success,trial_type,trial_index,time_elapsed,internal_node_id,Block,TrialNumber,TrialTime,trialTimeDiff,FPS_avg,FPS_med,FPS_mode,TrialDur,winResizeTime,rt,block,button_pressed,MotCoh,MotDir,ColCoh,Color,ChoiceKey,Choice,Accuracy,RT,nFrames,FPS,PPD,missTrial,missTrialMsg,onsetDelay,fullScreenExitTime,canvCenter,TrialType,Score,BlockTrial,stimulus,button_labels,exp,subjectId,date
True,fullscreen,0,1815,0.0-0.0,0.0,1.0,,,,,,,,,,,,,,,,,,,,,,,,,,,,,,,,HRV,HRV_0237,2022-11-30 19:33:59
,wl-check-fps,1,6798,0.0-1.0,0.0,2.0,"[2624, 2625.1, 2639.7, 2656, 2672.2, 2688.8, 2705.4, 2722, 2738.7, 2755.2, 2772, 2788.5, 2805.2, 2822, 2838.6, 2855.2, 2871.9, 2888.5, 2905.2, 2921.8, 2938.4, 2955.1, 2971.7, 2988.4, 3005, 3021.6, 3038.3, 3055.4, 3071.6, 3088.9, 3104.9, 3121.6, 3138.4, 3155.1, 3171.7, 3188.3, 3205, 3221.6, 3238.4, 3255.4, 3271.6, 3288.1, 3304.8, 3321.4, 3338, 3354.7, 3371.3, 3388, 3404.6, 3421.3, 3437.9, 3454.5, 3471.3, 3487.8, 3504.5, 3521.1, 3537.8, 3554.5, 3571.1, 3587.9, 3604.4, 3621, 3637.7, 3654.4, 3671.1, 3687.6, 3704.4, 3721, 3737.7, 3754.3, 3771, 3787.6, 3804.2, 3821, 3837.5, 3854.3, 3870.8, 3887.5, 3904.3, 3920.8, 3937.6, 3954.1, 3970.7, 3987.4, 4004.1, 4020.7, 4037.6, 4054, 4070.7, 4087.3, 4104, 4120.7, 4137.3, 4153.9, 4170.5, 4187.3, 4203.9, 4220.5, 4237.2, 4253.7, 4270.5, 4287.3, 4303.9, 4320.4, 4337.1, 4353.8, 4370.3, 4387.1, 4403.8, 4420.4, 4437.3, 4453.5, 4470.3, 4486.9, 4503.6, 4520.2, 4536.9, 4553.5, 4570.2, 4586.7, 4603.4, 4620.1, 4636.7, 4653.4, 4670, 4686.7, 4703.4, 4720, 4736.6, 4753.3, 4770, 4786.6, 4803.3, 4819.9, 4836.6, 4853.4, 4869.8, 4886.5, 4903.2, 4919.8, 4937.8, 4953.2, 4969.8, 4986.3, 5003, 5019.7, 5036.3, 5052.9, 5069.6, 5086.3, 5103, 5119.6, 5136.3, 5152.9, 5169.7, 5186.1, 5202.8, 5219.5, 5236.1, 5252.8, 5269.4, 5286, 5302.8, 5319.3, 5336, 5352.8, 5369.4, 5386, 5402.7, 5419.6, 5436, 5452.6, 5469.3, 5486.6, 5502.6, 5519.2, 5535.9, 5557.6, 5569.1, 5585.8, 5602.5, 5619.1, 5635.8, 5652.3, 5669.1, 5685.7, 5702.3, 5719, 5735.8, 5752.3, 5769, 5785.7, 5802.2, 5819.1, 5835.6, 5852.3, 5868.8, 5885.5, 5902.2, 5918.8, 5935.5, 5952.1, 5968.8, 5985.4, 6002.2, 6018.7, 6035.3, 6051.9, 6068.6, 6085.3, 6101.9, 6118.6, 6135.9, 6151.9, 6168.6, 6185.3, 6202.2, 6218.5, 6235.3, 6251.9, 6268.5, 6285, 6301.8, 6318.4, 6335.1, 6351.8, 6368.6, 6385, 6401.7, 6418.3, 6435, 6451.6, 6468.3, 6484.9, 6501.6, 6518.1, 6534.9, 6551.5, 6568.2, 6584.9, 6601.5, 6618, 6634.8, 6651.4, 6668, 6684.8, 6701.3, 6718, 6734.6, 6751.6, 6768, 6784.5, 6801.6, 6817.9, 6834.6, 6851.2, 6867.9, 6884.4, 6901.1, 6917.8, 6934.5, 6951.1, 6967.8, 6984.4, 7001, 7017.6, 7034.4, 7051.1, 7067.8, 7084.4, 7101.2, 7117.7, 7134.7, 7151.3, 7167.5, 7184.2, 7201, 7217.6, 7234.2, 7250.8, 7267.6, 7284.2, 7300.9, 7317.6, 7334.6, 7350.9, 7367.4, 7384.1, 7400.6, 7417.4, 7434, 7450.8, 7467.2, 7483.8, 7500.4, 7517, 7533.7, 7550.4, 7567, 7583.7]","[3.2, 1.1, 14.6, 16.3, 16.2, 16.6, 16.6, 16.6, 16.7, 16.5, 16.8, 16.5, 16.7, 16.8, 16.6, 16.6, 16.7, 16.6, 16.7, 16.6, 16.6, 16.7, 16.6, 16.7, 16.6, 16.6, 16.7, 17.1, 16.2, 17.3, 16, 16.7, 16.8, 16.7, 16.6, 16.6, 16.7, 16.6, 16.8, 17, 16.2, 16.5, 16.7, 16.6, 16.6, 16.7, 16.6, 16.7, 16.6, 16.7, 16.6, 16.6, 16.8, 16.5, 16.7, 16.6, 16.7, 16.7, 16.6, 16.8, 16.5, 16.6, 16.7, 16.7, 16.7, 16.5, 16.8, 16.6, 16.7, 16.6, 16.7, 16.6, 16.6, 16.8, 16.5, 16.8, 16.5, 16.7, 16.8, 16.5, 16.8, 16.5, 16.6, 16.7, 16.7, 16.6, 16.9, 16.4, 16.7, 16.6, 16.7, 16.7, 16.6, 16.6, 16.6, 16.8, 16.6, 16.6, 16.7, 16.5, 16.8, 16.8, 16.6, 16.5, 16.7, 16.7, 16.5, 16.8, 16.7, 16.6, 16.9, 16.2, 16.8, 16.6, 16.7, 16.6, 16.7, 16.6, 16.7, 16.5, 16.7, 16.7, 16.6, 16.7, 16.6, 16.7, 16.7, 16.6, 16.6, 16.7, 16.7, 16.6, 16.7, 16.6, 16.7, 16.8, 16.4, 16.7, 16.7, 16.6, 18, 15.4, 16.6, 16.5, 16.7, 16.7, 16.6, 16.6, 16.7, 16.7, 16.7, 16.6, 16.7, 16.6, 16.8, 16.4, 16.7, 16.7, 16.6, 16.7, 16.6, 16.6, 16.8, 16.5, 16.7, 16.8, 16.6, 16.6, 16.7, 16.9, 16.4, 16.6, 16.7, 17.3, 16, 16.6, 16.7, 21.7, 11.5, 16.7, 16.7, 16.6, 16.7, 16.5, 16.8, 16.6, 16.6, 16.7, 16.8, 16.5, 16.7, 16.7, 16.5, 16.9, 16.5, 16.7, 16.5, 16.7, 16.7, 16.6, 16.7, 16.6, 16.7, 16.6, 16.8, 16.5, 16.6, 16.6, 16.7, 16.7, 16.6, 16.7, 17.3, 16, 16.7, 16.7, 16.9, 16.3, 16.8, 16.6, 16.6, 16.5, 16.8, 16.6, 16.7, 16.7, 16.8, 16.4, 16.7, 16.6, 16.7, 16.6, 16.7, 16.6, 16.7, 16.5, 16.8, 16.6, 16.7, 16.7, 16.6, 16.5, 16.8, 16.6, 16.6, 16.8, 16.5, 16.7, 16.6, 17, 16.4, 16.5, 17.1, 16.3, 16.7, 16.6, 16.7, 16.5, 16.7, 16.7, 16.7, 16.6, 16.7, 16.6, 16.6, 16.6, 16.8, 16.7, 16.7, 16.6, 16.8, 16.5, 17, 16.6, 16.2, 16.7, 16.8, 16.6, 16.6, 16.6, 16.8, 16.6, 16.7, 16.7, 17, 16.3, 16.5, 16.7, 16.5, 16.8, 16.6, 16.8, 16.4, 16.6, 16.6, 16.6, 16.7, 16.7, 16.6, 16.7]",60.0,60.0,60.0,4979.5,[],,,,,,,,,,,,,,,,,,,,,,,,,HRV,HRV_0237,2022-11-30 19:33:59
,wl-html-keyboard-response,2,20169,0.0-2.0-0.0,0.0,3.0,,,,,,,,11351.70000000298,0.0,0,,,,,,,,,,,,,,,,,,,,,,HRV,HRV_0237,2022-11-30 19:33:59
,wl-rdm,3,28025,0.0-3.0-0.0,0.0,4.0,,,,,,,[],,,,0.0,0.0,87.9,0.0,u,0.0,True,2267.1000000089407,137.0,60.0,40.0,False,,3000.0,[],"[683, 384]",ColorTask_Demo,,,,,HRV,HRV_0237,2022-11-30 19:33:59
,wl-rdm,4,33087,0.0-3.0-1.0,0.0,5.0,,,,,,,[],,,,0.0,0.0,87.9,1.0,i,1.0,True,973.2000000178814,59.0,60.0,40.0,False,,2000.0,[],"[683, 384]",ColorTask_Demo,,,,,HRV,HRV_0237,2022-11-30 19:33:59
,wl-html-keyboard-response,5,37611,0.0-3.0-2.0,0.0,6.0,,,,,,,,2502.5,0.0,1,,,,,,,,,,,,,,,,,,,,,,HRV,HRV_0237,2022-11-30 19:33:59
,wl-html-keyboard-response,6,48342,0.0-4.0-0.0,0.0,7.0,,,,,,,,8721.70000000298,0.0,0,,,,,,,,,,,,,,,,,,,,,,HRV,HRV_0237,2022-11-30 19:33:59
,wl-html-keyboard-response,7,56262,0.0-5.0-0.0,0.0,8.0,,,,,,,,5915.5999999940395,0.0,0,,,,,,,,,,,,,,,,,,,,,,HRV,HRV_0237,2022-11-30 19:33:59
,wl-rdm,8,58544,0.0-6.0-0.0,0.0,9.0,,,,,,,[],,,,,,73.6,1.0,i,1.0,True,968.2999999970198,59.0,60.0,40.0,False,,232.17911820365387,[],"[683, 384]",ColorTask,1.0,1.0,,,HRV,HRV_0237,2022-11-30 19:33:59
,wl-rdm,9,60642,0.0-6.1-0.1,0.0,10.0,,,,,,,[],,,,,,87.9,0.0,u,0.0,True,694.8000000119209,42.0,60.0,40.0,False,,329.64999434636644,[],"[683, 384]",ColorTask,2.0,2.0,,,HRV,HRV_0237,2022-11-30 19:33:59
,wl-rdm,10,62807,0.0-6.2-0.2,0.0,11.0,,,,,,,[],,,,,,73.6,1.0,i,1.0,True,712.4000000059605,43.0,60.0,40.0,False,,371.06676176296793,[],"[683, 384]",ColorTask,3.0,3.0,,,HRV,HRV_0237,2022-11-30 19:33:59
,wl-rdm,11,64921,0.0-6.3-0.3,0.0,12.0,,,,,,,[],,,,,,56.4,1.0,u,0.0,False,784.1000000089407,48.0,60.0,40.0,False,,238.85760990953645,[],"[683, 384]",ColorTask,2.0,4.0,,,HRV,HRV_0237,2022-11-30 19:33:59
,wl-rdm,12,66952,0.0-6.4-0.4,0.0,13.0,,,,,,,[],,,,,,87.9,0.0,u,0.0,True,708.1999999880791,43.0,60.0,40.0,False,,234.26075877548996,[],"[683, 384]",ColorTask,3.0,5.0,,,HRV,HRV_0237,2022-11-30 19:33:59
,wl-rdm,13,69400,0.0-6.5-0.5,0.0,14.0,,,,,,,[],,,,,,56.4,0.0,u,0.0,True,1019.5999999940395,62.0,60.0,40.0,False,,345.2064401088383,[],"[683, 384]",ColorTask,4.0,6.0,,,HRV,HRV_0237,2022-11-30 19:33:59
,wl-rdm,14,71764,0.0-6.6-0.6,0.0,15.0,,,,,,,[],,,,,,50.0,1.0,u,0.0,False,1053.7999999970198,64.0,60.0,40.0,False,,220.0720023268227,[],"[683, 384]",ColorTask,3.0,7.0,,,HRV,HRV_0237,2022-11-30 19:33:59
,wl-rdm,15,73979,0.0-6.7-0.7,0.0,16.0,,,,,,,[],,,,,,53.2,1.0,u,0.0,False,771.8000000119209,47.0,60.0,40.0,False,,364.81184402609233,[],"[683, 384]",ColorTask,2.0,8.0,,,HRV,HRV_0237,2022-11-30 19:33:59
,wl-rdm,16,76193,0.0-6.8-0.8,0.0,17.0,,,,,,,[],,,,,,53.2,0.0,u,0.0,True,872.5999999940395,53.0,60.0,40.0,False,,255.4440591222097,[],"[683, 384]",ColorTask,3.0,9.0,,,HRV,HRV_0237,2022-11-30 19:33:59
,wl-rdm,17,78241,0.0-6.9-0.9,0.0,18.0,,,,,,,[],,,,,,73.6,0.0,u,0.0,True,693.5999999940395,42.0,60.0,40.0,False,,280.7991799494504,[],"[683, 384]",ColorTask,4.0,10.0,,,HRV,HRV_0237,2022-11-30 19:33:59
,wl-rdm,18,80206,0.0-6.10-0.10,0.0,19.0,,,,,,,[],,,,,,87.9,0.0,u,0.0,True,601.3999999910593,37.0,60.0,40.0,False,,266.49360223459723,[],"[683, 384]",ColorTask,5.0,11.0,,,HRV,HRV_0237,2022-11-30 19:33:59
,wl-rdm,19,82187,0.0-6.11-0.11,0.0,20.0,,,,,,,[],,,,,,62.5,1.0,i,1.0,True,566.1000000089407,34.0,60.0,40.0,False,,333.78373414919344,[],"[683, 384]",ColorTask,6.0,12.0,,,HRV,HRV_0237,2022-11-30 19:33:59
,wl-rdm,20,84069,0.0-6.12-0.12,0.0,21.0,,,,,,,[],,,,,,73.6,1.0,i,1.0,True,539.7000000029802,33.0,60.0,40.0,False,,250.2644393854746,[],"[683, 384]",ColorTask,7.0,13.0,,,HRV,HRV_0237,2022-11-30 19:33:59
,wl-rdm,21,86117,0.0-6.13-0.13,0.0,22.0,,,,,,,[],,,,,,73.6,0.0,u,0.0,True,660.4999999850988,40.0,60.0,40.0,False,,303.28350971427557,[],"[683, 384]",ColorTask,8.0,14.0,,,HRV,HRV_0237,2022-11-30 19:33:59
,wl-rdm,22,88081,0.0-6.14-0.14,0.0,23.0,,,,,,,[],,,,,,87.9,1.0,i,1.0,True,582.8000000119209,35.0,60.0,40.0,False,,314.44350310854696,[],"[683, 384]",ColorTask,9.0,15.0,,,HRV,HRV_0237,2022-11-30 19:33:59
,wl-rdm,23,90229,0.0-6.15-0.15,0.0,24.0,,,,,,,[],,,,,,73.6,1.0,i,1.0,True,684.2000000029802,42.0,60.0,40.0,False,,382.06548197787873,[],"[683, 384]",ColorTask,10.0,16.0,,,HRV,HRV_0237,2022-11-30 19:33:59
,wl-rdm,24,92077,0.0-6.16-0.16,0.0,25.0,,,,,,,[],,,,,,87.9,1.0,i,1.0,True,520.7000000029802,32.0,60.0,40.0,False,,246.84160248798756,[],"[683, 384]",ColorTask,11.0,17.0,,,HRV,HRV_0237,2022-11-30 19:33:59
,wl-rdm,25,94142,0.0-6.17-0.17,0.0,26.0,,,,,,,[],,,,,,56.4,1.0,u,0.0,False,781.1999999880791,47.0,60.0,40.0,False,,211.48312277791473,[],"[683, 384]",ColorTask,10.0,18.0,,,HRV,HRV_0237,2022-11-30 19:33:59
,wl-rdm,26,96140,0.0-6.18-0.18,0.0,27.0,,,,,,,[],,,,,,62.5,0.0,u,0.0,True,669.0,41.0,60.0,40.0,False,,242.55538956103553,[],"[683, 384]",ColorTask,11.0,19.0,,,HRV,HRV_0237,2022-11-30 19:33:59
,wl-rdm,27,98172,0.0-6.19-0.19,0.0,28.0,,,,,,,[],,,,,,53.2,0.0,u,0.0,True,720.4000000059605,44.0,60.0,40.0,False,,216.94344179966242,[],"[683, 384]",ColorTask,12.0,20.0,,,HRV,HRV_0237,2022-11-30 19:33:59
,wl-rdm,28,100253,0.0-6.20-0.20,0.0,29.0,,,,,,,[],,,,,,62.5,0.0,u,0.0,True,717.6999999880791,44.0,60.0,40.0,False,,274.2955141595197,[],"[683, 384]",ColorTask,13.0,21.0,,,HRV,HRV_0237,2022-11-30 19:33:59
,wl-rdm,29,102167,0.0-6.21-0.21,0.0,30.0,,,,,,,[],,,,,,50.0,0.0,u,0.0,True,629.0999999940395,38.0,60.0,40.0,False,,201.07683288390615,[],"[683, 384]",ColorTask,14.0,22.0,,,HRV,HRV_0237,2022-11-30 19:33:59
,wl-rdm,30,104149,0.0-6.22-0.22,0.0,31.0,,,,,,,[],,,,,,87.9,0.0,u,0.0,True,621.2000000178814,38.0,60.0,40.0,False,,281.06868884167335,[],"[683, 384]",ColorTask,15.0,23.0,,,HRV,HRV_0237,2022-11-30 19:33:59
,wl-rdm,31,106080,0.0-6.23-0.23,0.0,32.0,,,,,,,[],,,,,,87.9,1.0,i,1.0,True,624.8000000119209,38.0,60.0,40.0,False,,232.2504607915542,[],"[683, 384]",ColorTask,16.0,24.0,,,HRV,HRV_0237,2022-11-30 19:33:59
,wl-rdm,32,108245,0.0-6.24-0.24,0.0,33.0,,,,,,,[],,,,,,56.4,1.0,i,1.0,True,845.9000000059605,51.0,60.0,40.0,False,,235.08877879318376,[],"[683, 384]",ColorTask,17.0,25.0,,,HRV,HRV_0237,2022-11-30 19:33:59
,wl-rdm,33,110259,0.0-6.25-0.25,0.0,34.0,,,,,,,[],,,,,,56.4,1.0,i,1.0,True,649.0999999940395,39.0,60.0,40.0,False,,290.8360593407583,[],"[683, 384]",ColorTask,18.0,26.0,,,HRV,HRV_0237,2022-11-30 19:33:59
,wl-rdm,34,112274,0.0-6.26-0.26,0.0,35.0,,,,,,,[],,,,,,56.4,0.0,u,0.0,True,730.4000000059605,44.0,60.0,40.0,False,,214.568309593971,[],"[683, 384]",ColorTask,19.0,27.0,,,HRV,HRV_0237,2022-11-30 19:33:59
,wl-rdm,35,114705,0.0-6.27-0.27,0.0,36.0,,,,,,,[],,,,,,53.2,1.0,u,0.0,False,1030.2000000178814,62.0,60.0,40.0,False,,318.70616220792033,[],"[683, 384]",ColorTask,18.0,28.0,,,HRV,HRV_0237,2022-11-30 19:33:59
,wl-rdm,36,116753,0.0-6.28-0.28,0.0,37.0,,,,,,,[],,,,,,50.0,0.0,u,0.0,True,673.5,41.0,60.0,40.0,False,,295.1588334925307,[],"[683, 384]",ColorTask,19.0,29.0,,,HRV,HRV_0237,2022-11-30 19:33:59
,wl-rdm,37,118585,0.0-6.29-0.29,0.0,38.0,,,,,,,[],,,,,,87.9,1.0,i,1.0,True,523.4000000059605,32.0,60.0,40.0,False,,220.90663745047863,[],"[683, 384]",ColorTask,20.0,30.0,,,HRV,HRV_0237,2022-11-30 19:33:59
,wl-rdm,38,120649,0.0-6.30-0.30,0.0,39.0,,,,,,,[],,,,,,62.5,1.0,i,1.0,True,597.2000000029802,36.0,60.0,40.0,False,,388.0786530463846,[],"[683, 384]",ColorTask,21.0,31.0,,,HRV,HRV_0237,2022-11-30 19:33:59
,wl-rdm,39,122780,0.0-6.31-0.31,0.0,40.0,,,,,,,[],,,,,,50.0,1.0,u,0.0,False,836.3000000119209,51.0,60.0,40.0,False,,215.60103108825302,[],"[683, 384]",ColorTask,20.0,32.0,,,HRV,HRV_0237,2022-11-30 19:33:59
,wl-rdm,40,124978,0.0-6.32-0.32,0.0,41.0,,,,,,,[],,,,,,56.4,0.0,i,1.0,False,901.2999999970198,55.0,60.0,40.0,False,,216.06062318038374,[],"[683, 384]",ColorTask,19.0,33.0,,,HRV,HRV_0237,2022-11-30 19:33:59
,wl-rdm,41,127159,0.0-6.33-0.33,0.0,42.0,,,,,,,[],,,,,,56.4,0.0,u,0.0,True,702.3999999910593,43.0,60.0,40.0,False,,386.0703064483687,[],"[683, 384]",ColorTask,20.0,34.0,,,HRV,HRV_0237,2022-11-30 19:33:59
,wl-rdm,42,129124,0.0-6.34-0.34,0.0,43.0,,,,,,,[],,,,,,73.6,1.0,i,1.0,True,679.6999999880791,41.0,60.0,40.0,False,,208.464907215724,[],"[683, 384]",ColorTask,21.0,35.0,,,HRV,HRV_0237,2022-11-30 19:33:59
,wl-rdm,43,131122,0.0-6.35-0.35,0.0,44.0,,,,,,,[],,,,,,73.6,0.0,u,0.0,True,629.5,38.0,60.0,40.0,False,,289.80298909712167,[],"[683, 384]",ColorTask,22.0,36.0,,,HRV,HRV_0237,2022-11-30 19:33:59
,wl-rdm,44,133103,0.0-6.36-0.36,0.0,45.0,,,,,,,[],,,,,,73.6,1.0,i,1.0,True,674.0,41.0,60.0,40.0,False,,230.11891657269211,[],"[683, 384]",ColorTask,23.0,37.0,,,HRV,HRV_0237,2022-11-30 19:33:59
,wl-rdm,45,135118,0.0-6.37-0.37,0.0,46.0,,,,,,,[],,,,,,50.0,0.0,u,0.0,True,718.2000000029802,44.0,60.0,40.0,False,,215.82240665127478,[],"[683, 384]",ColorTask,24.0,38.0,,,HRV,HRV_0237,2022-11-30 19:33:59
,wl-rdm,46,137216,0.0-6.38-0.38,0.0,47.0,,,,,,,[],,,,,,62.5,0.0,u,0.0,True,623.3999999910593,38.0,60.0,40.0,False,,385.0276329470023,[],"[683, 384]",ColorTask,25.0,39.0,,,HRV,HRV_0237,2022-11-30 19:33:59
,wl-rdm,47,139247,0.0-6.39-0.39,0.0,48.0,,,,,,,[],,,,,,73.6,1.0,i,1.0,True,635.5999999940395,39.0,60.0,40.0,False,,303.0946350819923,[],"[683, 384]",ColorTask,26.0,40.0,,,HRV,HRV_0237,2022-11-30 19:33:59
,wl-rdm,48,141379,0.0-6.40-0.40,0.0,49.0,,,,,,,[],,,,,,62.5,0.0,u,0.0,True,764.9000000059605,46.0,60.0,40.0,False,,295.8528223254038,[],"[683, 384]",ColorTask,27.0,41.0,,,HRV,HRV_0237,2022-11-30 19:33:59
,wl-rdm,49,143310,0.0-6.41-0.41,0.0,50.0,,,,,,,[],,,,,,50.0,1.0,i,1.0,True,618.7999999970198,38.0,60.0,40.0,False,,221.07531690009841,[],"[683, 384]",ColorTask,28.0,42.0,,,HRV,HRV_0237,2022-11-30 19:33:59
,wl-rdm,50,145241,0.0-6.42-0.42,0.0,51.0,,,,,,,[],,,,,,87.9,0.0,u,0.0,True,627.7999999970198,38.0,60.0,40.0,False,,224.39748412951178,[],"[683, 384]",ColorTask,29.0,43.0,,,HRV,HRV_0237,2022-11-30 19:33:59
,wl-rdm,51,147173,0.0-6.43-0.43,0.0,52.0,,,,,,,[],,,,,,73.6,0.0,u,0.0,True,627.7000000029802,38.0,60.0,40.0,False,,227.23450620149265,[],"[683, 384]",ColorTask,30.0,44.0,,,HRV,HRV_0237,2022-11-30 19:33:59
,wl-rdm,52,149204,0.0-6.44-0.44,0.0,53.0,,,,,,,[],,,,,,53.2,1.0,u,0.0,False,564.2999999970198,34.0,60.0,40.0,False,,385.69411756313207,[],"[683, 384]",ColorTask,29.0,45.0,,,HRV,HRV_0237,2022-11-30 19:33:59
,wl-rdm,53,151169,0.0-6.45-0.45,0.0,54.0,,,,,,,[],,,,,,50.0,1.0,u,0.0,False,641.5999999940395,39.0,60.0,40.0,False,,246.89741793017225,[],"[683, 384]",ColorTask,28.0,46.0,,,HRV,HRV_0237,2022-11-30 19:33:59
,wl-rdm,54,153367,0.0-6.46-0.46,0.0,55.0,,,,,,,[],,,,,,56.4,1.0,u,0.0,False,736.6000000089407,45.0,60.0,40.0,False,,369.4678297647778,[],"[683, 384]",ColorTask,27.0,47.0,,,HRV,HRV_0237,2022-11-30 19:33:59
,wl-rdm,55,155514,0.0-6.47-0.47,0.0,56.0,,,,,,,[],,,,,,50.0,1.0,u,0.0,False,713.9000000059605,43.0,60.0,40.0,False,,353.52003403007416,[],"[683, 384]",ColorTask,26.0,48.0,,,HRV,HRV_0237,2022-11-30 19:33:59
,wl-rdm,56,157795,0.0-6.48-0.48,0.0,57.0,,,,,,,[],,,,,,73.6,0.0,u,0.0,True,941.7000000029802,57.0,60.0,40.0,False,,259.91607685207873,[],"[683, 384]",ColorTask,27.0,49.0,,,HRV,HRV_0237,2022-11-30 19:33:59
,wl-rdm,57,160093,0.0-6.49-0.49,0.0,58.0,,,,,,,[],,,,,,56.4,0.0,u,0.0,True,1006.6000000089407,61.0,60.0,40.0,False,,209.3149133683771,[],"[683, 384]",ColorTask,28.0,50.0,,,HRV,HRV_0237,2022-11-30 19:33:59
,wl-rdm,58,162457,0.0-6.50-0.50,0.0,59.0,,,,,,,[],,,,,,53.2,1.0,i,1.0,True,1070.0999999940395,65.0,60.0,40.0,False,,210.9063684834792,[],"[683, 384]",ColorTask,29.0,51.0,,,HRV,HRV_0237,2022-11-30 19:33:59
,wl-rdm,59,164855,0.0-6.51-0.51,0.0,60.0,,,,,,,[],,,,,,53.2,0.0,u,0.0,True,922.2000000178814,56.0,60.0,40.0,False,,383.09407699047443,[],"[683, 384]",ColorTask,30.0,52.0,,,HRV,HRV_0237,2022-11-30 19:33:59
,wl-rdm,60,166870,0.0-6.52-0.52,0.0,61.0,,,,,,,[],,,,,,87.9,0.0,u,0.0,True,690.7000000029802,42.0,60.0,40.0,False,,234.66972644723435,[],"[683, 384]",ColorTask,31.0,53.0,,,HRV,HRV_0237,2022-11-30 19:33:59
,wl-rdm,61,168918,0.0-6.53-0.53,0.0,62.0,,,,,,,[],,,,,,73.6,0.0,u,0.0,True,615.3000000119209,37.0,60.0,40.0,False,,363.5493631765132,[],"[683, 384]",ColorTask,32.0,54.0,,,HRV,HRV_0237,2022-11-30 19:33:59
,wl-rdm,62,171182,0.0-6.54-0.54,0.0,63.0,,,,,,,[],,,,,,53.2,0.0,i,1.0,False,921.9999999850988,56.0,60.0,40.0,False,,264.936070448645,[],"[683, 384]",ColorTask,31.0,55.0,,,HRV,HRV_0237,2022-11-30 19:33:59
,wl-rdm,63,173829,0.0-6.55-0.55,0.0,64.0,,,,,,,[],,,,,,56.4,0.0,i,1.0,False,1200.6000000089407,73.0,60.0,40.0,False,,357.0745674300537,[],"[683, 384]",ColorTask,30.0,56.0,,,HRV,HRV_0237,2022-11-30 19:33:59
,wl-rdm,64,176044,0.0-6.56-0.56,0.0,65.0,,,,,,,[],,,,,,50.0,0.0,i,1.0,False,857.0,52.0,60.0,40.0,False,,274.61543339474395,[],"[683, 384]",ColorTask,29.0,57.0,,,HRV,HRV_0237,2022-11-30 19:33:59
,wl-rdm,65,178192,0.0-6.57-0.57,0.0,66.0,,,,,,,[],,,,,,87.9,1.0,i,1.0,True,865.7000000029802,52.0,60.0,40.0,False,,200.7829453041046,[],"[683, 384]",ColorTask,30.0,58.0,,,HRV,HRV_0237,2022-11-30 19:33:59
,wl-rdm,66,180373,0.0-6.58-0.58,0.0,67.0,,,,,,,[],,,,,,53.2,0.0,u,0.0,True,868.3000000119209,53.0,60.0,40.0,False,,225.0684036266005,[],"[683, 384]",ColorTask,31.0,59.0,,,HRV,HRV_0237,2022-11-30 19:33:59
,wl-rdm,67,182821,0.0-6.59-0.59,0.0,68.0,,,,,,,[],,,,,,53.2,0.0,u,0.0,True,969.5000000149012,59.0,60.0,40.0,False,,388.76531825136817,[],"[683, 384]",ColorTask,32.0,60.0,,,HRV,HRV_0237,2022-11-30 19:33:59
,wl-rdm,68,184802,0.0-6.60-0.60,0.0,69.0,,,,,,,[],,,,,,53.2,1.0,u,0.0,False,689.2000000029802,42.0,60.0,40.0,False,,209.35822572989372,[],"[683, 384]",ColorTask,31.0,61.0,,,HRV,HRV_0237,2022-11-30 19:33:59
,wl-rdm,69,186833,0.0-6.61-0.61,0.0,70.0,,,,,,,[],,,,,,62.5,1.0,i,1.0,True,637.3999999910593,39.0,60.0,40.0,False,,307.8798953570389,[],"[683, 384]",ColorTask,32.0,62.0,,,HRV,HRV_0237,2022-11-30 19:33:59
,wl-rdm,70,189231,0.0-6.62-0.62,0.0,71.0,,,,,,,[],,,,,,50.0,1.0,u,0.0,False,946.5,57.0,60.0,40.0,False,,380.4985631370481,[],"[683, 384]",ColorTask,31.0,63.0,,,HRV,HRV_0237,2022-11-30 19:33:59
,wl-rdm,71,191512,0.0-6.63-0.63,0.0,72.0,,,,,,,[],,,,,,62.5,0.0,u,0.0,True,929.0,56.0,60.0,40.0,False,,280.837079538763,[],"[683, 384]",ColorTask,32.0,64.0,,,HRV,HRV_0237,2022-11-30 19:33:59
,wl-rdm,72,193543,0.0-6.64-0.64,0.0,73.0,,,,,,,[],,,,,,50.0,0.0,u,0.0,True,672.0999999940395,41.0,60.0,40.0,False,,272.5889414802911,[],"[683, 384]",ColorTask,33.0,65.0,,,HRV,HRV_0237,2022-11-30 19:33:59
,wl-rdm,73,195641,0.0-6.65-0.65,0.0,74.0,,,,,,,[],,,,,,62.5,1.0,i,1.0,True,785.1000000089407,48.0,60.0,40.0,False,,227.36153762484741,[],"[683, 384]",ColorTask,34.0,66.0,,,HRV,HRV_0237,2022-11-30 19:33:59
,wl-rdm,74,197606,0.0-6.66-0.66,0.0,75.0,,,,,,,[],,,,,,87.9,1.0,i,1.0,True,618.2000000178814,38.0,60.0,40.0,False,,260.72392981487195,[],"[683, 384]",ColorTask,35.0,67.0,,,HRV,HRV_0237,2022-11-30 19:33:59
,wl-rdm,75,199504,0.0-6.67-0.67,0.0,76.0,,,,,,,[],,,,,,73.6,0.0,u,0.0,True,611.7999999821186,37.0,60.0,40.0,False,,206.66594988480344,[],"[683, 384]",ColorTask,36.0,68.0,,,HRV,HRV_0237,2022-11-30 19:33:59
,wl-rdm,76,201718,0.0-6.68-0.68,0.0,77.0,,,,,,,[],,,,,,62.5,1.0,i,1.0,True,746.5000000149012,45.0,60.0,40.0,False,,386.60937862407,[],"[683, 384]",ColorTask,37.0,69.0,,,HRV,HRV_0237,2022-11-30 19:33:59
,wl-rdm,77,203800,0.0-6.69-0.69,0.0,78.0,,,,,,,[],,,,,,62.5,0.0,u,0.0,True,762.5,46.0,60.0,40.0,False,,234.34763136921606,[],"[683, 384]",ColorTask,38.0,70.0,,,HRV,HRV_0237,2022-11-30 19:33:59
,wl-rdm,78,205914,0.0-6.70-0.70,0.0,79.0,,,,,,,[],,,,,,56.4,0.0,u,0.0,True,721.1999999880791,44.0,60.0,40.0,False,,307.1684342156545,[],"[683, 384]",ColorTask,39.0,71.0,,,HRV,HRV_0237,2022-11-30 19:33:59
,wl-rdm,79,208062,0.0-6.71-0.71,0.0,80.0,,,,,,,[],,,,,,56.4,1.0,u,0.0,False,864.4000000059605,52.0,60.0,40.0,False,,216.25544850168686,[],"[683, 384]",ColorTask,38.0,72.0,,,HRV,HRV_0237,2022-11-30 19:33:59
,wl-rdm,80,210277,0.0-6.72-0.72,0.0,81.0,,,,,,,[],,,,,,50.0,0.0,u,0.0,True,813.9000000059605,49.0,60.0,40.0,False,,319.7979211347762,[],"[683, 384]",ColorTask,39.0,73.0,,,HRV,HRV_0237,2022-11-30 19:33:59
,wl-rdm,81,212391,0.0-6.73-0.73,0.0,82.0,,,,,,,[],,,,,,73.6,1.0,i,1.0,True,728.3000000119209,44.0,60.0,40.0,False,,302.69784934144764,[],"[683, 384]",ColorTask,40.0,74.0,,,HRV,HRV_0237,2022-11-30 19:33:59
,wl-rdm,82,214506,0.0-6.74-0.74,0.0,83.0,,,,,,,[],,,,,,62.5,0.0,u,0.0,True,645.0999999940395,39.0,60.0,40.0,False,,398.79690166124215,[],"[683, 384]",ColorTask,41.0,75.0,,,HRV,HRV_0237,2022-11-30 19:33:59
,wl-rdm,83,216570,0.0-6.75-0.75,0.0,84.0,,,,,,,[],,,,,,73.6,0.0,u,0.0,True,702.7999999970198,43.0,60.0,40.0,False,,281.9161557442577,[],"[683, 384]",ColorTask,42.0,76.0,,,HRV,HRV_0237,2022-11-30 19:33:59
,wl-rdm,84,218602,0.0-6.76-0.76,0.0,85.0,,,,,,,[],,,,,,87.9,1.0,i,1.0,True,605.5,37.0,60.0,40.0,False,,349.2428168369775,[],"[683, 384]",ColorTask,43.0,77.0,,,HRV,HRV_0237,2022-11-30 19:33:59
,wl-rdm,85,220550,0.0-6.77-0.77,0.0,86.0,,,,,,,[],,,,,,73.6,0.0,u,0.0,True,605.0000000149012,37.0,60.0,40.0,False,,252.89862692797362,[],"[683, 384]",ColorTask,44.0,78.0,,,HRV,HRV_0237,2022-11-30 19:33:59
,wl-rdm,86,222581,0.0-6.78-0.78,0.0,87.0,,,,,,,[],,,,,,56.4,1.0,i,1.0,True,583.8999999910593,36.0,60.0,40.0,False,,349.91029016908215,[],"[683, 384]",ColorTask,45.0,79.0,,,HRV,HRV_0237,2022-11-30 19:33:59
,wl-rdm,87,224696,0.0-6.79-0.79,0.0,88.0,,,,,,,[],,,,,,62.5,0.0,u,0.0,True,741.4999999850988,45.0,60.0,40.0,False,,298.43138325555276,[],"[683, 384]",ColorTask,46.0,80.0,,,HRV,HRV_0237,2022-11-30 19:33:59
,wl-rdm,88,226943,0.0-6.80-0.80,0.0,89.0,,,,,,,[],,,,,,53.2,1.0,i,1.0,True,903.6000000089407,55.0,60.0,40.0,False,,250.37088347137666,[],"[683, 384]",ColorTask,47.0,81.0,,,HRV,HRV_0237,2022-11-30 19:33:59
,wl-rdm,89,228891,0.0-6.81-0.81,0.0,90.0,,,,,,,[],,,,,,56.4,1.0,i,1.0,True,580.2000000029802,35.0,60.0,40.0,False,,296.9631266637368,[],"[683, 384]",ColorTask,48.0,82.0,,,HRV,HRV_0237,2022-11-30 19:33:59
,wl-rdm,90,230956,0.0-6.82-0.82,0.0,91.0,,,,,,,[],,,,,,50.0,1.0,i,1.0,True,775.0,47.0,60.0,40.0,False,,201.08334867418088,[],"[683, 384]",ColorTask,49.0,83.0,,,HRV,HRV_0237,2022-11-30 19:33:59
,wl-rdm,91,233007,0.0-6.83-0.83,0.0,92.0,,,,,,,[],,,,,,62.5,1.0,i,1.0,True,775.3000000119209,47.0,60.0,40.0,False,,204.31800204692806,[],"[683, 384]",ColorTask,50.0,84.0,,,HRV,HRV_0237,2022-11-30 19:33:59
,wl-rdm,92,235069,0.0-6.84-0.84,0.0,93.0,,,,,,,[],,,,,,73.6,1.0,i,1.0,True,585.0999999940395,36.0,60.0,40.0,False,,384.51262325351854,[],"[683, 384]",ColorTask,51.0,85.0,,,HRV,HRV_0237,2022-11-30 19:33:59
,wl-rdm,93,237133,0.0-6.85-0.85,0.0,94.0,,,,,,,[],,,,,,50.0,0.0,i,1.0,False,761.1000000089407,46.0,60.0,40.0,False,,230.4069352881564,[],"[683, 384]",ColorTask,50.0,86.0,,,HRV,HRV_0237,2022-11-30 19:33:59
,wl-rdm,94,238982,0.0-6.86-0.86,0.0,95.0,,,,,,,[],,,,,,87.9,1.0,i,1.0,True,530.0,32.0,60.0,40.0,False,,235.48816249676312,[],"[683, 384]",ColorTask,51.0,87.0,,,HRV,HRV_0237,2022-11-30 19:33:59
,wl-rdm,95,241113,0.0-6.87-0.87,0.0,96.0,,,,,,,[],,,,,,53.2,0.0,i,1.0,False,793.1000000089407,48.0,60.0,40.0,False,,261.32924000708283,[],"[683, 384]",ColorTask,50.0,88.0,,,HRV,HRV_0237,2022-11-30 19:33:59
,wl-rdm,96,243044,0.0-6.88-0.88,0.0,97.0,,,,,,,[],,,,,,87.9,1.0,i,1.0,True,537.2000000029802,33.0,60.0,40.0,False,,302.14876852323044,[],"[683, 384]",ColorTask,51.0,89.0,,,HRV,HRV_0237,2022-11-30 19:33:59
,wl-rdm,97,245042,0.0-6.89-0.89,0.0,98.0,,,,,,,[],,,,,,87.9,0.0,u,0.0,True,558.0,34.0,60.0,40.0,False,,365.3743819441507,[],"[683, 384]",ColorTask,52.0,90.0,,,HRV,HRV_0237,2022-11-30 19:33:59
,wl-rdm,98,247040,0.0-6.90-0.90,0.0,99.0,,,,,,,[],,,,,,87.9,0.0,u,0.0,True,535.4000000059605,33.0,60.0,40.0,False,,372.75201274452564,[],"[683, 384]",ColorTask,53.0,91.0,,,HRV,HRV_0237,2022-11-30 19:33:59
,wl-rdm,99,249354,0.0-6.91-0.91,0.0,100.0,,,,,,,[],,,,,,53.2,1.0,u,0.0,False,912.1999999880791,55.0,60.0,40.0,False,,326.1652380329773,[],"[683, 384]",ColorTask,52.0,92.0,,,HRV,HRV_0237,2022-11-30 19:33:59
,wl-rdm,100,251735,0.0-6.92-0.92,0.0,101.0,,,,,,,[],,,,,,56.4,0.0,u,0.0,True,911.2000000029802,55.0,60.0,40.0,False,,392.44143793608407,[],"[683, 384]",ColorTask,53.0,93.0,,,HRV,HRV_0237,2022-11-30 19:33:59
,wl-rdm,101,253633,0.0-6.93-0.93,0.0,102.0,,,,,,,[],,,,,,50.0,1.0,u,0.0,False,591.2000000029802,36.0,60.0,40.0,False,,228.26341055983855,[],"[683, 384]",ColorTask,52.0,94.0,,,HRV,HRV_0237,2022-11-30 19:33:59
,wl-rdm,102,255965,0.0-6.94-0.94,0.0,103.0,,,,,,,[],,,,,,62.5,1.0,i,1.0,True,1003.2999999970198,61.0,60.0,40.0,False,,248.0921072058576,[],"[683, 384]",ColorTask,53.0,95.0,,,HRV,HRV_0237,2022-11-30 19:33:59
,wl-rdm,103,258046,0.0-6.95-0.95,0.0,104.0,,,,,,,[],,,,,,50.0,0.0,i,1.0,False,604.0,37.0,60.0,40.0,False,,396.07886006532806,[],"[683, 384]",ColorTask,52.0,96.0,,,HRV,HRV_0237,2022-11-30 19:33:59
,wl-rdm,104,260210,0.0-6.96-0.96,0.0,105.0,,,,,,,[],,,,,,56.4,1.0,i,1.0,True,869.8999999910593,53.0,60.0,40.0,False,,200.21856788655438,[],"[683, 384]",ColorTask,53.0,97.0,,,HRV,HRV_0237,2022-11-30 19:33:59
,wl-rdm,105,262275,0.0-6.97-0.97,0.0,106.0,,,,,,,[],,,,,,56.4,0.0,i,1.0,False,635.2000000029802,39.0,60.0,40.0,False,,334.1895105695289,[],"[683, 384]",ColorTask,52.0,98.0,,,HRV,HRV_0237,2022-11-30 19:33:59
,wl-rdm,106,264373,0.0-6.98-0.98,0.0,107.0,,,,,,,[],,,,,,53.2,1.0,i,1.0,True,679.6999999880791,41.0,60.0,40.0,False,,334.2168613539236,[],"[683, 384]",ColorTask,53.0,99.0,,,HRV,HRV_0237,2022-11-30 19:33:59
,wl-rdm,107,266471,0.0-6.99-0.99,0.0,108.0,,,,,,,[],,,,,,53.2,1.0,i,1.0,True,690.1000000089407,42.0,60.0,40.0,False,,320.94433301428757,[],"[683, 384]",ColorTask,54.0,100.0,,,HRV,HRV_0237,2022-11-30 19:33:59
,wl-rdm,108,268602,0.0-6.100-0.100,0.0,109.0,,,,,,,[],,,,,,53.2,0.0,u,0.0,True,711.2999999970198,43.0,60.0,40.0,False,,344.9084854919989,[],"[683, 384]",ColorTask,55.0,101.0,,,HRV,HRV_0237,2022-11-30 19:33:59
,wl-rdm,109,270617,0.0-6.101-0.101,0.0,110.0,,,,,,,[],,,,,,87.9,0.0,u,0.0,True,547.2999999970198,33.0,60.0,40.0,False,,398.22703936746507,[],"[683, 384]",ColorTask,56.0,102.0,,,HRV,HRV_0237,2022-11-30 19:33:59
,wl-rdm,110,272482,0.0-6.102-0.102,0.0,111.0,,,,,,,[],,,,,,62.5,1.0,u,0.0,False,569.4000000059605,35.0,60.0,40.0,False,,200.96776833614146,[],"[683, 384]",ColorTask,55.0,103.0,,,HRV,HRV_0237,2022-11-30 19:33:59
,wl-rdm,111,274829,0.0-6.103-0.103,0.0,112.0,,,,,,,[],,,,,,62.5,0.0,u,0.0,True,1038.300000011921,63.0,60.0,40.0,False,,218.31373185204356,[],"[683, 384]",ColorTask,56.0,104.0,,,HRV,HRV_0237,2022-11-30 19:33:59
,wl-rdm,112,277061,0.0-6.104-0.104,0.0,113.0,,,,,,,[],,,,,,50.0,0.0,i,1.0,False,812.2999999970198,49.0,60.0,40.0,False,,348.55704030502625,[],"[683, 384]",ColorTask,55.0,105.0,,,HRV,HRV_0237,2022-11-30 19:33:59
,wl-rdm,113,279558,0.0-6.105-0.105,0.0,114.0,,,,,,,[],,,,,,50.0,1.0,i,1.0,True,1187.6000000089407,72.0,60.0,40.0,False,,223.44129169731957,[],"[683, 384]",ColorTask,56.0,106.0,,,HRV,HRV_0237,2022-11-30 19:33:59
,wl-rdm,114,281556,0.0-6.106-0.106,0.0,115.0,,,,,,,[],,,,,,62.5,1.0,i,1.0,True,640.2000000029802,39.0,60.0,40.0,False,,278.4171462414222,[],"[683, 384]",ColorTask,57.0,107.0,,,HRV,HRV_0237,2022-11-30 19:33:59
,wl-rdm,115,283604,0.0-6.107-0.107,0.0,116.0,,,,,,,[],,,,,,53.2,0.0,i,1.0,False,601.9000000208616,37.0,60.0,40.0,False,,350.2145254659075,[],"[683, 384]",ColorTask,56.0,108.0,,,HRV,HRV_0237,2022-11-30 19:33:59
,wl-html-keyboard-response,116,292722,0.0-7.0-0.0,1.0,117.0,,,,,,,,7108.29999999702,1.0,0,,,,,,,,,,,,,,,,,,,,,,HRV,HRV_0237,2022-11-30 19:33:59
,wl-rdm,117,294843,0.0-8.0-0.0,1.0,118.0,,,,,,,[],,,,,,53.2,1.0,i,1.0,True,652.4000000059605,40.0,60.0,40.0,False,,391.6283609305775,[],"[683, 384]",ColorTask,57.0,1.0,,,HRV,HRV_0237,2022-11-30 19:33:59
,wl-rdm,118,296824,0.0-8.1-0.1,1.0,119.0,,,,,,,[],,,,,,50.0,0.0,i,1.0,False,685.7999999821186,42.0,60.0,40.0,False,,202.05384553419256,[],"[683, 384]",ColorTask,56.0,2.0,,,HRV,HRV_0237,2022-11-30 19:33:59
,wl-rdm,119,298639,0.0-8.2-0.2,1.0,120.0,,,,,,,[],,,,,,73.6,0.0,u,0.0,True,509.2000000178814,31.0,60.0,40.0,False,,227.16170647203637,[],"[683, 384]",ColorTask,57.0,3.0,,,HRV,HRV_0237,2022-11-30 19:33:59
,wl-rdm,120,300587,0.0-8.3-0.3,1.0,121.0,,,,,,,[],,,,,,56.4,1.0,i,1.0,True,636.7999999821186,39.0,60.0,40.0,False,,218.25480642645232,[],"[683, 384]",ColorTask,58.0,4.0,,,HRV,HRV_0237,2022-11-30 19:33:59
,wl-rdm,121,302735,0.0-8.4-0.4,1.0,122.0,,,,,,,[],,,,,,53.2,1.0,i,1.0,True,736.2999999821186,45.0,60.0,40.0,False,,321.1256789224376,[],"[683, 384]",ColorTask,59.0,5.0,,,HRV,HRV_0237,2022-11-30 19:33:59
,wl-rdm,122,304966,0.0-8.5-0.5,1.0,123.0,,,,,,,[],,,,,,56.4,0.0,i,1.0,False,856.4000000059605,52.0,60.0,40.0,False,,286.58267614153044,[],"[683, 384]",ColorTask,58.0,6.0,,,HRV,HRV_0237,2022-11-30 19:33:59
,wl-rdm,123,306931,0.0-8.6-0.6,1.0,124.0,,,,,,,[],,,,,,62.5,0.0,u,0.0,True,607.5999999940395,37.0,60.0,40.0,False,,276.6922241595795,[],"[683, 384]",ColorTask,59.0,7.0,,,HRV,HRV_0237,2022-11-30 19:33:59
,wl-rdm,124,308996,0.0-8.7-0.7,1.0,125.0,,,,,,,[],,,,,,53.2,0.0,i,1.0,False,632.7999999970198,38.0,60.0,40.0,False,,361.8203237984376,[],"[683, 384]",ColorTask,58.0,8.0,,,HRV,HRV_0237,2022-11-30 19:33:59
,wl-rdm,125,311093,0.0-8.8-0.8,1.0,126.0,,,,,,,[],,,,,,56.4,0.0,u,0.0,True,705.9000000059605,43.0,60.0,40.0,False,,307.4022448510349,[],"[683, 384]",ColorTask,59.0,9.0,,,HRV,HRV_0237,2022-11-30 19:33:59
,wl-rdm,126,312992,0.0-8.9-0.9,1.0,127.0,,,,,,,[],,,,,,87.9,1.0,i,1.0,True,596.2999999821186,36.0,60.0,40.0,False,,232.0068947495415,[],"[683, 384]",ColorTask,60.0,10.0,,,HRV,HRV_0237,2022-11-30 19:33:59
,wl-rdm,127,314856,0.0-8.10-0.10,1.0,128.0,,,,,,,[],,,,,,87.9,1.0,i,1.0,True,542.5,33.0,60.0,40.0,False,,240.077305137368,[],"[683, 384]",ColorTask,61.0,11.0,,,HRV,HRV_0237,2022-11-30 19:33:59
,wl-rdm,128,316655,0.0-8.11-0.11,1.0,129.0,,,,,,,[],,,,,,50.0,1.0,i,1.0,True,505.09999999403954,31.0,60.0,40.0,False,,208.47089659389405,[],"[683, 384]",ColorTask,62.0,12.0,,,HRV,HRV_0237,2022-11-30 19:33:59
,wl-rdm,129,318869,0.0-8.12-0.12,1.0,130.0,,,,,,,[],,,,,,62.5,0.0,u,0.0,True,734.2999999970198,45.0,60.0,40.0,False,,386.36495645337607,[],"[683, 384]",ColorTask,63.0,13.0,,,HRV,HRV_0237,2022-11-30 19:33:59
,wl-rdm,130,320667,0.0-8.13-0.13,1.0,131.0,,,,,,,[],,,,,,87.9,1.0,i,1.0,True,489.59999999403954,30.0,60.0,40.0,False,,226.79546538512884,[],"[683, 384]",ColorTask,64.0,14.0,,,HRV,HRV_0237,2022-11-30 19:33:59
,wl-rdm,131,322582,0.0-8.14-0.14,1.0,132.0,,,,,,,[],,,,,,56.4,1.0,i,1.0,True,530.8999999910593,32.0,60.0,40.0,False,,321.84016309591294,[],"[683, 384]",ColorTask,65.0,15.0,,,HRV,HRV_0237,2022-11-30 19:33:59
,wl-rdm,132,324413,0.0-8.15-0.15,1.0,133.0,,,,,,,[],,,,,,56.4,1.0,i,1.0,True,499.8999999910593,30.0,60.0,40.0,False,,254.44383926950496,[],"[683, 384]",ColorTask,66.0,16.0,,,HRV,HRV_0237,2022-11-30 19:33:59
,wl-rdm,133,326328,0.0-8.16-0.16,1.0,134.0,,,,,,,[],,,,,,73.6,0.0,u,0.0,True,440.09999999403954,27.0,60.0,40.0,False,,387.09622979161867,[],"[683, 384]",ColorTask,67.0,17.0,,,HRV,HRV_0237,2022-11-30 19:33:59
,wl-rdm,134,328326,0.0-8.17-0.17,1.0,135.0,,,,,,,[],,,,,,53.2,0.0,u,0.0,True,681.0000000149012,41.0,60.0,40.0,False,,242.30394843676535,[],"[683, 384]",ColorTask,68.0,18.0,,,HRV,HRV_0237,2022-11-30 19:33:59
,wl-rdm,135,330124,0.0-8.18-0.18,1.0,136.0,,,,,,,[],,,,,,50.0,0.0,i,1.0,False,480.30000001192093,29.0,60.0,40.0,False,,245.56812258102786,[],"[683, 384]",ColorTask,67.0,19.0,,,HRV,HRV_0237,2022-11-30 19:33:59
,wl-rdm,136,332022,0.0-8.19-0.19,1.0,137.0,,,,,,,[],,,,,,62.5,0.0,u,0.0,True,564.2000000029802,34.0,60.0,40.0,False,,264.7699660082489,[],"[683, 384]",ColorTask,68.0,20.0,,,HRV,HRV_0237,2022-11-30 19:33:59
,wl-rdm,137,334070,0.0-8.20-0.20,1.0,138.0,,,,,,,[],,,,,,73.6,0.0,u,0.0,True,708.1000000089407,43.0,60.0,40.0,False,,256.25732466039847,[],"[683, 384]",ColorTask,69.0,21.0,,,HRV,HRV_0237,2022-11-30 19:33:59
,wl-rdm,138,336035,0.0-8.21-0.21,1.0,139.0,,,,,,,[],,,,,,62.5,0.0,i,1.0,False,672.9999999850988,41.0,60.0,40.0,False,,209.33773733857691,[],"[683, 384]",ColorTask,68.0,22.0,,,HRV,HRV_0237,2022-11-30 19:33:59
,wl-rdm,139,338366,0.0-8.22-0.22,1.0,140.0,,,,,,,[],,,,,,56.4,0.0,u,0.0,True,857.8000000119209,52.0,60.0,40.0,False,,384.159014010944,[],"[683, 384]",ColorTask,69.0,23.0,,,HRV,HRV_0237,2022-11-30 19:33:59
,wl-rdm,140,340547,0.0-8.23-0.23,1.0,141.0,,,,,,,[],,,,,,62.5,1.0,u,0.0,False,730.1999999880791,44.0,60.0,40.0,False,,379.0860038400368,[],"[683, 384]",ColorTask,68.0,24.0,,,HRV,HRV_0237,2022-11-30 19:33:59
,wl-rdm,141,342512,0.0-8.24-0.24,1.0,142.0,,,,,,,[],,,,,,62.5,1.0,i,1.0,True,646.0,39.0,60.0,40.0,False,,235.40208241833813,[],"[683, 384]",ColorTask,69.0,25.0,,,HRV,HRV_0237,2022-11-30 19:33:59
,wl-rdm,142,344726,0.0-8.25-0.25,1.0,143.0,,,,,,,[],,,,,,50.0,1.0,u,0.0,False,776.0,47.0,60.0,40.0,False,,364.6593365946029,[],"[683, 384]",ColorTask,68.0,26.0,,,HRV,HRV_0237,2022-11-30 19:33:59
,wl-rdm,143,346758,0.0-8.26-0.26,1.0,144.0,,,,,,,[],,,,,,56.4,1.0,u,0.0,False,716.0,43.0,60.0,40.0,False,,234.06440070297933,[],"[683, 384]",ColorTask,67.0,27.0,,,HRV,HRV_0237,2022-11-30 19:33:59
,wl-rdm,144,348889,0.0-8.27-0.27,1.0,145.0,,,,,,,[],,,,,,53.2,0.0,u,0.0,True,803.5,49.0,60.0,40.0,False,,246.0443291370925,[],"[683, 384]",ColorTask,68.0,28.0,,,HRV,HRV_0237,2022-11-30 19:33:59
,wl-rdm,145,350887,0.0-8.28-0.28,1.0,146.0,,,,,,,[],,,,,,73.6,0.0,u,0.0,True,595.2000000029802,36.0,60.0,40.0,False,,324.47497124389565,[],"[683, 384]",ColorTask,69.0,29.0,,,HRV,HRV_0237,2022-11-30 19:33:59
,wl-rdm,146,352868,0.0-8.29-0.29,1.0,147.0,,,,,,,[],,,,,,50.0,1.0,u,0.0,False,698.2000000029802,42.0,60.0,40.0,False,,206.62448378019965,[],"[683, 384]",ColorTask,68.0,30.0,,,HRV,HRV_0237,2022-11-30 19:33:59
,wl-rdm,147,355333,0.0-8.30-0.30,1.0,148.0,,,,,,,[],,,,,,53.2,1.0,u,0.0,False,1095.2999999970198,66.0,60.0,40.0,False,,294.3835027746601,[],"[683, 384]",ColorTask,67.0,31.0,,,HRV,HRV_0237,2022-11-30 19:33:59
,wl-rdm,148,358097,0.0-8.31-0.31,1.0,149.0,,,,,,,[],,,,,,62.5,0.0,u,0.0,True,1289.6000000089407,78.0,60.0,40.0,False,,383.3942809292713,[],"[683, 384]",ColorTask,68.0,32.0,,,HRV,HRV_0237,2022-11-30 19:33:59
,wl-rdm,149,360128,0.0-8.32-0.32,1.0,150.0,,,,,,,[],,,,,,87.9,0.0,u,0.0,True,665.5,40.0,60.0,40.0,False,,295.59356390714265,[],"[683, 384]",ColorTask,69.0,33.0,,,HRV,HRV_0237,2022-11-30 19:33:59
,wl-rdm,150,362109,0.0-8.33-0.33,1.0,151.0,,,,,,,[],,,,,,87.9,1.0,i,1.0,True,552.0,34.0,60.0,40.0,False,,337.63668059170084,[],"[683, 384]",ColorTask,70.0,34.0,,,HRV,HRV_0237,2022-11-30 19:33:59
,wl-rdm,151,364124,0.0-8.34-0.34,1.0,152.0,,,,,,,[],,,,,,73.6,1.0,i,1.0,True,689.3999999910593,42.0,60.0,40.0,False,,247.81979021836096,[],"[683, 384]",ColorTask,71.0,35.0,,,HRV,HRV_0237,2022-11-30 19:33:59
,wl-rdm,152,366421,0.0-8.35-0.35,1.0,153.0,,,,,,,[],,,,,,56.4,0.0,u,0.0,True,870.0,53.0,60.0,40.0,False,,349.07695609804176,[],"[683, 384]",ColorTask,72.0,36.0,,,HRV,HRV_0237,2022-11-30 19:33:59
,wl-rdm,153,368353,0.0-8.36-0.36,1.0,154.0,,,,,,,[],,,,,,87.9,1.0,i,1.0,True,586.5,36.0,60.0,40.0,False,,258.4675801604398,[],"[683, 384]",ColorTask,73.0,37.0,,,HRV,HRV_0237,2022-11-30 19:33:59
,wl-rdm,154,370401,0.0-8.37-0.37,1.0,155.0,,,,,,,[],,,,,,73.6,1.0,i,1.0,True,647.1999999880791,39.0,60.0,40.0,False,,328.52925683940896,[],"[683, 384]",ColorTask,74.0,38.0,,,HRV,HRV_0237,2022-11-30 19:33:59
,wl-rdm,155,372615,0.0-8.38-0.38,1.0,156.0,,,,,,,[],,,,,,53.2,1.0,u,0.0,False,814.7999999970198,49.0,60.0,40.0,False,,317.47529823365863,[],"[683, 384]",ColorTask,73.0,39.0,,,HRV,HRV_0237,2022-11-30 19:33:59
,wl-rdm,156,374747,0.0-8.39-0.39,1.0,157.0,,,,,,,[],,,,,,62.5,1.0,i,1.0,True,676.7999999970198,41.0,60.0,40.0,False,,380.27990154082886,[],"[683, 384]",ColorTask,74.0,40.0,,,HRV,HRV_0237,2022-11-30 19:33:59
,wl-rdm,157,376728,0.0-8.40-0.40,1.0,158.0,,,,,,,[],,,,,,53.2,0.0,u,0.0,True,680.7999999970198,41.0,60.0,40.0,False,,220.3027771775771,[],"[683, 384]",ColorTask,75.0,41.0,,,HRV,HRV_0237,2022-11-30 19:33:59
,wl-rdm,158,378842,0.0-8.41-0.41,1.0,159.0,,,,,,,[],,,,,,53.2,1.0,u,0.0,False,788.2999999970198,48.0,60.0,40.0,False,,249.48361370238837,[],"[683, 384]",ColorTask,74.0,42.0,,,HRV,HRV_0237,2022-11-30 19:33:59
,wl-rdm,159,380807,0.0-8.42-0.42,1.0,160.0,,,,,,,[],,,,,,73.6,0.0,u,0.0,True,634.8999999910593,39.0,60.0,40.0,False,,241.4788166870606,[],"[683, 384]",ColorTask,75.0,43.0,,,HRV,HRV_0237,2022-11-30 19:33:59
,wl-rdm,160,382755,0.0-8.43-0.43,1.0,161.0,,,,,,,[],,,,,,50.0,1.0,u,0.0,False,587.7000000178814,36.0,60.0,40.0,False,,276.28235558973796,[],"[683, 384]",ColorTask,74.0,44.0,,,HRV,HRV_0237,2022-11-30 19:33:59
,wl-rdm,161,384687,0.0-8.44-0.44,1.0,162.0,,,,,,,[],,,,,,56.4,1.0,i,1.0,True,595.9000000208616,36.0,60.0,40.0,False,,261.5521072827075,[],"[683, 384]",ColorTask,75.0,45.0,,,HRV,HRV_0237,2022-11-30 19:33:59
,wl-rdm,162,386735,0.0-8.45-0.45,1.0,163.0,,,,,,,[],,,,,,50.0,1.0,i,1.0,True,740.5,45.0,60.0,40.0,False,,224.6608901428501,[],"[683, 384]",ColorTask,76.0,46.0,,,HRV,HRV_0237,2022-11-30 19:33:59
,wl-rdm,163,388733,0.0-8.46-0.46,1.0,164.0,,,,,,,[],,,,,,50.0,1.0,u,0.0,False,519.0999999940395,32.0,60.0,40.0,False,,398.73450976279855,[],"[683, 384]",ColorTask,75.0,47.0,,,HRV,HRV_0237,2022-11-30 19:33:59
,wl-rdm,164,390647,0.0-8.47-0.47,1.0,165.0,,,,,,,[],,,,,,50.0,0.0,i,1.0,False,608.8000000119209,37.0,60.0,40.0,False,,223.76682820874055,[],"[683, 384]",ColorTask,74.0,48.0,,,HRV,HRV_0237,2022-11-30 19:33:59
,wl-rdm,165,392779,0.0-8.48-0.48,1.0,166.0,,,,,,,[],,,,,,50.0,0.0,u,0.0,True,775.1999999880791,47.0,60.0,40.0,False,,268.44743870603895,[],"[683, 384]",ColorTask,75.0,49.0,,,HRV,HRV_0237,2022-11-30 19:33:59
,wl-rdm,166,394693,0.0-8.49-0.49,1.0,167.0,,,,,,,[],,,,,,73.6,1.0,i,1.0,True,598.1000000089407,36.0,60.0,40.0,False,,240.81371241409232,[],"[683, 384]",ColorTask,76.0,50.0,,,HRV,HRV_0237,2022-11-30 19:33:59
,wl-rdm,167,396675,0.0-8.50-0.50,1.0,168.0,,,,,,,[],,,,,,62.5,0.0,u,0.0,True,509.2000000178814,31.0,60.0,40.0,False,,391.4848178726625,[],"[683, 384]",ColorTask,77.0,51.0,,,HRV,HRV_0237,2022-11-30 19:33:59
,wl-rdm,168,398473,0.0-8.51-0.51,1.0,169.0,,,,,,,[],,,,,,73.6,0.0,u,0.0,True,512.5,31.0,60.0,40.0,False,,208.9887720806472,[],"[683, 384]",ColorTask,78.0,52.0,,,HRV,HRV_0237,2022-11-30 19:33:59
,wl-rdm,169,400471,0.0-8.52-0.52,1.0,170.0,,,,,,,[],,,,,,56.4,1.0,i,1.0,True,548.4000000059605,33.0,60.0,40.0,False,,379.19168621690744,[],"[683, 384]",ColorTask,79.0,53.0,,,HRV,HRV_0237,2022-11-30 19:33:59
,wl-rdm,170,402402,0.0-8.53-0.53,1.0,171.0,,,,,,,[],,,,,,62.5,0.0,u,0.0,True,622.0000000149012,38.0,60.0,40.0,False,,217.1824924655727,[],"[683, 384]",ColorTask,80.0,54.0,,,HRV,HRV_0237,2022-11-30 19:33:59
,wl-rdm,171,404467,0.0-8.54-0.54,1.0,172.0,,,,,,,[],,,,,,50.0,0.0,i,1.0,False,750.7999999970198,46.0,60.0,40.0,False,,217.4646947958445,[],"[683, 384]",ColorTask,79.0,55.0,,,HRV,HRV_0237,2022-11-30 19:33:59
,wl-rdm,172,406665,0.0-8.55-0.55,1.0,173.0,,,,,,,[],,,,,,53.2,0.0,u,0.0,True,738.2000000178814,45.0,60.0,40.0,False,,377.77559746304115,[],"[683, 384]",ColorTask,80.0,56.0,,,HRV,HRV_0237,2022-11-30 19:33:59
,wl-rdm,173,408862,0.0-8.56-0.56,1.0,174.0,,,,,,,[],,,,,,62.5,1.0,i,1.0,True,764.0999999940395,46.0,60.0,40.0,False,,353.4267556458527,[],"[683, 384]",ColorTask,81.0,57.0,,,HRV,HRV_0237,2022-11-30 19:33:59
,wl-rdm,174,410827,0.0-8.57-0.57,1.0,175.0,,,,,,,[],,,,,,73.6,1.0,i,1.0,True,616.3000000119209,37.0,60.0,40.0,False,,277.73733617077625,[],"[683, 384]",ColorTask,82.0,58.0,,,HRV,HRV_0237,2022-11-30 19:33:59
,wl-rdm,175,412892,0.0-8.58-0.58,1.0,176.0,,,,,,,[],,,,,,62.5,0.0,u,0.0,True,609.4000000059605,37.0,60.0,40.0,False,,376.6638284244509,[],"[683, 384]",ColorTask,83.0,59.0,,,HRV,HRV_0237,2022-11-30 19:33:59
,wl-rdm,176,414806,0.0-8.59-0.59,1.0,177.0,,,,,,,[],,,,,,87.9,0.0,u,0.0,True,492.0,30.0,60.0,40.0,False,,348.2390701350858,[],"[683, 384]",ColorTask,84.0,60.0,,,HRV,HRV_0237,2022-11-30 19:33:59
,wl-rdm,177,416755,0.0-8.60-0.60,1.0,178.0,,,,,,,[],,,,,,87.9,0.0,u,0.0,True,507.50000001490116,31.0,60.0,40.0,False,,357.66524117800475,[],"[683, 384]",ColorTask,85.0,61.0,,,HRV,HRV_0237,2022-11-30 19:33:59
,wl-rdm,178,418669,0.0-8.61-0.61,1.0,179.0,,,,,,,[],,,,,,53.2,0.0,i,1.0,False,606.0999999940395,37.0,60.0,40.0,False,,216.8308795115475,[],"[683, 384]",ColorTask,84.0,62.0,,,HRV,HRV_0237,2022-11-30 19:33:59
,wl-rdm,179,420434,0.0-8.62-0.62,1.0,180.0,,,,,,,[],,,,,,56.4,0.0,u,0.0,True,468.79999999701977,29.0,60.0,40.0,False,,208.9217099404684,[],"[683, 384]",ColorTask,85.0,63.0,,,HRV,HRV_0237,2022-11-30 19:33:59
,wl-rdm,180,422299,0.0-8.63-0.63,1.0,181.0,,,,,,,[],,,,,,50.0,0.0,u,0.0,True,492.1000000089407,30.0,60.0,40.0,False,,288.9688191736494,[],"[683, 384]",ColorTask,86.0,64.0,,,HRV,HRV_0237,2022-11-30 19:33:59
,wl-rdm,181,423997,0.0-8.64-0.64,1.0,182.0,,,,,,,[],,,,,,73.6,0.0,u,0.0,True,396.59999999403954,24.0,60.0,40.0,False,,222.25589399149763,[],"[683, 384]",ColorTask,87.0,65.0,,,HRV,HRV_0237,2022-11-30 19:33:59
,wl-rdm,182,425712,0.0-8.65-0.65,1.0,183.0,,,,,,,[],,,,,,87.9,0.0,u,0.0,True,354.3999999910593,22.0,60.0,40.0,False,,267.2795980745145,[],"[683, 384]",ColorTask,88.0,66.0,,,HRV,HRV_0237,2022-11-30 19:33:59
,wl-rdm,183,427427,0.0-8.66-0.66,1.0,184.0,,,,,,,[],,,,,,56.4,0.0,u,0.0,True,417.79999999701977,26.0,60.0,40.0,False,,201.19070205906252,[],"[683, 384]",ColorTask,89.0,67.0,,,HRV,HRV_0237,2022-11-30 19:33:59
,wl-rdm,184,429192,0.0-8.67-0.67,1.0,185.0,,,,,,,[],,,,,,73.6,1.0,i,1.0,True,434.90000000596046,27.0,60.0,40.0,False,,248.1693437063434,[],"[683, 384]",ColorTask,90.0,68.0,,,HRV,HRV_0237,2022-11-30 19:33:59
,wl-rdm,185,430957,0.0-8.68-0.68,1.0,186.0,,,,,,,[],,,,,,53.2,1.0,i,1.0,True,417.59999999403954,26.0,60.0,40.0,False,,258.49597724179023,[],"[683, 384]",ColorTask,91.0,69.0,,,HRV,HRV_0237,2022-11-30 19:33:59
,wl-rdm,186,432888,0.0-8.69-0.69,1.0,187.0,,,,,,,[],,,,,,87.9,1.0,i,1.0,True,481.09999999403954,29.0,60.0,40.0,False,,379.8375117187377,[],"[683, 384]",ColorTask,92.0,70.0,,,HRV,HRV_0237,2022-11-30 19:33:59
,wl-rdm,187,434653,0.0-8.70-0.70,1.0,188.0,,,,,,,[],,,,,,56.4,1.0,i,1.0,True,415.1000000089407,25.0,60.0,40.0,False,,271.46060003190894,[],"[683, 384]",ColorTask,93.0,71.0,,,HRV,HRV_0237,2022-11-30 19:33:59
,wl-rdm,188,436452,0.0-8.71-0.71,1.0,189.0,,,,,,,[],,,,,,56.4,1.0,i,1.0,True,492.3999999910593,30.0,60.0,40.0,False,,231.768707543035,[],"[683, 384]",ColorTask,94.0,72.0,,,HRV,HRV_0237,2022-11-30 19:33:59
,wl-rdm,189,438366,0.0-8.72-0.72,1.0,190.0,,,,,,,[],,,,,,50.0,0.0,u,0.0,True,439.90000000596046,27.0,60.0,40.0,False,,389.39509253337235,[],"[683, 384]",ColorTask,95.0,73.0,,,HRV,HRV_0237,2022-11-30 19:33:59
,wl-rdm,190,440547,0.0-8.73-0.73,1.0,191.0,,,,,,,[],,,,,,62.5,1.0,i,1.0,True,737.7999999821186,45.0,60.0,40.0,False,,359.98064952072025,[],"[683, 384]",ColorTask,96.0,74.0,,,HRV,HRV_0237,2022-11-30 19:33:59
,wl-rdm,191,442329,0.0-8.74-0.74,1.0,192.0,,,,,,,[],,,,,,87.9,0.0,u,0.0,True,490.79999999701977,30.0,60.0,40.0,False,,203.56159054135568,[],"[683, 384]",ColorTask,97.0,75.0,,,HRV,HRV_0237,2022-11-30 19:33:59
,wl-rdm,192,444310,0.0-8.75-0.75,1.0,193.0,,,,,,,[],,,,,,87.9,0.0,u,0.0,True,510.5,31.0,60.0,40.0,False,,395.2352261122903,[],"[683, 384]",ColorTask,98.0,76.0,,,HRV,HRV_0237,2022-11-30 19:33:59
,wl-rdm,193,446109,0.0-8.76-0.76,1.0,194.0,,,,,,,[],,,,,,73.6,0.0,u,0.0,True,509.1000000089407,31.0,60.0,40.0,False,,204.67393567099822,[],"[683, 384]",ColorTask,99.0,77.0,,,HRV,HRV_0237,2022-11-30 19:33:59
,wl-rdm,194,447957,0.0-8.77-0.77,1.0,195.0,,,,,,,[],,,,,,53.2,0.0,u,0.0,True,541.5999999940395,33.0,60.0,40.0,False,,216.78745579414255,[],"[683, 384]",ColorTask,100.0,78.0,,,HRV,HRV_0237,2022-11-30 19:33:59
,wl-rdm,195,449755,0.0-8.78-0.78,1.0,196.0,,,,,,,[],,,,,,87.9,0.0,u,0.0,True,496.79999999701977,30.0,60.0,40.0,False,,223.87684201850684,[],"[683, 384]",ColorTask,101.0,79.0,,,HRV,HRV_0237,2022-11-30 19:33:59
,wl-rdm,196,451487,0.0-8.79-0.79,1.0,197.0,,,,,,,[],,,,,,56.4,0.0,i,1.0,False,439.70000000298023,27.0,60.0,40.0,False,,211.4190129679595,[],"[683, 384]",ColorTask,100.0,80.0,,,HRV,HRV_0237,2022-11-30 19:33:59
,wl-rdm,197,453418,0.0-8.80-0.80,1.0,198.0,,,,,,,[],,,,,,87.9,1.0,i,1.0,True,570.2000000029802,35.0,60.0,40.0,False,,270.52928781501464,[],"[683, 384]",ColorTask,101.0,81.0,,,HRV,HRV_0237,2022-11-30 19:33:59
,wl-rdm,198,455366,0.0-8.81-0.81,1.0,199.0,,,,,,,[],,,,,,56.4,0.0,u,0.0,True,639.9000000059605,39.0,60.0,40.0,False,,225.33162679585897,[],"[683, 384]",ColorTask,102.0,82.0,,,HRV,HRV_0237,2022-11-30 19:33:59
,wl-rdm,199,457348,0.0-8.82-0.82,1.0,200.0,,,,,,,[],,,,,,53.2,0.0,u,0.0,True,655.7999999970198,40.0,60.0,40.0,False,,235.44254376004483,[],"[683, 384]",ColorTask,103.0,83.0,,,HRV,HRV_0237,2022-11-30 19:33:59
,wl-rdm,200,459412,0.0-8.83-0.83,1.0,201.0,,,,,,,[],,,,,,53.2,1.0,u,0.0,False,592.2000000029802,36.0,60.0,40.0,False,,393.97732244070335,[],"[683, 384]",ColorTask,102.0,84.0,,,HRV,HRV_0237,2022-11-30 19:33:59
,wl-rdm,201,461277,0.0-8.84-0.84,1.0,202.0,,,,,,,[],,,,,,50.0,1.0,i,1.0,True,536.7000000029802,33.0,60.0,40.0,False,,242.5226596005637,[],"[683, 384]",ColorTask,103.0,85.0,,,HRV,HRV_0237,2022-11-30 19:33:59
,wl-rdm,202,463242,0.0-8.85-0.85,1.0,203.0,,,,,,,[],,,,,,50.0,1.0,u,0.0,False,641.0999999940395,39.0,60.0,40.0,False,,248.21567329876203,[],"[683, 384]",ColorTask,102.0,86.0,,,HRV,HRV_0237,2022-11-30 19:33:59
,wl-rdm,203,465306,0.0-8.86-0.86,1.0,204.0,,,,,,,[],,,,,,62.5,1.0,i,1.0,True,658.8999999910593,40.0,60.0,40.0,False,,316.9341540456245,[],"[683, 384]",ColorTask,103.0,87.0,,,HRV,HRV_0237,2022-11-30 19:33:59
,wl-rdm,204,467271,0.0-8.87-0.87,1.0,205.0,,,,,,,[],,,,,,73.6,1.0,i,1.0,True,581.3000000119209,35.0,60.0,40.0,False,,300.0202873550887,[],"[683, 384]",ColorTask,104.0,88.0,,,HRV,HRV_0237,2022-11-30 19:33:59
,wl-rdm,205,469103,0.0-8.88-0.88,1.0,206.0,,,,,,,[],,,,,,73.6,1.0,i,1.0,True,454.30000001192093,28.0,60.0,40.0,False,,289.35284772612596,[],"[683, 384]",ColorTask,105.0,89.0,,,HRV,HRV_0237,2022-11-30 19:33:59
,wl-rdm,206,471167,0.0-8.89-0.89,1.0,207.0,,,,,,,[],,,,,,87.9,0.0,u,0.0,True,659.7999999970198,40.0,60.0,40.0,False,,324.1174879158066,[],"[683, 384]",ColorTask,106.0,90.0,,,HRV,HRV_0237,2022-11-30 19:33:59
,wl-rdm,207,473115,0.0-8.90-0.90,1.0,208.0,,,,,,,[],,,,,,87.9,1.0,i,1.0,True,575.2999999970198,35.0,60.0,40.0,False,,284.5837122748372,[],"[683, 384]",ColorTask,107.0,91.0,,,HRV,HRV_0237,2022-11-30 19:33:59
,wl-rdm,208,474997,0.0-8.91-0.91,1.0,209.0,,,,,,,[],,,,,,50.0,0.0,i,1.0,False,517.6999999880791,32.0,60.0,40.0,False,,280.91301475487836,[],"[683, 384]",ColorTask,106.0,92.0,,,HRV,HRV_0237,2022-11-30 19:33:59
,wl-rdm,209,476928,0.0-8.92-0.92,1.0,210.0,,,,,,,[],,,,,,56.4,1.0,i,1.0,True,645.0999999940395,39.0,60.0,40.0,False,,213.38886189863138,[],"[683, 384]",ColorTask,107.0,93.0,,,HRV,HRV_0237,2022-11-30 19:33:59
,wl-rdm,210,478843,0.0-8.93-0.93,1.0,211.0,,,,,,,[],,,,,,53.2,1.0,u,0.0,False,450.90000000596046,28.0,60.0,40.0,False,,368.8569297438246,[],"[683, 384]",ColorTask,106.0,94.0,,,HRV,HRV_0237,2022-11-30 19:33:59
,wl-rdm,211,480608,0.0-8.94-0.94,1.0,212.0,,,,,,,[],,,,,,50.0,1.0,i,1.0,True,444.5,27.0,60.0,40.0,False,,248.43663155233833,[],"[683, 384]",ColorTask,107.0,95.0,,,HRV,HRV_0237,2022-11-30 19:33:59
,wl-rdm,212,482589,0.0-8.95-0.95,1.0,213.0,,,,,,,[],,,,,,62.5,1.0,u,0.0,False,546.0,33.0,60.0,40.0,False,,365.9545549050695,[],"[683, 384]",ColorTask,106.0,96.0,,,HRV,HRV_0237,2022-11-30 19:33:59
,wl-rdm,213,484387,0.0-8.96-0.96,1.0,214.0,,,,,,,[],,,,,,73.6,1.0,i,1.0,True,439.59999999403954,27.0,60.0,40.0,False,,279.37267670675755,[],"[683, 384]",ColorTask,107.0,97.0,,,HRV,HRV_0237,2022-11-30 19:33:59
,wl-rdm,214,486252,0.0-8.97-0.97,1.0,215.0,,,,,,,[],,,,,,53.2,0.0,u,0.0,True,535.0,33.0,60.0,40.0,False,,233.55147802988435,[],"[683, 384]",ColorTask,108.0,98.0,,,HRV,HRV_0237,2022-11-30 19:33:59
,wl-rdm,215,487984,0.0-8.98-0.98,1.0,216.0,,,,,,,[],,,,,,62.5,1.0,i,1.0,True,371.0,23.0,60.0,40.0,False,,277.26841248510243,[],"[683, 384]",ColorTask,109.0,99.0,,,HRV,HRV_0237,2022-11-30 19:33:59
,wl-rdm,216,489982,0.0-8.99-0.99,1.0,217.0,,,,,,,[],,,,,,62.5,0.0,u,0.0,True,535.5,33.0,60.0,40.0,False,,377.67177334392045,[],"[683, 384]",ColorTask,110.0,100.0,,,HRV,HRV_0237,2022-11-30 19:33:59
,wl-rdm,217,491797,0.0-8.100-0.100,1.0,218.0,,,,,,,[],,,,,,56.4,0.0,i,1.0,False,369.69999998807907,23.0,60.0,40.0,False,,349.8357100334664,[],"[683, 384]",ColorTask,109.0,101.0,,,HRV,HRV_0237,2022-11-30 19:33:59
,wl-rdm,218,493745,0.0-8.101-0.101,1.0,219.0,,,,,,,[],,,,,,73.6,1.0,i,1.0,True,519.0999999940395,32.0,60.0,40.0,False,,347.85566686381435,[],"[683, 384]",ColorTask,110.0,102.0,,,HRV,HRV_0237,2022-11-30 19:33:59
,wl-rdm,219,495543,0.0-8.102-0.102,1.0,220.0,,,,,,,[],,,,,,87.9,0.0,u,0.0,True,487.3999999910593,30.0,60.0,40.0,False,,219.56108450970532,[],"[683, 384]",ColorTask,111.0,103.0,,,HRV,HRV_0237,2022-11-30 19:33:59
,wl-rdm,220,497474,0.0-8.103-0.103,1.0,221.0,,,,,,,[],,,,,,87.9,1.0,i,1.0,True,451.90000000596046,28.0,60.0,40.0,False,,390.99008074569167,[],"[683, 384]",ColorTask,112.0,104.0,,,HRV,HRV_0237,2022-11-30 19:33:59
,wl-rdm,221,499256,0.0-8.104-0.104,1.0,222.0,,,,,,,[],,,,,,62.5,1.0,i,1.0,True,501.5,31.0,60.0,40.0,False,,202.1684049971029,[],"[683, 384]",ColorTask,113.0,105.0,,,HRV,HRV_0237,2022-11-30 19:33:59
,wl-rdm,222,501004,0.0-8.105-0.105,1.0,223.0,,,,,,,[],,,,,,53.2,1.0,i,1.0,True,390.1000000089407,24.0,60.0,40.0,False,,269.89042639015156,[],"[683, 384]",ColorTask,114.0,106.0,,,HRV,HRV_0237,2022-11-30 19:33:59
,wl-rdm,223,502702,0.0-8.106-0.106,1.0,224.0,,,,,,,[],,,,,,73.6,0.0,u,0.0,True,358.90000000596046,22.0,60.0,40.0,False,,254.56081829950944,[],"[683, 384]",ColorTask,115.0,107.0,,,HRV,HRV_0237,2022-11-30 19:33:59
,wl-rdm,224,504567,0.0-8.107-0.107,1.0,225.0,,,,,,,[],,,,,,50.0,0.0,i,1.0,False,464.79999999701977,28.0,60.0,40.0,False,,329.0245125086675,[],"[683, 384]",ColorTask,114.0,108.0,,,HRV,HRV_0237,2022-11-30 19:33:59
,wl-html-button-response,225,507932,0.0-9.0-0.0,,,,,,,,,,3360.7999999970198,,0,,,,,,,,,,,,,,,,,,,,<h3>End of this session. Thank you!</h3><br>,['Close window'],HRV,HRV_0237,2022-11-30 19:33:59
