trialN,stimuli,trialStartTime,trialStartTime_UNIX,stimulus1,stimulus2,stimulus1Bid,stimulus2Bid,delta,selected,rt,rt_UNIX,rt_perfnow,receivedResponse,rsp,trialEndTime,trialDuration,trialEndTime_UNIX,trialDuration_UNIX,exp,subjectId,date
0,"[{'imgObject': {}, 'id': 'pear', 'src': '/static/foodstim60/pear.jpg', 'key': 'u', 'origWidth': 411, 'origHeight': 410, 'width': 411, 'height': 410, 'widthPercent': 0.45, 'rescaleHeight': False, 'trialN': 0, 'loaded': True, 'loadedTime': 3872.7999999970198, 'positionName': 'LEFT', 'positionCoords': [244.68, 179], 'bid': 6.0200000000000005}, {'imgObject': {}, 'id': 'grilled chicken strips', 'src': '/static/foodstim60/grilled chicken strips.jpg', 'key': 'i', 'origWidth': 410, 'origHeight': 411, 'width': 410, 'height': 411, 'widthPercent': 0.45, 'rescaleHeight': False, 'trialN': 0, 'loaded': True, 'loadedTime': 3891, 'positionName': 'RIGHT', 'positionCoords': [710.32, 178.5], 'bid': 5.92}]",4345.9000000059605,1669836011135,pear,grilled chicken strips,6.0200000000000005,5.92,-0.10000000000000053,grilled chicken strips,843.5999999940395,844,844.2999999970198,True,i,5701.600000008941,1355.7000000029802,1669836012491,1356,HRV,HRV_0237,2022-11-30 19:25:25
1,"[{'imgObject': {}, 'id': 'cherry tomato', 'src': '/static/foodstim60/cherry tomato.jpg', 'key': 'u', 'origWidth': 410, 'origHeight': 410, 'width': 410, 'height': 410, 'widthPercent': 0.45, 'rescaleHeight': False, 'trialN': 1, 'loaded': True, 'loadedTime': 3910.2999999970198, 'positionName': 'LEFT', 'positionCoords': [245.68, 179], 'bid': 6.8500000000000005}, {'imgObject': {}, 'id': 'turkeysandwich', 'src': '/static/foodstim60/turkeysandwich.jpg', 'key': 'i', 'origWidth': 409, 'origHeight': 409, 'width': 409, 'height': 409, 'widthPercent': 0.45, 'rescaleHeight': False, 'trialN': 1, 'loaded': True, 'loadedTime': 3922.2000000029802, 'positionName': 'RIGHT', 'positionCoords': [710.32, 179.5], 'bid': 6.34}]",5701.9000000059605,1669836012491,cherry tomato,turkeysandwich,6.8500000000000005,6.34,-0.5100000000000007,turkeysandwich,1198.7000000029802,1199,1199.2999999970198,True,i,7405.20000000298,1703.2999999970198,1669836014194,1703,HRV,HRV_0237,2022-11-30 19:25:25
2,"[{'imgObject': {}, 'id': 'tacos', 'src': '/static/foodstim60/tacos.jpg', 'key': 'u', 'origWidth': 411, 'origHeight': 411, 'width': 411, 'height': 411, 'widthPercent': 0.45, 'rescaleHeight': False, 'trialN': 2, 'loaded': True, 'loadedTime': 3927.2000000029802, 'positionName': 'LEFT', 'positionCoords': [244.68, 178.5], 'bid': 7.76}, {'imgObject': {}, 'id': 'fruitsalad', 'src': '/static/foodstim60/fruitsalad.jpg', 'key': 'i', 'origWidth': 410, 'origHeight': 410, 'width': 410, 'height': 410, 'widthPercent': 0.45, 'rescaleHeight': False, 'trialN': 2, 'loaded': True, 'loadedTime': 3936.7999999970198, 'positionName': 'RIGHT', 'positionCoords': [710.32, 179], 'bid': 9.84}]",7405.5,1669836014195,tacos,fruitsalad,7.76,9.84,2.08,fruitsalad,1156.5,1157,1157.0,True,i,9063.5,1658.0,1669836015853,1658,HRV,HRV_0237,2022-11-30 19:25:25
3,"[{'imgObject': {}, 'id': 'raisin bran w milk', 'src': '/static/foodstim60/raisin bran w milk.jpg', 'key': 'u', 'origWidth': 411, 'origHeight': 411, 'width': 411, 'height': 411, 'widthPercent': 0.45, 'rescaleHeight': False, 'trialN': 3, 'loaded': True, 'loadedTime': 3963.4000000059605, 'positionName': 'LEFT', 'positionCoords': [244.68, 178.5], 'bid': 5.0200000000000005}, {'imgObject': {}, 'id': 'froot loops w milk', 'src': '/static/foodstim60/froot loops w milk.jpg', 'key': 'i', 'origWidth': 410, 'origHeight': 410, 'width': 410, 'height': 410, 'widthPercent': 0.45, 'rescaleHeight': False, 'trialN': 3, 'loaded': True, 'loadedTime': 3968.7999999970198, 'positionName': 'RIGHT', 'positionCoords': [710.32, 179], 'bid': 5}]",9063.90000000596,1669836015853,raisin bran w milk,froot loops w milk,5.0200000000000005,5.0,-0.020000000000000462,raisin bran w milk,971.7000000029802,972,972.0999999940395,True,u,10545.40000000596,1481.5,1669836017335,1482,HRV,HRV_0237,2022-11-30 19:25:25
4,"[{'imgObject': {}, 'id': 'burger', 'src': '/static/foodstim60/burger.jpg', 'key': 'u', 'origWidth': 409, 'origHeight': 409, 'width': 409, 'height': 409, 'widthPercent': 0.45, 'rescaleHeight': False, 'trialN': 4, 'loaded': True, 'loadedTime': 3977.6000000089407, 'positionName': 'LEFT', 'positionCoords': [246.68, 179.5], 'bid': 6.36}, {'imgObject': {}, 'id': 'turkeysandwich', 'src': '/static/foodstim60/turkeysandwich.jpg', 'key': 'i', 'origWidth': 409, 'origHeight': 409, 'width': 409, 'height': 409, 'widthPercent': 0.45, 'rescaleHeight': False, 'trialN': 4, 'loaded': True, 'loadedTime': 3923.1000000089407, 'positionName': 'RIGHT', 'positionCoords': [710.32, 179.5], 'bid': 6.34}]",10545.79999999702,1669836017335,burger,turkeysandwich,6.36,6.34,-0.020000000000000462,burger,1447.4000000059605,1448,1447.9000000059605,True,u,12504.29999999702,1958.5,1669836019294,1959,HRV,HRV_0237,2022-11-30 19:25:25
5,"[{'imgObject': {}, 'id': 'strawberries', 'src': '/static/foodstim60/strawberries.jpg', 'key': 'u', 'origWidth': 410, 'origHeight': 410, 'width': 410, 'height': 410, 'widthPercent': 0.45, 'rescaleHeight': False, 'trialN': 5, 'loaded': True, 'loadedTime': 3980.5, 'positionName': 'LEFT', 'positionCoords': [245.68, 179], 'bid': 8.3}, {'imgObject': {}, 'id': 'popsicles', 'src': '/static/foodstim60/popsicles.jpg', 'key': 'i', 'origWidth': 410, 'origHeight': 410, 'width': 410, 'height': 410, 'widthPercent': 0.45, 'rescaleHeight': False, 'trialN': 5, 'loaded': True, 'loadedTime': 4343.9000000059605, 'positionName': 'RIGHT', 'positionCoords': [710.32, 179], 'bid': 2.73}]",12504.60000000894,1669836019294,strawberries,popsicles,8.3,2.73,-5.57,strawberries,831.8999999910593,832,832.1999999880791,True,u,13838.90000000596,1334.2999999970198,1669836020628,1334,HRV,HRV_0237,2022-11-30 19:25:25
6,"[{'imgObject': {}, 'id': 'raspberries', 'src': '/static/foodstim60/raspberries.jpg', 'key': 'u', 'origWidth': 411, 'origHeight': 411, 'width': 411, 'height': 411, 'widthPercent': 0.45, 'rescaleHeight': False, 'trialN': 6, 'loaded': True, 'loadedTime': 4001.2000000029802, 'positionName': 'LEFT', 'positionCoords': [244.68, 178.5], 'bid': 9.84}, {'imgObject': {}, 'id': 'ice cream sundae 002', 'src': '/static/foodstim60/ice cream sundae 002.jpg', 'key': 'i', 'origWidth': 409, 'origHeight': 409, 'width': 409, 'height': 409, 'widthPercent': 0.45, 'rescaleHeight': False, 'trialN': 6, 'loaded': True, 'loadedTime': 4007.2999999970198, 'positionName': 'RIGHT', 'positionCoords': [710.32, 179.5], 'bid': 8.93}]",13839.10000000894,1669836020628,raspberries,ice cream sundae 002,9.84,8.93,-0.9100000000000001,raspberries,919.3999999910593,920,919.8999999910593,True,u,15282.10000000894,1443.0,1669836022071,1443,HRV,HRV_0237,2022-11-30 19:25:25
7,"[{'imgObject': {}, 'id': 'rigatoni', 'src': '/static/foodstim60/rigatoni.jpg', 'key': 'u', 'origWidth': 411, 'origHeight': 411, 'width': 411, 'height': 411, 'widthPercent': 0.45, 'rescaleHeight': False, 'trialN': 7, 'loaded': True, 'loadedTime': 4021, 'positionName': 'LEFT', 'positionCoords': [244.68, 178.5], 'bid': 0.03}, {'imgObject': {}, 'id': 'bagel plain', 'src': '/static/foodstim60/bagel plain.jpg', 'key': 'i', 'origWidth': 410, 'origHeight': 410, 'width': 410, 'height': 410, 'widthPercent': 0.45, 'rescaleHeight': False, 'trialN': 7, 'loaded': True, 'loadedTime': 4032, 'positionName': 'RIGHT', 'positionCoords': [710.32, 179], 'bid': 0.1}]",15282.20000000298,1669836022071,rigatoni,bagel plain,0.03,0.1,0.07,rigatoni,1906.5999999940395,1907,1907.0,True,u,17703.60000000894,2421.4000000059605,1669836024493,2422,HRV,HRV_0237,2022-11-30 19:25:25
8,"[{'imgObject': {}, 'id': 'cherries', 'src': '/static/foodstim60/cherries.jpg', 'key': 'u', 'origWidth': 410, 'origHeight': 411, 'width': 410, 'height': 411, 'widthPercent': 0.45, 'rescaleHeight': False, 'trialN': 8, 'loaded': True, 'loadedTime': 4033, 'positionName': 'LEFT', 'positionCoords': [245.68, 178.5], 'bid': 8.63}, {'imgObject': {}, 'id': 'salad w chicken', 'src': '/static/foodstim60/salad w chicken.jpg', 'key': 'i', 'origWidth': 411, 'origHeight': 411, 'width': 411, 'height': 411, 'widthPercent': 0.45, 'rescaleHeight': False, 'trialN': 8, 'loaded': True, 'loadedTime': 4044.5, 'positionName': 'RIGHT', 'positionCoords': [710.32, 178.5], 'bid': 8.89}]",17703.79999999702,1669836024493,cherries,salad w chicken,8.63,8.89,0.2599999999999998,salad w chicken,1083.5,1084,1083.9000000059605,True,i,19308.20000000298,1604.4000000059605,1669836026097,1604,HRV,HRV_0237,2022-11-30 19:25:25
9,"[{'imgObject': {}, 'id': 'kiwi', 'src': '/static/foodstim60/kiwi.jpg', 'key': 'u', 'origWidth': 410, 'origHeight': 410, 'width': 410, 'height': 410, 'widthPercent': 0.45, 'rescaleHeight': False, 'trialN': 9, 'loaded': True, 'loadedTime': 4091.1000000089407, 'positionName': 'LEFT', 'positionCoords': [245.68, 179], 'bid': 5.83}, {'imgObject': {}, 'id': 'eggsalad', 'src': '/static/foodstim60/eggsalad.jpg', 'key': 'i', 'origWidth': 410, 'origHeight': 409, 'width': 410, 'height': 409, 'widthPercent': 0.45, 'rescaleHeight': False, 'trialN': 9, 'loaded': True, 'loadedTime': 4053.9000000059605, 'positionName': 'RIGHT', 'positionCoords': [710.32, 179.5], 'bid': 3.97}]",19308.40000000596,1669836026098,kiwi,eggsalad,5.83,3.97,-1.8599999999999999,eggsalad,1332.5999999940395,1333,1333.0,True,i,21144.60000000894,1836.2000000029802,1669836027934,1836,HRV,HRV_0237,2022-11-30 19:25:25
10,"[{'imgObject': {}, 'id': 'cocktailshrimp', 'src': '/static/foodstim60/cocktailshrimp.jpg', 'key': 'u', 'origWidth': 410, 'origHeight': 410, 'width': 410, 'height': 410, 'widthPercent': 0.45, 'rescaleHeight': False, 'trialN': 10, 'loaded': True, 'loadedTime': 4059.9000000059605, 'positionName': 'LEFT', 'positionCoords': [245.68, 179], 'bid': 1.06}, {'imgObject': {}, 'id': 'edamame', 'src': '/static/foodstim60/edamame.jpg', 'key': 'i', 'origWidth': 409, 'origHeight': 410, 'width': 409, 'height': 410, 'widthPercent': 0.45, 'rescaleHeight': False, 'trialN': 10, 'loaded': True, 'loadedTime': 4071.7000000029802, 'positionName': 'RIGHT', 'positionCoords': [710.32, 179], 'bid': 1.01}]",21144.79999999702,1669836027934,cocktailshrimp,edamame,1.06,1.01,-0.050000000000000044,cocktailshrimp,2179.4000000059605,2180,2179.7000000029802,True,u,23835.90000000596,2691.1000000089407,1669836030625,2691,HRV,HRV_0237,2022-11-30 19:25:25
11,"[{'imgObject': {}, 'id': 'raspberries', 'src': '/static/foodstim60/raspberries.jpg', 'key': 'u', 'origWidth': 411, 'origHeight': 411, 'width': 411, 'height': 411, 'widthPercent': 0.45, 'rescaleHeight': False, 'trialN': 11, 'loaded': True, 'loadedTime': 4000.4000000059605, 'positionName': 'LEFT', 'positionCoords': [244.68, 178.5], 'bid': 9.84}, {'imgObject': {}, 'id': 'rigatoni and sauce', 'src': '/static/foodstim60/rigatoni and sauce.jpg', 'key': 'i', 'origWidth': 410, 'origHeight': 411, 'width': 410, 'height': 411, 'widthPercent': 0.45, 'rescaleHeight': False, 'trialN': 11, 'loaded': True, 'loadedTime': 4074.2000000029802, 'positionName': 'RIGHT', 'positionCoords': [710.32, 178.5], 'bid': 8.36}]",23836.29999999702,1669836030625,raspberries,rigatoni and sauce,9.84,8.36,-1.4800000000000004,raspberries,1105.9000000059605,1107,1106.1000000089407,True,u,25454.79999999702,1618.5,1669836032244,1619,HRV,HRV_0237,2022-11-30 19:25:25
12,"[{'imgObject': {}, 'id': 'turkeysandwich', 'src': '/static/foodstim60/turkeysandwich.jpg', 'key': 'u', 'origWidth': 409, 'origHeight': 409, 'width': 409, 'height': 409, 'widthPercent': 0.45, 'rescaleHeight': False, 'trialN': 12, 'loaded': True, 'loadedTime': 3926.1000000089407, 'positionName': 'LEFT', 'positionCoords': [246.68, 179.5], 'bid': 6.34}, {'imgObject': {}, 'id': 'sushi w_condiments', 'src': '/static/foodstim60/sushi w_condiments.jpg', 'key': 'i', 'origWidth': 410, 'origHeight': 410, 'width': 410, 'height': 410, 'widthPercent': 0.45, 'rescaleHeight': False, 'trialN': 12, 'loaded': True, 'loadedTime': 4087.1000000089407, 'positionName': 'RIGHT', 'positionCoords': [710.32, 179], 'bid': 8.55}]",25455.0,1669836032244,turkeysandwich,sushi w_condiments,6.34,8.55,2.210000000000001,sushi w_condiments,851.4000000059605,852,851.7000000029802,True,i,26827.40000000596,1372.4000000059605,1669836033617,1373,HRV,HRV_0237,2022-11-30 19:25:25
13,"[{'imgObject': {}, 'id': 'turkey sandwich', 'src': '/static/foodstim60/turkey sandwich.jpg', 'key': 'u', 'origWidth': 409, 'origHeight': 409, 'width': 409, 'height': 409, 'widthPercent': 0.45, 'rescaleHeight': False, 'trialN': 13, 'loaded': True, 'loadedTime': 4091.2000000029802, 'positionName': 'LEFT', 'positionCoords': [246.68, 179.5], 'bid': 5.04}, {'imgObject': {}, 'id': 'granola w milk', 'src': '/static/foodstim60/granola w milk.jpg', 'key': 'i', 'origWidth': 410, 'origHeight': 410, 'width': 410, 'height': 410, 'widthPercent': 0.45, 'rescaleHeight': False, 'trialN': 13, 'loaded': True, 'loadedTime': 4104.70000000298, 'positionName': 'RIGHT', 'positionCoords': [710.32, 179], 'bid': 6.61}]",26827.60000000894,1669836033617,turkey sandwich,granola w milk,5.04,6.61,1.5700000000000003,turkey sandwich,858.5,859,858.8999999910593,True,u,28192.79999999702,1365.199999988079,1669836034982,1365,HRV,HRV_0237,2022-11-30 19:25:25
14,"[{'imgObject': {}, 'id': 'rigatoni and sauce', 'src': '/static/foodstim60/rigatoni and sauce.jpg', 'key': 'u', 'origWidth': 410, 'origHeight': 411, 'width': 410, 'height': 411, 'widthPercent': 0.45, 'rescaleHeight': False, 'trialN': 14, 'loaded': True, 'loadedTime': 4075.2999999970198, 'positionName': 'LEFT', 'positionCoords': [245.68, 178.5], 'bid': 8.36}, {'imgObject': {}, 'id': 'banana', 'src': '/static/foodstim60/banana.jpg', 'key': 'i', 'origWidth': 410, 'origHeight': 410, 'width': 410, 'height': 410, 'widthPercent': 0.45, 'rescaleHeight': False, 'trialN': 14, 'loaded': True, 'loadedTime': 4114.9000000059605, 'positionName': 'RIGHT', 'positionCoords': [710.32, 179], 'bid': 9.93}]",28192.90000000596,1669836034982,rigatoni and sauce,banana,8.36,9.93,1.5700000000000003,banana,782.8999999910593,783,783.2000000029802,True,i,29480.79999999702,1287.8999999910593,1669836036270,1288,HRV,HRV_0237,2022-11-30 19:25:25
15,"[{'imgObject': {}, 'id': 'strawberries', 'src': '/static/foodstim60/strawberries.jpg', 'key': 'u', 'origWidth': 410, 'origHeight': 410, 'width': 410, 'height': 410, 'widthPercent': 0.45, 'rescaleHeight': False, 'trialN': 15, 'loaded': True, 'loadedTime': 3990.6000000089407, 'positionName': 'LEFT', 'positionCoords': [245.68, 179], 'bid': 8.3}, {'imgObject': {}, 'id': 'olives', 'src': '/static/foodstim60/olives.jpg', 'key': 'i', 'origWidth': 410, 'origHeight': 410, 'width': 410, 'height': 410, 'widthPercent': 0.45, 'rescaleHeight': False, 'trialN': 15, 'loaded': True, 'loadedTime': 4115, 'positionName': 'RIGHT', 'positionCoords': [710.32, 179], 'bid': 9.9}]",29481.20000000298,1669836036270,strawberries,olives,8.3,9.9,1.5999999999999996,olives,1199.0999999940395,1200,1199.4000000059605,True,i,31197.79999999702,1716.5999999940395,1669836037987,1717,HRV,HRV_0237,2022-11-30 19:25:25
16,"[{'imgObject': {}, 'id': 'Grapes', 'src': '/static/foodstim60/Grapes.jpg', 'key': 'u', 'origWidth': 411, 'origHeight': 411, 'width': 411, 'height': 411, 'widthPercent': 0.45, 'rescaleHeight': False, 'trialN': 16, 'loaded': True, 'loadedTime': 4126.4000000059605, 'positionName': 'LEFT', 'positionCoords': [244.68, 178.5], 'bid': 7.67}, {'imgObject': {}, 'id': 'burrito', 'src': '/static/foodstim60/burrito.jpg', 'key': 'i', 'origWidth': 410, 'origHeight': 410, 'width': 410, 'height': 410, 'widthPercent': 0.45, 'rescaleHeight': False, 'trialN': 16, 'loaded': True, 'loadedTime': 4141.20000000298, 'positionName': 'RIGHT', 'positionCoords': [710.32, 179], 'bid': 7.67}]",31198.29999999702,1669836037988,Grapes,burrito,7.67,7.67,0.0,Grapes,2000.5,2000,2000.9000000059605,True,u,33703.40000000596,2505.1000000089407,1669836040493,2505,HRV,HRV_0237,2022-11-30 19:25:25
17,"[{'imgObject': {}, 'id': 'blackbeanswithrice', 'src': '/static/foodstim60/blackbeanswithrice.jpg', 'key': 'u', 'origWidth': 410, 'origHeight': 410, 'width': 410, 'height': 410, 'widthPercent': 0.45, 'rescaleHeight': False, 'trialN': 17, 'loaded': True, 'loadedTime': 4148.79999999702, 'positionName': 'LEFT', 'positionCoords': [245.68, 179], 'bid': 1.82}, {'imgObject': {}, 'id': 'veggieswithdip', 'src': '/static/foodstim60/veggieswithdip.jpg', 'key': 'i', 'origWidth': 409, 'origHeight': 409, 'width': 409, 'height': 409, 'widthPercent': 0.45, 'rescaleHeight': False, 'trialN': 17, 'loaded': True, 'loadedTime': 4162.100000008941, 'positionName': 'RIGHT', 'positionCoords': [710.32, 179.5], 'bid': 2.34}]",33703.5,1669836040493,blackbeanswithrice,veggieswithdip,1.82,2.34,0.5199999999999998,blackbeanswithrice,1254.7000000029802,1255,1255.1000000089407,True,u,35476.90000000596,1773.4000000059605,1669836042266,1773,HRV,HRV_0237,2022-11-30 19:25:25
18,"[{'imgObject': {}, 'id': 'mac & cheese', 'src': '/static/foodstim60/mac & cheese.jpg', 'key': 'u', 'origWidth': 410, 'origHeight': 410, 'width': 410, 'height': 410, 'widthPercent': 0.45, 'rescaleHeight': False, 'trialN': 18, 'loaded': True, 'loadedTime': 4172.20000000298, 'positionName': 'LEFT', 'positionCoords': [245.68, 179], 'bid': 6.11}, {'imgObject': {}, 'id': 'salmon', 'src': '/static/foodstim60/salmon.jpg', 'key': 'i', 'origWidth': 410, 'origHeight': 409, 'width': 410, 'height': 409, 'widthPercent': 0.45, 'rescaleHeight': False, 'trialN': 18, 'loaded': True, 'loadedTime': 4188.9000000059605, 'positionName': 'RIGHT', 'positionCoords': [710.32, 179.5], 'bid': 6.17}]",35477.20000000298,1669836042266,mac & cheese,salmon,6.11,6.17,0.05999999999999961,salmon,1618.2999999970198,1619,1618.7000000029802,True,i,37614.0,2136.7999999970198,1669836044403,2137,HRV,HRV_0237,2022-11-30 19:25:25
19,"[{'imgObject': {}, 'id': 'hotdog w must', 'src': '/static/foodstim60/hotdog w must.jpg', 'key': 'u', 'origWidth': 409, 'origHeight': 409, 'width': 409, 'height': 409, 'widthPercent': 0.45, 'rescaleHeight': False, 'trialN': 19, 'loaded': True, 'loadedTime': 4182.79999999702, 'positionName': 'LEFT', 'positionCoords': [246.68, 179.5], 'bid': 1.28}, {'imgObject': {}, 'id': 'corn cob', 'src': '/static/foodstim60/corn cob.jpg', 'key': 'i', 'origWidth': 411, 'origHeight': 411, 'width': 411, 'height': 411, 'widthPercent': 0.45, 'rescaleHeight': False, 'trialN': 19, 'loaded': True, 'loadedTime': 4191.4000000059605, 'positionName': 'RIGHT', 'positionCoords': [710.32, 178.5], 'bid': 6.8}]",37614.10000000894,1669836044403,hotdog w must,corn cob,1.28,6.8,5.52,corn cob,828.7999999970198,830,829.1999999880791,True,i,38956.20000000298,1342.0999999940395,1669836045745,1342,HRV,HRV_0237,2022-11-30 19:25:25
20,"[{'imgObject': {}, 'id': 'pear', 'src': '/static/foodstim60/pear.jpg', 'key': 'u', 'origWidth': 411, 'origHeight': 410, 'width': 411, 'height': 410, 'widthPercent': 0.45, 'rescaleHeight': False, 'trialN': 20, 'loaded': True, 'loadedTime': 3869.1000000089407, 'positionName': 'LEFT', 'positionCoords': [244.68, 179], 'bid': 6.0200000000000005}, {'imgObject': {}, 'id': 'salmon', 'src': '/static/foodstim60/salmon.jpg', 'key': 'i', 'origWidth': 410, 'origHeight': 409, 'width': 410, 'height': 409, 'widthPercent': 0.45, 'rescaleHeight': False, 'trialN': 20, 'loaded': True, 'loadedTime': 4190.9000000059605, 'positionName': 'RIGHT', 'positionCoords': [710.32, 179.5], 'bid': 6.17}]",38956.40000000596,1669836045746,pear,salmon,6.0200000000000005,6.17,0.14999999999999947,salmon,872.5999999940395,873,872.8999999910593,True,i,40337.79999999702,1381.3999999910593,1669836047127,1381,HRV,HRV_0237,2022-11-30 19:25:25
21,"[{'imgObject': {}, 'id': 'burrito', 'src': '/static/foodstim60/burrito.jpg', 'key': 'u', 'origWidth': 410, 'origHeight': 410, 'width': 410, 'height': 410, 'widthPercent': 0.45, 'rescaleHeight': False, 'trialN': 21, 'loaded': True, 'loadedTime': 4131.5, 'positionName': 'LEFT', 'positionCoords': [245.68, 179], 'bid': 7.67}, {'imgObject': {}, 'id': 'chickenfingers', 'src': '/static/foodstim60/chickenfingers.jpg', 'key': 'i', 'origWidth': 410, 'origHeight': 410, 'width': 410, 'height': 410, 'widthPercent': 0.45, 'rescaleHeight': False, 'trialN': 21, 'loaded': True, 'loadedTime': 4206.9000000059605, 'positionName': 'RIGHT', 'positionCoords': [710.32, 179], 'bid': 5.08}]",40338.20000000298,1669836047127,burrito,chickenfingers,7.67,5.08,-2.59,burrito,920.0,921,920.2999999970198,True,u,41778.79999999702,1440.5999999940395,1669836048568,1441,HRV,HRV_0237,2022-11-30 19:25:25
22,"[{'imgObject': {}, 'id': 'veggieswithdip', 'src': '/static/foodstim60/veggieswithdip.jpg', 'key': 'u', 'origWidth': 409, 'origHeight': 409, 'width': 409, 'height': 409, 'widthPercent': 0.45, 'rescaleHeight': False, 'trialN': 22, 'loaded': True, 'loadedTime': 4163.20000000298, 'positionName': 'LEFT', 'positionCoords': [246.68, 179.5], 'bid': 2.34}, {'imgObject': {}, 'id': 'eggsalad', 'src': '/static/foodstim60/eggsalad.jpg', 'key': 'i', 'origWidth': 410, 'origHeight': 409, 'width': 410, 'height': 409, 'widthPercent': 0.45, 'rescaleHeight': False, 'trialN': 22, 'loaded': True, 'loadedTime': 4052.7999999970198, 'positionName': 'RIGHT', 'positionCoords': [710.32, 179.5], 'bid': 3.97}]",41779.0,1669836048568,veggieswithdip,eggsalad,2.34,3.97,1.6300000000000003,eggsalad,846.2000000029802,847,846.6000000089407,True,i,43129.70000000298,1350.7000000029802,1669836049919,1351,HRV,HRV_0237,2022-11-30 19:25:25
23,"[{'imgObject': {}, 'id': 'sweetpotato', 'src': '/static/foodstim60/sweetpotato.jpg', 'key': 'u', 'origWidth': 410, 'origHeight': 410, 'width': 410, 'height': 410, 'widthPercent': 0.45, 'rescaleHeight': False, 'trialN': 23, 'loaded': True, 'loadedTime': 4212.5, 'positionName': 'LEFT', 'positionCoords': [245.68, 179], 'bid': 0.06}, {'imgObject': {}, 'id': 'cocktailshrimp', 'src': '/static/foodstim60/cocktailshrimp.jpg', 'key': 'i', 'origWidth': 410, 'origHeight': 410, 'width': 410, 'height': 410, 'widthPercent': 0.45, 'rescaleHeight': False, 'trialN': 23, 'loaded': True, 'loadedTime': 4061.4000000059605, 'positionName': 'RIGHT', 'positionCoords': [710.32, 179], 'bid': 1.06}]",43130.0,1669836049919,sweetpotato,cocktailshrimp,0.06,1.06,1.0,cocktailshrimp,1169.9000000059605,1171,1170.2999999970198,True,i,44818.70000000298,1688.7000000029802,1669836051608,1689,HRV,HRV_0237,2022-11-30 19:25:25
24,"[{'imgObject': {}, 'id': 'hotdog w must', 'src': '/static/foodstim60/hotdog w must.jpg', 'key': 'u', 'origWidth': 409, 'origHeight': 409, 'width': 409, 'height': 409, 'widthPercent': 0.45, 'rescaleHeight': False, 'trialN': 24, 'loaded': True, 'loadedTime': 4182.4000000059605, 'positionName': 'LEFT', 'positionCoords': [246.68, 179.5], 'bid': 1.28}, {'imgObject': {}, 'id': 'roastedpotatoes', 'src': '/static/foodstim60/roastedpotatoes.jpg', 'key': 'i', 'origWidth': 409, 'origHeight': 410, 'width': 409, 'height': 410, 'widthPercent': 0.45, 'rescaleHeight': False, 'trialN': 24, 'loaded': True, 'loadedTime': 4224.4000000059605, 'positionName': 'RIGHT', 'positionCoords': [710.32, 179], 'bid': 1.12}]",44819.0,1669836051608,hotdog w must,roastedpotatoes,1.28,1.12,-0.15999999999999992,hotdog w must,1105.6000000089407,1106,1106.0,True,u,46438.79999999702,1619.7999999970198,1669836053228,1620,HRV,HRV_0237,2022-11-30 19:25:25
25,"[{'imgObject': {}, 'id': 'rigatoni and sauce', 'src': '/static/foodstim60/rigatoni and sauce.jpg', 'key': 'u', 'origWidth': 410, 'origHeight': 411, 'width': 410, 'height': 411, 'widthPercent': 0.45, 'rescaleHeight': False, 'trialN': 25, 'loaded': True, 'loadedTime': 4074.6000000089407, 'positionName': 'LEFT', 'positionCoords': [245.68, 178.5], 'bid': 8.36}, {'imgObject': {}, 'id': 'sushi w_condiments', 'src': '/static/foodstim60/sushi w_condiments.jpg', 'key': 'i', 'origWidth': 410, 'origHeight': 410, 'width': 410, 'height': 410, 'widthPercent': 0.45, 'rescaleHeight': False, 'trialN': 25, 'loaded': True, 'loadedTime': 4087.2000000029802, 'positionName': 'RIGHT', 'positionCoords': [710.32, 179], 'bid': 8.55}]",46438.90000000596,1669836053228,rigatoni and sauce,sushi w_condiments,8.36,8.55,0.19000000000000128,sushi w_condiments,1292.2999999970198,1293,1292.5999999940395,True,i,48243.5,1804.5999999940395,1669836055033,1805,HRV,HRV_0237,2022-11-30 19:25:25
26,"[{'imgObject': {}, 'id': 'apple slices', 'src': '/static/foodstim60/apple slices.jpg', 'key': 'u', 'origWidth': 409, 'origHeight': 410, 'width': 409, 'height': 410, 'widthPercent': 0.45, 'rescaleHeight': False, 'trialN': 26, 'loaded': True, 'loadedTime': 4227.4000000059605, 'positionName': 'LEFT', 'positionCoords': [246.68, 179], 'bid': 7.56}, {'imgObject': {}, 'id': 'burger', 'src': '/static/foodstim60/burger.jpg', 'key': 'i', 'origWidth': 409, 'origHeight': 409, 'width': 409, 'height': 409, 'widthPercent': 0.45, 'rescaleHeight': False, 'trialN': 26, 'loaded': True, 'loadedTime': 3978.6000000089407, 'positionName': 'RIGHT', 'positionCoords': [710.32, 179.5], 'bid': 6.36}]",48243.79999999702,1669836055033,apple slices,burger,7.56,6.36,-1.1999999999999993,burger,1013.2000000029802,1014,1013.8000000119209,True,i,49763.5,1519.7000000029802,1669836056553,1520,HRV,HRV_0237,2022-11-30 19:25:25
27,"[{'imgObject': {}, 'id': 'blackbeanswithrice', 'src': '/static/foodstim60/blackbeanswithrice.jpg', 'key': 'u', 'origWidth': 410, 'origHeight': 410, 'width': 410, 'height': 410, 'widthPercent': 0.45, 'rescaleHeight': False, 'trialN': 27, 'loaded': True, 'loadedTime': 4146.600000008941, 'positionName': 'LEFT', 'positionCoords': [245.68, 179], 'bid': 1.82}, {'imgObject': {}, 'id': 'hashbrowns', 'src': '/static/foodstim60/hashbrowns.jpg', 'key': 'i', 'origWidth': 411, 'origHeight': 410, 'width': 411, 'height': 410, 'widthPercent': 0.45, 'rescaleHeight': False, 'trialN': 27, 'loaded': True, 'loadedTime': 4232.100000008941, 'positionName': 'RIGHT', 'positionCoords': [710.32, 179], 'bid': 5.04}]",49763.60000000894,1669836056553,blackbeanswithrice,hashbrowns,1.82,5.04,3.2199999999999998,blackbeanswithrice,1428.8999999910593,1429,1429.3999999910593,True,u,51705.79999999702,1942.199999988079,1669836058495,1942,HRV,HRV_0237,2022-11-30 19:25:25
28,"[{'imgObject': {}, 'id': 'hashbrowns', 'src': '/static/foodstim60/hashbrowns.jpg', 'key': 'u', 'origWidth': 411, 'origHeight': 410, 'width': 411, 'height': 410, 'widthPercent': 0.45, 'rescaleHeight': False, 'trialN': 28, 'loaded': True, 'loadedTime': 4229.79999999702, 'positionName': 'LEFT', 'positionCoords': [244.68, 179], 'bid': 5.04}, {'imgObject': {}, 'id': 'chickenfingers', 'src': '/static/foodstim60/chickenfingers.jpg', 'key': 'i', 'origWidth': 410, 'origHeight': 410, 'width': 410, 'height': 410, 'widthPercent': 0.45, 'rescaleHeight': False, 'trialN': 28, 'loaded': True, 'loadedTime': 4197.600000008941, 'positionName': 'RIGHT', 'positionCoords': [710.32, 179], 'bid': 5.08}]",51705.90000000596,1669836058495,hashbrowns,chickenfingers,5.04,5.08,0.040000000000000036,chickenfingers,1443.3999999910593,1440,1443.7999999970198,True,i,53657.70000000298,1951.7999999970198,1669836060443,1948,HRV,HRV_0237,2022-11-30 19:25:25
29,"[{'imgObject': {}, 'id': 'cheerios', 'src': '/static/foodstim60/cheerios.jpg', 'key': 'u', 'origWidth': 409, 'origHeight': 410, 'width': 409, 'height': 410, 'widthPercent': 0.45, 'rescaleHeight': False, 'trialN': 29, 'loaded': True, 'loadedTime': 4236, 'positionName': 'LEFT', 'positionCoords': [246.68, 179], 'bid': 4.98}, {'imgObject': {}, 'id': 'baked potato', 'src': '/static/foodstim60/baked potato.jpg', 'key': 'i', 'origWidth': 409, 'origHeight': 410, 'width': 409, 'height': 410, 'widthPercent': 0.45, 'rescaleHeight': False, 'trialN': 29, 'loaded': True, 'loadedTime': 4244.29999999702, 'positionName': 'RIGHT', 'positionCoords': [710.32, 179], 'bid': 4.09}]",53658.0,1669836060443,cheerios,baked potato,4.98,4.09,-0.8900000000000006,baked potato,1450.5,1451,1450.7999999970198,True,i,55617.40000000596,1959.4000000059605,1669836062403,1960,HRV,HRV_0237,2022-11-30 19:25:25
30,"[{'imgObject': {}, 'id': 'blackbeanswithrice', 'src': '/static/foodstim60/blackbeanswithrice.jpg', 'key': 'u', 'origWidth': 410, 'origHeight': 410, 'width': 410, 'height': 410, 'widthPercent': 0.45, 'rescaleHeight': False, 'trialN': 30, 'loaded': True, 'loadedTime': 4149.4000000059605, 'positionName': 'LEFT', 'positionCoords': [245.68, 179], 'bid': 1.82}, {'imgObject': {}, 'id': 'bagel and cc', 'src': '/static/foodstim60/bagel and cc.jpg', 'key': 'i', 'origWidth': 410, 'origHeight': 410, 'width': 410, 'height': 410, 'widthPercent': 0.45, 'rescaleHeight': False, 'trialN': 30, 'loaded': True, 'loadedTime': 4246, 'positionName': 'RIGHT', 'positionCoords': [710.32, 179], 'bid': 0.13}]",55617.60000000894,1669836062403,blackbeanswithrice,bagel and cc,1.82,0.13,-1.69,blackbeanswithrice,1209.2999999970198,1210,1209.7999999970198,True,u,57335.90000000596,1718.2999999970198,1669836064121,1718,HRV,HRV_0237,2022-11-30 19:25:25
31,"[{'imgObject': {}, 'id': 'lox', 'src': '/static/foodstim60/lox.jpg', 'key': 'u', 'origWidth': 410, 'origHeight': 411, 'width': 410, 'height': 411, 'widthPercent': 0.45, 'rescaleHeight': False, 'trialN': 31, 'loaded': True, 'loadedTime': 4258.29999999702, 'positionName': 'LEFT', 'positionCoords': [245.68, 178.5], 'bid': 1.09}, {'imgObject': {}, 'id': 'eggs', 'src': '/static/foodstim60/eggs.jpg', 'key': 'i', 'origWidth': 409, 'origHeight': 409, 'width': 409, 'height': 409, 'widthPercent': 0.45, 'rescaleHeight': False, 'trialN': 31, 'loaded': True, 'loadedTime': 4249.600000008941, 'positionName': 'RIGHT', 'positionCoords': [710.32, 179.5], 'bid': 1.09}]",57336.20000000298,1669836064121,lox,eggs,1.09,1.09,0.0,eggs,1061.4000000059605,1062,1061.7000000029802,True,i,58908.5,1572.2999999970198,1669836065694,1573,HRV,HRV_0237,2022-11-30 19:25:25
32,"[{'imgObject': {}, 'id': 'turkeysandwich', 'src': '/static/foodstim60/turkeysandwich.jpg', 'key': 'u', 'origWidth': 409, 'origHeight': 409, 'width': 409, 'height': 409, 'widthPercent': 0.45, 'rescaleHeight': False, 'trialN': 32, 'loaded': True, 'loadedTime': 3924.2000000029802, 'positionName': 'LEFT', 'positionCoords': [246.68, 179.5], 'bid': 6.34}, {'imgObject': {}, 'id': 'chicken nuggets2', 'src': '/static/foodstim60/chicken nuggets2.jpg', 'key': 'i', 'origWidth': 410, 'origHeight': 409, 'width': 410, 'height': 409, 'widthPercent': 0.45, 'rescaleHeight': False, 'trialN': 32, 'loaded': True, 'loadedTime': 4262.79999999702, 'positionName': 'RIGHT', 'positionCoords': [710.32, 179.5], 'bid': 5}]",58908.70000000298,1669836065694,turkeysandwich,chicken nuggets2,6.34,5.0,-1.3399999999999999,turkeysandwich,1368.9000000059605,1369,1369.4000000059605,True,u,60791.10000000894,1882.4000000059605,1669836067576,1882,HRV,HRV_0237,2022-11-30 19:25:25
33,"[{'imgObject': {}, 'id': 'seaweed', 'src': '/static/foodstim60/seaweed.jpg', 'key': 'u', 'origWidth': 410, 'origHeight': 410, 'width': 410, 'height': 410, 'widthPercent': 0.45, 'rescaleHeight': False, 'trialN': 33, 'loaded': True, 'loadedTime': 4263.100000008941, 'positionName': 'LEFT', 'positionCoords': [245.68, 179], 'bid': 2.29}, {'imgObject': {}, 'id': 'veggieswithdip', 'src': '/static/foodstim60/veggieswithdip.jpg', 'key': 'i', 'origWidth': 409, 'origHeight': 409, 'width': 409, 'height': 409, 'widthPercent': 0.45, 'rescaleHeight': False, 'trialN': 33, 'loaded': True, 'loadedTime': 4164, 'positionName': 'RIGHT', 'positionCoords': [710.32, 179.5], 'bid': 2.34}]",60791.60000000894,1669836067577,seaweed,veggieswithdip,2.29,2.34,0.04999999999999982,seaweed,1852.7999999970198,1853,1853.199999988079,True,u,63151.10000000894,2359.5,1669836069936,2359,HRV,HRV_0237,2022-11-30 19:25:25
34,"[{'imgObject': {}, 'id': 'blueberries', 'src': '/static/foodstim60/blueberries.jpg', 'key': 'u', 'origWidth': 411, 'origHeight': 411, 'width': 411, 'height': 411, 'widthPercent': 0.45, 'rescaleHeight': False, 'trialN': 34, 'loaded': True, 'loadedTime': 4276.70000000298, 'positionName': 'LEFT', 'positionCoords': [244.68, 178.5], 'bid': 6.53}, {'imgObject': {}, 'id': 'hashbrowns', 'src': '/static/foodstim60/hashbrowns.jpg', 'key': 'i', 'origWidth': 411, 'origHeight': 410, 'width': 411, 'height': 410, 'widthPercent': 0.45, 'rescaleHeight': False, 'trialN': 34, 'loaded': True, 'loadedTime': 4231.20000000298, 'positionName': 'RIGHT', 'positionCoords': [710.32, 179], 'bid': 5.04}]",63151.5,1669836069937,blueberries,hashbrowns,6.53,5.04,-1.4900000000000002,blueberries,1043.2000000029802,1043,1043.5,True,u,64723.29999999702,1571.7999999970198,1669836071509,1572,HRV,HRV_0237,2022-11-30 19:25:25
35,"[{'imgObject': {}, 'id': 'Tribe humus pita', 'src': '/static/foodstim60/Tribe humus pita.jpg', 'key': 'u', 'origWidth': 411, 'origHeight': 411, 'width': 411, 'height': 411, 'widthPercent': 0.45, 'rescaleHeight': False, 'trialN': 35, 'loaded': True, 'loadedTime': 4284, 'positionName': 'LEFT', 'positionCoords': [244.68, 178.5], 'bid': 2.52}, {'imgObject': {}, 'id': 'yogurt no spoon', 'src': '/static/foodstim60/yogurt no spoon.jpg', 'key': 'i', 'origWidth': 411, 'origHeight': 410, 'width': 411, 'height': 410, 'widthPercent': 0.45, 'rescaleHeight': False, 'trialN': 35, 'loaded': True, 'loadedTime': 4286.70000000298, 'positionName': 'RIGHT', 'positionCoords': [710.32, 179], 'bid': 8.13}]",64723.5,1669836071509,Tribe humus pita,yogurt no spoon,2.52,8.13,5.610000000000001,yogurt no spoon,1281.7000000029802,1282,1282.0,True,i,66528.0,1804.5,1669836073313,1804,HRV,HRV_0237,2022-11-30 19:25:25
36,"[{'imgObject': {}, 'id': 'cherries', 'src': '/static/foodstim60/cherries.jpg', 'key': 'u', 'origWidth': 410, 'origHeight': 411, 'width': 410, 'height': 411, 'widthPercent': 0.45, 'rescaleHeight': False, 'trialN': 36, 'loaded': True, 'loadedTime': 4040.2000000029802, 'positionName': 'LEFT', 'positionCoords': [245.68, 178.5], 'bid': 8.63}, {'imgObject': {}, 'id': 'ice cream sundae 002', 'src': '/static/foodstim60/ice cream sundae 002.jpg', 'key': 'i', 'origWidth': 409, 'origHeight': 409, 'width': 409, 'height': 409, 'widthPercent': 0.45, 'rescaleHeight': False, 'trialN': 36, 'loaded': True, 'loadedTime': 4003.7000000029802, 'positionName': 'RIGHT', 'positionCoords': [710.32, 179.5], 'bid': 8.93}]",66528.29999999702,1669836073314,cherries,ice cream sundae 002,8.63,8.93,0.29999999999999893,ice cream sundae 002,1534.6000000089407,1535,1535.2000000029802,True,i,68580.10000000894,2051.800000011921,1669836075365,2051,HRV,HRV_0237,2022-11-30 19:25:25
37,"[{'imgObject': {}, 'id': 'popsicles', 'src': '/static/foodstim60/popsicles.jpg', 'key': 'u', 'origWidth': 410, 'origHeight': 410, 'width': 410, 'height': 410, 'widthPercent': 0.45, 'rescaleHeight': False, 'trialN': 37, 'loaded': True, 'loadedTime': 4344, 'positionName': 'LEFT', 'positionCoords': [245.68, 179], 'bid': 2.73}, {'imgObject': {}, 'id': 'shreddedwheatwithmilk', 'src': '/static/foodstim60/shreddedwheatwithmilk.jpg', 'key': 'i', 'origWidth': 410, 'origHeight': 410, 'width': 410, 'height': 410, 'widthPercent': 0.45, 'rescaleHeight': False, 'trialN': 37, 'loaded': True, 'loadedTime': 4293.100000008941, 'positionName': 'RIGHT', 'positionCoords': [710.32, 179], 'bid': 2.39}]",68580.29999999702,1669836075365,popsicles,shreddedwheatwithmilk,2.73,2.39,-0.33999999999999986,popsicles,2309.1000000089407,2310,2309.4000000059605,True,u,71396.70000000298,2816.4000000059605,1669836078182,2817,HRV,HRV_0237,2022-11-30 19:25:25
38,"[{'imgObject': {}, 'id': 'rigatoni and sauce', 'src': '/static/foodstim60/rigatoni and sauce.jpg', 'key': 'u', 'origWidth': 410, 'origHeight': 411, 'width': 410, 'height': 411, 'widthPercent': 0.45, 'rescaleHeight': False, 'trialN': 38, 'loaded': True, 'loadedTime': 4072.2000000029802, 'positionName': 'LEFT', 'positionCoords': [245.68, 178.5], 'bid': 8.36}, {'imgObject': {}, 'id': 'fried eggs', 'src': '/static/foodstim60/fried eggs.jpg', 'key': 'i', 'origWidth': 410, 'origHeight': 410, 'width': 410, 'height': 410, 'widthPercent': 0.45, 'rescaleHeight': False, 'trialN': 38, 'loaded': True, 'loadedTime': 4297.5, 'positionName': 'RIGHT', 'positionCoords': [710.32, 179], 'bid': 3.11}]",71397.0,1669836078182,rigatoni and sauce,fried eggs,8.36,3.11,-5.25,rigatoni and sauce,1487.2000000029802,1488,1487.5,True,u,73403.10000000894,2006.1000000089407,1669836080188,2006,HRV,HRV_0237,2022-11-30 19:25:25
39,"[{'imgObject': {}, 'id': 'orange slices', 'src': '/static/foodstim60/orange slices.jpg', 'key': 'u', 'origWidth': 409, 'origHeight': 410, 'width': 409, 'height': 410, 'widthPercent': 0.45, 'rescaleHeight': False, 'trialN': 39, 'loaded': True, 'loadedTime': 4309.4000000059605, 'positionName': 'LEFT', 'positionCoords': [246.68, 179], 'bid': 8.46}, {'imgObject': {}, 'id': 'sushi w_condiments', 'src': '/static/foodstim60/sushi w_condiments.jpg', 'key': 'i', 'origWidth': 410, 'origHeight': 410, 'width': 410, 'height': 410, 'widthPercent': 0.45, 'rescaleHeight': False, 'trialN': 39, 'loaded': True, 'loadedTime': 4075.5, 'positionName': 'RIGHT', 'positionCoords': [710.32, 179], 'bid': 8.55}]",73403.40000000596,1669836080189,orange slices,sushi w_condiments,8.46,8.55,0.08999999999999986,sushi w_condiments,1172.5,1172,1172.7999999970198,True,i,75091.40000000596,1688.0,1669836081877,1688,HRV,HRV_0237,2022-11-30 19:25:25
40,"[{'imgObject': {}, 'id': 'popsicles', 'src': '/static/foodstim60/popsicles.jpg', 'key': 'u', 'origWidth': 410, 'origHeight': 410, 'width': 410, 'height': 410, 'widthPercent': 0.45, 'rescaleHeight': False, 'trialN': 40, 'loaded': True, 'loadedTime': 4344.100000008941, 'positionName': 'LEFT', 'positionCoords': [245.68, 179], 'bid': 2.73}, {'imgObject': {}, 'id': 'cantaloupe', 'src': '/static/foodstim60/cantaloupe.jpg', 'key': 'i', 'origWidth': 409, 'origHeight': 409, 'width': 409, 'height': 409, 'widthPercent': 0.45, 'rescaleHeight': False, 'trialN': 40, 'loaded': True, 'loadedTime': 4311.9000000059605, 'positionName': 'RIGHT', 'positionCoords': [710.32, 179.5], 'bid': 1.28}]",75091.90000000596,1669836081877,popsicles,cantaloupe,2.73,1.28,-1.45,popsicles,1139.5,1140,1139.8999999910593,True,u,76742.0,1650.0999999940395,1669836083527,1650,HRV,HRV_0237,2022-11-30 19:25:25
41,"[{'imgObject': {}, 'id': 'fried eggs', 'src': '/static/foodstim60/fried eggs.jpg', 'key': 'u', 'origWidth': 410, 'origHeight': 410, 'width': 410, 'height': 410, 'widthPercent': 0.45, 'rescaleHeight': False, 'trialN': 41, 'loaded': True, 'loadedTime': 4305.100000008941, 'positionName': 'LEFT', 'positionCoords': [245.68, 179], 'bid': 3.11}, {'imgObject': {}, 'id': 'blackbeanswithrice', 'src': '/static/foodstim60/blackbeanswithrice.jpg', 'key': 'i', 'origWidth': 410, 'origHeight': 410, 'width': 410, 'height': 410, 'widthPercent': 0.45, 'rescaleHeight': False, 'trialN': 41, 'loaded': True, 'loadedTime': 4147.79999999702, 'positionName': 'RIGHT', 'positionCoords': [710.32, 179], 'bid': 1.82}]",76742.20000000298,1669836083527,fried eggs,blackbeanswithrice,3.11,1.82,-1.2899999999999998,blackbeanswithrice,941.7999999970198,943,942.0,True,i,78199.0,1456.7999999970198,1669836084984,1457,HRV,HRV_0237,2022-11-30 19:25:25
42,"[{'imgObject': {}, 'id': 'hotdog w must', 'src': '/static/foodstim60/hotdog w must.jpg', 'key': 'u', 'origWidth': 409, 'origHeight': 409, 'width': 409, 'height': 409, 'widthPercent': 0.45, 'rescaleHeight': False, 'trialN': 42, 'loaded': True, 'loadedTime': 4182.100000008941, 'positionName': 'LEFT', 'positionCoords': [246.68, 179.5], 'bid': 1.28}, {'imgObject': {}, 'id': 'chicken nuggets2', 'src': '/static/foodstim60/chicken nuggets2.jpg', 'key': 'i', 'origWidth': 410, 'origHeight': 409, 'width': 410, 'height': 409, 'widthPercent': 0.45, 'rescaleHeight': False, 'trialN': 42, 'loaded': True, 'loadedTime': 4262.600000008941, 'positionName': 'RIGHT', 'positionCoords': [710.32, 179.5], 'bid': 5}]",78199.40000000596,1669836084985,hotdog w must,chicken nuggets2,1.28,5.0,3.7199999999999998,chicken nuggets2,1444.8999999910593,1445,1445.2999999970198,True,i,80151.10000000894,1951.7000000029802,1669836086936,1951,HRV,HRV_0237,2022-11-30 19:25:25
43,"[{'imgObject': {}, 'id': 'roastedpotatoes', 'src': '/static/foodstim60/roastedpotatoes.jpg', 'key': 'u', 'origWidth': 409, 'origHeight': 410, 'width': 409, 'height': 410, 'widthPercent': 0.45, 'rescaleHeight': False, 'trialN': 43, 'loaded': True, 'loadedTime': 4225.29999999702, 'positionName': 'LEFT', 'positionCoords': [246.68, 179], 'bid': 1.12}, {'imgObject': {}, 'id': 'rigatoni', 'src': '/static/foodstim60/rigatoni.jpg', 'key': 'i', 'origWidth': 411, 'origHeight': 411, 'width': 411, 'height': 411, 'widthPercent': 0.45, 'rescaleHeight': False, 'trialN': 43, 'loaded': True, 'loadedTime': 4025.2999999970198, 'positionName': 'RIGHT', 'positionCoords': [710.32, 178.5], 'bid': 0.03}]",80151.29999999702,1669836086937,roastedpotatoes,rigatoni,1.12,0.03,-1.09,rigatoni,1577.2000000029802,1577,1577.800000011921,True,i,82241.20000000298,2089.9000000059605,1669836089026,2089,HRV,HRV_0237,2022-11-30 19:25:25
44,"[{'imgObject': {}, 'id': 'granola w milk', 'src': '/static/foodstim60/granola w milk.jpg', 'key': 'u', 'origWidth': 410, 'origHeight': 410, 'width': 410, 'height': 410, 'widthPercent': 0.45, 'rescaleHeight': False, 'trialN': 44, 'loaded': True, 'loadedTime': 4111.600000008941, 'positionName': 'LEFT', 'positionCoords': [245.68, 179], 'bid': 6.61}, {'imgObject': {}, 'id': 'ice cream sundae 002', 'src': '/static/foodstim60/ice cream sundae 002.jpg', 'key': 'i', 'origWidth': 409, 'origHeight': 409, 'width': 409, 'height': 409, 'widthPercent': 0.45, 'rescaleHeight': False, 'trialN': 44, 'loaded': True, 'loadedTime': 4007.7999999970198, 'positionName': 'RIGHT', 'positionCoords': [710.32, 179.5], 'bid': 8.93}]",82241.5,1669836089027,granola w milk,ice cream sundae 002,6.61,8.93,2.3199999999999994,ice cream sundae 002,855.6000000089407,856,856.0,True,i,83610.40000000596,1368.9000000059605,1669836090396,1369,HRV,HRV_0237,2022-11-30 19:25:25
45,"[{'imgObject': {}, 'id': 'roastedpotatoes', 'src': '/static/foodstim60/roastedpotatoes.jpg', 'key': 'u', 'origWidth': 409, 'origHeight': 410, 'width': 409, 'height': 410, 'widthPercent': 0.45, 'rescaleHeight': False, 'trialN': 45, 'loaded': True, 'loadedTime': 4225.20000000298, 'positionName': 'LEFT', 'positionCoords': [246.68, 179], 'bid': 1.12}, {'imgObject': {}, 'id': 'froot loops w milk', 'src': '/static/foodstim60/froot loops w milk.jpg', 'key': 'i', 'origWidth': 410, 'origHeight': 410, 'width': 410, 'height': 410, 'widthPercent': 0.45, 'rescaleHeight': False, 'trialN': 45, 'loaded': True, 'loadedTime': 3964, 'positionName': 'RIGHT', 'positionCoords': [710.32, 179], 'bid': 5}]",83610.60000000894,1669836090396,roastedpotatoes,froot loops w milk,1.12,5.0,3.88,froot loops w milk,1601.8999999910593,1602,1602.3999999910593,True,i,85725.10000000894,2114.5,1669836092510,2114,HRV,HRV_0237,2022-11-30 19:25:25
46,"[{'imgObject': {}, 'id': 'strawberries', 'src': '/static/foodstim60/strawberries.jpg', 'key': 'u', 'origWidth': 410, 'origHeight': 410, 'width': 410, 'height': 410, 'widthPercent': 0.45, 'rescaleHeight': False, 'trialN': 46, 'loaded': True, 'loadedTime': 3991.4000000059605, 'positionName': 'LEFT', 'positionCoords': [245.68, 179], 'bid': 8.3}, {'imgObject': {}, 'id': 'pear', 'src': '/static/foodstim60/pear.jpg', 'key': 'i', 'origWidth': 411, 'origHeight': 410, 'width': 411, 'height': 410, 'widthPercent': 0.45, 'rescaleHeight': False, 'trialN': 46, 'loaded': True, 'loadedTime': 3866.7000000029802, 'positionName': 'RIGHT', 'positionCoords': [710.32, 179], 'bid': 6.0200000000000005}]",85725.29999999702,1669836092511,strawberries,pear,8.3,6.0200000000000005,-2.2800000000000002,strawberries,765.1000000089407,765,765.5,True,u,86999.10000000894,1273.800000011921,1669836093784,1273,HRV,HRV_0237,2022-11-30 19:25:25
47,"[{'imgObject': {}, 'id': 'fruitsalad', 'src': '/static/foodstim60/fruitsalad.jpg', 'key': 'u', 'origWidth': 410, 'origHeight': 410, 'width': 410, 'height': 410, 'widthPercent': 0.45, 'rescaleHeight': False, 'trialN': 47, 'loaded': True, 'loadedTime': 3949.7999999970198, 'positionName': 'LEFT', 'positionCoords': [245.68, 179], 'bid': 9.84}, {'imgObject': {}, 'id': 'steak', 'src': '/static/foodstim60/steak.jpg', 'key': 'i', 'origWidth': 410, 'origHeight': 410, 'width': 410, 'height': 410, 'widthPercent': 0.45, 'rescaleHeight': False, 'trialN': 47, 'loaded': True, 'loadedTime': 4317.5, 'positionName': 'RIGHT', 'positionCoords': [710.32, 179], 'bid': 9.86}]",86999.40000000596,1669836093785,fruitsalad,steak,9.84,9.86,0.019999999999999574,fruitsalad,977.5,978,977.8999999910593,True,u,88487.60000000894,1488.2000000029802,1669836095273,1488,HRV,HRV_0237,2022-11-30 19:25:25
48,"[{'imgObject': {}, 'id': 'granola w milk', 'src': '/static/foodstim60/granola w milk.jpg', 'key': 'u', 'origWidth': 410, 'origHeight': 410, 'width': 410, 'height': 410, 'widthPercent': 0.45, 'rescaleHeight': False, 'trialN': 48, 'loaded': True, 'loadedTime': 4104.29999999702, 'positionName': 'LEFT', 'positionCoords': [245.68, 179], 'bid': 6.61}, {'imgObject': {}, 'id': 'eggs', 'src': '/static/foodstim60/eggs.jpg', 'key': 'i', 'origWidth': 409, 'origHeight': 409, 'width': 409, 'height': 409, 'widthPercent': 0.45, 'rescaleHeight': False, 'trialN': 48, 'loaded': True, 'loadedTime': 4249.9000000059605, 'positionName': 'RIGHT', 'positionCoords': [710.32, 179.5], 'bid': 1.09}]",88487.79999999702,1669836095273,granola w milk,eggs,6.61,1.09,-5.5200000000000005,eggs,2444.7000000029802,2445,2445.0,True,i,91442.5,2954.7000000029802,1669836098228,2955,HRV,HRV_0237,2022-11-30 19:25:25
49,"[{'imgObject': {}, 'id': 'sweetpotato', 'src': '/static/foodstim60/sweetpotato.jpg', 'key': 'u', 'origWidth': 410, 'origHeight': 410, 'width': 410, 'height': 410, 'widthPercent': 0.45, 'rescaleHeight': False, 'trialN': 49, 'loaded': True, 'loadedTime': 4211.29999999702, 'positionName': 'LEFT', 'positionCoords': [245.68, 179], 'bid': 0.06}, {'imgObject': {}, 'id': 'hotdog w must', 'src': '/static/foodstim60/hotdog w must.jpg', 'key': 'i', 'origWidth': 409, 'origHeight': 409, 'width': 409, 'height': 409, 'widthPercent': 0.45, 'rescaleHeight': False, 'trialN': 49, 'loaded': True, 'loadedTime': 4179.5, 'positionName': 'RIGHT', 'positionCoords': [710.32, 179.5], 'bid': 1.28}]",91442.70000000298,1669836098228,sweetpotato,hotdog w must,0.06,1.28,1.22,hotdog w must,1453.2000000029802,1453,1453.5,True,i,93401.40000000596,1958.7000000029802,1669836100187,1959,HRV,HRV_0237,2022-11-30 19:25:25
50,"[{'imgObject': {}, 'id': 'granola w milk', 'src': '/static/foodstim60/granola w milk.jpg', 'key': 'u', 'origWidth': 410, 'origHeight': 410, 'width': 410, 'height': 410, 'widthPercent': 0.45, 'rescaleHeight': False, 'trialN': 50, 'loaded': True, 'loadedTime': 4110.9000000059605, 'positionName': 'LEFT', 'positionCoords': [245.68, 179], 'bid': 6.61}, {'imgObject': {}, 'id': 'blueberries', 'src': '/static/foodstim60/blueberries.jpg', 'key': 'i', 'origWidth': 411, 'origHeight': 411, 'width': 411, 'height': 411, 'widthPercent': 0.45, 'rescaleHeight': False, 'trialN': 50, 'loaded': True, 'loadedTime': 4276.79999999702, 'positionName': 'RIGHT', 'positionCoords': [710.32, 178.5], 'bid': 6.53}]",93401.60000000894,1669836100187,granola w milk,blueberries,6.61,6.53,-0.08000000000000007,blueberries,719.0,719,719.3999999910593,True,i,94635.79999999702,1234.199999988079,1669836101421,1234,HRV,HRV_0237,2022-11-30 19:25:25
51,"[{'imgObject': {}, 'id': 'blueberries', 'src': '/static/foodstim60/blueberries.jpg', 'key': 'u', 'origWidth': 411, 'origHeight': 411, 'width': 411, 'height': 411, 'widthPercent': 0.45, 'rescaleHeight': False, 'trialN': 51, 'loaded': True, 'loadedTime': 4276.29999999702, 'positionName': 'LEFT', 'positionCoords': [244.68, 178.5], 'bid': 6.53}, {'imgObject': {}, 'id': 'Grapes', 'src': '/static/foodstim60/Grapes.jpg', 'key': 'i', 'origWidth': 411, 'origHeight': 411, 'width': 411, 'height': 411, 'widthPercent': 0.45, 'rescaleHeight': False, 'trialN': 51, 'loaded': True, 'loadedTime': 4125.70000000298, 'positionName': 'RIGHT', 'positionCoords': [710.32, 178.5], 'bid': 7.67}]",94636.20000000298,1669836101421,blueberries,Grapes,6.53,7.67,1.1399999999999997,blueberries,815.9000000059605,817,816.4000000059605,True,u,95970.0,1333.7999999970198,1669836102755,1334,HRV,HRV_0237,2022-11-30 19:25:25
52,"[{'imgObject': {}, 'id': 'cantaloupe', 'src': '/static/foodstim60/cantaloupe.jpg', 'key': 'u', 'origWidth': 409, 'origHeight': 409, 'width': 409, 'height': 409, 'widthPercent': 0.45, 'rescaleHeight': False, 'trialN': 52, 'loaded': True, 'loadedTime': 4312.5, 'positionName': 'LEFT', 'positionCoords': [246.68, 179.5], 'bid': 1.28}, {'imgObject': {}, 'id': 'seaweed', 'src': '/static/foodstim60/seaweed.jpg', 'key': 'i', 'origWidth': 410, 'origHeight': 410, 'width': 410, 'height': 410, 'widthPercent': 0.45, 'rescaleHeight': False, 'trialN': 52, 'loaded': True, 'loadedTime': 4266.70000000298, 'positionName': 'RIGHT', 'positionCoords': [710.32, 179], 'bid': 2.29}]",95970.29999999702,1669836102756,cantaloupe,seaweed,1.28,2.29,1.01,seaweed,819.9000000059605,820,820.3000000119209,True,i,97311.79999999702,1341.5,1669836104097,1341,HRV,HRV_0237,2022-11-30 19:25:25
53,"[{'imgObject': {}, 'id': 'eggsalad', 'src': '/static/foodstim60/eggsalad.jpg', 'key': 'u', 'origWidth': 410, 'origHeight': 409, 'width': 410, 'height': 409, 'widthPercent': 0.45, 'rescaleHeight': False, 'trialN': 53, 'loaded': True, 'loadedTime': 4050.9000000059605, 'positionName': 'LEFT', 'positionCoords': [245.68, 179.5], 'bid': 3.97}, {'imgObject': {}, 'id': 'edamame', 'src': '/static/foodstim60/edamame.jpg', 'key': 'i', 'origWidth': 409, 'origHeight': 410, 'width': 409, 'height': 410, 'widthPercent': 0.45, 'rescaleHeight': False, 'trialN': 53, 'loaded': True, 'loadedTime': 4072, 'positionName': 'RIGHT', 'positionCoords': [710.32, 179], 'bid': 1.01}]",97312.0,1669836104097,eggsalad,edamame,3.97,1.01,-2.96,eggsalad,824.0,825,824.4000000059605,True,u,98646.60000000894,1334.6000000089407,1669836105432,1335,HRV,HRV_0237,2022-11-30 19:25:25
54,"[{'imgObject': {}, 'id': 'mango', 'src': '/static/foodstim60/mango.jpg', 'key': 'u', 'origWidth': 411, 'origHeight': 411, 'width': 411, 'height': 411, 'widthPercent': 0.45, 'rescaleHeight': False, 'trialN': 54, 'loaded': True, 'loadedTime': 4321.9000000059605, 'positionName': 'LEFT', 'positionCoords': [244.68, 178.5], 'bid': 3.14}, {'imgObject': {}, 'id': 'baked potato', 'src': '/static/foodstim60/baked potato.jpg', 'key': 'i', 'origWidth': 409, 'origHeight': 410, 'width': 409, 'height': 410, 'widthPercent': 0.45, 'rescaleHeight': False, 'trialN': 54, 'loaded': True, 'loadedTime': 4244, 'positionName': 'RIGHT', 'positionCoords': [710.32, 179], 'bid': 4.09}]",98647.0,1669836105432,mango,baked potato,3.14,4.09,0.9499999999999997,baked potato,1390.9000000059605,1392,1391.4000000059605,True,i,100552.0,1905.0,1669836107337,1905,HRV,HRV_0237,2022-11-30 19:25:25
55,"[{'imgObject': {}, 'id': 'cheerios', 'src': '/static/foodstim60/cheerios.jpg', 'key': 'u', 'origWidth': 409, 'origHeight': 410, 'width': 409, 'height': 410, 'widthPercent': 0.45, 'rescaleHeight': False, 'trialN': 55, 'loaded': True, 'loadedTime': 4232.4000000059605, 'positionName': 'LEFT', 'positionCoords': [246.68, 179], 'bid': 4.98}, {'imgObject': {}, 'id': 'pear', 'src': '/static/foodstim60/pear.jpg', 'key': 'i', 'origWidth': 411, 'origHeight': 410, 'width': 411, 'height': 410, 'widthPercent': 0.45, 'rescaleHeight': False, 'trialN': 55, 'loaded': True, 'loadedTime': 3870.6000000089407, 'positionName': 'RIGHT', 'positionCoords': [710.32, 179], 'bid': 6.0200000000000005}]",100552.40000000596,1669836107338,cheerios,pear,4.98,6.0200000000000005,1.04,cheerios,1136.5999999940395,1137,1137.0999999940395,True,u,102202.60000000894,1650.2000000029802,1669836108988,1650,HRV,HRV_0237,2022-11-30 19:25:25
56,"[{'imgObject': {}, 'id': 'roastedpotatoes', 'src': '/static/foodstim60/roastedpotatoes.jpg', 'key': 'u', 'origWidth': 409, 'origHeight': 410, 'width': 409, 'height': 410, 'widthPercent': 0.45, 'rescaleHeight': False, 'trialN': 56, 'loaded': True, 'loadedTime': 4217.100000008941, 'positionName': 'LEFT', 'positionCoords': [246.68, 179], 'bid': 1.12}, {'imgObject': {}, 'id': 'lox', 'src': '/static/foodstim60/lox.jpg', 'key': 'i', 'origWidth': 410, 'origHeight': 411, 'width': 410, 'height': 411, 'widthPercent': 0.45, 'rescaleHeight': False, 'trialN': 56, 'loaded': True, 'loadedTime': 4258.5, 'positionName': 'RIGHT', 'positionCoords': [710.32, 178.5], 'bid': 1.09}]",102202.79999999702,1669836108988,roastedpotatoes,lox,1.12,1.09,-0.030000000000000027,lox,1337.0,1337,1337.300000011921,True,i,104051.60000000894,1848.800000011921,1669836110837,1849,HRV,HRV_0237,2022-11-30 19:25:25
57,"[{'imgObject': {}, 'id': 'bagel plain', 'src': '/static/foodstim60/bagel plain.jpg', 'key': 'u', 'origWidth': 410, 'origHeight': 410, 'width': 410, 'height': 410, 'widthPercent': 0.45, 'rescaleHeight': False, 'trialN': 57, 'loaded': True, 'loadedTime': 4030.2999999970198, 'positionName': 'LEFT', 'positionCoords': [245.68, 179], 'bid': 0.1}, {'imgObject': {}, 'id': 'cantaloupe', 'src': '/static/foodstim60/cantaloupe.jpg', 'key': 'i', 'origWidth': 409, 'origHeight': 409, 'width': 409, 'height': 409, 'widthPercent': 0.45, 'rescaleHeight': False, 'trialN': 57, 'loaded': True, 'loadedTime': 4309.5, 'positionName': 'RIGHT', 'positionCoords': [710.32, 179.5], 'bid': 1.28}]",104051.70000000298,1669836110837,bagel plain,cantaloupe,0.1,1.28,1.18,cantaloupe,2425.0999999940395,2425,2425.4000000059605,True,i,106995.79999999702,2944.0999999940395,1669836113781,2944,HRV,HRV_0237,2022-11-30 19:25:25
58,"[{'imgObject': {}, 'id': 'veggieswithdip', 'src': '/static/foodstim60/veggieswithdip.jpg', 'key': 'u', 'origWidth': 409, 'origHeight': 409, 'width': 409, 'height': 409, 'widthPercent': 0.45, 'rescaleHeight': False, 'trialN': 58, 'loaded': True, 'loadedTime': 4163.600000008941, 'positionName': 'LEFT', 'positionCoords': [246.68, 179.5], 'bid': 2.34}, {'imgObject': {}, 'id': 'rigatoni', 'src': '/static/foodstim60/rigatoni.jpg', 'key': 'i', 'origWidth': 411, 'origHeight': 411, 'width': 411, 'height': 411, 'widthPercent': 0.45, 'rescaleHeight': False, 'trialN': 58, 'loaded': True, 'loadedTime': 4020.6000000089407, 'positionName': 'RIGHT', 'positionCoords': [710.32, 178.5], 'bid': 0.03}]",106996.0,1669836113781,veggieswithdip,rigatoni,2.34,0.03,-2.31,rigatoni,1032.7000000029802,1033,1033.0,True,i,108536.29999999702,1540.2999999970198,1669836115321,1540,HRV,HRV_0237,2022-11-30 19:25:25
59,"[{'imgObject': {}, 'id': 'cherry tomato', 'src': '/static/foodstim60/cherry tomato.jpg', 'key': 'u', 'origWidth': 410, 'origHeight': 410, 'width': 410, 'height': 410, 'widthPercent': 0.45, 'rescaleHeight': False, 'trialN': 59, 'loaded': True, 'loadedTime': 3909.2999999970198, 'positionName': 'LEFT', 'positionCoords': [245.68, 179], 'bid': 6.8500000000000005}, {'imgObject': {}, 'id': 'cherries', 'src': '/static/foodstim60/cherries.jpg', 'key': 'i', 'origWidth': 410, 'origHeight': 411, 'width': 410, 'height': 411, 'widthPercent': 0.45, 'rescaleHeight': False, 'trialN': 59, 'loaded': True, 'loadedTime': 4039, 'positionName': 'RIGHT', 'positionCoords': [710.32, 178.5], 'bid': 8.63}]",108536.60000000894,1669836115322,cherry tomato,cherries,6.8500000000000005,8.63,1.7800000000000002,cherry tomato,2472.0,2472,2472.3999999910593,True,u,111525.60000000894,2989.0,1669836118311,2989,HRV,HRV_0237,2022-11-30 19:25:25
60,"[{'imgObject': {}, 'id': 'luckycharms', 'src': '/static/foodstim60/luckycharms.jpg', 'key': 'u', 'origWidth': 410, 'origHeight': 409, 'width': 410, 'height': 409, 'widthPercent': 0.45, 'rescaleHeight': False, 'trialN': 60, 'loaded': True, 'loadedTime': 4324.79999999702, 'positionName': 'LEFT', 'positionCoords': [245.68, 179.5], 'bid': 4.98}, {'imgObject': {}, 'id': 'chicken nuggets2', 'src': '/static/foodstim60/chicken nuggets2.jpg', 'key': 'i', 'origWidth': 410, 'origHeight': 409, 'width': 410, 'height': 409, 'widthPercent': 0.45, 'rescaleHeight': False, 'trialN': 60, 'loaded': True, 'loadedTime': 4259.29999999702, 'positionName': 'RIGHT', 'positionCoords': [710.32, 179.5], 'bid': 5}]",111525.79999999702,1669836118311,luckycharms,chicken nuggets2,4.98,5.0,0.019999999999999574,luckycharms,1282.800000011921,1283,1283.2000000029802,True,u,113323.10000000894,1797.300000011921,1669836120117,1806,HRV,HRV_0237,2022-11-30 19:25:25
61,"[{'imgObject': {}, 'id': 'avocado', 'src': '/static/foodstim60/avocado.jpg', 'key': 'u', 'origWidth': 409, 'origHeight': 409, 'width': 409, 'height': 409, 'widthPercent': 0.45, 'rescaleHeight': False, 'trialN': 61, 'loaded': True, 'loadedTime': 4332.9000000059605, 'positionName': 'LEFT', 'positionCoords': [246.68, 179.5], 'bid': 0.16}, {'imgObject': {}, 'id': 'edamame', 'src': '/static/foodstim60/edamame.jpg', 'key': 'i', 'origWidth': 409, 'origHeight': 410, 'width': 409, 'height': 410, 'widthPercent': 0.45, 'rescaleHeight': False, 'trialN': 61, 'loaded': True, 'loadedTime': 4070.7000000029802, 'positionName': 'RIGHT', 'positionCoords': [710.32, 179], 'bid': 1.01}]",113323.29999999702,1669836120117,avocado,edamame,0.16,1.01,0.85,edamame,1726.1000000089407,1727,1726.6000000089407,True,i,115559.90000000596,2236.6000000089407,1669836122354,2237,HRV,HRV_0237,2022-11-30 19:25:25
62,"[{'imgObject': {}, 'id': 'salad w chicken', 'src': '/static/foodstim60/salad w chicken.jpg', 'key': 'u', 'origWidth': 411, 'origHeight': 411, 'width': 411, 'height': 411, 'widthPercent': 0.45, 'rescaleHeight': False, 'trialN': 62, 'loaded': True, 'loadedTime': 4044, 'positionName': 'LEFT', 'positionCoords': [244.68, 178.5], 'bid': 8.89}, {'imgObject': {}, 'id': 'banana', 'src': '/static/foodstim60/banana.jpg', 'key': 'i', 'origWidth': 410, 'origHeight': 410, 'width': 410, 'height': 410, 'widthPercent': 0.45, 'rescaleHeight': False, 'trialN': 62, 'loaded': True, 'loadedTime': 4113.600000008941, 'positionName': 'RIGHT', 'positionCoords': [710.32, 179], 'bid': 9.93}]",115560.20000000298,1669836122354,salad w chicken,banana,8.89,9.93,1.0399999999999991,salad w chicken,967.9000000059605,968,968.4000000059605,True,u,117032.20000000298,1472.0,1669836123826,1472,HRV,HRV_0237,2022-11-30 19:25:25
63,"[{'imgObject': {}, 'id': 'salmon', 'src': '/static/foodstim60/salmon.jpg', 'key': 'u', 'origWidth': 410, 'origHeight': 409, 'width': 410, 'height': 409, 'widthPercent': 0.45, 'rescaleHeight': False, 'trialN': 63, 'loaded': True, 'loadedTime': 4190.600000008941, 'positionName': 'LEFT', 'positionCoords': [245.68, 179.5], 'bid': 6.17}, {'imgObject': {}, 'id': 'orange slices', 'src': '/static/foodstim60/orange slices.jpg', 'key': 'i', 'origWidth': 409, 'origHeight': 410, 'width': 409, 'height': 410, 'widthPercent': 0.45, 'rescaleHeight': False, 'trialN': 63, 'loaded': True, 'loadedTime': 4309.100000008941, 'positionName': 'RIGHT', 'positionCoords': [710.32, 179], 'bid': 8.46}]",117032.29999999702,1669836123826,salmon,orange slices,6.17,8.46,2.290000000000001,salmon,980.7000000029802,981,981.1000000089407,True,u,118529.5,1497.2000000029802,1669836125324,1498,HRV,HRV_0237,2022-11-30 19:25:25
64,"[{'imgObject': {}, 'id': 'tacos', 'src': '/static/foodstim60/tacos.jpg', 'key': 'u', 'origWidth': 411, 'origHeight': 411, 'width': 411, 'height': 411, 'widthPercent': 0.45, 'rescaleHeight': False, 'trialN': 64, 'loaded': True, 'loadedTime': 3936, 'positionName': 'LEFT', 'positionCoords': [244.68, 178.5], 'bid': 7.76}, {'imgObject': {}, 'id': 'mashed potato', 'src': '/static/foodstim60/mashed potato.jpg', 'key': 'i', 'origWidth': 409, 'origHeight': 409, 'width': 409, 'height': 409, 'widthPercent': 0.45, 'rescaleHeight': False, 'trialN': 64, 'loaded': True, 'loadedTime': 4337, 'positionName': 'RIGHT', 'positionCoords': [710.32, 179.5], 'bid': 6.62}]",118529.79999999702,1669836125324,tacos,mashed potato,7.76,6.62,-1.1399999999999997,tacos,1832.800000011921,1833,1833.2000000029802,True,u,120882.5,2352.7000000029802,1669836127677,2353,HRV,HRV_0237,2022-11-30 19:25:25
65,"[{'imgObject': {}, 'id': 'strawberries', 'src': '/static/foodstim60/strawberries.jpg', 'key': 'u', 'origWidth': 410, 'origHeight': 410, 'width': 410, 'height': 410, 'widthPercent': 0.45, 'rescaleHeight': False, 'trialN': 65, 'loaded': True, 'loadedTime': 3991.9000000059605, 'positionName': 'LEFT', 'positionCoords': [245.68, 179], 'bid': 8.3}, {'imgObject': {}, 'id': 'rigatoni and sauce', 'src': '/static/foodstim60/rigatoni and sauce.jpg', 'key': 'i', 'origWidth': 410, 'origHeight': 411, 'width': 410, 'height': 411, 'widthPercent': 0.45, 'rescaleHeight': False, 'trialN': 65, 'loaded': True, 'loadedTime': 4075.2000000029802, 'positionName': 'RIGHT', 'positionCoords': [710.32, 178.5], 'bid': 8.36}]",120882.79999999702,1669836127677,strawberries,rigatoni and sauce,8.3,8.36,0.05999999999999872,strawberries,1108.800000011921,1109,1109.2000000029802,True,u,122502.60000000894,1619.800000011921,1669836129297,1620,HRV,HRV_0237,2022-11-30 19:25:25
66,"[{'imgObject': {}, 'id': 'hotdog w must', 'src': '/static/foodstim60/hotdog w must.jpg', 'key': 'u', 'origWidth': 409, 'origHeight': 409, 'width': 409, 'height': 409, 'widthPercent': 0.45, 'rescaleHeight': False, 'trialN': 66, 'loaded': True, 'loadedTime': 4181.29999999702, 'positionName': 'LEFT', 'positionCoords': [246.68, 179.5], 'bid': 1.28}, {'imgObject': {}, 'id': 'eggs', 'src': '/static/foodstim60/eggs.jpg', 'key': 'i', 'origWidth': 409, 'origHeight': 409, 'width': 409, 'height': 409, 'widthPercent': 0.45, 'rescaleHeight': False, 'trialN': 66, 'loaded': True, 'loadedTime': 4246.70000000298, 'positionName': 'RIGHT', 'positionCoords': [710.32, 179.5], 'bid': 1.09}]",122502.79999999702,1669836129297,hotdog w must,eggs,1.28,1.09,-0.18999999999999995,eggs,1799.9000000059605,1800,1800.300000011921,True,i,124808.90000000596,2306.1000000089407,1669836131603,2306,HRV,HRV_0237,2022-11-30 19:25:25
67,"[{'imgObject': {}, 'id': 'lox', 'src': '/static/foodstim60/lox.jpg', 'key': 'u', 'origWidth': 410, 'origHeight': 411, 'width': 410, 'height': 411, 'widthPercent': 0.45, 'rescaleHeight': False, 'trialN': 67, 'loaded': True, 'loadedTime': 4256.4000000059605, 'positionName': 'LEFT', 'positionCoords': [245.68, 178.5], 'bid': 1.09}, {'imgObject': {}, 'id': 'bagel plain', 'src': '/static/foodstim60/bagel plain.jpg', 'key': 'i', 'origWidth': 410, 'origHeight': 410, 'width': 410, 'height': 410, 'widthPercent': 0.45, 'rescaleHeight': False, 'trialN': 67, 'loaded': True, 'loadedTime': 4031, 'positionName': 'RIGHT', 'positionCoords': [710.32, 179], 'bid': 0.1}]",124809.10000000894,1669836131603,lox,bagel plain,1.09,0.1,-0.9900000000000001,lox,1234.0,1235,1234.3999999910593,True,u,126551.60000000894,1742.5,1669836133346,1743,HRV,HRV_0237,2022-11-30 19:25:25
68,"[{'imgObject': {}, 'id': 'mashed potato', 'src': '/static/foodstim60/mashed potato.jpg', 'key': 'u', 'origWidth': 409, 'origHeight': 409, 'width': 409, 'height': 409, 'widthPercent': 0.45, 'rescaleHeight': False, 'trialN': 68, 'loaded': True, 'loadedTime': 4336.29999999702, 'positionName': 'LEFT', 'positionCoords': [246.68, 179.5], 'bid': 6.62}, {'imgObject': {}, 'id': 'corn cob', 'src': '/static/foodstim60/corn cob.jpg', 'key': 'i', 'origWidth': 411, 'origHeight': 411, 'width': 411, 'height': 411, 'widthPercent': 0.45, 'rescaleHeight': False, 'trialN': 68, 'loaded': True, 'loadedTime': 4194.29999999702, 'positionName': 'RIGHT', 'positionCoords': [710.32, 178.5], 'bid': 6.8}]",126551.79999999702,1669836133346,mashed potato,corn cob,6.62,6.8,0.17999999999999972,mashed potato,1251.9000000059605,1252,1252.300000011921,True,u,128318.79999999702,1767.0,1669836135113,1767,HRV,HRV_0237,2022-11-30 19:25:25
69,"[{'imgObject': {}, 'id': 'blackbeanswithrice', 'src': '/static/foodstim60/blackbeanswithrice.jpg', 'key': 'u', 'origWidth': 410, 'origHeight': 410, 'width': 410, 'height': 410, 'widthPercent': 0.45, 'rescaleHeight': False, 'trialN': 69, 'loaded': True, 'loadedTime': 4143.100000008941, 'positionName': 'LEFT', 'positionCoords': [245.68, 179], 'bid': 1.82}, {'imgObject': {}, 'id': 'apple slices', 'src': '/static/foodstim60/apple slices.jpg', 'key': 'i', 'origWidth': 409, 'origHeight': 410, 'width': 409, 'height': 410, 'widthPercent': 0.45, 'rescaleHeight': False, 'trialN': 69, 'loaded': True, 'loadedTime': 4227.79999999702, 'positionName': 'RIGHT', 'positionCoords': [710.32, 179], 'bid': 7.56}]",128318.90000000596,1669836135113,blackbeanswithrice,apple slices,1.82,7.56,5.739999999999999,apple slices,1153.5999999940395,1154,1154.0,True,i,129975.40000000596,1656.5,1669836136769,1656,HRV,HRV_0237,2022-11-30 19:25:25
70,"[{'imgObject': {}, 'id': 'cherries', 'src': '/static/foodstim60/cherries.jpg', 'key': 'u', 'origWidth': 410, 'origHeight': 411, 'width': 410, 'height': 411, 'widthPercent': 0.45, 'rescaleHeight': False, 'trialN': 70, 'loaded': True, 'loadedTime': 4039.4000000059605, 'positionName': 'LEFT', 'positionCoords': [245.68, 178.5], 'bid': 8.63}, {'imgObject': {}, 'id': 'olives', 'src': '/static/foodstim60/olives.jpg', 'key': 'i', 'origWidth': 410, 'origHeight': 410, 'width': 410, 'height': 410, 'widthPercent': 0.45, 'rescaleHeight': False, 'trialN': 70, 'loaded': True, 'loadedTime': 4121.5, 'positionName': 'RIGHT', 'positionCoords': [710.32, 179], 'bid': 9.9}]",129975.79999999702,1669836136770,cherries,olives,8.63,9.9,1.2699999999999996,olives,892.8000000119209,893,893.1000000089407,True,i,131378.90000000596,1403.1000000089407,1669836138173,1403,HRV,HRV_0237,2022-11-30 19:25:25
71,"[{'imgObject': {}, 'id': 'olives', 'src': '/static/foodstim60/olives.jpg', 'key': 'u', 'origWidth': 410, 'origHeight': 410, 'width': 410, 'height': 410, 'widthPercent': 0.45, 'rescaleHeight': False, 'trialN': 71, 'loaded': True, 'loadedTime': 4122.29999999702, 'positionName': 'LEFT', 'positionCoords': [245.68, 179], 'bid': 9.9}, {'imgObject': {}, 'id': 'banana', 'src': '/static/foodstim60/banana.jpg', 'key': 'i', 'origWidth': 410, 'origHeight': 410, 'width': 410, 'height': 410, 'widthPercent': 0.45, 'rescaleHeight': False, 'trialN': 71, 'loaded': True, 'loadedTime': 4114.600000008941, 'positionName': 'RIGHT', 'positionCoords': [710.32, 179], 'bid': 9.93}]",131379.20000000298,1669836138173,olives,banana,9.9,9.93,0.02999999999999936,olives,691.5999999940395,692,692.0,True,u,132581.90000000596,1202.7000000029802,1669836139376,1203,HRV,HRV_0237,2022-11-30 19:25:25
72,"[{'imgObject': {}, 'id': 'banana', 'src': '/static/foodstim60/banana.jpg', 'key': 'u', 'origWidth': 410, 'origHeight': 410, 'width': 410, 'height': 410, 'widthPercent': 0.45, 'rescaleHeight': False, 'trialN': 72, 'loaded': True, 'loadedTime': 4111.79999999702, 'positionName': 'LEFT', 'positionCoords': [245.68, 179], 'bid': 9.93}, {'imgObject': {}, 'id': 'Grapes', 'src': '/static/foodstim60/Grapes.jpg', 'key': 'i', 'origWidth': 411, 'origHeight': 411, 'width': 411, 'height': 411, 'widthPercent': 0.45, 'rescaleHeight': False, 'trialN': 72, 'loaded': True, 'loadedTime': 4126.20000000298, 'positionName': 'RIGHT', 'positionCoords': [710.32, 178.5], 'bid': 7.67}]",132582.10000000894,1669836139376,banana,Grapes,9.93,7.67,-2.26,banana,1206.699999988079,1207,1207.0999999940395,True,u,134301.90000000596,1719.7999999970198,1669836141096,1720,HRV,HRV_0237,2022-11-30 19:25:25
73,"[{'imgObject': {}, 'id': 'Grapes', 'src': '/static/foodstim60/Grapes.jpg', 'key': 'u', 'origWidth': 411, 'origHeight': 411, 'width': 411, 'height': 411, 'widthPercent': 0.45, 'rescaleHeight': False, 'trialN': 73, 'loaded': True, 'loadedTime': 4122.79999999702, 'positionName': 'LEFT', 'positionCoords': [244.68, 178.5], 'bid': 7.67}, {'imgObject': {}, 'id': 'seaweed', 'src': '/static/foodstim60/seaweed.jpg', 'key': 'i', 'origWidth': 410, 'origHeight': 410, 'width': 410, 'height': 410, 'widthPercent': 0.45, 'rescaleHeight': False, 'trialN': 73, 'loaded': True, 'loadedTime': 4266.5, 'positionName': 'RIGHT', 'positionCoords': [710.32, 179], 'bid': 2.29}]",134302.0,1669836141096,Grapes,seaweed,7.67,2.29,-5.38,Grapes,1545.1000000089407,1545,1545.2999999970198,True,u,136353.90000000596,2051.9000000059605,1669836143148,2052,HRV,HRV_0237,2022-11-30 19:25:25
74,"[{'imgObject': {}, 'id': 'fried eggs', 'src': '/static/foodstim60/fried eggs.jpg', 'key': 'u', 'origWidth': 410, 'origHeight': 410, 'width': 410, 'height': 410, 'widthPercent': 0.45, 'rescaleHeight': False, 'trialN': 74, 'loaded': True, 'loadedTime': 4306.100000008941, 'positionName': 'LEFT', 'positionCoords': [245.68, 179], 'bid': 3.11}, {'imgObject': {}, 'id': 'Tribe humus pita', 'src': '/static/foodstim60/Tribe humus pita.jpg', 'key': 'i', 'origWidth': 411, 'origHeight': 411, 'width': 411, 'height': 411, 'widthPercent': 0.45, 'rescaleHeight': False, 'trialN': 74, 'loaded': True, 'loadedTime': 4285.100000008941, 'positionName': 'RIGHT', 'positionCoords': [710.32, 178.5], 'bid': 2.52}]",136354.40000000596,1669836143148,fried eggs,Tribe humus pita,3.11,2.52,-0.5899999999999999,Tribe humus pita,1783.2999999970198,1784,1783.7000000029802,True,i,138644.5,2290.0999999940395,1669836145438,2290,HRV,HRV_0237,2022-11-30 19:25:25
75,"[{'imgObject': {}, 'id': 'raspberries', 'src': '/static/foodstim60/raspberries.jpg', 'key': 'u', 'origWidth': 411, 'origHeight': 411, 'width': 411, 'height': 411, 'widthPercent': 0.45, 'rescaleHeight': False, 'trialN': 75, 'loaded': True, 'loadedTime': 3992.2000000029802, 'positionName': 'LEFT', 'positionCoords': [244.68, 178.5], 'bid': 9.84}, {'imgObject': {}, 'id': 'salad w chicken', 'src': '/static/foodstim60/salad w chicken.jpg', 'key': 'i', 'origWidth': 411, 'origHeight': 411, 'width': 411, 'height': 411, 'widthPercent': 0.45, 'rescaleHeight': False, 'trialN': 75, 'loaded': True, 'loadedTime': 4040.5, 'positionName': 'RIGHT', 'positionCoords': [710.32, 178.5], 'bid': 8.89}]",138644.79999999702,1669836145439,raspberries,salad w chicken,9.84,8.89,-0.9499999999999993,salad w chicken,827.8000000119209,828,828.3000000119209,True,i,139985.90000000596,1341.1000000089407,1669836146780,1341,HRV,HRV_0237,2022-11-30 19:25:25
76,"[{'imgObject': {}, 'id': 'seaweed', 'src': '/static/foodstim60/seaweed.jpg', 'key': 'u', 'origWidth': 410, 'origHeight': 410, 'width': 410, 'height': 410, 'widthPercent': 0.45, 'rescaleHeight': False, 'trialN': 76, 'loaded': True, 'loadedTime': 4266.4000000059605, 'positionName': 'LEFT', 'positionCoords': [245.68, 179], 'bid': 2.29}, {'imgObject': {}, 'id': 'turkey sandwich', 'src': '/static/foodstim60/turkey sandwich.jpg', 'key': 'i', 'origWidth': 409, 'origHeight': 409, 'width': 409, 'height': 409, 'widthPercent': 0.45, 'rescaleHeight': False, 'trialN': 76, 'loaded': True, 'loadedTime': 4101.79999999702, 'positionName': 'RIGHT', 'positionCoords': [710.32, 179.5], 'bid': 5.04}]",139986.10000000894,1669836146780,seaweed,turkey sandwich,2.29,5.04,2.75,turkey sandwich,1334.3999999910593,1335,1334.8999999910593,True,i,141825.70000000298,1839.5999999940395,1669836148620,1840,HRV,HRV_0237,2022-11-30 19:25:25
77,"[{'imgObject': {}, 'id': 'apple slices', 'src': '/static/foodstim60/apple slices.jpg', 'key': 'u', 'origWidth': 409, 'origHeight': 410, 'width': 409, 'height': 410, 'widthPercent': 0.45, 'rescaleHeight': False, 'trialN': 77, 'loaded': True, 'loadedTime': 4227.9000000059605, 'positionName': 'LEFT', 'positionCoords': [246.68, 179], 'bid': 7.56}, {'imgObject': {}, 'id': 'salad w chicken', 'src': '/static/foodstim60/salad w chicken.jpg', 'key': 'i', 'origWidth': 411, 'origHeight': 411, 'width': 411, 'height': 411, 'widthPercent': 0.45, 'rescaleHeight': False, 'trialN': 77, 'loaded': True, 'loadedTime': 4043.2000000029802, 'positionName': 'RIGHT', 'positionCoords': [710.32, 178.5], 'bid': 8.89}]",141825.90000000596,1669836148620,apple slices,salad w chicken,7.56,8.89,1.330000000000001,salad w chicken,993.2999999970198,994,993.7000000029802,True,i,143329.90000000596,1504.0,1669836150124,1504,HRV,HRV_0237,2022-11-30 19:25:25
78,"[{'imgObject': {}, 'id': 'salad w chicken', 'src': '/static/foodstim60/salad w chicken.jpg', 'key': 'u', 'origWidth': 411, 'origHeight': 411, 'width': 411, 'height': 411, 'widthPercent': 0.45, 'rescaleHeight': False, 'trialN': 78, 'loaded': True, 'loadedTime': 4044.7000000029802, 'positionName': 'LEFT', 'positionCoords': [244.68, 178.5], 'bid': 8.89}, {'imgObject': {}, 'id': 'cheerios', 'src': '/static/foodstim60/cheerios.jpg', 'key': 'i', 'origWidth': 409, 'origHeight': 410, 'width': 409, 'height': 410, 'widthPercent': 0.45, 'rescaleHeight': False, 'trialN': 78, 'loaded': True, 'loadedTime': 4235.4000000059605, 'positionName': 'RIGHT', 'positionCoords': [710.32, 179], 'bid': 4.98}]",143330.20000000298,1669836150124,salad w chicken,cheerios,8.89,4.98,-3.91,salad w chicken,619.7000000029802,620,619.9000000059605,True,u,144470.20000000298,1140.0,1669836151264,1140,HRV,HRV_0237,2022-11-30 19:25:25
79,"[{'imgObject': {}, 'id': 'corn cob', 'src': '/static/foodstim60/corn cob.jpg', 'key': 'u', 'origWidth': 411, 'origHeight': 411, 'width': 411, 'height': 411, 'widthPercent': 0.45, 'rescaleHeight': False, 'trialN': 79, 'loaded': True, 'loadedTime': 4194.79999999702, 'positionName': 'LEFT', 'positionCoords': [244.68, 178.5], 'bid': 6.8}, {'imgObject': {}, 'id': 'yogurt no spoon', 'src': '/static/foodstim60/yogurt no spoon.jpg', 'key': 'i', 'origWidth': 411, 'origHeight': 410, 'width': 411, 'height': 410, 'widthPercent': 0.45, 'rescaleHeight': False, 'trialN': 79, 'loaded': True, 'loadedTime': 4289.79999999702, 'positionName': 'RIGHT', 'positionCoords': [710.32, 179], 'bid': 8.13}]",144470.40000000596,1669836151264,corn cob,yogurt no spoon,6.8,8.13,1.330000000000001,yogurt no spoon,1379.0,1380,1379.3999999910593,True,i,146359.5,1889.0999999940395,1669836153154,1890,HRV,HRV_0237,2022-11-30 19:25:25
80,"[{'imgObject': {}, 'id': 'mashed potato', 'src': '/static/foodstim60/mashed potato.jpg', 'key': 'u', 'origWidth': 409, 'origHeight': 409, 'width': 409, 'height': 409, 'widthPercent': 0.45, 'rescaleHeight': False, 'trialN': 80, 'loaded': True, 'loadedTime': 4337.4000000059605, 'positionName': 'LEFT', 'positionCoords': [246.68, 179.5], 'bid': 6.62}, {'imgObject': {}, 'id': 'roastedpotatoes', 'src': '/static/foodstim60/roastedpotatoes.jpg', 'key': 'i', 'origWidth': 409, 'origHeight': 410, 'width': 409, 'height': 410, 'widthPercent': 0.45, 'rescaleHeight': False, 'trialN': 80, 'loaded': True, 'loadedTime': 4224.79999999702, 'positionName': 'RIGHT', 'positionCoords': [710.32, 179], 'bid': 1.12}]",146359.79999999702,1669836153154,mashed potato,roastedpotatoes,6.62,1.12,-5.5,mashed potato,1070.7000000029802,1071,1071.300000011921,True,u,147941.90000000596,1582.1000000089407,1669836154736,1582,HRV,HRV_0237,2022-11-30 19:25:25
81,"[{'imgObject': {}, 'id': 'burger', 'src': '/static/foodstim60/burger.jpg', 'key': 'u', 'origWidth': 409, 'origHeight': 409, 'width': 409, 'height': 409, 'widthPercent': 0.45, 'rescaleHeight': False, 'trialN': 81, 'loaded': True, 'loadedTime': 3978.9000000059605, 'positionName': 'LEFT', 'positionCoords': [246.68, 179.5], 'bid': 6.36}, {'imgObject': {}, 'id': 'raisin bran w milk', 'src': '/static/foodstim60/raisin bran w milk.jpg', 'key': 'i', 'origWidth': 411, 'origHeight': 411, 'width': 411, 'height': 411, 'widthPercent': 0.45, 'rescaleHeight': False, 'trialN': 81, 'loaded': True, 'loadedTime': 3950.5, 'positionName': 'RIGHT', 'positionCoords': [710.32, 178.5], 'bid': 5.0200000000000005}]",147942.20000000298,1669836154736,burger,raisin bran w milk,6.36,5.0200000000000005,-1.3399999999999999,burger,887.2999999970198,888,887.7000000029802,True,u,149346.10000000894,1403.9000000059605,1669836156140,1404,HRV,HRV_0237,2022-11-30 19:25:25
82,"[{'imgObject': {}, 'id': 'turkey sandwich', 'src': '/static/foodstim60/turkey sandwich.jpg', 'key': 'u', 'origWidth': 409, 'origHeight': 409, 'width': 409, 'height': 409, 'widthPercent': 0.45, 'rescaleHeight': False, 'trialN': 82, 'loaded': True, 'loadedTime': 4102.20000000298, 'positionName': 'LEFT', 'positionCoords': [246.68, 179.5], 'bid': 5.04}, {'imgObject': {}, 'id': 'salmon', 'src': '/static/foodstim60/salmon.jpg', 'key': 'i', 'origWidth': 410, 'origHeight': 409, 'width': 410, 'height': 409, 'widthPercent': 0.45, 'rescaleHeight': False, 'trialN': 82, 'loaded': True, 'loadedTime': 4190.29999999702, 'positionName': 'RIGHT', 'positionCoords': [710.32, 179.5], 'bid': 6.17}]",149346.40000000596,1669836156140,turkey sandwich,salmon,5.04,6.17,1.13,turkey sandwich,1481.7000000029802,1483,1482.2000000029802,True,u,151336.0,1989.5999999940395,1669836158130,1990,HRV,HRV_0237,2022-11-30 19:25:25
83,"[{'imgObject': {}, 'id': 'edamame', 'src': '/static/foodstim60/edamame.jpg', 'key': 'u', 'origWidth': 409, 'origHeight': 410, 'width': 409, 'height': 410, 'widthPercent': 0.45, 'rescaleHeight': False, 'trialN': 83, 'loaded': True, 'loadedTime': 4063.5, 'positionName': 'LEFT', 'positionCoords': [246.68, 179], 'bid': 1.01}, {'imgObject': {}, 'id': 'rigatoni', 'src': '/static/foodstim60/rigatoni.jpg', 'key': 'i', 'origWidth': 411, 'origHeight': 411, 'width': 411, 'height': 411, 'widthPercent': 0.45, 'rescaleHeight': False, 'trialN': 83, 'loaded': True, 'loadedTime': 4020.7999999970198, 'positionName': 'RIGHT', 'positionCoords': [710.32, 178.5], 'bid': 0.03}]",151336.29999999702,1669836158130,edamame,rigatoni,1.01,0.03,-0.98,rigatoni,1151.7000000029802,1152,1152.1000000089407,True,i,152993.70000000298,1657.4000000059605,1669836159788,1658,HRV,HRV_0237,2022-11-30 19:25:25
84,"[{'imgObject': {}, 'id': 'orange slices', 'src': '/static/foodstim60/orange slices.jpg', 'key': 'u', 'origWidth': 409, 'origHeight': 410, 'width': 409, 'height': 410, 'widthPercent': 0.45, 'rescaleHeight': False, 'trialN': 84, 'loaded': True, 'loadedTime': 4306.4000000059605, 'positionName': 'LEFT', 'positionCoords': [246.68, 179], 'bid': 8.46}, {'imgObject': {}, 'id': 'strawberries', 'src': '/static/foodstim60/strawberries.jpg', 'key': 'i', 'origWidth': 410, 'origHeight': 410, 'width': 410, 'height': 410, 'widthPercent': 0.45, 'rescaleHeight': False, 'trialN': 84, 'loaded': True, 'loadedTime': 3991.6000000089407, 'positionName': 'RIGHT', 'positionCoords': [710.32, 179], 'bid': 8.3}]",152993.90000000596,1669836159788,orange slices,strawberries,8.46,8.3,-0.16000000000000014,strawberries,751.0999999940395,751,751.3999999910593,True,i,154253.5,1259.5999999940395,1669836161047,1259,HRV,HRV_0237,2022-11-30 19:25:25
85,"[{'imgObject': {}, 'id': 'shreddedwheatwithmilk', 'src': '/static/foodstim60/shreddedwheatwithmilk.jpg', 'key': 'u', 'origWidth': 410, 'origHeight': 410, 'width': 410, 'height': 410, 'widthPercent': 0.45, 'rescaleHeight': False, 'trialN': 85, 'loaded': True, 'loadedTime': 4295.5, 'positionName': 'LEFT', 'positionCoords': [245.68, 179], 'bid': 2.39}, {'imgObject': {}, 'id': 'sweetpotato', 'src': '/static/foodstim60/sweetpotato.jpg', 'key': 'i', 'origWidth': 410, 'origHeight': 410, 'width': 410, 'height': 410, 'widthPercent': 0.45, 'rescaleHeight': False, 'trialN': 85, 'loaded': True, 'loadedTime': 4207.5, 'positionName': 'RIGHT', 'positionCoords': [710.32, 179], 'bid': 0.06}]",154253.5,1669836161048,shreddedwheatwithmilk,sweetpotato,2.39,0.06,-2.33,shreddedwheatwithmilk,1271.2999999970198,1271,1271.7999999970198,True,u,156042.0,1788.5,1669836162836,1788,HRV,HRV_0237,2022-11-30 19:25:25
86,"[{'imgObject': {}, 'id': 'lox', 'src': '/static/foodstim60/lox.jpg', 'key': 'u', 'origWidth': 410, 'origHeight': 411, 'width': 410, 'height': 411, 'widthPercent': 0.45, 'rescaleHeight': False, 'trialN': 86, 'loaded': True, 'loadedTime': 4258.600000008941, 'positionName': 'LEFT', 'positionCoords': [245.68, 178.5], 'bid': 1.09}, {'imgObject': {}, 'id': 'popsicles', 'src': '/static/foodstim60/popsicles.jpg', 'key': 'i', 'origWidth': 410, 'origHeight': 410, 'width': 410, 'height': 410, 'widthPercent': 0.45, 'rescaleHeight': False, 'trialN': 86, 'loaded': True, 'loadedTime': 4341.9000000059605, 'positionName': 'RIGHT', 'positionCoords': [710.32, 179], 'bid': 2.73}]",156042.20000000298,1669836162836,lox,popsicles,1.09,2.73,1.64,lox,1310.2999999970198,1311,1310.7999999970198,True,u,157862.20000000298,1820.0,1669836164656,1820,HRV,HRV_0237,2022-11-30 19:25:25
87,"[{'imgObject': {}, 'id': 'salad w chicken', 'src': '/static/foodstim60/salad w chicken.jpg', 'key': 'u', 'origWidth': 411, 'origHeight': 411, 'width': 411, 'height': 411, 'widthPercent': 0.45, 'rescaleHeight': False, 'trialN': 87, 'loaded': True, 'loadedTime': 4045, 'positionName': 'LEFT', 'positionCoords': [244.68, 178.5], 'bid': 8.89}, {'imgObject': {}, 'id': 'blueberries', 'src': '/static/foodstim60/blueberries.jpg', 'key': 'i', 'origWidth': 411, 'origHeight': 411, 'width': 411, 'height': 411, 'widthPercent': 0.45, 'rescaleHeight': False, 'trialN': 87, 'loaded': True, 'loadedTime': 4277, 'positionName': 'RIGHT', 'positionCoords': [710.32, 178.5], 'bid': 6.53}]",157862.5,1669836164657,salad w chicken,blueberries,8.89,6.53,-2.3600000000000003,salad w chicken,768.1000000089407,768,768.5,True,u,159149.60000000894,1287.1000000089407,1669836165944,1287,HRV,HRV_0237,2022-11-30 19:25:25
88,"[{'imgObject': {}, 'id': 'Grapes', 'src': '/static/foodstim60/Grapes.jpg', 'key': 'u', 'origWidth': 411, 'origHeight': 411, 'width': 411, 'height': 411, 'widthPercent': 0.45, 'rescaleHeight': False, 'trialN': 88, 'loaded': True, 'loadedTime': 4125.20000000298, 'positionName': 'LEFT', 'positionCoords': [244.68, 178.5], 'bid': 7.67}, {'imgObject': {}, 'id': 'tacos', 'src': '/static/foodstim60/tacos.jpg', 'key': 'i', 'origWidth': 411, 'origHeight': 411, 'width': 411, 'height': 411, 'widthPercent': 0.45, 'rescaleHeight': False, 'trialN': 88, 'loaded': True, 'loadedTime': 3934.6000000089407, 'positionName': 'RIGHT', 'positionCoords': [710.32, 178.5], 'bid': 7.76}]",159149.90000000596,1669836165944,Grapes,tacos,7.67,7.76,0.08999999999999986,tacos,983.3999999910593,984,983.7999999970198,True,i,160654.0,1504.0999999940395,1669836167448,1504,HRV,HRV_0237,2022-11-30 19:25:25
89,"[{'imgObject': {}, 'id': 'froot loops w milk', 'src': '/static/foodstim60/froot loops w milk.jpg', 'key': 'u', 'origWidth': 410, 'origHeight': 410, 'width': 410, 'height': 410, 'widthPercent': 0.45, 'rescaleHeight': False, 'trialN': 89, 'loaded': True, 'loadedTime': 3977.2999999970198, 'positionName': 'LEFT', 'positionCoords': [245.68, 179], 'bid': 5}, {'imgObject': {}, 'id': 'raspberries', 'src': '/static/foodstim60/raspberries.jpg', 'key': 'i', 'origWidth': 411, 'origHeight': 411, 'width': 411, 'height': 411, 'widthPercent': 0.45, 'rescaleHeight': False, 'trialN': 89, 'loaded': True, 'loadedTime': 3994, 'positionName': 'RIGHT', 'positionCoords': [710.32, 178.5], 'bid': 9.84}]",160654.10000000894,1669836167448,froot loops w milk,raspberries,5.0,9.84,4.84,raspberries,725.7999999970198,726,726.1999999880791,True,i,161888.10000000894,1234.0,1669836168682,1234,HRV,HRV_0237,2022-11-30 19:25:25
90,"[{'imgObject': {}, 'id': 'fruitsalad', 'src': '/static/foodstim60/fruitsalad.jpg', 'key': 'u', 'origWidth': 410, 'origHeight': 410, 'width': 410, 'height': 410, 'widthPercent': 0.45, 'rescaleHeight': False, 'trialN': 90, 'loaded': True, 'loadedTime': 3938.6000000089407, 'positionName': 'LEFT', 'positionCoords': [245.68, 179], 'bid': 9.84}, {'imgObject': {}, 'id': 'olives', 'src': '/static/foodstim60/olives.jpg', 'key': 'i', 'origWidth': 410, 'origHeight': 410, 'width': 410, 'height': 410, 'widthPercent': 0.45, 'rescaleHeight': False, 'trialN': 90, 'loaded': True, 'loadedTime': 4116.5, 'positionName': 'RIGHT', 'positionCoords': [710.32, 179], 'bid': 9.9}]",165853.10000000894,1669836172647,fruitsalad,olives,9.84,9.9,0.0600000000000005,olives,1626.8999999910593,1628,1627.3999999910593,True,i,167997.10000000894,2144.0,1669836174791,2144,HRV,HRV_0237,2022-11-30 19:25:25
91,"[{'imgObject': {}, 'id': 'cocktailshrimp', 'src': '/static/foodstim60/cocktailshrimp.jpg', 'key': 'u', 'origWidth': 410, 'origHeight': 410, 'width': 410, 'height': 410, 'widthPercent': 0.45, 'rescaleHeight': False, 'trialN': 91, 'loaded': True, 'loadedTime': 4059.2999999970198, 'positionName': 'LEFT', 'positionCoords': [245.68, 179], 'bid': 1.06}, {'imgObject': {}, 'id': 'baked potato', 'src': '/static/foodstim60/baked potato.jpg', 'key': 'i', 'origWidth': 409, 'origHeight': 410, 'width': 409, 'height': 410, 'widthPercent': 0.45, 'rescaleHeight': False, 'trialN': 91, 'loaded': True, 'loadedTime': 4243.29999999702, 'positionName': 'RIGHT', 'positionCoords': [710.32, 179], 'bid': 4.09}]",167997.20000000298,1669836174791,cocktailshrimp,baked potato,1.06,4.09,3.03,baked potato,1214.7999999970198,1215,1215.2000000029802,True,i,169734.0,1736.7999999970198,1669836176528,1737,HRV,HRV_0237,2022-11-30 19:25:25
92,"[{'imgObject': {}, 'id': 'hashbrowns', 'src': '/static/foodstim60/hashbrowns.jpg', 'key': 'u', 'origWidth': 411, 'origHeight': 410, 'width': 411, 'height': 410, 'widthPercent': 0.45, 'rescaleHeight': False, 'trialN': 92, 'loaded': True, 'loadedTime': 4231.9000000059605, 'positionName': 'LEFT', 'positionCoords': [244.68, 179], 'bid': 5.04}, {'imgObject': {}, 'id': 'mac & cheese', 'src': '/static/foodstim60/mac & cheese.jpg', 'key': 'i', 'origWidth': 410, 'origHeight': 410, 'width': 410, 'height': 410, 'widthPercent': 0.45, 'rescaleHeight': False, 'trialN': 92, 'loaded': True, 'loadedTime': 4171.79999999702, 'positionName': 'RIGHT', 'positionCoords': [710.32, 179], 'bid': 6.11}]",169734.20000000298,1669836176528,hashbrowns,mac & cheese,5.04,6.11,1.0700000000000003,mac & cheese,966.7999999970198,967,967.2000000029802,True,i,171206.5,1472.2999999970198,1669836178000,1472,HRV,HRV_0237,2022-11-30 19:25:25
93,"[{'imgObject': {}, 'id': 'mango', 'src': '/static/foodstim60/mango.jpg', 'key': 'u', 'origWidth': 411, 'origHeight': 411, 'width': 411, 'height': 411, 'widthPercent': 0.45, 'rescaleHeight': False, 'trialN': 93, 'loaded': True, 'loadedTime': 4321.600000008941, 'positionName': 'LEFT', 'positionCoords': [244.68, 178.5], 'bid': 3.14}, {'imgObject': {}, 'id': 'chickenfingers', 'src': '/static/foodstim60/chickenfingers.jpg', 'key': 'i', 'origWidth': 410, 'origHeight': 410, 'width': 410, 'height': 410, 'widthPercent': 0.45, 'rescaleHeight': False, 'trialN': 93, 'loaded': True, 'loadedTime': 4205.29999999702, 'positionName': 'RIGHT', 'positionCoords': [710.32, 179], 'bid': 5.08}]",171206.60000000894,1669836178001,mango,chickenfingers,3.14,5.08,1.94,chickenfingers,1545.0,1545,1545.5,True,i,173260.10000000894,2053.5,1669836180054,2053,HRV,HRV_0237,2022-11-30 19:25:25
94,"[{'imgObject': {}, 'id': 'shreddedwheatwithmilk', 'src': '/static/foodstim60/shreddedwheatwithmilk.jpg', 'key': 'u', 'origWidth': 410, 'origHeight': 410, 'width': 410, 'height': 410, 'widthPercent': 0.45, 'rescaleHeight': False, 'trialN': 94, 'loaded': True, 'loadedTime': 4295.600000008941, 'positionName': 'LEFT', 'positionCoords': [245.68, 179], 'bid': 2.39}, {'imgObject': {}, 'id': 'baked potato', 'src': '/static/foodstim60/baked potato.jpg', 'key': 'i', 'origWidth': 409, 'origHeight': 410, 'width': 409, 'height': 410, 'widthPercent': 0.45, 'rescaleHeight': False, 'trialN': 94, 'loaded': True, 'loadedTime': 4236.29999999702, 'positionName': 'RIGHT', 'positionCoords': [710.32, 179], 'bid': 4.09}]",173260.29999999702,1669836180054,shreddedwheatwithmilk,baked potato,2.39,4.09,1.6999999999999997,baked potato,1414.0,1404,1414.300000011921,True,i,175196.0,1935.7000000029802,1669836181979,1925,HRV,HRV_0237,2022-11-30 19:25:25
95,"[{'imgObject': {}, 'id': 'mango', 'src': '/static/foodstim60/mango.jpg', 'key': 'u', 'origWidth': 411, 'origHeight': 411, 'width': 411, 'height': 411, 'widthPercent': 0.45, 'rescaleHeight': False, 'trialN': 95, 'loaded': True, 'loadedTime': 4319.600000008941, 'positionName': 'LEFT', 'positionCoords': [244.68, 178.5], 'bid': 3.14}, {'imgObject': {}, 'id': 'seaweed', 'src': '/static/foodstim60/seaweed.jpg', 'key': 'i', 'origWidth': 410, 'origHeight': 410, 'width': 410, 'height': 410, 'widthPercent': 0.45, 'rescaleHeight': False, 'trialN': 95, 'loaded': True, 'loadedTime': 4265.100000008941, 'positionName': 'RIGHT', 'positionCoords': [710.32, 179], 'bid': 2.29}]",175196.40000000596,1669836181979,mango,seaweed,3.14,2.29,-0.8500000000000001,seaweed,1234.3999999910593,1235,1234.7999999970198,True,i,176938.0,1741.5999999940395,1669836183721,1742,HRV,HRV_0237,2022-11-30 19:25:25
96,"[{'imgObject': {}, 'id': 'burrito', 'src': '/static/foodstim60/burrito.jpg', 'key': 'u', 'origWidth': 410, 'origHeight': 410, 'width': 410, 'height': 410, 'widthPercent': 0.45, 'rescaleHeight': False, 'trialN': 96, 'loaded': True, 'loadedTime': 4133, 'positionName': 'LEFT', 'positionCoords': [245.68, 179], 'bid': 7.67}, {'imgObject': {}, 'id': 'granola w milk', 'src': '/static/foodstim60/granola w milk.jpg', 'key': 'i', 'origWidth': 410, 'origHeight': 410, 'width': 410, 'height': 410, 'widthPercent': 0.45, 'rescaleHeight': False, 'trialN': 96, 'loaded': True, 'loadedTime': 4104.79999999702, 'positionName': 'RIGHT', 'positionCoords': [710.32, 179], 'bid': 6.61}]",176938.5,1669836183721,burrito,granola w milk,7.67,6.61,-1.0599999999999996,burrito,1019.6000000089407,1021,1020.1000000089407,True,u,178473.29999999702,1534.7999999970198,1669836185256,1535,HRV,HRV_0237,2022-11-30 19:25:25
97,"[{'imgObject': {}, 'id': 'banana', 'src': '/static/foodstim60/banana.jpg', 'key': 'u', 'origWidth': 410, 'origHeight': 410, 'width': 410, 'height': 410, 'widthPercent': 0.45, 'rescaleHeight': False, 'trialN': 97, 'loaded': True, 'loadedTime': 4114, 'positionName': 'LEFT', 'positionCoords': [245.68, 179], 'bid': 9.93}, {'imgObject': {}, 'id': 'turkey sandwich', 'src': '/static/foodstim60/turkey sandwich.jpg', 'key': 'i', 'origWidth': 409, 'origHeight': 409, 'width': 409, 'height': 409, 'widthPercent': 0.45, 'rescaleHeight': False, 'trialN': 97, 'loaded': True, 'loadedTime': 4102.100000008941, 'positionName': 'RIGHT', 'positionCoords': [710.32, 179.5], 'bid': 5.04}]",178473.60000000894,1669836185256,banana,turkey sandwich,9.93,5.04,-4.89,banana,768.7999999970198,770,769.1999999880791,True,u,179760.60000000894,1287.0,1669836186544,1288,HRV,HRV_0237,2022-11-30 19:25:25
98,"[{'imgObject': {}, 'id': 'mac & cheese', 'src': '/static/foodstim60/mac & cheese.jpg', 'key': 'u', 'origWidth': 410, 'origHeight': 410, 'width': 410, 'height': 410, 'widthPercent': 0.45, 'rescaleHeight': False, 'trialN': 98, 'loaded': True, 'loadedTime': 4171.9000000059605, 'positionName': 'LEFT', 'positionCoords': [245.68, 179], 'bid': 6.11}, {'imgObject': {}, 'id': 'luckycharms', 'src': '/static/foodstim60/luckycharms.jpg', 'key': 'i', 'origWidth': 410, 'origHeight': 409, 'width': 410, 'height': 409, 'widthPercent': 0.45, 'rescaleHeight': False, 'trialN': 98, 'loaded': True, 'loadedTime': 4326.100000008941, 'positionName': 'RIGHT', 'positionCoords': [710.32, 179.5], 'bid': 4.98}]",179761.10000000894,1669836186544,mac & cheese,luckycharms,6.11,4.98,-1.13,mac & cheese,829.7999999970198,830,830.1999999880791,True,u,181095.0,1333.8999999910593,1669836187878,1334,HRV,HRV_0237,2022-11-30 19:25:25
99,"[{'imgObject': {}, 'id': 'bagel plain', 'src': '/static/foodstim60/bagel plain.jpg', 'key': 'u', 'origWidth': 410, 'origHeight': 410, 'width': 410, 'height': 410, 'widthPercent': 0.45, 'rescaleHeight': False, 'trialN': 99, 'loaded': True, 'loadedTime': 4029.6000000089407, 'positionName': 'LEFT', 'positionCoords': [245.68, 179], 'bid': 0.1}, {'imgObject': {}, 'id': 'Tribe humus pita', 'src': '/static/foodstim60/Tribe humus pita.jpg', 'key': 'i', 'origWidth': 411, 'origHeight': 411, 'width': 411, 'height': 411, 'widthPercent': 0.45, 'rescaleHeight': False, 'trialN': 99, 'loaded': True, 'loadedTime': 4277.4000000059605, 'positionName': 'RIGHT', 'positionCoords': [710.32, 178.5], 'bid': 2.52}]",181095.20000000298,1669836187878,bagel plain,Tribe humus pita,0.1,2.52,2.42,Tribe humus pita,932.5999999940395,933,932.7999999970198,True,i,182536.70000000298,1441.5,1669836189320,1442,HRV,HRV_0237,2022-11-30 19:25:25
100,"[{'imgObject': {}, 'id': 'grilled chicken strips', 'src': '/static/foodstim60/grilled chicken strips.jpg', 'key': 'u', 'origWidth': 410, 'origHeight': 411, 'width': 410, 'height': 411, 'widthPercent': 0.45, 'rescaleHeight': False, 'trialN': 100, 'loaded': True, 'loadedTime': 3897.1000000089407, 'positionName': 'LEFT', 'positionCoords': [245.68, 178.5], 'bid': 5.92}, {'imgObject': {}, 'id': 'yogurt no spoon', 'src': '/static/foodstim60/yogurt no spoon.jpg', 'key': 'i', 'origWidth': 411, 'origHeight': 410, 'width': 411, 'height': 410, 'widthPercent': 0.45, 'rescaleHeight': False, 'trialN': 100, 'loaded': True, 'loadedTime': 4292.79999999702, 'positionName': 'RIGHT', 'positionCoords': [710.32, 179], 'bid': 8.13}]",182537.0,1669836189320,grilled chicken strips,yogurt no spoon,5.92,8.13,2.210000000000001,grilled chicken strips,1193.6000000089407,1194,1193.9000000059605,True,u,184241.10000000894,1704.1000000089407,1669836191024,1704,HRV,HRV_0237,2022-11-30 19:25:25
101,"[{'imgObject': {}, 'id': 'sushi w_condiments', 'src': '/static/foodstim60/sushi w_condiments.jpg', 'key': 'u', 'origWidth': 410, 'origHeight': 410, 'width': 410, 'height': 410, 'widthPercent': 0.45, 'rescaleHeight': False, 'trialN': 101, 'loaded': True, 'loadedTime': 4085.6000000089407, 'positionName': 'LEFT', 'positionCoords': [245.68, 179], 'bid': 8.55}, {'imgObject': {}, 'id': 'corn cob', 'src': '/static/foodstim60/corn cob.jpg', 'key': 'i', 'origWidth': 411, 'origHeight': 411, 'width': 411, 'height': 411, 'widthPercent': 0.45, 'rescaleHeight': False, 'trialN': 101, 'loaded': True, 'loadedTime': 4195.100000008941, 'positionName': 'RIGHT', 'positionCoords': [710.32, 178.5], 'bid': 6.8}]",184241.40000000596,1669836191024,sushi w_condiments,corn cob,8.55,6.8,-1.7500000000000009,sushi w_condiments,1154.7000000029802,1155,1155.0999999940395,True,u,185908.5,1667.0999999940395,1669836192692,1668,HRV,HRV_0237,2022-11-30 19:25:25
102,"[{'imgObject': {}, 'id': 'kiwi', 'src': '/static/foodstim60/kiwi.jpg', 'key': 'u', 'origWidth': 410, 'origHeight': 410, 'width': 410, 'height': 410, 'widthPercent': 0.45, 'rescaleHeight': False, 'trialN': 102, 'loaded': True, 'loadedTime': 4089.9000000059605, 'positionName': 'LEFT', 'positionCoords': [245.68, 179], 'bid': 5.83}, {'imgObject': {}, 'id': 'chickenfingers', 'src': '/static/foodstim60/chickenfingers.jpg', 'key': 'i', 'origWidth': 410, 'origHeight': 410, 'width': 410, 'height': 410, 'widthPercent': 0.45, 'rescaleHeight': False, 'trialN': 102, 'loaded': True, 'loadedTime': 4195.4000000059605, 'positionName': 'RIGHT', 'positionCoords': [710.32, 179], 'bid': 5.08}]",185908.79999999702,1669836192692,kiwi,chickenfingers,5.83,5.08,-0.75,chickenfingers,1374.800000011921,1375,1375.300000011921,True,i,187798.20000000298,1889.4000000059605,1669836194581,1889,HRV,HRV_0237,2022-11-30 19:25:25
103,"[{'imgObject': {}, 'id': 'sushi w_condiments', 'src': '/static/foodstim60/sushi w_condiments.jpg', 'key': 'u', 'origWidth': 410, 'origHeight': 410, 'width': 410, 'height': 410, 'widthPercent': 0.45, 'rescaleHeight': False, 'trialN': 103, 'loaded': True, 'loadedTime': 4087.4000000059605, 'positionName': 'LEFT', 'positionCoords': [245.68, 179], 'bid': 8.55}, {'imgObject': {}, 'id': 'steak', 'src': '/static/foodstim60/steak.jpg', 'key': 'i', 'origWidth': 410, 'origHeight': 410, 'width': 410, 'height': 410, 'widthPercent': 0.45, 'rescaleHeight': False, 'trialN': 103, 'loaded': True, 'loadedTime': 4313.100000008941, 'positionName': 'RIGHT', 'positionCoords': [710.32, 179], 'bid': 9.86}]",187798.60000000894,1669836194582,sushi w_condiments,steak,8.55,9.86,1.3099999999999987,steak,797.3999999910593,797,797.6999999880791,True,i,189117.0,1318.3999999910593,1669836195900,1318,HRV,HRV_0237,2022-11-30 19:25:25
104,"[{'imgObject': {}, 'id': 'shreddedwheatwithmilk', 'src': '/static/foodstim60/shreddedwheatwithmilk.jpg', 'key': 'u', 'origWidth': 410, 'origHeight': 410, 'width': 410, 'height': 410, 'widthPercent': 0.45, 'rescaleHeight': False, 'trialN': 104, 'loaded': True, 'loadedTime': 4295.70000000298, 'positionName': 'LEFT', 'positionCoords': [245.68, 179], 'bid': 2.39}, {'imgObject': {}, 'id': 'Tribe humus pita', 'src': '/static/foodstim60/Tribe humus pita.jpg', 'key': 'i', 'origWidth': 411, 'origHeight': 411, 'width': 411, 'height': 411, 'widthPercent': 0.45, 'rescaleHeight': False, 'trialN': 104, 'loaded': True, 'loadedTime': 4281.5, 'positionName': 'RIGHT', 'positionCoords': [710.32, 178.5], 'bid': 2.52}]",189117.20000000298,1669836195900,shreddedwheatwithmilk,Tribe humus pita,2.39,2.52,0.1299999999999999,Tribe humus pita,1424.7999999970198,1425,1425.2000000029802,True,i,191060.0,1942.7999999970198,1669836197843,1943,HRV,HRV_0237,2022-11-30 19:25:25
105,"[{'imgObject': {}, 'id': 'pear', 'src': '/static/foodstim60/pear.jpg', 'key': 'u', 'origWidth': 411, 'origHeight': 410, 'width': 411, 'height': 410, 'widthPercent': 0.45, 'rescaleHeight': False, 'trialN': 105, 'loaded': True, 'loadedTime': 3869.9000000059605, 'positionName': 'LEFT', 'positionCoords': [244.68, 179], 'bid': 6.0200000000000005}, {'imgObject': {}, 'id': 'raisin bran w milk', 'src': '/static/foodstim60/raisin bran w milk.jpg', 'key': 'i', 'origWidth': 411, 'origHeight': 411, 'width': 411, 'height': 411, 'widthPercent': 0.45, 'rescaleHeight': False, 'trialN': 105, 'loaded': True, 'loadedTime': 3953.2999999970198, 'positionName': 'RIGHT', 'positionCoords': [710.32, 178.5], 'bid': 5.0200000000000005}]",191060.20000000298,1669836197843,pear,raisin bran w milk,6.0200000000000005,5.0200000000000005,-1.0,pear,2252.2000000029802,2253,2252.5999999940395,True,u,193818.5,2758.2999999970198,1669836200601,2758,HRV,HRV_0237,2022-11-30 19:25:25
106,"[{'imgObject': {}, 'id': 'mango', 'src': '/static/foodstim60/mango.jpg', 'key': 'u', 'origWidth': 411, 'origHeight': 411, 'width': 411, 'height': 411, 'widthPercent': 0.45, 'rescaleHeight': False, 'trialN': 106, 'loaded': True, 'loadedTime': 4322.100000008941, 'positionName': 'LEFT', 'positionCoords': [244.68, 178.5], 'bid': 3.14}, {'imgObject': {}, 'id': 'orange slices', 'src': '/static/foodstim60/orange slices.jpg', 'key': 'i', 'origWidth': 409, 'origHeight': 410, 'width': 409, 'height': 410, 'widthPercent': 0.45, 'rescaleHeight': False, 'trialN': 106, 'loaded': True, 'loadedTime': 4308.70000000298, 'positionName': 'RIGHT', 'positionCoords': [710.32, 179], 'bid': 8.46}]",193818.79999999702,1669836200602,mango,orange slices,3.14,8.46,5.32,orange slices,1079.4000000059605,1080,1079.9000000059605,True,i,195407.0,1588.2000000029802,1669836202190,1588,HRV,HRV_0237,2022-11-30 19:25:25
107,"[{'imgObject': {}, 'id': 'froot loops w milk', 'src': '/static/foodstim60/froot loops w milk.jpg', 'key': 'u', 'origWidth': 410, 'origHeight': 410, 'width': 410, 'height': 410, 'widthPercent': 0.45, 'rescaleHeight': False, 'trialN': 107, 'loaded': True, 'loadedTime': 3969.6000000089407, 'positionName': 'LEFT', 'positionCoords': [245.68, 179], 'bid': 5}, {'imgObject': {}, 'id': 'salmon', 'src': '/static/foodstim60/salmon.jpg', 'key': 'i', 'origWidth': 410, 'origHeight': 409, 'width': 410, 'height': 409, 'widthPercent': 0.45, 'rescaleHeight': False, 'trialN': 107, 'loaded': True, 'loadedTime': 4191, 'positionName': 'RIGHT', 'positionCoords': [710.32, 179.5], 'bid': 6.17}]",195407.20000000298,1669836202190,froot loops w milk,salmon,5.0,6.17,1.17,salmon,850.5,851,850.7999999970198,True,i,196769.10000000894,1361.9000000059605,1669836203552,1362,HRV,HRV_0237,2022-11-30 19:25:25
108,"[{'imgObject': {}, 'id': 'popsicles', 'src': '/static/foodstim60/popsicles.jpg', 'key': 'u', 'origWidth': 410, 'origHeight': 410, 'width': 410, 'height': 410, 'widthPercent': 0.45, 'rescaleHeight': False, 'trialN': 108, 'loaded': True, 'loadedTime': 4343.4000000059605, 'positionName': 'LEFT', 'positionCoords': [245.68, 179], 'bid': 2.73}, {'imgObject': {}, 'id': 'fried eggs', 'src': '/static/foodstim60/fried eggs.jpg', 'key': 'i', 'origWidth': 410, 'origHeight': 410, 'width': 410, 'height': 410, 'widthPercent': 0.45, 'rescaleHeight': False, 'trialN': 108, 'loaded': True, 'loadedTime': 4305.70000000298, 'positionName': 'RIGHT', 'positionCoords': [710.32, 179], 'bid': 3.11}]",196769.5,1669836203552,popsicles,fried eggs,2.73,3.11,0.3799999999999999,popsicles,971.5,972,971.7999999970198,True,u,198247.5,1478.0,1669836205030,1478,HRV,HRV_0237,2022-11-30 19:25:25
