trialN,stimuli,trialStartTime,trialStartTime_UNIX,stimulus1,stimulus2,stimulus1Bid,stimulus2Bid,delta,selected,rt,rt_UNIX,rt_perfnow,receivedResponse,rsp,trialEndTime,trialDuration,trialEndTime_UNIX,trialDuration_UNIX,exp,subjectId,date
0,"[{'imgObject': {}, 'id': 'turkeysandwich', 'src': '/static/foodstim60/turkeysandwich.jpg', 'key': 'u', 'origWidth': 409, 'origHeight': 409, 'width': 409, 'height': 409, 'widthPercent': 0.45, 'rescaleHeight': False, 'trialN': 0, 'loaded': True, 'loadedTime': 4680, 'positionName': 'LEFT', 'positionCoords': [512.6, 335.5], 'bid': 7.35}, {'imgObject': {}, 'id': 'cantaloupe', 'src': '/static/foodstim60/cantaloupe.jpg', 'key': 'i', 'origWidth': 409, 'origHeight': 409, 'width': 409, 'height': 409, 'widthPercent': 0.45, 'rescaleHeight': False, 'trialN': 0, 'loaded': True, 'loadedTime': 4749, 'positionName': 'RIGHT', 'positionCoords': [998.4, 335.5], 'bid': 7.59}]",6389,1669831850702,turkeysandwich,cantaloupe,7.35,7.59,0.2400000000000002,turkeysandwich,2084,2085,2085.0,True,u,8981,2592,1669831853294,2592,HRV,HRV_0178,2022-11-30 18:20:19
1,"[{'imgObject': {}, 'id': 'Grapes', 'src': '/static/foodstim60/Grapes.jpg', 'key': 'u', 'origWidth': 411, 'origHeight': 411, 'width': 411, 'height': 411, 'widthPercent': 0.45, 'rescaleHeight': False, 'trialN': 1, 'loaded': True, 'loadedTime': 4781, 'positionName': 'LEFT', 'positionCoords': [510.6, 334.5], 'bid': 6.0200000000000005}, {'imgObject': {}, 'id': 'tacos', 'src': '/static/foodstim60/tacos.jpg', 'key': 'i', 'origWidth': 411, 'origHeight': 411, 'width': 411, 'height': 411, 'widthPercent': 0.45, 'rescaleHeight': False, 'trialN': 1, 'loaded': True, 'loadedTime': 4891, 'positionName': 'RIGHT', 'positionCoords': [998.4, 334.5], 'bid': 8.67}]",8982,1669831853295,Grapes,tacos,6.0200000000000005,8.67,2.6499999999999995,tacos,970,971,971.0,True,i,10455,1473,1669831854768,1473,HRV,HRV_0178,2022-11-30 18:20:19
2,"[{'imgObject': {}, 'id': 'olives', 'src': '/static/foodstim60/olives.jpg', 'key': 'u', 'origWidth': 410, 'origHeight': 410, 'width': 410, 'height': 410, 'widthPercent': 0.45, 'rescaleHeight': False, 'trialN': 2, 'loaded': True, 'loadedTime': 4962, 'positionName': 'LEFT', 'positionCoords': [511.6, 335], 'bid': 0.81}, {'imgObject': {}, 'id': 'cheerios', 'src': '/static/foodstim60/cheerios.jpg', 'key': 'i', 'origWidth': 409, 'origHeight': 410, 'width': 409, 'height': 410, 'widthPercent': 0.45, 'rescaleHeight': False, 'trialN': 2, 'loaded': True, 'loadedTime': 5008, 'positionName': 'RIGHT', 'positionCoords': [998.4, 335], 'bid': 4.61}]",10456,1669831854769,olives,cheerios,0.81,4.61,3.8000000000000003,cheerios,1504,1505,1505.0,True,i,12482,2026,1669831856795,2026,HRV,HRV_0178,2022-11-30 18:20:19
3,"[{'imgObject': {}, 'id': 'chicken nuggets2', 'src': '/static/foodstim60/chicken nuggets2.jpg', 'key': 'u', 'origWidth': 410, 'origHeight': 409, 'width': 410, 'height': 409, 'widthPercent': 0.45, 'rescaleHeight': False, 'trialN': 3, 'loaded': True, 'loadedTime': 5165, 'positionName': 'LEFT', 'positionCoords': [511.6, 335.5], 'bid': 6.38}, {'imgObject': {}, 'id': 'granola w milk', 'src': '/static/foodstim60/granola w milk.jpg', 'key': 'i', 'origWidth': 410, 'origHeight': 410, 'width': 410, 'height': 410, 'widthPercent': 0.45, 'rescaleHeight': False, 'trialN': 3, 'loaded': True, 'loadedTime': 5192, 'positionName': 'RIGHT', 'positionCoords': [998.4, 335], 'bid': 7.37}]",12482,1669831856795,chicken nuggets2,granola w milk,6.38,7.37,0.9900000000000002,chicken nuggets2,1875,1875,1875.0,True,u,14861,2379,1669831859174,2379,HRV,HRV_0178,2022-11-30 18:20:19
4,"[{'imgObject': {}, 'id': 'veggieswithdip', 'src': '/static/foodstim60/veggieswithdip.jpg', 'key': 'u', 'origWidth': 409, 'origHeight': 409, 'width': 409, 'height': 409, 'widthPercent': 0.45, 'rescaleHeight': False, 'trialN': 4, 'loaded': True, 'loadedTime': 5192, 'positionName': 'LEFT', 'positionCoords': [512.6, 335.5], 'bid': 3}, {'imgObject': {}, 'id': 'mac & cheese', 'src': '/static/foodstim60/mac & cheese.jpg', 'key': 'i', 'origWidth': 410, 'origHeight': 410, 'width': 410, 'height': 410, 'widthPercent': 0.45, 'rescaleHeight': False, 'trialN': 4, 'loaded': True, 'loadedTime': 5285, 'positionName': 'RIGHT', 'positionCoords': [998.4, 335], 'bid': 2.48}]",14861,1669831859174,veggieswithdip,mac & cheese,3.0,2.48,-0.52,veggieswithdip,2504,2504,2504.0,True,u,17869,3008,1669831862182,3008,HRV,HRV_0178,2022-11-30 18:20:19
5,"[{'imgObject': {}, 'id': 'baked potato', 'src': '/static/foodstim60/baked potato.jpg', 'key': 'u', 'origWidth': 409, 'origHeight': 410, 'width': 409, 'height': 410, 'widthPercent': 0.45, 'rescaleHeight': False, 'trialN': 5, 'loaded': True, 'loadedTime': 5341, 'positionName': 'LEFT', 'positionCoords': [512.6, 335], 'bid': 7.34}, {'imgObject': {}, 'id': 'turkeysandwich', 'src': '/static/foodstim60/turkeysandwich.jpg', 'key': 'i', 'origWidth': 409, 'origHeight': 409, 'width': 409, 'height': 409, 'widthPercent': 0.45, 'rescaleHeight': False, 'trialN': 5, 'loaded': True, 'loadedTime': 4619, 'positionName': 'RIGHT', 'positionCoords': [998.4, 335.5], 'bid': 7.35}]",17870,1669831862183,baked potato,turkeysandwich,7.34,7.35,0.009999999999999787,turkeysandwich,1543,1543,1543.0,True,i,19917,2047,1669831864230,2047,HRV,HRV_0178,2022-11-30 18:20:19
6,"[{'imgObject': {}, 'id': 'rigatoni and sauce', 'src': '/static/foodstim60/rigatoni and sauce.jpg', 'key': 'u', 'origWidth': 410, 'origHeight': 411, 'width': 410, 'height': 411, 'widthPercent': 0.45, 'rescaleHeight': False, 'trialN': 6, 'loaded': True, 'loadedTime': 5342, 'positionName': 'LEFT', 'positionCoords': [511.6, 334.5], 'bid': 4.47}, {'imgObject': {}, 'id': 'shreddedwheatwithmilk', 'src': '/static/foodstim60/shreddedwheatwithmilk.jpg', 'key': 'i', 'origWidth': 410, 'origHeight': 410, 'width': 410, 'height': 410, 'widthPercent': 0.45, 'rescaleHeight': False, 'trialN': 6, 'loaded': True, 'loadedTime': 5354, 'positionName': 'RIGHT', 'positionCoords': [998.4, 335], 'bid': 4.3}]",19917,1669831864230,rigatoni and sauce,shreddedwheatwithmilk,4.47,4.3,-0.16999999999999993,shreddedwheatwithmilk,1824,1824,1824.0,True,i,22245,2328,1669831866558,2328,HRV,HRV_0178,2022-11-30 18:20:19
7,"[{'imgObject': {}, 'id': 'lox', 'src': '/static/foodstim60/lox.jpg', 'key': 'u', 'origWidth': 410, 'origHeight': 411, 'width': 410, 'height': 411, 'widthPercent': 0.45, 'rescaleHeight': False, 'trialN': 7, 'loaded': True, 'loadedTime': 5356, 'positionName': 'LEFT', 'positionCoords': [511.6, 334.5], 'bid': 8.63}, {'imgObject': {}, 'id': 'steak', 'src': '/static/foodstim60/steak.jpg', 'key': 'i', 'origWidth': 410, 'origHeight': 410, 'width': 410, 'height': 410, 'widthPercent': 0.45, 'rescaleHeight': False, 'trialN': 7, 'loaded': True, 'loadedTime': 5360, 'positionName': 'RIGHT', 'positionCoords': [998.4, 335], 'bid': 9.87}]",22245,1669831866558,lox,steak,8.63,9.87,1.2399999999999984,steak,719,720,720.0,True,i,23469,1224,1669831867782,1224,HRV,HRV_0178,2022-11-30 18:20:19
8,"[{'imgObject': {}, 'id': 'edamame', 'src': '/static/foodstim60/edamame.jpg', 'key': 'u', 'origWidth': 409, 'origHeight': 410, 'width': 409, 'height': 410, 'widthPercent': 0.45, 'rescaleHeight': False, 'trialN': 8, 'loaded': True, 'loadedTime': 5367, 'positionName': 'LEFT', 'positionCoords': [512.6, 335], 'bid': 4.26}, {'imgObject': {}, 'id': 'chickenfingers', 'src': '/static/foodstim60/chickenfingers.jpg', 'key': 'i', 'origWidth': 410, 'origHeight': 410, 'width': 410, 'height': 410, 'widthPercent': 0.45, 'rescaleHeight': False, 'trialN': 8, 'loaded': True, 'loadedTime': 5370, 'positionName': 'RIGHT', 'positionCoords': [998.4, 335], 'bid': 7.66}]",23469,1669831867782,edamame,chickenfingers,4.26,7.66,3.4000000000000004,chickenfingers,984,985,985.0,True,i,24957,1488,1669831869270,1488,HRV,HRV_0178,2022-11-30 18:20:19
9,"[{'imgObject': {}, 'id': 'eggs', 'src': '/static/foodstim60/eggs.jpg', 'key': 'u', 'origWidth': 409, 'origHeight': 409, 'width': 409, 'height': 409, 'widthPercent': 0.45, 'rescaleHeight': False, 'trialN': 9, 'loaded': True, 'loadedTime': 5391, 'positionName': 'LEFT', 'positionCoords': [512.6, 335.5], 'bid': 8.620000000000001}, {'imgObject': {}, 'id': 'burrito', 'src': '/static/foodstim60/burrito.jpg', 'key': 'i', 'origWidth': 410, 'origHeight': 410, 'width': 410, 'height': 410, 'widthPercent': 0.45, 'rescaleHeight': False, 'trialN': 9, 'loaded': True, 'loadedTime': 5460, 'positionName': 'RIGHT', 'positionCoords': [998.4, 335], 'bid': 7.56}]",24958,1669831869271,eggs,burrito,8.620000000000001,7.56,-1.0600000000000014,burrito,1903,1903,1903.0,True,i,27365,2407,1669831871678,2407,HRV,HRV_0178,2022-11-30 18:20:19
10,"[{'imgObject': {}, 'id': 'raspberries', 'src': '/static/foodstim60/raspberries.jpg', 'key': 'u', 'origWidth': 411, 'origHeight': 411, 'width': 411, 'height': 411, 'widthPercent': 0.45, 'rescaleHeight': False, 'trialN': 10, 'loaded': True, 'loadedTime': 5494, 'positionName': 'LEFT', 'positionCoords': [510.6, 334.5], 'bid': 4.89}, {'imgObject': {}, 'id': 'hashbrowns', 'src': '/static/foodstim60/hashbrowns.jpg', 'key': 'i', 'origWidth': 411, 'origHeight': 410, 'width': 411, 'height': 410, 'widthPercent': 0.45, 'rescaleHeight': False, 'trialN': 10, 'loaded': True, 'loadedTime': 5497, 'positionName': 'RIGHT', 'positionCoords': [998.4, 335], 'bid': 1.81}]",27365,1669831871678,raspberries,hashbrowns,4.89,1.81,-3.0799999999999996,raspberries,1464,1464,1464.0,True,u,29333,1968,1669831873646,1968,HRV,HRV_0178,2022-11-30 18:20:19
11,"[{'imgObject': {}, 'id': 'kiwi', 'src': '/static/foodstim60/kiwi.jpg', 'key': 'u', 'origWidth': 410, 'origHeight': 410, 'width': 410, 'height': 410, 'widthPercent': 0.45, 'rescaleHeight': False, 'trialN': 11, 'loaded': True, 'loadedTime': 5520, 'positionName': 'LEFT', 'positionCoords': [511.6, 335], 'bid': 7.44}, {'imgObject': {}, 'id': 'tacos', 'src': '/static/foodstim60/tacos.jpg', 'key': 'i', 'origWidth': 411, 'origHeight': 411, 'width': 411, 'height': 411, 'widthPercent': 0.45, 'rescaleHeight': False, 'trialN': 11, 'loaded': True, 'loadedTime': 4892, 'positionName': 'RIGHT', 'positionCoords': [998.4, 334.5], 'bid': 8.67}]",29333,1669831873646,kiwi,tacos,7.44,8.67,1.2299999999999995,tacos,808,809,809.0,True,i,30645,1312,1669831874958,1312,HRV,HRV_0178,2022-11-30 18:20:19
12,"[{'imgObject': {}, 'id': 'roastedpotatoes', 'src': '/static/foodstim60/roastedpotatoes.jpg', 'key': 'u', 'origWidth': 409, 'origHeight': 410, 'width': 409, 'height': 410, 'widthPercent': 0.45, 'rescaleHeight': False, 'trialN': 12, 'loaded': True, 'loadedTime': 5522, 'positionName': 'LEFT', 'positionCoords': [512.6, 335], 'bid': 7.8}, {'imgObject': {}, 'id': 'apple slices', 'src': '/static/foodstim60/apple slices.jpg', 'key': 'i', 'origWidth': 409, 'origHeight': 410, 'width': 409, 'height': 410, 'widthPercent': 0.45, 'rescaleHeight': False, 'trialN': 12, 'loaded': True, 'loadedTime': 5552, 'positionName': 'RIGHT', 'positionCoords': [998.4, 335], 'bid': 7.52}]",30645,1669831874958,roastedpotatoes,apple slices,7.8,7.52,-0.28000000000000025,roastedpotatoes,2128,2128,2128.0,True,u,33277,2632,1669831877590,2632,HRV,HRV_0178,2022-11-30 18:20:19
13,"[{'imgObject': {}, 'id': 'baked potato', 'src': '/static/foodstim60/baked potato.jpg', 'key': 'u', 'origWidth': 409, 'origHeight': 410, 'width': 409, 'height': 410, 'widthPercent': 0.45, 'rescaleHeight': False, 'trialN': 13, 'loaded': True, 'loadedTime': 5318, 'positionName': 'LEFT', 'positionCoords': [512.6, 335], 'bid': 7.34}, {'imgObject': {}, 'id': 'sweetpotato', 'src': '/static/foodstim60/sweetpotato.jpg', 'key': 'i', 'origWidth': 410, 'origHeight': 410, 'width': 410, 'height': 410, 'widthPercent': 0.45, 'rescaleHeight': False, 'trialN': 13, 'loaded': True, 'loadedTime': 5585, 'positionName': 'RIGHT', 'positionCoords': [998.4, 335], 'bid': 2.28}]",33277,1669831877590,baked potato,sweetpotato,7.34,2.28,-5.0600000000000005,baked potato,1033,1033,1033.0,True,u,34813,1536,1669831879126,1536,HRV,HRV_0178,2022-11-30 18:20:19
14,"[{'imgObject': {}, 'id': 'corn cob', 'src': '/static/foodstim60/corn cob.jpg', 'key': 'u', 'origWidth': 411, 'origHeight': 411, 'width': 411, 'height': 411, 'widthPercent': 0.45, 'rescaleHeight': False, 'trialN': 14, 'loaded': True, 'loadedTime': 5586, 'positionName': 'LEFT', 'positionCoords': [510.6, 334.5], 'bid': 6.63}, {'imgObject': {}, 'id': 'bagel plain', 'src': '/static/foodstim60/bagel plain.jpg', 'key': 'i', 'origWidth': 410, 'origHeight': 410, 'width': 410, 'height': 410, 'widthPercent': 0.45, 'rescaleHeight': False, 'trialN': 14, 'loaded': True, 'loadedTime': 5624, 'positionName': 'RIGHT', 'positionCoords': [998.4, 335], 'bid': 6.2700000000000005}]",34813,1669831879126,corn cob,bagel plain,6.63,6.2700000000000005,-0.35999999999999943,corn cob,2264,2265,2265.0,True,u,37581,2768,1669831881894,2768,HRV,HRV_0178,2022-11-30 18:20:19
15,"[{'imgObject': {}, 'id': 'veggieswithdip', 'src': '/static/foodstim60/veggieswithdip.jpg', 'key': 'u', 'origWidth': 409, 'origHeight': 409, 'width': 409, 'height': 409, 'widthPercent': 0.45, 'rescaleHeight': False, 'trialN': 15, 'loaded': True, 'loadedTime': 5253, 'positionName': 'LEFT', 'positionCoords': [512.6, 335.5], 'bid': 3}, {'imgObject': {}, 'id': 'omelette', 'src': '/static/foodstim60/omelette.jpg', 'key': 'i', 'origWidth': 410, 'origHeight': 409, 'width': 410, 'height': 409, 'widthPercent': 0.45, 'rescaleHeight': False, 'trialN': 15, 'loaded': True, 'loadedTime': 5684, 'positionName': 'RIGHT', 'positionCoords': [998.4, 335.5], 'bid': 7.54}]",37581,1669831881894,veggieswithdip,omelette,3.0,7.54,4.54,omelette,1000,1000,1000.0,True,i,39085,1504,1669831883398,1504,HRV,HRV_0178,2022-11-30 18:20:19
16,"[{'imgObject': {}, 'id': 'bagel and cc', 'src': '/static/foodstim60/bagel and cc.jpg', 'key': 'u', 'origWidth': 410, 'origHeight': 410, 'width': 410, 'height': 410, 'widthPercent': 0.45, 'rescaleHeight': False, 'trialN': 16, 'loaded': True, 'loadedTime': 5691, 'positionName': 'LEFT', 'positionCoords': [511.6, 335], 'bid': 6.33}, {'imgObject': {}, 'id': 'yogurt no spoon', 'src': '/static/foodstim60/yogurt no spoon.jpg', 'key': 'i', 'origWidth': 411, 'origHeight': 410, 'width': 411, 'height': 410, 'widthPercent': 0.45, 'rescaleHeight': False, 'trialN': 16, 'loaded': True, 'loadedTime': 5699, 'positionName': 'RIGHT', 'positionCoords': [998.4, 335], 'bid': 6.03}]",39085,1669831883398,bagel and cc,yogurt no spoon,6.33,6.03,-0.2999999999999998,bagel and cc,2212,2221,2221.0,True,u,41813,2728,1669831886126,2728,HRV,HRV_0178,2022-11-30 18:20:19
17,"[{'imgObject': {}, 'id': 'turkeysandwich', 'src': '/static/foodstim60/turkeysandwich.jpg', 'key': 'u', 'origWidth': 409, 'origHeight': 409, 'width': 409, 'height': 409, 'widthPercent': 0.45, 'rescaleHeight': False, 'trialN': 17, 'loaded': True, 'loadedTime': 4635, 'positionName': 'LEFT', 'positionCoords': [512.6, 335.5], 'bid': 7.35}, {'imgObject': {}, 'id': 'Tribe humus pita', 'src': '/static/foodstim60/Tribe humus pita.jpg', 'key': 'i', 'origWidth': 411, 'origHeight': 411, 'width': 411, 'height': 411, 'widthPercent': 0.45, 'rescaleHeight': False, 'trialN': 17, 'loaded': True, 'loadedTime': 5720, 'positionName': 'RIGHT', 'positionCoords': [998.4, 334.5], 'bid': 2.37}]",41813,1669831886126,turkeysandwich,Tribe humus pita,7.35,2.37,-4.9799999999999995,turkeysandwich,1172,1173,1173.0,True,u,43493,1680,1669831887806,1680,HRV,HRV_0178,2022-11-30 18:20:19
18,"[{'imgObject': {}, 'id': 'yogurt no spoon', 'src': '/static/foodstim60/yogurt no spoon.jpg', 'key': 'u', 'origWidth': 411, 'origHeight': 410, 'width': 411, 'height': 410, 'widthPercent': 0.45, 'rescaleHeight': False, 'trialN': 18, 'loaded': True, 'loadedTime': 5699, 'positionName': 'LEFT', 'positionCoords': [510.6, 335], 'bid': 6.03}, {'imgObject': {}, 'id': 'popsicles', 'src': '/static/foodstim60/popsicles.jpg', 'key': 'i', 'origWidth': 410, 'origHeight': 410, 'width': 410, 'height': 410, 'widthPercent': 0.45, 'rescaleHeight': False, 'trialN': 18, 'loaded': True, 'loadedTime': 6387, 'positionName': 'RIGHT', 'positionCoords': [998.4, 335], 'bid': 2.75}]",43494,1669831887807,yogurt no spoon,popsicles,6.03,2.75,-3.2800000000000002,yogurt no spoon,1468,1468,1468.0,True,u,45469,1975,1669831889782,1975,HRV,HRV_0178,2022-11-30 18:20:19
19,"[{'imgObject': {}, 'id': 'sushi w_condiments', 'src': '/static/foodstim60/sushi w_condiments.jpg', 'key': 'u', 'origWidth': 410, 'origHeight': 410, 'width': 410, 'height': 410, 'widthPercent': 0.45, 'rescaleHeight': False, 'trialN': 19, 'loaded': True, 'loadedTime': 5724, 'positionName': 'LEFT', 'positionCoords': [511.6, 335], 'bid': 0.11}, {'imgObject': {}, 'id': 'Tribe humus pita', 'src': '/static/foodstim60/Tribe humus pita.jpg', 'key': 'i', 'origWidth': 411, 'origHeight': 411, 'width': 411, 'height': 411, 'widthPercent': 0.45, 'rescaleHeight': False, 'trialN': 19, 'loaded': True, 'loadedTime': 5705, 'positionName': 'RIGHT', 'positionCoords': [998.4, 334.5], 'bid': 2.37}]",45470,1669831889783,sushi w_condiments,Tribe humus pita,0.11,2.37,2.2600000000000002,Tribe humus pita,1788,1788,1788.0,True,i,47765,2295,1669831892078,2295,HRV,HRV_0178,2022-11-30 18:20:19
20,"[{'imgObject': {}, 'id': 'rigatoni', 'src': '/static/foodstim60/rigatoni.jpg', 'key': 'u', 'origWidth': 411, 'origHeight': 411, 'width': 411, 'height': 411, 'widthPercent': 0.45, 'rescaleHeight': False, 'trialN': 20, 'loaded': True, 'loadedTime': 5726, 'positionName': 'LEFT', 'positionCoords': [510.6, 334.5], 'bid': 3.76}, {'imgObject': {}, 'id': 'cheerios', 'src': '/static/foodstim60/cheerios.jpg', 'key': 'i', 'origWidth': 409, 'origHeight': 410, 'width': 409, 'height': 410, 'widthPercent': 0.45, 'rescaleHeight': False, 'trialN': 20, 'loaded': True, 'loadedTime': 5062, 'positionName': 'RIGHT', 'positionCoords': [998.4, 335], 'bid': 4.61}]",47765,1669831892078,rigatoni,cheerios,3.76,4.61,0.8500000000000005,cheerios,1964,1965,1965.0,True,i,50236,2471,1669831894549,2471,HRV,HRV_0178,2022-11-30 18:20:19
21,"[{'imgObject': {}, 'id': 'froot loops w milk', 'src': '/static/foodstim60/froot loops w milk.jpg', 'key': 'u', 'origWidth': 410, 'origHeight': 410, 'width': 410, 'height': 410, 'widthPercent': 0.45, 'rescaleHeight': False, 'trialN': 21, 'loaded': True, 'loadedTime': 5738, 'positionName': 'LEFT', 'positionCoords': [511.6, 335], 'bid': 6.51}, {'imgObject': {}, 'id': 'sushi w_condiments', 'src': '/static/foodstim60/sushi w_condiments.jpg', 'key': 'i', 'origWidth': 410, 'origHeight': 410, 'width': 410, 'height': 410, 'widthPercent': 0.45, 'rescaleHeight': False, 'trialN': 21, 'loaded': True, 'loadedTime': 5722, 'positionName': 'RIGHT', 'positionCoords': [998.4, 335], 'bid': 0.11}]",50236,1669831894549,froot loops w milk,sushi w_condiments,6.51,0.11,-6.3999999999999995,froot loops w milk,1310,1311,1311.0,True,u,52053,1817,1669831896366,1817,HRV,HRV_0178,2022-11-30 18:20:19
22,"[{'imgObject': {}, 'id': 'granola w milk', 'src': '/static/foodstim60/granola w milk.jpg', 'key': 'u', 'origWidth': 410, 'origHeight': 410, 'width': 410, 'height': 410, 'widthPercent': 0.45, 'rescaleHeight': False, 'trialN': 22, 'loaded': True, 'loadedTime': 5186, 'positionName': 'LEFT', 'positionCoords': [511.6, 335], 'bid': 7.37}, {'imgObject': {}, 'id': 'kiwi', 'src': '/static/foodstim60/kiwi.jpg', 'key': 'i', 'origWidth': 410, 'origHeight': 410, 'width': 410, 'height': 410, 'widthPercent': 0.45, 'rescaleHeight': False, 'trialN': 22, 'loaded': True, 'loadedTime': 5519, 'positionName': 'RIGHT', 'positionCoords': [998.4, 335], 'bid': 7.44}]",52053,1669831896366,granola w milk,kiwi,7.37,7.44,0.07000000000000028,kiwi,2236,2237,2237.0,True,i,54797,2744,1669831899110,2744,HRV,HRV_0178,2022-11-30 18:20:19
23,"[{'imgObject': {}, 'id': 'roastedpotatoes', 'src': '/static/foodstim60/roastedpotatoes.jpg', 'key': 'u', 'origWidth': 409, 'origHeight': 410, 'width': 409, 'height': 410, 'widthPercent': 0.45, 'rescaleHeight': False, 'trialN': 23, 'loaded': True, 'loadedTime': 5521, 'positionName': 'LEFT', 'positionCoords': [512.6, 335], 'bid': 7.8}, {'imgObject': {}, 'id': 'burger', 'src': '/static/foodstim60/burger.jpg', 'key': 'i', 'origWidth': 409, 'origHeight': 409, 'width': 409, 'height': 409, 'widthPercent': 0.45, 'rescaleHeight': False, 'trialN': 23, 'loaded': True, 'loadedTime': 5744, 'positionName': 'RIGHT', 'positionCoords': [998.4, 335.5], 'bid': 7.97}]",54798,1669831899111,roastedpotatoes,burger,7.8,7.97,0.16999999999999993,burger,1044,1044,1044.0,True,i,56349,1551,1669831900662,1551,HRV,HRV_0178,2022-11-30 18:20:19
24,"[{'imgObject': {}, 'id': 'cocktailshrimp', 'src': '/static/foodstim60/cocktailshrimp.jpg', 'key': 'u', 'origWidth': 410, 'origHeight': 410, 'width': 410, 'height': 410, 'widthPercent': 0.45, 'rescaleHeight': False, 'trialN': 24, 'loaded': True, 'loadedTime': 5839, 'positionName': 'LEFT', 'positionCoords': [511.6, 335], 'bid': 8.59}, {'imgObject': {}, 'id': 'omelette', 'src': '/static/foodstim60/omelette.jpg', 'key': 'i', 'origWidth': 410, 'origHeight': 409, 'width': 410, 'height': 409, 'widthPercent': 0.45, 'rescaleHeight': False, 'trialN': 24, 'loaded': True, 'loadedTime': 5625, 'positionName': 'RIGHT', 'positionCoords': [998.4, 335.5], 'bid': 7.54}]",56349,1669831900662,cocktailshrimp,omelette,8.59,7.54,-1.0499999999999998,cocktailshrimp,1213,1213,1213.0,True,u,58069,1720,1669831902381,1719,HRV,HRV_0178,2022-11-30 18:20:19
25,"[{'imgObject': {}, 'id': 'Grapes', 'src': '/static/foodstim60/Grapes.jpg', 'key': 'u', 'origWidth': 411, 'origHeight': 411, 'width': 411, 'height': 411, 'widthPercent': 0.45, 'rescaleHeight': False, 'trialN': 25, 'loaded': True, 'loadedTime': 4815, 'positionName': 'LEFT', 'positionCoords': [510.6, 334.5], 'bid': 6.0200000000000005}, {'imgObject': {}, 'id': 'mac & cheese', 'src': '/static/foodstim60/mac & cheese.jpg', 'key': 'i', 'origWidth': 410, 'origHeight': 410, 'width': 410, 'height': 410, 'widthPercent': 0.45, 'rescaleHeight': False, 'trialN': 25, 'loaded': True, 'loadedTime': 5284, 'positionName': 'RIGHT', 'positionCoords': [998.4, 335], 'bid': 2.48}]",58069,1669831902381,Grapes,mac & cheese,6.0200000000000005,2.48,-3.5400000000000005,Grapes,1396,1397,1397.0,True,u,59973,1904,1669831904285,1904,HRV,HRV_0178,2022-11-30 18:20:19
26,"[{'imgObject': {}, 'id': 'seaweed', 'src': '/static/foodstim60/seaweed.jpg', 'key': 'u', 'origWidth': 410, 'origHeight': 410, 'width': 410, 'height': 410, 'widthPercent': 0.45, 'rescaleHeight': False, 'trialN': 26, 'loaded': True, 'loadedTime': 5854, 'positionName': 'LEFT', 'positionCoords': [511.6, 335], 'bid': 0.06}, {'imgObject': {}, 'id': 'popsicles', 'src': '/static/foodstim60/popsicles.jpg', 'key': 'i', 'origWidth': 410, 'origHeight': 410, 'width': 410, 'height': 410, 'widthPercent': 0.45, 'rescaleHeight': False, 'trialN': 26, 'loaded': True, 'loadedTime': 6381, 'positionName': 'RIGHT', 'positionCoords': [998.4, 335], 'bid': 2.75}]",59973,1669831904285,seaweed,popsicles,0.06,2.75,2.69,popsicles,1316,1317,1317.0,True,i,61797,1824,1669831906109,1824,HRV,HRV_0178,2022-11-30 18:20:19
27,"[{'imgObject': {}, 'id': 'hashbrowns', 'src': '/static/foodstim60/hashbrowns.jpg', 'key': 'u', 'origWidth': 411, 'origHeight': 410, 'width': 411, 'height': 410, 'widthPercent': 0.45, 'rescaleHeight': False, 'trialN': 27, 'loaded': True, 'loadedTime': 5499, 'positionName': 'LEFT', 'positionCoords': [510.6, 335], 'bid': 1.81}, {'imgObject': {}, 'id': 'fruitsalad', 'src': '/static/foodstim60/fruitsalad.jpg', 'key': 'i', 'origWidth': 410, 'origHeight': 410, 'width': 410, 'height': 410, 'widthPercent': 0.45, 'rescaleHeight': False, 'trialN': 27, 'loaded': True, 'loadedTime': 5887, 'positionName': 'RIGHT', 'positionCoords': [998.4, 335], 'bid': 6.93}]",61797,1669831906109,hashbrowns,fruitsalad,1.81,6.93,5.119999999999999,fruitsalad,948,948,948.0,True,i,63253,1456,1669831907565,1456,HRV,HRV_0178,2022-11-30 18:20:19
28,"[{'imgObject': {}, 'id': 'froot loops w milk', 'src': '/static/foodstim60/froot loops w milk.jpg', 'key': 'u', 'origWidth': 410, 'origHeight': 410, 'width': 410, 'height': 410, 'widthPercent': 0.45, 'rescaleHeight': False, 'trialN': 28, 'loaded': True, 'loadedTime': 5736, 'positionName': 'LEFT', 'positionCoords': [511.6, 335], 'bid': 6.51}, {'imgObject': {}, 'id': 'blackbeanswithrice', 'src': '/static/foodstim60/blackbeanswithrice.jpg', 'key': 'i', 'origWidth': 410, 'origHeight': 410, 'width': 410, 'height': 410, 'widthPercent': 0.45, 'rescaleHeight': False, 'trialN': 28, 'loaded': True, 'loadedTime': 5896, 'positionName': 'RIGHT', 'positionCoords': [998.4, 335], 'bid': 6.4}]",63253,1669831907565,froot loops w milk,blackbeanswithrice,6.51,6.4,-0.10999999999999943,blackbeanswithrice,2908,2909,2909.0,True,i,66669,3416,1669831910981,3416,HRV,HRV_0178,2022-11-30 18:20:19
29,"[{'imgObject': {}, 'id': 'eggs', 'src': '/static/foodstim60/eggs.jpg', 'key': 'u', 'origWidth': 409, 'origHeight': 409, 'width': 409, 'height': 409, 'widthPercent': 0.45, 'rescaleHeight': False, 'trialN': 29, 'loaded': True, 'loadedTime': 5398, 'positionName': 'LEFT', 'positionCoords': [512.6, 335.5], 'bid': 8.620000000000001}, {'imgObject': {}, 'id': 'salmon', 'src': '/static/foodstim60/salmon.jpg', 'key': 'i', 'origWidth': 410, 'origHeight': 409, 'width': 410, 'height': 409, 'widthPercent': 0.45, 'rescaleHeight': False, 'trialN': 29, 'loaded': True, 'loadedTime': 5940, 'positionName': 'RIGHT', 'positionCoords': [998.4, 335.5], 'bid': 9.3}]",66669,1669831910981,eggs,salmon,8.620000000000001,9.3,0.6799999999999997,salmon,843,844,844.0,True,i,68021,1352,1669831912333,1352,HRV,HRV_0178,2022-11-30 18:20:19
30,"[{'imgObject': {}, 'id': 'burrito', 'src': '/static/foodstim60/burrito.jpg', 'key': 'u', 'origWidth': 410, 'origHeight': 410, 'width': 410, 'height': 410, 'widthPercent': 0.45, 'rescaleHeight': False, 'trialN': 30, 'loaded': True, 'loadedTime': 5415, 'positionName': 'LEFT', 'positionCoords': [511.6, 335], 'bid': 7.56}, {'imgObject': {}, 'id': 'rigatoni', 'src': '/static/foodstim60/rigatoni.jpg', 'key': 'i', 'origWidth': 411, 'origHeight': 411, 'width': 411, 'height': 411, 'widthPercent': 0.45, 'rescaleHeight': False, 'trialN': 30, 'loaded': True, 'loadedTime': 5724, 'positionName': 'RIGHT', 'positionCoords': [998.4, 334.5], 'bid': 3.76}]",68022,1669831912334,burrito,rigatoni,7.56,3.76,-3.8,burrito,1163,1164,1164.0,True,u,69693,1671,1669831914005,1671,HRV,HRV_0178,2022-11-30 18:20:19
31,"[{'imgObject': {}, 'id': 'raspberries', 'src': '/static/foodstim60/raspberries.jpg', 'key': 'u', 'origWidth': 411, 'origHeight': 411, 'width': 411, 'height': 411, 'widthPercent': 0.45, 'rescaleHeight': False, 'trialN': 31, 'loaded': True, 'loadedTime': 5464, 'positionName': 'LEFT', 'positionCoords': [510.6, 334.5], 'bid': 4.89}, {'imgObject': {}, 'id': 'ice cream sundae 002', 'src': '/static/foodstim60/ice cream sundae 002.jpg', 'key': 'i', 'origWidth': 409, 'origHeight': 409, 'width': 409, 'height': 409, 'widthPercent': 0.45, 'rescaleHeight': False, 'trialN': 31, 'loaded': True, 'loadedTime': 5943, 'positionName': 'RIGHT', 'positionCoords': [998.4, 335.5], 'bid': 5.15}]",69693,1669831914005,raspberries,ice cream sundae 002,4.89,5.15,0.2600000000000007,ice cream sundae 002,2100,2100,2100.0,True,i,72301,2608,1669831916613,2608,HRV,HRV_0178,2022-11-30 18:20:19
32,"[{'imgObject': {}, 'id': 'banana', 'src': '/static/foodstim60/banana.jpg', 'key': 'u', 'origWidth': 410, 'origHeight': 410, 'width': 410, 'height': 410, 'widthPercent': 0.45, 'rescaleHeight': False, 'trialN': 32, 'loaded': True, 'loadedTime': 5993, 'positionName': 'LEFT', 'positionCoords': [511.6, 335], 'bid': 8.13}, {'imgObject': {}, 'id': 'strawberries', 'src': '/static/foodstim60/strawberries.jpg', 'key': 'i', 'origWidth': 410, 'origHeight': 410, 'width': 410, 'height': 410, 'widthPercent': 0.45, 'rescaleHeight': False, 'trialN': 32, 'loaded': True, 'loadedTime': 6020, 'positionName': 'RIGHT', 'positionCoords': [998.4, 335], 'bid': 8.43}]",72301,1669831916613,banana,strawberries,8.13,8.43,0.29999999999999893,strawberries,2012,2012,2012.0,True,i,74821,2520,1669831919133,2520,HRV,HRV_0178,2022-11-30 18:20:19
33,"[{'imgObject': {}, 'id': 'sushi w_condiments', 'src': '/static/foodstim60/sushi w_condiments.jpg', 'key': 'u', 'origWidth': 410, 'origHeight': 410, 'width': 410, 'height': 410, 'widthPercent': 0.45, 'rescaleHeight': False, 'trialN': 33, 'loaded': True, 'loadedTime': 5722, 'positionName': 'LEFT', 'positionCoords': [511.6, 335], 'bid': 0.11}, {'imgObject': {}, 'id': 'seaweed', 'src': '/static/foodstim60/seaweed.jpg', 'key': 'i', 'origWidth': 410, 'origHeight': 410, 'width': 410, 'height': 410, 'widthPercent': 0.45, 'rescaleHeight': False, 'trialN': 33, 'loaded': True, 'loadedTime': 5852, 'positionName': 'RIGHT', 'positionCoords': [998.4, 335], 'bid': 0.06}]",74821,1669831919133,sushi w_condiments,seaweed,0.11,0.06,-0.05,sushi w_condiments,2656,2656,2656.0,True,u,77981,3160,1669831922293,3160,HRV,HRV_0178,2022-11-30 18:20:19
34,"[{'imgObject': {}, 'id': 'avocado', 'src': '/static/foodstim60/avocado.jpg', 'key': 'u', 'origWidth': 409, 'origHeight': 409, 'width': 409, 'height': 409, 'widthPercent': 0.45, 'rescaleHeight': False, 'trialN': 34, 'loaded': True, 'loadedTime': 6036, 'positionName': 'LEFT', 'positionCoords': [512.6, 335.5], 'bid': 4.63}, {'imgObject': {}, 'id': 'mashed potato', 'src': '/static/foodstim60/mashed potato.jpg', 'key': 'i', 'origWidth': 409, 'origHeight': 409, 'width': 409, 'height': 409, 'widthPercent': 0.45, 'rescaleHeight': False, 'trialN': 34, 'loaded': True, 'loadedTime': 6059, 'positionName': 'RIGHT', 'positionCoords': [998.4, 335.5], 'bid': 3.92}]",77981,1669831922293,avocado,mashed potato,4.63,3.92,-0.71,avocado,1768,1769,1769.0,True,u,80253,2272,1669831924565,2272,HRV,HRV_0178,2022-11-30 18:20:19
35,"[{'imgObject': {}, 'id': 'Tribe humus pita', 'src': '/static/foodstim60/Tribe humus pita.jpg', 'key': 'u', 'origWidth': 411, 'origHeight': 411, 'width': 411, 'height': 411, 'widthPercent': 0.45, 'rescaleHeight': False, 'trialN': 35, 'loaded': True, 'loadedTime': 5704, 'positionName': 'LEFT', 'positionCoords': [510.6, 334.5], 'bid': 2.37}, {'imgObject': {}, 'id': 'hashbrowns', 'src': '/static/foodstim60/hashbrowns.jpg', 'key': 'i', 'origWidth': 411, 'origHeight': 410, 'width': 411, 'height': 410, 'widthPercent': 0.45, 'rescaleHeight': False, 'trialN': 35, 'loaded': True, 'loadedTime': 5501, 'positionName': 'RIGHT', 'positionCoords': [998.4, 335], 'bid': 1.81}]",80253,1669831924565,Tribe humus pita,hashbrowns,2.37,1.81,-0.56,Tribe humus pita,1920,1920,1920.0,True,u,82677,2424,1669831926989,2424,HRV,HRV_0178,2022-11-30 18:20:19
36,"[{'imgObject': {}, 'id': 'orange slices', 'src': '/static/foodstim60/orange slices.jpg', 'key': 'u', 'origWidth': 409, 'origHeight': 410, 'width': 409, 'height': 410, 'widthPercent': 0.45, 'rescaleHeight': False, 'trialN': 36, 'loaded': True, 'loadedTime': 6067, 'positionName': 'LEFT', 'positionCoords': [512.6, 335], 'bid': 6.68}, {'imgObject': {}, 'id': 'bagel and cc', 'src': '/static/foodstim60/bagel and cc.jpg', 'key': 'i', 'origWidth': 410, 'origHeight': 410, 'width': 410, 'height': 410, 'widthPercent': 0.45, 'rescaleHeight': False, 'trialN': 36, 'loaded': True, 'loadedTime': 5694, 'positionName': 'RIGHT', 'positionCoords': [998.4, 335], 'bid': 6.33}]",82677,1669831926989,orange slices,bagel and cc,6.68,6.33,-0.34999999999999964,orange slices,2096,2096,2096.0,True,u,85277,2600,1669831929589,2600,HRV,HRV_0178,2022-11-30 18:20:19
37,"[{'imgObject': {}, 'id': 'fried eggs', 'src': '/static/foodstim60/fried eggs.jpg', 'key': 'u', 'origWidth': 410, 'origHeight': 410, 'width': 410, 'height': 410, 'widthPercent': 0.45, 'rescaleHeight': False, 'trialN': 37, 'loaded': True, 'loadedTime': 6068, 'positionName': 'LEFT', 'positionCoords': [511.6, 335], 'bid': 8.92}, {'imgObject': {}, 'id': 'steak', 'src': '/static/foodstim60/steak.jpg', 'key': 'i', 'origWidth': 410, 'origHeight': 410, 'width': 410, 'height': 410, 'widthPercent': 0.45, 'rescaleHeight': False, 'trialN': 37, 'loaded': True, 'loadedTime': 5363, 'positionName': 'RIGHT', 'positionCoords': [998.4, 335], 'bid': 9.87}]",85277,1669831929589,fried eggs,steak,8.92,9.87,0.9499999999999993,steak,792,793,793.0,True,i,86573,1296,1669831930885,1296,HRV,HRV_0178,2022-11-30 18:20:19
38,"[{'imgObject': {}, 'id': 'banana', 'src': '/static/foodstim60/banana.jpg', 'key': 'u', 'origWidth': 410, 'origHeight': 410, 'width': 410, 'height': 410, 'widthPercent': 0.45, 'rescaleHeight': False, 'trialN': 38, 'loaded': True, 'loadedTime': 5988, 'positionName': 'LEFT', 'positionCoords': [511.6, 335], 'bid': 8.13}, {'imgObject': {}, 'id': 'salmon', 'src': '/static/foodstim60/salmon.jpg', 'key': 'i', 'origWidth': 410, 'origHeight': 409, 'width': 410, 'height': 409, 'widthPercent': 0.45, 'rescaleHeight': False, 'trialN': 38, 'loaded': True, 'loadedTime': 5940, 'positionName': 'RIGHT', 'positionCoords': [998.4, 335.5], 'bid': 9.3}]",86573,1669831930885,banana,salmon,8.13,9.3,1.17,salmon,993,994,994.0,True,i,88069,1496,1669831932381,1496,HRV,HRV_0178,2022-11-30 18:20:19
39,"[{'imgObject': {}, 'id': 'mashed potato', 'src': '/static/foodstim60/mashed potato.jpg', 'key': 'u', 'origWidth': 409, 'origHeight': 409, 'width': 409, 'height': 409, 'widthPercent': 0.45, 'rescaleHeight': False, 'trialN': 39, 'loaded': True, 'loadedTime': 6041, 'positionName': 'LEFT', 'positionCoords': [512.6, 335.5], 'bid': 3.92}, {'imgObject': {}, 'id': 'mango', 'src': '/static/foodstim60/mango.jpg', 'key': 'i', 'origWidth': 411, 'origHeight': 411, 'width': 411, 'height': 411, 'widthPercent': 0.45, 'rescaleHeight': False, 'trialN': 39, 'loaded': True, 'loadedTime': 6075, 'positionName': 'RIGHT', 'positionCoords': [998.4, 334.5], 'bid': 4.2700000000000005}]",88069,1669831932381,mashed potato,mango,3.92,4.2700000000000005,0.35000000000000053,mashed potato,2528,2529,2529.0,True,u,91101,3032,1669831935413,3032,HRV,HRV_0178,2022-11-30 18:20:19
40,"[{'imgObject': {}, 'id': 'seaweed', 'src': '/static/foodstim60/seaweed.jpg', 'key': 'u', 'origWidth': 410, 'origHeight': 410, 'width': 410, 'height': 410, 'widthPercent': 0.45, 'rescaleHeight': False, 'trialN': 40, 'loaded': True, 'loadedTime': 5853, 'positionName': 'LEFT', 'positionCoords': [511.6, 335], 'bid': 0.06}, {'imgObject': {}, 'id': 'sweetpotato', 'src': '/static/foodstim60/sweetpotato.jpg', 'key': 'i', 'origWidth': 410, 'origHeight': 410, 'width': 410, 'height': 410, 'widthPercent': 0.45, 'rescaleHeight': False, 'trialN': 40, 'loaded': True, 'loadedTime': 5584, 'positionName': 'RIGHT', 'positionCoords': [998.4, 335], 'bid': 2.28}]",91101,1669831935413,seaweed,sweetpotato,0.06,2.28,2.2199999999999998,sweetpotato,1160,1160,1160.0,True,i,92765,1664,1669831937077,1664,HRV,HRV_0178,2022-11-30 18:20:19
41,"[{'imgObject': {}, 'id': 'burger', 'src': '/static/foodstim60/burger.jpg', 'key': 'u', 'origWidth': 409, 'origHeight': 409, 'width': 409, 'height': 409, 'widthPercent': 0.45, 'rescaleHeight': False, 'trialN': 41, 'loaded': True, 'loadedTime': 5793, 'positionName': 'LEFT', 'positionCoords': [512.6, 335.5], 'bid': 7.97}, {'imgObject': {}, 'id': 'corn cob', 'src': '/static/foodstim60/corn cob.jpg', 'key': 'i', 'origWidth': 411, 'origHeight': 411, 'width': 411, 'height': 411, 'widthPercent': 0.45, 'rescaleHeight': False, 'trialN': 41, 'loaded': True, 'loadedTime': 5611, 'positionName': 'RIGHT', 'positionCoords': [998.4, 334.5], 'bid': 6.63}]",92765,1669831937077,burger,corn cob,7.97,6.63,-1.3399999999999999,burger,1456,1456,1456.0,True,u,94725,1960,1669831939037,1960,HRV,HRV_0178,2022-11-30 18:20:19
42,"[{'imgObject': {}, 'id': 'banana', 'src': '/static/foodstim60/banana.jpg', 'key': 'u', 'origWidth': 410, 'origHeight': 410, 'width': 410, 'height': 410, 'widthPercent': 0.45, 'rescaleHeight': False, 'trialN': 42, 'loaded': True, 'loadedTime': 5992, 'positionName': 'LEFT', 'positionCoords': [511.6, 335], 'bid': 8.13}, {'imgObject': {}, 'id': 'orange slices', 'src': '/static/foodstim60/orange slices.jpg', 'key': 'i', 'origWidth': 409, 'origHeight': 410, 'width': 409, 'height': 410, 'widthPercent': 0.45, 'rescaleHeight': False, 'trialN': 42, 'loaded': True, 'loadedTime': 6063, 'positionName': 'RIGHT', 'positionCoords': [998.4, 335], 'bid': 6.68}]",94725,1669831939037,banana,orange slices,8.13,6.68,-1.450000000000001,orange slices,2208,2208,2208.0,True,i,97438,2713,1669831941750,2713,HRV,HRV_0178,2022-11-30 18:20:19
43,"[{'imgObject': {}, 'id': 'mashed potato', 'src': '/static/foodstim60/mashed potato.jpg', 'key': 'u', 'origWidth': 409, 'origHeight': 409, 'width': 409, 'height': 409, 'widthPercent': 0.45, 'rescaleHeight': False, 'trialN': 43, 'loaded': True, 'loadedTime': 6060, 'positionName': 'LEFT', 'positionCoords': [512.6, 335.5], 'bid': 3.92}, {'imgObject': {}, 'id': 'cantaloupe', 'src': '/static/foodstim60/cantaloupe.jpg', 'key': 'i', 'origWidth': 409, 'origHeight': 409, 'width': 409, 'height': 409, 'widthPercent': 0.45, 'rescaleHeight': False, 'trialN': 43, 'loaded': True, 'loadedTime': 4750, 'positionName': 'RIGHT', 'positionCoords': [998.4, 335.5], 'bid': 7.59}]",97438,1669831941750,mashed potato,cantaloupe,3.92,7.59,3.67,cantaloupe,1263,1264,1264.0,True,i,99205,1767,1669831943517,1767,HRV,HRV_0178,2022-11-30 18:20:19
44,"[{'imgObject': {}, 'id': 'cheerios', 'src': '/static/foodstim60/cheerios.jpg', 'key': 'u', 'origWidth': 409, 'origHeight': 410, 'width': 409, 'height': 410, 'widthPercent': 0.45, 'rescaleHeight': False, 'trialN': 44, 'loaded': True, 'loadedTime': 5014, 'positionName': 'LEFT', 'positionCoords': [512.6, 335], 'bid': 4.61}, {'imgObject': {}, 'id': 'banana', 'src': '/static/foodstim60/banana.jpg', 'key': 'i', 'origWidth': 410, 'origHeight': 410, 'width': 410, 'height': 410, 'widthPercent': 0.45, 'rescaleHeight': False, 'trialN': 44, 'loaded': True, 'loadedTime': 5992, 'positionName': 'RIGHT', 'positionCoords': [998.4, 335], 'bid': 8.13}]",99205,1669831943517,cheerios,banana,4.61,8.13,3.5200000000000005,banana,2008,2008,2008.0,True,i,101717,2512,1669831946029,2512,HRV,HRV_0178,2022-11-30 18:20:19
45,"[{'imgObject': {}, 'id': 'raspberries', 'src': '/static/foodstim60/raspberries.jpg', 'key': 'u', 'origWidth': 411, 'origHeight': 411, 'width': 411, 'height': 411, 'widthPercent': 0.45, 'rescaleHeight': False, 'trialN': 45, 'loaded': True, 'loadedTime': 5492, 'positionName': 'LEFT', 'positionCoords': [510.6, 334.5], 'bid': 4.89}, {'imgObject': {}, 'id': 'edamame', 'src': '/static/foodstim60/edamame.jpg', 'key': 'i', 'origWidth': 409, 'origHeight': 410, 'width': 409, 'height': 410, 'widthPercent': 0.45, 'rescaleHeight': False, 'trialN': 45, 'loaded': True, 'loadedTime': 5368, 'positionName': 'RIGHT', 'positionCoords': [998.4, 335], 'bid': 4.26}]",101717,1669831946029,raspberries,edamame,4.89,4.26,-0.6299999999999999,raspberries,2576,2577,2577.0,True,u,104797,3080,1669831949109,3080,HRV,HRV_0178,2022-11-30 18:20:19
46,"[{'imgObject': {}, 'id': 'banana', 'src': '/static/foodstim60/banana.jpg', 'key': 'u', 'origWidth': 410, 'origHeight': 410, 'width': 410, 'height': 410, 'widthPercent': 0.45, 'rescaleHeight': False, 'trialN': 46, 'loaded': True, 'loadedTime': 5993, 'positionName': 'LEFT', 'positionCoords': [511.6, 335], 'bid': 8.13}, {'imgObject': {}, 'id': 'hotdog w must', 'src': '/static/foodstim60/hotdog w must.jpg', 'key': 'i', 'origWidth': 409, 'origHeight': 409, 'width': 409, 'height': 409, 'widthPercent': 0.45, 'rescaleHeight': False, 'trialN': 46, 'loaded': True, 'loadedTime': 6220, 'positionName': 'RIGHT', 'positionCoords': [998.4, 335.5], 'bid': 8.540000000000001}]",104797,1669831949109,banana,hotdog w must,8.13,8.540000000000001,0.41000000000000014,hotdog w must,1672,1673,1673.0,True,i,106972,2175,1669831951284,2175,HRV,HRV_0178,2022-11-30 18:20:19
47,"[{'imgObject': {}, 'id': 'rigatoni and sauce', 'src': '/static/foodstim60/rigatoni and sauce.jpg', 'key': 'u', 'origWidth': 410, 'origHeight': 411, 'width': 410, 'height': 411, 'widthPercent': 0.45, 'rescaleHeight': False, 'trialN': 47, 'loaded': True, 'loadedTime': 5349, 'positionName': 'LEFT', 'positionCoords': [511.6, 334.5], 'bid': 4.47}, {'imgObject': {}, 'id': 'cherries', 'src': '/static/foodstim60/cherries.jpg', 'key': 'i', 'origWidth': 410, 'origHeight': 411, 'width': 410, 'height': 411, 'widthPercent': 0.45, 'rescaleHeight': False, 'trialN': 47, 'loaded': True, 'loadedTime': 6229, 'positionName': 'RIGHT', 'positionCoords': [998.4, 334.5], 'bid': 0.12}]",106972,1669831951284,rigatoni and sauce,cherries,4.47,0.12,-4.35,rigatoni and sauce,2382,2382,2382.0,True,u,109861,2889,1669831954173,2889,HRV,HRV_0178,2022-11-30 18:20:19
48,"[{'imgObject': {}, 'id': 'chickenfingers', 'src': '/static/foodstim60/chickenfingers.jpg', 'key': 'u', 'origWidth': 410, 'origHeight': 410, 'width': 410, 'height': 410, 'widthPercent': 0.45, 'rescaleHeight': False, 'trialN': 48, 'loaded': True, 'loadedTime': 5371, 'positionName': 'LEFT', 'positionCoords': [511.6, 335], 'bid': 7.66}, {'imgObject': {}, 'id': 'steak', 'src': '/static/foodstim60/steak.jpg', 'key': 'i', 'origWidth': 410, 'origHeight': 410, 'width': 410, 'height': 410, 'widthPercent': 0.45, 'rescaleHeight': False, 'trialN': 48, 'loaded': True, 'loadedTime': 5363, 'positionName': 'RIGHT', 'positionCoords': [998.4, 335], 'bid': 9.87}]",109861,1669831954173,chickenfingers,steak,7.66,9.87,2.209999999999999,steak,844,845,845.0,True,i,111213,1352,1669831955525,1352,HRV,HRV_0178,2022-11-30 18:20:19
49,"[{'imgObject': {}, 'id': 'mango', 'src': '/static/foodstim60/mango.jpg', 'key': 'u', 'origWidth': 411, 'origHeight': 411, 'width': 411, 'height': 411, 'widthPercent': 0.45, 'rescaleHeight': False, 'trialN': 49, 'loaded': True, 'loadedTime': 6215, 'positionName': 'LEFT', 'positionCoords': [510.6, 334.5], 'bid': 4.2700000000000005}, {'imgObject': {}, 'id': 'hashbrowns', 'src': '/static/foodstim60/hashbrowns.jpg', 'key': 'i', 'origWidth': 411, 'origHeight': 410, 'width': 411, 'height': 410, 'widthPercent': 0.45, 'rescaleHeight': False, 'trialN': 49, 'loaded': True, 'loadedTime': 5501, 'positionName': 'RIGHT', 'positionCoords': [998.4, 335], 'bid': 1.81}]",111213,1669831955525,mango,hashbrowns,4.2700000000000005,1.81,-2.4600000000000004,mango,2348,2348,2348.0,True,u,114069,2856,1669831958381,2856,HRV,HRV_0178,2022-11-30 18:20:19
50,"[{'imgObject': {}, 'id': 'burger', 'src': '/static/foodstim60/burger.jpg', 'key': 'u', 'origWidth': 409, 'origHeight': 409, 'width': 409, 'height': 409, 'widthPercent': 0.45, 'rescaleHeight': False, 'trialN': 50, 'loaded': True, 'loadedTime': 5792, 'positionName': 'LEFT', 'positionCoords': [512.6, 335.5], 'bid': 7.97}, {'imgObject': {}, 'id': 'pear', 'src': '/static/foodstim60/pear.jpg', 'key': 'i', 'origWidth': 411, 'origHeight': 410, 'width': 411, 'height': 410, 'widthPercent': 0.45, 'rescaleHeight': False, 'trialN': 50, 'loaded': True, 'loadedTime': 6250, 'positionName': 'RIGHT', 'positionCoords': [998.4, 335], 'bid': 7.77}]",114069,1669831958381,burger,pear,7.97,7.77,-0.20000000000000018,burger,1212,1213,1213.0,True,u,115788,1719,1669831960100,1719,HRV,HRV_0178,2022-11-30 18:20:19
51,"[{'imgObject': {}, 'id': 'blackbeanswithrice', 'src': '/static/foodstim60/blackbeanswithrice.jpg', 'key': 'u', 'origWidth': 410, 'origHeight': 410, 'width': 410, 'height': 410, 'widthPercent': 0.45, 'rescaleHeight': False, 'trialN': 51, 'loaded': True, 'loadedTime': 5893, 'positionName': 'LEFT', 'positionCoords': [511.6, 335], 'bid': 6.4}, {'imgObject': {}, 'id': 'chicken nuggets2', 'src': '/static/foodstim60/chicken nuggets2.jpg', 'key': 'i', 'origWidth': 410, 'origHeight': 409, 'width': 410, 'height': 409, 'widthPercent': 0.45, 'rescaleHeight': False, 'trialN': 51, 'loaded': True, 'loadedTime': 5144, 'positionName': 'RIGHT', 'positionCoords': [998.4, 335.5], 'bid': 6.38}]",115788,1669831960100,blackbeanswithrice,chicken nuggets2,6.4,6.38,-0.020000000000000462,chicken nuggets2,2021,2021,2021.0,True,i,118317,2529,1669831962629,2529,HRV,HRV_0178,2022-11-30 18:20:19
52,"[{'imgObject': {}, 'id': 'sweetpotato', 'src': '/static/foodstim60/sweetpotato.jpg', 'key': 'u', 'origWidth': 410, 'origHeight': 410, 'width': 410, 'height': 410, 'widthPercent': 0.45, 'rescaleHeight': False, 'trialN': 52, 'loaded': True, 'loadedTime': 5585, 'positionName': 'LEFT', 'positionCoords': [511.6, 335], 'bid': 2.28}, {'imgObject': {}, 'id': 'shreddedwheatwithmilk', 'src': '/static/foodstim60/shreddedwheatwithmilk.jpg', 'key': 'i', 'origWidth': 410, 'origHeight': 410, 'width': 410, 'height': 410, 'widthPercent': 0.45, 'rescaleHeight': False, 'trialN': 52, 'loaded': True, 'loadedTime': 5355, 'positionName': 'RIGHT', 'positionCoords': [998.4, 335], 'bid': 4.3}]",118317,1669831962629,sweetpotato,shreddedwheatwithmilk,2.28,4.3,2.02,shreddedwheatwithmilk,1397,1397,1397.0,True,i,120221,1904,1669831964533,1904,HRV,HRV_0178,2022-11-30 18:20:19
53,"[{'imgObject': {}, 'id': 'fruitsalad', 'src': '/static/foodstim60/fruitsalad.jpg', 'key': 'u', 'origWidth': 410, 'origHeight': 410, 'width': 410, 'height': 410, 'widthPercent': 0.45, 'rescaleHeight': False, 'trialN': 53, 'loaded': True, 'loadedTime': 5889, 'positionName': 'LEFT', 'positionCoords': [511.6, 335], 'bid': 6.93}, {'imgObject': {}, 'id': 'hotdog w must', 'src': '/static/foodstim60/hotdog w must.jpg', 'key': 'i', 'origWidth': 409, 'origHeight': 409, 'width': 409, 'height': 409, 'widthPercent': 0.45, 'rescaleHeight': False, 'trialN': 53, 'loaded': True, 'loadedTime': 6218, 'positionName': 'RIGHT', 'positionCoords': [998.4, 335.5], 'bid': 8.540000000000001}]",120221,1669831964533,fruitsalad,hotdog w must,6.93,8.540000000000001,1.6100000000000012,hotdog w must,916,917,917.0,True,i,121645,1424,1669831965957,1424,HRV,HRV_0178,2022-11-30 18:20:19
54,"[{'imgObject': {}, 'id': 'strawberries', 'src': '/static/foodstim60/strawberries.jpg', 'key': 'u', 'origWidth': 410, 'origHeight': 410, 'width': 410, 'height': 410, 'widthPercent': 0.45, 'rescaleHeight': False, 'trialN': 54, 'loaded': True, 'loadedTime': 6012, 'positionName': 'LEFT', 'positionCoords': [511.6, 335], 'bid': 8.43}, {'imgObject': {}, 'id': 'steak', 'src': '/static/foodstim60/steak.jpg', 'key': 'i', 'origWidth': 410, 'origHeight': 410, 'width': 410, 'height': 410, 'widthPercent': 0.45, 'rescaleHeight': False, 'trialN': 54, 'loaded': True, 'loadedTime': 5362, 'positionName': 'RIGHT', 'positionCoords': [998.4, 335], 'bid': 9.87}]",121645,1669831965957,strawberries,steak,8.43,9.87,1.4399999999999995,steak,708,709,709.0,True,i,122861,1216,1669831967173,1216,HRV,HRV_0178,2022-11-30 18:20:19
55,"[{'imgObject': {}, 'id': 'apple slices', 'src': '/static/foodstim60/apple slices.jpg', 'key': 'u', 'origWidth': 409, 'origHeight': 410, 'width': 409, 'height': 410, 'widthPercent': 0.45, 'rescaleHeight': False, 'trialN': 55, 'loaded': True, 'loadedTime': 5578, 'positionName': 'LEFT', 'positionCoords': [512.6, 335], 'bid': 7.52}, {'imgObject': {}, 'id': 'turkey sandwich', 'src': '/static/foodstim60/turkey sandwich.jpg', 'key': 'i', 'origWidth': 409, 'origHeight': 409, 'width': 409, 'height': 409, 'widthPercent': 0.45, 'rescaleHeight': False, 'trialN': 55, 'loaded': True, 'loadedTime': 6254, 'positionName': 'RIGHT', 'positionCoords': [998.4, 335.5], 'bid': 8.76}]",122861,1669831967173,apple slices,turkey sandwich,7.52,8.76,1.2400000000000002,turkey sandwich,956,957,957.0,True,i,124325,1464,1669831968637,1464,HRV,HRV_0178,2022-11-30 18:20:19
56,"[{'imgObject': {}, 'id': 'sushi w_condiments', 'src': '/static/foodstim60/sushi w_condiments.jpg', 'key': 'u', 'origWidth': 410, 'origHeight': 410, 'width': 410, 'height': 410, 'widthPercent': 0.45, 'rescaleHeight': False, 'trialN': 56, 'loaded': True, 'loadedTime': 5724, 'positionName': 'LEFT', 'positionCoords': [511.6, 335], 'bid': 0.11}, {'imgObject': {}, 'id': 'olives', 'src': '/static/foodstim60/olives.jpg', 'key': 'i', 'origWidth': 410, 'origHeight': 410, 'width': 410, 'height': 410, 'widthPercent': 0.45, 'rescaleHeight': False, 'trialN': 56, 'loaded': True, 'loadedTime': 4956, 'positionName': 'RIGHT', 'positionCoords': [998.4, 335], 'bid': 0.81}]",124325,1669831968637,sushi w_condiments,olives,0.11,0.81,0.7000000000000001,olives,1828,1829,1829.0,True,i,126661,2336,1669831970973,2336,HRV,HRV_0178,2022-11-30 18:20:19
57,"[{'imgObject': {}, 'id': 'eggs', 'src': '/static/foodstim60/eggs.jpg', 'key': 'u', 'origWidth': 409, 'origHeight': 409, 'width': 409, 'height': 409, 'widthPercent': 0.45, 'rescaleHeight': False, 'trialN': 57, 'loaded': True, 'loadedTime': 5412, 'positionName': 'LEFT', 'positionCoords': [512.6, 335.5], 'bid': 8.620000000000001}, {'imgObject': {}, 'id': 'lox', 'src': '/static/foodstim60/lox.jpg', 'key': 'i', 'origWidth': 410, 'origHeight': 411, 'width': 410, 'height': 411, 'widthPercent': 0.45, 'rescaleHeight': False, 'trialN': 57, 'loaded': True, 'loadedTime': 5359, 'positionName': 'RIGHT', 'positionCoords': [998.4, 334.5], 'bid': 8.63}]",126662,1669831970974,eggs,lox,8.620000000000001,8.63,0.009999999999999787,lox,1971,1972,1972.0,True,i,129140,2478,1669831973452,2478,HRV,HRV_0178,2022-11-30 18:20:19
58,"[{'imgObject': {}, 'id': 'grilled chicken strips', 'src': '/static/foodstim60/grilled chicken strips.jpg', 'key': 'u', 'origWidth': 410, 'origHeight': 411, 'width': 410, 'height': 411, 'widthPercent': 0.45, 'rescaleHeight': False, 'trialN': 58, 'loaded': True, 'loadedTime': 6258, 'positionName': 'LEFT', 'positionCoords': [511.6, 334.5], 'bid': 8.86}, {'imgObject': {}, 'id': 'omelette', 'src': '/static/foodstim60/omelette.jpg', 'key': 'i', 'origWidth': 410, 'origHeight': 409, 'width': 410, 'height': 409, 'widthPercent': 0.45, 'rescaleHeight': False, 'trialN': 58, 'loaded': True, 'loadedTime': 5686, 'positionName': 'RIGHT', 'positionCoords': [998.4, 335.5], 'bid': 7.54}]",129140,1669831973452,grilled chicken strips,omelette,8.86,7.54,-1.3199999999999994,grilled chicken strips,1701,1701,1701.0,True,u,131349,2209,1669831975661,2209,HRV,HRV_0178,2022-11-30 18:20:19
59,"[{'imgObject': {}, 'id': 'eggs', 'src': '/static/foodstim60/eggs.jpg', 'key': 'u', 'origWidth': 409, 'origHeight': 409, 'width': 409, 'height': 409, 'widthPercent': 0.45, 'rescaleHeight': False, 'trialN': 59, 'loaded': True, 'loadedTime': 5395, 'positionName': 'LEFT', 'positionCoords': [512.6, 335.5], 'bid': 8.620000000000001}, {'imgObject': {}, 'id': 'blueberries', 'src': '/static/foodstim60/blueberries.jpg', 'key': 'i', 'origWidth': 411, 'origHeight': 411, 'width': 411, 'height': 411, 'widthPercent': 0.45, 'rescaleHeight': False, 'trialN': 59, 'loaded': True, 'loadedTime': 6266, 'positionName': 'RIGHT', 'positionCoords': [998.4, 334.5], 'bid': 5.25}]",131349,1669831975661,eggs,blueberries,8.620000000000001,5.25,-3.370000000000001,eggs,1731,1732,1732.0,True,u,133581,2232,1669831977893,2232,HRV,HRV_0178,2022-11-30 18:20:19
60,"[{'imgObject': {}, 'id': 'cheerios', 'src': '/static/foodstim60/cheerios.jpg', 'key': 'u', 'origWidth': 409, 'origHeight': 410, 'width': 409, 'height': 410, 'widthPercent': 0.45, 'rescaleHeight': False, 'trialN': 60, 'loaded': True, 'loadedTime': 5010, 'positionName': 'LEFT', 'positionCoords': [512.6, 335], 'bid': 4.61}, {'imgObject': {}, 'id': 'eggsalad', 'src': '/static/foodstim60/eggsalad.jpg', 'key': 'i', 'origWidth': 410, 'origHeight': 409, 'width': 410, 'height': 409, 'widthPercent': 0.45, 'rescaleHeight': False, 'trialN': 60, 'loaded': True, 'loadedTime': 6268, 'positionName': 'RIGHT', 'positionCoords': [998.4, 335.5], 'bid': 2.44}]",133581,1669831977893,cheerios,eggsalad,4.61,2.44,-2.1700000000000004,cheerios,2227,2228,2228.0,True,u,136318,2737,1669831980630,2737,HRV,HRV_0178,2022-11-30 18:20:19
61,"[{'imgObject': {}, 'id': 'lox', 'src': '/static/foodstim60/lox.jpg', 'key': 'u', 'origWidth': 410, 'origHeight': 411, 'width': 410, 'height': 411, 'widthPercent': 0.45, 'rescaleHeight': False, 'trialN': 61, 'loaded': True, 'loadedTime': 5358, 'positionName': 'LEFT', 'positionCoords': [511.6, 334.5], 'bid': 8.63}, {'imgObject': {}, 'id': 'granola w milk', 'src': '/static/foodstim60/granola w milk.jpg', 'key': 'i', 'origWidth': 410, 'origHeight': 410, 'width': 410, 'height': 410, 'widthPercent': 0.45, 'rescaleHeight': False, 'trialN': 61, 'loaded': True, 'loadedTime': 5192, 'positionName': 'RIGHT', 'positionCoords': [998.4, 335], 'bid': 7.37}]",136318,1669831980630,lox,granola w milk,8.63,7.37,-1.2600000000000007,lox,1635,1635,1635.0,True,u,138477,2159,1669831982789,2159,HRV,HRV_0178,2022-11-30 18:20:19
62,"[{'imgObject': {}, 'id': 'cocktailshrimp', 'src': '/static/foodstim60/cocktailshrimp.jpg', 'key': 'u', 'origWidth': 410, 'origHeight': 410, 'width': 410, 'height': 410, 'widthPercent': 0.45, 'rescaleHeight': False, 'trialN': 62, 'loaded': True, 'loadedTime': 5839, 'positionName': 'LEFT', 'positionCoords': [511.6, 335], 'bid': 8.59}, {'imgObject': {}, 'id': 'baked potato', 'src': '/static/foodstim60/baked potato.jpg', 'key': 'i', 'origWidth': 409, 'origHeight': 410, 'width': 409, 'height': 410, 'widthPercent': 0.45, 'rescaleHeight': False, 'trialN': 62, 'loaded': True, 'loadedTime': 5317, 'positionName': 'RIGHT', 'positionCoords': [998.4, 335], 'bid': 7.34}]",138477,1669831982789,cocktailshrimp,baked potato,8.59,7.34,-1.25,cocktailshrimp,1504,1505,1505.0,True,u,140485,2008,1669831984797,2008,HRV,HRV_0178,2022-11-30 18:20:19
63,"[{'imgObject': {}, 'id': 'cantaloupe', 'src': '/static/foodstim60/cantaloupe.jpg', 'key': 'u', 'origWidth': 409, 'origHeight': 409, 'width': 409, 'height': 409, 'widthPercent': 0.45, 'rescaleHeight': False, 'trialN': 63, 'loaded': True, 'loadedTime': 4772, 'positionName': 'LEFT', 'positionCoords': [512.6, 335.5], 'bid': 7.59}, {'imgObject': {}, 'id': 'burrito', 'src': '/static/foodstim60/burrito.jpg', 'key': 'i', 'origWidth': 410, 'origHeight': 410, 'width': 410, 'height': 410, 'widthPercent': 0.45, 'rescaleHeight': False, 'trialN': 63, 'loaded': True, 'loadedTime': 5414, 'positionName': 'RIGHT', 'positionCoords': [998.4, 335], 'bid': 7.56}]",140485,1669831984797,cantaloupe,burrito,7.59,7.56,-0.03000000000000025,burrito,1812,1812,1812.0,True,i,142805,2320,1669831987117,2320,HRV,HRV_0178,2022-11-30 18:20:19
64,"[{'imgObject': {}, 'id': 'hotdog w must', 'src': '/static/foodstim60/hotdog w must.jpg', 'key': 'u', 'origWidth': 409, 'origHeight': 409, 'width': 409, 'height': 409, 'widthPercent': 0.45, 'rescaleHeight': False, 'trialN': 64, 'loaded': True, 'loadedTime': 6219, 'positionName': 'LEFT', 'positionCoords': [512.6, 335.5], 'bid': 8.540000000000001}, {'imgObject': {}, 'id': 'apple slices', 'src': '/static/foodstim60/apple slices.jpg', 'key': 'i', 'origWidth': 409, 'origHeight': 410, 'width': 409, 'height': 410, 'widthPercent': 0.45, 'rescaleHeight': False, 'trialN': 64, 'loaded': True, 'loadedTime': 5576, 'positionName': 'RIGHT', 'positionCoords': [998.4, 335], 'bid': 7.52}]",142805,1669831987117,hotdog w must,apple slices,8.540000000000001,7.52,-1.0200000000000014,hotdog w must,1984,1984,1984.0,True,u,145293,2488,1669831989605,2488,HRV,HRV_0178,2022-11-30 18:20:19
65,"[{'imgObject': {}, 'id': 'cherry tomato', 'src': '/static/foodstim60/cherry tomato.jpg', 'key': 'u', 'origWidth': 410, 'origHeight': 410, 'width': 410, 'height': 410, 'widthPercent': 0.45, 'rescaleHeight': False, 'trialN': 65, 'loaded': True, 'loadedTime': 6275, 'positionName': 'LEFT', 'positionCoords': [511.6, 335], 'bid': 1.6}, {'imgObject': {}, 'id': 'popsicles', 'src': '/static/foodstim60/popsicles.jpg', 'key': 'i', 'origWidth': 410, 'origHeight': 410, 'width': 410, 'height': 410, 'widthPercent': 0.45, 'rescaleHeight': False, 'trialN': 65, 'loaded': True, 'loadedTime': 6382, 'positionName': 'RIGHT', 'positionCoords': [998.4, 335], 'bid': 2.75}]",145293,1669831989605,cherry tomato,popsicles,1.6,2.75,1.15,popsicles,2224,2225,2225.0,True,i,148021,2728,1669831992333,2728,HRV,HRV_0178,2022-11-30 18:20:19
66,"[{'imgObject': {}, 'id': 'edamame', 'src': '/static/foodstim60/edamame.jpg', 'key': 'u', 'origWidth': 409, 'origHeight': 410, 'width': 409, 'height': 410, 'widthPercent': 0.45, 'rescaleHeight': False, 'trialN': 66, 'loaded': True, 'loadedTime': 5365, 'positionName': 'LEFT', 'positionCoords': [512.6, 335], 'bid': 4.26}, {'imgObject': {}, 'id': 'mango', 'src': '/static/foodstim60/mango.jpg', 'key': 'i', 'origWidth': 411, 'origHeight': 411, 'width': 411, 'height': 411, 'widthPercent': 0.45, 'rescaleHeight': False, 'trialN': 66, 'loaded': True, 'loadedTime': 6216, 'positionName': 'RIGHT', 'positionCoords': [998.4, 334.5], 'bid': 4.2700000000000005}]",148021,1669831992333,edamame,mango,4.26,4.2700000000000005,0.010000000000000675,edamame,2232,2232,2232.0,True,u,150757,2736,1669831995069,2736,HRV,HRV_0178,2022-11-30 18:20:19
67,"[{'imgObject': {}, 'id': 'rigatoni and sauce', 'src': '/static/foodstim60/rigatoni and sauce.jpg', 'key': 'u', 'origWidth': 410, 'origHeight': 411, 'width': 410, 'height': 411, 'widthPercent': 0.45, 'rescaleHeight': False, 'trialN': 67, 'loaded': True, 'loadedTime': 5344, 'positionName': 'LEFT', 'positionCoords': [511.6, 334.5], 'bid': 4.47}, {'imgObject': {}, 'id': 'avocado', 'src': '/static/foodstim60/avocado.jpg', 'key': 'i', 'origWidth': 409, 'origHeight': 409, 'width': 409, 'height': 409, 'widthPercent': 0.45, 'rescaleHeight': False, 'trialN': 67, 'loaded': True, 'loadedTime': 6021, 'positionName': 'RIGHT', 'positionCoords': [998.4, 335.5], 'bid': 4.63}]",150757,1669831995069,rigatoni and sauce,avocado,4.47,4.63,0.16000000000000014,avocado,2480,2480,2480.0,True,i,153741,2984,1669831998053,2984,HRV,HRV_0178,2022-11-30 18:20:19
68,"[{'imgObject': {}, 'id': 'turkeysandwich', 'src': '/static/foodstim60/turkeysandwich.jpg', 'key': 'u', 'origWidth': 409, 'origHeight': 409, 'width': 409, 'height': 409, 'widthPercent': 0.45, 'rescaleHeight': False, 'trialN': 68, 'loaded': True, 'loadedTime': 4262, 'positionName': 'LEFT', 'positionCoords': [512.6, 335.5], 'bid': 7.35}, {'imgObject': {}, 'id': 'eggs', 'src': '/static/foodstim60/eggs.jpg', 'key': 'i', 'origWidth': 409, 'origHeight': 409, 'width': 409, 'height': 409, 'widthPercent': 0.45, 'rescaleHeight': False, 'trialN': 68, 'loaded': True, 'loadedTime': 5398, 'positionName': 'RIGHT', 'positionCoords': [998.4, 335.5], 'bid': 8.620000000000001}]",153741,1669831998053,turkeysandwich,eggs,7.35,8.620000000000001,1.2700000000000014,turkeysandwich,1408,1408,1408.0,True,u,155653,1912,1669831999965,1912,HRV,HRV_0178,2022-11-30 18:20:19
69,"[{'imgObject': {}, 'id': 'roastedpotatoes', 'src': '/static/foodstim60/roastedpotatoes.jpg', 'key': 'u', 'origWidth': 409, 'origHeight': 410, 'width': 409, 'height': 410, 'widthPercent': 0.45, 'rescaleHeight': False, 'trialN': 69, 'loaded': True, 'loadedTime': 5551, 'positionName': 'LEFT', 'positionCoords': [512.6, 335], 'bid': 7.8}, {'imgObject': {}, 'id': 'chickenfingers', 'src': '/static/foodstim60/chickenfingers.jpg', 'key': 'i', 'origWidth': 410, 'origHeight': 410, 'width': 410, 'height': 410, 'widthPercent': 0.45, 'rescaleHeight': False, 'trialN': 69, 'loaded': True, 'loadedTime': 5372, 'positionName': 'RIGHT', 'positionCoords': [998.4, 335], 'bid': 7.66}]",155653,1669831999965,roastedpotatoes,chickenfingers,7.8,7.66,-0.13999999999999968,chickenfingers,1056,1056,1056.0,True,i,157213,1560,1669832001525,1560,HRV,HRV_0178,2022-11-30 18:20:19
70,"[{'imgObject': {}, 'id': 'orange slices', 'src': '/static/foodstim60/orange slices.jpg', 'key': 'u', 'origWidth': 409, 'origHeight': 410, 'width': 409, 'height': 410, 'widthPercent': 0.45, 'rescaleHeight': False, 'trialN': 70, 'loaded': True, 'loadedTime': 6060, 'positionName': 'LEFT', 'positionCoords': [512.6, 335], 'bid': 6.68}, {'imgObject': {}, 'id': 'olives', 'src': '/static/foodstim60/olives.jpg', 'key': 'i', 'origWidth': 410, 'origHeight': 410, 'width': 410, 'height': 410, 'widthPercent': 0.45, 'rescaleHeight': False, 'trialN': 70, 'loaded': True, 'loadedTime': 4960, 'positionName': 'RIGHT', 'positionCoords': [998.4, 335], 'bid': 0.81}]",157213,1669832001525,orange slices,olives,6.68,0.81,-5.869999999999999,orange slices,1160,1160,1160.0,True,u,158877,1664,1669832003189,1664,HRV,HRV_0178,2022-11-30 18:20:19
71,"[{'imgObject': {}, 'id': 'cocktailshrimp', 'src': '/static/foodstim60/cocktailshrimp.jpg', 'key': 'u', 'origWidth': 410, 'origHeight': 410, 'width': 410, 'height': 410, 'widthPercent': 0.45, 'rescaleHeight': False, 'trialN': 71, 'loaded': True, 'loadedTime': 5843, 'positionName': 'LEFT', 'positionCoords': [511.6, 335], 'bid': 8.59}, {'imgObject': {}, 'id': 'strawberries', 'src': '/static/foodstim60/strawberries.jpg', 'key': 'i', 'origWidth': 410, 'origHeight': 410, 'width': 410, 'height': 410, 'widthPercent': 0.45, 'rescaleHeight': False, 'trialN': 71, 'loaded': True, 'loadedTime': 6019, 'positionName': 'RIGHT', 'positionCoords': [998.4, 335], 'bid': 8.43}]",158877,1669832003189,cocktailshrimp,strawberries,8.59,8.43,-0.16000000000000014,cocktailshrimp,1816,1816,1816.0,True,u,161197,2320,1669832005509,2320,HRV,HRV_0178,2022-11-30 18:20:19
72,"[{'imgObject': {}, 'id': 'shreddedwheatwithmilk', 'src': '/static/foodstim60/shreddedwheatwithmilk.jpg', 'key': 'u', 'origWidth': 410, 'origHeight': 410, 'width': 410, 'height': 410, 'widthPercent': 0.45, 'rescaleHeight': False, 'trialN': 72, 'loaded': True, 'loadedTime': 5354, 'positionName': 'LEFT', 'positionCoords': [511.6, 335], 'bid': 4.3}, {'imgObject': {}, 'id': 'cheerios', 'src': '/static/foodstim60/cheerios.jpg', 'key': 'i', 'origWidth': 409, 'origHeight': 410, 'width': 409, 'height': 410, 'widthPercent': 0.45, 'rescaleHeight': False, 'trialN': 72, 'loaded': True, 'loadedTime': 5059, 'positionName': 'RIGHT', 'positionCoords': [998.4, 335], 'bid': 4.61}]",161197,1669832005509,shreddedwheatwithmilk,cheerios,4.3,4.61,0.3100000000000005,shreddedwheatwithmilk,2632,2633,2633.0,True,u,164333,3136,1669832008645,3136,HRV,HRV_0178,2022-11-30 18:20:19
73,"[{'imgObject': {}, 'id': 'strawberries', 'src': '/static/foodstim60/strawberries.jpg', 'key': 'u', 'origWidth': 410, 'origHeight': 410, 'width': 410, 'height': 410, 'widthPercent': 0.45, 'rescaleHeight': False, 'trialN': 73, 'loaded': True, 'loadedTime': 6020, 'positionName': 'LEFT', 'positionCoords': [511.6, 335], 'bid': 8.43}, {'imgObject': {}, 'id': 'raisin bran w milk', 'src': '/static/foodstim60/raisin bran w milk.jpg', 'key': 'i', 'origWidth': 411, 'origHeight': 411, 'width': 411, 'height': 411, 'widthPercent': 0.45, 'rescaleHeight': False, 'trialN': 73, 'loaded': True, 'loadedTime': 6310, 'positionName': 'RIGHT', 'positionCoords': [998.4, 334.5], 'bid': 6.84}]",164333,1669832008645,strawberries,raisin bran w milk,8.43,6.84,-1.5899999999999999,strawberries,1760,1760,1760.0,True,u,166597,2264,1669832010909,2264,HRV,HRV_0178,2022-11-30 18:20:19
74,"[{'imgObject': {}, 'id': 'tacos', 'src': '/static/foodstim60/tacos.jpg', 'key': 'u', 'origWidth': 411, 'origHeight': 411, 'width': 411, 'height': 411, 'widthPercent': 0.45, 'rescaleHeight': False, 'trialN': 74, 'loaded': True, 'loadedTime': 4865, 'positionName': 'LEFT', 'positionCoords': [510.6, 334.5], 'bid': 8.67}, {'imgObject': {}, 'id': 'eggs', 'src': '/static/foodstim60/eggs.jpg', 'key': 'i', 'origWidth': 409, 'origHeight': 409, 'width': 409, 'height': 409, 'widthPercent': 0.45, 'rescaleHeight': False, 'trialN': 74, 'loaded': True, 'loadedTime': 5412, 'positionName': 'RIGHT', 'positionCoords': [998.4, 335.5], 'bid': 8.620000000000001}]",166597,1669832010909,tacos,eggs,8.67,8.620000000000001,-0.049999999999998934,tacos,1016,1016,1016.0,True,u,168116,1519,1669832012428,1519,HRV,HRV_0178,2022-11-30 18:20:19
75,"[{'imgObject': {}, 'id': 'strawberries', 'src': '/static/foodstim60/strawberries.jpg', 'key': 'u', 'origWidth': 410, 'origHeight': 410, 'width': 410, 'height': 410, 'widthPercent': 0.45, 'rescaleHeight': False, 'trialN': 75, 'loaded': True, 'loadedTime': 6010, 'positionName': 'LEFT', 'positionCoords': [511.6, 335], 'bid': 8.43}, {'imgObject': {}, 'id': 'avocado', 'src': '/static/foodstim60/avocado.jpg', 'key': 'i', 'origWidth': 409, 'origHeight': 409, 'width': 409, 'height': 409, 'widthPercent': 0.45, 'rescaleHeight': False, 'trialN': 75, 'loaded': True, 'loadedTime': 6034, 'positionName': 'RIGHT', 'positionCoords': [998.4, 335.5], 'bid': 4.63}]",168116,1669832012428,strawberries,avocado,8.43,4.63,-3.8,strawberries,1401,1401,1401.0,True,u,170021,1905,1669832014333,1905,HRV,HRV_0178,2022-11-30 18:20:19
76,"[{'imgObject': {}, 'id': 'froot loops w milk', 'src': '/static/foodstim60/froot loops w milk.jpg', 'key': 'u', 'origWidth': 410, 'origHeight': 410, 'width': 410, 'height': 410, 'widthPercent': 0.45, 'rescaleHeight': False, 'trialN': 76, 'loaded': True, 'loadedTime': 5738, 'positionName': 'LEFT', 'positionCoords': [511.6, 335], 'bid': 6.51}, {'imgObject': {}, 'id': 'ice cream sundae 002', 'src': '/static/foodstim60/ice cream sundae 002.jpg', 'key': 'i', 'origWidth': 409, 'origHeight': 409, 'width': 409, 'height': 409, 'widthPercent': 0.45, 'rescaleHeight': False, 'trialN': 76, 'loaded': True, 'loadedTime': 5941, 'positionName': 'RIGHT', 'positionCoords': [998.4, 335.5], 'bid': 5.15}]",170021,1669832014333,froot loops w milk,ice cream sundae 002,6.51,5.15,-1.3599999999999994,froot loops w milk,2993,2993,2993.0,True,u,173517,3496,1669832017829,3496,HRV,HRV_0178,2022-11-30 18:20:19
77,"[{'imgObject': {}, 'id': 'roastedpotatoes', 'src': '/static/foodstim60/roastedpotatoes.jpg', 'key': 'u', 'origWidth': 409, 'origHeight': 410, 'width': 409, 'height': 410, 'widthPercent': 0.45, 'rescaleHeight': False, 'trialN': 77, 'loaded': True, 'loadedTime': 5552, 'positionName': 'LEFT', 'positionCoords': [512.6, 335], 'bid': 7.8}, {'imgObject': {}, 'id': 'grilled chicken strips', 'src': '/static/foodstim60/grilled chicken strips.jpg', 'key': 'i', 'origWidth': 410, 'origHeight': 411, 'width': 410, 'height': 411, 'widthPercent': 0.45, 'rescaleHeight': False, 'trialN': 77, 'loaded': True, 'loadedTime': 6258, 'positionName': 'RIGHT', 'positionCoords': [998.4, 334.5], 'bid': 8.86}]",173517,1669832017829,roastedpotatoes,grilled chicken strips,7.8,8.86,1.0599999999999996,grilled chicken strips,841,842,842.0,True,i,174861,1344,1669832019173,1344,HRV,HRV_0178,2022-11-30 18:20:19
78,"[{'imgObject': {}, 'id': 'bagel plain', 'src': '/static/foodstim60/bagel plain.jpg', 'key': 'u', 'origWidth': 410, 'origHeight': 410, 'width': 410, 'height': 410, 'widthPercent': 0.45, 'rescaleHeight': False, 'trialN': 78, 'loaded': True, 'loadedTime': 5624, 'positionName': 'LEFT', 'positionCoords': [511.6, 335], 'bid': 6.2700000000000005}, {'imgObject': {}, 'id': 'baked potato', 'src': '/static/foodstim60/baked potato.jpg', 'key': 'i', 'origWidth': 409, 'origHeight': 410, 'width': 409, 'height': 410, 'widthPercent': 0.45, 'rescaleHeight': False, 'trialN': 78, 'loaded': True, 'loadedTime': 5317, 'positionName': 'RIGHT', 'positionCoords': [998.4, 335], 'bid': 7.34}]",174861,1669832019173,bagel plain,baked potato,6.2700000000000005,7.34,1.0699999999999994,baked potato,1692,1692,1692.0,True,i,177061,2200,1669832021373,2200,HRV,HRV_0178,2022-11-30 18:20:19
79,"[{'imgObject': {}, 'id': 'blueberries', 'src': '/static/foodstim60/blueberries.jpg', 'key': 'u', 'origWidth': 411, 'origHeight': 411, 'width': 411, 'height': 411, 'widthPercent': 0.45, 'rescaleHeight': False, 'trialN': 79, 'loaded': True, 'loadedTime': 6264, 'positionName': 'LEFT', 'positionCoords': [510.6, 334.5], 'bid': 5.25}, {'imgObject': {}, 'id': 'Tribe humus pita', 'src': '/static/foodstim60/Tribe humus pita.jpg', 'key': 'i', 'origWidth': 411, 'origHeight': 411, 'width': 411, 'height': 411, 'widthPercent': 0.45, 'rescaleHeight': False, 'trialN': 79, 'loaded': True, 'loadedTime': 5705, 'positionName': 'RIGHT', 'positionCoords': [998.4, 334.5], 'bid': 2.37}]",177061,1669832021373,blueberries,Tribe humus pita,5.25,2.37,-2.88,blueberries,2412,2413,2413.0,True,u,179981,2920,1669832024293,2920,HRV,HRV_0178,2022-11-30 18:20:19
80,"[{'imgObject': {}, 'id': 'rigatoni', 'src': '/static/foodstim60/rigatoni.jpg', 'key': 'u', 'origWidth': 411, 'origHeight': 411, 'width': 411, 'height': 411, 'widthPercent': 0.45, 'rescaleHeight': False, 'trialN': 80, 'loaded': True, 'loadedTime': 5728, 'positionName': 'LEFT', 'positionCoords': [510.6, 334.5], 'bid': 3.76}, {'imgObject': {}, 'id': 'mashed potato', 'src': '/static/foodstim60/mashed potato.jpg', 'key': 'i', 'origWidth': 409, 'origHeight': 409, 'width': 409, 'height': 409, 'widthPercent': 0.45, 'rescaleHeight': False, 'trialN': 80, 'loaded': True, 'loadedTime': 6059, 'positionName': 'RIGHT', 'positionCoords': [998.4, 335.5], 'bid': 3.92}]",179981,1669832024293,rigatoni,mashed potato,3.76,3.92,0.16000000000000014,mashed potato,2820,2820,2820.0,True,i,183309,3328,1669832027621,3328,HRV,HRV_0178,2022-11-30 18:20:19
81,"[{'imgObject': {}, 'id': 'bagel plain', 'src': '/static/foodstim60/bagel plain.jpg', 'key': 'u', 'origWidth': 410, 'origHeight': 410, 'width': 410, 'height': 410, 'widthPercent': 0.45, 'rescaleHeight': False, 'trialN': 81, 'loaded': True, 'loadedTime': 5622, 'positionName': 'LEFT', 'positionCoords': [511.6, 335], 'bid': 6.2700000000000005}, {'imgObject': {}, 'id': 'Grapes', 'src': '/static/foodstim60/Grapes.jpg', 'key': 'i', 'origWidth': 411, 'origHeight': 411, 'width': 411, 'height': 411, 'widthPercent': 0.45, 'rescaleHeight': False, 'trialN': 81, 'loaded': True, 'loadedTime': 4824, 'positionName': 'RIGHT', 'positionCoords': [998.4, 334.5], 'bid': 6.0200000000000005}]",183309,1669832027621,bagel plain,Grapes,6.2700000000000005,6.0200000000000005,-0.25,Grapes,1444,1445,1445.0,True,i,185261,1952,1669832029573,1952,HRV,HRV_0178,2022-11-30 18:20:19
82,"[{'imgObject': {}, 'id': 'luckycharms', 'src': '/static/foodstim60/luckycharms.jpg', 'key': 'u', 'origWidth': 410, 'origHeight': 409, 'width': 410, 'height': 409, 'widthPercent': 0.45, 'rescaleHeight': False, 'trialN': 82, 'loaded': True, 'loadedTime': 6312, 'positionName': 'LEFT', 'positionCoords': [511.6, 335.5], 'bid': 6.390000000000001}, {'imgObject': {}, 'id': 'steak', 'src': '/static/foodstim60/steak.jpg', 'key': 'i', 'origWidth': 410, 'origHeight': 410, 'width': 410, 'height': 410, 'widthPercent': 0.45, 'rescaleHeight': False, 'trialN': 82, 'loaded': True, 'loadedTime': 5365, 'positionName': 'RIGHT', 'positionCoords': [998.4, 335], 'bid': 9.87}]",185261,1669832029573,luckycharms,steak,6.390000000000001,9.87,3.4799999999999986,steak,828,828,828.0,True,i,186597,1336,1669832030909,1336,HRV,HRV_0178,2022-11-30 18:20:19
83,"[{'imgObject': {}, 'id': 'omelette', 'src': '/static/foodstim60/omelette.jpg', 'key': 'u', 'origWidth': 410, 'origHeight': 409, 'width': 410, 'height': 409, 'widthPercent': 0.45, 'rescaleHeight': False, 'trialN': 83, 'loaded': True, 'loadedTime': 5681, 'positionName': 'LEFT', 'positionCoords': [511.6, 335.5], 'bid': 7.54}, {'imgObject': {}, 'id': 'apple slices', 'src': '/static/foodstim60/apple slices.jpg', 'key': 'i', 'origWidth': 409, 'origHeight': 410, 'width': 409, 'height': 410, 'widthPercent': 0.45, 'rescaleHeight': False, 'trialN': 83, 'loaded': True, 'loadedTime': 5577, 'positionName': 'RIGHT', 'positionCoords': [998.4, 335], 'bid': 7.52}]",186597,1669832030909,omelette,apple slices,7.54,7.52,-0.020000000000000462,omelette,1812,1813,1813.0,True,u,188917,2320,1669832033229,2320,HRV,HRV_0178,2022-11-30 18:20:19
84,"[{'imgObject': {}, 'id': 'blueberries', 'src': '/static/foodstim60/blueberries.jpg', 'key': 'u', 'origWidth': 411, 'origHeight': 411, 'width': 411, 'height': 411, 'widthPercent': 0.45, 'rescaleHeight': False, 'trialN': 84, 'loaded': True, 'loadedTime': 6265, 'positionName': 'LEFT', 'positionCoords': [510.6, 334.5], 'bid': 5.25}, {'imgObject': {}, 'id': 'shreddedwheatwithmilk', 'src': '/static/foodstim60/shreddedwheatwithmilk.jpg', 'key': 'i', 'origWidth': 410, 'origHeight': 410, 'width': 410, 'height': 410, 'widthPercent': 0.45, 'rescaleHeight': False, 'trialN': 84, 'loaded': True, 'loadedTime': 5352, 'positionName': 'RIGHT', 'positionCoords': [998.4, 335], 'bid': 4.3}]",188918,1669832033230,blueberries,shreddedwheatwithmilk,5.25,4.3,-0.9500000000000002,shreddedwheatwithmilk,2140,2141,2141.0,True,i,191565,2647,1669832035877,2647,HRV,HRV_0178,2022-11-30 18:20:19
85,"[{'imgObject': {}, 'id': 'steak', 'src': '/static/foodstim60/steak.jpg', 'key': 'u', 'origWidth': 410, 'origHeight': 410, 'width': 410, 'height': 410, 'widthPercent': 0.45, 'rescaleHeight': False, 'trialN': 85, 'loaded': True, 'loadedTime': 5364, 'positionName': 'LEFT', 'positionCoords': [511.6, 335], 'bid': 9.87}, {'imgObject': {}, 'id': 'salmon', 'src': '/static/foodstim60/salmon.jpg', 'key': 'i', 'origWidth': 410, 'origHeight': 409, 'width': 410, 'height': 409, 'widthPercent': 0.45, 'rescaleHeight': False, 'trialN': 85, 'loaded': True, 'loadedTime': 5897, 'positionName': 'RIGHT', 'positionCoords': [998.4, 335.5], 'bid': 9.3}]",191565,1669832035877,steak,salmon,9.87,9.3,-0.5699999999999985,steak,1268,1268,1268.0,True,u,193341,1776,1669832037653,1776,HRV,HRV_0178,2022-11-30 18:20:19
86,"[{'imgObject': {}, 'id': 'pear', 'src': '/static/foodstim60/pear.jpg', 'key': 'u', 'origWidth': 411, 'origHeight': 410, 'width': 411, 'height': 410, 'widthPercent': 0.45, 'rescaleHeight': False, 'trialN': 86, 'loaded': True, 'loadedTime': 6251, 'positionName': 'LEFT', 'positionCoords': [510.6, 335], 'bid': 7.77}, {'imgObject': {}, 'id': 'mango', 'src': '/static/foodstim60/mango.jpg', 'key': 'i', 'origWidth': 411, 'origHeight': 411, 'width': 411, 'height': 411, 'widthPercent': 0.45, 'rescaleHeight': False, 'trialN': 86, 'loaded': True, 'loadedTime': 6075, 'positionName': 'RIGHT', 'positionCoords': [998.4, 334.5], 'bid': 4.2700000000000005}]",193341,1669832037653,pear,mango,7.77,4.2700000000000005,-3.499999999999999,pear,1348,1348,1348.0,True,u,195197,1856,1669832039509,1856,HRV,HRV_0178,2022-11-30 18:20:19
87,"[{'imgObject': {}, 'id': 'cherries', 'src': '/static/foodstim60/cherries.jpg', 'key': 'u', 'origWidth': 410, 'origHeight': 411, 'width': 410, 'height': 411, 'widthPercent': 0.45, 'rescaleHeight': False, 'trialN': 87, 'loaded': True, 'loadedTime': 6228, 'positionName': 'LEFT', 'positionCoords': [511.6, 334.5], 'bid': 0.12}, {'imgObject': {}, 'id': 'rigatoni', 'src': '/static/foodstim60/rigatoni.jpg', 'key': 'i', 'origWidth': 411, 'origHeight': 411, 'width': 411, 'height': 411, 'widthPercent': 0.45, 'rescaleHeight': False, 'trialN': 87, 'loaded': True, 'loadedTime': 5726, 'positionName': 'RIGHT', 'positionCoords': [998.4, 334.5], 'bid': 3.76}]",195197,1669832039509,cherries,rigatoni,0.12,3.76,3.6399999999999997,rigatoni,1263,1264,1264.0,True,i,196965,1768,1669832041277,1768,HRV,HRV_0178,2022-11-30 18:20:19
88,"[{'imgObject': {}, 'id': 'eggsalad', 'src': '/static/foodstim60/eggsalad.jpg', 'key': 'u', 'origWidth': 410, 'origHeight': 409, 'width': 410, 'height': 409, 'widthPercent': 0.45, 'rescaleHeight': False, 'trialN': 88, 'loaded': True, 'loadedTime': 6266, 'positionName': 'LEFT', 'positionCoords': [511.6, 335.5], 'bid': 2.44}, {'imgObject': {}, 'id': 'salad w chicken', 'src': '/static/foodstim60/salad w chicken.jpg', 'key': 'i', 'origWidth': 411, 'origHeight': 411, 'width': 411, 'height': 411, 'widthPercent': 0.45, 'rescaleHeight': False, 'trialN': 88, 'loaded': True, 'loadedTime': 6321, 'positionName': 'RIGHT', 'positionCoords': [998.4, 334.5], 'bid': 5.9}]",196965,1669832041277,eggsalad,salad w chicken,2.44,5.9,3.4600000000000004,salad w chicken,2213,2213,2213.0,True,i,199685,2720,1669832043997,2720,HRV,HRV_0178,2022-11-30 18:20:19
89,"[{'imgObject': {}, 'id': 'tacos', 'src': '/static/foodstim60/tacos.jpg', 'key': 'u', 'origWidth': 411, 'origHeight': 411, 'width': 411, 'height': 411, 'widthPercent': 0.45, 'rescaleHeight': False, 'trialN': 89, 'loaded': True, 'loadedTime': 4931, 'positionName': 'LEFT', 'positionCoords': [510.6, 334.5], 'bid': 8.67}, {'imgObject': {}, 'id': 'banana', 'src': '/static/foodstim60/banana.jpg', 'key': 'i', 'origWidth': 410, 'origHeight': 410, 'width': 410, 'height': 410, 'widthPercent': 0.45, 'rescaleHeight': False, 'trialN': 89, 'loaded': True, 'loadedTime': 6009, 'positionName': 'RIGHT', 'positionCoords': [998.4, 335], 'bid': 8.13}]",199685,1669832043997,tacos,banana,8.67,8.13,-0.5399999999999991,tacos,1091,1092,1092.0,True,u,201277,1592,1669832045589,1592,HRV,HRV_0178,2022-11-30 18:20:19
90,"[{'imgObject': {}, 'id': 'bagel plain', 'src': '/static/foodstim60/bagel plain.jpg', 'key': 'u', 'origWidth': 410, 'origHeight': 410, 'width': 410, 'height': 410, 'widthPercent': 0.45, 'rescaleHeight': False, 'trialN': 90, 'loaded': True, 'loadedTime': 5624, 'positionName': 'LEFT', 'positionCoords': [511.6, 335], 'bid': 6.2700000000000005}, {'imgObject': {}, 'id': 'bagel and cc', 'src': '/static/foodstim60/bagel and cc.jpg', 'key': 'i', 'origWidth': 410, 'origHeight': 410, 'width': 410, 'height': 410, 'widthPercent': 0.45, 'rescaleHeight': False, 'trialN': 90, 'loaded': True, 'loadedTime': 5686, 'positionName': 'RIGHT', 'positionCoords': [998.4, 335], 'bid': 6.33}]",378190,1669832222503,bagel plain,bagel and cc,6.2700000000000005,6.33,0.05999999999999961,NaN,NaN,NaN,,False,NaN,382197,4007,1669832226510,4007,HRV,HRV_0178,2022-11-30 18:20:19
91,"[{'imgObject': {}, 'id': 'kiwi', 'src': '/static/foodstim60/kiwi.jpg', 'key': 'u', 'origWidth': 410, 'origHeight': 410, 'width': 410, 'height': 410, 'widthPercent': 0.45, 'rescaleHeight': False, 'trialN': 91, 'loaded': True, 'loadedTime': 5520, 'positionName': 'LEFT', 'positionCoords': [511.6, 335], 'bid': 7.44}, {'imgObject': {}, 'id': 'mac & cheese', 'src': '/static/foodstim60/mac & cheese.jpg', 'key': 'i', 'origWidth': 410, 'origHeight': 410, 'width': 410, 'height': 410, 'widthPercent': 0.45, 'rescaleHeight': False, 'trialN': 91, 'loaded': True, 'loadedTime': 5285, 'positionName': 'RIGHT', 'positionCoords': [998.4, 335], 'bid': 2.48}]",382197,1669832226510,kiwi,mac & cheese,7.44,2.48,-4.960000000000001,mac & cheese,100,100,100.0,True,i,382805,608,1669832227118,608,HRV,HRV_0178,2022-11-30 18:20:19
92,"[{'imgObject': {}, 'id': 'kiwi', 'src': '/static/foodstim60/kiwi.jpg', 'key': 'u', 'origWidth': 410, 'origHeight': 410, 'width': 410, 'height': 410, 'widthPercent': 0.45, 'rescaleHeight': False, 'trialN': 92, 'loaded': True, 'loadedTime': 5520, 'positionName': 'LEFT', 'positionCoords': [511.6, 335], 'bid': 7.44}, {'imgObject': {}, 'id': 'pear', 'src': '/static/foodstim60/pear.jpg', 'key': 'i', 'origWidth': 411, 'origHeight': 410, 'width': 411, 'height': 410, 'widthPercent': 0.45, 'rescaleHeight': False, 'trialN': 92, 'loaded': True, 'loadedTime': 6232, 'positionName': 'RIGHT', 'positionCoords': [998.4, 335], 'bid': 7.77}]",382805,1669832227118,kiwi,pear,7.44,7.77,0.3299999999999992,kiwi,1788,1819,1818.0,True,u,385125,2320,1669832229438,2320,HRV,HRV_0178,2022-11-30 18:20:19
93,"[{'imgObject': {}, 'id': 'blackbeanswithrice', 'src': '/static/foodstim60/blackbeanswithrice.jpg', 'key': 'u', 'origWidth': 410, 'origHeight': 410, 'width': 410, 'height': 410, 'widthPercent': 0.45, 'rescaleHeight': False, 'trialN': 93, 'loaded': True, 'loadedTime': 5895, 'positionName': 'LEFT', 'positionCoords': [511.6, 335], 'bid': 6.4}, {'imgObject': {}, 'id': 'raspberries', 'src': '/static/foodstim60/raspberries.jpg', 'key': 'i', 'origWidth': 411, 'origHeight': 411, 'width': 411, 'height': 411, 'widthPercent': 0.45, 'rescaleHeight': False, 'trialN': 93, 'loaded': True, 'loadedTime': 5465, 'positionName': 'RIGHT', 'positionCoords': [998.4, 334.5], 'bid': 4.89}]",385125,1669832229438,blackbeanswithrice,raspberries,6.4,4.89,-1.5100000000000007,blackbeanswithrice,1004,1004,1004.0,True,u,386637,1512,1669832230950,1512,HRV,HRV_0178,2022-11-30 18:20:19
94,"[{'imgObject': {}, 'id': 'luckycharms', 'src': '/static/foodstim60/luckycharms.jpg', 'key': 'u', 'origWidth': 410, 'origHeight': 409, 'width': 410, 'height': 409, 'widthPercent': 0.45, 'rescaleHeight': False, 'trialN': 94, 'loaded': True, 'loadedTime': 6316, 'positionName': 'LEFT', 'positionCoords': [511.6, 335.5], 'bid': 6.390000000000001}, {'imgObject': {}, 'id': 'fruitsalad', 'src': '/static/foodstim60/fruitsalad.jpg', 'key': 'i', 'origWidth': 410, 'origHeight': 410, 'width': 410, 'height': 410, 'widthPercent': 0.45, 'rescaleHeight': False, 'trialN': 94, 'loaded': True, 'loadedTime': 5887, 'positionName': 'RIGHT', 'positionCoords': [998.4, 335], 'bid': 6.93}]",386637,1669832230950,luckycharms,fruitsalad,6.390000000000001,6.93,0.5399999999999991,fruitsalad,2229,2231,2231.0,True,i,389373,2736,1669832233686,2736,HRV,HRV_0178,2022-11-30 18:20:19
95,"[{'imgObject': {}, 'id': 'ice cream sundae 002', 'src': '/static/foodstim60/ice cream sundae 002.jpg', 'key': 'u', 'origWidth': 409, 'origHeight': 409, 'width': 409, 'height': 409, 'widthPercent': 0.45, 'rescaleHeight': False, 'trialN': 95, 'loaded': True, 'loadedTime': 5944, 'positionName': 'LEFT', 'positionCoords': [512.6, 335.5], 'bid': 5.15}, {'imgObject': {}, 'id': 'sweetpotato', 'src': '/static/foodstim60/sweetpotato.jpg', 'key': 'i', 'origWidth': 410, 'origHeight': 410, 'width': 410, 'height': 410, 'widthPercent': 0.45, 'rescaleHeight': False, 'trialN': 95, 'loaded': True, 'loadedTime': 5582, 'positionName': 'RIGHT', 'positionCoords': [998.4, 335], 'bid': 2.28}]",389373,1669832233686,ice cream sundae 002,sweetpotato,5.15,2.28,-2.8700000000000006,ice cream sundae 002,1444,1444,1444.0,True,u,391325,1952,1669832235638,1952,HRV,HRV_0178,2022-11-30 18:20:19
96,"[{'imgObject': {}, 'id': 'luckycharms', 'src': '/static/foodstim60/luckycharms.jpg', 'key': 'u', 'origWidth': 410, 'origHeight': 409, 'width': 410, 'height': 409, 'widthPercent': 0.45, 'rescaleHeight': False, 'trialN': 96, 'loaded': True, 'loadedTime': 6319, 'positionName': 'LEFT', 'positionCoords': [511.6, 335.5], 'bid': 6.390000000000001}, {'imgObject': {}, 'id': 'froot loops w milk', 'src': '/static/foodstim60/froot loops w milk.jpg', 'key': 'i', 'origWidth': 410, 'origHeight': 410, 'width': 410, 'height': 410, 'widthPercent': 0.45, 'rescaleHeight': False, 'trialN': 96, 'loaded': True, 'loadedTime': 5743, 'positionName': 'RIGHT', 'positionCoords': [998.4, 335], 'bid': 6.51}]",391325,1669832235638,luckycharms,froot loops w milk,6.390000000000001,6.51,0.11999999999999922,luckycharms,2640,2640,2640.0,True,u,394468,3143,1669832238781,3143,HRV,HRV_0178,2022-11-30 18:20:19
97,"[{'imgObject': {}, 'id': 'eggsalad', 'src': '/static/foodstim60/eggsalad.jpg', 'key': 'u', 'origWidth': 410, 'origHeight': 409, 'width': 410, 'height': 409, 'widthPercent': 0.45, 'rescaleHeight': False, 'trialN': 97, 'loaded': True, 'loadedTime': 6272, 'positionName': 'LEFT', 'positionCoords': [511.6, 335.5], 'bid': 2.44}, {'imgObject': {}, 'id': 'granola w milk', 'src': '/static/foodstim60/granola w milk.jpg', 'key': 'i', 'origWidth': 410, 'origHeight': 410, 'width': 410, 'height': 410, 'widthPercent': 0.45, 'rescaleHeight': False, 'trialN': 97, 'loaded': True, 'loadedTime': 5182, 'positionName': 'RIGHT', 'positionCoords': [998.4, 335], 'bid': 7.37}]",394468,1669832238781,eggsalad,granola w milk,2.44,7.37,4.93,granola w milk,1373,1373,1373.0,True,i,396349,1881,1669832240662,1881,HRV,HRV_0178,2022-11-30 18:20:19
98,"[{'imgObject': {}, 'id': 'bagel plain', 'src': '/static/foodstim60/bagel plain.jpg', 'key': 'u', 'origWidth': 410, 'origHeight': 410, 'width': 410, 'height': 410, 'widthPercent': 0.45, 'rescaleHeight': False, 'trialN': 98, 'loaded': True, 'loadedTime': 5624, 'positionName': 'LEFT', 'positionCoords': [511.6, 335], 'bid': 6.2700000000000005}, {'imgObject': {}, 'id': 'grilled chicken strips', 'src': '/static/foodstim60/grilled chicken strips.jpg', 'key': 'i', 'origWidth': 410, 'origHeight': 411, 'width': 410, 'height': 411, 'widthPercent': 0.45, 'rescaleHeight': False, 'trialN': 98, 'loaded': True, 'loadedTime': 6255, 'positionName': 'RIGHT', 'positionCoords': [998.4, 334.5], 'bid': 8.86}]",396349,1669832240662,bagel plain,grilled chicken strips,6.2700000000000005,8.86,2.589999999999999,grilled chicken strips,904,904,904.0,True,i,397757,1408,1669832242070,1408,HRV,HRV_0178,2022-11-30 18:20:19
99,"[{'imgObject': {}, 'id': 'rigatoni and sauce', 'src': '/static/foodstim60/rigatoni and sauce.jpg', 'key': 'u', 'origWidth': 410, 'origHeight': 411, 'width': 410, 'height': 411, 'widthPercent': 0.45, 'rescaleHeight': False, 'trialN': 99, 'loaded': True, 'loadedTime': 5351, 'positionName': 'LEFT', 'positionCoords': [511.6, 334.5], 'bid': 4.47}, {'imgObject': {}, 'id': 'salad w chicken', 'src': '/static/foodstim60/salad w chicken.jpg', 'key': 'i', 'origWidth': 411, 'origHeight': 411, 'width': 411, 'height': 411, 'widthPercent': 0.45, 'rescaleHeight': False, 'trialN': 99, 'loaded': True, 'loadedTime': 6321, 'positionName': 'RIGHT', 'positionCoords': [998.4, 334.5], 'bid': 5.9}]",397757,1669832242070,rigatoni and sauce,salad w chicken,4.47,5.9,1.4300000000000006,salad w chicken,1624,1625,1625.0,True,i,399885,2128,1669832244198,2128,HRV,HRV_0178,2022-11-30 18:20:19
100,"[{'imgObject': {}, 'id': 'bagel plain', 'src': '/static/foodstim60/bagel plain.jpg', 'key': 'u', 'origWidth': 410, 'origHeight': 410, 'width': 410, 'height': 410, 'widthPercent': 0.45, 'rescaleHeight': False, 'trialN': 100, 'loaded': True, 'loadedTime': 5624, 'positionName': 'LEFT', 'positionCoords': [511.6, 335], 'bid': 6.2700000000000005}, {'imgObject': {}, 'id': 'veggieswithdip', 'src': '/static/foodstim60/veggieswithdip.jpg', 'key': 'i', 'origWidth': 409, 'origHeight': 409, 'width': 409, 'height': 409, 'widthPercent': 0.45, 'rescaleHeight': False, 'trialN': 100, 'loaded': True, 'loadedTime': 5228, 'positionName': 'RIGHT', 'positionCoords': [998.4, 335.5], 'bid': 3}]",399885,1669832244198,bagel plain,veggieswithdip,6.2700000000000005,3.0,-3.2700000000000005,bagel plain,1908,1908,1908.0,True,u,402301,2416,1669832246614,2416,HRV,HRV_0178,2022-11-30 18:20:19
101,"[{'imgObject': {}, 'id': 'eggsalad', 'src': '/static/foodstim60/eggsalad.jpg', 'key': 'u', 'origWidth': 410, 'origHeight': 409, 'width': 410, 'height': 409, 'widthPercent': 0.45, 'rescaleHeight': False, 'trialN': 101, 'loaded': True, 'loadedTime': 6273, 'positionName': 'LEFT', 'positionCoords': [511.6, 335.5], 'bid': 2.44}, {'imgObject': {}, 'id': 'mac & cheese', 'src': '/static/foodstim60/mac & cheese.jpg', 'key': 'i', 'origWidth': 410, 'origHeight': 410, 'width': 410, 'height': 410, 'widthPercent': 0.45, 'rescaleHeight': False, 'trialN': 101, 'loaded': True, 'loadedTime': 5285, 'positionName': 'RIGHT', 'positionCoords': [998.4, 335], 'bid': 2.48}]",402301,1669832246614,eggsalad,mac & cheese,2.44,2.48,0.040000000000000036,mac & cheese,1856,1857,1857.0,True,i,404661,2360,1669832248974,2360,HRV,HRV_0178,2022-11-30 18:20:19
102,"[{'imgObject': {}, 'id': 'sweetpotato', 'src': '/static/foodstim60/sweetpotato.jpg', 'key': 'u', 'origWidth': 410, 'origHeight': 410, 'width': 410, 'height': 410, 'widthPercent': 0.45, 'rescaleHeight': False, 'trialN': 102, 'loaded': True, 'loadedTime': 5585, 'positionName': 'LEFT', 'positionCoords': [511.6, 335], 'bid': 2.28}, {'imgObject': {}, 'id': 'Tribe humus pita', 'src': '/static/foodstim60/Tribe humus pita.jpg', 'key': 'i', 'origWidth': 411, 'origHeight': 411, 'width': 411, 'height': 411, 'widthPercent': 0.45, 'rescaleHeight': False, 'trialN': 102, 'loaded': True, 'loadedTime': 5704, 'positionName': 'RIGHT', 'positionCoords': [998.4, 334.5], 'bid': 2.37}]",404661,1669832248974,sweetpotato,Tribe humus pita,2.28,2.37,0.0900000000000003,Tribe humus pita,1664,1664,1664.0,True,i,406829,2168,1669832251142,2168,HRV,HRV_0178,2022-11-30 18:20:19
103,"[{'imgObject': {}, 'id': 'raspberries', 'src': '/static/foodstim60/raspberries.jpg', 'key': 'u', 'origWidth': 411, 'origHeight': 411, 'width': 411, 'height': 411, 'widthPercent': 0.45, 'rescaleHeight': False, 'trialN': 103, 'loaded': True, 'loadedTime': 5461, 'positionName': 'LEFT', 'positionCoords': [510.6, 334.5], 'bid': 4.89}, {'imgObject': {}, 'id': 'hotdog w must', 'src': '/static/foodstim60/hotdog w must.jpg', 'key': 'i', 'origWidth': 409, 'origHeight': 409, 'width': 409, 'height': 409, 'widthPercent': 0.45, 'rescaleHeight': False, 'trialN': 103, 'loaded': True, 'loadedTime': 6220, 'positionName': 'RIGHT', 'positionCoords': [998.4, 335.5], 'bid': 8.540000000000001}]",406829,1669832251142,raspberries,hotdog w must,4.89,8.540000000000001,3.6500000000000012,hotdog w must,976,976,976.0,True,i,408309,1480,1669832252622,1480,HRV,HRV_0178,2022-11-30 18:20:19
104,"[{'imgObject': {}, 'id': 'cocktailshrimp', 'src': '/static/foodstim60/cocktailshrimp.jpg', 'key': 'u', 'origWidth': 410, 'origHeight': 410, 'width': 410, 'height': 410, 'widthPercent': 0.45, 'rescaleHeight': False, 'trialN': 104, 'loaded': True, 'loadedTime': 5843, 'positionName': 'LEFT', 'positionCoords': [511.6, 335], 'bid': 8.59}, {'imgObject': {}, 'id': 'ice cream sundae 002', 'src': '/static/foodstim60/ice cream sundae 002.jpg', 'key': 'i', 'origWidth': 409, 'origHeight': 409, 'width': 409, 'height': 409, 'widthPercent': 0.45, 'rescaleHeight': False, 'trialN': 104, 'loaded': True, 'loadedTime': 5988, 'positionName': 'RIGHT', 'positionCoords': [998.4, 335.5], 'bid': 5.15}]",408309,1669832252622,cocktailshrimp,ice cream sundae 002,8.59,5.15,-3.4399999999999995,cocktailshrimp,1248,1249,1249.0,True,u,410061,1752,1669832254374,1752,HRV,HRV_0178,2022-11-30 18:20:19
105,"[{'imgObject': {}, 'id': 'edamame', 'src': '/static/foodstim60/edamame.jpg', 'key': 'u', 'origWidth': 409, 'origHeight': 410, 'width': 409, 'height': 410, 'widthPercent': 0.45, 'rescaleHeight': False, 'trialN': 105, 'loaded': True, 'loadedTime': 5369, 'positionName': 'LEFT', 'positionCoords': [512.6, 335], 'bid': 4.26}, {'imgObject': {}, 'id': 'rigatoni', 'src': '/static/foodstim60/rigatoni.jpg', 'key': 'i', 'origWidth': 411, 'origHeight': 411, 'width': 411, 'height': 411, 'widthPercent': 0.45, 'rescaleHeight': False, 'trialN': 105, 'loaded': True, 'loadedTime': 5726, 'positionName': 'RIGHT', 'positionCoords': [998.4, 334.5], 'bid': 3.76}]",410062,1669832254375,edamame,rigatoni,4.26,3.76,-0.5,edamame,1966,1966,1966.0,True,u,412533,2471,1669832256846,2471,HRV,HRV_0178,2022-11-30 18:20:19
106,"[{'imgObject': {}, 'id': 'rigatoni and sauce', 'src': '/static/foodstim60/rigatoni and sauce.jpg', 'key': 'u', 'origWidth': 410, 'origHeight': 411, 'width': 410, 'height': 411, 'widthPercent': 0.45, 'rescaleHeight': False, 'trialN': 106, 'loaded': True, 'loadedTime': 5348, 'positionName': 'LEFT', 'positionCoords': [511.6, 334.5], 'bid': 4.47}, {'imgObject': {}, 'id': 'Tribe humus pita', 'src': '/static/foodstim60/Tribe humus pita.jpg', 'key': 'i', 'origWidth': 411, 'origHeight': 411, 'width': 411, 'height': 411, 'widthPercent': 0.45, 'rescaleHeight': False, 'trialN': 106, 'loaded': True, 'loadedTime': 5703, 'positionName': 'RIGHT', 'positionCoords': [998.4, 334.5], 'bid': 2.37}]",412533,1669832256846,rigatoni and sauce,Tribe humus pita,4.47,2.37,-2.0999999999999996,rigatoni and sauce,1848,1848,1848.0,True,u,414885,2352,1669832259198,2352,HRV,HRV_0178,2022-11-30 18:20:19
107,"[{'imgObject': {}, 'id': 'fried eggs', 'src': '/static/foodstim60/fried eggs.jpg', 'key': 'u', 'origWidth': 410, 'origHeight': 410, 'width': 410, 'height': 410, 'widthPercent': 0.45, 'rescaleHeight': False, 'trialN': 107, 'loaded': True, 'loadedTime': 6071, 'positionName': 'LEFT', 'positionCoords': [511.6, 335], 'bid': 8.92}, {'imgObject': {}, 'id': 'cocktailshrimp', 'src': '/static/foodstim60/cocktailshrimp.jpg', 'key': 'i', 'origWidth': 410, 'origHeight': 410, 'width': 410, 'height': 410, 'widthPercent': 0.45, 'rescaleHeight': False, 'trialN': 107, 'loaded': True, 'loadedTime': 5796, 'positionName': 'RIGHT', 'positionCoords': [998.4, 335], 'bid': 8.59}]",414885,1669832259198,fried eggs,cocktailshrimp,8.92,8.59,-0.33000000000000007,cocktailshrimp,1295,1295,1295.0,True,i,416685,1800,1669832260998,1800,HRV,HRV_0178,2022-11-30 18:20:19
108,"[{'imgObject': {}, 'id': 'granola w milk', 'src': '/static/foodstim60/granola w milk.jpg', 'key': 'u', 'origWidth': 410, 'origHeight': 410, 'width': 410, 'height': 410, 'widthPercent': 0.45, 'rescaleHeight': False, 'trialN': 108, 'loaded': True, 'loadedTime': 5173, 'positionName': 'LEFT', 'positionCoords': [511.6, 335], 'bid': 7.37}, {'imgObject': {}, 'id': 'baked potato', 'src': '/static/foodstim60/baked potato.jpg', 'key': 'i', 'origWidth': 409, 'origHeight': 410, 'width': 409, 'height': 410, 'widthPercent': 0.45, 'rescaleHeight': False, 'trialN': 108, 'loaded': True, 'loadedTime': 5342, 'positionName': 'RIGHT', 'positionCoords': [998.4, 335], 'bid': 7.34}]",416685,1669832260998,granola w milk,baked potato,7.37,7.34,-0.03000000000000025,baked potato,2151,2151,2151.0,True,i,419341,2656,1669832263654,2656,HRV,HRV_0178,2022-11-30 18:20:19
109,"[{'imgObject': {}, 'id': 'burrito', 'src': '/static/foodstim60/burrito.jpg', 'key': 'u', 'origWidth': 410, 'origHeight': 410, 'width': 410, 'height': 410, 'widthPercent': 0.45, 'rescaleHeight': False, 'trialN': 109, 'loaded': True, 'loadedTime': 5461, 'positionName': 'LEFT', 'positionCoords': [511.6, 335], 'bid': 7.56}, {'imgObject': {}, 'id': 'baked potato', 'src': '/static/foodstim60/baked potato.jpg', 'key': 'i', 'origWidth': 409, 'origHeight': 410, 'width': 409, 'height': 410, 'widthPercent': 0.45, 'rescaleHeight': False, 'trialN': 109, 'loaded': True, 'loadedTime': 5285, 'positionName': 'RIGHT', 'positionCoords': [998.4, 335], 'bid': 7.34}]",419341,1669832263654,burrito,baked potato,7.56,7.34,-0.21999999999999975,burrito,1759,1760,1760.0,True,u,421605,2264,1669832265918,2264,HRV,HRV_0178,2022-11-30 18:20:19
110,"[{'imgObject': {}, 'id': 'pear', 'src': '/static/foodstim60/pear.jpg', 'key': 'u', 'origWidth': 411, 'origHeight': 410, 'width': 411, 'height': 410, 'widthPercent': 0.45, 'rescaleHeight': False, 'trialN': 110, 'loaded': True, 'loadedTime': 6233, 'positionName': 'LEFT', 'positionCoords': [510.6, 335], 'bid': 7.77}, {'imgObject': {}, 'id': 'turkey sandwich', 'src': '/static/foodstim60/turkey sandwich.jpg', 'key': 'i', 'origWidth': 409, 'origHeight': 409, 'width': 409, 'height': 409, 'widthPercent': 0.45, 'rescaleHeight': False, 'trialN': 110, 'loaded': True, 'loadedTime': 6255, 'positionName': 'RIGHT', 'positionCoords': [998.4, 335.5], 'bid': 8.76}]",421605,1669832265918,pear,turkey sandwich,7.77,8.76,0.9900000000000002,turkey sandwich,823,825,825.0,True,i,422933,1328,1669832267246,1328,HRV,HRV_0178,2022-11-30 18:20:19
111,"[{'imgObject': {}, 'id': 'cherry tomato', 'src': '/static/foodstim60/cherry tomato.jpg', 'key': 'u', 'origWidth': 410, 'origHeight': 410, 'width': 410, 'height': 410, 'widthPercent': 0.45, 'rescaleHeight': False, 'trialN': 111, 'loaded': True, 'loadedTime': 6284, 'positionName': 'LEFT', 'positionCoords': [511.6, 335], 'bid': 1.6}, {'imgObject': {}, 'id': 'raisin bran w milk', 'src': '/static/foodstim60/raisin bran w milk.jpg', 'key': 'i', 'origWidth': 411, 'origHeight': 411, 'width': 411, 'height': 411, 'widthPercent': 0.45, 'rescaleHeight': False, 'trialN': 111, 'loaded': True, 'loadedTime': 6312, 'positionName': 'RIGHT', 'positionCoords': [998.4, 334.5], 'bid': 6.84}]",422933,1669832267246,cherry tomato,raisin bran w milk,1.6,6.84,5.24,raisin bran w milk,1255,1255,1255.0,True,i,424693,1760,1669832269006,1760,HRV,HRV_0178,2022-11-30 18:20:19
112,"[{'imgObject': {}, 'id': 'lox', 'src': '/static/foodstim60/lox.jpg', 'key': 'u', 'origWidth': 410, 'origHeight': 411, 'width': 410, 'height': 411, 'widthPercent': 0.45, 'rescaleHeight': False, 'trialN': 112, 'loaded': True, 'loadedTime': 5359, 'positionName': 'LEFT', 'positionCoords': [511.6, 334.5], 'bid': 8.63}, {'imgObject': {}, 'id': 'turkey sandwich', 'src': '/static/foodstim60/turkey sandwich.jpg', 'key': 'i', 'origWidth': 409, 'origHeight': 409, 'width': 409, 'height': 409, 'widthPercent': 0.45, 'rescaleHeight': False, 'trialN': 112, 'loaded': True, 'loadedTime': 6255, 'positionName': 'RIGHT', 'positionCoords': [998.4, 335.5], 'bid': 8.76}]",424693,1669832269006,lox,turkey sandwich,8.63,8.76,0.129999999999999,turkey sandwich,1071,1071,1071.0,True,i,426269,1576,1669832270582,1576,HRV,HRV_0178,2022-11-30 18:20:19
113,"[{'imgObject': {}, 'id': 'luckycharms', 'src': '/static/foodstim60/luckycharms.jpg', 'key': 'u', 'origWidth': 410, 'origHeight': 409, 'width': 410, 'height': 409, 'widthPercent': 0.45, 'rescaleHeight': False, 'trialN': 113, 'loaded': True, 'loadedTime': 6315, 'positionName': 'LEFT', 'positionCoords': [511.6, 335.5], 'bid': 6.390000000000001}, {'imgObject': {}, 'id': 'chicken nuggets2', 'src': '/static/foodstim60/chicken nuggets2.jpg', 'key': 'i', 'origWidth': 410, 'origHeight': 409, 'width': 410, 'height': 409, 'widthPercent': 0.45, 'rescaleHeight': False, 'trialN': 113, 'loaded': True, 'loadedTime': 5149, 'positionName': 'RIGHT', 'positionCoords': [998.4, 335.5], 'bid': 6.38}]",426269,1669832270582,luckycharms,chicken nuggets2,6.390000000000001,6.38,-0.010000000000000675,chicken nuggets2,1143,1144,1144.0,True,i,427917,1648,1669832272230,1648,HRV,HRV_0178,2022-11-30 18:20:19
114,"[{'imgObject': {}, 'id': 'cantaloupe', 'src': '/static/foodstim60/cantaloupe.jpg', 'key': 'u', 'origWidth': 409, 'origHeight': 409, 'width': 409, 'height': 409, 'widthPercent': 0.45, 'rescaleHeight': False, 'trialN': 114, 'loaded': True, 'loadedTime': 4781, 'positionName': 'LEFT', 'positionCoords': [512.6, 335.5], 'bid': 7.59}, {'imgObject': {}, 'id': 'omelette', 'src': '/static/foodstim60/omelette.jpg', 'key': 'i', 'origWidth': 410, 'origHeight': 409, 'width': 410, 'height': 409, 'widthPercent': 0.45, 'rescaleHeight': False, 'trialN': 114, 'loaded': True, 'loadedTime': 5681, 'positionName': 'RIGHT', 'positionCoords': [998.4, 335.5], 'bid': 7.54}]",427917,1669832272230,cantaloupe,omelette,7.59,7.54,-0.04999999999999982,omelette,1767,1768,1768.0,True,i,430189,2272,1669832274502,2272,HRV,HRV_0178,2022-11-30 18:20:19
115,"[{'imgObject': {}, 'id': 'salmon', 'src': '/static/foodstim60/salmon.jpg', 'key': 'u', 'origWidth': 410, 'origHeight': 409, 'width': 410, 'height': 409, 'widthPercent': 0.45, 'rescaleHeight': False, 'trialN': 115, 'loaded': True, 'loadedTime': 5940, 'positionName': 'LEFT', 'positionCoords': [511.6, 335.5], 'bid': 9.3}, {'imgObject': {}, 'id': 'cantaloupe', 'src': '/static/foodstim60/cantaloupe.jpg', 'key': 'i', 'origWidth': 409, 'origHeight': 409, 'width': 409, 'height': 409, 'widthPercent': 0.45, 'rescaleHeight': False, 'trialN': 115, 'loaded': True, 'loadedTime': 4747, 'positionName': 'RIGHT', 'positionCoords': [998.4, 335.5], 'bid': 7.59}]",430189,1669832274502,salmon,cantaloupe,9.3,7.59,-1.7100000000000009,salmon,920,923,923.0,True,u,431613,1424,1669832275926,1424,HRV,HRV_0178,2022-11-30 18:20:19
116,"[{'imgObject': {}, 'id': 'olives', 'src': '/static/foodstim60/olives.jpg', 'key': 'u', 'origWidth': 410, 'origHeight': 410, 'width': 410, 'height': 410, 'widthPercent': 0.45, 'rescaleHeight': False, 'trialN': 116, 'loaded': True, 'loadedTime': 4936, 'positionName': 'LEFT', 'positionCoords': [511.6, 335], 'bid': 0.81}, {'imgObject': {}, 'id': 'mac & cheese', 'src': '/static/foodstim60/mac & cheese.jpg', 'key': 'i', 'origWidth': 410, 'origHeight': 410, 'width': 410, 'height': 410, 'widthPercent': 0.45, 'rescaleHeight': False, 'trialN': 116, 'loaded': True, 'loadedTime': 5284, 'positionName': 'RIGHT', 'positionCoords': [998.4, 335], 'bid': 2.48}]",431613,1669832275926,olives,mac & cheese,0.81,2.48,1.67,mac & cheese,2476,2477,2477.0,True,i,434597,2984,1669832278910,2984,HRV,HRV_0178,2022-11-30 18:20:19
117,"[{'imgObject': {}, 'id': 'bagel and cc', 'src': '/static/foodstim60/bagel and cc.jpg', 'key': 'u', 'origWidth': 410, 'origHeight': 410, 'width': 410, 'height': 410, 'widthPercent': 0.45, 'rescaleHeight': False, 'trialN': 117, 'loaded': True, 'loadedTime': 5691, 'positionName': 'LEFT', 'positionCoords': [511.6, 335], 'bid': 6.33}, {'imgObject': {}, 'id': 'turkeysandwich', 'src': '/static/foodstim60/turkeysandwich.jpg', 'key': 'i', 'origWidth': 409, 'origHeight': 409, 'width': 409, 'height': 409, 'widthPercent': 0.45, 'rescaleHeight': False, 'trialN': 117, 'loaded': True, 'loadedTime': 4680, 'positionName': 'RIGHT', 'positionCoords': [998.4, 335.5], 'bid': 7.35}]",434597,1669832278910,bagel and cc,turkeysandwich,6.33,7.35,1.0199999999999996,turkeysandwich,1339,1340,1340.0,True,i,436445,1848,1669832280758,1848,HRV,HRV_0178,2022-11-30 18:20:19
