success,trial_type,trial_index,time_elapsed,internal_node_id,Block,TrialNumber,TrialTime,trialTimeDiff,FPS_avg,FPS_med,FPS_mode,TrialDur,winResizeTime,rt,block,button_pressed,MotCoh,MotDir,ColCoh,Color,ChoiceKey,Choice,Accuracy,RT,nFrames,FPS,PPD,missTrial,missTrialMsg,onsetDelay,fullScreenExitTime,canvCenter,TrialType,Score,BlockTrial,stimulus,button_labels,exp,subjectId,date
True,fullscreen,0,3976,0.0-0.0,0.0,1.0,,,,,,,,,,,,,,,,,,,,,,,,,,,,,,,,HRV,HRV_0178,2022-11-30 18:49:14
,wl-check-fps,1,8993,0.0-1.0,0.0,2.0,"[5446, 5454, 5460, 5476, 5492, 5506, 5522, 5542, 5556, 5573, 5589, 5606, 5623, 5639, 5656, 5673, 5690, 5706, 5730, 5747, 5756, 5773, 5789, 5806, 5823, 5839, 5856, 5873, 5889, 5906, 5922, 5939, 5956, 5972, 5990, 6006, 6022, 6039, 6056, 6074, 6090, 6106, 6123, 6139, 6156, 6173, 6189, 6206, 6226, 6239, 6256, 6271, 6289, 6306, 6323, 6339, 6356, 6374, 6389, 6406, 6423, 6439, 6456, 6472, 6489, 6506, 6522, 6539, 6556, 6572, 6592, 6606, 6623, 6641, 6657, 6673, 6689, 6706, 6725, 6758, 6761, 6776, 6792, 6809, 6826, 6842, 6859, 6872, 6893, 6909, 6923, 6939, 6956, 6973, 6989, 7006, 7023, 7039, 7056, 7074, 7090, 7107, 7123, 7139, 7160, 7173, 7188, 7206, 7226, 7239, 7256, 7272, 7290, 7306, 7322, 7339, 7356, 7373, 7390, 7406, 7422, 7439, 7456, 7472, 7489, 7506, 7523, 7539, 7556, 7575, 7589, 7606, 7632, 7641, 7657, 7671, 7689, 7707, 7726, 7745, 7758, 7773, 7789, 7806, 7823, 7839, 7856, 7872, 7890, 7906, 7922, 7939, 7956, 7973, 7989, 8006, 8023, 8039, 8056, 8074, 8090, 8107, 8123, 8139, 8157, 8171, 8189, 8206, 8225, 8248, 8258, 8275, 8292, 8308, 8325, 8342, 8358, 8375, 8401, 8408, 8425, 8441, 8456, 8473, 8489, 8505, 8522, 8539, 8556, 8572, 8591, 8606, 8622, 8639, 8658, 8672, 8689, 8706, 8726, 8743, 8756, 8772, 8789, 8806, 8822, 8840, 8856, 8873, 8890, 8909, 8933, 8957, 8960, 8973, 8990, 9024, 9068, 9077, 9089, 9106, 9133, 9142, 9157, 9183, 9198, 9214, 9232, 9241, 9256, 9273, 9290, 9306, 9322, 9339, 9357, 9373, 9389, 9406, 9423, 9440, 9457, 9473, 9489, 9506, 9522, 9539, 9557, 9574, 9595, 9605, 9621, 9637, 9654, 9671, 9687, 9704, 9724, 9740, 9757, 9773, 9790, 9806, 9823, 9840, 9857, 9873, 9890, 9906, 9923, 9937, 9954, 9970, 9987, 10004, 10023, 10037, 10055, 10071, 10090, 10107, 10120, 10137, 10155, 10172, 10188, 10204, 10235, 10240, 10256, 10271, 10287, 10304, 10320, 10337, 10354, 10371, 10387, 10404, 10420, 10437]","[3, 8, 6, 16, 16, 14, 16, 20, 14, 17, 16, 17, 17, 16, 17, 17, 17, 16, 24, 17, 9, 17, 16, 17, 17, 16, 17, 17, 16, 17, 16, 17, 17, 16, 18, 16, 16, 17, 17, 18, 16, 16, 17, 16, 17, 17, 16, 17, 20, 13, 17, 15, 18, 17, 17, 16, 17, 18, 15, 17, 17, 16, 17, 16, 17, 17, 16, 17, 17, 16, 20, 14, 17, 18, 16, 16, 16, 17, 19, 33, 3, 15, 16, 17, 17, 16, 17, 13, 21, 16, 14, 16, 17, 17, 16, 17, 17, 16, 17, 18, 16, 17, 16, 16, 21, 13, 15, 18, 20, 13, 17, 16, 18, 16, 16, 17, 17, 17, 17, 16, 16, 17, 17, 16, 17, 17, 17, 16, 17, 19, 14, 17, 26, 9, 16, 14, 18, 18, 19, 19, 13, 15, 16, 17, 17, 16, 17, 16, 18, 16, 16, 17, 17, 17, 16, 17, 17, 16, 17, 18, 16, 17, 16, 16, 18, 14, 18, 17, 19, 23, 10, 17, 17, 16, 17, 17, 16, 17, 26, 7, 17, 16, 15, 17, 16, 16, 17, 17, 17, 16, 19, 15, 16, 17, 19, 14, 17, 17, 20, 17, 13, 16, 17, 17, 16, 18, 16, 17, 17, 19, 24, 24, 3, 13, 17, 34, 44, 9, 12, 17, 27, 9, 15, 26, 15, 16, 18, 9, 15, 17, 17, 16, 16, 17, 18, 16, 16, 17, 17, 17, 17, 16, 16, 17, 16, 17, 18, 17, 21, 10, 16, 16, 17, 17, 16, 17, 20, 16, 17, 16, 17, 16, 17, 17, 17, 16, 17, 16, 17, 14, 17, 16, 17, 17, 19, 14, 18, 16, 19, 17, 13, 17, 18, 17, 16, 16, 31, 5, 16, 15, 16, 17, 16, 17, 17, 17, 16, 17, 16, 17]",60.0,63.0,59.0,5013.0,[],,,,,,,,,,,,,,,,,,,,,,,,,HRV,HRV_0178,2022-11-30 18:49:14
,wl-html-keyboard-response,2,60106,0.0-2.0-0.0,0.0,3.0,,,,,,,,49109.0,0.0,0,,,,,,,,,,,,,,,,,,,,,,HRV,HRV_0178,2022-11-30 18:49:14
,wl-rdm,3,67210,0.0-3.0-0.0,0.0,4.0,,,,,,,[],,,,0.0,0.0,87.9,0.0,u,0.0,True,1520.0,91.0,59.0,40.0,False,,3000.0,[],"[960, 540]",ColorTask_Demo,,,,,HRV,HRV_0178,2022-11-30 18:49:14
,wl-rdm,4,72808,0.0-3.0-1.0,0.0,5.0,,,,,,,[],,,,0.0,0.0,87.9,1.0,i,1.0,True,1538.0,92.0,59.0,40.0,False,,2000.0,[],"[960, 540]",ColorTask_Demo,,,,,HRV,HRV_0178,2022-11-30 18:49:14
,wl-html-keyboard-response,5,80882,0.0-3.0-2.0,0.0,6.0,,,,,,,,6067.0,0.0,1,,,,,,,,,,,,,,,,,,,,,,HRV,HRV_0178,2022-11-30 18:49:14
,wl-html-keyboard-response,6,92001,0.0-4.0-0.0,0.0,7.0,,,,,,,,9113.0,0.0,0,,,,,,,,,,,,,,,,,,,,,,HRV,HRV_0178,2022-11-30 18:49:14
,wl-html-keyboard-response,7,133489,0.0-5.0-0.0,0.0,8.0,,,,,,,,39485.0,0.0,0,,,,,,,,,,,,,,,,,,,,,,HRV,HRV_0178,2022-11-30 18:49:14
,wl-rdm,8,136535,0.0-6.0-0.0,0.0,9.0,,,,,,,[],,,,,,56.4,1.0,i,1.0,True,1752.0,104.0,59.0,40.0,False,,219.4822786550151,[],"[960, 540]",ColorTask,1.0,1.0,,,HRV,HRV_0178,2022-11-30 18:49:14
,wl-rdm,9,140257,0.0-6.1-0.1,0.0,10.0,,,,,,,[],,,,,,53.2,0.0,i,1.0,False,2278.0,135.0,59.0,40.0,False,,359.648246280749,[],"[960, 540]",ColorTask,0.0,2.0,,,HRV,HRV_0178,2022-11-30 18:49:14
,wl-rdm,10,142752,0.0-6.2-0.2,0.0,11.0,,,,,,,[],,,,,,73.6,0.0,u,0.0,True,1077.0,64.0,59.0,40.0,False,,342.29098111725955,[],"[960, 540]",ColorTask,1.0,3.0,,,HRV,HRV_0178,2022-11-30 18:49:14
,wl-rdm,11,145852,0.0-6.3-0.3,0.0,12.0,,,,,,,[],,,,,,53.2,0.0,u,0.0,True,1821.0,110.0,59.0,40.0,False,,201.70913956228168,[],"[960, 540]",ColorTask,2.0,4.0,,,HRV,HRV_0178,2022-11-30 18:49:14
,wl-rdm,12,148468,0.0-6.4-0.4,0.0,13.0,,,,,,,[],,,,,,53.2,1.0,i,1.0,True,1278.0,74.0,59.0,40.0,False,,280.51002528680164,[],"[960, 540]",ColorTask,3.0,5.0,,,HRV,HRV_0178,2022-11-30 18:49:14
,wl-rdm,13,150552,0.0-6.5-0.5,0.0,14.0,,,,,,,[],,,,,,87.9,1.0,i,1.0,True,718.0,44.0,59.0,40.0,False,,270.34939858920086,[],"[960, 540]",ColorTask,4.0,6.0,,,HRV,HRV_0178,2022-11-30 18:49:14
,wl-rdm,14,153804,0.0-6.6-0.6,0.0,15.0,,,,,,,[],,,,,,50.0,0.0,i,1.0,False,1935.0,115.0,59.0,40.0,False,,253.48883489628724,[],"[960, 540]",ColorTask,3.0,7.0,,,HRV,HRV_0178,2022-11-30 18:49:14
,wl-rdm,15,156219,0.0-6.7-0.7,0.0,16.0,,,,,,,[],,,,,,56.4,1.0,i,1.0,True,1080.0,65.0,59.0,40.0,False,,217.3331039642481,[],"[960, 540]",ColorTask,4.0,8.0,,,HRV,HRV_0178,2022-11-30 18:49:14
,wl-rdm,16,158404,0.0-6.8-0.8,0.0,17.0,,,,,,,[],,,,,,87.9,1.0,i,1.0,True,740.0,45.0,59.0,40.0,False,,361.54552087541913,[],"[960, 540]",ColorTask,5.0,9.0,,,HRV,HRV_0178,2022-11-30 18:49:14
,wl-rdm,17,160585,0.0-6.9-0.9,0.0,18.0,,,,,,,[],,,,,,87.9,1.0,i,1.0,True,743.0,44.0,59.0,40.0,False,,356.01356544406394,[],"[960, 540]",ColorTask,6.0,10.0,,,HRV,HRV_0178,2022-11-30 18:49:14
,wl-rdm,18,162668,0.0-6.10-0.10,0.0,19.0,,,,,,,[],,,,,,87.9,0.0,u,0.0,True,640.0,39.0,59.0,40.0,False,,371.22713694364984,[],"[960, 540]",ColorTask,7.0,11.0,,,HRV,HRV_0178,2022-11-30 18:49:14
,wl-rdm,19,165768,0.0-6.11-0.11,0.0,20.0,,,,,,,[],,,,,,53.2,0.0,i,1.0,False,1723.0,104.0,59.0,40.0,False,,298.97320679378413,[],"[960, 540]",ColorTask,6.0,12.0,,,HRV,HRV_0178,2022-11-30 18:49:14
,wl-rdm,20,168585,0.0-6.12-0.12,0.0,21.0,,,,,,,[],,,,,,50.0,1.0,i,1.0,True,1363.0,82.0,59.0,40.0,False,,367.7722666152986,[],"[960, 540]",ColorTask,7.0,13.0,,,HRV,HRV_0178,2022-11-30 18:49:14
,wl-rdm,21,170969,0.0-6.13-0.13,0.0,22.0,,,,,,,[],,,,,,53.2,0.0,i,1.0,False,939.0,57.0,59.0,40.0,False,,360.48674185980997,[],"[960, 540]",ColorTask,6.0,14.0,,,HRV,HRV_0178,2022-11-30 18:49:14
,wl-rdm,22,173337,0.0-6.14-0.14,0.0,23.0,,,,,,,[],,,,,,62.5,1.0,i,1.0,True,988.0,59.0,59.0,40.0,False,,307.5444564320302,[],"[960, 540]",ColorTask,7.0,15.0,,,HRV,HRV_0178,2022-11-30 18:49:14
,wl-rdm,23,176184,0.0-6.15-0.15,0.0,24.0,,,,,,,[],,,,,,53.2,1.0,i,1.0,True,1377.0,82.0,59.0,40.0,False,,397.82522863466863,[],"[960, 540]",ColorTask,8.0,16.0,,,HRV,HRV_0178,2022-11-30 18:49:14
,wl-rdm,24,178271,0.0-6.16-0.16,0.0,25.0,,,,,,,[],,,,,,87.9,1.0,i,1.0,True,743.0,45.0,59.0,40.0,False,,270.344600308445,[],"[960, 540]",ColorTask,9.0,17.0,,,HRV,HRV_0178,2022-11-30 18:49:14
,wl-rdm,25,181753,0.0-6.17-0.17,0.0,26.0,,,,,,,[],,,,,,53.2,1.0,i,1.0,True,2031.0,121.0,59.0,40.0,False,,383.1929710196821,[],"[960, 540]",ColorTask,10.0,18.0,,,HRV,HRV_0178,2022-11-30 18:49:14
,wl-rdm,26,183933,0.0-6.18-0.18,0.0,27.0,,,,,,,[],,,,,,87.9,0.0,u,0.0,True,750.0,45.0,59.0,40.0,False,,321.67551559804554,[],"[960, 540]",ColorTask,11.0,19.0,,,HRV,HRV_0178,2022-11-30 18:49:14
,wl-rdm,27,186154,0.0-6.19-0.19,0.0,28.0,,,,,,,[],,,,,,87.9,0.0,u,0.0,True,931.0,55.0,59.0,40.0,False,,202.5046433179814,[],"[960, 540]",ColorTask,12.0,20.0,,,HRV,HRV_0178,2022-11-30 18:49:14
,wl-rdm,28,188540,0.0-6.20-0.20,0.0,29.0,,,,,,,[],,,,,,50.0,0.0,i,1.0,False,956.0,58.0,59.0,40.0,False,,351.78572363781564,[],"[960, 540]",ColorTask,11.0,21.0,,,HRV,HRV_0178,2022-11-30 18:49:14
,wl-rdm,29,191117,0.0-6.21-0.21,0.0,30.0,,,,,,,[],,,,,,50.0,0.0,i,1.0,False,1202.0,69.0,59.0,40.0,False,,305.32649748917095,[],"[960, 540]",ColorTask,10.0,22.0,,,HRV,HRV_0178,2022-11-30 18:49:14
,wl-rdm,30,193201,0.0-6.22-0.22,0.0,31.0,,,,,,,[],,,,,,87.9,1.0,i,1.0,True,789.0,48.0,59.0,40.0,False,,216.04238151326587,[],"[960, 540]",ColorTask,11.0,23.0,,,HRV,HRV_0178,2022-11-30 18:49:14
,wl-rdm,31,195986,0.0-6.23-0.23,0.0,32.0,,,,,,,[],,,,,,56.4,0.0,i,1.0,False,1382.0,83.0,59.0,40.0,False,,308.5390984308689,[],"[960, 540]",ColorTask,10.0,24.0,,,HRV,HRV_0178,2022-11-30 18:49:14
,wl-rdm,32,198886,0.0-6.24-0.24,0.0,33.0,,,,,,,[],,,,,,56.4,0.0,u,0.0,True,1622.0,97.0,59.0,40.0,False,,204.89265057358688,[],"[960, 540]",ColorTask,11.0,25.0,,,HRV,HRV_0178,2022-11-30 18:49:14
,wl-rdm,33,201186,0.0-6.25-0.25,0.0,34.0,,,,,,,[],,,,,,50.0,1.0,u,0.0,False,1001.0,60.0,59.0,40.0,False,,232.28038446782028,[],"[960, 540]",ColorTask,10.0,26.0,,,HRV,HRV_0178,2022-11-30 18:49:14
,wl-rdm,34,204251,0.0-6.26-0.26,0.0,35.0,,,,,,,[],,,,,,62.5,1.0,i,1.0,True,1762.0,108.0,59.0,40.0,False,,201.3178802402392,[],"[960, 540]",ColorTask,11.0,27.0,,,HRV,HRV_0178,2022-11-30 18:49:14
,wl-rdm,35,206467,0.0-6.27-0.27,0.0,36.0,,,,,,,[],,,,,,56.4,1.0,i,1.0,True,839.0,51.0,59.0,40.0,False,,302.29763076030264,[],"[960, 540]",ColorTask,12.0,28.0,,,HRV,HRV_0178,2022-11-30 18:49:14
,wl-rdm,36,208936,0.0-6.28-0.28,0.0,37.0,,,,,,,[],,,,,,62.5,0.0,i,1.0,False,1101.0,66.0,59.0,40.0,False,,287.08929997313516,[],"[960, 540]",ColorTask,11.0,29.0,,,HRV,HRV_0178,2022-11-30 18:49:14
,wl-rdm,37,211100,0.0-6.29-0.29,0.0,38.0,,,,,,,[],,,,,,62.5,1.0,i,1.0,True,747.0,45.0,59.0,40.0,False,,339.81157147411966,[],"[960, 540]",ColorTask,12.0,30.0,,,HRV,HRV_0178,2022-11-30 18:49:14
,wl-rdm,38,213434,0.0-6.30-0.30,0.0,39.0,,,,,,,[],,,,,,62.5,1.0,i,1.0,True,1025.0,62.0,59.0,40.0,False,,227.65175456015226,[],"[960, 540]",ColorTask,13.0,31.0,,,HRV,HRV_0178,2022-11-30 18:49:14
,wl-rdm,39,216133,0.0-6.31-0.31,0.0,40.0,,,,,,,[],,,,,,56.4,0.0,i,1.0,False,1335.0,81.0,59.0,40.0,False,,276.1205802776766,[],"[960, 540]",ColorTask,12.0,32.0,,,HRV,HRV_0178,2022-11-30 18:49:14
,wl-rdm,40,218616,0.0-6.32-0.32,0.0,41.0,,,,,,,[],,,,,,56.4,0.0,i,1.0,False,1076.0,65.0,59.0,40.0,False,,346.15002413074967,[],"[960, 540]",ColorTask,11.0,33.0,,,HRV,HRV_0178,2022-11-30 18:49:14
,wl-rdm,41,220799,0.0-6.33-0.33,0.0,42.0,,,,,,,[],,,,,,73.6,1.0,i,1.0,True,727.0,44.0,59.0,40.0,False,,379.41134771365836,[],"[960, 540]",ColorTask,12.0,34.0,,,HRV,HRV_0178,2022-11-30 18:49:14
,wl-rdm,42,222918,0.0-6.34-0.34,0.0,43.0,,,,,,,[],,,,,,73.6,1.0,i,1.0,True,829.0,50.0,59.0,40.0,False,,224.25493358590572,[],"[960, 540]",ColorTask,13.0,35.0,,,HRV,HRV_0178,2022-11-30 18:49:14
,wl-rdm,43,225083,0.0-6.35-0.35,0.0,44.0,,,,,,,[],,,,,,56.4,0.0,u,0.0,True,797.0,48.0,59.0,40.0,False,,269.6934255660508,[],"[960, 540]",ColorTask,14.0,36.0,,,HRV,HRV_0178,2022-11-30 18:49:14
,wl-rdm,44,227682,0.0-6.36-0.36,0.0,45.0,,,,,,,[],,,,,,50.0,0.0,i,1.0,False,1191.0,73.0,59.0,40.0,False,,330.9730438673914,[],"[960, 540]",ColorTask,13.0,37.0,,,HRV,HRV_0178,2022-11-30 18:49:14
,wl-rdm,45,230899,0.0-6.37-0.37,0.0,46.0,,,,,,,[],,,,,,50.0,1.0,u,0.0,False,1854.0,111.0,59.0,40.0,False,,290.47378490141614,[],"[960, 540]",ColorTask,12.0,38.0,,,HRV,HRV_0178,2022-11-30 18:49:14
,wl-rdm,46,233783,0.0-6.38-0.38,0.0,47.0,,,,,,,[],,,,,,62.5,0.0,i,1.0,False,1490.0,90.0,59.0,40.0,False,,303.8099757150428,[],"[960, 540]",ColorTask,11.0,39.0,,,HRV,HRV_0178,2022-11-30 18:49:14
,wl-rdm,47,236482,0.0-6.39-0.39,0.0,48.0,,,,,,,[],,,,,,62.5,0.0,u,0.0,True,1364.0,82.0,59.0,40.0,False,,262.5681569108466,[],"[960, 540]",ColorTask,12.0,40.0,,,HRV,HRV_0178,2022-11-30 18:49:14
,wl-rdm,48,238599,0.0-6.40-0.40,0.0,49.0,,,,,,,[],,,,,,87.9,0.0,u,0.0,True,722.0,44.0,59.0,40.0,False,,304.4530709902537,[],"[960, 540]",ColorTask,13.0,41.0,,,HRV,HRV_0178,2022-11-30 18:49:14
,wl-rdm,49,241332,0.0-6.41-0.41,0.0,50.0,,,,,,,[],,,,,,62.5,0.0,u,0.0,True,1321.0,79.0,59.0,40.0,False,,345.33303389162313,[],"[960, 540]",ColorTask,14.0,42.0,,,HRV,HRV_0178,2022-11-30 18:49:14
,wl-rdm,50,243415,0.0-6.42-0.42,0.0,51.0,,,,,,,[],,,,,,87.9,1.0,i,1.0,True,746.0,45.0,59.0,40.0,False,,267.9529418850749,[],"[960, 540]",ColorTask,15.0,43.0,,,HRV,HRV_0178,2022-11-30 18:49:14
,wl-rdm,51,246065,0.0-6.43-0.43,0.0,52.0,,,,,,,[],,,,,,56.4,1.0,i,1.0,True,1275.0,77.0,59.0,40.0,False,,294.63231621899513,[],"[960, 540]",ColorTask,16.0,44.0,,,HRV,HRV_0178,2022-11-30 18:49:14
,wl-rdm,52,248466,0.0-6.44-0.44,0.0,53.0,,,,,,,[],,,,,,62.5,0.0,u,0.0,True,1076.0,65.0,59.0,40.0,False,,253.0006266412309,[],"[960, 540]",ColorTask,17.0,45.0,,,HRV,HRV_0178,2022-11-30 18:49:14
,wl-rdm,53,250783,0.0-6.45-0.45,0.0,54.0,,,,,,,[],,,,,,73.6,1.0,i,1.0,True,1001.0,60.0,59.0,40.0,False,,236.82355831913674,[],"[960, 540]",ColorTask,18.0,46.0,,,HRV,HRV_0178,2022-11-30 18:49:14
,wl-rdm,54,253984,0.0-6.46-0.46,0.0,55.0,,,,,,,[],,,,,,53.2,0.0,u,0.0,True,1914.0,115.0,59.0,40.0,False,,222.85112537783792,[],"[960, 540]",ColorTask,19.0,47.0,,,HRV,HRV_0178,2022-11-30 18:49:14
,wl-rdm,55,256182,0.0-6.47-0.47,0.0,56.0,,,,,,,[],,,,,,62.5,0.0,u,0.0,True,850.0,51.0,59.0,40.0,False,,272.7450443772118,[],"[960, 540]",ColorTask,20.0,48.0,,,HRV,HRV_0178,2022-11-30 18:49:14
,wl-rdm,56,258332,0.0-6.48-0.48,0.0,57.0,,,,,,,[],,,,,,62.5,0.0,u,0.0,True,819.0,50.0,59.0,40.0,False,,234.56965870904435,[],"[960, 540]",ColorTask,21.0,49.0,,,HRV,HRV_0178,2022-11-30 18:49:14
,wl-rdm,57,261048,0.0-6.49-0.49,0.0,58.0,,,,,,,[],,,,,,62.5,0.0,u,0.0,True,1325.0,80.0,59.0,40.0,False,,335.49208251566057,[],"[960, 540]",ColorTask,22.0,50.0,,,HRV,HRV_0178,2022-11-30 18:49:14
,wl-rdm,58,263532,0.0-6.50-0.50,0.0,59.0,,,,,,,[],,,,,,53.2,1.0,i,1.0,True,1195.0,72.0,59.0,40.0,False,,203.67533442426344,[],"[960, 540]",ColorTask,23.0,51.0,,,HRV,HRV_0178,2022-11-30 18:49:14
,wl-rdm,59,266464,0.0-6.51-0.51,0.0,60.0,,,,,,,[],,,,,,50.0,1.0,i,1.0,True,1625.0,97.0,59.0,40.0,False,,239.88557037299583,[],"[960, 540]",ColorTask,24.0,52.0,,,HRV,HRV_0178,2022-11-30 18:49:14
,wl-rdm,60,268699,0.0-6.52-0.52,0.0,61.0,,,,,,,[],,,,,,53.2,1.0,i,1.0,True,925.0,56.0,59.0,40.0,False,,218.85511060215418,[],"[960, 540]",ColorTask,25.0,53.0,,,HRV,HRV_0178,2022-11-30 18:49:14
,wl-rdm,61,271681,0.0-6.53-0.53,0.0,62.0,,,,,,,[],,,,,,56.4,0.0,u,0.0,True,1592.0,96.0,59.0,40.0,False,,311.4713039507952,[],"[960, 540]",ColorTask,26.0,54.0,,,HRV,HRV_0178,2022-11-30 18:49:14
,wl-rdm,62,273800,0.0-6.54-0.54,0.0,63.0,,,,,,,[],,,,,,87.9,0.0,u,0.0,True,754.0,45.0,59.0,40.0,False,,286.30881542887965,[],"[960, 540]",ColorTask,27.0,55.0,,,HRV,HRV_0178,2022-11-30 18:49:14
,wl-rdm,63,275916,0.0-6.55-0.55,0.0,64.0,,,,,,,[],,,,,,73.6,0.0,u,0.0,True,804.0,49.0,59.0,40.0,False,,233.94620641150453,[],"[960, 540]",ColorTask,28.0,56.0,,,HRV,HRV_0178,2022-11-30 18:49:14
,wl-rdm,64,278948,0.0-6.56-0.56,0.0,65.0,,,,,,,[],,,,,,50.0,0.0,i,1.0,False,1730.0,104.0,59.0,40.0,False,,226.57226980818004,[],"[960, 540]",ColorTask,27.0,57.0,,,HRV,HRV_0178,2022-11-30 18:49:14
,wl-rdm,65,281864,0.0-6.57-0.57,0.0,66.0,,,,,,,[],,,,,,53.2,0.0,i,1.0,False,1596.0,90.0,59.0,40.0,False,,254.15553226711427,[],"[960, 540]",ColorTask,26.0,58.0,,,HRV,HRV_0178,2022-11-30 18:49:14
,wl-rdm,66,284613,0.0-6.58-0.58,0.0,67.0,,,,,,,[],,,,,,56.4,1.0,i,1.0,True,1404.0,85.0,59.0,40.0,False,,257.3988258813953,[],"[960, 540]",ColorTask,27.0,59.0,,,HRV,HRV_0178,2022-11-30 18:49:14
,wl-rdm,67,286714,0.0-6.59-0.59,0.0,68.0,,,,,,,[],,,,,,50.0,0.0,i,1.0,False,697.0,42.0,59.0,40.0,False,,344.2193624035309,[],"[960, 540]",ColorTask,26.0,60.0,,,HRV,HRV_0178,2022-11-30 18:49:14
,wl-rdm,68,288883,0.0-6.60-0.60,0.0,69.0,,,,,,,[],,,,,,53.2,1.0,i,1.0,True,887.0,54.0,59.0,40.0,False,,200.66657847493738,[],"[960, 540]",ColorTask,27.0,61.0,,,HRV,HRV_0178,2022-11-30 18:49:14
,wl-rdm,69,292699,0.0-6.61-0.61,0.0,70.0,,,,,,,[],,,,,,50.0,1.0,i,1.0,True,2506.0,151.0,59.0,40.0,False,,241.06070934118986,[],"[960, 540]",ColorTask,28.0,62.0,,,HRV,HRV_0178,2022-11-30 18:49:14
,wl-rdm,70,294832,0.0-6.62-0.62,0.0,71.0,,,,,,,[],,,,,,56.4,1.0,i,1.0,True,847.0,51.0,59.0,40.0,False,,221.9800095421134,[],"[960, 540]",ColorTask,29.0,63.0,,,HRV,HRV_0178,2022-11-30 18:49:14
,wl-rdm,71,297431,0.0-6.63-0.63,0.0,72.0,,,,,,,[],,,,,,73.6,1.0,i,1.0,True,1298.0,78.0,59.0,40.0,False,,230.22946242127168,[],"[960, 540]",ColorTask,30.0,64.0,,,HRV,HRV_0178,2022-11-30 18:49:14
,wl-rdm,72,299782,0.0-6.64-0.64,0.0,73.0,,,,,,,[],,,,,,53.2,1.0,i,1.0,True,1067.0,64.0,59.0,40.0,False,,212.74882566374475,[],"[960, 540]",ColorTask,31.0,65.0,,,HRV,HRV_0178,2022-11-30 18:49:14
,wl-rdm,73,302687,0.0-6.65-0.65,0.0,74.0,,,,,,,[],,,,,,53.2,0.0,i,1.0,False,1504.0,91.0,59.0,40.0,False,,308.33787563909516,[],"[960, 540]",ColorTask,30.0,66.0,,,HRV,HRV_0178,2022-11-30 18:49:14
,wl-rdm,74,305964,0.0-6.66-0.66,0.0,75.0,,,,,,,[],,,,,,56.4,1.0,i,1.0,True,1971.0,118.0,59.0,40.0,False,,240.57227026090902,[],"[960, 540]",ColorTask,31.0,67.0,,,HRV,HRV_0178,2022-11-30 18:49:14
,wl-rdm,75,308098,0.0-6.67-0.67,0.0,76.0,,,,,,,[],,,,,,62.5,1.0,i,1.0,True,723.0,44.0,59.0,40.0,False,,321.36257759784195,[],"[960, 540]",ColorTask,32.0,68.0,,,HRV,HRV_0178,2022-11-30 18:49:14
,wl-rdm,76,310747,0.0-6.68-0.68,0.0,77.0,,,,,,,[],,,,,,62.5,1.0,i,1.0,True,1359.0,82.0,59.0,40.0,False,,231.65968477690285,[],"[960, 540]",ColorTask,33.0,69.0,,,HRV,HRV_0178,2022-11-30 18:49:14
,wl-rdm,77,313048,0.0-6.69-0.69,0.0,78.0,,,,,,,[],,,,,,73.6,1.0,i,1.0,True,871.0,53.0,59.0,40.0,False,,348.6065784557785,[],"[960, 540]",ColorTask,34.0,70.0,,,HRV,HRV_0178,2022-11-30 18:49:14
,wl-rdm,78,315782,0.0-6.70-0.70,0.0,79.0,,,,,,,[],,,,,,56.4,0.0,u,0.0,True,1354.0,81.0,59.0,40.0,False,,313.7415417286451,[],"[960, 540]",ColorTask,35.0,71.0,,,HRV,HRV_0178,2022-11-30 18:49:14
,wl-rdm,79,318363,0.0-6.71-0.71,0.0,80.0,,,,,,,[],,,,,,56.4,1.0,i,1.0,True,1186.0,71.0,59.0,40.0,False,,284.40027680992733,[],"[960, 540]",ColorTask,36.0,72.0,,,HRV,HRV_0178,2022-11-30 18:49:14
,wl-rdm,80,321046,0.0-6.72-0.72,0.0,81.0,,,,,,,[],,,,,,56.4,0.0,i,1.0,False,1381.0,83.0,59.0,40.0,False,,220.78517353794746,[],"[960, 540]",ColorTask,35.0,73.0,,,HRV,HRV_0178,2022-11-30 18:49:14
,wl-rdm,81,323080,0.0-6.73-0.73,0.0,82.0,,,,,,,[],,,,,,56.4,1.0,i,1.0,True,703.0,43.0,59.0,40.0,False,,236.89273187020842,[],"[960, 540]",ColorTask,36.0,74.0,,,HRV,HRV_0178,2022-11-30 18:49:14
,wl-rdm,82,326164,0.0-6.74-0.74,0.0,83.0,,,,,,,[],,,,,,50.0,1.0,u,0.0,False,1687.0,102.0,59.0,40.0,False,,318.8757913630396,[],"[960, 540]",ColorTask,35.0,75.0,,,HRV,HRV_0178,2022-11-30 18:49:14
,wl-rdm,83,328330,0.0-6.75-0.75,0.0,84.0,,,,,,,[],,,,,,87.9,1.0,i,1.0,True,853.0,51.0,59.0,40.0,False,,241.9869256059545,[],"[960, 540]",ColorTask,36.0,76.0,,,HRV,HRV_0178,2022-11-30 18:49:14
,wl-rdm,84,330701,0.0-6.76-0.76,0.0,85.0,,,,,,,[],,,,,,73.6,0.0,u,0.0,True,1069.0,64.0,59.0,40.0,False,,224.62179012309105,[],"[960, 540]",ColorTask,37.0,77.0,,,HRV,HRV_0178,2022-11-30 18:49:14
,wl-rdm,85,333189,0.0-6.77-0.77,0.0,86.0,,,,,,,[],,,,,,73.6,0.0,u,0.0,True,1080.0,65.0,59.0,40.0,False,,328.0191939779812,[],"[960, 540]",ColorTask,38.0,78.0,,,HRV,HRV_0178,2022-11-30 18:49:14
,wl-rdm,86,335299,0.0-6.78-0.78,0.0,87.0,,,,,,,[],,,,,,73.6,0.0,u,0.0,True,708.0,43.0,59.0,40.0,False,,321.4606686598877,[],"[960, 540]",ColorTask,39.0,79.0,,,HRV,HRV_0178,2022-11-30 18:49:14
,wl-rdm,87,337429,0.0-6.79-0.79,0.0,88.0,,,,,,,[],,,,,,87.9,1.0,i,1.0,True,806.0,49.0,59.0,40.0,False,,246.55641082368646,[],"[960, 540]",ColorTask,40.0,80.0,,,HRV,HRV_0178,2022-11-30 18:49:14
,wl-rdm,88,340564,0.0-6.80-0.80,0.0,89.0,,,,,,,[],,,,,,53.2,0.0,u,0.0,True,1846.0,108.0,59.0,40.0,False,,203.07792264331073,[],"[960, 540]",ColorTask,41.0,81.0,,,HRV,HRV_0178,2022-11-30 18:49:14
,wl-rdm,89,343329,0.0-6.81-0.81,0.0,90.0,,,,,,,[],,,,,,62.5,1.0,i,1.0,True,1390.0,84.0,59.0,40.0,False,,298.55034431667457,[],"[960, 540]",ColorTask,42.0,82.0,,,HRV,HRV_0178,2022-11-30 18:49:14
,wl-rdm,90,345445,0.0-6.82-0.82,0.0,91.0,,,,,,,[],,,,,,62.5,1.0,i,1.0,True,753.0,45.0,59.0,40.0,False,,282.7700687077049,[],"[960, 540]",ColorTask,43.0,83.0,,,HRV,HRV_0178,2022-11-30 18:49:14
,wl-rdm,91,347579,0.0-6.83-0.83,0.0,92.0,,,,,,,[],,,,,,73.6,0.0,u,0.0,True,858.0,52.0,59.0,40.0,False,,214.67457277388127,[],"[960, 540]",ColorTask,44.0,84.0,,,HRV,HRV_0178,2022-11-30 18:49:14
,wl-rdm,92,349631,0.0-6.84-0.84,0.0,93.0,,,,,,,[],,,,,,73.6,1.0,i,1.0,True,754.0,46.0,59.0,40.0,False,,212.2340568054044,[],"[960, 540]",ColorTask,45.0,85.0,,,HRV,HRV_0178,2022-11-30 18:49:14
,wl-rdm,93,351881,0.0-6.85-0.85,0.0,94.0,,,,,,,[],,,,,,73.6,0.0,u,0.0,True,957.0,58.0,59.0,40.0,False,,202.68363281826876,[],"[960, 540]",ColorTask,46.0,86.0,,,HRV,HRV_0178,2022-11-30 18:49:14
,wl-rdm,94,353896,0.0-6.86-0.86,0.0,95.0,,,,,,,[],,,,,,73.6,0.0,u,0.0,True,710.0,43.0,59.0,40.0,False,,226.47124215911325,[],"[960, 540]",ColorTask,47.0,87.0,,,HRV,HRV_0178,2022-11-30 18:49:14
,wl-rdm,95,355930,0.0-6.87-0.87,0.0,96.0,,,,,,,[],,,,,,87.9,0.0,u,0.0,True,739.0,45.0,59.0,40.0,False,,203.5812184643954,[],"[960, 540]",ColorTask,48.0,88.0,,,HRV,HRV_0178,2022-11-30 18:49:14
,wl-rdm,96,357881,0.0-6.88-0.88,0.0,97.0,,,,,,,[],,,,,,87.9,0.0,u,0.0,True,668.0,41.0,59.0,40.0,False,,203.61715484294905,[],"[960, 540]",ColorTask,49.0,89.0,,,HRV,HRV_0178,2022-11-30 18:49:14
,wl-rdm,97,360830,0.0-6.89-0.89,0.0,98.0,,,,,,,[],,,,,,50.0,1.0,u,0.0,False,1550.0,93.0,59.0,40.0,False,,328.469161326876,[],"[960, 540]",ColorTask,48.0,90.0,,,HRV,HRV_0178,2022-11-30 18:49:14
,wl-rdm,98,363061,0.0-6.90-0.90,0.0,99.0,,,,,,,[],,,,,,73.6,0.0,u,0.0,True,898.0,54.0,59.0,40.0,False,,252.66509560228556,[],"[960, 540]",ColorTask,49.0,91.0,,,HRV,HRV_0178,2022-11-30 18:49:14
,wl-rdm,99,365828,0.0-6.91-0.91,0.0,100.0,,,,,,,[],,,,,,50.0,1.0,u,0.0,False,1440.0,87.0,59.0,40.0,False,,242.2701730417039,[],"[960, 540]",ColorTask,48.0,92.0,,,HRV,HRV_0178,2022-11-30 18:49:14
,wl-rdm,100,367945,0.0-6.92-0.92,0.0,101.0,,,,,,,[],,,,,,56.4,0.0,u,0.0,True,669.0,41.0,59.0,40.0,False,,373.07538987044694,[],"[960, 540]",ColorTask,49.0,93.0,,,HRV,HRV_0178,2022-11-30 18:49:14
,wl-rdm,101,369913,0.0-6.93-0.93,0.0,102.0,,,,,,,[],,,,,,87.9,0.0,u,0.0,True,671.0,41.0,59.0,40.0,False,,230.61782551186175,[],"[960, 540]",ColorTask,50.0,94.0,,,HRV,HRV_0178,2022-11-30 18:49:14
,wl-rdm,102,372378,0.0-6.94-0.94,0.0,103.0,,,,,,,[],,,,,,73.6,1.0,i,1.0,True,1159.0,70.0,59.0,40.0,False,,230.98220709000603,[],"[960, 540]",ColorTask,51.0,95.0,,,HRV,HRV_0178,2022-11-30 18:49:14
,wl-rdm,103,374711,0.0-6.95-0.95,0.0,104.0,,,,,,,[],,,,,,50.0,0.0,i,1.0,False,936.0,57.0,59.0,40.0,False,,319.38496215868895,[],"[960, 540]",ColorTask,50.0,96.0,,,HRV,HRV_0178,2022-11-30 18:49:14
,wl-rdm,104,376810,0.0-6.96-0.96,0.0,105.0,,,,,,,[],,,,,,62.5,0.0,u,0.0,True,759.0,46.0,59.0,40.0,False,,262.60246199017257,[],"[960, 540]",ColorTask,51.0,97.0,,,HRV,HRV_0178,2022-11-30 18:49:14
,wl-rdm,105,378727,0.0-6.97-0.97,0.0,106.0,,,,,,,[],,,,,,87.9,0.0,u,0.0,True,628.0,38.0,59.0,40.0,False,,226.35856397614964,[],"[960, 540]",ColorTask,52.0,98.0,,,HRV,HRV_0178,2022-11-30 18:49:14
,wl-rdm,106,380894,0.0-6.98-0.98,0.0,107.0,,,,,,,[],,,,,,50.0,0.0,i,1.0,False,804.0,47.0,59.0,40.0,False,,294.9892019648447,[],"[960, 540]",ColorTask,51.0,99.0,,,HRV,HRV_0178,2022-11-30 18:49:14
,wl-rdm,107,384094,0.0-6.99-0.99,0.0,108.0,,,,,,,[],,,,,,53.2,1.0,i,1.0,True,1907.0,115.0,59.0,40.0,False,,206.56956038488087,[],"[960, 540]",ColorTask,52.0,100.0,,,HRV,HRV_0178,2022-11-30 18:49:14
,wl-rdm,108,386699,0.0-6.100-0.100,0.0,109.0,,,,,,,[],,,,,,53.2,0.0,u,0.0,True,1329.0,80.0,59.0,40.0,False,,200.49580274290722,[],"[960, 540]",ColorTask,53.0,101.0,,,HRV,HRV_0178,2022-11-30 18:49:14
,wl-rdm,109,388929,0.0-6.101-0.101,0.0,110.0,,,,,,,[],,,,,,62.5,1.0,u,0.0,False,864.0,52.0,59.0,40.0,False,,285.97379863303973,[],"[960, 540]",ColorTask,52.0,102.0,,,HRV,HRV_0178,2022-11-30 18:49:14
,wl-rdm,110,391246,0.0-6.102-0.102,0.0,111.0,,,,,,,[],,,,,,73.6,1.0,i,1.0,True,887.0,54.0,59.0,40.0,False,,340.37971522396515,[],"[960, 540]",ColorTask,53.0,103.0,,,HRV,HRV_0178,2022-11-30 18:49:14
,wl-rdm,111,394477,0.0-6.103-0.103,0.0,112.0,,,,,,,[],,,,,,53.2,1.0,i,1.0,True,1812.0,109.0,59.0,40.0,False,,340.3292254406096,[],"[960, 540]",ColorTask,54.0,104.0,,,HRV,HRV_0178,2022-11-30 18:49:14
,wl-rdm,112,397662,0.0-6.104-0.104,0.0,113.0,,,,,,,[],,,,,,50.0,1.0,u,0.0,False,1876.0,112.0,59.0,40.0,False,,223.0275371511724,[],"[960, 540]",ColorTask,53.0,105.0,,,HRV,HRV_0178,2022-11-30 18:49:14
,wl-rdm,113,400212,0.0-6.105-0.105,0.0,114.0,,,,,,,[],,,,,,50.0,0.0,i,1.0,False,1089.0,66.0,59.0,40.0,False,,388.7347247565132,[],"[960, 540]",ColorTask,52.0,106.0,,,HRV,HRV_0178,2022-11-30 18:49:14
,wl-rdm,114,402462,0.0-6.106-0.106,0.0,115.0,,,,,,,[],,,,,,87.9,1.0,i,1.0,True,891.0,52.0,59.0,40.0,False,,295.9525146274729,[],"[960, 540]",ColorTask,53.0,107.0,,,HRV,HRV_0178,2022-11-30 18:49:14
,wl-rdm,115,404596,0.0-6.107-0.107,0.0,116.0,,,,,,,[],,,,,,73.6,1.0,i,1.0,True,729.0,44.0,59.0,40.0,False,,331.903188881864,[],"[960, 540]",ColorTask,54.0,108.0,,,HRV,HRV_0178,2022-11-30 18:49:14
,wl-html-keyboard-response,116,418689,0.0-7.0-0.0,1.0,117.0,,,,,,,,12088.0,1.0,0,,,,,,,,,,,,,,,,,,,,,,HRV,HRV_0178,2022-11-30 18:49:14
,wl-rdm,117,421845,0.0-8.0-0.0,1.0,118.0,,,,,,,[],,,,,,56.4,0.0,i,1.0,False,1862.0,112.0,59.0,40.0,False,,227.95867499276926,[],"[960, 540]",ColorTask,53.0,1.0,,,HRV,HRV_0178,2022-11-30 18:49:14
,wl-rdm,118,425011,0.0-8.1-0.1,1.0,119.0,,,,,,,[],,,,,,53.2,1.0,i,1.0,True,1790.0,108.0,59.0,40.0,False,,297.4455040702382,[],"[960, 540]",ColorTask,54.0,2.0,,,HRV,HRV_0178,2022-11-30 18:49:14
,wl-rdm,119,427778,0.0-8.2-0.2,1.0,120.0,,,,,,,[],,,,,,53.2,1.0,i,1.0,True,1441.0,87.0,59.0,40.0,False,,237.46439486616882,[],"[960, 540]",ColorTask,55.0,3.0,,,HRV,HRV_0178,2022-11-30 18:49:14
,wl-rdm,120,430794,0.0-8.3-0.3,1.0,121.0,,,,,,,[],,,,,,50.0,0.0,u,0.0,True,1637.0,98.0,59.0,40.0,False,,275.44469042550486,[],"[960, 540]",ColorTask,56.0,4.0,,,HRV,HRV_0178,2022-11-30 18:49:14
,wl-rdm,121,433343,0.0-8.4-0.4,1.0,122.0,,,,,,,[],,,,,,62.5,0.0,u,0.0,True,1127.0,68.0,59.0,40.0,False,,340.51387948636557,[],"[960, 540]",ColorTask,57.0,5.0,,,HRV,HRV_0178,2022-11-30 18:49:14
,wl-rdm,122,436110,0.0-8.5-0.5,1.0,123.0,,,,,,,[],,,,,,53.2,1.0,i,1.0,True,1343.0,79.0,59.0,40.0,False,,343.8075697585088,[],"[960, 540]",ColorTask,58.0,6.0,,,HRV,HRV_0178,2022-11-30 18:49:14
,wl-rdm,123,438796,0.0-8.6-0.6,1.0,124.0,,,,,,,[],,,,,,62.5,0.0,i,1.0,False,1292.0,73.0,59.0,40.0,False,,310.78848577135125,[],"[960, 540]",ColorTask,57.0,7.0,,,HRV,HRV_0178,2022-11-30 18:49:14
,wl-rdm,124,441193,0.0-8.7-0.7,1.0,125.0,,,,,,,[],,,,,,62.5,1.0,i,1.0,True,979.0,59.0,59.0,40.0,False,,342.22323448486,[],"[960, 540]",ColorTask,58.0,8.0,,,HRV,HRV_0178,2022-11-30 18:49:14
,wl-rdm,125,443372,0.0-8.8-0.8,1.0,126.0,,,,,,,[],,,,,,73.6,1.0,i,1.0,True,846.0,51.0,59.0,40.0,False,,240.34686673006757,[],"[960, 540]",ColorTask,59.0,9.0,,,HRV,HRV_0178,2022-11-30 18:49:14
,wl-rdm,126,445312,0.0-8.9-0.9,1.0,127.0,,,,,,,[],,,,,,87.9,1.0,i,1.0,True,593.0,36.0,59.0,40.0,False,,262.44455578085257,[],"[960, 540]",ColorTask,60.0,10.0,,,HRV,HRV_0178,2022-11-30 18:49:14
,wl-rdm,127,447227,0.0-8.10-0.10,1.0,128.0,,,,,,,[],,,,,,50.0,1.0,i,1.0,True,587.0,33.0,59.0,40.0,False,,266.20981693314206,[],"[960, 540]",ColorTask,61.0,11.0,,,HRV,HRV_0178,2022-11-30 18:49:14
,wl-rdm,128,449492,0.0-8.11-0.11,1.0,129.0,,,,,,,[],,,,,,73.6,0.0,u,0.0,True,917.0,55.0,59.0,40.0,False,,271.00402241019594,[],"[960, 540]",ColorTask,62.0,12.0,,,HRV,HRV_0178,2022-11-30 18:49:14
,wl-rdm,129,452176,0.0-8.12-0.12,1.0,130.0,,,,,,,[],,,,,,53.2,0.0,u,0.0,True,1286.0,78.0,59.0,40.0,False,,312.104878210493,[],"[960, 540]",ColorTask,63.0,13.0,,,HRV,HRV_0178,2022-11-30 18:49:14
,wl-rdm,130,454251,0.0-8.13-0.13,1.0,131.0,,,,,,,[],,,,,,73.6,1.0,i,1.0,True,693.0,42.0,59.0,40.0,False,,300.8003667170244,[],"[960, 540]",ColorTask,64.0,14.0,,,HRV,HRV_0178,2022-11-30 18:49:14
,wl-rdm,131,458142,0.0-8.14-0.14,1.0,132.0,,,,,,,[],,,,,,50.0,0.0,i,1.0,False,2515.0,151.0,59.0,40.0,False,,303.4350979211593,[],"[960, 540]",ColorTask,63.0,15.0,,,HRV,HRV_0178,2022-11-30 18:49:14
,wl-rdm,132,460459,0.0-8.15-0.15,1.0,133.0,,,,,,,[],,,,,,73.6,1.0,i,1.0,True,1027.0,62.0,59.0,40.0,False,,210.6730135863167,[],"[960, 540]",ColorTask,64.0,16.0,,,HRV,HRV_0178,2022-11-30 18:49:14
,wl-rdm,133,462727,0.0-8.16-0.16,1.0,134.0,,,,,,,[],,,,,,50.0,0.0,i,1.0,False,979.0,59.0,59.0,40.0,False,,218.11302462465628,[],"[960, 540]",ColorTask,63.0,17.0,,,HRV,HRV_0178,2022-11-30 18:49:14
,wl-rdm,134,465510,0.0-8.17-0.17,1.0,135.0,,,,,,,[],,,,,,62.5,1.0,i,1.0,True,1335.0,80.0,59.0,40.0,False,,371.9836456601408,[],"[960, 540]",ColorTask,64.0,18.0,,,HRV,HRV_0178,2022-11-30 18:49:14
,wl-rdm,135,468293,0.0-8.18-0.18,1.0,136.0,,,,,,,[],,,,,,50.0,0.0,u,0.0,True,1337.0,80.0,59.0,40.0,False,,368.9990418129245,[],"[960, 540]",ColorTask,65.0,19.0,,,HRV,HRV_0178,2022-11-30 18:49:14
,wl-rdm,136,470428,0.0-8.19-0.19,1.0,137.0,,,,,,,[],,,,,,53.2,1.0,u,0.0,False,838.0,51.0,59.0,40.0,False,,223.00363090728584,[],"[960, 540]",ColorTask,64.0,20.0,,,HRV,HRV_0178,2022-11-30 18:49:14
,wl-rdm,137,472559,0.0-8.20-0.20,1.0,138.0,,,,,,,[],,,,,,73.6,1.0,i,1.0,True,752.0,45.0,59.0,40.0,False,,323.45298863166136,[],"[960, 540]",ColorTask,65.0,21.0,,,HRV,HRV_0178,2022-11-30 18:49:14
,wl-rdm,138,476445,0.0-8.21-0.21,1.0,139.0,,,,,,,[],,,,,,62.5,0.0,u,0.0,True,2555.0,154.0,59.0,40.0,False,,254.85400126906222,[],"[960, 540]",ColorTask,66.0,22.0,,,HRV,HRV_0178,2022-11-30 18:49:14
,wl-rdm,139,479142,0.0-8.22-0.22,1.0,140.0,,,,,,,[],,,,,,56.4,0.0,u,0.0,True,1378.0,82.0,59.0,40.0,False,,249.9564051716245,[],"[960, 540]",ColorTask,67.0,23.0,,,HRV,HRV_0178,2022-11-30 18:49:14
,wl-rdm,140,481992,0.0-8.23-0.23,1.0,141.0,,,,,,,[],,,,,,56.4,0.0,i,1.0,False,1486.0,89.0,59.0,40.0,False,,294.7456047869636,[],"[960, 540]",ColorTask,66.0,24.0,,,HRV,HRV_0178,2022-11-30 18:49:14
,wl-rdm,141,484426,0.0-8.24-0.24,1.0,142.0,,,,,,,[],,,,,,62.5,0.0,u,0.0,True,968.0,58.0,59.0,40.0,False,,389.3177183721717,[],"[960, 540]",ColorTask,67.0,25.0,,,HRV,HRV_0178,2022-11-30 18:49:14
,wl-rdm,142,486944,0.0-8.25-0.25,1.0,143.0,,,,,,,[],,,,,,56.4,1.0,i,1.0,True,1206.0,70.0,59.0,40.0,False,,225.08775431709407,[],"[960, 540]",ColorTask,68.0,26.0,,,HRV,HRV_0178,2022-11-30 18:49:14
,wl-rdm,143,489026,0.0-8.26-0.26,1.0,144.0,,,,,,,[],,,,,,53.2,1.0,i,1.0,True,759.0,46.0,59.0,40.0,False,,244.21633489433302,[],"[960, 540]",ColorTask,69.0,27.0,,,HRV,HRV_0178,2022-11-30 18:49:14
,wl-rdm,144,491092,0.0-8.27-0.27,1.0,145.0,,,,,,,[],,,,,,87.9,0.0,u,0.0,True,670.0,41.0,59.0,40.0,False,,306.4165233195614,[],"[960, 540]",ColorTask,70.0,28.0,,,HRV,HRV_0178,2022-11-30 18:49:14
,wl-rdm,145,493076,0.0-8.28-0.28,1.0,146.0,,,,,,,[],,,,,,87.9,0.0,u,0.0,True,640.0,39.0,59.0,40.0,False,,257.82394221232124,[],"[960, 540]",ColorTask,71.0,29.0,,,HRV,HRV_0178,2022-11-30 18:49:14
,wl-rdm,146,495811,0.0-8.29-0.29,1.0,147.0,,,,,,,[],,,,,,56.4,0.0,u,0.0,True,1436.0,86.0,59.0,40.0,False,,233.43402036790647,[],"[960, 540]",ColorTask,72.0,30.0,,,HRV,HRV_0178,2022-11-30 18:49:14
,wl-rdm,147,498476,0.0-8.30-0.30,1.0,148.0,,,,,,,[],,,,,,50.0,1.0,u,0.0,False,1306.0,79.0,59.0,40.0,False,,292.7928214024154,[],"[960, 540]",ColorTask,71.0,31.0,,,HRV,HRV_0178,2022-11-30 18:49:14
,wl-rdm,148,500642,0.0-8.31-0.31,1.0,149.0,,,,,,,[],,,,,,87.9,1.0,i,1.0,True,741.0,45.0,59.0,40.0,False,,346.3865330688919,[],"[960, 540]",ColorTask,72.0,32.0,,,HRV,HRV_0178,2022-11-30 18:49:14
,wl-rdm,149,504057,0.0-8.32-0.32,1.0,150.0,,,,,,,[],,,,,,56.4,1.0,i,1.0,True,1992.0,119.0,59.0,40.0,False,,345.8016186550874,[],"[960, 540]",ColorTask,73.0,33.0,,,HRV,HRV_0178,2022-11-30 18:49:14
,wl-rdm,150,507174,0.0-8.33-0.33,1.0,151.0,,,,,,,[],,,,,,53.2,1.0,i,1.0,True,1656.0,100.0,59.0,40.0,False,,381.43052314984595,[],"[960, 540]",ColorTask,74.0,34.0,,,HRV,HRV_0178,2022-11-30 18:49:14
,wl-rdm,151,511658,0.0-8.34-0.34,1.0,151.0,,,,,,,[],,,,,,50.0,0.0,i,,,3060.0,176.0,59.0,40.0,True,RT_timeout ,369.20848006260223,[],"[960, 540]",ColorTask,73.0,35.0,,,HRV,HRV_0178,2022-11-30 18:49:14
,wl-rdm,152,513792,0.0-8.35-0.35,1.0,152.0,,,,,,,[],,,,,,56.4,1.0,i,1.0,True,728.0,44.0,59.0,40.0,False,,343.02093623474286,[],"[960, 540]",ColorTask,74.0,36.0,,,HRV,HRV_0178,2022-11-30 18:49:14
,wl-rdm,153,516358,0.0-8.36-0.36,1.0,153.0,,,,,,,[],,,,,,53.2,0.0,i,1.0,False,1207.0,73.0,59.0,40.0,False,,268.5500001978888,[],"[960, 540]",ColorTask,73.0,37.0,,,HRV,HRV_0178,2022-11-30 18:49:14
,wl-rdm,154,518624,0.0-8.37-0.37,1.0,154.0,,,,,,,[],,,,,,73.6,0.0,u,0.0,True,796.0,48.0,59.0,40.0,False,,390.2230136935699,[],"[960, 540]",ColorTask,74.0,38.0,,,HRV,HRV_0178,2022-11-30 18:49:14
,wl-rdm,155,521925,0.0-8.38-0.38,1.0,155.0,,,,,,,[],,,,,,50.0,0.0,i,1.0,False,1908.0,115.0,59.0,40.0,False,,307.5655551899105,[],"[960, 540]",ColorTask,73.0,39.0,,,HRV,HRV_0178,2022-11-30 18:49:14
,wl-rdm,156,524459,0.0-8.39-0.39,1.0,156.0,,,,,,,[],,,,,,50.0,1.0,u,0.0,False,1143.0,69.0,59.0,40.0,False,,330.39642828814374,[],"[960, 540]",ColorTask,72.0,40.0,,,HRV,HRV_0178,2022-11-30 18:49:14
,wl-rdm,157,526808,0.0-8.40-0.40,1.0,157.0,,,,,,,[],,,,,,73.6,1.0,i,1.0,True,1057.0,64.0,59.0,40.0,False,,201.4586842878684,[],"[960, 540]",ColorTask,73.0,41.0,,,HRV,HRV_0178,2022-11-30 18:49:14
,wl-rdm,158,529125,0.0-8.41-0.41,1.0,158.0,,,,,,,[],,,,,,73.6,0.0,u,0.0,True,819.0,50.0,59.0,40.0,False,,399.30324435569344,[],"[960, 540]",ColorTask,74.0,42.0,,,HRV,HRV_0178,2022-11-30 18:49:14
,wl-rdm,159,531457,0.0-8.42-0.42,1.0,159.0,,,,,,,[],,,,,,62.5,1.0,i,1.0,True,961.0,55.0,59.0,40.0,False,,302.2032784424449,[],"[960, 540]",ColorTask,75.0,43.0,,,HRV,HRV_0178,2022-11-30 18:49:14
,wl-rdm,160,533941,0.0-8.43-0.43,1.0,160.0,,,,,,,[],,,,,,73.6,0.0,u,0.0,True,1122.0,67.0,59.0,40.0,False,,289.3464802961274,[],"[960, 540]",ColorTask,76.0,44.0,,,HRV,HRV_0178,2022-11-30 18:49:14
,wl-rdm,161,536023,0.0-8.44-0.44,1.0,161.0,,,,,,,[],,,,,,56.4,1.0,i,1.0,True,780.0,47.0,59.0,40.0,False,,228.26723080930623,[],"[960, 540]",ColorTask,77.0,45.0,,,HRV,HRV_0178,2022-11-30 18:49:14
,wl-rdm,162,537576,0.0-8.45-0.45,1.0,161.0,,,,,,,[],,,,,,62.5,0.0,i,1.0,False,94.0,6.0,59.0,40.0,True,too_early ,391.8177922590023,[],"[960, 540]",ColorTask,76.0,46.0,,,HRV,HRV_0178,2022-11-30 18:49:14
,wl-rdm,163,539807,0.0-8.46-0.46,1.0,162.0,,,,,,,[],,,,,,62.5,1.0,i,1.0,True,941.0,56.0,59.0,40.0,False,,217.2887834302856,[],"[960, 540]",ColorTask,77.0,47.0,,,HRV,HRV_0178,2022-11-30 18:49:14
,wl-rdm,164,541840,0.0-8.47-0.47,1.0,163.0,,,,,,,[],,,,,,62.5,1.0,i,1.0,True,703.0,43.0,59.0,40.0,False,,233.2163694271294,[],"[960, 540]",ColorTask,78.0,48.0,,,HRV,HRV_0178,2022-11-30 18:49:14
,wl-rdm,165,544840,0.0-8.48-0.48,1.0,164.0,,,,,,,[],,,,,,53.2,1.0,i,1.0,True,1668.0,100.0,59.0,40.0,False,,256.61873818403535,[],"[960, 540]",ColorTask,79.0,49.0,,,HRV,HRV_0178,2022-11-30 18:49:14
,wl-rdm,166,547441,0.0-8.49-0.49,1.0,165.0,,,,,,,[],,,,,,53.2,0.0,i,1.0,False,1223.0,72.0,59.0,40.0,False,,303.94481203117715,[],"[960, 540]",ColorTask,78.0,50.0,,,HRV,HRV_0178,2022-11-30 18:49:14
,wl-rdm,167,549959,0.0-8.50-0.50,1.0,166.0,,,,,,,[],,,,,,56.4,0.0,u,0.0,True,1225.0,74.0,59.0,40.0,False,,223.58178948932326,[],"[960, 540]",ColorTask,79.0,51.0,,,HRV,HRV_0178,2022-11-30 18:49:14
,wl-rdm,168,552508,0.0-8.51-0.51,1.0,167.0,,,,,,,[],,,,,,50.0,1.0,u,0.0,False,1247.0,75.0,59.0,40.0,False,,244.1407984174072,[],"[960, 540]",ColorTask,78.0,52.0,,,HRV,HRV_0178,2022-11-30 18:49:14
,wl-rdm,169,555190,0.0-8.52-0.52,1.0,168.0,,,,,,,[],,,,,,56.4,1.0,i,1.0,True,1321.0,80.0,59.0,40.0,False,,281.99546929838203,[],"[960, 540]",ColorTask,79.0,53.0,,,HRV,HRV_0178,2022-11-30 18:49:14
,wl-rdm,170,557740,0.0-8.53-0.53,1.0,169.0,,,,,,,[],,,,,,50.0,1.0,i,1.0,True,1081.0,65.0,59.0,40.0,False,,384.10505966889957,[],"[960, 540]",ColorTask,80.0,54.0,,,HRV,HRV_0178,2022-11-30 18:49:14
,wl-rdm,171,559856,0.0-8.54-0.54,1.0,170.0,,,,,,,[],,,,,,73.6,0.0,u,0.0,True,735.0,42.0,59.0,40.0,False,,307.27068378630963,[],"[960, 540]",ColorTask,81.0,55.0,,,HRV,HRV_0178,2022-11-30 18:49:14
,wl-rdm,172,562007,0.0-8.55-0.55,1.0,171.0,,,,,,,[],,,,,,87.9,1.0,i,1.0,True,787.0,48.0,59.0,40.0,False,,268.432021560506,[],"[960, 540]",ColorTask,82.0,56.0,,,HRV,HRV_0178,2022-11-30 18:49:14
,wl-rdm,173,564123,0.0-8.56-0.56,1.0,172.0,,,,,,,[],,,,,,87.9,1.0,i,1.0,True,707.0,43.0,59.0,40.0,False,,326.2394504624639,[],"[960, 540]",ColorTask,83.0,57.0,,,HRV,HRV_0178,2022-11-30 18:49:14
,wl-rdm,174,566607,0.0-8.57-0.57,1.0,173.0,,,,,,,[],,,,,,62.5,0.0,i,1.0,False,1068.0,65.0,59.0,40.0,False,,347.743948549352,[],"[960, 540]",ColorTask,82.0,58.0,,,HRV,HRV_0178,2022-11-30 18:49:14
,wl-rdm,175,569007,0.0-8.58-0.58,1.0,174.0,,,,,,,[],,,,,,53.2,0.0,i,1.0,False,1047.0,63.0,59.0,40.0,False,,278.2105877645604,[],"[960, 540]",ColorTask,81.0,59.0,,,HRV,HRV_0178,2022-11-30 18:49:14
,wl-rdm,176,571657,0.0-8.59-0.59,1.0,175.0,,,,,,,[],,,,,,50.0,1.0,u,0.0,False,1180.0,71.0,59.0,40.0,False,,394.49166210019143,[],"[960, 540]",ColorTask,80.0,60.0,,,HRV,HRV_0178,2022-11-30 18:49:14
,wl-rdm,177,573809,0.0-8.60-0.60,1.0,176.0,,,,,,,[],,,,,,87.9,1.0,i,1.0,True,714.0,43.0,59.0,40.0,False,,374.6856101293971,[],"[960, 540]",ColorTask,81.0,61.0,,,HRV,HRV_0178,2022-11-30 18:49:14
,wl-rdm,178,576439,0.0-8.61-0.61,1.0,177.0,,,,,,,[],,,,,,50.0,1.0,u,0.0,False,1330.0,80.0,59.0,40.0,False,,225.61411882621013,[],"[960, 540]",ColorTask,80.0,62.0,,,HRV,HRV_0178,2022-11-30 18:49:14
,wl-rdm,179,578524,0.0-8.62-0.62,1.0,178.0,,,,,,,[],,,,,,73.6,1.0,i,1.0,True,703.0,43.0,59.0,40.0,False,,295.67726842723334,[],"[960, 540]",ColorTask,81.0,63.0,,,HRV,HRV_0178,2022-11-30 18:49:14
,wl-rdm,180,580556,0.0-8.63-0.63,1.0,179.0,,,,,,,[],,,,,,87.9,0.0,u,0.0,True,718.0,43.0,59.0,40.0,False,,245.04872191730067,[],"[960, 540]",ColorTask,82.0,64.0,,,HRV,HRV_0178,2022-11-30 18:49:14
,wl-rdm,181,583440,0.0-8.64-0.64,1.0,180.0,,,,,,,[],,,,,,73.6,1.0,i,1.0,True,1529.0,92.0,59.0,40.0,False,,283.2585769640784,[],"[960, 540]",ColorTask,83.0,65.0,,,HRV,HRV_0178,2022-11-30 18:49:14
,wl-rdm,182,585691,0.0-8.65-0.65,1.0,181.0,,,,,,,[],,,,,,87.9,0.0,u,0.0,True,931.0,57.0,59.0,40.0,False,,218.87446086707521,[],"[960, 540]",ColorTask,84.0,66.0,,,HRV,HRV_0178,2022-11-30 18:49:14
,wl-rdm,183,588322,0.0-8.66-0.66,1.0,182.0,,,,,,,[],,,,,,62.5,0.0,u,0.0,True,1294.0,78.0,59.0,40.0,False,,261.2258663149089,[],"[960, 540]",ColorTask,85.0,67.0,,,HRV,HRV_0178,2022-11-30 18:49:14
,wl-rdm,184,591258,0.0-8.67-0.67,1.0,183.0,,,,,,,[],,,,,,56.4,1.0,i,1.0,True,1540.0,92.0,59.0,40.0,False,,322.6950229578384,[],"[960, 540]",ColorTask,86.0,68.0,,,HRV,HRV_0178,2022-11-30 18:49:14
,wl-rdm,185,593260,0.0-8.68-0.68,1.0,184.0,,,,,,,[],,,,,,87.9,1.0,i,1.0,True,729.0,44.0,59.0,40.0,False,,211.70291234056566,[],"[960, 540]",ColorTask,87.0,69.0,,,HRV,HRV_0178,2022-11-30 18:49:14
,wl-rdm,186,595440,0.0-8.69-0.69,1.0,185.0,,,,,,,[],,,,,,62.5,1.0,i,1.0,True,806.0,48.0,59.0,40.0,False,,308.39525736808275,[],"[960, 540]",ColorTask,88.0,70.0,,,HRV,HRV_0178,2022-11-30 18:49:14
,wl-rdm,187,597792,0.0-8.70-0.70,1.0,186.0,,,,,,,[],,,,,,56.4,0.0,u,0.0,True,1006.0,61.0,59.0,40.0,False,,259.8494025058545,[],"[960, 540]",ColorTask,89.0,71.0,,,HRV,HRV_0178,2022-11-30 18:49:14
,wl-rdm,188,600423,0.0-8.71-0.71,1.0,187.0,,,,,,,[],,,,,,50.0,0.0,u,0.0,True,1365.0,82.0,59.0,40.0,False,,202.03794278951747,[],"[960, 540]",ColorTask,90.0,72.0,,,HRV,HRV_0178,2022-11-30 18:49:14
,wl-rdm,189,602738,0.0-8.72-0.72,1.0,188.0,,,,,,,[],,,,,,73.6,0.0,u,0.0,True,1006.0,61.0,59.0,40.0,False,,242.51704074808688,[],"[960, 540]",ColorTask,91.0,73.0,,,HRV,HRV_0178,2022-11-30 18:49:14
,wl-rdm,190,604691,0.0-8.73-0.73,1.0,189.0,,,,,,,[],,,,,,87.9,0.0,i,1.0,False,618.0,37.0,59.0,40.0,False,,262.22453249394545,[],"[960, 540]",ColorTask,90.0,74.0,,,HRV,HRV_0178,2022-11-30 18:49:14
,wl-rdm,191,608407,0.0-8.74-0.74,1.0,190.0,,,,,,,[],,,,,,50.0,1.0,i,1.0,True,2443.0,147.0,59.0,40.0,False,,213.71021018540085,[],"[960, 540]",ColorTask,91.0,75.0,,,HRV,HRV_0178,2022-11-30 18:49:14
,wl-rdm,192,610805,0.0-8.75-0.75,1.0,191.0,,,,,,,[],,,,,,62.5,1.0,i,1.0,True,1090.0,66.0,59.0,40.0,False,,219.78875865490824,[],"[960, 540]",ColorTask,92.0,76.0,,,HRV,HRV_0178,2022-11-30 18:49:14
,wl-rdm,193,613804,0.0-8.76-0.76,1.0,192.0,,,,,,,[],,,,,,62.5,0.0,i,1.0,False,1522.0,91.0,59.0,40.0,False,,383.0920842293975,[],"[960, 540]",ColorTask,91.0,77.0,,,HRV,HRV_0178,2022-11-30 18:49:14
,wl-rdm,194,616154,0.0-8.77-0.77,1.0,193.0,,,,,,,[],,,,,,50.0,1.0,i,1.0,True,998.0,60.0,59.0,40.0,False,,283.2881480718137,[],"[960, 540]",ColorTask,92.0,78.0,,,HRV,HRV_0178,2022-11-30 18:49:14
,wl-rdm,195,618237,0.0-8.78-0.78,1.0,194.0,,,,,,,[],,,,,,53.2,0.0,u,0.0,True,653.0,40.0,59.0,40.0,False,,359.5124047859208,[],"[960, 540]",ColorTask,93.0,79.0,,,HRV,HRV_0178,2022-11-30 18:49:14
,wl-rdm,196,620373,0.0-8.79-0.79,1.0,195.0,,,,,,,[],,,,,,73.6,0.0,u,0.0,True,772.0,47.0,59.0,40.0,False,,287.231797518855,[],"[960, 540]",ColorTask,94.0,80.0,,,HRV,HRV_0178,2022-11-30 18:49:14
,wl-rdm,197,622421,0.0-8.80-0.80,1.0,196.0,,,,,,,[],,,,,,87.9,0.0,u,0.0,True,662.0,40.0,59.0,40.0,False,,309.8666456224042,[],"[960, 540]",ColorTask,95.0,81.0,,,HRV,HRV_0178,2022-11-30 18:49:14
,wl-rdm,198,624723,0.0-8.81-0.81,1.0,197.0,,,,,,,[],,,,,,56.4,0.0,u,0.0,True,919.0,56.0,59.0,40.0,False,,322.78612958223624,[],"[960, 540]",ColorTask,96.0,82.0,,,HRV,HRV_0178,2022-11-30 18:49:14
,wl-rdm,199,626707,0.0-8.82-0.82,1.0,198.0,,,,,,,[],,,,,,87.9,1.0,i,1.0,True,685.0,41.0,59.0,40.0,False,,214.5173942532648,[],"[960, 540]",ColorTask,97.0,83.0,,,HRV,HRV_0178,2022-11-30 18:49:14
,wl-rdm,200,628621,0.0-8.83-0.83,1.0,199.0,,,,,,,[],,,,,,87.9,1.0,i,1.0,True,625.0,38.0,59.0,40.0,False,,205.12299687080872,[],"[960, 540]",ColorTask,98.0,84.0,,,HRV,HRV_0178,2022-11-30 18:49:14
,wl-rdm,201,631420,0.0-8.84-0.84,1.0,200.0,,,,,,,[],,,,,,62.5,0.0,u,0.0,True,1471.0,89.0,59.0,40.0,False,,241.08956028920144,[],"[960, 540]",ColorTask,99.0,85.0,,,HRV,HRV_0178,2022-11-30 18:49:14
,wl-rdm,202,633371,0.0-8.85-0.85,1.0,201.0,,,,,,,[],,,,,,87.9,0.0,u,0.0,True,665.0,40.0,59.0,40.0,False,,205.81239529819436,[],"[960, 540]",ColorTask,100.0,86.0,,,HRV,HRV_0178,2022-11-30 18:49:14
,wl-rdm,203,635772,0.0-8.86-0.86,1.0,202.0,,,,,,,[],,,,,,73.6,1.0,i,1.0,True,974.0,59.0,59.0,40.0,False,,340.4993864850246,[],"[960, 540]",ColorTask,101.0,87.0,,,HRV,HRV_0178,2022-11-30 18:49:14
,wl-rdm,204,637744,0.0-8.87-0.87,1.0,203.0,,,,,,,[],,,,,,73.6,0.0,u,0.0,True,644.0,39.0,59.0,40.0,False,,257.73780376992244,[],"[960, 540]",ColorTask,102.0,88.0,,,HRV,HRV_0178,2022-11-30 18:49:14
,wl-rdm,205,639991,0.0-8.88-0.88,1.0,204.0,,,,,,,[],,,,,,53.2,0.0,u,0.0,True,916.0,55.0,59.0,40.0,False,,248.76394959213806,[],"[960, 540]",ColorTask,103.0,89.0,,,HRV,HRV_0178,2022-11-30 18:49:14
,wl-rdm,206,643773,0.0-8.89-0.89,1.0,205.0,,,,,,,[],,,,,,56.4,1.0,u,0.0,False,2354.0,141.0,59.0,40.0,False,,370.2942104714226,[],"[960, 540]",ColorTask,102.0,90.0,,,HRV,HRV_0178,2022-11-30 18:49:14
,wl-rdm,207,646904,0.0-8.90-0.90,1.0,206.0,,,,,,,[],,,,,,53.2,0.0,u,0.0,True,1704.0,103.0,59.0,40.0,False,,354.33868023984417,[],"[960, 540]",ColorTask,103.0,91.0,,,HRV,HRV_0178,2022-11-30 18:49:14
,wl-rdm,208,649290,0.0-8.91-0.91,1.0,207.0,,,,,,,[],,,,,,53.2,0.0,i,1.0,False,972.0,59.0,59.0,40.0,False,,343.739538626303,[],"[960, 540]",ColorTask,102.0,92.0,,,HRV,HRV_0178,2022-11-30 18:49:14
,wl-rdm,209,652038,0.0-8.92-0.92,1.0,208.0,,,,,,,[],,,,,,73.6,0.0,u,0.0,True,1324.0,80.0,59.0,40.0,False,,358.6974836800074,[],"[960, 540]",ColorTask,103.0,93.0,,,HRV,HRV_0178,2022-11-30 18:49:14
,wl-rdm,210,654889,0.0-8.93-0.93,1.0,209.0,,,,,,,[],,,,,,53.2,1.0,i,1.0,True,1531.0,92.0,59.0,40.0,False,,256.59297932995526,[],"[960, 540]",ColorTask,104.0,94.0,,,HRV,HRV_0178,2022-11-30 18:49:14
,wl-rdm,211,657054,0.0-8.94-0.94,1.0,210.0,,,,,,,[],,,,,,56.4,1.0,i,1.0,True,702.0,42.0,59.0,40.0,False,,393.8718036536379,[],"[960, 540]",ColorTask,105.0,95.0,,,HRV,HRV_0178,2022-11-30 18:49:14
,wl-rdm,212,659088,0.0-8.95-0.95,1.0,211.0,,,,,,,[],,,,,,62.5,1.0,i,1.0,True,687.0,42.0,59.0,40.0,False,,266.47612364574763,[],"[960, 540]",ColorTask,106.0,96.0,,,HRV,HRV_0178,2022-11-30 18:49:14
,wl-rdm,213,661272,0.0-8.96-0.96,1.0,212.0,,,,,,,[],,,,,,53.2,1.0,i,1.0,True,811.0,49.0,59.0,40.0,False,,286.1272634493679,[],"[960, 540]",ColorTask,107.0,97.0,,,HRV,HRV_0178,2022-11-30 18:49:14
,wl-rdm,214,663472,0.0-8.97-0.97,1.0,213.0,,,,,,,[],,,,,,50.0,0.0,i,1.0,False,910.0,55.0,59.0,40.0,False,,201.78660490134416,[],"[960, 540]",ColorTask,106.0,98.0,,,HRV,HRV_0178,2022-11-30 18:49:14
,wl-rdm,215,666054,0.0-8.98-0.98,1.0,214.0,,,,,,,[],,,,,,73.6,1.0,i,1.0,True,1259.0,76.0,59.0,40.0,False,,251.06367819385986,[],"[960, 540]",ColorTask,107.0,99.0,,,HRV,HRV_0178,2022-11-30 18:49:14
,wl-rdm,216,668721,0.0-8.99-0.99,1.0,215.0,,,,,,,[],,,,,,56.4,1.0,u,0.0,False,1390.0,84.0,59.0,40.0,False,,205.61167573510198,[],"[960, 540]",ColorTask,106.0,100.0,,,HRV,HRV_0178,2022-11-30 18:49:14
,wl-rdm,217,670953,0.0-8.100-0.100,1.0,216.0,,,,,,,[],,,,,,56.4,0.0,u,0.0,True,900.0,54.0,59.0,40.0,False,,262.36323583626194,[],"[960, 540]",ColorTask,107.0,101.0,,,HRV,HRV_0178,2022-11-30 18:49:14
,wl-rdm,218,673304,0.0-8.101-0.101,1.0,217.0,,,,,,,[],,,,,,50.0,0.0,i,1.0,False,967.0,58.0,59.0,40.0,False,,306.9012256828952,[],"[960, 540]",ColorTask,106.0,102.0,,,HRV,HRV_0178,2022-11-30 18:49:14
,wl-rdm,219,675771,0.0-8.102-0.102,1.0,218.0,,,,,,,[],,,,,,87.9,0.0,u,0.0,True,999.0,60.0,59.0,40.0,False,,385.7425977635282,[],"[960, 540]",ColorTask,107.0,103.0,,,HRV,HRV_0178,2022-11-30 18:49:14
,wl-rdm,220,678536,0.0-8.103-0.103,1.0,219.0,,,,,,,[],,,,,,56.4,0.0,u,0.0,True,1437.0,87.0,59.0,40.0,False,,240.5754394365335,[],"[960, 540]",ColorTask,108.0,104.0,,,HRV,HRV_0178,2022-11-30 18:49:14
,wl-rdm,221,680819,0.0-8.104-0.104,1.0,220.0,,,,,,,[],,,,,,62.5,1.0,u,0.0,False,865.0,52.0,59.0,40.0,False,,349.2300804721393,[],"[960, 540]",ColorTask,107.0,105.0,,,HRV,HRV_0178,2022-11-30 18:49:14
,wl-rdm,222,683103,0.0-8.105-0.105,1.0,221.0,,,,,,,[],,,,,,53.2,0.0,u,0.0,True,944.0,57.0,59.0,40.0,False,,266.67024711753436,[],"[960, 540]",ColorTask,108.0,106.0,,,HRV,HRV_0178,2022-11-30 18:49:14
,wl-rdm,223,685256,0.0-8.106-0.106,1.0,222.0,,,,,,,[],,,,,,87.9,0.0,u,0.0,True,787.0,48.0,59.0,40.0,False,,274.5941731697583,[],"[960, 540]",ColorTask,109.0,107.0,,,HRV,HRV_0178,2022-11-30 18:49:14
,wl-rdm,224,688087,0.0-8.107-0.107,1.0,223.0,,,,,,,[],,,,,,62.5,0.0,u,0.0,True,1439.0,86.0,59.0,40.0,False,,317.84193238303106,[],"[960, 540]",ColorTask,110.0,108.0,,,HRV,HRV_0178,2022-11-30 18:49:14
,wl-rdm,225,690554,0.0-8.108-0.108,1.0,224.0,,,,,,,[],,,,,,50.0,0.0,i,1.0,False,1135.0,69.0,59.0,40.0,False,,247.1657915551932,[],"[960, 540]",ColorTask,109.0,109.0,,,HRV,HRV_0178,2022-11-30 18:49:14
,wl-rdm,226,692520,0.0-8.109-0.109,1.0,225.0,,,,,,,[],,,,,,87.9,1.0,i,1.0,True,668.0,41.0,59.0,40.0,False,,203.73168016021106,[],"[960, 540]",ColorTask,110.0,110.0,,,HRV,HRV_0178,2022-11-30 18:49:14
,wl-html-button-response,227,695399,0.0-9.0-0.0,,,,,,,,,,2873.0,,0,,,,,,,,,,,,,,,,,,,,<h3>End of this session. Thank you!</h3><br>,['Close window'],HRV,HRV_0178,2022-11-30 18:49:14
