success,trial_type,trial_index,time_elapsed,internal_node_id,Block,TrialNumber,TrialTime,trialTimeDiff,FPS_avg,FPS_med,FPS_mode,TrialDur,winResizeTime,rt,block,button_pressed,MotCoh,MotDir,ColCoh,Color,ChoiceKey,Choice,Accuracy,RT,nFrames,FPS,PPD,missTrial,missTrialMsg,onsetDelay,fullScreenExitTime,canvCenter,TrialType,Score,BlockTrial,stimulus,button_labels,exp,subjectId,date
True,fullscreen,0,74201,0.0-0.0,0.0,1.0,,,,,,,,,,,,,,,,,,,,,,,,,,,,,,,,HRV,HRV_0097,2022-11-30 18:09:35
,wl-check-fps,1,79220,0.0-1.0,0.0,2.0,"[75009.7, 75024.4, 75041.9, 75057.9, 75074.8, 75091.2, 75108, 75125.1, 75142, 75159.1, 75175.4, 75192, 75208.6, 75225.5, 75241.8, 75258.4, 75274.6, 75292.2, 75309, 75324.9, 75341.1, 75357.6, 75374, 75390.8, 75407.4, 75424.5, 75441.3, 75459.4, 75476.3, 75492.1, 75507.8, 75524.8, 75542, 75557.9, 75574.7, 75591.2, 75608, 75624.8, 75642.3, 75658.2, 75675.5, 75691, 75707.8, 75724.3, 75740.8, 75757.9, 75774.8, 75791, 75808.9, 75824.6, 75841.4, 75858, 75874.7, 75891, 75907.7, 75924.3, 75941.1, 75957.8, 75974.7, 75991.4, 76008.3, 76024.8, 76041.3, 76058.2, 76074.9, 76091.9, 76108.9, 76125.4, 76142.1, 76158.7, 76174.8, 76191.5, 76208.3, 76225, 76241.6, 76258.2, 76274.6, 76291.6, 76308.4, 76325, 76341.9, 76358.9, 76375.3, 76391.8, 76408.7, 76424.9, 76441.7, 76458.5, 76475.2, 76491.5, 76508.5, 76525.8, 76541.4, 76558.1, 76574.8, 76591.9, 76608.6, 76624.9, 76641.8, 76658.6, 76675.3, 76691.6, 76708.4, 76725, 76741.4, 76758, 76774.8, 76791.4, 76808.5, 76824.9, 76841.7, 76858.3, 76875.2, 76891.7, 76908.3, 76924.9, 76942.2, 76958.9, 76975.6, 76992.4, 77009.2, 77025.8, 77042, 77058.4, 77075.2, 77091.8, 77108.8, 77125.5, 77141.9, 77158.5, 77175.3, 77191.8, 77208.6, 77225.1, 77241.8, 77259.3, 77275.3, 77291.9, 77308.7, 77325.4, 77341.8, 77358.5, 77375.2, 77392.1, 77409.1, 77425.5, 77442.4, 77458.8, 77475.3, 77492.5, 77509.6, 77525.1, 77541.9, 77558.8, 77575.6, 77592.3, 77608.9, 77625.3, 77642.3, 77659.1, 77675.8, 77692.2, 77708.9, 77726.2, 77742.9, 77759, 77775.5, 77792.3, 77809.6, 77825.5, 77842.8, 77859.3, 77876, 77892.1, 77909.6, 77925.7, 77943, 77959, 77975.4, 77992.1, 78009, 78026.6, 78042.2, 78059, 78075.4, 78092.4, 78108.9, 78125.4, 78142.1, 78158.7, 78175.9, 78192.4, 78209.1, 78225.6, 78242.2, 78259.2, 78275.8, 78292.1, 78309.5, 78325.6, 78342.3, 78359.5, 78375.9, 78392.6, 78409, 78425.7, 78442.5, 78459.2, 78475.7, 78492.5, 78509.1, 78525.7, 78542.4, 78559.1, 78575.8, 78592.6, 78609.7, 78625.8, 78642.4, 78659.3, 78675.8, 78692.5, 78709.2, 78726, 78742.7, 78759.4, 78776.2, 78792.5, 78810.1, 78825.6, 78842.2, 78859, 78875.6, 78892.5, 78909.2, 78925.7, 78942.7, 78959.3, 78976.3, 78993.2, 79009.3, 79026.2, 79042.7, 79059.6, 79075.8, 79092.8, 79109.3, 79126, 79142.6, 79159.5, 79176, 79192.9, 79209.2, 79225.9, 79243.3, 79259.9, 79276, 79292.8, 79309.8, 79326.5, 79342.9, 79359.7, 79376.4, 79393.7, 79410.2, 79426.8, 79443.6, 79459.6, 79476.5, 79493, 79509.7, 79526.6, 79542.8, 79559.3, 79576.4, 79593, 79609.8, 79627.4, 79643, 79660.1, 79676.3, 79693.1, 79710, 79726.3, 79743.1, 79759.8, 79777.1, 79793, 79810.3, 79826.2, 79842.6, 79859.3, 79876.1, 79892.9, 79909.7, 79926.5, 79943.2, 79960.1, 79976.4, 79993.1]","[15.2, 14.7, 17.5, 16, 16.9, 16.4, 16.8, 17.1, 16.9, 17.1, 16.3, 16.6, 16.6, 16.9, 16.3, 16.6, 16.2, 17.6, 16.8, 15.9, 16.2, 16.5, 16.4, 16.8, 16.6, 17.1, 16.8, 18.1, 16.9, 15.8, 15.7, 17, 17.2, 15.9, 16.8, 16.5, 16.8, 16.8, 17.5, 15.9, 17.3, 15.5, 16.8, 16.5, 16.5, 17.1, 16.9, 16.2, 17.9, 15.7, 16.8, 16.6, 16.7, 16.3, 16.7, 16.6, 16.8, 16.7, 16.9, 16.7, 16.9, 16.5, 16.5, 16.9, 16.7, 17, 17, 16.5, 16.7, 16.6, 16.1, 16.7, 16.8, 16.7, 16.6, 16.6, 16.4, 17, 16.8, 16.6, 16.9, 17, 16.4, 16.5, 16.9, 16.2, 16.8, 16.8, 16.7, 16.3, 17, 17.3, 15.6, 16.7, 16.7, 17.1, 16.7, 16.3, 16.9, 16.8, 16.7, 16.3, 16.8, 16.6, 16.4, 16.6, 16.8, 16.6, 17.1, 16.4, 16.8, 16.6, 16.9, 16.5, 16.6, 16.6, 17.3, 16.7, 16.7, 16.8, 16.8, 16.6, 16.2, 16.4, 16.8, 16.6, 17, 16.7, 16.4, 16.6, 16.8, 16.5, 16.8, 16.5, 16.7, 17.5, 16, 16.6, 16.8, 16.7, 16.4, 16.7, 16.7, 16.9, 17, 16.4, 16.9, 16.4, 16.5, 17.2, 17.1, 15.5, 16.8, 16.9, 16.8, 16.7, 16.6, 16.4, 17, 16.8, 16.7, 16.4, 16.7, 17.3, 16.7, 16.1, 16.5, 16.8, 17.3, 15.9, 17.3, 16.5, 16.7, 16.1, 17.5, 16.1, 17.3, 16, 16.4, 16.7, 16.9, 17.6, 15.6, 16.8, 16.4, 17, 16.5, 16.5, 16.7, 16.6, 17.2, 16.5, 16.7, 16.5, 16.6, 17, 16.6, 16.3, 17.4, 16.1, 16.7, 17.2, 16.4, 16.7, 16.4, 16.7, 16.8, 16.7, 16.5, 16.8, 16.6, 16.6, 16.7, 16.7, 16.7, 16.8, 17.1, 16.1, 16.6, 16.9, 16.5, 16.7, 16.7, 16.8, 16.7, 16.7, 16.8, 16.3, 17.6, 15.5, 16.6, 16.8, 16.6, 16.9, 16.7, 16.5, 17, 16.6, 17, 16.9, 16.1, 16.9, 16.5, 16.9, 16.2, 17, 16.5, 16.7, 16.6, 16.9, 16.5, 16.9, 16.3, 16.7, 17.4, 16.6, 16.1, 16.8, 17, 16.7, 16.4, 16.8, 16.7, 17.3, 16.5, 16.6, 16.8, 16, 16.9, 16.5, 16.7, 16.9, 16.2, 16.5, 17.1, 16.6, 16.8, 17.6, 15.6, 17.1, 16.2, 16.8, 16.9, 16.3, 16.8, 16.7, 17.3, 15.9, 17.3, 15.9, 16.4, 16.7, 16.8, 16.8, 16.8, 16.8, 16.7, 16.9, 16.3, 16.7]",60.0,58.0,60.0,5015.3,[],,,,,,,,,,,,,,,,,,,,,,,,,HRV,HRV_0097,2022-11-30 18:09:35
,wl-html-keyboard-response,2,96786,0.0-2.0-0.0,0.0,3.0,,,,,,,,15559.699999988079,0.0,0,,,,,,,,,,,,,,,,,,,,,,HRV,HRV_0097,2022-11-30 18:09:35
,wl-rdm,3,105863,0.0-3.0-0.0,0.0,4.0,,,,,,,[],,,,0.0,0.0,87.9,0.0,u,0.0,True,3504.7000000476837,211.0,60.0,40.0,False,,3000.0,[],"[768, 432]",ColorTask_Demo,,,,,HRV,HRV_0097,2022-11-30 18:09:35
,wl-rdm,4,111131,0.0-3.0-1.0,0.0,5.0,,,,,,,[],,,,0.0,0.0,87.9,1.0,i,1.0,True,1202.3999999761581,73.0,60.0,40.0,False,,2000.0,[],"[768, 432]",ColorTask_Demo,,,,,HRV,HRV_0097,2022-11-30 18:09:35
,wl-html-keyboard-response,5,120587,0.0-3.0-2.0,0.0,6.0,,,,,,,,,0.0,0,,,,,,,,,,,,,,,,,,,,,,HRV,HRV_0097,2022-11-30 18:09:35
,wl-rdm,6,127288,0.0-3.1-0.1,0.0,4.0,,,,,,,[],,,,0.0,0.0,87.9,0.0,u,0.0,True,1149.5999999642372,69.0,60.0,40.0,False,,3000.0,[],"[768, 432]",ColorTask_Demo,,,,,HRV,HRV_0097,2022-11-30 18:09:35
,wl-rdm,7,132106,0.0-3.1-1.1,0.0,5.0,,,,,,,[],,,,0.0,0.0,87.9,1.0,i,1.0,True,755.1000000238419,46.0,60.0,40.0,False,,2000.0,[],"[768, 432]",ColorTask_Demo,,,,,HRV,HRV_0097,2022-11-30 18:09:35
,wl-html-keyboard-response,8,138814,0.0-3.1-2.1,0.0,6.0,,,,,,,,,0.0,0,,,,,,,,,,,,,,,,,,,,,,HRV,HRV_0097,2022-11-30 18:09:35
,wl-rdm,9,145494,0.0-3.2-0.2,0.0,4.0,,,,,,,[],,,,0.0,0.0,87.9,0.0,u,0.0,True,1132.699999988079,68.0,60.0,40.0,False,,3000.0,[],"[768, 432]",ColorTask_Demo,,,,,HRV,HRV_0097,2022-11-30 18:09:35
,wl-rdm,10,150480,0.0-3.2-1.2,0.0,5.0,,,,,,,[],,,,0.0,0.0,87.9,1.0,i,1.0,True,917.5,55.0,60.0,40.0,False,,2000.0,[],"[768, 432]",ColorTask_Demo,,,,,HRV,HRV_0097,2022-11-30 18:09:35
,wl-html-keyboard-response,11,154551,0.0-3.2-2.2,0.0,6.0,,,,,,,,,0.0,0,,,,,,,,,,,,,,,,,,,,,,HRV,HRV_0097,2022-11-30 18:09:35
,wl-rdm,12,161334,0.0-3.3-0.3,0.0,4.0,,,,,,,[],,,,0.0,0.0,87.9,0.0,u,0.0,True,1222.8999999761581,74.0,60.0,40.0,False,,3000.0,[],"[768, 432]",ColorTask_Demo,,,,,HRV,HRV_0097,2022-11-30 18:09:35
,wl-rdm,13,166352,0.0-3.3-1.3,0.0,5.0,,,,,,,[],,,,0.0,0.0,87.9,1.0,i,1.0,True,966.4000000357628,58.0,60.0,40.0,False,,2000.0,[],"[768, 432]",ColorTask_Demo,,,,,HRV,HRV_0097,2022-11-30 18:09:35
,wl-html-keyboard-response,14,174427,0.0-3.3-2.3,0.0,6.0,,,,,,,,,0.0,0,,,,,,,,,,,,,,,,,,,,,,HRV,HRV_0097,2022-11-30 18:09:35
,wl-rdm,15,180858,0.0-3.4-0.4,0.0,4.0,,,,,,,[],,,,0.0,0.0,87.9,0.0,u,0.0,True,882.8000000119209,53.0,60.0,40.0,False,,3000.0,[],"[768, 432]",ColorTask_Demo,,,,,HRV,HRV_0097,2022-11-30 18:09:35
,wl-rdm,16,185609,0.0-3.4-1.4,0.0,5.0,,,,,,,[],,,,0.0,0.0,87.9,1.0,i,1.0,True,683.8999999761581,41.0,60.0,40.0,False,,2000.0,[],"[768, 432]",ColorTask_Demo,,,,,HRV,HRV_0097,2022-11-30 18:09:35
,wl-html-keyboard-response,17,188983,0.0-3.4-2.4,0.0,6.0,,,,,,,,,0.0,0,,,,,,,,,,,,,,,,,,,,,,HRV,HRV_0097,2022-11-30 18:09:35
,wl-rdm,18,195296,0.0-3.5-0.5,0.0,4.0,,,,,,,[],,,,0.0,0.0,87.9,0.0,u,0.0,True,761.1999999880791,46.0,60.0,40.0,False,,3000.0,[],"[768, 432]",ColorTask_Demo,,,,,HRV,HRV_0097,2022-11-30 18:09:35
,wl-rdm,19,200481,0.0-3.5-1.5,0.0,5.0,,,,,,,[],,,,0.0,0.0,87.9,1.0,i,1.0,True,1130.4000000357628,68.0,60.0,40.0,False,,2000.0,[],"[768, 432]",ColorTask_Demo,,,,,HRV,HRV_0097,2022-11-30 18:09:35
,wl-html-keyboard-response,20,203184,0.0-3.5-2.5,0.0,6.0,,,,,,,,694.1999999880791,0.0,1,,,,,,,,,,,,,,,,,,,,,,HRV,HRV_0097,2022-11-30 18:09:35
,wl-html-keyboard-response,21,223101,0.0-4.0-0.0,0.0,7.0,,,,,,,,17913.100000023842,0.0,0,,,,,,,,,,,,,,,,,,,,,,HRV,HRV_0097,2022-11-30 18:09:35
,wl-html-keyboard-response,22,238934,0.0-5.0-0.0,0.0,8.0,,,,,,,,13828.5,0.0,0,,,,,,,,,,,,,,,,,,,,,,HRV,HRV_0097,2022-11-30 18:09:35
,wl-rdm,23,241448,0.0-6.0-0.0,0.0,9.0,,,,,,,[],,,,,,73.6,0.0,u,0.0,True,1223.7000000476837,74.0,60.0,40.0,False,,220.0825617228817,[],"[768, 432]",ColorTask,1.0,1.0,,,HRV,HRV_0097,2022-11-30 18:09:35
,wl-rdm,24,243981,0.0-6.1-0.1,0.0,10.0,,,,,,,[],,,,,,56.4,0.0,u,0.0,True,1073.9000000357628,65.0,60.0,40.0,False,,397.81291174166336,[],"[768, 432]",ColorTask,2.0,2.0,,,HRV,HRV_0097,2022-11-30 18:09:35
,wl-rdm,25,246099,0.0-6.2-0.2,0.0,11.0,,,,,,,[],,,,,,53.2,0.0,i,1.0,False,755.1999999880791,46.0,60.0,40.0,False,,287.59415648715304,[],"[768, 432]",ColorTask,1.0,3.0,,,HRV,HRV_0097,2022-11-30 18:09:35
,wl-rdm,26,248299,0.0-6.3-0.3,0.0,12.0,,,,,,,[],,,,,,62.5,1.0,u,0.0,False,840.1999999880791,51.0,60.0,40.0,False,,287.7913065792686,[],"[768, 432]",ColorTask,0.0,4.0,,,HRV,HRV_0097,2022-11-30 18:09:35
,wl-rdm,27,250333,0.0-6.4-0.4,0.0,13.0,,,,,,,[],,,,,,73.6,1.0,i,1.0,True,655.0999999642372,40.0,60.0,40.0,False,,291.73562955009487,[],"[768, 432]",ColorTask,1.0,5.0,,,HRV,HRV_0097,2022-11-30 18:09:35
,wl-rdm,28,252417,0.0-6.5-0.5,0.0,14.0,,,,,,,[],,,,,,53.2,1.0,i,1.0,True,709.4999999403954,43.0,60.0,40.0,False,,303.71009366400136,[],"[768, 432]",ColorTask,2.0,6.0,,,HRV,HRV_0097,2022-11-30 18:09:35
,wl-rdm,29,254752,0.0-6.6-0.6,0.0,15.0,,,,,,,[],,,,,,73.6,0.0,u,0.0,True,1059.9000000357628,64.0,60.0,40.0,False,,200.61138307351627,[],"[768, 432]",ColorTask,3.0,7.0,,,HRV,HRV_0097,2022-11-30 18:09:35
,wl-rdm,30,257236,0.0-6.7-0.7,0.0,16.0,,,,,,,[],,,,,,62.5,1.0,i,1.0,True,1026.7999999523163,62.0,60.0,40.0,False,,390.2808767938778,[],"[768, 432]",ColorTask,4.0,8.0,,,HRV,HRV_0097,2022-11-30 18:09:35
,wl-rdm,31,259637,0.0-6.8-0.8,0.0,17.0,,,,,,,[],,,,,,56.4,1.0,u,0.0,False,1100.6000000238419,66.0,60.0,40.0,False,,223.86252158703917,[],"[768, 432]",ColorTask,3.0,9.0,,,HRV,HRV_0097,2022-11-30 18:09:35
,wl-rdm,32,261838,0.0-6.9-0.9,0.0,18.0,,,,,,,[],,,,,,87.9,0.0,u,0.0,True,816.1999999880791,49.0,60.0,40.0,False,,321.40193134194476,[],"[768, 432]",ColorTask,4.0,10.0,,,HRV,HRV_0097,2022-11-30 18:09:35
,wl-rdm,33,264090,0.0-6.10-0.10,0.0,19.0,,,,,,,[],,,,,,87.9,0.0,u,0.0,True,868.9000000357628,53.0,60.0,40.0,False,,308.51330479713545,[],"[768, 432]",ColorTask,5.0,11.0,,,HRV,HRV_0097,2022-11-30 18:09:35
,wl-rdm,34,266423,0.0-6.11-0.11,0.0,20.0,,,,,,,[],,,,,,53.2,0.0,u,0.0,True,975.9000000357628,59.0,60.0,40.0,False,,282.48448515550547,[],"[768, 432]",ColorTask,6.0,12.0,,,HRV,HRV_0097,2022-11-30 18:09:35
,wl-rdm,35,268707,0.0-6.12-0.12,0.0,21.0,,,,,,,[],,,,,,53.2,0.0,i,1.0,False,864.5999999642372,52.0,60.0,40.0,False,,364.811237730675,[],"[768, 432]",ColorTask,5.0,13.0,,,HRV,HRV_0097,2022-11-30 18:09:35
,wl-rdm,36,271025,0.0-6.13-0.13,0.0,22.0,,,,,,,[],,,,,,50.0,1.0,u,0.0,False,919.3000000119209,56.0,60.0,40.0,False,,326.4044724965087,[],"[768, 432]",ColorTask,4.0,14.0,,,HRV,HRV_0097,2022-11-30 18:09:35
,wl-rdm,37,273393,0.0-6.14-0.14,0.0,23.0,,,,,,,[],,,,,,53.2,1.0,u,0.0,False,986.0999999642372,60.0,60.0,40.0,False,,310.6624692246246,[],"[768, 432]",ColorTask,3.0,15.0,,,HRV,HRV_0097,2022-11-30 18:09:35
,wl-rdm,38,275493,0.0-6.15-0.15,0.0,24.0,,,,,,,[],,,,,,56.4,1.0,i,1.0,True,769.9000000357628,47.0,60.0,40.0,False,,243.29923088304616,[],"[768, 432]",ColorTask,4.0,16.0,,,HRV,HRV_0097,2022-11-30 18:09:35
,wl-rdm,39,277961,0.0-6.16-0.16,0.0,25.0,,,,,,,[],,,,,,87.9,0.0,u,0.0,True,1182.7000000476837,71.0,60.0,40.0,False,,206.4532672968758,[],"[768, 432]",ColorTask,5.0,17.0,,,HRV,HRV_0097,2022-11-30 18:09:35
,wl-rdm,40,280128,0.0-6.17-0.17,0.0,26.0,,,,,,,[],,,,,,87.9,0.0,u,0.0,True,792.6000000238419,48.0,60.0,40.0,False,,310.722589771265,[],"[768, 432]",ColorTask,6.0,18.0,,,HRV,HRV_0097,2022-11-30 18:09:35
,wl-rdm,41,282013,0.0-6.18-0.18,0.0,27.0,,,,,,,[],,,,,,73.6,1.0,i,1.0,True,554.6999999880791,34.0,60.0,40.0,False,,252.18240254428508,[],"[768, 432]",ColorTask,7.0,19.0,,,HRV,HRV_0097,2022-11-30 18:09:35
,wl-rdm,42,284214,0.0-6.19-0.19,0.0,28.0,,,,,,,[],,,,,,56.4,0.0,i,1.0,False,788.9000000357628,48.0,60.0,40.0,False,,322.1116004804744,[],"[768, 432]",ColorTask,6.0,20.0,,,HRV,HRV_0097,2022-11-30 18:09:35
,wl-rdm,43,286681,0.0-6.20-0.20,0.0,29.0,,,,,,,[],,,,,,56.4,0.0,i,1.0,False,1159.1000000238419,70.0,60.0,40.0,False,,222.38251673478396,[],"[768, 432]",ColorTask,5.0,21.0,,,HRV,HRV_0097,2022-11-30 18:09:35
,wl-rdm,44,288949,0.0-6.21-0.21,0.0,30.0,,,,,,,[],,,,,,56.4,0.0,u,0.0,True,936.6999999880791,57.0,60.0,40.0,False,,262.3430947312563,[],"[768, 432]",ColorTask,6.0,22.0,,,HRV,HRV_0097,2022-11-30 18:09:35
,wl-rdm,45,291450,0.0-6.22-0.22,0.0,31.0,,,,,,,[],,,,,,50.0,0.0,u,0.0,True,1140.8999999761581,69.0,60.0,40.0,False,,288.025839184794,[],"[768, 432]",ColorTask,7.0,23.0,,,HRV,HRV_0097,2022-11-30 18:09:35
,wl-rdm,46,293717,0.0-6.23-0.23,0.0,32.0,,,,,,,[],,,,,,50.0,1.0,u,0.0,False,912.3999999761581,55.0,60.0,40.0,False,,285.486881875212,[],"[768, 432]",ColorTask,6.0,24.0,,,HRV,HRV_0097,2022-11-30 18:09:35
,wl-rdm,47,295868,0.0-6.24-0.24,0.0,33.0,,,,,,,[],,,,,,56.4,1.0,i,1.0,True,807.8000000119209,49.0,60.0,40.0,False,,277.6169859231994,[],"[768, 432]",ColorTask,7.0,25.0,,,HRV,HRV_0097,2022-11-30 18:09:35
,wl-rdm,48,298052,0.0-6.25-0.25,0.0,34.0,,,,,,,[],,,,,,62.5,1.0,i,1.0,True,769.6999999880791,47.0,60.0,40.0,False,,326.1523176983929,[],"[768, 432]",ColorTask,8.0,26.0,,,HRV,HRV_0097,2022-11-30 18:09:35
,wl-rdm,49,300133,0.0-6.26-0.26,0.0,35.0,,,,,,,[],,,,,,50.0,1.0,i,1.0,True,752.1000000238419,46.0,60.0,40.0,False,,263.6723235861956,[],"[768, 432]",ColorTask,9.0,27.0,,,HRV,HRV_0097,2022-11-30 18:09:35
,wl-rdm,50,302284,0.0-6.27-0.27,0.0,36.0,,,,,,,[],,,,,,73.6,1.0,i,1.0,True,739.8000000119209,45.0,60.0,40.0,False,,336.0905439587883,[],"[768, 432]",ColorTask,10.0,28.0,,,HRV,HRV_0097,2022-11-30 18:09:35
,wl-rdm,51,304551,0.0-6.28-0.28,0.0,37.0,,,,,,,[],,,,,,56.4,0.0,i,1.0,False,853.0,52.0,60.0,40.0,False,,347.1874450327206,[],"[768, 432]",ColorTask,9.0,29.0,,,HRV,HRV_0097,2022-11-30 18:09:35
,wl-rdm,52,306635,0.0-6.29-0.29,0.0,38.0,,,,,,,[],,,,,,87.9,1.0,i,1.0,True,799.1000000238419,48.0,60.0,40.0,False,,221.06587346207542,[],"[768, 432]",ColorTask,10.0,30.0,,,HRV,HRV_0097,2022-11-30 18:09:35
,wl-rdm,53,308753,0.0-6.30-0.30,0.0,39.0,,,,,,,[],,,,,,73.6,0.0,u,0.0,True,737.8000000119209,45.0,60.0,40.0,False,,314.12287952318377,[],"[768, 432]",ColorTask,11.0,31.0,,,HRV,HRV_0097,2022-11-30 18:09:35
,wl-rdm,54,310987,0.0-6.31-0.31,0.0,40.0,,,,,,,[],,,,,,73.6,1.0,i,1.0,True,874.2999999523163,53.0,60.0,40.0,False,,297.90234959913175,[],"[768, 432]",ColorTask,12.0,32.0,,,HRV,HRV_0097,2022-11-30 18:09:35
,wl-rdm,55,313289,0.0-6.32-0.32,0.0,41.0,,,,,,,[],,,,,,56.4,1.0,i,1.0,True,954.1999999880791,58.0,60.0,40.0,False,,270.89176531051993,[],"[768, 432]",ColorTask,13.0,33.0,,,HRV,HRV_0097,2022-11-30 18:09:35
,wl-rdm,56,315656,0.0-6.33-0.33,0.0,42.0,,,,,,,[],,,,,,56.4,1.0,i,1.0,True,958.6000000238419,58.0,60.0,40.0,False,,331.6253551659415,[],"[768, 432]",ColorTask,14.0,34.0,,,HRV,HRV_0097,2022-11-30 18:09:35
,wl-rdm,57,317774,0.0-6.34-0.34,0.0,43.0,,,,,,,[],,,,,,50.0,0.0,i,1.0,False,751.1999999880791,45.0,60.0,40.0,False,,286.8219621498057,[],"[768, 432]",ColorTask,13.0,35.0,,,HRV,HRV_0097,2022-11-30 18:09:35
,wl-rdm,58,319991,0.0-6.35-0.35,0.0,44.0,,,,,,,[],,,,,,53.2,1.0,i,1.0,True,787.5999999642372,48.0,60.0,40.0,False,,366.29004004110374,[],"[768, 432]",ColorTask,14.0,36.0,,,HRV,HRV_0097,2022-11-30 18:09:35
,wl-rdm,59,322409,0.0-6.36-0.36,0.0,45.0,,,,,,,[],,,,,,73.6,0.0,u,0.0,True,1056.3999999761581,64.0,60.0,40.0,False,,290.1198893890803,[],"[768, 432]",ColorTask,15.0,37.0,,,HRV,HRV_0097,2022-11-30 18:09:35
,wl-rdm,60,324476,0.0-6.37-0.37,0.0,46.0,,,,,,,[],,,,,,87.9,0.0,u,0.0,True,673.7000000476837,41.0,60.0,40.0,False,,306.50457815786694,[],"[768, 432]",ColorTask,16.0,38.0,,,HRV,HRV_0097,2022-11-30 18:09:35
,wl-rdm,61,326644,0.0-6.38-0.38,0.0,47.0,,,,,,,[],,,,,,87.9,1.0,i,1.0,True,701.9999999403954,43.0,60.0,40.0,False,,385.91630674350824,[],"[768, 432]",ColorTask,17.0,39.0,,,HRV,HRV_0097,2022-11-30 18:09:35
,wl-rdm,62,328494,0.0-6.39-0.39,0.0,48.0,,,,,,,[],,,,,,87.9,1.0,i,1.0,True,513.7000000476837,31.0,60.0,40.0,False,,255.1651787996188,[],"[768, 432]",ColorTask,18.0,40.0,,,HRV,HRV_0097,2022-11-30 18:09:35
,wl-rdm,63,330661,0.0-6.40-0.40,0.0,49.0,,,,,,,[],,,,,,53.2,1.0,u,0.0,False,781.3999999761581,47.0,60.0,40.0,False,,333.95523526763714,[],"[768, 432]",ColorTask,17.0,41.0,,,HRV,HRV_0097,2022-11-30 18:09:35
,wl-rdm,64,332812,0.0-6.41-0.41,0.0,50.0,,,,,,,[],,,,,,53.2,1.0,u,0.0,False,729.1999999880791,44.0,60.0,40.0,False,,356.8673931637683,[],"[768, 432]",ColorTask,16.0,42.0,,,HRV,HRV_0097,2022-11-30 18:09:35
,wl-rdm,65,335179,0.0-6.42-0.42,0.0,51.0,,,,,,,[],,,,,,73.6,0.0,u,0.0,True,1087.300000011921,66.0,60.0,40.0,False,,202.50188695627187,[],"[768, 432]",ColorTask,17.0,43.0,,,HRV,HRV_0097,2022-11-30 18:09:35
,wl-rdm,66,337265,0.0-6.43-0.43,0.0,52.0,,,,,,,[],,,,,,87.9,0.0,u,0.0,True,794.6000000238419,48.0,60.0,40.0,False,,224.74179980736105,[],"[768, 432]",ColorTask,18.0,44.0,,,HRV,HRV_0097,2022-11-30 18:09:35
,wl-rdm,67,339415,0.0-6.44-0.44,0.0,53.0,,,,,,,[],,,,,,62.5,0.0,i,1.0,False,881.0999999642372,53.0,60.0,40.0,False,,212.95479352238092,[],"[768, 432]",ColorTask,17.0,45.0,,,HRV,HRV_0097,2022-11-30 18:09:35
,wl-rdm,68,341499,0.0-6.45-0.45,0.0,54.0,,,,,,,[],,,,,,73.6,1.0,i,1.0,True,789.1000000238419,48.0,60.0,40.0,False,,213.2263811880475,[],"[768, 432]",ColorTask,18.0,46.0,,,HRV,HRV_0097,2022-11-30 18:09:35
,wl-rdm,69,343667,0.0-6.46-0.46,0.0,55.0,,,,,,,[],,,,,,53.2,0.0,u,0.0,True,838.0,51.0,60.0,40.0,False,,234.47968012841648,[],"[768, 432]",ColorTask,19.0,47.0,,,HRV,HRV_0097,2022-11-30 18:09:35
,wl-rdm,70,345767,0.0-6.47-0.47,0.0,56.0,,,,,,,[],,,,,,73.6,1.0,i,1.0,True,692.0,42.0,60.0,40.0,False,,328.5829910642,[],"[768, 432]",ColorTask,20.0,48.0,,,HRV,HRV_0097,2022-11-30 18:09:35
,wl-rdm,71,348085,0.0-6.48-0.48,0.0,57.0,,,,,,,[],,,,,,87.9,0.0,u,0.0,True,868.9000000357628,53.0,60.0,40.0,False,,381.19358983551444,[],"[768, 432]",ColorTask,21.0,49.0,,,HRV,HRV_0097,2022-11-30 18:09:35
,wl-rdm,72,350252,0.0-6.49-0.49,0.0,58.0,,,,,,,[],,,,,,73.6,1.0,i,1.0,True,737.2000000476837,45.0,60.0,40.0,False,,351.7735693847508,[],"[768, 432]",ColorTask,22.0,50.0,,,HRV,HRV_0097,2022-11-30 18:09:35
,wl-rdm,73,352420,0.0-6.50-0.50,0.0,59.0,,,,,,,[],,,,,,62.5,0.0,u,0.0,True,868.3000000119209,53.0,60.0,40.0,False,,229.94982888405679,[],"[768, 432]",ColorTask,23.0,51.0,,,HRV,HRV_0097,2022-11-30 18:09:35
,wl-rdm,74,354954,0.0-6.51-0.51,0.0,60.0,,,,,,,[],,,,,,62.5,1.0,u,0.0,False,1091.0999999642372,66.0,60.0,40.0,False,,370.6015821555109,[],"[768, 432]",ColorTask,22.0,52.0,,,HRV,HRV_0097,2022-11-30 18:09:35
,wl-rdm,75,357205,0.0-6.52-0.52,0.0,61.0,,,,,,,[],,,,,,62.5,0.0,u,0.0,True,915.8000000119209,55.0,60.0,40.0,False,,271.81423603776267,[],"[768, 432]",ColorTask,23.0,53.0,,,HRV,HRV_0097,2022-11-30 18:09:35
,wl-rdm,76,359492,0.0-6.53-0.53,0.0,62.0,,,,,,,[],,,,,,62.5,0.0,u,0.0,True,888.5999999642372,54.0,60.0,40.0,False,,318.89535878147126,[],"[768, 432]",ColorTask,24.0,54.0,,,HRV,HRV_0097,2022-11-30 18:09:35
,wl-rdm,77,361560,0.0-6.54-0.54,0.0,63.0,,,,,,,[],,,,,,87.9,1.0,i,1.0,True,753.5999999642372,46.0,60.0,40.0,False,,235.58531772913622,[],"[768, 432]",ColorTask,25.0,55.0,,,HRV,HRV_0097,2022-11-30 18:09:35
,wl-rdm,78,363777,0.0-6.55-0.55,0.0,64.0,,,,,,,[],,,,,,62.5,1.0,i,1.0,True,756.9000000357628,46.0,60.0,40.0,False,,385.67388812559,[],"[768, 432]",ColorTask,26.0,56.0,,,HRV,HRV_0097,2022-11-30 18:09:35
,wl-rdm,79,366210,0.0-6.56-0.56,0.0,65.0,,,,,,,[],,,,,,50.0,0.0,u,0.0,True,1146.6000000238419,69.0,60.0,40.0,False,,217.14637833516744,[],"[768, 432]",ColorTask,27.0,57.0,,,HRV,HRV_0097,2022-11-30 18:09:35
,wl-rdm,80,368378,0.0-6.57-0.57,0.0,66.0,,,,,,,[],,,,,,50.0,1.0,i,1.0,True,761.0,46.0,60.0,40.0,False,,332.7448536191562,[],"[768, 432]",ColorTask,28.0,58.0,,,HRV,HRV_0097,2022-11-30 18:09:35
,wl-rdm,81,370629,0.0-6.58-0.58,0.0,67.0,,,,,,,[],,,,,,53.2,1.0,i,1.0,True,827.8999999761581,50.0,60.0,40.0,False,,339.9466707349444,[],"[768, 432]",ColorTask,29.0,59.0,,,HRV,HRV_0097,2022-11-30 18:09:35
,wl-rdm,82,372980,0.0-6.59-0.59,0.0,68.0,,,,,,,[],,,,,,53.2,1.0,i,1.0,True,928.1999999880791,56.0,60.0,40.0,False,,350.02286385037274,[],"[768, 432]",ColorTask,30.0,60.0,,,HRV,HRV_0097,2022-11-30 18:09:35
,wl-rdm,83,375498,0.0-6.60-0.60,0.0,69.0,,,,,,,[],,,,,,56.4,1.0,u,0.0,False,1069.199999988079,65.0,60.0,40.0,False,,361.86940507062167,[],"[768, 432]",ColorTask,29.0,61.0,,,HRV,HRV_0097,2022-11-30 18:09:35
,wl-rdm,84,377999,0.0-6.61-0.61,0.0,70.0,,,,,,,[],,,,,,56.4,0.0,i,1.0,False,1054.199999988079,64.0,60.0,40.0,False,,368.8897006021664,[],"[768, 432]",ColorTask,28.0,62.0,,,HRV,HRV_0097,2022-11-30 18:09:35
,wl-rdm,85,380850,0.0-6.62-0.62,0.0,71.0,,,,,,,[],,,,,,73.6,1.0,i,1.0,True,1420.1000000238419,86.0,60.0,40.0,False,,365.34109550435676,[],"[768, 432]",ColorTask,29.0,63.0,,,HRV,HRV_0097,2022-11-30 18:09:35
,wl-rdm,86,383651,0.0-6.63-0.63,0.0,72.0,,,,,,,[],,,,,,53.2,0.0,i,1.0,False,1409.300000011921,85.0,60.0,40.0,False,,316.9547175250449,[],"[768, 432]",ColorTask,28.0,64.0,,,HRV,HRV_0097,2022-11-30 18:09:35
,wl-rdm,87,386003,0.0-6.64-0.64,0.0,73.0,,,,,,,[],,,,,,87.9,1.0,i,1.0,True,896.1999999880791,54.0,60.0,40.0,False,,397.0229174472297,[],"[768, 432]",ColorTask,29.0,65.0,,,HRV,HRV_0097,2022-11-30 18:09:35
,wl-rdm,88,388420,0.0-6.65-0.65,0.0,74.0,,,,,,,[],,,,,,62.5,0.0,i,1.0,False,1040.3000000715256,63.0,60.0,40.0,False,,310.0491944664273,[],"[768, 432]",ColorTask,28.0,66.0,,,HRV,HRV_0097,2022-11-30 18:09:35
,wl-rdm,89,390903,0.0-6.66-0.66,0.0,75.0,,,,,,,[],,,,,,62.5,1.0,i,1.0,True,1138.6000000238419,69.0,60.0,40.0,False,,257.2473669912183,[],"[768, 432]",ColorTask,29.0,67.0,,,HRV,HRV_0097,2022-11-30 18:09:35
,wl-rdm,90,393055,0.0-6.67-0.67,0.0,76.0,,,,,,,[],,,,,,53.2,1.0,u,0.0,False,722.4000000357628,44.0,60.0,40.0,False,,335.21297107777235,[],"[768, 432]",ColorTask,28.0,68.0,,,HRV,HRV_0097,2022-11-30 18:09:35
,wl-rdm,91,395273,0.0-6.68-0.68,0.0,77.0,,,,,,,[],,,,,,73.6,0.0,u,0.0,True,839.0,51.0,60.0,40.0,False,,299.4373711953727,[],"[768, 432]",ColorTask,29.0,69.0,,,HRV,HRV_0097,2022-11-30 18:09:35
,wl-rdm,92,397456,0.0-6.69-0.69,0.0,78.0,,,,,,,[],,,,,,50.0,1.0,u,0.0,False,848.6000000238419,51.0,60.0,40.0,False,,251.76634866598351,[],"[768, 432]",ColorTask,28.0,70.0,,,HRV,HRV_0097,2022-11-30 18:09:35
,wl-rdm,93,399640,0.0-6.70-0.70,0.0,79.0,,,,,,,[],,,,,,56.4,0.0,i,1.0,False,772.1000000238419,47.0,60.0,40.0,False,,341.03714450930903,[],"[768, 432]",ColorTask,27.0,71.0,,,HRV,HRV_0097,2022-11-30 18:09:35
,wl-rdm,94,402492,0.0-6.71-0.71,0.0,80.0,,,,,,,[],,,,,,56.4,0.0,u,0.0,True,1425.6999999284744,86.0,60.0,40.0,False,,353.3481738704129,[],"[768, 432]",ColorTask,28.0,72.0,,,HRV,HRV_0097,2022-11-30 18:09:35
,wl-rdm,95,405492,0.0-6.72-0.72,0.0,81.0,,,,,,,[],,,,,,50.0,0.0,i,1.0,False,1657.800000011921,100.0,60.0,40.0,False,,262.76771058614065,[],"[768, 432]",ColorTask,27.0,73.0,,,HRV,HRV_0097,2022-11-30 18:09:35
,wl-rdm,96,407460,0.0-6.73-0.73,0.0,82.0,,,,,,,[],,,,,,62.5,0.0,u,0.0,True,650.5999999642372,39.0,60.0,40.0,False,,237.41231009786185,[],"[768, 432]",ColorTask,28.0,74.0,,,HRV,HRV_0097,2022-11-30 18:09:35
,wl-rdm,97,409727,0.0-6.74-0.74,0.0,83.0,,,,,,,[],,,,,,87.9,1.0,i,1.0,True,853.0,52.0,60.0,40.0,False,,346.04935890194383,[],"[768, 432]",ColorTask,29.0,75.0,,,HRV,HRV_0097,2022-11-30 18:09:35
,wl-rdm,98,411962,0.0-6.75-0.75,0.0,84.0,,,,,,,[],,,,,,87.9,1.0,i,1.0,True,928.5,56.0,60.0,40.0,False,,241.90569896313244,[],"[768, 432]",ColorTask,30.0,76.0,,,HRV,HRV_0097,2022-11-30 18:09:35
,wl-rdm,99,414747,0.0-6.76-0.76,0.0,85.0,,,,,,,[],,,,,,62.5,0.0,u,0.0,True,1470.199999988079,89.0,60.0,40.0,False,,243.58248228387856,[],"[768, 432]",ColorTask,31.0,77.0,,,HRV,HRV_0097,2022-11-30 18:09:35
,wl-rdm,100,418314,0.0-6.77-0.77,0.0,86.0,,,,,,,[],,,,,,50.0,0.0,i,1.0,False,2241.0,135.0,60.0,40.0,False,,240.99312275304436,[],"[768, 432]",ColorTask,30.0,78.0,,,HRV,HRV_0097,2022-11-30 18:09:35
,wl-rdm,101,420760,0.0-6.78-0.78,0.0,87.0,,,,,,,[],,,,,,73.6,1.0,u,0.0,False,1152.8999999761581,70.0,60.0,40.0,False,,204.4085559267221,[],"[768, 432]",ColorTask,29.0,79.0,,,HRV,HRV_0097,2022-11-30 18:09:35
,wl-rdm,102,423627,0.0-6.79-0.79,0.0,88.0,,,,,,,[],,,,,,50.0,1.0,u,0.0,False,1500.7999999523163,90.0,60.0,40.0,False,,298.9792007122895,[],"[768, 432]",ColorTask,28.0,80.0,,,HRV,HRV_0097,2022-11-30 18:09:35
,wl-rdm,103,425979,0.0-6.80-0.80,0.0,89.0,,,,,,,[],,,,,,50.0,0.0,u,0.0,True,909.6000000238419,55.0,60.0,40.0,False,,378.59907787224734,[],"[768, 432]",ColorTask,29.0,81.0,,,HRV,HRV_0097,2022-11-30 18:09:35
,wl-rdm,104,428129,0.0-6.81-0.81,0.0,90.0,,,,,,,[],,,,,,50.0,1.0,i,1.0,True,812.1000000238419,49.0,60.0,40.0,False,,281.48299188369583,[],"[768, 432]",ColorTask,30.0,82.0,,,HRV,HRV_0097,2022-11-30 18:09:35
,wl-rdm,105,430598,0.0-6.82-0.82,0.0,91.0,,,,,,,[],,,,,,62.5,1.0,i,1.0,True,1162.0999999642372,70.0,60.0,40.0,False,,247.62500631953856,[],"[768, 432]",ColorTask,31.0,83.0,,,HRV,HRV_0097,2022-11-30 18:09:35
,wl-rdm,106,432864,0.0-6.83-0.83,0.0,92.0,,,,,,,[],,,,,,56.4,0.0,i,1.0,False,882.6000000238419,53.0,60.0,40.0,False,,331.32532806569657,[],"[768, 432]",ColorTask,30.0,84.0,,,HRV,HRV_0097,2022-11-30 18:09:35
,wl-rdm,107,435099,0.0-6.84-0.84,0.0,93.0,,,,,,,[],,,,,,53.2,0.0,u,0.0,True,880.3000000119209,53.0,60.0,40.0,False,,291.9504684196926,[],"[768, 432]",ColorTask,31.0,85.0,,,HRV,HRV_0097,2022-11-30 18:09:35
,wl-rdm,108,437400,0.0-6.85-0.85,0.0,94.0,,,,,,,[],,,,,,62.5,1.0,u,0.0,False,946.7000000476837,57.0,60.0,40.0,False,,295.33552046166903,[],"[768, 432]",ColorTask,30.0,86.0,,,HRV,HRV_0097,2022-11-30 18:09:35
,wl-rdm,109,440301,0.0-6.86-0.86,0.0,95.0,,,,,,,[],,,,,,53.2,1.0,i,1.0,True,1560.8999999761581,94.0,60.0,40.0,False,,274.0801851880734,[],"[768, 432]",ColorTask,31.0,87.0,,,HRV,HRV_0097,2022-11-30 18:09:35
,wl-rdm,110,443369,0.0-6.87-0.87,0.0,96.0,,,,,,,[],,,,,,53.2,0.0,i,1.0,False,1598.2000000476837,96.0,60.0,40.0,False,,396.49630331045176,[],"[768, 432]",ColorTask,30.0,88.0,,,HRV,HRV_0097,2022-11-30 18:09:35
,wl-rdm,111,446219,0.0-6.88-0.88,0.0,97.0,,,,,,,[],,,,,,53.2,0.0,i,1.0,False,1388.9000000357628,84.0,60.0,40.0,False,,399.6592689043703,[],"[768, 432]",ColorTask,29.0,89.0,,,HRV,HRV_0097,2022-11-30 18:09:35
,wl-rdm,112,447286,0.0-6.89-0.89,0.0,97.0,,,,,,,[],,,,,,50.0,1.0,i,,,337.80000001192093,0.0,60.0,40.0,True,too_early ,206.14793449898227,[],"[768, 432]",ColorTask,28.0,90.0,,,HRV,HRV_0097,2022-11-30 18:09:35
,wl-rdm,113,449554,0.0-6.90-0.90,0.0,98.0,,,,,,,[],,,,,,87.9,0.0,u,0.0,True,844.8999999761581,51.0,60.0,40.0,False,,347.19502721356235,[],"[768, 432]",ColorTask,29.0,91.0,,,HRV,HRV_0097,2022-11-30 18:09:35
,wl-rdm,114,451689,0.0-6.91-0.91,0.0,99.0,,,,,,,[],,,,,,73.6,0.0,u,0.0,True,866.5,52.0,60.0,40.0,False,,213.03707039738697,[],"[768, 432]",ColorTask,30.0,92.0,,,HRV,HRV_0097,2022-11-30 18:09:35
,wl-rdm,115,453689,0.0-6.92-0.92,0.0,100.0,,,,,,,[],,,,,,56.4,1.0,i,1.0,True,709.1999999880791,43.0,60.0,40.0,False,,217.43807074260766,[],"[768, 432]",ColorTask,31.0,93.0,,,HRV,HRV_0097,2022-11-30 18:09:35
,wl-rdm,116,455907,0.0-6.93-0.93,0.0,101.0,,,,,,,[],,,,,,73.6,0.0,u,0.0,True,766.4999999403954,46.0,60.0,40.0,False,,388.6109097032117,[],"[768, 432]",ColorTask,32.0,94.0,,,HRV,HRV_0097,2022-11-30 18:09:35
,wl-rdm,117,458991,0.0-6.94-0.94,0.0,102.0,,,,,,,[],,,,,,62.5,0.0,u,0.0,True,1786.2000000476837,108.0,60.0,40.0,False,,221.62683927065623,[],"[768, 432]",ColorTask,33.0,95.0,,,HRV,HRV_0097,2022-11-30 18:09:35
,wl-rdm,118,460992,0.0-6.95-0.95,0.0,103.0,,,,,,,[],,,,,,56.4,1.0,i,1.0,True,716.3999999761581,43.0,60.0,40.0,False,,227.54526314226723,[],"[768, 432]",ColorTask,34.0,96.0,,,HRV,HRV_0097,2022-11-30 18:09:35
,wl-rdm,119,463243,0.0-6.96-0.96,0.0,104.0,,,,,,,[],,,,,,50.0,0.0,i,1.0,False,980.3000000119209,59.0,60.0,40.0,False,,200.82895998225598,[],"[768, 432]",ColorTask,33.0,97.0,,,HRV,HRV_0097,2022-11-30 18:09:35
,wl-rdm,120,465394,0.0-6.97-0.97,0.0,105.0,,,,,,,[],,,,,,87.9,0.0,u,0.0,True,702.5,43.0,60.0,40.0,False,,378.60677082756786,[],"[768, 432]",ColorTask,34.0,98.0,,,HRV,HRV_0097,2022-11-30 18:09:35
,wl-rdm,121,468012,0.0-6.98-0.98,0.0,106.0,,,,,,,[],,,,,,53.2,0.0,u,0.0,True,1298.199999988079,78.0,60.0,40.0,False,,257.53921911831776,[],"[768, 432]",ColorTask,35.0,99.0,,,HRV,HRV_0097,2022-11-30 18:09:35
,wl-rdm,122,470913,0.0-6.99-0.99,0.0,107.0,,,,,,,[],,,,,,62.5,0.0,u,0.0,True,1550.300000011921,93.0,60.0,40.0,False,,299.0797978476513,[],"[768, 432]",ColorTask,36.0,100.0,,,HRV,HRV_0097,2022-11-30 18:09:35
,wl-rdm,123,473364,0.0-6.100-0.100,0.0,108.0,,,,,,,[],,,,,,56.4,1.0,i,1.0,True,1138.0,69.0,60.0,40.0,False,,241.44647231776202,[],"[768, 432]",ColorTask,37.0,101.0,,,HRV,HRV_0097,2022-11-30 18:09:35
,wl-rdm,124,476114,0.0-6.101-0.101,0.0,109.0,,,,,,,[],,,,,,50.0,1.0,i,1.0,True,1408.5999999642372,85.0,60.0,40.0,False,,268.72593280849173,[],"[768, 432]",ColorTask,38.0,102.0,,,HRV,HRV_0097,2022-11-30 18:09:35
,wl-rdm,125,478799,0.0-6.102-0.102,0.0,110.0,,,,,,,[],,,,,,50.0,1.0,i,1.0,True,1416.0,85.0,60.0,40.0,False,,212.99461783129829,[],"[768, 432]",ColorTask,39.0,103.0,,,HRV,HRV_0097,2022-11-30 18:09:35
,wl-rdm,126,480903,0.0-6.103-0.103,0.0,111.0,,,,,,,[],,,,,,87.9,1.0,i,1.0,True,816.3000000119209,49.0,60.0,40.0,False,,221.52210290987654,[],"[768, 432]",ColorTask,40.0,104.0,,,HRV,HRV_0097,2022-11-30 18:09:35
,wl-rdm,127,483388,0.0-6.104-0.104,0.0,112.0,,,,,,,[],,,,,,62.5,1.0,i,1.0,True,1120.199999988079,68.0,60.0,40.0,False,,283.0670720911414,[],"[768, 432]",ColorTask,41.0,105.0,,,HRV,HRV_0097,2022-11-30 18:09:35
,wl-rdm,128,485839,0.0-6.105-0.105,0.0,113.0,,,,,,,[],,,,,,50.0,0.0,i,1.0,False,984.6000000238419,59.0,60.0,40.0,False,,395.0824374861289,[],"[768, 432]",ColorTask,40.0,106.0,,,HRV,HRV_0097,2022-11-30 18:09:35
,wl-rdm,129,488206,0.0-6.106-0.106,0.0,114.0,,,,,,,[],,,,,,73.6,0.0,u,0.0,True,1019.6999999880791,62.0,60.0,40.0,False,,281.5666328318893,[],"[768, 432]",ColorTask,41.0,107.0,,,HRV,HRV_0097,2022-11-30 18:09:35
,wl-rdm,130,490240,0.0-6.107-0.107,0.0,115.0,,,,,,,[],,,,,,50.0,0.0,i,1.0,False,765.0,46.0,60.0,40.0,False,,200.70476709471717,[],"[768, 432]",ColorTask,40.0,108.0,,,HRV,HRV_0097,2022-11-30 18:09:35
,wl-rdm,131,492608,0.0-6.108-0.108,0.0,116.0,,,,,,,[],,,,,,87.9,1.0,i,1.0,True,1038.3999999761581,63.0,60.0,40.0,False,,262.7114567744864,[],"[768, 432]",ColorTask,41.0,109.0,,,HRV,HRV_0097,2022-11-30 18:09:35
,wl-html-keyboard-response,132,503095,0.0-7.0-0.0,1.0,117.0,,,,,,,,8476.800000011921,1.0,0,,,,,,,,,,,,,,,,,,,,,,HRV,HRV_0097,2022-11-30 18:09:35
,wl-rdm,133,505979,0.0-8.0-0.0,1.0,118.0,,,,,,,[],,,,,,53.2,1.0,i,1.0,True,1571.800000011921,95.0,60.0,40.0,False,,217.87098305081116,[],"[768, 432]",ColorTask,42.0,1.0,,,HRV,HRV_0097,2022-11-30 18:09:35
,wl-rdm,134,508181,0.0-8.1-0.1,1.0,119.0,,,,,,,[],,,,,,53.2,1.0,i,1.0,True,903.7000000476837,55.0,60.0,40.0,False,,227.61252817809526,[],"[768, 432]",ColorTask,43.0,2.0,,,HRV,HRV_0097,2022-11-30 18:09:35
,wl-rdm,135,510198,0.0-8.2-0.2,1.0,120.0,,,,,,,[],,,,,,50.0,1.0,i,1.0,True,712.8000000119209,43.0,60.0,40.0,False,,232.18058636298935,[],"[768, 432]",ColorTask,44.0,3.0,,,HRV,HRV_0097,2022-11-30 18:09:35
,wl-rdm,136,512399,0.0-8.3-0.3,1.0,121.0,,,,,,,[],,,,,,87.9,1.0,i,1.0,True,818.9000000357628,50.0,60.0,40.0,False,,289.4581064634714,[],"[768, 432]",ColorTask,45.0,4.0,,,HRV,HRV_0097,2022-11-30 18:09:35
,wl-rdm,137,514600,0.0-8.4-0.4,1.0,122.0,,,,,,,[],,,,,,87.9,1.0,i,1.0,True,752.3999999761581,46.0,60.0,40.0,False,,373.97398865696607,[],"[768, 432]",ColorTask,46.0,5.0,,,HRV,HRV_0097,2022-11-30 18:09:35
,wl-rdm,138,516968,0.0-8.5-0.5,1.0,123.0,,,,,,,[],,,,,,62.5,0.0,u,0.0,True,1086.4000000357628,66.0,60.0,40.0,False,,209.05334504772202,[],"[768, 432]",ColorTask,47.0,6.0,,,HRV,HRV_0097,2022-11-30 18:09:35
,wl-rdm,139,519502,0.0-8.6-0.6,1.0,124.0,,,,,,,[],,,,,,53.2,0.0,i,1.0,False,1086.3999999761581,66.0,60.0,40.0,False,,375.26335687363496,[],"[768, 432]",ColorTask,46.0,7.0,,,HRV,HRV_0097,2022-11-30 18:09:35
,wl-rdm,140,521903,0.0-8.7-0.7,1.0,125.0,,,,,,,[],,,,,,62.5,1.0,i,1.0,True,1133.300000011921,68.0,60.0,40.0,False,,215.78801558029994,[],"[768, 432]",ColorTask,47.0,8.0,,,HRV,HRV_0097,2022-11-30 18:09:35
,wl-rdm,141,524004,0.0-8.8-0.8,1.0,126.0,,,,,,,[],,,,,,87.9,0.0,u,0.0,True,827.6999999880791,50.0,60.0,40.0,False,,202.66720734328615,[],"[768, 432]",ColorTask,48.0,9.0,,,HRV,HRV_0097,2022-11-30 18:09:35
,wl-rdm,142,526071,0.0-8.9-0.9,1.0,127.0,,,,,,,[],,,,,,87.9,0.0,u,0.0,True,747.8000000119209,45.0,60.0,40.0,False,,259.8059172435376,[],"[768, 432]",ColorTask,49.0,10.0,,,HRV,HRV_0097,2022-11-30 18:09:35
,wl-rdm,143,528755,0.0-8.10-0.10,1.0,128.0,,,,,,,[],,,,,,50.0,1.0,i,1.0,True,1353.300000011921,82.0,60.0,40.0,False,,260.1411328272776,[],"[768, 432]",ColorTask,50.0,11.0,,,HRV,HRV_0097,2022-11-30 18:09:35
,wl-rdm,144,531507,0.0-8.11-0.11,1.0,129.0,,,,,,,[],,,,,,56.4,0.0,i,1.0,False,1417.699999988079,85.0,60.0,40.0,False,,253.93813190683568,[],"[768, 432]",ColorTask,49.0,12.0,,,HRV,HRV_0097,2022-11-30 18:09:35
,wl-rdm,145,533658,0.0-8.12-0.12,1.0,130.0,,,,,,,[],,,,,,53.2,0.0,i,1.0,False,769.6999999880791,47.0,60.0,40.0,False,,288.0038167641767,[],"[768, 432]",ColorTask,48.0,13.0,,,HRV,HRV_0097,2022-11-30 18:09:35
,wl-rdm,146,535992,0.0-8.13-0.13,1.0,131.0,,,,,,,[],,,,,,56.4,1.0,i,1.0,True,954.5999999642372,58.0,60.0,40.0,False,,310.06225722920925,[],"[768, 432]",ColorTask,49.0,14.0,,,HRV,HRV_0097,2022-11-30 18:09:35
,wl-rdm,147,538159,0.0-8.14-0.14,1.0,132.0,,,,,,,[],,,,,,62.5,1.0,i,1.0,True,866.3000000715256,52.0,60.0,40.0,False,,246.2960117851482,[],"[768, 432]",ColorTask,50.0,15.0,,,HRV,HRV_0097,2022-11-30 18:09:35
,wl-rdm,148,540210,0.0-8.15-0.15,1.0,133.0,,,,,,,[],,,,,,73.6,0.0,u,0.0,True,655.5999999642372,40.0,60.0,40.0,False,,303.24592176305856,[],"[768, 432]",ColorTask,51.0,16.0,,,HRV,HRV_0097,2022-11-30 18:09:35
,wl-rdm,149,542760,0.0-8.16-0.16,1.0,134.0,,,,,,,[],,,,,,50.0,0.0,i,1.0,False,1215.4000000357628,73.0,60.0,40.0,False,,273.8616926904225,[],"[768, 432]",ColorTask,50.0,17.0,,,HRV,HRV_0097,2022-11-30 18:09:35
,wl-rdm,150,544711,0.0-8.17-0.17,1.0,135.0,,,,,,,[],,,,,,56.4,0.0,i,1.0,False,636.3000000119209,39.0,60.0,40.0,False,,243.21890157245477,[],"[768, 432]",ColorTask,49.0,18.0,,,HRV,HRV_0097,2022-11-30 18:09:35
,wl-rdm,151,546929,0.0-8.18-0.18,1.0,136.0,,,,,,,[],,,,,,87.9,1.0,i,1.0,True,944.6000000238419,57.0,60.0,40.0,False,,211.93882070532004,[],"[768, 432]",ColorTask,50.0,19.0,,,HRV,HRV_0097,2022-11-30 18:09:35
,wl-rdm,152,549014,0.0-8.19-0.19,1.0,137.0,,,,,,,[],,,,,,73.6,1.0,i,1.0,True,765.6999999284744,46.0,60.0,40.0,False,,261.0690899807512,[],"[768, 432]",ColorTask,51.0,20.0,,,HRV,HRV_0097,2022-11-30 18:09:35
,wl-rdm,153,551081,0.0-8.20-0.20,1.0,138.0,,,,,,,[],,,,,,56.4,1.0,i,1.0,True,687.8000000119209,42.0,60.0,40.0,False,,287.4046623879474,[],"[768, 432]",ColorTask,52.0,21.0,,,HRV,HRV_0097,2022-11-30 18:09:35
,wl-rdm,154,553381,0.0-8.21-0.21,1.0,139.0,,,,,,,[],,,,,,56.4,0.0,u,0.0,True,869.9000000357628,53.0,60.0,40.0,False,,348.5630057214779,[],"[768, 432]",ColorTask,53.0,22.0,,,HRV,HRV_0097,2022-11-30 18:09:35
,wl-rdm,155,555615,0.0-8.22-0.22,1.0,140.0,,,,,,,[],,,,,,62.5,1.0,i,1.0,True,816.6000000238419,49.0,60.0,40.0,False,,352.42573220004647,[],"[768, 432]",ColorTask,54.0,23.0,,,HRV,HRV_0097,2022-11-30 18:09:35
,wl-rdm,156,558150,0.0-8.23-0.23,1.0,141.0,,,,,,,[],,,,,,53.2,0.0,u,0.0,True,1203.0,73.0,60.0,40.0,False,,252.65451007873077,[],"[768, 432]",ColorTask,55.0,24.0,,,HRV,HRV_0097,2022-11-30 18:09:35
,wl-rdm,157,560867,0.0-8.24-0.24,1.0,142.0,,,,,,,[],,,,,,53.2,1.0,u,0.0,False,1328.300000011921,80.0,60.0,40.0,False,,310.45928866116776,[],"[768, 432]",ColorTask,54.0,25.0,,,HRV,HRV_0097,2022-11-30 18:09:35
,wl-rdm,158,563484,0.0-8.25-0.25,1.0,143.0,,,,,,,[],,,,,,56.4,0.0,i,1.0,False,1284.1000000238419,77.0,60.0,40.0,False,,266.3996181671994,[],"[768, 432]",ColorTask,53.0,26.0,,,HRV,HRV_0097,2022-11-30 18:09:35
,wl-rdm,159,565753,0.0-8.26-0.26,1.0,144.0,,,,,,,[],,,,,,73.6,0.0,u,0.0,True,893.2000000476837,54.0,60.0,40.0,False,,285.9344844529671,[],"[768, 432]",ColorTask,54.0,27.0,,,HRV,HRV_0097,2022-11-30 18:09:35
,wl-rdm,160,568337,0.0-8.27-0.27,1.0,145.0,,,,,,,[],,,,,,56.4,0.0,i,1.0,False,1143.300000011921,69.0,60.0,40.0,False,,358.8260293675619,[],"[768, 432]",ColorTask,53.0,28.0,,,HRV,HRV_0097,2022-11-30 18:09:35
,wl-rdm,161,570871,0.0-8.28-0.28,1.0,146.0,,,,,,,[],,,,,,50.0,1.0,u,0.0,False,1212.0999999642372,73.0,60.0,40.0,False,,264.8761311533382,[],"[768, 432]",ColorTask,52.0,29.0,,,HRV,HRV_0097,2022-11-30 18:09:35
,wl-rdm,162,573772,0.0-8.29-0.29,1.0,147.0,,,,,,,[],,,,,,50.0,1.0,u,0.0,False,1535.5,92.0,60.0,40.0,False,,289.3032488110567,[],"[768, 432]",ColorTask,51.0,30.0,,,HRV,HRV_0097,2022-11-30 18:09:35
,wl-rdm,163,575906,0.0-8.30-0.30,1.0,148.0,,,,,,,[],,,,,,56.4,1.0,i,1.0,True,846.6000000238419,51.0,60.0,40.0,False,,217.5386963111463,[],"[768, 432]",ColorTask,52.0,31.0,,,HRV,HRV_0097,2022-11-30 18:09:35
,wl-rdm,164,578741,0.0-8.31-0.31,1.0,149.0,,,,,,,[],,,,,,50.0,1.0,u,0.0,False,1375.6999999284744,83.0,60.0,40.0,False,,385.317184837697,[],"[768, 432]",ColorTask,51.0,32.0,,,HRV,HRV_0097,2022-11-30 18:09:35
,wl-rdm,165,581425,0.0-8.32-0.32,1.0,150.0,,,,,,,[],,,,,,50.0,1.0,u,0.0,False,1292.199999988079,78.0,60.0,40.0,False,,320.53330859903406,[],"[768, 432]",ColorTask,50.0,33.0,,,HRV,HRV_0097,2022-11-30 18:09:35
,wl-rdm,166,584510,0.0-8.33-0.33,1.0,151.0,,,,,,,[],,,,,,50.0,1.0,i,1.0,True,1729.300000011921,104.0,60.0,40.0,False,,296.29458515276383,[],"[768, 432]",ColorTask,51.0,34.0,,,HRV,HRV_0097,2022-11-30 18:09:35
,wl-rdm,167,587161,0.0-8.34-0.34,1.0,152.0,,,,,,,[],,,,,,50.0,0.0,u,0.0,True,1354.800000011921,82.0,60.0,40.0,False,,222.71878219389373,[],"[768, 432]",ColorTask,52.0,35.0,,,HRV,HRV_0097,2022-11-30 18:09:35
,wl-rdm,168,589211,0.0-8.35-0.35,1.0,153.0,,,,,,,[],,,,,,73.6,0.0,u,0.0,True,771.3999999761581,47.0,60.0,40.0,False,,214.0677424675876,[],"[768, 432]",ColorTask,53.0,36.0,,,HRV,HRV_0097,2022-11-30 18:09:35
,wl-rdm,169,591345,0.0-8.36-0.36,1.0,154.0,,,,,,,[],,,,,,73.6,1.0,i,1.0,True,712.3000000119209,43.0,60.0,40.0,False,,360.0117127831029,[],"[768, 432]",ColorTask,54.0,37.0,,,HRV,HRV_0097,2022-11-30 18:09:35
,wl-rdm,170,593880,0.0-8.37-0.37,1.0,155.0,,,,,,,[],,,,,,56.4,0.0,u,0.0,True,1242.0,75.0,60.0,40.0,False,,206.5280144242612,[],"[768, 432]",ColorTask,55.0,38.0,,,HRV,HRV_0097,2022-11-30 18:09:35
,wl-rdm,171,596114,0.0-8.38-0.38,1.0,156.0,,,,,,,[],,,,,,62.5,1.0,i,1.0,True,895.3000000119209,54.0,60.0,40.0,False,,268.9138163790252,[],"[768, 432]",ColorTask,56.0,39.0,,,HRV,HRV_0097,2022-11-30 18:09:35
,wl-rdm,172,598165,0.0-8.39-0.39,1.0,157.0,,,,,,,[],,,,,,87.9,1.0,i,1.0,True,710.7999999523163,43.0,60.0,40.0,False,,276.66959641494316,[],"[768, 432]",ColorTask,57.0,40.0,,,HRV,HRV_0097,2022-11-30 18:09:35
,wl-rdm,173,600197,0.0-8.40-0.40,1.0,158.0,,,,,,,[],,,,,,87.9,1.0,i,1.0,True,746.5,45.0,60.0,40.0,False,,227.69522870466395,[],"[768, 432]",ColorTask,58.0,41.0,,,HRV,HRV_0097,2022-11-30 18:09:35
,wl-rdm,174,602615,0.0-8.41-0.41,1.0,159.0,,,,,,,[],,,,,,53.2,0.0,u,0.0,True,977.1000000238419,59.0,60.0,40.0,False,,366.5828436038026,[],"[768, 432]",ColorTask,59.0,42.0,,,HRV,HRV_0097,2022-11-30 18:09:35
,wl-rdm,175,605632,0.0-8.42-0.42,1.0,160.0,,,,,,,[],,,,,,50.0,0.0,i,1.0,False,1602.3999999761581,97.0,60.0,40.0,False,,334.04481416236865,[],"[768, 432]",ColorTask,58.0,43.0,,,HRV,HRV_0097,2022-11-30 18:09:35
,wl-rdm,176,608267,0.0-8.43-0.43,1.0,161.0,,,,,,,[],,,,,,53.2,1.0,u,0.0,False,1304.3000000715256,79.0,60.0,40.0,False,,261.4359387872186,[],"[768, 432]",ColorTask,57.0,44.0,,,HRV,HRV_0097,2022-11-30 18:09:35
,wl-rdm,177,611268,0.0-8.44-0.44,1.0,162.0,,,,,,,[],,,,,,53.2,1.0,i,1.0,True,1721.7000000476837,104.0,60.0,40.0,False,,215.39862651035736,[],"[768, 432]",ColorTask,58.0,45.0,,,HRV,HRV_0097,2022-11-30 18:09:35
,wl-rdm,178,614536,0.0-8.45-0.45,1.0,163.0,,,,,,,[],,,,,,56.4,0.0,i,1.0,False,1854.800000011921,112.0,60.0,40.0,False,,333.30915016080166,[],"[768, 432]",ColorTask,57.0,46.0,,,HRV,HRV_0097,2022-11-30 18:09:35
,wl-rdm,179,617270,0.0-8.46-0.46,1.0,164.0,,,,,,,[],,,,,,56.4,1.0,i,1.0,True,1359.5999999642372,82.0,60.0,40.0,False,,290.30407626475625,[],"[768, 432]",ColorTask,58.0,47.0,,,HRV,HRV_0097,2022-11-30 18:09:35
,wl-rdm,180,619471,0.0-8.47-0.47,1.0,165.0,,,,,,,[],,,,,,62.5,1.0,i,1.0,True,853.0000000596046,52.0,60.0,40.0,False,,278.4023967723978,[],"[768, 432]",ColorTask,59.0,48.0,,,HRV,HRV_0097,2022-11-30 18:09:35
,wl-rdm,181,621939,0.0-8.48-0.48,1.0,166.0,,,,,,,[],,,,,,50.0,0.0,u,0.0,True,1119.6000000238419,68.0,60.0,40.0,False,,260.1600109563181,[],"[768, 432]",ColorTask,60.0,49.0,,,HRV,HRV_0097,2022-11-30 18:09:35
,wl-rdm,182,624139,0.0-8.49-0.49,1.0,167.0,,,,,,,[],,,,,,87.9,0.0,u,0.0,True,886.8999999761581,54.0,60.0,40.0,False,,240.32074239296412,[],"[768, 432]",ColorTask,61.0,50.0,,,HRV,HRV_0097,2022-11-30 18:09:35
,wl-rdm,183,626590,0.0-8.50-0.50,1.0,168.0,,,,,,,[],,,,,,50.0,1.0,i,1.0,True,1089.0999999642372,66.0,60.0,40.0,False,,294.85372723933983,[],"[768, 432]",ColorTask,62.0,51.0,,,HRV,HRV_0097,2022-11-30 18:09:35
,wl-rdm,184,628691,0.0-8.51-0.51,1.0,169.0,,,,,,,[],,,,,,87.9,0.0,u,0.0,True,751.7000000476837,46.0,60.0,40.0,False,,274.88464875445936,[],"[768, 432]",ColorTask,63.0,52.0,,,HRV,HRV_0097,2022-11-30 18:09:35
,wl-rdm,185,631975,0.0-8.52-0.52,1.0,170.0,,,,,,,[],,,,,,53.2,0.0,i,1.0,False,2011.5,121.0,60.0,40.0,False,,209.18498462204042,[],"[768, 432]",ColorTask,62.0,53.0,,,HRV,HRV_0097,2022-11-30 18:09:35
,wl-rdm,186,634026,0.0-8.53-0.53,1.0,171.0,,,,,,,[],,,,,,73.6,0.0,u,0.0,True,712.6999999880791,43.0,60.0,40.0,False,,261.7883265083362,[],"[768, 432]",ColorTask,63.0,54.0,,,HRV,HRV_0097,2022-11-30 18:09:35
,wl-rdm,187,636078,0.0-8.54-0.54,1.0,172.0,,,,,,,[],,,,,,87.9,1.0,i,1.0,True,705.8999999761581,43.0,60.0,40.0,False,,280.20707496418424,[],"[768, 432]",ColorTask,64.0,55.0,,,HRV,HRV_0097,2022-11-30 18:09:35
,wl-rdm,188,638228,0.0-8.55-0.55,1.0,173.0,,,,,,,[],,,,,,73.6,1.0,i,1.0,True,690.1000000238419,42.0,60.0,40.0,False,,398.6213392866272,[],"[768, 432]",ColorTask,65.0,56.0,,,HRV,HRV_0097,2022-11-30 18:09:35
,wl-rdm,189,640529,0.0-8.56-0.56,1.0,174.0,,,,,,,[],,,,,,53.2,1.0,i,1.0,True,818.5,50.0,60.0,40.0,False,,397.96789484029676,[],"[768, 432]",ColorTask,66.0,57.0,,,HRV,HRV_0097,2022-11-30 18:09:35
,wl-rdm,190,643830,0.0-8.57-0.57,1.0,175.0,,,,,,,[],,,,,,56.4,1.0,i,1.0,True,1971.2999999523163,119.0,60.0,40.0,False,,249.83556078444204,[],"[768, 432]",ColorTask,67.0,58.0,,,HRV,HRV_0097,2022-11-30 18:09:35
,wl-rdm,191,646448,0.0-8.58-0.58,1.0,176.0,,,,,,,[],,,,,,53.2,0.0,u,0.0,True,1152.0,70.0,60.0,40.0,False,,384.4559154544606,[],"[768, 432]",ColorTask,68.0,59.0,,,HRV,HRV_0097,2022-11-30 18:09:35
,wl-rdm,192,648482,0.0-8.59-0.59,1.0,177.0,,,,,,,[],,,,,,73.6,1.0,i,1.0,True,751.5999999642372,46.0,60.0,40.0,False,,209.95118356034885,[],"[768, 432]",ColorTask,69.0,60.0,,,HRV,HRV_0097,2022-11-30 18:09:35
,wl-rdm,193,651200,0.0-8.60-0.60,1.0,178.0,,,,,,,[],,,,,,62.5,1.0,i,1.0,True,1419.9000000357628,86.0,60.0,40.0,False,,200.26040676587212,[],"[768, 432]",ColorTask,70.0,61.0,,,HRV,HRV_0097,2022-11-30 18:09:35
,wl-rdm,194,653783,0.0-8.61-0.61,1.0,179.0,,,,,,,[],,,,,,53.2,1.0,i,1.0,True,1298.4000000357628,78.0,60.0,40.0,False,,212.205953828116,[],"[768, 432]",ColorTask,71.0,62.0,,,HRV,HRV_0097,2022-11-30 18:09:35
,wl-rdm,195,656385,0.0-8.62-0.62,1.0,180.0,,,,,,,[],,,,,,50.0,1.0,u,0.0,False,1290.3000000715256,78.0,60.0,40.0,False,,245.43339865319393,[],"[768, 432]",ColorTask,70.0,63.0,,,HRV,HRV_0097,2022-11-30 18:09:35
,wl-rdm,196,659153,0.0-8.63-0.63,1.0,181.0,,,,,,,[],,,,,,62.5,0.0,i,1.0,False,1309.199999988079,79.0,60.0,40.0,False,,387.5250449857698,[],"[768, 432]",ColorTask,69.0,64.0,,,HRV,HRV_0097,2022-11-30 18:09:35
,wl-rdm,197,662020,0.0-8.64-0.64,1.0,182.0,,,,,,,[],,,,,,62.5,0.0,i,1.0,False,1466.2999999523163,88.0,60.0,40.0,False,,349.07421934454635,[],"[768, 432]",ColorTask,68.0,65.0,,,HRV,HRV_0097,2022-11-30 18:09:35
,wl-rdm,198,664239,0.0-8.65-0.65,1.0,183.0,,,,,,,[],,,,,,73.6,1.0,i,1.0,True,926.9000000357628,56.0,60.0,40.0,False,,220.9594116545132,[],"[768, 432]",ColorTask,69.0,66.0,,,HRV,HRV_0097,2022-11-30 18:09:35
,wl-rdm,199,666573,0.0-8.66-0.66,1.0,184.0,,,,,,,[],,,,,,73.6,0.0,u,0.0,True,985.3000000119209,60.0,60.0,40.0,False,,278.3201785550518,[],"[768, 432]",ColorTask,70.0,67.0,,,HRV,HRV_0097,2022-11-30 18:09:35
,wl-rdm,200,669008,0.0-8.67-0.67,1.0,185.0,,,,,,,[],,,,,,73.6,1.0,i,1.0,True,977.0,59.0,60.0,40.0,False,,392.0923730006859,[],"[768, 432]",ColorTask,71.0,68.0,,,HRV,HRV_0097,2022-11-30 18:09:35
,wl-rdm,201,672658,0.0-8.68-0.68,1.0,186.0,,,,,,,[],,,,,,50.0,0.0,u,0.0,True,2209.800000011921,133.0,60.0,40.0,False,,375.1881777330057,[],"[768, 432]",ColorTask,72.0,69.0,,,HRV,HRV_0097,2022-11-30 18:09:35
,wl-rdm,202,675526,0.0-8.69-0.69,1.0,187.0,,,,,,,[],,,,,,56.4,1.0,i,1.0,True,1514.699999988079,91.0,60.0,40.0,False,,274.67450263971045,[],"[768, 432]",ColorTask,73.0,70.0,,,HRV,HRV_0097,2022-11-30 18:09:35
,wl-rdm,203,678794,0.0-8.70-0.70,1.0,188.0,,,,,,,[],,,,,,62.5,0.0,u,0.0,True,1879.699999988079,113.0,60.0,40.0,False,,331.7246938834074,[],"[768, 432]",ColorTask,74.0,71.0,,,HRV,HRV_0097,2022-11-30 18:09:35
,wl-rdm,204,682212,0.0-8.71-0.71,1.0,189.0,,,,,,,[],,,,,,62.5,0.0,i,1.0,False,2122.2000000476837,128.0,60.0,40.0,False,,212.0521500461979,[],"[768, 432]",ColorTask,73.0,72.0,,,HRV,HRV_0097,2022-11-30 18:09:35
,wl-rdm,205,684896,0.0-8.72-0.72,1.0,190.0,,,,,,,[],,,,,,56.4,1.0,u,0.0,False,1354.300000011921,82.0,60.0,40.0,False,,253.67078903486637,[],"[768, 432]",ColorTask,72.0,73.0,,,HRV,HRV_0097,2022-11-30 18:09:35
,wl-rdm,206,688714,0.0-8.73-0.73,1.0,191.0,,,,,,,[],,,,,,53.2,1.0,u,0.0,False,2523.400000035763,152.0,60.0,40.0,False,,225.48826319283833,[],"[768, 432]",ColorTask,71.0,74.0,,,HRV,HRV_0097,2022-11-30 18:09:35
,wl-rdm,207,691816,0.0-8.74-0.74,1.0,192.0,,,,,,,[],,,,,,56.4,1.0,u,0.0,False,1803.800000011921,109.0,60.0,40.0,False,,218.8660945199096,[],"[768, 432]",ColorTask,70.0,75.0,,,HRV,HRV_0097,2022-11-30 18:09:35
,wl-rdm,208,694117,0.0-8.75-0.75,1.0,193.0,,,,,,,[],,,,,,62.5,0.0,u,0.0,True,993.4000000357628,60.0,60.0,40.0,False,,248.82735295205504,[],"[768, 432]",ColorTask,71.0,76.0,,,HRV,HRV_0097,2022-11-30 18:09:35
,wl-rdm,209,698252,0.0-8.76-0.76,1.0,194.0,,,,,,,[],,,,,,50.0,0.0,u,0.0,True,2674.0,161.0,60.0,40.0,False,,397.8383441527062,[],"[768, 432]",ColorTask,72.0,77.0,,,HRV,HRV_0097,2022-11-30 18:09:35
,wl-rdm,210,700719,0.0-8.77-0.77,1.0,195.0,,,,,,,[],,,,,,50.0,0.0,i,1.0,False,1126.8999999761581,68.0,60.0,40.0,False,,258.3452382324777,[],"[768, 432]",ColorTask,71.0,78.0,,,HRV,HRV_0097,2022-11-30 18:09:35
,wl-rdm,211,703003,0.0-8.78-0.78,1.0,196.0,,,,,,,[],,,,,,87.9,0.0,u,0.0,True,987.2000000476837,60.0,60.0,40.0,False,,222.49181176667037,[],"[768, 432]",ColorTask,72.0,79.0,,,HRV,HRV_0097,2022-11-30 18:09:35
,wl-rdm,212,706104,0.0-8.79-0.79,1.0,197.0,,,,,,,[],,,,,,56.4,0.0,i,1.0,False,1710.0999999642372,103.0,60.0,40.0,False,,310.90930010235047,[],"[768, 432]",ColorTask,71.0,80.0,,,HRV,HRV_0097,2022-11-30 18:09:35
,wl-rdm,213,709439,0.0-8.80-0.80,1.0,198.0,,,,,,,[],,,,,,50.0,0.0,u,0.0,True,2000.0,120.0,60.0,40.0,False,,281.2929194030402,[],"[768, 432]",ColorTask,72.0,81.0,,,HRV,HRV_0097,2022-11-30 18:09:35
,wl-rdm,214,712924,0.0-8.81-0.81,1.0,199.0,,,,,,,[],,,,,,56.4,0.0,u,0.0,True,2097.5000000596046,126.0,60.0,40.0,False,,320.2159726913735,[],"[768, 432]",ColorTask,73.0,82.0,,,HRV,HRV_0097,2022-11-30 18:09:35
,wl-rdm,215,716442,0.0-8.82-0.82,1.0,200.0,,,,,,,[],,,,,,53.2,0.0,i,1.0,False,2173.6999999284744,131.0,60.0,40.0,False,,267.14646962425456,[],"[768, 432]",ColorTask,72.0,83.0,,,HRV,HRV_0097,2022-11-30 18:09:35
,wl-rdm,216,718859,0.0-8.83-0.83,1.0,201.0,,,,,,,[],,,,,,62.5,0.0,u,0.0,True,1023.8999999761581,62.0,60.0,40.0,False,,325.03109296372793,[],"[768, 432]",ColorTask,73.0,84.0,,,HRV,HRV_0097,2022-11-30 18:09:35
,wl-rdm,217,721565,0.0-8.84-0.84,1.0,202.0,,,,,,,[],,,,,,62.5,0.0,u,0.0,True,1324.9000000357628,80.0,60.0,40.0,False,,305.602065169401,[],"[768, 432]",ColorTask,74.0,85.0,,,HRV,HRV_0097,2022-11-30 18:09:35
,wl-rdm,218,723616,0.0-8.85-0.85,1.0,203.0,,,,,,,[],,,,,,73.6,1.0,i,1.0,True,737.6000000238419,45.0,60.0,40.0,False,,244.38465853773764,[],"[768, 432]",ColorTask,75.0,86.0,,,HRV,HRV_0097,2022-11-30 18:09:35
,wl-rdm,219,726350,0.0-8.86-0.86,1.0,204.0,,,,,,,[],,,,,,62.5,1.0,i,1.0,True,1422.5999999642372,86.0,60.0,40.0,False,,231.85971162319956,[],"[768, 432]",ColorTask,76.0,87.0,,,HRV,HRV_0097,2022-11-30 18:09:35
,wl-rdm,220,727701,0.0-8.87-0.87,1.0,204.0,,,,,,,[],,,,,,87.9,1.0,i,,,827.5,0.0,60.0,40.0,True,too_early ,298.7678882448526,[],"[768, 432]",ColorTask,75.0,88.0,,,HRV,HRV_0097,2022-11-30 18:09:35
,wl-rdm,221,729702,0.0-8.88-0.88,1.0,205.0,,,,,,,[],,,,,,87.9,1.0,i,1.0,True,736.8000000119209,45.0,60.0,40.0,False,,200.10283475423913,[],"[768, 432]",ColorTask,76.0,89.0,,,HRV,HRV_0097,2022-11-30 18:09:35
,wl-rdm,222,732169,0.0-8.89-0.89,1.0,206.0,,,,,,,[],,,,,,73.6,0.0,u,0.0,True,1157.0,70.0,60.0,40.0,False,,236.02546420770693,[],"[768, 432]",ColorTask,77.0,90.0,,,HRV,HRV_0097,2022-11-30 18:09:35
,wl-rdm,223,734920,0.0-8.90-0.90,1.0,207.0,,,,,,,[],,,,,,62.5,0.0,i,1.0,False,1405.9000000357628,85.0,60.0,40.0,False,,261.0476342853153,[],"[768, 432]",ColorTask,76.0,91.0,,,HRV,HRV_0097,2022-11-30 18:09:35
,wl-rdm,224,736954,0.0-8.91-0.91,1.0,208.0,,,,,,,[],,,,,,87.9,1.0,i,1.0,True,689.3999999761581,42.0,60.0,40.0,False,,270.5806056580457,[],"[768, 432]",ColorTask,77.0,92.0,,,HRV,HRV_0097,2022-11-30 18:09:35
,wl-rdm,225,739889,0.0-8.92-0.92,1.0,209.0,,,,,,,[],,,,,,53.2,1.0,i,1.0,True,1591.9000000357628,96.0,60.0,40.0,False,,278.27856140676477,[],"[768, 432]",ColorTask,78.0,93.0,,,HRV,HRV_0097,2022-11-30 18:09:35
,wl-rdm,226,742040,0.0-8.93-0.93,1.0,210.0,,,,,,,[],,,,,,73.6,0.0,u,0.0,True,865.8999999761581,52.0,60.0,40.0,False,,217.79686538308096,[],"[768, 432]",ColorTask,79.0,94.0,,,HRV,HRV_0097,2022-11-30 18:09:35
,wl-rdm,227,744424,0.0-8.94-0.94,1.0,211.0,,,,,,,[],,,,,,62.5,1.0,i,1.0,True,1040.2999999523163,63.0,60.0,40.0,False,,275.66990143140333,[],"[768, 432]",ColorTask,80.0,95.0,,,HRV,HRV_0097,2022-11-30 18:09:35
,wl-rdm,228,747459,0.0-8.95-0.95,1.0,212.0,,,,,,,[],,,,,,50.0,0.0,i,1.0,False,1580.3999999761581,95.0,60.0,40.0,False,,396.71681903456727,[],"[768, 432]",ColorTask,79.0,96.0,,,HRV,HRV_0097,2022-11-30 18:09:35
,wl-rdm,229,749659,0.0-8.96-0.96,1.0,213.0,,,,,,,[],,,,,,87.9,0.0,u,0.0,True,802.6000000238419,49.0,60.0,40.0,False,,318.0694469074259,[],"[768, 432]",ColorTask,80.0,97.0,,,HRV,HRV_0097,2022-11-30 18:09:35
,wl-rdm,230,752160,0.0-8.97-0.97,1.0,214.0,,,,,,,[],,,,,,87.9,0.0,u,0.0,True,1036.5,63.0,60.0,40.0,False,,376.602734697648,[],"[768, 432]",ColorTask,81.0,98.0,,,HRV,HRV_0097,2022-11-30 18:09:35
,wl-rdm,231,754211,0.0-8.98-0.98,1.0,215.0,,,,,,,[],,,,,,87.9,1.0,i,1.0,True,738.4000000357628,45.0,60.0,40.0,False,,246.1512686748096,[],"[768, 432]",ColorTask,82.0,99.0,,,HRV,HRV_0097,2022-11-30 18:09:35
,wl-rdm,232,756829,0.0-8.99-0.99,1.0,216.0,,,,,,,[],,,,,,62.5,1.0,i,1.0,True,1236.7999999523163,75.0,60.0,40.0,False,,308.87727593763117,[],"[768, 432]",ColorTask,83.0,100.0,,,HRV,HRV_0097,2022-11-30 18:09:35
,wl-rdm,233,758879,0.0-8.100-0.100,1.0,217.0,,,,,,,[],,,,,,73.6,1.0,i,1.0,True,696.6999999880791,42.0,60.0,40.0,False,,289.2322880889057,[],"[768, 432]",ColorTask,84.0,101.0,,,HRV,HRV_0097,2022-11-30 18:09:35
,wl-rdm,234,761297,0.0-8.101-0.101,1.0,218.0,,,,,,,[],,,,,,73.6,0.0,u,0.0,True,960.9000000357628,58.0,60.0,40.0,False,,383.8564600397257,[],"[768, 432]",ColorTask,85.0,102.0,,,HRV,HRV_0097,2022-11-30 18:09:35
,wl-rdm,235,763298,0.0-8.102-0.102,1.0,219.0,,,,,,,[],,,,,,87.9,0.0,u,0.0,True,703.6999999880791,43.0,60.0,40.0,False,,217.45700878331908,[],"[768, 432]",ColorTask,86.0,103.0,,,HRV,HRV_0097,2022-11-30 18:09:35
,wl-rdm,236,765265,0.0-8.103-0.103,1.0,220.0,,,,,,,[],,,,,,87.9,0.0,u,0.0,True,659.8000000119209,40.0,60.0,40.0,False,,224.4544714558658,[],"[768, 432]",ColorTask,87.0,104.0,,,HRV,HRV_0097,2022-11-30 18:09:35
,wl-rdm,237,768066,0.0-8.104-0.104,1.0,221.0,,,,,,,[],,,,,,53.2,0.0,i,1.0,False,1422.699999988079,86.0,60.0,40.0,False,,285.5747023342421,[],"[768, 432]",ColorTask,86.0,105.0,,,HRV,HRV_0097,2022-11-30 18:09:35
,wl-rdm,238,770283,0.0-8.105-0.105,1.0,222.0,,,,,,,[],,,,,,73.6,0.0,u,0.0,True,778.7999999523163,47.0,60.0,40.0,False,,361.4290449456204,[],"[768, 432]",ColorTask,87.0,106.0,,,HRV,HRV_0097,2022-11-30 18:09:35
,wl-rdm,239,772485,0.0-8.106-0.106,1.0,223.0,,,,,,,[],,,,,,56.4,1.0,i,1.0,True,860.5999999642372,52.0,60.0,40.0,False,,280.2561027632226,[],"[768, 432]",ColorTask,88.0,107.0,,,HRV,HRV_0097,2022-11-30 18:09:35
,wl-rdm,240,774836,0.0-8.107-0.107,1.0,224.0,,,,,,,[],,,,,,73.6,1.0,i,1.0,True,930.8999999761581,56.0,60.0,40.0,False,,350.80620903838764,[],"[768, 432]",ColorTask,89.0,108.0,,,HRV,HRV_0097,2022-11-30 18:09:35
,wl-rdm,241,777270,0.0-8.108-0.108,1.0,225.0,,,,,,,[],,,,,,53.2,0.0,u,0.0,True,1139.6000000238419,69.0,60.0,40.0,False,,210.05198939551707,[],"[768, 432]",ColorTask,90.0,109.0,,,HRV,HRV_0097,2022-11-30 18:09:35
,wl-html-button-response,242,780382,0.0-9.0-0.0,,,,,,,,,,3110.0,,0,,,,,,,,,,,,,,,,,,,,<h3>End of this session. Thank you!</h3><br>,['Close window'],HRV,HRV_0097,2022-11-30 18:09:35
