trialN,stimuli,trialStartTime,trialStartTime_UNIX,stimulus1,stimulus2,stimulus1Bid,stimulus2Bid,delta,selected,rt,rt_UNIX,rt_perfnow,receivedResponse,rsp,trialEndTime,trialDuration,trialEndTime_UNIX,trialDuration_UNIX,exp,subjectId,date
0,"[{'imgObject': {}, 'id': 'fried eggs', 'src': '/static/foodstim60/fried eggs.jpg', 'key': 'u', 'origWidth': 410, 'origHeight': 410, 'width': 410, 'height': 410, 'widthPercent': 0.45, 'rescaleHeight': False, 'trialN': 0, 'loaded': True, 'loadedTime': 2422.7999999523163, 'positionName': 'LEFT', 'positionCoords': [327.28, 227], 'bid': 5.67}, {'imgObject': {}, 'id': 'salad w chicken', 'src': '/static/foodstim60/salad w chicken.jpg', 'key': 'i', 'origWidth': 411, 'origHeight': 411, 'width': 411, 'height': 411, 'widthPercent': 0.45, 'rescaleHeight': False, 'trialN': 0, 'loaded': True, 'loadedTime': 2453.899999976158, 'positionName': 'RIGHT', 'positionCoords': [798.72, 226.5], 'bid': 4.71}]",2819.7999999523163,1669830637728,fried eggs,salad w chicken,5.67,4.71,-0.96,salad w chicken,1264.5,1267,1266.4000000357628,True,i,4590.399999976158,1770.6000000238419,1669830639499,1771,HRV,HRV_0097,2022-11-30 17:56:21
1,"[{'imgObject': {}, 'id': 'bagel plain', 'src': '/static/foodstim60/bagel plain.jpg', 'key': 'u', 'origWidth': 410, 'origHeight': 410, 'width': 410, 'height': 410, 'widthPercent': 0.45, 'rescaleHeight': False, 'trialN': 1, 'loaded': True, 'loadedTime': 2454, 'positionName': 'LEFT', 'positionCoords': [327.28, 227], 'bid': 5.26}, {'imgObject': {}, 'id': 'hashbrowns', 'src': '/static/foodstim60/hashbrowns.jpg', 'key': 'i', 'origWidth': 411, 'origHeight': 410, 'width': 411, 'height': 410, 'widthPercent': 0.45, 'rescaleHeight': False, 'trialN': 1, 'loaded': True, 'loadedTime': 2481.599999964237, 'positionName': 'RIGHT', 'positionCoords': [798.72, 227], 'bid': 3.59}]",4590.799999952316,1669830639499,bagel plain,hashbrowns,5.26,3.59,-1.67,bagel plain,997.8000000119209,998,998.3000000119209,True,u,6097.699999988079,1506.9000000357628,1669830641006,1507,HRV,HRV_0097,2022-11-30 17:56:21
2,"[{'imgObject': {}, 'id': 'strawberries', 'src': '/static/foodstim60/strawberries.jpg', 'key': 'u', 'origWidth': 410, 'origHeight': 410, 'width': 410, 'height': 410, 'widthPercent': 0.45, 'rescaleHeight': False, 'trialN': 2, 'loaded': True, 'loadedTime': 2494.199999988079, 'positionName': 'LEFT', 'positionCoords': [327.28, 227], 'bid': 8.2}, {'imgObject': {}, 'id': 'sweetpotato', 'src': '/static/foodstim60/sweetpotato.jpg', 'key': 'i', 'origWidth': 410, 'origHeight': 410, 'width': 410, 'height': 410, 'widthPercent': 0.45, 'rescaleHeight': False, 'trialN': 2, 'loaded': True, 'loadedTime': 2495.099999964237, 'positionName': 'RIGHT', 'positionCoords': [798.72, 227], 'bid': 8.47}]",6097.899999976158,1669830641006,strawberries,sweetpotato,8.2,8.47,0.27000000000000135,strawberries,783.8000000119209,785,784.5,True,u,7390.199999988079,1292.300000011921,1669830642299,1293,HRV,HRV_0097,2022-11-30 17:56:21
3,"[{'imgObject': {}, 'id': 'shreddedwheatwithmilk', 'src': '/static/foodstim60/shreddedwheatwithmilk.jpg', 'key': 'u', 'origWidth': 410, 'origHeight': 410, 'width': 410, 'height': 410, 'widthPercent': 0.45, 'rescaleHeight': False, 'trialN': 3, 'loaded': True, 'loadedTime': 2508.2999999523163, 'positionName': 'LEFT', 'positionCoords': [327.28, 227], 'bid': 6.3}, {'imgObject': {}, 'id': 'orange slices', 'src': '/static/foodstim60/orange slices.jpg', 'key': 'i', 'origWidth': 409, 'origHeight': 410, 'width': 409, 'height': 410, 'widthPercent': 0.45, 'rescaleHeight': False, 'trialN': 3, 'loaded': True, 'loadedTime': 2508.699999988079, 'positionName': 'RIGHT', 'positionCoords': [798.72, 227], 'bid': 7.44}]",7390.399999976158,1669830642299,shreddedwheatwithmilk,orange slices,6.3,7.44,1.1400000000000006,orange slices,1015.8999999761581,1016,1016.6000000238419,True,i,8915.599999964237,1525.199999988079,1669830643824,1525,HRV,HRV_0097,2022-11-30 17:56:21
4,"[{'imgObject': {}, 'id': 'burrito', 'src': '/static/foodstim60/burrito.jpg', 'key': 'u', 'origWidth': 410, 'origHeight': 410, 'width': 410, 'height': 410, 'widthPercent': 0.45, 'rescaleHeight': False, 'trialN': 4, 'loaded': True, 'loadedTime': 2523.599999964237, 'positionName': 'LEFT', 'positionCoords': [327.28, 227], 'bid': 7.53}, {'imgObject': {}, 'id': 'orange slices', 'src': '/static/foodstim60/orange slices.jpg', 'key': 'i', 'origWidth': 409, 'origHeight': 410, 'width': 409, 'height': 410, 'widthPercent': 0.45, 'rescaleHeight': False, 'trialN': 4, 'loaded': True, 'loadedTime': 2509.199999988079, 'positionName': 'RIGHT', 'positionCoords': [798.72, 227], 'bid': 7.44}]",8916.0,1669830643824,burrito,orange slices,7.53,7.44,-0.08999999999999986,orange slices,975.7999999523163,977,976.3999999761581,True,i,10400.099999964237,1484.0999999642372,1669830645308,1484,HRV,HRV_0097,2022-11-30 17:56:21
5,"[{'imgObject': {}, 'id': 'cherries', 'src': '/static/foodstim60/cherries.jpg', 'key': 'u', 'origWidth': 410, 'origHeight': 411, 'width': 410, 'height': 411, 'widthPercent': 0.45, 'rescaleHeight': False, 'trialN': 5, 'loaded': True, 'loadedTime': 2547.199999988079, 'positionName': 'LEFT', 'positionCoords': [327.28, 226.5], 'bid': 3.85}, {'imgObject': {}, 'id': 'popsicles', 'src': '/static/foodstim60/popsicles.jpg', 'key': 'i', 'origWidth': 410, 'origHeight': 410, 'width': 410, 'height': 410, 'widthPercent': 0.45, 'rescaleHeight': False, 'trialN': 5, 'loaded': True, 'loadedTime': 2552.199999988079, 'positionName': 'RIGHT', 'positionCoords': [798.72, 227], 'bid': 2.99}]",10400.5,1669830645309,cherries,popsicles,3.85,2.99,-0.8599999999999999,cherries,881.0999999642372,882,881.5999999642372,True,u,11789.399999976158,1388.8999999761581,1669830646698,1389,HRV,HRV_0097,2022-11-30 17:56:21
6,"[{'imgObject': {}, 'id': 'mac & cheese', 'src': '/static/foodstim60/mac & cheese.jpg', 'key': 'u', 'origWidth': 410, 'origHeight': 410, 'width': 410, 'height': 410, 'widthPercent': 0.45, 'rescaleHeight': False, 'trialN': 6, 'loaded': True, 'loadedTime': 2558.699999988079, 'positionName': 'LEFT', 'positionCoords': [327.28, 227], 'bid': 2.92}, {'imgObject': {}, 'id': 'granola w milk', 'src': '/static/foodstim60/granola w milk.jpg', 'key': 'i', 'origWidth': 410, 'origHeight': 410, 'width': 410, 'height': 410, 'widthPercent': 0.45, 'rescaleHeight': False, 'trialN': 6, 'loaded': True, 'loadedTime': 2560.199999988079, 'positionName': 'RIGHT', 'positionCoords': [798.72, 227], 'bid': 2.03}]",11789.699999988079,1669830646698,mac & cheese,granola w milk,2.92,2.03,-0.8900000000000001,mac & cheese,1253.699999988079,1254,1254.3999999761581,True,u,13548.399999976158,1758.699999988079,1669830648457,1759,HRV,HRV_0097,2022-11-30 17:56:21
7,"[{'imgObject': {}, 'id': 'Tribe humus pita', 'src': '/static/foodstim60/Tribe humus pita.jpg', 'key': 'u', 'origWidth': 411, 'origHeight': 411, 'width': 411, 'height': 411, 'widthPercent': 0.45, 'rescaleHeight': False, 'trialN': 7, 'loaded': True, 'loadedTime': 2567.199999988079, 'positionName': 'LEFT', 'positionCoords': [326.28, 226.5], 'bid': 5.26}, {'imgObject': {}, 'id': 'turkey sandwich', 'src': '/static/foodstim60/turkey sandwich.jpg', 'key': 'i', 'origWidth': 409, 'origHeight': 409, 'width': 409, 'height': 409, 'widthPercent': 0.45, 'rescaleHeight': False, 'trialN': 7, 'loaded': True, 'loadedTime': 2581.5, 'positionName': 'RIGHT', 'positionCoords': [798.72, 227.5], 'bid': 7.77}]",13548.599999964237,1669830648457,Tribe humus pita,turkey sandwich,5.26,7.77,2.51,turkey sandwich,979.1000000238419,979,979.4000000357628,True,i,15034.899999976158,1486.300000011921,1669830649943,1486,HRV,HRV_0097,2022-11-30 17:56:21
8,"[{'imgObject': {}, 'id': 'rigatoni and sauce', 'src': '/static/foodstim60/rigatoni and sauce.jpg', 'key': 'u', 'origWidth': 410, 'origHeight': 411, 'width': 410, 'height': 411, 'widthPercent': 0.45, 'rescaleHeight': False, 'trialN': 8, 'loaded': True, 'loadedTime': 2596.699999988079, 'positionName': 'LEFT', 'positionCoords': [327.28, 226.5], 'bid': 7.03}, {'imgObject': {}, 'id': 'raspberries', 'src': '/static/foodstim60/raspberries.jpg', 'key': 'i', 'origWidth': 411, 'origHeight': 411, 'width': 411, 'height': 411, 'widthPercent': 0.45, 'rescaleHeight': False, 'trialN': 8, 'loaded': True, 'loadedTime': 2597.599999964237, 'positionName': 'RIGHT', 'positionCoords': [798.72, 226.5], 'bid': 4.71}]",15035.199999988079,1669830649944,rigatoni and sauce,raspberries,7.03,4.71,-2.3200000000000003,rigatoni and sauce,968.1999999880791,968,968.5,True,u,16514.5,1479.300000011921,1669830651423,1479,HRV,HRV_0097,2022-11-30 17:56:21
9,"[{'imgObject': {}, 'id': 'Tribe humus pita', 'src': '/static/foodstim60/Tribe humus pita.jpg', 'key': 'u', 'origWidth': 411, 'origHeight': 411, 'width': 411, 'height': 411, 'widthPercent': 0.45, 'rescaleHeight': False, 'trialN': 9, 'loaded': True, 'loadedTime': 2563.199999988079, 'positionName': 'LEFT', 'positionCoords': [326.28, 226.5], 'bid': 5.26}, {'imgObject': {}, 'id': 'blackbeanswithrice', 'src': '/static/foodstim60/blackbeanswithrice.jpg', 'key': 'i', 'origWidth': 410, 'origHeight': 410, 'width': 410, 'height': 410, 'widthPercent': 0.45, 'rescaleHeight': False, 'trialN': 9, 'loaded': True, 'loadedTime': 2609.699999988079, 'positionName': 'RIGHT', 'positionCoords': [798.72, 227], 'bid': 5.2}]",16514.799999952316,1669830651423,Tribe humus pita,blackbeanswithrice,5.26,5.2,-0.05999999999999961,Tribe humus pita,1024.300000011921,1025,1024.9000000357628,True,u,18045.69999998808,1530.9000000357628,1669830652954,1531,HRV,HRV_0097,2022-11-30 17:56:21
10,"[{'imgObject': {}, 'id': 'luckycharms', 'src': '/static/foodstim60/luckycharms.jpg', 'key': 'u', 'origWidth': 410, 'origHeight': 409, 'width': 410, 'height': 409, 'widthPercent': 0.45, 'rescaleHeight': False, 'trialN': 10, 'loaded': True, 'loadedTime': 2617.699999988079, 'positionName': 'LEFT', 'positionCoords': [327.28, 227.5], 'bid': 1.41}, {'imgObject': {}, 'id': 'ice cream sundae 002', 'src': '/static/foodstim60/ice cream sundae 002.jpg', 'key': 'i', 'origWidth': 409, 'origHeight': 409, 'width': 409, 'height': 409, 'widthPercent': 0.45, 'rescaleHeight': False, 'trialN': 10, 'loaded': True, 'loadedTime': 2619.699999988079, 'positionName': 'RIGHT', 'positionCoords': [798.72, 227.5], 'bid': 4.72}]",18046.099999964237,1669830652954,luckycharms,ice cream sundae 002,1.41,4.72,3.3099999999999996,ice cream sundae 002,1180.1000000238419,1181,1180.9000000357628,True,i,19736.399999976158,1690.300000011921,1669830654645,1691,HRV,HRV_0097,2022-11-30 17:56:21
11,"[{'imgObject': {}, 'id': 'hotdog w must', 'src': '/static/foodstim60/hotdog w must.jpg', 'key': 'u', 'origWidth': 409, 'origHeight': 409, 'width': 409, 'height': 409, 'widthPercent': 0.45, 'rescaleHeight': False, 'trialN': 11, 'loaded': True, 'loadedTime': 2625, 'positionName': 'LEFT', 'positionCoords': [328.28, 227.5], 'bid': 6.19}, {'imgObject': {}, 'id': 'omelette', 'src': '/static/foodstim60/omelette.jpg', 'key': 'i', 'origWidth': 410, 'origHeight': 409, 'width': 410, 'height': 409, 'widthPercent': 0.45, 'rescaleHeight': False, 'trialN': 11, 'loaded': True, 'loadedTime': 2625.2999999523163, 'positionName': 'RIGHT', 'positionCoords': [798.72, 227.5], 'bid': 6.28}]",19736.599999964237,1669830654645,hotdog w must,omelette,6.19,6.28,0.08999999999999986,omelette,1322.9000000357628,1324,1323.6000000238419,True,i,21567.0,1830.4000000357628,1669830656475,1830,HRV,HRV_0097,2022-11-30 17:56:21
12,"[{'imgObject': {}, 'id': 'avocado', 'src': '/static/foodstim60/avocado.jpg', 'key': 'u', 'origWidth': 409, 'origHeight': 409, 'width': 409, 'height': 409, 'widthPercent': 0.45, 'rescaleHeight': False, 'trialN': 12, 'loaded': True, 'loadedTime': 2639, 'positionName': 'LEFT', 'positionCoords': [328.28, 227.5], 'bid': 2}, {'imgObject': {}, 'id': 'seaweed', 'src': '/static/foodstim60/seaweed.jpg', 'key': 'i', 'origWidth': 410, 'origHeight': 410, 'width': 410, 'height': 410, 'widthPercent': 0.45, 'rescaleHeight': False, 'trialN': 12, 'loaded': True, 'loadedTime': 2639.2999999523163, 'positionName': 'RIGHT', 'positionCoords': [798.72, 227], 'bid': 2.74}]",21567.599999964237,1669830656476,avocado,seaweed,2.0,2.74,0.7400000000000002,avocado,1013.3000000119209,1015,1014.6999999880791,True,u,23086.299999952316,1518.699999988079,1669830657995,1519,HRV,HRV_0097,2022-11-30 17:56:21
13,"[{'imgObject': {}, 'id': 'olives', 'src': '/static/foodstim60/olives.jpg', 'key': 'u', 'origWidth': 410, 'origHeight': 410, 'width': 410, 'height': 410, 'widthPercent': 0.45, 'rescaleHeight': False, 'trialN': 13, 'loaded': True, 'loadedTime': 2652.899999976158, 'positionName': 'LEFT', 'positionCoords': [327.28, 227], 'bid': 6.08}, {'imgObject': {}, 'id': 'froot loops w milk', 'src': '/static/foodstim60/froot loops w milk.jpg', 'key': 'i', 'origWidth': 410, 'origHeight': 410, 'width': 410, 'height': 410, 'widthPercent': 0.45, 'rescaleHeight': False, 'trialN': 13, 'loaded': True, 'loadedTime': 2666.699999988079, 'positionName': 'RIGHT', 'positionCoords': [798.72, 227], 'bid': 1.53}]",23086.799999952316,1669830657995,olives,froot loops w milk,6.08,1.53,-4.55,olives,1022.5,1023,1023.2000000476837,True,u,24620.299999952316,1533.5,1669830659529,1534,HRV,HRV_0097,2022-11-30 17:56:21
14,"[{'imgObject': {}, 'id': 'edamame', 'src': '/static/foodstim60/edamame.jpg', 'key': 'u', 'origWidth': 409, 'origHeight': 410, 'width': 409, 'height': 410, 'widthPercent': 0.45, 'rescaleHeight': False, 'trialN': 14, 'loaded': True, 'loadedTime': 2667.2999999523163, 'positionName': 'LEFT', 'positionCoords': [328.28, 227], 'bid': 4.84}, {'imgObject': {}, 'id': 'Tribe humus pita', 'src': '/static/foodstim60/Tribe humus pita.jpg', 'key': 'i', 'origWidth': 411, 'origHeight': 411, 'width': 411, 'height': 411, 'widthPercent': 0.45, 'rescaleHeight': False, 'trialN': 14, 'loaded': True, 'loadedTime': 2567.2999999523163, 'positionName': 'RIGHT', 'positionCoords': [798.72, 226.5], 'bid': 5.26}]",24620.599999964237,1669830659529,edamame,Tribe humus pita,4.84,5.26,0.41999999999999993,Tribe humus pita,1202.699999988079,1203,1203.4000000357628,True,i,26326.099999964237,1705.5,1669830661234,1705,HRV,HRV_0097,2022-11-30 17:56:21
15,"[{'imgObject': {}, 'id': 'Tribe humus pita', 'src': '/static/foodstim60/Tribe humus pita.jpg', 'key': 'u', 'origWidth': 411, 'origHeight': 411, 'width': 411, 'height': 411, 'widthPercent': 0.45, 'rescaleHeight': False, 'trialN': 15, 'loaded': True, 'loadedTime': 2567, 'positionName': 'LEFT', 'positionCoords': [326.28, 226.5], 'bid': 5.26}, {'imgObject': {}, 'id': 'lox', 'src': '/static/foodstim60/lox.jpg', 'key': 'i', 'origWidth': 410, 'origHeight': 411, 'width': 410, 'height': 411, 'widthPercent': 0.45, 'rescaleHeight': False, 'trialN': 15, 'loaded': True, 'loadedTime': 2680.199999988079, 'positionName': 'RIGHT', 'positionCoords': [798.72, 226.5], 'bid': 5.24}]",26326.399999976158,1669830661235,Tribe humus pita,lox,5.26,5.24,-0.019999999999999574,Tribe humus pita,1491.1000000238419,1492,1491.800000011921,True,u,28318.69999998808,1992.300000011921,1669830663227,1992,HRV,HRV_0097,2022-11-30 17:56:21
16,"[{'imgObject': {}, 'id': 'veggieswithdip', 'src': '/static/foodstim60/veggieswithdip.jpg', 'key': 'u', 'origWidth': 409, 'origHeight': 409, 'width': 409, 'height': 409, 'widthPercent': 0.45, 'rescaleHeight': False, 'trialN': 16, 'loaded': True, 'loadedTime': 2695, 'positionName': 'LEFT', 'positionCoords': [328.28, 227.5], 'bid': 5.26}, {'imgObject': {}, 'id': 'cocktailshrimp', 'src': '/static/foodstim60/cocktailshrimp.jpg', 'key': 'i', 'origWidth': 410, 'origHeight': 410, 'width': 410, 'height': 410, 'widthPercent': 0.45, 'rescaleHeight': False, 'trialN': 16, 'loaded': True, 'loadedTime': 2696.399999976158, 'positionName': 'RIGHT', 'positionCoords': [798.72, 227], 'bid': 8.040000000000001}]",28318.899999976158,1669830663227,veggieswithdip,cocktailshrimp,5.26,8.040000000000001,2.780000000000001,cocktailshrimp,1110.0,1111,1110.6000000238419,True,i,29940.399999976158,1621.5,1669830664849,1622,HRV,HRV_0097,2022-11-30 17:56:21
17,"[{'imgObject': {}, 'id': 'Tribe humus pita', 'src': '/static/foodstim60/Tribe humus pita.jpg', 'key': 'u', 'origWidth': 411, 'origHeight': 411, 'width': 411, 'height': 411, 'widthPercent': 0.45, 'rescaleHeight': False, 'trialN': 17, 'loaded': True, 'loadedTime': 2567.099999964237, 'positionName': 'LEFT', 'positionCoords': [326.28, 226.5], 'bid': 5.26}, {'imgObject': {}, 'id': 'popsicles', 'src': '/static/foodstim60/popsicles.jpg', 'key': 'i', 'origWidth': 410, 'origHeight': 410, 'width': 410, 'height': 410, 'widthPercent': 0.45, 'rescaleHeight': False, 'trialN': 17, 'loaded': True, 'loadedTime': 2551.899999976158, 'positionName': 'RIGHT', 'positionCoords': [798.72, 227], 'bid': 2.99}]",29940.799999952316,1669830664849,Tribe humus pita,popsicles,5.26,2.99,-2.2699999999999996,Tribe humus pita,1094.7000000476837,1096,1095.300000011921,True,u,31536.69999998808,1595.9000000357628,1669830666445,1596,HRV,HRV_0097,2022-11-30 17:56:21
18,"[{'imgObject': {}, 'id': 'sushi w_condiments', 'src': '/static/foodstim60/sushi w_condiments.jpg', 'key': 'u', 'origWidth': 410, 'origHeight': 410, 'width': 410, 'height': 410, 'widthPercent': 0.45, 'rescaleHeight': False, 'trialN': 18, 'loaded': True, 'loadedTime': 2698.699999988079, 'positionName': 'LEFT', 'positionCoords': [327.28, 227], 'bid': 4.28}, {'imgObject': {}, 'id': 'cherries', 'src': '/static/foodstim60/cherries.jpg', 'key': 'i', 'origWidth': 410, 'origHeight': 411, 'width': 410, 'height': 411, 'widthPercent': 0.45, 'rescaleHeight': False, 'trialN': 18, 'loaded': True, 'loadedTime': 2536.7999999523163, 'positionName': 'RIGHT', 'positionCoords': [798.72, 226.5], 'bid': 3.85}]",31537.299999952316,1669830666446,sushi w_condiments,cherries,4.28,3.85,-0.43000000000000016,sushi w_condiments,1510.1000000238419,1511,1510.800000011921,True,u,33550.39999997616,2013.1000000238419,1669830668459,2013,HRV,HRV_0097,2022-11-30 17:56:21
19,"[{'imgObject': {}, 'id': 'eggsalad', 'src': '/static/foodstim60/eggsalad.jpg', 'key': 'u', 'origWidth': 410, 'origHeight': 409, 'width': 410, 'height': 409, 'widthPercent': 0.45, 'rescaleHeight': False, 'trialN': 19, 'loaded': True, 'loadedTime': 2699.2999999523163, 'positionName': 'LEFT', 'positionCoords': [327.28, 227.5], 'bid': 4.97}, {'imgObject': {}, 'id': 'edamame', 'src': '/static/foodstim60/edamame.jpg', 'key': 'i', 'origWidth': 409, 'origHeight': 410, 'width': 409, 'height': 410, 'widthPercent': 0.45, 'rescaleHeight': False, 'trialN': 19, 'loaded': True, 'loadedTime': 2667.399999976158, 'positionName': 'RIGHT', 'positionCoords': [798.72, 227], 'bid': 4.84}]",33550.89999997616,1669830668459,eggsalad,edamame,4.97,4.84,-0.1299999999999999,eggsalad,1212.1000000238419,1213,1212.699999988079,True,u,35270.69999998808,1719.800000011921,1669830670179,1720,HRV,HRV_0097,2022-11-30 17:56:21
20,"[{'imgObject': {}, 'id': 'sushi w_condiments', 'src': '/static/foodstim60/sushi w_condiments.jpg', 'key': 'u', 'origWidth': 410, 'origHeight': 410, 'width': 410, 'height': 410, 'widthPercent': 0.45, 'rescaleHeight': False, 'trialN': 20, 'loaded': True, 'loadedTime': 2698.2999999523163, 'positionName': 'LEFT', 'positionCoords': [327.28, 227], 'bid': 4.28}, {'imgObject': {}, 'id': 'yogurt no spoon', 'src': '/static/foodstim60/yogurt no spoon.jpg', 'key': 'i', 'origWidth': 411, 'origHeight': 410, 'width': 411, 'height': 410, 'widthPercent': 0.45, 'rescaleHeight': False, 'trialN': 20, 'loaded': True, 'loadedTime': 2701.599999964237, 'positionName': 'RIGHT', 'positionCoords': [798.72, 227], 'bid': 5.41}]",35271.19999998808,1669830670180,sushi w_condiments,yogurt no spoon,4.28,5.41,1.13,yogurt no spoon,1189.5,1190,1190.199999988079,True,i,36965.5,1694.300000011921,1669830671874,1694,HRV,HRV_0097,2022-11-30 17:56:21
21,"[{'imgObject': {}, 'id': 'kiwi', 'src': '/static/foodstim60/kiwi.jpg', 'key': 'u', 'origWidth': 410, 'origHeight': 410, 'width': 410, 'height': 410, 'widthPercent': 0.45, 'rescaleHeight': False, 'trialN': 21, 'loaded': True, 'loadedTime': 2703.599999964237, 'positionName': 'LEFT', 'positionCoords': [327.28, 227], 'bid': 5.83}, {'imgObject': {}, 'id': 'bagel and cc', 'src': '/static/foodstim60/bagel and cc.jpg', 'key': 'i', 'origWidth': 410, 'origHeight': 410, 'width': 410, 'height': 410, 'widthPercent': 0.45, 'rescaleHeight': False, 'trialN': 21, 'loaded': True, 'loadedTime': 2705.099999964237, 'positionName': 'RIGHT', 'positionCoords': [798.72, 227], 'bid': 5.05}]",36965.69999998808,1669830671874,kiwi,bagel and cc,5.83,5.05,-0.7800000000000002,kiwi,1267.0,1268,1267.699999988079,True,u,38734.0,1768.300000011921,1669830673642,1768,HRV,HRV_0097,2022-11-30 17:56:21
22,"[{'imgObject': {}, 'id': 'fruitsalad', 'src': '/static/foodstim60/fruitsalad.jpg', 'key': 'u', 'origWidth': 410, 'origHeight': 410, 'width': 410, 'height': 410, 'widthPercent': 0.45, 'rescaleHeight': False, 'trialN': 22, 'loaded': True, 'loadedTime': 2709, 'positionName': 'LEFT', 'positionCoords': [327.28, 227], 'bid': 6.54}, {'imgObject': {}, 'id': 'rigatoni', 'src': '/static/foodstim60/rigatoni.jpg', 'key': 'i', 'origWidth': 411, 'origHeight': 411, 'width': 411, 'height': 411, 'widthPercent': 0.45, 'rescaleHeight': False, 'trialN': 22, 'loaded': True, 'loadedTime': 2710.399999976158, 'positionName': 'RIGHT', 'positionCoords': [798.72, 226.5], 'bid': 5.58}]",38734.39999997616,1669830673643,fruitsalad,rigatoni,6.54,5.58,-0.96,fruitsalad,1165.3999999761581,1166,1165.800000011921,True,u,40407.59999996424,1673.199999988079,1669830675316,1673,HRV,HRV_0097,2022-11-30 17:56:21
23,"[{'imgObject': {}, 'id': 'salad w chicken', 'src': '/static/foodstim60/salad w chicken.jpg', 'key': 'u', 'origWidth': 411, 'origHeight': 411, 'width': 411, 'height': 411, 'widthPercent': 0.45, 'rescaleHeight': False, 'trialN': 23, 'loaded': True, 'loadedTime': 2441.899999976158, 'positionName': 'LEFT', 'positionCoords': [326.28, 226.5], 'bid': 4.71}, {'imgObject': {}, 'id': 'roastedpotatoes', 'src': '/static/foodstim60/roastedpotatoes.jpg', 'key': 'i', 'origWidth': 409, 'origHeight': 410, 'width': 409, 'height': 410, 'widthPercent': 0.45, 'rescaleHeight': False, 'trialN': 23, 'loaded': True, 'loadedTime': 2723.899999976158, 'positionName': 'RIGHT', 'positionCoords': [798.72, 227], 'bid': 6.87}]",40407.89999997616,1669830675316,salad w chicken,roastedpotatoes,4.71,6.87,2.16,roastedpotatoes,936.0,937,936.6999999880791,True,i,41846.89999997616,1439.0,1669830676755,1439,HRV,HRV_0097,2022-11-30 17:56:21
24,"[{'imgObject': {}, 'id': 'rigatoni', 'src': '/static/foodstim60/rigatoni.jpg', 'key': 'u', 'origWidth': 411, 'origHeight': 411, 'width': 411, 'height': 411, 'widthPercent': 0.45, 'rescaleHeight': False, 'trialN': 24, 'loaded': True, 'loadedTime': 2710.399999976158, 'positionName': 'LEFT', 'positionCoords': [326.28, 226.5], 'bid': 5.58}, {'imgObject': {}, 'id': 'yogurt no spoon', 'src': '/static/foodstim60/yogurt no spoon.jpg', 'key': 'i', 'origWidth': 411, 'origHeight': 410, 'width': 411, 'height': 410, 'widthPercent': 0.45, 'rescaleHeight': False, 'trialN': 24, 'loaded': True, 'loadedTime': 2702.399999976158, 'positionName': 'RIGHT', 'positionCoords': [798.72, 227], 'bid': 5.41}]",41847.0,1669830676755,rigatoni,yogurt no spoon,5.58,5.41,-0.16999999999999993,yogurt no spoon,1225.0,1226,1225.5999999642372,True,i,43577.59999996424,1730.5999999642372,1669830678486,1731,HRV,HRV_0097,2022-11-30 17:56:21
25,"[{'imgObject': {}, 'id': 'avocado', 'src': '/static/foodstim60/avocado.jpg', 'key': 'u', 'origWidth': 409, 'origHeight': 409, 'width': 409, 'height': 409, 'widthPercent': 0.45, 'rescaleHeight': False, 'trialN': 25, 'loaded': True, 'loadedTime': 2638.699999988079, 'positionName': 'LEFT', 'positionCoords': [328.28, 227.5], 'bid': 2}, {'imgObject': {}, 'id': 'cherries', 'src': '/static/foodstim60/cherries.jpg', 'key': 'i', 'origWidth': 410, 'origHeight': 411, 'width': 410, 'height': 411, 'widthPercent': 0.45, 'rescaleHeight': False, 'trialN': 25, 'loaded': True, 'loadedTime': 2540.399999976158, 'positionName': 'RIGHT', 'positionCoords': [798.72, 226.5], 'bid': 3.85}]",43577.799999952316,1669830678486,avocado,cherries,2.0,3.85,1.85,cherries,1398.300000011921,1399,1399.300000011921,True,i,45478.59999996424,1900.800000011921,1669830680387,1901,HRV,HRV_0097,2022-11-30 17:56:21
26,"[{'imgObject': {}, 'id': 'tacos', 'src': '/static/foodstim60/tacos.jpg', 'key': 'u', 'origWidth': 411, 'origHeight': 411, 'width': 411, 'height': 411, 'widthPercent': 0.45, 'rescaleHeight': False, 'trialN': 26, 'loaded': True, 'loadedTime': 2735.699999988079, 'positionName': 'LEFT', 'positionCoords': [326.28, 226.5], 'bid': 7.5}, {'imgObject': {}, 'id': 'bagel and cc', 'src': '/static/foodstim60/bagel and cc.jpg', 'key': 'i', 'origWidth': 410, 'origHeight': 410, 'width': 410, 'height': 410, 'widthPercent': 0.45, 'rescaleHeight': False, 'trialN': 26, 'loaded': True, 'loadedTime': 2704.7999999523163, 'positionName': 'RIGHT', 'positionCoords': [798.72, 227], 'bid': 5.05}]",45479.09999996424,1669830680387,tacos,bagel and cc,7.5,5.05,-2.45,tacos,860.6999999880791,862,861.4000000357628,True,u,46846.39999997616,1367.300000011921,1669830681755,1368,HRV,HRV_0097,2022-11-30 17:56:21
27,"[{'imgObject': {}, 'id': 'fruitsalad', 'src': '/static/foodstim60/fruitsalad.jpg', 'key': 'u', 'origWidth': 410, 'origHeight': 410, 'width': 410, 'height': 410, 'widthPercent': 0.45, 'rescaleHeight': False, 'trialN': 27, 'loaded': True, 'loadedTime': 2709.5, 'positionName': 'LEFT', 'positionCoords': [327.28, 227], 'bid': 6.54}, {'imgObject': {}, 'id': 'salmon', 'src': '/static/foodstim60/salmon.jpg', 'key': 'i', 'origWidth': 410, 'origHeight': 409, 'width': 410, 'height': 409, 'widthPercent': 0.45, 'rescaleHeight': False, 'trialN': 27, 'loaded': True, 'loadedTime': 2750.5, 'positionName': 'RIGHT', 'positionCoords': [798.72, 227.5], 'bid': 6.6000000000000005}]",46847.39999997616,1669830681756,fruitsalad,salmon,6.54,6.6000000000000005,0.0600000000000005,fruitsalad,1679.1000000238419,1680,1679.6000000238419,True,u,49029.59999996424,2182.199999988079,1669830683938,2182,HRV,HRV_0097,2022-11-30 17:56:21
28,"[{'imgObject': {}, 'id': 'cheerios', 'src': '/static/foodstim60/cheerios.jpg', 'key': 'u', 'origWidth': 409, 'origHeight': 410, 'width': 409, 'height': 410, 'widthPercent': 0.45, 'rescaleHeight': False, 'trialN': 28, 'loaded': True, 'loadedTime': 2752.399999976158, 'positionName': 'LEFT', 'positionCoords': [328.28, 227], 'bid': 6.44}, {'imgObject': {}, 'id': 'omelette', 'src': '/static/foodstim60/omelette.jpg', 'key': 'i', 'origWidth': 410, 'origHeight': 409, 'width': 410, 'height': 409, 'widthPercent': 0.45, 'rescaleHeight': False, 'trialN': 28, 'loaded': True, 'loadedTime': 2637.599999964237, 'positionName': 'RIGHT', 'positionCoords': [798.72, 227.5], 'bid': 6.28}]",49030.0,1669830683939,cheerios,omelette,6.44,6.28,-0.16000000000000014,omelette,1158.7999999523163,1159,1159.699999988079,True,i,50694.69999998808,1664.699999988079,1669830685603,1664,HRV,HRV_0097,2022-11-30 17:56:21
29,"[{'imgObject': {}, 'id': 'blueberries', 'src': '/static/foodstim60/blueberries.jpg', 'key': 'u', 'origWidth': 411, 'origHeight': 411, 'width': 411, 'height': 411, 'widthPercent': 0.45, 'rescaleHeight': False, 'trialN': 29, 'loaded': True, 'loadedTime': 2753.199999988079, 'positionName': 'LEFT', 'positionCoords': [326.28, 226.5], 'bid': 2}, {'imgObject': {}, 'id': 'mashed potato', 'src': '/static/foodstim60/mashed potato.jpg', 'key': 'i', 'origWidth': 409, 'origHeight': 409, 'width': 409, 'height': 409, 'widthPercent': 0.45, 'rescaleHeight': False, 'trialN': 29, 'loaded': True, 'loadedTime': 2765.599999964237, 'positionName': 'RIGHT', 'positionCoords': [798.72, 227.5], 'bid': 4.89}]",50694.89999997616,1669830685603,blueberries,mashed potato,2.0,4.89,2.8899999999999997,mashed potato,1286.699999988079,1288,1287.300000011921,True,i,52487.89999997616,1793.0,1669830687396,1793,HRV,HRV_0097,2022-11-30 17:56:21
30,"[{'imgObject': {}, 'id': 'burrito', 'src': '/static/foodstim60/burrito.jpg', 'key': 'u', 'origWidth': 410, 'origHeight': 410, 'width': 410, 'height': 410, 'widthPercent': 0.45, 'rescaleHeight': False, 'trialN': 30, 'loaded': True, 'loadedTime': 2524.2999999523163, 'positionName': 'LEFT', 'positionCoords': [327.28, 227], 'bid': 7.53}, {'imgObject': {}, 'id': 'blackbeanswithrice', 'src': '/static/foodstim60/blackbeanswithrice.jpg', 'key': 'i', 'origWidth': 410, 'origHeight': 410, 'width': 410, 'height': 410, 'widthPercent': 0.45, 'rescaleHeight': False, 'trialN': 30, 'loaded': True, 'loadedTime': 2610.699999988079, 'positionName': 'RIGHT', 'positionCoords': [798.72, 227], 'bid': 5.2}]",52488.299999952316,1669830687397,burrito,blackbeanswithrice,7.53,5.2,-2.33,burrito,1478.9000000357628,1479,1479.6000000238419,True,u,54470.299999952316,1982.0,1669830689379,1982,HRV,HRV_0097,2022-11-30 17:56:21
31,"[{'imgObject': {}, 'id': 'corn cob', 'src': '/static/foodstim60/corn cob.jpg', 'key': 'u', 'origWidth': 411, 'origHeight': 411, 'width': 411, 'height': 411, 'widthPercent': 0.45, 'rescaleHeight': False, 'trialN': 31, 'loaded': True, 'loadedTime': 2767.199999988079, 'positionName': 'LEFT', 'positionCoords': [326.28, 226.5], 'bid': 6.6000000000000005}, {'imgObject': {}, 'id': 'cherry tomato', 'src': '/static/foodstim60/cherry tomato.jpg', 'key': 'i', 'origWidth': 410, 'origHeight': 410, 'width': 410, 'height': 410, 'widthPercent': 0.45, 'rescaleHeight': False, 'trialN': 31, 'loaded': True, 'loadedTime': 2768, 'positionName': 'RIGHT', 'positionCoords': [798.72, 227], 'bid': 6.5200000000000005}]",54470.5,1669830689379,corn cob,cherry tomato,6.6000000000000005,6.5200000000000005,-0.08000000000000007,corn cob,1591.5,1592,1592.2999999523163,True,u,56567.09999996424,2096.599999964237,1669830691476,2097,HRV,HRV_0097,2022-11-30 17:56:21
32,"[{'imgObject': {}, 'id': 'cantaloupe', 'src': '/static/foodstim60/cantaloupe.jpg', 'key': 'u', 'origWidth': 409, 'origHeight': 409, 'width': 409, 'height': 409, 'widthPercent': 0.45, 'rescaleHeight': False, 'trialN': 32, 'loaded': True, 'loadedTime': 2780.599999964237, 'positionName': 'LEFT', 'positionCoords': [328.28, 227.5], 'bid': 8.08}, {'imgObject': {}, 'id': 'pear', 'src': '/static/foodstim60/pear.jpg', 'key': 'i', 'origWidth': 411, 'origHeight': 410, 'width': 411, 'height': 410, 'widthPercent': 0.45, 'rescaleHeight': False, 'trialN': 32, 'loaded': True, 'loadedTime': 2787.699999988079, 'positionName': 'RIGHT', 'positionCoords': [798.72, 227], 'bid': 7.3}]",56567.799999952316,1669830691476,cantaloupe,pear,8.08,7.3,-0.7800000000000002,cantaloupe,1419.1000000238419,1420,1420.1000000238419,True,u,58497.5,1929.7000000476837,1669830693406,1930,HRV,HRV_0097,2022-11-30 17:56:21
33,"[{'imgObject': {}, 'id': 'burger', 'src': '/static/foodstim60/burger.jpg', 'key': 'u', 'origWidth': 409, 'origHeight': 409, 'width': 409, 'height': 409, 'widthPercent': 0.45, 'rescaleHeight': False, 'trialN': 33, 'loaded': True, 'loadedTime': 2790.399999976158, 'positionName': 'LEFT', 'positionCoords': [328.28, 227.5], 'bid': 7.1000000000000005}, {'imgObject': {}, 'id': 'kiwi', 'src': '/static/foodstim60/kiwi.jpg', 'key': 'i', 'origWidth': 410, 'origHeight': 410, 'width': 410, 'height': 410, 'widthPercent': 0.45, 'rescaleHeight': False, 'trialN': 33, 'loaded': True, 'loadedTime': 2703.7999999523163, 'positionName': 'RIGHT', 'positionCoords': [798.72, 227], 'bid': 5.83}]",58498.0,1669830693407,burger,kiwi,7.1000000000000005,5.83,-1.2700000000000005,burger,985.1999999880791,985,985.7999999523163,True,u,59996.09999996424,1498.0999999642372,1669830694905,1498,HRV,HRV_0097,2022-11-30 17:56:21
34,"[{'imgObject': {}, 'id': 'blueberries', 'src': '/static/foodstim60/blueberries.jpg', 'key': 'u', 'origWidth': 411, 'origHeight': 411, 'width': 411, 'height': 411, 'widthPercent': 0.45, 'rescaleHeight': False, 'trialN': 34, 'loaded': True, 'loadedTime': 2752.5, 'positionName': 'LEFT', 'positionCoords': [326.28, 226.5], 'bid': 2}, {'imgObject': {}, 'id': 'hashbrowns', 'src': '/static/foodstim60/hashbrowns.jpg', 'key': 'i', 'origWidth': 411, 'origHeight': 410, 'width': 411, 'height': 410, 'widthPercent': 0.45, 'rescaleHeight': False, 'trialN': 34, 'loaded': True, 'loadedTime': 2481.5, 'positionName': 'RIGHT', 'positionCoords': [798.72, 227], 'bid': 3.59}]",59996.39999997616,1669830694905,blueberries,hashbrowns,2.0,3.59,1.5899999999999999,hashbrowns,1617.6000000238419,1618,1618.0,True,i,62125.39999997616,2129.0,1669830697034,2129,HRV,HRV_0097,2022-11-30 17:56:21
35,"[{'imgObject': {}, 'id': 'popsicles', 'src': '/static/foodstim60/popsicles.jpg', 'key': 'u', 'origWidth': 410, 'origHeight': 410, 'width': 410, 'height': 410, 'widthPercent': 0.45, 'rescaleHeight': False, 'trialN': 35, 'loaded': True, 'loadedTime': 2552.199999988079, 'positionName': 'LEFT', 'positionCoords': [327.28, 227], 'bid': 2.99}, {'imgObject': {}, 'id': 'corn cob', 'src': '/static/foodstim60/corn cob.jpg', 'key': 'i', 'origWidth': 411, 'origHeight': 411, 'width': 411, 'height': 411, 'widthPercent': 0.45, 'rescaleHeight': False, 'trialN': 35, 'loaded': True, 'loadedTime': 2766, 'positionName': 'RIGHT', 'positionCoords': [798.72, 226.5], 'bid': 6.6000000000000005}]",62125.69999998808,1669830697034,popsicles,corn cob,2.99,6.6000000000000005,3.6100000000000003,corn cob,949.0,951,950.3000000119209,True,i,63577.69999998808,1452.0,1669830698486,1452,HRV,HRV_0097,2022-11-30 17:56:21
36,"[{'imgObject': {}, 'id': 'popsicles', 'src': '/static/foodstim60/popsicles.jpg', 'key': 'u', 'origWidth': 410, 'origHeight': 410, 'width': 410, 'height': 410, 'widthPercent': 0.45, 'rescaleHeight': False, 'trialN': 36, 'loaded': True, 'loadedTime': 2552.099999964237, 'positionName': 'LEFT', 'positionCoords': [327.28, 227], 'bid': 2.99}, {'imgObject': {}, 'id': 'mashed potato', 'src': '/static/foodstim60/mashed potato.jpg', 'key': 'i', 'origWidth': 409, 'origHeight': 409, 'width': 409, 'height': 409, 'widthPercent': 0.45, 'rescaleHeight': False, 'trialN': 36, 'loaded': True, 'loadedTime': 2765.199999988079, 'positionName': 'RIGHT', 'positionCoords': [798.72, 227.5], 'bid': 4.89}]",63578.19999998808,1669830698487,popsicles,mashed potato,2.99,4.89,1.8999999999999995,mashed potato,1017.8000000119209,1020,1020.1999999880791,True,i,65105.59999996424,1527.3999999761581,1669830700014,1527,HRV,HRV_0097,2022-11-30 17:56:21
37,"[{'imgObject': {}, 'id': 'raspberries', 'src': '/static/foodstim60/raspberries.jpg', 'key': 'u', 'origWidth': 411, 'origHeight': 411, 'width': 411, 'height': 411, 'widthPercent': 0.45, 'rescaleHeight': False, 'trialN': 37, 'loaded': True, 'loadedTime': 2608.899999976158, 'positionName': 'LEFT', 'positionCoords': [326.28, 226.5], 'bid': 4.71}, {'imgObject': {}, 'id': 'bagel and cc', 'src': '/static/foodstim60/bagel and cc.jpg', 'key': 'i', 'origWidth': 410, 'origHeight': 410, 'width': 410, 'height': 410, 'widthPercent': 0.45, 'rescaleHeight': False, 'trialN': 37, 'loaded': True, 'loadedTime': 2704.199999988079, 'positionName': 'RIGHT', 'positionCoords': [798.72, 227], 'bid': 5.05}]",65105.89999997616,1669830700014,raspberries,bagel and cc,4.71,5.05,0.33999999999999986,bagel and cc,1560.1000000238419,1561,1561.0,True,i,67173.59999996424,2067.699999988079,1669830702082,2068,HRV,HRV_0097,2022-11-30 17:56:21
38,"[{'imgObject': {}, 'id': 'chickenfingers', 'src': '/static/foodstim60/chickenfingers.jpg', 'key': 'u', 'origWidth': 410, 'origHeight': 410, 'width': 410, 'height': 410, 'widthPercent': 0.45, 'rescaleHeight': False, 'trialN': 38, 'loaded': True, 'loadedTime': 2793.7999999523163, 'positionName': 'LEFT', 'positionCoords': [327.28, 227], 'bid': 6.7700000000000005}, {'imgObject': {}, 'id': 'roastedpotatoes', 'src': '/static/foodstim60/roastedpotatoes.jpg', 'key': 'i', 'origWidth': 409, 'origHeight': 410, 'width': 409, 'height': 410, 'widthPercent': 0.45, 'rescaleHeight': False, 'trialN': 38, 'loaded': True, 'loadedTime': 2723.7999999523163, 'positionName': 'RIGHT', 'positionCoords': [798.72, 227], 'bid': 6.87}]",67173.89999997616,1669830702082,chickenfingers,roastedpotatoes,6.7700000000000005,6.87,0.09999999999999964,chickenfingers,1375.0,1377,1376.800000011921,True,u,69053.79999995232,1879.8999999761581,1669830703962,1880,HRV,HRV_0097,2022-11-30 17:56:21
39,"[{'imgObject': {}, 'id': 'orange slices', 'src': '/static/foodstim60/orange slices.jpg', 'key': 'u', 'origWidth': 409, 'origHeight': 410, 'width': 409, 'height': 410, 'widthPercent': 0.45, 'rescaleHeight': False, 'trialN': 39, 'loaded': True, 'loadedTime': 2523.399999976158, 'positionName': 'LEFT', 'positionCoords': [328.28, 227], 'bid': 7.44}, {'imgObject': {}, 'id': 'sweetpotato', 'src': '/static/foodstim60/sweetpotato.jpg', 'key': 'i', 'origWidth': 410, 'origHeight': 410, 'width': 410, 'height': 410, 'widthPercent': 0.45, 'rescaleHeight': False, 'trialN': 39, 'loaded': True, 'loadedTime': 2496.2999999523163, 'positionName': 'RIGHT', 'positionCoords': [798.72, 227], 'bid': 8.47}]",69054.09999996424,1669830703963,orange slices,sweetpotato,7.44,8.47,1.0300000000000002,sweetpotato,1065.4000000357628,1066,1066.0,True,i,70620.89999997616,1566.800000011921,1669830705529,1566,HRV,HRV_0097,2022-11-30 17:56:21
40,"[{'imgObject': {}, 'id': 'fried eggs', 'src': '/static/foodstim60/fried eggs.jpg', 'key': 'u', 'origWidth': 410, 'origHeight': 410, 'width': 410, 'height': 410, 'widthPercent': 0.45, 'rescaleHeight': False, 'trialN': 40, 'loaded': True, 'loadedTime': 2438.5, 'positionName': 'LEFT', 'positionCoords': [327.28, 227], 'bid': 5.67}, {'imgObject': {}, 'id': 'shreddedwheatwithmilk', 'src': '/static/foodstim60/shreddedwheatwithmilk.jpg', 'key': 'i', 'origWidth': 410, 'origHeight': 410, 'width': 410, 'height': 410, 'widthPercent': 0.45, 'rescaleHeight': False, 'trialN': 40, 'loaded': True, 'loadedTime': 2508.5, 'positionName': 'RIGHT', 'positionCoords': [798.72, 227], 'bid': 6.3}]",70621.29999995232,1669830705530,fried eggs,shreddedwheatwithmilk,5.67,6.3,0.6299999999999999,shreddedwheatwithmilk,1585.4000000357628,1586,1586.5,True,i,72716.5,2095.2000000476837,1669830707625,2095,HRV,HRV_0097,2022-11-30 17:56:21
41,"[{'imgObject': {}, 'id': 'lox', 'src': '/static/foodstim60/lox.jpg', 'key': 'u', 'origWidth': 410, 'origHeight': 411, 'width': 410, 'height': 411, 'widthPercent': 0.45, 'rescaleHeight': False, 'trialN': 41, 'loaded': True, 'loadedTime': 2680, 'positionName': 'LEFT', 'positionCoords': [327.28, 226.5], 'bid': 5.24}, {'imgObject': {}, 'id': 'mac & cheese', 'src': '/static/foodstim60/mac & cheese.jpg', 'key': 'i', 'origWidth': 410, 'origHeight': 410, 'width': 410, 'height': 410, 'widthPercent': 0.45, 'rescaleHeight': False, 'trialN': 41, 'loaded': True, 'loadedTime': 2552.2999999523163, 'positionName': 'RIGHT', 'positionCoords': [798.72, 227], 'bid': 2.92}]",72716.79999995232,1669830707625,lox,mac & cheese,5.24,2.92,-2.3200000000000003,lox,1788.0,1789,1788.9000000357628,True,u,75014.59999996424,2297.800000011921,1669830709923,2298,HRV,HRV_0097,2022-11-30 17:56:21
42,"[{'imgObject': {}, 'id': 'rigatoni', 'src': '/static/foodstim60/rigatoni.jpg', 'key': 'u', 'origWidth': 411, 'origHeight': 411, 'width': 411, 'height': 411, 'widthPercent': 0.45, 'rescaleHeight': False, 'trialN': 42, 'loaded': True, 'loadedTime': 2722.699999988079, 'positionName': 'LEFT', 'positionCoords': [326.28, 226.5], 'bid': 5.58}, {'imgObject': {}, 'id': 'veggieswithdip', 'src': '/static/foodstim60/veggieswithdip.jpg', 'key': 'i', 'origWidth': 409, 'origHeight': 409, 'width': 409, 'height': 409, 'widthPercent': 0.45, 'rescaleHeight': False, 'trialN': 42, 'loaded': True, 'loadedTime': 2691.599999964237, 'positionName': 'RIGHT', 'positionCoords': [798.72, 227.5], 'bid': 5.26}]",75015.09999996424,1669830709924,rigatoni,veggieswithdip,5.58,5.26,-0.3200000000000003,veggieswithdip,1055.5,1056,1056.0,True,i,76574.69999998808,1559.6000000238419,1669830711483,1559,HRV,HRV_0097,2022-11-30 17:56:21
43,"[{'imgObject': {}, 'id': 'mango', 'src': '/static/foodstim60/mango.jpg', 'key': 'u', 'origWidth': 411, 'origHeight': 411, 'width': 411, 'height': 411, 'widthPercent': 0.45, 'rescaleHeight': False, 'trialN': 43, 'loaded': True, 'loadedTime': 2794.599999964237, 'positionName': 'LEFT', 'positionCoords': [326.28, 226.5], 'bid': 5.8}, {'imgObject': {}, 'id': 'raspberries', 'src': '/static/foodstim60/raspberries.jpg', 'key': 'i', 'origWidth': 411, 'origHeight': 411, 'width': 411, 'height': 411, 'widthPercent': 0.45, 'rescaleHeight': False, 'trialN': 43, 'loaded': True, 'loadedTime': 2609.399999976158, 'positionName': 'RIGHT', 'positionCoords': [798.72, 226.5], 'bid': 4.71}]",76575.0,1669830711484,mango,raspberries,5.8,4.71,-1.0899999999999999,mango,1253.699999988079,1254,1254.7999999523163,True,u,78341.0,1766.0,1669830713250,1766,HRV,HRV_0097,2022-11-30 17:56:21
44,"[{'imgObject': {}, 'id': 'popsicles', 'src': '/static/foodstim60/popsicles.jpg', 'key': 'u', 'origWidth': 410, 'origHeight': 410, 'width': 410, 'height': 410, 'widthPercent': 0.45, 'rescaleHeight': False, 'trialN': 44, 'loaded': True, 'loadedTime': 2552.2999999523163, 'positionName': 'LEFT', 'positionCoords': [327.28, 227], 'bid': 2.99}, {'imgObject': {}, 'id': 'hashbrowns', 'src': '/static/foodstim60/hashbrowns.jpg', 'key': 'i', 'origWidth': 411, 'origHeight': 410, 'width': 411, 'height': 410, 'widthPercent': 0.45, 'rescaleHeight': False, 'trialN': 44, 'loaded': True, 'loadedTime': 2468.7999999523163, 'positionName': 'RIGHT', 'positionCoords': [798.72, 227], 'bid': 3.59}]",78341.29999995232,1669830713250,popsicles,hashbrowns,2.99,3.59,0.5999999999999996,hashbrowns,1633.9000000357628,1635,1635.300000011921,True,i,80482.79999995232,2141.5,1669830715391,2141,HRV,HRV_0097,2022-11-30 17:56:21
45,"[{'imgObject': {}, 'id': 'burger', 'src': '/static/foodstim60/burger.jpg', 'key': 'u', 'origWidth': 409, 'origHeight': 409, 'width': 409, 'height': 409, 'widthPercent': 0.45, 'rescaleHeight': False, 'trialN': 45, 'loaded': True, 'loadedTime': 2790.5, 'positionName': 'LEFT', 'positionCoords': [328.28, 227.5], 'bid': 7.1000000000000005}, {'imgObject': {}, 'id': 'ice cream sundae 002', 'src': '/static/foodstim60/ice cream sundae 002.jpg', 'key': 'i', 'origWidth': 409, 'origHeight': 409, 'width': 409, 'height': 409, 'widthPercent': 0.45, 'rescaleHeight': False, 'trialN': 45, 'loaded': True, 'loadedTime': 2619.699999988079, 'positionName': 'RIGHT', 'positionCoords': [798.72, 227.5], 'bid': 4.72}]",80483.29999995232,1669830715392,burger,ice cream sundae 002,7.1000000000000005,4.72,-2.380000000000001,burger,971.3000000119209,972,972.0,True,u,81963.19999998808,1479.9000000357628,1669830716872,1480,HRV,HRV_0097,2022-11-30 17:56:21
46,"[{'imgObject': {}, 'id': 'corn cob', 'src': '/static/foodstim60/corn cob.jpg', 'key': 'u', 'origWidth': 411, 'origHeight': 411, 'width': 411, 'height': 411, 'widthPercent': 0.45, 'rescaleHeight': False, 'trialN': 46, 'loaded': True, 'loadedTime': 2767, 'positionName': 'LEFT', 'positionCoords': [326.28, 226.5], 'bid': 6.6000000000000005}, {'imgObject': {}, 'id': 'rigatoni and sauce', 'src': '/static/foodstim60/rigatoni and sauce.jpg', 'key': 'i', 'origWidth': 410, 'origHeight': 411, 'width': 410, 'height': 411, 'widthPercent': 0.45, 'rescaleHeight': False, 'trialN': 46, 'loaded': True, 'loadedTime': 2581.899999976158, 'positionName': 'RIGHT', 'positionCoords': [798.72, 226.5], 'bid': 7.03}]",81963.79999995232,1669830716872,corn cob,rigatoni and sauce,6.6000000000000005,7.03,0.4299999999999997,corn cob,1541.800000011921,1543,1542.4000000357628,True,u,84017.29999995232,2053.5,1669830718926,2054,HRV,HRV_0097,2022-11-30 17:56:21
47,"[{'imgObject': {}, 'id': 'salmon', 'src': '/static/foodstim60/salmon.jpg', 'key': 'u', 'origWidth': 410, 'origHeight': 409, 'width': 410, 'height': 409, 'widthPercent': 0.45, 'rescaleHeight': False, 'trialN': 47, 'loaded': True, 'loadedTime': 2750.899999976158, 'positionName': 'LEFT', 'positionCoords': [327.28, 227.5], 'bid': 6.6000000000000005}, {'imgObject': {}, 'id': 'hashbrowns', 'src': '/static/foodstim60/hashbrowns.jpg', 'key': 'i', 'origWidth': 411, 'origHeight': 410, 'width': 411, 'height': 410, 'widthPercent': 0.45, 'rescaleHeight': False, 'trialN': 47, 'loaded': True, 'loadedTime': 2469.599999964237, 'positionName': 'RIGHT', 'positionCoords': [798.72, 227], 'bid': 3.59}]",84017.5,1669830718926,salmon,hashbrowns,6.6000000000000005,3.59,-3.0100000000000007,salmon,1160.5,1161,1160.8999999761581,True,u,85680.0,1662.5,1669830720589,1663,HRV,HRV_0097,2022-11-30 17:56:21
48,"[{'imgObject': {}, 'id': 'corn cob', 'src': '/static/foodstim60/corn cob.jpg', 'key': 'u', 'origWidth': 411, 'origHeight': 411, 'width': 411, 'height': 411, 'widthPercent': 0.45, 'rescaleHeight': False, 'trialN': 48, 'loaded': True, 'loadedTime': 2767.2999999523163, 'positionName': 'LEFT', 'positionCoords': [326.28, 226.5], 'bid': 6.6000000000000005}, {'imgObject': {}, 'id': 'fried eggs', 'src': '/static/foodstim60/fried eggs.jpg', 'key': 'i', 'origWidth': 410, 'origHeight': 410, 'width': 410, 'height': 410, 'widthPercent': 0.45, 'rescaleHeight': False, 'trialN': 48, 'loaded': True, 'loadedTime': 2423, 'positionName': 'RIGHT', 'positionCoords': [798.72, 227], 'bid': 5.67}]",85680.19999998808,1669830720589,corn cob,fried eggs,6.6000000000000005,5.67,-0.9300000000000006,corn cob,1275.199999988079,1276,1275.8999999761581,True,u,87463.89999997616,1783.699999988079,1669830722372,1783,HRV,HRV_0097,2022-11-30 17:56:21
49,"[{'imgObject': {}, 'id': 'bagel plain', 'src': '/static/foodstim60/bagel plain.jpg', 'key': 'u', 'origWidth': 410, 'origHeight': 410, 'width': 410, 'height': 410, 'widthPercent': 0.45, 'rescaleHeight': False, 'trialN': 49, 'loaded': True, 'loadedTime': 2455.5, 'positionName': 'LEFT', 'positionCoords': [327.28, 227], 'bid': 5.26}, {'imgObject': {}, 'id': 'shreddedwheatwithmilk', 'src': '/static/foodstim60/shreddedwheatwithmilk.jpg', 'key': 'i', 'origWidth': 410, 'origHeight': 410, 'width': 410, 'height': 410, 'widthPercent': 0.45, 'rescaleHeight': False, 'trialN': 49, 'loaded': True, 'loadedTime': 2508.399999976158, 'positionName': 'RIGHT', 'positionCoords': [798.72, 227], 'bid': 6.3}]",87464.29999995232,1669830722373,bagel plain,shreddedwheatwithmilk,5.26,6.3,1.04,shreddedwheatwithmilk,1399.1000000238419,1400,1400.1000000238419,True,i,89369.59999996424,1905.300000011921,1669830724278,1905,HRV,HRV_0097,2022-11-30 17:56:21
50,"[{'imgObject': {}, 'id': 'hotdog w must', 'src': '/static/foodstim60/hotdog w must.jpg', 'key': 'u', 'origWidth': 409, 'origHeight': 409, 'width': 409, 'height': 409, 'widthPercent': 0.45, 'rescaleHeight': False, 'trialN': 50, 'loaded': True, 'loadedTime': 2620.399999976158, 'positionName': 'LEFT', 'positionCoords': [328.28, 227.5], 'bid': 6.19}, {'imgObject': {}, 'id': 'turkeysandwich', 'src': '/static/foodstim60/turkeysandwich.jpg', 'key': 'i', 'origWidth': 409, 'origHeight': 409, 'width': 409, 'height': 409, 'widthPercent': 0.45, 'rescaleHeight': False, 'trialN': 50, 'loaded': True, 'loadedTime': 2795.099999964237, 'positionName': 'RIGHT', 'positionCoords': [798.72, 227.5], 'bid': 7.3}]",89370.5,1669830724279,hotdog w must,turkeysandwich,6.19,7.3,1.1099999999999994,turkeysandwich,1301.0999999642372,1302,1301.699999988079,True,i,91173.5,1803.0,1669830726082,1803,HRV,HRV_0097,2022-11-30 17:56:21
51,"[{'imgObject': {}, 'id': 'raisin bran w milk', 'src': '/static/foodstim60/raisin bran w milk.jpg', 'key': 'u', 'origWidth': 411, 'origHeight': 411, 'width': 411, 'height': 411, 'widthPercent': 0.45, 'rescaleHeight': False, 'trialN': 51, 'loaded': True, 'loadedTime': 2796.199999988079, 'positionName': 'LEFT', 'positionCoords': [326.28, 226.5], 'bid': 1.53}, {'imgObject': {}, 'id': 'eggs', 'src': '/static/foodstim60/eggs.jpg', 'key': 'i', 'origWidth': 409, 'origHeight': 409, 'width': 409, 'height': 409, 'widthPercent': 0.45, 'rescaleHeight': False, 'trialN': 51, 'loaded': True, 'loadedTime': 2796.399999976158, 'positionName': 'RIGHT', 'positionCoords': [798.72, 227.5], 'bid': 4.62}]",91173.79999995232,1669830726082,raisin bran w milk,eggs,1.53,4.62,3.09,eggs,1363.0,1364,1363.7000000476837,True,i,93045.79999995232,1872.0,1669830727954,1872,HRV,HRV_0097,2022-11-30 17:56:21
52,"[{'imgObject': {}, 'id': 'eggs', 'src': '/static/foodstim60/eggs.jpg', 'key': 'u', 'origWidth': 409, 'origHeight': 409, 'width': 409, 'height': 409, 'widthPercent': 0.45, 'rescaleHeight': False, 'trialN': 52, 'loaded': True, 'loadedTime': 2797.099999964237, 'positionName': 'LEFT', 'positionCoords': [328.28, 227.5], 'bid': 4.62}, {'imgObject': {}, 'id': 'rigatoni', 'src': '/static/foodstim60/rigatoni.jpg', 'key': 'i', 'origWidth': 411, 'origHeight': 411, 'width': 411, 'height': 411, 'widthPercent': 0.45, 'rescaleHeight': False, 'trialN': 52, 'loaded': True, 'loadedTime': 2722.2999999523163, 'positionName': 'RIGHT', 'positionCoords': [798.72, 226.5], 'bid': 5.58}]",93046.19999998808,1669830727955,eggs,rigatoni,4.62,5.58,0.96,rigatoni,1975.0999999642372,1976,1975.699999988079,True,i,95527.09999996424,2480.899999976158,1669830730436,2481,HRV,HRV_0097,2022-11-30 17:56:21
53,"[{'imgObject': {}, 'id': 'chickenfingers', 'src': '/static/foodstim60/chickenfingers.jpg', 'key': 'u', 'origWidth': 410, 'origHeight': 410, 'width': 410, 'height': 410, 'widthPercent': 0.45, 'rescaleHeight': False, 'trialN': 53, 'loaded': True, 'loadedTime': 2793.2999999523163, 'positionName': 'LEFT', 'positionCoords': [327.28, 227], 'bid': 6.7700000000000005}, {'imgObject': {}, 'id': 'turkeysandwich', 'src': '/static/foodstim60/turkeysandwich.jpg', 'key': 'i', 'origWidth': 409, 'origHeight': 409, 'width': 409, 'height': 409, 'widthPercent': 0.45, 'rescaleHeight': False, 'trialN': 53, 'loaded': True, 'loadedTime': 2795.5, 'positionName': 'RIGHT', 'positionCoords': [798.72, 227.5], 'bid': 7.3}]",95527.29999995232,1669830730436,chickenfingers,turkeysandwich,6.7700000000000005,7.3,0.5299999999999994,turkeysandwich,1607.6000000238419,1608,1608.5,True,i,97637.59999996424,2110.300000011921,1669830732546,2110,HRV,HRV_0097,2022-11-30 17:56:21
54,"[{'imgObject': {}, 'id': 'lox', 'src': '/static/foodstim60/lox.jpg', 'key': 'u', 'origWidth': 410, 'origHeight': 411, 'width': 410, 'height': 411, 'widthPercent': 0.45, 'rescaleHeight': False, 'trialN': 54, 'loaded': True, 'loadedTime': 2680.199999988079, 'positionName': 'LEFT', 'positionCoords': [327.28, 226.5], 'bid': 5.24}, {'imgObject': {}, 'id': 'apple slices', 'src': '/static/foodstim60/apple slices.jpg', 'key': 'i', 'origWidth': 409, 'origHeight': 410, 'width': 409, 'height': 410, 'widthPercent': 0.45, 'rescaleHeight': False, 'trialN': 54, 'loaded': True, 'loadedTime': 2801.099999964237, 'positionName': 'RIGHT', 'positionCoords': [798.72, 227], 'bid': 7.74}]",97638.0,1669830732547,lox,apple slices,5.24,7.74,2.5,apple slices,1692.199999988079,1693,1693.2999999523163,True,i,99832.0,2194.0,1669830734741,2194,HRV,HRV_0097,2022-11-30 17:56:21
55,"[{'imgObject': {}, 'id': 'veggieswithdip', 'src': '/static/foodstim60/veggieswithdip.jpg', 'key': 'u', 'origWidth': 409, 'origHeight': 409, 'width': 409, 'height': 409, 'widthPercent': 0.45, 'rescaleHeight': False, 'trialN': 55, 'loaded': True, 'loadedTime': 2694.599999964237, 'positionName': 'LEFT', 'positionCoords': [328.28, 227.5], 'bid': 5.26}, {'imgObject': {}, 'id': 'cherries', 'src': '/static/foodstim60/cherries.jpg', 'key': 'i', 'origWidth': 410, 'origHeight': 411, 'width': 410, 'height': 411, 'widthPercent': 0.45, 'rescaleHeight': False, 'trialN': 55, 'loaded': True, 'loadedTime': 2540.899999976158, 'positionName': 'RIGHT', 'positionCoords': [798.72, 226.5], 'bid': 3.85}]",99832.39999997616,1669830734741,veggieswithdip,cherries,5.26,3.85,-1.4099999999999997,veggieswithdip,1018.8000000119209,1019,1019.6000000238419,True,u,101354.89999997616,1522.5,1669830736263,1522,HRV,HRV_0097,2022-11-30 17:56:21
56,"[{'imgObject': {}, 'id': 'cherry tomato', 'src': '/static/foodstim60/cherry tomato.jpg', 'key': 'u', 'origWidth': 410, 'origHeight': 410, 'width': 410, 'height': 410, 'widthPercent': 0.45, 'rescaleHeight': False, 'trialN': 56, 'loaded': True, 'loadedTime': 2768.199999988079, 'positionName': 'LEFT', 'positionCoords': [327.28, 227], 'bid': 6.5200000000000005}, {'imgObject': {}, 'id': 'seaweed', 'src': '/static/foodstim60/seaweed.jpg', 'key': 'i', 'origWidth': 410, 'origHeight': 410, 'width': 410, 'height': 410, 'widthPercent': 0.45, 'rescaleHeight': False, 'trialN': 56, 'loaded': True, 'loadedTime': 2640.2999999523163, 'positionName': 'RIGHT', 'positionCoords': [798.72, 227], 'bid': 2.74}]",101355.39999997616,1669830736264,cherry tomato,seaweed,6.5200000000000005,2.74,-3.7800000000000002,cherry tomato,1035.0,1036,1035.699999988079,True,u,102895.39999997616,1540.0,1669830737804,1540,HRV,HRV_0097,2022-11-30 17:56:21
57,"[{'imgObject': {}, 'id': 'rigatoni and sauce', 'src': '/static/foodstim60/rigatoni and sauce.jpg', 'key': 'u', 'origWidth': 410, 'origHeight': 411, 'width': 410, 'height': 411, 'widthPercent': 0.45, 'rescaleHeight': False, 'trialN': 57, 'loaded': True, 'loadedTime': 2596.5, 'positionName': 'LEFT', 'positionCoords': [327.28, 226.5], 'bid': 7.03}, {'imgObject': {}, 'id': 'pear', 'src': '/static/foodstim60/pear.jpg', 'key': 'i', 'origWidth': 411, 'origHeight': 410, 'width': 411, 'height': 410, 'widthPercent': 0.45, 'rescaleHeight': False, 'trialN': 57, 'loaded': True, 'loadedTime': 2785.2999999523163, 'positionName': 'RIGHT', 'positionCoords': [798.72, 227], 'bid': 7.3}]",102895.79999995232,1669830737804,rigatoni and sauce,pear,7.03,7.3,0.2699999999999996,pear,853.8000000119209,855,854.8000000119209,True,i,104253.29999995232,1357.5,1669830739162,1358,HRV,HRV_0097,2022-11-30 17:56:21
58,"[{'imgObject': {}, 'id': 'baked potato', 'src': '/static/foodstim60/baked potato.jpg', 'key': 'u', 'origWidth': 409, 'origHeight': 410, 'width': 409, 'height': 410, 'widthPercent': 0.45, 'rescaleHeight': False, 'trialN': 58, 'loaded': True, 'loadedTime': 2801.5, 'positionName': 'LEFT', 'positionCoords': [328.28, 227], 'bid': 8.09}, {'imgObject': {}, 'id': 'cantaloupe', 'src': '/static/foodstim60/cantaloupe.jpg', 'key': 'i', 'origWidth': 409, 'origHeight': 409, 'width': 409, 'height': 409, 'widthPercent': 0.45, 'rescaleHeight': False, 'trialN': 58, 'loaded': True, 'loadedTime': 2784.2999999523163, 'positionName': 'RIGHT', 'positionCoords': [798.72, 227.5], 'bid': 8.08}]",104253.79999995232,1669830739162,baked potato,cantaloupe,8.09,8.08,-0.009999999999999787,baked potato,1576.9000000357628,1578,1577.6000000238419,True,u,106334.79999995232,2081.0,1669830741243,2081,HRV,HRV_0097,2022-11-30 17:56:21
59,"[{'imgObject': {}, 'id': 'blueberries', 'src': '/static/foodstim60/blueberries.jpg', 'key': 'u', 'origWidth': 411, 'origHeight': 411, 'width': 411, 'height': 411, 'widthPercent': 0.45, 'rescaleHeight': False, 'trialN': 59, 'loaded': True, 'loadedTime': 2753.2999999523163, 'positionName': 'LEFT', 'positionCoords': [326.28, 226.5], 'bid': 2}, {'imgObject': {}, 'id': 'salad w chicken', 'src': '/static/foodstim60/salad w chicken.jpg', 'key': 'i', 'origWidth': 411, 'origHeight': 411, 'width': 411, 'height': 411, 'widthPercent': 0.45, 'rescaleHeight': False, 'trialN': 59, 'loaded': True, 'loadedTime': 2453.2999999523163, 'positionName': 'RIGHT', 'positionCoords': [798.72, 226.5], 'bid': 4.71}]",106335.09999996424,1669830741244,blueberries,salad w chicken,2.0,4.71,2.71,salad w chicken,1490.199999988079,1490,1490.800000011921,True,i,108337.5,2002.4000000357628,1669830743246,2002,HRV,HRV_0097,2022-11-30 17:56:21
60,"[{'imgObject': {}, 'id': 'yogurt no spoon', 'src': '/static/foodstim60/yogurt no spoon.jpg', 'key': 'u', 'origWidth': 411, 'origHeight': 410, 'width': 411, 'height': 410, 'widthPercent': 0.45, 'rescaleHeight': False, 'trialN': 60, 'loaded': True, 'loadedTime': 2701.699999988079, 'positionName': 'LEFT', 'positionCoords': [326.28, 227], 'bid': 5.41}, {'imgObject': {}, 'id': 'cantaloupe', 'src': '/static/foodstim60/cantaloupe.jpg', 'key': 'i', 'origWidth': 409, 'origHeight': 409, 'width': 409, 'height': 409, 'widthPercent': 0.45, 'rescaleHeight': False, 'trialN': 60, 'loaded': True, 'loadedTime': 2784.099999964237, 'positionName': 'RIGHT', 'positionCoords': [798.72, 227.5], 'bid': 8.08}]",108337.89999997616,1669830743246,yogurt no spoon,cantaloupe,5.41,8.08,2.67,cantaloupe,1219.1000000238419,1218,1219.699999988079,True,i,110063.79999995232,1725.8999999761581,1669830744970,1724,HRV,HRV_0097,2022-11-30 17:56:21
61,"[{'imgObject': {}, 'id': 'strawberries', 'src': '/static/foodstim60/strawberries.jpg', 'key': 'u', 'origWidth': 410, 'origHeight': 410, 'width': 410, 'height': 410, 'widthPercent': 0.45, 'rescaleHeight': False, 'trialN': 61, 'loaded': True, 'loadedTime': 2492.599999964237, 'positionName': 'LEFT', 'positionCoords': [327.28, 227], 'bid': 8.2}, {'imgObject': {}, 'id': 'apple slices', 'src': '/static/foodstim60/apple slices.jpg', 'key': 'i', 'origWidth': 409, 'origHeight': 410, 'width': 409, 'height': 410, 'widthPercent': 0.45, 'rescaleHeight': False, 'trialN': 61, 'loaded': True, 'loadedTime': 2801.2999999523163, 'positionName': 'RIGHT', 'positionCoords': [798.72, 227], 'bid': 7.74}]",110064.09999996424,1669830744970,strawberries,apple slices,8.2,7.74,-0.4599999999999991,apple slices,1050.199999988079,1051,1050.9000000357628,True,i,111617.69999998808,1553.6000000238419,1669830746524,1554,HRV,HRV_0097,2022-11-30 17:56:21
62,"[{'imgObject': {}, 'id': 'eggsalad', 'src': '/static/foodstim60/eggsalad.jpg', 'key': 'u', 'origWidth': 410, 'origHeight': 409, 'width': 410, 'height': 409, 'widthPercent': 0.45, 'rescaleHeight': False, 'trialN': 62, 'loaded': True, 'loadedTime': 2700.099999964237, 'positionName': 'LEFT', 'positionCoords': [327.28, 227.5], 'bid': 4.97}, {'imgObject': {}, 'id': 'mashed potato', 'src': '/static/foodstim60/mashed potato.jpg', 'key': 'i', 'origWidth': 409, 'origHeight': 409, 'width': 409, 'height': 409, 'widthPercent': 0.45, 'rescaleHeight': False, 'trialN': 62, 'loaded': True, 'loadedTime': 2765.7999999523163, 'positionName': 'RIGHT', 'positionCoords': [798.72, 227.5], 'bid': 4.89}]",111618.5,1669830746525,eggsalad,mashed potato,4.97,4.89,-0.08000000000000007,mashed potato,1999.3999999761581,2000,2000.199999988079,True,i,114125.79999995232,2507.2999999523163,1669830749032,2507,HRV,HRV_0097,2022-11-30 17:56:21
63,"[{'imgObject': {}, 'id': 'bagel plain', 'src': '/static/foodstim60/bagel plain.jpg', 'key': 'u', 'origWidth': 410, 'origHeight': 410, 'width': 410, 'height': 410, 'widthPercent': 0.45, 'rescaleHeight': False, 'trialN': 63, 'loaded': True, 'loadedTime': 2468.599999964237, 'positionName': 'LEFT', 'positionCoords': [327.28, 227], 'bid': 5.26}, {'imgObject': {}, 'id': 'kiwi', 'src': '/static/foodstim60/kiwi.jpg', 'key': 'i', 'origWidth': 410, 'origHeight': 410, 'width': 410, 'height': 410, 'widthPercent': 0.45, 'rescaleHeight': False, 'trialN': 63, 'loaded': True, 'loadedTime': 2703.5, 'positionName': 'RIGHT', 'positionCoords': [798.72, 227], 'bid': 5.83}]",114125.89999997616,1669830749032,bagel plain,kiwi,5.26,5.83,0.5700000000000003,kiwi,2023.699999988079,2024,2024.300000011921,True,i,116658.39999997616,2532.5,1669830751565,2533,HRV,HRV_0097,2022-11-30 17:56:21
64,"[{'imgObject': {}, 'id': 'cheerios', 'src': '/static/foodstim60/cheerios.jpg', 'key': 'u', 'origWidth': 409, 'origHeight': 410, 'width': 409, 'height': 410, 'widthPercent': 0.45, 'rescaleHeight': False, 'trialN': 64, 'loaded': True, 'loadedTime': 2752.099999964237, 'positionName': 'LEFT', 'positionCoords': [328.28, 227], 'bid': 6.44}, {'imgObject': {}, 'id': 'shreddedwheatwithmilk', 'src': '/static/foodstim60/shreddedwheatwithmilk.jpg', 'key': 'i', 'origWidth': 410, 'origHeight': 410, 'width': 410, 'height': 410, 'widthPercent': 0.45, 'rescaleHeight': False, 'trialN': 64, 'loaded': True, 'loadedTime': 2508.5, 'positionName': 'RIGHT', 'positionCoords': [798.72, 227], 'bid': 6.3}]",116658.69999998808,1669830751565,cheerios,shreddedwheatwithmilk,6.44,6.3,-0.14000000000000057,cheerios,1255.0,1256,1256.199999988079,True,u,118429.29999995232,1770.5999999642372,1669830753336,1771,HRV,HRV_0097,2022-11-30 17:56:21
65,"[{'imgObject': {}, 'id': 'strawberries', 'src': '/static/foodstim60/strawberries.jpg', 'key': 'u', 'origWidth': 410, 'origHeight': 410, 'width': 410, 'height': 410, 'widthPercent': 0.45, 'rescaleHeight': False, 'trialN': 65, 'loaded': True, 'loadedTime': 2494.599999964237, 'positionName': 'LEFT', 'positionCoords': [327.28, 227], 'bid': 8.2}, {'imgObject': {}, 'id': 'fried eggs', 'src': '/static/foodstim60/fried eggs.jpg', 'key': 'i', 'origWidth': 410, 'origHeight': 410, 'width': 410, 'height': 410, 'widthPercent': 0.45, 'rescaleHeight': False, 'trialN': 65, 'loaded': True, 'loadedTime': 2422.699999988079, 'positionName': 'RIGHT', 'positionCoords': [798.72, 227], 'bid': 5.67}]",118429.59999996424,1669830753336,strawberries,fried eggs,8.2,5.67,-2.5299999999999994,strawberries,1295.199999988079,1296,1295.9000000357628,True,u,120235.09999996424,1805.5,1669830755141,1805,HRV,HRV_0097,2022-11-30 17:56:21
66,"[{'imgObject': {}, 'id': 'chicken nuggets2', 'src': '/static/foodstim60/chicken nuggets2.jpg', 'key': 'u', 'origWidth': 410, 'origHeight': 409, 'width': 410, 'height': 409, 'widthPercent': 0.45, 'rescaleHeight': False, 'trialN': 66, 'loaded': True, 'loadedTime': 2803.399999976158, 'positionName': 'LEFT', 'positionCoords': [327.28, 227.5], 'bid': 4.79}, {'imgObject': {}, 'id': 'pear', 'src': '/static/foodstim60/pear.jpg', 'key': 'i', 'origWidth': 411, 'origHeight': 410, 'width': 411, 'height': 410, 'widthPercent': 0.45, 'rescaleHeight': False, 'trialN': 66, 'loaded': True, 'loadedTime': 2785.199999988079, 'positionName': 'RIGHT', 'positionCoords': [798.72, 227], 'bid': 7.3}]",120235.39999997616,1669830755142,chicken nuggets2,pear,4.79,7.3,2.51,pear,1429.5,1430,1430.3999999761581,True,i,122172.0,1936.6000000238419,1669830757078,1936,HRV,HRV_0097,2022-11-30 17:56:21
67,"[{'imgObject': {}, 'id': 'raisin bran w milk', 'src': '/static/foodstim60/raisin bran w milk.jpg', 'key': 'u', 'origWidth': 411, 'origHeight': 411, 'width': 411, 'height': 411, 'widthPercent': 0.45, 'rescaleHeight': False, 'trialN': 67, 'loaded': True, 'loadedTime': 2795.5, 'positionName': 'LEFT', 'positionCoords': [326.28, 226.5], 'bid': 1.53}, {'imgObject': {}, 'id': 'hotdog w must', 'src': '/static/foodstim60/hotdog w must.jpg', 'key': 'i', 'origWidth': 409, 'origHeight': 409, 'width': 409, 'height': 409, 'widthPercent': 0.45, 'rescaleHeight': False, 'trialN': 67, 'loaded': True, 'loadedTime': 2625.199999988079, 'positionName': 'RIGHT', 'positionCoords': [798.72, 227.5], 'bid': 6.19}]",122172.29999995232,1669830757079,raisin bran w milk,hotdog w must,1.53,6.19,4.66,hotdog w must,1219.9000000357628,1221,1221.0,True,i,123897.29999995232,1725.0,1669830758804,1725,HRV,HRV_0097,2022-11-30 17:56:21
68,"[{'imgObject': {}, 'id': 'hotdog w must', 'src': '/static/foodstim60/hotdog w must.jpg', 'key': 'u', 'origWidth': 409, 'origHeight': 409, 'width': 409, 'height': 409, 'widthPercent': 0.45, 'rescaleHeight': False, 'trialN': 68, 'loaded': True, 'loadedTime': 2621.399999976158, 'positionName': 'LEFT', 'positionCoords': [328.28, 227.5], 'bid': 6.19}, {'imgObject': {}, 'id': 'lox', 'src': '/static/foodstim60/lox.jpg', 'key': 'i', 'origWidth': 410, 'origHeight': 411, 'width': 410, 'height': 411, 'widthPercent': 0.45, 'rescaleHeight': False, 'trialN': 68, 'loaded': True, 'loadedTime': 2678.899999976158, 'positionName': 'RIGHT', 'positionCoords': [798.72, 226.5], 'bid': 5.24}]",123897.5,1669830758804,hotdog w must,lox,6.19,5.24,-0.9500000000000002,hotdog w must,1610.3999999761581,1611,1611.0999999642372,True,u,126020.39999997616,2122.899999976158,1669830760927,2123,HRV,HRV_0097,2022-11-30 17:56:21
69,"[{'imgObject': {}, 'id': 'blueberries', 'src': '/static/foodstim60/blueberries.jpg', 'key': 'u', 'origWidth': 411, 'origHeight': 411, 'width': 411, 'height': 411, 'widthPercent': 0.45, 'rescaleHeight': False, 'trialN': 69, 'loaded': True, 'loadedTime': 2753.399999976158, 'positionName': 'LEFT', 'positionCoords': [326.28, 226.5], 'bid': 2}, {'imgObject': {}, 'id': 'omelette', 'src': '/static/foodstim60/omelette.jpg', 'key': 'i', 'origWidth': 410, 'origHeight': 409, 'width': 410, 'height': 409, 'widthPercent': 0.45, 'rescaleHeight': False, 'trialN': 69, 'loaded': True, 'loadedTime': 2626, 'positionName': 'RIGHT', 'positionCoords': [798.72, 227.5], 'bid': 6.28}]",126020.69999998808,1669830760927,blueberries,omelette,2.0,6.28,4.28,omelette,893.3999999761581,894,894.0999999642372,True,i,127415.0,1394.300000011921,1669830762321,1394,HRV,HRV_0097,2022-11-30 17:56:21
70,"[{'imgObject': {}, 'id': 'cocktailshrimp', 'src': '/static/foodstim60/cocktailshrimp.jpg', 'key': 'u', 'origWidth': 410, 'origHeight': 410, 'width': 410, 'height': 410, 'widthPercent': 0.45, 'rescaleHeight': False, 'trialN': 70, 'loaded': True, 'loadedTime': 2696.399999976158, 'positionName': 'LEFT', 'positionCoords': [327.28, 227], 'bid': 8.040000000000001}, {'imgObject': {}, 'id': 'orange slices', 'src': '/static/foodstim60/orange slices.jpg', 'key': 'i', 'origWidth': 409, 'origHeight': 410, 'width': 409, 'height': 410, 'widthPercent': 0.45, 'rescaleHeight': False, 'trialN': 70, 'loaded': True, 'loadedTime': 2523, 'positionName': 'RIGHT', 'positionCoords': [798.72, 227], 'bid': 7.44}]",127415.29999995232,1669830762322,cocktailshrimp,orange slices,8.040000000000001,7.44,-0.6000000000000005,cocktailshrimp,2205.0,2205,2205.600000023842,True,u,130126.39999997616,2711.100000023842,1669830765033,2711,HRV,HRV_0097,2022-11-30 17:56:21
71,"[{'imgObject': {}, 'id': 'fruitsalad', 'src': '/static/foodstim60/fruitsalad.jpg', 'key': 'u', 'origWidth': 410, 'origHeight': 410, 'width': 410, 'height': 410, 'widthPercent': 0.45, 'rescaleHeight': False, 'trialN': 71, 'loaded': True, 'loadedTime': 2709.2999999523163, 'positionName': 'LEFT', 'positionCoords': [327.28, 227], 'bid': 6.54}, {'imgObject': {}, 'id': 'roastedpotatoes', 'src': '/static/foodstim60/roastedpotatoes.jpg', 'key': 'i', 'origWidth': 409, 'origHeight': 410, 'width': 409, 'height': 410, 'widthPercent': 0.45, 'rescaleHeight': False, 'trialN': 71, 'loaded': True, 'loadedTime': 2724, 'positionName': 'RIGHT', 'positionCoords': [798.72, 227], 'bid': 6.87}]",130126.59999996424,1669830765033,fruitsalad,roastedpotatoes,6.54,6.87,0.33000000000000007,roastedpotatoes,1225.1000000238419,1226,1226.300000011921,True,i,131855.19999998808,1728.6000000238419,1669830766761,1728,HRV,HRV_0097,2022-11-30 17:56:21
72,"[{'imgObject': {}, 'id': 'burger', 'src': '/static/foodstim60/burger.jpg', 'key': 'u', 'origWidth': 409, 'origHeight': 409, 'width': 409, 'height': 409, 'widthPercent': 0.45, 'rescaleHeight': False, 'trialN': 72, 'loaded': True, 'loadedTime': 2787.7999999523163, 'positionName': 'LEFT', 'positionCoords': [328.28, 227.5], 'bid': 7.1000000000000005}, {'imgObject': {}, 'id': 'rigatoni and sauce', 'src': '/static/foodstim60/rigatoni and sauce.jpg', 'key': 'i', 'origWidth': 410, 'origHeight': 411, 'width': 410, 'height': 411, 'widthPercent': 0.45, 'rescaleHeight': False, 'trialN': 72, 'loaded': True, 'loadedTime': 2582.899999976158, 'positionName': 'RIGHT', 'positionCoords': [798.72, 226.5], 'bid': 7.03}]",131855.79999995232,1669830766762,burger,rigatoni and sauce,7.1000000000000005,7.03,-0.07000000000000028,rigatoni and sauce,1603.7000000476837,1605,1604.5,True,i,133966.39999997616,2110.600000023842,1669830768873,2111,HRV,HRV_0097,2022-11-30 17:56:21
73,"[{'imgObject': {}, 'id': 'Grapes', 'src': '/static/foodstim60/Grapes.jpg', 'key': 'u', 'origWidth': 411, 'origHeight': 411, 'width': 411, 'height': 411, 'widthPercent': 0.45, 'rescaleHeight': False, 'trialN': 73, 'loaded': True, 'loadedTime': 2804.2999999523163, 'positionName': 'LEFT', 'positionCoords': [326.28, 226.5], 'bid': 7.390000000000001}, {'imgObject': {}, 'id': 'steak', 'src': '/static/foodstim60/steak.jpg', 'key': 'i', 'origWidth': 410, 'origHeight': 410, 'width': 410, 'height': 410, 'widthPercent': 0.45, 'rescaleHeight': False, 'trialN': 73, 'loaded': True, 'loadedTime': 2805.2999999523163, 'positionName': 'RIGHT', 'positionCoords': [798.72, 227], 'bid': 7.81}]",133966.79999995232,1669830768873,Grapes,steak,7.390000000000001,7.81,0.41999999999999904,steak,910.4000000357628,911,910.8000000119209,True,i,135381.5,1414.7000000476837,1669830770288,1415,HRV,HRV_0097,2022-11-30 17:56:21
74,"[{'imgObject': {}, 'id': 'banana', 'src': '/static/foodstim60/banana.jpg', 'key': 'u', 'origWidth': 410, 'origHeight': 410, 'width': 410, 'height': 410, 'widthPercent': 0.45, 'rescaleHeight': False, 'trialN': 74, 'loaded': True, 'loadedTime': 2805.2999999523163, 'positionName': 'LEFT', 'positionCoords': [327.28, 227], 'bid': 6.86}, {'imgObject': {}, 'id': 'eggs', 'src': '/static/foodstim60/eggs.jpg', 'key': 'i', 'origWidth': 409, 'origHeight': 409, 'width': 409, 'height': 409, 'widthPercent': 0.45, 'rescaleHeight': False, 'trialN': 74, 'loaded': True, 'loadedTime': 2797.199999988079, 'positionName': 'RIGHT', 'positionCoords': [798.72, 227.5], 'bid': 4.62}]",135381.89999997616,1669830770288,banana,eggs,6.86,4.62,-2.24,banana,960.8000000119209,961,961.1999999880791,True,u,136847.19999998808,1465.300000011921,1669830771754,1466,HRV,HRV_0097,2022-11-30 17:56:21
75,"[{'imgObject': {}, 'id': 'edamame', 'src': '/static/foodstim60/edamame.jpg', 'key': 'u', 'origWidth': 409, 'origHeight': 410, 'width': 409, 'height': 410, 'widthPercent': 0.45, 'rescaleHeight': False, 'trialN': 75, 'loaded': True, 'loadedTime': 2666.7999999523163, 'positionName': 'LEFT', 'positionCoords': [328.28, 227], 'bid': 4.84}, {'imgObject': {}, 'id': 'mac & cheese', 'src': '/static/foodstim60/mac & cheese.jpg', 'key': 'i', 'origWidth': 410, 'origHeight': 410, 'width': 410, 'height': 410, 'widthPercent': 0.45, 'rescaleHeight': False, 'trialN': 75, 'loaded': True, 'loadedTime': 2553.099999964237, 'positionName': 'RIGHT', 'positionCoords': [798.72, 227], 'bid': 2.92}]",136847.59999996424,1669830771754,edamame,mac & cheese,4.84,2.92,-1.92,mac & cheese,1565.1000000238419,1566,1565.800000011921,True,i,138919.19999998808,2071.600000023842,1669830773826,2072,HRV,HRV_0097,2022-11-30 17:56:21
76,"[{'imgObject': {}, 'id': 'froot loops w milk', 'src': '/static/foodstim60/froot loops w milk.jpg', 'key': 'u', 'origWidth': 410, 'origHeight': 410, 'width': 410, 'height': 410, 'widthPercent': 0.45, 'rescaleHeight': False, 'trialN': 76, 'loaded': True, 'loadedTime': 2665.399999976158, 'positionName': 'LEFT', 'positionCoords': [327.28, 227], 'bid': 1.53}, {'imgObject': {}, 'id': 'chicken nuggets2', 'src': '/static/foodstim60/chicken nuggets2.jpg', 'key': 'i', 'origWidth': 410, 'origHeight': 409, 'width': 410, 'height': 409, 'widthPercent': 0.45, 'rescaleHeight': False, 'trialN': 76, 'loaded': True, 'loadedTime': 2803.5, 'positionName': 'RIGHT', 'positionCoords': [798.72, 227.5], 'bid': 4.79}]",138919.5,1669830773826,froot loops w milk,chicken nuggets2,1.53,4.79,3.26,chicken nuggets2,1930.0,1931,1931.0999999642372,True,i,141358.29999995232,2438.7999999523163,1669830776265,2439,HRV,HRV_0097,2022-11-30 17:56:21
77,"[{'imgObject': {}, 'id': 'fried eggs', 'src': '/static/foodstim60/fried eggs.jpg', 'key': 'u', 'origWidth': 410, 'origHeight': 410, 'width': 410, 'height': 410, 'widthPercent': 0.45, 'rescaleHeight': False, 'trialN': 77, 'loaded': True, 'loadedTime': 2339, 'positionName': 'LEFT', 'positionCoords': [327.28, 227], 'bid': 5.67}, {'imgObject': {}, 'id': 'kiwi', 'src': '/static/foodstim60/kiwi.jpg', 'key': 'i', 'origWidth': 410, 'origHeight': 410, 'width': 410, 'height': 410, 'widthPercent': 0.45, 'rescaleHeight': False, 'trialN': 77, 'loaded': True, 'loadedTime': 2704.099999964237, 'positionName': 'RIGHT', 'positionCoords': [798.72, 227], 'bid': 5.83}]",141358.69999998808,1669830776265,fried eggs,kiwi,5.67,5.83,0.16000000000000014,fried eggs,1306.800000011921,1307,1307.5,True,u,143175.89999997616,1817.199999988079,1669830778082,1817,HRV,HRV_0097,2022-11-30 17:56:21
78,"[{'imgObject': {}, 'id': 'mashed potato', 'src': '/static/foodstim60/mashed potato.jpg', 'key': 'u', 'origWidth': 409, 'origHeight': 409, 'width': 409, 'height': 409, 'widthPercent': 0.45, 'rescaleHeight': False, 'trialN': 78, 'loaded': True, 'loadedTime': 2753.5, 'positionName': 'LEFT', 'positionCoords': [328.28, 227.5], 'bid': 4.89}, {'imgObject': {}, 'id': 'eggs', 'src': '/static/foodstim60/eggs.jpg', 'key': 'i', 'origWidth': 409, 'origHeight': 409, 'width': 409, 'height': 409, 'widthPercent': 0.45, 'rescaleHeight': False, 'trialN': 78, 'loaded': True, 'loadedTime': 2797.099999964237, 'positionName': 'RIGHT', 'positionCoords': [798.72, 227.5], 'bid': 4.62}]",143176.5,1669830778083,mashed potato,eggs,4.89,4.62,-0.2699999999999996,mashed potato,1428.7999999523163,1429,1429.5,True,u,145109.39999997616,1932.8999999761581,1669830780016,1933,HRV,HRV_0097,2022-11-30 17:56:21
79,"[{'imgObject': {}, 'id': 'blackbeanswithrice', 'src': '/static/foodstim60/blackbeanswithrice.jpg', 'key': 'u', 'origWidth': 410, 'origHeight': 410, 'width': 410, 'height': 410, 'widthPercent': 0.45, 'rescaleHeight': False, 'trialN': 79, 'loaded': True, 'loadedTime': 2610.7999999523163, 'positionName': 'LEFT', 'positionCoords': [327.28, 227], 'bid': 5.2}, {'imgObject': {}, 'id': 'bagel and cc', 'src': '/static/foodstim60/bagel and cc.jpg', 'key': 'i', 'origWidth': 410, 'origHeight': 410, 'width': 410, 'height': 410, 'widthPercent': 0.45, 'rescaleHeight': False, 'trialN': 79, 'loaded': True, 'loadedTime': 2704.699999988079, 'positionName': 'RIGHT', 'positionCoords': [798.72, 227], 'bid': 5.05}]",145109.59999996424,1669830780016,blackbeanswithrice,bagel and cc,5.2,5.05,-0.15000000000000036,bagel and cc,1895.300000011921,1896,1895.9000000357628,True,i,147507.79999995232,2398.199999988079,1669830782414,2398,HRV,HRV_0097,2022-11-30 17:56:21
80,"[{'imgObject': {}, 'id': 'chickenfingers', 'src': '/static/foodstim60/chickenfingers.jpg', 'key': 'u', 'origWidth': 410, 'origHeight': 410, 'width': 410, 'height': 410, 'widthPercent': 0.45, 'rescaleHeight': False, 'trialN': 80, 'loaded': True, 'loadedTime': 2792.099999964237, 'positionName': 'LEFT', 'positionCoords': [327.28, 227], 'bid': 6.7700000000000005}, {'imgObject': {}, 'id': 'burrito', 'src': '/static/foodstim60/burrito.jpg', 'key': 'i', 'origWidth': 410, 'origHeight': 410, 'width': 410, 'height': 410, 'widthPercent': 0.45, 'rescaleHeight': False, 'trialN': 80, 'loaded': True, 'loadedTime': 2536.699999988079, 'positionName': 'RIGHT', 'positionCoords': [798.72, 227], 'bid': 7.53}]",147508.19999998808,1669830782415,chickenfingers,burrito,6.7700000000000005,7.53,0.7599999999999998,chickenfingers,1056.800000011921,1057,1057.3999999761581,True,u,149075.89999997616,1567.699999988079,1669830783982,1567,HRV,HRV_0097,2022-11-30 17:56:21
81,"[{'imgObject': {}, 'id': 'cherry tomato', 'src': '/static/foodstim60/cherry tomato.jpg', 'key': 'u', 'origWidth': 410, 'origHeight': 410, 'width': 410, 'height': 410, 'widthPercent': 0.45, 'rescaleHeight': False, 'trialN': 81, 'loaded': True, 'loadedTime': 2768.099999964237, 'positionName': 'LEFT', 'positionCoords': [327.28, 227], 'bid': 6.5200000000000005}, {'imgObject': {}, 'id': 'yogurt no spoon', 'src': '/static/foodstim60/yogurt no spoon.jpg', 'key': 'i', 'origWidth': 411, 'origHeight': 410, 'width': 411, 'height': 410, 'widthPercent': 0.45, 'rescaleHeight': False, 'trialN': 81, 'loaded': True, 'loadedTime': 2702.099999964237, 'positionName': 'RIGHT', 'positionCoords': [798.72, 227], 'bid': 5.41}]",149076.29999995232,1669830783982,cherry tomato,yogurt no spoon,6.5200000000000005,5.41,-1.1100000000000003,yogurt no spoon,1569.0,1570,1569.7000000476837,True,i,151150.0,2073.7000000476837,1669830786056,2074,HRV,HRV_0097,2022-11-30 17:56:21
82,"[{'imgObject': {}, 'id': 'fruitsalad', 'src': '/static/foodstim60/fruitsalad.jpg', 'key': 'u', 'origWidth': 410, 'origHeight': 410, 'width': 410, 'height': 410, 'widthPercent': 0.45, 'rescaleHeight': False, 'trialN': 82, 'loaded': True, 'loadedTime': 2709.199999988079, 'positionName': 'LEFT', 'positionCoords': [327.28, 227], 'bid': 6.54}, {'imgObject': {}, 'id': 'mac & cheese', 'src': '/static/foodstim60/mac & cheese.jpg', 'key': 'i', 'origWidth': 410, 'origHeight': 410, 'width': 410, 'height': 410, 'widthPercent': 0.45, 'rescaleHeight': False, 'trialN': 82, 'loaded': True, 'loadedTime': 2555, 'positionName': 'RIGHT', 'positionCoords': [798.72, 227], 'bid': 2.92}]",151150.09999996424,1669830786056,fruitsalad,mac & cheese,6.54,2.92,-3.62,fruitsalad,1139.4000000357628,1141,1140.199999988079,True,u,152804.19999998808,1654.1000000238419,1669830787710,1654,HRV,HRV_0097,2022-11-30 17:56:21
83,"[{'imgObject': {}, 'id': 'mango', 'src': '/static/foodstim60/mango.jpg', 'key': 'u', 'origWidth': 411, 'origHeight': 411, 'width': 411, 'height': 411, 'widthPercent': 0.45, 'rescaleHeight': False, 'trialN': 83, 'loaded': True, 'loadedTime': 2794.2999999523163, 'positionName': 'LEFT', 'positionCoords': [326.28, 226.5], 'bid': 5.8}, {'imgObject': {}, 'id': 'cheerios', 'src': '/static/foodstim60/cheerios.jpg', 'key': 'i', 'origWidth': 409, 'origHeight': 410, 'width': 409, 'height': 410, 'widthPercent': 0.45, 'rescaleHeight': False, 'trialN': 83, 'loaded': True, 'loadedTime': 2752.2999999523163, 'positionName': 'RIGHT', 'positionCoords': [798.72, 227], 'bid': 6.44}]",152804.59999996424,1669830787711,mango,cheerios,5.8,6.44,0.6400000000000006,cheerios,2386.400000035763,2387,2387.100000023842,True,i,155694.29999995232,2889.699999988079,1669830790601,2890,HRV,HRV_0097,2022-11-30 17:56:21
84,"[{'imgObject': {}, 'id': 'cherry tomato', 'src': '/static/foodstim60/cherry tomato.jpg', 'key': 'u', 'origWidth': 410, 'origHeight': 410, 'width': 410, 'height': 410, 'widthPercent': 0.45, 'rescaleHeight': False, 'trialN': 84, 'loaded': True, 'loadedTime': 2767.399999976158, 'positionName': 'LEFT', 'positionCoords': [327.28, 227], 'bid': 6.5200000000000005}, {'imgObject': {}, 'id': 'burrito', 'src': '/static/foodstim60/burrito.jpg', 'key': 'i', 'origWidth': 410, 'origHeight': 410, 'width': 410, 'height': 410, 'widthPercent': 0.45, 'rescaleHeight': False, 'trialN': 84, 'loaded': True, 'loadedTime': 2524.5, 'positionName': 'RIGHT', 'positionCoords': [798.72, 227], 'bid': 7.53}]",155694.59999996424,1669830790601,cherry tomato,burrito,6.5200000000000005,7.53,1.0099999999999998,burrito,845.4000000357628,846,845.9000000357628,True,i,157046.0,1351.4000000357628,1669830791952,1351,HRV,HRV_0097,2022-11-30 17:56:21
85,"[{'imgObject': {}, 'id': 'bagel plain', 'src': '/static/foodstim60/bagel plain.jpg', 'key': 'u', 'origWidth': 410, 'origHeight': 410, 'width': 410, 'height': 410, 'widthPercent': 0.45, 'rescaleHeight': False, 'trialN': 85, 'loaded': True, 'loadedTime': 2455.2999999523163, 'positionName': 'LEFT', 'positionCoords': [327.28, 227], 'bid': 5.26}, {'imgObject': {}, 'id': 'steak', 'src': '/static/foodstim60/steak.jpg', 'key': 'i', 'origWidth': 410, 'origHeight': 410, 'width': 410, 'height': 410, 'widthPercent': 0.45, 'rescaleHeight': False, 'trialN': 85, 'loaded': True, 'loadedTime': 2805.199999988079, 'positionName': 'RIGHT', 'positionCoords': [798.72, 227], 'bid': 7.81}]",157046.19999998808,1669830791952,bagel plain,steak,5.26,7.81,2.55,steak,1059.699999988079,1061,1060.800000011921,True,i,158612.19999998808,1566.0,1669830793519,1567,HRV,HRV_0097,2022-11-30 17:56:21
86,"[{'imgObject': {}, 'id': 'pear', 'src': '/static/foodstim60/pear.jpg', 'key': 'u', 'origWidth': 411, 'origHeight': 410, 'width': 411, 'height': 410, 'widthPercent': 0.45, 'rescaleHeight': False, 'trialN': 86, 'loaded': True, 'loadedTime': 2784.399999976158, 'positionName': 'LEFT', 'positionCoords': [326.28, 227], 'bid': 7.3}, {'imgObject': {}, 'id': 'grilled chicken strips', 'src': '/static/foodstim60/grilled chicken strips.jpg', 'key': 'i', 'origWidth': 410, 'origHeight': 411, 'width': 410, 'height': 411, 'widthPercent': 0.45, 'rescaleHeight': False, 'trialN': 86, 'loaded': True, 'loadedTime': 2816.699999988079, 'positionName': 'RIGHT', 'positionCoords': [798.72, 226.5], 'bid': 6.71}]",158612.39999997616,1669830793519,pear,grilled chicken strips,7.3,6.71,-0.5899999999999999,pear,1565.199999988079,1566,1566.0,True,u,160691.69999998808,2079.300000011921,1669830795598,2079,HRV,HRV_0097,2022-11-30 17:56:21
87,"[{'imgObject': {}, 'id': 'tacos', 'src': '/static/foodstim60/tacos.jpg', 'key': 'u', 'origWidth': 411, 'origHeight': 411, 'width': 411, 'height': 411, 'widthPercent': 0.45, 'rescaleHeight': False, 'trialN': 87, 'loaded': True, 'loadedTime': 2725, 'positionName': 'LEFT', 'positionCoords': [326.28, 226.5], 'bid': 7.5}, {'imgObject': {}, 'id': 'Grapes', 'src': '/static/foodstim60/Grapes.jpg', 'key': 'i', 'origWidth': 411, 'origHeight': 411, 'width': 411, 'height': 411, 'widthPercent': 0.45, 'rescaleHeight': False, 'trialN': 87, 'loaded': True, 'loadedTime': 2803.599999964237, 'positionName': 'RIGHT', 'positionCoords': [798.72, 226.5], 'bid': 7.390000000000001}]",160692.0,1669830795598,tacos,Grapes,7.5,7.390000000000001,-0.10999999999999943,tacos,1418.8999999761581,1420,1419.199999988079,True,u,162614.0,1922.0,1669830797520,1922,HRV,HRV_0097,2022-11-30 17:56:21
88,"[{'imgObject': {}, 'id': 'salad w chicken', 'src': '/static/foodstim60/salad w chicken.jpg', 'key': 'u', 'origWidth': 411, 'origHeight': 411, 'width': 411, 'height': 411, 'widthPercent': 0.45, 'rescaleHeight': False, 'trialN': 88, 'loaded': True, 'loadedTime': 2440.2999999523163, 'positionName': 'LEFT', 'positionCoords': [326.28, 226.5], 'bid': 4.71}, {'imgObject': {}, 'id': 'eggs', 'src': '/static/foodstim60/eggs.jpg', 'key': 'i', 'origWidth': 409, 'origHeight': 409, 'width': 409, 'height': 409, 'widthPercent': 0.45, 'rescaleHeight': False, 'trialN': 88, 'loaded': True, 'loadedTime': 2797, 'positionName': 'RIGHT', 'positionCoords': [798.72, 227.5], 'bid': 4.62}]",162614.39999997616,1669830797521,salad w chicken,eggs,4.71,4.62,-0.08999999999999986,salad w chicken,1275.5,1276,1276.300000011921,True,u,164398.09999996424,1783.699999988079,1669830799304,1783,HRV,HRV_0097,2022-11-30 17:56:21
89,"[{'imgObject': {}, 'id': 'turkey sandwich', 'src': '/static/foodstim60/turkey sandwich.jpg', 'key': 'u', 'origWidth': 409, 'origHeight': 409, 'width': 409, 'height': 409, 'widthPercent': 0.45, 'rescaleHeight': False, 'trialN': 89, 'loaded': True, 'loadedTime': 2581.099999964237, 'positionName': 'LEFT', 'positionCoords': [328.28, 227.5], 'bid': 7.77}, {'imgObject': {}, 'id': 'cocktailshrimp', 'src': '/static/foodstim60/cocktailshrimp.jpg', 'key': 'i', 'origWidth': 410, 'origHeight': 410, 'width': 410, 'height': 410, 'widthPercent': 0.45, 'rescaleHeight': False, 'trialN': 89, 'loaded': True, 'loadedTime': 2697.2999999523163, 'positionName': 'RIGHT', 'positionCoords': [798.72, 227], 'bid': 8.040000000000001}]",164398.29999995232,1669830799305,turkey sandwich,cocktailshrimp,7.77,8.040000000000001,0.27000000000000135,cocktailshrimp,1440.4000000357628,1441,1441.1000000238419,True,i,166342.5,1944.2000000476837,1669830801249,1944,HRV,HRV_0097,2022-11-30 17:56:21
90,"[{'imgObject': {}, 'id': 'baked potato', 'src': '/static/foodstim60/baked potato.jpg', 'key': 'u', 'origWidth': 409, 'origHeight': 410, 'width': 409, 'height': 410, 'widthPercent': 0.45, 'rescaleHeight': False, 'trialN': 90, 'loaded': True, 'loadedTime': 2802.199999988079, 'positionName': 'LEFT', 'positionCoords': [328.28, 227], 'bid': 8.09}, {'imgObject': {}, 'id': 'banana', 'src': '/static/foodstim60/banana.jpg', 'key': 'i', 'origWidth': 410, 'origHeight': 410, 'width': 410, 'height': 410, 'widthPercent': 0.45, 'rescaleHeight': False, 'trialN': 90, 'loaded': True, 'loadedTime': 2805.7999999523163, 'positionName': 'RIGHT', 'positionCoords': [798.72, 227], 'bid': 6.86}]",172861.79999995232,1669830807767,baked potato,banana,8.09,6.86,-1.2299999999999995,baked potato,1315.4000000357628,1317,1316.2000000476837,True,u,174685.19999998808,1823.4000000357628,1669830809591,1824,HRV,HRV_0097,2022-11-30 17:56:21
91,"[{'imgObject': {}, 'id': 'cantaloupe', 'src': '/static/foodstim60/cantaloupe.jpg', 'key': 'u', 'origWidth': 409, 'origHeight': 409, 'width': 409, 'height': 409, 'widthPercent': 0.45, 'rescaleHeight': False, 'trialN': 91, 'loaded': True, 'loadedTime': 2769, 'positionName': 'LEFT', 'positionCoords': [328.28, 227.5], 'bid': 8.08}, {'imgObject': {}, 'id': 'chickenfingers', 'src': '/static/foodstim60/chickenfingers.jpg', 'key': 'i', 'origWidth': 410, 'origHeight': 410, 'width': 410, 'height': 410, 'widthPercent': 0.45, 'rescaleHeight': False, 'trialN': 91, 'loaded': True, 'loadedTime': 2792.099999964237, 'positionName': 'RIGHT', 'positionCoords': [798.72, 227], 'bid': 6.7700000000000005}]",174685.69999998808,1669830809591,cantaloupe,chickenfingers,8.08,6.7700000000000005,-1.3099999999999996,chickenfingers,2127.899999976158,2129,2128.699999988079,True,i,177321.5,2635.800000011921,1669830812227,2636,HRV,HRV_0097,2022-11-30 17:56:21
92,"[{'imgObject': {}, 'id': 'granola w milk', 'src': '/static/foodstim60/granola w milk.jpg', 'key': 'u', 'origWidth': 410, 'origHeight': 410, 'width': 410, 'height': 410, 'widthPercent': 0.45, 'rescaleHeight': False, 'trialN': 92, 'loaded': True, 'loadedTime': 2560.2999999523163, 'positionName': 'LEFT', 'positionCoords': [327.28, 227], 'bid': 2.03}, {'imgObject': {}, 'id': 'cheerios', 'src': '/static/foodstim60/cheerios.jpg', 'key': 'i', 'origWidth': 409, 'origHeight': 410, 'width': 409, 'height': 410, 'widthPercent': 0.45, 'rescaleHeight': False, 'trialN': 92, 'loaded': True, 'loadedTime': 2752.2999999523163, 'positionName': 'RIGHT', 'positionCoords': [798.72, 227], 'bid': 6.44}]",177321.79999995232,1669830812227,granola w milk,cheerios,2.03,6.44,4.41,cheerios,905.1000000238419,906,905.9000000357628,True,i,178739.69999998808,1417.9000000357628,1669830813645,1418,HRV,HRV_0097,2022-11-30 17:56:21
93,"[{'imgObject': {}, 'id': 'bagel plain', 'src': '/static/foodstim60/bagel plain.jpg', 'key': 'u', 'origWidth': 410, 'origHeight': 410, 'width': 410, 'height': 410, 'widthPercent': 0.45, 'rescaleHeight': False, 'trialN': 93, 'loaded': True, 'loadedTime': 2468.199999988079, 'positionName': 'LEFT', 'positionCoords': [327.28, 227], 'bid': 5.26}, {'imgObject': {}, 'id': 'yogurt no spoon', 'src': '/static/foodstim60/yogurt no spoon.jpg', 'key': 'i', 'origWidth': 411, 'origHeight': 410, 'width': 411, 'height': 410, 'widthPercent': 0.45, 'rescaleHeight': False, 'trialN': 93, 'loaded': True, 'loadedTime': 2702.399999976158, 'positionName': 'RIGHT', 'positionCoords': [798.72, 227], 'bid': 5.41}]",178740.19999998808,1669830813646,bagel plain,yogurt no spoon,5.26,5.41,0.15000000000000036,yogurt no spoon,1294.3999999761581,1294,1294.800000011921,True,i,180535.59999996424,1795.3999999761581,1669830815441,1795,HRV,HRV_0097,2022-11-30 17:56:21
94,"[{'imgObject': {}, 'id': 'baked potato', 'src': '/static/foodstim60/baked potato.jpg', 'key': 'u', 'origWidth': 409, 'origHeight': 410, 'width': 409, 'height': 410, 'widthPercent': 0.45, 'rescaleHeight': False, 'trialN': 94, 'loaded': True, 'loadedTime': 2802.399999976158, 'positionName': 'LEFT', 'positionCoords': [328.28, 227], 'bid': 8.09}, {'imgObject': {}, 'id': 'sweetpotato', 'src': '/static/foodstim60/sweetpotato.jpg', 'key': 'i', 'origWidth': 410, 'origHeight': 410, 'width': 410, 'height': 410, 'widthPercent': 0.45, 'rescaleHeight': False, 'trialN': 94, 'loaded': True, 'loadedTime': 2496.5, 'positionName': 'RIGHT', 'positionCoords': [798.72, 227], 'bid': 8.47}]",180536.0,1669830815442,baked potato,sweetpotato,8.09,8.47,0.3800000000000008,baked potato,1741.2999999523163,1741,1742.0,True,u,182785.5,2249.5,1669830817691,2249,HRV,HRV_0097,2022-11-30 17:56:21
95,"[{'imgObject': {}, 'id': 'baked potato', 'src': '/static/foodstim60/baked potato.jpg', 'key': 'u', 'origWidth': 409, 'origHeight': 410, 'width': 409, 'height': 410, 'widthPercent': 0.45, 'rescaleHeight': False, 'trialN': 95, 'loaded': True, 'loadedTime': 2802.199999988079, 'positionName': 'LEFT', 'positionCoords': [328.28, 227], 'bid': 8.09}, {'imgObject': {}, 'id': 'turkeysandwich', 'src': '/static/foodstim60/turkeysandwich.jpg', 'key': 'i', 'origWidth': 409, 'origHeight': 409, 'width': 409, 'height': 409, 'widthPercent': 0.45, 'rescaleHeight': False, 'trialN': 95, 'loaded': True, 'loadedTime': 2795.199999988079, 'positionName': 'RIGHT', 'positionCoords': [798.72, 227.5], 'bid': 7.3}]",182785.59999996424,1669830817691,baked potato,turkeysandwich,8.09,7.3,-0.79,turkeysandwich,1676.5,1677,1677.0,True,i,184970.0,2184.400000035763,1669830819876,2185,HRV,HRV_0097,2022-11-30 17:56:21
96,"[{'imgObject': {}, 'id': 'bagel and cc', 'src': '/static/foodstim60/bagel and cc.jpg', 'key': 'u', 'origWidth': 410, 'origHeight': 410, 'width': 410, 'height': 410, 'widthPercent': 0.45, 'rescaleHeight': False, 'trialN': 96, 'loaded': True, 'loadedTime': 2705, 'positionName': 'LEFT', 'positionCoords': [327.28, 227], 'bid': 5.05}, {'imgObject': {}, 'id': 'granola w milk', 'src': '/static/foodstim60/granola w milk.jpg', 'key': 'i', 'origWidth': 410, 'origHeight': 410, 'width': 410, 'height': 410, 'widthPercent': 0.45, 'rescaleHeight': False, 'trialN': 96, 'loaded': True, 'loadedTime': 2559.099999964237, 'positionName': 'RIGHT', 'positionCoords': [798.72, 227], 'bid': 2.03}]",184970.29999995232,1669830819876,bagel and cc,granola w milk,5.05,2.03,-3.02,bagel and cc,1266.5,1267,1267.1000000238419,True,u,186749.29999995232,1779.0,1669830821655,1779,HRV,HRV_0097,2022-11-30 17:56:21
97,"[{'imgObject': {}, 'id': 'chicken nuggets2', 'src': '/static/foodstim60/chicken nuggets2.jpg', 'key': 'u', 'origWidth': 410, 'origHeight': 409, 'width': 410, 'height': 409, 'widthPercent': 0.45, 'rescaleHeight': False, 'trialN': 97, 'loaded': True, 'loadedTime': 2803.5, 'positionName': 'LEFT', 'positionCoords': [327.28, 227.5], 'bid': 4.79}, {'imgObject': {}, 'id': 'seaweed', 'src': '/static/foodstim60/seaweed.jpg', 'key': 'i', 'origWidth': 410, 'origHeight': 410, 'width': 410, 'height': 410, 'widthPercent': 0.45, 'rescaleHeight': False, 'trialN': 97, 'loaded': True, 'loadedTime': 2640.599999964237, 'positionName': 'RIGHT', 'positionCoords': [798.72, 227], 'bid': 2.74}]",186749.79999995232,1669830821655,chicken nuggets2,seaweed,4.79,2.74,-2.05,chicken nuggets2,966.5,967,967.0,True,u,188224.29999995232,1474.5,1669830823130,1475,HRV,HRV_0097,2022-11-30 17:56:21
98,"[{'imgObject': {}, 'id': 'turkey sandwich', 'src': '/static/foodstim60/turkey sandwich.jpg', 'key': 'u', 'origWidth': 409, 'origHeight': 409, 'width': 409, 'height': 409, 'widthPercent': 0.45, 'rescaleHeight': False, 'trialN': 98, 'loaded': True, 'loadedTime': 2567.399999976158, 'positionName': 'LEFT', 'positionCoords': [328.28, 227.5], 'bid': 7.77}, {'imgObject': {}, 'id': 'apple slices', 'src': '/static/foodstim60/apple slices.jpg', 'key': 'i', 'origWidth': 409, 'origHeight': 410, 'width': 409, 'height': 410, 'widthPercent': 0.45, 'rescaleHeight': False, 'trialN': 98, 'loaded': True, 'loadedTime': 2801.399999976158, 'positionName': 'RIGHT', 'positionCoords': [798.72, 227], 'bid': 7.74}]",188224.59999996424,1669830823130,turkey sandwich,apple slices,7.77,7.74,-0.02999999999999936,apple slices,1992.300000011921,1993,1992.9000000357628,True,i,190723.09999996424,2498.5,1669830825629,2499,HRV,HRV_0097,2022-11-30 17:56:21
99,"[{'imgObject': {}, 'id': 'banana', 'src': '/static/foodstim60/banana.jpg', 'key': 'u', 'origWidth': 410, 'origHeight': 410, 'width': 410, 'height': 410, 'widthPercent': 0.45, 'rescaleHeight': False, 'trialN': 99, 'loaded': True, 'loadedTime': 2816.2999999523163, 'positionName': 'LEFT', 'positionCoords': [327.28, 227], 'bid': 6.86}, {'imgObject': {}, 'id': 'roastedpotatoes', 'src': '/static/foodstim60/roastedpotatoes.jpg', 'key': 'i', 'origWidth': 409, 'origHeight': 410, 'width': 409, 'height': 410, 'widthPercent': 0.45, 'rescaleHeight': False, 'trialN': 99, 'loaded': True, 'loadedTime': 2722.7999999523163, 'positionName': 'RIGHT', 'positionCoords': [798.72, 227], 'bid': 6.87}]",190723.29999995232,1669830825629,banana,roastedpotatoes,6.86,6.87,0.009999999999999787,roastedpotatoes,953.0,954,953.7000000476837,True,i,192185.39999997616,1462.1000000238419,1669830827091,1462,HRV,HRV_0097,2022-11-30 17:56:21
100,"[{'imgObject': {}, 'id': 'eggsalad', 'src': '/static/foodstim60/eggsalad.jpg', 'key': 'u', 'origWidth': 410, 'origHeight': 409, 'width': 410, 'height': 409, 'widthPercent': 0.45, 'rescaleHeight': False, 'trialN': 100, 'loaded': True, 'loadedTime': 2700.7999999523163, 'positionName': 'LEFT', 'positionCoords': [327.28, 227.5], 'bid': 4.97}, {'imgObject': {}, 'id': 'hashbrowns', 'src': '/static/foodstim60/hashbrowns.jpg', 'key': 'i', 'origWidth': 411, 'origHeight': 410, 'width': 411, 'height': 410, 'widthPercent': 0.45, 'rescaleHeight': False, 'trialN': 100, 'loaded': True, 'loadedTime': 2469.399999976158, 'positionName': 'RIGHT', 'positionCoords': [798.72, 227], 'bid': 3.59}]",192185.79999995232,1669830827091,eggsalad,hashbrowns,4.97,3.59,-1.38,eggsalad,1470.4000000357628,1471,1471.1000000238419,True,u,194173.79999995232,1988.0,1669830829079,1988,HRV,HRV_0097,2022-11-30 17:56:21
101,"[{'imgObject': {}, 'id': 'sweetpotato', 'src': '/static/foodstim60/sweetpotato.jpg', 'key': 'u', 'origWidth': 410, 'origHeight': 410, 'width': 410, 'height': 410, 'widthPercent': 0.45, 'rescaleHeight': False, 'trialN': 101, 'loaded': True, 'loadedTime': 2497, 'positionName': 'LEFT', 'positionCoords': [327.28, 227], 'bid': 8.47}, {'imgObject': {}, 'id': 'turkey sandwich', 'src': '/static/foodstim60/turkey sandwich.jpg', 'key': 'i', 'origWidth': 409, 'origHeight': 409, 'width': 409, 'height': 409, 'widthPercent': 0.45, 'rescaleHeight': False, 'trialN': 101, 'loaded': True, 'loadedTime': 2580.699999988079, 'positionName': 'RIGHT', 'positionCoords': [798.72, 227.5], 'bid': 7.77}]",194174.0,1669830829080,sweetpotato,turkey sandwich,8.47,7.77,-0.7000000000000011,sweetpotato,1290.699999988079,1291,1291.5999999642372,True,u,195978.19999998808,1804.199999988079,1669830830884,1804,HRV,HRV_0097,2022-11-30 17:56:21
102,"[{'imgObject': {}, 'id': 'cheerios', 'src': '/static/foodstim60/cheerios.jpg', 'key': 'u', 'origWidth': 409, 'origHeight': 410, 'width': 409, 'height': 410, 'widthPercent': 0.45, 'rescaleHeight': False, 'trialN': 102, 'loaded': True, 'loadedTime': 2751.199999988079, 'positionName': 'LEFT', 'positionCoords': [328.28, 227], 'bid': 6.44}, {'imgObject': {}, 'id': 'tacos', 'src': '/static/foodstim60/tacos.jpg', 'key': 'i', 'origWidth': 411, 'origHeight': 411, 'width': 411, 'height': 411, 'widthPercent': 0.45, 'rescaleHeight': False, 'trialN': 102, 'loaded': True, 'loadedTime': 2736.099999964237, 'positionName': 'RIGHT', 'positionCoords': [798.72, 226.5], 'bid': 7.5}]",195978.69999998808,1669830830884,cheerios,tacos,6.44,7.5,1.0599999999999996,tacos,860.0,861,860.5999999642372,True,i,197343.0,1364.300000011921,1669830832249,1365,HRV,HRV_0097,2022-11-30 17:56:21
103,"[{'imgObject': {}, 'id': 'Grapes', 'src': '/static/foodstim60/Grapes.jpg', 'key': 'u', 'origWidth': 411, 'origHeight': 411, 'width': 411, 'height': 411, 'widthPercent': 0.45, 'rescaleHeight': False, 'trialN': 103, 'loaded': True, 'loadedTime': 2804.5, 'positionName': 'LEFT', 'positionCoords': [326.28, 226.5], 'bid': 7.390000000000001}, {'imgObject': {}, 'id': 'omelette', 'src': '/static/foodstim60/omelette.jpg', 'key': 'i', 'origWidth': 410, 'origHeight': 409, 'width': 410, 'height': 409, 'widthPercent': 0.45, 'rescaleHeight': False, 'trialN': 103, 'loaded': True, 'loadedTime': 2626.199999988079, 'positionName': 'RIGHT', 'positionCoords': [798.72, 227.5], 'bid': 6.28}]",197343.09999996424,1669830832249,Grapes,omelette,7.390000000000001,6.28,-1.1100000000000003,omelette,950.1000000238419,951,951.1000000238419,True,i,198798.09999996424,1455.0,1669830833704,1455,HRV,HRV_0097,2022-11-30 17:56:21
104,"[{'imgObject': {}, 'id': 'fruitsalad', 'src': '/static/foodstim60/fruitsalad.jpg', 'key': 'u', 'origWidth': 410, 'origHeight': 410, 'width': 410, 'height': 410, 'widthPercent': 0.45, 'rescaleHeight': False, 'trialN': 104, 'loaded': True, 'loadedTime': 2709.2999999523163, 'positionName': 'LEFT', 'positionCoords': [327.28, 227], 'bid': 6.54}, {'imgObject': {}, 'id': 'apple slices', 'src': '/static/foodstim60/apple slices.jpg', 'key': 'i', 'origWidth': 409, 'origHeight': 410, 'width': 409, 'height': 410, 'widthPercent': 0.45, 'rescaleHeight': False, 'trialN': 104, 'loaded': True, 'loadedTime': 2801.199999988079, 'positionName': 'RIGHT', 'positionCoords': [798.72, 227], 'bid': 7.74}]",198798.5,1669830833704,fruitsalad,apple slices,6.54,7.74,1.2000000000000002,fruitsalad,1636.5999999642372,1637,1637.3999999761581,True,u,200941.89999997616,2143.399999976158,1669830835847,2143,HRV,HRV_0097,2022-11-30 17:56:21
105,"[{'imgObject': {}, 'id': 'chicken nuggets2', 'src': '/static/foodstim60/chicken nuggets2.jpg', 'key': 'u', 'origWidth': 410, 'origHeight': 409, 'width': 410, 'height': 409, 'widthPercent': 0.45, 'rescaleHeight': False, 'trialN': 105, 'loaded': True, 'loadedTime': 2803.599999964237, 'positionName': 'LEFT', 'positionCoords': [327.28, 227.5], 'bid': 4.79}, {'imgObject': {}, 'id': 'edamame', 'src': '/static/foodstim60/edamame.jpg', 'key': 'i', 'origWidth': 409, 'origHeight': 410, 'width': 409, 'height': 410, 'widthPercent': 0.45, 'rescaleHeight': False, 'trialN': 105, 'loaded': True, 'loadedTime': 2667.5, 'positionName': 'RIGHT', 'positionCoords': [798.72, 227], 'bid': 4.84}]",200942.29999995232,1669830835848,chicken nuggets2,edamame,4.79,4.84,0.04999999999999982,edamame,1445.800000011921,1446,1446.6000000238419,True,i,202894.69999998808,1952.4000000357628,1669830837800,1952,HRV,HRV_0097,2022-11-30 17:56:21
106,"[{'imgObject': {}, 'id': 'olives', 'src': '/static/foodstim60/olives.jpg', 'key': 'u', 'origWidth': 410, 'origHeight': 410, 'width': 410, 'height': 410, 'widthPercent': 0.45, 'rescaleHeight': False, 'trialN': 106, 'loaded': True, 'loadedTime': 2653.099999964237, 'positionName': 'LEFT', 'positionCoords': [327.28, 227], 'bid': 6.08}, {'imgObject': {}, 'id': 'mango', 'src': '/static/foodstim60/mango.jpg', 'key': 'i', 'origWidth': 411, 'origHeight': 411, 'width': 411, 'height': 411, 'widthPercent': 0.45, 'rescaleHeight': False, 'trialN': 106, 'loaded': True, 'loadedTime': 2793.899999976158, 'positionName': 'RIGHT', 'positionCoords': [798.72, 226.5], 'bid': 5.8}]",202894.89999997616,1669830837800,olives,mango,6.08,5.8,-0.28000000000000025,olives,1302.8999999761581,1305,1304.1000000238419,True,u,204702.69999998808,1807.800000011921,1669830839608,1808,HRV,HRV_0097,2022-11-30 17:56:21
107,"[{'imgObject': {}, 'id': 'olives', 'src': '/static/foodstim60/olives.jpg', 'key': 'u', 'origWidth': 410, 'origHeight': 410, 'width': 410, 'height': 410, 'widthPercent': 0.45, 'rescaleHeight': False, 'trialN': 107, 'loaded': True, 'loadedTime': 2653.2999999523163, 'positionName': 'LEFT', 'positionCoords': [327.28, 227], 'bid': 6.08}, {'imgObject': {}, 'id': 'pear', 'src': '/static/foodstim60/pear.jpg', 'key': 'i', 'origWidth': 411, 'origHeight': 410, 'width': 411, 'height': 410, 'widthPercent': 0.45, 'rescaleHeight': False, 'trialN': 107, 'loaded': True, 'loadedTime': 2787.599999964237, 'positionName': 'RIGHT', 'positionCoords': [798.72, 227], 'bid': 7.3}]",204703.0,1669830839609,olives,pear,6.08,7.3,1.2199999999999998,pear,1226.8999999761581,1227,1227.699999988079,True,i,206438.29999995232,1735.2999999523163,1669830841344,1735,HRV,HRV_0097,2022-11-30 17:56:21
108,"[{'imgObject': {}, 'id': 'popsicles', 'src': '/static/foodstim60/popsicles.jpg', 'key': 'u', 'origWidth': 410, 'origHeight': 410, 'width': 410, 'height': 410, 'widthPercent': 0.45, 'rescaleHeight': False, 'trialN': 108, 'loaded': True, 'loadedTime': 2547.699999988079, 'positionName': 'LEFT', 'positionCoords': [327.28, 227], 'bid': 2.99}, {'imgObject': {}, 'id': 'raisin bran w milk', 'src': '/static/foodstim60/raisin bran w milk.jpg', 'key': 'i', 'origWidth': 411, 'origHeight': 411, 'width': 411, 'height': 411, 'widthPercent': 0.45, 'rescaleHeight': False, 'trialN': 108, 'loaded': True, 'loadedTime': 2796.099999964237, 'positionName': 'RIGHT', 'positionCoords': [798.72, 226.5], 'bid': 1.53}]",206438.59999996424,1669830841344,popsicles,raisin bran w milk,2.99,1.53,-1.4600000000000002,popsicles,1567.5,1568,1568.300000011921,True,u,208513.29999995232,2074.699999988079,1669830843419,2075,HRV,HRV_0097,2022-11-30 17:56:21
