success,trial_type,trial_index,time_elapsed,internal_node_id,Block,TrialNumber,TrialTime,trialTimeDiff,FPS_avg,FPS_med,FPS_mode,TrialDur,winResizeTime,rt,block,button_pressed,MotCoh,MotDir,ColCoh,Color,ChoiceKey,Choice,Accuracy,RT,nFrames,FPS,PPD,missTrial,missTrialMsg,onsetDelay,fullScreenExitTime,canvCenter,TrialType,Score,BlockTrial,stimulus,button_labels,exp,subjectId,date
True,fullscreen,0,2077,0.0-0.0,0.0,1.0,,,,,,,,,,,,,,,,,,,,,,,,,,,,,,,,HRV,HRV_0190,2022-11-30 18:45:37
,wl-check-fps,1,7062,0.0-1.0,0.0,2.0,"[2411.3, 2414.9, 2425.2, 2441.9, 2458.4, 2475.2, 2491.8, 2508.5, 2525.1, 2541.9, 2558.6, 2575.2, 2591.8, 2608.5, 2625.1, 2641.8, 2658.6, 2675.3, 2691.9, 2708.5, 2725.2, 2741.7, 2758.5, 2775.2, 2791.9, 2808.5, 2825.1, 2841.8, 2858.4, 2875.2, 2891.8, 2908.5, 2925.1, 2941.8, 2958.5, 2975.1, 2991.8, 3008.5, 3025.1, 3041.7, 3058.6, 3075.2, 3091.8, 3108.4, 3125.2, 3141.9, 3158.6, 3175.3, 3191.9, 3208.5, 3225.1, 3241.9, 3258.5, 3275.1, 3291.8, 3308.5, 3325.1, 3342.5, 3358.7, 3375.2, 3392, 3408.6, 3425.2, 3442, 3458.6, 3475.2, 3491.8, 3508.5, 3525.3, 3541.9, 3558.6, 3575.3, 3591.8, 3608.6, 3625.2, 3641.8, 3658.7, 3675.3, 3691.9, 3708.6, 3725.2, 3741.9, 3758.6, 3775.2, 3791.8, 3808.6, 3825.2, 3841.9, 3858.5, 3875.3, 3892, 3908.7, 3925.2, 3941.9, 3958.5, 3975.2, 3991.8, 4008.5, 4025.2, 4041.8, 4058.6, 4075.1, 4091.9, 4108.6, 4125.1, 4141.8, 4158.5, 4175.1, 4191.8, 4208.5, 4225.2, 4241.8, 4258.5, 4275.3, 4291.9, 4308.6, 4325.5, 4342.5, 4358.7, 4375.2, 4391.9, 4408.5, 4425.2, 4441.9, 4458.5, 4475.2, 4491.8, 4508.6, 4525.2, 4541.8, 4558.5, 4575.1, 4591.9, 4608.5, 4625.2, 4641.9, 4658.5, 4675.3, 4691.8, 4708.5, 4725.1, 4741.8, 4758.6, 4775.2, 4791.9, 4808.5, 4825.3, 4841.8, 4858.5, 4875.2, 4891.9, 4908.6, 4925.2, 4941.8, 4958.5, 4975.2, 4991.9, 5008.5, 5025.2, 5041.9, 5058.5, 5075.2, 5091.8, 5108.5, 5125.2, 5141.9, 5158.6, 5175.2, 5191.9, 5208.6, 5225.2, 5241.9, 5258.5, 5275.2, 5291.9, 5308.6, 5325.2, 5342.5, 5358.5, 5375.1, 5391.8, 5408.6, 5425.2, 5441.9, 5458.6, 5475.2, 5491.8, 5508.5, 5525.3, 5541.9, 5558.5, 5575.2, 5591.9, 5608.5, 5625.3, 5641.9, 5658.6, 5675.1, 5692, 5708.6, 5725.3, 5741.8, 5758.6, 5775.3, 5791.9, 5808.6, 5825.2, 5841.9, 5858.5, 5875.2, 5891.9, 5908.6, 5925.2, 5941.9, 5958.6, 5975.1, 5991.9, 6008.6, 6025.3, 6041.9, 6058.6, 6075.2, 6091.9, 6108.5, 6125.2, 6141.8, 6158.5, 6175.2, 6191.8, 6208.5, 6225.1, 6241.8, 6258.5, 6275.3, 6291.9, 6308.5, 6325.2, 6342.6, 6358.6, 6375.2, 6391.9, 6408.5, 6425.2, 6441.8, 6458.5, 6475.1, 6491.8, 6508.5, 6525.2, 6541.8, 6558.5, 6575.2, 6591.8, 6608.5, 6625.2, 6641.8, 6658.5, 6675.2, 6691.9, 6708.7, 6725.2, 6742, 6758.7, 6775.3, 6791.9, 6808.6, 6825.3, 6841.9, 6858.6, 6875.2, 6891.9, 6908.6, 6925.3, 6941.9, 6958.5, 6975.2, 6991.8, 7008.5, 7025.1, 7041.8, 7058.5, 7075.2, 7091.9, 7108.5, 7125.2, 7141.9, 7158.5, 7175.2, 7191.8, 7208.5, 7225.2, 7241.9, 7258.6, 7275.2, 7291.9, 7308.6, 7325.2, 7342.6, 7358.5, 7375.2]","[2.6, 3.6, 10.3, 16.7, 16.5, 16.8, 16.6, 16.7, 16.6, 16.8, 16.7, 16.6, 16.6, 16.7, 16.6, 16.7, 16.8, 16.7, 16.6, 16.6, 16.7, 16.5, 16.8, 16.7, 16.7, 16.6, 16.6, 16.7, 16.6, 16.8, 16.6, 16.7, 16.6, 16.7, 16.7, 16.6, 16.7, 16.7, 16.6, 16.6, 16.9, 16.6, 16.6, 16.6, 16.8, 16.7, 16.7, 16.7, 16.6, 16.6, 16.6, 16.8, 16.6, 16.6, 16.7, 16.7, 16.6, 17.4, 16.2, 16.5, 16.8, 16.6, 16.6, 16.8, 16.6, 16.6, 16.6, 16.7, 16.8, 16.6, 16.7, 16.7, 16.5, 16.8, 16.6, 16.6, 16.9, 16.6, 16.6, 16.7, 16.6, 16.7, 16.7, 16.6, 16.6, 16.8, 16.6, 16.7, 16.6, 16.8, 16.7, 16.7, 16.5, 16.7, 16.6, 16.7, 16.6, 16.7, 16.7, 16.6, 16.8, 16.5, 16.8, 16.7, 16.5, 16.7, 16.7, 16.6, 16.7, 16.7, 16.7, 16.6, 16.7, 16.8, 16.6, 16.7, 16.9, 17, 16.2, 16.5, 16.7, 16.6, 16.7, 16.7, 16.6, 16.7, 16.6, 16.8, 16.6, 16.6, 16.7, 16.6, 16.8, 16.6, 16.7, 16.7, 16.6, 16.8, 16.5, 16.7, 16.6, 16.7, 16.8, 16.6, 16.7, 16.6, 16.8, 16.5, 16.7, 16.7, 16.7, 16.7, 16.6, 16.6, 16.7, 16.7, 16.7, 16.6, 16.7, 16.7, 16.6, 16.7, 16.6, 16.7, 16.7, 16.7, 16.7, 16.6, 16.7, 16.7, 16.6, 16.7, 16.6, 16.7, 16.7, 16.7, 16.6, 17.3, 16, 16.6, 16.7, 16.8, 16.6, 16.7, 16.7, 16.6, 16.6, 16.7, 16.8, 16.6, 16.6, 16.7, 16.7, 16.6, 16.8, 16.6, 16.7, 16.5, 16.9, 16.6, 16.7, 16.5, 16.8, 16.7, 16.6, 16.7, 16.6, 16.7, 16.6, 16.7, 16.7, 16.7, 16.6, 16.7, 16.7, 16.5, 16.8, 16.7, 16.7, 16.6, 16.7, 16.6, 16.7, 16.6, 16.7, 16.6, 16.7, 16.7, 16.6, 16.7, 16.6, 16.7, 16.7, 16.8, 16.6, 16.6, 16.7, 17.4, 16, 16.6, 16.7, 16.6, 16.7, 16.6, 16.7, 16.6, 16.7, 16.7, 16.7, 16.6, 16.7, 16.7, 16.6, 16.7, 16.7, 16.6, 16.7, 16.7, 16.7, 16.8, 16.5, 16.8, 16.7, 16.6, 16.6, 16.7, 16.7, 16.6, 16.7, 16.6, 16.7, 16.7, 16.7, 16.6, 16.6, 16.7, 16.6, 16.7, 16.6, 16.7, 16.7, 16.7, 16.7, 16.6, 16.7, 16.7, 16.6, 16.7, 16.6, 16.7, 16.7, 16.7, 16.7, 16.6, 16.7, 16.7, 16.6, 17.4, 15.9, 16.7]",60.0,60.0,60.0,4983.1,[],,,,,,,,,,,,,,,,,,,,,,,,,HRV,HRV_0190,2022-11-30 18:45:37
,wl-html-keyboard-response,2,23718,0.0-2.0-0.0,0.0,3.0,,,,,,,,14639.90000000596,0.0,0,,,,,,,,,,,,,,,,,,,,,,HRV,HRV_0190,2022-11-30 18:45:37
,wl-rdm,3,31045,0.0-3.0-0.0,0.0,4.0,,,,,,,[],,,,0.0,0.0,87.9,0.0,u,0.0,True,1760.300000011921,106.0,60.0,40.0,False,,3000.0,[],"[873, 491.5]",ColorTask_Demo,,,,,HRV,HRV_0190,2022-11-30 18:45:37
,wl-rdm,4,36595,0.0-3.0-1.0,0.0,5.0,,,,,,,[],,,,0.0,0.0,87.9,1.0,i,1.0,True,1475.5999999940395,89.0,60.0,40.0,False,,2000.0,[],"[873, 491.5]",ColorTask_Demo,,,,,HRV,HRV_0190,2022-11-30 18:45:37
,wl-html-keyboard-response,5,44264,0.0-3.0-2.0,0.0,6.0,,,,,,,,5657.300000011921,0.0,1,,,,,,,,,,,,,,,,,,,,,,HRV,HRV_0190,2022-11-30 18:45:37
,wl-html-keyboard-response,6,54032,0.0-4.0-0.0,0.0,7.0,,,,,,,,7760.5,0.0,0,,,,,,,,,,,,,,,,,,,,,,HRV,HRV_0190,2022-11-30 18:45:37
,wl-html-keyboard-response,7,68264,0.0-5.0-0.0,0.0,8.0,,,,,,,,12222.59999999404,0.0,0,,,,,,,,,,,,,,,,,,,,,,HRV,HRV_0190,2022-11-30 18:45:37
,wl-rdm,8,72579,0.0-6.0-0.0,0.0,8.0,,,,,,,[],,,,,,53.2,0.0,u,,,3347.5,179.0,60.0,40.0,True,RT_timeout ,207.6535785232521,[],"[873, 491.5]",ColorTask,-1.0,1.0,,,HRV,HRV_0190,2022-11-30 18:45:37
,wl-rdm,9,75328,0.0-6.1-0.1,0.0,9.0,,,,,,,[],,,,,,50.0,1.0,u,0.0,False,1428.7000000178814,86.0,60.0,40.0,False,,243.74445224976805,[],"[873, 491.5]",ColorTask,-2.0,2.0,,,HRV,HRV_0190,2022-11-30 18:45:37
,wl-rdm,10,78295,0.0-6.2-0.2,0.0,10.0,,,,,,,[],,,,,,50.0,1.0,u,0.0,False,1510.5999999940395,91.0,60.0,40.0,False,,368.34148664171363,[],"[873, 491.5]",ColorTask,-3.0,3.0,,,HRV,HRV_0190,2022-11-30 18:45:37
,wl-rdm,11,81262,0.0-6.3-0.3,0.0,11.0,,,,,,,[],,,,,,56.4,0.0,i,1.0,False,1636.0999999940395,99.0,60.0,40.0,False,,245.3502077123995,[],"[873, 491.5]",ColorTask,-4.0,4.0,,,HRV,HRV_0190,2022-11-30 18:45:37
,wl-rdm,12,84329,0.0-6.4-0.4,0.0,12.0,,,,,,,[],,,,,,50.0,1.0,i,1.0,True,1704.0999999940395,103.0,60.0,40.0,False,,282.53683252357905,[],"[873, 491.5]",ColorTask,-3.0,5.0,,,HRV,HRV_0190,2022-11-30 18:45:37
,wl-rdm,13,86395,0.0-6.5-0.5,0.0,13.0,,,,,,,[],,,,,,87.9,1.0,i,1.0,True,783.0,47.0,60.0,40.0,False,,203.47973125273904,[],"[873, 491.5]",ColorTask,-2.0,6.0,,,HRV,HRV_0190,2022-11-30 18:45:37
,wl-rdm,14,88495,0.0-6.6-0.6,0.0,14.0,,,,,,,[],,,,,,87.9,0.0,u,0.0,True,706.4000000059605,43.0,60.0,40.0,False,,308.4808865372921,[],"[873, 491.5]",ColorTask,-1.0,7.0,,,HRV,HRV_0190,2022-11-30 18:45:37
,wl-rdm,15,90962,0.0-6.7-0.7,0.0,15.0,,,,,,,[],,,,,,50.0,0.0,i,1.0,False,1130.5,68.0,60.0,40.0,False,,254.30804281643452,[],"[873, 491.5]",ColorTask,-2.0,8.0,,,HRV,HRV_0190,2022-11-30 18:45:37
,wl-rdm,16,93345,0.0-6.8-0.8,0.0,16.0,,,,,,,[],,,,,,62.5,0.0,u,0.0,True,1094.0,66.0,60.0,40.0,False,,220.21263202024517,[],"[873, 491.5]",ColorTask,-1.0,9.0,,,HRV,HRV_0190,2022-11-30 18:45:37
,wl-rdm,17,95795,0.0-6.9-0.9,0.0,17.0,,,,,,,[],,,,,,53.2,1.0,i,1.0,True,998.5,60.0,60.0,40.0,False,,366.99442241823067,[],"[873, 491.5]",ColorTask,0.0,10.0,,,HRV,HRV_0190,2022-11-30 18:45:37
,wl-rdm,18,97829,0.0-6.10-0.10,0.0,18.0,,,,,,,[],,,,,,73.6,1.0,i,1.0,True,639.2000000178814,39.0,60.0,40.0,False,,310.74302483478505,[],"[873, 491.5]",ColorTask,1.0,11.0,,,HRV,HRV_0190,2022-11-30 18:45:37
,wl-rdm,19,100079,0.0-6.11-0.11,0.0,19.0,,,,,,,[],,,,,,73.6,1.0,i,1.0,True,919.9000000059605,56.0,60.0,40.0,False,,246.64815147176634,[],"[873, 491.5]",ColorTask,2.0,12.0,,,HRV,HRV_0190,2022-11-30 18:45:37
,wl-rdm,20,102345,0.0-6.12-0.12,0.0,20.0,,,,,,,[],,,,,,87.9,0.0,u,0.0,True,968.4000000059605,59.0,60.0,40.0,False,,230.13230568525506,[],"[873, 491.5]",ColorTask,3.0,13.0,,,HRV,HRV_0190,2022-11-30 18:45:37
,wl-rdm,21,104945,0.0-6.13-0.13,0.0,21.0,,,,,,,[],,,,,,73.6,0.0,u,0.0,True,1227.9000000059605,74.0,60.0,40.0,False,,299.2812602649948,[],"[873, 491.5]",ColorTask,4.0,14.0,,,HRV,HRV_0190,2022-11-30 18:45:37
,wl-rdm,22,106895,0.0-6.14-0.14,0.0,22.0,,,,,,,[],,,,,,73.6,0.0,u,0.0,True,621.2000000178814,38.0,60.0,40.0,False,,264.17532059438344,[],"[873, 491.5]",ColorTask,5.0,15.0,,,HRV,HRV_0190,2022-11-30 18:45:37
,wl-rdm,23,109195,0.0-6.15-0.15,0.0,23.0,,,,,,,[],,,,,,62.5,0.0,u,0.0,True,967.4000000059605,59.0,60.0,40.0,False,,257.3816901258964,[],"[873, 491.5]",ColorTask,6.0,16.0,,,HRV,HRV_0190,2022-11-30 18:45:37
,wl-rdm,24,111745,0.0-6.16-0.16,0.0,24.0,,,,,,,[],,,,,,53.2,0.0,i,1.0,False,1173.199999988079,71.0,60.0,40.0,False,,288.5866867840131,[],"[873, 491.5]",ColorTask,5.0,17.0,,,HRV,HRV_0190,2022-11-30 18:45:37
,wl-rdm,25,114229,0.0-6.17-0.17,0.0,25.0,,,,,,,[],,,,,,53.2,0.0,i,1.0,False,1155.800000011921,70.0,60.0,40.0,False,,235.49619670741902,[],"[873, 491.5]",ColorTask,4.0,18.0,,,HRV,HRV_0190,2022-11-30 18:45:37
,wl-rdm,26,116362,0.0-6.18-0.18,0.0,26.0,,,,,,,[],,,,,,73.6,1.0,i,1.0,True,842.8000000119209,51.0,60.0,40.0,False,,207.66346330336546,[],"[873, 491.5]",ColorTask,5.0,19.0,,,HRV,HRV_0190,2022-11-30 18:45:37
,wl-rdm,27,118695,0.0-6.19-0.19,0.0,27.0,,,,,,,[],,,,,,56.4,0.0,u,0.0,True,1041.5999999940395,63.0,60.0,40.0,False,,204.43126557739765,[],"[873, 491.5]",ColorTask,6.0,20.0,,,HRV,HRV_0190,2022-11-30 18:45:37
,wl-rdm,28,121112,0.0-6.20-0.20,0.0,28.0,,,,,,,[],,,,,,73.6,0.0,u,0.0,True,1071.5,65.0,60.0,40.0,False,,266.98064484192605,[],"[873, 491.5]",ColorTask,7.0,21.0,,,HRV,HRV_0190,2022-11-30 18:45:37
,wl-rdm,29,123112,0.0-6.21-0.21,0.0,29.0,,,,,,,[],,,,,,87.9,0.0,u,0.0,True,662.5999999940395,40.0,60.0,40.0,False,,257.88105842652305,[],"[873, 491.5]",ColorTask,8.0,22.0,,,HRV,HRV_0190,2022-11-30 18:45:37
,wl-rdm,30,125229,0.0-6.22-0.22,0.0,30.0,,,,,,,[],,,,,,87.9,0.0,u,0.0,True,659.8000000119209,40.0,60.0,40.0,False,,370.7846196910675,[],"[873, 491.5]",ColorTask,9.0,23.0,,,HRV,HRV_0190,2022-11-30 18:45:37
,wl-rdm,31,127562,0.0-6.23-0.23,0.0,31.0,,,,,,,[],,,,,,73.6,0.0,u,0.0,True,964.8000000119209,58.0,60.0,40.0,False,,306.4935666482336,[],"[873, 491.5]",ColorTask,10.0,24.0,,,HRV,HRV_0190,2022-11-30 18:45:37
,wl-rdm,32,130595,0.0-6.24-0.24,0.0,32.0,,,,,,,[],,,,,,53.2,0.0,i,1.0,False,1600.6000000238419,97.0,60.0,40.0,False,,335.7092661061861,[],"[873, 491.5]",ColorTask,9.0,25.0,,,HRV,HRV_0190,2022-11-30 18:45:37
,wl-rdm,33,134029,0.0-6.25-0.25,0.0,33.0,,,,,,,[],,,,,,50.0,0.0,u,0.0,True,2112.0999999940395,127.0,60.0,40.0,False,,247.15092200841104,[],"[873, 491.5]",ColorTask,10.0,26.0,,,HRV,HRV_0190,2022-11-30 18:45:37
,wl-rdm,34,137129,0.0-6.26-0.26,0.0,34.0,,,,,,,[],,,,,,53.2,1.0,i,1.0,True,1787.1000000238419,108.0,60.0,40.0,False,,222.60303742552546,[],"[873, 491.5]",ColorTask,11.0,27.0,,,HRV,HRV_0190,2022-11-30 18:45:37
,wl-rdm,35,139079,0.0-6.27-0.27,0.0,35.0,,,,,,,[],,,,,,62.5,1.0,i,1.0,True,612.7000000178814,37.0,60.0,40.0,False,,262.96215321874604,[],"[873, 491.5]",ColorTask,12.0,28.0,,,HRV,HRV_0190,2022-11-30 18:45:37
,wl-rdm,36,140945,0.0-6.28-0.28,0.0,36.0,,,,,,,[],,,,,,87.9,0.0,u,0.0,True,528.5999999940395,32.0,60.0,40.0,False,,256.365714175439,[],"[873, 491.5]",ColorTask,13.0,29.0,,,HRV,HRV_0190,2022-11-30 18:45:37
,wl-rdm,37,144412,0.0-6.29-0.29,0.0,37.0,,,,,,,[],,,,,,50.0,0.0,i,1.0,False,2096.800000011921,126.0,60.0,40.0,False,,289.95213151819246,[],"[873, 491.5]",ColorTask,12.0,30.0,,,HRV,HRV_0190,2022-11-30 18:45:37
,wl-rdm,38,147895,0.0-6.30-0.30,0.0,38.0,,,,,,,[],,,,,,56.4,1.0,i,1.0,True,2181.5999999940395,131.0,60.0,40.0,False,,233.09783332991952,[],"[873, 491.5]",ColorTask,13.0,31.0,,,HRV,HRV_0190,2022-11-30 18:45:37
,wl-rdm,39,149929,0.0-6.31-0.31,0.0,39.0,,,,,,,[],,,,,,87.9,0.0,u,0.0,True,652.9000000059605,40.0,60.0,40.0,False,,293.28209416234915,[],"[873, 491.5]",ColorTask,14.0,32.0,,,HRV,HRV_0190,2022-11-30 18:45:37
,wl-rdm,40,152212,0.0-6.32-0.32,0.0,40.0,,,,,,,[],,,,,,73.6,1.0,i,1.0,True,832.0,50.0,60.0,40.0,False,,376.96623335492706,[],"[873, 491.5]",ColorTask,15.0,33.0,,,HRV,HRV_0190,2022-11-30 18:45:37
,wl-rdm,41,155229,0.0-6.33-0.33,0.0,41.0,,,,,,,[],,,,,,56.4,0.0,u,0.0,True,1576.5999999940395,95.0,60.0,40.0,False,,365.2878062389759,[],"[873, 491.5]",ColorTask,16.0,34.0,,,HRV,HRV_0190,2022-11-30 18:45:37
,wl-rdm,42,158945,0.0-6.34-0.34,0.0,42.0,,,,,,,[],,,,,,53.2,1.0,i,1.0,True,2429.5,146.0,60.0,40.0,False,,207.06953489007742,[],"[873, 491.5]",ColorTask,17.0,35.0,,,HRV,HRV_0190,2022-11-30 18:45:37
,wl-rdm,43,161462,0.0-6.35-0.35,0.0,43.0,,,,,,,[],,,,,,56.4,1.0,i,1.0,True,1223.0,74.0,60.0,40.0,False,,210.6712354725224,[],"[873, 491.5]",ColorTask,18.0,36.0,,,HRV,HRV_0190,2022-11-30 18:45:37
,wl-rdm,44,163862,0.0-6.36-0.36,0.0,44.0,,,,,,,[],,,,,,56.4,0.0,u,0.0,True,1066.0999999940395,64.0,60.0,40.0,False,,258.41277629187056,[],"[873, 491.5]",ColorTask,19.0,37.0,,,HRV,HRV_0190,2022-11-30 18:45:37
,wl-rdm,45,166629,0.0-6.37-0.37,0.0,45.0,,,,,,,[],,,,,,56.4,1.0,i,1.0,True,1431.2000000178814,86.0,60.0,40.0,False,,255.88170460673484,[],"[873, 491.5]",ColorTask,20.0,38.0,,,HRV,HRV_0190,2022-11-30 18:45:37
,wl-rdm,46,168462,0.0-6.38-0.38,0.0,46.0,,,,,,,[],,,,,,87.9,1.0,i,1.0,True,549.5999999940395,33.0,60.0,40.0,False,,203.1470300258375,[],"[873, 491.5]",ColorTask,21.0,39.0,,,HRV,HRV_0190,2022-11-30 18:45:37
,wl-rdm,47,170495,0.0-6.39-0.39,0.0,47.0,,,,,,,[],,,,,,62.5,1.0,i,1.0,True,562.8000000119209,34.0,60.0,40.0,False,,391.4986680414097,[],"[873, 491.5]",ColorTask,22.0,40.0,,,HRV,HRV_0190,2022-11-30 18:45:37
,wl-rdm,48,172545,0.0-6.40-0.40,0.0,48.0,,,,,,,[],,,,,,62.5,0.0,u,0.0,True,765.6999999880791,46.0,60.0,40.0,False,,202.6512142416354,[],"[873, 491.5]",ColorTask,23.0,41.0,,,HRV,HRV_0190,2022-11-30 18:45:37
,wl-rdm,49,175245,0.0-6.41-0.41,0.0,49.0,,,,,,,[],,,,,,62.5,1.0,i,1.0,True,1345.199999988079,81.0,60.0,40.0,False,,275.8401909625172,[],"[873, 491.5]",ColorTask,24.0,42.0,,,HRV,HRV_0190,2022-11-30 18:45:37
,wl-rdm,50,179062,0.0-6.42-0.42,0.0,50.0,,,,,,,[],,,,,,53.2,1.0,u,0.0,False,2497.7999999821186,150.0,60.0,40.0,False,,266.00037193214786,[],"[873, 491.5]",ColorTask,23.0,43.0,,,HRV,HRV_0190,2022-11-30 18:45:37
,wl-rdm,51,182179,0.0-6.43-0.43,0.0,51.0,,,,,,,[],,,,,,53.2,1.0,i,1.0,True,1814.3999999761581,109.0,60.0,40.0,False,,229.09778727887215,[],"[873, 491.5]",ColorTask,24.0,44.0,,,HRV,HRV_0190,2022-11-30 18:45:37
,wl-rdm,52,184162,0.0-6.44-0.44,0.0,52.0,,,,,,,[],,,,,,62.5,1.0,i,1.0,True,666.5,40.0,60.0,40.0,False,,252.69070173828166,[],"[873, 491.5]",ColorTask,25.0,45.0,,,HRV,HRV_0190,2022-11-30 18:45:37
,wl-rdm,53,185995,0.0-6.45-0.45,0.0,53.0,,,,,,,[],,,,,,87.9,1.0,i,1.0,True,516.0999999940395,31.0,60.0,40.0,False,,257.2754222952128,[],"[873, 491.5]",ColorTask,26.0,46.0,,,HRV,HRV_0190,2022-11-30 18:45:37
,wl-rdm,54,189262,0.0-6.46-0.46,0.0,54.0,,,,,,,[],,,,,,56.4,0.0,u,0.0,True,1815.2000000178814,109.0,60.0,40.0,False,,376.91792650824914,[],"[873, 491.5]",ColorTask,27.0,47.0,,,HRV,HRV_0190,2022-11-30 18:45:37
,wl-rdm,55,191262,0.0-6.47-0.47,0.0,55.0,,,,,,,[],,,,,,53.2,0.0,u,0.0,True,709.0999999940395,43.0,60.0,40.0,False,,207.11276965386645,[],"[873, 491.5]",ColorTask,28.0,48.0,,,HRV,HRV_0190,2022-11-30 18:45:37
,wl-rdm,56,194262,0.0-6.48-0.48,0.0,56.0,,,,,,,[],,,,,,50.0,1.0,i,1.0,True,1725.7999999821186,104.0,60.0,40.0,False,,204.13161854321442,[],"[873, 491.5]",ColorTask,29.0,49.0,,,HRV,HRV_0190,2022-11-30 18:45:37
,wl-rdm,57,196212,0.0-6.49-0.49,0.0,57.0,,,,,,,[],,,,,,87.9,1.0,i,1.0,True,541.3999999761581,33.0,60.0,40.0,False,,318.99162443651517,[],"[873, 491.5]",ColorTask,30.0,50.0,,,HRV,HRV_0190,2022-11-30 18:45:37
,wl-rdm,58,199595,0.0-6.50-0.50,0.0,58.0,,,,,,,[],,,,,,50.0,1.0,i,1.0,True,2045.800000011921,123.0,60.0,40.0,False,,266.6925598389578,[],"[873, 491.5]",ColorTask,31.0,51.0,,,HRV,HRV_0190,2022-11-30 18:45:37
,wl-rdm,59,201845,0.0-6.51-0.51,0.0,59.0,,,,,,,[],,,,,,73.6,0.0,u,0.0,True,840.0,51.0,60.0,40.0,False,,319.513050997212,[],"[873, 491.5]",ColorTask,32.0,52.0,,,HRV,HRV_0190,2022-11-30 18:45:37
,wl-rdm,60,203812,0.0-6.52-0.52,0.0,60.0,,,,,,,[],,,,,,87.9,1.0,i,1.0,True,554.0999999940395,34.0,60.0,40.0,False,,330.4547438646686,[],"[873, 491.5]",ColorTask,33.0,53.0,,,HRV,HRV_0190,2022-11-30 18:45:37
,wl-rdm,61,205695,0.0-6.53-0.53,0.0,61.0,,,,,,,[],,,,,,87.9,1.0,u,0.0,False,593.5,36.0,60.0,40.0,False,,228.61620165601175,[],"[873, 491.5]",ColorTask,32.0,54.0,,,HRV,HRV_0190,2022-11-30 18:45:37
,wl-rdm,62,208812,0.0-6.54-0.54,0.0,62.0,,,,,,,[],,,,,,62.5,1.0,i,1.0,True,1763.9000000059605,106.0,60.0,40.0,False,,278.4417545490905,[],"[873, 491.5]",ColorTask,33.0,55.0,,,HRV,HRV_0190,2022-11-30 18:45:37
,wl-rdm,63,212412,0.0-6.55-0.55,0.0,63.0,,,,,,,[],,,,,,53.2,1.0,i,1.0,True,2179.800000011921,131.0,60.0,40.0,False,,335.31137422129746,[],"[873, 491.5]",ColorTask,34.0,56.0,,,HRV,HRV_0190,2022-11-30 18:45:37
,wl-rdm,64,214462,0.0-6.56-0.56,0.0,64.0,,,,,,,[],,,,,,73.6,0.0,u,0.0,True,706.6999999880791,43.0,60.0,40.0,False,,261.5725536307605,[],"[873, 491.5]",ColorTask,35.0,57.0,,,HRV,HRV_0190,2022-11-30 18:45:37
,wl-rdm,65,217995,0.0-6.57-0.57,0.0,65.0,,,,,,,[],,,,,,53.2,0.0,u,0.0,True,2240.7999999821186,135.0,60.0,40.0,False,,202.41041724885895,[],"[873, 491.5]",ColorTask,36.0,58.0,,,HRV,HRV_0190,2022-11-30 18:45:37
,wl-rdm,66,221579,0.0-6.58-0.58,0.0,66.0,,,,,,,[],,,,,,53.2,1.0,u,0.0,False,2292.7999999821186,138.0,60.0,40.0,False,,232.0199296198097,[],"[873, 491.5]",ColorTask,35.0,59.0,,,HRV,HRV_0190,2022-11-30 18:45:37
,wl-rdm,67,223845,0.0-6.59-0.59,0.0,67.0,,,,,,,[],,,,,,56.4,0.0,u,0.0,True,891.7999999821186,54.0,60.0,40.0,False,,295.41722059712816,[],"[873, 491.5]",ColorTask,36.0,60.0,,,HRV,HRV_0190,2022-11-30 18:45:37
,wl-rdm,68,226379,0.0-6.60-0.60,0.0,68.0,,,,,,,[],,,,,,62.5,1.0,i,1.0,True,1123.7999999821186,68.0,60.0,40.0,False,,328.4902370500606,[],"[873, 491.5]",ColorTask,37.0,61.0,,,HRV,HRV_0190,2022-11-30 18:45:37
,wl-rdm,69,228312,0.0-6.61-0.61,0.0,69.0,,,,,,,[],,,,,,87.9,0.0,u,0.0,True,592.5,36.0,60.0,40.0,False,,282.87439919622943,[],"[873, 491.5]",ColorTask,38.0,62.0,,,HRV,HRV_0190,2022-11-30 18:45:37
,wl-rdm,70,230796,0.0-6.62-0.62,0.0,70.0,,,,,,,[],,,,,,56.4,1.0,i,1.0,True,1032.300000011921,62.0,60.0,40.0,False,,369.67392985478466,[],"[873, 491.5]",ColorTask,39.0,63.0,,,HRV,HRV_0190,2022-11-30 18:45:37
,wl-rdm,71,232946,0.0-6.63-0.63,0.0,71.0,,,,,,,[],,,,,,56.4,1.0,i,1.0,True,832.0,50.0,60.0,40.0,False,,242.33707732067836,[],"[873, 491.5]",ColorTask,40.0,64.0,,,HRV,HRV_0190,2022-11-30 18:45:37
,wl-rdm,72,235962,0.0-6.64-0.64,0.0,72.0,,,,,,,[],,,,,,62.5,0.0,u,0.0,True,1667.6000000238419,101.0,60.0,40.0,False,,262.13506792871215,[],"[873, 491.5]",ColorTask,41.0,65.0,,,HRV,HRV_0190,2022-11-30 18:45:37
,wl-rdm,73,237946,0.0-6.65-0.65,0.0,73.0,,,,,,,[],,,,,,73.6,1.0,i,1.0,True,558.4000000059605,34.0,60.0,40.0,False,,336.0336596468147,[],"[873, 491.5]",ColorTask,42.0,66.0,,,HRV,HRV_0190,2022-11-30 18:45:37
,wl-rdm,74,241862,0.0-6.66-0.66,0.0,74.0,,,,,,,[],,,,,,50.0,0.0,u,0.0,True,2436.199999988079,147.0,60.0,40.0,False,,386.96711931183154,[],"[873, 491.5]",ColorTask,43.0,67.0,,,HRV,HRV_0190,2022-11-30 18:45:37
,wl-rdm,75,243879,0.0-6.67-0.67,0.0,75.0,,,,,,,[],,,,,,62.5,0.0,u,0.0,True,724.7999999821186,44.0,60.0,40.0,False,,215.68851070996854,[],"[873, 491.5]",ColorTask,44.0,68.0,,,HRV,HRV_0190,2022-11-30 18:45:37
,wl-rdm,76,245612,0.0-6.68-0.68,0.0,76.0,,,,,,,[],,,,,,87.9,0.0,u,0.0,True,441.90000000596046,27.0,60.0,40.0,False,,212.01437837478866,[],"[873, 491.5]",ColorTask,45.0,69.0,,,HRV,HRV_0190,2022-11-30 18:45:37
,wl-rdm,77,248479,0.0-6.69-0.69,0.0,77.0,,,,,,,[],,,,,,62.5,1.0,i,1.0,True,1400.699999988079,85.0,60.0,40.0,False,,387.1014949863623,[],"[873, 491.5]",ColorTask,46.0,70.0,,,HRV,HRV_0190,2022-11-30 18:45:37
,wl-rdm,78,251779,0.0-6.70-0.70,0.0,78.0,,,,,,,[],,,,,,62.5,1.0,i,1.0,True,1968.7999999821186,119.0,60.0,40.0,False,,248.26430188370642,[],"[873, 491.5]",ColorTask,47.0,71.0,,,HRV,HRV_0190,2022-11-30 18:45:37
,wl-rdm,79,255762,0.0-6.71-0.71,0.0,79.0,,,,,,,[],,,,,,56.4,1.0,i,1.0,True,2611.5999999940395,157.0,60.0,40.0,False,,298.37087894479384,[],"[873, 491.5]",ColorTask,48.0,72.0,,,HRV,HRV_0190,2022-11-30 18:45:37
,wl-rdm,80,259346,0.0-6.72-0.72,0.0,80.0,,,,,,,[],,,,,,56.4,1.0,u,0.0,False,2217.0999999940395,134.0,60.0,40.0,False,,274.2989868274352,[],"[873, 491.5]",ColorTask,47.0,73.0,,,HRV,HRV_0190,2022-11-30 18:45:37
,wl-rdm,81,262279,0.0-6.73-0.73,0.0,81.0,,,,,,,[],,,,,,62.5,0.0,u,0.0,True,1549.199999988079,93.0,60.0,40.0,False,,303.5944150524117,[],"[873, 491.5]",ColorTask,48.0,74.0,,,HRV,HRV_0190,2022-11-30 18:45:37
,wl-rdm,82,265063,0.0-6.74-0.74,0.0,82.0,,,,,,,[],,,,,,62.5,0.0,u,0.0,True,1437.0,87.0,60.0,40.0,False,,257.49672810654374,[],"[873, 491.5]",ColorTask,49.0,75.0,,,HRV,HRV_0190,2022-11-30 18:45:37
,wl-rdm,83,269146,0.0-6.75-0.75,0.0,83.0,,,,,,,[],,,,,,50.0,1.0,i,1.0,True,2625.2999999821186,158.0,60.0,40.0,False,,389.1504301477019,[],"[873, 491.5]",ColorTask,50.0,76.0,,,HRV,HRV_0190,2022-11-30 18:45:37
,wl-rdm,84,271379,0.0-6.76-0.76,0.0,84.0,,,,,,,[],,,,,,73.6,0.0,u,0.0,True,921.5999999940395,56.0,60.0,40.0,False,,224.77300262709048,[],"[873, 491.5]",ColorTask,51.0,77.0,,,HRV,HRV_0190,2022-11-30 18:45:37
,wl-rdm,85,274829,0.0-6.77-0.77,0.0,85.0,,,,,,,[],,,,,,56.4,1.0,i,1.0,True,1985.5999999940395,120.0,60.0,40.0,False,,384.9843962599484,[],"[873, 491.5]",ColorTask,52.0,78.0,,,HRV,HRV_0190,2022-11-30 18:45:37
,wl-rdm,86,279313,0.0-6.78-0.78,0.0,85.0,,,,,,,[],,,,,,53.2,0.0,u,,,3225.5,179.0,60.0,40.0,True,RT_timeout ,390.0874695034952,[],"[873, 491.5]",ColorTask,51.0,79.0,,,HRV,HRV_0190,2022-11-30 18:45:37
,wl-rdm,87,281496,0.0-6.79-0.79,0.0,86.0,,,,,,,[],,,,,,73.6,0.0,u,0.0,True,798.7999999821186,48.0,60.0,40.0,False,,316.61000305721655,[],"[873, 491.5]",ColorTask,52.0,80.0,,,HRV,HRV_0190,2022-11-30 18:45:37
,wl-rdm,88,284629,0.0-6.80-0.80,0.0,87.0,,,,,,,[],,,,,,50.0,1.0,i,1.0,True,1813.7999999821186,109.0,60.0,40.0,False,,237.66612631304037,[],"[873, 491.5]",ColorTask,53.0,81.0,,,HRV,HRV_0190,2022-11-30 18:45:37
,wl-rdm,89,286613,0.0-6.81-0.81,0.0,88.0,,,,,,,[],,,,,,73.6,1.0,i,1.0,True,578.4000000059605,35.0,60.0,40.0,False,,338.0146806463257,[],"[873, 491.5]",ColorTask,54.0,82.0,,,HRV,HRV_0190,2022-11-30 18:45:37
,wl-rdm,90,288663,0.0-6.82-0.82,0.0,89.0,,,,,,,[],,,,,,62.5,0.0,u,0.0,True,718.5999999940395,44.0,60.0,40.0,False,,259.32529156469343,[],"[873, 491.5]",ColorTask,55.0,83.0,,,HRV,HRV_0190,2022-11-30 18:45:37
,wl-rdm,91,290596,0.0-6.83-0.83,0.0,90.0,,,,,,,[],,,,,,56.4,0.0,u,0.0,True,474.7999999821186,29.0,60.0,40.0,False,,375.5227371152839,[],"[873, 491.5]",ColorTask,56.0,84.0,,,HRV,HRV_0190,2022-11-30 18:45:37
,wl-rdm,92,292546,0.0-6.84-0.84,0.0,91.0,,,,,,,[],,,,,,50.0,1.0,u,0.0,False,573.0,35.0,60.0,40.0,False,,311.1467723984962,[],"[873, 491.5]",ColorTask,55.0,85.0,,,HRV,HRV_0190,2022-11-30 18:45:37
,wl-rdm,93,295496,0.0-6.85-0.85,0.0,92.0,,,,,,,[],,,,,,53.2,0.0,u,0.0,True,1507.0,91.0,60.0,40.0,False,,364.5517145966191,[],"[873, 491.5]",ColorTask,56.0,86.0,,,HRV,HRV_0190,2022-11-30 18:45:37
,wl-rdm,94,297546,0.0-6.86-0.86,0.0,93.0,,,,,,,[],,,,,,87.9,1.0,i,1.0,True,655.1999999880791,40.0,60.0,40.0,False,,307.8914893486077,[],"[873, 491.5]",ColorTask,57.0,87.0,,,HRV,HRV_0190,2022-11-30 18:45:37
,wl-rdm,95,299813,0.0-6.87-0.87,0.0,94.0,,,,,,,[],,,,,,73.6,1.0,i,1.0,True,860.3999999761581,52.0,60.0,40.0,False,,333.0182296681552,[],"[873, 491.5]",ColorTask,58.0,88.0,,,HRV,HRV_0190,2022-11-30 18:45:37
,wl-rdm,96,302346,0.0-6.88-0.88,0.0,95.0,,,,,,,[],,,,,,73.6,1.0,i,1.0,True,1064.9000000059605,64.0,60.0,40.0,False,,387.79421623151836,[],"[873, 491.5]",ColorTask,59.0,89.0,,,HRV,HRV_0190,2022-11-30 18:45:37
,wl-rdm,97,305380,0.0-6.89-0.89,0.0,96.0,,,,,,,[],,,,,,56.4,1.0,i,1.0,True,1729.5,104.0,60.0,40.0,False,,231.35844469036982,[],"[873, 491.5]",ColorTask,60.0,90.0,,,HRV,HRV_0190,2022-11-30 18:45:37
,wl-rdm,98,307680,0.0-6.90-0.90,0.0,97.0,,,,,,,[],,,,,,73.6,0.0,u,0.0,True,846.8000000119209,51.0,60.0,40.0,False,,382.60834371471236,[],"[873, 491.5]",ColorTask,61.0,91.0,,,HRV,HRV_0190,2022-11-30 18:45:37
,wl-rdm,99,310346,0.0-6.91-0.91,0.0,98.0,,,,,,,[],,,,,,56.4,0.0,u,0.0,True,1270.1000000238419,77.0,60.0,40.0,False,,332.98183284919935,[],"[873, 491.5]",ColorTask,62.0,92.0,,,HRV,HRV_0190,2022-11-30 18:45:37
,wl-rdm,100,313213,0.0-6.92-0.92,0.0,99.0,,,,,,,[],,,,,,50.0,0.0,i,1.0,False,1572.0,95.0,60.0,40.0,False,,214.13944795049932,[],"[873, 491.5]",ColorTask,61.0,93.0,,,HRV,HRV_0190,2022-11-30 18:45:37
,wl-rdm,101,315313,0.0-6.93-0.93,0.0,100.0,,,,,,,[],,,,,,50.0,0.0,u,0.0,True,815.5,49.0,60.0,40.0,False,,220.0475465283489,[],"[873, 491.5]",ColorTask,62.0,94.0,,,HRV,HRV_0190,2022-11-30 18:45:37
,wl-rdm,102,317546,0.0-6.94-0.94,0.0,101.0,,,,,,,[],,,,,,53.2,0.0,u,0.0,True,761.0,46.0,60.0,40.0,False,,394.99802721592266,[],"[873, 491.5]",ColorTask,63.0,95.0,,,HRV,HRV_0190,2022-11-30 18:45:37
,wl-rdm,103,320796,0.0-6.95-0.95,0.0,102.0,,,,,,,[],,,,,,53.2,1.0,i,1.0,True,1887.199999988079,114.0,60.0,40.0,False,,277.95836078015986,[],"[873, 491.5]",ColorTask,64.0,96.0,,,HRV,HRV_0190,2022-11-30 18:45:37
,wl-rdm,104,324696,0.0-6.96-0.96,0.0,103.0,,,,,,,[],,,,,,56.4,0.0,i,1.0,False,2472.5999999940395,149.0,60.0,40.0,False,,341.49469904333864,[],"[873, 491.5]",ColorTask,63.0,97.0,,,HRV,HRV_0190,2022-11-30 18:45:37
,wl-rdm,105,327396,0.0-6.97-0.97,0.0,104.0,,,,,,,[],,,,,,50.0,1.0,u,0.0,False,1251.9000000059605,76.0,60.0,40.0,False,,357.9538287388076,[],"[873, 491.5]",ColorTask,62.0,98.0,,,HRV,HRV_0190,2022-11-30 18:45:37
,wl-rdm,106,329530,0.0-6.98-0.98,0.0,105.0,,,,,,,[],,,,,,73.6,1.0,i,1.0,True,776.0999999940395,47.0,60.0,40.0,False,,269.17523226137405,[],"[873, 491.5]",ColorTask,63.0,99.0,,,HRV,HRV_0190,2022-11-30 18:45:37
,wl-rdm,107,332880,0.0-6.99-0.99,0.0,106.0,,,,,,,[],,,,,,50.0,0.0,u,0.0,True,2014.9000000059605,121.0,60.0,40.0,False,,282.91387325523516,[],"[873, 491.5]",ColorTask,64.0,100.0,,,HRV,HRV_0190,2022-11-30 18:45:37
,wl-rdm,108,335813,0.0-6.100-0.100,0.0,107.0,,,,,,,[],,,,,,50.0,0.0,i,1.0,False,1619.300000011921,98.0,60.0,40.0,False,,227.99837565512485,[],"[873, 491.5]",ColorTask,63.0,101.0,,,HRV,HRV_0190,2022-11-30 18:45:37
,wl-rdm,109,338113,0.0-6.101-0.101,0.0,108.0,,,,,,,[],,,,,,53.2,0.0,u,0.0,True,984.5999999940395,60.0,60.0,40.0,False,,225.8552643423178,[],"[873, 491.5]",ColorTask,64.0,102.0,,,HRV,HRV_0190,2022-11-30 18:45:37
,wl-rdm,110,340396,0.0-6.102-0.102,0.0,109.0,,,,,,,[],,,,,,62.5,1.0,i,1.0,True,956.8999999761581,58.0,60.0,40.0,False,,247.96097730127002,[],"[873, 491.5]",ColorTask,65.0,103.0,,,HRV,HRV_0190,2022-11-30 18:45:37
,wl-rdm,111,343580,0.0-6.103-0.103,0.0,110.0,,,,,,,[],,,,,,53.2,0.0,u,0.0,True,1740.699999988079,105.0,60.0,40.0,False,,361.18265274762337,[],"[873, 491.5]",ColorTask,66.0,104.0,,,HRV,HRV_0190,2022-11-30 18:45:37
,wl-rdm,112,345513,0.0-6.104-0.104,0.0,111.0,,,,,,,[],,,,,,87.9,1.0,i,1.0,True,597.5,36.0,60.0,40.0,False,,256.3550219123702,[],"[873, 491.5]",ColorTask,67.0,105.0,,,HRV,HRV_0190,2022-11-30 18:45:37
,wl-rdm,113,348963,0.0-6.105-0.105,0.0,112.0,,,,,,,[],,,,,,53.2,1.0,i,1.0,True,2087.0999999940395,126.0,60.0,40.0,False,,282.19076900603034,[],"[873, 491.5]",ColorTask,68.0,106.0,,,HRV,HRV_0190,2022-11-30 18:45:37
,wl-rdm,114,351413,0.0-6.106-0.106,0.0,113.0,,,,,,,[],,,,,,62.5,0.0,u,0.0,True,1059.0999999940395,64.0,60.0,40.0,False,,312.448238493295,[],"[873, 491.5]",ColorTask,69.0,107.0,,,HRV,HRV_0190,2022-11-30 18:45:37
,wl-rdm,115,355263,0.0-6.107-0.107,0.0,114.0,,,,,,,[],,,,,,50.0,0.0,i,1.0,False,2371.5,143.0,60.0,40.0,False,,390.7679072262754,[],"[873, 491.5]",ColorTask,68.0,108.0,,,HRV,HRV_0190,2022-11-30 18:45:37
,wl-rdm,116,357596,0.0-6.108-0.108,0.0,115.0,,,,,,,[],,,,,,87.9,1.0,i,1.0,True,1040.7999999821186,63.0,60.0,40.0,False,,208.5225979931501,[],"[873, 491.5]",ColorTask,69.0,109.0,,,HRV,HRV_0190,2022-11-30 18:45:37
,wl-rdm,117,359496,0.0-6.109-0.109,0.0,116.0,,,,,,,[],,,,,,87.9,0.0,u,0.0,True,605.8000000119209,37.0,60.0,40.0,False,,221.69938352245623,[],"[873, 491.5]",ColorTask,70.0,110.0,,,HRV,HRV_0190,2022-11-30 18:45:37
,wl-html-keyboard-response,118,371433,0.0-7.0-0.0,1.0,117.0,,,,,,,,9932.90000000596,1.0,0,,,,,,,,,,,,,,,,,,,,,,HRV,HRV_0190,2022-11-30 18:45:37
,wl-rdm,119,373830,0.0-8.0-0.0,1.0,118.0,,,,,,,[],,,,,,62.5,0.0,u,0.0,True,937.4000000059605,57.0,60.0,40.0,False,,377.4421592921009,[],"[873, 491.5]",ColorTask,71.0,1.0,,,HRV,HRV_0190,2022-11-30 18:45:37
,wl-rdm,120,376346,0.0-8.1-0.1,1.0,119.0,,,,,,,[],,,,,,50.0,1.0,u,0.0,False,1123.0999999940395,68.0,60.0,40.0,False,,308.04634488772217,[],"[873, 491.5]",ColorTask,70.0,2.0,,,HRV,HRV_0190,2022-11-30 18:45:37
,wl-rdm,121,378730,0.0-8.2-0.2,1.0,120.0,,,,,,,[],,,,,,53.2,1.0,i,1.0,True,1051.199999988079,64.0,60.0,40.0,False,,241.8605767271365,[],"[873, 491.5]",ColorTask,71.0,3.0,,,HRV,HRV_0190,2022-11-30 18:45:37
,wl-rdm,122,380830,0.0-8.3-0.3,1.0,121.0,,,,,,,[],,,,,,87.9,0.0,u,0.0,True,625.8000000119209,38.0,60.0,40.0,False,,394.1263165254064,[],"[873, 491.5]",ColorTask,72.0,4.0,,,HRV,HRV_0190,2022-11-30 18:45:37
,wl-rdm,123,383113,0.0-8.4-0.4,1.0,122.0,,,,,,,[],,,,,,73.6,1.0,i,1.0,True,821.8000000119209,50.0,60.0,40.0,False,,384.6009598403235,[],"[873, 491.5]",ColorTask,73.0,5.0,,,HRV,HRV_0190,2022-11-30 18:45:37
,wl-rdm,124,386430,0.0-8.5-0.5,1.0,123.0,,,,,,,[],,,,,,50.0,1.0,u,0.0,False,1921.0999999940395,116.0,60.0,40.0,False,,324.89006247277393,[],"[873, 491.5]",ColorTask,72.0,6.0,,,HRV,HRV_0190,2022-11-30 18:45:37
,wl-rdm,125,389380,0.0-8.6-0.6,1.0,124.0,,,,,,,[],,,,,,56.4,0.0,u,0.0,True,1578.9000000059605,95.0,60.0,40.0,False,,291.5144776747654,[],"[873, 491.5]",ColorTask,73.0,7.0,,,HRV,HRV_0190,2022-11-30 18:45:37
,wl-rdm,126,391663,0.0-8.7-0.7,1.0,125.0,,,,,,,[],,,,,,62.5,0.0,u,0.0,True,974.9000000059605,59.0,60.0,40.0,False,,237.61048957864307,[],"[873, 491.5]",ColorTask,74.0,8.0,,,HRV,HRV_0190,2022-11-30 18:45:37
,wl-rdm,127,394413,0.0-8.8-0.8,1.0,126.0,,,,,,,[],,,,,,53.2,1.0,i,1.0,True,1472.800000011921,89.0,60.0,40.0,False,,210.10429950602526,[],"[873, 491.5]",ColorTask,75.0,9.0,,,HRV,HRV_0190,2022-11-30 18:45:37
,wl-rdm,128,396613,0.0-8.9-0.9,1.0,127.0,,,,,,,[],,,,,,56.4,0.0,u,0.0,True,886.0999999940395,54.0,60.0,40.0,False,,224.32636309477894,[],"[873, 491.5]",ColorTask,76.0,10.0,,,HRV,HRV_0190,2022-11-30 18:45:37
,wl-rdm,129,399563,0.0-8.10-0.10,1.0,128.0,,,,,,,[],,,,,,56.4,0.0,u,0.0,True,1614.0999999940395,97.0,60.0,40.0,False,,270.87847771201143,[],"[873, 491.5]",ColorTask,77.0,11.0,,,HRV,HRV_0190,2022-11-30 18:45:37
,wl-rdm,130,401647,0.0-8.11-0.11,1.0,129.0,,,,,,,[],,,,,,73.6,0.0,u,0.0,True,693.7000000178814,42.0,60.0,40.0,False,,312.6154019003152,[],"[873, 491.5]",ColorTask,78.0,12.0,,,HRV,HRV_0190,2022-11-30 18:45:37
,wl-rdm,131,404863,0.0-8.12-0.12,1.0,130.0,,,,,,,[],,,,,,56.4,0.0,u,0.0,True,1764.7000000178814,106.0,60.0,40.0,False,,367.8653405025617,[],"[873, 491.5]",ColorTask,79.0,13.0,,,HRV,HRV_0190,2022-11-30 18:45:37
,wl-rdm,132,407397,0.0-8.13-0.13,1.0,131.0,,,,,,,[],,,,,,62.5,0.0,u,0.0,True,1235.699999988079,75.0,60.0,40.0,False,,215.59512651171337,[],"[873, 491.5]",ColorTask,80.0,14.0,,,HRV,HRV_0190,2022-11-30 18:45:37
,wl-rdm,133,410297,0.0-8.14-0.14,1.0,132.0,,,,,,,[],,,,,,73.6,0.0,u,0.0,True,1461.2000000178814,88.0,60.0,40.0,False,,351.97985230587915,[],"[873, 491.5]",ColorTask,81.0,15.0,,,HRV,HRV_0190,2022-11-30 18:45:37
,wl-rdm,134,413130,0.0-8.15-0.15,1.0,133.0,,,,,,,[],,,,,,62.5,1.0,i,1.0,True,1547.300000011921,93.0,60.0,40.0,False,,216.49396687844524,[],"[873, 491.5]",ColorTask,82.0,16.0,,,HRV,HRV_0190,2022-11-30 18:45:37
,wl-rdm,135,416263,0.0-8.16-0.16,1.0,134.0,,,,,,,[],,,,,,56.4,0.0,u,0.0,True,1829.4000000059605,110.0,60.0,40.0,False,,217.59368194672118,[],"[873, 491.5]",ColorTask,83.0,17.0,,,HRV,HRV_0190,2022-11-30 18:45:37
,wl-rdm,136,419580,0.0-8.17-0.17,1.0,135.0,,,,,,,[],,,,,,53.2,1.0,u,0.0,False,1949.300000011921,117.0,60.0,40.0,False,,286.45807394587564,[],"[873, 491.5]",ColorTask,82.0,18.0,,,HRV,HRV_0190,2022-11-30 18:45:37
,wl-rdm,137,422897,0.0-8.18-0.18,1.0,136.0,,,,,,,[],,,,,,53.2,1.0,i,1.0,True,1877.199999988079,113.0,60.0,40.0,False,,372.68820410253613,[],"[873, 491.5]",ColorTask,83.0,19.0,,,HRV,HRV_0190,2022-11-30 18:45:37
,wl-rdm,138,425880,0.0-8.19-0.19,1.0,137.0,,,,,,,[],,,,,,50.0,0.0,i,1.0,False,1687.300000011921,102.0,60.0,40.0,False,,200.42358204763,[],"[873, 491.5]",ColorTask,82.0,20.0,,,HRV,HRV_0190,2022-11-30 18:45:37
,wl-rdm,139,429280,0.0-8.20-0.20,1.0,138.0,,,,,,,[],,,,,,56.4,1.0,u,0.0,False,2106.9000000059605,127.0,60.0,40.0,False,,207.11843590145114,[],"[873, 491.5]",ColorTask,81.0,21.0,,,HRV,HRV_0190,2022-11-30 18:45:37
,wl-rdm,140,432130,0.0-8.21-0.21,1.0,139.0,,,,,,,[],,,,,,53.2,0.0,i,1.0,False,1493.0999999940395,90.0,60.0,40.0,False,,279.04683160593777,[],"[873, 491.5]",ColorTask,80.0,22.0,,,HRV,HRV_0190,2022-11-30 18:45:37
,wl-rdm,141,434230,0.0-8.22-0.22,1.0,140.0,,,,,,,[],,,,,,73.6,1.0,i,1.0,True,779.6000000238419,47.0,60.0,40.0,False,,245.7977917032071,[],"[873, 491.5]",ColorTask,81.0,23.0,,,HRV,HRV_0190,2022-11-30 18:45:37
,wl-rdm,142,436080,0.0-8.23-0.23,1.0,141.0,,,,,,,[],,,,,,73.6,1.0,i,1.0,True,551.0,34.0,60.0,40.0,False,,205.65269436756114,[],"[873, 491.5]",ColorTask,82.0,24.0,,,HRV,HRV_0190,2022-11-30 18:45:37
,wl-rdm,143,438896,0.0-8.24-0.24,1.0,142.0,,,,,,,[],,,,,,56.4,1.0,i,1.0,True,1375.800000011921,83.0,60.0,40.0,False,,365.98108838512553,[],"[873, 491.5]",ColorTask,83.0,25.0,,,HRV,HRV_0190,2022-11-30 18:45:37
,wl-rdm,144,441296,0.0-8.25-0.25,1.0,143.0,,,,,,,[],,,,,,73.6,1.0,i,1.0,True,967.1000000238419,59.0,60.0,40.0,False,,337.7649008069627,[],"[873, 491.5]",ColorTask,84.0,26.0,,,HRV,HRV_0190,2022-11-30 18:45:37
,wl-rdm,145,444780,0.0-8.26-0.26,1.0,144.0,,,,,,,[],,,,,,53.2,0.0,u,0.0,True,2077.4000000059605,125.0,60.0,40.0,False,,320.5259061021709,[],"[873, 491.5]",ColorTask,85.0,27.0,,,HRV,HRV_0190,2022-11-30 18:45:37
,wl-rdm,146,448180,0.0-8.27-0.27,1.0,145.0,,,,,,,[],,,,,,53.2,0.0,u,0.0,True,1984.199999988079,120.0,60.0,40.0,False,,319.3043507250498,[],"[873, 491.5]",ColorTask,86.0,28.0,,,HRV,HRV_0190,2022-11-30 18:45:37
,wl-rdm,147,451030,0.0-8.28-0.28,1.0,146.0,,,,,,,[],,,,,,50.0,1.0,i,1.0,True,1528.7000000178814,92.0,60.0,40.0,False,,254.27046652721626,[],"[873, 491.5]",ColorTask,87.0,29.0,,,HRV,HRV_0190,2022-11-30 18:45:37
,wl-rdm,148,453430,0.0-8.29-0.29,1.0,147.0,,,,,,,[],,,,,,62.5,1.0,i,1.0,True,1098.0999999940395,66.0,60.0,40.0,False,,228.46485028499217,[],"[873, 491.5]",ColorTask,88.0,30.0,,,HRV,HRV_0190,2022-11-30 18:45:37
,wl-rdm,149,455347,0.0-8.30-0.30,1.0,148.0,,,,,,,[],,,,,,87.9,0.0,u,0.0,True,618.7000000178814,38.0,60.0,40.0,False,,210.00413429676308,[],"[873, 491.5]",ColorTask,89.0,31.0,,,HRV,HRV_0190,2022-11-30 18:45:37
,wl-rdm,150,457297,0.0-8.31-0.31,1.0,149.0,,,,,,,[],,,,,,87.9,0.0,u,0.0,True,565.0,34.0,60.0,40.0,False,,302.8888706745628,[],"[873, 491.5]",ColorTask,90.0,32.0,,,HRV,HRV_0190,2022-11-30 18:45:37
,wl-rdm,151,460213,0.0-8.32-0.32,1.0,150.0,,,,,,,[],,,,,,50.0,1.0,i,1.0,True,1552.300000011921,94.0,60.0,40.0,False,,278.5953335421149,[],"[873, 491.5]",ColorTask,91.0,33.0,,,HRV,HRV_0190,2022-11-30 18:45:37
,wl-rdm,152,462280,0.0-8.33-0.33,1.0,151.0,,,,,,,[],,,,,,87.9,0.0,u,0.0,True,782.2000000178814,47.0,60.0,40.0,False,,204.05563462661746,[],"[873, 491.5]",ColorTask,92.0,34.0,,,HRV,HRV_0190,2022-11-30 18:45:37
,wl-rdm,153,464097,0.0-8.34-0.34,1.0,152.0,,,,,,,[],,,,,,73.6,1.0,i,1.0,True,488.30000001192093,30.0,60.0,40.0,False,,237.15421108556112,[],"[873, 491.5]",ColorTask,93.0,35.0,,,HRV,HRV_0190,2022-11-30 18:45:37
,wl-rdm,154,466863,0.0-8.35-0.35,1.0,153.0,,,,,,,[],,,,,,50.0,0.0,i,1.0,False,1380.9000000059605,83.0,60.0,40.0,False,,300.34980343062216,[],"[873, 491.5]",ColorTask,92.0,36.0,,,HRV,HRV_0190,2022-11-30 18:45:37
,wl-rdm,155,469097,0.0-8.36-0.36,1.0,154.0,,,,,,,[],,,,,,73.6,0.0,u,0.0,True,789.3000000119209,48.0,60.0,40.0,False,,362.74763847524764,[],"[873, 491.5]",ColorTask,93.0,37.0,,,HRV,HRV_0190,2022-11-30 18:45:37
,wl-rdm,156,471230,0.0-8.37-0.37,1.0,155.0,,,,,,,[],,,,,,62.5,1.0,i,1.0,True,741.0,45.0,60.0,40.0,False,,311.35662876435987,[],"[873, 491.5]",ColorTask,94.0,38.0,,,HRV,HRV_0190,2022-11-30 18:45:37
,wl-rdm,157,474080,0.0-8.38-0.38,1.0,156.0,,,,,,,[],,,,,,50.0,0.0,i,1.0,False,1483.4000000059605,89.0,60.0,40.0,False,,287.5501301538784,[],"[873, 491.5]",ColorTask,93.0,39.0,,,HRV,HRV_0190,2022-11-30 18:45:37
,wl-rdm,158,476763,0.0-8.39-0.39,1.0,157.0,,,,,,,[],,,,,,56.4,0.0,u,0.0,True,1399.5999999940395,84.0,60.0,40.0,False,,213.39126122480525,[],"[873, 491.5]",ColorTask,94.0,40.0,,,HRV,HRV_0190,2022-11-30 18:45:37
,wl-rdm,159,479597,0.0-8.40-0.40,1.0,158.0,,,,,,,[],,,,,,53.2,1.0,i,1.0,True,1486.5999999940395,90.0,60.0,40.0,False,,281.2881176472998,[],"[873, 491.5]",ColorTask,95.0,41.0,,,HRV,HRV_0190,2022-11-30 18:45:37
,wl-rdm,160,481547,0.0-8.41-0.41,1.0,159.0,,,,,,,[],,,,,,87.9,1.0,i,1.0,True,544.0999999940395,33.0,60.0,40.0,False,,328.24193059255356,[],"[873, 491.5]",ColorTask,96.0,42.0,,,HRV,HRV_0190,2022-11-30 18:45:37
,wl-rdm,161,483597,0.0-8.42-0.42,1.0,160.0,,,,,,,[],,,,,,87.9,0.0,u,0.0,True,641.0999999940395,39.0,60.0,40.0,False,,324.8347826436902,[],"[873, 491.5]",ColorTask,97.0,43.0,,,HRV,HRV_0190,2022-11-30 18:45:37
,wl-rdm,162,485547,0.0-8.43-0.43,1.0,161.0,,,,,,,[],,,,,,87.9,0.0,u,0.0,True,596.0,36.0,60.0,40.0,False,,272.78699460738386,[],"[873, 491.5]",ColorTask,98.0,44.0,,,HRV,HRV_0190,2022-11-30 18:45:37
,wl-rdm,163,488497,0.0-8.44-0.44,1.0,162.0,,,,,,,[],,,,,,53.2,0.0,u,0.0,True,1528.800000011921,92.0,60.0,40.0,False,,362.98525900298654,[],"[873, 491.5]",ColorTask,99.0,45.0,,,HRV,HRV_0190,2022-11-30 18:45:37
,wl-rdm,164,491297,0.0-8.45-0.45,1.0,163.0,,,,,,,[],,,,,,53.2,1.0,u,0.0,False,1509.9000000059605,91.0,60.0,40.0,False,,201.48957682712938,[],"[873, 491.5]",ColorTask,98.0,46.0,,,HRV,HRV_0190,2022-11-30 18:45:37
,wl-rdm,165,493963,0.0-8.46-0.46,1.0,164.0,,,,,,,[],,,,,,53.2,0.0,u,0.0,True,1331.9000000357628,80.0,60.0,40.0,False,,252.9462528947435,[],"[873, 491.5]",ColorTask,99.0,47.0,,,HRV,HRV_0190,2022-11-30 18:45:37
,wl-rdm,166,496780,0.0-8.47-0.47,1.0,165.0,,,,,,,[],,,,,,62.5,0.0,u,0.0,True,1344.7000000178814,81.0,60.0,40.0,False,,398.5972998249015,[],"[873, 491.5]",ColorTask,100.0,48.0,,,HRV,HRV_0190,2022-11-30 18:45:37
,wl-rdm,167,499148,0.0-8.48-0.48,1.0,166.0,,,,,,,[],,,,,,56.4,1.0,i,1.0,True,1077.4000000059605,65.0,60.0,40.0,False,,208.17628011588357,[],"[873, 491.5]",ColorTask,101.0,49.0,,,HRV,HRV_0190,2022-11-30 18:45:37
,wl-rdm,168,502548,0.0-8.49-0.49,1.0,167.0,,,,,,,[],,,,,,50.0,1.0,u,0.0,False,2000.199999988079,120.0,60.0,40.0,False,,318.0119824959113,[],"[873, 491.5]",ColorTask,100.0,50.0,,,HRV,HRV_0190,2022-11-30 18:45:37
,wl-rdm,169,505681,0.0-8.50-0.50,1.0,168.0,,,,,,,[],,,,,,50.0,1.0,i,1.0,True,1740.0,105.0,60.0,40.0,False,,330.7737791336268,[],"[873, 491.5]",ColorTask,101.0,51.0,,,HRV,HRV_0190,2022-11-30 18:45:37
,wl-rdm,170,508131,0.0-8.51-0.51,1.0,169.0,,,,,,,[],,,,,,62.5,1.0,i,1.0,True,1048.6000000238419,63.0,60.0,40.0,False,,320.3378849545004,[],"[873, 491.5]",ColorTask,102.0,52.0,,,HRV,HRV_0190,2022-11-30 18:45:37
,wl-rdm,171,510714,0.0-8.52-0.52,1.0,170.0,,,,,,,[],,,,,,73.6,1.0,i,1.0,True,1100.699999988079,67.0,60.0,40.0,False,,388.5586225821156,[],"[873, 491.5]",ColorTask,103.0,53.0,,,HRV,HRV_0190,2022-11-30 18:45:37
,wl-rdm,172,513514,0.0-8.53-0.53,1.0,171.0,,,,,,,[],,,,,,62.5,1.0,i,1.0,True,1352.0999999940395,82.0,60.0,40.0,False,,365.93172153761896,[],"[873, 491.5]",ColorTask,104.0,54.0,,,HRV,HRV_0190,2022-11-30 18:45:37
,wl-rdm,173,515831,0.0-8.54-0.54,1.0,172.0,,,,,,,[],,,,,,62.5,0.0,u,0.0,True,1005.7000000178814,61.0,60.0,40.0,False,,237.5243621190625,[],"[873, 491.5]",ColorTask,105.0,55.0,,,HRV,HRV_0190,2022-11-30 18:45:37
,wl-rdm,174,518681,0.0-8.55-0.55,1.0,173.0,,,,,,,[],,,,,,53.2,1.0,u,0.0,False,1479.300000011921,89.0,60.0,40.0,False,,306.82707397015105,[],"[873, 491.5]",ColorTask,104.0,56.0,,,HRV,HRV_0190,2022-11-30 18:45:37
,wl-rdm,175,521031,0.0-8.56-0.56,1.0,174.0,,,,,,,[],,,,,,56.4,1.0,i,1.0,True,1071.4000000059605,65.0,60.0,40.0,False,,200.77844344568155,[],"[873, 491.5]",ColorTask,105.0,57.0,,,HRV,HRV_0190,2022-11-30 18:45:37
,wl-rdm,176,523081,0.0-8.57-0.57,1.0,175.0,,,,,,,[],,,,,,56.4,0.0,u,0.0,True,749.5,45.0,60.0,40.0,False,,230.3117786871816,[],"[873, 491.5]",ColorTask,106.0,58.0,,,HRV,HRV_0190,2022-11-30 18:45:37
,wl-rdm,177,525298,0.0-8.58-0.58,1.0,176.0,,,,,,,[],,,,,,73.6,0.0,u,0.0,True,920.6000000238419,56.0,60.0,40.0,False,,211.30887747680484,[],"[873, 491.5]",ColorTask,107.0,59.0,,,HRV,HRV_0190,2022-11-30 18:45:37
,wl-rdm,178,527331,0.0-8.59-0.59,1.0,177.0,,,,,,,[],,,,,,56.4,1.0,i,1.0,True,630.2000000178814,38.0,60.0,40.0,False,,342.2151081311579,[],"[873, 491.5]",ColorTask,108.0,60.0,,,HRV,HRV_0190,2022-11-30 18:45:37
,wl-rdm,179,529565,0.0-8.60-0.60,1.0,178.0,,,,,,,[],,,,,,53.2,1.0,i,1.0,True,804.9000000059605,49.0,60.0,40.0,False,,348.3476067799545,[],"[873, 491.5]",ColorTask,109.0,61.0,,,HRV,HRV_0190,2022-11-30 18:45:37
,wl-rdm,180,531465,0.0-8.61-0.61,1.0,179.0,,,,,,,[],,,,,,87.9,1.0,i,1.0,True,571.5,35.0,60.0,40.0,False,,238.19950343086975,[],"[873, 491.5]",ColorTask,110.0,62.0,,,HRV,HRV_0190,2022-11-30 18:45:37
,wl-rdm,181,534298,0.0-8.62-0.62,1.0,180.0,,,,,,,[],,,,,,50.0,0.0,u,0.0,True,1458.5,88.0,60.0,40.0,False,,294.8501583403021,[],"[873, 491.5]",ColorTask,111.0,63.0,,,HRV,HRV_0190,2022-11-30 18:45:37
,wl-rdm,182,536231,0.0-8.63-0.63,1.0,181.0,,,,,,,[],,,,,,73.6,1.0,i,1.0,True,618.8000000119209,38.0,60.0,40.0,False,,216.63853797052408,[],"[873, 491.5]",ColorTask,112.0,64.0,,,HRV,HRV_0190,2022-11-30 18:45:37
,wl-rdm,183,538648,0.0-8.64-0.64,1.0,182.0,,,,,,,[],,,,,,62.5,0.0,u,0.0,True,1122.300000011921,68.0,60.0,40.0,False,,211.22048749060085,[],"[873, 491.5]",ColorTask,113.0,65.0,,,HRV,HRV_0190,2022-11-30 18:45:37
,wl-rdm,184,541165,0.0-8.65-0.65,1.0,183.0,,,,,,,[],,,,,,50.0,0.0,u,0.0,True,1098.1000000238419,66.0,60.0,40.0,False,,348.0296914030928,[],"[873, 491.5]",ColorTask,114.0,66.0,,,HRV,HRV_0190,2022-11-30 18:45:37
,wl-rdm,185,543381,0.0-8.66-0.66,1.0,184.0,,,,,,,[],,,,,,50.0,1.0,u,0.0,False,829.7000000178814,50.0,60.0,40.0,False,,313.0968758424076,[],"[873, 491.5]",ColorTask,113.0,67.0,,,HRV,HRV_0190,2022-11-30 18:45:37
,wl-rdm,186,545815,0.0-8.67-0.67,1.0,185.0,,,,,,,[],,,,,,87.9,1.0,i,1.0,True,987.2000000178814,60.0,60.0,40.0,False,,353.717860543075,[],"[873, 491.5]",ColorTask,114.0,68.0,,,HRV,HRV_0190,2022-11-30 18:45:37
,wl-rdm,187,547681,0.0-8.68-0.68,1.0,186.0,,,,,,,[],,,,,,87.9,1.0,i,1.0,True,492.40000000596046,30.0,60.0,40.0,False,,288.36739267916903,[],"[873, 491.5]",ColorTask,115.0,69.0,,,HRV,HRV_0190,2022-11-30 18:45:37
,wl-rdm,188,549881,0.0-8.69-0.69,1.0,187.0,,,,,,,[],,,,,,62.5,0.0,u,0.0,True,829.7000000178814,50.0,60.0,40.0,False,,288.46600186432124,[],"[873, 491.5]",ColorTask,116.0,70.0,,,HRV,HRV_0190,2022-11-30 18:45:37
,wl-rdm,189,553131,0.0-8.70-0.70,1.0,188.0,,,,,,,[],,,,,,56.4,1.0,u,0.0,False,1928.1000000238419,116.0,60.0,40.0,False,,255.11971620200245,[],"[873, 491.5]",ColorTask,115.0,71.0,,,HRV,HRV_0190,2022-11-30 18:45:37
,wl-rdm,190,556131,0.0-8.71-0.71,1.0,189.0,,,,,,,[],,,,,,62.5,1.0,i,1.0,True,1615.1000000238419,97.0,60.0,40.0,False,,316.0504770768189,[],"[873, 491.5]",ColorTask,116.0,72.0,,,HRV,HRV_0190,2022-11-30 18:45:37
,wl-rdm,191,558248,0.0-8.72-0.72,1.0,190.0,,,,,,,[],,,,,,87.9,1.0,i,1.0,True,702.2999999821186,43.0,60.0,40.0,False,,327.8534559049582,[],"[873, 491.5]",ColorTask,117.0,73.0,,,HRV,HRV_0190,2022-11-30 18:45:37
,wl-rdm,192,561065,0.0-8.73-0.73,1.0,191.0,,,,,,,[],,,,,,50.0,0.0,u,0.0,True,1489.0999999940395,90.0,60.0,40.0,False,,245.75980938228457,[],"[873, 491.5]",ColorTask,118.0,74.0,,,HRV,HRV_0190,2022-11-30 18:45:37
,wl-rdm,193,563198,0.0-8.74-0.74,1.0,192.0,,,,,,,[],,,,,,56.4,0.0,u,0.0,True,749.5999999940395,45.0,60.0,40.0,False,,305.90608034121095,[],"[873, 491.5]",ColorTask,119.0,75.0,,,HRV,HRV_0190,2022-11-30 18:45:37
,wl-rdm,194,565281,0.0-8.75-0.75,1.0,193.0,,,,,,,[],,,,,,87.9,1.0,i,1.0,True,628.7000000178814,38.0,60.0,40.0,False,,368.9314006371078,[],"[873, 491.5]",ColorTask,120.0,76.0,,,HRV,HRV_0190,2022-11-30 18:45:37
,wl-rdm,195,569031,0.0-8.76-0.76,1.0,194.0,,,,,,,[],,,,,,56.4,1.0,u,0.0,False,2411.300000011921,145.0,60.0,40.0,False,,276.29682302377694,[],"[873, 491.5]",ColorTask,119.0,77.0,,,HRV,HRV_0190,2022-11-30 18:45:37
,wl-rdm,196,570998,0.0-8.77-0.77,1.0,195.0,,,,,,,[],,,,,,87.9,0.0,u,0.0,True,638.0,39.0,60.0,40.0,False,,260.853639995376,[],"[873, 491.5]",ColorTask,120.0,78.0,,,HRV,HRV_0190,2022-11-30 18:45:37
,wl-rdm,197,573181,0.0-8.78-0.78,1.0,196.0,,,,,,,[],,,,,,50.0,0.0,u,0.0,True,825.7000000178814,50.0,60.0,40.0,False,,268.5470648056992,[],"[873, 491.5]",ColorTask,121.0,79.0,,,HRV,HRV_0190,2022-11-30 18:45:37
,wl-rdm,198,575498,0.0-8.79-0.79,1.0,197.0,,,,,,,[],,,,,,73.6,0.0,u,0.0,True,955.3000000119209,58.0,60.0,40.0,False,,281.9899116980714,[],"[873, 491.5]",ColorTask,122.0,80.0,,,HRV,HRV_0190,2022-11-30 18:45:37
,wl-rdm,199,577664,0.0-8.80-0.80,1.0,198.0,,,,,,,[],,,,,,73.6,1.0,i,1.0,True,824.1999999880791,50.0,60.0,40.0,False,,262.87874804853874,[],"[873, 491.5]",ColorTask,123.0,81.0,,,HRV,HRV_0190,2022-11-30 18:45:37
,wl-rdm,200,579631,0.0-8.81-0.81,1.0,199.0,,,,,,,[],,,,,,50.0,1.0,i,1.0,True,638.3000000119209,39.0,60.0,40.0,False,,246.14788486778258,[],"[873, 491.5]",ColorTask,124.0,82.0,,,HRV,HRV_0190,2022-11-30 18:45:37
,wl-rdm,201,581998,0.0-8.82-0.82,1.0,200.0,,,,,,,[],,,,,,53.2,0.0,u,0.0,True,1032.7999999821186,62.0,60.0,40.0,False,,256.1053985130395,[],"[873, 491.5]",ColorTask,125.0,83.0,,,HRV,HRV_0190,2022-11-30 18:45:37
,wl-rdm,202,583964,0.0-8.83-0.83,1.0,201.0,,,,,,,[],,,,,,87.9,1.0,i,1.0,True,677.1999999880791,41.0,60.0,40.0,False,,202.42060230423175,[],"[873, 491.5]",ColorTask,126.0,84.0,,,HRV,HRV_0190,2022-11-30 18:45:37
,wl-rdm,203,586881,0.0-8.84-0.84,1.0,202.0,,,,,,,[],,,,,,53.2,1.0,i,1.0,True,1585.0999999940395,96.0,60.0,40.0,False,,235.82485205456732,[],"[873, 491.5]",ColorTask,127.0,85.0,,,HRV,HRV_0190,2022-11-30 18:45:37
,wl-rdm,204,589064,0.0-8.85-0.85,1.0,203.0,,,,,,,[],,,,,,62.5,0.0,u,0.0,True,732.0999999940395,44.0,60.0,40.0,False,,376.47161001996585,[],"[873, 491.5]",ColorTask,128.0,86.0,,,HRV,HRV_0190,2022-11-30 18:45:37
,wl-rdm,205,592631,0.0-8.86-0.86,1.0,204.0,,,,,,,[],,,,,,62.5,1.0,i,1.0,True,2279.600000023842,137.0,60.0,40.0,False,,211.89629303911207,[],"[873, 491.5]",ColorTask,129.0,87.0,,,HRV,HRV_0190,2022-11-30 18:45:37
,wl-rdm,206,594814,0.0-8.87-0.87,1.0,205.0,,,,,,,[],,,,,,50.0,1.0,u,0.0,False,704.3999999761581,43.0,60.0,40.0,False,,390.2236489512007,[],"[873, 491.5]",ColorTask,128.0,88.0,,,HRV,HRV_0190,2022-11-30 18:45:37
,wl-rdm,207,596848,0.0-8.88-0.88,1.0,206.0,,,,,,,[],,,,,,87.9,1.0,i,1.0,True,610.0999999940395,37.0,60.0,40.0,False,,342.4968446280303,[],"[873, 491.5]",ColorTask,129.0,89.0,,,HRV,HRV_0190,2022-11-30 18:45:37
,wl-rdm,208,599214,0.0-8.89-0.89,1.0,207.0,,,,,,,[],,,,,,73.6,1.0,i,1.0,True,949.0,57.0,60.0,40.0,False,,362.05964815002267,[],"[873, 491.5]",ColorTask,130.0,90.0,,,HRV,HRV_0190,2022-11-30 18:45:37
,wl-rdm,209,601331,0.0-8.90-0.90,1.0,208.0,,,,,,,[],,,,,,73.6,0.0,u,0.0,True,661.6999999880791,40.0,60.0,40.0,False,,378.0292519040916,[],"[873, 491.5]",ColorTask,131.0,91.0,,,HRV,HRV_0190,2022-11-30 18:45:37
,wl-rdm,210,603165,0.0-8.91-0.91,1.0,209.0,,,,,,,[],,,,,,87.9,0.0,u,0.0,True,525.2000000178814,32.0,60.0,40.0,False,,224.36103216924738,[],"[873, 491.5]",ColorTask,132.0,92.0,,,HRV,HRV_0190,2022-11-30 18:45:37
,wl-rdm,211,605248,0.0-8.92-0.92,1.0,210.0,,,,,,,[],,,,,,73.6,0.0,u,0.0,True,781.7000000178814,47.0,60.0,40.0,False,,224.91093312699533,[],"[873, 491.5]",ColorTask,133.0,93.0,,,HRV,HRV_0190,2022-11-30 18:45:37
,wl-rdm,212,607065,0.0-8.93-0.93,1.0,211.0,,,,,,,[],,,,,,87.9,0.0,u,0.0,True,522.1999999880791,32.0,60.0,40.0,False,,209.5816686880445,[],"[873, 491.5]",ColorTask,134.0,94.0,,,HRV,HRV_0190,2022-11-30 18:45:37
,wl-rdm,213,609715,0.0-8.94-0.94,1.0,212.0,,,,,,,[],,,,,,53.2,0.0,i,1.0,False,1244.699999988079,75.0,60.0,40.0,False,,322.5042585879429,[],"[873, 491.5]",ColorTask,133.0,95.0,,,HRV,HRV_0190,2022-11-30 18:45:37
,wl-rdm,214,612798,0.0-8.95-0.95,1.0,213.0,,,,,,,[],,,,,,62.5,1.0,i,1.0,True,1787.2999999821186,108.0,60.0,40.0,False,,206.01025358088557,[],"[873, 491.5]",ColorTask,134.0,96.0,,,HRV,HRV_0190,2022-11-30 18:45:37
,wl-rdm,215,615865,0.0-8.96-0.96,1.0,214.0,,,,,,,[],,,,,,56.4,1.0,i,1.0,True,1607.699999988079,97.0,60.0,40.0,False,,383.4861770963944,[],"[873, 491.5]",ColorTask,135.0,97.0,,,HRV,HRV_0190,2022-11-30 18:45:37
,wl-rdm,216,618498,0.0-8.97-0.97,1.0,215.0,,,,,,,[],,,,,,73.6,0.0,u,0.0,True,1286.7999999821186,78.0,60.0,40.0,False,,274.53404966584037,[],"[873, 491.5]",ColorTask,136.0,98.0,,,HRV,HRV_0190,2022-11-30 18:45:37
,wl-rdm,217,620848,0.0-8.98-0.98,1.0,216.0,,,,,,,[],,,,,,56.4,1.0,i,1.0,True,1034.800000011921,63.0,60.0,40.0,False,,240.16304742051494,[],"[873, 491.5]",ColorTask,137.0,99.0,,,HRV,HRV_0190,2022-11-30 18:45:37
,wl-rdm,218,623248,0.0-8.99-0.99,1.0,217.0,,,,,,,[],,,,,,62.5,0.0,u,0.0,True,945.1999999880791,57.0,60.0,40.0,False,,371.66697371448566,[],"[873, 491.5]",ColorTask,138.0,100.0,,,HRV,HRV_0190,2022-11-30 18:45:37
,wl-rdm,219,626248,0.0-8.100-0.100,1.0,218.0,,,,,,,[],,,,,,50.0,0.0,u,0.0,True,1536.5,93.0,60.0,40.0,False,,367.31754541289854,[],"[873, 491.5]",ColorTask,139.0,101.0,,,HRV,HRV_0190,2022-11-30 18:45:37
,wl-rdm,220,629281,0.0-8.101-0.101,1.0,219.0,,,,,,,[],,,,,,50.0,0.0,u,0.0,True,1616.0,97.0,60.0,40.0,False,,364.1592071159368,[],"[873, 491.5]",ColorTask,140.0,102.0,,,HRV,HRV_0190,2022-11-30 18:45:37
,wl-rdm,221,631298,0.0-8.102-0.102,1.0,220.0,,,,,,,[],,,,,,62.5,1.0,i,1.0,True,636.1999999880791,39.0,60.0,40.0,False,,297.94046942345494,[],"[873, 491.5]",ColorTask,141.0,103.0,,,HRV,HRV_0190,2022-11-30 18:45:37
,wl-rdm,222,633231,0.0-8.103-0.103,1.0,221.0,,,,,,,[],,,,,,73.6,0.0,u,0.0,True,625.1999999880791,38.0,60.0,40.0,False,,227.96186711715663,[],"[873, 491.5]",ColorTask,142.0,104.0,,,HRV,HRV_0190,2022-11-30 18:45:37
,wl-rdm,223,636631,0.0-8.104-0.104,1.0,222.0,,,,,,,[],,,,,,53.2,0.0,u,0.0,True,1998.8999999761581,120.0,60.0,40.0,False,,329.75571457535864,[],"[873, 491.5]",ColorTask,143.0,105.0,,,HRV,HRV_0190,2022-11-30 18:45:37
,wl-rdm,224,639548,0.0-8.105-0.105,1.0,223.0,,,,,,,[],,,,,,56.4,0.0,u,0.0,True,1472.7000000178814,89.0,60.0,40.0,False,,353.8419008658191,[],"[873, 491.5]",ColorTask,144.0,106.0,,,HRV,HRV_0190,2022-11-30 18:45:37
,wl-rdm,225,643131,0.0-8.106-0.106,1.0,224.0,,,,,,,[],,,,,,53.2,0.0,i,1.0,False,2235.0,135.0,60.0,40.0,False,,253.4960518629279,[],"[873, 491.5]",ColorTask,143.0,107.0,,,HRV,HRV_0190,2022-11-30 18:45:37
,wl-rdm,226,645315,0.0-8.107-0.107,1.0,225.0,,,,,,,[],,,,,,87.9,1.0,i,1.0,True,771.1999999880791,47.0,60.0,40.0,False,,324.08041943673464,[],"[873, 491.5]",ColorTask,144.0,108.0,,,HRV,HRV_0190,2022-11-30 18:45:37
,wl-html-button-response,227,647635,0.0-9.0-0.0,,,,,,,,,,2318.2999999821186,,0,,,,,,,,,,,,,,,,,,,,<h3>End of this session. Thank you!</h3><br>,['Close window'],HRV,HRV_0190,2022-11-30 18:45:37
