trialN,stimuli,trialStartTime,trialStartTime_UNIX,stimulus1,stimulus2,stimulus1Bid,stimulus2Bid,delta,selected,rt,rt_UNIX,rt_perfnow,receivedResponse,rsp,trialEndTime,trialDuration,trialEndTime_UNIX,trialDuration_UNIX,exp,subjectId,date
0,"[{'imgObject': {}, 'id': 'baked potato', 'src': '/static/foodstim60/baked potato.jpg', 'key': 'u', 'origWidth': 409, 'origHeight': 410, 'width': 409, 'height': 410, 'widthPercent': 0.45, 'rescaleHeight': False, 'trialN': 0, 'loaded': True, 'loadedTime': 1994.0999999940395, 'positionName': 'LEFT', 'positionCoords': [429.08, 286.5], 'bid': 1.86}, {'imgObject': {}, 'id': 'Tribe humus pita', 'src': '/static/foodstim60/Tribe humus pita.jpg', 'key': 'i', 'origWidth': 411, 'origHeight': 411, 'width': 411, 'height': 411, 'widthPercent': 0.45, 'rescaleHeight': False, 'trialN': 0, 'loaded': True, 'loadedTime': 2002.5, 'positionName': 'RIGHT', 'positionCoords': [907.92, 286], 'bid': 3.92}]",2287.5,1669832111327,baked potato,Tribe humus pita,1.86,3.92,2.0599999999999996,Tribe humus pita,1599.0999999940395,1599,1599.4000000059605,True,i,4411.700000017881,2124.2000000178814,1669832113451,2124,HRV,HRV_0190,2022-11-30 18:21:08
1,"[{'imgObject': {}, 'id': 'chickenfingers', 'src': '/static/foodstim60/chickenfingers.jpg', 'key': 'u', 'origWidth': 410, 'origHeight': 410, 'width': 410, 'height': 410, 'widthPercent': 0.45, 'rescaleHeight': False, 'trialN': 1, 'loaded': True, 'loadedTime': 2006.300000011921, 'positionName': 'LEFT', 'positionCoords': [428.08, 286.5], 'bid': 9}, {'imgObject': {}, 'id': 'bagel and cc', 'src': '/static/foodstim60/bagel and cc.jpg', 'key': 'i', 'origWidth': 410, 'origHeight': 410, 'width': 410, 'height': 410, 'widthPercent': 0.45, 'rescaleHeight': False, 'trialN': 1, 'loaded': True, 'loadedTime': 2007.5, 'positionName': 'RIGHT', 'positionCoords': [907.92, 286.5], 'bid': 5.64}]",4412.0,1669832113451,chickenfingers,bagel and cc,9.0,5.64,-3.3600000000000003,chickenfingers,952.5999999940395,953,952.9000000059605,True,u,5879.9000000059605,1467.9000000059605,1669832114919,1468,HRV,HRV_0190,2022-11-30 18:21:08
2,"[{'imgObject': {}, 'id': 'hotdog w must', 'src': '/static/foodstim60/hotdog w must.jpg', 'key': 'u', 'origWidth': 409, 'origHeight': 409, 'width': 409, 'height': 409, 'widthPercent': 0.45, 'rescaleHeight': False, 'trialN': 2, 'loaded': True, 'loadedTime': 2008.300000011921, 'positionName': 'LEFT', 'positionCoords': [429.08, 287], 'bid': 8.39}, {'imgObject': {}, 'id': 'baked potato', 'src': '/static/foodstim60/baked potato.jpg', 'key': 'i', 'origWidth': 409, 'origHeight': 410, 'width': 409, 'height': 410, 'widthPercent': 0.45, 'rescaleHeight': False, 'trialN': 2, 'loaded': True, 'loadedTime': 1994, 'positionName': 'RIGHT', 'positionCoords': [907.92, 286.5], 'bid': 1.86}]",5880.200000017881,1669832114920,hotdog w must,baked potato,8.39,1.86,-6.53,hotdog w must,957.3999999761581,957,957.6999999880791,True,u,7359.800000011921,1479.5999999940395,1669832116399,1479,HRV,HRV_0190,2022-11-30 18:21:08
3,"[{'imgObject': {}, 'id': 'raspberries', 'src': '/static/foodstim60/raspberries.jpg', 'key': 'u', 'origWidth': 411, 'origHeight': 411, 'width': 411, 'height': 411, 'widthPercent': 0.45, 'rescaleHeight': False, 'trialN': 3, 'loaded': True, 'loadedTime': 2012.4000000059605, 'positionName': 'LEFT', 'positionCoords': [427.08, 286], 'bid': 0.87}, {'imgObject': {}, 'id': 'ice cream sundae 002', 'src': '/static/foodstim60/ice cream sundae 002.jpg', 'key': 'i', 'origWidth': 409, 'origHeight': 409, 'width': 409, 'height': 409, 'widthPercent': 0.45, 'rescaleHeight': False, 'trialN': 3, 'loaded': True, 'loadedTime': 2014.5, 'positionName': 'RIGHT', 'positionCoords': [907.92, 287], 'bid': 1.1}]",7360.0,1669832116400,raspberries,ice cream sundae 002,0.87,1.1,0.2300000000000001,ice cream sundae 002,1453.5,1453,1453.9000000059605,True,i,9333.09999999404,1973.0999999940395,1669832118373,1973,HRV,HRV_0190,2022-11-30 18:21:08
4,"[{'imgObject': {}, 'id': 'Tribe humus pita', 'src': '/static/foodstim60/Tribe humus pita.jpg', 'key': 'u', 'origWidth': 411, 'origHeight': 411, 'width': 411, 'height': 411, 'widthPercent': 0.45, 'rescaleHeight': False, 'trialN': 4, 'loaded': True, 'loadedTime': 2001.5, 'positionName': 'LEFT', 'positionCoords': [427.08, 286], 'bid': 3.92}, {'imgObject': {}, 'id': 'banana', 'src': '/static/foodstim60/banana.jpg', 'key': 'i', 'origWidth': 410, 'origHeight': 410, 'width': 410, 'height': 410, 'widthPercent': 0.45, 'rescaleHeight': False, 'trialN': 4, 'loaded': True, 'loadedTime': 2016.4000000059605, 'positionName': 'RIGHT', 'positionCoords': [907.92, 286.5], 'bid': 4.25}]",9333.40000000596,1669832118373,Tribe humus pita,banana,3.92,4.25,0.33000000000000007,Tribe humus pita,1302.300000011921,1303,1302.5999999940395,True,u,11137.90000000596,1804.5,1669832120177,1804,HRV,HRV_0190,2022-11-30 18:21:08
5,"[{'imgObject': {}, 'id': 'chicken nuggets2', 'src': '/static/foodstim60/chicken nuggets2.jpg', 'key': 'u', 'origWidth': 410, 'origHeight': 409, 'width': 410, 'height': 409, 'widthPercent': 0.45, 'rescaleHeight': False, 'trialN': 5, 'loaded': True, 'loadedTime': 2020.7000000178814, 'positionName': 'LEFT', 'positionCoords': [428.08, 287], 'bid': 9.52}, {'imgObject': {}, 'id': 'blackbeanswithrice', 'src': '/static/foodstim60/blackbeanswithrice.jpg', 'key': 'i', 'origWidth': 410, 'origHeight': 410, 'width': 410, 'height': 410, 'widthPercent': 0.45, 'rescaleHeight': False, 'trialN': 5, 'loaded': True, 'loadedTime': 2023.9000000059605, 'positionName': 'RIGHT', 'positionCoords': [907.92, 286.5], 'bid': 6.28}]",11138.0,1669832120178,chicken nuggets2,blackbeanswithrice,9.52,6.28,-3.2399999999999993,chicken nuggets2,922.5999999940395,922,922.9000000059605,True,u,12572.0,1434.0,1669832121611,1433,HRV,HRV_0190,2022-11-30 18:21:08
6,"[{'imgObject': {}, 'id': 'sushi w_condiments', 'src': '/static/foodstim60/sushi w_condiments.jpg', 'key': 'u', 'origWidth': 410, 'origHeight': 410, 'width': 410, 'height': 410, 'widthPercent': 0.45, 'rescaleHeight': False, 'trialN': 6, 'loaded': True, 'loadedTime': 2025.7000000178814, 'positionName': 'LEFT', 'positionCoords': [428.08, 286.5], 'bid': 6.67}, {'imgObject': {}, 'id': 'chickenfingers', 'src': '/static/foodstim60/chickenfingers.jpg', 'key': 'i', 'origWidth': 410, 'origHeight': 410, 'width': 410, 'height': 410, 'widthPercent': 0.45, 'rescaleHeight': False, 'trialN': 6, 'loaded': True, 'loadedTime': 2006.5, 'positionName': 'RIGHT', 'positionCoords': [907.92, 286.5], 'bid': 9}]",12572.200000017881,1669832121612,sushi w_condiments,chickenfingers,6.67,9.0,2.33,chickenfingers,1247.3999999761581,1247,1247.699999988079,True,i,14328.59999999404,1756.3999999761581,1669832123368,1756,HRV,HRV_0190,2022-11-30 18:21:08
7,"[{'imgObject': {}, 'id': 'edamame', 'src': '/static/foodstim60/edamame.jpg', 'key': 'u', 'origWidth': 409, 'origHeight': 410, 'width': 409, 'height': 410, 'widthPercent': 0.45, 'rescaleHeight': False, 'trialN': 7, 'loaded': True, 'loadedTime': 2027.0999999940395, 'positionName': 'LEFT', 'positionCoords': [429.08, 286.5], 'bid': 0.28}, {'imgObject': {}, 'id': 'olives', 'src': '/static/foodstim60/olives.jpg', 'key': 'i', 'origWidth': 410, 'origHeight': 410, 'width': 410, 'height': 410, 'widthPercent': 0.45, 'rescaleHeight': False, 'trialN': 7, 'loaded': True, 'loadedTime': 2027.300000011921, 'positionName': 'RIGHT', 'positionCoords': [907.92, 286.5], 'bid': 0.14}]",14328.800000011921,1669832123368,edamame,olives,0.28,0.14,-0.14,olives,1807.7999999821186,1808,1808.0,True,i,16650.30000001192,2321.5,1669832125690,2322,HRV,HRV_0190,2022-11-30 18:21:08
8,"[{'imgObject': {}, 'id': 'mac & cheese', 'src': '/static/foodstim60/mac & cheese.jpg', 'key': 'u', 'origWidth': 410, 'origHeight': 410, 'width': 410, 'height': 410, 'widthPercent': 0.45, 'rescaleHeight': False, 'trialN': 8, 'loaded': True, 'loadedTime': 2030, 'positionName': 'LEFT', 'positionCoords': [428.08, 286.5], 'bid': 7.98}, {'imgObject': {}, 'id': 'roastedpotatoes', 'src': '/static/foodstim60/roastedpotatoes.jpg', 'key': 'i', 'origWidth': 409, 'origHeight': 410, 'width': 409, 'height': 410, 'widthPercent': 0.45, 'rescaleHeight': False, 'trialN': 8, 'loaded': True, 'loadedTime': 2031.800000011921, 'positionName': 'RIGHT', 'positionCoords': [907.92, 286.5], 'bid': 9.19}]",16650.5,1669832125690,mac & cheese,roastedpotatoes,7.98,9.19,1.209999999999999,mac & cheese,950.0999999940395,950,950.3000000119209,True,u,18122.30000001192,1471.800000011921,1669832127162,1472,HRV,HRV_0190,2022-11-30 18:21:08
9,"[{'imgObject': {}, 'id': 'hotdog w must', 'src': '/static/foodstim60/hotdog w must.jpg', 'key': 'u', 'origWidth': 409, 'origHeight': 409, 'width': 409, 'height': 409, 'widthPercent': 0.45, 'rescaleHeight': False, 'trialN': 9, 'loaded': True, 'loadedTime': 2009.0999999940395, 'positionName': 'LEFT', 'positionCoords': [429.08, 287], 'bid': 8.39}, {'imgObject': {}, 'id': 'blackbeanswithrice', 'src': '/static/foodstim60/blackbeanswithrice.jpg', 'key': 'i', 'origWidth': 410, 'origHeight': 410, 'width': 410, 'height': 410, 'widthPercent': 0.45, 'rescaleHeight': False, 'trialN': 9, 'loaded': True, 'loadedTime': 2022.2000000178814, 'positionName': 'RIGHT', 'positionCoords': [907.92, 286.5], 'bid': 6.28}]",18122.5,1669832127162,hotdog w must,blackbeanswithrice,8.39,6.28,-2.1100000000000003,hotdog w must,1143.0999999940395,1143,1143.4000000059605,True,u,19772.80000001192,1650.300000011921,1669832128812,1650,HRV,HRV_0190,2022-11-30 18:21:08
10,"[{'imgObject': {}, 'id': 'ice cream sundae 002', 'src': '/static/foodstim60/ice cream sundae 002.jpg', 'key': 'u', 'origWidth': 409, 'origHeight': 409, 'width': 409, 'height': 409, 'widthPercent': 0.45, 'rescaleHeight': False, 'trialN': 10, 'loaded': True, 'loadedTime': 2014.5999999940395, 'positionName': 'LEFT', 'positionCoords': [429.08, 287], 'bid': 1.1}, {'imgObject': {}, 'id': 'shreddedwheatwithmilk', 'src': '/static/foodstim60/shreddedwheatwithmilk.jpg', 'key': 'i', 'origWidth': 410, 'origHeight': 410, 'width': 410, 'height': 410, 'widthPercent': 0.45, 'rescaleHeight': False, 'trialN': 10, 'loaded': True, 'loadedTime': 2032.300000011921, 'positionName': 'RIGHT', 'positionCoords': [907.92, 286.5], 'bid': 1.08}]",19773.09999999404,1669832128813,ice cream sundae 002,shreddedwheatwithmilk,1.1,1.08,-0.020000000000000018,ice cream sundae 002,2044.6000000238419,2044,2044.9000000059605,True,u,22332.30000001192,2559.2000000178814,1669832131372,2559,HRV,HRV_0190,2022-11-30 18:21:08
11,"[{'imgObject': {}, 'id': 'fried eggs', 'src': '/static/foodstim60/fried eggs.jpg', 'key': 'u', 'origWidth': 410, 'origHeight': 410, 'width': 410, 'height': 410, 'widthPercent': 0.45, 'rescaleHeight': False, 'trialN': 11, 'loaded': True, 'loadedTime': 2034.9000000059605, 'positionName': 'LEFT', 'positionCoords': [428.08, 286.5], 'bid': 6.74}, {'imgObject': {}, 'id': 'turkey sandwich', 'src': '/static/foodstim60/turkey sandwich.jpg', 'key': 'i', 'origWidth': 409, 'origHeight': 409, 'width': 409, 'height': 409, 'widthPercent': 0.45, 'rescaleHeight': False, 'trialN': 11, 'loaded': True, 'loadedTime': 2036, 'positionName': 'RIGHT', 'positionCoords': [907.92, 287], 'bid': 9.1}]",22332.5,1669832131372,fried eggs,turkey sandwich,6.74,9.1,2.3599999999999994,turkey sandwich,1269.2000000178814,1269,1269.4000000059605,True,i,24114.20000001788,1781.7000000178814,1669832133154,1782,HRV,HRV_0190,2022-11-30 18:21:08
12,"[{'imgObject': {}, 'id': 'Grapes', 'src': '/static/foodstim60/Grapes.jpg', 'key': 'u', 'origWidth': 411, 'origHeight': 411, 'width': 411, 'height': 411, 'widthPercent': 0.45, 'rescaleHeight': False, 'trialN': 12, 'loaded': True, 'loadedTime': 2075.7000000178814, 'positionName': 'LEFT', 'positionCoords': [427.08, 286], 'bid': 3.52}, {'imgObject': {}, 'id': 'burger', 'src': '/static/foodstim60/burger.jpg', 'key': 'i', 'origWidth': 409, 'origHeight': 409, 'width': 409, 'height': 409, 'widthPercent': 0.45, 'rescaleHeight': False, 'trialN': 12, 'loaded': True, 'loadedTime': 2097.2000000178814, 'positionName': 'RIGHT', 'positionCoords': [907.92, 287], 'bid': 9.87}]",24114.30000001192,1669832133154,Grapes,burger,3.52,9.87,6.35,burger,845.2999999821186,845,845.5999999940395,True,i,25470.40000000596,1356.0999999940395,1669832134510,1356,HRV,HRV_0190,2022-11-30 18:21:08
13,"[{'imgObject': {}, 'id': 'popsicles', 'src': '/static/foodstim60/popsicles.jpg', 'key': 'u', 'origWidth': 410, 'origHeight': 410, 'width': 410, 'height': 410, 'widthPercent': 0.45, 'rescaleHeight': False, 'trialN': 13, 'loaded': True, 'loadedTime': 2114.800000011921, 'positionName': 'LEFT', 'positionCoords': [428.08, 286.5], 'bid': 0}, {'imgObject': {}, 'id': 'hashbrowns', 'src': '/static/foodstim60/hashbrowns.jpg', 'key': 'i', 'origWidth': 411, 'origHeight': 410, 'width': 411, 'height': 410, 'widthPercent': 0.45, 'rescaleHeight': False, 'trialN': 13, 'loaded': True, 'loadedTime': 2135.4000000059605, 'positionName': 'RIGHT', 'positionCoords': [907.92, 286.5], 'bid': 1.07}]",25470.59999999404,1669832134510,popsicles,hashbrowns,0.0,1.07,1.07,hashbrowns,1407.0,1407,1407.300000011921,True,i,27391.0,1920.4000000059605,1669832136430,1920,HRV,HRV_0190,2022-11-30 18:21:08
14,"[{'imgObject': {}, 'id': 'popsicles', 'src': '/static/foodstim60/popsicles.jpg', 'key': 'u', 'origWidth': 410, 'origHeight': 410, 'width': 410, 'height': 410, 'widthPercent': 0.45, 'rescaleHeight': False, 'trialN': 14, 'loaded': True, 'loadedTime': 2114.5999999940395, 'positionName': 'LEFT', 'positionCoords': [428.08, 286.5], 'bid': 0}, {'imgObject': {}, 'id': 'bagel plain', 'src': '/static/foodstim60/bagel plain.jpg', 'key': 'i', 'origWidth': 410, 'origHeight': 410, 'width': 410, 'height': 410, 'widthPercent': 0.45, 'rescaleHeight': False, 'trialN': 14, 'loaded': True, 'loadedTime': 2074.300000011921, 'positionName': 'RIGHT', 'positionCoords': [907.92, 286.5], 'bid': 0.48}]",27391.20000001788,1669832136431,popsicles,bagel plain,0.0,0.48,0.48,bagel plain,1458.3999999761581,1458,1458.5999999940395,True,i,29364.59999999404,1973.3999999761581,1669832138404,1973,HRV,HRV_0190,2022-11-30 18:21:08
15,"[{'imgObject': {}, 'id': 'raspberries', 'src': '/static/foodstim60/raspberries.jpg', 'key': 'u', 'origWidth': 411, 'origHeight': 411, 'width': 411, 'height': 411, 'widthPercent': 0.45, 'rescaleHeight': False, 'trialN': 15, 'loaded': True, 'loadedTime': 2011.7000000178814, 'positionName': 'LEFT', 'positionCoords': [427.08, 286], 'bid': 0.87}, {'imgObject': {}, 'id': 'apple slices', 'src': '/static/foodstim60/apple slices.jpg', 'key': 'i', 'origWidth': 409, 'origHeight': 410, 'width': 409, 'height': 410, 'widthPercent': 0.45, 'rescaleHeight': False, 'trialN': 15, 'loaded': True, 'loadedTime': 2136.4000000059605, 'positionName': 'RIGHT', 'positionCoords': [907.92, 286.5], 'bid': 3.06}]",29364.80000001192,1669832138404,raspberries,apple slices,0.87,3.06,2.19,apple slices,1213.7999999821186,1214,1214.0999999940395,True,i,31086.30000001192,1721.5,1669832140126,1722,HRV,HRV_0190,2022-11-30 18:21:08
16,"[{'imgObject': {}, 'id': 'cantaloupe', 'src': '/static/foodstim60/cantaloupe.jpg', 'key': 'u', 'origWidth': 409, 'origHeight': 409, 'width': 409, 'height': 409, 'widthPercent': 0.45, 'rescaleHeight': False, 'trialN': 16, 'loaded': True, 'loadedTime': 2146.300000011921, 'positionName': 'LEFT', 'positionCoords': [429.08, 287], 'bid': 1.4}, {'imgObject': {}, 'id': 'rigatoni', 'src': '/static/foodstim60/rigatoni.jpg', 'key': 'i', 'origWidth': 411, 'origHeight': 411, 'width': 411, 'height': 411, 'widthPercent': 0.45, 'rescaleHeight': False, 'trialN': 16, 'loaded': True, 'loadedTime': 2148.300000011921, 'positionName': 'RIGHT', 'positionCoords': [907.92, 286], 'bid': 1.02}]",31086.5,1669832140126,cantaloupe,rigatoni,1.4,1.02,-0.3799999999999999,cantaloupe,1586.2000000178814,1586,1586.4000000059605,True,u,33191.80000001192,2105.300000011921,1669832142231,2105,HRV,HRV_0190,2022-11-30 18:21:08
17,"[{'imgObject': {}, 'id': 'salmon', 'src': '/static/foodstim60/salmon.jpg', 'key': 'u', 'origWidth': 410, 'origHeight': 409, 'width': 410, 'height': 409, 'widthPercent': 0.45, 'rescaleHeight': False, 'trialN': 17, 'loaded': True, 'loadedTime': 2148.4000000059605, 'positionName': 'LEFT', 'positionCoords': [428.08, 287], 'bid': 4.73}, {'imgObject': {}, 'id': 'Tribe humus pita', 'src': '/static/foodstim60/Tribe humus pita.jpg', 'key': 'i', 'origWidth': 411, 'origHeight': 411, 'width': 411, 'height': 411, 'widthPercent': 0.45, 'rescaleHeight': False, 'trialN': 17, 'loaded': True, 'loadedTime': 2002.9000000059605, 'positionName': 'RIGHT', 'positionCoords': [907.92, 286], 'bid': 3.92}]",33191.90000000596,1669832142231,salmon,Tribe humus pita,4.73,3.92,-0.8100000000000005,Tribe humus pita,1449.800000011921,1450,1450.0,True,i,35158.5,1966.5999999940395,1669832144198,1967,HRV,HRV_0190,2022-11-30 18:21:08
18,"[{'imgObject': {}, 'id': 'veggieswithdip', 'src': '/static/foodstim60/veggieswithdip.jpg', 'key': 'u', 'origWidth': 409, 'origHeight': 409, 'width': 409, 'height': 409, 'widthPercent': 0.45, 'rescaleHeight': False, 'trialN': 18, 'loaded': True, 'loadedTime': 2150.5, 'positionName': 'LEFT', 'positionCoords': [429.08, 287], 'bid': 0.14}, {'imgObject': {}, 'id': 'edamame', 'src': '/static/foodstim60/edamame.jpg', 'key': 'i', 'origWidth': 409, 'origHeight': 410, 'width': 409, 'height': 410, 'widthPercent': 0.45, 'rescaleHeight': False, 'trialN': 18, 'loaded': True, 'loadedTime': 2026.800000011921, 'positionName': 'RIGHT', 'positionCoords': [907.92, 286.5], 'bid': 0.28}]",35158.59999999404,1669832144198,veggieswithdip,edamame,0.14,0.28,0.14,veggieswithdip,2257.0,2257,2257.300000011921,True,u,37933.59999999404,2775.0,1669832146973,2775,HRV,HRV_0190,2022-11-30 18:21:08
19,"[{'imgObject': {}, 'id': 'salmon', 'src': '/static/foodstim60/salmon.jpg', 'key': 'u', 'origWidth': 410, 'origHeight': 409, 'width': 410, 'height': 409, 'widthPercent': 0.45, 'rescaleHeight': False, 'trialN': 19, 'loaded': True, 'loadedTime': 2149.2000000178814, 'positionName': 'LEFT', 'positionCoords': [428.08, 287], 'bid': 4.73}, {'imgObject': {}, 'id': 'strawberries', 'src': '/static/foodstim60/strawberries.jpg', 'key': 'i', 'origWidth': 410, 'origHeight': 410, 'width': 410, 'height': 410, 'widthPercent': 0.45, 'rescaleHeight': False, 'trialN': 19, 'loaded': True, 'loadedTime': 2151.300000011921, 'positionName': 'RIGHT', 'positionCoords': [907.92, 286.5], 'bid': 3.43}]",37933.80000001192,1669832146973,salmon,strawberries,4.73,3.43,-1.3000000000000003,strawberries,1991.7999999821186,1992,1992.0999999940395,True,i,40439.59999999404,2505.7999999821186,1669832149479,2506,HRV,HRV_0190,2022-11-30 18:21:08
20,"[{'imgObject': {}, 'id': 'yogurt no spoon', 'src': '/static/foodstim60/yogurt no spoon.jpg', 'key': 'u', 'origWidth': 411, 'origHeight': 410, 'width': 411, 'height': 410, 'widthPercent': 0.45, 'rescaleHeight': False, 'trialN': 20, 'loaded': True, 'loadedTime': 2154.0999999940395, 'positionName': 'LEFT', 'positionCoords': [427.08, 286.5], 'bid': 0.8300000000000001}, {'imgObject': {}, 'id': 'lox', 'src': '/static/foodstim60/lox.jpg', 'key': 'i', 'origWidth': 410, 'origHeight': 411, 'width': 410, 'height': 411, 'widthPercent': 0.45, 'rescaleHeight': False, 'trialN': 20, 'loaded': True, 'loadedTime': 2156.0999999940395, 'positionName': 'RIGHT', 'positionCoords': [907.92, 286], 'bid': 5.8}]",40439.80000001192,1669832149479,yogurt no spoon,lox,0.8300000000000001,5.8,4.97,lox,1786.699999988079,1787,1787.0999999940395,True,i,42729.80000001192,2290.0,1669832151769,2290,HRV,HRV_0190,2022-11-30 18:21:08
21,"[{'imgObject': {}, 'id': 'bagel and cc', 'src': '/static/foodstim60/bagel and cc.jpg', 'key': 'u', 'origWidth': 410, 'origHeight': 410, 'width': 410, 'height': 410, 'widthPercent': 0.45, 'rescaleHeight': False, 'trialN': 21, 'loaded': True, 'loadedTime': 2007.800000011921, 'positionName': 'LEFT', 'positionCoords': [428.08, 286.5], 'bid': 5.64}, {'imgObject': {}, 'id': 'fried eggs', 'src': '/static/foodstim60/fried eggs.jpg', 'key': 'i', 'origWidth': 410, 'origHeight': 410, 'width': 410, 'height': 410, 'widthPercent': 0.45, 'rescaleHeight': False, 'trialN': 21, 'loaded': True, 'loadedTime': 2035, 'positionName': 'RIGHT', 'positionCoords': [907.92, 286.5], 'bid': 6.74}]",42729.90000000596,1669832151769,bagel and cc,fried eggs,5.64,6.74,1.1000000000000005,bagel and cc,1663.800000011921,1664,1664.0,True,u,44904.40000000596,2174.5,1669832153944,2175,HRV,HRV_0190,2022-11-30 18:21:08
22,"[{'imgObject': {}, 'id': 'Grapes', 'src': '/static/foodstim60/Grapes.jpg', 'key': 'u', 'origWidth': 411, 'origHeight': 411, 'width': 411, 'height': 411, 'widthPercent': 0.45, 'rescaleHeight': False, 'trialN': 22, 'loaded': True, 'loadedTime': 2074.9000000059605, 'positionName': 'LEFT', 'positionCoords': [427.08, 286], 'bid': 3.52}, {'imgObject': {}, 'id': 'rigatoni', 'src': '/static/foodstim60/rigatoni.jpg', 'key': 'i', 'origWidth': 411, 'origHeight': 411, 'width': 411, 'height': 411, 'widthPercent': 0.45, 'rescaleHeight': False, 'trialN': 22, 'loaded': True, 'loadedTime': 2147.9000000059605, 'positionName': 'RIGHT', 'positionCoords': [907.92, 286], 'bid': 1.02}]",44904.5,1669832153944,Grapes,rigatoni,3.52,1.02,-2.5,Grapes,1643.0999999940395,1643,1643.2000000178814,True,u,47056.20000001788,2151.7000000178814,1669832156096,2152,HRV,HRV_0190,2022-11-30 18:21:08
23,"[{'imgObject': {}, 'id': 'froot loops w milk', 'src': '/static/foodstim60/froot loops w milk.jpg', 'key': 'u', 'origWidth': 410, 'origHeight': 410, 'width': 410, 'height': 410, 'widthPercent': 0.45, 'rescaleHeight': False, 'trialN': 23, 'loaded': True, 'loadedTime': 2156.800000011921, 'positionName': 'LEFT', 'positionCoords': [428.08, 286.5], 'bid': 1.09}, {'imgObject': {}, 'id': 'olives', 'src': '/static/foodstim60/olives.jpg', 'key': 'i', 'origWidth': 410, 'origHeight': 410, 'width': 410, 'height': 410, 'widthPercent': 0.45, 'rescaleHeight': False, 'trialN': 23, 'loaded': True, 'loadedTime': 2028.5, 'positionName': 'RIGHT', 'positionCoords': [907.92, 286.5], 'bid': 0.14}]",47056.40000000596,1669832156096,froot loops w milk,olives,1.09,0.14,-0.9500000000000001,olives,1938.199999988079,1938,1938.5,True,i,49515.0,2458.5999999940395,1669832158554,2458,HRV,HRV_0190,2022-11-30 18:21:08
24,"[{'imgObject': {}, 'id': 'orange slices', 'src': '/static/foodstim60/orange slices.jpg', 'key': 'u', 'origWidth': 409, 'origHeight': 410, 'width': 409, 'height': 410, 'widthPercent': 0.45, 'rescaleHeight': False, 'trialN': 24, 'loaded': True, 'loadedTime': 2158.5999999940395, 'positionName': 'LEFT', 'positionCoords': [429.08, 286.5], 'bid': 1.96}, {'imgObject': {}, 'id': 'banana', 'src': '/static/foodstim60/banana.jpg', 'key': 'i', 'origWidth': 410, 'origHeight': 410, 'width': 410, 'height': 410, 'widthPercent': 0.45, 'rescaleHeight': False, 'trialN': 24, 'loaded': True, 'loadedTime': 2014.9000000059605, 'positionName': 'RIGHT', 'positionCoords': [907.92, 286.5], 'bid': 4.25}]",49515.20000001788,1669832158555,orange slices,banana,1.96,4.25,2.29,banana,1303.3999999761581,1303,1303.699999988079,True,i,51335.0,1819.7999999821186,1669832160374,1819,HRV,HRV_0190,2022-11-30 18:21:08
25,"[{'imgObject': {}, 'id': 'corn cob', 'src': '/static/foodstim60/corn cob.jpg', 'key': 'u', 'origWidth': 411, 'origHeight': 411, 'width': 411, 'height': 411, 'widthPercent': 0.45, 'rescaleHeight': False, 'trialN': 25, 'loaded': True, 'loadedTime': 2160.300000011921, 'positionName': 'LEFT', 'positionCoords': [427.08, 286], 'bid': 6.26}, {'imgObject': {}, 'id': 'steak', 'src': '/static/foodstim60/steak.jpg', 'key': 'i', 'origWidth': 410, 'origHeight': 410, 'width': 410, 'height': 410, 'widthPercent': 0.45, 'rescaleHeight': False, 'trialN': 25, 'loaded': True, 'loadedTime': 2160.5999999940395, 'positionName': 'RIGHT', 'positionCoords': [907.92, 286.5], 'bid': 5.83}]",51335.09999999404,1669832160375,corn cob,steak,6.26,5.83,-0.4299999999999997,corn cob,1759.5,1759,1759.7000000178814,True,u,53603.20000001788,2268.100000023842,1669832162643,2268,HRV,HRV_0190,2022-11-30 18:21:08
26,"[{'imgObject': {}, 'id': 'granola w milk', 'src': '/static/foodstim60/granola w milk.jpg', 'key': 'u', 'origWidth': 410, 'origHeight': 410, 'width': 410, 'height': 410, 'widthPercent': 0.45, 'rescaleHeight': False, 'trialN': 26, 'loaded': True, 'loadedTime': 2163.0999999940395, 'positionName': 'LEFT', 'positionCoords': [428.08, 286.5], 'bid': 1.72}, {'imgObject': {}, 'id': 'bagel plain', 'src': '/static/foodstim60/bagel plain.jpg', 'key': 'i', 'origWidth': 410, 'origHeight': 410, 'width': 410, 'height': 410, 'widthPercent': 0.45, 'rescaleHeight': False, 'trialN': 26, 'loaded': True, 'loadedTime': 2054.7000000178814, 'positionName': 'RIGHT', 'positionCoords': [907.92, 286.5], 'bid': 0.48}]",53603.40000000596,1669832162643,granola w milk,bagel plain,1.72,0.48,-1.24,granola w milk,2811.199999988079,2811,2811.5,True,u,56933.09999999404,3329.699999988079,1669832165972,3329,HRV,HRV_0190,2022-11-30 18:21:08
27,"[{'imgObject': {}, 'id': 'burrito', 'src': '/static/foodstim60/burrito.jpg', 'key': 'u', 'origWidth': 410, 'origHeight': 410, 'width': 410, 'height': 410, 'widthPercent': 0.45, 'rescaleHeight': False, 'trialN': 27, 'loaded': True, 'loadedTime': 2168.9000000059605, 'positionName': 'LEFT', 'positionCoords': [428.08, 286.5], 'bid': 9.36}, {'imgObject': {}, 'id': 'fruitsalad', 'src': '/static/foodstim60/fruitsalad.jpg', 'key': 'i', 'origWidth': 410, 'origHeight': 410, 'width': 410, 'height': 410, 'widthPercent': 0.45, 'rescaleHeight': False, 'trialN': 27, 'loaded': True, 'loadedTime': 2189.5, 'positionName': 'RIGHT', 'positionCoords': [907.92, 286.5], 'bid': 2.74}]",56933.30000001192,1669832165973,burrito,fruitsalad,9.36,2.74,-6.619999999999999,burrito,1071.199999988079,1071,1071.4000000059605,True,u,58514.5,1581.199999988079,1669832167554,1581,HRV,HRV_0190,2022-11-30 18:21:08
28,"[{'imgObject': {}, 'id': 'hashbrowns', 'src': '/static/foodstim60/hashbrowns.jpg', 'key': 'u', 'origWidth': 411, 'origHeight': 410, 'width': 411, 'height': 410, 'widthPercent': 0.45, 'rescaleHeight': False, 'trialN': 28, 'loaded': True, 'loadedTime': 2131.4000000059605, 'positionName': 'LEFT', 'positionCoords': [427.08, 286.5], 'bid': 1.07}, {'imgObject': {}, 'id': 'cheerios', 'src': '/static/foodstim60/cheerios.jpg', 'key': 'i', 'origWidth': 409, 'origHeight': 410, 'width': 409, 'height': 410, 'widthPercent': 0.45, 'rescaleHeight': False, 'trialN': 28, 'loaded': True, 'loadedTime': 2192.300000011921, 'positionName': 'RIGHT', 'positionCoords': [907.92, 286.5], 'bid': 0.92}]",58514.59999999404,1669832167554,hashbrowns,cheerios,1.07,0.92,-0.15000000000000002,hashbrowns,1072.9000000059605,1073,1073.300000011921,True,u,60102.20000001788,1587.6000000238419,1669832169142,1588,HRV,HRV_0190,2022-11-30 18:21:08
29,"[{'imgObject': {}, 'id': 'hotdog w must', 'src': '/static/foodstim60/hotdog w must.jpg', 'key': 'u', 'origWidth': 409, 'origHeight': 409, 'width': 409, 'height': 409, 'widthPercent': 0.45, 'rescaleHeight': False, 'trialN': 29, 'loaded': True, 'loadedTime': 2009.5999999940395, 'positionName': 'LEFT', 'positionCoords': [429.08, 287], 'bid': 8.39}, {'imgObject': {}, 'id': 'chickenfingers', 'src': '/static/foodstim60/chickenfingers.jpg', 'key': 'i', 'origWidth': 410, 'origHeight': 410, 'width': 410, 'height': 410, 'widthPercent': 0.45, 'rescaleHeight': False, 'trialN': 29, 'loaded': True, 'loadedTime': 2006.0999999940395, 'positionName': 'RIGHT', 'positionCoords': [907.92, 286.5], 'bid': 9}]",60102.40000000596,1669832169142,hotdog w must,chickenfingers,8.39,9.0,0.6099999999999994,chickenfingers,2497.199999988079,2497,2497.4000000059605,True,i,63109.5,3007.0999999940395,1669832172149,3007,HRV,HRV_0190,2022-11-30 18:21:08
30,"[{'imgObject': {}, 'id': 'banana', 'src': '/static/foodstim60/banana.jpg', 'key': 'u', 'origWidth': 410, 'origHeight': 410, 'width': 410, 'height': 410, 'widthPercent': 0.45, 'rescaleHeight': False, 'trialN': 30, 'loaded': True, 'loadedTime': 2015.7000000178814, 'positionName': 'LEFT', 'positionCoords': [428.08, 286.5], 'bid': 4.25}, {'imgObject': {}, 'id': 'eggs', 'src': '/static/foodstim60/eggs.jpg', 'key': 'i', 'origWidth': 409, 'origHeight': 409, 'width': 409, 'height': 409, 'widthPercent': 0.45, 'rescaleHeight': False, 'trialN': 30, 'loaded': True, 'loadedTime': 2209.5, 'positionName': 'RIGHT', 'positionCoords': [907.92, 287], 'bid': 5.29}]",63109.59999999404,1669832172149,banana,eggs,4.25,5.29,1.04,eggs,1430.9000000059605,1431,1431.300000011921,True,i,65051.40000000596,1941.800000011921,1669832174091,1942,HRV,HRV_0190,2022-11-30 18:21:08
31,"[{'imgObject': {}, 'id': 'rigatoni', 'src': '/static/foodstim60/rigatoni.jpg', 'key': 'u', 'origWidth': 411, 'origHeight': 411, 'width': 411, 'height': 411, 'widthPercent': 0.45, 'rescaleHeight': False, 'trialN': 31, 'loaded': True, 'loadedTime': 2148.4000000059605, 'positionName': 'LEFT', 'positionCoords': [427.08, 286], 'bid': 1.02}, {'imgObject': {}, 'id': 'fried eggs', 'src': '/static/foodstim60/fried eggs.jpg', 'key': 'i', 'origWidth': 410, 'origHeight': 410, 'width': 410, 'height': 410, 'widthPercent': 0.45, 'rescaleHeight': False, 'trialN': 31, 'loaded': True, 'loadedTime': 2035.0999999940395, 'positionName': 'RIGHT', 'positionCoords': [907.92, 286.5], 'bid': 6.74}]",65051.59999999404,1669832174091,rigatoni,fried eggs,1.02,6.74,5.720000000000001,fried eggs,1265.9000000059605,1266,1266.2000000178814,True,i,66833.59999999404,1782.0,1669832175873,1782,HRV,HRV_0190,2022-11-30 18:21:08
32,"[{'imgObject': {}, 'id': 'apple slices', 'src': '/static/foodstim60/apple slices.jpg', 'key': 'u', 'origWidth': 409, 'origHeight': 410, 'width': 409, 'height': 410, 'widthPercent': 0.45, 'rescaleHeight': False, 'trialN': 32, 'loaded': True, 'loadedTime': 2138.7000000178814, 'positionName': 'LEFT', 'positionCoords': [429.08, 286.5], 'bid': 3.06}, {'imgObject': {}, 'id': 'fruitsalad', 'src': '/static/foodstim60/fruitsalad.jpg', 'key': 'i', 'origWidth': 410, 'origHeight': 410, 'width': 410, 'height': 410, 'widthPercent': 0.45, 'rescaleHeight': False, 'trialN': 32, 'loaded': True, 'loadedTime': 2190.5, 'positionName': 'RIGHT', 'positionCoords': [907.92, 286.5], 'bid': 2.74}]",66833.80000001192,1669832175873,apple slices,fruitsalad,3.06,2.74,-0.31999999999999984,fruitsalad,2950.7999999821186,2951,2951.0999999940395,True,i,70295.59999999404,3461.7999999821186,1669832179335,3462,HRV,HRV_0190,2022-11-30 18:21:08
33,"[{'imgObject': {}, 'id': 'tacos', 'src': '/static/foodstim60/tacos.jpg', 'key': 'u', 'origWidth': 411, 'origHeight': 411, 'width': 411, 'height': 411, 'widthPercent': 0.45, 'rescaleHeight': False, 'trialN': 33, 'loaded': True, 'loadedTime': 2211, 'positionName': 'LEFT', 'positionCoords': [427.08, 286], 'bid': 7.87}, {'imgObject': {}, 'id': 'turkey sandwich', 'src': '/static/foodstim60/turkey sandwich.jpg', 'key': 'i', 'origWidth': 409, 'origHeight': 409, 'width': 409, 'height': 409, 'widthPercent': 0.45, 'rescaleHeight': False, 'trialN': 33, 'loaded': True, 'loadedTime': 2036.300000011921, 'positionName': 'RIGHT', 'positionCoords': [907.92, 287], 'bid': 9.1}]",70295.70000001788,1669832179335,tacos,turkey sandwich,7.87,9.1,1.2299999999999995,tacos,745.7999999821186,746,746.0999999940395,True,u,71566.59999999404,1270.8999999761581,1669832180606,1271,HRV,HRV_0190,2022-11-30 18:21:08
34,"[{'imgObject': {}, 'id': 'grilled chicken strips', 'src': '/static/foodstim60/grilled chicken strips.jpg', 'key': 'u', 'origWidth': 410, 'origHeight': 411, 'width': 410, 'height': 411, 'widthPercent': 0.45, 'rescaleHeight': False, 'trialN': 34, 'loaded': True, 'loadedTime': 2228.2000000178814, 'positionName': 'LEFT', 'positionCoords': [428.08, 286], 'bid': 7.72}, {'imgObject': {}, 'id': 'burrito', 'src': '/static/foodstim60/burrito.jpg', 'key': 'i', 'origWidth': 410, 'origHeight': 410, 'width': 410, 'height': 410, 'widthPercent': 0.45, 'rescaleHeight': False, 'trialN': 34, 'loaded': True, 'loadedTime': 2167, 'positionName': 'RIGHT', 'positionCoords': [907.92, 286.5], 'bid': 9.36}]",71566.80000001192,1669832180606,grilled chicken strips,burrito,7.72,9.36,1.6399999999999997,burrito,925.6999999880791,926,925.9000000059605,True,i,73001.09999999404,1434.2999999821186,1669832182040,1434,HRV,HRV_0190,2022-11-30 18:21:08
35,"[{'imgObject': {}, 'id': 'salad w chicken', 'src': '/static/foodstim60/salad w chicken.jpg', 'key': 'u', 'origWidth': 411, 'origHeight': 411, 'width': 411, 'height': 411, 'widthPercent': 0.45, 'rescaleHeight': False, 'trialN': 35, 'loaded': True, 'loadedTime': 2230.5999999940395, 'positionName': 'LEFT', 'positionCoords': [427.08, 286], 'bid': 9.77}, {'imgObject': {}, 'id': 'strawberries', 'src': '/static/foodstim60/strawberries.jpg', 'key': 'i', 'origWidth': 410, 'origHeight': 410, 'width': 410, 'height': 410, 'widthPercent': 0.45, 'rescaleHeight': False, 'trialN': 35, 'loaded': True, 'loadedTime': 2152.800000011921, 'positionName': 'RIGHT', 'positionCoords': [907.92, 286.5], 'bid': 3.43}]",73001.20000001788,1669832182041,salad w chicken,strawberries,9.77,3.43,-6.34,salad w chicken,950.2999999821186,950,950.5999999940395,True,u,74473.09999999404,1471.8999999761581,1669832183512,1471,HRV,HRV_0190,2022-11-30 18:21:08
36,"[{'imgObject': {}, 'id': 'hotdog w must', 'src': '/static/foodstim60/hotdog w must.jpg', 'key': 'u', 'origWidth': 409, 'origHeight': 409, 'width': 409, 'height': 409, 'widthPercent': 0.45, 'rescaleHeight': False, 'trialN': 36, 'loaded': True, 'loadedTime': 2009.4000000059605, 'positionName': 'LEFT', 'positionCoords': [429.08, 287], 'bid': 8.39}, {'imgObject': {}, 'id': 'cocktailshrimp', 'src': '/static/foodstim60/cocktailshrimp.jpg', 'key': 'i', 'origWidth': 410, 'origHeight': 410, 'width': 410, 'height': 410, 'widthPercent': 0.45, 'rescaleHeight': False, 'trialN': 36, 'loaded': True, 'loadedTime': 2231.4000000059605, 'positionName': 'RIGHT', 'positionCoords': [907.92, 286.5], 'bid': 5.48}]",74473.30000001192,1669832183513,hotdog w must,cocktailshrimp,8.39,5.48,-2.91,hotdog w must,1505.199999988079,1505,1505.5,True,u,76494.20000001788,2020.9000000059605,1669832185534,2021,HRV,HRV_0190,2022-11-30 18:21:08
37,"[{'imgObject': {}, 'id': 'granola w milk', 'src': '/static/foodstim60/granola w milk.jpg', 'key': 'u', 'origWidth': 410, 'origHeight': 410, 'width': 410, 'height': 410, 'widthPercent': 0.45, 'rescaleHeight': False, 'trialN': 37, 'loaded': True, 'loadedTime': 2163.2000000178814, 'positionName': 'LEFT', 'positionCoords': [428.08, 286.5], 'bid': 1.72}, {'imgObject': {}, 'id': 'mango', 'src': '/static/foodstim60/mango.jpg', 'key': 'i', 'origWidth': 411, 'origHeight': 411, 'width': 411, 'height': 411, 'widthPercent': 0.45, 'rescaleHeight': False, 'trialN': 37, 'loaded': True, 'loadedTime': 2246.800000011921, 'positionName': 'RIGHT', 'positionCoords': [907.92, 286], 'bid': 3.59}]",76494.40000000596,1669832185534,granola w milk,mango,1.72,3.59,1.8699999999999999,granola w milk,1989.199999988079,1989,1989.4000000059605,True,u,79000.59999999404,2506.199999988079,1669832188040,2506,HRV,HRV_0190,2022-11-30 18:21:08
38,"[{'imgObject': {}, 'id': 'raspberries', 'src': '/static/foodstim60/raspberries.jpg', 'key': 'u', 'origWidth': 411, 'origHeight': 411, 'width': 411, 'height': 411, 'widthPercent': 0.45, 'rescaleHeight': False, 'trialN': 38, 'loaded': True, 'loadedTime': 2011.9000000059605, 'positionName': 'LEFT', 'positionCoords': [427.08, 286], 'bid': 0.87}, {'imgObject': {}, 'id': 'cheerios', 'src': '/static/foodstim60/cheerios.jpg', 'key': 'i', 'origWidth': 409, 'origHeight': 410, 'width': 409, 'height': 410, 'widthPercent': 0.45, 'rescaleHeight': False, 'trialN': 38, 'loaded': True, 'loadedTime': 2191.300000011921, 'positionName': 'RIGHT', 'positionCoords': [907.92, 286.5], 'bid': 0.92}]",79000.80000001192,1669832188040,raspberries,cheerios,0.87,0.92,0.050000000000000044,cheerios,1292.7999999821186,1293,1293.0999999940395,True,i,80805.09999999404,1804.2999999821186,1669832189844,1804,HRV,HRV_0190,2022-11-30 18:21:08
39,"[{'imgObject': {}, 'id': 'rigatoni and sauce', 'src': '/static/foodstim60/rigatoni and sauce.jpg', 'key': 'u', 'origWidth': 410, 'origHeight': 411, 'width': 410, 'height': 411, 'widthPercent': 0.45, 'rescaleHeight': False, 'trialN': 39, 'loaded': True, 'loadedTime': 2264.2000000178814, 'positionName': 'LEFT', 'positionCoords': [428.08, 286], 'bid': 7.8}, {'imgObject': {}, 'id': 'grilled chicken strips', 'src': '/static/foodstim60/grilled chicken strips.jpg', 'key': 'i', 'origWidth': 410, 'origHeight': 411, 'width': 410, 'height': 411, 'widthPercent': 0.45, 'rescaleHeight': False, 'trialN': 39, 'loaded': True, 'loadedTime': 2229.4000000059605, 'positionName': 'RIGHT', 'positionCoords': [907.92, 286], 'bid': 7.72}]",80805.30000001192,1669832189845,rigatoni and sauce,grilled chicken strips,7.8,7.72,-0.08000000000000007,grilled chicken strips,1796.199999988079,1796,1796.5,True,i,83110.59999999404,2305.2999999821186,1669832192150,2305,HRV,HRV_0190,2022-11-30 18:21:08
40,"[{'imgObject': {}, 'id': 'steak', 'src': '/static/foodstim60/steak.jpg', 'key': 'u', 'origWidth': 410, 'origHeight': 410, 'width': 410, 'height': 410, 'widthPercent': 0.45, 'rescaleHeight': False, 'trialN': 40, 'loaded': True, 'loadedTime': 2161.7000000178814, 'positionName': 'LEFT', 'positionCoords': [428.08, 286.5], 'bid': 5.83}, {'imgObject': {}, 'id': 'grilled chicken strips', 'src': '/static/foodstim60/grilled chicken strips.jpg', 'key': 'i', 'origWidth': 410, 'origHeight': 411, 'width': 410, 'height': 411, 'widthPercent': 0.45, 'rescaleHeight': False, 'trialN': 40, 'loaded': True, 'loadedTime': 2229.2000000178814, 'positionName': 'RIGHT', 'positionCoords': [907.92, 286], 'bid': 7.72}]",83110.80000001192,1669832192150,steak,grilled chicken strips,5.83,7.72,1.8899999999999997,grilled chicken strips,937.7999999821186,938,938.0,True,i,84560.30000001192,1449.5,1669832193600,1450,HRV,HRV_0190,2022-11-30 18:21:08
41,"[{'imgObject': {}, 'id': 'mac & cheese', 'src': '/static/foodstim60/mac & cheese.jpg', 'key': 'u', 'origWidth': 410, 'origHeight': 410, 'width': 410, 'height': 410, 'widthPercent': 0.45, 'rescaleHeight': False, 'trialN': 41, 'loaded': True, 'loadedTime': 2028.5, 'positionName': 'LEFT', 'positionCoords': [428.08, 286.5], 'bid': 7.98}, {'imgObject': {}, 'id': 'raisin bran w milk', 'src': '/static/foodstim60/raisin bran w milk.jpg', 'key': 'i', 'origWidth': 411, 'origHeight': 411, 'width': 411, 'height': 411, 'widthPercent': 0.45, 'rescaleHeight': False, 'trialN': 41, 'loaded': True, 'loadedTime': 2265.5999999940395, 'positionName': 'RIGHT', 'positionCoords': [907.92, 286], 'bid': 1.23}]",84560.40000000596,1669832193600,mac & cheese,raisin bran w milk,7.98,1.23,-6.75,mac & cheese,850.0999999940395,850,850.4000000059605,True,u,85916.80000001192,1356.4000000059605,1669832194956,1356,HRV,HRV_0190,2022-11-30 18:21:08
42,"[{'imgObject': {}, 'id': 'edamame', 'src': '/static/foodstim60/edamame.jpg', 'key': 'u', 'origWidth': 409, 'origHeight': 410, 'width': 409, 'height': 410, 'widthPercent': 0.45, 'rescaleHeight': False, 'trialN': 42, 'loaded': True, 'loadedTime': 2026.7000000178814, 'positionName': 'LEFT', 'positionCoords': [429.08, 286.5], 'bid': 0.28}, {'imgObject': {}, 'id': 'yogurt no spoon', 'src': '/static/foodstim60/yogurt no spoon.jpg', 'key': 'i', 'origWidth': 411, 'origHeight': 410, 'width': 411, 'height': 410, 'widthPercent': 0.45, 'rescaleHeight': False, 'trialN': 42, 'loaded': True, 'loadedTime': 2154.7000000178814, 'positionName': 'RIGHT', 'positionCoords': [907.92, 286.5], 'bid': 0.8300000000000001}]",85916.90000000596,1669832194956,edamame,yogurt no spoon,0.28,0.8300000000000001,0.55,yogurt no spoon,1525.5999999940395,1526,1525.9000000059605,True,i,87953.09999999404,2036.199999988079,1669832196992,2036,HRV,HRV_0190,2022-11-30 18:21:08
43,"[{'imgObject': {}, 'id': 'mac & cheese', 'src': '/static/foodstim60/mac & cheese.jpg', 'key': 'u', 'origWidth': 410, 'origHeight': 410, 'width': 410, 'height': 410, 'widthPercent': 0.45, 'rescaleHeight': False, 'trialN': 43, 'loaded': True, 'loadedTime': 2029.9000000059605, 'positionName': 'LEFT', 'positionCoords': [428.08, 286.5], 'bid': 7.98}, {'imgObject': {}, 'id': 'omelette', 'src': '/static/foodstim60/omelette.jpg', 'key': 'i', 'origWidth': 410, 'origHeight': 409, 'width': 410, 'height': 409, 'widthPercent': 0.45, 'rescaleHeight': False, 'trialN': 43, 'loaded': True, 'loadedTime': 2266.4000000059605, 'positionName': 'RIGHT', 'positionCoords': [907.92, 287], 'bid': 8.2}]",87953.20000001788,1669832196993,mac & cheese,omelette,7.98,8.2,0.21999999999999886,mac & cheese,1975.3999999761581,1975,1975.5999999940395,True,u,90442.70000001788,2489.5,1669832199482,2489,HRV,HRV_0190,2022-11-30 18:21:08
44,"[{'imgObject': {}, 'id': 'avocado', 'src': '/static/foodstim60/avocado.jpg', 'key': 'u', 'origWidth': 409, 'origHeight': 409, 'width': 409, 'height': 409, 'widthPercent': 0.45, 'rescaleHeight': False, 'trialN': 44, 'loaded': True, 'loadedTime': 2268.800000011921, 'positionName': 'LEFT', 'positionCoords': [429.08, 287], 'bid': 3.56}, {'imgObject': {}, 'id': 'mango', 'src': '/static/foodstim60/mango.jpg', 'key': 'i', 'origWidth': 411, 'origHeight': 411, 'width': 411, 'height': 411, 'widthPercent': 0.45, 'rescaleHeight': False, 'trialN': 44, 'loaded': True, 'loadedTime': 2247.800000011921, 'positionName': 'RIGHT', 'positionCoords': [907.92, 286], 'bid': 3.59}]",90442.80000001192,1669832199482,avocado,mango,3.56,3.59,0.029999999999999805,avocado,1122.7999999821186,1123,1123.0999999940395,True,u,92077.30000001192,1634.5,1669832201117,1635,HRV,HRV_0190,2022-11-30 18:21:08
45,"[{'imgObject': {}, 'id': 'steak', 'src': '/static/foodstim60/steak.jpg', 'key': 'u', 'origWidth': 410, 'origHeight': 410, 'width': 410, 'height': 410, 'widthPercent': 0.45, 'rescaleHeight': False, 'trialN': 45, 'loaded': True, 'loadedTime': 2161.2000000178814, 'positionName': 'LEFT', 'positionCoords': [428.08, 286.5], 'bid': 5.83}, {'imgObject': {}, 'id': 'turkeysandwich', 'src': '/static/foodstim60/turkeysandwich.jpg', 'key': 'i', 'origWidth': 409, 'origHeight': 409, 'width': 409, 'height': 409, 'widthPercent': 0.45, 'rescaleHeight': False, 'trialN': 45, 'loaded': True, 'loadedTime': 2270.4000000059605, 'positionName': 'RIGHT', 'positionCoords': [907.92, 287], 'bid': 8.15}]",92077.5,1669832201117,steak,turkeysandwich,5.83,8.15,2.3200000000000003,turkeysandwich,1256.0,1256,1256.300000011921,True,i,93850.09999999404,1772.5999999940395,1669832202889,1772,HRV,HRV_0190,2022-11-30 18:21:08
46,"[{'imgObject': {}, 'id': 'pear', 'src': '/static/foodstim60/pear.jpg', 'key': 'u', 'origWidth': 411, 'origHeight': 410, 'width': 411, 'height': 410, 'widthPercent': 0.45, 'rescaleHeight': False, 'trialN': 46, 'loaded': True, 'loadedTime': 2272.9000000059605, 'positionName': 'LEFT', 'positionCoords': [427.08, 286.5], 'bid': 6.93}, {'imgObject': {}, 'id': 'avocado', 'src': '/static/foodstim60/avocado.jpg', 'key': 'i', 'origWidth': 409, 'origHeight': 409, 'width': 409, 'height': 409, 'widthPercent': 0.45, 'rescaleHeight': False, 'trialN': 46, 'loaded': True, 'loadedTime': 2269.0999999940395, 'positionName': 'RIGHT', 'positionCoords': [907.92, 287], 'bid': 3.56}]",93850.20000001788,1669832202890,pear,avocado,6.93,3.56,-3.3699999999999997,avocado,1188.2999999821186,1187,1188.5,True,i,95554.40000000596,1704.199999988079,1669832204593,1703,HRV,HRV_0190,2022-11-30 18:21:08
47,"[{'imgObject': {}, 'id': 'yogurt no spoon', 'src': '/static/foodstim60/yogurt no spoon.jpg', 'key': 'u', 'origWidth': 411, 'origHeight': 410, 'width': 411, 'height': 410, 'widthPercent': 0.45, 'rescaleHeight': False, 'trialN': 47, 'loaded': True, 'loadedTime': 2154.4000000059605, 'positionName': 'LEFT', 'positionCoords': [427.08, 286.5], 'bid': 0.8300000000000001}, {'imgObject': {}, 'id': 'raisin bran w milk', 'src': '/static/foodstim60/raisin bran w milk.jpg', 'key': 'i', 'origWidth': 411, 'origHeight': 411, 'width': 411, 'height': 411, 'widthPercent': 0.45, 'rescaleHeight': False, 'trialN': 47, 'loaded': True, 'loadedTime': 2265.5999999940395, 'positionName': 'RIGHT', 'positionCoords': [907.92, 286], 'bid': 1.23}]",95554.59999999404,1669832204593,yogurt no spoon,raisin bran w milk,0.8300000000000001,1.23,0.3999999999999999,yogurt no spoon,2289.9000000059605,2290,2290.2000000178814,True,u,98361.59999999404,2807.0,1669832207400,2807,HRV,HRV_0190,2022-11-30 18:21:08
48,"[{'imgObject': {}, 'id': 'mac & cheese', 'src': '/static/foodstim60/mac & cheese.jpg', 'key': 'u', 'origWidth': 410, 'origHeight': 410, 'width': 410, 'height': 410, 'widthPercent': 0.45, 'rescaleHeight': False, 'trialN': 48, 'loaded': True, 'loadedTime': 2029.5999999940395, 'positionName': 'LEFT', 'positionCoords': [428.08, 286.5], 'bid': 7.98}, {'imgObject': {}, 'id': 'tacos', 'src': '/static/foodstim60/tacos.jpg', 'key': 'i', 'origWidth': 411, 'origHeight': 411, 'width': 411, 'height': 411, 'widthPercent': 0.45, 'rescaleHeight': False, 'trialN': 48, 'loaded': True, 'loadedTime': 2227.4000000059605, 'positionName': 'RIGHT', 'positionCoords': [907.92, 286], 'bid': 7.87}]",98361.80000001192,1669832207400,mac & cheese,tacos,7.98,7.87,-0.11000000000000032,tacos,1711.5999999940395,1712,1712.0,True,i,100582.30000001192,2220.5,1669832209621,2221,HRV,HRV_0190,2022-11-30 18:21:08
49,"[{'imgObject': {}, 'id': 'corn cob', 'src': '/static/foodstim60/corn cob.jpg', 'key': 'u', 'origWidth': 411, 'origHeight': 411, 'width': 411, 'height': 411, 'widthPercent': 0.45, 'rescaleHeight': False, 'trialN': 49, 'loaded': True, 'loadedTime': 2159.5999999940395, 'positionName': 'LEFT', 'positionCoords': [427.08, 286], 'bid': 6.26}, {'imgObject': {}, 'id': 'rigatoni and sauce', 'src': '/static/foodstim60/rigatoni and sauce.jpg', 'key': 'i', 'origWidth': 410, 'origHeight': 411, 'width': 410, 'height': 411, 'widthPercent': 0.45, 'rescaleHeight': False, 'trialN': 49, 'loaded': True, 'loadedTime': 2263.9000000059605, 'positionName': 'RIGHT', 'positionCoords': [907.92, 286], 'bid': 7.8}]",100582.5,1669832209621,corn cob,rigatoni and sauce,6.26,7.8,1.54,rigatoni and sauce,2005.0999999940395,2005,2005.4000000059605,True,i,103103.09999999404,2520.5999999940395,1669832212141,2520,HRV,HRV_0190,2022-11-30 18:21:08
50,"[{'imgObject': {}, 'id': 'salad w chicken', 'src': '/static/foodstim60/salad w chicken.jpg', 'key': 'u', 'origWidth': 411, 'origHeight': 411, 'width': 411, 'height': 411, 'widthPercent': 0.45, 'rescaleHeight': False, 'trialN': 50, 'loaded': True, 'loadedTime': 2230.7000000178814, 'positionName': 'LEFT', 'positionCoords': [427.08, 286], 'bid': 9.77}, {'imgObject': {}, 'id': 'hotdog w must', 'src': '/static/foodstim60/hotdog w must.jpg', 'key': 'i', 'origWidth': 409, 'origHeight': 409, 'width': 409, 'height': 409, 'widthPercent': 0.45, 'rescaleHeight': False, 'trialN': 50, 'loaded': True, 'loadedTime': 2009.7000000178814, 'positionName': 'RIGHT', 'positionCoords': [907.92, 287], 'bid': 8.39}]",103103.30000001192,1669832212141,salad w chicken,hotdog w must,9.77,8.39,-1.379999999999999,salad w chicken,1041.199999988079,1042,1041.5,True,u,104659.90000000596,1556.5999999940395,1669832213698,1557,HRV,HRV_0190,2022-11-30 18:21:08
51,"[{'imgObject': {}, 'id': 'salad w chicken', 'src': '/static/foodstim60/salad w chicken.jpg', 'key': 'u', 'origWidth': 411, 'origHeight': 411, 'width': 411, 'height': 411, 'widthPercent': 0.45, 'rescaleHeight': False, 'trialN': 51, 'loaded': True, 'loadedTime': 2230.800000011921, 'positionName': 'LEFT', 'positionCoords': [427.08, 286], 'bid': 9.77}, {'imgObject': {}, 'id': 'tacos', 'src': '/static/foodstim60/tacos.jpg', 'key': 'i', 'origWidth': 411, 'origHeight': 411, 'width': 411, 'height': 411, 'widthPercent': 0.45, 'rescaleHeight': False, 'trialN': 51, 'loaded': True, 'loadedTime': 2227.9000000059605, 'positionName': 'RIGHT', 'positionCoords': [907.92, 286], 'bid': 7.87}]",104660.09999999404,1669832213698,salad w chicken,tacos,9.77,7.87,-1.8999999999999995,salad w chicken,1203.4000000059605,1204,1203.6000000238419,True,u,106380.09999999404,1720.0,1669832215418,1720,HRV,HRV_0190,2022-11-30 18:21:08
52,"[{'imgObject': {}, 'id': 'eggs', 'src': '/static/foodstim60/eggs.jpg', 'key': 'u', 'origWidth': 409, 'origHeight': 409, 'width': 409, 'height': 409, 'widthPercent': 0.45, 'rescaleHeight': False, 'trialN': 52, 'loaded': True, 'loadedTime': 2209.2000000178814, 'positionName': 'LEFT', 'positionCoords': [429.08, 287], 'bid': 5.29}, {'imgObject': {}, 'id': 'salmon', 'src': '/static/foodstim60/salmon.jpg', 'key': 'i', 'origWidth': 410, 'origHeight': 409, 'width': 410, 'height': 409, 'widthPercent': 0.45, 'rescaleHeight': False, 'trialN': 52, 'loaded': True, 'loadedTime': 2149.4000000059605, 'positionName': 'RIGHT', 'positionCoords': [907.92, 287], 'bid': 4.73}]",106380.30000001192,1669832215419,eggs,salmon,5.29,4.73,-0.5599999999999996,eggs,1808.0999999940395,1808,1808.4000000059605,True,u,108701.90000000596,2321.5999999940395,1669832217740,2321,HRV,HRV_0190,2022-11-30 18:21:08
53,"[{'imgObject': {}, 'id': 'sweetpotato', 'src': '/static/foodstim60/sweetpotato.jpg', 'key': 'u', 'origWidth': 410, 'origHeight': 410, 'width': 410, 'height': 410, 'widthPercent': 0.45, 'rescaleHeight': False, 'trialN': 53, 'loaded': True, 'loadedTime': 2274.0999999940395, 'positionName': 'LEFT', 'positionCoords': [428.08, 286.5], 'bid': 2.17}, {'imgObject': {}, 'id': 'yogurt no spoon', 'src': '/static/foodstim60/yogurt no spoon.jpg', 'key': 'i', 'origWidth': 411, 'origHeight': 410, 'width': 411, 'height': 410, 'widthPercent': 0.45, 'rescaleHeight': False, 'trialN': 53, 'loaded': True, 'loadedTime': 2154.9000000059605, 'positionName': 'RIGHT', 'positionCoords': [907.92, 286.5], 'bid': 0.8300000000000001}]",108702.09999999404,1669832217740,sweetpotato,yogurt no spoon,2.17,0.8300000000000001,-1.3399999999999999,yogurt no spoon,1158.4000000059605,1159,1158.7000000178814,True,i,110374.90000000596,1672.800000011921,1669832219413,1673,HRV,HRV_0190,2022-11-30 18:21:08
54,"[{'imgObject': {}, 'id': 'grilled chicken strips', 'src': '/static/foodstim60/grilled chicken strips.jpg', 'key': 'u', 'origWidth': 410, 'origHeight': 411, 'width': 410, 'height': 411, 'widthPercent': 0.45, 'rescaleHeight': False, 'trialN': 54, 'loaded': True, 'loadedTime': 2229.5, 'positionName': 'LEFT', 'positionCoords': [428.08, 286], 'bid': 7.72}, {'imgObject': {}, 'id': 'fried eggs', 'src': '/static/foodstim60/fried eggs.jpg', 'key': 'i', 'origWidth': 410, 'origHeight': 410, 'width': 410, 'height': 410, 'widthPercent': 0.45, 'rescaleHeight': False, 'trialN': 54, 'loaded': True, 'loadedTime': 2035.300000011921, 'positionName': 'RIGHT', 'positionCoords': [907.92, 286.5], 'bid': 6.74}]",110375.0,1669832219413,grilled chicken strips,fried eggs,7.72,6.74,-0.9799999999999995,grilled chicken strips,1532.5,1533,1532.9000000059605,True,u,112411.0,2036.0,1669832221449,2036,HRV,HRV_0190,2022-11-30 18:21:08
55,"[{'imgObject': {}, 'id': 'luckycharms', 'src': '/static/foodstim60/luckycharms.jpg', 'key': 'u', 'origWidth': 410, 'origHeight': 409, 'width': 410, 'height': 409, 'widthPercent': 0.45, 'rescaleHeight': False, 'trialN': 55, 'loaded': True, 'loadedTime': 2276.4000000059605, 'positionName': 'LEFT', 'positionCoords': [428.08, 287], 'bid': 0.65}, {'imgObject': {}, 'id': 'cocktailshrimp', 'src': '/static/foodstim60/cocktailshrimp.jpg', 'key': 'i', 'origWidth': 410, 'origHeight': 410, 'width': 410, 'height': 410, 'widthPercent': 0.45, 'rescaleHeight': False, 'trialN': 55, 'loaded': True, 'loadedTime': 2246.4000000059605, 'positionName': 'RIGHT', 'positionCoords': [907.92, 286.5], 'bid': 5.48}]",112411.20000001788,1669832221449,luckycharms,cocktailshrimp,0.65,5.48,4.83,cocktailshrimp,1545.2999999821186,1546,1545.5999999940395,True,i,114469.0,2057.7999999821186,1669832223507,2058,HRV,HRV_0190,2022-11-30 18:21:08
56,"[{'imgObject': {}, 'id': 'sweetpotato', 'src': '/static/foodstim60/sweetpotato.jpg', 'key': 'u', 'origWidth': 410, 'origHeight': 410, 'width': 410, 'height': 410, 'widthPercent': 0.45, 'rescaleHeight': False, 'trialN': 56, 'loaded': True, 'loadedTime': 2273.2000000178814, 'positionName': 'LEFT', 'positionCoords': [428.08, 286.5], 'bid': 2.17}, {'imgObject': {}, 'id': 'fruitsalad', 'src': '/static/foodstim60/fruitsalad.jpg', 'key': 'i', 'origWidth': 410, 'origHeight': 410, 'width': 410, 'height': 410, 'widthPercent': 0.45, 'rescaleHeight': False, 'trialN': 56, 'loaded': True, 'loadedTime': 2191, 'positionName': 'RIGHT', 'positionCoords': [907.92, 286.5], 'bid': 2.74}]",114469.20000001788,1669832223507,sweetpotato,fruitsalad,2.17,2.74,0.5700000000000003,fruitsalad,1109.199999988079,1110,1109.5,True,i,116088.70000001788,1619.5,1669832225127,1620,HRV,HRV_0190,2022-11-30 18:21:08
57,"[{'imgObject': {}, 'id': 'avocado', 'src': '/static/foodstim60/avocado.jpg', 'key': 'u', 'origWidth': 409, 'origHeight': 409, 'width': 409, 'height': 409, 'widthPercent': 0.45, 'rescaleHeight': False, 'trialN': 57, 'loaded': True, 'loadedTime': 2268.9000000059605, 'positionName': 'LEFT', 'positionCoords': [429.08, 287], 'bid': 3.56}, {'imgObject': {}, 'id': 'popsicles', 'src': '/static/foodstim60/popsicles.jpg', 'key': 'i', 'origWidth': 410, 'origHeight': 410, 'width': 410, 'height': 410, 'widthPercent': 0.45, 'rescaleHeight': False, 'trialN': 57, 'loaded': True, 'loadedTime': 2115, 'positionName': 'RIGHT', 'positionCoords': [907.92, 286.5], 'bid': 0}]",116088.90000000596,1669832225127,avocado,popsicles,3.56,0.0,-3.56,avocado,1172.5999999940395,1173,1172.800000011921,True,u,117777.09999999404,1688.199999988079,1669832226815,1688,HRV,HRV_0190,2022-11-30 18:21:08
58,"[{'imgObject': {}, 'id': 'salmon', 'src': '/static/foodstim60/salmon.jpg', 'key': 'u', 'origWidth': 410, 'origHeight': 409, 'width': 410, 'height': 409, 'widthPercent': 0.45, 'rescaleHeight': False, 'trialN': 58, 'loaded': True, 'loadedTime': 2148.9000000059605, 'positionName': 'LEFT', 'positionCoords': [428.08, 287], 'bid': 4.73}, {'imgObject': {}, 'id': 'sweetpotato', 'src': '/static/foodstim60/sweetpotato.jpg', 'key': 'i', 'origWidth': 410, 'origHeight': 410, 'width': 410, 'height': 410, 'widthPercent': 0.45, 'rescaleHeight': False, 'trialN': 58, 'loaded': True, 'loadedTime': 2274.300000011921, 'positionName': 'RIGHT', 'positionCoords': [907.92, 286.5], 'bid': 2.17}]",117777.20000001788,1669832226815,salmon,sweetpotato,4.73,2.17,-2.5600000000000005,sweetpotato,1693.2999999821186,1694,1693.5,True,i,119982.30000001192,2205.0999999940395,1669832229021,2206,HRV,HRV_0190,2022-11-30 18:21:08
59,"[{'imgObject': {}, 'id': 'rigatoni', 'src': '/static/foodstim60/rigatoni.jpg', 'key': 'u', 'origWidth': 411, 'origHeight': 411, 'width': 411, 'height': 411, 'widthPercent': 0.45, 'rescaleHeight': False, 'trialN': 59, 'loaded': True, 'loadedTime': 2147.2000000178814, 'positionName': 'LEFT', 'positionCoords': [427.08, 286], 'bid': 1.02}, {'imgObject': {}, 'id': 'hashbrowns', 'src': '/static/foodstim60/hashbrowns.jpg', 'key': 'i', 'origWidth': 411, 'origHeight': 410, 'width': 411, 'height': 410, 'widthPercent': 0.45, 'rescaleHeight': False, 'trialN': 59, 'loaded': True, 'loadedTime': 2134.800000011921, 'positionName': 'RIGHT', 'positionCoords': [907.92, 286.5], 'bid': 1.07}]",119982.5,1669832229021,rigatoni,hashbrowns,1.02,1.07,0.050000000000000044,hashbrowns,1787.0,1787,1787.2000000178814,True,i,122288.80000001192,2306.300000011921,1669832231327,2306,HRV,HRV_0190,2022-11-30 18:21:08
60,"[{'imgObject': {}, 'id': 'turkey sandwich', 'src': '/static/foodstim60/turkey sandwich.jpg', 'key': 'u', 'origWidth': 409, 'origHeight': 409, 'width': 409, 'height': 409, 'widthPercent': 0.45, 'rescaleHeight': False, 'trialN': 60, 'loaded': True, 'loadedTime': 2036.4000000059605, 'positionName': 'LEFT', 'positionCoords': [429.08, 287], 'bid': 9.1}, {'imgObject': {}, 'id': 'sweetpotato', 'src': '/static/foodstim60/sweetpotato.jpg', 'key': 'i', 'origWidth': 410, 'origHeight': 410, 'width': 410, 'height': 410, 'widthPercent': 0.45, 'rescaleHeight': False, 'trialN': 60, 'loaded': True, 'loadedTime': 2273.9000000059605, 'positionName': 'RIGHT', 'positionCoords': [907.92, 286.5], 'bid': 2.17}]",122289.0,1669832231327,turkey sandwich,sweetpotato,9.1,2.17,-6.93,turkey sandwich,743.4000000059605,744,743.7000000178814,True,u,123538.20000001788,1249.2000000178814,1669832232576,1249,HRV,HRV_0190,2022-11-30 18:21:08
61,"[{'imgObject': {}, 'id': 'hotdog w must', 'src': '/static/foodstim60/hotdog w must.jpg', 'key': 'u', 'origWidth': 409, 'origHeight': 409, 'width': 409, 'height': 409, 'widthPercent': 0.45, 'rescaleHeight': False, 'trialN': 61, 'loaded': True, 'loadedTime': 2010, 'positionName': 'LEFT', 'positionCoords': [429.08, 287], 'bid': 8.39}, {'imgObject': {}, 'id': 'turkey sandwich', 'src': '/static/foodstim60/turkey sandwich.jpg', 'key': 'i', 'origWidth': 409, 'origHeight': 409, 'width': 409, 'height': 409, 'widthPercent': 0.45, 'rescaleHeight': False, 'trialN': 61, 'loaded': True, 'loadedTime': 2036.2000000178814, 'positionName': 'RIGHT', 'positionCoords': [907.92, 287], 'bid': 9.1}]",123538.5,1669832232577,hotdog w must,turkey sandwich,8.39,9.1,0.7099999999999991,turkey sandwich,1488.0999999940395,1488,1488.300000011921,True,i,125542.80000001192,2004.300000011921,1669832234581,2004,HRV,HRV_0190,2022-11-30 18:21:08
62,"[{'imgObject': {}, 'id': 'orange slices', 'src': '/static/foodstim60/orange slices.jpg', 'key': 'u', 'origWidth': 409, 'origHeight': 410, 'width': 409, 'height': 410, 'widthPercent': 0.45, 'rescaleHeight': False, 'trialN': 62, 'loaded': True, 'loadedTime': 2158.5999999940395, 'positionName': 'LEFT', 'positionCoords': [429.08, 286.5], 'bid': 1.96}, {'imgObject': {}, 'id': 'chickenfingers', 'src': '/static/foodstim60/chickenfingers.jpg', 'key': 'i', 'origWidth': 410, 'origHeight': 410, 'width': 410, 'height': 410, 'widthPercent': 0.45, 'rescaleHeight': False, 'trialN': 62, 'loaded': True, 'loadedTime': 2004, 'positionName': 'RIGHT', 'positionCoords': [907.92, 286.5], 'bid': 9}]",125542.90000000596,1669832234581,orange slices,chickenfingers,1.96,9.0,7.04,chickenfingers,779.8000000119209,780,780.0,True,i,126830.09999999404,1287.199999988079,1669832235868,1287,HRV,HRV_0190,2022-11-30 18:21:08
63,"[{'imgObject': {}, 'id': 'eggs', 'src': '/static/foodstim60/eggs.jpg', 'key': 'u', 'origWidth': 409, 'origHeight': 409, 'width': 409, 'height': 409, 'widthPercent': 0.45, 'rescaleHeight': False, 'trialN': 63, 'loaded': True, 'loadedTime': 2209, 'positionName': 'LEFT', 'positionCoords': [429.08, 287], 'bid': 5.29}, {'imgObject': {}, 'id': 'Grapes', 'src': '/static/foodstim60/Grapes.jpg', 'key': 'i', 'origWidth': 411, 'origHeight': 411, 'width': 411, 'height': 411, 'widthPercent': 0.45, 'rescaleHeight': False, 'trialN': 63, 'loaded': True, 'loadedTime': 2095.5999999940395, 'positionName': 'RIGHT', 'positionCoords': [907.92, 286], 'bid': 3.52}]",126830.20000001788,1669832235868,eggs,Grapes,5.29,3.52,-1.77,eggs,694.2999999821186,695,694.5999999940395,True,u,128033.0,1202.7999999821186,1669832237071,1203,HRV,HRV_0190,2022-11-30 18:21:08
64,"[{'imgObject': {}, 'id': 'baked potato', 'src': '/static/foodstim60/baked potato.jpg', 'key': 'u', 'origWidth': 409, 'origHeight': 410, 'width': 409, 'height': 410, 'widthPercent': 0.45, 'rescaleHeight': False, 'trialN': 64, 'loaded': True, 'loadedTime': 1994.300000011921, 'positionName': 'LEFT', 'positionCoords': [429.08, 286.5], 'bid': 1.86}, {'imgObject': {}, 'id': 'luckycharms', 'src': '/static/foodstim60/luckycharms.jpg', 'key': 'i', 'origWidth': 410, 'origHeight': 409, 'width': 410, 'height': 409, 'widthPercent': 0.45, 'rescaleHeight': False, 'trialN': 64, 'loaded': True, 'loadedTime': 2276.5999999940395, 'positionName': 'RIGHT', 'positionCoords': [907.92, 287], 'bid': 0.65}]",128033.09999999404,1669832237071,baked potato,luckycharms,1.86,0.65,-1.21,baked potato,863.3000000119209,864,863.6000000238419,True,u,129404.90000000596,1371.800000011921,1669832238443,1372,HRV,HRV_0190,2022-11-30 18:21:08
65,"[{'imgObject': {}, 'id': 'olives', 'src': '/static/foodstim60/olives.jpg', 'key': 'u', 'origWidth': 410, 'origHeight': 410, 'width': 410, 'height': 410, 'widthPercent': 0.45, 'rescaleHeight': False, 'trialN': 65, 'loaded': True, 'loadedTime': 2028, 'positionName': 'LEFT', 'positionCoords': [428.08, 286.5], 'bid': 0.14}, {'imgObject': {}, 'id': 'cherry tomato', 'src': '/static/foodstim60/cherry tomato.jpg', 'key': 'i', 'origWidth': 410, 'origHeight': 410, 'width': 410, 'height': 410, 'widthPercent': 0.45, 'rescaleHeight': False, 'trialN': 65, 'loaded': True, 'loadedTime': 2277.7000000178814, 'positionName': 'RIGHT', 'positionCoords': [907.92, 286.5], 'bid': 0.71}]",129405.09999999404,1669832238443,olives,cherry tomato,0.14,0.71,0.57,cherry tomato,1724.300000011921,1725,1724.5,True,i,131641.80000001192,2236.7000000178814,1669832240680,2237,HRV,HRV_0190,2022-11-30 18:21:08
66,"[{'imgObject': {}, 'id': 'steak', 'src': '/static/foodstim60/steak.jpg', 'key': 'u', 'origWidth': 410, 'origHeight': 410, 'width': 410, 'height': 410, 'widthPercent': 0.45, 'rescaleHeight': False, 'trialN': 66, 'loaded': True, 'loadedTime': 2161.4000000059605, 'positionName': 'LEFT', 'positionCoords': [428.08, 286.5], 'bid': 5.83}, {'imgObject': {}, 'id': 'mashed potato', 'src': '/static/foodstim60/mashed potato.jpg', 'key': 'i', 'origWidth': 409, 'origHeight': 409, 'width': 409, 'height': 409, 'widthPercent': 0.45, 'rescaleHeight': False, 'trialN': 66, 'loaded': True, 'loadedTime': 2278.300000011921, 'positionName': 'RIGHT', 'positionCoords': [907.92, 287], 'bid': 0.85}]",131641.90000000596,1669832240680,steak,mashed potato,5.83,0.85,-4.98,mashed potato,2178.5,2179,2178.699999988079,True,i,134333.0,2691.0999999940395,1669832243371,2691,HRV,HRV_0190,2022-11-30 18:21:08
67,"[{'imgObject': {}, 'id': 'kiwi', 'src': '/static/foodstim60/kiwi.jpg', 'key': 'u', 'origWidth': 410, 'origHeight': 410, 'width': 410, 'height': 410, 'widthPercent': 0.45, 'rescaleHeight': False, 'trialN': 67, 'loaded': True, 'loadedTime': 2282, 'positionName': 'LEFT', 'positionCoords': [428.08, 286.5], 'bid': 0.87}, {'imgObject': {}, 'id': 'mashed potato', 'src': '/static/foodstim60/mashed potato.jpg', 'key': 'i', 'origWidth': 409, 'origHeight': 409, 'width': 409, 'height': 409, 'widthPercent': 0.45, 'rescaleHeight': False, 'trialN': 67, 'loaded': True, 'loadedTime': 2280.2000000178814, 'positionName': 'RIGHT', 'positionCoords': [907.92, 287], 'bid': 0.85}]",134333.30000001192,1669832243371,kiwi,mashed potato,0.87,0.85,-0.020000000000000018,mashed potato,1016.1999999880791,1017,1016.4000000059605,True,i,135852.20000001788,1518.9000000059605,1669832244890,1519,HRV,HRV_0190,2022-11-30 18:21:08
68,"[{'imgObject': {}, 'id': 'cheerios', 'src': '/static/foodstim60/cheerios.jpg', 'key': 'u', 'origWidth': 409, 'origHeight': 410, 'width': 409, 'height': 410, 'widthPercent': 0.45, 'rescaleHeight': False, 'trialN': 68, 'loaded': True, 'loadedTime': 2192.2000000178814, 'positionName': 'LEFT', 'positionCoords': [429.08, 286.5], 'bid': 0.92}, {'imgObject': {}, 'id': 'sushi w_condiments', 'src': '/static/foodstim60/sushi w_condiments.jpg', 'key': 'i', 'origWidth': 410, 'origHeight': 410, 'width': 410, 'height': 410, 'widthPercent': 0.45, 'rescaleHeight': False, 'trialN': 68, 'loaded': True, 'loadedTime': 2025.9000000059605, 'positionName': 'RIGHT', 'positionCoords': [907.92, 286.5], 'bid': 6.67}]",135852.40000000596,1669832244891,cheerios,sushi w_condiments,0.92,6.67,5.75,sushi w_condiments,912.0999999940395,912,912.4000000059605,True,i,137286.0,1433.5999999940395,1669832246324,1433,HRV,HRV_0190,2022-11-30 18:21:08
69,"[{'imgObject': {}, 'id': 'apple slices', 'src': '/static/foodstim60/apple slices.jpg', 'key': 'u', 'origWidth': 409, 'origHeight': 410, 'width': 409, 'height': 410, 'widthPercent': 0.45, 'rescaleHeight': False, 'trialN': 69, 'loaded': True, 'loadedTime': 2137.300000011921, 'positionName': 'LEFT', 'positionCoords': [429.08, 286.5], 'bid': 3.06}, {'imgObject': {}, 'id': 'chicken nuggets2', 'src': '/static/foodstim60/chicken nuggets2.jpg', 'key': 'i', 'origWidth': 410, 'origHeight': 409, 'width': 410, 'height': 409, 'widthPercent': 0.45, 'rescaleHeight': False, 'trialN': 69, 'loaded': True, 'loadedTime': 2021.7000000178814, 'positionName': 'RIGHT', 'positionCoords': [907.92, 287], 'bid': 9.52}]",137286.20000001788,1669832246324,apple slices,chicken nuggets2,3.06,9.52,6.459999999999999,chicken nuggets2,816.2999999821186,817,816.5,True,i,138626.40000000596,1340.199999988079,1669832247665,1341,HRV,HRV_0190,2022-11-30 18:21:08
70,"[{'imgObject': {}, 'id': 'raspberries', 'src': '/static/foodstim60/raspberries.jpg', 'key': 'u', 'origWidth': 411, 'origHeight': 411, 'width': 411, 'height': 411, 'widthPercent': 0.45, 'rescaleHeight': False, 'trialN': 70, 'loaded': True, 'loadedTime': 2011.4000000059605, 'positionName': 'LEFT', 'positionCoords': [427.08, 286], 'bid': 0.87}, {'imgObject': {}, 'id': 'rigatoni', 'src': '/static/foodstim60/rigatoni.jpg', 'key': 'i', 'origWidth': 411, 'origHeight': 411, 'width': 411, 'height': 411, 'widthPercent': 0.45, 'rescaleHeight': False, 'trialN': 70, 'loaded': True, 'loadedTime': 2148.300000011921, 'positionName': 'RIGHT', 'positionCoords': [907.92, 286], 'bid': 1.02}]",138626.59999999404,1669832247665,raspberries,rigatoni,0.87,1.02,0.15000000000000002,rigatoni,889.8000000119209,890,890.2000000178814,True,i,140029.80000001192,1403.2000000178814,1669832249068,1403,HRV,HRV_0190,2022-11-30 18:21:08
71,"[{'imgObject': {}, 'id': 'cocktailshrimp', 'src': '/static/foodstim60/cocktailshrimp.jpg', 'key': 'u', 'origWidth': 410, 'origHeight': 410, 'width': 410, 'height': 410, 'widthPercent': 0.45, 'rescaleHeight': False, 'trialN': 71, 'loaded': True, 'loadedTime': 2231.5, 'positionName': 'LEFT', 'positionCoords': [428.08, 286.5], 'bid': 5.48}, {'imgObject': {}, 'id': 'sushi w_condiments', 'src': '/static/foodstim60/sushi w_condiments.jpg', 'key': 'i', 'origWidth': 410, 'origHeight': 410, 'width': 410, 'height': 410, 'widthPercent': 0.45, 'rescaleHeight': False, 'trialN': 71, 'loaded': True, 'loadedTime': 2025.5999999940395, 'positionName': 'RIGHT', 'positionCoords': [907.92, 286.5], 'bid': 6.67}]",140030.0,1669832249068,cocktailshrimp,sushi w_condiments,5.48,6.67,1.1899999999999995,sushi w_condiments,723.4000000059605,724,723.7000000178814,True,i,141264.09999999404,1234.0999999940395,1669832250302,1234,HRV,HRV_0190,2022-11-30 18:21:08
72,"[{'imgObject': {}, 'id': 'veggieswithdip', 'src': '/static/foodstim60/veggieswithdip.jpg', 'key': 'u', 'origWidth': 409, 'origHeight': 409, 'width': 409, 'height': 409, 'widthPercent': 0.45, 'rescaleHeight': False, 'trialN': 72, 'loaded': True, 'loadedTime': 2150.4000000059605, 'positionName': 'LEFT', 'positionCoords': [429.08, 287], 'bid': 0.14}, {'imgObject': {}, 'id': 'shreddedwheatwithmilk', 'src': '/static/foodstim60/shreddedwheatwithmilk.jpg', 'key': 'i', 'origWidth': 410, 'origHeight': 410, 'width': 410, 'height': 410, 'widthPercent': 0.45, 'rescaleHeight': False, 'trialN': 72, 'loaded': True, 'loadedTime': 2033.0999999940395, 'positionName': 'RIGHT', 'positionCoords': [907.92, 286.5], 'bid': 1.08}]",141264.30000001192,1669832250302,veggieswithdip,shreddedwheatwithmilk,0.14,1.08,0.9400000000000001,shreddedwheatwithmilk,1381.199999988079,1382,1381.4000000059605,True,i,143153.40000000596,1889.0999999940395,1669832252192,1890,HRV,HRV_0190,2022-11-30 18:21:08
73,"[{'imgObject': {}, 'id': 'cantaloupe', 'src': '/static/foodstim60/cantaloupe.jpg', 'key': 'u', 'origWidth': 409, 'origHeight': 409, 'width': 409, 'height': 409, 'widthPercent': 0.45, 'rescaleHeight': False, 'trialN': 73, 'loaded': True, 'loadedTime': 2139.5999999940395, 'positionName': 'LEFT', 'positionCoords': [429.08, 287], 'bid': 1.4}, {'imgObject': {}, 'id': 'avocado', 'src': '/static/foodstim60/avocado.jpg', 'key': 'i', 'origWidth': 409, 'origHeight': 409, 'width': 409, 'height': 409, 'widthPercent': 0.45, 'rescaleHeight': False, 'trialN': 73, 'loaded': True, 'loadedTime': 2269.5999999940395, 'positionName': 'RIGHT', 'positionCoords': [907.92, 287], 'bid': 3.56}]",143153.59999999404,1669832252192,cantaloupe,avocado,1.4,3.56,2.16,avocado,1506.800000011921,1507,1507.1000000238419,True,i,145174.0,2020.4000000059605,1669832254212,2020,HRV,HRV_0190,2022-11-30 18:21:08
74,"[{'imgObject': {}, 'id': 'veggieswithdip', 'src': '/static/foodstim60/veggieswithdip.jpg', 'key': 'u', 'origWidth': 409, 'origHeight': 409, 'width': 409, 'height': 409, 'widthPercent': 0.45, 'rescaleHeight': False, 'trialN': 74, 'loaded': True, 'loadedTime': 2149.800000011921, 'positionName': 'LEFT', 'positionCoords': [429.08, 287], 'bid': 0.14}, {'imgObject': {}, 'id': 'popsicles', 'src': '/static/foodstim60/popsicles.jpg', 'key': 'i', 'origWidth': 410, 'origHeight': 410, 'width': 410, 'height': 410, 'widthPercent': 0.45, 'rescaleHeight': False, 'trialN': 74, 'loaded': True, 'loadedTime': 2113.4000000059605, 'positionName': 'RIGHT', 'positionCoords': [907.92, 286.5], 'bid': 0}]",145174.20000001788,1669832254212,veggieswithdip,popsicles,0.14,0.0,-0.14,veggieswithdip,1447.3999999761581,1448,1447.5,True,u,147148.0,1973.7999999821186,1669832256186,1974,HRV,HRV_0190,2022-11-30 18:21:08
75,"[{'imgObject': {}, 'id': 'cheerios', 'src': '/static/foodstim60/cheerios.jpg', 'key': 'u', 'origWidth': 409, 'origHeight': 410, 'width': 409, 'height': 410, 'widthPercent': 0.45, 'rescaleHeight': False, 'trialN': 75, 'loaded': True, 'loadedTime': 2192.5, 'positionName': 'LEFT', 'positionCoords': [429.08, 286.5], 'bid': 0.92}, {'imgObject': {}, 'id': 'raisin bran w milk', 'src': '/static/foodstim60/raisin bran w milk.jpg', 'key': 'i', 'origWidth': 411, 'origHeight': 411, 'width': 411, 'height': 411, 'widthPercent': 0.45, 'rescaleHeight': False, 'trialN': 75, 'loaded': True, 'loadedTime': 2265.5, 'positionName': 'RIGHT', 'positionCoords': [907.92, 286], 'bid': 1.23}]",147148.09999999404,1669832256186,cheerios,raisin bran w milk,0.92,1.23,0.30999999999999994,raisin bran w milk,2073.300000011921,2074,2073.7000000178814,True,i,149732.09999999404,2584.0,1669832258770,2584,HRV,HRV_0190,2022-11-30 18:21:08
76,"[{'imgObject': {}, 'id': 'burger', 'src': '/static/foodstim60/burger.jpg', 'key': 'u', 'origWidth': 409, 'origHeight': 409, 'width': 409, 'height': 409, 'widthPercent': 0.45, 'rescaleHeight': False, 'trialN': 76, 'loaded': True, 'loadedTime': 2097.0999999940395, 'positionName': 'LEFT', 'positionCoords': [429.08, 287], 'bid': 9.87}, {'imgObject': {}, 'id': 'mac & cheese', 'src': '/static/foodstim60/mac & cheese.jpg', 'key': 'i', 'origWidth': 410, 'origHeight': 410, 'width': 410, 'height': 410, 'widthPercent': 0.45, 'rescaleHeight': False, 'trialN': 76, 'loaded': True, 'loadedTime': 2030.2000000178814, 'positionName': 'RIGHT', 'positionCoords': [907.92, 286.5], 'bid': 7.98}]",149732.30000001192,1669832258770,burger,mac & cheese,9.87,7.98,-1.8899999999999988,burger,1973.199999988079,1974,1973.5,True,u,152221.90000000596,2489.5999999940395,1669832261260,2490,HRV,HRV_0190,2022-11-30 18:21:08
77,"[{'imgObject': {}, 'id': 'lox', 'src': '/static/foodstim60/lox.jpg', 'key': 'u', 'origWidth': 410, 'origHeight': 411, 'width': 410, 'height': 411, 'widthPercent': 0.45, 'rescaleHeight': False, 'trialN': 77, 'loaded': True, 'loadedTime': 2155.2000000178814, 'positionName': 'LEFT', 'positionCoords': [428.08, 286], 'bid': 5.8}, {'imgObject': {}, 'id': 'cocktailshrimp', 'src': '/static/foodstim60/cocktailshrimp.jpg', 'key': 'i', 'origWidth': 410, 'origHeight': 410, 'width': 410, 'height': 410, 'widthPercent': 0.45, 'rescaleHeight': False, 'trialN': 77, 'loaded': True, 'loadedTime': 2231.4000000059605, 'positionName': 'RIGHT', 'positionCoords': [907.92, 286.5], 'bid': 5.48}]",152222.09999999404,1669832261260,lox,cocktailshrimp,5.8,5.48,-0.3199999999999994,lox,1799.300000011921,1800,1799.6000000238419,True,u,154543.0,2320.9000000059605,1669832263581,2321,HRV,HRV_0190,2022-11-30 18:21:08
78,"[{'imgObject': {}, 'id': 'omelette', 'src': '/static/foodstim60/omelette.jpg', 'key': 'u', 'origWidth': 410, 'origHeight': 409, 'width': 410, 'height': 409, 'widthPercent': 0.45, 'rescaleHeight': False, 'trialN': 78, 'loaded': True, 'loadedTime': 2266.5999999940395, 'positionName': 'LEFT', 'positionCoords': [428.08, 287], 'bid': 8.2}, {'imgObject': {}, 'id': 'seaweed', 'src': '/static/foodstim60/seaweed.jpg', 'key': 'i', 'origWidth': 410, 'origHeight': 410, 'width': 410, 'height': 410, 'widthPercent': 0.45, 'rescaleHeight': False, 'trialN': 78, 'loaded': True, 'loadedTime': 2283.9000000059605, 'positionName': 'RIGHT', 'positionCoords': [907.92, 286.5], 'bid': 5.45}]",154543.20000001788,1669832263581,omelette,seaweed,8.2,5.45,-2.749999999999999,omelette,2437.2999999821186,2430,2437.5999999940395,True,u,157503.80000001192,2960.5999999940395,1669832266534,2953,HRV,HRV_0190,2022-11-30 18:21:08
79,"[{'imgObject': {}, 'id': 'orange slices', 'src': '/static/foodstim60/orange slices.jpg', 'key': 'u', 'origWidth': 409, 'origHeight': 410, 'width': 409, 'height': 410, 'widthPercent': 0.45, 'rescaleHeight': False, 'trialN': 79, 'loaded': True, 'loadedTime': 2158.5, 'positionName': 'LEFT', 'positionCoords': [429.08, 286.5], 'bid': 1.96}, {'imgObject': {}, 'id': 'baked potato', 'src': '/static/foodstim60/baked potato.jpg', 'key': 'i', 'origWidth': 409, 'origHeight': 410, 'width': 409, 'height': 410, 'widthPercent': 0.45, 'rescaleHeight': False, 'trialN': 79, 'loaded': True, 'loadedTime': 1994.800000011921, 'positionName': 'RIGHT', 'positionCoords': [907.92, 286.5], 'bid': 1.86}]",157503.90000000596,1669832266534,orange slices,baked potato,1.96,1.86,-0.09999999999999987,baked potato,721.5,722,721.6999999880791,True,i,158737.5,1233.5999999940395,1669832267767,1233,HRV,HRV_0190,2022-11-30 18:21:08
80,"[{'imgObject': {}, 'id': 'burrito', 'src': '/static/foodstim60/burrito.jpg', 'key': 'u', 'origWidth': 410, 'origHeight': 410, 'width': 410, 'height': 410, 'widthPercent': 0.45, 'rescaleHeight': False, 'trialN': 80, 'loaded': True, 'loadedTime': 2169, 'positionName': 'LEFT', 'positionCoords': [428.08, 286.5], 'bid': 9.36}, {'imgObject': {}, 'id': 'salad w chicken', 'src': '/static/foodstim60/salad w chicken.jpg', 'key': 'i', 'origWidth': 411, 'origHeight': 411, 'width': 411, 'height': 411, 'widthPercent': 0.45, 'rescaleHeight': False, 'trialN': 80, 'loaded': True, 'loadedTime': 2230.5, 'positionName': 'RIGHT', 'positionCoords': [907.92, 286], 'bid': 9.77}]",158737.59999999404,1669832267768,burrito,salad w chicken,9.36,9.77,0.41000000000000014,burrito,599.8000000119209,600,600.1000000238419,True,u,159854.70000001788,1117.1000000238419,1669832268885,1117,HRV,HRV_0190,2022-11-30 18:21:08
81,"[{'imgObject': {}, 'id': 'mashed potato', 'src': '/static/foodstim60/mashed potato.jpg', 'key': 'u', 'origWidth': 409, 'origHeight': 409, 'width': 409, 'height': 409, 'widthPercent': 0.45, 'rescaleHeight': False, 'trialN': 81, 'loaded': True, 'loadedTime': 2280.800000011921, 'positionName': 'LEFT', 'positionCoords': [429.08, 287], 'bid': 0.85}, {'imgObject': {}, 'id': 'cherry tomato', 'src': '/static/foodstim60/cherry tomato.jpg', 'key': 'i', 'origWidth': 410, 'origHeight': 410, 'width': 410, 'height': 410, 'widthPercent': 0.45, 'rescaleHeight': False, 'trialN': 81, 'loaded': True, 'loadedTime': 2277.800000011921, 'positionName': 'RIGHT', 'positionCoords': [907.92, 286.5], 'bid': 0.71}]",159854.80000001192,1669832268885,mashed potato,cherry tomato,0.85,0.71,-0.14,mashed potato,1191.5999999940395,1192,1191.9000000059605,True,u,161558.40000000596,1703.5999999940395,1669832270588,1703,HRV,HRV_0190,2022-11-30 18:21:08
82,"[{'imgObject': {}, 'id': 'omelette', 'src': '/static/foodstim60/omelette.jpg', 'key': 'u', 'origWidth': 410, 'origHeight': 409, 'width': 410, 'height': 409, 'widthPercent': 0.45, 'rescaleHeight': False, 'trialN': 82, 'loaded': True, 'loadedTime': 2266.800000011921, 'positionName': 'LEFT', 'positionCoords': [428.08, 287], 'bid': 8.2}, {'imgObject': {}, 'id': 'granola w milk', 'src': '/static/foodstim60/granola w milk.jpg', 'key': 'i', 'origWidth': 410, 'origHeight': 410, 'width': 410, 'height': 410, 'widthPercent': 0.45, 'rescaleHeight': False, 'trialN': 82, 'loaded': True, 'loadedTime': 2162.9000000059605, 'positionName': 'RIGHT', 'positionCoords': [907.92, 286.5], 'bid': 1.72}]",161558.5,1669832270588,omelette,granola w milk,8.2,1.72,-6.4799999999999995,omelette,858.9000000059605,860,859.2000000178814,True,u,162930.0,1371.5,1669832271960,1372,HRV,HRV_0190,2022-11-30 18:21:08
83,"[{'imgObject': {}, 'id': 'salmon', 'src': '/static/foodstim60/salmon.jpg', 'key': 'u', 'origWidth': 410, 'origHeight': 409, 'width': 410, 'height': 409, 'widthPercent': 0.45, 'rescaleHeight': False, 'trialN': 83, 'loaded': True, 'loadedTime': 2149.0999999940395, 'positionName': 'LEFT', 'positionCoords': [428.08, 287], 'bid': 4.73}, {'imgObject': {}, 'id': 'mac & cheese', 'src': '/static/foodstim60/mac & cheese.jpg', 'key': 'i', 'origWidth': 410, 'origHeight': 410, 'width': 410, 'height': 410, 'widthPercent': 0.45, 'rescaleHeight': False, 'trialN': 83, 'loaded': True, 'loadedTime': 2030.4000000059605, 'positionName': 'RIGHT', 'positionCoords': [907.92, 286.5], 'bid': 7.98}]",162930.20000001788,1669832271960,salmon,mac & cheese,4.73,7.98,3.25,mac & cheese,928.2999999821186,929,928.5,True,i,164364.09999999404,1433.8999999761581,1669832273394,1434,HRV,HRV_0190,2022-11-30 18:21:08
84,"[{'imgObject': {}, 'id': 'eggsalad', 'src': '/static/foodstim60/eggsalad.jpg', 'key': 'u', 'origWidth': 410, 'origHeight': 409, 'width': 410, 'height': 409, 'widthPercent': 0.45, 'rescaleHeight': False, 'trialN': 84, 'loaded': True, 'loadedTime': 2284, 'positionName': 'LEFT', 'positionCoords': [428.08, 287], 'bid': 2.44}, {'imgObject': {}, 'id': 'apple slices', 'src': '/static/foodstim60/apple slices.jpg', 'key': 'i', 'origWidth': 409, 'origHeight': 410, 'width': 409, 'height': 410, 'widthPercent': 0.45, 'rescaleHeight': False, 'trialN': 84, 'loaded': True, 'loadedTime': 2137.5999999940395, 'positionName': 'RIGHT', 'positionCoords': [907.92, 286.5], 'bid': 3.06}]",164364.30000001192,1669832273394,eggsalad,apple slices,2.44,3.06,0.6200000000000001,eggsalad,1524.0999999940395,1525,1524.4000000059605,True,u,166406.59999999404,2042.2999999821186,1669832275437,2043,HRV,HRV_0190,2022-11-30 18:21:08
85,"[{'imgObject': {}, 'id': 'popsicles', 'src': '/static/foodstim60/popsicles.jpg', 'key': 'u', 'origWidth': 410, 'origHeight': 410, 'width': 410, 'height': 410, 'widthPercent': 0.45, 'rescaleHeight': False, 'trialN': 85, 'loaded': True, 'loadedTime': 2115.2000000178814, 'positionName': 'LEFT', 'positionCoords': [428.08, 286.5], 'bid': 0}, {'imgObject': {}, 'id': 'olives', 'src': '/static/foodstim60/olives.jpg', 'key': 'i', 'origWidth': 410, 'origHeight': 410, 'width': 410, 'height': 410, 'widthPercent': 0.45, 'rescaleHeight': False, 'trialN': 85, 'loaded': True, 'loadedTime': 2028.300000011921, 'positionName': 'RIGHT', 'positionCoords': [907.92, 286.5], 'bid': 0.14}]",166406.80000001192,1669832275437,popsicles,olives,0.0,0.14,0.14,popsicles,1656.699999988079,1657,1656.9000000059605,True,u,168574.09999999404,2167.2999999821186,1669832277604,2167,HRV,HRV_0190,2022-11-30 18:21:08
86,"[{'imgObject': {}, 'id': 'froot loops w milk', 'src': '/static/foodstim60/froot loops w milk.jpg', 'key': 'u', 'origWidth': 410, 'origHeight': 410, 'width': 410, 'height': 410, 'widthPercent': 0.45, 'rescaleHeight': False, 'trialN': 86, 'loaded': True, 'loadedTime': 2156.800000011921, 'positionName': 'LEFT', 'positionCoords': [428.08, 286.5], 'bid': 1.09}, {'imgObject': {}, 'id': 'luckycharms', 'src': '/static/foodstim60/luckycharms.jpg', 'key': 'i', 'origWidth': 410, 'origHeight': 409, 'width': 410, 'height': 409, 'widthPercent': 0.45, 'rescaleHeight': False, 'trialN': 86, 'loaded': True, 'loadedTime': 2276.4000000059605, 'positionName': 'RIGHT', 'positionCoords': [907.92, 287], 'bid': 0.65}]",168574.20000001788,1669832277604,froot loops w milk,luckycharms,1.09,0.65,-0.44000000000000006,luckycharms,3124.199999988079,3125,3124.399999976158,True,i,172205.30000001192,3631.0999999940395,1669832281235,3631,HRV,HRV_0190,2022-11-30 18:21:08
87,"[{'imgObject': {}, 'id': 'omelette', 'src': '/static/foodstim60/omelette.jpg', 'key': 'u', 'origWidth': 410, 'origHeight': 409, 'width': 410, 'height': 409, 'widthPercent': 0.45, 'rescaleHeight': False, 'trialN': 87, 'loaded': True, 'loadedTime': 2265.9000000059605, 'positionName': 'LEFT', 'positionCoords': [428.08, 287], 'bid': 8.2}, {'imgObject': {}, 'id': 'turkeysandwich', 'src': '/static/foodstim60/turkeysandwich.jpg', 'key': 'i', 'origWidth': 409, 'origHeight': 409, 'width': 409, 'height': 409, 'widthPercent': 0.45, 'rescaleHeight': False, 'trialN': 87, 'loaded': True, 'loadedTime': 2270.5999999940395, 'positionName': 'RIGHT', 'positionCoords': [907.92, 287], 'bid': 8.15}]",172205.5,1669832281235,omelette,turkeysandwich,8.2,8.15,-0.049999999999998934,turkeysandwich,1013.9000000059605,1015,1014.0999999940395,True,i,173724.30000001192,1518.800000011921,1669832282754,1519,HRV,HRV_0190,2022-11-30 18:21:08
88,"[{'imgObject': {}, 'id': 'cherries', 'src': '/static/foodstim60/cherries.jpg', 'key': 'u', 'origWidth': 410, 'origHeight': 411, 'width': 410, 'height': 411, 'widthPercent': 0.45, 'rescaleHeight': False, 'trialN': 88, 'loaded': True, 'loadedTime': 2284.9000000059605, 'positionName': 'LEFT', 'positionCoords': [428.08, 286], 'bid': 0.28}, {'imgObject': {}, 'id': 'rigatoni', 'src': '/static/foodstim60/rigatoni.jpg', 'key': 'i', 'origWidth': 411, 'origHeight': 411, 'width': 411, 'height': 411, 'widthPercent': 0.45, 'rescaleHeight': False, 'trialN': 88, 'loaded': True, 'loadedTime': 2148, 'positionName': 'RIGHT', 'positionCoords': [907.92, 286], 'bid': 1.02}]",173724.5,1669832282754,cherries,rigatoni,0.28,1.02,0.74,rigatoni,1292.9000000059605,1294,1293.2000000178814,True,i,175528.80000001192,1804.300000011921,1669832284559,1805,HRV,HRV_0190,2022-11-30 18:21:08
89,"[{'imgObject': {}, 'id': 'strawberries', 'src': '/static/foodstim60/strawberries.jpg', 'key': 'u', 'origWidth': 410, 'origHeight': 410, 'width': 410, 'height': 410, 'widthPercent': 0.45, 'rescaleHeight': False, 'trialN': 89, 'loaded': True, 'loadedTime': 2152.800000011921, 'positionName': 'LEFT', 'positionCoords': [428.08, 286.5], 'bid': 3.43}, {'imgObject': {}, 'id': 'bagel and cc', 'src': '/static/foodstim60/bagel and cc.jpg', 'key': 'i', 'origWidth': 410, 'origHeight': 410, 'width': 410, 'height': 410, 'widthPercent': 0.45, 'rescaleHeight': False, 'trialN': 89, 'loaded': True, 'loadedTime': 2007.5999999940395, 'positionName': 'RIGHT', 'positionCoords': [907.92, 286.5], 'bid': 5.64}]",175529.0,1669832284559,strawberries,bagel and cc,3.43,5.64,2.2099999999999995,strawberries,1153.4000000059605,1154,1153.5999999940395,True,u,177194.40000000596,1665.4000000059605,1669832286224,1665,HRV,HRV_0190,2022-11-30 18:21:08
90,"[{'imgObject': {}, 'id': 'steak', 'src': '/static/foodstim60/steak.jpg', 'key': 'u', 'origWidth': 410, 'origHeight': 410, 'width': 410, 'height': 410, 'widthPercent': 0.45, 'rescaleHeight': False, 'trialN': 90, 'loaded': True, 'loadedTime': 2162.2000000178814, 'positionName': 'LEFT', 'positionCoords': [428.08, 286.5], 'bid': 5.83}, {'imgObject': {}, 'id': 'blackbeanswithrice', 'src': '/static/foodstim60/blackbeanswithrice.jpg', 'key': 'i', 'origWidth': 410, 'origHeight': 410, 'width': 410, 'height': 410, 'widthPercent': 0.45, 'rescaleHeight': False, 'trialN': 90, 'loaded': True, 'loadedTime': 2023.9000000059605, 'positionName': 'RIGHT', 'positionCoords': [907.92, 286.5], 'bid': 6.28}]",180724.09999999404,1669832289754,steak,blackbeanswithrice,5.83,6.28,0.4500000000000002,blackbeanswithrice,1482.4000000059605,1483,1482.6000000238419,True,i,182728.5,2004.4000000059605,1669832291759,2005,HRV,HRV_0190,2022-11-30 18:21:08
91,"[{'imgObject': {}, 'id': 'granola w milk', 'src': '/static/foodstim60/granola w milk.jpg', 'key': 'u', 'origWidth': 410, 'origHeight': 410, 'width': 410, 'height': 410, 'widthPercent': 0.45, 'rescaleHeight': False, 'trialN': 91, 'loaded': True, 'loadedTime': 2162.300000011921, 'positionName': 'LEFT', 'positionCoords': [428.08, 286.5], 'bid': 1.72}, {'imgObject': {}, 'id': 'hashbrowns', 'src': '/static/foodstim60/hashbrowns.jpg', 'key': 'i', 'origWidth': 411, 'origHeight': 410, 'width': 411, 'height': 410, 'widthPercent': 0.45, 'rescaleHeight': False, 'trialN': 91, 'loaded': True, 'loadedTime': 2135.0999999940395, 'positionName': 'RIGHT', 'positionCoords': [907.92, 286.5], 'bid': 1.07}]",182728.70000001788,1669832291759,granola w milk,hashbrowns,1.72,1.07,-0.6499999999999999,hashbrowns,2044.699999988079,2045,2045.0,True,i,185282.40000000596,2553.699999988079,1669832294312,2553,HRV,HRV_0190,2022-11-30 18:21:08
92,"[{'imgObject': {}, 'id': 'cocktailshrimp', 'src': '/static/foodstim60/cocktailshrimp.jpg', 'key': 'u', 'origWidth': 410, 'origHeight': 410, 'width': 410, 'height': 410, 'widthPercent': 0.45, 'rescaleHeight': False, 'trialN': 92, 'loaded': True, 'loadedTime': 2231.5999999940395, 'positionName': 'LEFT', 'positionCoords': [428.08, 286.5], 'bid': 5.48}, {'imgObject': {}, 'id': 'seaweed', 'src': '/static/foodstim60/seaweed.jpg', 'key': 'i', 'origWidth': 410, 'origHeight': 410, 'width': 410, 'height': 410, 'widthPercent': 0.45, 'rescaleHeight': False, 'trialN': 92, 'loaded': True, 'loadedTime': 2282.5999999940395, 'positionName': 'RIGHT', 'positionCoords': [907.92, 286.5], 'bid': 5.45}]",185282.59999999404,1669832294313,cocktailshrimp,seaweed,5.48,5.45,-0.03000000000000025,cocktailshrimp,3028.800000011921,3029,3029.100000023842,True,u,188822.20000001788,3539.600000023842,1669832297852,3539,HRV,HRV_0190,2022-11-30 18:21:08
93,"[{'imgObject': {}, 'id': 'mango', 'src': '/static/foodstim60/mango.jpg', 'key': 'u', 'origWidth': 411, 'origHeight': 411, 'width': 411, 'height': 411, 'widthPercent': 0.45, 'rescaleHeight': False, 'trialN': 93, 'loaded': True, 'loadedTime': 2247.5, 'positionName': 'LEFT', 'positionCoords': [427.08, 286], 'bid': 3.59}, {'imgObject': {}, 'id': 'Grapes', 'src': '/static/foodstim60/Grapes.jpg', 'key': 'i', 'origWidth': 411, 'origHeight': 411, 'width': 411, 'height': 411, 'widthPercent': 0.45, 'rescaleHeight': False, 'trialN': 93, 'loaded': True, 'loadedTime': 2095.800000011921, 'positionName': 'RIGHT', 'positionCoords': [907.92, 286], 'bid': 3.52}]",188822.40000000596,1669832297852,mango,Grapes,3.59,3.52,-0.06999999999999984,mango,838.0,839,838.3000000119209,True,u,190177.90000000596,1355.5,1669832299208,1356,HRV,HRV_0190,2022-11-30 18:21:08
94,"[{'imgObject': {}, 'id': 'edamame', 'src': '/static/foodstim60/edamame.jpg', 'key': 'u', 'origWidth': 409, 'origHeight': 410, 'width': 409, 'height': 410, 'widthPercent': 0.45, 'rescaleHeight': False, 'trialN': 94, 'loaded': True, 'loadedTime': 2026.9000000059605, 'positionName': 'LEFT', 'positionCoords': [429.08, 286.5], 'bid': 0.28}, {'imgObject': {}, 'id': 'cheerios', 'src': '/static/foodstim60/cheerios.jpg', 'key': 'i', 'origWidth': 409, 'origHeight': 410, 'width': 409, 'height': 410, 'widthPercent': 0.45, 'rescaleHeight': False, 'trialN': 94, 'loaded': True, 'loadedTime': 2192.300000011921, 'positionName': 'RIGHT', 'positionCoords': [907.92, 286.5], 'bid': 0.92}]",190178.09999999404,1669832299208,edamame,cheerios,0.28,0.92,0.64,cheerios,1025.4000000059605,1026,1025.6000000238419,True,i,191712.5,1534.4000000059605,1669832300742,1534,HRV,HRV_0190,2022-11-30 18:21:08
95,"[{'imgObject': {}, 'id': 'sweetpotato', 'src': '/static/foodstim60/sweetpotato.jpg', 'key': 'u', 'origWidth': 410, 'origHeight': 410, 'width': 410, 'height': 410, 'widthPercent': 0.45, 'rescaleHeight': False, 'trialN': 95, 'loaded': True, 'loadedTime': 2274.5, 'positionName': 'LEFT', 'positionCoords': [428.08, 286.5], 'bid': 2.17}, {'imgObject': {}, 'id': 'avocado', 'src': '/static/foodstim60/avocado.jpg', 'key': 'i', 'origWidth': 409, 'origHeight': 409, 'width': 409, 'height': 409, 'widthPercent': 0.45, 'rescaleHeight': False, 'trialN': 95, 'loaded': True, 'loadedTime': 2266.9000000059605, 'positionName': 'RIGHT', 'positionCoords': [907.92, 287], 'bid': 3.56}]",191712.70000001788,1669832300743,sweetpotato,avocado,2.17,3.56,1.3900000000000001,avocado,1076.699999988079,1077,1076.8999999761581,True,i,193300.90000000596,1588.199999988079,1669832302331,1588,HRV,HRV_0190,2022-11-30 18:21:08
96,"[{'imgObject': {}, 'id': 'shreddedwheatwithmilk', 'src': '/static/foodstim60/shreddedwheatwithmilk.jpg', 'key': 'u', 'origWidth': 410, 'origHeight': 410, 'width': 410, 'height': 410, 'widthPercent': 0.45, 'rescaleHeight': False, 'trialN': 96, 'loaded': True, 'loadedTime': 2033.5, 'positionName': 'LEFT', 'positionCoords': [428.08, 286.5], 'bid': 1.08}, {'imgObject': {}, 'id': 'bagel plain', 'src': '/static/foodstim60/bagel plain.jpg', 'key': 'i', 'origWidth': 410, 'origHeight': 410, 'width': 410, 'height': 410, 'widthPercent': 0.45, 'rescaleHeight': False, 'trialN': 96, 'loaded': True, 'loadedTime': 2054.5999999940395, 'positionName': 'RIGHT', 'positionCoords': [907.92, 286.5], 'bid': 0.48}]",193301.09999999404,1669832302331,shreddedwheatwithmilk,bagel plain,1.08,0.48,-0.6000000000000001,shreddedwheatwithmilk,1009.3000000119209,1010,1009.5,True,u,194818.70000001788,1517.6000000238419,1669832303849,1518,HRV,HRV_0190,2022-11-30 18:21:08
97,"[{'imgObject': {}, 'id': 'mashed potato', 'src': '/static/foodstim60/mashed potato.jpg', 'key': 'u', 'origWidth': 409, 'origHeight': 409, 'width': 409, 'height': 409, 'widthPercent': 0.45, 'rescaleHeight': False, 'trialN': 97, 'loaded': True, 'loadedTime': 2279.0999999940395, 'positionName': 'LEFT', 'positionCoords': [429.08, 287], 'bid': 0.85}, {'imgObject': {}, 'id': 'eggsalad', 'src': '/static/foodstim60/eggsalad.jpg', 'key': 'i', 'origWidth': 410, 'origHeight': 409, 'width': 410, 'height': 409, 'widthPercent': 0.45, 'rescaleHeight': False, 'trialN': 97, 'loaded': True, 'loadedTime': 2284.7000000178814, 'positionName': 'RIGHT', 'positionCoords': [907.92, 287], 'bid': 2.44}]",194819.0,1669832303849,mashed potato,eggsalad,0.85,2.44,1.5899999999999999,mashed potato,2500.4000000059605,2501,2500.5999999940395,True,u,197825.90000000596,3006.9000000059605,1669832306856,3007,HRV,HRV_0190,2022-11-30 18:21:08
98,"[{'imgObject': {}, 'id': 'ice cream sundae 002', 'src': '/static/foodstim60/ice cream sundae 002.jpg', 'key': 'u', 'origWidth': 409, 'origHeight': 409, 'width': 409, 'height': 409, 'widthPercent': 0.45, 'rescaleHeight': False, 'trialN': 98, 'loaded': True, 'loadedTime': 2013.4000000059605, 'positionName': 'LEFT', 'positionCoords': [429.08, 287], 'bid': 1.1}, {'imgObject': {}, 'id': 'edamame', 'src': '/static/foodstim60/edamame.jpg', 'key': 'i', 'origWidth': 409, 'origHeight': 410, 'width': 409, 'height': 410, 'widthPercent': 0.45, 'rescaleHeight': False, 'trialN': 98, 'loaded': True, 'loadedTime': 2027.300000011921, 'positionName': 'RIGHT', 'positionCoords': [907.92, 286.5], 'bid': 0.28}]",197826.09999999404,1669832306856,ice cream sundae 002,edamame,1.1,0.28,-0.8200000000000001,ice cream sundae 002,1209.300000011921,1210,1209.6000000238419,True,u,199545.30000001192,1719.2000000178814,1669832308575,1719,HRV,HRV_0190,2022-11-30 18:21:08
99,"[{'imgObject': {}, 'id': 'yogurt no spoon', 'src': '/static/foodstim60/yogurt no spoon.jpg', 'key': 'u', 'origWidth': 411, 'origHeight': 410, 'width': 411, 'height': 410, 'widthPercent': 0.45, 'rescaleHeight': False, 'trialN': 99, 'loaded': True, 'loadedTime': 2155, 'positionName': 'LEFT', 'positionCoords': [427.08, 286.5], 'bid': 0.8300000000000001}, {'imgObject': {}, 'id': 'cherry tomato', 'src': '/static/foodstim60/cherry tomato.jpg', 'key': 'i', 'origWidth': 410, 'origHeight': 410, 'width': 410, 'height': 410, 'widthPercent': 0.45, 'rescaleHeight': False, 'trialN': 99, 'loaded': True, 'loadedTime': 2277.5999999940395, 'positionName': 'RIGHT', 'positionCoords': [907.92, 286.5], 'bid': 0.71}]",199545.5,1669832308575,yogurt no spoon,cherry tomato,0.8300000000000001,0.71,-0.1200000000000001,yogurt no spoon,928.9000000059605,930,929.2000000178814,True,u,200986.59999999404,1441.0999999940395,1669832310017,1442,HRV,HRV_0190,2022-11-30 18:21:08
100,"[{'imgObject': {}, 'id': 'lox', 'src': '/static/foodstim60/lox.jpg', 'key': 'u', 'origWidth': 410, 'origHeight': 411, 'width': 410, 'height': 411, 'widthPercent': 0.45, 'rescaleHeight': False, 'trialN': 100, 'loaded': True, 'loadedTime': 2155.9000000059605, 'positionName': 'LEFT', 'positionCoords': [428.08, 286], 'bid': 5.8}, {'imgObject': {}, 'id': 'turkey sandwich', 'src': '/static/foodstim60/turkey sandwich.jpg', 'key': 'i', 'origWidth': 409, 'origHeight': 409, 'width': 409, 'height': 409, 'widthPercent': 0.45, 'rescaleHeight': False, 'trialN': 100, 'loaded': True, 'loadedTime': 2036.0999999940395, 'positionName': 'RIGHT', 'positionCoords': [907.92, 287], 'bid': 9.1}]",200986.80000001192,1669832310017,lox,turkey sandwich,5.8,9.1,3.3,turkey sandwich,1657.5999999940395,1658,1658.0,True,i,203153.80000001192,2167.0,1669832312184,2167,HRV,HRV_0190,2022-11-30 18:21:08
101,"[{'imgObject': {}, 'id': 'shreddedwheatwithmilk', 'src': '/static/foodstim60/shreddedwheatwithmilk.jpg', 'key': 'u', 'origWidth': 410, 'origHeight': 410, 'width': 410, 'height': 410, 'widthPercent': 0.45, 'rescaleHeight': False, 'trialN': 101, 'loaded': True, 'loadedTime': 2033.7000000178814, 'positionName': 'LEFT', 'positionCoords': [428.08, 286.5], 'bid': 1.08}, {'imgObject': {}, 'id': 'froot loops w milk', 'src': '/static/foodstim60/froot loops w milk.jpg', 'key': 'i', 'origWidth': 410, 'origHeight': 410, 'width': 410, 'height': 410, 'widthPercent': 0.45, 'rescaleHeight': False, 'trialN': 101, 'loaded': True, 'loadedTime': 2156.2000000178814, 'positionName': 'RIGHT', 'positionCoords': [907.92, 286.5], 'bid': 1.09}]",203153.90000000596,1669832312184,shreddedwheatwithmilk,froot loops w milk,1.08,1.09,0.010000000000000009,froot loops w milk,1689.0,1689,1689.199999988079,True,i,205359.30000001192,2205.4000000059605,1669832314389,2205,HRV,HRV_0190,2022-11-30 18:21:08
102,"[{'imgObject': {}, 'id': 'cantaloupe', 'src': '/static/foodstim60/cantaloupe.jpg', 'key': 'u', 'origWidth': 409, 'origHeight': 409, 'width': 409, 'height': 409, 'widthPercent': 0.45, 'rescaleHeight': False, 'trialN': 102, 'loaded': True, 'loadedTime': 2142.7000000178814, 'positionName': 'LEFT', 'positionCoords': [429.08, 287], 'bid': 1.4}, {'imgObject': {}, 'id': 'granola w milk', 'src': '/static/foodstim60/granola w milk.jpg', 'key': 'i', 'origWidth': 410, 'origHeight': 410, 'width': 410, 'height': 410, 'widthPercent': 0.45, 'rescaleHeight': False, 'trialN': 102, 'loaded': True, 'loadedTime': 2162.9000000059605, 'positionName': 'RIGHT', 'positionCoords': [907.92, 286.5], 'bid': 1.72}]",205359.40000000596,1669832314389,cantaloupe,granola w milk,1.4,1.72,0.32000000000000006,granola w milk,1160.9000000059605,1162,1161.199999988079,True,i,207031.59999999404,1672.199999988079,1669832316062,1673,HRV,HRV_0190,2022-11-30 18:21:08
103,"[{'imgObject': {}, 'id': 'mango', 'src': '/static/foodstim60/mango.jpg', 'key': 'u', 'origWidth': 411, 'origHeight': 411, 'width': 411, 'height': 411, 'widthPercent': 0.45, 'rescaleHeight': False, 'trialN': 103, 'loaded': True, 'loadedTime': 2247.5999999940395, 'positionName': 'LEFT', 'positionCoords': [427.08, 286], 'bid': 3.59}, {'imgObject': {}, 'id': 'eggsalad', 'src': '/static/foodstim60/eggsalad.jpg', 'key': 'i', 'origWidth': 410, 'origHeight': 409, 'width': 410, 'height': 409, 'widthPercent': 0.45, 'rescaleHeight': False, 'trialN': 103, 'loaded': True, 'loadedTime': 2284.5999999940395, 'positionName': 'RIGHT', 'positionCoords': [907.92, 287], 'bid': 2.44}]",207031.80000001192,1669832316062,mango,eggsalad,3.59,2.44,-1.15,eggsalad,2018.5999999940395,2019,2018.7999999821186,True,i,209568.59999999404,2536.7999999821186,1669832318599,2537,HRV,HRV_0190,2022-11-30 18:21:08
104,"[{'imgObject': {}, 'id': 'pear', 'src': '/static/foodstim60/pear.jpg', 'key': 'u', 'origWidth': 411, 'origHeight': 410, 'width': 411, 'height': 410, 'widthPercent': 0.45, 'rescaleHeight': False, 'trialN': 104, 'loaded': True, 'loadedTime': 2272.7000000178814, 'positionName': 'LEFT', 'positionCoords': [427.08, 286.5], 'bid': 6.93}, {'imgObject': {}, 'id': 'roastedpotatoes', 'src': '/static/foodstim60/roastedpotatoes.jpg', 'key': 'i', 'origWidth': 409, 'origHeight': 410, 'width': 409, 'height': 410, 'widthPercent': 0.45, 'rescaleHeight': False, 'trialN': 104, 'loaded': True, 'loadedTime': 2032, 'positionName': 'RIGHT', 'positionCoords': [907.92, 286.5], 'bid': 9.19}]",209568.70000001788,1669832318599,pear,roastedpotatoes,6.93,9.19,2.26,roastedpotatoes,967.6999999880791,968,968.0,True,i,211056.09999999404,1487.3999999761581,1669832320086,1487,HRV,HRV_0190,2022-11-30 18:21:08
105,"[{'imgObject': {}, 'id': 'blackbeanswithrice', 'src': '/static/foodstim60/blackbeanswithrice.jpg', 'key': 'u', 'origWidth': 410, 'origHeight': 410, 'width': 410, 'height': 410, 'widthPercent': 0.45, 'rescaleHeight': False, 'trialN': 105, 'loaded': True, 'loadedTime': 2023.0999999940395, 'positionName': 'LEFT', 'positionCoords': [428.08, 286.5], 'bid': 6.28}, {'imgObject': {}, 'id': 'sushi w_condiments', 'src': '/static/foodstim60/sushi w_condiments.jpg', 'key': 'i', 'origWidth': 410, 'origHeight': 410, 'width': 410, 'height': 410, 'widthPercent': 0.45, 'rescaleHeight': False, 'trialN': 105, 'loaded': True, 'loadedTime': 2024.5999999940395, 'positionName': 'RIGHT', 'positionCoords': [907.92, 286.5], 'bid': 6.67}]",211056.20000001788,1669832320086,blackbeanswithrice,sushi w_condiments,6.28,6.67,0.3899999999999997,sushi w_condiments,2272.2999999821186,2273,2272.5,True,i,213847.30000001192,2791.0999999940395,1669832322877,2791,HRV,HRV_0190,2022-11-30 18:21:08
106,"[{'imgObject': {}, 'id': 'banana', 'src': '/static/foodstim60/banana.jpg', 'key': 'u', 'origWidth': 410, 'origHeight': 410, 'width': 410, 'height': 410, 'widthPercent': 0.45, 'rescaleHeight': False, 'trialN': 106, 'loaded': True, 'loadedTime': 2016.4000000059605, 'positionName': 'LEFT', 'positionCoords': [428.08, 286.5], 'bid': 4.25}, {'imgObject': {}, 'id': 'tacos', 'src': '/static/foodstim60/tacos.jpg', 'key': 'i', 'origWidth': 411, 'origHeight': 411, 'width': 411, 'height': 411, 'widthPercent': 0.45, 'rescaleHeight': False, 'trialN': 106, 'loaded': True, 'loadedTime': 2209.9000000059605, 'positionName': 'RIGHT', 'positionCoords': [907.92, 286], 'bid': 7.87}]",213847.5,1669832322877,banana,tacos,4.25,7.87,3.62,tacos,898.8000000119209,900,899.0999999940395,True,i,215249.80000001192,1402.300000011921,1669832324280,1403,HRV,HRV_0190,2022-11-30 18:21:08
107,"[{'imgObject': {}, 'id': 'ice cream sundae 002', 'src': '/static/foodstim60/ice cream sundae 002.jpg', 'key': 'u', 'origWidth': 409, 'origHeight': 409, 'width': 409, 'height': 409, 'widthPercent': 0.45, 'rescaleHeight': False, 'trialN': 107, 'loaded': True, 'loadedTime': 2013.800000011921, 'positionName': 'LEFT', 'positionCoords': [429.08, 287], 'bid': 1.1}, {'imgObject': {}, 'id': 'cherry tomato', 'src': '/static/foodstim60/cherry tomato.jpg', 'key': 'i', 'origWidth': 410, 'origHeight': 410, 'width': 410, 'height': 410, 'widthPercent': 0.45, 'rescaleHeight': False, 'trialN': 107, 'loaded': True, 'loadedTime': 2277.4000000059605, 'positionName': 'RIGHT', 'positionCoords': [907.92, 286.5], 'bid': 0.71}]",215250.09999999404,1669832324280,ice cream sundae 002,cherry tomato,1.1,0.71,-0.3900000000000001,ice cream sundae 002,755.3000000119209,756,755.5,True,u,216521.40000000596,1271.300000011921,1669832325551,1271,HRV,HRV_0190,2022-11-30 18:21:08
108,"[{'imgObject': {}, 'id': 'blueberries', 'src': '/static/foodstim60/blueberries.jpg', 'key': 'u', 'origWidth': 411, 'origHeight': 411, 'width': 411, 'height': 411, 'widthPercent': 0.45, 'rescaleHeight': False, 'trialN': 108, 'loaded': True, 'loadedTime': 2286.4000000059605, 'positionName': 'LEFT', 'positionCoords': [427.08, 286], 'bid': 0.41}, {'imgObject': {}, 'id': 'hashbrowns', 'src': '/static/foodstim60/hashbrowns.jpg', 'key': 'i', 'origWidth': 411, 'origHeight': 410, 'width': 411, 'height': 410, 'widthPercent': 0.45, 'rescaleHeight': False, 'trialN': 108, 'loaded': True, 'loadedTime': 2135.4000000059605, 'positionName': 'RIGHT', 'positionCoords': [907.92, 286.5], 'bid': 1.07}]",216521.59999999404,1669832325552,blueberries,hashbrowns,0.41,1.07,0.6600000000000001,hashbrowns,994.8000000119209,996,995.0,True,i,218025.20000001788,1503.6000000238419,1669832327057,1505,HRV,HRV_0190,2022-11-30 18:21:08
