trialN,stimuli,trialStartTime,trialStartTime_UNIX,stimulus1,stimulus2,stimulus1Bid,stimulus2Bid,delta,selected,rt,rt_UNIX,rt_perfnow,receivedResponse,rsp,trialEndTime,trialDuration,trialEndTime_UNIX,trialDuration_UNIX,exp,subjectId,date
0,"[{'imgObject': {}, 'id': 'eggsalad', 'src': '/static/foodstim60/eggsalad.jpg', 'key': 'u', 'origWidth': 410, 'origHeight': 409, 'width': 410, 'height': 409, 'widthPercent': 0.45, 'rescaleHeight': False, 'trialN': 0, 'loaded': True, 'loadedTime': 1898.3000001907349, 'positionName': 'LEFT', 'positionCoords': [327.28, 227.5], 'bid': 0}, {'imgObject': {}, 'id': 'popsicles', 'src': '/static/foodstim60/popsicles.jpg', 'key': 'i', 'origWidth': 410, 'origHeight': 410, 'width': 410, 'height': 410, 'widthPercent': 0.45, 'rescaleHeight': False, 'trialN': 0, 'loaded': True, 'loadedTime': 2183, 'positionName': 'RIGHT', 'positionCoords': [798.72, 227], 'bid': 0}]",2185.0,1669829350775,eggsalad,popsicles,0.0,0.0,0.0,eggsalad,1415.3000001907349,1416,1415.8000001907349,True,u,4114.700000047684,1929.7000000476837,1669829352705,1930,HRV,HRV_0044,2022-11-30 17:33:16
1,"[{'imgObject': {}, 'id': 'sweetpotato', 'src': '/static/foodstim60/sweetpotato.jpg', 'key': 'u', 'origWidth': 410, 'origHeight': 410, 'width': 410, 'height': 410, 'widthPercent': 0.45, 'rescaleHeight': False, 'trialN': 1, 'loaded': True, 'loadedTime': 1947.2000000476837, 'positionName': 'LEFT', 'positionCoords': [327.28, 227], 'bid': 5.07}, {'imgObject': {}, 'id': 'burger', 'src': '/static/foodstim60/burger.jpg', 'key': 'i', 'origWidth': 409, 'origHeight': 409, 'width': 409, 'height': 409, 'widthPercent': 0.45, 'rescaleHeight': False, 'trialN': 1, 'loaded': True, 'loadedTime': 1952.5, 'positionName': 'RIGHT', 'positionCoords': [798.72, 227.5], 'bid': 7.3}]",4115.0,1669829352705,sweetpotato,burger,5.07,7.3,2.2299999999999995,burger,796.7000000476837,797,797.0,True,i,5429.600000143051,1314.6000001430511,1669829354020,1315,HRV,HRV_0044,2022-11-30 17:33:16
2,"[{'imgObject': {}, 'id': 'eggsalad', 'src': '/static/foodstim60/eggsalad.jpg', 'key': 'u', 'origWidth': 410, 'origHeight': 409, 'width': 410, 'height': 409, 'widthPercent': 0.45, 'rescaleHeight': False, 'trialN': 2, 'loaded': True, 'loadedTime': 1931.4000000953674, 'positionName': 'LEFT', 'positionCoords': [327.28, 227.5], 'bid': 0}, {'imgObject': {}, 'id': 'lox', 'src': '/static/foodstim60/lox.jpg', 'key': 'i', 'origWidth': 410, 'origHeight': 411, 'width': 410, 'height': 411, 'widthPercent': 0.45, 'rescaleHeight': False, 'trialN': 2, 'loaded': True, 'loadedTime': 1958.4000000953674, 'positionName': 'RIGHT', 'positionCoords': [798.72, 226.5], 'bid': 0.22}]",5429.800000190735,1669829354020,eggsalad,lox,0.0,0.22,0.22,eggsalad,895.7999999523163,896,896.0999999046326,True,u,6835.400000095367,1405.5999999046326,1669829355425,1405,HRV,HRV_0044,2022-11-30 17:33:16
3,"[{'imgObject': {}, 'id': 'pear', 'src': '/static/foodstim60/pear.jpg', 'key': 'u', 'origWidth': 411, 'origHeight': 410, 'width': 411, 'height': 410, 'widthPercent': 0.45, 'rescaleHeight': False, 'trialN': 3, 'loaded': True, 'loadedTime': 1971.9000000953674, 'positionName': 'LEFT', 'positionCoords': [326.28, 227], 'bid': 9.97}, {'imgObject': {}, 'id': 'cantaloupe', 'src': '/static/foodstim60/cantaloupe.jpg', 'key': 'i', 'origWidth': 409, 'origHeight': 409, 'width': 409, 'height': 409, 'widthPercent': 0.45, 'rescaleHeight': False, 'trialN': 3, 'loaded': True, 'loadedTime': 1980.1000001430511, 'positionName': 'RIGHT', 'positionCoords': [798.72, 227.5], 'bid': 9.94}]",6835.700000047684,1669829355426,pear,cantaloupe,9.97,9.94,-0.030000000000001137,cantaloupe,968.1000001430511,968,968.4000000953674,True,i,8317.900000095367,1482.2000000476837,1669829356908,1482,HRV,HRV_0044,2022-11-30 17:33:16
4,"[{'imgObject': {}, 'id': 'sushi w_condiments', 'src': '/static/foodstim60/sushi w_condiments.jpg', 'key': 'u', 'origWidth': 410, 'origHeight': 410, 'width': 410, 'height': 410, 'widthPercent': 0.45, 'rescaleHeight': False, 'trialN': 4, 'loaded': True, 'loadedTime': 1986.6000001430511, 'positionName': 'LEFT', 'positionCoords': [327.28, 227], 'bid': 7.31}, {'imgObject': {}, 'id': 'fried eggs', 'src': '/static/foodstim60/fried eggs.jpg', 'key': 'i', 'origWidth': 410, 'origHeight': 410, 'width': 410, 'height': 410, 'widthPercent': 0.45, 'rescaleHeight': False, 'trialN': 4, 'loaded': True, 'loadedTime': 2019.1000001430511, 'positionName': 'RIGHT', 'positionCoords': [798.72, 227], 'bid': 4.98}]",8318.200000047684,1669829356908,sushi w_condiments,fried eggs,7.31,4.98,-2.329999999999999,sushi w_condiments,888.0,889,888.5,True,u,9716.700000047684,1398.5,1669829358307,1399,HRV,HRV_0044,2022-11-30 17:33:16
5,"[{'imgObject': {}, 'id': 'mashed potato', 'src': '/static/foodstim60/mashed potato.jpg', 'key': 'u', 'origWidth': 409, 'origHeight': 409, 'width': 409, 'height': 409, 'widthPercent': 0.45, 'rescaleHeight': False, 'trialN': 5, 'loaded': True, 'loadedTime': 1986.4000000953674, 'positionName': 'LEFT', 'positionCoords': [328.28, 227.5], 'bid': 0.19}, {'imgObject': {}, 'id': 'froot loops w milk', 'src': '/static/foodstim60/froot loops w milk.jpg', 'key': 'i', 'origWidth': 410, 'origHeight': 410, 'width': 410, 'height': 410, 'widthPercent': 0.45, 'rescaleHeight': False, 'trialN': 5, 'loaded': True, 'loadedTime': 1999.7000000476837, 'positionName': 'RIGHT', 'positionCoords': [798.72, 227], 'bid': 0.28}]",9717.100000143051,1669829358307,mashed potato,froot loops w milk,0.19,0.28,0.09000000000000002,mashed potato,691.5999999046326,681,691.7999999523163,True,u,10918.800000190735,1201.7000000476837,1669829359498,1191,HRV,HRV_0044,2022-11-30 17:33:16
6,"[{'imgObject': {}, 'id': 'kiwi', 'src': '/static/foodstim60/kiwi.jpg', 'key': 'u', 'origWidth': 410, 'origHeight': 410, 'width': 410, 'height': 410, 'widthPercent': 0.45, 'rescaleHeight': False, 'trialN': 6, 'loaded': True, 'loadedTime': 2006.4000000953674, 'positionName': 'LEFT', 'positionCoords': [327.28, 227], 'bid': 9.88}, {'imgObject': {}, 'id': 'sushi w_condiments', 'src': '/static/foodstim60/sushi w_condiments.jpg', 'key': 'i', 'origWidth': 410, 'origHeight': 410, 'width': 410, 'height': 410, 'widthPercent': 0.45, 'rescaleHeight': False, 'trialN': 6, 'loaded': True, 'loadedTime': 1993, 'positionName': 'RIGHT', 'positionCoords': [798.72, 227], 'bid': 7.31}]",10919.200000047684,1669829359498,kiwi,sushi w_condiments,9.88,7.31,-2.570000000000001,kiwi,717.0,718,717.1000001430511,True,u,12136.800000190735,1217.6000001430511,1669829360716,1218,HRV,HRV_0044,2022-11-30 17:33:16
7,"[{'imgObject': {}, 'id': 'salmon', 'src': '/static/foodstim60/salmon.jpg', 'key': 'u', 'origWidth': 410, 'origHeight': 409, 'width': 410, 'height': 409, 'widthPercent': 0.45, 'rescaleHeight': False, 'trialN': 7, 'loaded': True, 'loadedTime': 2007.5, 'positionName': 'LEFT', 'positionCoords': [327.28, 227.5], 'bid': 3.11}, {'imgObject': {}, 'id': 'cocktailshrimp', 'src': '/static/foodstim60/cocktailshrimp.jpg', 'key': 'i', 'origWidth': 410, 'origHeight': 410, 'width': 410, 'height': 410, 'widthPercent': 0.45, 'rescaleHeight': False, 'trialN': 7, 'loaded': True, 'loadedTime': 2020.5, 'positionName': 'RIGHT', 'positionCoords': [798.72, 227], 'bid': 2.9}]",12137.100000143051,1669829360716,salmon,cocktailshrimp,3.11,2.9,-0.20999999999999996,salmon,970.2999999523163,971,970.7999999523163,True,u,13620.400000095367,1483.2999999523163,1669829362200,1484,HRV,HRV_0044,2022-11-30 17:33:16
8,"[{'imgObject': {}, 'id': 'turkeysandwich', 'src': '/static/foodstim60/turkeysandwich.jpg', 'key': 'u', 'origWidth': 409, 'origHeight': 409, 'width': 409, 'height': 409, 'widthPercent': 0.45, 'rescaleHeight': False, 'trialN': 8, 'loaded': True, 'loadedTime': 2026.9000000953674, 'positionName': 'LEFT', 'positionCoords': [328.28, 227.5], 'bid': 9.77}, {'imgObject': {}, 'id': 'raspberries', 'src': '/static/foodstim60/raspberries.jpg', 'key': 'i', 'origWidth': 411, 'origHeight': 411, 'width': 411, 'height': 411, 'widthPercent': 0.45, 'rescaleHeight': False, 'trialN': 8, 'loaded': True, 'loadedTime': 2031.8000001907349, 'positionName': 'RIGHT', 'positionCoords': [798.72, 226.5], 'bid': 9.97}]",13620.800000190735,1669829362200,turkeysandwich,raspberries,9.77,9.97,0.20000000000000107,turkeysandwich,761.5,762,761.8999998569489,True,u,14900.600000143051,1279.7999999523163,1669829363480,1280,HRV,HRV_0044,2022-11-30 17:33:16
9,"[{'imgObject': {}, 'id': 'fruitsalad', 'src': '/static/foodstim60/fruitsalad.jpg', 'key': 'u', 'origWidth': 410, 'origHeight': 410, 'width': 410, 'height': 410, 'widthPercent': 0.45, 'rescaleHeight': False, 'trialN': 9, 'loaded': True, 'loadedTime': 2034, 'positionName': 'LEFT', 'positionCoords': [327.28, 227], 'bid': 10}, {'imgObject': {}, 'id': 'mango', 'src': '/static/foodstim60/mango.jpg', 'key': 'i', 'origWidth': 411, 'origHeight': 411, 'width': 411, 'height': 411, 'widthPercent': 0.45, 'rescaleHeight': False, 'trialN': 9, 'loaded': True, 'loadedTime': 2039.7000000476837, 'positionName': 'RIGHT', 'positionCoords': [798.72, 226.5], 'bid': 10}]",14901.0,1669829363480,fruitsalad,mango,10.0,10.0,0.0,fruitsalad,699.0,700,699.2000000476837,True,u,16115.800000190735,1214.8000001907349,1669829364695,1215,HRV,HRV_0044,2022-11-30 17:33:16
10,"[{'imgObject': {}, 'id': 'cheerios', 'src': '/static/foodstim60/cheerios.jpg', 'key': 'u', 'origWidth': 409, 'origHeight': 410, 'width': 409, 'height': 410, 'widthPercent': 0.45, 'rescaleHeight': False, 'trialN': 10, 'loaded': True, 'loadedTime': 2047.5, 'positionName': 'LEFT', 'positionCoords': [328.28, 227], 'bid': 0.11}, {'imgObject': {}, 'id': 'banana', 'src': '/static/foodstim60/banana.jpg', 'key': 'i', 'origWidth': 410, 'origHeight': 410, 'width': 410, 'height': 410, 'widthPercent': 0.45, 'rescaleHeight': False, 'trialN': 10, 'loaded': True, 'loadedTime': 2050, 'positionName': 'RIGHT', 'positionCoords': [798.72, 227], 'bid': 9.81}]",16116.100000143051,1669829364695,cheerios,banana,0.11,9.81,9.700000000000001,banana,624.7000000476837,626,625.2000000476837,True,i,17257.300000190735,1141.2000000476837,1669829365837,1142,HRV,HRV_0044,2022-11-30 17:33:16
11,"[{'imgObject': {}, 'id': 'cherries', 'src': '/static/foodstim60/cherries.jpg', 'key': 'u', 'origWidth': 410, 'origHeight': 411, 'width': 410, 'height': 411, 'widthPercent': 0.45, 'rescaleHeight': False, 'trialN': 11, 'loaded': True, 'loadedTime': 2055, 'positionName': 'LEFT', 'positionCoords': [327.28, 226.5], 'bid': 9.79}, {'imgObject': {}, 'id': 'salad w chicken', 'src': '/static/foodstim60/salad w chicken.jpg', 'key': 'i', 'origWidth': 411, 'origHeight': 411, 'width': 411, 'height': 411, 'widthPercent': 0.45, 'rescaleHeight': False, 'trialN': 11, 'loaded': True, 'loadedTime': 2061.2000000476837, 'positionName': 'RIGHT', 'positionCoords': [798.72, 226.5], 'bid': 9.86}]",17257.5,1669829365837,cherries,salad w chicken,9.79,9.86,0.07000000000000028,cherries,692.4000000953674,693,692.7000000476837,True,u,18466.5,1209.0,1669829367046,1209,HRV,HRV_0044,2022-11-30 17:33:16
12,"[{'imgObject': {}, 'id': 'cherries', 'src': '/static/foodstim60/cherries.jpg', 'key': 'u', 'origWidth': 410, 'origHeight': 411, 'width': 410, 'height': 411, 'widthPercent': 0.45, 'rescaleHeight': False, 'trialN': 12, 'loaded': True, 'loadedTime': 2055, 'positionName': 'LEFT', 'positionCoords': [327.28, 226.5], 'bid': 9.79}, {'imgObject': {}, 'id': 'yogurt no spoon', 'src': '/static/foodstim60/yogurt no spoon.jpg', 'key': 'i', 'origWidth': 411, 'origHeight': 410, 'width': 411, 'height': 410, 'widthPercent': 0.45, 'rescaleHeight': False, 'trialN': 12, 'loaded': True, 'loadedTime': 2061.800000190735, 'positionName': 'RIGHT', 'positionCoords': [798.72, 227], 'bid': 9.92}]",18466.700000047684,1669829367046,cherries,yogurt no spoon,9.79,9.92,0.13000000000000078,cherries,943.7999999523163,944,944.0,True,u,19918.0,1451.2999999523163,1669829368497,1451,HRV,HRV_0044,2022-11-30 17:33:16
13,"[{'imgObject': {}, 'id': 'cherries', 'src': '/static/foodstim60/cherries.jpg', 'key': 'u', 'origWidth': 410, 'origHeight': 411, 'width': 410, 'height': 411, 'widthPercent': 0.45, 'rescaleHeight': False, 'trialN': 13, 'loaded': True, 'loadedTime': 2054.800000190735, 'positionName': 'LEFT', 'positionCoords': [327.28, 226.5], 'bid': 9.79}, {'imgObject': {}, 'id': 'bagel and cc', 'src': '/static/foodstim60/bagel and cc.jpg', 'key': 'i', 'origWidth': 410, 'origHeight': 410, 'width': 410, 'height': 410, 'widthPercent': 0.45, 'rescaleHeight': False, 'trialN': 13, 'loaded': True, 'loadedTime': 2070.800000190735, 'positionName': 'RIGHT', 'positionCoords': [798.72, 227], 'bid': 0.11}]",19918.200000047684,1669829368497,cherries,bagel and cc,9.79,0.11,-9.68,cherries,646.1000001430511,647,646.4000000953674,True,u,21065.60000014305,1147.4000000953674,1669829369645,1148,HRV,HRV_0044,2022-11-30 17:33:16
14,"[{'imgObject': {}, 'id': 'strawberries', 'src': '/static/foodstim60/strawberries.jpg', 'key': 'u', 'origWidth': 410, 'origHeight': 410, 'width': 410, 'height': 410, 'widthPercent': 0.45, 'rescaleHeight': False, 'trialN': 14, 'loaded': True, 'loadedTime': 2077.5, 'positionName': 'LEFT', 'positionCoords': [327.28, 227], 'bid': 10}, {'imgObject': {}, 'id': 'mango', 'src': '/static/foodstim60/mango.jpg', 'key': 'i', 'origWidth': 411, 'origHeight': 411, 'width': 411, 'height': 411, 'widthPercent': 0.45, 'rescaleHeight': False, 'trialN': 14, 'loaded': True, 'loadedTime': 2040.3000001907349, 'positionName': 'RIGHT', 'positionCoords': [798.72, 226.5], 'bid': 10}]",21065.700000047684,1669829369645,strawberries,mango,10.0,10.0,0.0,mango,765.6000001430511,766,765.9000000953674,True,i,22349.800000190735,1284.1000001430511,1669829370929,1284,HRV,HRV_0044,2022-11-30 17:33:16
15,"[{'imgObject': {}, 'id': 'rigatoni and sauce', 'src': '/static/foodstim60/rigatoni and sauce.jpg', 'key': 'u', 'origWidth': 410, 'origHeight': 411, 'width': 410, 'height': 411, 'widthPercent': 0.45, 'rescaleHeight': False, 'trialN': 15, 'loaded': True, 'loadedTime': 2084.600000143051, 'positionName': 'LEFT', 'positionCoords': [327.28, 226.5], 'bid': 0.2}, {'imgObject': {}, 'id': 'granola w milk', 'src': '/static/foodstim60/granola w milk.jpg', 'key': 'i', 'origWidth': 410, 'origHeight': 410, 'width': 410, 'height': 410, 'widthPercent': 0.45, 'rescaleHeight': False, 'trialN': 15, 'loaded': True, 'loadedTime': 2085.7000000476837, 'positionName': 'RIGHT', 'positionCoords': [798.72, 227], 'bid': 0}]",22349.900000095367,1669829370929,rigatoni and sauce,granola w milk,0.2,0.0,-0.2,granola w milk,677.2999999523163,678,677.5999999046326,True,i,23533.5,1183.5999999046326,1669829372113,1184,HRV,HRV_0044,2022-11-30 17:33:16
16,"[{'imgObject': {}, 'id': 'corn cob', 'src': '/static/foodstim60/corn cob.jpg', 'key': 'u', 'origWidth': 411, 'origHeight': 411, 'width': 411, 'height': 411, 'widthPercent': 0.45, 'rescaleHeight': False, 'trialN': 16, 'loaded': True, 'loadedTime': 2091.7000000476837, 'positionName': 'LEFT', 'positionCoords': [326.28, 226.5], 'bid': 9.84}, {'imgObject': {}, 'id': 'mango', 'src': '/static/foodstim60/mango.jpg', 'key': 'i', 'origWidth': 411, 'origHeight': 411, 'width': 411, 'height': 411, 'widthPercent': 0.45, 'rescaleHeight': False, 'trialN': 16, 'loaded': True, 'loadedTime': 2045.4000000953674, 'positionName': 'RIGHT', 'positionCoords': [798.72, 226.5], 'bid': 10}]",23533.700000047684,1669829372113,corn cob,mango,9.84,10.0,0.16000000000000014,mango,919.1000001430511,919,919.4000000953674,True,i,24965.60000014305,1431.9000000953674,1669829373545,1432,HRV,HRV_0044,2022-11-30 17:33:16
17,"[{'imgObject': {}, 'id': 'cantaloupe', 'src': '/static/foodstim60/cantaloupe.jpg', 'key': 'u', 'origWidth': 409, 'origHeight': 409, 'width': 409, 'height': 409, 'widthPercent': 0.45, 'rescaleHeight': False, 'trialN': 17, 'loaded': True, 'loadedTime': 1972.9000000953674, 'positionName': 'LEFT', 'positionCoords': [328.28, 227.5], 'bid': 9.94}, {'imgObject': {}, 'id': 'froot loops w milk', 'src': '/static/foodstim60/froot loops w milk.jpg', 'key': 'i', 'origWidth': 410, 'origHeight': 410, 'width': 410, 'height': 410, 'widthPercent': 0.45, 'rescaleHeight': False, 'trialN': 17, 'loaded': True, 'loadedTime': 1999.8000001907349, 'positionName': 'RIGHT', 'positionCoords': [798.72, 227], 'bid': 0.28}]",24965.900000095367,1669829373545,cantaloupe,froot loops w milk,9.94,0.28,-9.66,cantaloupe,639.0,639,639.2999999523163,True,u,26113.900000095367,1148.0,1669829374693,1148,HRV,HRV_0044,2022-11-30 17:33:16
18,"[{'imgObject': {}, 'id': 'olives', 'src': '/static/foodstim60/olives.jpg', 'key': 'u', 'origWidth': 410, 'origHeight': 410, 'width': 410, 'height': 410, 'widthPercent': 0.45, 'rescaleHeight': False, 'trialN': 18, 'loaded': True, 'loadedTime': 2100.100000143051, 'positionName': 'LEFT', 'positionCoords': [327.28, 227], 'bid': 0.23}, {'imgObject': {}, 'id': 'lox', 'src': '/static/foodstim60/lox.jpg', 'key': 'i', 'origWidth': 410, 'origHeight': 411, 'width': 410, 'height': 411, 'widthPercent': 0.45, 'rescaleHeight': False, 'trialN': 18, 'loaded': True, 'loadedTime': 1959.5, 'positionName': 'RIGHT', 'positionCoords': [798.72, 226.5], 'bid': 0.22}]",26114.0,1669829374693,olives,lox,0.23,0.22,-0.010000000000000009,lox,946.2000000476837,947,946.4000000953674,True,i,27570.5,1456.5,1669829376150,1457,HRV,HRV_0044,2022-11-30 17:33:16
19,"[{'imgObject': {}, 'id': 'hotdog w must', 'src': '/static/foodstim60/hotdog w must.jpg', 'key': 'u', 'origWidth': 409, 'origHeight': 409, 'width': 409, 'height': 409, 'widthPercent': 0.45, 'rescaleHeight': False, 'trialN': 19, 'loaded': True, 'loadedTime': 2100.800000190735, 'positionName': 'LEFT', 'positionCoords': [328.28, 227.5], 'bid': 0.14}, {'imgObject': {}, 'id': 'seaweed', 'src': '/static/foodstim60/seaweed.jpg', 'key': 'i', 'origWidth': 410, 'origHeight': 410, 'width': 410, 'height': 410, 'widthPercent': 0.45, 'rescaleHeight': False, 'trialN': 19, 'loaded': True, 'loadedTime': 2106.5, 'positionName': 'RIGHT', 'positionCoords': [798.72, 227], 'bid': 0.02}]",27570.700000047684,1669829376150,hotdog w must,seaweed,0.14,0.02,-0.12000000000000001,seaweed,1008.7000000476837,1009,1009.1000001430511,True,i,29083.10000014305,1512.4000000953674,1669829377662,1512,HRV,HRV_0044,2022-11-30 17:33:16
20,"[{'imgObject': {}, 'id': 'cantaloupe', 'src': '/static/foodstim60/cantaloupe.jpg', 'key': 'u', 'origWidth': 409, 'origHeight': 409, 'width': 409, 'height': 409, 'widthPercent': 0.45, 'rescaleHeight': False, 'trialN': 20, 'loaded': True, 'loadedTime': 1972, 'positionName': 'LEFT', 'positionCoords': [328.28, 227.5], 'bid': 9.94}, {'imgObject': {}, 'id': 'turkey sandwich', 'src': '/static/foodstim60/turkey sandwich.jpg', 'key': 'i', 'origWidth': 409, 'origHeight': 409, 'width': 409, 'height': 409, 'widthPercent': 0.45, 'rescaleHeight': False, 'trialN': 20, 'loaded': True, 'loadedTime': 2113.5, 'positionName': 'RIGHT', 'positionCoords': [798.72, 227.5], 'bid': 8.34}]",29083.200000047684,1669829377663,cantaloupe,turkey sandwich,9.94,8.34,-1.5999999999999996,cantaloupe,991.2000000476837,991,991.5,True,u,30583.5,1500.2999999523163,1669829379163,1500,HRV,HRV_0044,2022-11-30 17:33:16
21,"[{'imgObject': {}, 'id': 'baked potato', 'src': '/static/foodstim60/baked potato.jpg', 'key': 'u', 'origWidth': 409, 'origHeight': 410, 'width': 409, 'height': 410, 'widthPercent': 0.45, 'rescaleHeight': False, 'trialN': 21, 'loaded': True, 'loadedTime': 2114.800000190735, 'positionName': 'LEFT', 'positionCoords': [328.28, 227], 'bid': 4.17}, {'imgObject': {}, 'id': 'sweetpotato', 'src': '/static/foodstim60/sweetpotato.jpg', 'key': 'i', 'origWidth': 410, 'origHeight': 410, 'width': 410, 'height': 410, 'widthPercent': 0.45, 'rescaleHeight': False, 'trialN': 21, 'loaded': True, 'loadedTime': 1951.7000000476837, 'positionName': 'RIGHT', 'positionCoords': [798.72, 227], 'bid': 5.07}]",30583.700000047684,1669829379163,baked potato,sweetpotato,4.17,5.07,0.9000000000000004,sweetpotato,900.7999999523163,901,901.2000000476837,True,i,32000.10000014305,1416.4000000953674,1669829380579,1416,HRV,HRV_0044,2022-11-30 17:33:16
22,"[{'imgObject': {}, 'id': 'raspberries', 'src': '/static/foodstim60/raspberries.jpg', 'key': 'u', 'origWidth': 411, 'origHeight': 411, 'width': 411, 'height': 411, 'widthPercent': 0.45, 'rescaleHeight': False, 'trialN': 22, 'loaded': True, 'loadedTime': 2033, 'positionName': 'LEFT', 'positionCoords': [326.28, 226.5], 'bid': 9.97}, {'imgObject': {}, 'id': 'orange slices', 'src': '/static/foodstim60/orange slices.jpg', 'key': 'i', 'origWidth': 409, 'origHeight': 410, 'width': 409, 'height': 410, 'widthPercent': 0.45, 'rescaleHeight': False, 'trialN': 22, 'loaded': True, 'loadedTime': 2121.5, 'positionName': 'RIGHT', 'positionCoords': [798.72, 227], 'bid': 9.84}]",32000.200000047684,1669829380580,raspberries,orange slices,9.97,9.84,-0.13000000000000078,orange slices,709.1000001430511,709,709.5,True,i,33222.40000009537,1222.2000000476837,1669829381802,1222,HRV,HRV_0044,2022-11-30 17:33:16
23,"[{'imgObject': {}, 'id': 'Grapes', 'src': '/static/foodstim60/Grapes.jpg', 'key': 'u', 'origWidth': 411, 'origHeight': 411, 'width': 411, 'height': 411, 'widthPercent': 0.45, 'rescaleHeight': False, 'trialN': 23, 'loaded': True, 'loadedTime': 2122.800000190735, 'positionName': 'LEFT', 'positionCoords': [326.28, 226.5], 'bid': 9.97}, {'imgObject': {}, 'id': 'corn cob', 'src': '/static/foodstim60/corn cob.jpg', 'key': 'i', 'origWidth': 411, 'origHeight': 411, 'width': 411, 'height': 411, 'widthPercent': 0.45, 'rescaleHeight': False, 'trialN': 23, 'loaded': True, 'loadedTime': 2092.800000190735, 'positionName': 'RIGHT', 'positionCoords': [798.72, 226.5], 'bid': 9.84}]",33222.5,1669829381802,Grapes,corn cob,9.97,9.84,-0.13000000000000078,Grapes,853.1000001430511,853,853.4000000953674,True,u,34584.200000047684,1361.7000000476837,1669829383164,1362,HRV,HRV_0044,2022-11-30 17:33:16
24,"[{'imgObject': {}, 'id': 'froot loops w milk', 'src': '/static/foodstim60/froot loops w milk.jpg', 'key': 'u', 'origWidth': 410, 'origHeight': 410, 'width': 410, 'height': 410, 'widthPercent': 0.45, 'rescaleHeight': False, 'trialN': 24, 'loaded': True, 'loadedTime': 1999.5, 'positionName': 'LEFT', 'positionCoords': [327.28, 227], 'bid': 0.28}, {'imgObject': {}, 'id': 'rigatoni', 'src': '/static/foodstim60/rigatoni.jpg', 'key': 'i', 'origWidth': 411, 'origHeight': 411, 'width': 411, 'height': 411, 'widthPercent': 0.45, 'rescaleHeight': False, 'trialN': 24, 'loaded': True, 'loadedTime': 2124, 'positionName': 'RIGHT', 'positionCoords': [798.72, 226.5], 'bid': 0.26}]",34584.40000009537,1669829383164,froot loops w milk,rigatoni,0.28,0.26,-0.020000000000000018,rigatoni,723.7999999523163,724,724.0999999046326,True,i,35816.60000014305,1232.2000000476837,1669829384396,1232,HRV,HRV_0044,2022-11-30 17:33:16
25,"[{'imgObject': {}, 'id': 'raisin bran w milk', 'src': '/static/foodstim60/raisin bran w milk.jpg', 'key': 'u', 'origWidth': 411, 'origHeight': 411, 'width': 411, 'height': 411, 'widthPercent': 0.45, 'rescaleHeight': False, 'trialN': 25, 'loaded': True, 'loadedTime': 2130.100000143051, 'positionName': 'LEFT', 'positionCoords': [326.28, 226.5], 'bid': 0.15}, {'imgObject': {}, 'id': 'tacos', 'src': '/static/foodstim60/tacos.jpg', 'key': 'i', 'origWidth': 411, 'origHeight': 411, 'width': 411, 'height': 411, 'widthPercent': 0.45, 'rescaleHeight': False, 'trialN': 25, 'loaded': True, 'loadedTime': 2131.300000190735, 'positionName': 'RIGHT', 'positionCoords': [798.72, 226.5], 'bid': 0.26}]",35816.800000190735,1669829384396,raisin bran w milk,tacos,0.15,0.26,0.11000000000000001,raisin bran w milk,1020.5,1021,1020.7999999523163,True,u,37354.700000047684,1537.8999998569489,1669829385934,1538,HRV,HRV_0044,2022-11-30 17:33:16
26,"[{'imgObject': {}, 'id': 'raisin bran w milk', 'src': '/static/foodstim60/raisin bran w milk.jpg', 'key': 'u', 'origWidth': 411, 'origHeight': 411, 'width': 411, 'height': 411, 'widthPercent': 0.45, 'rescaleHeight': False, 'trialN': 26, 'loaded': True, 'loadedTime': 2130.300000190735, 'positionName': 'LEFT', 'positionCoords': [326.28, 226.5], 'bid': 0.15}, {'imgObject': {}, 'id': 'mac & cheese', 'src': '/static/foodstim60/mac & cheese.jpg', 'key': 'i', 'origWidth': 410, 'origHeight': 410, 'width': 410, 'height': 410, 'widthPercent': 0.45, 'rescaleHeight': False, 'trialN': 26, 'loaded': True, 'loadedTime': 2140.4000000953674, 'positionName': 'RIGHT', 'positionCoords': [798.72, 227], 'bid': 0.14}]",37354.90000009537,1669829385934,raisin bran w milk,mac & cheese,0.15,0.14,-0.009999999999999981,raisin bran w milk,725.9000000953674,726,726.0999999046326,True,u,38598.0,1243.0999999046326,1669829387177,1243,HRV,HRV_0044,2022-11-30 17:33:16
27,"[{'imgObject': {}, 'id': 'cherry tomato', 'src': '/static/foodstim60/cherry tomato.jpg', 'key': 'u', 'origWidth': 410, 'origHeight': 410, 'width': 410, 'height': 410, 'widthPercent': 0.45, 'rescaleHeight': False, 'trialN': 27, 'loaded': True, 'loadedTime': 2146, 'positionName': 'LEFT', 'positionCoords': [327.28, 227], 'bid': 4.94}, {'imgObject': {}, 'id': 'baked potato', 'src': '/static/foodstim60/baked potato.jpg', 'key': 'i', 'origWidth': 409, 'origHeight': 410, 'width': 409, 'height': 410, 'widthPercent': 0.45, 'rescaleHeight': False, 'trialN': 27, 'loaded': True, 'loadedTime': 2115.5, 'positionName': 'RIGHT', 'positionCoords': [798.72, 227], 'bid': 4.17}]",38598.10000014305,1669829387177,cherry tomato,baked potato,4.94,4.17,-0.7700000000000005,cherry tomato,783.2000000476837,784,783.5,True,u,39898.60000014305,1300.5,1669829388478,1301,HRV,HRV_0044,2022-11-30 17:33:16
28,"[{'imgObject': {}, 'id': 'veggieswithdip', 'src': '/static/foodstim60/veggieswithdip.jpg', 'key': 'u', 'origWidth': 409, 'origHeight': 409, 'width': 409, 'height': 409, 'widthPercent': 0.45, 'rescaleHeight': False, 'trialN': 28, 'loaded': True, 'loadedTime': 2147.100000143051, 'positionName': 'LEFT', 'positionCoords': [328.28, 227.5], 'bid': 9.81}, {'imgObject': {}, 'id': 'pear', 'src': '/static/foodstim60/pear.jpg', 'key': 'i', 'origWidth': 411, 'origHeight': 410, 'width': 411, 'height': 410, 'widthPercent': 0.45, 'rescaleHeight': False, 'trialN': 28, 'loaded': True, 'loadedTime': 1966.1000001430511, 'positionName': 'RIGHT', 'positionCoords': [798.72, 227], 'bid': 9.97}]",39898.90000009537,1669829388478,veggieswithdip,pear,9.81,9.97,0.16000000000000014,veggieswithdip,710.9000000953674,711,711.2000000476837,True,u,41114.800000190735,1215.9000000953674,1669829389694,1216,HRV,HRV_0044,2022-11-30 17:33:16
29,"[{'imgObject': {}, 'id': 'chickenfingers', 'src': '/static/foodstim60/chickenfingers.jpg', 'key': 'u', 'origWidth': 410, 'origHeight': 410, 'width': 410, 'height': 410, 'widthPercent': 0.45, 'rescaleHeight': False, 'trialN': 29, 'loaded': True, 'loadedTime': 2147.7000000476837, 'positionName': 'LEFT', 'positionCoords': [327.28, 227], 'bid': 9.85}, {'imgObject': {}, 'id': 'blackbeanswithrice', 'src': '/static/foodstim60/blackbeanswithrice.jpg', 'key': 'i', 'origWidth': 410, 'origHeight': 410, 'width': 410, 'height': 410, 'widthPercent': 0.45, 'rescaleHeight': False, 'trialN': 29, 'loaded': True, 'loadedTime': 2148.9000000953674, 'positionName': 'RIGHT', 'positionCoords': [798.72, 227], 'bid': 5.05}]",41115.0,1669829389694,chickenfingers,blackbeanswithrice,9.85,5.05,-4.8,chickenfingers,739.3000001907349,740,739.6000001430511,True,u,42365.0,1250.0,1669829390944,1250,HRV,HRV_0044,2022-11-30 17:33:16
30,"[{'imgObject': {}, 'id': 'edamame', 'src': '/static/foodstim60/edamame.jpg', 'key': 'u', 'origWidth': 409, 'origHeight': 410, 'width': 409, 'height': 410, 'widthPercent': 0.45, 'rescaleHeight': False, 'trialN': 30, 'loaded': True, 'loadedTime': 2149.7000000476837, 'positionName': 'LEFT', 'positionCoords': [328.28, 227], 'bid': 7.57}, {'imgObject': {}, 'id': 'baked potato', 'src': '/static/foodstim60/baked potato.jpg', 'key': 'i', 'origWidth': 409, 'origHeight': 410, 'width': 409, 'height': 410, 'widthPercent': 0.45, 'rescaleHeight': False, 'trialN': 30, 'loaded': True, 'loadedTime': 2114.800000190735, 'positionName': 'RIGHT', 'positionCoords': [798.72, 227], 'bid': 4.17}]",42365.10000014305,1669829390944,edamame,baked potato,7.57,4.17,-3.4000000000000004,baked potato,735.7000000476837,736,735.8999998569489,True,i,43616.40000009537,1251.2999999523163,1669829392196,1252,HRV,HRV_0044,2022-11-30 17:33:16
31,"[{'imgObject': {}, 'id': 'seaweed', 'src': '/static/foodstim60/seaweed.jpg', 'key': 'u', 'origWidth': 410, 'origHeight': 410, 'width': 410, 'height': 410, 'widthPercent': 0.45, 'rescaleHeight': False, 'trialN': 31, 'loaded': True, 'loadedTime': 2107.600000143051, 'positionName': 'LEFT', 'positionCoords': [327.28, 227], 'bid': 0.02}, {'imgObject': {}, 'id': 'burger', 'src': '/static/foodstim60/burger.jpg', 'key': 'i', 'origWidth': 409, 'origHeight': 409, 'width': 409, 'height': 409, 'widthPercent': 0.45, 'rescaleHeight': False, 'trialN': 31, 'loaded': True, 'loadedTime': 1957.9000000953674, 'positionName': 'RIGHT', 'positionCoords': [798.72, 227.5], 'bid': 7.3}]",43616.5,1669829392196,seaweed,burger,0.02,7.3,7.28,burger,945.4000000953674,946,945.7000000476837,True,i,45068.10000014305,1451.6000001430511,1669829393647,1451,HRV,HRV_0044,2022-11-30 17:33:16
32,"[{'imgObject': {}, 'id': 'lox', 'src': '/static/foodstim60/lox.jpg', 'key': 'u', 'origWidth': 410, 'origHeight': 411, 'width': 410, 'height': 411, 'widthPercent': 0.45, 'rescaleHeight': False, 'trialN': 32, 'loaded': True, 'loadedTime': 1965.2000000476837, 'positionName': 'LEFT', 'positionCoords': [327.28, 226.5], 'bid': 0.22}, {'imgObject': {}, 'id': 'apple slices', 'src': '/static/foodstim60/apple slices.jpg', 'key': 'i', 'origWidth': 409, 'origHeight': 410, 'width': 409, 'height': 410, 'widthPercent': 0.45, 'rescaleHeight': False, 'trialN': 32, 'loaded': True, 'loadedTime': 2155.300000190735, 'positionName': 'RIGHT', 'positionCoords': [798.72, 227], 'bid': 9.86}]",45068.200000047684,1669829393648,lox,apple slices,0.22,9.86,9.639999999999999,apple slices,631.0,631,631.1000001430511,True,i,46206.5,1138.2999999523163,1669829394786,1138,HRV,HRV_0044,2022-11-30 17:33:16
33,"[{'imgObject': {}, 'id': 'eggs', 'src': '/static/foodstim60/eggs.jpg', 'key': 'u', 'origWidth': 409, 'origHeight': 409, 'width': 409, 'height': 409, 'widthPercent': 0.45, 'rescaleHeight': False, 'trialN': 33, 'loaded': True, 'loadedTime': 2157.100000143051, 'positionName': 'LEFT', 'positionCoords': [328.28, 227.5], 'bid': 5.03}, {'imgObject': {}, 'id': 'rigatoni', 'src': '/static/foodstim60/rigatoni.jpg', 'key': 'i', 'origWidth': 411, 'origHeight': 411, 'width': 411, 'height': 411, 'widthPercent': 0.45, 'rescaleHeight': False, 'trialN': 33, 'loaded': True, 'loadedTime': 2124.100000143051, 'positionName': 'RIGHT', 'positionCoords': [798.72, 226.5], 'bid': 0.26}]",46206.700000047684,1669829394786,eggs,rigatoni,5.03,0.26,-4.7700000000000005,eggs,734.6000001430511,735,734.9000000953674,True,u,47459.90000009537,1253.2000000476837,1669829396039,1253,HRV,HRV_0044,2022-11-30 17:33:16
34,"[{'imgObject': {}, 'id': 'chicken nuggets2', 'src': '/static/foodstim60/chicken nuggets2.jpg', 'key': 'u', 'origWidth': 410, 'origHeight': 409, 'width': 410, 'height': 409, 'widthPercent': 0.45, 'rescaleHeight': False, 'trialN': 34, 'loaded': True, 'loadedTime': 2162, 'positionName': 'LEFT', 'positionCoords': [327.28, 227.5], 'bid': 0.02}, {'imgObject': {}, 'id': 'hashbrowns', 'src': '/static/foodstim60/hashbrowns.jpg', 'key': 'i', 'origWidth': 411, 'origHeight': 410, 'width': 411, 'height': 410, 'widthPercent': 0.45, 'rescaleHeight': False, 'trialN': 34, 'loaded': True, 'loadedTime': 2164.300000190735, 'positionName': 'RIGHT', 'positionCoords': [798.72, 227], 'bid': 0.03}]",47460.10000014305,1669829396039,chicken nuggets2,hashbrowns,0.02,0.03,0.009999999999999998,chicken nuggets2,635.0,636,635.2000000476837,True,u,48616.90000009537,1156.7999999523163,1669829397196,1157,HRV,HRV_0044,2022-11-30 17:33:16
35,"[{'imgObject': {}, 'id': 'popsicles', 'src': '/static/foodstim60/popsicles.jpg', 'key': 'u', 'origWidth': 410, 'origHeight': 410, 'width': 410, 'height': 410, 'widthPercent': 0.45, 'rescaleHeight': False, 'trialN': 35, 'loaded': True, 'loadedTime': 2182.800000190735, 'positionName': 'LEFT', 'positionCoords': [327.28, 227], 'bid': 0}, {'imgObject': {}, 'id': 'blackbeanswithrice', 'src': '/static/foodstim60/blackbeanswithrice.jpg', 'key': 'i', 'origWidth': 410, 'origHeight': 410, 'width': 410, 'height': 410, 'widthPercent': 0.45, 'rescaleHeight': False, 'trialN': 35, 'loaded': True, 'loadedTime': 2149, 'positionName': 'RIGHT', 'positionCoords': [798.72, 227], 'bid': 5.05}]",48617.0,1669829397196,popsicles,blackbeanswithrice,0.0,5.05,5.05,popsicles,723.5,724,723.9000000953674,True,u,49857.10000014305,1240.1000001430511,1669829398436,1240,HRV,HRV_0044,2022-11-30 17:33:16
36,"[{'imgObject': {}, 'id': 'strawberries', 'src': '/static/foodstim60/strawberries.jpg', 'key': 'u', 'origWidth': 410, 'origHeight': 410, 'width': 410, 'height': 410, 'widthPercent': 0.45, 'rescaleHeight': False, 'trialN': 36, 'loaded': True, 'loadedTime': 2077.300000190735, 'positionName': 'LEFT', 'positionCoords': [327.28, 227], 'bid': 10}, {'imgObject': {}, 'id': 'cantaloupe', 'src': '/static/foodstim60/cantaloupe.jpg', 'key': 'i', 'origWidth': 409, 'origHeight': 409, 'width': 409, 'height': 409, 'widthPercent': 0.45, 'rescaleHeight': False, 'trialN': 36, 'loaded': True, 'loadedTime': 1980.2000000476837, 'positionName': 'RIGHT', 'positionCoords': [798.72, 227.5], 'bid': 9.94}]",49857.200000047684,1669829398437,strawberries,cantaloupe,10.0,9.94,-0.0600000000000005,cantaloupe,941.9000000953674,942,942.4000000953674,True,i,51317.200000047684,1460.0,1669829399896,1459,HRV,HRV_0044,2022-11-30 17:33:16
37,"[{'imgObject': {}, 'id': 'fruitsalad', 'src': '/static/foodstim60/fruitsalad.jpg', 'key': 'u', 'origWidth': 410, 'origHeight': 410, 'width': 410, 'height': 410, 'widthPercent': 0.45, 'rescaleHeight': False, 'trialN': 37, 'loaded': True, 'loadedTime': 2038.7000000476837, 'positionName': 'LEFT', 'positionCoords': [327.28, 227], 'bid': 10}, {'imgObject': {}, 'id': 'yogurt no spoon', 'src': '/static/foodstim60/yogurt no spoon.jpg', 'key': 'i', 'origWidth': 411, 'origHeight': 410, 'width': 411, 'height': 410, 'widthPercent': 0.45, 'rescaleHeight': False, 'trialN': 37, 'loaded': True, 'loadedTime': 2062.800000190735, 'positionName': 'RIGHT', 'positionCoords': [798.72, 227], 'bid': 9.92}]",51317.40000009537,1669829399897,fruitsalad,yogurt no spoon,10.0,9.92,-0.08000000000000007,fruitsalad,568.5999999046326,569,568.9000000953674,True,u,52396.5,1079.0999999046326,1669829400976,1079,HRV,HRV_0044,2022-11-30 17:33:16
38,"[{'imgObject': {}, 'id': 'popsicles', 'src': '/static/foodstim60/popsicles.jpg', 'key': 'u', 'origWidth': 410, 'origHeight': 410, 'width': 410, 'height': 410, 'widthPercent': 0.45, 'rescaleHeight': False, 'trialN': 38, 'loaded': True, 'loadedTime': 2182.9000000953674, 'positionName': 'LEFT', 'positionCoords': [327.28, 227], 'bid': 0}, {'imgObject': {}, 'id': 'mashed potato', 'src': '/static/foodstim60/mashed potato.jpg', 'key': 'i', 'origWidth': 409, 'origHeight': 409, 'width': 409, 'height': 409, 'widthPercent': 0.45, 'rescaleHeight': False, 'trialN': 38, 'loaded': True, 'loadedTime': 1981.4000000953674, 'positionName': 'RIGHT', 'positionCoords': [798.72, 227.5], 'bid': 0.19}]",52396.700000047684,1669829400976,popsicles,mashed potato,0.0,0.19,0.19,popsicles,681.1000001430511,682,681.6000001430511,True,u,53598.0,1201.2999999523163,1669829402177,1201,HRV,HRV_0044,2022-11-30 17:33:16
39,"[{'imgObject': {}, 'id': 'Grapes', 'src': '/static/foodstim60/Grapes.jpg', 'key': 'u', 'origWidth': 411, 'origHeight': 411, 'width': 411, 'height': 411, 'widthPercent': 0.45, 'rescaleHeight': False, 'trialN': 39, 'loaded': True, 'loadedTime': 2121.800000190735, 'positionName': 'LEFT', 'positionCoords': [326.28, 226.5], 'bid': 9.97}, {'imgObject': {}, 'id': 'cantaloupe', 'src': '/static/foodstim60/cantaloupe.jpg', 'key': 'i', 'origWidth': 409, 'origHeight': 409, 'width': 409, 'height': 409, 'widthPercent': 0.45, 'rescaleHeight': False, 'trialN': 39, 'loaded': True, 'loadedTime': 1979.8000001907349, 'positionName': 'RIGHT', 'positionCoords': [798.72, 227.5], 'bid': 9.94}]",53598.200000047684,1669829402177,Grapes,cantaloupe,9.97,9.94,-0.030000000000001137,Grapes,735.9000000953674,737,736.2999999523163,True,u,54848.40000009537,1250.2000000476837,1669829403428,1251,HRV,HRV_0044,2022-11-30 17:33:16
40,"[{'imgObject': {}, 'id': 'blueberries', 'src': '/static/foodstim60/blueberries.jpg', 'key': 'u', 'origWidth': 411, 'origHeight': 411, 'width': 411, 'height': 411, 'widthPercent': 0.45, 'rescaleHeight': False, 'trialN': 40, 'loaded': True, 'loadedTime': 2164.9000000953674, 'positionName': 'LEFT', 'positionCoords': [326.28, 226.5], 'bid': 9.86}, {'imgObject': {}, 'id': 'yogurt no spoon', 'src': '/static/foodstim60/yogurt no spoon.jpg', 'key': 'i', 'origWidth': 411, 'origHeight': 410, 'width': 411, 'height': 410, 'widthPercent': 0.45, 'rescaleHeight': False, 'trialN': 40, 'loaded': True, 'loadedTime': 2062.5, 'positionName': 'RIGHT', 'positionCoords': [798.72, 227], 'bid': 9.92}]",54848.60000014305,1669829403428,blueberries,yogurt no spoon,9.86,9.92,0.0600000000000005,blueberries,666.7000000476837,667,666.7999999523163,True,u,56030.60000014305,1182.0,1669829404610,1182,HRV,HRV_0044,2022-11-30 17:33:16
41,"[{'imgObject': {}, 'id': 'omelette', 'src': '/static/foodstim60/omelette.jpg', 'key': 'u', 'origWidth': 410, 'origHeight': 409, 'width': 410, 'height': 409, 'widthPercent': 0.45, 'rescaleHeight': False, 'trialN': 41, 'loaded': True, 'loadedTime': 2166.800000190735, 'positionName': 'LEFT', 'positionCoords': [327.28, 227.5], 'bid': 9.75}, {'imgObject': {}, 'id': 'avocado', 'src': '/static/foodstim60/avocado.jpg', 'key': 'i', 'origWidth': 409, 'origHeight': 409, 'width': 409, 'height': 409, 'widthPercent': 0.45, 'rescaleHeight': False, 'trialN': 41, 'loaded': True, 'loadedTime': 2168.2000000476837, 'positionName': 'RIGHT', 'positionCoords': [798.72, 227.5], 'bid': 4.94}]",56031.0,1669829404610,omelette,avocado,9.75,4.94,-4.81,omelette,655.4000000953674,656,655.6000001430511,True,u,57197.300000190735,1166.3000001907349,1669829405777,1167,HRV,HRV_0044,2022-11-30 17:33:16
42,"[{'imgObject': {}, 'id': 'edamame', 'src': '/static/foodstim60/edamame.jpg', 'key': 'u', 'origWidth': 409, 'origHeight': 410, 'width': 409, 'height': 410, 'widthPercent': 0.45, 'rescaleHeight': False, 'trialN': 42, 'loaded': True, 'loadedTime': 2155.100000143051, 'positionName': 'LEFT', 'positionCoords': [328.28, 227], 'bid': 7.57}, {'imgObject': {}, 'id': 'turkey sandwich', 'src': '/static/foodstim60/turkey sandwich.jpg', 'key': 'i', 'origWidth': 409, 'origHeight': 409, 'width': 409, 'height': 409, 'widthPercent': 0.45, 'rescaleHeight': False, 'trialN': 42, 'loaded': True, 'loadedTime': 2113.5, 'positionName': 'RIGHT', 'positionCoords': [798.72, 227.5], 'bid': 8.34}]",57197.5,1669829405777,edamame,turkey sandwich,7.57,8.34,0.7699999999999996,turkey sandwich,613.7000000476837,614,613.9000000953674,True,i,58317.60000014305,1120.1000001430511,1669829406897,1120,HRV,HRV_0044,2022-11-30 17:33:16
43,"[{'imgObject': {}, 'id': 'popsicles', 'src': '/static/foodstim60/popsicles.jpg', 'key': 'u', 'origWidth': 410, 'origHeight': 410, 'width': 410, 'height': 410, 'widthPercent': 0.45, 'rescaleHeight': False, 'trialN': 43, 'loaded': True, 'loadedTime': 2183, 'positionName': 'LEFT', 'positionCoords': [327.28, 227], 'bid': 0}, {'imgObject': {}, 'id': 'bagel and cc', 'src': '/static/foodstim60/bagel and cc.jpg', 'key': 'i', 'origWidth': 410, 'origHeight': 410, 'width': 410, 'height': 410, 'widthPercent': 0.45, 'rescaleHeight': False, 'trialN': 43, 'loaded': True, 'loadedTime': 2071.100000143051, 'positionName': 'RIGHT', 'positionCoords': [798.72, 227], 'bid': 0.11}]",58317.90000009537,1669829406897,popsicles,bagel and cc,0.0,0.11,0.11,popsicles,1010.0999999046326,1011,1010.5,True,u,59847.5,1529.5999999046326,1669829408427,1530,HRV,HRV_0044,2022-11-30 17:33:16
44,"[{'imgObject': {}, 'id': 'steak', 'src': '/static/foodstim60/steak.jpg', 'key': 'u', 'origWidth': 410, 'origHeight': 410, 'width': 410, 'height': 410, 'widthPercent': 0.45, 'rescaleHeight': False, 'trialN': 44, 'loaded': True, 'loadedTime': 2168.600000143051, 'positionName': 'LEFT', 'positionCoords': [327.28, 227], 'bid': 10}, {'imgObject': {}, 'id': 'baked potato', 'src': '/static/foodstim60/baked potato.jpg', 'key': 'i', 'origWidth': 409, 'origHeight': 410, 'width': 409, 'height': 410, 'widthPercent': 0.45, 'rescaleHeight': False, 'trialN': 44, 'loaded': True, 'loadedTime': 2116.9000000953674, 'positionName': 'RIGHT', 'positionCoords': [798.72, 227], 'bid': 4.17}]",59847.700000047684,1669829408427,steak,baked potato,10.0,4.17,-5.83,steak,717.5,718,717.7000000476837,True,u,61081.10000014305,1233.4000000953674,1669829409660,1233,HRV,HRV_0044,2022-11-30 17:33:16
45,"[{'imgObject': {}, 'id': 'turkeysandwich', 'src': '/static/foodstim60/turkeysandwich.jpg', 'key': 'u', 'origWidth': 409, 'origHeight': 409, 'width': 409, 'height': 409, 'widthPercent': 0.45, 'rescaleHeight': False, 'trialN': 45, 'loaded': True, 'loadedTime': 2026.7000000476837, 'positionName': 'LEFT', 'positionCoords': [328.28, 227.5], 'bid': 9.77}, {'imgObject': {}, 'id': 'chickenfingers', 'src': '/static/foodstim60/chickenfingers.jpg', 'key': 'i', 'origWidth': 410, 'origHeight': 410, 'width': 410, 'height': 410, 'widthPercent': 0.45, 'rescaleHeight': False, 'trialN': 45, 'loaded': True, 'loadedTime': 2148.100000143051, 'positionName': 'RIGHT', 'positionCoords': [798.72, 227], 'bid': 9.85}]",61081.300000190735,1669829409661,turkeysandwich,chickenfingers,9.77,9.85,0.08000000000000007,turkeysandwich,907.5999999046326,908,908.0,True,u,62505.40000009537,1424.0999999046326,1669829411085,1424,HRV,HRV_0044,2022-11-30 17:33:16
46,"[{'imgObject': {}, 'id': 'lox', 'src': '/static/foodstim60/lox.jpg', 'key': 'u', 'origWidth': 410, 'origHeight': 411, 'width': 410, 'height': 411, 'widthPercent': 0.45, 'rescaleHeight': False, 'trialN': 46, 'loaded': True, 'loadedTime': 1959.3000001907349, 'positionName': 'LEFT', 'positionCoords': [327.28, 226.5], 'bid': 0.22}, {'imgObject': {}, 'id': 'cheerios', 'src': '/static/foodstim60/cheerios.jpg', 'key': 'i', 'origWidth': 409, 'origHeight': 410, 'width': 409, 'height': 410, 'widthPercent': 0.45, 'rescaleHeight': False, 'trialN': 46, 'loaded': True, 'loadedTime': 2048.600000143051, 'positionName': 'RIGHT', 'positionCoords': [798.72, 227], 'bid': 0.11}]",62505.60000014305,1669829411085,lox,cheerios,0.22,0.11,-0.11,cheerios,837.2999999523163,838,838.2000000476837,True,i,63863.700000047684,1358.0999999046326,1669829412443,1358,HRV,HRV_0044,2022-11-30 17:33:16
47,"[{'imgObject': {}, 'id': 'salmon', 'src': '/static/foodstim60/salmon.jpg', 'key': 'u', 'origWidth': 410, 'origHeight': 409, 'width': 410, 'height': 409, 'widthPercent': 0.45, 'rescaleHeight': False, 'trialN': 47, 'loaded': True, 'loadedTime': 2007.6000001430511, 'positionName': 'LEFT', 'positionCoords': [327.28, 227.5], 'bid': 3.11}, {'imgObject': {}, 'id': 'blackbeanswithrice', 'src': '/static/foodstim60/blackbeanswithrice.jpg', 'key': 'i', 'origWidth': 410, 'origHeight': 410, 'width': 410, 'height': 410, 'widthPercent': 0.45, 'rescaleHeight': False, 'trialN': 47, 'loaded': True, 'loadedTime': 2148.100000143051, 'positionName': 'RIGHT', 'positionCoords': [798.72, 227], 'bid': 5.05}]",63864.10000014305,1669829412443,salmon,blackbeanswithrice,3.11,5.05,1.94,salmon,859.2999999523163,860,859.7000000476837,True,u,65230.40000009537,1366.2999999523163,1669829413810,1367,HRV,HRV_0044,2022-11-30 17:33:16
48,"[{'imgObject': {}, 'id': 'banana', 'src': '/static/foodstim60/banana.jpg', 'key': 'u', 'origWidth': 410, 'origHeight': 410, 'width': 410, 'height': 410, 'widthPercent': 0.45, 'rescaleHeight': False, 'trialN': 48, 'loaded': True, 'loadedTime': 2049.800000190735, 'positionName': 'LEFT', 'positionCoords': [327.28, 227], 'bid': 9.81}, {'imgObject': {}, 'id': 'fruitsalad', 'src': '/static/foodstim60/fruitsalad.jpg', 'key': 'i', 'origWidth': 410, 'origHeight': 410, 'width': 410, 'height': 410, 'widthPercent': 0.45, 'rescaleHeight': False, 'trialN': 48, 'loaded': True, 'loadedTime': 2039.2000000476837, 'positionName': 'RIGHT', 'positionCoords': [798.72, 227], 'bid': 10}]",65230.60000014305,1669829413810,banana,fruitsalad,9.81,10.0,0.1899999999999995,banana,699.2000000476837,699,699.5999999046326,True,u,66442.60000014305,1212.0,1669829415022,1212,HRV,HRV_0044,2022-11-30 17:33:16
49,"[{'imgObject': {}, 'id': 'shreddedwheatwithmilk', 'src': '/static/foodstim60/shreddedwheatwithmilk.jpg', 'key': 'u', 'origWidth': 410, 'origHeight': 410, 'width': 410, 'height': 410, 'widthPercent': 0.45, 'rescaleHeight': False, 'trialN': 49, 'loaded': True, 'loadedTime': 2169.600000143051, 'positionName': 'LEFT', 'positionCoords': [327.28, 227], 'bid': 0.05}, {'imgObject': {}, 'id': 'omelette', 'src': '/static/foodstim60/omelette.jpg', 'key': 'i', 'origWidth': 410, 'origHeight': 409, 'width': 410, 'height': 409, 'widthPercent': 0.45, 'rescaleHeight': False, 'trialN': 49, 'loaded': True, 'loadedTime': 2166.2000000476837, 'positionName': 'RIGHT', 'positionCoords': [798.72, 227.5], 'bid': 9.75}]",66442.90000009537,1669829415022,shreddedwheatwithmilk,omelette,0.05,9.75,9.7,omelette,956.2000000476837,957,956.7000000476837,True,i,67908.0,1465.0999999046326,1669829416487,1465,HRV,HRV_0044,2022-11-30 17:33:16
50,"[{'imgObject': {}, 'id': 'veggieswithdip', 'src': '/static/foodstim60/veggieswithdip.jpg', 'key': 'u', 'origWidth': 409, 'origHeight': 409, 'width': 409, 'height': 409, 'widthPercent': 0.45, 'rescaleHeight': False, 'trialN': 50, 'loaded': True, 'loadedTime': 2147.100000143051, 'positionName': 'LEFT', 'positionCoords': [328.28, 227.5], 'bid': 9.81}, {'imgObject': {}, 'id': 'mac & cheese', 'src': '/static/foodstim60/mac & cheese.jpg', 'key': 'i', 'origWidth': 410, 'origHeight': 410, 'width': 410, 'height': 410, 'widthPercent': 0.45, 'rescaleHeight': False, 'trialN': 50, 'loaded': True, 'loadedTime': 2140.300000190735, 'positionName': 'RIGHT', 'positionCoords': [798.72, 227], 'bid': 0.14}]",67908.30000019073,1669829416488,veggieswithdip,mac & cheese,9.81,0.14,-9.67,veggieswithdip,778.1999998092651,778,778.5,True,u,69197.80000019073,1289.5,1669829417777,1289,HRV,HRV_0044,2022-11-30 17:33:16
51,"[{'imgObject': {}, 'id': 'eggs', 'src': '/static/foodstim60/eggs.jpg', 'key': 'u', 'origWidth': 409, 'origHeight': 409, 'width': 409, 'height': 409, 'widthPercent': 0.45, 'rescaleHeight': False, 'trialN': 51, 'loaded': True, 'loadedTime': 2157, 'positionName': 'LEFT', 'positionCoords': [328.28, 227.5], 'bid': 5.03}, {'imgObject': {}, 'id': 'blackbeanswithrice', 'src': '/static/foodstim60/blackbeanswithrice.jpg', 'key': 'i', 'origWidth': 410, 'origHeight': 410, 'width': 410, 'height': 410, 'widthPercent': 0.45, 'rescaleHeight': False, 'trialN': 51, 'loaded': True, 'loadedTime': 2149.100000143051, 'positionName': 'RIGHT', 'positionCoords': [798.72, 227], 'bid': 5.05}]",69198.10000014305,1669829417777,eggs,blackbeanswithrice,5.03,5.05,0.019999999999999574,eggs,674.2000000476837,675,674.5999999046326,True,u,70378.70000004768,1180.5999999046326,1669829418958,1181,HRV,HRV_0044,2022-11-30 17:33:16
52,"[{'imgObject': {}, 'id': 'eggs', 'src': '/static/foodstim60/eggs.jpg', 'key': 'u', 'origWidth': 409, 'origHeight': 409, 'width': 409, 'height': 409, 'widthPercent': 0.45, 'rescaleHeight': False, 'trialN': 52, 'loaded': True, 'loadedTime': 2157.2000000476837, 'positionName': 'LEFT', 'positionCoords': [328.28, 227.5], 'bid': 5.03}, {'imgObject': {}, 'id': 'orange slices', 'src': '/static/foodstim60/orange slices.jpg', 'key': 'i', 'origWidth': 409, 'origHeight': 410, 'width': 409, 'height': 410, 'widthPercent': 0.45, 'rescaleHeight': False, 'trialN': 52, 'loaded': True, 'loadedTime': 2119.300000190735, 'positionName': 'RIGHT', 'positionCoords': [798.72, 227], 'bid': 9.84}]",70378.80000019073,1669829418958,eggs,orange slices,5.03,9.84,4.81,orange slices,604.2999999523163,609,604.6999998092651,True,i,71497.0,1118.1999998092651,1669829420080,1122,HRV,HRV_0044,2022-11-30 17:33:16
53,"[{'imgObject': {}, 'id': 'yogurt no spoon', 'src': '/static/foodstim60/yogurt no spoon.jpg', 'key': 'u', 'origWidth': 411, 'origHeight': 410, 'width': 411, 'height': 410, 'widthPercent': 0.45, 'rescaleHeight': False, 'trialN': 53, 'loaded': True, 'loadedTime': 2062.800000190735, 'positionName': 'LEFT', 'positionCoords': [326.28, 227], 'bid': 9.92}, {'imgObject': {}, 'id': 'kiwi', 'src': '/static/foodstim60/kiwi.jpg', 'key': 'i', 'origWidth': 410, 'origHeight': 410, 'width': 410, 'height': 410, 'widthPercent': 0.45, 'rescaleHeight': False, 'trialN': 53, 'loaded': True, 'loadedTime': 2000.7000000476837, 'positionName': 'RIGHT', 'positionCoords': [798.72, 227], 'bid': 9.88}]",71497.20000004768,1669829420080,yogurt no spoon,kiwi,9.92,9.88,-0.03999999999999915,kiwi,662.7000000476837,663,663.0,True,i,72667.0,1169.7999999523163,1669829421250,1170,HRV,HRV_0044,2022-11-30 17:33:16
54,"[{'imgObject': {}, 'id': 'burger', 'src': '/static/foodstim60/burger.jpg', 'key': 'u', 'origWidth': 409, 'origHeight': 409, 'width': 409, 'height': 409, 'widthPercent': 0.45, 'rescaleHeight': False, 'trialN': 54, 'loaded': True, 'loadedTime': 1958.3000001907349, 'positionName': 'LEFT', 'positionCoords': [328.28, 227.5], 'bid': 7.3}, {'imgObject': {}, 'id': 'sushi w_condiments', 'src': '/static/foodstim60/sushi w_condiments.jpg', 'key': 'i', 'origWidth': 410, 'origHeight': 410, 'width': 410, 'height': 410, 'widthPercent': 0.45, 'rescaleHeight': False, 'trialN': 54, 'loaded': True, 'loadedTime': 1992.9000000953674, 'positionName': 'RIGHT', 'positionCoords': [798.72, 227], 'bid': 7.31}]",72667.20000004768,1669829421250,burger,sushi w_condiments,7.3,7.31,0.009999999999999787,sushi w_condiments,777.2000000476837,778,777.6000001430511,True,i,73967.30000019073,1300.1000001430511,1669829422551,1301,HRV,HRV_0044,2022-11-30 17:33:16
55,"[{'imgObject': {}, 'id': 'avocado', 'src': '/static/foodstim60/avocado.jpg', 'key': 'u', 'origWidth': 409, 'origHeight': 409, 'width': 409, 'height': 409, 'widthPercent': 0.45, 'rescaleHeight': False, 'trialN': 55, 'loaded': True, 'loadedTime': 2168.4000000953674, 'positionName': 'LEFT', 'positionCoords': [328.28, 227.5], 'bid': 4.94}, {'imgObject': {}, 'id': 'mac & cheese', 'src': '/static/foodstim60/mac & cheese.jpg', 'key': 'i', 'origWidth': 410, 'origHeight': 410, 'width': 410, 'height': 410, 'widthPercent': 0.45, 'rescaleHeight': False, 'trialN': 55, 'loaded': True, 'loadedTime': 2140.100000143051, 'positionName': 'RIGHT', 'positionCoords': [798.72, 227], 'bid': 0.14}]",73967.60000014305,1669829422551,avocado,mac & cheese,4.94,0.14,-4.800000000000001,avocado,1022.2000000476837,1022,1022.3999998569489,True,u,75497.80000019073,1530.2000000476837,1669829424081,1530,HRV,HRV_0044,2022-11-30 17:33:16
56,"[{'imgObject': {}, 'id': 'burrito', 'src': '/static/foodstim60/burrito.jpg', 'key': 'u', 'origWidth': 410, 'origHeight': 410, 'width': 410, 'height': 410, 'widthPercent': 0.45, 'rescaleHeight': False, 'trialN': 56, 'loaded': True, 'loadedTime': 2174, 'positionName': 'LEFT', 'positionCoords': [327.28, 227], 'bid': 0}, {'imgObject': {}, 'id': 'chicken nuggets2', 'src': '/static/foodstim60/chicken nuggets2.jpg', 'key': 'i', 'origWidth': 410, 'origHeight': 409, 'width': 410, 'height': 409, 'widthPercent': 0.45, 'rescaleHeight': False, 'trialN': 56, 'loaded': True, 'loadedTime': 2163.4000000953674, 'positionName': 'RIGHT', 'positionCoords': [798.72, 227.5], 'bid': 0.02}]",75498.0,1669829424081,burrito,chicken nuggets2,0.0,0.02,0.02,chicken nuggets2,1074.4000000953674,1075,1074.9000000953674,True,i,77080.90000009537,1582.9000000953674,1669829425664,1583,HRV,HRV_0044,2022-11-30 17:33:16
57,"[{'imgObject': {}, 'id': 'hotdog w must', 'src': '/static/foodstim60/hotdog w must.jpg', 'key': 'u', 'origWidth': 409, 'origHeight': 409, 'width': 409, 'height': 409, 'widthPercent': 0.45, 'rescaleHeight': False, 'trialN': 57, 'loaded': True, 'loadedTime': 2100.9000000953674, 'positionName': 'LEFT', 'positionCoords': [328.28, 227.5], 'bid': 0.14}, {'imgObject': {}, 'id': 'rigatoni', 'src': '/static/foodstim60/rigatoni.jpg', 'key': 'i', 'origWidth': 411, 'origHeight': 411, 'width': 411, 'height': 411, 'widthPercent': 0.45, 'rescaleHeight': False, 'trialN': 57, 'loaded': True, 'loadedTime': 2124, 'positionName': 'RIGHT', 'positionCoords': [798.72, 226.5], 'bid': 0.26}]",77081.20000004768,1669829425664,hotdog w must,rigatoni,0.14,0.26,0.12,hotdog w must,1296.2999999523163,1297,1296.5,True,u,78883.10000014305,1801.9000000953674,1669829427466,1802,HRV,HRV_0044,2022-11-30 17:33:16
58,"[{'imgObject': {}, 'id': 'blackbeanswithrice', 'src': '/static/foodstim60/blackbeanswithrice.jpg', 'key': 'u', 'origWidth': 410, 'origHeight': 410, 'width': 410, 'height': 410, 'widthPercent': 0.45, 'rescaleHeight': False, 'trialN': 58, 'loaded': True, 'loadedTime': 2149.100000143051, 'positionName': 'LEFT', 'positionCoords': [327.28, 227], 'bid': 5.05}, {'imgObject': {}, 'id': 'tacos', 'src': '/static/foodstim60/tacos.jpg', 'key': 'i', 'origWidth': 411, 'origHeight': 411, 'width': 411, 'height': 411, 'widthPercent': 0.45, 'rescaleHeight': False, 'trialN': 58, 'loaded': True, 'loadedTime': 2131.5, 'positionName': 'RIGHT', 'positionCoords': [798.72, 226.5], 'bid': 0.26}]",78883.30000019073,1669829427466,blackbeanswithrice,tacos,5.05,0.26,-4.79,blackbeanswithrice,891.8999998569489,893,892.2999999523163,True,u,80295.80000019073,1412.5,1669829428879,1413,HRV,HRV_0044,2022-11-30 17:33:16
59,"[{'imgObject': {}, 'id': 'raspberries', 'src': '/static/foodstim60/raspberries.jpg', 'key': 'u', 'origWidth': 411, 'origHeight': 411, 'width': 411, 'height': 411, 'widthPercent': 0.45, 'rescaleHeight': False, 'trialN': 59, 'loaded': True, 'loadedTime': 2033, 'positionName': 'LEFT', 'positionCoords': [326.28, 226.5], 'bid': 9.97}, {'imgObject': {}, 'id': 'salmon', 'src': '/static/foodstim60/salmon.jpg', 'key': 'i', 'origWidth': 410, 'origHeight': 409, 'width': 410, 'height': 409, 'widthPercent': 0.45, 'rescaleHeight': False, 'trialN': 59, 'loaded': True, 'loadedTime': 2012.4000000953674, 'positionName': 'RIGHT', 'positionCoords': [798.72, 227.5], 'bid': 3.11}]",80296.10000014305,1669829428879,raspberries,salmon,9.97,3.11,-6.860000000000001,raspberries,768.2000000476837,774,773.5,True,u,81583.10000014305,1287.0,1669829430166,1287,HRV,HRV_0044,2022-11-30 17:33:16
60,"[{'imgObject': {}, 'id': 'roastedpotatoes', 'src': '/static/foodstim60/roastedpotatoes.jpg', 'key': 'u', 'origWidth': 409, 'origHeight': 410, 'width': 409, 'height': 410, 'widthPercent': 0.45, 'rescaleHeight': False, 'trialN': 60, 'loaded': True, 'loadedTime': 2175.2000000476837, 'positionName': 'LEFT', 'positionCoords': [328.28, 227], 'bid': 6.3100000000000005}, {'imgObject': {}, 'id': 'eggsalad', 'src': '/static/foodstim60/eggsalad.jpg', 'key': 'i', 'origWidth': 410, 'origHeight': 409, 'width': 410, 'height': 409, 'widthPercent': 0.45, 'rescaleHeight': False, 'trialN': 60, 'loaded': True, 'loadedTime': 1925.9000000953674, 'positionName': 'RIGHT', 'positionCoords': [798.72, 227.5], 'bid': 0}]",81583.60000014305,1669829430167,roastedpotatoes,eggsalad,6.3100000000000005,0.0,-6.3100000000000005,roastedpotatoes,1106.5,1107,1106.7999999523163,True,u,83196.80000019073,1613.2000000476837,1669829431780,1613,HRV,HRV_0044,2022-11-30 17:33:16
61,"[{'imgObject': {}, 'id': 'shreddedwheatwithmilk', 'src': '/static/foodstim60/shreddedwheatwithmilk.jpg', 'key': 'u', 'origWidth': 410, 'origHeight': 410, 'width': 410, 'height': 410, 'widthPercent': 0.45, 'rescaleHeight': False, 'trialN': 61, 'loaded': True, 'loadedTime': 2171.300000190735, 'positionName': 'LEFT', 'positionCoords': [327.28, 227], 'bid': 0.05}, {'imgObject': {}, 'id': 'ice cream sundae 002', 'src': '/static/foodstim60/ice cream sundae 002.jpg', 'key': 'i', 'origWidth': 409, 'origHeight': 409, 'width': 409, 'height': 409, 'widthPercent': 0.45, 'rescaleHeight': False, 'trialN': 61, 'loaded': True, 'loadedTime': 2176.300000190735, 'positionName': 'RIGHT', 'positionCoords': [798.72, 227.5], 'bid': 0.54}]",83196.90000009537,1669829431780,shreddedwheatwithmilk,ice cream sundae 002,0.05,0.54,0.49000000000000005,ice cream sundae 002,952.2999999523163,953,952.5,True,i,84663.90000009537,1467.0,1669829433247,1467,HRV,HRV_0044,2022-11-30 17:33:16
62,"[{'imgObject': {}, 'id': 'cocktailshrimp', 'src': '/static/foodstim60/cocktailshrimp.jpg', 'key': 'u', 'origWidth': 410, 'origHeight': 410, 'width': 410, 'height': 410, 'widthPercent': 0.45, 'rescaleHeight': False, 'trialN': 62, 'loaded': True, 'loadedTime': 2020.2000000476837, 'positionName': 'LEFT', 'positionCoords': [327.28, 227], 'bid': 2.9}, {'imgObject': {}, 'id': 'baked potato', 'src': '/static/foodstim60/baked potato.jpg', 'key': 'i', 'origWidth': 409, 'origHeight': 410, 'width': 409, 'height': 410, 'widthPercent': 0.45, 'rescaleHeight': False, 'trialN': 62, 'loaded': True, 'loadedTime': 2113.800000190735, 'positionName': 'RIGHT', 'positionCoords': [798.72, 227], 'bid': 4.17}]",84664.10000014305,1669829433247,cocktailshrimp,baked potato,2.9,4.17,1.27,cocktailshrimp,838.7000000476837,840,839.2999999523163,True,u,86013.60000014305,1349.5,1669829434597,1350,HRV,HRV_0044,2022-11-30 17:33:16
63,"[{'imgObject': {}, 'id': 'Tribe humus pita', 'src': '/static/foodstim60/Tribe humus pita.jpg', 'key': 'u', 'origWidth': 411, 'origHeight': 411, 'width': 411, 'height': 411, 'widthPercent': 0.45, 'rescaleHeight': False, 'trialN': 63, 'loaded': True, 'loadedTime': 2177.100000143051, 'positionName': 'LEFT', 'positionCoords': [326.28, 226.5], 'bid': 0.02}, {'imgObject': {}, 'id': 'rigatoni', 'src': '/static/foodstim60/rigatoni.jpg', 'key': 'i', 'origWidth': 411, 'origHeight': 411, 'width': 411, 'height': 411, 'widthPercent': 0.45, 'rescaleHeight': False, 'trialN': 63, 'loaded': True, 'loadedTime': 2123, 'positionName': 'RIGHT', 'positionCoords': [798.72, 226.5], 'bid': 0.26}]",86013.90000009537,1669829434597,Tribe humus pita,rigatoni,0.02,0.26,0.24000000000000002,Tribe humus pita,1091.7000000476837,1092,1092.2000000476837,True,u,87613.80000019073,1599.9000000953674,1669829436197,1600,HRV,HRV_0044,2022-11-30 17:33:16
64,"[{'imgObject': {}, 'id': 'steak', 'src': '/static/foodstim60/steak.jpg', 'key': 'u', 'origWidth': 410, 'origHeight': 410, 'width': 410, 'height': 410, 'widthPercent': 0.45, 'rescaleHeight': False, 'trialN': 64, 'loaded': True, 'loadedTime': 2169.2000000476837, 'positionName': 'LEFT', 'positionCoords': [327.28, 227], 'bid': 10}, {'imgObject': {}, 'id': 'chickenfingers', 'src': '/static/foodstim60/chickenfingers.jpg', 'key': 'i', 'origWidth': 410, 'origHeight': 410, 'width': 410, 'height': 410, 'widthPercent': 0.45, 'rescaleHeight': False, 'trialN': 64, 'loaded': True, 'loadedTime': 2147.9000000953674, 'positionName': 'RIGHT', 'positionCoords': [798.72, 227], 'bid': 9.85}]",87614.0,1669829436197,steak,chickenfingers,10.0,9.85,-0.15000000000000036,steak,699.6000001430511,700,700.0,True,u,88829.90000009537,1215.9000000953674,1669829437413,1216,HRV,HRV_0044,2022-11-30 17:33:16
65,"[{'imgObject': {}, 'id': 'edamame', 'src': '/static/foodstim60/edamame.jpg', 'key': 'u', 'origWidth': 409, 'origHeight': 410, 'width': 409, 'height': 410, 'widthPercent': 0.45, 'rescaleHeight': False, 'trialN': 65, 'loaded': True, 'loadedTime': 2149.800000190735, 'positionName': 'LEFT', 'positionCoords': [328.28, 227], 'bid': 7.57}, {'imgObject': {}, 'id': 'omelette', 'src': '/static/foodstim60/omelette.jpg', 'key': 'i', 'origWidth': 410, 'origHeight': 409, 'width': 410, 'height': 409, 'widthPercent': 0.45, 'rescaleHeight': False, 'trialN': 65, 'loaded': True, 'loadedTime': 2167.300000190735, 'positionName': 'RIGHT', 'positionCoords': [798.72, 227.5], 'bid': 9.75}]",88830.10000014305,1669829437413,edamame,omelette,7.57,9.75,2.1799999999999997,omelette,851.2999999523163,852,851.5999999046326,True,i,90194.40000009537,1364.2999999523163,1669829438778,1365,HRV,HRV_0044,2022-11-30 17:33:16
66,"[{'imgObject': {}, 'id': 'bagel plain', 'src': '/static/foodstim60/bagel plain.jpg', 'key': 'u', 'origWidth': 410, 'origHeight': 410, 'width': 410, 'height': 410, 'widthPercent': 0.45, 'rescaleHeight': False, 'trialN': 66, 'loaded': True, 'loadedTime': 2178.4000000953674, 'positionName': 'LEFT', 'positionCoords': [327.28, 227], 'bid': 0.06}, {'imgObject': {}, 'id': 'seaweed', 'src': '/static/foodstim60/seaweed.jpg', 'key': 'i', 'origWidth': 410, 'origHeight': 410, 'width': 410, 'height': 410, 'widthPercent': 0.45, 'rescaleHeight': False, 'trialN': 66, 'loaded': True, 'loadedTime': 2107.5, 'positionName': 'RIGHT', 'positionCoords': [798.72, 227], 'bid': 0.02}]",90194.5,1669829438778,bagel plain,seaweed,0.06,0.02,-0.039999999999999994,bagel plain,995.9000000953674,996,996.1000001430511,True,u,91702.0,1507.5,1669829440285,1507,HRV,HRV_0044,2022-11-30 17:33:16
67,"[{'imgObject': {}, 'id': 'hotdog w must', 'src': '/static/foodstim60/hotdog w must.jpg', 'key': 'u', 'origWidth': 409, 'origHeight': 409, 'width': 409, 'height': 409, 'widthPercent': 0.45, 'rescaleHeight': False, 'trialN': 67, 'loaded': True, 'loadedTime': 2100.300000190735, 'positionName': 'LEFT', 'positionCoords': [328.28, 227.5], 'bid': 0.14}, {'imgObject': {}, 'id': 'fried eggs', 'src': '/static/foodstim60/fried eggs.jpg', 'key': 'i', 'origWidth': 410, 'origHeight': 410, 'width': 410, 'height': 410, 'widthPercent': 0.45, 'rescaleHeight': False, 'trialN': 67, 'loaded': True, 'loadedTime': 2013.9000000953674, 'positionName': 'RIGHT', 'positionCoords': [798.72, 227], 'bid': 4.98}]",91702.30000019073,1669829440285,hotdog w must,fried eggs,0.14,4.98,4.840000000000001,hotdog w must,861.3999998569489,862,861.7999999523163,True,u,93074.40000009537,1372.0999999046326,1669829441658,1373,HRV,HRV_0044,2022-11-30 17:33:16
68,"[{'imgObject': {}, 'id': 'salad w chicken', 'src': '/static/foodstim60/salad w chicken.jpg', 'key': 'u', 'origWidth': 411, 'origHeight': 411, 'width': 411, 'height': 411, 'widthPercent': 0.45, 'rescaleHeight': False, 'trialN': 68, 'loaded': True, 'loadedTime': 2055.9000000953674, 'positionName': 'LEFT', 'positionCoords': [326.28, 226.5], 'bid': 9.86}, {'imgObject': {}, 'id': 'sweetpotato', 'src': '/static/foodstim60/sweetpotato.jpg', 'key': 'i', 'origWidth': 410, 'origHeight': 410, 'width': 410, 'height': 410, 'widthPercent': 0.45, 'rescaleHeight': False, 'trialN': 68, 'loaded': True, 'loadedTime': 1952.2000000476837, 'positionName': 'RIGHT', 'positionCoords': [798.72, 227], 'bid': 5.07}]",93074.5,1669829441658,salad w chicken,sweetpotato,9.86,5.07,-4.789999999999999,salad w chicken,656.4000000953674,656,656.6000001430511,True,u,94245.40000009537,1170.9000000953674,1669829442829,1171,HRV,HRV_0044,2022-11-30 17:33:16
69,"[{'imgObject': {}, 'id': 'cherry tomato', 'src': '/static/foodstim60/cherry tomato.jpg', 'key': 'u', 'origWidth': 410, 'origHeight': 410, 'width': 410, 'height': 410, 'widthPercent': 0.45, 'rescaleHeight': False, 'trialN': 69, 'loaded': True, 'loadedTime': 2146.100000143051, 'positionName': 'LEFT', 'positionCoords': [327.28, 227], 'bid': 4.94}, {'imgObject': {}, 'id': 'turkey sandwich', 'src': '/static/foodstim60/turkey sandwich.jpg', 'key': 'i', 'origWidth': 409, 'origHeight': 409, 'width': 409, 'height': 409, 'widthPercent': 0.45, 'rescaleHeight': False, 'trialN': 69, 'loaded': True, 'loadedTime': 2112.800000190735, 'positionName': 'RIGHT', 'positionCoords': [798.72, 227.5], 'bid': 8.34}]",94245.70000004768,1669829442829,cherry tomato,turkey sandwich,4.94,8.34,3.3999999999999995,turkey sandwich,625.0,625,625.4000000953674,True,i,95378.30000019073,1132.6000001430511,1669829443962,1133,HRV,HRV_0044,2022-11-30 17:33:16
70,"[{'imgObject': {}, 'id': 'steak', 'src': '/static/foodstim60/steak.jpg', 'key': 'u', 'origWidth': 410, 'origHeight': 410, 'width': 410, 'height': 410, 'widthPercent': 0.45, 'rescaleHeight': False, 'trialN': 70, 'loaded': True, 'loadedTime': 2169.5, 'positionName': 'LEFT', 'positionCoords': [327.28, 227], 'bid': 10}, {'imgObject': {}, 'id': 'strawberries', 'src': '/static/foodstim60/strawberries.jpg', 'key': 'i', 'origWidth': 410, 'origHeight': 410, 'width': 410, 'height': 410, 'widthPercent': 0.45, 'rescaleHeight': False, 'trialN': 70, 'loaded': True, 'loadedTime': 2071.2000000476837, 'positionName': 'RIGHT', 'positionCoords': [798.72, 227], 'bid': 10}]",95378.5,1669829443962,steak,strawberries,10.0,10.0,0.0,strawberries,812.7000000476837,813,813.0,True,i,96709.5,1331.0,1669829445293,1331,HRV,HRV_0044,2022-11-30 17:33:16
71,"[{'imgObject': {}, 'id': 'cheerios', 'src': '/static/foodstim60/cheerios.jpg', 'key': 'u', 'origWidth': 409, 'origHeight': 410, 'width': 409, 'height': 410, 'widthPercent': 0.45, 'rescaleHeight': False, 'trialN': 71, 'loaded': True, 'loadedTime': 2046.9000000953674, 'positionName': 'LEFT', 'positionCoords': [328.28, 227], 'bid': 0.11}, {'imgObject': {}, 'id': 'hotdog w must', 'src': '/static/foodstim60/hotdog w must.jpg', 'key': 'i', 'origWidth': 409, 'origHeight': 409, 'width': 409, 'height': 409, 'widthPercent': 0.45, 'rescaleHeight': False, 'trialN': 71, 'loaded': True, 'loadedTime': 2106, 'positionName': 'RIGHT', 'positionCoords': [798.72, 227.5], 'bid': 0.14}]",96709.70000004768,1669829445293,cheerios,hotdog w must,0.11,0.14,0.030000000000000013,hotdog w must,920.5,921,920.7999999523163,True,i,98146.10000014305,1436.4000000953674,1669829446729,1436,HRV,HRV_0044,2022-11-30 17:33:16
72,"[{'imgObject': {}, 'id': 'corn cob', 'src': '/static/foodstim60/corn cob.jpg', 'key': 'u', 'origWidth': 411, 'origHeight': 411, 'width': 411, 'height': 411, 'widthPercent': 0.45, 'rescaleHeight': False, 'trialN': 72, 'loaded': True, 'loadedTime': 2093, 'positionName': 'LEFT', 'positionCoords': [326.28, 226.5], 'bid': 9.84}, {'imgObject': {}, 'id': 'chickenfingers', 'src': '/static/foodstim60/chickenfingers.jpg', 'key': 'i', 'origWidth': 410, 'origHeight': 410, 'width': 410, 'height': 410, 'widthPercent': 0.45, 'rescaleHeight': False, 'trialN': 72, 'loaded': True, 'loadedTime': 2147.100000143051, 'positionName': 'RIGHT', 'positionCoords': [798.72, 227], 'bid': 9.85}]",98146.40000009537,1669829446730,corn cob,chickenfingers,9.84,9.85,0.009999999999999787,corn cob,649.5,649,649.7999999523163,True,u,99311.10000014305,1164.7000000476837,1669829447894,1164,HRV,HRV_0044,2022-11-30 17:33:16
73,"[{'imgObject': {}, 'id': 'cherries', 'src': '/static/foodstim60/cherries.jpg', 'key': 'u', 'origWidth': 410, 'origHeight': 411, 'width': 410, 'height': 411, 'widthPercent': 0.45, 'rescaleHeight': False, 'trialN': 73, 'loaded': True, 'loadedTime': 2052.300000190735, 'positionName': 'LEFT', 'positionCoords': [327.28, 226.5], 'bid': 9.79}, {'imgObject': {}, 'id': 'steak', 'src': '/static/foodstim60/steak.jpg', 'key': 'i', 'origWidth': 410, 'origHeight': 410, 'width': 410, 'height': 410, 'widthPercent': 0.45, 'rescaleHeight': False, 'trialN': 73, 'loaded': True, 'loadedTime': 2169.4000000953674, 'positionName': 'RIGHT', 'positionCoords': [798.72, 227], 'bid': 10}]",99311.60000014305,1669829447895,cherries,steak,9.79,10.0,0.21000000000000085,cherries,1042.5,1043,1042.7000000476837,True,u,100860.70000004768,1549.0999999046326,1669829449444,1549,HRV,HRV_0044,2022-11-30 17:33:16
74,"[{'imgObject': {}, 'id': 'fried eggs', 'src': '/static/foodstim60/fried eggs.jpg', 'key': 'u', 'origWidth': 410, 'origHeight': 410, 'width': 410, 'height': 410, 'widthPercent': 0.45, 'rescaleHeight': False, 'trialN': 74, 'loaded': True, 'loadedTime': 2013.6000001430511, 'positionName': 'LEFT', 'positionCoords': [327.28, 227], 'bid': 4.98}, {'imgObject': {}, 'id': 'grilled chicken strips', 'src': '/static/foodstim60/grilled chicken strips.jpg', 'key': 'i', 'origWidth': 410, 'origHeight': 411, 'width': 410, 'height': 411, 'widthPercent': 0.45, 'rescaleHeight': False, 'trialN': 74, 'loaded': True, 'loadedTime': 2179.800000190735, 'positionName': 'RIGHT', 'positionCoords': [798.72, 226.5], 'bid': 9.77}]",100860.90000009537,1669829449444,fried eggs,grilled chicken strips,4.98,9.77,4.789999999999999,fried eggs,909.5,910,909.7000000476837,True,u,102282.5,1421.5999999046326,1669829450866,1422,HRV,HRV_0044,2022-11-30 17:33:16
75,"[{'imgObject': {}, 'id': 'apple slices', 'src': '/static/foodstim60/apple slices.jpg', 'key': 'u', 'origWidth': 409, 'origHeight': 410, 'width': 409, 'height': 410, 'widthPercent': 0.45, 'rescaleHeight': False, 'trialN': 75, 'loaded': True, 'loadedTime': 2156.100000143051, 'positionName': 'LEFT', 'positionCoords': [328.28, 227], 'bid': 9.86}, {'imgObject': {}, 'id': 'strawberries', 'src': '/static/foodstim60/strawberries.jpg', 'key': 'i', 'origWidth': 410, 'origHeight': 410, 'width': 410, 'height': 410, 'widthPercent': 0.45, 'rescaleHeight': False, 'trialN': 75, 'loaded': True, 'loadedTime': 2077.4000000953674, 'positionName': 'RIGHT', 'positionCoords': [798.72, 227], 'bid': 10}]",102282.60000014305,1669829450866,apple slices,strawberries,9.86,10.0,0.14000000000000057,apple slices,823.8999998569489,824,824.2000000476837,True,u,103610.20000004768,1327.5999999046326,1669829452193,1327,HRV,HRV_0044,2022-11-30 17:33:16
76,"[{'imgObject': {}, 'id': 'popsicles', 'src': '/static/foodstim60/popsicles.jpg', 'key': 'u', 'origWidth': 410, 'origHeight': 410, 'width': 410, 'height': 410, 'widthPercent': 0.45, 'rescaleHeight': False, 'trialN': 76, 'loaded': True, 'loadedTime': 2183, 'positionName': 'LEFT', 'positionCoords': [327.28, 227], 'bid': 0}, {'imgObject': {}, 'id': 'hashbrowns', 'src': '/static/foodstim60/hashbrowns.jpg', 'key': 'i', 'origWidth': 411, 'origHeight': 410, 'width': 411, 'height': 410, 'widthPercent': 0.45, 'rescaleHeight': False, 'trialN': 76, 'loaded': True, 'loadedTime': 2164.300000190735, 'positionName': 'RIGHT', 'positionCoords': [798.72, 227], 'bid': 0.03}]",103610.40000009537,1669829452194,popsicles,hashbrowns,0.0,0.03,0.03,popsicles,1240.7000000476837,1241,1241.0,True,u,105362.30000019073,1751.9000000953674,1669829453946,1752,HRV,HRV_0044,2022-11-30 17:33:16
77,"[{'imgObject': {}, 'id': 'mashed potato', 'src': '/static/foodstim60/mashed potato.jpg', 'key': 'u', 'origWidth': 409, 'origHeight': 409, 'width': 409, 'height': 409, 'widthPercent': 0.45, 'rescaleHeight': False, 'trialN': 77, 'loaded': True, 'loadedTime': 1980.7000000476837, 'positionName': 'LEFT', 'positionCoords': [328.28, 227.5], 'bid': 0.19}, {'imgObject': {}, 'id': 'chickenfingers', 'src': '/static/foodstim60/chickenfingers.jpg', 'key': 'i', 'origWidth': 410, 'origHeight': 410, 'width': 410, 'height': 410, 'widthPercent': 0.45, 'rescaleHeight': False, 'trialN': 77, 'loaded': True, 'loadedTime': 2147.9000000953674, 'positionName': 'RIGHT', 'positionCoords': [798.72, 227], 'bid': 9.85}]",105362.5,1669829453946,mashed potato,chickenfingers,0.19,9.85,9.66,chickenfingers,636.0,636,636.3000001907349,True,i,106518.60000014305,1156.1000001430511,1669829455102,1156,HRV,HRV_0044,2022-11-30 17:33:16
78,"[{'imgObject': {}, 'id': 'burger', 'src': '/static/foodstim60/burger.jpg', 'key': 'u', 'origWidth': 409, 'origHeight': 409, 'width': 409, 'height': 409, 'widthPercent': 0.45, 'rescaleHeight': False, 'trialN': 78, 'loaded': True, 'loadedTime': 1953.3000001907349, 'positionName': 'LEFT', 'positionCoords': [328.28, 227.5], 'bid': 7.3}, {'imgObject': {}, 'id': 'avocado', 'src': '/static/foodstim60/avocado.jpg', 'key': 'i', 'origWidth': 409, 'origHeight': 409, 'width': 409, 'height': 409, 'widthPercent': 0.45, 'rescaleHeight': False, 'trialN': 78, 'loaded': True, 'loadedTime': 2168.4000000953674, 'positionName': 'RIGHT', 'positionCoords': [798.72, 227.5], 'bid': 4.94}]",106519.0,1669829455102,burger,avocado,7.3,4.94,-2.3599999999999994,burger,642.7000000476837,643,642.9000000953674,True,u,107677.90000009537,1158.9000000953674,1669829456261,1159,HRV,HRV_0044,2022-11-30 17:33:16
79,"[{'imgObject': {}, 'id': 'olives', 'src': '/static/foodstim60/olives.jpg', 'key': 'u', 'origWidth': 410, 'origHeight': 410, 'width': 410, 'height': 410, 'widthPercent': 0.45, 'rescaleHeight': False, 'trialN': 79, 'loaded': True, 'loadedTime': 2100.2000000476837, 'positionName': 'LEFT', 'positionCoords': [327.28, 227], 'bid': 0.23}, {'imgObject': {}, 'id': 'seaweed', 'src': '/static/foodstim60/seaweed.jpg', 'key': 'i', 'origWidth': 410, 'origHeight': 410, 'width': 410, 'height': 410, 'widthPercent': 0.45, 'rescaleHeight': False, 'trialN': 79, 'loaded': True, 'loadedTime': 2107.600000143051, 'positionName': 'RIGHT', 'positionCoords': [798.72, 227], 'bid': 0.02}]",107678.20000004768,1669829456261,olives,seaweed,0.23,0.02,-0.21000000000000002,olives,740.1000001430511,745,744.4000000953674,True,u,108944.40000009537,1266.2000000476837,1669829457528,1267,HRV,HRV_0044,2022-11-30 17:33:16
80,"[{'imgObject': {}, 'id': 'granola w milk', 'src': '/static/foodstim60/granola w milk.jpg', 'key': 'u', 'origWidth': 410, 'origHeight': 410, 'width': 410, 'height': 410, 'widthPercent': 0.45, 'rescaleHeight': False, 'trialN': 80, 'loaded': True, 'loadedTime': 2085.9000000953674, 'positionName': 'LEFT', 'positionCoords': [327.28, 227], 'bid': 0}, {'imgObject': {}, 'id': 'cheerios', 'src': '/static/foodstim60/cheerios.jpg', 'key': 'i', 'origWidth': 409, 'origHeight': 410, 'width': 409, 'height': 410, 'widthPercent': 0.45, 'rescaleHeight': False, 'trialN': 80, 'loaded': True, 'loadedTime': 2046.2000000476837, 'positionName': 'RIGHT', 'positionCoords': [798.72, 227], 'bid': 0.11}]",108944.60000014305,1669829457528,granola w milk,cheerios,0.0,0.11,0.11,granola w milk,1284.0,1284,1284.2000000476837,True,u,110743.30000019073,1798.7000000476837,1669829459327,1799,HRV,HRV_0044,2022-11-30 17:33:16
81,"[{'imgObject': {}, 'id': 'mango', 'src': '/static/foodstim60/mango.jpg', 'key': 'u', 'origWidth': 411, 'origHeight': 411, 'width': 411, 'height': 411, 'widthPercent': 0.45, 'rescaleHeight': False, 'trialN': 81, 'loaded': True, 'loadedTime': 2045.9000000953674, 'positionName': 'LEFT', 'positionCoords': [326.28, 226.5], 'bid': 10}, {'imgObject': {}, 'id': 'blueberries', 'src': '/static/foodstim60/blueberries.jpg', 'key': 'i', 'origWidth': 411, 'origHeight': 411, 'width': 411, 'height': 411, 'widthPercent': 0.45, 'rescaleHeight': False, 'trialN': 81, 'loaded': True, 'loadedTime': 2164.4000000953674, 'positionName': 'RIGHT', 'positionCoords': [798.72, 226.5], 'bid': 9.86}]",110743.5,1669829459327,mango,blueberries,10.0,9.86,-0.14000000000000057,mango,776.5,780,780.0,True,u,112027.90000009537,1284.4000000953674,1669829460611,1284,HRV,HRV_0044,2022-11-30 17:33:16
82,"[{'imgObject': {}, 'id': 'hotdog w must', 'src': '/static/foodstim60/hotdog w must.jpg', 'key': 'u', 'origWidth': 409, 'origHeight': 409, 'width': 409, 'height': 409, 'widthPercent': 0.45, 'rescaleHeight': False, 'trialN': 82, 'loaded': True, 'loadedTime': 2106.4000000953674, 'positionName': 'LEFT', 'positionCoords': [328.28, 227.5], 'bid': 0.14}, {'imgObject': {}, 'id': 'corn cob', 'src': '/static/foodstim60/corn cob.jpg', 'key': 'i', 'origWidth': 411, 'origHeight': 411, 'width': 411, 'height': 411, 'widthPercent': 0.45, 'rescaleHeight': False, 'trialN': 82, 'loaded': True, 'loadedTime': 2092.800000190735, 'positionName': 'RIGHT', 'positionCoords': [798.72, 226.5], 'bid': 9.84}]",112028.20000004768,1669829460611,hotdog w must,corn cob,0.14,9.84,9.7,corn cob,760.2000000476837,761,760.4000000953674,True,i,113296.90000009537,1268.7000000476837,1669829461880,1269,HRV,HRV_0044,2022-11-30 17:33:16
83,"[{'imgObject': {}, 'id': 'sweetpotato', 'src': '/static/foodstim60/sweetpotato.jpg', 'key': 'u', 'origWidth': 410, 'origHeight': 410, 'width': 410, 'height': 410, 'widthPercent': 0.45, 'rescaleHeight': False, 'trialN': 83, 'loaded': True, 'loadedTime': 1947, 'positionName': 'LEFT', 'positionCoords': [327.28, 227], 'bid': 5.07}, {'imgObject': {}, 'id': 'granola w milk', 'src': '/static/foodstim60/granola w milk.jpg', 'key': 'i', 'origWidth': 410, 'origHeight': 410, 'width': 410, 'height': 410, 'widthPercent': 0.45, 'rescaleHeight': False, 'trialN': 83, 'loaded': True, 'loadedTime': 2085.7000000476837, 'positionName': 'RIGHT', 'positionCoords': [798.72, 227], 'bid': 0}]",113297.20000004768,1669829461880,sweetpotato,granola w milk,5.07,0.0,-5.07,sweetpotato,864.2999999523163,865,864.6000001430511,True,u,114677.60000014305,1380.4000000953674,1669829463261,1381,HRV,HRV_0044,2022-11-30 17:33:16
84,"[{'imgObject': {}, 'id': 'bagel and cc', 'src': '/static/foodstim60/bagel and cc.jpg', 'key': 'u', 'origWidth': 410, 'origHeight': 410, 'width': 410, 'height': 410, 'widthPercent': 0.45, 'rescaleHeight': False, 'trialN': 84, 'loaded': True, 'loadedTime': 2070.9000000953674, 'positionName': 'LEFT', 'positionCoords': [327.28, 227], 'bid': 0.11}, {'imgObject': {}, 'id': 'baked potato', 'src': '/static/foodstim60/baked potato.jpg', 'key': 'i', 'origWidth': 409, 'origHeight': 410, 'width': 409, 'height': 410, 'widthPercent': 0.45, 'rescaleHeight': False, 'trialN': 84, 'loaded': True, 'loadedTime': 2114.7000000476837, 'positionName': 'RIGHT', 'positionCoords': [798.72, 227], 'bid': 4.17}]",114678.0,1669829463261,bagel and cc,baked potato,0.11,4.17,4.06,bagel and cc,1408.8000001907349,1409,1409.0,True,u,116597.30000019073,1919.3000001907349,1669829465181,1920,HRV,HRV_0044,2022-11-30 17:33:16
85,"[{'imgObject': {}, 'id': 'ice cream sundae 002', 'src': '/static/foodstim60/ice cream sundae 002.jpg', 'key': 'u', 'origWidth': 409, 'origHeight': 409, 'width': 409, 'height': 409, 'widthPercent': 0.45, 'rescaleHeight': False, 'trialN': 85, 'loaded': True, 'loadedTime': 2176.100000143051, 'positionName': 'LEFT', 'positionCoords': [328.28, 227.5], 'bid': 0.54}, {'imgObject': {}, 'id': 'pear', 'src': '/static/foodstim60/pear.jpg', 'key': 'i', 'origWidth': 411, 'origHeight': 410, 'width': 411, 'height': 410, 'widthPercent': 0.45, 'rescaleHeight': False, 'trialN': 85, 'loaded': True, 'loadedTime': 1965.3000001907349, 'positionName': 'RIGHT', 'positionCoords': [798.72, 227], 'bid': 9.97}]",116597.40000009537,1669829465181,ice cream sundae 002,pear,0.54,9.97,9.43,pear,743.0999999046326,743,743.5,True,i,117860.5,1263.0999999046326,1669829466444,1263,HRV,HRV_0044,2022-11-30 17:33:16
86,"[{'imgObject': {}, 'id': 'grilled chicken strips', 'src': '/static/foodstim60/grilled chicken strips.jpg', 'key': 'u', 'origWidth': 410, 'origHeight': 411, 'width': 410, 'height': 411, 'widthPercent': 0.45, 'rescaleHeight': False, 'trialN': 86, 'loaded': True, 'loadedTime': 2179.5, 'positionName': 'LEFT', 'positionCoords': [327.28, 226.5], 'bid': 9.77}, {'imgObject': {}, 'id': 'luckycharms', 'src': '/static/foodstim60/luckycharms.jpg', 'key': 'i', 'origWidth': 410, 'origHeight': 409, 'width': 410, 'height': 409, 'widthPercent': 0.45, 'rescaleHeight': False, 'trialN': 86, 'loaded': True, 'loadedTime': 2181.5, 'positionName': 'RIGHT', 'positionCoords': [798.72, 227.5], 'bid': 0.05}]",117860.90000009537,1669829466444,grilled chicken strips,luckycharms,9.77,0.05,-9.719999999999999,grilled chicken strips,674.7999999523163,675,675.0,True,u,119043.90000009537,1183.0,1669829467627,1183,HRV,HRV_0044,2022-11-30 17:33:16
87,"[{'imgObject': {}, 'id': 'salad w chicken', 'src': '/static/foodstim60/salad w chicken.jpg', 'key': 'u', 'origWidth': 411, 'origHeight': 411, 'width': 411, 'height': 411, 'widthPercent': 0.45, 'rescaleHeight': False, 'trialN': 87, 'loaded': True, 'loadedTime': 2056, 'positionName': 'LEFT', 'positionCoords': [326.28, 226.5], 'bid': 9.86}, {'imgObject': {}, 'id': 'rigatoni and sauce', 'src': '/static/foodstim60/rigatoni and sauce.jpg', 'key': 'i', 'origWidth': 410, 'origHeight': 411, 'width': 410, 'height': 411, 'widthPercent': 0.45, 'rescaleHeight': False, 'trialN': 87, 'loaded': True, 'loadedTime': 2084.5, 'positionName': 'RIGHT', 'positionCoords': [798.72, 226.5], 'bid': 0.2}]",119044.0,1669829467627,salad w chicken,rigatoni and sauce,9.86,0.2,-9.66,salad w chicken,646.9000000953674,647,647.1000001430511,True,u,120195.0,1151.0,1669829468778,1151,HRV,HRV_0044,2022-11-30 17:33:16
88,"[{'imgObject': {}, 'id': 'kiwi', 'src': '/static/foodstim60/kiwi.jpg', 'key': 'u', 'origWidth': 410, 'origHeight': 410, 'width': 410, 'height': 410, 'widthPercent': 0.45, 'rescaleHeight': False, 'trialN': 88, 'loaded': True, 'loadedTime': 2000.4000000953674, 'positionName': 'LEFT', 'positionCoords': [327.28, 227], 'bid': 9.88}, {'imgObject': {}, 'id': 'apple slices', 'src': '/static/foodstim60/apple slices.jpg', 'key': 'i', 'origWidth': 409, 'origHeight': 410, 'width': 409, 'height': 410, 'widthPercent': 0.45, 'rescaleHeight': False, 'trialN': 88, 'loaded': True, 'loadedTime': 2156.100000143051, 'positionName': 'RIGHT', 'positionCoords': [798.72, 227], 'bid': 9.86}]",120195.10000014305,1669829468778,kiwi,apple slices,9.88,9.86,-0.02000000000000135,kiwi,714.8999998569489,715,715.0999999046326,True,u,121426.0,1230.8999998569489,1669829470009,1231,HRV,HRV_0044,2022-11-30 17:33:16
89,"[{'imgObject': {}, 'id': 'edamame', 'src': '/static/foodstim60/edamame.jpg', 'key': 'u', 'origWidth': 409, 'origHeight': 410, 'width': 409, 'height': 410, 'widthPercent': 0.45, 'rescaleHeight': False, 'trialN': 89, 'loaded': True, 'loadedTime': 2155.2000000476837, 'positionName': 'LEFT', 'positionCoords': [328.28, 227], 'bid': 7.57}, {'imgObject': {}, 'id': 'chicken nuggets2', 'src': '/static/foodstim60/chicken nuggets2.jpg', 'key': 'i', 'origWidth': 410, 'origHeight': 409, 'width': 410, 'height': 409, 'widthPercent': 0.45, 'rescaleHeight': False, 'trialN': 89, 'loaded': True, 'loadedTime': 2163.4000000953674, 'positionName': 'RIGHT', 'positionCoords': [798.72, 227.5], 'bid': 0.02}]",121426.10000014305,1669829470009,edamame,chicken nuggets2,7.57,0.02,-7.550000000000001,chicken nuggets2,740.0,741,740.2999999523163,True,i,122675.90000009537,1249.7999999523163,1669829471259,1250,HRV,HRV_0044,2022-11-30 17:33:16
90,"[{'imgObject': {}, 'id': 'raspberries', 'src': '/static/foodstim60/raspberries.jpg', 'key': 'u', 'origWidth': 411, 'origHeight': 411, 'width': 411, 'height': 411, 'widthPercent': 0.45, 'rescaleHeight': False, 'trialN': 90, 'loaded': True, 'loadedTime': 2032.7000000476837, 'positionName': 'LEFT', 'positionCoords': [326.28, 226.5], 'bid': 9.97}, {'imgObject': {}, 'id': 'Grapes', 'src': '/static/foodstim60/Grapes.jpg', 'key': 'i', 'origWidth': 411, 'origHeight': 411, 'width': 411, 'height': 411, 'widthPercent': 0.45, 'rescaleHeight': False, 'trialN': 90, 'loaded': True, 'loadedTime': 2122.5, 'positionName': 'RIGHT', 'positionCoords': [798.72, 226.5], 'bid': 9.97}]",128143.10000014305,1669829476726,raspberries,Grapes,9.97,9.97,0.0,raspberries,765.7000000476837,766,766.0999999046326,True,u,129424.40000009537,1281.2999999523163,1669829478008,1282,HRV,HRV_0044,2022-11-30 17:33:16
91,"[{'imgObject': {}, 'id': 'orange slices', 'src': '/static/foodstim60/orange slices.jpg', 'key': 'u', 'origWidth': 409, 'origHeight': 410, 'width': 409, 'height': 410, 'widthPercent': 0.45, 'rescaleHeight': False, 'trialN': 91, 'loaded': True, 'loadedTime': 2119.2000000476837, 'positionName': 'LEFT', 'positionCoords': [328.28, 227], 'bid': 9.84}, {'imgObject': {}, 'id': 'salad w chicken', 'src': '/static/foodstim60/salad w chicken.jpg', 'key': 'i', 'origWidth': 411, 'origHeight': 411, 'width': 411, 'height': 411, 'widthPercent': 0.45, 'rescaleHeight': False, 'trialN': 91, 'loaded': True, 'loadedTime': 2055.100000143051, 'positionName': 'RIGHT', 'positionCoords': [798.72, 226.5], 'bid': 9.86}]",129424.60000014305,1669829478008,orange slices,salad w chicken,9.84,9.86,0.019999999999999574,orange slices,603.3999998569489,603,603.5999999046326,True,u,130543.90000009537,1119.2999999523163,1669829479127,1119,HRV,HRV_0044,2022-11-30 17:33:16
92,"[{'imgObject': {}, 'id': 'burrito', 'src': '/static/foodstim60/burrito.jpg', 'key': 'u', 'origWidth': 410, 'origHeight': 410, 'width': 410, 'height': 410, 'widthPercent': 0.45, 'rescaleHeight': False, 'trialN': 92, 'loaded': True, 'loadedTime': 2174.2000000476837, 'positionName': 'LEFT', 'positionCoords': [327.28, 227], 'bid': 0}, {'imgObject': {}, 'id': 'raisin bran w milk', 'src': '/static/foodstim60/raisin bran w milk.jpg', 'key': 'i', 'origWidth': 411, 'origHeight': 411, 'width': 411, 'height': 411, 'widthPercent': 0.45, 'rescaleHeight': False, 'trialN': 92, 'loaded': True, 'loadedTime': 2130.300000190735, 'positionName': 'RIGHT', 'positionCoords': [798.72, 226.5], 'bid': 0.15}]",130544.10000014305,1669829479127,burrito,raisin bran w milk,0.0,0.15,0.15,raisin bran w milk,787.7000000476837,790,788.0,True,i,131841.30000019073,1297.2000000476837,1669829480427,1300,HRV,HRV_0044,2022-11-30 17:33:16
93,"[{'imgObject': {}, 'id': 'blueberries', 'src': '/static/foodstim60/blueberries.jpg', 'key': 'u', 'origWidth': 411, 'origHeight': 411, 'width': 411, 'height': 411, 'widthPercent': 0.45, 'rescaleHeight': False, 'trialN': 93, 'loaded': True, 'loadedTime': 2165, 'positionName': 'LEFT', 'positionCoords': [326.28, 226.5], 'bid': 9.86}, {'imgObject': {}, 'id': 'olives', 'src': '/static/foodstim60/olives.jpg', 'key': 'i', 'origWidth': 410, 'origHeight': 410, 'width': 410, 'height': 410, 'widthPercent': 0.45, 'rescaleHeight': False, 'trialN': 93, 'loaded': True, 'loadedTime': 2099.9000000953674, 'positionName': 'RIGHT', 'positionCoords': [798.72, 227], 'bid': 0.23}]",131841.40000009537,1669829480427,blueberries,olives,9.86,0.23,-9.629999999999999,blueberries,690.0,690,690.2999999523163,True,u,133045.60000014305,1204.2000000476837,1669829481631,1204,HRV,HRV_0044,2022-11-30 17:33:16
94,"[{'imgObject': {}, 'id': 'avocado', 'src': '/static/foodstim60/avocado.jpg', 'key': 'u', 'origWidth': 409, 'origHeight': 409, 'width': 409, 'height': 409, 'widthPercent': 0.45, 'rescaleHeight': False, 'trialN': 94, 'loaded': True, 'loadedTime': 2168.5, 'positionName': 'LEFT', 'positionCoords': [328.28, 227.5], 'bid': 4.94}, {'imgObject': {}, 'id': 'eggs', 'src': '/static/foodstim60/eggs.jpg', 'key': 'i', 'origWidth': 409, 'origHeight': 409, 'width': 409, 'height': 409, 'widthPercent': 0.45, 'rescaleHeight': False, 'trialN': 94, 'loaded': True, 'loadedTime': 2157.100000143051, 'positionName': 'RIGHT', 'positionCoords': [798.72, 227.5], 'bid': 5.03}]",133046.0,1669829481631,avocado,eggs,4.94,5.03,0.08999999999999986,eggs,710.6000001430511,713,712.6000001430511,True,i,134277.0,1231.0,1669829482862,1231,HRV,HRV_0044,2022-11-30 17:33:16
95,"[{'imgObject': {}, 'id': 'olives', 'src': '/static/foodstim60/olives.jpg', 'key': 'u', 'origWidth': 410, 'origHeight': 410, 'width': 410, 'height': 410, 'widthPercent': 0.45, 'rescaleHeight': False, 'trialN': 95, 'loaded': True, 'loadedTime': 2093.600000143051, 'positionName': 'LEFT', 'positionCoords': [327.28, 227], 'bid': 0.23}, {'imgObject': {}, 'id': 'luckycharms', 'src': '/static/foodstim60/luckycharms.jpg', 'key': 'i', 'origWidth': 410, 'origHeight': 409, 'width': 410, 'height': 409, 'widthPercent': 0.45, 'rescaleHeight': False, 'trialN': 95, 'loaded': True, 'loadedTime': 2181.7000000476837, 'positionName': 'RIGHT', 'positionCoords': [798.72, 227.5], 'bid': 0.05}]",134277.20000004768,1669829482862,olives,luckycharms,0.23,0.05,-0.18,luckycharms,655.2000000476837,656,655.6000001430511,True,i,135455.30000019073,1178.1000001430511,1669829484041,1179,HRV,HRV_0044,2022-11-30 17:33:16
96,"[{'imgObject': {}, 'id': 'veggieswithdip', 'src': '/static/foodstim60/veggieswithdip.jpg', 'key': 'u', 'origWidth': 409, 'origHeight': 409, 'width': 409, 'height': 409, 'widthPercent': 0.45, 'rescaleHeight': False, 'trialN': 96, 'loaded': True, 'loadedTime': 2146.9000000953674, 'positionName': 'LEFT', 'positionCoords': [328.28, 227.5], 'bid': 9.81}, {'imgObject': {}, 'id': 'cherries', 'src': '/static/foodstim60/cherries.jpg', 'key': 'i', 'origWidth': 410, 'origHeight': 411, 'width': 410, 'height': 411, 'widthPercent': 0.45, 'rescaleHeight': False, 'trialN': 96, 'loaded': True, 'loadedTime': 2051.300000190735, 'positionName': 'RIGHT', 'positionCoords': [798.72, 226.5], 'bid': 9.79}]",135455.5,1669829484041,veggieswithdip,cherries,9.81,9.79,-0.02000000000000135,cherries,794.1000001430511,794,794.5,True,i,136759.80000019073,1304.3000001907349,1669829485345,1304,HRV,HRV_0044,2022-11-30 17:33:16
97,"[{'imgObject': {}, 'id': 'cherries', 'src': '/static/foodstim60/cherries.jpg', 'key': 'u', 'origWidth': 410, 'origHeight': 411, 'width': 410, 'height': 411, 'widthPercent': 0.45, 'rescaleHeight': False, 'trialN': 97, 'loaded': True, 'loadedTime': 2054.5, 'positionName': 'LEFT', 'positionCoords': [327.28, 226.5], 'bid': 9.79}, {'imgObject': {}, 'id': 'turkeysandwich', 'src': '/static/foodstim60/turkeysandwich.jpg', 'key': 'i', 'origWidth': 409, 'origHeight': 409, 'width': 409, 'height': 409, 'widthPercent': 0.45, 'rescaleHeight': False, 'trialN': 97, 'loaded': True, 'loadedTime': 2026.4000000953674, 'positionName': 'RIGHT', 'positionCoords': [798.72, 227.5], 'bid': 9.77}]",136760.10000014305,1669829485345,cherries,turkeysandwich,9.79,9.77,-0.019999999999999574,cherries,679.7999999523163,681,680.2000000476837,True,u,137959.30000019073,1199.2000000476837,1669829486545,1200,HRV,HRV_0044,2022-11-30 17:33:16
98,"[{'imgObject': {}, 'id': 'sushi w_condiments', 'src': '/static/foodstim60/sushi w_condiments.jpg', 'key': 'u', 'origWidth': 410, 'origHeight': 410, 'width': 410, 'height': 410, 'widthPercent': 0.45, 'rescaleHeight': False, 'trialN': 98, 'loaded': True, 'loadedTime': 1992.9000000953674, 'positionName': 'LEFT', 'positionCoords': [327.28, 227], 'bid': 7.31}, {'imgObject': {}, 'id': 'Tribe humus pita', 'src': '/static/foodstim60/Tribe humus pita.jpg', 'key': 'i', 'origWidth': 411, 'origHeight': 411, 'width': 411, 'height': 411, 'widthPercent': 0.45, 'rescaleHeight': False, 'trialN': 98, 'loaded': True, 'loadedTime': 2177.300000190735, 'positionName': 'RIGHT', 'positionCoords': [798.72, 226.5], 'bid': 0.02}]",137959.5,1669829486545,sushi w_condiments,Tribe humus pita,7.31,0.02,-7.29,sushi w_condiments,748.8000001907349,749,749.2000000476837,True,u,139233.0,1273.5,1669829487818,1273,HRV,HRV_0044,2022-11-30 17:33:16
99,"[{'imgObject': {}, 'id': 'strawberries', 'src': '/static/foodstim60/strawberries.jpg', 'key': 'u', 'origWidth': 410, 'origHeight': 410, 'width': 410, 'height': 410, 'widthPercent': 0.45, 'rescaleHeight': False, 'trialN': 99, 'loaded': True, 'loadedTime': 2077.4000000953674, 'positionName': 'LEFT', 'positionCoords': [327.28, 227], 'bid': 10}, {'imgObject': {}, 'id': 'veggieswithdip', 'src': '/static/foodstim60/veggieswithdip.jpg', 'key': 'i', 'origWidth': 409, 'origHeight': 409, 'width': 409, 'height': 409, 'widthPercent': 0.45, 'rescaleHeight': False, 'trialN': 99, 'loaded': True, 'loadedTime': 2147, 'positionName': 'RIGHT', 'positionCoords': [798.72, 227.5], 'bid': 9.81}]",139233.20000004768,1669829487819,strawberries,veggieswithdip,10.0,9.81,-0.1899999999999995,strawberries,746.2000000476837,746,746.5,True,u,140491.40000009537,1258.2000000476837,1669829489077,1258,HRV,HRV_0044,2022-11-30 17:33:16
100,"[{'imgObject': {}, 'id': 'pear', 'src': '/static/foodstim60/pear.jpg', 'key': 'u', 'origWidth': 411, 'origHeight': 410, 'width': 411, 'height': 410, 'widthPercent': 0.45, 'rescaleHeight': False, 'trialN': 100, 'loaded': True, 'loadedTime': 1971.4000000953674, 'positionName': 'LEFT', 'positionCoords': [326.28, 227], 'bid': 9.97}, {'imgObject': {}, 'id': 'raspberries', 'src': '/static/foodstim60/raspberries.jpg', 'key': 'i', 'origWidth': 411, 'origHeight': 411, 'width': 411, 'height': 411, 'widthPercent': 0.45, 'rescaleHeight': False, 'trialN': 100, 'loaded': True, 'loadedTime': 2033, 'positionName': 'RIGHT', 'positionCoords': [798.72, 226.5], 'bid': 9.97}]",140491.5,1669829489077,pear,raspberries,9.97,9.97,0.0,pear,741.0,741,741.4000000953674,True,u,141741.40000009537,1249.9000000953674,1669829490327,1250,HRV,HRV_0044,2022-11-30 17:33:16
101,"[{'imgObject': {}, 'id': 'veggieswithdip', 'src': '/static/foodstim60/veggieswithdip.jpg', 'key': 'u', 'origWidth': 409, 'origHeight': 409, 'width': 409, 'height': 409, 'widthPercent': 0.45, 'rescaleHeight': False, 'trialN': 101, 'loaded': True, 'loadedTime': 2147, 'positionName': 'LEFT', 'positionCoords': [328.28, 227.5], 'bid': 9.81}, {'imgObject': {}, 'id': 'banana', 'src': '/static/foodstim60/banana.jpg', 'key': 'i', 'origWidth': 410, 'origHeight': 410, 'width': 410, 'height': 410, 'widthPercent': 0.45, 'rescaleHeight': False, 'trialN': 101, 'loaded': True, 'loadedTime': 2051, 'positionName': 'RIGHT', 'positionCoords': [798.72, 227], 'bid': 9.81}]",141741.60000014305,1669829490327,veggieswithdip,banana,9.81,9.81,0.0,banana,660.3999998569489,660,660.5999999046326,True,i,142910.10000014305,1168.5,1669829491495,1168,HRV,HRV_0044,2022-11-30 17:33:16
102,"[{'imgObject': {}, 'id': 'rigatoni and sauce', 'src': '/static/foodstim60/rigatoni and sauce.jpg', 'key': 'u', 'origWidth': 410, 'origHeight': 411, 'width': 410, 'height': 411, 'widthPercent': 0.45, 'rescaleHeight': False, 'trialN': 102, 'loaded': True, 'loadedTime': 2084.800000190735, 'positionName': 'LEFT', 'positionCoords': [327.28, 226.5], 'bid': 0.2}, {'imgObject': {}, 'id': 'ice cream sundae 002', 'src': '/static/foodstim60/ice cream sundae 002.jpg', 'key': 'i', 'origWidth': 409, 'origHeight': 409, 'width': 409, 'height': 409, 'widthPercent': 0.45, 'rescaleHeight': False, 'trialN': 102, 'loaded': True, 'loadedTime': 2176.4000000953674, 'positionName': 'RIGHT', 'positionCoords': [798.72, 227.5], 'bid': 0.54}]",142910.30000019073,1669829491496,rigatoni and sauce,ice cream sundae 002,0.2,0.54,0.34,ice cream sundae 002,653.5,653,653.6999998092651,True,i,144074.60000014305,1164.2999999523163,1669829492660,1164,HRV,HRV_0044,2022-11-30 17:33:16
103,"[{'imgObject': {}, 'id': 'strawberries', 'src': '/static/foodstim60/strawberries.jpg', 'key': 'u', 'origWidth': 410, 'origHeight': 410, 'width': 410, 'height': 410, 'widthPercent': 0.45, 'rescaleHeight': False, 'trialN': 103, 'loaded': True, 'loadedTime': 2076.9000000953674, 'positionName': 'LEFT', 'positionCoords': [327.28, 227], 'bid': 10}, {'imgObject': {}, 'id': 'avocado', 'src': '/static/foodstim60/avocado.jpg', 'key': 'i', 'origWidth': 409, 'origHeight': 409, 'width': 409, 'height': 409, 'widthPercent': 0.45, 'rescaleHeight': False, 'trialN': 103, 'loaded': True, 'loadedTime': 2168.5, 'positionName': 'RIGHT', 'positionCoords': [798.72, 227.5], 'bid': 4.94}]",144074.80000019073,1669829492660,strawberries,avocado,10.0,4.94,-5.06,strawberries,628.6999998092651,629,629.0,True,u,145215.90000009537,1141.0999999046326,1669829493801,1141,HRV,HRV_0044,2022-11-30 17:33:16
104,"[{'imgObject': {}, 'id': 'shreddedwheatwithmilk', 'src': '/static/foodstim60/shreddedwheatwithmilk.jpg', 'key': 'u', 'origWidth': 410, 'origHeight': 410, 'width': 410, 'height': 410, 'widthPercent': 0.45, 'rescaleHeight': False, 'trialN': 104, 'loaded': True, 'loadedTime': 2173.100000143051, 'positionName': 'LEFT', 'positionCoords': [327.28, 227], 'bid': 0.05}, {'imgObject': {}, 'id': 'granola w milk', 'src': '/static/foodstim60/granola w milk.jpg', 'key': 'i', 'origWidth': 410, 'origHeight': 410, 'width': 410, 'height': 410, 'widthPercent': 0.45, 'rescaleHeight': False, 'trialN': 104, 'loaded': True, 'loadedTime': 2085.600000143051, 'positionName': 'RIGHT', 'positionCoords': [798.72, 227], 'bid': 0}]",145216.0,1669829493801,shreddedwheatwithmilk,granola w milk,0.05,0.0,-0.05,granola w milk,711.9000000953674,712,712.2000000476837,True,i,146440.40000009537,1224.4000000953674,1669829495026,1225,HRV,HRV_0044,2022-11-30 17:33:16
105,"[{'imgObject': {}, 'id': 'steak', 'src': '/static/foodstim60/steak.jpg', 'key': 'u', 'origWidth': 410, 'origHeight': 410, 'width': 410, 'height': 410, 'widthPercent': 0.45, 'rescaleHeight': False, 'trialN': 105, 'loaded': True, 'loadedTime': 2169.4000000953674, 'positionName': 'LEFT', 'positionCoords': [327.28, 227], 'bid': 10}, {'imgObject': {}, 'id': 'fruitsalad', 'src': '/static/foodstim60/fruitsalad.jpg', 'key': 'i', 'origWidth': 410, 'origHeight': 410, 'width': 410, 'height': 410, 'widthPercent': 0.45, 'rescaleHeight': False, 'trialN': 105, 'loaded': True, 'loadedTime': 2039.4000000953674, 'positionName': 'RIGHT', 'positionCoords': [798.72, 227], 'bid': 10}]",146440.5,1669829495026,steak,fruitsalad,10.0,10.0,0.0,fruitsalad,772.2000000476837,772,772.4000000953674,True,i,147724.60000014305,1284.1000001430511,1669829496310,1284,HRV,HRV_0044,2022-11-30 17:33:16
106,"[{'imgObject': {}, 'id': 'cherry tomato', 'src': '/static/foodstim60/cherry tomato.jpg', 'key': 'u', 'origWidth': 410, 'origHeight': 410, 'width': 410, 'height': 410, 'widthPercent': 0.45, 'rescaleHeight': False, 'trialN': 106, 'loaded': True, 'loadedTime': 2141.100000143051, 'positionName': 'LEFT', 'positionCoords': [327.28, 227], 'bid': 4.94}, {'imgObject': {}, 'id': 'roastedpotatoes', 'src': '/static/foodstim60/roastedpotatoes.jpg', 'key': 'i', 'origWidth': 409, 'origHeight': 410, 'width': 409, 'height': 410, 'widthPercent': 0.45, 'rescaleHeight': False, 'trialN': 106, 'loaded': True, 'loadedTime': 2174.5, 'positionName': 'RIGHT', 'positionCoords': [798.72, 227], 'bid': 6.3100000000000005}]",147724.90000009537,1669829496310,cherry tomato,roastedpotatoes,4.94,6.3100000000000005,1.37,roastedpotatoes,671.0,671,671.2999999523163,True,i,148908.0,1183.0999999046326,1669829497493,1183,HRV,HRV_0044,2022-11-30 17:33:16
107,"[{'imgObject': {}, 'id': 'avocado', 'src': '/static/foodstim60/avocado.jpg', 'key': 'u', 'origWidth': 409, 'origHeight': 409, 'width': 409, 'height': 409, 'widthPercent': 0.45, 'rescaleHeight': False, 'trialN': 107, 'loaded': True, 'loadedTime': 2167.4000000953674, 'positionName': 'LEFT', 'positionCoords': [328.28, 227.5], 'bid': 4.94}, {'imgObject': {}, 'id': 'fried eggs', 'src': '/static/foodstim60/fried eggs.jpg', 'key': 'i', 'origWidth': 410, 'origHeight': 410, 'width': 410, 'height': 410, 'widthPercent': 0.45, 'rescaleHeight': False, 'trialN': 107, 'loaded': True, 'loadedTime': 2018.8000001907349, 'positionName': 'RIGHT', 'positionCoords': [798.72, 227], 'bid': 4.98}]",148908.10000014305,1669829497493,avocado,fried eggs,4.94,4.98,0.040000000000000036,avocado,708.7000000476837,709,709.0,True,u,150124.5,1216.3999998569489,1669829498710,1217,HRV,HRV_0044,2022-11-30 17:33:16
108,"[{'imgObject': {}, 'id': 'orange slices', 'src': '/static/foodstim60/orange slices.jpg', 'key': 'u', 'origWidth': 409, 'origHeight': 410, 'width': 409, 'height': 410, 'widthPercent': 0.45, 'rescaleHeight': False, 'trialN': 108, 'loaded': True, 'loadedTime': 2119.600000143051, 'positionName': 'LEFT', 'positionCoords': [328.28, 227], 'bid': 9.84}, {'imgObject': {}, 'id': 'grilled chicken strips', 'src': '/static/foodstim60/grilled chicken strips.jpg', 'key': 'i', 'origWidth': 410, 'origHeight': 411, 'width': 410, 'height': 411, 'widthPercent': 0.45, 'rescaleHeight': False, 'trialN': 108, 'loaded': True, 'loadedTime': 2179.9000000953674, 'positionName': 'RIGHT', 'positionCoords': [798.72, 226.5], 'bid': 9.77}]",150124.70000004768,1669829498710,orange slices,grilled chicken strips,9.84,9.77,-0.07000000000000028,orange slices,602.7000000476837,603,603.2000000476837,True,u,151241.0,1116.2999999523163,1669829499826,1116,HRV,HRV_0044,2022-11-30 17:33:16
109,"[{'imgObject': {}, 'id': 'grilled chicken strips', 'src': '/static/foodstim60/grilled chicken strips.jpg', 'key': 'u', 'origWidth': 410, 'origHeight': 411, 'width': 410, 'height': 411, 'widthPercent': 0.45, 'rescaleHeight': False, 'trialN': 109, 'loaded': True, 'loadedTime': 2178.600000143051, 'positionName': 'LEFT', 'positionCoords': [327.28, 226.5], 'bid': 9.77}, {'imgObject': {}, 'id': 'Grapes', 'src': '/static/foodstim60/Grapes.jpg', 'key': 'i', 'origWidth': 411, 'origHeight': 411, 'width': 411, 'height': 411, 'widthPercent': 0.45, 'rescaleHeight': False, 'trialN': 109, 'loaded': True, 'loadedTime': 2122.7000000476837, 'positionName': 'RIGHT', 'positionCoords': [798.72, 226.5], 'bid': 9.97}]",151241.20000004768,1669829499826,grilled chicken strips,Grapes,9.77,9.97,0.20000000000000107,grilled chicken strips,928.9000000953674,929,929.0,True,u,152674.90000009537,1433.7000000476837,1669829501260,1434,HRV,HRV_0044,2022-11-30 17:33:16
