success,trial_type,trial_index,time_elapsed,internal_node_id,Block,TrialNumber,TrialTime,trialTimeDiff,FPS_avg,FPS_med,FPS_mode,TrialDur,winResizeTime,rt,block,button_pressed,MotCoh,MotDir,ColCoh,Color,ChoiceKey,Choice,Accuracy,RT,nFrames,FPS,PPD,missTrial,missTrialMsg,onsetDelay,fullScreenExitTime,canvCenter,TrialType,Score,BlockTrial,stimulus,button_labels,exp,subjectId,date
True,fullscreen,0,2368,0.0-0.0,0.0,1.0,,,,,,,,,,,,,,,,,,,,,,,,,,,,,,,,HRV,HRV_0044,2022-11-30 17:58:49
,wl-check-fps,1,7387,0.0-1.0,0.0,2.0,"[2841.4, 2857.6, 2873.9, 2890.6, 2907, 2923.9, 2940.8, 2957.6, 2974.1, 2990.6, 3007.2, 3023.7, 3040.7, 3057.4, 3074, 3090.3, 3107.3, 3124.1, 3140.6, 3159.3, 3174.4, 3190.5, 3207.4, 3224, 3240.8, 3257.3, 3274.3, 3290.3, 3307.2, 3323.9, 3340.8, 3357.4, 3373.9, 3390.7, 3407.1, 3423.8, 3440.5, 3457.2, 3475, 3490.9, 3507.4, 3524, 3540.6, 3557.1, 3574.2, 3590.3, 3607.4, 3624.3, 3640.6, 3657, 3674, 3690.3, 3707, 3724.2, 3740.6, 3757.6, 3774.1, 3790.6, 3807.3, 3823.8, 3840.6, 3857.5, 3874.5, 3890.7, 3907.3, 3924.2, 3940.7, 3957.6, 3973.6, 3990.8, 4007.7, 4024, 4040.6, 4057.4, 4074.4, 4090.4, 4106.9, 4123.9, 4140.5, 4157.2, 4174.1, 4190.4, 4207, 4223.7, 4240.3, 4256.9, 4273.6, 4290.4, 4307, 4323.7, 4340.3, 4356.9, 4373.6, 4390.6, 4407.3, 4423.7, 4440.9, 4457.7, 4474.5, 4490.4, 4507.4, 4523.8, 4541, 4557.6, 4574.2, 4590.6, 4607, 4623.6, 4640.3, 4657.1, 4674.1, 4690.4, 4707.5, 4724.2, 4740.4, 4757.3, 4774.1, 4790.2, 4807.2, 4823.9, 4840.5, 4857.2, 4873.8, 4890.3, 4907.5, 4924.1, 4940.8, 4957.6, 4973.6, 4990.5, 5007, 5023.5, 5040.2, 5057.5, 5074.2, 5090.5, 5107.2, 5123.9, 5140.4, 5156.9, 5174.1, 5190.6, 5207.3, 5223.9, 5240.6, 5257.3, 5273.7, 5290.7, 5306.9, 5324.3, 5340.6, 5357.2, 5374, 5390.6, 5407.4, 5423.7, 5440.4, 5457.4, 5473.7, 5490.6, 5507.6, 5523.9, 5540.3, 5557, 5573.4, 5590.6, 5607.4, 5624, 5640.8, 5657.2, 5673.9, 5690.8, 5707.2, 5723.9, 5740.4, 5757, 5773.6, 5790.5, 5807, 5824, 5840.5, 5857.1, 5873.7, 5890.7, 5907.3, 5923.9, 5940.4, 5957.3, 5973.9, 5990.5, 6007, 6023.9, 6042.1, 6057.4, 6073.7, 6090.4, 6106.9, 6123.4, 6140.2, 6156.8, 6173.7, 6190.9, 6206.8, 6223.6, 6240.1, 6256.8, 6273.4, 6290.1, 6306.8, 6323.5, 6340, 6356.7, 6373.3, 6390.1, 6406.8, 6423.7, 6440.3, 6457.1, 6473.8, 6490.1, 6507.5, 6523.8, 6540.4, 6557.2, 6574, 6590.4, 6606.9, 6623.4, 6640, 6657.1, 6673.9, 6690.8, 6707.1, 6723.9, 6740.6, 6756.8, 6773.9, 6790.2, 6813.1, 6834.2, 6840.4, 6857, 6873.5, 6890, 6907.2, 6923.7, 6940.6, 6957.1, 6973.7, 6990.4, 7006.7, 7023.5, 7040.5, 7056.7, 7074, 7090.1, 7106.9, 7123.5, 7140, 7156.6, 7173.4, 7190, 7206.7, 7223.4, 7240, 7256.9, 7273.4, 7290, 7306.8, 7323.5, 7340.2, 7356.7, 7373.3, 7390.5, 7406.9, 7423.8, 7440.3, 7457.5, 7473.7, 7490.4, 7507.4, 7523.8, 7540.6, 7557.4, 7573.8, 7590.1, 7606.8, 7623.5, 7640.7, 7657.1, 7673.4, 7690.7, 7706.8, 7723.7, 7740, 7757.2, 7773.8, 7790.4, 7806.6, 7823.4]","[16.1, 16.2, 16.3, 16.7, 16.4, 16.9, 16.9, 16.8, 16.5, 16.5, 16.6, 16.5, 17, 16.7, 16.6, 16.3, 17, 16.8, 16.5, 18.7, 15.1, 16.1, 16.9, 16.6, 16.8, 16.5, 17, 16, 16.9, 16.7, 16.9, 16.6, 16.5, 16.8, 16.4, 16.7, 16.7, 16.7, 17.8, 15.9, 16.5, 16.6, 16.6, 16.5, 17.1, 16.1, 17.1, 16.9, 16.3, 16.4, 17, 16.3, 16.7, 17.2, 16.4, 17, 16.5, 16.5, 16.7, 16.5, 16.8, 16.9, 17, 16.2, 16.6, 16.9, 16.5, 16.9, 16, 17.2, 16.9, 16.3, 16.6, 16.8, 17, 16, 16.5, 17, 16.6, 16.7, 16.9, 16.3, 16.6, 16.7, 16.6, 16.6, 16.7, 16.8, 16.6, 16.7, 16.6, 16.6, 16.7, 17, 16.7, 16.4, 17.2, 16.8, 16.8, 15.9, 17, 16.4, 17.2, 16.6, 16.6, 16.4, 16.4, 16.6, 16.7, 16.8, 17, 16.3, 17.1, 16.7, 16.2, 16.9, 16.8, 16.1, 17, 16.7, 16.6, 16.7, 16.6, 16.5, 17.2, 16.6, 16.7, 16.8, 16, 16.9, 16.5, 16.5, 16.7, 17.3, 16.7, 16.3, 16.7, 16.7, 16.5, 16.5, 17.2, 16.5, 16.7, 16.6, 16.7, 16.7, 16.4, 17, 16.2, 17.4, 16.3, 16.6, 16.8, 16.6, 16.8, 16.3, 16.7, 17, 16.3, 16.9, 17, 16.3, 16.4, 16.7, 16.4, 17.2, 16.8, 16.6, 16.8, 16.4, 16.7, 16.9, 16.4, 16.7, 16.5, 16.6, 16.6, 16.9, 16.5, 17, 16.5, 16.6, 16.6, 17, 16.6, 16.6, 16.5, 16.9, 16.6, 16.6, 16.5, 16.9, 18.2, 15.3, 16.3, 16.7, 16.5, 16.5, 16.8, 16.6, 16.9, 17.2, 15.9, 16.8, 16.5, 16.7, 16.6, 16.7, 16.7, 16.7, 16.5, 16.7, 16.6, 16.8, 16.7, 16.9, 16.6, 16.8, 16.7, 16.3, 17.4, 16.3, 16.6, 16.8, 16.8, 16.4, 16.5, 16.5, 16.6, 17.1, 16.8, 16.9, 16.3, 16.8, 16.7, 16.2, 17.1, 16.3, 22.9, 21.1, 6.2, 16.6, 16.5, 16.5, 17.2, 16.5, 16.9, 16.5, 16.6, 16.7, 16.3, 16.8, 17, 16.2, 17.3, 16.1, 16.8, 16.6, 16.5, 16.6, 16.8, 16.6, 16.7, 16.7, 16.6, 16.9, 16.5, 16.6, 16.8, 16.7, 16.7, 16.5, 16.6, 17.2, 16.4, 16.9, 16.5, 17.2, 16.2, 16.7, 17, 16.4, 16.8, 16.8, 16.4, 16.3, 16.7, 16.7, 17.2, 16.4, 16.3, 17.3, 16.1, 16.9, 16.3, 17.2, 16.6, 16.6, 16.2, 16.8]",60.0,59.0,60.0,5014.7,[],,,,,,,,,,,,,,,,,,,,,,,,,HRV,HRV_0044,2022-11-30 17:58:49
,wl-html-keyboard-response,2,29880,0.0-2.0-0.0,0.0,3.0,,,,,,,,20487.5,0.0,0,,,,,,,,,,,,,,,,,,,,,,HRV,HRV_0044,2022-11-30 17:58:49
,wl-rdm,3,37201,0.0-3.0-0.0,0.0,4.0,,,,,,,[],,,,0.0,0.0,87.9,0.0,u,0.0,True,1748.3999998569489,105.0,60.0,40.0,False,,3000.0,[],"[768, 432]",ColorTask_Demo,,,,,HRV,HRV_0044,2022-11-30 17:58:49
,wl-rdm,4,42634,0.0-3.0-1.0,0.0,5.0,,,,,,,[],,,,0.0,0.0,87.9,1.0,i,1.0,True,1342.2999999523163,81.0,60.0,40.0,False,,2000.0,[],"[768, 432]",ColorTask_Demo,,,,,HRV,HRV_0044,2022-11-30 17:58:49
,wl-html-keyboard-response,5,49870,0.0-3.0-2.0,0.0,6.0,,,,,,,,5234.0,0.0,1,,,,,,,,,,,,,,,,,,,,,,HRV,HRV_0044,2022-11-30 17:58:49
,wl-html-keyboard-response,6,63559,0.0-4.0-0.0,0.0,7.0,,,,,,,,11683.799999952316,0.0,0,,,,,,,,,,,,,,,,,,,,,,HRV,HRV_0044,2022-11-30 17:58:49
,wl-html-keyboard-response,7,81751,0.0-5.0-0.0,0.0,8.0,,,,,,,,16182.700000047684,0.0,0,,,,,,,,,,,,,,,,,,,,,,HRV,HRV_0044,2022-11-30 17:58:49
,wl-rdm,8,85081,0.0-6.0-0.0,0.0,9.0,,,,,,,[],,,,,,62.5,1.0,i,1.0,True,1938.7999999523163,117.0,60.0,40.0,False,,303.81367225003726,[],"[768, 432]",ColorTask,1.0,1.0,,,HRV,HRV_0044,2022-11-30 17:58:49
,wl-rdm,9,87531,0.0-6.1-0.1,0.0,10.0,,,,,,,[],,,,,,50.0,1.0,i,1.0,True,1159.3000001907349,70.0,60.0,40.0,False,,212.9139127686103,[],"[768, 432]",ColorTask,2.0,2.0,,,HRV,HRV_0044,2022-11-30 17:58:49
,wl-rdm,10,89998,0.0-6.2-0.2,0.0,11.0,,,,,,,[],,,,,,50.0,1.0,i,1.0,True,1029.0,62.0,60.0,40.0,False,,360.7328029582783,[],"[768, 432]",ColorTask,3.0,3.0,,,HRV,HRV_0044,2022-11-30 17:58:49
,wl-rdm,11,92364,0.0-6.3-0.3,0.0,12.0,,,,,,,[],,,,,,56.4,1.0,i,1.0,True,1084.0,66.0,60.0,40.0,False,,211.58472119450514,[],"[768, 432]",ColorTask,4.0,4.0,,,HRV,HRV_0044,2022-11-30 17:58:49
,wl-rdm,12,94547,0.0-6.4-0.4,0.0,13.0,,,,,,,[],,,,,,62.5,0.0,u,0.0,True,891.9000000953674,54.0,60.0,40.0,False,,218.32209671966456,[],"[768, 432]",ColorTask,5.0,5.0,,,HRV,HRV_0044,2022-11-30 17:58:49
,wl-rdm,13,96897,0.0-6.5-0.5,0.0,14.0,,,,,,,[],,,,,,50.0,0.0,u,0.0,True,955.2000000476837,58.0,60.0,40.0,False,,302.15688656905746,[],"[768, 432]",ColorTask,6.0,6.0,,,HRV,HRV_0044,2022-11-30 17:58:49
,wl-rdm,14,99380,0.0-6.6-0.6,0.0,15.0,,,,,,,[],,,,,,53.2,0.0,u,0.0,True,1120.4000000953674,68.0,60.0,40.0,False,,279.6281934491822,[],"[768, 432]",ColorTask,7.0,7.0,,,HRV,HRV_0044,2022-11-30 17:58:49
,wl-rdm,15,101447,0.0-6.7-0.7,0.0,16.0,,,,,,,[],,,,,,62.5,1.0,i,1.0,True,621.5,38.0,60.0,40.0,False,,380.8307743366662,[],"[768, 432]",ColorTask,8.0,8.0,,,HRV,HRV_0044,2022-11-30 17:58:49
,wl-rdm,16,103580,0.0-6.8-0.8,0.0,17.0,,,,,,,[],,,,,,62.5,0.0,u,0.0,True,765.5,46.0,60.0,40.0,False,,295.6915685442557,[],"[768, 432]",ColorTask,9.0,9.0,,,HRV,HRV_0044,2022-11-30 17:58:49
,wl-rdm,17,105647,0.0-6.9-0.9,0.0,18.0,,,,,,,[],,,,,,53.2,1.0,u,0.0,False,786.4000000953674,48.0,60.0,40.0,False,,206.01248860025305,[],"[768, 432]",ColorTask,8.0,10.0,,,HRV,HRV_0044,2022-11-30 17:58:49
,wl-rdm,18,108013,0.0-6.10-0.10,0.0,19.0,,,,,,,[],,,,,,56.4,0.0,i,1.0,False,888.7000000476837,54.0,60.0,40.0,False,,393.8995924269482,[],"[768, 432]",ColorTask,7.0,11.0,,,HRV,HRV_0044,2022-11-30 17:58:49
,wl-rdm,19,110296,0.0-6.11-0.11,0.0,20.0,,,,,,,[],,,,,,53.2,1.0,u,0.0,False,824.0999999046326,50.0,60.0,40.0,False,,385.5762683422858,[],"[768, 432]",ColorTask,6.0,12.0,,,HRV,HRV_0044,2022-11-30 17:58:49
,wl-rdm,20,112579,0.0-6.12-0.12,0.0,21.0,,,,,,,[],,,,,,62.5,1.0,u,0.0,False,1000.1000001430511,60.0,60.0,40.0,False,,206.59682572738066,[],"[768, 432]",ColorTask,5.0,13.0,,,HRV,HRV_0044,2022-11-30 17:58:49
,wl-rdm,21,114496,0.0-6.13-0.13,0.0,22.0,,,,,,,[],,,,,,87.9,1.0,i,1.0,True,567.3999998569489,35.0,60.0,40.0,False,,279.72228413236473,[],"[768, 432]",ColorTask,6.0,14.0,,,HRV,HRV_0044,2022-11-30 17:58:49
,wl-rdm,22,116562,0.0-6.14-0.14,0.0,23.0,,,,,,,[],,,,,,73.6,1.0,i,1.0,True,678.4000000953674,41.0,60.0,40.0,False,,306.46828277181953,[],"[768, 432]",ColorTask,7.0,15.0,,,HRV,HRV_0044,2022-11-30 17:58:49
,wl-rdm,23,118712,0.0-6.15-0.15,0.0,24.0,,,,,,,[],,,,,,53.2,1.0,i,1.0,True,847.0,51.0,60.0,40.0,False,,220.34341210763355,[],"[768, 432]",ColorTask,8.0,16.0,,,HRV,HRV_0044,2022-11-30 17:58:49
,wl-rdm,24,121045,0.0-6.16-0.16,0.0,25.0,,,,,,,[],,,,,,53.2,0.0,i,1.0,False,960.9000000953674,58.0,60.0,40.0,False,,286.832768290315,[],"[768, 432]",ColorTask,7.0,17.0,,,HRV,HRV_0044,2022-11-30 17:58:49
,wl-rdm,25,123312,0.0-6.17-0.17,0.0,26.0,,,,,,,[],,,,,,56.4,0.0,u,0.0,True,998.9000000953674,60.0,60.0,40.0,False,,201.20416053228624,[],"[768, 432]",ColorTask,8.0,18.0,,,HRV,HRV_0044,2022-11-30 17:58:49
,wl-rdm,26,125394,0.0-6.18-0.18,0.0,27.0,,,,,,,[],,,,,,87.9,0.0,u,0.0,True,730.9000000953674,44.0,60.0,40.0,False,,292.8715618916647,[],"[768, 432]",ColorTask,9.0,19.0,,,HRV,HRV_0044,2022-11-30 17:58:49
,wl-rdm,27,127711,0.0-6.19-0.19,0.0,28.0,,,,,,,[],,,,,,53.2,1.0,u,0.0,False,871.3999998569489,53.0,60.0,40.0,False,,372.14074622957526,[],"[768, 432]",ColorTask,8.0,20.0,,,HRV,HRV_0044,2022-11-30 17:58:49
,wl-rdm,28,129928,0.0-6.20-0.20,0.0,29.0,,,,,,,[],,,,,,73.6,0.0,i,1.0,False,902.7999997138977,55.0,60.0,40.0,False,,221.08982373062503,[],"[768, 432]",ColorTask,7.0,21.0,,,HRV,HRV_0044,2022-11-30 17:58:49
,wl-rdm,29,131911,0.0-6.21-0.21,0.0,30.0,,,,,,,[],,,,,,56.4,1.0,i,1.0,True,631.7999999523163,38.0,60.0,40.0,False,,291.11432960563747,[],"[768, 432]",ColorTask,8.0,22.0,,,HRV,HRV_0044,2022-11-30 17:58:49
,wl-rdm,30,133844,0.0-6.22-0.22,0.0,31.0,,,,,,,[],,,,,,73.6,1.0,i,1.0,True,607.8999998569489,37.0,60.0,40.0,False,,262.6585540352063,[],"[768, 432]",ColorTask,9.0,23.0,,,HRV,HRV_0044,2022-11-30 17:58:49
,wl-rdm,31,135878,0.0-6.23-0.23,0.0,32.0,,,,,,,[],,,,,,73.6,0.0,u,0.0,True,662.0,40.0,60.0,40.0,False,,307.41347417918956,[],"[768, 432]",ColorTask,10.0,24.0,,,HRV,HRV_0044,2022-11-30 17:58:49
,wl-rdm,32,138461,0.0-6.24-0.24,0.0,33.0,,,,,,,[],,,,,,50.0,0.0,i,1.0,False,1210.0000002384186,73.0,60.0,40.0,False,,304.48705761143856,[],"[768, 432]",ColorTask,9.0,25.0,,,HRV,HRV_0044,2022-11-30 17:58:49
,wl-rdm,33,140794,0.0-6.25-0.25,0.0,34.0,,,,,,,[],,,,,,62.5,0.0,i,1.0,False,991.1999998092651,60.0,60.0,40.0,False,,254.85815397441752,[],"[768, 432]",ColorTask,8.0,26.0,,,HRV,HRV_0044,2022-11-30 17:58:49
,wl-rdm,34,142994,0.0-6.26-0.26,0.0,35.0,,,,,,,[],,,,,,53.2,0.0,u,0.0,True,817.9999997615814,50.0,60.0,40.0,False,,314.5132363336771,[],"[768, 432]",ColorTask,9.0,27.0,,,HRV,HRV_0044,2022-11-30 17:58:49
,wl-rdm,35,145143,0.0-6.27-0.27,0.0,36.0,,,,,,,[],,,,,,50.0,0.0,u,0.0,True,862.6999998092651,52.0,60.0,40.0,False,,212.31953516797864,[],"[768, 432]",ColorTask,10.0,28.0,,,HRV,HRV_0044,2022-11-30 17:58:49
,wl-rdm,36,147277,0.0-6.28-0.28,0.0,37.0,,,,,,,[],,,,,,62.5,0.0,u,0.0,True,768.5999999046326,47.0,60.0,40.0,False,,266.5701626702393,[],"[768, 432]",ColorTask,11.0,29.0,,,HRV,HRV_0044,2022-11-30 17:58:49
,wl-rdm,37,149376,0.0-6.29-0.29,0.0,38.0,,,,,,,[],,,,,,62.5,0.0,u,0.0,True,801.5,49.0,60.0,40.0,False,,216.45642813729273,[],"[768, 432]",ColorTask,12.0,30.0,,,HRV,HRV_0044,2022-11-30 17:58:49
,wl-rdm,38,151476,0.0-6.30-0.30,0.0,39.0,,,,,,,[],,,,,,56.4,0.0,u,0.0,True,781.7000000476837,47.0,60.0,40.0,False,,246.57690376225665,[],"[768, 432]",ColorTask,13.0,31.0,,,HRV,HRV_0044,2022-11-30 17:58:49
,wl-rdm,39,153643,0.0-6.31-0.31,0.0,40.0,,,,,,,[],,,,,,73.6,1.0,i,1.0,True,776.9000000953674,47.0,60.0,40.0,False,,313.0002949585943,[],"[768, 432]",ColorTask,14.0,32.0,,,HRV,HRV_0044,2022-11-30 17:58:49
,wl-rdm,40,155743,0.0-6.32-0.32,0.0,41.0,,,,,,,[],,,,,,73.6,0.0,u,0.0,True,764.6000001430511,46.0,60.0,40.0,False,,270.3076161256156,[],"[768, 432]",ColorTask,15.0,33.0,,,HRV,HRV_0044,2022-11-30 17:58:49
,wl-rdm,41,158093,0.0-6.33-0.33,0.0,42.0,,,,,,,[],,,,,,53.2,0.0,i,1.0,False,1004.5,61.0,60.0,40.0,False,,279.4806891695306,[],"[768, 432]",ColorTask,14.0,34.0,,,HRV,HRV_0044,2022-11-30 17:58:49
,wl-rdm,42,160093,0.0-6.34-0.34,0.0,43.0,,,,,,,[],,,,,,87.9,1.0,i,1.0,True,687.2000000476837,42.0,60.0,40.0,False,,231.1685434665988,[],"[768, 432]",ColorTask,15.0,35.0,,,HRV,HRV_0044,2022-11-30 17:58:49
,wl-rdm,43,162393,0.0-6.35-0.35,0.0,44.0,,,,,,,[],,,,,,62.5,0.0,u,0.0,True,834.7000000476837,51.0,60.0,40.0,False,,372.8256606141456,[],"[768, 432]",ColorTask,16.0,36.0,,,HRV,HRV_0044,2022-11-30 17:58:49
,wl-rdm,44,164659,0.0-6.36-0.36,0.0,45.0,,,,,,,[],,,,,,62.5,0.0,u,0.0,True,815.5,49.0,60.0,40.0,False,,383.2905299029351,[],"[768, 432]",ColorTask,17.0,37.0,,,HRV,HRV_0044,2022-11-30 17:58:49
,wl-rdm,45,166893,0.0-6.37-0.37,0.0,46.0,,,,,,,[],,,,,,50.0,1.0,u,0.0,False,933.099999666214,56.0,60.0,40.0,False,,243.0104401481496,[],"[768, 432]",ColorTask,16.0,38.0,,,HRV,HRV_0044,2022-11-30 17:58:49
,wl-rdm,46,169175,0.0-6.38-0.38,0.0,47.0,,,,,,,[],,,,,,56.4,0.0,i,1.0,False,826.7000000476837,50.0,60.0,40.0,False,,396.1933129377891,[],"[768, 432]",ColorTask,15.0,39.0,,,HRV,HRV_0044,2022-11-30 17:58:49
,wl-rdm,47,171225,0.0-6.39-0.39,0.0,48.0,,,,,,,[],,,,,,73.6,1.0,i,1.0,True,612.5,37.0,60.0,40.0,False,,353.9903465471966,[],"[768, 432]",ColorTask,16.0,40.0,,,HRV,HRV_0044,2022-11-30 17:58:49
,wl-rdm,48,173653,0.0-6.40-0.40,0.0,49.0,,,,,,,[],,,,,,56.4,1.0,u,0.0,False,989.2999999523163,60.0,60.0,40.0,False,,347.28208849665407,[],"[768, 432]",ColorTask,15.0,41.0,,,HRV,HRV_0044,2022-11-30 17:58:49
,wl-rdm,49,176075,0.0-6.41-0.41,0.0,50.0,,,,,,,[],,,,,,50.0,0.0,u,0.0,True,1120.7999999523163,68.0,60.0,40.0,False,,246.60168157702128,[],"[768, 432]",ColorTask,16.0,42.0,,,HRV,HRV_0044,2022-11-30 17:58:49
,wl-rdm,50,178558,0.0-6.42-0.42,0.0,51.0,,,,,,,[],,,,,,62.5,1.0,i,1.0,True,1055.5999999046326,64.0,60.0,40.0,False,,365.30717140852266,[],"[768, 432]",ColorTask,17.0,43.0,,,HRV,HRV_0044,2022-11-30 17:58:49
,wl-rdm,51,181008,0.0-6.43-0.43,0.0,52.0,,,,,,,[],,,,,,53.2,0.0,u,0.0,True,1069.1000001430511,65.0,60.0,40.0,False,,291.0598706431095,[],"[768, 432]",ColorTask,18.0,44.0,,,HRV,HRV_0044,2022-11-30 17:58:49
,wl-rdm,52,183441,0.0-6.44-0.44,0.0,53.0,,,,,,,[],,,,,,56.4,1.0,u,0.0,False,1096.2999999523163,66.0,60.0,40.0,False,,259.9113411044612,[],"[768, 432]",ColorTask,17.0,45.0,,,HRV,HRV_0044,2022-11-30 17:58:49
,wl-rdm,53,185475,0.0-6.45-0.45,0.0,54.0,,,,,,,[],,,,,,87.9,0.0,u,0.0,True,748.6999998092651,45.0,60.0,40.0,False,,203.53937583195363,[],"[768, 432]",ColorTask,18.0,46.0,,,HRV,HRV_0044,2022-11-30 17:58:49
,wl-rdm,54,187574,0.0-6.46-0.46,0.0,55.0,,,,,,,[],,,,,,53.2,1.0,i,1.0,True,816.5,49.0,60.0,40.0,False,,229.49311478633737,[],"[768, 432]",ColorTask,19.0,47.0,,,HRV,HRV_0044,2022-11-30 17:58:49
,wl-rdm,55,189874,0.0-6.47-0.47,0.0,56.0,,,,,,,[],,,,,,73.6,0.0,u,0.0,True,937.7000000476837,57.0,60.0,40.0,False,,280.0032640077743,[],"[768, 432]",ColorTask,20.0,48.0,,,HRV,HRV_0044,2022-11-30 17:58:49
,wl-rdm,56,191924,0.0-6.48-0.48,0.0,57.0,,,,,,,[],,,,,,62.5,0.0,u,0.0,True,755.9000000953674,46.0,60.0,40.0,False,,216.24068273317386,[],"[768, 432]",ColorTask,21.0,49.0,,,HRV,HRV_0044,2022-11-30 17:58:49
,wl-rdm,57,194074,0.0-6.49-0.49,0.0,58.0,,,,,,,[],,,,,,87.9,0.0,u,0.0,True,678.5999999046326,41.0,60.0,40.0,False,,397.15771005092563,[],"[768, 432]",ColorTask,22.0,50.0,,,HRV,HRV_0044,2022-11-30 17:58:49
,wl-rdm,58,196207,0.0-6.50-0.50,0.0,59.0,,,,,,,[],,,,,,56.4,0.0,u,0.0,True,825.5,50.0,60.0,40.0,False,,218.92324268013917,[],"[768, 432]",ColorTask,23.0,51.0,,,HRV,HRV_0044,2022-11-30 17:58:49
,wl-rdm,59,198357,0.0-6.51-0.51,0.0,60.0,,,,,,,[],,,,,,87.9,0.0,u,0.0,True,667.6999998092651,41.0,60.0,40.0,False,,384.86310694333713,[],"[768, 432]",ColorTask,24.0,52.0,,,HRV,HRV_0044,2022-11-30 17:58:49
,wl-rdm,60,200391,0.0-6.52-0.52,0.0,61.0,,,,,,,[],,,,,,56.4,1.0,u,0.0,False,686.8999998569489,42.0,60.0,40.0,False,,257.1046590640637,[],"[768, 432]",ColorTask,23.0,53.0,,,HRV,HRV_0044,2022-11-30 17:58:49
,wl-rdm,61,202341,0.0-6.53-0.53,0.0,62.0,,,,,,,[],,,,,,87.9,1.0,i,1.0,True,671.5,41.0,60.0,40.0,False,,212.64347635004202,[],"[768, 432]",ColorTask,24.0,54.0,,,HRV,HRV_0044,2022-11-30 17:58:49
,wl-rdm,62,204390,0.0-6.54-0.54,0.0,63.0,,,,,,,[],,,,,,87.9,0.0,u,0.0,True,654.6999998092651,40.0,60.0,40.0,False,,301.00170076264607,[],"[768, 432]",ColorTask,25.0,55.0,,,HRV,HRV_0044,2022-11-30 17:58:49
,wl-rdm,63,206573,0.0-6.55-0.55,0.0,64.0,,,,,,,[],,,,,,50.0,0.0,i,1.0,False,832.7000000476837,50.0,60.0,40.0,False,,285.919100499578,[],"[768, 432]",ColorTask,24.0,56.0,,,HRV,HRV_0044,2022-11-30 17:58:49
,wl-rdm,64,208707,0.0-6.56-0.56,0.0,65.0,,,,,,,[],,,,,,73.6,0.0,u,0.0,True,688.8999998569489,42.0,60.0,40.0,False,,360.66677767062697,[],"[768, 432]",ColorTask,25.0,57.0,,,HRV,HRV_0044,2022-11-30 17:58:49
,wl-rdm,65,210906,0.0-6.57-0.57,0.0,66.0,,,,,,,[],,,,,,62.5,1.0,u,0.0,False,868.7000000476837,53.0,60.0,40.0,False,,274.9830838387491,[],"[768, 432]",ColorTask,24.0,58.0,,,HRV,HRV_0044,2022-11-30 17:58:49
,wl-rdm,66,213189,0.0-6.58-0.58,0.0,67.0,,,,,,,[],,,,,,73.6,0.0,u,0.0,True,819.2999999523163,50.0,60.0,40.0,False,,392.5190384443172,[],"[768, 432]",ColorTask,25.0,59.0,,,HRV,HRV_0044,2022-11-30 17:58:49
,wl-rdm,67,215523,0.0-6.59-0.59,0.0,68.0,,,,,,,[],,,,,,50.0,0.0,u,0.0,True,981.8000001907349,59.0,60.0,40.0,False,,271.1868821649926,[],"[768, 432]",ColorTask,26.0,60.0,,,HRV,HRV_0044,2022-11-30 17:58:49
,wl-rdm,68,217573,0.0-6.60-0.60,0.0,69.0,,,,,,,[],,,,,,73.6,1.0,i,1.0,True,624.9000000953674,38.0,60.0,40.0,False,,358.8583392828276,[],"[768, 432]",ColorTask,27.0,61.0,,,HRV,HRV_0044,2022-11-30 17:58:49
,wl-rdm,69,219572,0.0-6.61-0.61,0.0,70.0,,,,,,,[],,,,,,87.9,0.0,u,0.0,True,628.2999997138977,38.0,60.0,40.0,False,,288.0055364827356,[],"[768, 432]",ColorTask,28.0,62.0,,,HRV,HRV_0044,2022-11-30 17:58:49
,wl-rdm,70,221722,0.0-6.62-0.62,0.0,71.0,,,,,,,[],,,,,,56.4,0.0,i,1.0,False,866.2999999523163,52.0,60.0,40.0,False,,232.03235699578107,[],"[768, 432]",ColorTask,27.0,63.0,,,HRV,HRV_0044,2022-11-30 17:58:49
,wl-rdm,71,223872,0.0-6.63-0.63,0.0,72.0,,,,,,,[],,,,,,50.0,1.0,u,0.0,False,873.3999998569489,53.0,60.0,40.0,False,,209.9935826768223,[],"[768, 432]",ColorTask,26.0,64.0,,,HRV,HRV_0044,2022-11-30 17:58:49
,wl-rdm,72,226522,0.0-6.64-0.64,0.0,73.0,,,,,,,[],,,,,,56.4,0.0,u,0.0,True,1204.0,73.0,60.0,40.0,False,,377.83990069586645,[],"[768, 432]",ColorTask,27.0,65.0,,,HRV,HRV_0044,2022-11-30 17:58:49
,wl-rdm,73,228572,0.0-6.65-0.65,0.0,74.0,,,,,,,[],,,,,,87.9,1.0,i,1.0,True,635.0,39.0,60.0,40.0,False,,320.87759546894387,[],"[768, 432]",ColorTask,28.0,66.0,,,HRV,HRV_0044,2022-11-30 17:58:49
,wl-rdm,74,230705,0.0-6.66-0.66,0.0,75.0,,,,,,,[],,,,,,73.6,1.0,i,1.0,True,729.1000001430511,44.0,60.0,40.0,False,,328.57317106172866,[],"[768, 432]",ColorTask,29.0,67.0,,,HRV,HRV_0044,2022-11-30 17:58:49
,wl-rdm,75,232955,0.0-6.67-0.67,0.0,76.0,,,,,,,[],,,,,,62.5,1.0,i,1.0,True,781.0,47.0,60.0,40.0,False,,384.5676344285922,[],"[768, 432]",ColorTask,30.0,68.0,,,HRV,HRV_0044,2022-11-30 17:58:49
,wl-rdm,76,235172,0.0-6.68-0.68,0.0,77.0,,,,,,,[],,,,,,56.4,0.0,u,0.0,True,773.0,47.0,60.0,40.0,False,,362.6009677156527,[],"[768, 432]",ColorTask,31.0,69.0,,,HRV,HRV_0044,2022-11-30 17:58:49
,wl-rdm,77,237388,0.0-6.69-0.69,0.0,78.0,,,,,,,[],,,,,,56.4,1.0,u,0.0,False,789.7999999523163,48.0,60.0,40.0,False,,338.82721691209844,[],"[768, 432]",ColorTask,30.0,70.0,,,HRV,HRV_0044,2022-11-30 17:58:49
,wl-rdm,78,239405,0.0-6.70-0.70,0.0,79.0,,,,,,,[],,,,,,53.2,0.0,u,0.0,True,703.7999999523163,43.0,60.0,40.0,False,,220.48425890799206,[],"[768, 432]",ColorTask,31.0,71.0,,,HRV,HRV_0044,2022-11-30 17:58:49
,wl-rdm,79,241605,0.0-6.71-0.71,0.0,80.0,,,,,,,[],,,,,,62.5,1.0,u,0.0,False,776.7999999523163,47.0,60.0,40.0,False,,362.4440578396772,[],"[768, 432]",ColorTask,30.0,72.0,,,HRV,HRV_0044,2022-11-30 17:58:49
,wl-rdm,80,243904,0.0-6.72-0.72,0.0,81.0,,,,,,,[],,,,,,56.4,1.0,u,0.0,False,972.0999999046326,59.0,60.0,40.0,False,,238.2488846285264,[],"[768, 432]",ColorTask,29.0,73.0,,,HRV,HRV_0044,2022-11-30 17:58:49
,wl-rdm,81,245854,0.0-6.73-0.73,0.0,82.0,,,,,,,[],,,,,,87.9,0.0,u,0.0,True,545.0,33.0,60.0,40.0,False,,329.50486370795363,[],"[768, 432]",ColorTask,30.0,74.0,,,HRV,HRV_0044,2022-11-30 17:58:49
,wl-rdm,82,248121,0.0-6.74-0.74,0.0,83.0,,,,,,,[],,,,,,50.0,0.0,u,0.0,True,877.8999998569489,53.0,60.0,40.0,False,,304.46231560606975,[],"[768, 432]",ColorTask,31.0,75.0,,,HRV,HRV_0044,2022-11-30 17:58:49
,wl-rdm,83,250254,0.0-6.75-0.75,0.0,84.0,,,,,,,[],,,,,,73.6,1.0,i,1.0,True,845.8999998569489,51.0,60.0,40.0,False,,216.83002898587225,[],"[768, 432]",ColorTask,32.0,76.0,,,HRV,HRV_0044,2022-11-30 17:58:49
,wl-rdm,84,252404,0.0-6.76-0.76,0.0,85.0,,,,,,,[],,,,,,50.0,0.0,i,1.0,False,795.6000001430511,48.0,60.0,40.0,False,,266.9559029969467,[],"[768, 432]",ColorTask,31.0,77.0,,,HRV,HRV_0044,2022-11-30 17:58:49
,wl-rdm,85,254837,0.0-6.77-0.77,0.0,86.0,,,,,,,[],,,,,,53.2,0.0,i,1.0,False,1131.4000000953674,68.0,60.0,40.0,False,,244.2243368591774,[],"[768, 432]",ColorTask,30.0,78.0,,,HRV,HRV_0044,2022-11-30 17:58:49
,wl-rdm,86,256887,0.0-6.78-0.78,0.0,87.0,,,,,,,[],,,,,,73.6,0.0,u,0.0,True,704.3000001907349,43.0,60.0,40.0,False,,267.26113494469564,[],"[768, 432]",ColorTask,31.0,79.0,,,HRV,HRV_0044,2022-11-30 17:58:49
,wl-rdm,87,258920,0.0-6.79-0.79,0.0,88.0,,,,,,,[],,,,,,73.6,0.0,u,0.0,True,735.0999999046326,45.0,60.0,40.0,False,,205.54212417552034,[],"[768, 432]",ColorTask,32.0,80.0,,,HRV,HRV_0044,2022-11-30 17:58:49
,wl-rdm,88,261270,0.0-6.80-0.80,0.0,89.0,,,,,,,[],,,,,,73.6,1.0,i,1.0,True,981.7000000476837,59.0,60.0,40.0,False,,303.3112068361467,[],"[768, 432]",ColorTask,33.0,81.0,,,HRV,HRV_0044,2022-11-30 17:58:49
,wl-rdm,89,263603,0.0-6.81-0.81,0.0,90.0,,,,,,,[],,,,,,73.6,0.0,u,0.0,True,962.2000000476837,58.0,60.0,40.0,False,,288.32087573674306,[],"[768, 432]",ColorTask,34.0,82.0,,,HRV,HRV_0044,2022-11-30 17:58:49
,wl-rdm,90,265553,0.0-6.82-0.82,0.0,91.0,,,,,,,[],,,,,,87.9,1.0,u,0.0,False,604.6000001430511,37.0,60.0,40.0,False,,265.5739731116216,[],"[768, 432]",ColorTask,33.0,83.0,,,HRV,HRV_0044,2022-11-30 17:58:49
,wl-rdm,91,267903,0.0-6.83-0.83,0.0,92.0,,,,,,,[],,,,,,73.6,1.0,i,1.0,True,938.0,57.0,60.0,40.0,False,,318.373135054573,[],"[768, 432]",ColorTask,34.0,84.0,,,HRV,HRV_0044,2022-11-30 17:58:49
,wl-rdm,92,270054,0.0-6.84-0.84,0.0,93.0,,,,,,,[],,,,,,87.9,1.0,i,1.0,True,733.2000000476837,45.0,60.0,40.0,False,,332.3178453307905,[],"[768, 432]",ColorTask,35.0,85.0,,,HRV,HRV_0044,2022-11-30 17:58:49
,wl-rdm,93,272369,0.0-6.85-0.85,0.0,94.0,,,,,,,[],,,,,,50.0,1.0,u,0.0,False,868.2999999523163,53.0,60.0,40.0,False,,363.4617640533957,[],"[768, 432]",ColorTask,34.0,86.0,,,HRV,HRV_0044,2022-11-30 17:58:49
,wl-rdm,94,274686,0.0-6.86-0.86,0.0,95.0,,,,,,,[],,,,,,50.0,1.0,u,0.0,False,834.0,51.0,60.0,40.0,False,,384.6465986227604,[],"[768, 432]",ColorTask,33.0,87.0,,,HRV,HRV_0044,2022-11-30 17:58:49
,wl-rdm,95,276870,0.0-6.87-0.87,0.0,96.0,,,,,,,[],,,,,,87.9,0.0,u,0.0,True,703.5,43.0,60.0,40.0,False,,393.16821091632653,[],"[768, 432]",ColorTask,34.0,88.0,,,HRV,HRV_0044,2022-11-30 17:58:49
,wl-rdm,96,279402,0.0-6.88-0.88,0.0,97.0,,,,,,,[],,,,,,56.4,1.0,i,1.0,True,1073.2000000476837,65.0,60.0,40.0,False,,367.7618200622786,[],"[768, 432]",ColorTask,35.0,89.0,,,HRV,HRV_0044,2022-11-30 17:58:49
,wl-rdm,97,281752,0.0-6.89-0.89,0.0,98.0,,,,,,,[],,,,,,53.2,1.0,i,1.0,True,949.0999999046326,57.0,60.0,40.0,False,,341.08611144087286,[],"[768, 432]",ColorTask,36.0,90.0,,,HRV,HRV_0044,2022-11-30 17:58:49
,wl-rdm,98,283869,0.0-6.90-0.90,0.0,99.0,,,,,,,[],,,,,,62.5,1.0,i,1.0,True,768.1999998092651,47.0,60.0,40.0,False,,281.3204510573466,[],"[768, 432]",ColorTask,37.0,91.0,,,HRV,HRV_0044,2022-11-30 17:58:49
,wl-rdm,99,286218,0.0-6.91-0.91,0.0,100.0,,,,,,,[],,,,,,50.0,1.0,u,0.0,False,961.7000002861023,58.0,60.0,40.0,False,,306.79376233714584,[],"[768, 432]",ColorTask,36.0,92.0,,,HRV,HRV_0044,2022-11-30 17:58:49
,wl-rdm,100,288685,0.0-6.92-0.92,0.0,101.0,,,,,,,[],,,,,,53.2,1.0,i,1.0,True,989.0,60.0,60.0,40.0,False,,385.6520968469283,[],"[768, 432]",ColorTask,37.0,93.0,,,HRV,HRV_0044,2022-11-30 17:58:49
,wl-rdm,101,290919,0.0-6.93-0.93,0.0,102.0,,,,,,,[],,,,,,50.0,1.0,i,1.0,True,927.9000000953674,56.0,60.0,40.0,False,,236.33188205048313,[],"[768, 432]",ColorTask,38.0,94.0,,,HRV,HRV_0044,2022-11-30 17:58:49
,wl-rdm,102,293034,0.0-6.94-0.94,0.0,103.0,,,,,,,[],,,,,,56.4,1.0,i,1.0,True,699.2000000476837,42.0,60.0,40.0,False,,365.3433458827344,[],"[768, 432]",ColorTask,39.0,95.0,,,HRV,HRV_0044,2022-11-30 17:58:49
,wl-rdm,103,295235,0.0-6.95-0.95,0.0,104.0,,,,,,,[],,,,,,56.4,0.0,u,0.0,True,820.0999999046326,50.0,60.0,40.0,False,,296.5504975805237,[],"[768, 432]",ColorTask,40.0,96.0,,,HRV,HRV_0044,2022-11-30 17:58:49
,wl-rdm,104,297234,0.0-6.96-0.96,0.0,105.0,,,,,,,[],,,,,,87.9,1.0,i,1.0,True,642.5,39.0,60.0,40.0,False,,273.1107542706454,[],"[768, 432]",ColorTask,41.0,97.0,,,HRV,HRV_0044,2022-11-30 17:58:49
,wl-rdm,105,299518,0.0-6.97-0.97,0.0,106.0,,,,,,,[],,,,,,53.2,0.0,i,1.0,False,906.6999998092651,55.0,60.0,40.0,False,,298.7121082896382,[],"[768, 432]",ColorTask,40.0,98.0,,,HRV,HRV_0044,2022-11-30 17:58:49
,wl-rdm,106,301734,0.0-6.98-0.98,0.0,107.0,,,,,,,[],,,,,,50.0,1.0,u,0.0,False,922.0,56.0,60.0,40.0,False,,229.54966664976516,[],"[768, 432]",ColorTask,39.0,99.0,,,HRV,HRV_0044,2022-11-30 17:58:49
,wl-rdm,107,303934,0.0-6.99-0.99,0.0,108.0,,,,,,,[],,,,,,53.2,0.0,i,1.0,False,750.9000000953674,46.0,60.0,40.0,False,,372.3220150534741,[],"[768, 432]",ColorTask,38.0,100.0,,,HRV,HRV_0044,2022-11-30 17:58:49
,wl-rdm,108,306050,0.0-6.100-0.100,0.0,109.0,,,,,,,[],,,,,,62.5,1.0,i,1.0,True,831.5,50.0,60.0,40.0,False,,228.46309219647452,[],"[768, 432]",ColorTask,39.0,101.0,,,HRV,HRV_0044,2022-11-30 17:58:49
,wl-rdm,109,308350,0.0-6.101-0.101,0.0,110.0,,,,,,,[],,,,,,53.2,1.0,i,1.0,True,1016.7999999523163,61.0,60.0,40.0,False,,209.7572028406508,[],"[768, 432]",ColorTask,40.0,102.0,,,HRV,HRV_0044,2022-11-30 17:58:49
,wl-rdm,110,310316,0.0-6.102-0.102,0.0,111.0,,,,,,,[],,,,,,87.9,1.0,i,1.0,True,647.5,39.0,60.0,40.0,False,,248.15272410175464,[],"[768, 432]",ColorTask,41.0,103.0,,,HRV,HRV_0044,2022-11-30 17:58:49
,wl-rdm,111,312467,0.0-6.103-0.103,0.0,112.0,,,,,,,[],,,,,,87.9,1.0,i,1.0,True,762.0999999046326,46.0,60.0,40.0,False,,303.7664152829382,[],"[768, 432]",ColorTask,42.0,104.0,,,HRV,HRV_0044,2022-11-30 17:58:49
,wl-rdm,112,314817,0.0-6.104-0.104,0.0,113.0,,,,,,,[],,,,,,53.2,1.0,i,1.0,True,1052.0,64.0,60.0,40.0,False,,203.41041646109116,[],"[768, 432]",ColorTask,43.0,105.0,,,HRV,HRV_0044,2022-11-30 17:58:49
,wl-rdm,113,316866,0.0-6.105-0.105,0.0,114.0,,,,,,,[],,,,,,87.9,0.0,u,0.0,True,747.7999999523163,45.0,60.0,40.0,False,,241.6406246970869,[],"[768, 432]",ColorTask,44.0,106.0,,,HRV,HRV_0044,2022-11-30 17:58:49
,wl-rdm,114,319149,0.0-6.106-0.106,0.0,115.0,,,,,,,[],,,,,,50.0,0.0,u,0.0,True,999.7999999523163,60.0,60.0,40.0,False,,214.53471694424616,[],"[768, 432]",ColorTask,45.0,107.0,,,HRV,HRV_0044,2022-11-30 17:58:49
,wl-rdm,115,321366,0.0-6.107-0.107,0.0,116.0,,,,,,,[],,,,,,62.5,0.0,u,0.0,True,799.5,48.0,60.0,40.0,False,,337.8872674734351,[],"[768, 432]",ColorTask,46.0,108.0,,,HRV,HRV_0044,2022-11-30 17:58:49
,wl-html-keyboard-response,116,331639,0.0-7.0-0.0,1.0,117.0,,,,,,,,8262.399999856949,1.0,0,,,,,,,,,,,,,,,,,,,,,,HRV,HRV_0044,2022-11-30 17:58:49
,wl-rdm,117,334082,0.0-8.0-0.0,1.0,118.0,,,,,,,[],,,,,,50.0,1.0,i,1.0,True,1074.6000001430511,65.0,60.0,40.0,False,,298.8532327365729,[],"[768, 432]",ColorTask,47.0,1.0,,,HRV,HRV_0044,2022-11-30 17:58:49
,wl-rdm,118,336315,0.0-8.1-0.1,1.0,119.0,,,,,,,[],,,,,,62.5,0.0,i,1.0,False,901.6000001430511,55.0,60.0,40.0,False,,238.56149311172607,[],"[768, 432]",ColorTask,46.0,2.0,,,HRV,HRV_0044,2022-11-30 17:58:49
,wl-rdm,119,338515,0.0-8.2-0.2,1.0,120.0,,,,,,,[],,,,,,56.4,1.0,u,0.0,False,895.2000000476837,54.0,60.0,40.0,False,,248.78428034929033,[],"[768, 432]",ColorTask,45.0,3.0,,,HRV,HRV_0044,2022-11-30 17:58:49
,wl-rdm,120,340514,0.0-8.3-0.3,1.0,121.0,,,,,,,[],,,,,,73.6,0.0,u,0.0,True,648.8999998569489,39.0,60.0,40.0,False,,283.8019146117317,[],"[768, 432]",ColorTask,46.0,4.0,,,HRV,HRV_0044,2022-11-30 17:58:49
,wl-rdm,121,342598,0.0-8.4-0.4,1.0,122.0,,,,,,,[],,,,,,53.2,0.0,u,0.0,True,679.8999998569489,41.0,60.0,40.0,False,,319.4843801575785,[],"[768, 432]",ColorTask,47.0,5.0,,,HRV,HRV_0044,2022-11-30 17:58:49
,wl-rdm,122,344881,0.0-8.5-0.5,1.0,123.0,,,,,,,[],,,,,,53.2,0.0,u,0.0,True,802.6999998092651,49.0,60.0,40.0,False,,397.10894687668923,[],"[768, 432]",ColorTask,48.0,6.0,,,HRV,HRV_0044,2022-11-30 17:58:49
,wl-rdm,123,347114,0.0-8.6-0.6,1.0,124.0,,,,,,,[],,,,,,50.0,1.0,i,1.0,True,775.7000000476837,47.0,60.0,40.0,False,,372.4985311002356,[],"[768, 432]",ColorTask,49.0,7.0,,,HRV,HRV_0044,2022-11-30 17:58:49
,wl-rdm,124,349364,0.0-8.7-0.7,1.0,125.0,,,,,,,[],,,,,,53.2,1.0,i,1.0,True,904.8999998569489,55.0,60.0,40.0,False,,272.56664379167125,[],"[768, 432]",ColorTask,50.0,8.0,,,HRV,HRV_0044,2022-11-30 17:58:49
,wl-rdm,125,351347,0.0-8.8-0.8,1.0,126.0,,,,,,,[],,,,,,87.9,1.0,i,1.0,True,715.7999999523163,43.0,60.0,40.0,False,,200.60523299603418,[],"[768, 432]",ColorTask,51.0,9.0,,,HRV,HRV_0044,2022-11-30 17:58:49
,wl-rdm,126,353347,0.0-8.9-0.9,1.0,127.0,,,,,,,[],,,,,,56.4,1.0,i,1.0,True,679.7000000476837,41.0,60.0,40.0,False,,264.6502141961691,[],"[768, 432]",ColorTask,52.0,10.0,,,HRV,HRV_0044,2022-11-30 17:58:49
,wl-rdm,127,355630,0.0-8.10-0.10,1.0,128.0,,,,,,,[],,,,,,56.4,1.0,i,1.0,True,955.1000001430511,58.0,60.0,40.0,False,,243.81052791834546,[],"[768, 432]",ColorTask,53.0,11.0,,,HRV,HRV_0044,2022-11-30 17:58:49
,wl-rdm,128,357564,0.0-8.11-0.11,1.0,129.0,,,,,,,[],,,,,,73.6,1.0,i,1.0,True,625.1999998092651,38.0,60.0,40.0,False,,218.7798236407016,[],"[768, 432]",ColorTask,54.0,12.0,,,HRV,HRV_0044,2022-11-30 17:58:49
,wl-rdm,129,359663,0.0-8.12-0.12,1.0,130.0,,,,,,,[],,,,,,53.2,1.0,u,0.0,False,785.0,48.0,60.0,40.0,False,,225.28204902858744,[],"[768, 432]",ColorTask,53.0,13.0,,,HRV,HRV_0044,2022-11-30 17:58:49
,wl-rdm,130,361796,0.0-8.13-0.13,1.0,131.0,,,,,,,[],,,,,,62.5,0.0,i,1.0,False,810.2999999523163,49.0,60.0,40.0,False,,238.658174992486,[],"[768, 432]",ColorTask,52.0,14.0,,,HRV,HRV_0044,2022-11-30 17:58:49
,wl-rdm,131,363730,0.0-8.14-0.14,1.0,132.0,,,,,,,[],,,,,,62.5,0.0,u,0.0,True,616.7000000476837,38.0,60.0,40.0,False,,245.08697854547802,[],"[768, 432]",ColorTask,53.0,15.0,,,HRV,HRV_0044,2022-11-30 17:58:49
,wl-rdm,132,365546,0.0-8.15-0.15,1.0,133.0,,,,,,,[],,,,,,87.9,0.0,u,0.0,True,468.0,29.0,60.0,40.0,False,,250.23097943167278,[],"[768, 432]",ColorTask,54.0,16.0,,,HRV,HRV_0044,2022-11-30 17:58:49
,wl-rdm,133,367779,0.0-8.16-0.16,1.0,134.0,,,,,,,[],,,,,,50.0,0.0,u,0.0,True,856.3000001907349,52.0,60.0,40.0,False,,293.43350847215,[],"[768, 432]",ColorTask,55.0,17.0,,,HRV,HRV_0044,2022-11-30 17:58:49
,wl-rdm,134,369679,0.0-8.17-0.17,1.0,135.0,,,,,,,[],,,,,,87.9,0.0,u,0.0,True,587.5,36.0,60.0,40.0,False,,239.27315098998378,[],"[768, 432]",ColorTask,56.0,18.0,,,HRV,HRV_0044,2022-11-30 17:58:49
,wl-rdm,135,372112,0.0-8.18-0.18,1.0,136.0,,,,,,,[],,,,,,62.5,1.0,u,0.0,False,974.3000001907349,59.0,60.0,40.0,False,,387.50354528426806,[],"[768, 432]",ColorTask,55.0,19.0,,,HRV,HRV_0044,2022-11-30 17:58:49
,wl-rdm,136,374412,0.0-8.19-0.19,1.0,137.0,,,,,,,[],,,,,,62.5,0.0,u,0.0,True,828.3999998569489,50.0,60.0,40.0,False,,383.742239426301,[],"[768, 432]",ColorTask,56.0,20.0,,,HRV,HRV_0044,2022-11-30 17:58:49
,wl-rdm,137,376495,0.0-8.20-0.20,1.0,138.0,,,,,,,[],,,,,,50.0,0.0,i,1.0,False,777.9000000953674,47.0,60.0,40.0,False,,237.99073760090016,[],"[768, 432]",ColorTask,55.0,21.0,,,HRV,HRV_0044,2022-11-30 17:58:49
,wl-rdm,138,378645,0.0-8.21-0.21,1.0,139.0,,,,,,,[],,,,,,62.5,1.0,i,1.0,True,868.2000000476837,53.0,60.0,40.0,False,,212.72444576800675,[],"[768, 432]",ColorTask,56.0,22.0,,,HRV,HRV_0044,2022-11-30 17:58:49
,wl-rdm,139,381028,0.0-8.22-0.22,1.0,140.0,,,,,,,[],,,,,,50.0,1.0,i,1.0,True,947.0,57.0,60.0,40.0,False,,378.7869964205452,[],"[768, 432]",ColorTask,57.0,23.0,,,HRV,HRV_0044,2022-11-30 17:58:49
,wl-rdm,140,383112,0.0-8.23-0.23,1.0,141.0,,,,,,,[],,,,,,73.6,0.0,u,0.0,True,745.0,45.0,60.0,40.0,False,,252.59804701584375,[],"[768, 432]",ColorTask,58.0,24.0,,,HRV,HRV_0044,2022-11-30 17:58:49
,wl-rdm,141,385244,0.0-8.24-0.24,1.0,142.0,,,,,,,[],,,,,,50.0,1.0,u,0.0,False,740.0,45.0,60.0,40.0,False,,309.16136946252357,[],"[768, 432]",ColorTask,57.0,25.0,,,HRV,HRV_0044,2022-11-30 17:58:49
,wl-rdm,142,387594,0.0-8.25-0.25,1.0,143.0,,,,,,,[],,,,,,62.5,0.0,u,0.0,True,1066.0999999046326,64.0,60.0,40.0,False,,221.57841039357973,[],"[768, 432]",ColorTask,58.0,26.0,,,HRV,HRV_0044,2022-11-30 17:58:49
,wl-rdm,143,389878,0.0-8.26-0.26,1.0,144.0,,,,,,,[],,,,,,56.4,0.0,u,0.0,True,834.7999999523163,51.0,60.0,40.0,False,,382.43155481826216,[],"[768, 432]",ColorTask,59.0,27.0,,,HRV,HRV_0044,2022-11-30 17:58:49
,wl-rdm,144,392177,0.0-8.27-0.27,1.0,145.0,,,,,,,[],,,,,,56.4,0.0,u,0.0,True,1026.5,62.0,60.0,40.0,False,,200.29273542347448,[],"[768, 432]",ColorTask,60.0,28.0,,,HRV,HRV_0044,2022-11-30 17:58:49
,wl-rdm,145,394194,0.0-8.28-0.28,1.0,146.0,,,,,,,[],,,,,,50.0,1.0,u,0.0,False,723.1999998092651,44.0,60.0,40.0,False,,204.65883426081174,[],"[768, 432]",ColorTask,59.0,29.0,,,HRV,HRV_0044,2022-11-30 17:58:49
,wl-rdm,146,396594,0.0-8.29-0.29,1.0,147.0,,,,,,,[],,,,,,53.2,1.0,i,1.0,True,1065.0999999046326,64.0,60.0,40.0,False,,258.5279542899489,[],"[768, 432]",ColorTask,60.0,30.0,,,HRV,HRV_0044,2022-11-30 17:58:49
,wl-rdm,147,398678,0.0-8.30-0.30,1.0,148.0,,,,,,,[],,,,,,87.9,0.0,u,0.0,True,617.7999999523163,38.0,60.0,40.0,False,,373.1884761132044,[],"[768, 432]",ColorTask,61.0,31.0,,,HRV,HRV_0044,2022-11-30 17:58:49
,wl-rdm,148,400844,0.0-8.31-0.31,1.0,149.0,,,,,,,[],,,,,,56.4,0.0,u,0.0,True,881.0,53.0,60.0,40.0,False,,225.62734744423486,[],"[768, 432]",ColorTask,62.0,32.0,,,HRV,HRV_0044,2022-11-30 17:58:49
,wl-rdm,149,402960,0.0-8.32-0.32,1.0,150.0,,,,,,,[],,,,,,50.0,0.0,u,0.0,True,831.0999999046326,50.0,60.0,40.0,False,,210.34374682813174,[],"[768, 432]",ColorTask,63.0,33.0,,,HRV,HRV_0044,2022-11-30 17:58:49
,wl-rdm,150,405293,0.0-8.33-0.33,1.0,151.0,,,,,,,[],,,,,,53.2,1.0,u,0.0,False,1009.4000000953674,61.0,60.0,40.0,False,,235.1153981757375,[],"[768, 432]",ColorTask,62.0,34.0,,,HRV,HRV_0044,2022-11-30 17:58:49
,wl-rdm,151,407327,0.0-8.34-0.34,1.0,152.0,,,,,,,[],,,,,,73.6,0.0,u,0.0,True,669.9000000953674,41.0,60.0,40.0,False,,283.41696512463784,[],"[768, 432]",ColorTask,63.0,35.0,,,HRV,HRV_0044,2022-11-30 17:58:49
,wl-rdm,152,409677,0.0-8.35-0.35,1.0,153.0,,,,,,,[],,,,,,50.0,0.0,u,0.0,True,915.6999998092651,55.0,60.0,40.0,False,,372.9235834079436,[],"[768, 432]",ColorTask,64.0,36.0,,,HRV,HRV_0044,2022-11-30 17:58:49
,wl-rdm,153,412026,0.0-8.36-0.36,1.0,154.0,,,,,,,[],,,,,,53.2,1.0,u,0.0,False,1029.5,62.0,60.0,40.0,False,,261.1932793898629,[],"[768, 432]",ColorTask,63.0,37.0,,,HRV,HRV_0044,2022-11-30 17:58:49
,wl-rdm,154,414443,0.0-8.37-0.37,1.0,155.0,,,,,,,[],,,,,,56.4,1.0,i,1.0,True,1081.3999998569489,65.0,60.0,40.0,False,,267.73448968408815,[],"[768, 432]",ColorTask,64.0,38.0,,,HRV,HRV_0044,2022-11-30 17:58:49
,wl-rdm,155,416692,0.0-8.38-0.38,1.0,156.0,,,,,,,[],,,,,,73.6,0.0,u,0.0,True,982.8999998569489,59.0,60.0,40.0,False,,200.3353140287668,[],"[768, 432]",ColorTask,65.0,39.0,,,HRV,HRV_0044,2022-11-30 17:58:49
,wl-rdm,156,419159,0.0-8.39-0.39,1.0,157.0,,,,,,,[],,,,,,62.5,1.0,i,1.0,True,1019.4000000953674,62.0,60.0,40.0,False,,365.52259745218373,[],"[768, 432]",ColorTask,66.0,40.0,,,HRV,HRV_0044,2022-11-30 17:58:49
,wl-rdm,157,421611,0.0-8.40-0.40,1.0,158.0,,,,,,,[],,,,,,56.4,0.0,i,1.0,False,1016.0999999046326,61.0,60.0,40.0,False,,380.31118216807715,[],"[768, 432]",ColorTask,65.0,41.0,,,HRV,HRV_0044,2022-11-30 17:58:49
,wl-rdm,158,423792,0.0-8.41-0.41,1.0,159.0,,,,,,,[],,,,,,73.6,0.0,u,0.0,True,707.4000000953674,43.0,60.0,40.0,False,,396.1114635034128,[],"[768, 432]",ColorTask,66.0,42.0,,,HRV,HRV_0044,2022-11-30 17:58:49
,wl-rdm,159,426076,0.0-8.42-0.42,1.0,160.0,,,,,,,[],,,,,,56.4,1.0,u,0.0,False,860.5999999046326,52.0,60.0,40.0,False,,338.3886594653677,[],"[768, 432]",ColorTask,65.0,43.0,,,HRV,HRV_0044,2022-11-30 17:58:49
,wl-rdm,160,428242,0.0-8.43-0.43,1.0,161.0,,,,,,,[],,,,,,73.6,1.0,i,1.0,True,792.5999999046326,48.0,60.0,40.0,False,,298.56520068564646,[],"[768, 432]",ColorTask,66.0,44.0,,,HRV,HRV_0044,2022-11-30 17:58:49
,wl-rdm,161,430426,0.0-8.44-0.44,1.0,162.0,,,,,,,[],,,,,,50.0,0.0,u,0.0,True,830.2000000476837,50.0,60.0,40.0,False,,277.84141526330313,[],"[768, 432]",ColorTask,67.0,45.0,,,HRV,HRV_0044,2022-11-30 17:58:49
,wl-rdm,162,432542,0.0-8.45-0.45,1.0,163.0,,,,,,,[],,,,,,87.9,1.0,u,0.0,False,652.7999999523163,40.0,60.0,40.0,False,,378.4233415009246,[],"[768, 432]",ColorTask,66.0,46.0,,,HRV,HRV_0044,2022-11-30 17:58:49
,wl-rdm,163,434408,0.0-8.46-0.46,1.0,164.0,,,,,,,[],,,,,,87.9,0.0,u,0.0,True,567.4000000953674,35.0,60.0,40.0,False,,212.7963819979698,[],"[768, 432]",ColorTask,67.0,47.0,,,HRV,HRV_0044,2022-11-30 17:58:49
,wl-rdm,164,436792,0.0-8.47-0.47,1.0,165.0,,,,,,,[],,,,,,50.0,1.0,u,0.0,False,970.3000001907349,59.0,60.0,40.0,False,,317.8925963305994,[],"[768, 432]",ColorTask,66.0,48.0,,,HRV,HRV_0044,2022-11-30 17:58:49
,wl-rdm,165,439208,0.0-8.48-0.48,1.0,166.0,,,,,,,[],,,,,,56.4,0.0,u,0.0,True,1094.7000000476837,66.0,60.0,40.0,False,,246.07136900281816,[],"[768, 432]",ColorTask,67.0,49.0,,,HRV,HRV_0044,2022-11-30 17:58:49
,wl-rdm,166,441275,0.0-8.49-0.49,1.0,167.0,,,,,,,[],,,,,,62.5,0.0,u,0.0,True,757.5,46.0,60.0,40.0,False,,222.53313381004006,[],"[768, 432]",ColorTask,68.0,50.0,,,HRV,HRV_0044,2022-11-30 17:58:49
,wl-rdm,167,443441,0.0-8.50-0.50,1.0,168.0,,,,,,,[],,,,,,56.4,0.0,u,0.0,True,830.6000001430511,50.0,60.0,40.0,False,,255.3362987919874,[],"[768, 432]",ColorTask,69.0,51.0,,,HRV,HRV_0044,2022-11-30 17:58:49
,wl-rdm,168,445458,0.0-8.51-0.51,1.0,169.0,,,,,,,[],,,,,,87.9,0.0,u,0.0,True,670.4000000953674,41.0,60.0,40.0,False,,260.73506089343084,[],"[768, 432]",ColorTask,70.0,52.0,,,HRV,HRV_0044,2022-11-30 17:58:49
,wl-rdm,169,447641,0.0-8.52-0.52,1.0,170.0,,,,,,,[],,,,,,62.5,1.0,u,0.0,False,834.1999998092651,51.0,60.0,40.0,False,,262.59863974463417,[],"[768, 432]",ColorTask,69.0,53.0,,,HRV,HRV_0044,2022-11-30 17:58:49
,wl-rdm,170,449758,0.0-8.53-0.53,1.0,171.0,,,,,,,[],,,,,,53.2,0.0,u,0.0,True,809.7999999523163,49.0,60.0,40.0,False,,240.2993419889877,[],"[768, 432]",ColorTask,70.0,54.0,,,HRV,HRV_0044,2022-11-30 17:58:49
,wl-rdm,171,452124,0.0-8.54-0.54,1.0,172.0,,,,,,,[],,,,,,53.2,1.0,u,0.0,False,1010.5999999046326,61.0,60.0,40.0,False,,273.0481873938903,[],"[768, 432]",ColorTask,69.0,55.0,,,HRV,HRV_0044,2022-11-30 17:58:49
,wl-rdm,172,454207,0.0-8.55-0.55,1.0,173.0,,,,,,,[],,,,,,73.6,0.0,u,0.0,True,752.7999999523163,46.0,60.0,40.0,False,,237.38641233136343,[],"[768, 432]",ColorTask,70.0,56.0,,,HRV,HRV_0044,2022-11-30 17:58:49
,wl-rdm,173,456174,0.0-8.56-0.56,1.0,174.0,,,,,,,[],,,,,,87.9,1.0,i,1.0,True,594.6999998092651,36.0,60.0,40.0,False,,299.78384529662196,[],"[768, 432]",ColorTask,71.0,57.0,,,HRV,HRV_0044,2022-11-30 17:58:49
,wl-rdm,174,458357,0.0-8.57-0.57,1.0,175.0,,,,,,,[],,,,,,62.5,0.0,u,0.0,True,790.0,48.0,60.0,40.0,False,,312.12927859916783,[],"[768, 432]",ColorTask,72.0,58.0,,,HRV,HRV_0044,2022-11-30 17:58:49
,wl-rdm,175,460273,0.0-8.58-0.58,1.0,176.0,,,,,,,[],,,,,,62.5,1.0,i,1.0,True,583.3999998569489,35.0,60.0,40.0,False,,253.0150012076152,[],"[768, 432]",ColorTask,73.0,59.0,,,HRV,HRV_0044,2022-11-30 17:58:49
,wl-rdm,176,462540,0.0-8.59-0.59,1.0,177.0,,,,,,,[],,,,,,53.2,1.0,u,0.0,False,958.7999999523163,58.0,60.0,40.0,False,,240.86030129178323,[],"[768, 432]",ColorTask,72.0,60.0,,,HRV,HRV_0044,2022-11-30 17:58:49
,wl-rdm,177,464823,0.0-8.60-0.60,1.0,178.0,,,,,,,[],,,,,,53.2,0.0,i,1.0,False,955.8999998569489,58.0,60.0,40.0,False,,235.7236158679925,[],"[768, 432]",ColorTask,71.0,61.0,,,HRV,HRV_0044,2022-11-30 17:58:49
,wl-rdm,178,466840,0.0-8.61-0.61,1.0,179.0,,,,,,,[],,,,,,73.6,1.0,i,1.0,True,691.9000000953674,42.0,60.0,40.0,False,,249.09853776349723,[],"[768, 432]",ColorTask,72.0,62.0,,,HRV,HRV_0044,2022-11-30 17:58:49
,wl-rdm,179,468923,0.0-8.62-0.62,1.0,180.0,,,,,,,[],,,,,,50.0,0.0,u,0.0,True,779.0,47.0,60.0,40.0,False,,231.58918296737608,[],"[768, 432]",ColorTask,73.0,63.0,,,HRV,HRV_0044,2022-11-30 17:58:49
,wl-rdm,180,471106,0.0-8.63-0.63,1.0,181.0,,,,,,,[],,,,,,62.5,1.0,i,1.0,True,723.1000001430511,44.0,60.0,40.0,False,,369.50195987294114,[],"[768, 432]",ColorTask,74.0,64.0,,,HRV,HRV_0044,2022-11-30 17:58:49
,wl-rdm,181,473156,0.0-8.64-0.64,1.0,182.0,,,,,,,[],,,,,,50.0,0.0,i,1.0,False,670.2000000476837,41.0,60.0,40.0,False,,301.2479562677348,[],"[768, 432]",ColorTask,73.0,65.0,,,HRV,HRV_0044,2022-11-30 17:58:49
,wl-rdm,182,475256,0.0-8.65-0.65,1.0,183.0,,,,,,,[],,,,,,56.4,0.0,u,0.0,True,747.8999998569489,45.0,60.0,40.0,False,,296.15991810049854,[],"[768, 432]",ColorTask,74.0,66.0,,,HRV,HRV_0044,2022-11-30 17:58:49
,wl-rdm,183,477422,0.0-8.66-0.66,1.0,184.0,,,,,,,[],,,,,,53.2,0.0,u,0.0,True,818.5999999046326,50.0,60.0,40.0,False,,264.7685923108786,[],"[768, 432]",ColorTask,75.0,67.0,,,HRV,HRV_0044,2022-11-30 17:58:49
,wl-rdm,184,479739,0.0-8.67-0.67,1.0,185.0,,,,,,,[],,,,,,73.6,1.0,i,1.0,True,973.1000001430511,59.0,60.0,40.0,False,,261.27670975353146,[],"[768, 432]",ColorTask,76.0,68.0,,,HRV,HRV_0044,2022-11-30 17:58:49
,wl-rdm,185,482022,0.0-8.68-0.68,1.0,186.0,,,,,,,[],,,,,,56.4,0.0,i,1.0,False,984.5999999046326,60.0,60.0,40.0,False,,216.5276923911854,[],"[768, 432]",ColorTask,75.0,69.0,,,HRV,HRV_0044,2022-11-30 17:58:49
,wl-rdm,186,484055,0.0-8.69-0.69,1.0,187.0,,,,,,,[],,,,,,73.6,0.0,u,0.0,True,713.6000001430511,43.0,60.0,40.0,False,,260.68884950405925,[],"[768, 432]",ColorTask,76.0,70.0,,,HRV,HRV_0044,2022-11-30 17:58:49
,wl-rdm,187,486189,0.0-8.70-0.70,1.0,188.0,,,,,,,[],,,,,,62.5,0.0,u,0.0,True,807.5,49.0,60.0,40.0,False,,256.03384674381255,[],"[768, 432]",ColorTask,77.0,71.0,,,HRV,HRV_0044,2022-11-30 17:58:49
,wl-rdm,188,488206,0.0-8.71-0.71,1.0,189.0,,,,,,,[],,,,,,87.9,0.0,u,0.0,True,721.5,44.0,60.0,40.0,False,,226.5944577714509,[],"[768, 432]",ColorTask,78.0,72.0,,,HRV,HRV_0044,2022-11-30 17:58:49
,wl-rdm,189,490189,0.0-8.72-0.72,1.0,190.0,,,,,,,[],,,,,,87.9,1.0,i,1.0,True,661.5,40.0,60.0,40.0,False,,246.62347419176535,[],"[768, 432]",ColorTask,79.0,73.0,,,HRV,HRV_0044,2022-11-30 17:58:49
,wl-rdm,190,492406,0.0-8.73-0.73,1.0,191.0,,,,,,,[],,,,,,62.5,1.0,i,1.0,True,852.4000000953674,52.0,60.0,40.0,False,,281.00363883333904,[],"[768, 432]",ColorTask,80.0,74.0,,,HRV,HRV_0044,2022-11-30 17:58:49
,wl-rdm,191,494772,0.0-8.74-0.74,1.0,192.0,,,,,,,[],,,,,,56.4,1.0,u,0.0,False,965.7999997138977,58.0,60.0,40.0,False,,318.0408581516105,[],"[768, 432]",ColorTask,79.0,75.0,,,HRV,HRV_0044,2022-11-30 17:58:49
,wl-rdm,192,496838,0.0-8.75-0.75,1.0,193.0,,,,,,,[],,,,,,73.6,1.0,i,1.0,True,759.2999999523163,46.0,60.0,40.0,False,,220.77865560995136,[],"[768, 432]",ColorTask,80.0,76.0,,,HRV,HRV_0044,2022-11-30 17:58:49
,wl-rdm,193,498872,0.0-8.76-0.76,1.0,194.0,,,,,,,[],,,,,,56.4,1.0,i,1.0,True,630.8000001907349,38.0,60.0,40.0,False,,347.87277827142844,[],"[768, 432]",ColorTask,81.0,77.0,,,HRV,HRV_0044,2022-11-30 17:58:49
,wl-rdm,194,501022,0.0-8.77-0.77,1.0,195.0,,,,,,,[],,,,,,73.6,0.0,u,0.0,True,735.7000000476837,45.0,60.0,40.0,False,,319.0635509105608,[],"[768, 432]",ColorTask,82.0,78.0,,,HRV,HRV_0044,2022-11-30 17:58:49
,wl-rdm,195,503221,0.0-8.78-0.78,1.0,196.0,,,,,,,[],,,,,,50.0,1.0,u,0.0,False,868.0,53.0,60.0,40.0,False,,242.58159424428356,[],"[768, 432]",ColorTask,81.0,79.0,,,HRV,HRV_0044,2022-11-30 17:58:49
,wl-rdm,196,505338,0.0-8.79-0.79,1.0,197.0,,,,,,,[],,,,,,62.5,0.0,i,1.0,False,818.2999999523163,50.0,60.0,40.0,False,,226.94911434566035,[],"[768, 432]",ColorTask,80.0,80.0,,,HRV,HRV_0044,2022-11-30 17:58:49
,wl-rdm,197,507521,0.0-8.80-0.80,1.0,198.0,,,,,,,[],,,,,,87.9,1.0,i,1.0,True,770.8000001907349,47.0,60.0,40.0,False,,325.9706689383095,[],"[768, 432]",ColorTask,81.0,81.0,,,HRV,HRV_0044,2022-11-30 17:58:49
,wl-rdm,198,509721,0.0-8.81-0.81,1.0,199.0,,,,,,,[],,,,,,50.0,1.0,i,1.0,True,863.6000001430511,52.0,60.0,40.0,False,,266.21811415041475,[],"[768, 432]",ColorTask,82.0,82.0,,,HRV,HRV_0044,2022-11-30 17:58:49
,wl-rdm,199,511804,0.0-8.82-0.82,1.0,200.0,,,,,,,[],,,,,,73.6,1.0,i,1.0,True,714.4000000953674,43.0,60.0,40.0,False,,315.30516123330506,[],"[768, 432]",ColorTask,83.0,83.0,,,HRV,HRV_0044,2022-11-30 17:58:49
,wl-rdm,200,513971,0.0-8.83-0.83,1.0,201.0,,,,,,,[],,,,,,87.9,0.0,u,0.0,True,756.8999998569489,46.0,60.0,40.0,False,,349.6987473501603,[],"[768, 432]",ColorTask,84.0,84.0,,,HRV,HRV_0044,2022-11-30 17:58:49
,wl-rdm,201,515920,0.0-8.84-0.84,1.0,202.0,,,,,,,[],,,,,,87.9,0.0,u,0.0,True,650.9000000953674,40.0,60.0,40.0,False,,214.71460246729703,[],"[768, 432]",ColorTask,85.0,85.0,,,HRV,HRV_0044,2022-11-30 17:58:49
,wl-rdm,202,518037,0.0-8.85-0.85,1.0,203.0,,,,,,,[],,,,,,53.2,0.0,u,0.0,True,754.7000000476837,46.0,60.0,40.0,False,,277.3436296761857,[],"[768, 432]",ColorTask,86.0,86.0,,,HRV,HRV_0044,2022-11-30 17:58:49
,wl-rdm,203,520137,0.0-8.86-0.86,1.0,204.0,,,,,,,[],,,,,,53.2,0.0,u,0.0,True,775.2999997138977,47.0,60.0,40.0,False,,246.8284317826639,[],"[768, 432]",ColorTask,87.0,87.0,,,HRV,HRV_0044,2022-11-30 17:58:49
,wl-rdm,204,522021,0.0-8.87-0.87,1.0,205.0,,,,,,,[],,,,,,50.0,0.0,i,1.0,False,530.0,32.0,60.0,40.0,False,,267.3187798592196,[],"[768, 432]",ColorTask,86.0,88.0,,,HRV,HRV_0044,2022-11-30 17:58:49
,wl-rdm,205,524020,0.0-8.88-0.88,1.0,206.0,,,,,,,[],,,,,,87.9,1.0,i,1.0,True,618.5,38.0,60.0,40.0,False,,301.1028988145771,[],"[768, 432]",ColorTask,87.0,89.0,,,HRV,HRV_0044,2022-11-30 17:58:49
,wl-rdm,206,526103,0.0-8.89-0.89,1.0,207.0,,,,,,,[],,,,,,53.2,0.0,i,1.0,False,720.6999998092651,44.0,60.0,40.0,False,,285.9767461944778,[],"[768, 432]",ColorTask,86.0,90.0,,,HRV,HRV_0044,2022-11-30 17:58:49
,wl-rdm,207,528153,0.0-8.90-0.90,1.0,208.0,,,,,,,[],,,,,,62.5,1.0,u,0.0,False,708.400000333786,43.0,60.0,40.0,False,,253.07272582639843,[],"[768, 432]",ColorTask,85.0,91.0,,,HRV,HRV_0044,2022-11-30 17:58:49
,wl-rdm,208,530437,0.0-8.91-0.91,1.0,209.0,,,,,,,[],,,,,,53.2,1.0,i,1.0,True,857.2999999523163,52.0,60.0,40.0,False,,353.6116953072212,[],"[768, 432]",ColorTask,86.0,92.0,,,HRV,HRV_0044,2022-11-30 17:58:49
,wl-rdm,209,532503,0.0-8.92-0.92,1.0,210.0,,,,,,,[],,,,,,87.9,1.0,i,1.0,True,618.5,38.0,60.0,40.0,False,,381.8016854934644,[],"[768, 432]",ColorTask,87.0,93.0,,,HRV,HRV_0044,2022-11-30 17:58:49
,wl-rdm,210,534586,0.0-8.93-0.93,1.0,211.0,,,,,,,[],,,,,,87.9,0.0,u,0.0,True,681.0999999046326,41.0,60.0,40.0,False,,348.98503445251225,[],"[768, 432]",ColorTask,88.0,94.0,,,HRV,HRV_0044,2022-11-30 17:58:49
,wl-rdm,211,536836,0.0-8.94-0.94,1.0,212.0,,,,,,,[],,,,,,87.9,1.0,i,1.0,True,938.6000001430511,57.0,60.0,40.0,False,,221.13585452983102,[],"[768, 432]",ColorTask,89.0,95.0,,,HRV,HRV_0044,2022-11-30 17:58:49
,wl-rdm,212,538953,0.0-8.95-0.95,1.0,213.0,,,,,,,[],,,,,,73.6,1.0,i,1.0,True,634.2000000476837,39.0,60.0,40.0,False,,386.00132746734425,[],"[768, 432]",ColorTask,90.0,96.0,,,HRV,HRV_0044,2022-11-30 17:58:49
,wl-rdm,213,541052,0.0-8.96-0.96,1.0,214.0,,,,,,,[],,,,,,53.2,0.0,i,1.0,False,698.0,42.0,60.0,40.0,False,,340.5081300742159,[],"[768, 432]",ColorTask,89.0,97.0,,,HRV,HRV_0044,2022-11-30 17:58:49
,wl-rdm,214,542919,0.0-8.97-0.97,1.0,215.0,,,,,,,[],,,,,,73.6,1.0,i,1.0,True,561.5999999046326,34.0,60.0,40.0,False,,225.845841200249,[],"[768, 432]",ColorTask,90.0,98.0,,,HRV,HRV_0044,2022-11-30 17:58:49
,wl-rdm,215,545074,0.0-8.98-0.98,1.0,216.0,,,,,,,[],,,,,,56.4,0.0,i,1.0,False,779.2000000476837,47.0,60.0,40.0,False,,285.2705677224634,[],"[768, 432]",ColorTask,89.0,99.0,,,HRV,HRV_0044,2022-11-30 17:58:49
,wl-rdm,216,546919,0.0-8.99-0.99,1.0,217.0,,,,,,,[],,,,,,62.5,1.0,i,1.0,True,570.7000000476837,35.0,60.0,40.0,False,,215.3599224684286,[],"[768, 432]",ColorTask,90.0,100.0,,,HRV,HRV_0044,2022-11-30 17:58:49
,wl-rdm,217,548785,0.0-8.100-0.100,1.0,218.0,,,,,,,[],,,,,,53.2,1.0,i,1.0,True,580.7999999523163,35.0,60.0,40.0,False,,202.09591817112906,[],"[768, 432]",ColorTask,91.0,101.0,,,HRV,HRV_0044,2022-11-30 17:58:49
,wl-rdm,218,550902,0.0-8.101-0.101,1.0,219.0,,,,,,,[],,,,,,50.0,1.0,u,0.0,False,774.3999998569489,47.0,60.0,40.0,False,,261.41298848212944,[],"[768, 432]",ColorTask,90.0,102.0,,,HRV,HRV_0044,2022-11-30 17:58:49
,wl-rdm,219,553085,0.0-8.102-0.102,1.0,220.0,,,,,,,[],,,,,,56.4,1.0,u,0.0,False,839.1000001430511,51.0,60.0,40.0,False,,262.4960266005782,[],"[768, 432]",ColorTask,89.0,103.0,,,HRV,HRV_0044,2022-11-30 17:58:49
,wl-rdm,220,555136,0.0-8.103-0.103,1.0,221.0,,,,,,,[],,,,,,73.6,1.0,i,1.0,True,638.3999998569489,39.0,60.0,40.0,False,,321.99464747391414,[],"[768, 432]",ColorTask,90.0,104.0,,,HRV,HRV_0044,2022-11-30 17:58:49
,wl-rdm,221,557118,0.0-8.104-0.104,1.0,222.0,,,,,,,[],,,,,,73.6,0.0,u,0.0,True,623.0,38.0,60.0,40.0,False,,267.0035863282428,[],"[768, 432]",ColorTask,91.0,105.0,,,HRV,HRV_0044,2022-11-30 17:58:49
,wl-rdm,222,559301,0.0-8.105-0.105,1.0,223.0,,,,,,,[],,,,,,50.0,0.0,i,1.0,False,801.2000000476837,49.0,60.0,40.0,False,,286.25552670834816,[],"[768, 432]",ColorTask,90.0,106.0,,,HRV,HRV_0044,2022-11-30 17:58:49
,wl-rdm,223,561285,0.0-8.106-0.106,1.0,224.0,,,,,,,[],,,,,,56.4,1.0,i,1.0,True,571.7000000476837,35.0,60.0,40.0,False,,321.1502948123953,[],"[768, 432]",ColorTask,91.0,107.0,,,HRV,HRV_0044,2022-11-30 17:58:49
,wl-rdm,224,563251,0.0-8.107-0.107,1.0,225.0,,,,,,,[],,,,,,87.9,1.0,i,1.0,True,638.7000000476837,39.0,60.0,40.0,False,,235.3761444637224,[],"[768, 432]",ColorTask,92.0,108.0,,,HRV,HRV_0044,2022-11-30 17:58:49
,wl-html-button-response,225,566326,0.0-9.0-0.0,,,,,,,,,,3072.0999999046326,,0,,,,,,,,,,,,,,,,,,,,<h3>End of this session. Thank you!</h3><br>,['Close window'],HRV,HRV_0044,2022-11-30 17:58:49
