success,trial_type,trial_index,time_elapsed,internal_node_id,Block,TrialNumber,TrialTime,trialTimeDiff,FPS_avg,FPS_med,FPS_mode,TrialDur,winResizeTime,rt,block,button_pressed,MotCoh,MotDir,ColCoh,Color,ChoiceKey,Choice,Accuracy,RT,nFrames,FPS,PPD,missTrial,missTrialMsg,onsetDelay,fullScreenExitTime,canvCenter,TrialType,Score,BlockTrial,stimulus,button_labels,exp,subjectId,date
True,fullscreen,0,1844,0.0-0.0,0.0,1.0,,,,,,,,,,,,,,,,,,,,,,,,,,,,,,,,HRV,HRV_0258,2022-11-30 20:10:04
,wl-check-fps,1,6847,0.0-1.0,0.0,2.0,"[2435.3, 2447.3, 2464.3, 2481.2, 2497.3, 2514.4, 2531.3, 2547.4, 2564.3, 2581.5, 2597.5, 2614.8, 2630.4, 2647.5, 2665.8, 2680.5, 2697.4, 2714, 2731.2, 2747.9, 2764.9, 2780.5, 2797.6, 2814.5, 2830.6, 2847.6, 2864.6, 2881.2, 2898.1, 2914, 2931.1, 2947.9, 2964, 2981.1, 2998.1, 3014, 3031, 3048.1, 3064, 3081.1, 3098, 3114, 3132.4, 3148.8, 3164.7, 3180.6, 3197.3, 3214.3, 3231.3, 3247.4, 3264.1, 3281.2, 3298, 3313.9, 3331.1, 3347.9, 3364.6, 3380.6, 3398.1, 3414.1, 3431.2, 3448.2, 3464.2, 3481.1, 3498.1, 3513.8, 3531.4, 3547.4, 3564.6, 3580.6, 3597.7, 3615.2, 3631.4, 3647.3, 3664.4, 3681.4, 3697.4, 3714.4, 3730.4, 3747.4, 3763.9, 3781, 3797.9, 3815, 3831, 3847.6, 3864.7, 3880.7, 3897.6, 3914.7, 3930.5, 3947.6, 3964.6, 3980.6, 3997.7, 4014.8, 4030.8, 4047.8, 4064.8, 4081.6, 4097.6, 4114.6, 4131.4, 4148.3, 4164.3, 4181.3, 4198.3, 4215.2, 4231.2, 4248.2, 4265.2, 4281.2, 4298.2, 4315.1, 4331.1, 4348.2, 4365.3, 4381.3, 4398.2, 4414.2, 4431.1, 4448.2, 4464.1, 4481, 4497.9, 4513.7, 4530.6, 4547.7, 4563.8, 4581.6, 4598.8, 4613.9, 4631, 4647.2, 4664.2, 4681.4, 4697.8, 4714.7, 4731.5, 4747.9, 4764.4, 4781.3, 4798.3, 4815.3, 4831.3, 4848, 4863.8, 4880.9, 4898, 4915, 4931, 4947.1, 4964.8, 4980.8, 4997.8, 5014.8, 5030.9, 5047.9, 5063.8, 5080.9, 5097.9, 5113.9, 5131, 5147.9, 5163.8, 5181, 5197.1, 5214.2, 5231.3, 5248.3, 5264, 5281.1, 5297.1, 5314.6, 5330.7, 5347.8, 5363.8, 5380.7, 5397.8, 5413.8, 5430.7, 5447.8, 5464.6, 5481.2, 5498.2, 5514.1, 5531.2, 5548.2, 5564.4, 5580.4, 5597.4, 5614.5, 5630.4, 5647.4, 5664.5, 5680.4, 5698.5, 5714.6, 5730.6, 5747.2, 5764.1, 5781.1, 5797.1, 5814.2, 5831.2, 5847.1, 5864.2, 5881.1, 5897.1, 5914.2, 5930.8, 5947.5, 5964.5, 5980.5, 5997.5, 6014.5, 6030.5, 6048.1, 6064.2, 6081.1, 6098, 6113.8, 6131, 6148, 6163.9, 6180.8, 6197.9, 6214.9, 6231.4, 6247.6, 6265.2, 6281.4, 6297.2, 6314.3, 6331.4, 6347.4, 6364.4, 6382.3, 6397.3, 6414.4, 6431.3, 6448.6, 6464.6, 6480.9, 6499, 6514.5, 6531.4, 6547.4, 6563.9, 6580.7, 6597.5, 6614.7, 6631.7, 6647.6, 6664.4, 6680.5, 6697.7, 6714.7, 6731.7, 6748.6, 6764.8, 6780.7, 6797.7, 6814.7, 6830.7, 6847.7, 6864.7, 6880.7, 6898.9, 6914.8, 6930.5, 6947.2, 6964.1, 6981.3, 6998.2, 7014.2, 7031.3, 7047.3, 7064.3, 7081.3, 7097.3, 7114.4, 7131.2, 7148.3, 7164.2, 7181.2, 7197.3, 7214.3, 7231.3, 7248.5, 7264, 7281, 7298, 7314.1, 7331.1, 7347, 7364, 7381.2, 7397.6, 7415.5]","[2, 12, 17, 16.9, 16.1, 17.1, 16.9, 16.1, 16.9, 17.2, 16, 17.3, 15.6, 17.1, 18.3, 14.7, 16.9, 16.6, 17.2, 16.7, 17, 15.6, 17.1, 16.9, 16.1, 17, 17, 16.6, 16.9, 15.9, 17.1, 16.8, 16.1, 17.1, 17, 15.9, 17, 17.1, 15.9, 17.1, 16.9, 16, 18.4, 16.4, 15.9, 15.9, 16.7, 17, 17, 16.1, 16.7, 17.1, 16.8, 15.9, 17.2, 16.8, 16.7, 16, 17.5, 16, 17.1, 17, 16, 16.9, 17, 15.7, 17.6, 16, 17.2, 16, 17.1, 17.5, 16.2, 15.9, 17.1, 17, 16, 17, 16, 17, 16.5, 17.1, 16.9, 17.1, 16, 16.6, 17.1, 16, 16.9, 17.1, 15.8, 17.1, 17, 16, 17.1, 17.1, 16, 17, 17, 16.8, 16, 17, 16.8, 16.9, 16, 17, 17, 16.9, 16, 17, 17, 16, 17, 16.9, 16, 17.1, 17.1, 16, 16.9, 16, 16.9, 17.1, 15.9, 16.9, 16.9, 15.8, 16.9, 17.1, 16.1, 17.8, 17.2, 15.1, 17.1, 16.2, 17, 17.2, 16.4, 16.9, 16.8, 16.4, 16.5, 16.9, 17, 17, 16, 16.7, 15.8, 17.1, 17.1, 17, 16, 16.1, 17.7, 16, 17, 17, 16.1, 17, 15.9, 17.1, 17, 16, 17.1, 16.9, 15.9, 17.2, 16.1, 17.1, 17.1, 17, 15.7, 17.1, 16, 17.5, 16.1, 17.1, 16, 16.9, 17.1, 16, 16.9, 17.1, 16.8, 16.6, 17, 15.9, 17.1, 17, 16.2, 16, 17, 17.1, 15.9, 17, 17.1, 15.9, 18.1, 16.1, 16, 16.6, 16.9, 17, 16, 17.1, 17, 15.9, 17.1, 16.9, 16, 17.1, 16.6, 16.7, 17, 16, 17, 17, 16, 17.6, 16.1, 16.9, 16.9, 15.8, 17.2, 17, 15.9, 16.9, 17.1, 17, 16.5, 16.2, 17.6, 16.2, 15.8, 17.1, 17.1, 16, 17, 17.9, 15, 17.1, 16.9, 17.3, 16, 16.3, 18.1, 15.5, 16.9, 16, 16.5, 16.8, 16.8, 17.2, 17, 15.9, 16.8, 16.1, 17.2, 17, 17, 16.9, 16.2, 15.9, 17, 17, 16, 17, 17, 16, 18.2, 15.9, 15.7, 16.7, 16.9, 17.2, 16.9, 16, 17.1, 16, 17, 17, 16, 17.1, 16.8, 17.1, 15.9, 17, 16.1, 17, 17, 17.2, 15.5, 17, 17, 16.1, 17, 15.9, 17, 17.2, 16.4, 17.9]",60.0,61.0,59.0,4997.1,[],,,,,,,,,,,,,,,,,,,,,,,,,HRV,HRV_0258,2022-11-30 20:10:04
,wl-html-keyboard-response,2,25819,0.0-2.0-0.0,0.0,3.0,,,,,,,,16953.5,0.0,0,,,,,,,,,,,,,,,,,,,,,,HRV,HRV_0258,2022-11-30 20:10:04
,wl-rdm,3,34012,0.0-3.0-0.0,0.0,4.0,,,,,,,[],,,,0.0,0.0,87.9,0.0,u,0.0,True,2595.199999999255,156.0,59.0,40.0,False,,3000.0,[],"[960, 540]",ColorTask_Demo,,,,,HRV,HRV_0258,2022-11-30 20:10:04
,wl-rdm,4,39796,0.0-3.0-1.0,0.0,5.0,,,,,,,[],,,,0.0,0.0,87.9,1.0,i,1.0,True,1714.0,103.0,59.0,40.0,False,,2000.0,[],"[960, 540]",ColorTask_Demo,,,,,HRV,HRV_0258,2022-11-30 20:10:04
,wl-html-keyboard-response,5,44322,0.0-3.0-2.0,0.0,6.0,,,,,,,,2517.7000000001863,0.0,1,,,,,,,,,,,,,,,,,,,,,,HRV,HRV_0258,2022-11-30 20:10:04
,wl-html-keyboard-response,6,53138,0.0-4.0-0.0,0.0,7.0,,,,,,,,6807.0,0.0,0,,,,,,,,,,,,,,,,,,,,,,HRV,HRV_0258,2022-11-30 20:10:04
,wl-html-keyboard-response,7,66277,0.0-5.0-0.0,0.0,8.0,,,,,,,,11119.700000000186,0.0,0,,,,,,,,,,,,,,,,,,,,,,HRV,HRV_0258,2022-11-30 20:10:04
,wl-rdm,8,70661,0.0-6.0-0.0,0.0,8.0,,,,,,,[],,,,,,73.6,1.0,i,,,3486.2000000001863,176.0,59.0,40.0,True,RT_timeout ,273.80186961148274,[],"[960, 540]",ColorTask,-1.0,1.0,,,HRV,HRV_0258,2022-11-30 20:10:04
,wl-rdm,9,74946,0.0-6.1-0.1,0.0,8.0,,,,,,,[],,,,,,73.6,0.0,,,,,176.0,59.0,40.0,True,RT_timeout ,212.14363196859864,[],"[960, 540]",ColorTask,-2.0,2.0,,,HRV,HRV_0258,2022-11-30 20:10:04
,wl-rdm,10,76029,0.0-6.2-0.2,0.0,8.0,,,,,,,[],,,,,,56.4,1.0,u,,,174.0,0.0,59.0,40.0,True,too_early ,346.64422264647715,[],"[960, 540]",ColorTask,-3.0,3.0,,,HRV,HRV_0258,2022-11-30 20:10:04
,wl-rdm,11,80346,0.0-6.3-0.3,0.0,8.0,,,,,,,[],,,,,,87.9,1.0,i,,,3441.4000000003725,176.0,59.0,40.0,True,RT_timeout ,230.75495079619535,[],"[960, 540]",ColorTask,-4.0,4.0,,,HRV,HRV_0258,2022-11-30 20:10:04
,wl-rdm,12,84728,0.0-6.4-0.4,0.0,8.0,,,,,,,[],,,,,,56.4,1.0,i,,,3402.4999999990687,176.0,59.0,40.0,True,RT_timeout ,267.6580665747071,[],"[960, 540]",ColorTask,-5.0,5.0,,,HRV,HRV_0258,2022-11-30 20:10:04
,wl-rdm,13,89162,0.0-6.5-0.5,0.0,8.0,,,,,,,[],,,,,,73.6,1.0,i,,,3345.899999999441,176.0,59.0,40.0,True,RT_timeout ,328.5391414667189,[],"[960, 540]",ColorTask,-6.0,6.0,,,HRV,HRV_0258,2022-11-30 20:10:04
,wl-rdm,14,93511,0.0-6.6-0.6,0.0,8.0,,,,,,,[],,,,,,73.6,1.0,i,,,3442.4999999990687,176.0,59.0,40.0,True,RT_timeout ,264.3041613161885,[],"[960, 540]",ColorTask,-7.0,7.0,,,HRV,HRV_0258,2022-11-30 20:10:04
,wl-rdm,15,97878,0.0-6.7-0.7,0.0,8.0,,,,,,,[],,,,,,56.4,0.0,u,,,3435.5000000009313,176.0,59.0,40.0,True,RT_timeout ,268.1735495202768,[],"[960, 540]",ColorTask,-8.0,8.0,,,HRV,HRV_0258,2022-11-30 20:10:04
,wl-rdm,16,102312,0.0-6.8-0.8,0.0,8.0,,,,,,,[],,,,,,56.4,1.0,i,,,3370.600000000559,176.0,59.0,40.0,True,RT_timeout ,346.63509380899126,[],"[960, 540]",ColorTask,-9.0,9.0,,,HRV,HRV_0258,2022-11-30 20:10:04
,wl-rdm,17,106712,0.0-6.9-0.9,0.0,8.0,,,,,,,[],,,,,,53.2,0.0,,,,,176.0,59.0,40.0,True,RT_timeout warning ,288.6317769265336,[],"[960, 540]",ColorTask,-10.0,10.0,,,HRV,HRV_0258,2022-11-30 20:10:04
,wl-rdm,18,106765,0.0-6.10-0.10,0.0,8.0,,,,,,,[49.299999999813735],,,,,,50.0,1.0,,,,,0.0,59.0,40.0,True,exitFullScreen ,231.21633336915943,[],"[None, None]",ColorTask,-11.0,11.0,,,HRV,HRV_0258,2022-11-30 20:10:04
,wl-rdm,19,112492,0.0-6.11-0.11,0.0,8.0,,,,,,,[],,,,,,87.9,0.0,u,,,72.6000000005588,0.0,59.0,40.0,True,enterFullScreen ,274.0383757148559,[],"[None, None]",ColorTask,-12.0,12.0,,,HRV,HRV_0258,2022-11-30 20:10:04
,wl-rdm,20,113728,0.0-6.12-0.12,0.0,8.0,,,,,,,[],,,,,,50.0,1.0,u,,,684.2999999998137,0.0,59.0,40.0,True,too_early ,236.63095712854957,[],"[960, 540]",ColorTask,-13.0,13.0,,,HRV,HRV_0258,2022-11-30 20:10:04
,wl-rdm,21,118111,0.0-6.13-0.13,0.0,8.0,,,,,,,[],,,,,,53.2,1.0,i,,,3409.199999999255,176.0,59.0,40.0,True,RT_timeout ,297.1620082289919,[],"[960, 540]",ColorTask,-14.0,14.0,,,HRV,HRV_0258,2022-11-30 20:10:04
,wl-rdm,22,122545,0.0-6.14-0.14,0.0,8.0,,,,,,,[],,,,,,87.9,1.0,i,,,3345.7000000011176,176.0,59.0,40.0,True,RT_timeout ,327.9502621360018,[],"[960, 540]",ColorTask,-15.0,15.0,,,HRV,HRV_0258,2022-11-30 20:10:04
,wl-rdm,23,126895,0.0-6.15-0.15,0.0,8.0,,,,,,,[],,,,,,53.2,0.0,u,,,3387.699999999255,176.0,59.0,40.0,True,RT_timeout ,262.67520645354483,[],"[960, 540]",ColorTask,-16.0,16.0,,,HRV,HRV_0258,2022-11-30 20:10:04
,wl-rdm,24,129911,0.0-6.16-0.16,0.0,9.0,,,,,,,[],,,,,,62.5,1.0,i,1.0,True,1677.5000000009313,101.0,59.0,40.0,False,,263.54865730876014,[],"[960, 540]",ColorTask,-15.0,17.0,,,HRV,HRV_0258,2022-11-30 20:10:04
,wl-rdm,25,132994,0.0-6.17-0.17,0.0,10.0,,,,,,,[],,,,,,73.6,0.0,u,0.0,True,1706.0999999996275,103.0,59.0,40.0,False,,306.1946035746295,[],"[960, 540]",ColorTask,-14.0,18.0,,,HRV,HRV_0258,2022-11-30 20:10:04
,wl-rdm,26,135510,0.0-6.18-0.18,0.0,11.0,,,,,,,[],,,,,,56.4,1.0,i,1.0,True,1153.1000000005588,70.0,59.0,40.0,False,,267.2760507323145,[],"[960, 540]",ColorTask,-13.0,19.0,,,HRV,HRV_0258,2022-11-30 20:10:04
,wl-rdm,27,137944,0.0-6.19-0.19,0.0,12.0,,,,,,,[],,,,,,62.5,1.0,i,1.0,True,1042.8999999994412,63.0,59.0,40.0,False,,310.7397706289406,[],"[960, 540]",ColorTask,-12.0,20.0,,,HRV,HRV_0258,2022-11-30 20:10:04
,wl-rdm,28,140194,0.0-6.20-0.20,0.0,13.0,,,,,,,[],,,,,,62.5,1.0,i,1.0,True,973.3000000007451,59.0,59.0,40.0,False,,209.1736063462936,[],"[960, 540]",ColorTask,-11.0,21.0,,,HRV,HRV_0258,2022-11-30 20:10:04
,wl-rdm,29,142628,0.0-6.21-0.21,0.0,14.0,,,,,,,[],,,,,,56.4,1.0,u,0.0,False,1105.2000000001863,67.0,59.0,40.0,False,,260.8399808745954,[],"[960, 540]",ColorTask,-12.0,22.0,,,HRV,HRV_0258,2022-11-30 20:10:04
,wl-rdm,30,144827,0.0-6.22-0.22,0.0,15.0,,,,,,,[],,,,,,56.4,1.0,u,0.0,False,888.8999999994412,54.0,59.0,40.0,False,,234.158471827595,[],"[960, 540]",ColorTask,-13.0,23.0,,,HRV,HRV_0258,2022-11-30 20:10:04
,wl-rdm,31,147210,0.0-6.23-0.23,0.0,16.0,,,,,,,[],,,,,,62.5,0.0,i,1.0,False,981.1999999992549,59.0,59.0,40.0,False,,330.16967369719396,[],"[960, 540]",ColorTask,-14.0,24.0,,,HRV,HRV_0258,2022-11-30 20:10:04
,wl-rdm,32,149361,0.0-6.24-0.24,0.0,17.0,,,,,,,[],,,,,,62.5,0.0,i,1.0,False,683.5,41.0,59.0,40.0,False,,386.6514023054872,[],"[960, 540]",ColorTask,-15.0,25.0,,,HRV,HRV_0258,2022-11-30 20:10:04
,wl-rdm,33,151560,0.0-6.25-0.25,0.0,18.0,,,,,,,[],,,,,,87.9,1.0,i,1.0,True,766.2999999998137,46.0,59.0,40.0,False,,364.45588037850104,[],"[960, 540]",ColorTask,-14.0,26.0,,,HRV,HRV_0258,2022-11-30 20:10:04
,wl-rdm,34,153678,0.0-6.26-0.26,0.0,19.0,,,,,,,[],,,,,,87.9,0.0,u,0.0,True,844.7999999998137,51.0,59.0,40.0,False,,206.28564706345057,[],"[960, 540]",ColorTask,-13.0,27.0,,,HRV,HRV_0258,2022-11-30 20:10:04
,wl-rdm,35,156011,0.0-6.27-0.27,0.0,20.0,,,,,,,[],,,,,,53.2,0.0,u,0.0,True,1006.0,61.0,59.0,40.0,False,,245.9230505105686,[],"[960, 540]",ColorTask,-12.0,28.0,,,HRV,HRV_0258,2022-11-30 20:10:04
,wl-rdm,36,158493,0.0-6.28-0.28,0.0,21.0,,,,,,,[],,,,,,87.9,1.0,i,1.0,True,1111.6000000005588,67.0,59.0,40.0,False,,283.7487693990336,[],"[960, 540]",ColorTask,-11.0,29.0,,,HRV,HRV_0258,2022-11-30 20:10:04
,wl-rdm,37,160677,0.0-6.29-0.29,0.0,22.0,,,,,,,[],,,,,,87.9,0.0,u,0.0,True,836.9999999990687,51.0,59.0,40.0,False,,256.67520346197756,[],"[960, 540]",ColorTask,-10.0,30.0,,,HRV,HRV_0258,2022-11-30 20:10:04
,wl-rdm,38,162744,0.0-6.30-0.30,0.0,23.0,,,,,,,[],,,,,,73.6,0.0,u,0.0,True,767.0999999996275,46.0,59.0,40.0,False,,227.4212875846925,[],"[960, 540]",ColorTask,-9.0,31.0,,,HRV,HRV_0258,2022-11-30 20:10:04
,wl-rdm,39,165444,0.0-6.31-0.31,0.0,24.0,,,,,,,[],,,,,,73.6,1.0,i,1.0,True,1238.0999999996275,75.0,59.0,40.0,False,,391.3584192993133,[],"[960, 540]",ColorTask,-8.0,32.0,,,HRV,HRV_0258,2022-11-30 20:10:04
,wl-rdm,40,168527,0.0-6.32-0.32,0.0,25.0,,,,,,,[],,,,,,56.4,0.0,u,0.0,True,1742.300000000745,105.0,59.0,40.0,False,,273.8093169261239,[],"[960, 540]",ColorTask,-7.0,33.0,,,HRV,HRV_0258,2022-11-30 20:10:04
,wl-rdm,41,171411,0.0-6.33-0.33,0.0,26.0,,,,,,,[],,,,,,56.4,0.0,u,0.0,True,1605.9999999990687,97.0,59.0,40.0,False,,203.38242563453448,[],"[960, 540]",ColorTask,-6.0,34.0,,,HRV,HRV_0258,2022-11-30 20:10:04
,wl-rdm,42,175027,0.0-6.34-0.34,0.0,27.0,,,,,,,[],,,,,,73.6,1.0,i,1.0,True,2255.4999999990687,136.0,59.0,40.0,False,,272.74612921490046,[],"[960, 540]",ColorTask,-5.0,35.0,,,HRV,HRV_0258,2022-11-30 20:10:04
,wl-rdm,43,178127,0.0-6.35-0.35,0.0,28.0,,,,,,,[],,,,,,73.6,1.0,u,0.0,False,1793.2000000001863,108.0,59.0,40.0,False,,229.4857526118099,[],"[960, 540]",ColorTask,-6.0,36.0,,,HRV,HRV_0258,2022-11-30 20:10:04
,wl-rdm,44,181976,0.0-6.36-0.36,0.0,29.0,,,,,,,[],,,,,,62.5,0.0,u,0.0,True,2557.4000000003725,154.0,59.0,40.0,False,,207.92694534612554,[],"[960, 540]",ColorTask,-5.0,37.0,,,HRV,HRV_0258,2022-11-30 20:10:04
,wl-rdm,45,184543,0.0-6.37-0.37,0.0,30.0,,,,,,,[],,,,,,62.5,1.0,i,1.0,True,1201.4000000003725,73.0,59.0,40.0,False,,267.5276651661037,[],"[960, 540]",ColorTask,-4.0,38.0,,,HRV,HRV_0258,2022-11-30 20:10:04
,wl-rdm,46,187160,0.0-6.38-0.38,0.0,31.0,,,,,,,[],,,,,,56.4,0.0,u,0.0,True,1183.2000000001863,71.0,59.0,40.0,False,,361.3703076170161,[],"[960, 540]",ColorTask,-3.0,39.0,,,HRV,HRV_0258,2022-11-30 20:10:04
,wl-rdm,47,189309,0.0-6.39-0.39,0.0,32.0,,,,,,,[],,,,,,73.6,0.0,u,0.0,True,876.7999999988824,53.0,59.0,40.0,False,,207.8382605685318,[],"[960, 540]",ColorTask,-2.0,40.0,,,HRV,HRV_0258,2022-11-30 20:10:04
,wl-rdm,48,191310,0.0-6.40-0.40,0.0,33.0,,,,,,,[],,,,,,62.5,1.0,i,1.0,True,627.0,38.0,59.0,40.0,False,,297.3726069481652,[],"[960, 540]",ColorTask,-1.0,41.0,,,HRV,HRV_0258,2022-11-30 20:10:04
,wl-rdm,49,193876,0.0-6.41-0.41,0.0,34.0,,,,,,,[],,,,,,50.0,0.0,i,1.0,False,1144.9000000003725,69.0,59.0,40.0,False,,355.25203567322535,[],"[960, 540]",ColorTask,-2.0,42.0,,,HRV,HRV_0258,2022-11-30 20:10:04
,wl-rdm,50,195992,0.0-6.42-0.42,0.0,35.0,,,,,,,[],,,,,,50.0,0.0,u,0.0,True,806.6000000005588,49.0,59.0,40.0,False,,244.60518741952734,[],"[960, 540]",ColorTask,-1.0,43.0,,,HRV,HRV_0258,2022-11-30 20:10:04
,wl-rdm,51,198042,0.0-6.43-0.43,0.0,36.0,,,,,,,[],,,,,,62.5,1.0,i,1.0,True,713.0,43.0,59.0,40.0,False,,260.4553133073264,[],"[960, 540]",ColorTask,0.0,44.0,,,HRV,HRV_0258,2022-11-30 20:10:04
,wl-rdm,52,200092,0.0-6.44-0.44,0.0,37.0,,,,,,,[],,,,,,87.9,0.0,u,0.0,True,743.0000000009313,45.0,59.0,40.0,False,,234.32956492006645,[],"[960, 540]",ColorTask,1.0,45.0,,,HRV,HRV_0258,2022-11-30 20:10:04
,wl-rdm,53,202293,0.0-6.45-0.45,0.0,38.0,,,,,,,[],,,,,,50.0,1.0,i,1.0,True,744.2999999998137,45.0,59.0,40.0,False,,389.76443282922384,[],"[960, 540]",ColorTask,2.0,46.0,,,HRV,HRV_0258,2022-11-30 20:10:04
,wl-rdm,54,204693,0.0-6.46-0.46,0.0,39.0,,,,,,,[],,,,,,50.0,0.0,u,0.0,True,943.9000000003725,57.0,59.0,40.0,False,,383.0053761441993,[],"[960, 540]",ColorTask,3.0,47.0,,,HRV,HRV_0258,2022-11-30 20:10:04
,wl-rdm,55,206809,0.0-6.47-0.47,0.0,40.0,,,,,,,[],,,,,,62.5,0.0,u,0.0,True,847.0000000009313,51.0,59.0,40.0,False,,203.22420745633661,[],"[960, 540]",ColorTask,4.0,48.0,,,HRV,HRV_0258,2022-11-30 20:10:04
,wl-rdm,56,209243,0.0-6.48-0.48,0.0,41.0,,,,,,,[],,,,,,50.0,0.0,i,1.0,False,1012.6000000005588,61.0,59.0,40.0,False,,348.94204634324285,[],"[960, 540]",ColorTask,3.0,49.0,,,HRV,HRV_0258,2022-11-30 20:10:04
,wl-rdm,57,211476,0.0-6.49-0.49,0.0,42.0,,,,,,,[],,,,,,50.0,1.0,i,1.0,True,919.8000000007451,56.0,59.0,40.0,False,,238.60485012083348,[],"[960, 540]",ColorTask,4.0,50.0,,,HRV,HRV_0258,2022-11-30 20:10:04
,wl-rdm,58,214442,0.0-6.50-0.50,0.0,43.0,,,,,,,[],,,,,,50.0,1.0,i,1.0,True,1605.1000000005588,97.0,59.0,40.0,False,,281.26695479696093,[],"[960, 540]",ColorTask,5.0,51.0,,,HRV,HRV_0258,2022-11-30 20:10:04
,wl-rdm,59,216475,0.0-6.51-0.51,0.0,44.0,,,,,,,[],,,,,,87.9,1.0,i,1.0,True,744.4999999990687,45.0,59.0,40.0,False,,223.094194159392,[],"[960, 540]",ColorTask,6.0,52.0,,,HRV,HRV_0258,2022-11-30 20:10:04
,wl-rdm,60,218842,0.0-6.52-0.52,0.0,45.0,,,,,,,[],,,,,,50.0,1.0,i,1.0,True,996.2000000001863,60.0,59.0,40.0,False,,283.85211053651756,[],"[960, 540]",ColorTask,7.0,53.0,,,HRV,HRV_0258,2022-11-30 20:10:04
,wl-rdm,61,221659,0.0-6.53-0.53,0.0,46.0,,,,,,,[],,,,,,62.5,0.0,i,1.0,False,1362.5,82.0,59.0,40.0,False,,373.18792539523747,[],"[960, 540]",ColorTask,6.0,54.0,,,HRV,HRV_0258,2022-11-30 20:10:04
,wl-rdm,62,223959,0.0-6.54-0.54,0.0,47.0,,,,,,,[],,,,,,62.5,1.0,i,1.0,True,882.7000000001863,53.0,59.0,40.0,False,,349.66459207396497,[],"[960, 540]",ColorTask,7.0,55.0,,,HRV,HRV_0258,2022-11-30 20:10:04
,wl-rdm,63,226726,0.0-6.55-0.55,0.0,48.0,,,,,,,[],,,,,,73.6,1.0,i,1.0,True,1469.2999999998137,89.0,59.0,40.0,False,,230.05028452194296,[],"[960, 540]",ColorTask,8.0,56.0,,,HRV,HRV_0258,2022-11-30 20:10:04
,wl-rdm,64,228826,0.0-6.56-0.56,0.0,49.0,,,,,,,[],,,,,,62.5,1.0,i,1.0,True,821.2999999998137,50.0,59.0,40.0,False,,217.65522291081865,[],"[960, 540]",ColorTask,9.0,57.0,,,HRV,HRV_0258,2022-11-30 20:10:04
,wl-rdm,65,231859,0.0-6.57-0.57,0.0,50.0,,,,,,,[],,,,,,87.9,0.0,u,0.0,True,1728.9999999990687,104.0,59.0,40.0,False,,229.5582576620374,[],"[960, 540]",ColorTask,10.0,58.0,,,HRV,HRV_0258,2022-11-30 20:10:04
,wl-rdm,66,234175,0.0-6.58-0.58,0.0,51.0,,,,,,,[],,,,,,62.5,0.0,u,0.0,True,899.3999999994412,54.0,59.0,40.0,False,,338.64338569918465,[],"[960, 540]",ColorTask,11.0,59.0,,,HRV,HRV_0258,2022-11-30 20:10:04
,wl-rdm,67,236242,0.0-6.59-0.59,0.0,52.0,,,,,,,[],,,,,,50.0,0.0,i,1.0,False,779.5,47.0,59.0,40.0,False,,214.29513719434777,[],"[960, 540]",ColorTask,10.0,60.0,,,HRV,HRV_0258,2022-11-30 20:10:04
,wl-rdm,68,238226,0.0-6.60-0.60,0.0,53.0,,,,,,,[],,,,,,73.6,1.0,i,1.0,True,688.7000000001863,42.0,59.0,40.0,False,,219.14329957151796,[],"[960, 540]",ColorTask,11.0,61.0,,,HRV,HRV_0258,2022-11-30 20:10:04
,wl-rdm,69,240576,0.0-6.61-0.61,0.0,54.0,,,,,,,[],,,,,,56.4,1.0,i,1.0,True,1049.0000000009313,63.0,59.0,40.0,False,,218.41470783180847,[],"[960, 540]",ColorTask,12.0,62.0,,,HRV,HRV_0258,2022-11-30 20:10:04
,wl-rdm,70,243143,0.0-6.62-0.62,0.0,55.0,,,,,,,[],,,,,,56.4,0.0,i,1.0,False,1235.7000000001863,75.0,59.0,40.0,False,,264.596631579656,[],"[960, 540]",ColorTask,11.0,63.0,,,HRV,HRV_0258,2022-11-30 20:10:04
,wl-rdm,71,245676,0.0-6.63-0.63,0.0,56.0,,,,,,,[],,,,,,73.6,1.0,i,1.0,True,1170.5,71.0,59.0,40.0,False,,282.34167461736484,[],"[960, 540]",ColorTask,12.0,64.0,,,HRV,HRV_0258,2022-11-30 20:10:04
,wl-rdm,72,247859,0.0-6.64-0.64,0.0,57.0,,,,,,,[],,,,,,53.2,0.0,u,0.0,True,871.0,53.0,59.0,40.0,False,,231.34759127909663,[],"[960, 540]",ColorTask,13.0,65.0,,,HRV,HRV_0258,2022-11-30 20:10:04
,wl-rdm,73,250693,0.0-6.65-0.65,0.0,58.0,,,,,,,[],,,,,,53.2,0.0,u,0.0,True,1411.6000000005588,85.0,59.0,40.0,False,,335.5250458645411,[],"[960, 540]",ColorTask,14.0,66.0,,,HRV,HRV_0258,2022-11-30 20:10:04
,wl-rdm,74,252959,0.0-6.66-0.66,0.0,59.0,,,,,,,[],,,,,,53.2,1.0,i,1.0,True,901.6000000005588,55.0,59.0,40.0,False,,277.30462850168925,[],"[960, 540]",ColorTask,15.0,67.0,,,HRV,HRV_0258,2022-11-30 20:10:04
,wl-rdm,75,255325,0.0-6.67-0.67,0.0,60.0,,,,,,,[],,,,,,50.0,0.0,u,0.0,True,918.7999999988824,56.0,59.0,40.0,False,,362.0147228079929,[],"[960, 540]",ColorTask,16.0,68.0,,,HRV,HRV_0258,2022-11-30 20:10:04
,wl-rdm,76,257842,0.0-6.68-0.68,0.0,61.0,,,,,,,[],,,,,,50.0,0.0,u,0.0,True,1196.8999999994412,72.0,59.0,40.0,False,,237.7458698604948,[],"[960, 540]",ColorTask,17.0,69.0,,,HRV,HRV_0258,2022-11-30 20:10:04
,wl-rdm,77,261042,0.0-6.69-0.69,0.0,62.0,,,,,,,[],,,,,,53.2,1.0,u,0.0,False,1796.2999999988824,108.0,59.0,40.0,False,,332.66690576614064,[],"[960, 540]",ColorTask,16.0,70.0,,,HRV,HRV_0258,2022-11-30 20:10:04
,wl-rdm,78,263226,0.0-6.70-0.70,0.0,63.0,,,,,,,[],,,,,,50.0,1.0,u,0.0,False,888.7999999998137,54.0,59.0,40.0,False,,202.71408065147386,[],"[960, 540]",ColorTask,15.0,71.0,,,HRV,HRV_0258,2022-11-30 20:10:04
,wl-rdm,79,265476,0.0-6.71-0.71,0.0,64.0,,,,,,,[],,,,,,50.0,1.0,i,1.0,True,936.2000000001863,57.0,59.0,40.0,False,,247.40796727681385,[],"[960, 540]",ColorTask,16.0,72.0,,,HRV,HRV_0258,2022-11-30 20:10:04
,wl-rdm,80,268009,0.0-6.72-0.72,0.0,65.0,,,,,,,[],,,,,,87.9,0.0,u,0.0,True,1263.7999999988824,76.0,59.0,40.0,False,,213.8382937871694,[],"[960, 540]",ColorTask,17.0,73.0,,,HRV,HRV_0258,2022-11-30 20:10:04
,wl-rdm,81,270375,0.0-6.73-0.73,0.0,66.0,,,,,,,[],,,,,,62.5,0.0,i,1.0,False,1064.800000000745,64.0,59.0,40.0,False,,238.49602364481723,[],"[960, 540]",ColorTask,16.0,74.0,,,HRV,HRV_0258,2022-11-30 20:10:04
,wl-rdm,82,272909,0.0-6.74-0.74,0.0,67.0,,,,,,,[],,,,,,53.2,0.0,u,0.0,True,1086.0999999996275,66.0,59.0,40.0,False,,371.1136794721954,[],"[960, 540]",ColorTask,17.0,75.0,,,HRV,HRV_0258,2022-11-30 20:10:04
,wl-rdm,83,275792,0.0-6.75-0.75,0.0,68.0,,,,,,,[],,,,,,50.0,1.0,u,0.0,False,1557.5,94.0,59.0,40.0,False,,236.37225499147823,[],"[960, 540]",ColorTask,16.0,76.0,,,HRV,HRV_0258,2022-11-30 20:10:04
,wl-rdm,84,278458,0.0-6.76-0.76,0.0,69.0,,,,,,,[],,,,,,87.9,1.0,i,1.0,True,1295.5999999996275,78.0,59.0,40.0,False,,285.59190233930804,[],"[960, 540]",ColorTask,17.0,77.0,,,HRV,HRV_0258,2022-11-30 20:10:04
,wl-rdm,85,281759,0.0-6.77-0.77,0.0,70.0,,,,,,,[],,,,,,53.2,0.0,u,0.0,True,1933.1000000005588,116.0,59.0,40.0,False,,288.36201226035104,[],"[960, 540]",ColorTask,18.0,78.0,,,HRV,HRV_0258,2022-11-30 20:10:04
,wl-rdm,86,284758,0.0-6.78-0.78,0.0,71.0,,,,,,,[],,,,,,53.2,1.0,u,0.0,False,1599.8999999994412,96.0,59.0,40.0,False,,328.9340766513452,[],"[960, 540]",ColorTask,17.0,79.0,,,HRV,HRV_0258,2022-11-30 20:10:04
,wl-rdm,87,287409,0.0-6.79-0.79,0.0,72.0,,,,,,,[],,,,,,73.6,0.0,u,0.0,True,1355.4000000003725,82.0,59.0,40.0,False,,217.919580179817,[],"[960, 540]",ColorTask,18.0,80.0,,,HRV,HRV_0258,2022-11-30 20:10:04
,wl-rdm,88,289525,0.0-6.80-0.80,0.0,73.0,,,,,,,[],,,,,,56.4,1.0,i,1.0,True,826.5,50.0,59.0,40.0,False,,204.14935963598765,[],"[960, 540]",ColorTask,19.0,81.0,,,HRV,HRV_0258,2022-11-30 20:10:04
,wl-rdm,89,291692,0.0-6.81-0.81,0.0,74.0,,,,,,,[],,,,,,53.2,1.0,i,1.0,True,861.0999999996275,52.0,59.0,40.0,False,,217.74569254304356,[],"[960, 540]",ColorTask,20.0,82.0,,,HRV,HRV_0258,2022-11-30 20:10:04
,wl-rdm,90,293892,0.0-6.82-0.82,0.0,75.0,,,,,,,[],,,,,,87.9,0.0,u,0.0,True,877.5,53.0,59.0,40.0,False,,235.86801212921353,[],"[960, 540]",ColorTask,21.0,83.0,,,HRV,HRV_0258,2022-11-30 20:10:04
,wl-rdm,91,295892,0.0-6.83-0.83,0.0,76.0,,,,,,,[],,,,,,87.9,1.0,i,1.0,True,693.1999999992549,42.0,59.0,40.0,False,,249.23011364941053,[],"[960, 540]",ColorTask,22.0,84.0,,,HRV,HRV_0258,2022-11-30 20:10:04
,wl-rdm,92,298292,0.0-6.84-0.84,0.0,77.0,,,,,,,[],,,,,,56.4,1.0,i,1.0,True,1052.7000000001863,64.0,59.0,40.0,False,,254.89549160488465,[],"[960, 540]",ColorTask,23.0,85.0,,,HRV,HRV_0258,2022-11-30 20:10:04
,wl-rdm,93,300726,0.0-6.85-0.85,0.0,78.0,,,,,,,[],,,,,,56.4,0.0,u,0.0,True,1136.5,69.0,59.0,40.0,False,,219.136147976269,[],"[960, 540]",ColorTask,24.0,86.0,,,HRV,HRV_0258,2022-11-30 20:10:04
,wl-rdm,94,302925,0.0-6.86-0.86,0.0,79.0,,,,,,,[],,,,,,87.9,1.0,i,1.0,True,875.7999999998137,53.0,59.0,40.0,False,,262.182677564152,[],"[960, 540]",ColorTask,25.0,87.0,,,HRV,HRV_0258,2022-11-30 20:10:04
,wl-rdm,95,304908,0.0-6.87-0.87,0.0,80.0,,,,,,,[],,,,,,87.9,0.0,u,0.0,True,693.3999999994412,42.0,59.0,40.0,False,,210.37940001353292,[],"[960, 540]",ColorTask,26.0,88.0,,,HRV,HRV_0258,2022-11-30 20:10:04
,wl-rdm,96,307375,0.0-6.88-0.88,0.0,81.0,,,,,,,[],,,,,,53.2,1.0,u,0.0,False,1149.0999999996275,69.0,59.0,40.0,False,,234.3490296685376,[],"[960, 540]",ColorTask,25.0,89.0,,,HRV,HRV_0258,2022-11-30 20:10:04
,wl-rdm,97,309592,0.0-6.89-0.89,0.0,82.0,,,,,,,[],,,,,,56.4,1.0,i,1.0,True,948.1999999992549,57.0,59.0,40.0,False,,213.09039896238613,[],"[960, 540]",ColorTask,26.0,90.0,,,HRV,HRV_0258,2022-11-30 20:10:04
,wl-rdm,98,311925,0.0-6.90-0.90,0.0,83.0,,,,,,,[],,,,,,62.5,1.0,u,0.0,False,986.2999999998137,60.0,59.0,40.0,False,,253.54460593604966,[],"[960, 540]",ColorTask,25.0,91.0,,,HRV,HRV_0258,2022-11-30 20:10:04
,wl-rdm,99,314275,0.0-6.91-0.91,0.0,84.0,,,,,,,[],,,,,,62.5,0.0,u,0.0,True,1036.7000000011176,63.0,59.0,40.0,False,,239.10941755080194,[],"[960, 540]",ColorTask,26.0,92.0,,,HRV,HRV_0258,2022-11-30 20:10:04
,wl-rdm,100,316658,0.0-6.92-0.92,0.0,85.0,,,,,,,[],,,,,,73.6,1.0,i,1.0,True,1019.0999999996275,62.0,59.0,40.0,False,,289.7528046720024,[],"[960, 540]",ColorTask,27.0,93.0,,,HRV,HRV_0258,2022-11-30 20:10:04
,wl-rdm,101,319208,0.0-6.93-0.93,0.0,86.0,,,,,,,[],,,,,,53.2,0.0,u,0.0,True,1172.9999999990687,71.0,59.0,40.0,False,,283.5972140399392,[],"[960, 540]",ColorTask,28.0,94.0,,,HRV,HRV_0258,2022-11-30 20:10:04
,wl-rdm,102,321559,0.0-6.94-0.94,0.0,87.0,,,,,,,[],,,,,,56.4,0.0,i,1.0,False,1049.2000000011176,63.0,59.0,40.0,False,,233.42756349612804,[],"[960, 540]",ColorTask,27.0,95.0,,,HRV,HRV_0258,2022-11-30 20:10:04
,wl-rdm,103,324558,0.0-6.95-0.95,0.0,88.0,,,,,,,[],,,,,,50.0,0.0,i,1.0,False,1649.4000000003725,99.0,59.0,40.0,False,,274.3795528453509,[],"[960, 540]",ColorTask,26.0,96.0,,,HRV,HRV_0258,2022-11-30 20:10:04
,wl-rdm,104,326624,0.0-6.96-0.96,0.0,89.0,,,,,,,[],,,,,,87.9,1.0,i,1.0,True,746.0999999996275,45.0,59.0,40.0,False,,260.5133806754172,[],"[960, 540]",ColorTask,27.0,97.0,,,HRV,HRV_0258,2022-11-30 20:10:04
,wl-rdm,105,329242,0.0-6.97-0.97,0.0,90.0,,,,,,,[],,,,,,56.4,0.0,i,1.0,False,1247.0000000009313,75.0,59.0,40.0,False,,299.16160566122915,[],"[960, 540]",ColorTask,26.0,98.0,,,HRV,HRV_0258,2022-11-30 20:10:04
,wl-rdm,106,331541,0.0-6.98-0.98,0.0,91.0,,,,,,,[],,,,,,73.6,1.0,i,1.0,True,974.9000000003725,59.0,59.0,40.0,False,,260.22993499243006,[],"[960, 540]",ColorTask,27.0,99.0,,,HRV,HRV_0258,2022-11-30 20:10:04
,wl-rdm,107,333741,0.0-6.99-0.99,0.0,92.0,,,,,,,[],,,,,,87.9,1.0,i,1.0,True,816.2000000001863,49.0,59.0,40.0,False,,330.96677519783907,[],"[960, 540]",ColorTask,28.0,100.0,,,HRV,HRV_0258,2022-11-30 20:10:04
,wl-rdm,108,335892,0.0-6.100-0.100,0.0,93.0,,,,,,,[],,,,,,53.2,0.0,u,0.0,True,836.2000000001863,51.0,59.0,40.0,False,,248.0722144617189,[],"[960, 540]",ColorTask,29.0,101.0,,,HRV,HRV_0258,2022-11-30 20:10:04
,wl-rdm,109,338374,0.0-6.101-0.101,0.0,94.0,,,,,,,[],,,,,,56.4,1.0,u,0.0,False,1073.9000000003725,65.0,59.0,40.0,False,,319.9757008477304,[],"[960, 540]",ColorTask,28.0,102.0,,,HRV,HRV_0258,2022-11-30 20:10:04
,wl-rdm,110,341624,0.0-6.102-0.102,0.0,95.0,,,,,,,[],,,,,,73.6,0.0,i,1.0,False,1822.5,110.0,59.0,40.0,False,,362.7251304832125,[],"[960, 540]",ColorTask,27.0,103.0,,,HRV,HRV_0258,2022-11-30 20:10:04
,wl-rdm,111,343758,0.0-6.103-0.103,0.0,96.0,,,,,,,[],,,,,,87.9,0.0,u,0.0,True,750.0999999996275,45.0,59.0,40.0,False,,314.92544466362426,[],"[960, 540]",ColorTask,28.0,104.0,,,HRV,HRV_0258,2022-11-30 20:10:04
,wl-rdm,112,346058,0.0-6.104-0.104,0.0,97.0,,,,,,,[],,,,,,87.9,1.0,i,1.0,True,928.8999999994412,56.0,59.0,40.0,False,,300.05063493573914,[],"[960, 540]",ColorTask,29.0,105.0,,,HRV,HRV_0258,2022-11-30 20:10:04
,wl-rdm,113,348508,0.0-6.105-0.105,0.0,98.0,,,,,,,[],,,,,,50.0,1.0,i,1.0,True,1042.7999999998137,63.0,59.0,40.0,False,,323.2748568372962,[],"[960, 540]",ColorTask,30.0,106.0,,,HRV,HRV_0258,2022-11-30 20:10:04
,wl-rdm,114,350592,0.0-6.106-0.106,0.0,99.0,,,,,,,[],,,,,,50.0,0.0,u,0.0,True,798.7999999998137,48.0,59.0,40.0,False,,212.74564124116904,[],"[960, 540]",ColorTask,31.0,107.0,,,HRV,HRV_0258,2022-11-30 20:10:04
,wl-rdm,115,352708,0.0-6.107-0.107,0.0,100.0,,,,,,,[],,,,,,73.6,0.0,u,0.0,True,760.7999999998137,46.0,59.0,40.0,False,,270.5350786949478,[],"[960, 540]",ColorTask,32.0,108.0,,,HRV,HRV_0258,2022-11-30 20:10:04
,wl-rdm,116,355158,0.0-6.108-0.108,0.0,101.0,,,,,,,[],,,,,,73.6,0.0,u,0.0,True,1149.1000000005588,69.0,59.0,40.0,False,,234.6873962681687,[],"[960, 540]",ColorTask,33.0,109.0,,,HRV,HRV_0258,2022-11-30 20:10:04
,wl-rdm,117,357425,0.0-6.109-0.109,0.0,102.0,,,,,,,[],,,,,,53.2,1.0,i,1.0,True,946.6999999992549,57.0,59.0,40.0,False,,235.3028854963234,[],"[960, 540]",ColorTask,34.0,110.0,,,HRV,HRV_0258,2022-11-30 20:10:04
,wl-rdm,118,359958,0.0-6.110-0.110,0.0,103.0,,,,,,,[],,,,,,87.9,0.0,u,0.0,True,1085.0999999996275,66.0,59.0,40.0,False,,360.8846871149933,[],"[960, 540]",ColorTask,35.0,111.0,,,HRV,HRV_0258,2022-11-30 20:10:04
,wl-rdm,119,362275,0.0-6.111-0.111,0.0,104.0,,,,,,,[],,,,,,56.4,1.0,i,1.0,True,978.1000000005588,59.0,59.0,40.0,False,,252.31553742050048,[],"[960, 540]",ColorTask,36.0,112.0,,,HRV,HRV_0258,2022-11-30 20:10:04
,wl-rdm,120,364608,0.0-6.112-0.112,0.0,105.0,,,,,,,[],,,,,,53.2,0.0,i,1.0,False,923.8000000007451,56.0,59.0,40.0,False,,329.6808749333294,[],"[960, 540]",ColorTask,35.0,113.0,,,HRV,HRV_0258,2022-11-30 20:10:04
,wl-rdm,121,366558,0.0-6.113-0.113,0.0,106.0,,,,,,,[],,,,,,73.6,0.0,u,0.0,True,658.2000000001863,40.0,59.0,40.0,False,,207.93005647670722,[],"[960, 540]",ColorTask,36.0,114.0,,,HRV,HRV_0258,2022-11-30 20:10:04
,wl-rdm,122,368624,0.0-6.114-0.114,0.0,107.0,,,,,,,[],,,,,,53.2,0.0,i,1.0,False,754.9000000003725,46.0,59.0,40.0,False,,242.78233937067412,[],"[960, 540]",ColorTask,35.0,115.0,,,HRV,HRV_0258,2022-11-30 20:10:04
,wl-rdm,123,370925,0.0-6.115-0.115,0.0,108.0,,,,,,,[],,,,,,53.2,1.0,u,0.0,False,951.9000000003725,58.0,59.0,40.0,False,,278.33566541639107,[],"[960, 540]",ColorTask,34.0,116.0,,,HRV,HRV_0258,2022-11-30 20:10:04
,wl-rdm,124,373575,0.0-6.116-0.116,0.0,109.0,,,,,,,[],,,,,,56.4,0.0,u,0.0,True,1349.4999999990687,81.0,59.0,40.0,False,,232.28141227245774,[],"[960, 540]",ColorTask,35.0,117.0,,,HRV,HRV_0258,2022-11-30 20:10:04
,wl-rdm,125,375957,0.0-6.117-0.117,0.0,110.0,,,,,,,[],,,,,,73.6,0.0,u,0.0,True,1052.5999999996275,64.0,59.0,40.0,False,,243.60638010568812,[],"[960, 540]",ColorTask,36.0,118.0,,,HRV,HRV_0258,2022-11-30 20:10:04
,wl-rdm,126,378558,0.0-6.118-0.118,0.0,111.0,,,,,,,[],,,,,,73.6,1.0,i,1.0,True,1258.9999999990687,76.0,59.0,40.0,False,,256.05197899240034,[],"[960, 540]",ColorTask,37.0,119.0,,,HRV,HRV_0258,2022-11-30 20:10:04
,wl-rdm,127,380974,0.0-6.119-0.119,0.0,112.0,,,,,,,[],,,,,,56.4,0.0,i,1.0,False,998.8000000007451,60.0,59.0,40.0,False,,351.55076758756115,[],"[960, 540]",ColorTask,36.0,120.0,,,HRV,HRV_0258,2022-11-30 20:10:04
,wl-rdm,128,384792,0.0-6.120-0.120,0.0,113.0,,,,,,,[],,,,,,50.0,1.0,u,0.0,False,2514.0999999996275,151.0,59.0,40.0,False,,235.92701627630953,[],"[960, 540]",ColorTask,35.0,121.0,,,HRV,HRV_0258,2022-11-30 20:10:04
,wl-rdm,129,387507,0.0-6.121-0.121,0.0,114.0,,,,,,,[],,,,,,53.2,1.0,u,0.0,False,1436.1000000005588,87.0,59.0,40.0,False,,212.99639071534975,[],"[960, 540]",ColorTask,34.0,122.0,,,HRV,HRV_0258,2022-11-30 20:10:04
,wl-rdm,130,390058,0.0-6.122-0.122,0.0,115.0,,,,,,,[],,,,,,62.5,0.0,u,0.0,True,1270.7999999998137,77.0,59.0,40.0,False,,214.59250773284913,[],"[960, 540]",ColorTask,35.0,123.0,,,HRV,HRV_0258,2022-11-30 20:10:04
,wl-rdm,131,392691,0.0-6.123-0.123,0.0,116.0,,,,,,,[],,,,,,53.2,1.0,i,1.0,True,1252.1000000005588,76.0,59.0,40.0,False,,315.5415514342974,[],"[960, 540]",ColorTask,36.0,124.0,,,HRV,HRV_0258,2022-11-30 20:10:04
,wl-html-keyboard-response,132,739891,0.0-7.0-0.0,1.0,117.0,,,,,,,,345188.4000000004,1.0,0,,,,,,,,,,,,,,,,,,,,,,HRV,HRV_0258,2022-11-30 20:10:04
,wl-rdm,133,743487,0.0-8.0-0.0,1.0,118.0,,,,,,,[],,,,,,62.5,1.0,i,1.0,True,2303.0999999996275,139.0,59.0,40.0,False,,207.82630159584863,[],"[960, 540]",ColorTask,37.0,1.0,,,HRV,HRV_0258,2022-11-30 20:10:04
,wl-rdm,134,745703,0.0-8.1-0.1,1.0,119.0,,,,,,,[],,,,,,87.9,1.0,i,1.0,True,926.1999999992549,56.0,59.0,40.0,False,,219.5621583890238,[],"[960, 540]",ColorTask,38.0,2.0,,,HRV,HRV_0258,2022-11-30 20:10:04
,wl-rdm,135,748520,0.0-8.2-0.2,1.0,120.0,,,,,,,[],,,,,,53.2,0.0,i,1.0,False,1417.9000000003725,86.0,59.0,40.0,False,,308.2949805361883,[],"[960, 540]",ColorTask,37.0,3.0,,,HRV,HRV_0258,2022-11-30 20:10:04
,wl-rdm,136,751370,0.0-8.3-0.3,1.0,121.0,,,,,,,[],,,,,,50.0,0.0,i,1.0,False,1548.7999999988824,93.0,59.0,40.0,False,,229.30260378361223,[],"[960, 540]",ColorTask,36.0,4.0,,,HRV,HRV_0258,2022-11-30 20:10:04
,wl-rdm,137,755852,0.0-8.4-0.4,1.0,121.0,,,,,,,[],,,,,,53.2,1.0,i,,,3102.0,176.0,59.0,40.0,True,RT_timeout ,372.58718463546575,[],"[960, 540]",ColorTask,35.0,5.0,,,HRV,HRV_0258,2022-11-30 20:10:04
,wl-rdm,138,758053,0.0-8.5-0.5,1.0,122.0,,,,,,,[],,,,,,87.9,1.0,i,1.0,True,904.9000000003725,55.0,59.0,40.0,False,,224.7824086208072,[],"[960, 540]",ColorTask,36.0,6.0,,,HRV,HRV_0258,2022-11-30 20:10:04
,wl-rdm,139,760069,0.0-8.6-0.6,1.0,123.0,,,,,,,[],,,,,,53.2,1.0,i,1.0,True,662.5999999996275,40.0,59.0,40.0,False,,268.93608642586184,[],"[960, 540]",ColorTask,37.0,7.0,,,HRV,HRV_0258,2022-11-30 20:10:04
,wl-rdm,140,762853,0.0-8.7-0.7,1.0,124.0,,,,,,,[],,,,,,62.5,1.0,i,1.0,True,1454.0999999996275,88.0,59.0,40.0,False,,235.37949329118857,[],"[960, 540]",ColorTask,38.0,8.0,,,HRV,HRV_0258,2022-11-30 20:10:04
,wl-rdm,141,767169,0.0-8.8-0.8,1.0,124.0,,,,,,,[],,,,,,87.9,0.0,,,,,176.0,59.0,40.0,True,RT_timeout ,241.30471430846606,[],"[960, 540]",ColorTask,37.0,9.0,,,HRV,HRV_0258,2022-11-30 20:10:04
,wl-rdm,142,769369,0.0-8.9-0.9,1.0,125.0,,,,,,,[],,,,,,50.0,1.0,i,1.0,True,865.5000000009313,52.0,59.0,40.0,False,,272.8892097317615,[],"[960, 540]",ColorTask,38.0,10.0,,,HRV,HRV_0258,2022-11-30 20:10:04
,wl-rdm,143,772269,0.0-8.10-0.10,1.0,126.0,,,,,,,[],,,,,,53.2,1.0,i,1.0,True,1604.1000000005588,97.0,59.0,40.0,False,,203.0396796268386,[],"[960, 540]",ColorTask,39.0,11.0,,,HRV,HRV_0258,2022-11-30 20:10:04
,wl-rdm,144,774236,0.0-8.11-0.11,1.0,127.0,,,,,,,[],,,,,,87.9,1.0,i,1.0,True,696.4000000003725,42.0,59.0,40.0,False,,215.9200601631083,[],"[960, 540]",ColorTask,40.0,12.0,,,HRV,HRV_0258,2022-11-30 20:10:04
,wl-rdm,145,777269,0.0-8.12-0.12,1.0,128.0,,,,,,,[],,,,,,56.4,0.0,u,0.0,True,1595.5,96.0,59.0,40.0,False,,357.1951927283711,[],"[960, 540]",ColorTask,41.0,13.0,,,HRV,HRV_0258,2022-11-30 20:10:04
,wl-rdm,146,779619,0.0-8.13-0.13,1.0,129.0,,,,,,,[],,,,,,56.4,1.0,i,1.0,True,979.9000000003725,59.0,59.0,40.0,False,,298.14772208379253,[],"[960, 540]",ColorTask,42.0,14.0,,,HRV,HRV_0258,2022-11-30 20:10:04
,wl-rdm,147,782719,0.0-8.14-0.14,1.0,130.0,,,,,,,[],,,,,,50.0,0.0,i,1.0,False,1743.9000000003725,105.0,59.0,40.0,False,,271.38062594554117,[],"[960, 540]",ColorTask,41.0,15.0,,,HRV,HRV_0258,2022-11-30 20:10:04
,wl-rdm,148,784985,0.0-8.15-0.15,1.0,131.0,,,,,,,[],,,,,,50.0,0.0,i,1.0,False,798.2999999998137,48.0,59.0,40.0,False,,384.7461625805148,[],"[960, 540]",ColorTask,40.0,16.0,,,HRV,HRV_0258,2022-11-30 20:10:04
,wl-rdm,149,787519,0.0-8.16-0.16,1.0,132.0,,,,,,,[],,,,,,73.6,1.0,i,1.0,True,1169.2999999998137,71.0,59.0,40.0,False,,294.8170894993112,[],"[960, 540]",ColorTask,41.0,17.0,,,HRV,HRV_0258,2022-11-30 20:10:04
,wl-rdm,150,790536,0.0-8.17-0.17,1.0,133.0,,,,,,,[],,,,,,87.9,0.0,u,0.0,True,1535.199999999255,93.0,59.0,40.0,False,,395.33152659500854,[],"[960, 540]",ColorTask,42.0,18.0,,,HRV,HRV_0258,2022-11-30 20:10:04
,wl-rdm,151,792836,0.0-8.18-0.18,1.0,134.0,,,,,,,[],,,,,,73.6,1.0,i,1.0,True,888.0000000009313,54.0,59.0,40.0,False,,337.28378639914934,[],"[960, 540]",ColorTask,43.0,19.0,,,HRV,HRV_0258,2022-11-30 20:10:04
,wl-rdm,152,795169,0.0-8.19-0.19,1.0,135.0,,,,,,,[],,,,,,87.9,0.0,i,1.0,False,1040.199999999255,63.0,59.0,40.0,False,,229.42356545067122,[],"[960, 540]",ColorTask,42.0,20.0,,,HRV,HRV_0258,2022-11-30 20:10:04
,wl-rdm,153,797636,0.0-8.20-0.20,1.0,136.0,,,,,,,[],,,,,,53.2,1.0,i,1.0,True,1130.0999999996275,68.0,59.0,40.0,False,,256.95206342227215,[],"[960, 540]",ColorTask,43.0,21.0,,,HRV,HRV_0258,2022-11-30 20:10:04
,wl-rdm,154,800719,0.0-8.21-0.21,1.0,137.0,,,,,,,[],,,,,,87.9,1.0,i,1.0,True,1684.8999999994412,102.0,59.0,40.0,False,,310.56859573217645,[],"[960, 540]",ColorTask,44.0,22.0,,,HRV,HRV_0258,2022-11-30 20:10:04
,wl-rdm,155,802985,0.0-8.22-0.22,1.0,138.0,,,,,,,[],,,,,,73.6,1.0,i,1.0,True,857.6000000005588,52.0,59.0,40.0,False,,329.6100846397219,[],"[960, 540]",ColorTask,45.0,23.0,,,HRV,HRV_0258,2022-11-30 20:10:04
,wl-rdm,156,805052,0.0-8.23-0.23,1.0,139.0,,,,,,,[],,,,,,62.5,0.0,i,1.0,False,762.3999999994412,46.0,59.0,40.0,False,,242.9215448064918,[],"[960, 540]",ColorTask,44.0,24.0,,,HRV,HRV_0258,2022-11-30 20:10:04
,wl-rdm,157,808036,0.0-8.24-0.24,1.0,140.0,,,,,,,[],,,,,,56.4,1.0,i,1.0,True,1696.300000000745,102.0,59.0,40.0,False,,221.38539903628876,[],"[960, 540]",ColorTask,45.0,25.0,,,HRV,HRV_0258,2022-11-30 20:10:04
,wl-rdm,158,810102,0.0-8.25-0.25,1.0,141.0,,,,,,,[],,,,,,62.5,1.0,i,1.0,True,793.0,48.0,59.0,40.0,False,,214.35394695555783,[],"[960, 540]",ColorTask,46.0,26.0,,,HRV,HRV_0258,2022-11-30 20:10:04
,wl-rdm,159,812368,0.0-8.26-0.26,1.0,142.0,,,,,,,[],,,,,,56.4,0.0,i,1.0,False,864.7000000001863,52.0,59.0,40.0,False,,335.8830034631729,[],"[960, 540]",ColorTask,45.0,27.0,,,HRV,HRV_0258,2022-11-30 20:10:04
,wl-rdm,160,815368,0.0-8.27-0.27,1.0,143.0,,,,,,,[],,,,,,50.0,0.0,i,1.0,False,1574.3999999994412,95.0,59.0,40.0,False,,366.07378356757954,[],"[960, 540]",ColorTask,44.0,28.0,,,HRV,HRV_0258,2022-11-30 20:10:04
,wl-rdm,161,818002,0.0-8.28-0.28,1.0,144.0,,,,,,,[],,,,,,50.0,1.0,i,1.0,True,1339.6000000005588,81.0,59.0,40.0,False,,209.97007006675358,[],"[960, 540]",ColorTask,45.0,29.0,,,HRV,HRV_0258,2022-11-30 20:10:04
,wl-rdm,162,820651,0.0-8.29-0.29,1.0,145.0,,,,,,,[],,,,,,50.0,0.0,i,1.0,False,1345.9999999990687,81.0,59.0,40.0,False,,218.24721853581246,[],"[960, 540]",ColorTask,44.0,30.0,,,HRV,HRV_0258,2022-11-30 20:10:04
,wl-rdm,163,822735,0.0-8.30-0.30,1.0,146.0,,,,,,,[],,,,,,56.4,1.0,i,1.0,True,776.2000000001863,47.0,59.0,40.0,False,,217.5839804054074,[],"[960, 540]",ColorTask,45.0,31.0,,,HRV,HRV_0258,2022-11-30 20:10:04
,wl-rdm,164,825151,0.0-8.31-0.31,1.0,147.0,,,,,,,[],,,,,,62.5,0.0,u,0.0,True,1067.699999999255,65.0,59.0,40.0,False,,273.15858322117344,[],"[960, 540]",ColorTask,46.0,32.0,,,HRV,HRV_0258,2022-11-30 20:10:04
,wl-rdm,165,827302,0.0-8.32-0.32,1.0,148.0,,,,,,,[],,,,,,73.6,0.0,u,0.0,True,842.7999999998137,51.0,59.0,40.0,False,,250.39729767268392,[],"[960, 540]",ColorTask,47.0,33.0,,,HRV,HRV_0258,2022-11-30 20:10:04
,wl-rdm,166,830268,0.0-8.33-0.33,1.0,149.0,,,,,,,[],,,,,,73.6,1.0,u,0.0,False,1661.3999999994412,100.0,59.0,40.0,False,,234.32899371743252,[],"[960, 540]",ColorTask,46.0,34.0,,,HRV,HRV_0258,2022-11-30 20:10:04
,wl-rdm,167,832701,0.0-8.34-0.34,1.0,150.0,,,,,,,[],,,,,,56.4,1.0,u,0.0,False,1027.1000000005588,62.0,59.0,40.0,False,,329.49268836944645,[],"[960, 540]",ColorTask,45.0,35.0,,,HRV,HRV_0258,2022-11-30 20:10:04
,wl-rdm,168,835002,0.0-8.35-0.35,1.0,151.0,,,,,,,[],,,,,,62.5,1.0,i,1.0,True,973.0,59.0,59.0,40.0,False,,244.48628475035503,[],"[960, 540]",ColorTask,46.0,36.0,,,HRV,HRV_0258,2022-11-30 20:10:04
,wl-rdm,169,837235,0.0-8.36-0.36,1.0,152.0,,,,,,,[],,,,,,73.6,0.0,u,0.0,True,763.2999999998137,46.0,59.0,40.0,False,,398.194244032868,[],"[960, 540]",ColorTask,47.0,37.0,,,HRV,HRV_0258,2022-11-30 20:10:04
,wl-rdm,170,839952,0.0-8.37-0.37,1.0,153.0,,,,,,,[],,,,,,73.6,1.0,i,1.0,True,1335.199999999255,81.0,59.0,40.0,False,,288.9367972401853,[],"[960, 540]",ColorTask,48.0,38.0,,,HRV,HRV_0258,2022-11-30 20:10:04
,wl-rdm,171,842352,0.0-8.38-0.38,1.0,154.0,,,,,,,[],,,,,,62.5,1.0,i,1.0,True,1074.5999999996275,65.0,59.0,40.0,False,,257.30243356589824,[],"[960, 540]",ColorTask,49.0,39.0,,,HRV,HRV_0258,2022-11-30 20:10:04
,wl-rdm,172,845352,0.0-8.39-0.39,1.0,155.0,,,,,,,[],,,,,,53.2,0.0,u,0.0,True,1614.6000000005588,97.0,59.0,40.0,False,,324.344191860301,[],"[960, 540]",ColorTask,50.0,40.0,,,HRV,HRV_0258,2022-11-30 20:10:04
,wl-rdm,173,847869,0.0-8.40-0.40,1.0,156.0,,,,,,,[],,,,,,50.0,0.0,u,0.0,True,1136.2000000011176,69.0,59.0,40.0,False,,315.6492495143333,[],"[960, 540]",ColorTask,51.0,41.0,,,HRV,HRV_0258,2022-11-30 20:10:04
,wl-rdm,174,850052,0.0-8.41-0.41,1.0,157.0,,,,,,,[],,,,,,87.9,1.0,i,1.0,True,745.7000000001863,45.0,59.0,40.0,False,,377.63486316303664,[],"[960, 540]",ColorTask,52.0,42.0,,,HRV,HRV_0258,2022-11-30 20:10:04
,wl-rdm,175,853069,0.0-8.42-0.42,1.0,158.0,,,,,,,[],,,,,,53.2,0.0,u,0.0,True,1612.300000000745,97.0,59.0,40.0,False,,317.59584044487667,[],"[960, 540]",ColorTask,53.0,43.0,,,HRV,HRV_0258,2022-11-30 20:10:04
,wl-rdm,176,855719,0.0-8.43-0.43,1.0,159.0,,,,,,,[],,,,,,73.6,0.0,u,0.0,True,1352.5999999996275,82.0,59.0,40.0,False,,203.68365644643714,[],"[960, 540]",ColorTask,54.0,44.0,,,HRV,HRV_0258,2022-11-30 20:10:04
,wl-rdm,177,858118,0.0-8.44-0.44,1.0,160.0,,,,,,,[],,,,,,53.2,0.0,i,1.0,False,1042.5000000009313,63.0,59.0,40.0,False,,298.0695134830106,[],"[960, 540]",ColorTask,53.0,45.0,,,HRV,HRV_0258,2022-11-30 20:10:04
,wl-rdm,178,860752,0.0-8.45-0.45,1.0,161.0,,,,,,,[],,,,,,56.4,1.0,i,1.0,True,1316.6000000005588,79.0,59.0,40.0,False,,236.23494742964334,[],"[960, 540]",ColorTask,54.0,46.0,,,HRV,HRV_0258,2022-11-30 20:10:04
,wl-rdm,179,863135,0.0-8.46-0.46,1.0,162.0,,,,,,,[],,,,,,50.0,0.0,u,0.0,True,985.1000000005588,60.0,59.0,40.0,False,,314.66118776894643,[],"[960, 540]",ColorTask,55.0,47.0,,,HRV,HRV_0258,2022-11-30 20:10:04
,wl-rdm,180,865518,0.0-8.47-0.47,1.0,163.0,,,,,,,[],,,,,,53.2,0.0,i,1.0,False,910.0000000009313,55.0,59.0,40.0,False,,393.44409788104724,[],"[960, 540]",ColorTask,54.0,48.0,,,HRV,HRV_0258,2022-11-30 20:10:04
,wl-rdm,181,868319,0.0-8.48-0.48,1.0,164.0,,,,,,,[],,,,,,56.4,0.0,i,1.0,False,1436.3999999994412,87.0,59.0,40.0,False,,269.96757478920085,[],"[960, 540]",ColorTask,53.0,49.0,,,HRV,HRV_0258,2022-11-30 20:10:04
,wl-rdm,182,870835,0.0-8.49-0.49,1.0,165.0,,,,,,,[],,,,,,50.0,1.0,u,0.0,False,1237.7000000001863,75.0,59.0,40.0,False,,204.7841372788891,[],"[960, 540]",ColorTask,52.0,50.0,,,HRV,HRV_0258,2022-11-30 20:10:04
,wl-rdm,183,873385,0.0-8.50-0.50,1.0,166.0,,,,,,,[],,,,,,73.6,0.0,u,0.0,True,1172.9000000003725,71.0,59.0,40.0,False,,302.8600871524903,[],"[960, 540]",ColorTask,53.0,51.0,,,HRV,HRV_0258,2022-11-30 20:10:04
,wl-rdm,184,875702,0.0-8.51-0.51,1.0,167.0,,,,,,,[],,,,,,73.6,0.0,u,0.0,True,943.4000000013039,57.0,59.0,40.0,False,,313.89246752959775,[],"[960, 540]",ColorTask,54.0,52.0,,,HRV,HRV_0258,2022-11-30 20:10:04
,wl-rdm,185,878001,0.0-8.52-0.52,1.0,168.0,,,,,,,[],,,,,,62.5,0.0,u,0.0,True,856.6999999992549,52.0,59.0,40.0,False,,356.7007881413976,[],"[960, 540]",ColorTask,55.0,53.0,,,HRV,HRV_0258,2022-11-30 20:10:04
,wl-rdm,186,880569,0.0-8.53-0.53,1.0,169.0,,,,,,,[],,,,,,53.2,1.0,i,1.0,True,1208.0999999996275,73.0,59.0,40.0,False,,269.0057338092181,[],"[960, 540]",ColorTask,56.0,54.0,,,HRV,HRV_0258,2022-11-30 20:10:04
,wl-rdm,187,882935,0.0-8.54-0.54,1.0,170.0,,,,,,,[],,,,,,87.9,1.0,i,1.0,True,952.3000000007451,58.0,59.0,40.0,False,,318.3413011127619,[],"[960, 540]",ColorTask,57.0,55.0,,,HRV,HRV_0258,2022-11-30 20:10:04
,wl-rdm,188,885751,0.0-8.55-0.55,1.0,171.0,,,,,,,[],,,,,,62.5,0.0,u,0.0,True,1366.5999999996275,82.0,59.0,40.0,False,,381.0473172050357,[],"[960, 540]",ColorTask,58.0,56.0,,,HRV,HRV_0258,2022-11-30 20:10:04
,wl-rdm,189,888035,0.0-8.56-0.56,1.0,172.0,,,,,,,[],,,,,,50.0,1.0,i,1.0,True,921.7000000001863,56.0,59.0,40.0,False,,271.2134301891048,[],"[960, 540]",ColorTask,59.0,57.0,,,HRV,HRV_0258,2022-11-30 20:10:04
,wl-rdm,190,890219,0.0-8.57-0.57,1.0,173.0,,,,,,,[],,,,,,73.6,0.0,u,0.0,True,838.8000000007451,51.0,59.0,40.0,False,,268.66696910499445,[],"[960, 540]",ColorTask,60.0,58.0,,,HRV,HRV_0258,2022-11-30 20:10:04
,wl-rdm,191,892502,0.0-8.58-0.58,1.0,174.0,,,,,,,[],,,,,,87.9,0.0,u,0.0,True,927.5999999996275,56.0,59.0,40.0,False,,273.5953227544858,[],"[960, 540]",ColorTask,61.0,59.0,,,HRV,HRV_0258,2022-11-30 20:10:04
,wl-rdm,192,894585,0.0-8.59-0.59,1.0,175.0,,,,,,,[],,,,,,62.5,1.0,i,1.0,True,814.7999999988824,49.0,59.0,40.0,False,,210.33095126716464,[],"[960, 540]",ColorTask,62.0,60.0,,,HRV,HRV_0258,2022-11-30 20:10:04
,wl-rdm,193,896834,0.0-8.60-0.60,1.0,176.0,,,,,,,[],,,,,,50.0,1.0,i,1.0,True,837.9000000003725,51.0,59.0,40.0,False,,347.384141216181,[],"[960, 540]",ColorTask,63.0,61.0,,,HRV,HRV_0258,2022-11-30 20:10:04
,wl-rdm,194,899085,0.0-8.61-0.61,1.0,177.0,,,,,,,[],,,,,,50.0,1.0,u,0.0,False,843.6000000005588,51.0,59.0,40.0,False,,340.9944547682559,[],"[960, 540]",ColorTask,62.0,62.0,,,HRV,HRV_0258,2022-11-30 20:10:04
,wl-rdm,195,901201,0.0-8.62-0.62,1.0,178.0,,,,,,,[],,,,,,87.9,0.0,u,0.0,True,680.7000000001863,41.0,59.0,40.0,False,,364.92943135244764,[],"[960, 540]",ColorTask,63.0,63.0,,,HRV,HRV_0258,2022-11-30 20:10:04
,wl-rdm,196,903252,0.0-8.63-0.63,1.0,179.0,,,,,,,[],,,,,,53.2,1.0,u,0.0,False,761.9000000003725,46.0,59.0,40.0,False,,212.21438597755633,[],"[960, 540]",ColorTask,62.0,64.0,,,HRV,HRV_0258,2022-11-30 20:10:04
,wl-rdm,197,905401,0.0-8.64-0.64,1.0,180.0,,,,,,,[],,,,,,62.5,0.0,i,1.0,False,681.7999999998137,41.0,59.0,40.0,False,,388.8635882199677,[],"[960, 540]",ColorTask,61.0,65.0,,,HRV,HRV_0258,2022-11-30 20:10:04
,wl-rdm,198,907551,0.0-8.65-0.65,1.0,181.0,,,,,,,[],,,,,,87.9,1.0,i,1.0,True,702.2999999998137,43.0,59.0,40.0,False,,350.3107492683979,[],"[960, 540]",ColorTask,62.0,66.0,,,HRV,HRV_0258,2022-11-30 20:10:04
,wl-rdm,199,909651,0.0-8.66-0.66,1.0,182.0,,,,,,,[],,,,,,56.4,0.0,u,0.0,True,796.2999999998137,48.0,59.0,40.0,False,,220.63852773297936,[],"[960, 540]",ColorTask,63.0,67.0,,,HRV,HRV_0258,2022-11-30 20:10:04
,wl-rdm,200,911718,0.0-8.67-0.67,1.0,183.0,,,,,,,[],,,,,,56.4,1.0,i,1.0,True,758.9999999990687,46.0,59.0,40.0,False,,250.23446724413284,[],"[960, 540]",ColorTask,64.0,68.0,,,HRV,HRV_0258,2022-11-30 20:10:04
,wl-rdm,201,913950,0.0-8.68-0.68,1.0,184.0,,,,,,,[],,,,,,87.9,0.0,i,1.0,False,892.2000000001863,54.0,59.0,40.0,False,,257.9450439156853,[],"[960, 540]",ColorTask,63.0,69.0,,,HRV,HRV_0258,2022-11-30 20:10:04
,wl-rdm,202,916100,0.0-8.69-0.69,1.0,185.0,,,,,,,[],,,,,,87.9,0.0,i,1.0,False,793.3000000007451,48.0,59.0,40.0,False,,296.2849995461437,[],"[960, 540]",ColorTask,62.0,70.0,,,HRV,HRV_0258,2022-11-30 20:10:04
,wl-rdm,203,918467,0.0-8.70-0.70,1.0,186.0,,,,,,,[],,,,,,53.2,1.0,i,1.0,True,970.3999999994412,59.0,59.0,40.0,False,,300.5469336495172,[],"[960, 540]",ColorTask,63.0,71.0,,,HRV,HRV_0258,2022-11-30 20:10:04
,wl-rdm,204,920568,0.0-8.71-0.71,1.0,187.0,,,,,,,[],,,,,,50.0,1.0,i,1.0,True,724.7999999988824,44.0,59.0,40.0,False,,286.8206347312534,[],"[960, 540]",ColorTask,64.0,72.0,,,HRV,HRV_0258,2022-11-30 20:10:04
,wl-rdm,205,922918,0.0-8.72-0.72,1.0,188.0,,,,,,,[],,,,,,50.0,1.0,i,1.0,True,985.8000000007451,60.0,59.0,40.0,False,,286.06052528156147,[],"[960, 540]",ColorTask,65.0,73.0,,,HRV,HRV_0258,2022-11-30 20:10:04
,wl-rdm,206,925118,0.0-8.73-0.73,1.0,189.0,,,,,,,[],,,,,,87.9,0.0,u,0.0,True,859.1000000005588,52.0,59.0,40.0,False,,283.2225071580755,[],"[960, 540]",ColorTask,66.0,74.0,,,HRV,HRV_0258,2022-11-30 20:10:04
,wl-rdm,207,927118,0.0-8.74-0.74,1.0,190.0,,,,,,,[],,,,,,53.2,1.0,i,1.0,True,601.7000000001863,37.0,59.0,40.0,False,,301.08447083221296,[],"[960, 540]",ColorTask,67.0,75.0,,,HRV,HRV_0258,2022-11-30 20:10:04
,wl-rdm,208,929067,0.0-8.75-0.75,1.0,191.0,,,,,,,[],,,,,,87.9,1.0,i,1.0,True,636.5,39.0,59.0,40.0,False,,233.12457601591086,[],"[960, 540]",ColorTask,68.0,76.0,,,HRV,HRV_0258,2022-11-30 20:10:04
,wl-rdm,209,931200,0.0-8.76-0.76,1.0,192.0,,,,,,,[],,,,,,50.0,0.0,u,0.0,True,830.9000000013039,50.0,59.0,40.0,False,,235.46418639240088,[],"[960, 540]",ColorTask,69.0,77.0,,,HRV,HRV_0258,2022-11-30 20:10:04
,wl-rdm,210,933234,0.0-8.77-0.77,1.0,193.0,,,,,,,[],,,,,,53.2,1.0,i,1.0,True,638.2999999998137,39.0,59.0,40.0,False,,315.95636619292674,[],"[960, 540]",ColorTask,70.0,78.0,,,HRV,HRV_0258,2022-11-30 20:10:04
,wl-rdm,211,935401,0.0-8.78-0.78,1.0,194.0,,,,,,,[],,,,,,56.4,0.0,u,0.0,True,857.1000000005588,52.0,59.0,40.0,False,,218.2257667037393,[],"[960, 540]",ColorTask,71.0,79.0,,,HRV,HRV_0258,2022-11-30 20:10:04
,wl-rdm,212,937583,0.0-8.79-0.79,1.0,195.0,,,,,,,[],,,,,,50.0,1.0,u,0.0,False,807.7000000001863,49.0,59.0,40.0,False,,287.45247877677474,[],"[960, 540]",ColorTask,70.0,80.0,,,HRV,HRV_0258,2022-11-30 20:10:04
,wl-rdm,213,939684,0.0-8.80-0.80,1.0,196.0,,,,,,,[],,,,,,56.4,1.0,i,1.0,True,811.0,49.0,59.0,40.0,False,,232.23440659728666,[],"[960, 540]",ColorTask,71.0,81.0,,,HRV,HRV_0258,2022-11-30 20:10:04
,wl-rdm,214,941917,0.0-8.81-0.81,1.0,197.0,,,,,,,[],,,,,,73.6,1.0,i,1.0,True,792.7999999998137,48.0,59.0,40.0,False,,366.99713119432556,[],"[960, 540]",ColorTask,72.0,82.0,,,HRV,HRV_0258,2022-11-30 20:10:04
,wl-rdm,215,944133,0.0-8.82-0.82,1.0,198.0,,,,,,,[],,,,,,53.2,0.0,i,1.0,False,883.0999999996275,53.0,59.0,40.0,False,,268.39885608207027,[],"[960, 540]",ColorTask,71.0,83.0,,,HRV,HRV_0258,2022-11-30 20:10:04
,wl-rdm,216,946201,0.0-8.83-0.83,1.0,199.0,,,,,,,[],,,,,,73.6,1.0,i,1.0,True,698.0,42.0,59.0,40.0,False,,295.20752196684043,[],"[960, 540]",ColorTask,72.0,84.0,,,HRV,HRV_0258,2022-11-30 20:10:04
,wl-rdm,217,948267,0.0-8.84-0.84,1.0,200.0,,,,,,,[],,,,,,56.4,1.0,i,1.0,True,653.9000000003725,40.0,59.0,40.0,False,,321.8232809680632,[],"[960, 540]",ColorTask,73.0,85.0,,,HRV,HRV_0258,2022-11-30 20:10:04
,wl-rdm,218,950166,0.0-8.85-0.85,1.0,201.0,,,,,,,[],,,,,,62.5,0.0,i,1.0,False,565.1999999992549,34.0,59.0,40.0,False,,279.8148179285922,[],"[960, 540]",ColorTask,72.0,86.0,,,HRV,HRV_0258,2022-11-30 20:10:04
,wl-rdm,219,952434,0.0-8.86-0.86,1.0,202.0,,,,,,,[],,,,,,56.4,1.0,u,0.0,False,796.7999999998137,48.0,59.0,40.0,False,,388.8956665821029,[],"[960, 540]",ColorTask,71.0,87.0,,,HRV,HRV_0258,2022-11-30 20:10:04
,wl-rdm,220,954667,0.0-8.87-0.87,1.0,203.0,,,,,,,[],,,,,,62.5,1.0,i,1.0,True,778.5,47.0,59.0,40.0,False,,366.5928208241402,[],"[960, 540]",ColorTask,72.0,88.0,,,HRV,HRV_0258,2022-11-30 20:10:04
,wl-rdm,221,956601,0.0-8.88-0.88,1.0,204.0,,,,,,,[],,,,,,56.4,0.0,u,0.0,True,622.8000000007451,38.0,59.0,40.0,False,,224.4060907871238,[],"[960, 540]",ColorTask,73.0,89.0,,,HRV,HRV_0258,2022-11-30 20:10:04
,wl-rdm,222,958567,0.0-8.89-0.89,1.0,205.0,,,,,,,[],,,,,,87.9,0.0,i,1.0,False,557.3000000007451,34.0,59.0,40.0,False,,340.63433843153257,[],"[960, 540]",ColorTask,72.0,90.0,,,HRV,HRV_0258,2022-11-30 20:10:04
,wl-rdm,223,960700,0.0-8.90-0.90,1.0,206.0,,,,,,,[],,,,,,73.6,1.0,i,1.0,True,710.2000000001863,43.0,59.0,40.0,False,,365.1278477351651,[],"[960, 540]",ColorTask,73.0,91.0,,,HRV,HRV_0258,2022-11-30 20:10:04
,wl-rdm,224,962751,0.0-8.91-0.91,1.0,207.0,,,,,,,[],,,,,,73.6,0.0,i,1.0,False,725.0,44.0,59.0,40.0,False,,234.01995037475692,[],"[960, 540]",ColorTask,72.0,92.0,,,HRV,HRV_0258,2022-11-30 20:10:04
,wl-rdm,225,964767,0.0-8.92-0.92,1.0,208.0,,,,,,,[],,,,,,53.2,0.0,u,0.0,True,673.7000000001863,41.0,59.0,40.0,False,,277.1300602073504,[],"[960, 540]",ColorTask,73.0,93.0,,,HRV,HRV_0258,2022-11-30 20:10:04
,wl-rdm,226,966783,0.0-8.93-0.93,1.0,209.0,,,,,,,[],,,,,,62.5,0.0,i,1.0,False,689.5,42.0,59.0,40.0,False,,263.84474049731267,[],"[960, 540]",ColorTask,72.0,94.0,,,HRV,HRV_0258,2022-11-30 20:10:04
,wl-rdm,227,968884,0.0-8.94-0.94,1.0,210.0,,,,,,,[],,,,,,62.5,0.0,u,0.0,True,753.1000000005588,46.0,59.0,40.0,False,,267.2177290767314,[],"[960, 540]",ColorTask,73.0,95.0,,,HRV,HRV_0258,2022-11-30 20:10:04
,wl-rdm,228,970984,0.0-8.95-0.95,1.0,211.0,,,,,,,[],,,,,,53.2,0.0,u,0.0,True,806.9000000003725,49.0,59.0,40.0,False,,200.7153834499558,[],"[960, 540]",ColorTask,74.0,96.0,,,HRV,HRV_0258,2022-11-30 20:10:04
,wl-rdm,229,973116,0.0-8.96-0.96,1.0,212.0,,,,,,,[],,,,,,53.2,1.0,i,1.0,True,759.5,46.0,59.0,40.0,False,,293.8268090613229,[],"[960, 540]",ColorTask,75.0,97.0,,,HRV,HRV_0258,2022-11-30 20:10:04
,wl-rdm,230,975150,0.0-8.97-0.97,1.0,213.0,,,,,,,[],,,,,,73.6,1.0,i,1.0,True,658.3000000007451,40.0,59.0,40.0,False,,289.54701150327423,[],"[960, 540]",ColorTask,76.0,98.0,,,HRV,HRV_0258,2022-11-30 20:10:04
,wl-rdm,231,977249,0.0-8.98-0.98,1.0,214.0,,,,,,,[],,,,,,53.2,0.0,u,0.0,True,745.0000000009313,45.0,59.0,40.0,False,,289.9650079286115,[],"[960, 540]",ColorTask,77.0,99.0,,,HRV,HRV_0258,2022-11-30 20:10:04
,wl-rdm,232,979216,0.0-8.99-0.99,1.0,215.0,,,,,,,[],,,,,,73.6,0.0,u,0.0,True,623.2999999988824,38.0,59.0,40.0,False,,252.8549834652651,[],"[960, 540]",ColorTask,78.0,100.0,,,HRV,HRV_0258,2022-11-30 20:10:04
,wl-rdm,233,981100,0.0-8.100-0.100,1.0,216.0,,,,,,,[],,,,,,87.9,0.0,u,0.0,True,593.5999999996275,36.0,59.0,40.0,False,,209.67074235141402,[],"[960, 540]",ColorTask,79.0,101.0,,,HRV,HRV_0258,2022-11-30 20:10:04
,wl-rdm,234,983050,0.0-8.101-0.101,1.0,217.0,,,,,,,[],,,,,,56.4,0.0,u,0.0,True,654.5,40.0,59.0,40.0,False,,202.15740431008436,[],"[960, 540]",ColorTask,80.0,102.0,,,HRV,HRV_0258,2022-11-30 20:10:04
,wl-rdm,235,984999,0.0-8.102-0.102,1.0,218.0,,,,,,,[],,,,,,56.4,0.0,i,1.0,False,648.0,39.0,59.0,40.0,False,,227.47439403932208,[],"[960, 540]",ColorTask,79.0,103.0,,,HRV,HRV_0258,2022-11-30 20:10:04
,wl-rdm,236,987400,0.0-8.103-0.103,1.0,219.0,,,,,,,[],,,,,,50.0,0.0,i,1.0,False,981.2999999998137,59.0,59.0,40.0,False,,339.0382599112071,[],"[960, 540]",ColorTask,78.0,104.0,,,HRV,HRV_0258,2022-11-30 20:10:04
,wl-rdm,237,989366,0.0-8.104-0.104,1.0,220.0,,,,,,,[],,,,,,56.4,0.0,i,1.0,False,665.6000000005588,40.0,59.0,40.0,False,,233.65571857930667,[],"[960, 540]",ColorTask,77.0,105.0,,,HRV,HRV_0258,2022-11-30 20:10:04
,wl-rdm,238,991466,0.0-8.105-0.105,1.0,221.0,,,,,,,[],,,,,,62.5,1.0,i,1.0,True,669.8999999994412,41.0,59.0,40.0,False,,354.8603982381858,[],"[960, 540]",ColorTask,78.0,106.0,,,HRV,HRV_0258,2022-11-30 20:10:04
,wl-rdm,239,993549,0.0-8.106-0.106,1.0,222.0,,,,,,,[],,,,,,73.6,0.0,u,0.0,True,759.0999999996275,46.0,59.0,40.0,False,,248.74568771643231,[],"[960, 540]",ColorTask,79.0,107.0,,,HRV,HRV_0258,2022-11-30 20:10:04
,wl-rdm,240,995633,0.0-8.107-0.107,1.0,223.0,,,,,,,[],,,,,,87.9,1.0,i,1.0,True,662.6999999992549,40.0,59.0,40.0,False,,348.9523307434535,[],"[960, 540]",ColorTask,80.0,108.0,,,HRV,HRV_0258,2022-11-30 20:10:04
,wl-rdm,241,997699,0.0-8.108-0.108,1.0,224.0,,,,,,,[],,,,,,62.5,0.0,u,0.0,True,768.7999999998137,47.0,59.0,40.0,False,,211.21991576880197,[],"[960, 540]",ColorTask,81.0,109.0,,,HRV,HRV_0258,2022-11-30 20:10:04
,wl-rdm,242,999799,0.0-8.109-0.109,1.0,225.0,,,,,,,[],,,,,,62.5,1.0,i,1.0,True,781.7000000011176,47.0,59.0,40.0,False,,239.9674604910091,[],"[960, 540]",ColorTask,82.0,110.0,,,HRV,HRV_0258,2022-11-30 20:10:04
,wl-html-button-response,243,1013177,0.0-9.0-0.0,,,,,,,,,,13372.600000000559,,0,,,,,,,,,,,,,,,,,,,,<h3>End of this session. Thank you!</h3><br>,['Close window'],HRV,HRV_0258,2022-11-30 20:10:04
