trialN,stimuli,trialStartTime,trialStartTime_UNIX,stimulus1,stimulus2,stimulus1Bid,stimulus2Bid,delta,selected,rt,rt_UNIX,rt_perfnow,receivedResponse,rsp,trialEndTime,trialDuration,trialEndTime_UNIX,trialDuration_UNIX,exp,subjectId,date
0,"[{'imgObject': {}, 'id': 'blackbeanswithrice', 'src': '/static/foodstim60/blackbeanswithrice.jpg', 'key': 'u', 'origWidth': 410, 'origHeight': 410, 'width': 410, 'height': 410, 'widthPercent': 0.45, 'rescaleHeight': False, 'trialN': 0, 'loaded': True, 'loadedTime': 2943.800000000745, 'positionName': 'LEFT', 'positionCoords': [511.6, 335], 'bid': 0.42}, {'imgObject': {}, 'id': 'tacos', 'src': '/static/foodstim60/tacos.jpg', 'key': 'i', 'origWidth': 411, 'origHeight': 411, 'width': 411, 'height': 411, 'widthPercent': 0.45, 'rescaleHeight': False, 'trialN': 0, 'loaded': True, 'loadedTime': 2951.100000000559, 'positionName': 'RIGHT', 'positionCoords': [998.4, 334.5], 'bid': 1.23}]",3346.5,1669836820046,blackbeanswithrice,tacos,0.42,1.23,0.81,tacos,1736.9000000003725,1738,1737.800000000745,True,i,5591.5,2245.0,1669836822291,2245,HRV,HRV_0258,2022-11-30 19:39:08
1,"[{'imgObject': {}, 'id': 'rigatoni and sauce', 'src': '/static/foodstim60/rigatoni and sauce.jpg', 'key': 'u', 'origWidth': 410, 'origHeight': 411, 'width': 410, 'height': 411, 'widthPercent': 0.45, 'rescaleHeight': False, 'trialN': 1, 'loaded': True, 'loadedTime': 2955.7000000001863, 'positionName': 'LEFT', 'positionCoords': [511.6, 334.5], 'bid': 7.33}, {'imgObject': {}, 'id': 'cantaloupe', 'src': '/static/foodstim60/cantaloupe.jpg', 'key': 'i', 'origWidth': 409, 'origHeight': 409, 'width': 409, 'height': 409, 'widthPercent': 0.45, 'rescaleHeight': False, 'trialN': 1, 'loaded': True, 'loadedTime': 2957.5, 'positionName': 'RIGHT', 'positionCoords': [998.4, 335.5], 'bid': 8.8}]",5592.0,1669836822291,rigatoni and sauce,cantaloupe,7.33,8.8,1.4700000000000006,cantaloupe,1403.4000000003725,1404,1403.9000000003725,True,i,7508.200000000186,1916.2000000001863,1669836824208,1917,HRV,HRV_0258,2022-11-30 19:39:08
2,"[{'imgObject': {}, 'id': 'ice cream sundae 002', 'src': '/static/foodstim60/ice cream sundae 002.jpg', 'key': 'u', 'origWidth': 409, 'origHeight': 409, 'width': 409, 'height': 409, 'widthPercent': 0.45, 'rescaleHeight': False, 'trialN': 2, 'loaded': True, 'loadedTime': 2959.7000000001863, 'positionName': 'LEFT', 'positionCoords': [512.6, 335.5], 'bid': 6.43}, {'imgObject': {}, 'id': 'seaweed', 'src': '/static/foodstim60/seaweed.jpg', 'key': 'i', 'origWidth': 410, 'origHeight': 410, 'width': 410, 'height': 410, 'widthPercent': 0.45, 'rescaleHeight': False, 'trialN': 2, 'loaded': True, 'loadedTime': 2961.800000000745, 'positionName': 'RIGHT', 'positionCoords': [998.4, 335], 'bid': 6.390000000000001}]",7508.600000000559,1669836824208,ice cream sundae 002,seaweed,6.43,6.390000000000001,-0.03999999999999915,ice cream sundae 002,1214.8999999994412,1215,1215.2999999998137,True,u,9241.200000000186,1732.5999999996275,1669836825941,1733,HRV,HRV_0258,2022-11-30 19:39:08
3,"[{'imgObject': {}, 'id': 'turkeysandwich', 'src': '/static/foodstim60/turkeysandwich.jpg', 'key': 'u', 'origWidth': 409, 'origHeight': 409, 'width': 409, 'height': 409, 'widthPercent': 0.45, 'rescaleHeight': False, 'trialN': 3, 'loaded': True, 'loadedTime': 2963.7000000001863, 'positionName': 'LEFT', 'positionCoords': [512.6, 335.5], 'bid': 4.93}, {'imgObject': {}, 'id': 'fried eggs', 'src': '/static/foodstim60/fried eggs.jpg', 'key': 'i', 'origWidth': 410, 'origHeight': 410, 'width': 410, 'height': 410, 'widthPercent': 0.45, 'rescaleHeight': False, 'trialN': 3, 'loaded': True, 'loadedTime': 2964.2000000001863, 'positionName': 'RIGHT', 'positionCoords': [998.4, 335], 'bid': 6.05}]",9241.5,1669836825941,turkeysandwich,fried eggs,4.93,6.05,1.12,fried eggs,1057.800000000745,1058,1058.2000000001863,True,i,10808.200000000186,1566.7000000001863,1669836827508,1567,HRV,HRV_0258,2022-11-30 19:39:08
4,"[{'imgObject': {}, 'id': 'apple slices', 'src': '/static/foodstim60/apple slices.jpg', 'key': 'u', 'origWidth': 409, 'origHeight': 410, 'width': 409, 'height': 410, 'widthPercent': 0.45, 'rescaleHeight': False, 'trialN': 4, 'loaded': True, 'loadedTime': 2971.100000000559, 'positionName': 'LEFT', 'positionCoords': [512.6, 335], 'bid': 6.62}, {'imgObject': {}, 'id': 'banana', 'src': '/static/foodstim60/banana.jpg', 'key': 'i', 'origWidth': 410, 'origHeight': 410, 'width': 410, 'height': 410, 'widthPercent': 0.45, 'rescaleHeight': False, 'trialN': 4, 'loaded': True, 'loadedTime': 2977.4000000003725, 'positionName': 'RIGHT', 'positionCoords': [998.4, 335], 'bid': 6.66}]",10808.400000000373,1669836827508,apple slices,banana,6.62,6.66,0.040000000000000036,apple slices,1147.2999999998137,1147,1147.5999999996275,True,u,12474.300000000745,1665.9000000003725,1669836829174,1666,HRV,HRV_0258,2022-11-30 19:39:08
5,"[{'imgObject': {}, 'id': 'chicken nuggets2', 'src': '/static/foodstim60/chicken nuggets2.jpg', 'key': 'u', 'origWidth': 410, 'origHeight': 409, 'width': 410, 'height': 409, 'widthPercent': 0.45, 'rescaleHeight': False, 'trialN': 5, 'loaded': True, 'loadedTime': 2989.2000000001863, 'positionName': 'LEFT', 'positionCoords': [511.6, 335.5], 'bid': 0.44}, {'imgObject': {}, 'id': 'sushi w_condiments', 'src': '/static/foodstim60/sushi w_condiments.jpg', 'key': 'i', 'origWidth': 410, 'origHeight': 410, 'width': 410, 'height': 410, 'widthPercent': 0.45, 'rescaleHeight': False, 'trialN': 5, 'loaded': True, 'loadedTime': 2999.9000000003725, 'positionName': 'RIGHT', 'positionCoords': [998.4, 335], 'bid': 1.52}]",12474.600000000559,1669836829174,chicken nuggets2,sushi w_condiments,0.44,1.52,1.08,sushi w_condiments,1800.7000000001863,1801,1801.0999999996275,True,i,14791.100000000559,2316.5,1669836831490,2316,HRV,HRV_0258,2022-11-30 19:39:08
6,"[{'imgObject': {}, 'id': 'raspberries', 'src': '/static/foodstim60/raspberries.jpg', 'key': 'u', 'origWidth': 411, 'origHeight': 411, 'width': 411, 'height': 411, 'widthPercent': 0.45, 'rescaleHeight': False, 'trialN': 6, 'loaded': True, 'loadedTime': 3006.5, 'positionName': 'LEFT', 'positionCoords': [510.6, 334.5], 'bid': 5.4}, {'imgObject': {}, 'id': 'raisin bran w milk', 'src': '/static/foodstim60/raisin bran w milk.jpg', 'key': 'i', 'origWidth': 411, 'origHeight': 411, 'width': 411, 'height': 411, 'widthPercent': 0.45, 'rescaleHeight': False, 'trialN': 6, 'loaded': True, 'loadedTime': 3012.4000000003725, 'positionName': 'RIGHT', 'positionCoords': [998.4, 334.5], 'bid': 5.62}]",14791.400000000373,1669836831491,raspberries,raisin bran w milk,5.4,5.62,0.21999999999999975,raspberries,1707.9000000003725,1708,1708.2000000001863,True,u,17008.10000000056,2216.7000000001863,1669836833707,2216,HRV,HRV_0258,2022-11-30 19:39:08
7,"[{'imgObject': {}, 'id': 'luckycharms', 'src': '/static/foodstim60/luckycharms.jpg', 'key': 'u', 'origWidth': 410, 'origHeight': 409, 'width': 410, 'height': 409, 'widthPercent': 0.45, 'rescaleHeight': False, 'trialN': 7, 'loaded': True, 'loadedTime': 3026.600000000559, 'positionName': 'LEFT', 'positionCoords': [511.6, 335.5], 'bid': 6.11}, {'imgObject': {}, 'id': 'blackbeanswithrice', 'src': '/static/foodstim60/blackbeanswithrice.jpg', 'key': 'i', 'origWidth': 410, 'origHeight': 410, 'width': 410, 'height': 410, 'widthPercent': 0.45, 'rescaleHeight': False, 'trialN': 7, 'loaded': True, 'loadedTime': 2941.5, 'positionName': 'RIGHT', 'positionCoords': [998.4, 335], 'bid': 0.42}]",17008.300000000745,1669836833708,luckycharms,blackbeanswithrice,6.11,0.42,-5.69,luckycharms,1195.0,1195,1195.2999999998137,True,u,18709.0,1700.699999999255,1669836835408,1700,HRV,HRV_0258,2022-11-30 19:39:08
8,"[{'imgObject': {}, 'id': 'blueberries', 'src': '/static/foodstim60/blueberries.jpg', 'key': 'u', 'origWidth': 411, 'origHeight': 411, 'width': 411, 'height': 411, 'widthPercent': 0.45, 'rescaleHeight': False, 'trialN': 8, 'loaded': True, 'loadedTime': 3040.9000000003725, 'positionName': 'LEFT', 'positionCoords': [510.6, 334.5], 'bid': 2.11}, {'imgObject': {}, 'id': 'bagel and cc', 'src': '/static/foodstim60/bagel and cc.jpg', 'key': 'i', 'origWidth': 410, 'origHeight': 410, 'width': 410, 'height': 410, 'widthPercent': 0.45, 'rescaleHeight': False, 'trialN': 8, 'loaded': True, 'loadedTime': 3056.4000000003725, 'positionName': 'RIGHT', 'positionCoords': [998.4, 335], 'bid': 2.42}]",18709.300000000745,1669836835409,blueberries,bagel and cc,2.11,2.42,0.31000000000000005,bagel and cc,1509.8999999994412,1510,1510.3999999994412,True,i,20730.400000000373,2021.0999999996275,1669836837430,2021,HRV,HRV_0258,2022-11-30 19:39:08
9,"[{'imgObject': {}, 'id': 'cantaloupe', 'src': '/static/foodstim60/cantaloupe.jpg', 'key': 'u', 'origWidth': 409, 'origHeight': 409, 'width': 409, 'height': 409, 'widthPercent': 0.45, 'rescaleHeight': False, 'trialN': 9, 'loaded': True, 'loadedTime': 2957.7000000001863, 'positionName': 'LEFT', 'positionCoords': [512.6, 335.5], 'bid': 8.8}, {'imgObject': {}, 'id': 'orange slices', 'src': '/static/foodstim60/orange slices.jpg', 'key': 'i', 'origWidth': 409, 'origHeight': 410, 'width': 409, 'height': 410, 'widthPercent': 0.45, 'rescaleHeight': False, 'trialN': 9, 'loaded': True, 'loadedTime': 3064.300000000745, 'positionName': 'RIGHT', 'positionCoords': [998.4, 335], 'bid': 9.03}]",20730.700000000186,1669836837430,cantaloupe,orange slices,8.8,9.03,0.22999999999999865,orange slices,712.6000000005588,713,713.0,True,i,21958.200000000186,1227.5,1669836838658,1228,HRV,HRV_0258,2022-11-30 19:39:08
10,"[{'imgObject': {}, 'id': 'ice cream sundae 002', 'src': '/static/foodstim60/ice cream sundae 002.jpg', 'key': 'u', 'origWidth': 409, 'origHeight': 409, 'width': 409, 'height': 409, 'widthPercent': 0.45, 'rescaleHeight': False, 'trialN': 10, 'loaded': True, 'loadedTime': 2959.800000000745, 'positionName': 'LEFT', 'positionCoords': [512.6, 335.5], 'bid': 6.43}, {'imgObject': {}, 'id': 'hashbrowns', 'src': '/static/foodstim60/hashbrowns.jpg', 'key': 'i', 'origWidth': 411, 'origHeight': 410, 'width': 411, 'height': 410, 'widthPercent': 0.45, 'rescaleHeight': False, 'trialN': 10, 'loaded': True, 'loadedTime': 3073.4000000003725, 'positionName': 'RIGHT', 'positionCoords': [998.4, 335], 'bid': 5.19}]",21958.5,1669836838658,ice cream sundae 002,hashbrowns,6.43,5.19,-1.2399999999999993,ice cream sundae 002,1949.0,1949,1949.4000000003725,True,u,24424.400000000373,2465.9000000003725,1669836841124,2466,HRV,HRV_0258,2022-11-30 19:39:08
11,"[{'imgObject': {}, 'id': 'turkey sandwich', 'src': '/static/foodstim60/turkey sandwich.jpg', 'key': 'u', 'origWidth': 409, 'origHeight': 409, 'width': 409, 'height': 409, 'widthPercent': 0.45, 'rescaleHeight': False, 'trialN': 11, 'loaded': True, 'loadedTime': 3082.300000000745, 'positionName': 'LEFT', 'positionCoords': [512.6, 335.5], 'bid': 4.63}, {'imgObject': {}, 'id': 'ice cream sundae 002', 'src': '/static/foodstim60/ice cream sundae 002.jpg', 'key': 'i', 'origWidth': 409, 'origHeight': 409, 'width': 409, 'height': 409, 'widthPercent': 0.45, 'rescaleHeight': False, 'trialN': 11, 'loaded': True, 'loadedTime': 2959.5, 'positionName': 'RIGHT', 'positionCoords': [998.4, 335.5], 'bid': 6.43}]",24424.5,1669836841124,turkey sandwich,ice cream sundae 002,4.63,6.43,1.7999999999999998,ice cream sundae 002,930.8000000007451,931,931.2000000001863,True,i,25874.60000000056,1450.1000000005588,1669836842574,1450,HRV,HRV_0258,2022-11-30 19:39:08
12,"[{'imgObject': {}, 'id': 'hotdog w must', 'src': '/static/foodstim60/hotdog w must.jpg', 'key': 'u', 'origWidth': 409, 'origHeight': 409, 'width': 409, 'height': 409, 'widthPercent': 0.45, 'rescaleHeight': False, 'trialN': 12, 'loaded': True, 'loadedTime': 3082.5, 'positionName': 'LEFT', 'positionCoords': [512.6, 335.5], 'bid': 0.33}, {'imgObject': {}, 'id': 'burger', 'src': '/static/foodstim60/burger.jpg', 'key': 'i', 'origWidth': 409, 'origHeight': 409, 'width': 409, 'height': 409, 'widthPercent': 0.45, 'rescaleHeight': False, 'trialN': 12, 'loaded': True, 'loadedTime': 3091.9000000003725, 'positionName': 'RIGHT', 'positionCoords': [998.4, 335.5], 'bid': 0.81}]",25874.800000000745,1669836842574,hotdog w must,burger,0.33,0.81,0.48000000000000004,burger,1304.3999999994412,1305,1304.7999999998137,True,i,27691.0,1816.199999999255,1669836844390,1816,HRV,HRV_0258,2022-11-30 19:39:08
13,"[{'imgObject': {}, 'id': 'luckycharms', 'src': '/static/foodstim60/luckycharms.jpg', 'key': 'u', 'origWidth': 410, 'origHeight': 409, 'width': 410, 'height': 409, 'widthPercent': 0.45, 'rescaleHeight': False, 'trialN': 13, 'loaded': True, 'loadedTime': 3025.2000000001863, 'positionName': 'LEFT', 'positionCoords': [511.6, 335.5], 'bid': 6.11}, {'imgObject': {}, 'id': 'granola w milk', 'src': '/static/foodstim60/granola w milk.jpg', 'key': 'i', 'origWidth': 410, 'origHeight': 410, 'width': 410, 'height': 410, 'widthPercent': 0.45, 'rescaleHeight': False, 'trialN': 13, 'loaded': True, 'loadedTime': 3109.7000000001863, 'positionName': 'RIGHT', 'positionCoords': [998.4, 335], 'bid': 5.0200000000000005}]",27691.200000000186,1669836844391,luckycharms,granola w milk,6.11,5.0200000000000005,-1.0899999999999999,granola w milk,1376.0,1376,1376.4000000003725,True,i,29574.0,1882.7999999998137,1669836846273,1882,HRV,HRV_0258,2022-11-30 19:39:08
14,"[{'imgObject': {}, 'id': 'rigatoni', 'src': '/static/foodstim60/rigatoni.jpg', 'key': 'u', 'origWidth': 411, 'origHeight': 411, 'width': 411, 'height': 411, 'widthPercent': 0.45, 'rescaleHeight': False, 'trialN': 14, 'loaded': True, 'loadedTime': 3121.300000000745, 'positionName': 'LEFT', 'positionCoords': [510.6, 334.5], 'bid': 4.62}, {'imgObject': {}, 'id': 'turkeysandwich', 'src': '/static/foodstim60/turkeysandwich.jpg', 'key': 'i', 'origWidth': 409, 'origHeight': 409, 'width': 409, 'height': 409, 'widthPercent': 0.45, 'rescaleHeight': False, 'trialN': 14, 'loaded': True, 'loadedTime': 2964, 'positionName': 'RIGHT', 'positionCoords': [998.4, 335.5], 'bid': 4.93}]",29574.300000000745,1669836846274,rigatoni,turkeysandwich,4.62,4.93,0.3099999999999996,rigatoni,828.8999999994412,829,829.2999999998137,True,u,30908.60000000056,1334.2999999998137,1669836847608,1334,HRV,HRV_0258,2022-11-30 19:39:08
15,"[{'imgObject': {}, 'id': 'salmon', 'src': '/static/foodstim60/salmon.jpg', 'key': 'u', 'origWidth': 410, 'origHeight': 409, 'width': 410, 'height': 409, 'widthPercent': 0.45, 'rescaleHeight': False, 'trialN': 15, 'loaded': True, 'loadedTime': 3129.100000000559, 'positionName': 'LEFT', 'positionCoords': [511.6, 335.5], 'bid': 7.66}, {'imgObject': {}, 'id': 'fried eggs', 'src': '/static/foodstim60/fried eggs.jpg', 'key': 'i', 'origWidth': 410, 'origHeight': 410, 'width': 410, 'height': 410, 'widthPercent': 0.45, 'rescaleHeight': False, 'trialN': 15, 'loaded': True, 'loadedTime': 2965.2000000001863, 'positionName': 'RIGHT', 'positionCoords': [998.4, 335], 'bid': 6.05}]",30908.800000000745,1669836847608,salmon,fried eggs,7.66,6.05,-1.6100000000000003,salmon,1390.2999999998137,1391,1390.699999999255,True,u,32808.800000000745,1900.0,1669836849508,1900,HRV,HRV_0258,2022-11-30 19:39:08
16,"[{'imgObject': {}, 'id': 'salad w chicken', 'src': '/static/foodstim60/salad w chicken.jpg', 'key': 'u', 'origWidth': 411, 'origHeight': 411, 'width': 411, 'height': 411, 'widthPercent': 0.45, 'rescaleHeight': False, 'trialN': 16, 'loaded': True, 'loadedTime': 3138.4000000003725, 'positionName': 'LEFT', 'positionCoords': [510.6, 334.5], 'bid': 5.0200000000000005}, {'imgObject': {}, 'id': 'tacos', 'src': '/static/foodstim60/tacos.jpg', 'key': 'i', 'origWidth': 411, 'origHeight': 411, 'width': 411, 'height': 411, 'widthPercent': 0.45, 'rescaleHeight': False, 'trialN': 16, 'loaded': True, 'loadedTime': 2953.100000000559, 'positionName': 'RIGHT', 'positionCoords': [998.4, 334.5], 'bid': 1.23}]",32809.0,1669836849508,salad w chicken,tacos,5.0200000000000005,1.23,-3.7900000000000005,salad w chicken,1130.300000000745,1131,1130.7000000001863,True,u,34457.10000000056,1648.1000000005588,1669836851157,1649,HRV,HRV_0258,2022-11-30 19:39:08
17,"[{'imgObject': {}, 'id': 'salad w chicken', 'src': '/static/foodstim60/salad w chicken.jpg', 'key': 'u', 'origWidth': 411, 'origHeight': 411, 'width': 411, 'height': 411, 'widthPercent': 0.45, 'rescaleHeight': False, 'trialN': 17, 'loaded': True, 'loadedTime': 3138, 'positionName': 'LEFT', 'positionCoords': [510.6, 334.5], 'bid': 5.0200000000000005}, {'imgObject': {}, 'id': 'seaweed', 'src': '/static/foodstim60/seaweed.jpg', 'key': 'i', 'origWidth': 410, 'origHeight': 410, 'width': 410, 'height': 410, 'widthPercent': 0.45, 'rescaleHeight': False, 'trialN': 17, 'loaded': True, 'loadedTime': 2961.7000000001863, 'positionName': 'RIGHT', 'positionCoords': [998.4, 335], 'bid': 6.390000000000001}]",34457.300000000745,1669836851157,salad w chicken,seaweed,5.0200000000000005,6.390000000000001,1.37,seaweed,1545.699999999255,1546,1546.199999999255,True,i,36509.10000000056,2051.7999999998137,1669836853209,2052,HRV,HRV_0258,2022-11-30 19:39:08
18,"[{'imgObject': {}, 'id': 'salmon', 'src': '/static/foodstim60/salmon.jpg', 'key': 'u', 'origWidth': 410, 'origHeight': 409, 'width': 410, 'height': 409, 'widthPercent': 0.45, 'rescaleHeight': False, 'trialN': 18, 'loaded': True, 'loadedTime': 3121.7000000001863, 'positionName': 'LEFT', 'positionCoords': [511.6, 335.5], 'bid': 7.66}, {'imgObject': {}, 'id': 'grilled chicken strips', 'src': '/static/foodstim60/grilled chicken strips.jpg', 'key': 'i', 'origWidth': 410, 'origHeight': 411, 'width': 410, 'height': 411, 'widthPercent': 0.45, 'rescaleHeight': False, 'trialN': 18, 'loaded': True, 'loadedTime': 3147.600000000559, 'positionName': 'RIGHT', 'positionCoords': [998.4, 334.5], 'bid': 7.54}]",36509.40000000037,1669836853209,salmon,grilled chicken strips,7.66,7.54,-0.1200000000000001,grilled chicken strips,1461.5999999996275,1462,1462.0,True,i,38475.200000000186,1965.7999999998137,1669836855175,1966,HRV,HRV_0258,2022-11-30 19:39:08
19,"[{'imgObject': {}, 'id': 'cherries', 'src': '/static/foodstim60/cherries.jpg', 'key': 'u', 'origWidth': 410, 'origHeight': 411, 'width': 410, 'height': 411, 'widthPercent': 0.45, 'rescaleHeight': False, 'trialN': 19, 'loaded': True, 'loadedTime': 3155.300000000745, 'positionName': 'LEFT', 'positionCoords': [511.6, 334.5], 'bid': 1.6}, {'imgObject': {}, 'id': 'hotdog w must', 'src': '/static/foodstim60/hotdog w must.jpg', 'key': 'i', 'origWidth': 409, 'origHeight': 409, 'width': 409, 'height': 409, 'widthPercent': 0.45, 'rescaleHeight': False, 'trialN': 19, 'loaded': True, 'loadedTime': 3083.600000000559, 'positionName': 'RIGHT', 'positionCoords': [998.4, 335.5], 'bid': 0.33}]",38475.300000000745,1669836855175,cherries,hotdog w must,1.6,0.33,-1.27,cherries,1447.699999999255,1448,1448.199999999255,True,u,40440.5,1965.199999999255,1669836857140,1965,HRV,HRV_0258,2022-11-30 19:39:08
20,"[{'imgObject': {}, 'id': 'corn cob', 'src': '/static/foodstim60/corn cob.jpg', 'key': 'u', 'origWidth': 411, 'origHeight': 411, 'width': 411, 'height': 411, 'widthPercent': 0.45, 'rescaleHeight': False, 'trialN': 20, 'loaded': True, 'loadedTime': 3163.9000000003725, 'positionName': 'LEFT', 'positionCoords': [510.6, 334.5], 'bid': 4.2}, {'imgObject': {}, 'id': 'chickenfingers', 'src': '/static/foodstim60/chickenfingers.jpg', 'key': 'i', 'origWidth': 410, 'origHeight': 410, 'width': 410, 'height': 410, 'widthPercent': 0.45, 'rescaleHeight': False, 'trialN': 20, 'loaded': True, 'loadedTime': 3179.600000000559, 'positionName': 'RIGHT', 'positionCoords': [998.4, 335], 'bid': 8.26}]",40440.800000000745,1669836857140,corn cob,chickenfingers,4.2,8.26,4.06,chickenfingers,1378.199999999255,1379,1378.5999999996275,True,i,42325.200000000186,1884.3999999994412,1669836859025,1885,HRV,HRV_0258,2022-11-30 19:39:08
21,"[{'imgObject': {}, 'id': 'blueberries', 'src': '/static/foodstim60/blueberries.jpg', 'key': 'u', 'origWidth': 411, 'origHeight': 411, 'width': 411, 'height': 411, 'widthPercent': 0.45, 'rescaleHeight': False, 'trialN': 21, 'loaded': True, 'loadedTime': 3047.9000000003725, 'positionName': 'LEFT', 'positionCoords': [510.6, 334.5], 'bid': 2.11}, {'imgObject': {}, 'id': 'blackbeanswithrice', 'src': '/static/foodstim60/blackbeanswithrice.jpg', 'key': 'i', 'origWidth': 410, 'origHeight': 410, 'width': 410, 'height': 410, 'widthPercent': 0.45, 'rescaleHeight': False, 'trialN': 21, 'loaded': True, 'loadedTime': 2943.100000000559, 'positionName': 'RIGHT', 'positionCoords': [998.4, 335], 'bid': 0.42}]",42325.5,1669836859025,blueberries,blackbeanswithrice,2.11,0.42,-1.69,blueberries,1133.5,1134,1133.800000000745,True,u,43974.40000000037,1648.9000000003725,1669836860674,1649,HRV,HRV_0258,2022-11-30 19:39:08
22,"[{'imgObject': {}, 'id': 'pear', 'src': '/static/foodstim60/pear.jpg', 'key': 'u', 'origWidth': 411, 'origHeight': 410, 'width': 411, 'height': 410, 'widthPercent': 0.45, 'rescaleHeight': False, 'trialN': 22, 'loaded': True, 'loadedTime': 3181.300000000745, 'positionName': 'LEFT', 'positionCoords': [510.6, 335], 'bid': 7.4}, {'imgObject': {}, 'id': 'banana', 'src': '/static/foodstim60/banana.jpg', 'key': 'i', 'origWidth': 410, 'origHeight': 410, 'width': 410, 'height': 410, 'widthPercent': 0.45, 'rescaleHeight': False, 'trialN': 22, 'loaded': True, 'loadedTime': 2984.4000000003725, 'positionName': 'RIGHT', 'positionCoords': [998.4, 335], 'bid': 6.66}]",43974.60000000056,1669836860674,pear,banana,7.4,6.66,-0.7400000000000002,pear,876.5999999996275,877,877.0,True,u,45357.90000000037,1383.2999999998137,1669836862057,1383,HRV,HRV_0258,2022-11-30 19:39:08
23,"[{'imgObject': {}, 'id': 'avocado', 'src': '/static/foodstim60/avocado.jpg', 'key': 'u', 'origWidth': 409, 'origHeight': 409, 'width': 409, 'height': 409, 'widthPercent': 0.45, 'rescaleHeight': False, 'trialN': 23, 'loaded': True, 'loadedTime': 3189.7000000001863, 'positionName': 'LEFT', 'positionCoords': [512.6, 335.5], 'bid': 1.18}, {'imgObject': {}, 'id': 'sushi w_condiments', 'src': '/static/foodstim60/sushi w_condiments.jpg', 'key': 'i', 'origWidth': 410, 'origHeight': 410, 'width': 410, 'height': 410, 'widthPercent': 0.45, 'rescaleHeight': False, 'trialN': 23, 'loaded': True, 'loadedTime': 3000.5, 'positionName': 'RIGHT', 'positionCoords': [998.4, 335], 'bid': 1.52}]",45358.10000000056,1669836862057,avocado,sushi w_condiments,1.18,1.52,0.3400000000000001,sushi w_condiments,1724.7000000001863,1726,1725.2000000001863,True,i,47590.700000000186,2232.5999999996275,1669836864290,2233,HRV,HRV_0258,2022-11-30 19:39:08
24,"[{'imgObject': {}, 'id': 'cantaloupe', 'src': '/static/foodstim60/cantaloupe.jpg', 'key': 'u', 'origWidth': 409, 'origHeight': 409, 'width': 409, 'height': 409, 'widthPercent': 0.45, 'rescaleHeight': False, 'trialN': 24, 'loaded': True, 'loadedTime': 2958.100000000559, 'positionName': 'LEFT', 'positionCoords': [512.6, 335.5], 'bid': 8.8}, {'imgObject': {}, 'id': 'baked potato', 'src': '/static/foodstim60/baked potato.jpg', 'key': 'i', 'origWidth': 409, 'origHeight': 410, 'width': 409, 'height': 410, 'widthPercent': 0.45, 'rescaleHeight': False, 'trialN': 24, 'loaded': True, 'loadedTime': 3191.2000000001863, 'positionName': 'RIGHT', 'positionCoords': [998.4, 335], 'bid': 7.67}]",47590.90000000037,1669836864290,cantaloupe,baked potato,8.8,7.67,-1.1300000000000008,baked potato,1188.0999999996275,1189,1188.5,True,i,49290.60000000056,1699.7000000001863,1669836865990,1700,HRV,HRV_0258,2022-11-30 19:39:08
25,"[{'imgObject': {}, 'id': 'Grapes', 'src': '/static/foodstim60/Grapes.jpg', 'key': 'u', 'origWidth': 411, 'origHeight': 411, 'width': 411, 'height': 411, 'widthPercent': 0.45, 'rescaleHeight': False, 'trialN': 25, 'loaded': True, 'loadedTime': 3197.100000000559, 'positionName': 'LEFT', 'positionCoords': [510.6, 334.5], 'bid': 6.93}, {'imgObject': {}, 'id': 'sweetpotato', 'src': '/static/foodstim60/sweetpotato.jpg', 'key': 'i', 'origWidth': 410, 'origHeight': 410, 'width': 410, 'height': 410, 'widthPercent': 0.45, 'rescaleHeight': False, 'trialN': 25, 'loaded': True, 'loadedTime': 3210.2000000001863, 'positionName': 'RIGHT', 'positionCoords': [998.4, 335], 'bid': 6.44}]",49290.800000000745,1669836865990,Grapes,sweetpotato,6.93,6.44,-0.4899999999999993,Grapes,1976.0999999996275,1977,1976.5,True,u,51775.700000000186,2484.899999999441,1669836868475,2485,HRV,HRV_0258,2022-11-30 19:39:08
26,"[{'imgObject': {}, 'id': 'banana', 'src': '/static/foodstim60/banana.jpg', 'key': 'u', 'origWidth': 410, 'origHeight': 410, 'width': 410, 'height': 410, 'widthPercent': 0.45, 'rescaleHeight': False, 'trialN': 26, 'loaded': True, 'loadedTime': 2984.100000000559, 'positionName': 'LEFT', 'positionCoords': [511.6, 335], 'bid': 6.66}, {'imgObject': {}, 'id': 'hashbrowns', 'src': '/static/foodstim60/hashbrowns.jpg', 'key': 'i', 'origWidth': 411, 'origHeight': 410, 'width': 411, 'height': 410, 'widthPercent': 0.45, 'rescaleHeight': False, 'trialN': 26, 'loaded': True, 'loadedTime': 3073.9000000003725, 'positionName': 'RIGHT', 'positionCoords': [998.4, 335], 'bid': 5.19}]",51775.90000000037,1669836868475,banana,hashbrowns,6.66,5.19,-1.4699999999999998,banana,1490.7999999998137,1491,1491.0999999996275,True,u,53775.10000000056,1999.2000000001863,1669836870475,2000,HRV,HRV_0258,2022-11-30 19:39:08
27,"[{'imgObject': {}, 'id': 'olives', 'src': '/static/foodstim60/olives.jpg', 'key': 'u', 'origWidth': 410, 'origHeight': 410, 'width': 410, 'height': 410, 'widthPercent': 0.45, 'rescaleHeight': False, 'trialN': 27, 'loaded': True, 'loadedTime': 3217.5, 'positionName': 'LEFT', 'positionCoords': [511.6, 335], 'bid': 0.52}, {'imgObject': {}, 'id': 'burger', 'src': '/static/foodstim60/burger.jpg', 'key': 'i', 'origWidth': 409, 'origHeight': 409, 'width': 409, 'height': 409, 'widthPercent': 0.45, 'rescaleHeight': False, 'trialN': 27, 'loaded': True, 'loadedTime': 3101.5, 'positionName': 'RIGHT', 'positionCoords': [998.4, 335.5], 'bid': 0.81}]",53775.40000000037,1669836870475,olives,burger,0.52,0.81,0.29000000000000004,burger,1515.7000000001863,1516,1516.0999999996275,True,i,55807.40000000037,2032.0,1669836872507,2032,HRV,HRV_0258,2022-11-30 19:39:08
28,"[{'imgObject': {}, 'id': 'blueberries', 'src': '/static/foodstim60/blueberries.jpg', 'key': 'u', 'origWidth': 411, 'origHeight': 411, 'width': 411, 'height': 411, 'widthPercent': 0.45, 'rescaleHeight': False, 'trialN': 28, 'loaded': True, 'loadedTime': 3033.9000000003725, 'positionName': 'LEFT', 'positionCoords': [510.6, 334.5], 'bid': 2.11}, {'imgObject': {}, 'id': 'cocktailshrimp', 'src': '/static/foodstim60/cocktailshrimp.jpg', 'key': 'i', 'origWidth': 410, 'origHeight': 410, 'width': 410, 'height': 410, 'widthPercent': 0.45, 'rescaleHeight': False, 'trialN': 28, 'loaded': True, 'loadedTime': 3219.100000000559, 'positionName': 'RIGHT', 'positionCoords': [998.4, 335], 'bid': 0.89}]",55807.60000000056,1669836872507,blueberries,cocktailshrimp,2.11,0.89,-1.2199999999999998,blueberries,1139.2000000001863,1140,1139.5999999996275,True,u,57456.800000000745,1649.2000000001863,1669836874156,1649,HRV,HRV_0258,2022-11-30 19:39:08
29,"[{'imgObject': {}, 'id': 'mashed potato', 'src': '/static/foodstim60/mashed potato.jpg', 'key': 'u', 'origWidth': 409, 'origHeight': 409, 'width': 409, 'height': 409, 'widthPercent': 0.45, 'rescaleHeight': False, 'trialN': 29, 'loaded': True, 'loadedTime': 3234.9000000003725, 'positionName': 'LEFT', 'positionCoords': [512.6, 335.5], 'bid': 7.95}, {'imgObject': {}, 'id': 'popsicles', 'src': '/static/foodstim60/popsicles.jpg', 'key': 'i', 'origWidth': 410, 'origHeight': 410, 'width': 410, 'height': 410, 'widthPercent': 0.45, 'rescaleHeight': False, 'trialN': 29, 'loaded': True, 'loadedTime': 3345.600000000559, 'positionName': 'RIGHT', 'positionCoords': [998.4, 335], 'bid': 9.07}]",57457.0,1669836874156,mashed potato,popsicles,7.95,9.07,1.12,mashed potato,1409.800000000745,1411,1410.1000000005588,True,u,59373.700000000186,1916.7000000001863,1669836876073,1917,HRV,HRV_0258,2022-11-30 19:39:08
30,"[{'imgObject': {}, 'id': 'orange slices', 'src': '/static/foodstim60/orange slices.jpg', 'key': 'u', 'origWidth': 409, 'origHeight': 410, 'width': 409, 'height': 410, 'widthPercent': 0.45, 'rescaleHeight': False, 'trialN': 30, 'loaded': True, 'loadedTime': 3064.600000000559, 'positionName': 'LEFT', 'positionCoords': [512.6, 335], 'bid': 9.03}, {'imgObject': {}, 'id': 'chickenfingers', 'src': '/static/foodstim60/chickenfingers.jpg', 'key': 'i', 'origWidth': 410, 'origHeight': 410, 'width': 410, 'height': 410, 'widthPercent': 0.45, 'rescaleHeight': False, 'trialN': 30, 'loaded': True, 'loadedTime': 3180, 'positionName': 'RIGHT', 'positionCoords': [998.4, 335], 'bid': 8.26}]",59373.90000000037,1669836876073,orange slices,chickenfingers,9.03,8.26,-0.7699999999999996,orange slices,1500.9000000003725,1502,1501.4000000003725,True,u,61390.5,2016.5999999996275,1669836878090,2017,HRV,HRV_0258,2022-11-30 19:39:08
31,"[{'imgObject': {}, 'id': 'shreddedwheatwithmilk', 'src': '/static/foodstim60/shreddedwheatwithmilk.jpg', 'key': 'u', 'origWidth': 410, 'origHeight': 410, 'width': 410, 'height': 410, 'widthPercent': 0.45, 'rescaleHeight': False, 'trialN': 31, 'loaded': True, 'loadedTime': 3249.7000000001863, 'positionName': 'LEFT', 'positionCoords': [511.6, 335], 'bid': 6.86}, {'imgObject': {}, 'id': 'salmon', 'src': '/static/foodstim60/salmon.jpg', 'key': 'i', 'origWidth': 410, 'origHeight': 409, 'width': 410, 'height': 409, 'widthPercent': 0.45, 'rescaleHeight': False, 'trialN': 31, 'loaded': True, 'loadedTime': 3128.2000000001863, 'positionName': 'RIGHT', 'positionCoords': [998.4, 335.5], 'bid': 7.66}]",61390.700000000186,1669836878090,shreddedwheatwithmilk,salmon,6.86,7.66,0.7999999999999998,salmon,1252.0,1253,1252.4000000003725,True,i,63150.5,1759.7999999998137,1669836879850,1760,HRV,HRV_0258,2022-11-30 19:39:08
32,"[{'imgObject': {}, 'id': 'froot loops w milk', 'src': '/static/foodstim60/froot loops w milk.jpg', 'key': 'u', 'origWidth': 410, 'origHeight': 410, 'width': 410, 'height': 410, 'widthPercent': 0.45, 'rescaleHeight': False, 'trialN': 32, 'loaded': True, 'loadedTime': 3250.4000000003725, 'positionName': 'LEFT', 'positionCoords': [511.6, 335], 'bid': 6.55}, {'imgObject': {}, 'id': 'sweetpotato', 'src': '/static/foodstim60/sweetpotato.jpg', 'key': 'i', 'origWidth': 410, 'origHeight': 410, 'width': 410, 'height': 410, 'widthPercent': 0.45, 'rescaleHeight': False, 'trialN': 32, 'loaded': True, 'loadedTime': 3210.300000000745, 'positionName': 'RIGHT', 'positionCoords': [998.4, 335], 'bid': 6.44}]",63150.60000000056,1669836879850,froot loops w milk,sweetpotato,6.55,6.44,-0.10999999999999943,froot loops w milk,1436.0999999996275,1436,1436.5,True,u,65095.200000000186,1944.5999999996275,1669836881795,1945,HRV,HRV_0258,2022-11-30 19:39:08
33,"[{'imgObject': {}, 'id': 'tacos', 'src': '/static/foodstim60/tacos.jpg', 'key': 'u', 'origWidth': 411, 'origHeight': 411, 'width': 411, 'height': 411, 'widthPercent': 0.45, 'rescaleHeight': False, 'trialN': 33, 'loaded': True, 'loadedTime': 2952.9000000003725, 'positionName': 'LEFT', 'positionCoords': [510.6, 334.5], 'bid': 1.23}, {'imgObject': {}, 'id': 'avocado', 'src': '/static/foodstim60/avocado.jpg', 'key': 'i', 'origWidth': 409, 'origHeight': 409, 'width': 409, 'height': 409, 'widthPercent': 0.45, 'rescaleHeight': False, 'trialN': 33, 'loaded': True, 'loadedTime': 3190, 'positionName': 'RIGHT', 'positionCoords': [998.4, 335.5], 'bid': 1.18}]",65095.40000000037,1669836881795,tacos,avocado,1.23,1.18,-0.050000000000000044,avocado,1763.5,1764,1763.9000000003725,True,i,67375.80000000075,2280.4000000003725,1669836884075,2280,HRV,HRV_0258,2022-11-30 19:39:08
34,"[{'imgObject': {}, 'id': 'apple slices', 'src': '/static/foodstim60/apple slices.jpg', 'key': 'u', 'origWidth': 409, 'origHeight': 410, 'width': 409, 'height': 410, 'widthPercent': 0.45, 'rescaleHeight': False, 'trialN': 34, 'loaded': True, 'loadedTime': 2966, 'positionName': 'LEFT', 'positionCoords': [512.6, 335], 'bid': 6.62}, {'imgObject': {}, 'id': 'sweetpotato', 'src': '/static/foodstim60/sweetpotato.jpg', 'key': 'i', 'origWidth': 410, 'origHeight': 410, 'width': 410, 'height': 410, 'widthPercent': 0.45, 'rescaleHeight': False, 'trialN': 34, 'loaded': True, 'loadedTime': 3208.9000000003725, 'positionName': 'RIGHT', 'positionCoords': [998.4, 335], 'bid': 6.44}]",67375.90000000037,1669836884075,apple slices,sweetpotato,6.62,6.44,-0.17999999999999972,apple slices,962.7000000001863,963,963.0999999996275,True,u,68854.30000000075,1478.4000000003725,1669836885554,1479,HRV,HRV_0258,2022-11-30 19:39:08
35,"[{'imgObject': {}, 'id': 'corn cob', 'src': '/static/foodstim60/corn cob.jpg', 'key': 'u', 'origWidth': 411, 'origHeight': 411, 'width': 411, 'height': 411, 'widthPercent': 0.45, 'rescaleHeight': False, 'trialN': 35, 'loaded': True, 'loadedTime': 3164.4000000003725, 'positionName': 'LEFT', 'positionCoords': [510.6, 334.5], 'bid': 4.2}, {'imgObject': {}, 'id': 'cocktailshrimp', 'src': '/static/foodstim60/cocktailshrimp.jpg', 'key': 'i', 'origWidth': 410, 'origHeight': 410, 'width': 410, 'height': 410, 'widthPercent': 0.45, 'rescaleHeight': False, 'trialN': 35, 'loaded': True, 'loadedTime': 3218.2000000001863, 'positionName': 'RIGHT', 'positionCoords': [998.4, 335], 'bid': 0.89}]",68854.40000000037,1669836885554,corn cob,cocktailshrimp,4.2,0.89,-3.31,corn cob,1628.2000000001863,1629,1628.7000000001863,True,u,70994.90000000037,2140.5,1669836887694,2140,HRV,HRV_0258,2022-11-30 19:39:08
36,"[{'imgObject': {}, 'id': 'eggsalad', 'src': '/static/foodstim60/eggsalad.jpg', 'key': 'u', 'origWidth': 410, 'origHeight': 409, 'width': 410, 'height': 409, 'widthPercent': 0.45, 'rescaleHeight': False, 'trialN': 36, 'loaded': True, 'loadedTime': 3258.7000000001863, 'positionName': 'LEFT', 'positionCoords': [511.6, 335.5], 'bid': 8.1}, {'imgObject': {}, 'id': 'roastedpotatoes', 'src': '/static/foodstim60/roastedpotatoes.jpg', 'key': 'i', 'origWidth': 409, 'origHeight': 410, 'width': 409, 'height': 410, 'widthPercent': 0.45, 'rescaleHeight': False, 'trialN': 36, 'loaded': True, 'loadedTime': 3268.4000000003725, 'positionName': 'RIGHT', 'positionCoords': [998.4, 335], 'bid': 7.67}]",70995.10000000056,1669836887695,eggsalad,roastedpotatoes,8.1,7.67,-0.4299999999999997,eggsalad,1207.5,1207,1207.7999999998137,True,u,72721.20000000019,1726.0999999996275,1669836889421,1726,HRV,HRV_0258,2022-11-30 19:39:08
37,"[{'imgObject': {}, 'id': 'mac & cheese', 'src': '/static/foodstim60/mac & cheese.jpg', 'key': 'u', 'origWidth': 410, 'origHeight': 410, 'width': 410, 'height': 410, 'widthPercent': 0.45, 'rescaleHeight': False, 'trialN': 37, 'loaded': True, 'loadedTime': 3276.7000000001863, 'positionName': 'LEFT', 'positionCoords': [511.6, 335], 'bid': 0.46}, {'imgObject': {}, 'id': 'cheerios', 'src': '/static/foodstim60/cheerios.jpg', 'key': 'i', 'origWidth': 409, 'origHeight': 410, 'width': 409, 'height': 410, 'widthPercent': 0.45, 'rescaleHeight': False, 'trialN': 37, 'loaded': True, 'loadedTime': 3285.7000000001863, 'positionName': 'RIGHT', 'positionCoords': [998.4, 335], 'bid': 2.84}]",72721.40000000037,1669836889421,mac & cheese,cheerios,0.46,2.84,2.38,cheerios,1313.2000000001863,1313,1313.5999999996275,True,i,74553.0,1831.5999999996275,1669836891252,1831,HRV,HRV_0258,2022-11-30 19:39:08
38,"[{'imgObject': {}, 'id': 'corn cob', 'src': '/static/foodstim60/corn cob.jpg', 'key': 'u', 'origWidth': 411, 'origHeight': 411, 'width': 411, 'height': 411, 'widthPercent': 0.45, 'rescaleHeight': False, 'trialN': 38, 'loaded': True, 'loadedTime': 3164.800000000745, 'positionName': 'LEFT', 'positionCoords': [510.6, 334.5], 'bid': 4.2}, {'imgObject': {}, 'id': 'omelette', 'src': '/static/foodstim60/omelette.jpg', 'key': 'i', 'origWidth': 410, 'origHeight': 409, 'width': 410, 'height': 409, 'widthPercent': 0.45, 'rescaleHeight': False, 'trialN': 38, 'loaded': True, 'loadedTime': 3286, 'positionName': 'RIGHT', 'positionCoords': [998.4, 335.5], 'bid': 3.25}]",74553.10000000056,1669836891253,corn cob,omelette,4.2,3.25,-0.9500000000000002,corn cob,1497.5,1497,1497.8999999994412,True,u,76567.5,2014.3999999994412,1669836893267,2014,HRV,HRV_0258,2022-11-30 19:39:08
39,"[{'imgObject': {}, 'id': 'banana', 'src': '/static/foodstim60/banana.jpg', 'key': 'u', 'origWidth': 410, 'origHeight': 410, 'width': 410, 'height': 410, 'widthPercent': 0.45, 'rescaleHeight': False, 'trialN': 39, 'loaded': True, 'loadedTime': 2983.4000000003725, 'positionName': 'LEFT', 'positionCoords': [511.6, 335], 'bid': 6.66}, {'imgObject': {}, 'id': 'cantaloupe', 'src': '/static/foodstim60/cantaloupe.jpg', 'key': 'i', 'origWidth': 409, 'origHeight': 409, 'width': 409, 'height': 409, 'widthPercent': 0.45, 'rescaleHeight': False, 'trialN': 39, 'loaded': True, 'loadedTime': 2956.4000000003725, 'positionName': 'RIGHT', 'positionCoords': [998.4, 335.5], 'bid': 8.8}]",76567.60000000056,1669836893267,banana,cantaloupe,6.66,8.8,2.1400000000000006,cantaloupe,947.2000000001863,948,947.5999999996275,True,i,78026.30000000075,1458.7000000001863,1669836894726,1459,HRV,HRV_0258,2022-11-30 19:39:08
40,"[{'imgObject': {}, 'id': 'mango', 'src': '/static/foodstim60/mango.jpg', 'key': 'u', 'origWidth': 411, 'origHeight': 411, 'width': 411, 'height': 411, 'widthPercent': 0.45, 'rescaleHeight': False, 'trialN': 40, 'loaded': True, 'loadedTime': 3296, 'positionName': 'LEFT', 'positionCoords': [510.6, 334.5], 'bid': 1.12}, {'imgObject': {}, 'id': 'mac & cheese', 'src': '/static/foodstim60/mac & cheese.jpg', 'key': 'i', 'origWidth': 410, 'origHeight': 410, 'width': 410, 'height': 410, 'widthPercent': 0.45, 'rescaleHeight': False, 'trialN': 40, 'loaded': True, 'loadedTime': 3268.7000000001863, 'positionName': 'RIGHT', 'positionCoords': [998.4, 335], 'bid': 0.46}]",78026.5,1669836894726,mango,mac & cheese,1.12,0.46,-0.6600000000000001,mango,800.0,800,800.4000000003725,True,u,79334.10000000056,1307.6000000005588,1669836896033,1307,HRV,HRV_0258,2022-11-30 19:39:08
41,"[{'imgObject': {}, 'id': 'luckycharms', 'src': '/static/foodstim60/luckycharms.jpg', 'key': 'u', 'origWidth': 410, 'origHeight': 409, 'width': 410, 'height': 409, 'widthPercent': 0.45, 'rescaleHeight': False, 'trialN': 41, 'loaded': True, 'loadedTime': 3032.100000000559, 'positionName': 'LEFT', 'positionCoords': [511.6, 335.5], 'bid': 6.11}, {'imgObject': {}, 'id': 'baked potato', 'src': '/static/foodstim60/baked potato.jpg', 'key': 'i', 'origWidth': 409, 'origHeight': 410, 'width': 409, 'height': 410, 'widthPercent': 0.45, 'rescaleHeight': False, 'trialN': 41, 'loaded': True, 'loadedTime': 3191.100000000559, 'positionName': 'RIGHT', 'positionCoords': [998.4, 335], 'bid': 7.67}]",79334.30000000075,1669836896034,luckycharms,baked potato,6.11,7.67,1.5599999999999996,baked potato,1108.2999999998137,1108,1108.5999999996275,True,i,80951.5,1617.199999999255,1669836897651,1617,HRV,HRV_0258,2022-11-30 19:39:08
42,"[{'imgObject': {}, 'id': 'sweetpotato', 'src': '/static/foodstim60/sweetpotato.jpg', 'key': 'u', 'origWidth': 410, 'origHeight': 410, 'width': 410, 'height': 410, 'widthPercent': 0.45, 'rescaleHeight': False, 'trialN': 42, 'loaded': True, 'loadedTime': 3210, 'positionName': 'LEFT', 'positionCoords': [511.6, 335], 'bid': 6.44}, {'imgObject': {}, 'id': 'turkeysandwich', 'src': '/static/foodstim60/turkeysandwich.jpg', 'key': 'i', 'origWidth': 409, 'origHeight': 409, 'width': 409, 'height': 409, 'widthPercent': 0.45, 'rescaleHeight': False, 'trialN': 42, 'loaded': True, 'loadedTime': 2963.5, 'positionName': 'RIGHT', 'positionCoords': [998.4, 335.5], 'bid': 4.93}]",80951.70000000019,1669836897651,sweetpotato,turkeysandwich,6.44,4.93,-1.5100000000000007,sweetpotato,1090.7000000001863,1091,1091.2000000001863,True,u,82556.40000000037,1604.7000000001863,1669836899256,1605,HRV,HRV_0258,2022-11-30 19:39:08
43,"[{'imgObject': {}, 'id': 'seaweed', 'src': '/static/foodstim60/seaweed.jpg', 'key': 'u', 'origWidth': 410, 'origHeight': 410, 'width': 410, 'height': 410, 'widthPercent': 0.45, 'rescaleHeight': False, 'trialN': 43, 'loaded': True, 'loadedTime': 2961.5, 'positionName': 'LEFT', 'positionCoords': [511.6, 335], 'bid': 6.390000000000001}, {'imgObject': {}, 'id': 'fried eggs', 'src': '/static/foodstim60/fried eggs.jpg', 'key': 'i', 'origWidth': 410, 'origHeight': 410, 'width': 410, 'height': 410, 'widthPercent': 0.45, 'rescaleHeight': False, 'trialN': 43, 'loaded': True, 'loadedTime': 2965.9000000003725, 'positionName': 'RIGHT', 'positionCoords': [998.4, 335], 'bid': 6.05}]",82556.60000000056,1669836899256,seaweed,fried eggs,6.390000000000001,6.05,-0.34000000000000075,seaweed,1525.7999999998137,1526,1526.2000000001863,True,u,84602.40000000037,2045.7999999998137,1669836901302,2046,HRV,HRV_0258,2022-11-30 19:39:08
44,"[{'imgObject': {}, 'id': 'fruitsalad', 'src': '/static/foodstim60/fruitsalad.jpg', 'key': 'u', 'origWidth': 410, 'origHeight': 410, 'width': 410, 'height': 410, 'widthPercent': 0.45, 'rescaleHeight': False, 'trialN': 44, 'loaded': True, 'loadedTime': 3304.100000000559, 'positionName': 'LEFT', 'positionCoords': [511.6, 335], 'bid': 9.69}, {'imgObject': {}, 'id': 'chickenfingers', 'src': '/static/foodstim60/chickenfingers.jpg', 'key': 'i', 'origWidth': 410, 'origHeight': 410, 'width': 410, 'height': 410, 'widthPercent': 0.45, 'rescaleHeight': False, 'trialN': 44, 'loaded': True, 'loadedTime': 3171.7000000001863, 'positionName': 'RIGHT', 'positionCoords': [998.4, 335], 'bid': 8.26}]",84602.5,1669836901302,fruitsalad,chickenfingers,9.69,8.26,-1.4299999999999997,fruitsalad,1272.0,1272,1272.300000000745,True,u,86392.60000000056,1790.1000000005588,1669836903092,1790,HRV,HRV_0258,2022-11-30 19:39:08
45,"[{'imgObject': {}, 'id': 'steak', 'src': '/static/foodstim60/steak.jpg', 'key': 'u', 'origWidth': 410, 'origHeight': 410, 'width': 410, 'height': 410, 'widthPercent': 0.45, 'rescaleHeight': False, 'trialN': 45, 'loaded': True, 'loadedTime': 3304.4000000003725, 'positionName': 'LEFT', 'positionCoords': [511.6, 335], 'bid': 7.12}, {'imgObject': {}, 'id': 'Grapes', 'src': '/static/foodstim60/Grapes.jpg', 'key': 'i', 'origWidth': 411, 'origHeight': 411, 'width': 411, 'height': 411, 'widthPercent': 0.45, 'rescaleHeight': False, 'trialN': 45, 'loaded': True, 'loadedTime': 3203.7000000001863, 'positionName': 'RIGHT', 'positionCoords': [998.4, 334.5], 'bid': 6.93}]",86392.70000000019,1669836903092,steak,Grapes,7.12,6.93,-0.1900000000000004,steak,849.7000000001863,850,850.2000000001863,True,u,87759.60000000056,1366.9000000003725,1669836904459,1367,HRV,HRV_0258,2022-11-30 19:39:08
46,"[{'imgObject': {}, 'id': 'cherries', 'src': '/static/foodstim60/cherries.jpg', 'key': 'u', 'origWidth': 410, 'origHeight': 411, 'width': 410, 'height': 411, 'widthPercent': 0.45, 'rescaleHeight': False, 'trialN': 46, 'loaded': True, 'loadedTime': 3155.9000000003725, 'positionName': 'LEFT', 'positionCoords': [511.6, 334.5], 'bid': 1.6}, {'imgObject': {}, 'id': 'grilled chicken strips', 'src': '/static/foodstim60/grilled chicken strips.jpg', 'key': 'i', 'origWidth': 410, 'origHeight': 411, 'width': 410, 'height': 411, 'widthPercent': 0.45, 'rescaleHeight': False, 'trialN': 46, 'loaded': True, 'loadedTime': 3146.9000000003725, 'positionName': 'RIGHT', 'positionCoords': [998.4, 334.5], 'bid': 7.54}]",87759.80000000075,1669836904459,cherries,grilled chicken strips,1.6,7.54,5.9399999999999995,grilled chicken strips,762.7999999998137,763,763.1999999992549,True,i,89035.10000000056,1275.2999999998137,1669836905735,1276,HRV,HRV_0258,2022-11-30 19:39:08
47,"[{'imgObject': {}, 'id': 'burrito', 'src': '/static/foodstim60/burrito.jpg', 'key': 'u', 'origWidth': 410, 'origHeight': 410, 'width': 410, 'height': 410, 'widthPercent': 0.45, 'rescaleHeight': False, 'trialN': 47, 'loaded': True, 'loadedTime': 3307.300000000745, 'positionName': 'LEFT', 'positionCoords': [511.6, 335], 'bid': 0.89}, {'imgObject': {}, 'id': 'cocktailshrimp', 'src': '/static/foodstim60/cocktailshrimp.jpg', 'key': 'i', 'origWidth': 410, 'origHeight': 410, 'width': 410, 'height': 410, 'widthPercent': 0.45, 'rescaleHeight': False, 'trialN': 47, 'loaded': True, 'loadedTime': 3226.2000000001863, 'positionName': 'RIGHT', 'positionCoords': [998.4, 335], 'bid': 0.89}]",89035.30000000075,1669836905735,burrito,cocktailshrimp,0.89,0.89,0.0,cocktailshrimp,1423.0,1423,1423.3999999994412,True,i,90974.0,1938.699999999255,1669836907673,1938,HRV,HRV_0258,2022-11-30 19:39:08
48,"[{'imgObject': {}, 'id': 'fruitsalad', 'src': '/static/foodstim60/fruitsalad.jpg', 'key': 'u', 'origWidth': 410, 'origHeight': 410, 'width': 410, 'height': 410, 'widthPercent': 0.45, 'rescaleHeight': False, 'trialN': 48, 'loaded': True, 'loadedTime': 3297.300000000745, 'positionName': 'LEFT', 'positionCoords': [511.6, 335], 'bid': 9.69}, {'imgObject': {}, 'id': 'kiwi', 'src': '/static/foodstim60/kiwi.jpg', 'key': 'i', 'origWidth': 410, 'origHeight': 410, 'width': 410, 'height': 410, 'widthPercent': 0.45, 'rescaleHeight': False, 'trialN': 48, 'loaded': True, 'loadedTime': 3308.9000000003725, 'positionName': 'RIGHT', 'positionCoords': [998.4, 335], 'bid': 9.69}]",90974.10000000056,1669836907674,fruitsalad,kiwi,9.69,9.69,0.0,fruitsalad,900.2000000001863,900,900.5999999996275,True,u,92393.40000000037,1419.2999999998137,1669836909093,1419,HRV,HRV_0258,2022-11-30 19:39:08
49,"[{'imgObject': {}, 'id': 'kiwi', 'src': '/static/foodstim60/kiwi.jpg', 'key': 'u', 'origWidth': 410, 'origHeight': 410, 'width': 410, 'height': 410, 'widthPercent': 0.45, 'rescaleHeight': False, 'trialN': 49, 'loaded': True, 'loadedTime': 3309.100000000559, 'positionName': 'LEFT', 'positionCoords': [511.6, 335], 'bid': 9.69}, {'imgObject': {}, 'id': 'veggieswithdip', 'src': '/static/foodstim60/veggieswithdip.jpg', 'key': 'i', 'origWidth': 409, 'origHeight': 409, 'width': 409, 'height': 409, 'widthPercent': 0.45, 'rescaleHeight': False, 'trialN': 49, 'loaded': True, 'loadedTime': 3316, 'positionName': 'RIGHT', 'positionCoords': [998.4, 335.5], 'bid': 8.120000000000001}]",92393.60000000056,1669836909093,kiwi,veggieswithdip,9.69,8.120000000000001,-1.5699999999999985,kiwi,1368.7000000001863,1369,1369.0999999996275,True,u,94269.40000000037,1875.7999999998137,1669836910969,1876,HRV,HRV_0258,2022-11-30 19:39:08
50,"[{'imgObject': {}, 'id': 'pear', 'src': '/static/foodstim60/pear.jpg', 'key': 'u', 'origWidth': 411, 'origHeight': 410, 'width': 411, 'height': 410, 'widthPercent': 0.45, 'rescaleHeight': False, 'trialN': 50, 'loaded': True, 'loadedTime': 3180.300000000745, 'positionName': 'LEFT', 'positionCoords': [510.6, 335], 'bid': 7.4}, {'imgObject': {}, 'id': 'lox', 'src': '/static/foodstim60/lox.jpg', 'key': 'i', 'origWidth': 410, 'origHeight': 411, 'width': 410, 'height': 411, 'widthPercent': 0.45, 'rescaleHeight': False, 'trialN': 50, 'loaded': True, 'loadedTime': 3318.9000000003725, 'positionName': 'RIGHT', 'positionCoords': [998.4, 334.5], 'bid': 1.58}]",94269.60000000056,1669836910969,pear,lox,7.4,1.58,-5.82,pear,1124.7000000001863,1125,1125.0999999996275,True,u,95914.10000000056,1644.5,1669836912614,1645,HRV,HRV_0258,2022-11-30 19:39:08
51,"[{'imgObject': {}, 'id': 'cheerios', 'src': '/static/foodstim60/cheerios.jpg', 'key': 'u', 'origWidth': 409, 'origHeight': 410, 'width': 409, 'height': 410, 'widthPercent': 0.45, 'rescaleHeight': False, 'trialN': 51, 'loaded': True, 'loadedTime': 3278.300000000745, 'positionName': 'LEFT', 'positionCoords': [512.6, 335], 'bid': 2.84}, {'imgObject': {}, 'id': 'omelette', 'src': '/static/foodstim60/omelette.jpg', 'key': 'i', 'origWidth': 410, 'origHeight': 409, 'width': 410, 'height': 409, 'widthPercent': 0.45, 'rescaleHeight': False, 'trialN': 51, 'loaded': True, 'loadedTime': 3287.600000000559, 'positionName': 'RIGHT', 'positionCoords': [998.4, 335.5], 'bid': 3.25}]",95914.30000000075,1669836912614,cheerios,omelette,2.84,3.25,0.41000000000000014,cheerios,1511.8999999994412,1512,1512.199999999255,True,u,97934.5,2020.199999999255,1669836914634,2020,HRV,HRV_0258,2022-11-30 19:39:08
52,"[{'imgObject': {}, 'id': 'veggieswithdip', 'src': '/static/foodstim60/veggieswithdip.jpg', 'key': 'u', 'origWidth': 409, 'origHeight': 409, 'width': 409, 'height': 409, 'widthPercent': 0.45, 'rescaleHeight': False, 'trialN': 52, 'loaded': True, 'loadedTime': 3317.4000000003725, 'positionName': 'LEFT', 'positionCoords': [512.6, 335.5], 'bid': 8.120000000000001}, {'imgObject': {}, 'id': 'omelette', 'src': '/static/foodstim60/omelette.jpg', 'key': 'i', 'origWidth': 410, 'origHeight': 409, 'width': 410, 'height': 409, 'widthPercent': 0.45, 'rescaleHeight': False, 'trialN': 52, 'loaded': True, 'loadedTime': 3287.4000000003725, 'positionName': 'RIGHT', 'positionCoords': [998.4, 335.5], 'bid': 3.25}]",97934.70000000019,1669836914634,veggieswithdip,omelette,8.120000000000001,3.25,-4.870000000000001,veggieswithdip,723.7000000001863,724,724.1000000005588,True,u,99163.80000000075,1229.1000000005588,1669836915863,1229,HRV,HRV_0258,2022-11-30 19:39:08
53,"[{'imgObject': {}, 'id': 'baked potato', 'src': '/static/foodstim60/baked potato.jpg', 'key': 'u', 'origWidth': 409, 'origHeight': 410, 'width': 409, 'height': 410, 'widthPercent': 0.45, 'rescaleHeight': False, 'trialN': 53, 'loaded': True, 'loadedTime': 3196.600000000559, 'positionName': 'LEFT', 'positionCoords': [512.6, 335], 'bid': 7.67}, {'imgObject': {}, 'id': 'mashed potato', 'src': '/static/foodstim60/mashed potato.jpg', 'key': 'i', 'origWidth': 409, 'origHeight': 409, 'width': 409, 'height': 409, 'widthPercent': 0.45, 'rescaleHeight': False, 'trialN': 53, 'loaded': True, 'loadedTime': 3234.4000000003725, 'positionName': 'RIGHT', 'positionCoords': [998.4, 335.5], 'bid': 7.95}]",99164.0,1669836915863,baked potato,mashed potato,7.67,7.95,0.28000000000000025,mashed potato,982.3000000007451,983,982.5,True,i,100658.60000000056,1494.6000000005588,1669836917358,1495,HRV,HRV_0258,2022-11-30 19:39:08
54,"[{'imgObject': {}, 'id': 'mac & cheese', 'src': '/static/foodstim60/mac & cheese.jpg', 'key': 'u', 'origWidth': 410, 'origHeight': 410, 'width': 410, 'height': 410, 'widthPercent': 0.45, 'rescaleHeight': False, 'trialN': 54, 'loaded': True, 'loadedTime': 3277, 'positionName': 'LEFT', 'positionCoords': [511.6, 335], 'bid': 0.46}, {'imgObject': {}, 'id': 'ice cream sundae 002', 'src': '/static/foodstim60/ice cream sundae 002.jpg', 'key': 'i', 'origWidth': 409, 'origHeight': 409, 'width': 409, 'height': 409, 'widthPercent': 0.45, 'rescaleHeight': False, 'trialN': 54, 'loaded': True, 'loadedTime': 2960, 'positionName': 'RIGHT', 'positionCoords': [998.4, 335.5], 'bid': 6.43}]",100658.90000000037,1669836917358,mac & cheese,ice cream sundae 002,0.46,6.43,5.97,ice cream sundae 002,823.4000000003725,824,823.7000000001863,True,i,101996.80000000075,1337.9000000003725,1669836918696,1338,HRV,HRV_0258,2022-11-30 19:39:08
55,"[{'imgObject': {}, 'id': 'sushi w_condiments', 'src': '/static/foodstim60/sushi w_condiments.jpg', 'key': 'u', 'origWidth': 410, 'origHeight': 410, 'width': 410, 'height': 410, 'widthPercent': 0.45, 'rescaleHeight': False, 'trialN': 55, 'loaded': True, 'loadedTime': 3000.4000000003725, 'positionName': 'LEFT', 'positionCoords': [511.6, 335], 'bid': 1.52}, {'imgObject': {}, 'id': 'rigatoni and sauce', 'src': '/static/foodstim60/rigatoni and sauce.jpg', 'key': 'i', 'origWidth': 410, 'origHeight': 411, 'width': 410, 'height': 411, 'widthPercent': 0.45, 'rescaleHeight': False, 'trialN': 55, 'loaded': True, 'loadedTime': 2956.2000000001863, 'positionName': 'RIGHT', 'positionCoords': [998.4, 334.5], 'bid': 7.33}]",101997.10000000056,1669836918696,sushi w_condiments,rigatoni and sauce,1.52,7.33,5.8100000000000005,rigatoni and sauce,1005.2000000001863,1006,1005.8999999994412,True,i,103519.60000000056,1522.5,1669836920219,1523,HRV,HRV_0258,2022-11-30 19:39:08
56,"[{'imgObject': {}, 'id': 'froot loops w milk', 'src': '/static/foodstim60/froot loops w milk.jpg', 'key': 'u', 'origWidth': 410, 'origHeight': 410, 'width': 410, 'height': 410, 'widthPercent': 0.45, 'rescaleHeight': False, 'trialN': 56, 'loaded': True, 'loadedTime': 3258.4000000003725, 'positionName': 'LEFT', 'positionCoords': [511.6, 335], 'bid': 6.55}, {'imgObject': {}, 'id': 'burger', 'src': '/static/foodstim60/burger.jpg', 'key': 'i', 'origWidth': 409, 'origHeight': 409, 'width': 409, 'height': 409, 'widthPercent': 0.45, 'rescaleHeight': False, 'trialN': 56, 'loaded': True, 'loadedTime': 3102.2000000001863, 'positionName': 'RIGHT', 'positionCoords': [998.4, 335.5], 'bid': 0.81}]",103519.90000000037,1669836920219,froot loops w milk,burger,6.55,0.81,-5.74,froot loops w milk,1458.2999999998137,1459,1458.7000000001863,True,u,105488.0,1968.0999999996275,1669836922187,1968,HRV,HRV_0258,2022-11-30 19:39:08
57,"[{'imgObject': {}, 'id': 'grilled chicken strips', 'src': '/static/foodstim60/grilled chicken strips.jpg', 'key': 'u', 'origWidth': 410, 'origHeight': 411, 'width': 410, 'height': 411, 'widthPercent': 0.45, 'rescaleHeight': False, 'trialN': 57, 'loaded': True, 'loadedTime': 3146.2000000001863, 'positionName': 'LEFT', 'positionCoords': [511.6, 334.5], 'bid': 7.54}, {'imgObject': {}, 'id': 'rigatoni and sauce', 'src': '/static/foodstim60/rigatoni and sauce.jpg', 'key': 'i', 'origWidth': 410, 'origHeight': 411, 'width': 410, 'height': 411, 'widthPercent': 0.45, 'rescaleHeight': False, 'trialN': 57, 'loaded': True, 'loadedTime': 2955.4000000003725, 'positionName': 'RIGHT', 'positionCoords': [998.4, 334.5], 'bid': 7.33}]",105488.20000000019,1669836922188,grilled chicken strips,rigatoni and sauce,7.54,7.33,-0.20999999999999996,grilled chicken strips,1698.1000000005588,1698,1698.7999999998137,True,u,107705.10000000056,2216.9000000003725,1669836924404,2216,HRV,HRV_0258,2022-11-30 19:39:08
58,"[{'imgObject': {}, 'id': 'eggs', 'src': '/static/foodstim60/eggs.jpg', 'key': 'u', 'origWidth': 409, 'origHeight': 409, 'width': 409, 'height': 409, 'widthPercent': 0.45, 'rescaleHeight': False, 'trialN': 58, 'loaded': True, 'loadedTime': 3320.600000000559, 'positionName': 'LEFT', 'positionCoords': [512.6, 335.5], 'bid': 0.41}, {'imgObject': {}, 'id': 'avocado', 'src': '/static/foodstim60/avocado.jpg', 'key': 'i', 'origWidth': 409, 'origHeight': 409, 'width': 409, 'height': 409, 'widthPercent': 0.45, 'rescaleHeight': False, 'trialN': 58, 'loaded': True, 'loadedTime': 3181.7000000001863, 'positionName': 'RIGHT', 'positionCoords': [998.4, 335.5], 'bid': 1.18}]",107705.30000000075,1669836924405,eggs,avocado,0.41,1.18,0.77,avocado,1249.0999999996275,1249,1249.5,True,i,109462.0,1756.699999999255,1669836926161,1756,HRV,HRV_0258,2022-11-30 19:39:08
59,"[{'imgObject': {}, 'id': 'sweetpotato', 'src': '/static/foodstim60/sweetpotato.jpg', 'key': 'u', 'origWidth': 410, 'origHeight': 410, 'width': 410, 'height': 410, 'widthPercent': 0.45, 'rescaleHeight': False, 'trialN': 59, 'loaded': True, 'loadedTime': 3210.5, 'positionName': 'LEFT', 'positionCoords': [511.6, 335], 'bid': 6.44}, {'imgObject': {}, 'id': 'olives', 'src': '/static/foodstim60/olives.jpg', 'key': 'i', 'origWidth': 410, 'origHeight': 410, 'width': 410, 'height': 410, 'widthPercent': 0.45, 'rescaleHeight': False, 'trialN': 59, 'loaded': True, 'loadedTime': 3217.7000000001863, 'positionName': 'RIGHT', 'positionCoords': [998.4, 335], 'bid': 0.52}]",109462.10000000056,1669836926162,sweetpotato,olives,6.44,0.52,-5.92,sweetpotato,1564.0,1564,1564.3999999994412,True,u,111537.90000000037,2075.7999999998137,1669836928237,2075,HRV,HRV_0258,2022-11-30 19:39:08
60,"[{'imgObject': {}, 'id': 'yogurt no spoon', 'src': '/static/foodstim60/yogurt no spoon.jpg', 'key': 'u', 'origWidth': 411, 'origHeight': 410, 'width': 411, 'height': 410, 'widthPercent': 0.45, 'rescaleHeight': False, 'trialN': 60, 'loaded': True, 'loadedTime': 3328.5, 'positionName': 'LEFT', 'positionCoords': [510.6, 335], 'bid': 6.75}, {'imgObject': {}, 'id': 'grilled chicken strips', 'src': '/static/foodstim60/grilled chicken strips.jpg', 'key': 'i', 'origWidth': 410, 'origHeight': 411, 'width': 410, 'height': 411, 'widthPercent': 0.45, 'rescaleHeight': False, 'trialN': 60, 'loaded': True, 'loadedTime': 3147.800000000745, 'positionName': 'RIGHT', 'positionCoords': [998.4, 334.5], 'bid': 7.54}]",111538.0,1669836928237,yogurt no spoon,grilled chicken strips,6.75,7.54,0.79,grilled chicken strips,952.1000000005588,953,952.4000000003725,True,i,113001.40000000037,1463.4000000003725,1669836929701,1464,HRV,HRV_0258,2022-11-30 19:39:08
61,"[{'imgObject': {}, 'id': 'yogurt no spoon', 'src': '/static/foodstim60/yogurt no spoon.jpg', 'key': 'u', 'origWidth': 411, 'origHeight': 410, 'width': 411, 'height': 410, 'widthPercent': 0.45, 'rescaleHeight': False, 'trialN': 61, 'loaded': True, 'loadedTime': 3328.5, 'positionName': 'LEFT', 'positionCoords': [510.6, 335], 'bid': 6.75}, {'imgObject': {}, 'id': 'cherry tomato', 'src': '/static/foodstim60/cherry tomato.jpg', 'key': 'i', 'origWidth': 410, 'origHeight': 410, 'width': 410, 'height': 410, 'widthPercent': 0.45, 'rescaleHeight': False, 'trialN': 61, 'loaded': True, 'loadedTime': 3336.2000000001863, 'positionName': 'RIGHT', 'positionCoords': [998.4, 335], 'bid': 0.97}]",113001.60000000056,1669836929701,yogurt no spoon,cherry tomato,6.75,0.97,-5.78,yogurt no spoon,1120.5,1121,1120.8999999994412,True,u,114634.0,1632.3999999994412,1669836931333,1632,HRV,HRV_0258,2022-11-30 19:39:08
62,"[{'imgObject': {}, 'id': 'mac & cheese', 'src': '/static/foodstim60/mac & cheese.jpg', 'key': 'u', 'origWidth': 410, 'origHeight': 410, 'width': 410, 'height': 410, 'widthPercent': 0.45, 'rescaleHeight': False, 'trialN': 62, 'loaded': True, 'loadedTime': 3277, 'positionName': 'LEFT', 'positionCoords': [511.6, 335], 'bid': 0.46}, {'imgObject': {}, 'id': 'lox', 'src': '/static/foodstim60/lox.jpg', 'key': 'i', 'origWidth': 410, 'origHeight': 411, 'width': 410, 'height': 411, 'widthPercent': 0.45, 'rescaleHeight': False, 'trialN': 62, 'loaded': True, 'loadedTime': 3319.4000000003725, 'positionName': 'RIGHT', 'positionCoords': [998.4, 334.5], 'bid': 1.58}]",114634.20000000019,1669836931334,mac & cheese,lox,0.46,1.58,1.12,lox,1375.9000000003725,1376,1376.2999999998137,True,i,116528.30000000075,1894.1000000005588,1669836933228,1894,HRV,HRV_0258,2022-11-30 19:39:08
63,"[{'imgObject': {}, 'id': 'hotdog w must', 'src': '/static/foodstim60/hotdog w must.jpg', 'key': 'u', 'origWidth': 409, 'origHeight': 409, 'width': 409, 'height': 409, 'widthPercent': 0.45, 'rescaleHeight': False, 'trialN': 63, 'loaded': True, 'loadedTime': 3090.7000000001863, 'positionName': 'LEFT', 'positionCoords': [512.6, 335.5], 'bid': 0.33}, {'imgObject': {}, 'id': 'raisin bran w milk', 'src': '/static/foodstim60/raisin bran w milk.jpg', 'key': 'i', 'origWidth': 411, 'origHeight': 411, 'width': 411, 'height': 411, 'widthPercent': 0.45, 'rescaleHeight': False, 'trialN': 63, 'loaded': True, 'loadedTime': 3019, 'positionName': 'RIGHT', 'positionCoords': [998.4, 334.5], 'bid': 5.62}]",116528.5,1669836933228,hotdog w must,raisin bran w milk,0.33,5.62,5.29,raisin bran w milk,945.6000000005588,946,946.0,True,i,117988.60000000056,1460.1000000005588,1669836934688,1460,HRV,HRV_0258,2022-11-30 19:39:08
64,"[{'imgObject': {}, 'id': 'strawberries', 'src': '/static/foodstim60/strawberries.jpg', 'key': 'u', 'origWidth': 410, 'origHeight': 410, 'width': 410, 'height': 410, 'widthPercent': 0.45, 'rescaleHeight': False, 'trialN': 64, 'loaded': True, 'loadedTime': 3337, 'positionName': 'LEFT', 'positionCoords': [511.6, 335], 'bid': 9.51}, {'imgObject': {}, 'id': 'granola w milk', 'src': '/static/foodstim60/granola w milk.jpg', 'key': 'i', 'origWidth': 410, 'origHeight': 410, 'width': 410, 'height': 410, 'widthPercent': 0.45, 'rescaleHeight': False, 'trialN': 64, 'loaded': True, 'loadedTime': 3118.800000000745, 'positionName': 'RIGHT', 'positionCoords': [998.4, 335], 'bid': 5.0200000000000005}]",117988.80000000075,1669836934688,strawberries,granola w milk,9.51,5.0200000000000005,-4.489999999999999,strawberries,1341.3999999994412,1342,1341.8999999994412,True,u,119850.10000000056,1861.2999999998137,1669836936549,1861,HRV,HRV_0258,2022-11-30 19:39:08
65,"[{'imgObject': {}, 'id': 'omelette', 'src': '/static/foodstim60/omelette.jpg', 'key': 'u', 'origWidth': 410, 'origHeight': 409, 'width': 410, 'height': 409, 'widthPercent': 0.45, 'rescaleHeight': False, 'trialN': 65, 'loaded': True, 'loadedTime': 3287.300000000745, 'positionName': 'LEFT', 'positionCoords': [511.6, 335.5], 'bid': 3.25}, {'imgObject': {}, 'id': 'burger', 'src': '/static/foodstim60/burger.jpg', 'key': 'i', 'origWidth': 409, 'origHeight': 409, 'width': 409, 'height': 409, 'widthPercent': 0.45, 'rescaleHeight': False, 'trialN': 65, 'loaded': True, 'loadedTime': 3109.100000000559, 'positionName': 'RIGHT', 'positionCoords': [998.4, 335.5], 'bid': 0.81}]",119850.60000000056,1669836936550,omelette,burger,3.25,0.81,-2.44,burger,1119.3999999994412,1120,1119.7999999998137,True,i,121484.40000000037,1633.7999999998137,1669836938184,1634,HRV,HRV_0258,2022-11-30 19:39:08
66,"[{'imgObject': {}, 'id': 'raspberries', 'src': '/static/foodstim60/raspberries.jpg', 'key': 'u', 'origWidth': 411, 'origHeight': 411, 'width': 411, 'height': 411, 'widthPercent': 0.45, 'rescaleHeight': False, 'trialN': 66, 'loaded': True, 'loadedTime': 3011.800000000745, 'positionName': 'LEFT', 'positionCoords': [510.6, 334.5], 'bid': 5.4}, {'imgObject': {}, 'id': 'edamame', 'src': '/static/foodstim60/edamame.jpg', 'key': 'i', 'origWidth': 409, 'origHeight': 410, 'width': 409, 'height': 410, 'widthPercent': 0.45, 'rescaleHeight': False, 'trialN': 66, 'loaded': True, 'loadedTime': 3339.9000000003725, 'positionName': 'RIGHT', 'positionCoords': [998.4, 335], 'bid': 0.31}]",121484.60000000056,1669836938184,raspberries,edamame,5.4,0.31,-5.090000000000001,raspberries,1229.3999999994412,1230,1229.7000000001863,True,u,123227.0,1742.3999999994412,1669836939926,1742,HRV,HRV_0258,2022-11-30 19:39:08
67,"[{'imgObject': {}, 'id': 'Grapes', 'src': '/static/foodstim60/Grapes.jpg', 'key': 'u', 'origWidth': 411, 'origHeight': 411, 'width': 411, 'height': 411, 'widthPercent': 0.45, 'rescaleHeight': False, 'trialN': 67, 'loaded': True, 'loadedTime': 3198.4000000003725, 'positionName': 'LEFT', 'positionCoords': [510.6, 334.5], 'bid': 6.93}, {'imgObject': {}, 'id': 'strawberries', 'src': '/static/foodstim60/strawberries.jpg', 'key': 'i', 'origWidth': 410, 'origHeight': 410, 'width': 410, 'height': 410, 'widthPercent': 0.45, 'rescaleHeight': False, 'trialN': 67, 'loaded': True, 'loadedTime': 3338.2000000001863, 'positionName': 'RIGHT', 'positionCoords': [998.4, 335], 'bid': 9.51}]",123227.30000000075,1669836939927,Grapes,strawberries,6.93,9.51,2.58,strawberries,918.5999999996275,919,919.0,True,i,124660.10000000056,1432.7999999998137,1669836941359,1432,HRV,HRV_0258,2022-11-30 19:39:08
68,"[{'imgObject': {}, 'id': 'steak', 'src': '/static/foodstim60/steak.jpg', 'key': 'u', 'origWidth': 410, 'origHeight': 410, 'width': 410, 'height': 410, 'widthPercent': 0.45, 'rescaleHeight': False, 'trialN': 68, 'loaded': True, 'loadedTime': 3305.600000000559, 'positionName': 'LEFT', 'positionCoords': [511.6, 335], 'bid': 7.12}, {'imgObject': {}, 'id': 'froot loops w milk', 'src': '/static/foodstim60/froot loops w milk.jpg', 'key': 'i', 'origWidth': 410, 'origHeight': 410, 'width': 410, 'height': 410, 'widthPercent': 0.45, 'rescaleHeight': False, 'trialN': 68, 'loaded': True, 'loadedTime': 3251.4000000003725, 'positionName': 'RIGHT', 'positionCoords': [998.4, 335], 'bid': 6.55}]",124660.20000000019,1669836941360,steak,froot loops w milk,7.12,6.55,-0.5700000000000003,steak,893.7999999998137,894,894.2000000001863,True,u,126061.30000000075,1401.1000000005588,1669836942761,1401,HRV,HRV_0258,2022-11-30 19:39:08
69,"[{'imgObject': {}, 'id': 'bagel and cc', 'src': '/static/foodstim60/bagel and cc.jpg', 'key': 'u', 'origWidth': 410, 'origHeight': 410, 'width': 410, 'height': 410, 'widthPercent': 0.45, 'rescaleHeight': False, 'trialN': 69, 'loaded': True, 'loadedTime': 3049.300000000745, 'positionName': 'LEFT', 'positionCoords': [511.6, 335], 'bid': 2.42}, {'imgObject': {}, 'id': 'tacos', 'src': '/static/foodstim60/tacos.jpg', 'key': 'i', 'origWidth': 411, 'origHeight': 411, 'width': 411, 'height': 411, 'widthPercent': 0.45, 'rescaleHeight': False, 'trialN': 69, 'loaded': True, 'loadedTime': 2952.300000000745, 'positionName': 'RIGHT', 'positionCoords': [998.4, 334.5], 'bid': 1.23}]",126061.40000000037,1669836942761,bagel and cc,tacos,2.42,1.23,-1.19,bagel and cc,924.5,925,924.9000000003725,True,u,127493.90000000037,1432.5,1669836944193,1432,HRV,HRV_0258,2022-11-30 19:39:08
70,"[{'imgObject': {}, 'id': 'Grapes', 'src': '/static/foodstim60/Grapes.jpg', 'key': 'u', 'origWidth': 411, 'origHeight': 411, 'width': 411, 'height': 411, 'widthPercent': 0.45, 'rescaleHeight': False, 'trialN': 70, 'loaded': True, 'loadedTime': 3203.2000000001863, 'positionName': 'LEFT', 'positionCoords': [510.6, 334.5], 'bid': 6.93}, {'imgObject': {}, 'id': 'yogurt no spoon', 'src': '/static/foodstim60/yogurt no spoon.jpg', 'key': 'i', 'origWidth': 411, 'origHeight': 410, 'width': 411, 'height': 410, 'widthPercent': 0.45, 'rescaleHeight': False, 'trialN': 70, 'loaded': True, 'loadedTime': 3328.300000000745, 'positionName': 'RIGHT', 'positionCoords': [998.4, 335], 'bid': 6.75}]",127494.0,1669836944193,Grapes,yogurt no spoon,6.93,6.75,-0.17999999999999972,Grapes,2676.100000000559,2677,2676.5,True,u,130687.60000000056,3193.600000000559,1669836947387,3194,HRV,HRV_0258,2022-11-30 19:39:08
71,"[{'imgObject': {}, 'id': 'fruitsalad', 'src': '/static/foodstim60/fruitsalad.jpg', 'key': 'u', 'origWidth': 410, 'origHeight': 410, 'width': 410, 'height': 410, 'widthPercent': 0.45, 'rescaleHeight': False, 'trialN': 71, 'loaded': True, 'loadedTime': 3297.600000000559, 'positionName': 'LEFT', 'positionCoords': [511.6, 335], 'bid': 9.69}, {'imgObject': {}, 'id': 'strawberries', 'src': '/static/foodstim60/strawberries.jpg', 'key': 'i', 'origWidth': 410, 'origHeight': 410, 'width': 410, 'height': 410, 'widthPercent': 0.45, 'rescaleHeight': False, 'trialN': 71, 'loaded': True, 'loadedTime': 3338.5, 'positionName': 'RIGHT', 'positionCoords': [998.4, 335], 'bid': 9.51}]",130687.80000000075,1669836947387,fruitsalad,strawberries,9.69,9.51,-0.17999999999999972,fruitsalad,1354.0,1354,1354.3999999994412,True,u,132551.30000000075,1863.5,1669836949251,1864,HRV,HRV_0258,2022-11-30 19:39:08
72,"[{'imgObject': {}, 'id': 'burger', 'src': '/static/foodstim60/burger.jpg', 'key': 'u', 'origWidth': 409, 'origHeight': 409, 'width': 409, 'height': 409, 'widthPercent': 0.45, 'rescaleHeight': False, 'trialN': 72, 'loaded': True, 'loadedTime': 3093, 'positionName': 'LEFT', 'positionCoords': [512.6, 335.5], 'bid': 0.81}, {'imgObject': {}, 'id': 'mac & cheese', 'src': '/static/foodstim60/mac & cheese.jpg', 'key': 'i', 'origWidth': 410, 'origHeight': 410, 'width': 410, 'height': 410, 'widthPercent': 0.45, 'rescaleHeight': False, 'trialN': 72, 'loaded': True, 'loadedTime': 3276.800000000745, 'positionName': 'RIGHT', 'positionCoords': [998.4, 335], 'bid': 0.46}]",132551.60000000056,1669836949251,burger,mac & cheese,0.81,0.46,-0.35000000000000003,burger,890.2000000001863,891,890.7000000001863,True,u,133952.30000000075,1400.7000000001863,1669836950651,1400,HRV,HRV_0258,2022-11-30 19:39:08
73,"[{'imgObject': {}, 'id': 'turkeysandwich', 'src': '/static/foodstim60/turkeysandwich.jpg', 'key': 'u', 'origWidth': 409, 'origHeight': 409, 'width': 409, 'height': 409, 'widthPercent': 0.45, 'rescaleHeight': False, 'trialN': 73, 'loaded': True, 'loadedTime': 2962.300000000745, 'positionName': 'LEFT', 'positionCoords': [512.6, 335.5], 'bid': 4.93}, {'imgObject': {}, 'id': 'mango', 'src': '/static/foodstim60/mango.jpg', 'key': 'i', 'origWidth': 411, 'origHeight': 411, 'width': 411, 'height': 411, 'widthPercent': 0.45, 'rescaleHeight': False, 'trialN': 73, 'loaded': True, 'loadedTime': 3288.7000000001863, 'positionName': 'RIGHT', 'positionCoords': [998.4, 334.5], 'bid': 1.12}]",133952.5,1669836950652,turkeysandwich,mango,4.93,1.12,-3.8099999999999996,mango,1257.300000000745,1257,1257.7000000001863,True,i,135722.7000000002,1770.2000000001863,1669836952422,1770,HRV,HRV_0258,2022-11-30 19:39:08
74,"[{'imgObject': {}, 'id': 'corn cob', 'src': '/static/foodstim60/corn cob.jpg', 'key': 'u', 'origWidth': 411, 'origHeight': 411, 'width': 411, 'height': 411, 'widthPercent': 0.45, 'rescaleHeight': False, 'trialN': 74, 'loaded': True, 'loadedTime': 3157.2000000001863, 'positionName': 'LEFT', 'positionCoords': [510.6, 334.5], 'bid': 4.2}, {'imgObject': {}, 'id': 'bagel plain', 'src': '/static/foodstim60/bagel plain.jpg', 'key': 'i', 'origWidth': 410, 'origHeight': 410, 'width': 410, 'height': 410, 'widthPercent': 0.45, 'rescaleHeight': False, 'trialN': 74, 'loaded': True, 'loadedTime': 3341.100000000559, 'positionName': 'RIGHT', 'positionCoords': [998.4, 335], 'bid': 2.96}]",135722.80000000075,1669836952422,corn cob,bagel plain,4.2,2.96,-1.2400000000000002,corn cob,1023.0,1023,1023.3999999994412,True,u,137259.80000000075,1537.0,1669836953959,1537,HRV,HRV_0258,2022-11-30 19:39:08
75,"[{'imgObject': {}, 'id': 'raisin bran w milk', 'src': '/static/foodstim60/raisin bran w milk.jpg', 'key': 'u', 'origWidth': 411, 'origHeight': 411, 'width': 411, 'height': 411, 'widthPercent': 0.45, 'rescaleHeight': False, 'trialN': 75, 'loaded': True, 'loadedTime': 3019.300000000745, 'positionName': 'LEFT', 'positionCoords': [510.6, 334.5], 'bid': 5.62}, {'imgObject': {}, 'id': 'hashbrowns', 'src': '/static/foodstim60/hashbrowns.jpg', 'key': 'i', 'origWidth': 411, 'origHeight': 410, 'width': 411, 'height': 410, 'widthPercent': 0.45, 'rescaleHeight': False, 'trialN': 75, 'loaded': True, 'loadedTime': 3073.100000000559, 'positionName': 'RIGHT', 'positionCoords': [998.4, 335], 'bid': 5.19}]",137260.10000000056,1669836953959,raisin bran w milk,hashbrowns,5.62,5.19,-0.4299999999999997,hashbrowns,1373.7000000001863,1374,1374.0999999996275,True,i,139151.80000000075,1891.7000000001863,1669836955851,1892,HRV,HRV_0258,2022-11-30 19:39:08
76,"[{'imgObject': {}, 'id': 'cherries', 'src': '/static/foodstim60/cherries.jpg', 'key': 'u', 'origWidth': 410, 'origHeight': 411, 'width': 410, 'height': 411, 'widthPercent': 0.45, 'rescaleHeight': False, 'trialN': 76, 'loaded': True, 'loadedTime': 3148.100000000559, 'positionName': 'LEFT', 'positionCoords': [511.6, 334.5], 'bid': 1.6}, {'imgObject': {}, 'id': 'omelette', 'src': '/static/foodstim60/omelette.jpg', 'key': 'i', 'origWidth': 410, 'origHeight': 409, 'width': 410, 'height': 409, 'widthPercent': 0.45, 'rescaleHeight': False, 'trialN': 76, 'loaded': True, 'loadedTime': 3287.600000000559, 'positionName': 'RIGHT', 'positionCoords': [998.4, 335.5], 'bid': 3.25}]",139151.90000000037,1669836955851,cherries,omelette,1.6,3.25,1.65,cherries,1610.0999999996275,1611,1610.4000000003725,True,u,141279.10000000056,2127.2000000001863,1669836957978,2127,HRV,HRV_0258,2022-11-30 19:39:08
77,"[{'imgObject': {}, 'id': 'shreddedwheatwithmilk', 'src': '/static/foodstim60/shreddedwheatwithmilk.jpg', 'key': 'u', 'origWidth': 410, 'origHeight': 410, 'width': 410, 'height': 410, 'widthPercent': 0.45, 'rescaleHeight': False, 'trialN': 77, 'loaded': True, 'loadedTime': 3250.2000000001863, 'positionName': 'LEFT', 'positionCoords': [511.6, 335], 'bid': 6.86}, {'imgObject': {}, 'id': 'steak', 'src': '/static/foodstim60/steak.jpg', 'key': 'i', 'origWidth': 410, 'origHeight': 410, 'width': 410, 'height': 410, 'widthPercent': 0.45, 'rescaleHeight': False, 'trialN': 77, 'loaded': True, 'loadedTime': 3305.7000000001863, 'positionName': 'RIGHT', 'positionCoords': [998.4, 335], 'bid': 7.12}]",141279.30000000075,1669836957979,shreddedwheatwithmilk,steak,6.86,7.12,0.2599999999999998,steak,1114.3999999994412,1114,1114.8999999994412,True,i,142910.5,1631.199999999255,1669836959610,1631,HRV,HRV_0258,2022-11-30 19:39:08
78,"[{'imgObject': {}, 'id': 'eggs', 'src': '/static/foodstim60/eggs.jpg', 'key': 'u', 'origWidth': 409, 'origHeight': 409, 'width': 409, 'height': 409, 'widthPercent': 0.45, 'rescaleHeight': False, 'trialN': 78, 'loaded': True, 'loadedTime': 3326.7000000001863, 'positionName': 'LEFT', 'positionCoords': [512.6, 335.5], 'bid': 0.41}, {'imgObject': {}, 'id': 'Tribe humus pita', 'src': '/static/foodstim60/Tribe humus pita.jpg', 'key': 'i', 'origWidth': 411, 'origHeight': 411, 'width': 411, 'height': 411, 'widthPercent': 0.45, 'rescaleHeight': False, 'trialN': 78, 'loaded': True, 'loadedTime': 3343.300000000745, 'positionName': 'RIGHT', 'positionCoords': [998.4, 334.5], 'bid': 1.8}]",142910.7000000002,1669836959610,eggs,Tribe humus pita,0.41,1.8,1.3900000000000001,Tribe humus pita,1419.1000000005588,1419,1419.5,True,i,144847.5,1936.7999999998137,1669836961547,1937,HRV,HRV_0258,2022-11-30 19:39:08
79,"[{'imgObject': {}, 'id': 'eggsalad', 'src': '/static/foodstim60/eggsalad.jpg', 'key': 'u', 'origWidth': 410, 'origHeight': 409, 'width': 410, 'height': 409, 'widthPercent': 0.45, 'rescaleHeight': False, 'trialN': 79, 'loaded': True, 'loadedTime': 3259.9000000003725, 'positionName': 'LEFT', 'positionCoords': [511.6, 335.5], 'bid': 8.1}, {'imgObject': {}, 'id': 'bagel plain', 'src': '/static/foodstim60/bagel plain.jpg', 'key': 'i', 'origWidth': 410, 'origHeight': 410, 'width': 410, 'height': 410, 'widthPercent': 0.45, 'rescaleHeight': False, 'trialN': 79, 'loaded': True, 'loadedTime': 3341.2000000001863, 'positionName': 'RIGHT', 'positionCoords': [998.4, 335], 'bid': 2.96}]",144847.80000000075,1669836961547,eggsalad,bagel plain,8.1,2.96,-5.14,eggsalad,841.7999999998137,842,842.2999999998137,True,u,146199.60000000056,1351.7999999998137,1669836962899,1352,HRV,HRV_0258,2022-11-30 19:39:08
80,"[{'imgObject': {}, 'id': 'cherries', 'src': '/static/foodstim60/cherries.jpg', 'key': 'u', 'origWidth': 410, 'origHeight': 411, 'width': 410, 'height': 411, 'widthPercent': 0.45, 'rescaleHeight': False, 'trialN': 80, 'loaded': True, 'loadedTime': 3156.800000000745, 'positionName': 'LEFT', 'positionCoords': [511.6, 334.5], 'bid': 1.6}, {'imgObject': {}, 'id': 'blueberries', 'src': '/static/foodstim60/blueberries.jpg', 'key': 'i', 'origWidth': 411, 'origHeight': 411, 'width': 411, 'height': 411, 'widthPercent': 0.45, 'rescaleHeight': False, 'trialN': 80, 'loaded': True, 'loadedTime': 3040.7000000001863, 'positionName': 'RIGHT', 'positionCoords': [998.4, 334.5], 'bid': 2.11}]",146199.80000000075,1669836962899,cherries,blueberries,1.6,2.11,0.5099999999999998,blueberries,1265.8999999994412,1266,1266.2999999998137,True,i,147986.7000000002,1786.8999999994412,1669836964686,1787,HRV,HRV_0258,2022-11-30 19:39:08
81,"[{'imgObject': {}, 'id': 'granola w milk', 'src': '/static/foodstim60/granola w milk.jpg', 'key': 'u', 'origWidth': 410, 'origHeight': 410, 'width': 410, 'height': 410, 'widthPercent': 0.45, 'rescaleHeight': False, 'trialN': 81, 'loaded': True, 'loadedTime': 3111.5, 'positionName': 'LEFT', 'positionCoords': [511.6, 335], 'bid': 5.0200000000000005}, {'imgObject': {}, 'id': 'froot loops w milk', 'src': '/static/foodstim60/froot loops w milk.jpg', 'key': 'i', 'origWidth': 410, 'origHeight': 410, 'width': 410, 'height': 410, 'widthPercent': 0.45, 'rescaleHeight': False, 'trialN': 81, 'loaded': True, 'loadedTime': 3258.600000000559, 'positionName': 'RIGHT', 'positionCoords': [998.4, 335], 'bid': 6.55}]",147986.90000000037,1669836964686,granola w milk,froot loops w milk,5.0200000000000005,6.55,1.5299999999999994,granola w milk,1206.7000000001863,1207,1207.2000000001863,True,u,149710.90000000037,1724.0,1669836966410,1724,HRV,HRV_0258,2022-11-30 19:39:08
82,"[{'imgObject': {}, 'id': 'Grapes', 'src': '/static/foodstim60/Grapes.jpg', 'key': 'u', 'origWidth': 411, 'origHeight': 411, 'width': 411, 'height': 411, 'widthPercent': 0.45, 'rescaleHeight': False, 'trialN': 82, 'loaded': True, 'loadedTime': 3203.600000000559, 'positionName': 'LEFT', 'positionCoords': [510.6, 334.5], 'bid': 6.93}, {'imgObject': {}, 'id': 'avocado', 'src': '/static/foodstim60/avocado.jpg', 'key': 'i', 'origWidth': 409, 'origHeight': 409, 'width': 409, 'height': 409, 'widthPercent': 0.45, 'rescaleHeight': False, 'trialN': 82, 'loaded': True, 'loadedTime': 3189.2000000001863, 'positionName': 'RIGHT', 'positionCoords': [998.4, 335.5], 'bid': 1.18}]",149711.10000000056,1669836966410,Grapes,avocado,6.93,1.18,-5.75,Grapes,1010.5,1012,1011.2999999998137,True,u,151233.90000000037,1522.7999999998137,1669836967933,1523,HRV,HRV_0258,2022-11-30 19:39:08
83,"[{'imgObject': {}, 'id': 'cherry tomato', 'src': '/static/foodstim60/cherry tomato.jpg', 'key': 'u', 'origWidth': 410, 'origHeight': 410, 'width': 410, 'height': 410, 'widthPercent': 0.45, 'rescaleHeight': False, 'trialN': 83, 'loaded': True, 'loadedTime': 3336.7000000001863, 'positionName': 'LEFT', 'positionCoords': [511.6, 335], 'bid': 0.97}, {'imgObject': {}, 'id': 'mango', 'src': '/static/foodstim60/mango.jpg', 'key': 'i', 'origWidth': 411, 'origHeight': 411, 'width': 411, 'height': 411, 'widthPercent': 0.45, 'rescaleHeight': False, 'trialN': 83, 'loaded': True, 'loadedTime': 3288.800000000745, 'positionName': 'RIGHT', 'positionCoords': [998.4, 334.5], 'bid': 1.12}]",151234.10000000056,1669836967933,cherry tomato,mango,0.97,1.12,0.15000000000000013,mango,1391.5999999996275,1392,1392.0,True,i,153144.2000000002,1910.0999999996275,1669836969843,1910,HRV,HRV_0258,2022-11-30 19:39:08
84,"[{'imgObject': {}, 'id': 'ice cream sundae 002', 'src': '/static/foodstim60/ice cream sundae 002.jpg', 'key': 'u', 'origWidth': 409, 'origHeight': 409, 'width': 409, 'height': 409, 'widthPercent': 0.45, 'rescaleHeight': False, 'trialN': 84, 'loaded': True, 'loadedTime': 2958.300000000745, 'positionName': 'LEFT', 'positionCoords': [512.6, 335.5], 'bid': 6.43}, {'imgObject': {}, 'id': 'mashed potato', 'src': '/static/foodstim60/mashed potato.jpg', 'key': 'i', 'origWidth': 409, 'origHeight': 409, 'width': 409, 'height': 409, 'widthPercent': 0.45, 'rescaleHeight': False, 'trialN': 84, 'loaded': True, 'loadedTime': 3234.600000000559, 'positionName': 'RIGHT', 'positionCoords': [998.4, 335.5], 'bid': 7.95}]",153144.60000000056,1669836969844,ice cream sundae 002,mashed potato,6.43,7.95,1.5200000000000005,mashed potato,1504.8999999994412,1505,1505.2999999998137,True,i,155166.60000000056,2022.0,1669836971866,2022,HRV,HRV_0258,2022-11-30 19:39:08
85,"[{'imgObject': {}, 'id': 'cherries', 'src': '/static/foodstim60/cherries.jpg', 'key': 'u', 'origWidth': 410, 'origHeight': 411, 'width': 410, 'height': 411, 'widthPercent': 0.45, 'rescaleHeight': False, 'trialN': 85, 'loaded': True, 'loadedTime': 3156.600000000559, 'positionName': 'LEFT', 'positionCoords': [511.6, 334.5], 'bid': 1.6}, {'imgObject': {}, 'id': 'Tribe humus pita', 'src': '/static/foodstim60/Tribe humus pita.jpg', 'key': 'i', 'origWidth': 411, 'origHeight': 411, 'width': 411, 'height': 411, 'widthPercent': 0.45, 'rescaleHeight': False, 'trialN': 85, 'loaded': True, 'loadedTime': 3341.5, 'positionName': 'RIGHT', 'positionCoords': [998.4, 334.5], 'bid': 1.8}]",155166.7000000002,1669836971866,cherries,Tribe humus pita,1.6,1.8,0.19999999999999996,Tribe humus pita,1274.7999999998137,1275,1275.2999999998137,True,i,156952.30000000075,1785.6000000005588,1669836973652,1786,HRV,HRV_0258,2022-11-30 19:39:08
86,"[{'imgObject': {}, 'id': 'cocktailshrimp', 'src': '/static/foodstim60/cocktailshrimp.jpg', 'key': 'u', 'origWidth': 410, 'origHeight': 410, 'width': 410, 'height': 410, 'widthPercent': 0.45, 'rescaleHeight': False, 'trialN': 86, 'loaded': True, 'loadedTime': 3219.100000000559, 'positionName': 'LEFT', 'positionCoords': [511.6, 335], 'bid': 0.89}, {'imgObject': {}, 'id': 'eggs', 'src': '/static/foodstim60/eggs.jpg', 'key': 'i', 'origWidth': 409, 'origHeight': 409, 'width': 409, 'height': 409, 'widthPercent': 0.45, 'rescaleHeight': False, 'trialN': 86, 'loaded': True, 'loadedTime': 3319.7000000001863, 'positionName': 'RIGHT', 'positionCoords': [998.4, 335.5], 'bid': 0.41}]",156952.5,1669836973652,cocktailshrimp,eggs,0.89,0.41,-0.48000000000000004,cocktailshrimp,1849.0,1849,1849.5,True,u,159310.7000000002,2358.2000000001863,1669836976010,2358,HRV,HRV_0258,2022-11-30 19:39:08
87,"[{'imgObject': {}, 'id': 'steak', 'src': '/static/foodstim60/steak.jpg', 'key': 'u', 'origWidth': 410, 'origHeight': 410, 'width': 410, 'height': 410, 'widthPercent': 0.45, 'rescaleHeight': False, 'trialN': 87, 'loaded': True, 'loadedTime': 3305.800000000745, 'positionName': 'LEFT', 'positionCoords': [511.6, 335], 'bid': 7.12}, {'imgObject': {}, 'id': 'kiwi', 'src': '/static/foodstim60/kiwi.jpg', 'key': 'i', 'origWidth': 410, 'origHeight': 410, 'width': 410, 'height': 410, 'widthPercent': 0.45, 'rescaleHeight': False, 'trialN': 87, 'loaded': True, 'loadedTime': 3309, 'positionName': 'RIGHT', 'positionCoords': [998.4, 335], 'bid': 9.69}]",159311.0,1669836976010,steak,kiwi,7.12,9.69,2.5699999999999994,kiwi,1114.6000000005588,1115,1115.0,True,i,160942.80000000075,1631.800000000745,1669836977642,1632,HRV,HRV_0258,2022-11-30 19:39:08
88,"[{'imgObject': {}, 'id': 'pear', 'src': '/static/foodstim60/pear.jpg', 'key': 'u', 'origWidth': 411, 'origHeight': 410, 'width': 411, 'height': 410, 'widthPercent': 0.45, 'rescaleHeight': False, 'trialN': 88, 'loaded': True, 'loadedTime': 3181.4000000003725, 'positionName': 'LEFT', 'positionCoords': [510.6, 335], 'bid': 7.4}, {'imgObject': {}, 'id': 'salmon', 'src': '/static/foodstim60/salmon.jpg', 'key': 'i', 'origWidth': 410, 'origHeight': 409, 'width': 410, 'height': 409, 'widthPercent': 0.45, 'rescaleHeight': False, 'trialN': 88, 'loaded': True, 'loadedTime': 3129.5, 'positionName': 'RIGHT', 'positionCoords': [998.4, 335.5], 'bid': 7.66}]",160943.10000000056,1669836977642,pear,salmon,7.4,7.66,0.2599999999999998,pear,1226.3999999994412,1227,1226.7999999998137,True,u,162686.10000000056,1743.0,1669836979385,1743,HRV,HRV_0258,2022-11-30 19:39:08
89,"[{'imgObject': {}, 'id': 'veggieswithdip', 'src': '/static/foodstim60/veggieswithdip.jpg', 'key': 'u', 'origWidth': 409, 'origHeight': 409, 'width': 409, 'height': 409, 'widthPercent': 0.45, 'rescaleHeight': False, 'trialN': 89, 'loaded': True, 'loadedTime': 3317.7000000001863, 'positionName': 'LEFT', 'positionCoords': [512.6, 335.5], 'bid': 8.120000000000001}, {'imgObject': {}, 'id': 'Grapes', 'src': '/static/foodstim60/Grapes.jpg', 'key': 'i', 'origWidth': 411, 'origHeight': 411, 'width': 411, 'height': 411, 'widthPercent': 0.45, 'rescaleHeight': False, 'trialN': 89, 'loaded': True, 'loadedTime': 3204, 'positionName': 'RIGHT', 'positionCoords': [998.4, 334.5], 'bid': 6.93}]",162686.30000000075,1669836979385,veggieswithdip,Grapes,8.120000000000001,6.93,-1.1900000000000013,veggieswithdip,1211.2999999998137,1212,1211.699999999255,True,u,164412.7000000002,1726.3999999994412,1669836981112,1727,HRV,HRV_0258,2022-11-30 19:39:08
90,"[{'imgObject': {}, 'id': 'veggieswithdip', 'src': '/static/foodstim60/veggieswithdip.jpg', 'key': 'u', 'origWidth': 409, 'origHeight': 409, 'width': 409, 'height': 409, 'widthPercent': 0.45, 'rescaleHeight': False, 'trialN': 90, 'loaded': True, 'loadedTime': 3317.600000000559, 'positionName': 'LEFT', 'positionCoords': [512.6, 335.5], 'bid': 8.120000000000001}, {'imgObject': {}, 'id': 'froot loops w milk', 'src': '/static/foodstim60/froot loops w milk.jpg', 'key': 'i', 'origWidth': 410, 'origHeight': 410, 'width': 410, 'height': 410, 'widthPercent': 0.45, 'rescaleHeight': False, 'trialN': 90, 'loaded': True, 'loadedTime': 3258, 'positionName': 'RIGHT', 'positionCoords': [998.4, 335], 'bid': 6.55}]",171638.40000000037,1669836988338,veggieswithdip,froot loops w milk,8.120000000000001,6.55,-1.5700000000000012,veggieswithdip,1642.9000000003725,1643,1643.4000000003725,True,u,173800.80000000075,2162.4000000003725,1669836990500,2162,HRV,HRV_0258,2022-11-30 19:39:08
91,"[{'imgObject': {}, 'id': 'popsicles', 'src': '/static/foodstim60/popsicles.jpg', 'key': 'u', 'origWidth': 410, 'origHeight': 410, 'width': 410, 'height': 410, 'widthPercent': 0.45, 'rescaleHeight': False, 'trialN': 91, 'loaded': True, 'loadedTime': 3346, 'positionName': 'LEFT', 'positionCoords': [511.6, 335], 'bid': 9.07}, {'imgObject': {}, 'id': 'strawberries', 'src': '/static/foodstim60/strawberries.jpg', 'key': 'i', 'origWidth': 410, 'origHeight': 410, 'width': 410, 'height': 410, 'widthPercent': 0.45, 'rescaleHeight': False, 'trialN': 91, 'loaded': True, 'loadedTime': 3338.300000000745, 'positionName': 'RIGHT', 'positionCoords': [998.4, 335], 'bid': 9.51}]",173800.90000000037,1669836990500,popsicles,strawberries,9.07,9.51,0.4399999999999995,strawberries,1240.5999999996275,1241,1241.0,True,i,175554.80000000075,1753.9000000003725,1669836992254,1754,HRV,HRV_0258,2022-11-30 19:39:08
92,"[{'imgObject': {}, 'id': 'veggieswithdip', 'src': '/static/foodstim60/veggieswithdip.jpg', 'key': 'u', 'origWidth': 409, 'origHeight': 409, 'width': 409, 'height': 409, 'widthPercent': 0.45, 'rescaleHeight': False, 'trialN': 92, 'loaded': True, 'loadedTime': 3317.2000000001863, 'positionName': 'LEFT', 'positionCoords': [512.6, 335.5], 'bid': 8.120000000000001}, {'imgObject': {}, 'id': 'chickenfingers', 'src': '/static/foodstim60/chickenfingers.jpg', 'key': 'i', 'origWidth': 410, 'origHeight': 410, 'width': 410, 'height': 410, 'widthPercent': 0.45, 'rescaleHeight': False, 'trialN': 92, 'loaded': True, 'loadedTime': 3173, 'positionName': 'RIGHT', 'positionCoords': [998.4, 335], 'bid': 8.26}]",175555.0,1669836992254,veggieswithdip,chickenfingers,8.120000000000001,8.26,0.1399999999999988,chickenfingers,1014.3000000007451,1015,1014.9000000003725,True,i,177080.0,1525.0,1669836993779,1525,HRV,HRV_0258,2022-11-30 19:39:08
93,"[{'imgObject': {}, 'id': 'rigatoni', 'src': '/static/foodstim60/rigatoni.jpg', 'key': 'u', 'origWidth': 411, 'origHeight': 411, 'width': 411, 'height': 411, 'widthPercent': 0.45, 'rescaleHeight': False, 'trialN': 93, 'loaded': True, 'loadedTime': 3121.2000000001863, 'positionName': 'LEFT', 'positionCoords': [510.6, 334.5], 'bid': 4.62}, {'imgObject': {}, 'id': 'seaweed', 'src': '/static/foodstim60/seaweed.jpg', 'key': 'i', 'origWidth': 410, 'origHeight': 410, 'width': 410, 'height': 410, 'widthPercent': 0.45, 'rescaleHeight': False, 'trialN': 93, 'loaded': True, 'loadedTime': 2961.9000000003725, 'positionName': 'RIGHT', 'positionCoords': [998.4, 335], 'bid': 6.390000000000001}]",177080.2000000002,1669836993779,rigatoni,seaweed,4.62,6.390000000000001,1.7700000000000005,seaweed,1537.1000000005588,1538,1537.4000000003725,True,i,179124.7000000002,2044.5,1669836995824,2045,HRV,HRV_0258,2022-11-30 19:39:08
94,"[{'imgObject': {}, 'id': 'hotdog w must', 'src': '/static/foodstim60/hotdog w must.jpg', 'key': 'u', 'origWidth': 409, 'origHeight': 409, 'width': 409, 'height': 409, 'widthPercent': 0.45, 'rescaleHeight': False, 'trialN': 94, 'loaded': True, 'loadedTime': 3091.300000000745, 'positionName': 'LEFT', 'positionCoords': [512.6, 335.5], 'bid': 0.33}, {'imgObject': {}, 'id': 'blackbeanswithrice', 'src': '/static/foodstim60/blackbeanswithrice.jpg', 'key': 'i', 'origWidth': 410, 'origHeight': 410, 'width': 410, 'height': 410, 'widthPercent': 0.45, 'rescaleHeight': False, 'trialN': 94, 'loaded': True, 'loadedTime': 2851, 'positionName': 'RIGHT', 'positionCoords': [998.4, 335], 'bid': 0.42}]",179124.90000000037,1669836995824,hotdog w must,blackbeanswithrice,0.33,0.42,0.08999999999999997,hotdog w must,1284.2999999998137,1285,1284.7000000001863,True,u,180915.60000000056,1790.7000000001863,1669836997615,1791,HRV,HRV_0258,2022-11-30 19:39:08
95,"[{'imgObject': {}, 'id': 'kiwi', 'src': '/static/foodstim60/kiwi.jpg', 'key': 'u', 'origWidth': 410, 'origHeight': 410, 'width': 410, 'height': 410, 'widthPercent': 0.45, 'rescaleHeight': False, 'trialN': 95, 'loaded': True, 'loadedTime': 3308.800000000745, 'positionName': 'LEFT', 'positionCoords': [511.6, 335], 'bid': 9.69}, {'imgObject': {}, 'id': 'salad w chicken', 'src': '/static/foodstim60/salad w chicken.jpg', 'key': 'i', 'origWidth': 411, 'origHeight': 411, 'width': 411, 'height': 411, 'widthPercent': 0.45, 'rescaleHeight': False, 'trialN': 95, 'loaded': True, 'loadedTime': 3138.5, 'positionName': 'RIGHT', 'positionCoords': [998.4, 334.5], 'bid': 5.0200000000000005}]",180915.80000000075,1669836997615,kiwi,salad w chicken,9.69,5.0200000000000005,-4.669999999999999,kiwi,1093.3999999994412,1094,1093.8999999994412,True,u,182520.90000000037,1605.0999999996275,1669836999220,1605,HRV,HRV_0258,2022-11-30 19:39:08
96,"[{'imgObject': {}, 'id': 'rigatoni and sauce', 'src': '/static/foodstim60/rigatoni and sauce.jpg', 'key': 'u', 'origWidth': 410, 'origHeight': 411, 'width': 410, 'height': 411, 'widthPercent': 0.45, 'rescaleHeight': False, 'trialN': 96, 'loaded': True, 'loadedTime': 2955.2000000001863, 'positionName': 'LEFT', 'positionCoords': [511.6, 334.5], 'bid': 7.33}, {'imgObject': {}, 'id': 'apple slices', 'src': '/static/foodstim60/apple slices.jpg', 'key': 'i', 'origWidth': 409, 'origHeight': 410, 'width': 409, 'height': 410, 'widthPercent': 0.45, 'rescaleHeight': False, 'trialN': 96, 'loaded': True, 'loadedTime': 2977, 'positionName': 'RIGHT', 'positionCoords': [998.4, 335], 'bid': 6.62}]",182521.10000000056,1669836999220,rigatoni and sauce,apple slices,7.33,6.62,-0.71,apple slices,888.0999999996275,889,888.3999999994412,True,i,183922.60000000056,1401.5,1669837000622,1402,HRV,HRV_0258,2022-11-30 19:39:08
97,"[{'imgObject': {}, 'id': 'apple slices', 'src': '/static/foodstim60/apple slices.jpg', 'key': 'u', 'origWidth': 409, 'origHeight': 410, 'width': 409, 'height': 410, 'widthPercent': 0.45, 'rescaleHeight': False, 'trialN': 97, 'loaded': True, 'loadedTime': 2977.2000000001863, 'positionName': 'LEFT', 'positionCoords': [512.6, 335], 'bid': 6.62}, {'imgObject': {}, 'id': 'salad w chicken', 'src': '/static/foodstim60/salad w chicken.jpg', 'key': 'i', 'origWidth': 411, 'origHeight': 411, 'width': 411, 'height': 411, 'widthPercent': 0.45, 'rescaleHeight': False, 'trialN': 97, 'loaded': True, 'loadedTime': 3138.2000000001863, 'positionName': 'RIGHT', 'positionCoords': [998.4, 334.5], 'bid': 5.0200000000000005}]",183922.90000000037,1669837000622,apple slices,salad w chicken,6.62,5.0200000000000005,-1.5999999999999996,apple slices,1046.2999999998137,1047,1046.7000000001863,True,u,185484.40000000037,1561.5,1669837002184,1562,HRV,HRV_0258,2022-11-30 19:39:08
98,"[{'imgObject': {}, 'id': 'lox', 'src': '/static/foodstim60/lox.jpg', 'key': 'u', 'origWidth': 410, 'origHeight': 411, 'width': 410, 'height': 411, 'widthPercent': 0.45, 'rescaleHeight': False, 'trialN': 98, 'loaded': True, 'loadedTime': 3319, 'positionName': 'LEFT', 'positionCoords': [511.6, 334.5], 'bid': 1.58}, {'imgObject': {}, 'id': 'bagel plain', 'src': '/static/foodstim60/bagel plain.jpg', 'key': 'i', 'origWidth': 410, 'origHeight': 410, 'width': 410, 'height': 410, 'widthPercent': 0.45, 'rescaleHeight': False, 'trialN': 98, 'loaded': True, 'loadedTime': 3341.300000000745, 'positionName': 'RIGHT', 'positionCoords': [998.4, 335], 'bid': 2.96}]",185484.5,1669837002184,lox,bagel plain,1.58,2.96,1.38,bagel plain,1116.9000000003725,1117,1117.2000000001863,True,i,187116.60000000056,1632.1000000005588,1669837003816,1632,HRV,HRV_0258,2022-11-30 19:39:08
99,"[{'imgObject': {}, 'id': 'shreddedwheatwithmilk', 'src': '/static/foodstim60/shreddedwheatwithmilk.jpg', 'key': 'u', 'origWidth': 410, 'origHeight': 410, 'width': 410, 'height': 410, 'widthPercent': 0.45, 'rescaleHeight': False, 'trialN': 99, 'loaded': True, 'loadedTime': 3250, 'positionName': 'LEFT', 'positionCoords': [511.6, 335], 'bid': 6.86}, {'imgObject': {}, 'id': 'mango', 'src': '/static/foodstim60/mango.jpg', 'key': 'i', 'origWidth': 411, 'origHeight': 411, 'width': 411, 'height': 411, 'widthPercent': 0.45, 'rescaleHeight': False, 'trialN': 99, 'loaded': True, 'loadedTime': 3295.4000000003725, 'positionName': 'RIGHT', 'positionCoords': [998.4, 334.5], 'bid': 1.12}]",187116.90000000037,1669837003816,shreddedwheatwithmilk,mango,6.86,1.12,-5.74,shreddedwheatwithmilk,1276.2000000001863,1277,1276.7000000001863,True,u,188902.30000000075,1785.4000000003725,1669837005602,1786,HRV,HRV_0258,2022-11-30 19:39:08
100,"[{'imgObject': {}, 'id': 'raisin bran w milk', 'src': '/static/foodstim60/raisin bran w milk.jpg', 'key': 'u', 'origWidth': 411, 'origHeight': 411, 'width': 411, 'height': 411, 'widthPercent': 0.45, 'rescaleHeight': False, 'trialN': 100, 'loaded': True, 'loadedTime': 3024.800000000745, 'positionName': 'LEFT', 'positionCoords': [510.6, 334.5], 'bid': 5.62}, {'imgObject': {}, 'id': 'turkey sandwich', 'src': '/static/foodstim60/turkey sandwich.jpg', 'key': 'i', 'origWidth': 409, 'origHeight': 409, 'width': 409, 'height': 409, 'widthPercent': 0.45, 'rescaleHeight': False, 'trialN': 100, 'loaded': True, 'loadedTime': 3081.800000000745, 'positionName': 'RIGHT', 'positionCoords': [998.4, 335.5], 'bid': 4.63}]",188902.5,1669837005602,raisin bran w milk,turkey sandwich,5.62,4.63,-0.9900000000000002,raisin bran w milk,1370.6000000005588,1371,1371.0,True,u,190782.60000000056,1880.1000000005588,1669837007482,1880,HRV,HRV_0258,2022-11-30 19:39:08
101,"[{'imgObject': {}, 'id': 'apple slices', 'src': '/static/foodstim60/apple slices.jpg', 'key': 'u', 'origWidth': 409, 'origHeight': 410, 'width': 409, 'height': 410, 'widthPercent': 0.45, 'rescaleHeight': False, 'trialN': 101, 'loaded': True, 'loadedTime': 2971.4000000003725, 'positionName': 'LEFT', 'positionCoords': [512.6, 335], 'bid': 6.62}, {'imgObject': {}, 'id': 'cocktailshrimp', 'src': '/static/foodstim60/cocktailshrimp.jpg', 'key': 'i', 'origWidth': 410, 'origHeight': 410, 'width': 410, 'height': 410, 'widthPercent': 0.45, 'rescaleHeight': False, 'trialN': 101, 'loaded': True, 'loadedTime': 3225.9000000003725, 'positionName': 'RIGHT', 'positionCoords': [998.4, 335], 'bid': 0.89}]",190782.80000000075,1669837007482,apple slices,cocktailshrimp,6.62,0.89,-5.73,apple slices,986.2999999998137,987,986.5999999996275,True,u,192277.80000000075,1495.0,1669837008977,1495,HRV,HRV_0258,2022-11-30 19:39:08
102,"[{'imgObject': {}, 'id': 'hotdog w must', 'src': '/static/foodstim60/hotdog w must.jpg', 'key': 'u', 'origWidth': 409, 'origHeight': 409, 'width': 409, 'height': 409, 'widthPercent': 0.45, 'rescaleHeight': False, 'trialN': 102, 'loaded': True, 'loadedTime': 3091.600000000559, 'positionName': 'LEFT', 'positionCoords': [512.6, 335.5], 'bid': 0.33}, {'imgObject': {}, 'id': 'edamame', 'src': '/static/foodstim60/edamame.jpg', 'key': 'i', 'origWidth': 409, 'origHeight': 410, 'width': 409, 'height': 410, 'widthPercent': 0.45, 'rescaleHeight': False, 'trialN': 102, 'loaded': True, 'loadedTime': 3338.7000000001863, 'positionName': 'RIGHT', 'positionCoords': [998.4, 335], 'bid': 0.31}]",192277.90000000037,1669837008977,hotdog w must,edamame,0.33,0.31,-0.020000000000000018,hotdog w must,1971.2000000001863,1972,1971.5,True,u,194756.5,2478.5999999996275,1669837011456,2479,HRV,HRV_0258,2022-11-30 19:39:08
103,"[{'imgObject': {}, 'id': 'sweetpotato', 'src': '/static/foodstim60/sweetpotato.jpg', 'key': 'u', 'origWidth': 410, 'origHeight': 410, 'width': 410, 'height': 410, 'widthPercent': 0.45, 'rescaleHeight': False, 'trialN': 103, 'loaded': True, 'loadedTime': 3210.7000000001863, 'positionName': 'LEFT', 'positionCoords': [511.6, 335], 'bid': 6.44}, {'imgObject': {}, 'id': 'eggsalad', 'src': '/static/foodstim60/eggsalad.jpg', 'key': 'i', 'origWidth': 410, 'origHeight': 409, 'width': 410, 'height': 409, 'widthPercent': 0.45, 'rescaleHeight': False, 'trialN': 103, 'loaded': True, 'loadedTime': 3266.9000000003725, 'positionName': 'RIGHT', 'positionCoords': [998.4, 335.5], 'bid': 8.1}]",194756.7000000002,1669837011456,sweetpotato,eggsalad,6.44,8.1,1.6599999999999993,eggsalad,1244.2999999998137,1245,1244.7000000001863,True,i,196517.30000000075,1760.6000000005588,1669837013217,1761,HRV,HRV_0258,2022-11-30 19:39:08
104,"[{'imgObject': {}, 'id': 'cheerios', 'src': '/static/foodstim60/cheerios.jpg', 'key': 'u', 'origWidth': 409, 'origHeight': 410, 'width': 409, 'height': 410, 'widthPercent': 0.45, 'rescaleHeight': False, 'trialN': 104, 'loaded': True, 'loadedTime': 3285.100000000559, 'positionName': 'LEFT', 'positionCoords': [512.6, 335], 'bid': 2.84}, {'imgObject': {}, 'id': 'mashed potato', 'src': '/static/foodstim60/mashed potato.jpg', 'key': 'i', 'origWidth': 409, 'origHeight': 409, 'width': 409, 'height': 409, 'widthPercent': 0.45, 'rescaleHeight': False, 'trialN': 104, 'loaded': True, 'loadedTime': 3234, 'positionName': 'RIGHT', 'positionCoords': [998.4, 335.5], 'bid': 7.95}]",196517.40000000037,1669837013217,cheerios,mashed potato,2.84,7.95,5.11,mashed potato,987.9000000003725,988,988.2000000001863,True,i,198024.10000000056,1506.7000000001863,1669837014724,1507,HRV,HRV_0258,2022-11-30 19:39:08
105,"[{'imgObject': {}, 'id': 'rigatoni', 'src': '/static/foodstim60/rigatoni.jpg', 'key': 'u', 'origWidth': 411, 'origHeight': 411, 'width': 411, 'height': 411, 'widthPercent': 0.45, 'rescaleHeight': False, 'trialN': 105, 'loaded': True, 'loadedTime': 3121.4000000003725, 'positionName': 'LEFT', 'positionCoords': [510.6, 334.5], 'bid': 4.62}, {'imgObject': {}, 'id': 'turkey sandwich', 'src': '/static/foodstim60/turkey sandwich.jpg', 'key': 'i', 'origWidth': 409, 'origHeight': 409, 'width': 409, 'height': 409, 'widthPercent': 0.45, 'rescaleHeight': False, 'trialN': 105, 'loaded': True, 'loadedTime': 3075, 'positionName': 'RIGHT', 'positionCoords': [998.4, 335.5], 'bid': 4.63}]",198024.30000000075,1669837014724,rigatoni,turkey sandwich,4.62,4.63,0.009999999999999787,rigatoni,768.6999999992549,769,769.0999999996275,True,u,199303.5,1279.199999999255,1669837016003,1279,HRV,HRV_0258,2022-11-30 19:39:08
106,"[{'imgObject': {}, 'id': 'cherry tomato', 'src': '/static/foodstim60/cherry tomato.jpg', 'key': 'u', 'origWidth': 410, 'origHeight': 410, 'width': 410, 'height': 410, 'widthPercent': 0.45, 'rescaleHeight': False, 'trialN': 106, 'loaded': True, 'loadedTime': 3336.5, 'positionName': 'LEFT', 'positionCoords': [511.6, 335], 'bid': 0.97}, {'imgObject': {}, 'id': 'chicken nuggets2', 'src': '/static/foodstim60/chicken nuggets2.jpg', 'key': 'i', 'origWidth': 410, 'origHeight': 409, 'width': 410, 'height': 409, 'widthPercent': 0.45, 'rescaleHeight': False, 'trialN': 106, 'loaded': True, 'loadedTime': 2989.600000000559, 'positionName': 'RIGHT', 'positionCoords': [998.4, 335.5], 'bid': 0.44}]",199303.60000000056,1669837016003,cherry tomato,chicken nuggets2,0.97,0.44,-0.53,chicken nuggets2,897.3999999994412,898,897.7999999998137,True,i,200718.90000000037,1415.2999999998137,1669837017418,1415,HRV,HRV_0258,2022-11-30 19:39:08
107,"[{'imgObject': {}, 'id': 'rigatoni and sauce', 'src': '/static/foodstim60/rigatoni and sauce.jpg', 'key': 'u', 'origWidth': 410, 'origHeight': 411, 'width': 410, 'height': 411, 'widthPercent': 0.45, 'rescaleHeight': False, 'trialN': 107, 'loaded': True, 'loadedTime': 2953.800000000745, 'positionName': 'LEFT', 'positionCoords': [511.6, 334.5], 'bid': 7.33}, {'imgObject': {}, 'id': 'fruitsalad', 'src': '/static/foodstim60/fruitsalad.jpg', 'key': 'i', 'origWidth': 410, 'origHeight': 410, 'width': 410, 'height': 410, 'widthPercent': 0.45, 'rescaleHeight': False, 'trialN': 107, 'loaded': True, 'loadedTime': 3297.5, 'positionName': 'RIGHT', 'positionCoords': [998.4, 335], 'bid': 9.69}]",200719.10000000056,1669837017419,rigatoni and sauce,fruitsalad,7.33,9.69,2.3599999999999994,fruitsalad,1130.0,1130,1130.2999999998137,True,i,202366.40000000037,1647.2999999998137,1669837019066,1647,HRV,HRV_0258,2022-11-30 19:39:08
108,"[{'imgObject': {}, 'id': 'edamame', 'src': '/static/foodstim60/edamame.jpg', 'key': 'u', 'origWidth': 409, 'origHeight': 410, 'width': 409, 'height': 410, 'widthPercent': 0.45, 'rescaleHeight': False, 'trialN': 108, 'loaded': True, 'loadedTime': 3339.9000000003725, 'positionName': 'LEFT', 'positionCoords': [512.6, 335], 'bid': 0.31}, {'imgObject': {}, 'id': 'olives', 'src': '/static/foodstim60/olives.jpg', 'key': 'i', 'origWidth': 410, 'origHeight': 410, 'width': 410, 'height': 410, 'widthPercent': 0.45, 'rescaleHeight': False, 'trialN': 108, 'loaded': True, 'loadedTime': 3217.800000000745, 'positionName': 'RIGHT', 'positionCoords': [998.4, 335], 'bid': 0.52}]",202366.60000000056,1669837019066,edamame,olives,0.31,0.52,0.21000000000000002,edamame,1514.3999999994412,1515,1514.7999999998137,True,u,204394.10000000056,2027.5,1669837021094,2028,HRV,HRV_0258,2022-11-30 19:39:08
