success,trial_type,trial_index,time_elapsed,internal_node_id,Block,TrialNumber,TrialTime,trialTimeDiff,FPS_avg,FPS_med,FPS_mode,TrialDur,winResizeTime,rt,block,button_pressed,MotCoh,MotDir,ColCoh,Color,ChoiceKey,Choice,Accuracy,RT,nFrames,FPS,PPD,missTrial,missTrialMsg,onsetDelay,fullScreenExitTime,canvCenter,TrialType,Score,BlockTrial,stimulus,button_labels,exp,subjectId,date
True,fullscreen,0,2210,0.0-0.0,0.0,1.0,,,,,,,,,,,,,,,,,,,,,,,,,,,,,,,,HRV,HRV_0313,2022-11-30 22:30:32
,wl-check-fps,1,7220,0.0-1.0,0.0,2.0,"[3007.5, 3019.7, 3036.4, 3053.4, 3069.6, 3089, 3123.2, 3139.9, 3156, 3172.7, 3189.6, 3205.5, 3222.5, 3236.7, 3252.6, 3269.6, 3286.2, 3303.1, 3319.3, 3336.1, 3352.5, 3368.9, 3385.9, 3402.8, 3419.1, 3435.4, 3451.8, 3469, 3485.3, 3502.3, 3518.7, 3535.4, 3552.2, 3568.3, 3585.1, 3602.3, 3618.6, 3635.4, 3652.3, 3668.8, 3685.2, 3701.4, 3718.7, 3735.7, 3752.1, 3768.7, 3784.8, 3802, 3818, 3835.9, 3852.1, 3868.5, 3885.4, 3902, 3918.1, 3935.6, 3951.8, 3968.4, 3984.9, 4002.1, 4018, 4033.9, 4051.6, 4068.1, 4084.4, 4100.7, 4117.8, 4134.4, 4151.7, 4167.9, 4184.4, 4200.9, 4217.9, 4234.2, 4250.5, 4266.9, 4283.6, 4300.7, 4317.1, 4333.5, 4350.1, 4366.6, 4384, 4399.6, 4417, 4433.1, 4450.2, 4467.2, 4482.8, 4500.5, 4515.7, 4533.1, 4549.2, 4566.3, 4583, 4599.6, 4616.3, 4632.6, 4649.3, 4666.1, 4683.1, 4699.4, 4715.9, 4732.1, 4749.1, 4765.6, 4781.8, 4799.4, 4816.1, 4832, 4848.4, 4865.4, 4881.6, 4899.1, 4915.7, 4932.2, 4948.9, 4965, 4981.4, 4998.3, 5014.8, 5031.5, 5048.4, 5064.6, 5081.6, 5098.3, 5114.4, 5131.2, 5148.3, 5164.2, 5180.7, 5197.6, 5214.5, 5234.5, 5248, 5266.3, 5281.1, 5300.1, 5314.8, 5330, 5346.8, 5363.4, 5379.9, 5396.6, 5413.1, 5429.8, 5446.8, 5463.6, 5479.8, 5496.9, 5513.5, 5529.6, 5546.7, 5562.8, 5579.6, 5596.2, 5612.8, 5629.5, 5646.4, 5662.6, 5679.4, 5696.3, 5713.2, 5729.7, 5746.3, 5763, 5779.8, 5797, 5812.8, 5831.4, 5846.2, 5862.6, 5879.4, 5895.6, 5912.5, 5929, 5946, 5962.5, 5978.9, 5995.2, 6011.8, 6028.4, 6045.1, 6061.6, 6078.3, 6095, 6111.5, 6128, 6144.6, 6161.9, 6178, 6194.7, 6211.4, 6227.9, 6244.5, 6261.3, 6277.7, 6294.6, 6311.3, 6327.5, 6344.3, 6360.8, 6377.5, 6394.1, 6410.7, 6427.3, 6443.9, 6460.8, 6477, 6493.9, 6510.5, 6527, 6543.7, 6560.2, 6576.9, 6593.6, 6610.1, 6626.6, 6643.2, 6662.5, 6676.6, 6693.2, 6712.9, 6729.7, 6745.9, 6759.9, 6776.3, 6796, 6812.6, 6829.8, 6846, 6862.3, 6879.2, 6896, 6912.5, 6929.3, 6946, 6962.3, 6979.5, 6995.7, 7012.2, 7029, 7045.3, 7061.3, 7078.8, 7094.9, 7111.4, 7125.5, 7144.7, 7161.7, 7178.2, 7194.7, 7208.5, 7228.2, 7249.4, 7260.6, 7274.9, 7291.3, 7310.5, 7327.5, 7344.5, 7361.2, 7375.6, 7391.6, 7408.5, 7425.4, 7442, 7457.8, 7475, 7491.9, 7508.2, 7525.1, 7541.7, 7558, 7574.5, 7591.2, 7607.8, 7624, 7640.8, 7658, 7674.4, 7691.2, 7707.9, 7724.8, 7741.1, 7757.6, 7774.5, 7791, 7807.5, 7824.8, 7840.2, 7856.9, 7873.3, 7890.4, 7907.1, 7923.7, 7940.6, 7957, 7973, 7989.8]","[6.7, 12.2, 16.7, 17, 16.2, 19.4, 34.2, 16.7, 16.1, 16.7, 16.9, 15.9, 17, 14.2, 15.9, 17, 16.6, 16.9, 16.2, 16.8, 16.4, 16.4, 17, 16.9, 16.3, 16.3, 16.4, 17.2, 16.3, 17, 16.4, 16.7, 16.8, 16.1, 16.8, 17.2, 16.3, 16.8, 16.9, 16.5, 16.4, 16.2, 17.3, 17, 16.4, 16.6, 16.1, 17.2, 16, 17.9, 16.2, 16.4, 16.9, 16.6, 16.1, 17.5, 16.2, 16.6, 16.5, 17.2, 15.9, 15.9, 17.7, 16.5, 16.3, 16.3, 17.1, 16.6, 17.3, 16.2, 16.5, 16.5, 17, 16.3, 16.3, 16.4, 16.7, 17.1, 16.4, 16.4, 16.6, 16.5, 17.4, 15.6, 17.4, 16.1, 17.1, 17, 15.6, 17.7, 15.2, 17.4, 16.1, 17.1, 16.7, 16.6, 16.7, 16.3, 16.7, 16.8, 17, 16.3, 16.5, 16.2, 17, 16.5, 16.2, 17.6, 16.7, 15.9, 16.4, 17, 16.2, 17.5, 16.6, 16.5, 16.7, 16.1, 16.4, 16.9, 16.5, 16.7, 16.9, 16.2, 17, 16.7, 16.1, 16.8, 17.1, 15.9, 16.5, 16.9, 16.9, 20, 13.5, 18.3, 14.8, 19, 14.7, 15.2, 16.8, 16.6, 16.5, 16.7, 16.5, 16.7, 17, 16.8, 16.2, 17.1, 16.6, 16.1, 17.1, 16.1, 16.8, 16.6, 16.6, 16.7, 16.9, 16.2, 16.8, 16.9, 16.9, 16.5, 16.6, 16.7, 16.8, 17.2, 15.8, 18.6, 14.8, 16.4, 16.8, 16.2, 16.9, 16.5, 17, 16.5, 16.4, 16.3, 16.6, 16.6, 16.7, 16.5, 16.7, 16.7, 16.5, 16.5, 16.6, 17.3, 16.1, 16.7, 16.7, 16.5, 16.6, 16.8, 16.4, 16.9, 16.7, 16.2, 16.8, 16.5, 16.7, 16.6, 16.6, 16.6, 16.6, 16.9, 16.2, 16.9, 16.6, 16.5, 16.7, 16.5, 16.7, 16.7, 16.5, 16.5, 16.6, 19.3, 14.1, 16.6, 19.7, 16.8, 16.2, 14, 16.4, 19.7, 16.6, 17.2, 16.2, 16.3, 16.9, 16.8, 16.5, 16.8, 16.7, 16.3, 17.2, 16.2, 16.5, 16.8, 16.3, 16, 17.5, 16.1, 16.5, 14.1, 19.2, 17, 16.5, 16.5, 13.8, 19.7, 21.2, 11.2, 14.3, 16.4, 19.2, 17, 17, 16.7, 14.4, 16, 16.9, 16.9, 16.6, 15.8, 17.2, 16.9, 16.3, 16.9, 16.6, 16.3, 16.5, 16.7, 16.6, 16.2, 16.8, 17.2, 16.4, 16.8, 16.7, 16.9, 16.3, 16.5, 16.9, 16.5, 16.5, 17.3, 15.4, 16.7, 16.4, 17.1, 16.7, 16.6, 16.9, 16.4, 16, 16.8]",60.0,59.0,61.0,5006.3,[],,,,,,,,,,,,,,,,,,,,,,,,,HRV,HRV_0313,2022-11-30 22:30:32
,wl-html-keyboard-response,2,19659,0.0-2.0-0.0,0.0,3.0,,,,,,,,10429.799999952316,0.0,0,,,,,,,,,,,,,,,,,,,,,,HRV,HRV_0313,2022-11-30 22:30:32
,wl-rdm,3,26631,0.0-3.0-0.0,0.0,4.0,,,,,,,[],,,,0.0,0.0,87.9,0.0,u,0.0,True,1365.6000000238419,83.0,61.0,40.0,False,,3000.0,[],"[960, 540]",ColorTask_Demo,,,,,HRV,HRV_0313,2022-11-30 22:30:32
,wl-rdm,4,31502,0.0-3.0-1.0,0.0,5.0,,,,,,,[],,,,0.0,0.0,87.9,1.0,i,1.0,True,796.1999999284744,48.0,61.0,40.0,False,,2000.0,[],"[960, 540]",ColorTask_Demo,,,,,HRV,HRV_0313,2022-11-30 22:30:32
,wl-html-keyboard-response,5,36578,0.0-3.0-2.0,0.0,6.0,,,,,,,,3071.399999976158,0.0,1,,,,,,,,,,,,,,,,,,,,,,HRV,HRV_0313,2022-11-30 22:30:32
,wl-html-keyboard-response,6,43979,0.0-4.0-0.0,0.0,7.0,,,,,,,,5397.300000071526,0.0,0,,,,,,,,,,,,,,,,,,,,,,HRV,HRV_0313,2022-11-30 22:30:32
,wl-html-keyboard-response,7,53635,0.0-5.0-0.0,0.0,8.0,,,,,,,,7653.600000023842,0.0,0,,,,,,,,,,,,,,,,,,,,,,HRV,HRV_0313,2022-11-30 22:30:32
,wl-rdm,8,55901,0.0-6.0-0.0,0.0,9.0,,,,,,,[],,,,,,73.6,1.0,i,1.0,True,854.8999999761581,52.0,61.0,40.0,False,,336.72215570341825,[],"[960, 540]",ColorTask,1.0,1.0,,,HRV,HRV_0313,2022-11-30 22:30:32
,wl-rdm,9,58062,0.0-6.1-0.1,0.0,10.0,,,,,,,[],,,,,,87.9,0.0,u,0.0,True,872.5,53.0,61.0,40.0,False,,203.26773550318907,[],"[960, 540]",ColorTask,2.0,2.0,,,HRV,HRV_0313,2022-11-30 22:30:32
,wl-rdm,10,60172,0.0-6.2-0.2,0.0,11.0,,,,,,,[],,,,,,73.6,0.0,u,0.0,True,745.3000000715256,45.0,61.0,40.0,False,,297.6311292287656,[],"[960, 540]",ColorTask,3.0,3.0,,,HRV,HRV_0313,2022-11-30 22:30:32
,wl-rdm,11,62399,0.0-6.3-0.3,0.0,12.0,,,,,,,[],,,,,,73.6,1.0,i,1.0,True,822.1000000238419,50.0,61.0,40.0,False,,320.8088996772126,[],"[960, 540]",ColorTask,4.0,4.0,,,HRV,HRV_0313,2022-11-30 22:30:32
,wl-rdm,12,64327,0.0-6.4-0.4,0.0,13.0,,,,,,,[],,,,,,87.9,1.0,i,1.0,True,638.0,39.0,61.0,40.0,False,,208.03495046561238,[],"[960, 540]",ColorTask,5.0,5.0,,,HRV,HRV_0313,2022-11-30 22:30:32
,wl-rdm,13,66754,0.0-6.5-0.5,0.0,14.0,,,,,,,[],,,,,,56.4,1.0,i,1.0,True,971.4000000953674,59.0,61.0,40.0,False,,380.50825614445097,[],"[960, 540]",ColorTask,6.0,6.0,,,HRV,HRV_0313,2022-11-30 22:30:32
,wl-rdm,14,68732,0.0-6.6-0.6,0.0,15.0,,,,,,,[],,,,,,73.6,1.0,i,1.0,True,655.2999999523163,39.0,61.0,40.0,False,,251.70353641097353,[],"[960, 540]",ColorTask,7.0,7.0,,,HRV,HRV_0313,2022-11-30 22:30:32
,wl-rdm,15,70643,0.0-6.7-0.7,0.0,16.0,,,,,,,[],,,,,,87.9,1.0,i,1.0,True,577.0999999046326,35.0,61.0,40.0,False,,262.1690417381594,[],"[960, 540]",ColorTask,8.0,8.0,,,HRV,HRV_0313,2022-11-30 22:30:32
,wl-rdm,16,72688,0.0-6.8-0.8,0.0,17.0,,,,,,,[],,,,,,73.6,0.0,u,0.0,True,604.6999999284744,37.0,61.0,40.0,False,,352.70293041757185,[],"[960, 540]",ColorTask,9.0,9.0,,,HRV,HRV_0313,2022-11-30 22:30:32
,wl-rdm,17,74865,0.0-6.9-0.9,0.0,18.0,,,,,,,[],,,,,,56.4,0.0,i,1.0,False,858.6000000238419,52.0,61.0,40.0,False,,232.72305847235202,[],"[960, 540]",ColorTask,8.0,10.0,,,HRV,HRV_0313,2022-11-30 22:30:32
,wl-rdm,18,76992,0.0-6.10-0.10,0.0,19.0,,,,,,,[],,,,,,87.9,1.0,i,1.0,True,691.2999999523163,42.0,61.0,40.0,False,,360.46699080508705,[],"[960, 540]",ColorTask,9.0,11.0,,,HRV,HRV_0313,2022-11-30 22:30:32
,wl-rdm,19,78887,0.0-6.11-0.11,0.0,20.0,,,,,,,[],,,,,,87.9,0.0,u,0.0,True,608.3999999761581,37.0,61.0,40.0,False,,208.67361699119755,[],"[960, 540]",ColorTask,10.0,12.0,,,HRV,HRV_0313,2022-11-30 22:30:32
,wl-rdm,20,81281,0.0-6.12-0.12,0.0,21.0,,,,,,,[],,,,,,50.0,1.0,u,0.0,False,978.2999999523163,59.0,61.0,40.0,False,,333.02437653018285,[],"[960, 540]",ColorTask,9.0,13.0,,,HRV,HRV_0313,2022-11-30 22:30:32
,wl-rdm,21,83558,0.0-6.13-0.13,0.0,22.0,,,,,,,[],,,,,,50.0,0.0,u,0.0,True,878.5999999046326,53.0,61.0,40.0,False,,325.3934416254098,[],"[960, 540]",ColorTask,10.0,14.0,,,HRV,HRV_0313,2022-11-30 22:30:32
,wl-rdm,22,85702,0.0-6.14-0.14,0.0,23.0,,,,,,,[],,,,,,50.0,0.0,u,0.0,True,835.0,51.0,61.0,40.0,False,,231.98079648834198,[],"[960, 540]",ColorTask,11.0,15.0,,,HRV,HRV_0313,2022-11-30 22:30:32
,wl-rdm,23,87996,0.0-6.15-0.15,0.0,24.0,,,,,,,[],,,,,,53.2,0.0,i,1.0,False,954.5,58.0,61.0,40.0,False,,254.6853452118607,[],"[960, 540]",ColorTask,10.0,16.0,,,HRV,HRV_0313,2022-11-30 22:30:32
,wl-rdm,24,90207,0.0-6.16-0.16,0.0,25.0,,,,,,,[],,,,,,50.0,1.0,u,0.0,False,802.3000000715256,49.0,61.0,40.0,False,,321.8592269485841,[],"[960, 540]",ColorTask,9.0,17.0,,,HRV,HRV_0313,2022-11-30 22:30:32
,wl-rdm,25,92450,0.0-6.17-0.17,0.0,26.0,,,,,,,[],,,,,,73.6,0.0,u,0.0,True,827.6000000238419,50.0,61.0,40.0,False,,337.90516754704055,[],"[960, 540]",ColorTask,10.0,18.0,,,HRV,HRV_0313,2022-11-30 22:30:32
,wl-rdm,26,94744,0.0-6.18-0.18,0.0,27.0,,,,,,,[],,,,,,62.5,1.0,i,1.0,True,822.7999999523163,50.0,61.0,40.0,False,,394.75071538063315,[],"[960, 540]",ColorTask,11.0,19.0,,,HRV,HRV_0313,2022-11-30 22:30:32
,wl-rdm,27,96755,0.0-6.19-0.19,0.0,28.0,,,,,,,[],,,,,,62.5,1.0,i,1.0,True,555.5,34.0,61.0,40.0,False,,373.6690753150932,[],"[960, 540]",ColorTask,12.0,20.0,,,HRV,HRV_0313,2022-11-30 22:30:32
,wl-rdm,28,98866,0.0-6.20-0.20,0.0,29.0,,,,,,,[],,,,,,53.2,0.0,u,0.0,True,738.7999999523163,45.0,61.0,40.0,False,,284.6006519218241,[],"[960, 540]",ColorTask,13.0,21.0,,,HRV,HRV_0313,2022-11-30 22:30:32
,wl-rdm,29,101127,0.0-6.21-0.21,0.0,30.0,,,,,,,[],,,,,,56.4,1.0,i,1.0,True,911.0,55.0,61.0,40.0,False,,278.7115688299774,[],"[960, 540]",ColorTask,14.0,22.0,,,HRV,HRV_0313,2022-11-30 22:30:32
,wl-rdm,30,103205,0.0-6.22-0.22,0.0,31.0,,,,,,,[],,,,,,73.6,0.0,u,0.0,True,688.8000000715256,42.0,61.0,40.0,False,,311.99432605800064,[],"[960, 540]",ColorTask,15.0,23.0,,,HRV,HRV_0313,2022-11-30 22:30:32
,wl-rdm,31,105082,0.0-6.23-0.23,0.0,32.0,,,,,,,[],,,,,,53.2,0.0,u,0.0,True,585.0000001192093,36.0,61.0,40.0,False,,215.22084609472373,[],"[960, 540]",ColorTask,16.0,24.0,,,HRV,HRV_0313,2022-11-30 22:30:32
,wl-rdm,32,106977,0.0-6.24-0.24,0.0,33.0,,,,,,,[],,,,,,53.2,1.0,i,1.0,True,608.2999999523163,37.0,61.0,40.0,False,,213.4296855730232,[],"[960, 540]",ColorTask,17.0,25.0,,,HRV,HRV_0313,2022-11-30 22:30:32
,wl-rdm,33,109537,0.0-6.25-0.25,0.0,34.0,,,,,,,[],,,,,,56.4,1.0,i,1.0,True,1246.6000000238419,75.0,61.0,40.0,False,,247.2507329441338,[],"[960, 540]",ColorTask,18.0,26.0,,,HRV,HRV_0313,2022-11-30 22:30:32
,wl-rdm,34,111864,0.0-6.26-0.26,0.0,35.0,,,,,,,[],,,,,,56.4,0.0,u,0.0,True,833.1000000238419,51.0,61.0,40.0,False,,399.7391861069826,[],"[960, 540]",ColorTask,19.0,27.0,,,HRV,HRV_0313,2022-11-30 22:30:32
,wl-rdm,35,113742,0.0-6.27-0.27,0.0,36.0,,,,,,,[],,,,,,87.9,0.0,u,0.0,True,594.8999999761581,36.0,61.0,40.0,False,,200.77193407953789,[],"[960, 540]",ColorTask,20.0,28.0,,,HRV,HRV_0313,2022-11-30 22:30:32
,wl-rdm,36,115836,0.0-6.28-0.28,0.0,37.0,,,,,,,[],,,,,,73.6,0.0,u,0.0,True,659.6000000238419,40.0,61.0,40.0,False,,362.15172647556767,[],"[960, 540]",ColorTask,21.0,29.0,,,HRV,HRV_0313,2022-11-30 22:30:32
,wl-rdm,37,117831,0.0-6.29-0.29,0.0,38.0,,,,,,,[],,,,,,87.9,1.0,i,1.0,True,683.1000000238419,42.0,61.0,40.0,False,,218.68309110714122,[],"[960, 540]",ColorTask,22.0,30.0,,,HRV,HRV_0313,2022-11-30 22:30:32
,wl-rdm,38,119925,0.0-6.30-0.30,0.0,39.0,,,,,,,[],,,,,,87.9,1.0,i,1.0,True,737.2999999523163,45.0,61.0,40.0,False,,281.95847938423765,[],"[960, 540]",ColorTask,23.0,31.0,,,HRV,HRV_0313,2022-11-30 22:30:32
,wl-rdm,39,122086,0.0-6.31-0.31,0.0,40.0,,,,,,,[],,,,,,56.4,0.0,u,0.0,True,872.6000000238419,53.0,61.0,40.0,False,,202.9212232035785,[],"[960, 540]",ColorTask,24.0,32.0,,,HRV,HRV_0313,2022-11-30 22:30:32
,wl-rdm,40,124114,0.0-6.32-0.32,0.0,41.0,,,,,,,[],,,,,,53.2,0.0,u,0.0,True,745.6000000238419,45.0,61.0,40.0,False,,212.06223145702626,[],"[960, 540]",ColorTask,25.0,33.0,,,HRV,HRV_0313,2022-11-30 22:30:32
,wl-rdm,41,126042,0.0-6.33-0.33,0.0,42.0,,,,,,,[],,,,,,56.4,1.0,i,1.0,True,568.8000000715256,35.0,61.0,40.0,False,,275.154473146694,[],"[960, 540]",ColorTask,26.0,34.0,,,HRV,HRV_0313,2022-11-30 22:30:32
,wl-rdm,42,127987,0.0-6.34-0.34,0.0,43.0,,,,,,,[],,,,,,73.6,0.0,u,0.0,True,627.8000000715256,38.0,61.0,40.0,False,,239.5531905148712,[],"[960, 540]",ColorTask,27.0,35.0,,,HRV,HRV_0313,2022-11-30 22:30:32
,wl-rdm,43,130264,0.0-6.35-0.35,0.0,44.0,,,,,,,[],,,,,,50.0,0.0,u,0.0,True,818.8999999761581,50.0,61.0,40.0,False,,378.78472706193986,[],"[960, 540]",ColorTask,28.0,36.0,,,HRV,HRV_0313,2022-11-30 22:30:32
,wl-rdm,44,132241,0.0-6.36-0.36,0.0,45.0,,,,,,,[],,,,,,62.5,0.0,u,0.0,True,606.1000000238419,37.0,61.0,40.0,False,,290.2156584644578,[],"[960, 540]",ColorTask,29.0,37.0,,,HRV,HRV_0313,2022-11-30 22:30:32
,wl-rdm,45,134303,0.0-6.37-0.37,0.0,46.0,,,,,,,[],,,,,,87.9,0.0,u,0.0,True,643.0,39.0,61.0,40.0,False,,341.9232477968991,[],"[960, 540]",ColorTask,30.0,38.0,,,HRV,HRV_0313,2022-11-30 22:30:32
,wl-rdm,46,136331,0.0-6.38-0.38,0.0,47.0,,,,,,,[],,,,,,73.6,0.0,u,0.0,True,730.6000000238419,44.0,61.0,40.0,False,,220.1285442590005,[],"[960, 540]",ColorTask,31.0,39.0,,,HRV,HRV_0313,2022-11-30 22:30:32
,wl-rdm,47,138393,0.0-6.39-0.39,0.0,48.0,,,,,,,[],,,,,,56.4,0.0,u,0.0,True,684.6999999284744,42.0,61.0,40.0,False,,282.5508452708048,[],"[960, 540]",ColorTask,32.0,40.0,,,HRV,HRV_0313,2022-11-30 22:30:32
,wl-rdm,48,140436,0.0-6.40-0.40,0.0,49.0,,,,,,,[],,,,,,87.9,1.0,i,1.0,True,615.5,38.0,61.0,40.0,False,,347.72465327466125,[],"[960, 540]",ColorTask,33.0,41.0,,,HRV,HRV_0313,2022-11-30 22:30:32
,wl-rdm,49,142381,0.0-6.41-0.41,0.0,50.0,,,,,,,[],,,,,,62.5,0.0,u,0.0,True,651.6000000238419,40.0,61.0,40.0,False,,212.3760916638354,[],"[960, 540]",ColorTask,34.0,42.0,,,HRV,HRV_0313,2022-11-30 22:30:32
,wl-rdm,50,144924,0.0-6.42-0.42,0.0,51.0,,,,,,,[],,,,,,62.5,0.0,u,0.0,True,1171.5,71.0,61.0,40.0,False,,292.0051391604732,[],"[960, 540]",ColorTask,35.0,43.0,,,HRV,HRV_0313,2022-11-30 22:30:32
,wl-rdm,51,147417,0.0-6.43-0.43,0.0,52.0,,,,,,,[],,,,,,50.0,1.0,i,1.0,True,1138.2999999523163,69.0,61.0,40.0,False,,269.47776925197184,[],"[960, 540]",ColorTask,36.0,44.0,,,HRV,HRV_0313,2022-11-30 22:30:32
,wl-rdm,52,149561,0.0-6.44-0.44,0.0,53.0,,,,,,,[],,,,,,53.2,1.0,u,0.0,False,762.0,46.0,61.0,40.0,False,,306.0548359078774,[],"[960, 540]",ColorTask,35.0,45.0,,,HRV,HRV_0313,2022-11-30 22:30:32
,wl-rdm,53,151822,0.0-6.45-0.45,0.0,54.0,,,,,,,[],,,,,,73.6,0.0,u,0.0,True,911.5,55.0,61.0,40.0,False,,268.0674772522689,[],"[960, 540]",ColorTask,36.0,46.0,,,HRV,HRV_0313,2022-11-30 22:30:32
,wl-rdm,54,153833,0.0-6.46-0.46,0.0,55.0,,,,,,,[],,,,,,56.4,1.0,i,1.0,True,669.8999999761581,41.0,61.0,40.0,False,,256.851878049598,[],"[960, 540]",ColorTask,37.0,47.0,,,HRV,HRV_0313,2022-11-30 22:30:32
,wl-rdm,55,156160,0.0-6.47-0.47,0.0,56.0,,,,,,,[],,,,,,50.0,1.0,i,1.0,True,1000.0,61.0,61.0,40.0,False,,229.42931283533272,[],"[960, 540]",ColorTask,38.0,48.0,,,HRV,HRV_0313,2022-11-30 22:30:32
,wl-rdm,56,158287,0.0-6.48-0.48,0.0,57.0,,,,,,,[],,,,,,50.0,1.0,u,0.0,False,724.2000000476837,44.0,61.0,40.0,False,,322.27289073091123,[],"[960, 540]",ColorTask,37.0,49.0,,,HRV,HRV_0313,2022-11-30 22:30:32
,wl-rdm,57,160448,0.0-6.49-0.49,0.0,58.0,,,,,,,[],,,,,,73.6,0.0,u,0.0,True,733.8999999761581,45.0,61.0,40.0,False,,336.259094092622,[],"[960, 540]",ColorTask,38.0,50.0,,,HRV,HRV_0313,2022-11-30 22:30:32
,wl-rdm,58,162443,0.0-6.50-0.50,0.0,59.0,,,,,,,[],,,,,,73.6,1.0,i,1.0,True,653.4999998807907,40.0,61.0,40.0,False,,259.7406148955267,[],"[960, 540]",ColorTask,39.0,51.0,,,HRV,HRV_0313,2022-11-30 22:30:32
,wl-rdm,59,164404,0.0-6.51-0.51,0.0,60.0,,,,,,,[],,,,,,62.5,0.0,u,0.0,True,671.7999999523163,41.0,61.0,40.0,False,,209.27389318584642,[],"[960, 540]",ColorTask,40.0,52.0,,,HRV,HRV_0313,2022-11-30 22:30:32
,wl-rdm,60,166515,0.0-6.52-0.52,0.0,61.0,,,,,,,[],,,,,,62.5,0.0,i,1.0,False,826.7999999523163,50.0,61.0,40.0,False,,200.40012193636022,[],"[960, 540]",ColorTask,39.0,53.0,,,HRV,HRV_0313,2022-11-30 22:30:32
,wl-rdm,61,168560,0.0-6.53-0.53,0.0,62.0,,,,,,,[],,,,,,87.9,0.0,u,0.0,True,582.8999999761581,36.0,61.0,40.0,False,,370.43822845398347,[],"[960, 540]",ColorTask,40.0,54.0,,,HRV,HRV_0313,2022-11-30 22:30:32
,wl-rdm,62,170471,0.0-6.54-0.54,0.0,63.0,,,,,,,[],,,,,,56.4,0.0,u,0.0,True,601.0,37.0,61.0,40.0,False,,221.07183701850647,[],"[960, 540]",ColorTask,41.0,55.0,,,HRV,HRV_0313,2022-11-30 22:30:32
,wl-rdm,63,172498,0.0-6.55-0.55,0.0,64.0,,,,,,,[],,,,,,53.2,1.0,u,0.0,False,591.8999999761581,36.0,61.0,40.0,False,,359.5546569677789,[],"[960, 540]",ColorTask,40.0,56.0,,,HRV,HRV_0313,2022-11-30 22:30:32
,wl-rdm,64,174759,0.0-6.56-0.56,0.0,65.0,,,,,,,[],,,,,,56.4,1.0,i,1.0,True,897.2999999523163,54.0,61.0,40.0,False,,285.89176987619186,[],"[960, 540]",ColorTask,41.0,57.0,,,HRV,HRV_0313,2022-11-30 22:30:32
,wl-rdm,65,176903,0.0-6.57-0.57,0.0,66.0,,,,,,,[],,,,,,73.6,1.0,i,1.0,True,685.5000001192093,42.0,61.0,40.0,False,,378.936946865747,[],"[960, 540]",ColorTask,42.0,58.0,,,HRV,HRV_0313,2022-11-30 22:30:32
,wl-rdm,66,178981,0.0-6.58-0.58,0.0,67.0,,,,,,,[],,,,,,73.6,1.0,i,1.0,True,609.3999999761581,37.0,61.0,40.0,False,,395.16887417023634,[],"[960, 540]",ColorTask,43.0,59.0,,,HRV,HRV_0313,2022-11-30 22:30:32
,wl-rdm,67,181125,0.0-6.59-0.59,0.0,68.0,,,,,,,[],,,,,,50.0,0.0,u,0.0,True,727.8000000715256,44.0,61.0,40.0,False,,338.98776340540314,[],"[960, 540]",ColorTask,44.0,60.0,,,HRV,HRV_0313,2022-11-30 22:30:32
,wl-rdm,68,183685,0.0-6.60-0.60,0.0,69.0,,,,,,,[],,,,,,62.5,1.0,i,1.0,True,1177.7999999523163,71.0,61.0,40.0,False,,304.6344605774014,[],"[960, 540]",ColorTask,45.0,61.0,,,HRV,HRV_0313,2022-11-30 22:30:32
,wl-rdm,69,185745,0.0-6.61-0.61,0.0,70.0,,,,,,,[],,,,,,56.4,1.0,i,1.0,True,656.6000000238419,40.0,61.0,40.0,False,,323.19063811264596,[],"[960, 540]",ColorTask,46.0,62.0,,,HRV,HRV_0313,2022-11-30 22:30:32
,wl-rdm,70,187873,0.0-6.62-0.62,0.0,71.0,,,,,,,[],,,,,,62.5,1.0,i,1.0,True,667.6000000238419,41.0,61.0,40.0,False,,379.72357275927703,[],"[960, 540]",ColorTask,47.0,63.0,,,HRV,HRV_0313,2022-11-30 22:30:32
,wl-rdm,71,189884,0.0-6.63-0.63,0.0,72.0,,,,,,,[],,,,,,87.9,1.0,i,1.0,True,615.8999999761581,38.0,61.0,40.0,False,,311.41019921109034,[],"[960, 540]",ColorTask,48.0,64.0,,,HRV,HRV_0313,2022-11-30 22:30:32
,wl-rdm,72,192228,0.0-6.64-0.64,0.0,73.0,,,,,,,[],,,,,,50.0,1.0,u,0.0,False,1023.0,62.0,61.0,40.0,False,,245.20371011523935,[],"[960, 540]",ColorTask,47.0,65.0,,,HRV,HRV_0313,2022-11-30 22:30:32
,wl-rdm,73,194505,0.0-6.65-0.65,0.0,74.0,,,,,,,[],,,,,,73.6,1.0,i,1.0,True,887.5,54.0,61.0,40.0,False,,314.40490998805785,[],"[960, 540]",ColorTask,48.0,66.0,,,HRV,HRV_0313,2022-11-30 22:30:32
,wl-rdm,74,196516,0.0-6.66-0.66,0.0,75.0,,,,,,,[],,,,,,53.2,0.0,u,0.0,True,635.3000000715256,39.0,61.0,40.0,False,,293.97325978671176,[],"[960, 540]",ColorTask,49.0,67.0,,,HRV,HRV_0313,2022-11-30 22:30:32
,wl-rdm,75,198877,0.0-6.67-0.67,0.0,76.0,,,,,,,[],,,,,,56.4,1.0,i,1.0,True,898.1999999284744,55.0,61.0,40.0,False,,375.39853964287954,[],"[960, 540]",ColorTask,50.0,68.0,,,HRV,HRV_0313,2022-11-30 22:30:32
,wl-rdm,76,200871,0.0-6.68-0.68,0.0,77.0,,,,,,,[],,,,,,56.4,0.0,u,0.0,True,629.0,38.0,61.0,40.0,False,,291.96755128985353,[],"[960, 540]",ColorTask,51.0,69.0,,,HRV,HRV_0313,2022-11-30 22:30:32
,wl-rdm,77,203066,0.0-6.69-0.69,0.0,78.0,,,,,,,[],,,,,,87.9,1.0,i,1.0,True,737.3000000715256,45.0,61.0,40.0,False,,378.7381717532118,[],"[960, 540]",ColorTask,52.0,70.0,,,HRV,HRV_0313,2022-11-30 22:30:32
,wl-rdm,78,205094,0.0-6.70-0.70,0.0,79.0,,,,,,,[],,,,,,56.4,0.0,u,0.0,True,569.3000000715256,35.0,61.0,40.0,False,,374.2694117877038,[],"[960, 540]",ColorTask,53.0,71.0,,,HRV,HRV_0313,2022-11-30 22:30:32
,wl-rdm,79,207038,0.0-6.71-0.71,0.0,80.0,,,,,,,[],,,,,,87.9,0.0,u,0.0,True,549.2999999523163,34.0,61.0,40.0,False,,303.38901811724526,[],"[960, 540]",ColorTask,54.0,72.0,,,HRV,HRV_0313,2022-11-30 22:30:32
,wl-rdm,80,209016,0.0-6.72-0.72,0.0,81.0,,,,,,,[],,,,,,62.5,0.0,u,0.0,True,637.1000000238419,39.0,61.0,40.0,False,,252.793558858775,[],"[960, 540]",ColorTask,55.0,73.0,,,HRV,HRV_0313,2022-11-30 22:30:32
,wl-rdm,81,211144,0.0-6.73-0.73,0.0,82.0,,,,,,,[],,,,,,62.5,0.0,u,0.0,True,812.0999999046326,49.0,61.0,40.0,False,,243.61758270450025,[],"[960, 540]",ColorTask,56.0,74.0,,,HRV,HRV_0313,2022-11-30 22:30:32
,wl-rdm,82,213487,0.0-6.74-0.74,0.0,83.0,,,,,,,[],,,,,,50.0,1.0,u,0.0,False,1001.2000000476837,61.0,61.0,40.0,False,,255.07441736858038,[],"[960, 540]",ColorTask,55.0,75.0,,,HRV,HRV_0313,2022-11-30 22:30:32
,wl-rdm,83,215648,0.0-6.75-0.75,0.0,84.0,,,,,,,[],,,,,,56.4,0.0,u,0.0,True,835.0,51.0,61.0,40.0,False,,242.38845843018007,[],"[960, 540]",ColorTask,56.0,76.0,,,HRV,HRV_0313,2022-11-30 22:30:32
,wl-rdm,84,218258,0.0-6.76-0.76,0.0,85.0,,,,,,,[],,,,,,62.5,1.0,i,1.0,True,1138.8999999761581,69.0,61.0,40.0,False,,391.27436205689014,[],"[960, 540]",ColorTask,57.0,77.0,,,HRV,HRV_0313,2022-11-30 22:30:32
,wl-rdm,85,220401,0.0-6.77-0.77,0.0,86.0,,,,,,,[],,,,,,62.5,0.0,u,0.0,True,820.6000000238419,50.0,61.0,40.0,False,,234.22263664139967,[],"[960, 540]",ColorTask,58.0,78.0,,,HRV,HRV_0313,2022-11-30 22:30:32
,wl-rdm,86,222712,0.0-6.78-0.78,0.0,87.0,,,,,,,[],,,,,,53.2,0.0,u,0.0,True,935.8000000715256,57.0,61.0,40.0,False,,282.92326760410015,[],"[960, 540]",ColorTask,59.0,79.0,,,HRV,HRV_0313,2022-11-30 22:30:32
,wl-rdm,87,224773,0.0-6.79-0.79,0.0,88.0,,,,,,,[],,,,,,62.5,0.0,u,0.0,True,641.1999999284744,39.0,61.0,40.0,False,,333.3633298321884,[],"[960, 540]",ColorTask,60.0,80.0,,,HRV,HRV_0313,2022-11-30 22:30:32
,wl-rdm,88,226950,0.0-6.80-0.80,0.0,89.0,,,,,,,[],,,,,,62.5,1.0,i,1.0,True,897.5,54.0,61.0,40.0,False,,211.14480844357982,[],"[960, 540]",ColorTask,61.0,81.0,,,HRV,HRV_0313,2022-11-30 22:30:32
,wl-rdm,89,228917,0.0-6.81-0.81,0.0,90.0,,,,,,,[],,,,,,50.0,1.0,u,0.0,False,637.3999999761581,39.0,61.0,40.0,False,,239.45183568961755,[],"[960, 540]",ColorTask,60.0,82.0,,,HRV,HRV_0313,2022-11-30 22:30:32
,wl-rdm,90,230840,0.0-6.82-0.82,0.0,91.0,,,,,,,[],,,,,,53.2,1.0,i,1.0,True,637.3000000715256,39.0,61.0,40.0,False,,210.1906281550675,[],"[960, 540]",ColorTask,61.0,83.0,,,HRV,HRV_0313,2022-11-30 22:30:32
,wl-rdm,91,232785,0.0-6.83-0.83,0.0,92.0,,,,,,,[],,,,,,62.5,1.0,i,1.0,True,606.1999999284744,37.0,61.0,40.0,False,,262.73783996341666,[],"[960, 540]",ColorTask,62.0,84.0,,,HRV,HRV_0313,2022-11-30 22:30:32
,wl-rdm,92,234746,0.0-6.84-0.84,0.0,93.0,,,,,,,[],,,,,,87.9,0.0,u,0.0,True,513.1999999284744,31.0,61.0,40.0,False,,371.1906075985265,[],"[960, 540]",ColorTask,63.0,85.0,,,HRV,HRV_0313,2022-11-30 22:30:32
,wl-rdm,93,236840,0.0-6.85-0.85,0.0,94.0,,,,,,,[],,,,,,53.2,0.0,u,0.0,True,697.8000000715256,42.0,61.0,40.0,False,,321.74119249617263,[],"[960, 540]",ColorTask,64.0,86.0,,,HRV,HRV_0313,2022-11-30 22:30:32
,wl-rdm,94,238818,0.0-6.86-0.86,0.0,95.0,,,,,,,[],,,,,,50.0,1.0,u,0.0,False,643.3999999761581,39.0,61.0,40.0,False,,265.36450131599247,[],"[960, 540]",ColorTask,63.0,87.0,,,HRV,HRV_0313,2022-11-30 22:30:32
,wl-rdm,95,240912,0.0-6.87-0.87,0.0,96.0,,,,,,,[],,,,,,53.2,1.0,u,0.0,False,673.5,41.0,61.0,40.0,False,,336.4702496523862,[],"[960, 540]",ColorTask,62.0,88.0,,,HRV,HRV_0313,2022-11-30 22:30:32
,wl-rdm,96,243040,0.0-6.88-0.88,0.0,97.0,,,,,,,[],,,,,,56.4,0.0,u,0.0,True,682.2999999523163,42.0,61.0,40.0,False,,362.9931330569825,[],"[960, 540]",ColorTask,63.0,89.0,,,HRV,HRV_0313,2022-11-30 22:30:32
,wl-rdm,97,245001,0.0-6.89-0.89,0.0,98.0,,,,,,,[],,,,,,87.9,0.0,u,0.0,True,612.8000000715256,37.0,61.0,40.0,False,,268.27627673276356,[],"[960, 540]",ColorTask,64.0,90.0,,,HRV,HRV_0313,2022-11-30 22:30:32
,wl-rdm,98,247528,0.0-6.90-0.90,0.0,99.0,,,,,,,[],,,,,,53.2,1.0,i,1.0,True,1113.0999999046326,67.0,61.0,40.0,False,,336.9937274292572,[],"[960, 540]",ColorTask,65.0,91.0,,,HRV,HRV_0313,2022-11-30 22:30:32
,wl-rdm,99,249588,0.0-6.91-0.91,0.0,100.0,,,,,,,[],,,,,,53.2,0.0,u,0.0,True,606.6999999284744,37.0,61.0,40.0,False,,367.3407483118408,[],"[960, 540]",ColorTask,66.0,92.0,,,HRV,HRV_0313,2022-11-30 22:30:32
,wl-rdm,100,251966,0.0-6.92-0.92,0.0,101.0,,,,,,,[],,,,,,53.2,1.0,u,0.0,False,1034.0,63.0,61.0,40.0,False,,254.06951149363977,[],"[960, 540]",ColorTask,65.0,93.0,,,HRV,HRV_0313,2022-11-30 22:30:32
,wl-rdm,101,254309,0.0-6.93-0.93,0.0,102.0,,,,,,,[],,,,,,56.4,1.0,i,1.0,True,972.0,59.0,61.0,40.0,False,,299.9616096521222,[],"[960, 540]",ColorTask,66.0,94.0,,,HRV,HRV_0313,2022-11-30 22:30:32
,wl-rdm,102,257034,0.0-6.94-0.94,0.0,103.0,,,,,,,[],,,,,,50.0,0.0,u,0.0,True,1331.3999999761581,81.0,61.0,40.0,False,,311.9910603595833,[],"[960, 540]",ColorTask,67.0,95.0,,,HRV,HRV_0313,2022-11-30 22:30:32
,wl-rdm,103,259378,0.0-6.95-0.95,0.0,104.0,,,,,,,[],,,,,,62.5,1.0,i,1.0,True,1021.3000000715256,62.0,61.0,40.0,False,,245.52919683982694,[],"[960, 540]",ColorTask,68.0,96.0,,,HRV,HRV_0313,2022-11-30 22:30:32
,wl-rdm,104,261439,0.0-6.96-0.96,0.0,105.0,,,,,,,[],,,,,,50.0,0.0,u,0.0,True,623.3000000715256,38.0,61.0,40.0,False,,358.05894337208707,[],"[960, 540]",ColorTask,69.0,97.0,,,HRV,HRV_0313,2022-11-30 22:30:32
,wl-rdm,105,263401,0.0-6.97-0.97,0.0,106.0,,,,,,,[],,,,,,87.9,0.0,u,0.0,True,602.3999999761581,37.0,61.0,40.0,False,,280.2334363369097,[],"[960, 540]",ColorTask,70.0,98.0,,,HRV,HRV_0313,2022-11-30 22:30:32
,wl-rdm,106,265462,0.0-6.98-0.98,0.0,107.0,,,,,,,[],,,,,,87.9,1.0,i,1.0,True,735.5,45.0,61.0,40.0,False,,242.8661423831547,[],"[960, 540]",ColorTask,71.0,99.0,,,HRV,HRV_0313,2022-11-30 22:30:32
,wl-rdm,107,267523,0.0-6.99-0.99,0.0,108.0,,,,,,,[],,,,,,50.0,0.0,u,0.0,True,728.1000000238419,44.0,61.0,40.0,False,,261.31359731412687,[],"[960, 540]",ColorTask,72.0,100.0,,,HRV,HRV_0313,2022-11-30 22:30:32
,wl-rdm,108,269733,0.0-6.100-0.100,0.0,109.0,,,,,,,[],,,,,,53.2,1.0,u,0.0,False,841.3999999761581,51.0,61.0,40.0,False,,283.0172417208626,[],"[960, 540]",ColorTask,71.0,101.0,,,HRV,HRV_0313,2022-11-30 22:30:32
,wl-rdm,109,271911,0.0-6.101-0.101,0.0,110.0,,,,,,,[],,,,,,53.2,1.0,i,1.0,True,888.1000000238419,54.0,61.0,40.0,False,,206.0856913130904,[],"[960, 540]",ColorTask,72.0,102.0,,,HRV,HRV_0313,2022-11-30 22:30:32
,wl-rdm,110,273839,0.0-6.102-0.102,0.0,111.0,,,,,,,[],,,,,,53.2,0.0,u,0.0,True,634.6000000238419,39.0,61.0,40.0,False,,206.50288424670146,[],"[960, 540]",ColorTask,73.0,103.0,,,HRV,HRV_0313,2022-11-30 22:30:32
,wl-rdm,111,275866,0.0-6.103-0.103,0.0,112.0,,,,,,,[],,,,,,50.0,0.0,u,0.0,True,674.3999999761581,41.0,61.0,40.0,False,,281.9323518517761,[],"[960, 540]",ColorTask,74.0,104.0,,,HRV,HRV_0313,2022-11-30 22:30:32
,wl-rdm,112,278243,0.0-6.104-0.104,0.0,113.0,,,,,,,[],,,,,,50.0,0.0,i,1.0,False,970.4999998807907,59.0,61.0,40.0,False,,317.74142112044444,[],"[960, 540]",ColorTask,73.0,105.0,,,HRV,HRV_0313,2022-11-30 22:30:32
,wl-rdm,113,280537,0.0-6.105-0.105,0.0,114.0,,,,,,,[],,,,,,73.6,1.0,i,1.0,True,895.6999999284744,55.0,61.0,40.0,False,,307.3939671102084,[],"[960, 540]",ColorTask,74.0,106.0,,,HRV,HRV_0313,2022-11-30 22:30:32
,wl-rdm,114,283047,0.0-6.106-0.106,0.0,115.0,,,,,,,[],,,,,,73.6,1.0,i,1.0,True,1150.7000000476837,70.0,61.0,40.0,False,,268.0649538003268,[],"[960, 540]",ColorTask,75.0,107.0,,,HRV,HRV_0313,2022-11-30 22:30:32
,wl-rdm,115,285125,0.0-6.107-0.107,0.0,116.0,,,,,,,[],,,,,,62.5,1.0,u,0.0,False,664.3000000715256,40.0,61.0,40.0,False,,345.1674332631451,[],"[960, 540]",ColorTask,74.0,108.0,,,HRV,HRV_0313,2022-11-30 22:30:32
,wl-html-keyboard-response,116,293674,0.0-7.0-0.0,1.0,117.0,,,,,,,,6543.100000023842,1.0,0,,,,,,,,,,,,,,,,,,,,,,HRV,HRV_0313,2022-11-30 22:30:32
,wl-rdm,117,296061,0.0-8.0-0.0,1.0,118.0,,,,,,,[],,,,,,62.5,1.0,i,1.0,True,1014.2999999523163,61.0,61.0,40.0,False,,301.3745866372858,[],"[960, 540]",ColorTask,75.0,1.0,,,HRV,HRV_0313,2022-11-30 22:30:32
,wl-rdm,118,298172,0.0-8.1-0.1,1.0,119.0,,,,,,,[],,,,,,73.6,0.0,u,0.0,True,678.0,41.0,61.0,40.0,False,,363.4093460178552,[],"[960, 540]",ColorTask,76.0,2.0,,,HRV,HRV_0313,2022-11-30 22:30:32
,wl-rdm,119,300549,0.0-8.2-0.2,1.0,120.0,,,,,,,[],,,,,,53.2,1.0,i,1.0,True,960.2999999523163,58.0,61.0,40.0,False,,345.017533289805,[],"[960, 540]",ColorTask,77.0,3.0,,,HRV,HRV_0313,2022-11-30 22:30:32
,wl-rdm,120,303026,0.0-8.3-0.3,1.0,121.0,,,,,,,[],,,,,,50.0,0.0,i,1.0,False,1135.0,69.0,61.0,40.0,False,,262.95925957071313,[],"[960, 540]",ColorTask,76.0,4.0,,,HRV,HRV_0313,2022-11-30 22:30:32
,wl-rdm,121,304987,0.0-8.4-0.4,1.0,122.0,,,,,,,[],,,,,,73.6,0.0,u,0.0,True,635.9000000953674,39.0,61.0,40.0,False,,239.4568059870008,[],"[960, 540]",ColorTask,77.0,5.0,,,HRV,HRV_0313,2022-11-30 22:30:32
,wl-rdm,122,306981,0.0-8.5-0.5,1.0,123.0,,,,,,,[],,,,,,62.5,0.0,u,0.0,True,712.1999999284744,43.0,61.0,40.0,False,,215.34825521686517,[],"[960, 540]",ColorTask,78.0,6.0,,,HRV,HRV_0313,2022-11-30 22:30:32
,wl-rdm,123,309359,0.0-8.6-0.6,1.0,124.0,,,,,,,[],,,,,,56.4,1.0,i,1.0,True,956.9999998807907,58.0,61.0,40.0,False,,347.5686546413254,[],"[960, 540]",ColorTask,79.0,7.0,,,HRV,HRV_0313,2022-11-30 22:30:32
,wl-rdm,124,311669,0.0-8.7-0.7,1.0,125.0,,,,,,,[],,,,,,62.5,1.0,i,1.0,True,1000.6000000238419,61.0,61.0,40.0,False,,222.15535918435853,[],"[960, 540]",ColorTask,80.0,8.0,,,HRV,HRV_0313,2022-11-30 22:30:32
,wl-rdm,125,313962,0.0-8.8-0.8,1.0,126.0,,,,,,,[],,,,,,62.5,0.0,i,1.0,False,853.9999998807907,52.0,61.0,40.0,False,,354.3975815243547,[],"[960, 540]",ColorTask,79.0,9.0,,,HRV,HRV_0313,2022-11-30 22:30:32
,wl-rdm,126,316107,0.0-8.9-0.9,1.0,127.0,,,,,,,[],,,,,,56.4,1.0,i,1.0,True,786.7999999523163,48.0,61.0,40.0,False,,279.02391012855867,[],"[960, 540]",ColorTask,80.0,10.0,,,HRV,HRV_0313,2022-11-30 22:30:32
,wl-rdm,127,318235,0.0-8.10-0.10,1.0,128.0,,,,,,,[],,,,,,62.5,1.0,i,1.0,True,815.6999999284744,50.0,61.0,40.0,False,,222.67344809736602,[],"[960, 540]",ColorTask,81.0,11.0,,,HRV,HRV_0313,2022-11-30 22:30:32
,wl-rdm,128,320644,0.0-8.11-0.11,1.0,129.0,,,,,,,[],,,,,,53.2,0.0,u,0.0,True,991.0000001192093,60.0,61.0,40.0,False,,347.0204390753648,[],"[960, 540]",ColorTask,82.0,12.0,,,HRV,HRV_0313,2022-11-30 22:30:32
,wl-rdm,129,323022,0.0-8.12-0.12,1.0,130.0,,,,,,,[],,,,,,50.0,1.0,i,1.0,True,942.2999999523163,57.0,61.0,40.0,False,,356.7944303514229,[],"[960, 540]",ColorTask,83.0,13.0,,,HRV,HRV_0313,2022-11-30 22:30:32
,wl-rdm,130,325066,0.0-8.13-0.13,1.0,131.0,,,,,,,[],,,,,,73.6,1.0,i,1.0,True,602.3999999761581,37.0,61.0,40.0,False,,357.3553657225468,[],"[960, 540]",ColorTask,84.0,14.0,,,HRV,HRV_0313,2022-11-30 22:30:32
,wl-rdm,131,326911,0.0-8.14-0.14,1.0,132.0,,,,,,,[],,,,,,87.9,1.0,i,1.0,True,554.1999999284744,34.0,61.0,40.0,False,,203.5313118476918,[],"[960, 540]",ColorTask,85.0,15.0,,,HRV,HRV_0313,2022-11-30 22:30:32
,wl-rdm,132,328905,0.0-8.15-0.15,1.0,133.0,,,,,,,[],,,,,,56.4,0.0,u,0.0,True,608.7999999523163,37.0,61.0,40.0,False,,312.62064941740255,[],"[960, 540]",ColorTask,86.0,16.0,,,HRV,HRV_0313,2022-11-30 22:30:32
,wl-rdm,133,330949,0.0-8.16-0.16,1.0,134.0,,,,,,,[],,,,,,53.2,1.0,i,1.0,True,595.3000000715256,36.0,61.0,40.0,False,,372.67500623501076,[],"[960, 540]",ColorTask,87.0,17.0,,,HRV,HRV_0313,2022-11-30 22:30:32
,wl-rdm,134,332795,0.0-8.17-0.17,1.0,135.0,,,,,,,[],,,,,,87.9,0.0,u,0.0,True,546.1000000238419,33.0,61.0,40.0,False,,216.1401984419517,[],"[960, 540]",ColorTask,88.0,18.0,,,HRV,HRV_0313,2022-11-30 22:30:32
,wl-rdm,135,335487,0.0-8.18-0.18,1.0,136.0,,,,,,,[],,,,,,53.2,0.0,i,1.0,False,1279.0,77.0,61.0,40.0,False,,333.9564932421765,[],"[960, 540]",ColorTask,87.0,19.0,,,HRV,HRV_0313,2022-11-30 22:30:32
,wl-rdm,136,337533,0.0-8.19-0.19,1.0,137.0,,,,,,,[],,,,,,87.9,1.0,i,1.0,True,755.7000000476837,46.0,61.0,40.0,False,,202.54609967083815,[],"[960, 540]",ColorTask,88.0,20.0,,,HRV,HRV_0313,2022-11-30 22:30:32
,wl-rdm,137,339544,0.0-8.20-0.20,1.0,138.0,,,,,,,[],,,,,,87.9,0.0,u,0.0,True,632.8999999761581,39.0,61.0,40.0,False,,292.14530704963374,[],"[960, 540]",ColorTask,89.0,21.0,,,HRV,HRV_0313,2022-11-30 22:30:32
,wl-rdm,138,341539,0.0-8.21-0.21,1.0,139.0,,,,,,,[],,,,,,50.0,0.0,i,1.0,False,701.7999999523163,43.0,61.0,40.0,False,,214.20509363470666,[],"[960, 540]",ColorTask,88.0,22.0,,,HRV,HRV_0313,2022-11-30 22:30:32
,wl-rdm,139,343771,0.0-8.22-0.22,1.0,140.0,,,,,,,[],,,,,,50.0,1.0,u,0.0,False,930.1999999284744,56.0,61.0,40.0,False,,242.13600025771473,[],"[960, 540]",ColorTask,87.0,23.0,,,HRV,HRV_0313,2022-11-30 22:30:32
,wl-rdm,140,345810,0.0-8.23-0.23,1.0,141.0,,,,,,,[],,,,,,56.4,0.0,u,0.0,True,672.9000000953674,41.0,61.0,40.0,False,,284.04224047226546,[],"[960, 540]",ColorTask,88.0,24.0,,,HRV,HRV_0313,2022-11-30 22:30:32
,wl-rdm,141,348320,0.0-8.24-0.24,1.0,142.0,,,,,,,[],,,,,,53.2,1.0,i,1.0,True,1151.9000000953674,70.0,61.0,40.0,False,,279.828919854363,[],"[960, 540]",ColorTask,89.0,25.0,,,HRV,HRV_0313,2022-11-30 22:30:32
,wl-rdm,142,351028,0.0-8.25-0.25,1.0,143.0,,,,,,,[],,,,,,50.0,0.0,i,1.0,False,1398.2999999523163,85.0,61.0,40.0,False,,224.60756640751129,[],"[960, 540]",ColorTask,88.0,26.0,,,HRV,HRV_0313,2022-11-30 22:30:32
,wl-rdm,143,353356,0.0-8.26-0.26,1.0,144.0,,,,,,,[],,,,,,50.0,0.0,i,1.0,False,950.8000000715256,58.0,61.0,40.0,False,,290.27355393590847,[],"[960, 540]",ColorTask,87.0,27.0,,,HRV,HRV_0313,2022-11-30 22:30:32
,wl-rdm,144,355616,0.0-8.27-0.27,1.0,145.0,,,,,,,[],,,,,,56.4,0.0,i,1.0,False,876.7000000476837,53.0,61.0,40.0,False,,304.9483945396214,[],"[960, 540]",ColorTask,86.0,28.0,,,HRV,HRV_0313,2022-11-30 22:30:32
,wl-rdm,145,357860,0.0-8.28-0.28,1.0,146.0,,,,,,,[],,,,,,62.5,0.0,u,0.0,True,872.6000000238419,53.0,61.0,40.0,False,,292.41222872740303,[],"[960, 540]",ColorTask,87.0,29.0,,,HRV,HRV_0313,2022-11-30 22:30:32
,wl-rdm,146,360668,0.0-8.29-0.29,1.0,147.0,,,,,,,[],,,,,,53.2,0.0,i,1.0,False,1348.8999999761581,82.0,61.0,40.0,False,,369.6750535585578,[],"[960, 540]",ColorTask,86.0,30.0,,,HRV,HRV_0313,2022-11-30 22:30:32
,wl-rdm,147,363163,0.0-8.30-0.30,1.0,148.0,,,,,,,[],,,,,,53.2,1.0,i,1.0,True,1093.2000000476837,66.0,61.0,40.0,False,,322.4526586092648,[],"[960, 540]",ColorTask,87.0,31.0,,,HRV,HRV_0313,2022-11-30 22:30:32
,wl-rdm,148,365307,0.0-8.31-0.31,1.0,149.0,,,,,,,[],,,,,,73.6,0.0,u,0.0,True,739.0,45.0,61.0,40.0,False,,320.9444864484251,[],"[960, 540]",ColorTask,88.0,32.0,,,HRV,HRV_0313,2022-11-30 22:30:32
,wl-rdm,149,367451,0.0-8.32-0.32,1.0,150.0,,,,,,,[],,,,,,73.6,1.0,i,1.0,True,733.5,45.0,61.0,40.0,False,,322.8852015197946,[],"[960, 540]",ColorTask,89.0,33.0,,,HRV,HRV_0313,2022-11-30 22:30:32
,wl-rdm,150,369712,0.0-8.33-0.33,1.0,151.0,,,,,,,[],,,,,,62.5,0.0,u,0.0,True,865.7999999523163,53.0,61.0,40.0,False,,311.92956458129333,[],"[960, 540]",ColorTask,90.0,34.0,,,HRV,HRV_0313,2022-11-30 22:30:32
,wl-rdm,151,371888,0.0-8.34-0.34,1.0,152.0,,,,,,,[],,,,,,50.0,1.0,u,0.0,False,792.3999999761581,48.0,61.0,40.0,False,,311.0283776832952,[],"[960, 540]",ColorTask,89.0,35.0,,,HRV,HRV_0313,2022-11-30 22:30:32
,wl-rdm,152,374149,0.0-8.35-0.35,1.0,153.0,,,,,,,[],,,,,,56.4,1.0,u,0.0,False,885.6000000238419,54.0,61.0,40.0,False,,289.0896454043822,[],"[960, 540]",ColorTask,88.0,36.0,,,HRV,HRV_0313,2022-11-30 22:30:32
,wl-rdm,153,376144,0.0-8.36-0.36,1.0,154.0,,,,,,,[],,,,,,87.9,0.0,u,0.0,True,711.2000000476837,43.0,61.0,40.0,False,,210.08764407096302,[],"[960, 540]",ColorTask,89.0,37.0,,,HRV,HRV_0313,2022-11-30 22:30:32
,wl-rdm,154,378172,0.0-8.37-0.37,1.0,155.0,,,,,,,[],,,,,,87.9,0.0,i,1.0,False,666.5,41.0,61.0,40.0,False,,269.2146163067713,[],"[960, 540]",ColorTask,88.0,38.0,,,HRV,HRV_0313,2022-11-30 22:30:32
,wl-rdm,155,380348,0.0-8.38-0.38,1.0,156.0,,,,,,,[],,,,,,73.6,1.0,i,1.0,True,858.7000000476837,52.0,61.0,40.0,False,,244.18426780127672,[],"[960, 540]",ColorTask,89.0,39.0,,,HRV,HRV_0313,2022-11-30 22:30:32
,wl-rdm,156,382492,0.0-8.39-0.39,1.0,157.0,,,,,,,[],,,,,,62.5,0.0,u,0.0,True,683.0999999046326,42.0,61.0,40.0,False,,374.56309380242493,[],"[960, 540]",ColorTask,90.0,40.0,,,HRV,HRV_0313,2022-11-30 22:30:32
,wl-rdm,157,384670,0.0-8.40-0.40,1.0,158.0,,,,,,,[],,,,,,50.0,1.0,i,1.0,True,838.2000000476837,51.0,61.0,40.0,False,,262.4460802981722,[],"[960, 540]",ColorTask,91.0,41.0,,,HRV,HRV_0313,2022-11-30 22:30:32
,wl-rdm,158,386698,0.0-8.41-0.41,1.0,159.0,,,,,,,[],,,,,,87.9,0.0,i,1.0,False,641.3000000715256,39.0,61.0,40.0,False,,304.48328614266984,[],"[960, 540]",ColorTask,90.0,42.0,,,HRV,HRV_0313,2022-11-30 22:30:32
,wl-rdm,159,389441,0.0-8.42-0.42,1.0,160.0,,,,,,,[],,,,,,53.2,1.0,u,0.0,False,1417.2999999523163,86.0,61.0,40.0,False,,243.09938294218114,[],"[960, 540]",ColorTask,89.0,43.0,,,HRV,HRV_0313,2022-11-30 22:30:32
,wl-rdm,160,391700,0.0-8.43-0.43,1.0,161.0,,,,,,,[],,,,,,53.2,0.0,i,1.0,False,887.7999999523163,54.0,61.0,40.0,False,,292.1320270770453,[],"[960, 540]",ColorTask,88.0,44.0,,,HRV,HRV_0313,2022-11-30 22:30:32
,wl-rdm,161,394227,0.0-8.44-0.44,1.0,162.0,,,,,,,[],,,,,,56.4,0.0,u,0.0,True,1223.6000000238419,74.0,61.0,40.0,False,,228.67211024895172,[],"[960, 540]",ColorTask,89.0,45.0,,,HRV,HRV_0313,2022-11-30 22:30:32
,wl-rdm,162,396305,0.0-8.45-0.45,1.0,163.0,,,,,,,[],,,,,,56.4,1.0,i,1.0,True,785.2999999523163,48.0,61.0,40.0,False,,204.80143232807444,[],"[960, 540]",ColorTask,90.0,46.0,,,HRV,HRV_0313,2022-11-30 22:30:32
,wl-rdm,163,398582,0.0-8.46-0.46,1.0,164.0,,,,,,,[],,,,,,53.2,0.0,u,0.0,True,870.5,53.0,61.0,40.0,False,,329.3937125470585,[],"[960, 540]",ColorTask,91.0,47.0,,,HRV,HRV_0313,2022-11-30 22:30:32
,wl-rdm,164,401009,0.0-8.47-0.47,1.0,165.0,,,,,,,[],,,,,,73.6,1.0,i,1.0,True,996.5999999046326,60.0,61.0,40.0,False,,358.80689790428085,[],"[960, 540]",ColorTask,92.0,48.0,,,HRV,HRV_0313,2022-11-30 22:30:32
,wl-rdm,165,403036,0.0-8.48-0.48,1.0,166.0,,,,,,,[],,,,,,73.6,0.0,u,0.0,True,741.1999999284744,45.0,61.0,40.0,False,,207.18830099678263,[],"[960, 540]",ColorTask,93.0,49.0,,,HRV,HRV_0313,2022-11-30 22:30:32
,wl-rdm,166,405629,0.0-8.49-0.49,1.0,167.0,,,,,,,[],,,,,,50.0,1.0,u,0.0,False,1138.7999999523163,69.0,61.0,40.0,False,,367.1046597607759,[],"[960, 540]",ColorTask,92.0,50.0,,,HRV,HRV_0313,2022-11-30 22:30:32
,wl-rdm,167,407757,0.0-8.50-0.50,1.0,168.0,,,,,,,[],,,,,,62.5,1.0,i,1.0,True,833.5,51.0,61.0,40.0,False,,206.70027235932014,[],"[960, 540]",ColorTask,93.0,51.0,,,HRV,HRV_0313,2022-11-30 22:30:32
,wl-rdm,168,410068,0.0-8.51-0.51,1.0,169.0,,,,,,,[],,,,,,53.2,1.0,i,1.0,True,995.1999999284744,59.0,61.0,40.0,False,,239.67761633213578,[],"[960, 540]",ColorTask,94.0,52.0,,,HRV,HRV_0313,2022-11-30 22:30:32
,wl-rdm,169,412211,0.0-8.52-0.52,1.0,170.0,,,,,,,[],,,,,,56.4,1.0,u,0.0,False,726.8999999761581,43.0,61.0,40.0,False,,356.77753674926487,[],"[960, 540]",ColorTask,93.0,53.0,,,HRV,HRV_0313,2022-11-30 22:30:32
,wl-rdm,170,414289,0.0-8.53-0.53,1.0,171.0,,,,,,,[],,,,,,87.9,1.0,i,1.0,True,755.8999999761581,46.0,61.0,40.0,False,,244.74667218222064,[],"[960, 540]",ColorTask,94.0,54.0,,,HRV,HRV_0313,2022-11-30 22:30:32
,wl-rdm,171,416583,0.0-8.54-0.54,1.0,172.0,,,,,,,[],,,,,,62.5,1.0,i,1.0,True,1006.7000000476837,61.0,61.0,40.0,False,,200.15027305868023,[],"[960, 540]",ColorTask,95.0,55.0,,,HRV,HRV_0313,2022-11-30 22:30:32
,wl-rdm,172,418661,0.0-8.55-0.55,1.0,173.0,,,,,,,[],,,,,,73.6,0.0,u,0.0,True,701.1999999284744,43.0,61.0,40.0,False,,292.4055646943629,[],"[960, 540]",ColorTask,96.0,56.0,,,HRV,HRV_0313,2022-11-30 22:30:32
,wl-rdm,173,420539,0.0-8.56-0.56,1.0,174.0,,,,,,,[],,,,,,87.9,0.0,u,0.0,True,531.8999999761581,32.0,61.0,40.0,False,,258.9418789515997,[],"[960, 540]",ColorTask,97.0,57.0,,,HRV,HRV_0313,2022-11-30 22:30:32
,wl-rdm,174,422550,0.0-8.57-0.57,1.0,175.0,,,,,,,[],,,,,,73.6,0.0,u,0.0,True,666.2999999523163,41.0,61.0,40.0,False,,251.11227642683937,[],"[960, 540]",ColorTask,98.0,58.0,,,HRV,HRV_0313,2022-11-30 22:30:32
,wl-rdm,175,424678,0.0-8.58-0.58,1.0,176.0,,,,,,,[],,,,,,56.4,0.0,i,1.0,False,828.3000000715256,50.0,61.0,40.0,False,,220.9783610360181,[],"[960, 540]",ColorTask,97.0,59.0,,,HRV,HRV_0313,2022-11-30 22:30:32
,wl-rdm,176,426589,0.0-8.59-0.59,1.0,177.0,,,,,,,[],,,,,,87.9,0.0,u,0.0,True,514.6999999284744,31.0,61.0,40.0,False,,320.17710952053017,[],"[960, 540]",ColorTask,98.0,60.0,,,HRV,HRV_0313,2022-11-30 22:30:32
,wl-rdm,177,429348,0.0-8.60-0.60,1.0,178.0,,,,,,,[],,,,,,53.2,1.0,i,1.0,True,1351.8999998569489,82.0,61.0,40.0,False,,317.2355450639351,[],"[960, 540]",ColorTask,99.0,61.0,,,HRV,HRV_0313,2022-11-30 22:30:32
,wl-rdm,178,431642,0.0-8.61-0.61,1.0,179.0,,,,,,,[],,,,,,53.2,1.0,u,0.0,False,819.7000000476837,50.0,61.0,40.0,False,,384.0099709653624,[],"[960, 540]",ColorTask,98.0,62.0,,,HRV,HRV_0313,2022-11-30 22:30:32
,wl-rdm,179,433654,0.0-8.62-0.62,1.0,180.0,,,,,,,[],,,,,,53.2,0.0,u,0.0,True,725.6999999284744,44.0,61.0,40.0,False,,201.8063815843668,[],"[960, 540]",ColorTask,99.0,63.0,,,HRV,HRV_0313,2022-11-30 22:30:32
,wl-rdm,180,435797,0.0-8.63-0.63,1.0,181.0,,,,,,,[],,,,,,73.6,1.0,i,1.0,True,691.5,42.0,61.0,40.0,False,,368.45905093441246,[],"[960, 540]",ColorTask,100.0,64.0,,,HRV,HRV_0313,2022-11-30 22:30:32
,wl-rdm,181,437825,0.0-8.64-0.64,1.0,182.0,,,,,,,[],,,,,,73.6,0.0,u,0.0,True,689.8000000715256,42.0,61.0,40.0,False,,277.3586220795162,[],"[960, 540]",ColorTask,101.0,65.0,,,HRV,HRV_0313,2022-11-30 22:30:32
,wl-rdm,182,440020,0.0-8.65-0.65,1.0,183.0,,,,,,,[],,,,,,73.6,0.0,u,0.0,True,859.8999999761581,52.0,61.0,40.0,False,,254.96066737487521,[],"[960, 540]",ColorTask,102.0,66.0,,,HRV,HRV_0313,2022-11-30 22:30:32
,wl-rdm,183,441998,0.0-8.66-0.66,1.0,184.0,,,,,,,[],,,,,,73.6,0.0,u,0.0,True,645.3000000715256,39.0,61.0,40.0,False,,256.0011941681317,[],"[960, 540]",ColorTask,103.0,67.0,,,HRV,HRV_0313,2022-11-30 22:30:32
,wl-rdm,184,444209,0.0-8.67-0.67,1.0,185.0,,,,,,,[],,,,,,50.0,0.0,i,1.0,False,896.5,54.0,61.0,40.0,False,,244.80845795318896,[],"[960, 540]",ColorTask,102.0,68.0,,,HRV,HRV_0313,2022-11-30 22:30:32
,wl-rdm,185,446137,0.0-8.68-0.68,1.0,186.0,,,,,,,[],,,,,,73.6,1.0,i,1.0,True,645.8999999761581,39.0,61.0,40.0,False,,210.39319175369374,[],"[960, 540]",ColorTask,103.0,69.0,,,HRV,HRV_0313,2022-11-30 22:30:32
,wl-rdm,186,448297,0.0-8.69-0.69,1.0,187.0,,,,,,,[],,,,,,50.0,1.0,i,1.0,True,764.2000000476837,46.0,61.0,40.0,False,,326.9497797590775,[],"[960, 540]",ColorTask,104.0,70.0,,,HRV,HRV_0313,2022-11-30 22:30:32
,wl-rdm,187,450607,0.0-8.70-0.70,1.0,188.0,,,,,,,[],,,,,,56.4,1.0,i,1.0,True,1003.2999999523163,61.0,61.0,40.0,False,,224.40331353495915,[],"[960, 540]",ColorTask,105.0,71.0,,,HRV,HRV_0313,2022-11-30 22:30:32
,wl-rdm,188,452518,0.0-8.71-0.71,1.0,189.0,,,,,,,[],,,,,,73.6,1.0,i,1.0,True,606.1999999284744,37.0,61.0,40.0,False,,230.64988562898603,[],"[960, 540]",ColorTask,106.0,72.0,,,HRV,HRV_0313,2022-11-30 22:30:32
,wl-rdm,189,455029,0.0-8.72-0.72,1.0,190.0,,,,,,,[],,,,,,50.0,0.0,u,0.0,True,1116.8999999761581,68.0,61.0,40.0,False,,304.22785571697983,[],"[960, 540]",ColorTask,107.0,73.0,,,HRV,HRV_0313,2022-11-30 22:30:32
,wl-rdm,190,457588,0.0-8.73-0.73,1.0,191.0,,,,,,,[],,,,,,53.2,1.0,u,0.0,False,1082.3000000715256,66.0,61.0,40.0,False,,396.8914967090497,[],"[960, 540]",ColorTask,106.0,74.0,,,HRV,HRV_0313,2022-11-30 22:30:32
,wl-rdm,191,459716,0.0-8.74-0.74,1.0,192.0,,,,,,,[],,,,,,62.5,1.0,i,1.0,True,736.9999998807907,45.0,61.0,40.0,False,,300.2993490389457,[],"[960, 540]",ColorTask,107.0,75.0,,,HRV,HRV_0313,2022-11-30 22:30:32
,wl-rdm,192,461926,0.0-8.75-0.75,1.0,193.0,,,,,,,[],,,,,,62.5,1.0,i,1.0,True,738.8000000715256,45.0,61.0,40.0,False,,398.22798847716444,[],"[960, 540]",ColorTask,108.0,76.0,,,HRV,HRV_0313,2022-11-30 22:30:32
,wl-rdm,193,464652,0.0-8.76-0.76,1.0,194.0,,,,,,,[],,,,,,50.0,1.0,u,0.0,False,1399.5,85.0,61.0,40.0,False,,258.4817112718908,[],"[960, 540]",ColorTask,107.0,77.0,,,HRV,HRV_0313,2022-11-30 22:30:32
,wl-rdm,194,466730,0.0-8.77-0.77,1.0,195.0,,,,,,,[],,,,,,53.2,0.0,i,1.0,False,778.1999999284744,47.0,61.0,40.0,False,,225.42536989343745,[],"[960, 540]",ColorTask,106.0,78.0,,,HRV,HRV_0313,2022-11-30 22:30:32
,wl-rdm,195,469140,0.0-8.78-0.78,1.0,196.0,,,,,,,[],,,,,,50.0,0.0,u,0.0,True,1034.0,63.0,61.0,40.0,False,,291.37388577329943,[],"[960, 540]",ColorTask,107.0,79.0,,,HRV,HRV_0313,2022-11-30 22:30:32
,wl-rdm,196,471251,0.0-8.79-0.79,1.0,197.0,,,,,,,[],,,,,,73.6,1.0,i,1.0,True,759.0000001192093,46.0,61.0,40.0,False,,267.97534874943733,[],"[960, 540]",ColorTask,108.0,80.0,,,HRV,HRV_0313,2022-11-30 22:30:32
,wl-rdm,197,473262,0.0-8.80-0.80,1.0,198.0,,,,,,,[],,,,,,62.5,1.0,i,1.0,True,669.2999999523163,41.0,61.0,40.0,False,,251.71344149810974,[],"[960, 540]",ColorTask,109.0,81.0,,,HRV,HRV_0313,2022-11-30 22:30:32
,wl-rdm,198,475655,0.0-8.81-0.81,1.0,199.0,,,,,,,[],,,,,,56.4,1.0,i,1.0,True,955.4999998807907,57.0,61.0,40.0,False,,374.3184144993363,[],"[960, 540]",ColorTask,110.0,82.0,,,HRV,HRV_0313,2022-11-30 22:30:32
,wl-rdm,199,477666,0.0-8.82-0.82,1.0,200.0,,,,,,,[],,,,,,56.4,0.0,u,0.0,True,687.6999999284744,42.0,61.0,40.0,False,,257.8666331265664,[],"[960, 540]",ColorTask,111.0,83.0,,,HRV,HRV_0313,2022-11-30 22:30:32
,wl-rdm,200,479661,0.0-8.83-0.83,1.0,201.0,,,,,,,[],,,,,,62.5,0.0,u,0.0,True,642.8999999761581,39.0,61.0,40.0,False,,268.30309508792584,[],"[960, 540]",ColorTask,112.0,84.0,,,HRV,HRV_0313,2022-11-30 22:30:32
,wl-rdm,201,481672,0.0-8.84-0.84,1.0,202.0,,,,,,,[],,,,,,87.9,0.0,u,0.0,True,585.6000000238419,36.0,61.0,40.0,False,,336.9531969694521,[],"[960, 540]",ColorTask,113.0,85.0,,,HRV,HRV_0313,2022-11-30 22:30:32
,wl-rdm,202,483850,0.0-8.85-0.85,1.0,203.0,,,,,,,[],,,,,,56.4,0.0,u,0.0,True,795.1999999284744,48.0,61.0,40.0,False,,312.7337681161601,[],"[960, 540]",ColorTask,114.0,86.0,,,HRV,HRV_0313,2022-11-30 22:30:32
,wl-rdm,203,485977,0.0-8.86-0.86,1.0,204.0,,,,,,,[],,,,,,62.5,0.0,i,1.0,False,702.8000000715256,43.0,61.0,40.0,False,,343.031256940603,[],"[960, 540]",ColorTask,113.0,87.0,,,HRV,HRV_0313,2022-11-30 22:30:32
,wl-rdm,204,488171,0.0-8.87-0.87,1.0,205.0,,,,,,,[],,,,,,87.9,1.0,i,1.0,True,824.8000000715256,50.0,61.0,40.0,False,,284.25072531634214,[],"[960, 540]",ColorTask,114.0,88.0,,,HRV,HRV_0313,2022-11-30 22:30:32
,wl-rdm,205,490415,0.0-8.88-0.88,1.0,206.0,,,,,,,[],,,,,,50.0,1.0,i,1.0,True,956.5,58.0,61.0,40.0,False,,212.50115078131864,[],"[960, 540]",ColorTask,115.0,89.0,,,HRV,HRV_0313,2022-11-30 22:30:32
,wl-rdm,206,492974,0.0-8.89-0.89,1.0,207.0,,,,,,,[],,,,,,62.5,0.0,u,0.0,True,1084.1999999284744,66.0,61.0,40.0,False,,387.56421565238935,[],"[960, 540]",ColorTask,116.0,90.0,,,HRV,HRV_0313,2022-11-30 22:30:32
,wl-rdm,207,495202,0.0-8.90-0.90,1.0,208.0,,,,,,,[],,,,,,87.9,1.0,i,1.0,True,892.1000000238419,54.0,61.0,40.0,False,,265.4016606293386,[],"[960, 540]",ColorTask,117.0,91.0,,,HRV,HRV_0313,2022-11-30 22:30:32
,wl-rdm,208,496964,0.0-8.91-0.91,1.0,209.0,,,,,,,[],,,,,,87.9,1.0,i,1.0,True,471.2999999523163,29.0,61.0,40.0,False,,214.2764652337704,[],"[960, 540]",ColorTask,118.0,92.0,,,HRV,HRV_0313,2022-11-30 22:30:32
,wl-rdm,209,499058,0.0-8.92-0.92,1.0,210.0,,,,,,,[],,,,,,56.4,1.0,i,1.0,True,625.0,38.0,61.0,40.0,False,,384.30044662058066,[],"[960, 540]",ColorTask,119.0,93.0,,,HRV,HRV_0313,2022-11-30 22:30:32
,wl-rdm,210,501019,0.0-8.93-0.93,1.0,211.0,,,,,,,[],,,,,,50.0,0.0,i,1.0,False,554.3000000715256,34.0,61.0,40.0,False,,328.64819607184563,[],"[960, 540]",ColorTask,118.0,94.0,,,HRV,HRV_0313,2022-11-30 22:30:32
,wl-rdm,211,503379,0.0-8.94-0.94,1.0,212.0,,,,,,,[],,,,,,56.4,0.0,u,0.0,True,1070.1000000238419,65.0,61.0,40.0,False,,214.64699358434294,[],"[960, 540]",ColorTask,119.0,95.0,,,HRV,HRV_0313,2022-11-30 22:30:32
,wl-rdm,212,505441,0.0-8.95-0.95,1.0,213.0,,,,,,,[],,,,,,56.4,0.0,i,1.0,False,642.8000000715256,39.0,61.0,40.0,False,,345.94827893073534,[],"[960, 540]",ColorTask,118.0,96.0,,,HRV,HRV_0313,2022-11-30 22:30:32
,wl-rdm,213,507435,0.0-8.96-0.96,1.0,214.0,,,,,,,[],,,,,,50.0,1.0,i,1.0,True,547.6000000238419,33.0,61.0,40.0,False,,376.7539918613467,[],"[960, 540]",ColorTask,119.0,97.0,,,HRV,HRV_0313,2022-11-30 22:30:32
,wl-rdm,214,509597,0.0-8.97-0.97,1.0,215.0,,,,,,,[],,,,,,87.9,0.0,u,0.0,True,690.1999999284744,41.0,61.0,40.0,False,,394.4111351506345,[],"[960, 540]",ColorTask,120.0,98.0,,,HRV,HRV_0313,2022-11-30 22:30:32
,wl-rdm,215,512173,0.0-8.98-0.98,1.0,216.0,,,,,,,[],,,,,,53.2,0.0,u,0.0,True,1135.3999999761581,69.0,61.0,40.0,False,,357.15366893949977,[],"[960, 540]",ColorTask,121.0,99.0,,,HRV,HRV_0313,2022-11-30 22:30:32
,wl-rdm,216,514017,0.0-8.99-0.99,1.0,217.0,,,,,,,[],,,,,,87.9,1.0,i,1.0,True,562.5,34.0,61.0,40.0,False,,200.54484220487214,[],"[960, 540]",ColorTask,122.0,100.0,,,HRV,HRV_0313,2022-11-30 22:30:32
,wl-rdm,217,516344,0.0-8.100-0.100,1.0,218.0,,,,,,,[],,,,,,53.2,0.0,i,1.0,False,984.3000000715256,60.0,61.0,40.0,False,,263.05953253598454,[],"[960, 540]",ColorTask,121.0,101.0,,,HRV,HRV_0313,2022-11-30 22:30:32
,wl-rdm,218,518505,0.0-8.101-0.101,1.0,219.0,,,,,,,[],,,,,,62.5,1.0,i,1.0,True,819.2000000476837,50.0,61.0,40.0,False,,265.4859526947048,[],"[960, 540]",ColorTask,122.0,102.0,,,HRV,HRV_0313,2022-11-30 22:30:32
,wl-rdm,219,520383,0.0-8.102-0.102,1.0,220.0,,,,,,,[],,,,,,87.9,1.0,i,1.0,True,591.6999999284744,36.0,61.0,40.0,False,,212.92213379787455,[],"[960, 540]",ColorTask,123.0,103.0,,,HRV,HRV_0313,2022-11-30 22:30:32
,wl-rdm,220,522594,0.0-8.103-0.103,1.0,221.0,,,,,,,[],,,,,,56.4,1.0,u,0.0,False,800.3999999761581,49.0,61.0,40.0,False,,323.5679361479321,[],"[960, 540]",ColorTask,122.0,104.0,,,HRV,HRV_0313,2022-11-30 22:30:32
,wl-rdm,221,524571,0.0-8.104-0.104,1.0,222.0,,,,,,,[],,,,,,73.6,1.0,i,1.0,True,587.5,36.0,61.0,40.0,False,,311.04135042372457,[],"[960, 540]",ColorTask,123.0,105.0,,,HRV,HRV_0313,2022-11-30 22:30:32
,wl-rdm,222,526799,0.0-8.105-0.105,1.0,223.0,,,,,,,[],,,,,,50.0,0.0,u,0.0,True,929.3999999761581,56.0,61.0,40.0,False,,224.8559680393025,[],"[960, 540]",ColorTask,124.0,106.0,,,HRV,HRV_0313,2022-11-30 22:30:32
,wl-rdm,223,529093,0.0-8.106-0.106,1.0,224.0,,,,,,,[],,,,,,62.5,0.0,i,1.0,False,877.3000000715256,53.0,61.0,40.0,False,,343.47001796905084,[],"[960, 540]",ColorTask,123.0,107.0,,,HRV,HRV_0313,2022-11-30 22:30:32
,wl-rdm,224,531071,0.0-8.107-0.107,1.0,225.0,,,,,,,[],,,,,,87.9,1.0,i,1.0,True,620.5999999046326,38.0,61.0,40.0,False,,276.0688240702605,[],"[960, 540]",ColorTask,124.0,108.0,,,HRV,HRV_0313,2022-11-30 22:30:32
,wl-html-button-response,225,532262,0.0-9.0-0.0,,,,,,,,,,1178.0,,0,,,,,,,,,,,,,,,,,,,,<h3>End of this session. Thank you!</h3><br>,['Close window'],HRV,HRV_0313,2022-11-30 22:30:32
