trialN,stimuli,trialStartTime,trialStartTime_UNIX,stimulus1,stimulus2,stimulus1Bid,stimulus2Bid,delta,selected,rt,rt_UNIX,rt_perfnow,receivedResponse,rsp,trialEndTime,trialDuration,trialEndTime_UNIX,trialDuration_UNIX,exp,subjectId,date
0,"[{'imgObject': {}, 'id': 'blackbeanswithrice', 'src': '/static/foodstim60/blackbeanswithrice.jpg', 'key': 'u', 'origWidth': 410, 'origHeight': 410, 'width': 410, 'height': 410, 'widthPercent': 0.45, 'rescaleHeight': False, 'trialN': 0, 'loaded': True, 'loadedTime': 2497.6999999284744, 'positionName': 'LEFT', 'positionCoords': [511.6, 335], 'bid': 3.76}, {'imgObject': {}, 'id': 'lox', 'src': '/static/foodstim60/lox.jpg', 'key': 'i', 'origWidth': 410, 'origHeight': 411, 'width': 410, 'height': 411, 'widthPercent': 0.45, 'rescaleHeight': False, 'trialN': 0, 'loaded': True, 'loadedTime': 2503.899999976158, 'positionName': 'RIGHT', 'positionCoords': [998.4, 334.5], 'bid': 0.08}]",4075.1999999284744,1669846580134,blackbeanswithrice,lox,3.76,0.08,-3.6799999999999997,blackbeanswithrice,1822.3000000715256,1830,1830.7000000476837,True,u,6413.399999976158,2338.2000000476837,1669846582472,2338,HRV,HRV_0313,2022-11-30 22:21:35
1,"[{'imgObject': {}, 'id': 'burrito', 'src': '/static/foodstim60/burrito.jpg', 'key': 'u', 'origWidth': 410, 'origHeight': 410, 'width': 410, 'height': 410, 'widthPercent': 0.45, 'rescaleHeight': False, 'trialN': 1, 'loaded': True, 'loadedTime': 2537.899999976158, 'positionName': 'LEFT', 'positionCoords': [511.6, 335], 'bid': 7.63}, {'imgObject': {}, 'id': 'yogurt no spoon', 'src': '/static/foodstim60/yogurt no spoon.jpg', 'key': 'i', 'origWidth': 411, 'origHeight': 410, 'width': 411, 'height': 410, 'widthPercent': 0.45, 'rescaleHeight': False, 'trialN': 1, 'loaded': True, 'loadedTime': 2553.5999999046326, 'positionName': 'RIGHT', 'positionCoords': [998.4, 335], 'bid': 7.75}]",6413.699999928474,1669846582472,burrito,yogurt no spoon,7.63,7.75,0.1200000000000001,burrito,1375.0,1376,1375.3999999761581,True,u,8292.299999952316,1878.6000000238419,1669846584351,1879,HRV,HRV_0313,2022-11-30 22:21:35
2,"[{'imgObject': {}, 'id': 'hotdog w must', 'src': '/static/foodstim60/hotdog w must.jpg', 'key': 'u', 'origWidth': 409, 'origHeight': 409, 'width': 409, 'height': 409, 'widthPercent': 0.45, 'rescaleHeight': False, 'trialN': 2, 'loaded': True, 'loadedTime': 2555.399999976158, 'positionName': 'LEFT', 'positionCoords': [512.6, 335.5], 'bid': 2.91}, {'imgObject': {}, 'id': 'burger', 'src': '/static/foodstim60/burger.jpg', 'key': 'i', 'origWidth': 409, 'origHeight': 409, 'width': 409, 'height': 409, 'widthPercent': 0.45, 'rescaleHeight': False, 'trialN': 2, 'loaded': True, 'loadedTime': 2555.899999976158, 'positionName': 'RIGHT', 'positionCoords': [998.4, 335.5], 'bid': 5.69}]",8292.599999904633,1669846584351,hotdog w must,burger,2.91,5.69,2.7800000000000002,burger,869.4000000953674,870,870.1000000238419,True,i,9669.5,1376.9000000953674,1669846585728,1377,HRV,HRV_0313,2022-11-30 22:21:35
3,"[{'imgObject': {}, 'id': 'veggieswithdip', 'src': '/static/foodstim60/veggieswithdip.jpg', 'key': 'u', 'origWidth': 409, 'origHeight': 409, 'width': 409, 'height': 409, 'widthPercent': 0.45, 'rescaleHeight': False, 'trialN': 3, 'loaded': True, 'loadedTime': 2559.899999976158, 'positionName': 'LEFT', 'positionCoords': [512.6, 335.5], 'bid': 5.03}, {'imgObject': {}, 'id': 'olives', 'src': '/static/foodstim60/olives.jpg', 'key': 'i', 'origWidth': 410, 'origHeight': 410, 'width': 410, 'height': 410, 'widthPercent': 0.45, 'rescaleHeight': False, 'trialN': 3, 'loaded': True, 'loadedTime': 2563.2999999523163, 'positionName': 'RIGHT', 'positionCoords': [998.4, 335], 'bid': 0.5}]",9670.0,1669846585729,veggieswithdip,olives,5.03,0.5,-4.53,veggieswithdip,1087.2999999523163,1087,1087.5999999046326,True,u,11260.799999952316,1590.7999999523163,1669846587319,1590,HRV,HRV_0313,2022-11-30 22:21:35
4,"[{'imgObject': {}, 'id': 'pear', 'src': '/static/foodstim60/pear.jpg', 'key': 'u', 'origWidth': 411, 'origHeight': 410, 'width': 411, 'height': 410, 'widthPercent': 0.45, 'rescaleHeight': False, 'trialN': 4, 'loaded': True, 'loadedTime': 2576.0999999046326, 'positionName': 'LEFT', 'positionCoords': [510.6, 335], 'bid': 3.96}, {'imgObject': {}, 'id': 'steak', 'src': '/static/foodstim60/steak.jpg', 'key': 'i', 'origWidth': 410, 'origHeight': 410, 'width': 410, 'height': 410, 'widthPercent': 0.45, 'rescaleHeight': False, 'trialN': 4, 'loaded': True, 'loadedTime': 2703.2999999523163, 'positionName': 'RIGHT', 'positionCoords': [998.4, 335], 'bid': 5}]",11261.099999904633,1669846587320,pear,steak,3.96,5.0,1.04,steak,1249.8000000715256,1250,1250.2000000476837,True,i,13013.299999952316,1752.2000000476837,1669846589072,1752,HRV,HRV_0313,2022-11-30 22:21:35
5,"[{'imgObject': {}, 'id': 'mango', 'src': '/static/foodstim60/mango.jpg', 'key': 'u', 'origWidth': 411, 'origHeight': 411, 'width': 411, 'height': 411, 'widthPercent': 0.45, 'rescaleHeight': False, 'trialN': 5, 'loaded': True, 'loadedTime': 2713.399999976158, 'positionName': 'LEFT', 'positionCoords': [510.6, 334.5], 'bid': 4.94}, {'imgObject': {}, 'id': 'burger', 'src': '/static/foodstim60/burger.jpg', 'key': 'i', 'origWidth': 409, 'origHeight': 409, 'width': 409, 'height': 409, 'widthPercent': 0.45, 'rescaleHeight': False, 'trialN': 5, 'loaded': True, 'loadedTime': 2557.7999999523163, 'positionName': 'RIGHT', 'positionCoords': [998.4, 335.5], 'bid': 5.69}]",13013.5,1669846589072,mango,burger,4.94,5.69,0.75,burger,1208.1999999284744,1209,1208.8999999761581,True,i,14725.599999904633,1712.0999999046326,1669846590784,1712,HRV,HRV_0313,2022-11-30 22:21:35
6,"[{'imgObject': {}, 'id': 'salad w chicken', 'src': '/static/foodstim60/salad w chicken.jpg', 'key': 'u', 'origWidth': 411, 'origHeight': 411, 'width': 411, 'height': 411, 'widthPercent': 0.45, 'rescaleHeight': False, 'trialN': 6, 'loaded': True, 'loadedTime': 2793.2999999523163, 'positionName': 'LEFT', 'positionCoords': [510.6, 334.5], 'bid': 9.79}, {'imgObject': {}, 'id': 'sushi w_condiments', 'src': '/static/foodstim60/sushi w_condiments.jpg', 'key': 'i', 'origWidth': 410, 'origHeight': 410, 'width': 410, 'height': 410, 'widthPercent': 0.45, 'rescaleHeight': False, 'trialN': 6, 'loaded': True, 'loadedTime': 2860.2999999523163, 'positionName': 'RIGHT', 'positionCoords': [998.4, 335], 'bid': 9.93}]",14725.799999952316,1669846590784,salad w chicken,sushi w_condiments,9.79,9.93,0.14000000000000057,sushi w_condiments,1936.5,1937,1936.8999999761581,True,i,17164.199999928474,2438.399999976158,1669846593223,2439,HRV,HRV_0313,2022-11-30 22:21:35
7,"[{'imgObject': {}, 'id': 'sweetpotato', 'src': '/static/foodstim60/sweetpotato.jpg', 'key': 'u', 'origWidth': 410, 'origHeight': 410, 'width': 410, 'height': 410, 'widthPercent': 0.45, 'rescaleHeight': False, 'trialN': 7, 'loaded': True, 'loadedTime': 2863.899999976158, 'positionName': 'LEFT', 'positionCoords': [511.6, 335], 'bid': 3.46}, {'imgObject': {}, 'id': 'apple slices', 'src': '/static/foodstim60/apple slices.jpg', 'key': 'i', 'origWidth': 409, 'origHeight': 410, 'width': 409, 'height': 410, 'widthPercent': 0.45, 'rescaleHeight': False, 'trialN': 7, 'loaded': True, 'loadedTime': 3085.2999999523163, 'positionName': 'RIGHT', 'positionCoords': [998.4, 335], 'bid': 5.91}]",17164.399999976158,1669846593223,sweetpotato,apple slices,3.46,5.91,2.45,apple slices,1018.3999999761581,1019,1018.8999999761581,True,i,18684.299999952316,1519.8999999761581,1669846594743,1520,HRV,HRV_0313,2022-11-30 22:21:35
8,"[{'imgObject': {}, 'id': 'cherries', 'src': '/static/foodstim60/cherries.jpg', 'key': 'u', 'origWidth': 410, 'origHeight': 411, 'width': 410, 'height': 411, 'widthPercent': 0.45, 'rescaleHeight': False, 'trialN': 8, 'loaded': True, 'loadedTime': 3092.899999976158, 'positionName': 'LEFT', 'positionCoords': [511.6, 334.5], 'bid': 6.0600000000000005}, {'imgObject': {}, 'id': 'bagel plain', 'src': '/static/foodstim60/bagel plain.jpg', 'key': 'i', 'origWidth': 410, 'origHeight': 410, 'width': 410, 'height': 410, 'widthPercent': 0.45, 'rescaleHeight': False, 'trialN': 8, 'loaded': True, 'loadedTime': 3157.7999999523163, 'positionName': 'RIGHT', 'positionCoords': [998.4, 335], 'bid': 6.51}]",18684.5,1669846594743,cherries,bagel plain,6.0600000000000005,6.51,0.4499999999999993,bagel plain,1111.2999999523163,1112,1111.8999999761581,True,i,20300.399999976158,1615.8999999761581,1669846596359,1616,HRV,HRV_0313,2022-11-30 22:21:35
9,"[{'imgObject': {}, 'id': 'yogurt no spoon', 'src': '/static/foodstim60/yogurt no spoon.jpg', 'key': 'u', 'origWidth': 411, 'origHeight': 410, 'width': 411, 'height': 410, 'widthPercent': 0.45, 'rescaleHeight': False, 'trialN': 9, 'loaded': True, 'loadedTime': 2553.399999976158, 'positionName': 'LEFT', 'positionCoords': [510.6, 335], 'bid': 7.75}, {'imgObject': {}, 'id': 'hashbrowns', 'src': '/static/foodstim60/hashbrowns.jpg', 'key': 'i', 'origWidth': 411, 'origHeight': 410, 'width': 411, 'height': 410, 'widthPercent': 0.45, 'rescaleHeight': False, 'trialN': 9, 'loaded': True, 'loadedTime': 3164.399999976158, 'positionName': 'RIGHT', 'positionCoords': [998.4, 335], 'bid': 4.98}]",20300.599999904633,1669846596359,yogurt no spoon,hashbrowns,7.75,4.98,-2.7699999999999996,yogurt no spoon,894.2000000476837,895,894.7000000476837,True,u,21700.599999904633,1400.0,1669846597759,1400,HRV,HRV_0313,2022-11-30 22:21:35
10,"[{'imgObject': {}, 'id': 'apple slices', 'src': '/static/foodstim60/apple slices.jpg', 'key': 'u', 'origWidth': 409, 'origHeight': 410, 'width': 409, 'height': 410, 'widthPercent': 0.45, 'rescaleHeight': False, 'trialN': 10, 'loaded': True, 'loadedTime': 3091.0999999046326, 'positionName': 'LEFT', 'positionCoords': [512.6, 335], 'bid': 5.91}, {'imgObject': {}, 'id': 'banana', 'src': '/static/foodstim60/banana.jpg', 'key': 'i', 'origWidth': 410, 'origHeight': 410, 'width': 410, 'height': 410, 'widthPercent': 0.45, 'rescaleHeight': False, 'trialN': 10, 'loaded': True, 'loadedTime': 3204, 'positionName': 'RIGHT', 'positionCoords': [998.4, 335], 'bid': 6.41}]",21700.799999952316,1669846597759,apple slices,banana,5.91,6.41,0.5,banana,1317.6000000238419,1318,1318.0,True,i,23524.0,1823.2000000476837,1669846599583,1824,HRV,HRV_0313,2022-11-30 22:21:35
11,"[{'imgObject': {}, 'id': 'eggs', 'src': '/static/foodstim60/eggs.jpg', 'key': 'u', 'origWidth': 409, 'origHeight': 409, 'width': 409, 'height': 409, 'widthPercent': 0.45, 'rescaleHeight': False, 'trialN': 11, 'loaded': True, 'loadedTime': 3261.1999999284744, 'positionName': 'LEFT', 'positionCoords': [512.6, 335.5], 'bid': 4.46}, {'imgObject': {}, 'id': 'baked potato', 'src': '/static/foodstim60/baked potato.jpg', 'key': 'i', 'origWidth': 409, 'origHeight': 410, 'width': 409, 'height': 410, 'widthPercent': 0.45, 'rescaleHeight': False, 'trialN': 11, 'loaded': True, 'loadedTime': 3289, 'positionName': 'RIGHT', 'positionCoords': [998.4, 335], 'bid': 4.48}]",23524.199999928474,1669846599583,eggs,baked potato,4.46,4.48,0.020000000000000462,baked potato,1900.6000000238419,1901,1901.2000000476837,True,i,25932.199999928474,2408.0,1669846601991,2408,HRV,HRV_0313,2022-11-30 22:21:35
12,"[{'imgObject': {}, 'id': 'turkeysandwich', 'src': '/static/foodstim60/turkeysandwich.jpg', 'key': 'u', 'origWidth': 409, 'origHeight': 409, 'width': 409, 'height': 409, 'widthPercent': 0.45, 'rescaleHeight': False, 'trialN': 12, 'loaded': True, 'loadedTime': 3289.5999999046326, 'positionName': 'LEFT', 'positionCoords': [512.6, 335.5], 'bid': 6.79}, {'imgObject': {}, 'id': 'strawberries', 'src': '/static/foodstim60/strawberries.jpg', 'key': 'i', 'origWidth': 410, 'origHeight': 410, 'width': 410, 'height': 410, 'widthPercent': 0.45, 'rescaleHeight': False, 'trialN': 12, 'loaded': True, 'loadedTime': 3367.5999999046326, 'positionName': 'RIGHT', 'positionCoords': [998.4, 335], 'bid': 7.36}]",25932.399999976158,1669846601991,turkeysandwich,strawberries,6.79,7.36,0.5700000000000003,turkeysandwich,1208.6000000238419,1209,1209.1000000238419,True,u,27645.199999928474,1712.7999999523163,1669846603704,1713,HRV,HRV_0313,2022-11-30 22:21:35
13,"[{'imgObject': {}, 'id': 'chicken nuggets2', 'src': '/static/foodstim60/chicken nuggets2.jpg', 'key': 'u', 'origWidth': 410, 'origHeight': 409, 'width': 410, 'height': 409, 'widthPercent': 0.45, 'rescaleHeight': False, 'trialN': 13, 'loaded': True, 'loadedTime': 3403.5999999046326, 'positionName': 'LEFT', 'positionCoords': [511.6, 335.5], 'bid': 7.88}, {'imgObject': {}, 'id': 'avocado', 'src': '/static/foodstim60/avocado.jpg', 'key': 'i', 'origWidth': 409, 'origHeight': 409, 'width': 409, 'height': 409, 'widthPercent': 0.45, 'rescaleHeight': False, 'trialN': 13, 'loaded': True, 'loadedTime': 3495.5, 'positionName': 'RIGHT', 'positionCoords': [998.4, 335.5], 'bid': 10}]",27645.399999976158,1669846603704,chicken nuggets2,avocado,7.88,10.0,2.12,avocado,1349.1999999284744,1350,1349.6999999284744,True,i,29500.899999976158,1855.5,1669846605559,1855,HRV,HRV_0313,2022-11-30 22:21:35
14,"[{'imgObject': {}, 'id': 'rigatoni', 'src': '/static/foodstim60/rigatoni.jpg', 'key': 'u', 'origWidth': 411, 'origHeight': 411, 'width': 411, 'height': 411, 'widthPercent': 0.45, 'rescaleHeight': False, 'trialN': 14, 'loaded': True, 'loadedTime': 3547.899999976158, 'positionName': 'LEFT', 'positionCoords': [510.6, 334.5], 'bid': 6.91}, {'imgObject': {}, 'id': 'Tribe humus pita', 'src': '/static/foodstim60/Tribe humus pita.jpg', 'key': 'i', 'origWidth': 411, 'origHeight': 411, 'width': 411, 'height': 411, 'widthPercent': 0.45, 'rescaleHeight': False, 'trialN': 14, 'loaded': True, 'loadedTime': 3571.5999999046326, 'positionName': 'RIGHT', 'positionCoords': [998.4, 334.5], 'bid': 3.36}]",29501.0,1669846605560,rigatoni,Tribe humus pita,6.91,3.36,-3.5500000000000003,rigatoni,1518.5,1519,1519.0999999046326,True,u,31524.699999928474,2023.6999999284744,1669846607583,2023,HRV,HRV_0313,2022-11-30 22:21:35
15,"[{'imgObject': {}, 'id': 'salad w chicken', 'src': '/static/foodstim60/salad w chicken.jpg', 'key': 'u', 'origWidth': 411, 'origHeight': 411, 'width': 411, 'height': 411, 'widthPercent': 0.45, 'rescaleHeight': False, 'trialN': 15, 'loaded': True, 'loadedTime': 2776.399999976158, 'positionName': 'LEFT', 'positionCoords': [510.6, 334.5], 'bid': 9.79}, {'imgObject': {}, 'id': 'cherries', 'src': '/static/foodstim60/cherries.jpg', 'key': 'i', 'origWidth': 410, 'origHeight': 411, 'width': 410, 'height': 411, 'widthPercent': 0.45, 'rescaleHeight': False, 'trialN': 15, 'loaded': True, 'loadedTime': 3121.399999976158, 'positionName': 'RIGHT', 'positionCoords': [998.4, 334.5], 'bid': 6.0600000000000005}]",31525.099999904633,1669846607584,salad w chicken,cherries,9.79,6.0600000000000005,-3.7299999999999986,salad w chicken,755.1000000238419,755,755.6000000238419,True,u,32788.59999990463,1263.5,1669846608847,1263,HRV,HRV_0313,2022-11-30 22:21:35
16,"[{'imgObject': {}, 'id': 'rigatoni and sauce', 'src': '/static/foodstim60/rigatoni and sauce.jpg', 'key': 'u', 'origWidth': 410, 'origHeight': 411, 'width': 410, 'height': 411, 'widthPercent': 0.45, 'rescaleHeight': False, 'trialN': 16, 'loaded': True, 'loadedTime': 3637.1999999284744, 'positionName': 'LEFT', 'positionCoords': [511.6, 334.5], 'bid': 8.06}, {'imgObject': {}, 'id': 'roastedpotatoes', 'src': '/static/foodstim60/roastedpotatoes.jpg', 'key': 'i', 'origWidth': 409, 'origHeight': 410, 'width': 409, 'height': 410, 'widthPercent': 0.45, 'rescaleHeight': False, 'trialN': 16, 'loaded': True, 'loadedTime': 3697.399999976158, 'positionName': 'RIGHT', 'positionCoords': [998.4, 335], 'bid': 5.26}]",32788.89999997616,1669846608847,rigatoni and sauce,roastedpotatoes,8.06,5.26,-2.8000000000000007,rigatoni and sauce,1248.6999999284744,1249,1248.8999999761581,True,u,34540.09999990463,1751.1999999284744,1669846610599,1752,HRV,HRV_0313,2022-11-30 22:21:35
17,"[{'imgObject': {}, 'id': 'seaweed', 'src': '/static/foodstim60/seaweed.jpg', 'key': 'u', 'origWidth': 410, 'origHeight': 410, 'width': 410, 'height': 410, 'widthPercent': 0.45, 'rescaleHeight': False, 'trialN': 17, 'loaded': True, 'loadedTime': 3697.6999999284744, 'positionName': 'LEFT', 'positionCoords': [511.6, 335], 'bid': 0.02}, {'imgObject': {}, 'id': 'cherry tomato', 'src': '/static/foodstim60/cherry tomato.jpg', 'key': 'i', 'origWidth': 410, 'origHeight': 410, 'width': 410, 'height': 410, 'widthPercent': 0.45, 'rescaleHeight': False, 'trialN': 17, 'loaded': True, 'loadedTime': 3801.899999976158, 'positionName': 'RIGHT', 'positionCoords': [998.4, 335], 'bid': 0.18}]",34540.39999997616,1669846610599,seaweed,cherry tomato,0.02,0.18,0.16,cherry tomato,805.1999999284744,805,805.3999999761581,True,i,35853.5,1313.1000000238419,1669846611912,1313,HRV,HRV_0313,2022-11-30 22:21:35
18,"[{'imgObject': {}, 'id': 'rigatoni', 'src': '/static/foodstim60/rigatoni.jpg', 'key': 'u', 'origWidth': 411, 'origHeight': 411, 'width': 411, 'height': 411, 'widthPercent': 0.45, 'rescaleHeight': False, 'trialN': 18, 'loaded': True, 'loadedTime': 3548.5, 'positionName': 'LEFT', 'positionCoords': [510.6, 334.5], 'bid': 6.91}, {'imgObject': {}, 'id': 'fried eggs', 'src': '/static/foodstim60/fried eggs.jpg', 'key': 'i', 'origWidth': 410, 'origHeight': 410, 'width': 410, 'height': 410, 'widthPercent': 0.45, 'rescaleHeight': False, 'trialN': 18, 'loaded': True, 'loadedTime': 3814.5, 'positionName': 'RIGHT', 'positionCoords': [998.4, 335], 'bid': 7.62}]",35853.59999990463,1669846611912,rigatoni,fried eggs,6.91,7.62,0.71,fried eggs,1175.5,1176,1175.8000000715256,True,i,37533.5,1679.9000000953674,1669846613592,1680,HRV,HRV_0313,2022-11-30 22:21:35
19,"[{'imgObject': {}, 'id': 'pear', 'src': '/static/foodstim60/pear.jpg', 'key': 'u', 'origWidth': 411, 'origHeight': 410, 'width': 411, 'height': 410, 'widthPercent': 0.45, 'rescaleHeight': False, 'trialN': 19, 'loaded': True, 'loadedTime': 2575.5, 'positionName': 'LEFT', 'positionCoords': [510.6, 335], 'bid': 3.96}, {'imgObject': {}, 'id': 'strawberries', 'src': '/static/foodstim60/strawberries.jpg', 'key': 'i', 'origWidth': 410, 'origHeight': 410, 'width': 410, 'height': 410, 'widthPercent': 0.45, 'rescaleHeight': False, 'trialN': 19, 'loaded': True, 'loadedTime': 3366.7999999523163, 'positionName': 'RIGHT', 'positionCoords': [998.4, 335], 'bid': 7.36}]",37533.699999928474,1669846613593,pear,strawberries,3.96,7.36,3.4000000000000004,strawberries,853.6000000238419,854,854.1000000238419,True,i,38892.89999997616,1359.2000000476837,1669846614952,1359,HRV,HRV_0313,2022-11-30 22:21:35
20,"[{'imgObject': {}, 'id': 'granola w milk', 'src': '/static/foodstim60/granola w milk.jpg', 'key': 'u', 'origWidth': 410, 'origHeight': 410, 'width': 410, 'height': 410, 'widthPercent': 0.45, 'rescaleHeight': False, 'trialN': 20, 'loaded': True, 'loadedTime': 3822.6999999284744, 'positionName': 'LEFT', 'positionCoords': [511.6, 335], 'bid': 6.4}, {'imgObject': {}, 'id': 'orange slices', 'src': '/static/foodstim60/orange slices.jpg', 'key': 'i', 'origWidth': 409, 'origHeight': 410, 'width': 409, 'height': 410, 'widthPercent': 0.45, 'rescaleHeight': False, 'trialN': 20, 'loaded': True, 'loadedTime': 3843.5999999046326, 'positionName': 'RIGHT', 'positionCoords': [998.4, 335], 'bid': 6.3100000000000005}]",38893.09999990463,1669846614952,granola w milk,orange slices,6.4,6.3100000000000005,-0.08999999999999986,orange slices,928.7000000476837,929,929.2000000476837,True,i,40324.699999928474,1431.6000000238419,1669846616383,1431,HRV,HRV_0313,2022-11-30 22:21:35
21,"[{'imgObject': {}, 'id': 'cherry tomato', 'src': '/static/foodstim60/cherry tomato.jpg', 'key': 'u', 'origWidth': 410, 'origHeight': 410, 'width': 410, 'height': 410, 'widthPercent': 0.45, 'rescaleHeight': False, 'trialN': 21, 'loaded': True, 'loadedTime': 3802.0999999046326, 'positionName': 'LEFT', 'positionCoords': [511.6, 335], 'bid': 0.18}, {'imgObject': {}, 'id': 'hashbrowns', 'src': '/static/foodstim60/hashbrowns.jpg', 'key': 'i', 'origWidth': 411, 'origHeight': 410, 'width': 411, 'height': 410, 'widthPercent': 0.45, 'rescaleHeight': False, 'trialN': 21, 'loaded': True, 'loadedTime': 3164.5999999046326, 'positionName': 'RIGHT', 'positionCoords': [998.4, 335], 'bid': 4.98}]",40324.89999997616,1669846616384,cherry tomato,hashbrowns,0.18,4.98,4.800000000000001,hashbrowns,1065.1999999284744,1065,1065.5,True,i,41893.199999928474,1568.2999999523163,1669846617952,1568,HRV,HRV_0313,2022-11-30 22:21:35
22,"[{'imgObject': {}, 'id': 'froot loops w milk', 'src': '/static/foodstim60/froot loops w milk.jpg', 'key': 'u', 'origWidth': 410, 'origHeight': 410, 'width': 410, 'height': 410, 'widthPercent': 0.45, 'rescaleHeight': False, 'trialN': 22, 'loaded': True, 'loadedTime': 3903.1999999284744, 'positionName': 'LEFT', 'positionCoords': [511.6, 335], 'bid': 7.28}, {'imgObject': {}, 'id': 'rigatoni and sauce', 'src': '/static/foodstim60/rigatoni and sauce.jpg', 'key': 'i', 'origWidth': 410, 'origHeight': 411, 'width': 410, 'height': 411, 'widthPercent': 0.45, 'rescaleHeight': False, 'trialN': 22, 'loaded': True, 'loadedTime': 3581, 'positionName': 'RIGHT', 'positionCoords': [998.4, 334.5], 'bid': 8.06}]",41893.299999952316,1669846617952,froot loops w milk,rigatoni and sauce,7.28,8.06,0.7800000000000002,rigatoni and sauce,1049.8999999761581,1050,1050.2000000476837,True,i,43445.59999990463,1552.2999999523163,1669846619504,1552,HRV,HRV_0313,2022-11-30 22:21:35
23,"[{'imgObject': {}, 'id': 'froot loops w milk', 'src': '/static/foodstim60/froot loops w milk.jpg', 'key': 'u', 'origWidth': 410, 'origHeight': 410, 'width': 410, 'height': 410, 'widthPercent': 0.45, 'rescaleHeight': False, 'trialN': 23, 'loaded': True, 'loadedTime': 3903.2999999523163, 'positionName': 'LEFT', 'positionCoords': [511.6, 335], 'bid': 7.28}, {'imgObject': {}, 'id': 'raspberries', 'src': '/static/foodstim60/raspberries.jpg', 'key': 'i', 'origWidth': 411, 'origHeight': 411, 'width': 411, 'height': 411, 'widthPercent': 0.45, 'rescaleHeight': False, 'trialN': 23, 'loaded': True, 'loadedTime': 3904.2999999523163, 'positionName': 'RIGHT', 'positionCoords': [998.4, 334.5], 'bid': 7.29}]",43445.799999952316,1669846619505,froot loops w milk,raspberries,7.28,7.29,0.009999999999999787,raspberries,2098.7999999523163,2099,2099.2000000476837,True,i,46052.799999952316,2607.0,1669846622112,2607,HRV,HRV_0313,2022-11-30 22:21:35
24,"[{'imgObject': {}, 'id': 'burger', 'src': '/static/foodstim60/burger.jpg', 'key': 'u', 'origWidth': 409, 'origHeight': 409, 'width': 409, 'height': 409, 'widthPercent': 0.45, 'rescaleHeight': False, 'trialN': 24, 'loaded': True, 'loadedTime': 2557.5999999046326, 'positionName': 'LEFT', 'positionCoords': [512.6, 335.5], 'bid': 5.69}, {'imgObject': {}, 'id': 'mashed potato', 'src': '/static/foodstim60/mashed potato.jpg', 'key': 'i', 'origWidth': 409, 'origHeight': 409, 'width': 409, 'height': 409, 'widthPercent': 0.45, 'rescaleHeight': False, 'trialN': 24, 'loaded': True, 'loadedTime': 3908.1999999284744, 'positionName': 'RIGHT', 'positionCoords': [998.4, 335.5], 'bid': 5.71}]",46053.0,1669846622112,burger,mashed potato,5.69,5.71,0.019999999999999574,burger,989.2999999523163,989,989.7999999523163,True,u,47548.799999952316,1495.7999999523163,1669846623607,1495,HRV,HRV_0313,2022-11-30 22:21:35
25,"[{'imgObject': {}, 'id': 'shreddedwheatwithmilk', 'src': '/static/foodstim60/shreddedwheatwithmilk.jpg', 'key': 'u', 'origWidth': 410, 'origHeight': 410, 'width': 410, 'height': 410, 'widthPercent': 0.45, 'rescaleHeight': False, 'trialN': 25, 'loaded': True, 'loadedTime': 3914.5999999046326, 'positionName': 'LEFT', 'positionCoords': [511.6, 335], 'bid': 6.66}, {'imgObject': {}, 'id': 'bagel plain', 'src': '/static/foodstim60/bagel plain.jpg', 'key': 'i', 'origWidth': 410, 'origHeight': 410, 'width': 410, 'height': 410, 'widthPercent': 0.45, 'rescaleHeight': False, 'trialN': 25, 'loaded': True, 'loadedTime': 3155.899999976158, 'positionName': 'RIGHT', 'positionCoords': [998.4, 335], 'bid': 6.51}]",47548.799999952316,1669846623608,shreddedwheatwithmilk,bagel plain,6.66,6.51,-0.15000000000000036,shreddedwheatwithmilk,1619.0,1619,1619.3999999761581,True,u,49668.299999952316,2119.5,1669846625727,2119,HRV,HRV_0313,2022-11-30 22:21:35
26,"[{'imgObject': {}, 'id': 'cherries', 'src': '/static/foodstim60/cherries.jpg', 'key': 'u', 'origWidth': 410, 'origHeight': 411, 'width': 410, 'height': 411, 'widthPercent': 0.45, 'rescaleHeight': False, 'trialN': 26, 'loaded': True, 'loadedTime': 3120.1999999284744, 'positionName': 'LEFT', 'positionCoords': [511.6, 334.5], 'bid': 6.0600000000000005}, {'imgObject': {}, 'id': 'apple slices', 'src': '/static/foodstim60/apple slices.jpg', 'key': 'i', 'origWidth': 409, 'origHeight': 410, 'width': 409, 'height': 410, 'widthPercent': 0.45, 'rescaleHeight': False, 'trialN': 26, 'loaded': True, 'loadedTime': 3088.5999999046326, 'positionName': 'RIGHT', 'positionCoords': [998.4, 335], 'bid': 5.91}]",49668.5,1669846625727,cherries,apple slices,6.0600000000000005,5.91,-0.15000000000000036,apple slices,1443.2999999523163,1444,1443.5999999046326,True,i,51613.5,1945.0,1669846627672,1945,HRV,HRV_0313,2022-11-30 22:21:35
27,"[{'imgObject': {}, 'id': 'chickenfingers', 'src': '/static/foodstim60/chickenfingers.jpg', 'key': 'u', 'origWidth': 410, 'origHeight': 410, 'width': 410, 'height': 410, 'widthPercent': 0.45, 'rescaleHeight': False, 'trialN': 27, 'loaded': True, 'loadedTime': 3920.399999976158, 'positionName': 'LEFT', 'positionCoords': [511.6, 335], 'bid': 9.84}, {'imgObject': {}, 'id': 'raisin bran w milk', 'src': '/static/foodstim60/raisin bran w milk.jpg', 'key': 'i', 'origWidth': 411, 'origHeight': 411, 'width': 411, 'height': 411, 'widthPercent': 0.45, 'rescaleHeight': False, 'trialN': 27, 'loaded': True, 'loadedTime': 3923.7999999523163, 'positionName': 'RIGHT', 'positionCoords': [998.4, 334.5], 'bid': 6.3}]",51613.89999997616,1669846627673,chickenfingers,raisin bran w milk,9.84,6.3,-3.54,chickenfingers,839.1000000238419,839,839.6999999284744,True,u,52956.89999997616,1343.0,1669846629016,1343,HRV,HRV_0313,2022-11-30 22:21:35
28,"[{'imgObject': {}, 'id': 'salmon', 'src': '/static/foodstim60/salmon.jpg', 'key': 'u', 'origWidth': 410, 'origHeight': 409, 'width': 410, 'height': 409, 'widthPercent': 0.45, 'rescaleHeight': False, 'trialN': 28, 'loaded': True, 'loadedTime': 3927.6999999284744, 'positionName': 'LEFT', 'positionCoords': [511.6, 335.5], 'bid': 0.72}, {'imgObject': {}, 'id': 'blackbeanswithrice', 'src': '/static/foodstim60/blackbeanswithrice.jpg', 'key': 'i', 'origWidth': 410, 'origHeight': 410, 'width': 410, 'height': 410, 'widthPercent': 0.45, 'rescaleHeight': False, 'trialN': 28, 'loaded': True, 'loadedTime': 2494.399999976158, 'positionName': 'RIGHT', 'positionCoords': [998.4, 335], 'bid': 3.76}]",52957.199999928474,1669846629016,salmon,blackbeanswithrice,0.72,3.76,3.04,blackbeanswithrice,706.1000000238419,707,706.5,True,i,54164.5,1207.3000000715256,1669846630223,1207,HRV,HRV_0313,2022-11-30 22:21:35
29,"[{'imgObject': {}, 'id': 'cantaloupe', 'src': '/static/foodstim60/cantaloupe.jpg', 'key': 'u', 'origWidth': 409, 'origHeight': 409, 'width': 409, 'height': 409, 'widthPercent': 0.45, 'rescaleHeight': False, 'trialN': 29, 'loaded': True, 'loadedTime': 3929.5999999046326, 'positionName': 'LEFT', 'positionCoords': [512.6, 335.5], 'bid': 0.38}, {'imgObject': {}, 'id': 'cherry tomato', 'src': '/static/foodstim60/cherry tomato.jpg', 'key': 'i', 'origWidth': 410, 'origHeight': 410, 'width': 410, 'height': 410, 'widthPercent': 0.45, 'rescaleHeight': False, 'trialN': 29, 'loaded': True, 'loadedTime': 3733.7999999523163, 'positionName': 'RIGHT', 'positionCoords': [998.4, 335], 'bid': 0.18}]",54165.0,1669846630224,cantaloupe,cherry tomato,0.38,0.18,-0.2,cantaloupe,1598.5,1599,1598.8999999761581,True,u,56269.199999928474,2104.1999999284744,1669846632328,2104,HRV,HRV_0313,2022-11-30 22:21:35
30,"[{'imgObject': {}, 'id': 'eggs', 'src': '/static/foodstim60/eggs.jpg', 'key': 'u', 'origWidth': 409, 'origHeight': 409, 'width': 409, 'height': 409, 'widthPercent': 0.45, 'rescaleHeight': False, 'trialN': 30, 'loaded': True, 'loadedTime': 3204.399999976158, 'positionName': 'LEFT', 'positionCoords': [512.6, 335.5], 'bid': 4.46}, {'imgObject': {}, 'id': 'roastedpotatoes', 'src': '/static/foodstim60/roastedpotatoes.jpg', 'key': 'i', 'origWidth': 409, 'origHeight': 410, 'width': 409, 'height': 410, 'widthPercent': 0.45, 'rescaleHeight': False, 'trialN': 30, 'loaded': True, 'loadedTime': 3697.5, 'positionName': 'RIGHT', 'positionCoords': [998.4, 335], 'bid': 5.26}]",56269.299999952316,1669846632328,eggs,roastedpotatoes,4.46,5.26,0.7999999999999998,roastedpotatoes,2054.2000000476837,2055,2054.600000023842,True,i,58828.199999928474,2558.899999976158,1669846634887,2559,HRV,HRV_0313,2022-11-30 22:21:35
31,"[{'imgObject': {}, 'id': 'cheerios', 'src': '/static/foodstim60/cheerios.jpg', 'key': 'u', 'origWidth': 409, 'origHeight': 410, 'width': 409, 'height': 410, 'widthPercent': 0.45, 'rescaleHeight': False, 'trialN': 31, 'loaded': True, 'loadedTime': 3940, 'positionName': 'LEFT', 'positionCoords': [512.6, 335], 'bid': 6.59}, {'imgObject': {}, 'id': 'raisin bran w milk', 'src': '/static/foodstim60/raisin bran w milk.jpg', 'key': 'i', 'origWidth': 411, 'origHeight': 411, 'width': 411, 'height': 411, 'widthPercent': 0.45, 'rescaleHeight': False, 'trialN': 31, 'loaded': True, 'loadedTime': 3921.1999999284744, 'positionName': 'RIGHT', 'positionCoords': [998.4, 334.5], 'bid': 6.3}]",58828.5,1669846634887,cheerios,raisin bran w milk,6.59,6.3,-0.29000000000000004,raisin bran w milk,1735.8999999761581,1737,1736.5999999046326,True,i,61068.59999990463,2240.0999999046326,1669846637127,2240,HRV,HRV_0313,2022-11-30 22:21:35
32,"[{'imgObject': {}, 'id': 'yogurt no spoon', 'src': '/static/foodstim60/yogurt no spoon.jpg', 'key': 'u', 'origWidth': 411, 'origHeight': 410, 'width': 411, 'height': 410, 'widthPercent': 0.45, 'rescaleHeight': False, 'trialN': 32, 'loaded': True, 'loadedTime': 2553.6999999284744, 'positionName': 'LEFT', 'positionCoords': [510.6, 335], 'bid': 7.75}, {'imgObject': {}, 'id': 'raspberries', 'src': '/static/foodstim60/raspberries.jpg', 'key': 'i', 'origWidth': 411, 'origHeight': 411, 'width': 411, 'height': 411, 'widthPercent': 0.45, 'rescaleHeight': False, 'trialN': 32, 'loaded': True, 'loadedTime': 3906.6999999284744, 'positionName': 'RIGHT', 'positionCoords': [998.4, 334.5], 'bid': 7.29}]",61069.0,1669846637128,yogurt no spoon,raspberries,7.75,7.29,-0.45999999999999996,yogurt no spoon,835.0,835,835.7999999523163,True,u,62412.299999952316,1343.2999999523163,1669846638471,1343,HRV,HRV_0313,2022-11-30 22:21:35
33,"[{'imgObject': {}, 'id': 'luckycharms', 'src': '/static/foodstim60/luckycharms.jpg', 'key': 'u', 'origWidth': 410, 'origHeight': 409, 'width': 410, 'height': 409, 'widthPercent': 0.45, 'rescaleHeight': False, 'trialN': 33, 'loaded': True, 'loadedTime': 3950.6999999284744, 'positionName': 'LEFT', 'positionCoords': [511.6, 335.5], 'bid': 6.9}, {'imgObject': {}, 'id': 'hotdog w must', 'src': '/static/foodstim60/hotdog w must.jpg', 'key': 'i', 'origWidth': 409, 'origHeight': 409, 'width': 409, 'height': 409, 'widthPercent': 0.45, 'rescaleHeight': False, 'trialN': 33, 'loaded': True, 'loadedTime': 2554, 'positionName': 'RIGHT', 'positionCoords': [998.4, 335.5], 'bid': 2.91}]",62412.89999997616,1669846638472,luckycharms,hotdog w must,6.9,2.91,-3.99,luckycharms,828.6999999284744,829,829.2999999523163,True,u,63748.39999997616,1335.5,1669846639807,1335,HRV,HRV_0313,2022-11-30 22:21:35
34,"[{'imgObject': {}, 'id': 'grilled chicken strips', 'src': '/static/foodstim60/grilled chicken strips.jpg', 'key': 'u', 'origWidth': 410, 'origHeight': 411, 'width': 410, 'height': 411, 'widthPercent': 0.45, 'rescaleHeight': False, 'trialN': 34, 'loaded': True, 'loadedTime': 3951.5, 'positionName': 'LEFT', 'positionCoords': [511.6, 334.5], 'bid': 7.57}, {'imgObject': {}, 'id': 'turkey sandwich', 'src': '/static/foodstim60/turkey sandwich.jpg', 'key': 'i', 'origWidth': 409, 'origHeight': 409, 'width': 409, 'height': 409, 'widthPercent': 0.45, 'rescaleHeight': False, 'trialN': 34, 'loaded': True, 'loadedTime': 3970.899999976158, 'positionName': 'RIGHT', 'positionCoords': [998.4, 335.5], 'bid': 8.31}]",63748.89999997616,1669846639808,grilled chicken strips,turkey sandwich,7.57,8.31,0.7400000000000002,turkey sandwich,746.3999999761581,747,747.1000000238419,True,i,64997.0,1248.1000000238419,1669846641056,1248,HRV,HRV_0313,2022-11-30 22:21:35
35,"[{'imgObject': {}, 'id': 'rigatoni', 'src': '/static/foodstim60/rigatoni.jpg', 'key': 'u', 'origWidth': 411, 'origHeight': 411, 'width': 411, 'height': 411, 'widthPercent': 0.45, 'rescaleHeight': False, 'trialN': 35, 'loaded': True, 'loadedTime': 3495.5999999046326, 'positionName': 'LEFT', 'positionCoords': [510.6, 334.5], 'bid': 6.91}, {'imgObject': {}, 'id': 'popsicles', 'src': '/static/foodstim60/popsicles.jpg', 'key': 'i', 'origWidth': 410, 'origHeight': 410, 'width': 410, 'height': 410, 'widthPercent': 0.45, 'rescaleHeight': False, 'trialN': 35, 'loaded': True, 'loadedTime': 4006, 'positionName': 'RIGHT', 'positionCoords': [998.4, 335], 'bid': 7.0600000000000005}]",64997.39999997616,1669846641056,rigatoni,popsicles,6.91,7.0600000000000005,0.15000000000000036,rigatoni,1078.8999999761581,1080,1079.3999999761581,True,u,66580.69999992847,1583.2999999523163,1669846642640,1584,HRV,HRV_0313,2022-11-30 22:21:35
36,"[{'imgObject': {}, 'id': 'mango', 'src': '/static/foodstim60/mango.jpg', 'key': 'u', 'origWidth': 411, 'origHeight': 411, 'width': 411, 'height': 411, 'widthPercent': 0.45, 'rescaleHeight': False, 'trialN': 36, 'loaded': True, 'loadedTime': 2768.399999976158, 'positionName': 'LEFT', 'positionCoords': [510.6, 334.5], 'bid': 4.94}, {'imgObject': {}, 'id': 'lox', 'src': '/static/foodstim60/lox.jpg', 'key': 'i', 'origWidth': 410, 'origHeight': 411, 'width': 410, 'height': 411, 'widthPercent': 0.45, 'rescaleHeight': False, 'trialN': 36, 'loaded': True, 'loadedTime': 2519, 'positionName': 'RIGHT', 'positionCoords': [998.4, 334.5], 'bid': 0.08}]",66581.09999990463,1669846642640,mango,lox,4.94,0.08,-4.86,mango,821.9000000953674,822,822.4000000953674,True,u,67908.09999990463,1327.0,1669846643967,1327,HRV,HRV_0313,2022-11-30 22:21:35
37,"[{'imgObject': {}, 'id': 'salmon', 'src': '/static/foodstim60/salmon.jpg', 'key': 'u', 'origWidth': 410, 'origHeight': 409, 'width': 410, 'height': 409, 'widthPercent': 0.45, 'rescaleHeight': False, 'trialN': 37, 'loaded': True, 'loadedTime': 3927.7999999523163, 'positionName': 'LEFT', 'positionCoords': [511.6, 335.5], 'bid': 0.72}, {'imgObject': {}, 'id': 'roastedpotatoes', 'src': '/static/foodstim60/roastedpotatoes.jpg', 'key': 'i', 'origWidth': 409, 'origHeight': 410, 'width': 409, 'height': 410, 'widthPercent': 0.45, 'rescaleHeight': False, 'trialN': 37, 'loaded': True, 'loadedTime': 3689.0999999046326, 'positionName': 'RIGHT', 'positionCoords': [998.4, 335], 'bid': 5.26}]",67908.19999992847,1669846643967,salmon,roastedpotatoes,0.72,5.26,4.54,roastedpotatoes,860.0,860,860.5,True,i,69276.5,1368.3000000715256,1669846645335,1368,HRV,HRV_0313,2022-11-30 22:21:35
38,"[{'imgObject': {}, 'id': 'chicken nuggets2', 'src': '/static/foodstim60/chicken nuggets2.jpg', 'key': 'u', 'origWidth': 410, 'origHeight': 409, 'width': 410, 'height': 409, 'widthPercent': 0.45, 'rescaleHeight': False, 'trialN': 38, 'loaded': True, 'loadedTime': 3437.6999999284744, 'positionName': 'LEFT', 'positionCoords': [511.6, 335.5], 'bid': 7.88}, {'imgObject': {}, 'id': 'veggieswithdip', 'src': '/static/foodstim60/veggieswithdip.jpg', 'key': 'i', 'origWidth': 409, 'origHeight': 409, 'width': 409, 'height': 409, 'widthPercent': 0.45, 'rescaleHeight': False, 'trialN': 38, 'loaded': True, 'loadedTime': 2559.5, 'positionName': 'RIGHT', 'positionCoords': [998.4, 335.5], 'bid': 5.03}]",69276.69999992847,1669846645335,chicken nuggets2,veggieswithdip,7.88,5.03,-2.8499999999999996,chicken nuggets2,1225.2000000476837,1226,1225.6000000238419,True,u,71004.79999995232,1728.1000000238419,1669846647064,1729,HRV,HRV_0313,2022-11-30 22:21:35
39,"[{'imgObject': {}, 'id': 'steak', 'src': '/static/foodstim60/steak.jpg', 'key': 'u', 'origWidth': 410, 'origHeight': 410, 'width': 410, 'height': 410, 'widthPercent': 0.45, 'rescaleHeight': False, 'trialN': 39, 'loaded': True, 'loadedTime': 2686, 'positionName': 'LEFT', 'positionCoords': [511.6, 335], 'bid': 5}, {'imgObject': {}, 'id': 'bagel and cc', 'src': '/static/foodstim60/bagel and cc.jpg', 'key': 'i', 'origWidth': 410, 'origHeight': 410, 'width': 410, 'height': 410, 'widthPercent': 0.45, 'rescaleHeight': False, 'trialN': 39, 'loaded': True, 'loadedTime': 4008.6999999284744, 'positionName': 'RIGHT', 'positionCoords': [998.4, 335], 'bid': 7.75}]",71005.0,1669846647064,steak,bagel and cc,5.0,7.75,2.75,bagel and cc,1448.6999999284744,1449,1449.0999999046326,True,i,72956.09999990463,1951.0999999046326,1669846649015,1951,HRV,HRV_0313,2022-11-30 22:21:35
40,"[{'imgObject': {}, 'id': 'veggieswithdip', 'src': '/static/foodstim60/veggieswithdip.jpg', 'key': 'u', 'origWidth': 409, 'origHeight': 409, 'width': 409, 'height': 409, 'widthPercent': 0.45, 'rescaleHeight': False, 'trialN': 40, 'loaded': True, 'loadedTime': 2561.399999976158, 'positionName': 'LEFT', 'positionCoords': [512.6, 335.5], 'bid': 5.03}, {'imgObject': {}, 'id': 'eggsalad', 'src': '/static/foodstim60/eggsalad.jpg', 'key': 'i', 'origWidth': 410, 'origHeight': 409, 'width': 410, 'height': 409, 'widthPercent': 0.45, 'rescaleHeight': False, 'trialN': 40, 'loaded': True, 'loadedTime': 4009.6999999284744, 'positionName': 'RIGHT', 'positionCoords': [998.4, 335.5], 'bid': 4.12}]",72956.39999997616,1669846649015,veggieswithdip,eggsalad,5.03,4.12,-0.9100000000000001,veggieswithdip,1238.8999999761581,1240,1239.3999999761581,True,u,74700.59999990463,1744.1999999284744,1669846650759,1744,HRV,HRV_0313,2022-11-30 22:21:35
41,"[{'imgObject': {}, 'id': 'corn cob', 'src': '/static/foodstim60/corn cob.jpg', 'key': 'u', 'origWidth': 411, 'origHeight': 411, 'width': 411, 'height': 411, 'widthPercent': 0.45, 'rescaleHeight': False, 'trialN': 41, 'loaded': True, 'loadedTime': 4014.399999976158, 'positionName': 'LEFT', 'positionCoords': [510.6, 334.5], 'bid': 6.04}, {'imgObject': {}, 'id': 'kiwi', 'src': '/static/foodstim60/kiwi.jpg', 'key': 'i', 'origWidth': 410, 'origHeight': 410, 'width': 410, 'height': 410, 'widthPercent': 0.45, 'rescaleHeight': False, 'trialN': 41, 'loaded': True, 'loadedTime': 4015.899999976158, 'positionName': 'RIGHT', 'positionCoords': [998.4, 335], 'bid': 6.51}]",74701.19999992847,1669846650760,corn cob,kiwi,6.04,6.51,0.46999999999999975,corn cob,1449.0,1449,1449.5,True,u,76652.79999995232,1951.6000000238419,1669846652712,1952,HRV,HRV_0313,2022-11-30 22:21:35
42,"[{'imgObject': {}, 'id': 'lox', 'src': '/static/foodstim60/lox.jpg', 'key': 'u', 'origWidth': 410, 'origHeight': 411, 'width': 410, 'height': 411, 'widthPercent': 0.45, 'rescaleHeight': False, 'trialN': 42, 'loaded': True, 'loadedTime': 2523.0999999046326, 'positionName': 'LEFT', 'positionCoords': [511.6, 334.5], 'bid': 0.08}, {'imgObject': {}, 'id': 'cantaloupe', 'src': '/static/foodstim60/cantaloupe.jpg', 'key': 'i', 'origWidth': 409, 'origHeight': 409, 'width': 409, 'height': 409, 'widthPercent': 0.45, 'rescaleHeight': False, 'trialN': 42, 'loaded': True, 'loadedTime': 3929.399999976158, 'positionName': 'RIGHT', 'positionCoords': [998.4, 335.5], 'bid': 0.38}]",76653.39999997616,1669846652712,lox,cantaloupe,0.08,0.38,0.3,cantaloupe,1117.2999999523163,1118,1117.6999999284744,True,i,78277.0,1623.6000000238419,1669846654336,1624,HRV,HRV_0313,2022-11-30 22:21:35
43,"[{'imgObject': {}, 'id': 'fried eggs', 'src': '/static/foodstim60/fried eggs.jpg', 'key': 'u', 'origWidth': 410, 'origHeight': 410, 'width': 410, 'height': 410, 'widthPercent': 0.45, 'rescaleHeight': False, 'trialN': 43, 'loaded': True, 'loadedTime': 3802.399999976158, 'positionName': 'LEFT', 'positionCoords': [511.6, 335], 'bid': 7.62}, {'imgObject': {}, 'id': 'cocktailshrimp', 'src': '/static/foodstim60/cocktailshrimp.jpg', 'key': 'i', 'origWidth': 410, 'origHeight': 410, 'width': 410, 'height': 410, 'widthPercent': 0.45, 'rescaleHeight': False, 'trialN': 43, 'loaded': True, 'loadedTime': 4020.6999999284744, 'positionName': 'RIGHT', 'positionCoords': [998.4, 335], 'bid': 7.73}]",78277.69999992847,1669846654336,fried eggs,cocktailshrimp,7.62,7.73,0.11000000000000032,cocktailshrimp,1639.0,1640,1639.5,True,i,80421.19999992847,2143.5,1669846656480,2144,HRV,HRV_0313,2022-11-30 22:21:35
44,"[{'imgObject': {}, 'id': 'Tribe humus pita', 'src': '/static/foodstim60/Tribe humus pita.jpg', 'key': 'u', 'origWidth': 411, 'origHeight': 411, 'width': 411, 'height': 411, 'widthPercent': 0.45, 'rescaleHeight': False, 'trialN': 44, 'loaded': True, 'loadedTime': 3560.399999976158, 'positionName': 'LEFT', 'positionCoords': [510.6, 334.5], 'bid': 3.36}, {'imgObject': {}, 'id': 'sweetpotato', 'src': '/static/foodstim60/sweetpotato.jpg', 'key': 'i', 'origWidth': 410, 'origHeight': 410, 'width': 410, 'height': 410, 'widthPercent': 0.45, 'rescaleHeight': False, 'trialN': 44, 'loaded': True, 'loadedTime': 2901.1999999284744, 'positionName': 'RIGHT', 'positionCoords': [998.4, 335], 'bid': 3.46}]",80421.79999995232,1669846656481,Tribe humus pita,sweetpotato,3.36,3.46,0.10000000000000009,Tribe humus pita,1454.5,1455,1455.0,True,u,82381.69999992847,1959.8999999761581,1669846658440,1959,HRV,HRV_0313,2022-11-30 22:21:35
45,"[{'imgObject': {}, 'id': 'seaweed', 'src': '/static/foodstim60/seaweed.jpg', 'key': 'u', 'origWidth': 410, 'origHeight': 410, 'width': 410, 'height': 410, 'widthPercent': 0.45, 'rescaleHeight': False, 'trialN': 45, 'loaded': True, 'loadedTime': 3705.0999999046326, 'positionName': 'LEFT', 'positionCoords': [511.6, 335], 'bid': 0.02}, {'imgObject': {}, 'id': 'Grapes', 'src': '/static/foodstim60/Grapes.jpg', 'key': 'i', 'origWidth': 411, 'origHeight': 411, 'width': 411, 'height': 411, 'widthPercent': 0.45, 'rescaleHeight': False, 'trialN': 45, 'loaded': True, 'loadedTime': 4020.899999976158, 'positionName': 'RIGHT', 'positionCoords': [998.4, 334.5], 'bid': 3.51}]",82382.29999995232,1669846658441,seaweed,Grapes,0.02,3.51,3.4899999999999998,Grapes,1102.1000000238419,1103,1102.6000000238419,True,i,83988.69999992847,1606.3999999761581,1669846660047,1606,HRV,HRV_0313,2022-11-30 22:21:35
46,"[{'imgObject': {}, 'id': 'bagel plain', 'src': '/static/foodstim60/bagel plain.jpg', 'key': 'u', 'origWidth': 410, 'origHeight': 410, 'width': 410, 'height': 410, 'widthPercent': 0.45, 'rescaleHeight': False, 'trialN': 46, 'loaded': True, 'loadedTime': 3157.0999999046326, 'positionName': 'LEFT', 'positionCoords': [511.6, 335], 'bid': 6.51}, {'imgObject': {}, 'id': 'cheerios', 'src': '/static/foodstim60/cheerios.jpg', 'key': 'i', 'origWidth': 409, 'origHeight': 410, 'width': 409, 'height': 410, 'widthPercent': 0.45, 'rescaleHeight': False, 'trialN': 46, 'loaded': True, 'loadedTime': 3935.1999999284744, 'positionName': 'RIGHT', 'positionCoords': [998.4, 335], 'bid': 6.59}]",83988.89999997616,1669846660048,bagel plain,cheerios,6.51,6.59,0.08000000000000007,bagel plain,1534.6999999284744,1535,1535.1999999284744,True,u,86028.59999990463,2039.6999999284744,1669846662087,2039,HRV,HRV_0313,2022-11-30 22:21:35
47,"[{'imgObject': {}, 'id': 'chicken nuggets2', 'src': '/static/foodstim60/chicken nuggets2.jpg', 'key': 'u', 'origWidth': 410, 'origHeight': 409, 'width': 410, 'height': 409, 'widthPercent': 0.45, 'rescaleHeight': False, 'trialN': 47, 'loaded': True, 'loadedTime': 3404.2999999523163, 'positionName': 'LEFT', 'positionCoords': [511.6, 335.5], 'bid': 7.88}, {'imgObject': {}, 'id': 'bagel and cc', 'src': '/static/foodstim60/bagel and cc.jpg', 'key': 'i', 'origWidth': 410, 'origHeight': 410, 'width': 410, 'height': 410, 'widthPercent': 0.45, 'rescaleHeight': False, 'trialN': 47, 'loaded': True, 'loadedTime': 4009.5, 'positionName': 'RIGHT', 'positionCoords': [998.4, 335], 'bid': 7.75}]",86030.29999995232,1669846662089,chicken nuggets2,bagel and cc,7.88,7.75,-0.1299999999999999,bagel and cc,1012.5,1013,1013.0,True,i,87548.89999997616,1518.6000000238419,1669846663608,1519,HRV,HRV_0313,2022-11-30 22:21:35
48,"[{'imgObject': {}, 'id': 'baked potato', 'src': '/static/foodstim60/baked potato.jpg', 'key': 'u', 'origWidth': 409, 'origHeight': 410, 'width': 409, 'height': 410, 'widthPercent': 0.45, 'rescaleHeight': False, 'trialN': 48, 'loaded': True, 'loadedTime': 3289.1999999284744, 'positionName': 'LEFT', 'positionCoords': [512.6, 335], 'bid': 4.48}, {'imgObject': {}, 'id': 'omelette', 'src': '/static/foodstim60/omelette.jpg', 'key': 'i', 'origWidth': 410, 'origHeight': 409, 'width': 410, 'height': 409, 'widthPercent': 0.45, 'rescaleHeight': False, 'trialN': 48, 'loaded': True, 'loadedTime': 4028.6999999284744, 'positionName': 'RIGHT', 'positionCoords': [998.4, 335.5], 'bid': 5.63}]",87549.59999990463,1669846663608,baked potato,omelette,4.48,5.63,1.1499999999999995,omelette,1421.3000000715256,1422,1421.8000000715256,True,i,89476.69999992847,1927.1000000238419,1669846665535,1927,HRV,HRV_0313,2022-11-30 22:21:35
49,"[{'imgObject': {}, 'id': 'mac & cheese', 'src': '/static/foodstim60/mac & cheese.jpg', 'key': 'u', 'origWidth': 410, 'origHeight': 410, 'width': 410, 'height': 410, 'widthPercent': 0.45, 'rescaleHeight': False, 'trialN': 49, 'loaded': True, 'loadedTime': 4030.7999999523163, 'positionName': 'LEFT', 'positionCoords': [511.6, 335], 'bid': 8.13}, {'imgObject': {}, 'id': 'chicken nuggets2', 'src': '/static/foodstim60/chicken nuggets2.jpg', 'key': 'i', 'origWidth': 410, 'origHeight': 409, 'width': 410, 'height': 409, 'widthPercent': 0.45, 'rescaleHeight': False, 'trialN': 49, 'loaded': True, 'loadedTime': 3372.5, 'positionName': 'RIGHT', 'positionCoords': [998.4, 335.5], 'bid': 7.88}]",89477.0,1669846665536,mac & cheese,chicken nuggets2,8.13,7.88,-0.2500000000000009,chicken nuggets2,1910.7999999523163,1911,1911.3999999761581,True,i,91892.19999992847,2415.1999999284744,1669846667951,2415,HRV,HRV_0313,2022-11-30 22:21:35
50,"[{'imgObject': {}, 'id': 'tacos', 'src': '/static/foodstim60/tacos.jpg', 'key': 'u', 'origWidth': 411, 'origHeight': 411, 'width': 411, 'height': 411, 'widthPercent': 0.45, 'rescaleHeight': False, 'trialN': 50, 'loaded': True, 'loadedTime': 4036.7999999523163, 'positionName': 'LEFT', 'positionCoords': [510.6, 334.5], 'bid': 9.39}, {'imgObject': {}, 'id': 'turkey sandwich', 'src': '/static/foodstim60/turkey sandwich.jpg', 'key': 'i', 'origWidth': 409, 'origHeight': 409, 'width': 409, 'height': 409, 'widthPercent': 0.45, 'rescaleHeight': False, 'trialN': 50, 'loaded': True, 'loadedTime': 4003.2999999523163, 'positionName': 'RIGHT', 'positionCoords': [998.4, 335.5], 'bid': 8.31}]",91892.29999995232,1669846667951,tacos,turkey sandwich,9.39,8.31,-1.08,turkey sandwich,2244.399999976158,2245,2245.100000023842,True,i,94644.69999992847,2752.399999976158,1669846670703,2752,HRV,HRV_0313,2022-11-30 22:21:35
51,"[{'imgObject': {}, 'id': 'seaweed', 'src': '/static/foodstim60/seaweed.jpg', 'key': 'u', 'origWidth': 410, 'origHeight': 410, 'width': 410, 'height': 410, 'widthPercent': 0.45, 'rescaleHeight': False, 'trialN': 51, 'loaded': True, 'loadedTime': 3704.7999999523163, 'positionName': 'LEFT', 'positionCoords': [511.6, 335], 'bid': 0.02}, {'imgObject': {}, 'id': 'banana', 'src': '/static/foodstim60/banana.jpg', 'key': 'i', 'origWidth': 410, 'origHeight': 410, 'width': 410, 'height': 410, 'widthPercent': 0.45, 'rescaleHeight': False, 'trialN': 51, 'loaded': True, 'loadedTime': 3165.6999999284744, 'positionName': 'RIGHT', 'positionCoords': [998.4, 335], 'bid': 6.41}]",94645.09999990463,1669846670704,seaweed,banana,0.02,6.41,6.390000000000001,banana,1228.0,1228,1228.2000000476837,True,i,96381.19999992847,1736.1000000238419,1669846672440,1736,HRV,HRV_0313,2022-11-30 22:21:35
52,"[{'imgObject': {}, 'id': 'bagel and cc', 'src': '/static/foodstim60/bagel and cc.jpg', 'key': 'u', 'origWidth': 410, 'origHeight': 410, 'width': 410, 'height': 410, 'widthPercent': 0.45, 'rescaleHeight': False, 'trialN': 52, 'loaded': True, 'loadedTime': 4008.5999999046326, 'positionName': 'LEFT', 'positionCoords': [511.6, 335], 'bid': 7.75}, {'imgObject': {}, 'id': 'cheerios', 'src': '/static/foodstim60/cheerios.jpg', 'key': 'i', 'origWidth': 409, 'origHeight': 410, 'width': 409, 'height': 410, 'widthPercent': 0.45, 'rescaleHeight': False, 'trialN': 52, 'loaded': True, 'loadedTime': 3938.2999999523163, 'positionName': 'RIGHT', 'positionCoords': [998.4, 335], 'bid': 6.59}]",96381.79999995232,1669846672441,bagel and cc,cheerios,7.75,6.59,-1.1600000000000001,bagel and cc,1063.3999999761581,1063,1063.7999999523163,True,u,97949.59999990463,1567.7999999523163,1669846674008,1567,HRV,HRV_0313,2022-11-30 22:21:35
53,"[{'imgObject': {}, 'id': 'burrito', 'src': '/static/foodstim60/burrito.jpg', 'key': 'u', 'origWidth': 410, 'origHeight': 410, 'width': 410, 'height': 410, 'widthPercent': 0.45, 'rescaleHeight': False, 'trialN': 53, 'loaded': True, 'loadedTime': 2532.5999999046326, 'positionName': 'LEFT', 'positionCoords': [511.6, 335], 'bid': 7.63}, {'imgObject': {}, 'id': 'popsicles', 'src': '/static/foodstim60/popsicles.jpg', 'key': 'i', 'origWidth': 410, 'origHeight': 410, 'width': 410, 'height': 410, 'widthPercent': 0.45, 'rescaleHeight': False, 'trialN': 53, 'loaded': True, 'loadedTime': 4006.2999999523163, 'positionName': 'RIGHT', 'positionCoords': [998.4, 335], 'bid': 7.0600000000000005}]",97949.69999992847,1669846674008,burrito,popsicles,7.63,7.0600000000000005,-0.5699999999999994,burrito,819.0,819,819.5,True,u,99277.39999997616,1327.7000000476837,1669846675335,1327,HRV,HRV_0313,2022-11-30 22:21:35
54,"[{'imgObject': {}, 'id': 'baked potato', 'src': '/static/foodstim60/baked potato.jpg', 'key': 'u', 'origWidth': 409, 'origHeight': 410, 'width': 409, 'height': 410, 'widthPercent': 0.45, 'rescaleHeight': False, 'trialN': 54, 'loaded': True, 'loadedTime': 3262.0999999046326, 'positionName': 'LEFT', 'positionCoords': [512.6, 335], 'bid': 4.48}, {'imgObject': {}, 'id': 'seaweed', 'src': '/static/foodstim60/seaweed.jpg', 'key': 'i', 'origWidth': 410, 'origHeight': 410, 'width': 410, 'height': 410, 'widthPercent': 0.45, 'rescaleHeight': False, 'trialN': 54, 'loaded': True, 'loadedTime': 3705, 'positionName': 'RIGHT', 'positionCoords': [998.4, 335], 'bid': 0.02}]",99277.69999992847,1669846675336,baked potato,seaweed,4.48,0.02,-4.460000000000001,baked potato,1121.3000000715256,1122,1121.8000000715256,True,u,100900.5,1622.8000000715256,1669846676959,1623,HRV,HRV_0313,2022-11-30 22:21:35
55,"[{'imgObject': {}, 'id': 'omelette', 'src': '/static/foodstim60/omelette.jpg', 'key': 'u', 'origWidth': 410, 'origHeight': 409, 'width': 410, 'height': 409, 'widthPercent': 0.45, 'rescaleHeight': False, 'trialN': 55, 'loaded': True, 'loadedTime': 4028.399999976158, 'positionName': 'LEFT', 'positionCoords': [511.6, 335.5], 'bid': 5.63}, {'imgObject': {}, 'id': 'kiwi', 'src': '/static/foodstim60/kiwi.jpg', 'key': 'i', 'origWidth': 410, 'origHeight': 410, 'width': 410, 'height': 410, 'widthPercent': 0.45, 'rescaleHeight': False, 'trialN': 55, 'loaded': True, 'loadedTime': 4018.2999999523163, 'positionName': 'RIGHT', 'positionCoords': [998.4, 335], 'bid': 6.51}]",100901.19999992847,1669846676959,omelette,kiwi,5.63,6.51,0.8799999999999999,kiwi,843.0,844,843.5,True,i,102252.5,1351.3000000715256,1669846678311,1352,HRV,HRV_0313,2022-11-30 22:21:35
56,"[{'imgObject': {}, 'id': 'raisin bran w milk', 'src': '/static/foodstim60/raisin bran w milk.jpg', 'key': 'u', 'origWidth': 411, 'origHeight': 411, 'width': 411, 'height': 411, 'widthPercent': 0.45, 'rescaleHeight': False, 'trialN': 56, 'loaded': True, 'loadedTime': 3924.0999999046326, 'positionName': 'LEFT', 'positionCoords': [510.6, 334.5], 'bid': 6.3}, {'imgObject': {}, 'id': 'corn cob', 'src': '/static/foodstim60/corn cob.jpg', 'key': 'i', 'origWidth': 411, 'origHeight': 411, 'width': 411, 'height': 411, 'widthPercent': 0.45, 'rescaleHeight': False, 'trialN': 56, 'loaded': True, 'loadedTime': 4015.0999999046326, 'positionName': 'RIGHT', 'positionCoords': [998.4, 334.5], 'bid': 6.04}]",102254.19999992847,1669846678312,raisin bran w milk,corn cob,6.3,6.04,-0.2599999999999998,raisin bran w milk,1031.3999999761581,1032,1031.8000000715256,True,u,103789.5,1535.3000000715256,1669846679848,1536,HRV,HRV_0313,2022-11-30 22:21:35
57,"[{'imgObject': {}, 'id': 'bagel plain', 'src': '/static/foodstim60/bagel plain.jpg', 'key': 'u', 'origWidth': 410, 'origHeight': 410, 'width': 410, 'height': 410, 'widthPercent': 0.45, 'rescaleHeight': False, 'trialN': 57, 'loaded': True, 'loadedTime': 3123.0999999046326, 'positionName': 'LEFT', 'positionCoords': [511.6, 335], 'bid': 6.51}, {'imgObject': {}, 'id': 'burger', 'src': '/static/foodstim60/burger.jpg', 'key': 'i', 'origWidth': 409, 'origHeight': 409, 'width': 409, 'height': 409, 'widthPercent': 0.45, 'rescaleHeight': False, 'trialN': 57, 'loaded': True, 'loadedTime': 2557.0999999046326, 'positionName': 'RIGHT', 'positionCoords': [998.4, 335.5], 'bid': 5.69}]",103790.5,1669846679849,bagel plain,burger,6.51,5.69,-0.8199999999999994,bagel plain,1625.6999999284744,1626,1626.1999999284744,True,u,105925.39999997616,2134.899999976158,1669846681983,2134,HRV,HRV_0313,2022-11-30 22:21:35
58,"[{'imgObject': {}, 'id': 'strawberries', 'src': '/static/foodstim60/strawberries.jpg', 'key': 'u', 'origWidth': 410, 'origHeight': 410, 'width': 410, 'height': 410, 'widthPercent': 0.45, 'rescaleHeight': False, 'trialN': 58, 'loaded': True, 'loadedTime': 3367.6999999284744, 'positionName': 'LEFT', 'positionCoords': [511.6, 335], 'bid': 7.36}, {'imgObject': {}, 'id': 'chickenfingers', 'src': '/static/foodstim60/chickenfingers.jpg', 'key': 'i', 'origWidth': 410, 'origHeight': 410, 'width': 410, 'height': 410, 'widthPercent': 0.45, 'rescaleHeight': False, 'trialN': 58, 'loaded': True, 'loadedTime': 3920.1999999284744, 'positionName': 'RIGHT', 'positionCoords': [998.4, 335], 'bid': 9.84}]",105925.59999990463,1669846681984,strawberries,chickenfingers,7.36,9.84,2.4799999999999995,chickenfingers,917.8000000715256,918,918.2000000476837,True,i,107348.89999997616,1423.3000000715256,1669846683407,1423,HRV,HRV_0313,2022-11-30 22:21:35
59,"[{'imgObject': {}, 'id': 'corn cob', 'src': '/static/foodstim60/corn cob.jpg', 'key': 'u', 'origWidth': 411, 'origHeight': 411, 'width': 411, 'height': 411, 'widthPercent': 0.45, 'rescaleHeight': False, 'trialN': 59, 'loaded': True, 'loadedTime': 4015.1999999284744, 'positionName': 'LEFT', 'positionCoords': [510.6, 334.5], 'bid': 6.04}, {'imgObject': {}, 'id': 'blueberries', 'src': '/static/foodstim60/blueberries.jpg', 'key': 'i', 'origWidth': 411, 'origHeight': 411, 'width': 411, 'height': 411, 'widthPercent': 0.45, 'rescaleHeight': False, 'trialN': 59, 'loaded': True, 'loadedTime': 4044, 'positionName': 'RIGHT', 'positionCoords': [998.4, 334.5], 'bid': 6.67}]",107351.89999997616,1669846683410,corn cob,blueberries,6.04,6.67,0.6299999999999999,blueberries,1174.3999999761581,1175,1174.7999999523163,True,i,109028.0,1676.1000000238419,1669846685086,1676,HRV,HRV_0313,2022-11-30 22:21:35
60,"[{'imgObject': {}, 'id': 'fruitsalad', 'src': '/static/foodstim60/fruitsalad.jpg', 'key': 'u', 'origWidth': 410, 'origHeight': 410, 'width': 410, 'height': 410, 'widthPercent': 0.45, 'rescaleHeight': False, 'trialN': 60, 'loaded': True, 'loadedTime': 4061.5999999046326, 'positionName': 'LEFT', 'positionCoords': [511.6, 335], 'bid': 8.23}, {'imgObject': {}, 'id': 'sushi w_condiments', 'src': '/static/foodstim60/sushi w_condiments.jpg', 'key': 'i', 'origWidth': 410, 'origHeight': 410, 'width': 410, 'height': 410, 'widthPercent': 0.45, 'rescaleHeight': False, 'trialN': 60, 'loaded': True, 'loadedTime': 2860.5999999046326, 'positionName': 'RIGHT', 'positionCoords': [998.4, 335], 'bid': 9.93}]",109028.19999992847,1669846685086,fruitsalad,sushi w_condiments,8.23,9.93,1.6999999999999993,sushi w_condiments,1209.5,1210,1209.8999999761581,True,i,110740.5,1712.3000000715256,1669846686799,1713,HRV,HRV_0313,2022-11-30 22:21:35
61,"[{'imgObject': {}, 'id': 'grilled chicken strips', 'src': '/static/foodstim60/grilled chicken strips.jpg', 'key': 'u', 'origWidth': 410, 'origHeight': 411, 'width': 410, 'height': 411, 'widthPercent': 0.45, 'rescaleHeight': False, 'trialN': 61, 'loaded': True, 'loadedTime': 3953.7999999523163, 'positionName': 'LEFT', 'positionCoords': [511.6, 334.5], 'bid': 7.57}, {'imgObject': {}, 'id': 'eggsalad', 'src': '/static/foodstim60/eggsalad.jpg', 'key': 'i', 'origWidth': 410, 'origHeight': 409, 'width': 410, 'height': 409, 'widthPercent': 0.45, 'rescaleHeight': False, 'trialN': 61, 'loaded': True, 'loadedTime': 4011.1999999284744, 'positionName': 'RIGHT', 'positionCoords': [998.4, 335.5], 'bid': 4.12}]",110740.69999992847,1669846686799,grilled chicken strips,eggsalad,7.57,4.12,-3.45,grilled chicken strips,1103.2000000476837,1103,1103.5,True,u,112348.89999997616,1608.2000000476837,1669846688407,1608,HRV,HRV_0313,2022-11-30 22:21:35
62,"[{'imgObject': {}, 'id': 'hotdog w must', 'src': '/static/foodstim60/hotdog w must.jpg', 'key': 'u', 'origWidth': 409, 'origHeight': 409, 'width': 409, 'height': 409, 'widthPercent': 0.45, 'rescaleHeight': False, 'trialN': 62, 'loaded': True, 'loadedTime': 2555.6999999284744, 'positionName': 'LEFT', 'positionCoords': [512.6, 335.5], 'bid': 2.91}, {'imgObject': {}, 'id': 'edamame', 'src': '/static/foodstim60/edamame.jpg', 'key': 'i', 'origWidth': 409, 'origHeight': 410, 'width': 409, 'height': 410, 'widthPercent': 0.45, 'rescaleHeight': False, 'trialN': 62, 'loaded': True, 'loadedTime': 4066.0999999046326, 'positionName': 'RIGHT', 'positionCoords': [998.4, 335], 'bid': 1}]",112351.89999997616,1669846688410,hotdog w must,edamame,2.91,1.0,-1.9100000000000001,hotdog w must,1591.5,1592,1591.8999999761581,True,u,114444.5,2092.600000023842,1669846690503,2093,HRV,HRV_0313,2022-11-30 22:21:35
63,"[{'imgObject': {}, 'id': 'Grapes', 'src': '/static/foodstim60/Grapes.jpg', 'key': 'u', 'origWidth': 411, 'origHeight': 411, 'width': 411, 'height': 411, 'widthPercent': 0.45, 'rescaleHeight': False, 'trialN': 63, 'loaded': True, 'loadedTime': 4023.0999999046326, 'positionName': 'LEFT', 'positionCoords': [510.6, 334.5], 'bid': 3.51}, {'imgObject': {}, 'id': 'froot loops w milk', 'src': '/static/foodstim60/froot loops w milk.jpg', 'key': 'i', 'origWidth': 410, 'origHeight': 410, 'width': 410, 'height': 410, 'widthPercent': 0.45, 'rescaleHeight': False, 'trialN': 63, 'loaded': True, 'loadedTime': 3843.6999999284744, 'positionName': 'RIGHT', 'positionCoords': [998.4, 335], 'bid': 7.28}]",114444.69999992847,1669846690503,Grapes,froot loops w milk,3.51,7.28,3.7700000000000005,froot loops w milk,1360.6000000238419,1361,1360.8999999761581,True,i,116308.29999995232,1863.6000000238419,1669846692366,1863,HRV,HRV_0313,2022-11-30 22:21:35
64,"[{'imgObject': {}, 'id': 'orange slices', 'src': '/static/foodstim60/orange slices.jpg', 'key': 'u', 'origWidth': 409, 'origHeight': 410, 'width': 409, 'height': 410, 'widthPercent': 0.45, 'rescaleHeight': False, 'trialN': 64, 'loaded': True, 'loadedTime': 3843, 'positionName': 'LEFT', 'positionCoords': [512.6, 335], 'bid': 6.3100000000000005}, {'imgObject': {}, 'id': 'sushi w_condiments', 'src': '/static/foodstim60/sushi w_condiments.jpg', 'key': 'i', 'origWidth': 410, 'origHeight': 410, 'width': 410, 'height': 410, 'widthPercent': 0.45, 'rescaleHeight': False, 'trialN': 64, 'loaded': True, 'loadedTime': 2863.1999999284744, 'positionName': 'RIGHT', 'positionCoords': [998.4, 335], 'bid': 9.93}]",116311.39999997616,1669846692369,orange slices,sushi w_condiments,6.3100000000000005,9.93,3.619999999999999,sushi w_condiments,816.6000000238419,818,817.0,True,i,117628.69999992847,1317.2999999523163,1669846693687,1318,HRV,HRV_0313,2022-11-30 22:21:35
65,"[{'imgObject': {}, 'id': 'sweetpotato', 'src': '/static/foodstim60/sweetpotato.jpg', 'key': 'u', 'origWidth': 410, 'origHeight': 410, 'width': 410, 'height': 410, 'widthPercent': 0.45, 'rescaleHeight': False, 'trialN': 65, 'loaded': True, 'loadedTime': 2887.399999976158, 'positionName': 'LEFT', 'positionCoords': [511.6, 335], 'bid': 3.46}, {'imgObject': {}, 'id': 'popsicles', 'src': '/static/foodstim60/popsicles.jpg', 'key': 'i', 'origWidth': 410, 'origHeight': 410, 'width': 410, 'height': 410, 'widthPercent': 0.45, 'rescaleHeight': False, 'trialN': 65, 'loaded': True, 'loadedTime': 4004.5999999046326, 'positionName': 'RIGHT', 'positionCoords': [998.4, 335], 'bid': 7.0600000000000005}]",117628.79999995232,1669846693687,sweetpotato,popsicles,3.46,7.0600000000000005,3.6000000000000005,popsicles,1391.8999999761581,1392,1392.2999999523163,True,i,119524.59999990463,1895.7999999523163,1669846695583,1896,HRV,HRV_0313,2022-11-30 22:21:35
66,"[{'imgObject': {}, 'id': 'fried eggs', 'src': '/static/foodstim60/fried eggs.jpg', 'key': 'u', 'origWidth': 410, 'origHeight': 410, 'width': 410, 'height': 410, 'widthPercent': 0.45, 'rescaleHeight': False, 'trialN': 66, 'loaded': True, 'loadedTime': 3813.1999999284744, 'positionName': 'LEFT', 'positionCoords': [511.6, 335], 'bid': 7.62}, {'imgObject': {}, 'id': 'ice cream sundae 002', 'src': '/static/foodstim60/ice cream sundae 002.jpg', 'key': 'i', 'origWidth': 409, 'origHeight': 409, 'width': 409, 'height': 409, 'widthPercent': 0.45, 'rescaleHeight': False, 'trialN': 66, 'loaded': True, 'loadedTime': 4070.5, 'positionName': 'RIGHT', 'positionCoords': [998.4, 335.5], 'bid': 8.81}]",119524.79999995232,1669846695583,fried eggs,ice cream sundae 002,7.62,8.81,1.1900000000000004,fried eggs,865.2999999523163,866,865.6000000238419,True,u,120892.79999995232,1368.0,1669846696951,1368,HRV,HRV_0313,2022-11-30 22:21:35
67,"[{'imgObject': {}, 'id': 'roastedpotatoes', 'src': '/static/foodstim60/roastedpotatoes.jpg', 'key': 'u', 'origWidth': 409, 'origHeight': 410, 'width': 409, 'height': 410, 'widthPercent': 0.45, 'rescaleHeight': False, 'trialN': 67, 'loaded': True, 'loadedTime': 3688.399999976158, 'positionName': 'LEFT', 'positionCoords': [512.6, 335], 'bid': 5.26}, {'imgObject': {}, 'id': 'omelette', 'src': '/static/foodstim60/omelette.jpg', 'key': 'i', 'origWidth': 410, 'origHeight': 409, 'width': 410, 'height': 409, 'widthPercent': 0.45, 'rescaleHeight': False, 'trialN': 67, 'loaded': True, 'loadedTime': 4028.7999999523163, 'positionName': 'RIGHT', 'positionCoords': [998.4, 335.5], 'bid': 5.63}]",120893.19999992847,1669846696951,roastedpotatoes,omelette,5.26,5.63,0.3700000000000001,roastedpotatoes,1354.0,1355,1354.7000000476837,True,u,122749.79999995232,1856.6000000238419,1669846698808,1857,HRV,HRV_0313,2022-11-30 22:21:35
68,"[{'imgObject': {}, 'id': 'seaweed', 'src': '/static/foodstim60/seaweed.jpg', 'key': 'u', 'origWidth': 410, 'origHeight': 410, 'width': 410, 'height': 410, 'widthPercent': 0.45, 'rescaleHeight': False, 'trialN': 68, 'loaded': True, 'loadedTime': 3705, 'positionName': 'LEFT', 'positionCoords': [511.6, 335], 'bid': 0.02}, {'imgObject': {}, 'id': 'lox', 'src': '/static/foodstim60/lox.jpg', 'key': 'i', 'origWidth': 410, 'origHeight': 411, 'width': 410, 'height': 411, 'widthPercent': 0.45, 'rescaleHeight': False, 'trialN': 68, 'loaded': True, 'loadedTime': 2525.399999976158, 'positionName': 'RIGHT', 'positionCoords': [998.4, 334.5], 'bid': 0.08}]",122750.09999990463,1669846698808,seaweed,lox,0.02,0.08,0.06,lox,868.4000000953674,869,868.9000000953674,True,i,124124.5,1374.4000000953674,1669846700183,1375,HRV,HRV_0313,2022-11-30 22:21:35
69,"[{'imgObject': {}, 'id': 'luckycharms', 'src': '/static/foodstim60/luckycharms.jpg', 'key': 'u', 'origWidth': 410, 'origHeight': 409, 'width': 410, 'height': 409, 'widthPercent': 0.45, 'rescaleHeight': False, 'trialN': 69, 'loaded': True, 'loadedTime': 3950.899999976158, 'positionName': 'LEFT', 'positionCoords': [511.6, 335.5], 'bid': 6.9}, {'imgObject': {}, 'id': 'popsicles', 'src': '/static/foodstim60/popsicles.jpg', 'key': 'i', 'origWidth': 410, 'origHeight': 410, 'width': 410, 'height': 410, 'widthPercent': 0.45, 'rescaleHeight': False, 'trialN': 69, 'loaded': True, 'loadedTime': 4006.2999999523163, 'positionName': 'RIGHT', 'positionCoords': [998.4, 335], 'bid': 7.0600000000000005}]",124124.69999992847,1669846700183,luckycharms,popsicles,6.9,7.0600000000000005,0.16000000000000014,luckycharms,2134.100000023842,2134,2134.399999976158,True,u,126764.69999992847,2640.0,1669846702823,2640,HRV,HRV_0313,2022-11-30 22:21:35
70,"[{'imgObject': {}, 'id': 'roastedpotatoes', 'src': '/static/foodstim60/roastedpotatoes.jpg', 'key': 'u', 'origWidth': 409, 'origHeight': 410, 'width': 409, 'height': 410, 'widthPercent': 0.45, 'rescaleHeight': False, 'trialN': 70, 'loaded': True, 'loadedTime': 3639.399999976158, 'positionName': 'LEFT', 'positionCoords': [512.6, 335], 'bid': 5.26}, {'imgObject': {}, 'id': 'burger', 'src': '/static/foodstim60/burger.jpg', 'key': 'i', 'origWidth': 409, 'origHeight': 409, 'width': 409, 'height': 409, 'widthPercent': 0.45, 'rescaleHeight': False, 'trialN': 70, 'loaded': True, 'loadedTime': 2557.2999999523163, 'positionName': 'RIGHT', 'positionCoords': [998.4, 335.5], 'bid': 5.69}]",126765.29999995232,1669846702823,roastedpotatoes,burger,5.26,5.69,0.4300000000000006,burger,1230.3999999761581,1231,1231.0,True,i,128501.5,1736.2000000476837,1669846704560,1737,HRV,HRV_0313,2022-11-30 22:21:35
71,"[{'imgObject': {}, 'id': 'blueberries', 'src': '/static/foodstim60/blueberries.jpg', 'key': 'u', 'origWidth': 411, 'origHeight': 411, 'width': 411, 'height': 411, 'widthPercent': 0.45, 'rescaleHeight': False, 'trialN': 71, 'loaded': True, 'loadedTime': 4040.7999999523163, 'positionName': 'LEFT', 'positionCoords': [510.6, 334.5], 'bid': 6.67}, {'imgObject': {}, 'id': 'shreddedwheatwithmilk', 'src': '/static/foodstim60/shreddedwheatwithmilk.jpg', 'key': 'i', 'origWidth': 410, 'origHeight': 410, 'width': 410, 'height': 410, 'widthPercent': 0.45, 'rescaleHeight': False, 'trialN': 71, 'loaded': True, 'loadedTime': 3914.6999999284744, 'positionName': 'RIGHT', 'positionCoords': [998.4, 335], 'bid': 6.66}]",128502.5,1669846704561,blueberries,shreddedwheatwithmilk,6.67,6.66,-0.009999999999999787,blueberries,1402.5999999046326,1403,1403.0,True,u,130405.89999997616,1903.3999999761581,1669846706464,1903,HRV,HRV_0313,2022-11-30 22:21:35
72,"[{'imgObject': {}, 'id': 'mac & cheese', 'src': '/static/foodstim60/mac & cheese.jpg', 'key': 'u', 'origWidth': 410, 'origHeight': 410, 'width': 410, 'height': 410, 'widthPercent': 0.45, 'rescaleHeight': False, 'trialN': 72, 'loaded': True, 'loadedTime': 4032.5999999046326, 'positionName': 'LEFT', 'positionCoords': [511.6, 335], 'bid': 8.13}, {'imgObject': {}, 'id': 'raspberries', 'src': '/static/foodstim60/raspberries.jpg', 'key': 'i', 'origWidth': 411, 'origHeight': 411, 'width': 411, 'height': 411, 'widthPercent': 0.45, 'rescaleHeight': False, 'trialN': 72, 'loaded': True, 'loadedTime': 3906.7999999523163, 'positionName': 'RIGHT', 'positionCoords': [998.4, 334.5], 'bid': 7.29}]",130406.0,1669846706464,mac & cheese,raspberries,8.13,7.29,-0.8400000000000007,mac & cheese,772.5999999046326,773,773.0,True,u,131684.0,1278.0,1669846707742,1278,HRV,HRV_0313,2022-11-30 22:21:35
73,"[{'imgObject': {}, 'id': 'luckycharms', 'src': '/static/foodstim60/luckycharms.jpg', 'key': 'u', 'origWidth': 410, 'origHeight': 409, 'width': 410, 'height': 409, 'widthPercent': 0.45, 'rescaleHeight': False, 'trialN': 73, 'loaded': True, 'loadedTime': 3950.7999999523163, 'positionName': 'LEFT', 'positionCoords': [511.6, 335.5], 'bid': 6.9}, {'imgObject': {}, 'id': 'turkeysandwich', 'src': '/static/foodstim60/turkeysandwich.jpg', 'key': 'i', 'origWidth': 409, 'origHeight': 409, 'width': 409, 'height': 409, 'widthPercent': 0.45, 'rescaleHeight': False, 'trialN': 73, 'loaded': True, 'loadedTime': 3295.5, 'positionName': 'RIGHT', 'positionCoords': [998.4, 335.5], 'bid': 6.79}]",131684.19999992847,1669846707742,luckycharms,turkeysandwich,6.9,6.79,-0.11000000000000032,turkeysandwich,1055.7000000476837,1057,1056.2000000476837,True,i,133244.59999990463,1560.3999999761581,1669846709303,1561,HRV,HRV_0313,2022-11-30 22:21:35
74,"[{'imgObject': {}, 'id': 'shreddedwheatwithmilk', 'src': '/static/foodstim60/shreddedwheatwithmilk.jpg', 'key': 'u', 'origWidth': 410, 'origHeight': 410, 'width': 410, 'height': 410, 'widthPercent': 0.45, 'rescaleHeight': False, 'trialN': 74, 'loaded': True, 'loadedTime': 3915.399999976158, 'positionName': 'LEFT', 'positionCoords': [511.6, 335], 'bid': 6.66}, {'imgObject': {}, 'id': 'orange slices', 'src': '/static/foodstim60/orange slices.jpg', 'key': 'i', 'origWidth': 409, 'origHeight': 410, 'width': 409, 'height': 410, 'widthPercent': 0.45, 'rescaleHeight': False, 'trialN': 74, 'loaded': True, 'loadedTime': 3832.399999976158, 'positionName': 'RIGHT', 'positionCoords': [998.4, 335], 'bid': 6.3100000000000005}]",133244.79999995232,1669846709303,shreddedwheatwithmilk,orange slices,6.66,6.3100000000000005,-0.34999999999999964,orange slices,1302.8999999761581,1304,1303.7000000476837,True,i,135053.29999995232,1808.5,1669846711111,1808,HRV,HRV_0313,2022-11-30 22:21:35
75,"[{'imgObject': {}, 'id': 'yogurt no spoon', 'src': '/static/foodstim60/yogurt no spoon.jpg', 'key': 'u', 'origWidth': 411, 'origHeight': 410, 'width': 411, 'height': 410, 'widthPercent': 0.45, 'rescaleHeight': False, 'trialN': 75, 'loaded': True, 'loadedTime': 2553.1999999284744, 'positionName': 'LEFT', 'positionCoords': [510.6, 335], 'bid': 7.75}, {'imgObject': {}, 'id': 'cocktailshrimp', 'src': '/static/foodstim60/cocktailshrimp.jpg', 'key': 'i', 'origWidth': 410, 'origHeight': 410, 'width': 410, 'height': 410, 'widthPercent': 0.45, 'rescaleHeight': False, 'trialN': 75, 'loaded': True, 'loadedTime': 4020.5, 'positionName': 'RIGHT', 'positionCoords': [998.4, 335], 'bid': 7.73}]",135053.69999992847,1669846711112,yogurt no spoon,cocktailshrimp,7.75,7.73,-0.019999999999999574,cocktailshrimp,1253.5,1254,1254.3000000715256,True,i,136813.19999992847,1759.5,1669846712871,1759,HRV,HRV_0313,2022-11-30 22:21:35
76,"[{'imgObject': {}, 'id': 'apple slices', 'src': '/static/foodstim60/apple slices.jpg', 'key': 'u', 'origWidth': 409, 'origHeight': 410, 'width': 409, 'height': 410, 'widthPercent': 0.45, 'rescaleHeight': False, 'trialN': 76, 'loaded': True, 'loadedTime': 3091.899999976158, 'positionName': 'LEFT', 'positionCoords': [512.6, 335], 'bid': 5.91}, {'imgObject': {}, 'id': 'ice cream sundae 002', 'src': '/static/foodstim60/ice cream sundae 002.jpg', 'key': 'i', 'origWidth': 409, 'origHeight': 409, 'width': 409, 'height': 409, 'widthPercent': 0.45, 'rescaleHeight': False, 'trialN': 76, 'loaded': True, 'loadedTime': 4069.399999976158, 'positionName': 'RIGHT', 'positionCoords': [998.4, 335.5], 'bid': 8.81}]",136813.39999997616,1669846712871,apple slices,ice cream sundae 002,5.91,8.81,2.9000000000000004,ice cream sundae 002,1005.2999999523163,1006,1005.8999999761581,True,i,138324.89999997616,1511.5,1669846714383,1512,HRV,HRV_0313,2022-11-30 22:21:35
77,"[{'imgObject': {}, 'id': 'hotdog w must', 'src': '/static/foodstim60/hotdog w must.jpg', 'key': 'u', 'origWidth': 409, 'origHeight': 409, 'width': 409, 'height': 409, 'widthPercent': 0.45, 'rescaleHeight': False, 'trialN': 77, 'loaded': True, 'loadedTime': 2555.1999999284744, 'positionName': 'LEFT', 'positionCoords': [512.6, 335.5], 'bid': 2.91}, {'imgObject': {}, 'id': 'hashbrowns', 'src': '/static/foodstim60/hashbrowns.jpg', 'key': 'i', 'origWidth': 411, 'origHeight': 410, 'width': 411, 'height': 410, 'widthPercent': 0.45, 'rescaleHeight': False, 'trialN': 77, 'loaded': True, 'loadedTime': 3165.5999999046326, 'positionName': 'RIGHT', 'positionCoords': [998.4, 335], 'bid': 4.98}]",138325.09999990463,1669846714383,hotdog w must,hashbrowns,2.91,4.98,2.0700000000000003,hashbrowns,1321.0,1322,1321.4000000953674,True,i,140148.69999992847,1823.6000000238419,1669846716207,1824,HRV,HRV_0313,2022-11-30 22:21:35
78,"[{'imgObject': {}, 'id': 'ice cream sundae 002', 'src': '/static/foodstim60/ice cream sundae 002.jpg', 'key': 'u', 'origWidth': 409, 'origHeight': 409, 'width': 409, 'height': 409, 'widthPercent': 0.45, 'rescaleHeight': False, 'trialN': 78, 'loaded': True, 'loadedTime': 4070.399999976158, 'positionName': 'LEFT', 'positionCoords': [512.6, 335.5], 'bid': 8.81}, {'imgObject': {}, 'id': 'tacos', 'src': '/static/foodstim60/tacos.jpg', 'key': 'i', 'origWidth': 411, 'origHeight': 411, 'width': 411, 'height': 411, 'widthPercent': 0.45, 'rescaleHeight': False, 'trialN': 78, 'loaded': True, 'loadedTime': 4038.1999999284744, 'positionName': 'RIGHT', 'positionCoords': [998.4, 334.5], 'bid': 9.39}]",140148.89999997616,1669846716207,ice cream sundae 002,tacos,8.81,9.39,0.5800000000000001,ice cream sundae 002,1198.6999999284744,1199,1199.1000000238419,True,u,141852.09999990463,1703.1999999284744,1669846717910,1703,HRV,HRV_0313,2022-11-30 22:21:35
79,"[{'imgObject': {}, 'id': 'chickenfingers', 'src': '/static/foodstim60/chickenfingers.jpg', 'key': 'u', 'origWidth': 410, 'origHeight': 410, 'width': 410, 'height': 410, 'widthPercent': 0.45, 'rescaleHeight': False, 'trialN': 79, 'loaded': True, 'loadedTime': 3916, 'positionName': 'LEFT', 'positionCoords': [511.6, 335], 'bid': 9.84}, {'imgObject': {}, 'id': 'yogurt no spoon', 'src': '/static/foodstim60/yogurt no spoon.jpg', 'key': 'i', 'origWidth': 411, 'origHeight': 410, 'width': 411, 'height': 410, 'widthPercent': 0.45, 'rescaleHeight': False, 'trialN': 79, 'loaded': True, 'loadedTime': 2553.7999999523163, 'positionName': 'RIGHT', 'positionCoords': [998.4, 335], 'bid': 7.75}]",141855.0,1669846717913,chickenfingers,yogurt no spoon,9.84,7.75,-2.09,chickenfingers,1068.6999999284744,1069,1069.2999999523163,True,u,143428.19999992847,1573.1999999284744,1669846719486,1573,HRV,HRV_0313,2022-11-30 22:21:35
80,"[{'imgObject': {}, 'id': 'shreddedwheatwithmilk', 'src': '/static/foodstim60/shreddedwheatwithmilk.jpg', 'key': 'u', 'origWidth': 410, 'origHeight': 410, 'width': 410, 'height': 410, 'widthPercent': 0.45, 'rescaleHeight': False, 'trialN': 80, 'loaded': True, 'loadedTime': 3914.399999976158, 'positionName': 'LEFT', 'positionCoords': [511.6, 335], 'bid': 6.66}, {'imgObject': {}, 'id': 'apple slices', 'src': '/static/foodstim60/apple slices.jpg', 'key': 'i', 'origWidth': 409, 'origHeight': 410, 'width': 409, 'height': 410, 'widthPercent': 0.45, 'rescaleHeight': False, 'trialN': 80, 'loaded': True, 'loadedTime': 3090.0999999046326, 'positionName': 'RIGHT', 'positionCoords': [998.4, 335], 'bid': 5.91}]",143428.59999990463,1669846719487,shreddedwheatwithmilk,apple slices,6.66,5.91,-0.75,shreddedwheatwithmilk,1686.5,1687,1686.9000000953674,True,u,145620.79999995232,2192.2000000476837,1669846721679,2192,HRV,HRV_0313,2022-11-30 22:21:35
81,"[{'imgObject': {}, 'id': 'edamame', 'src': '/static/foodstim60/edamame.jpg', 'key': 'u', 'origWidth': 409, 'origHeight': 410, 'width': 409, 'height': 410, 'widthPercent': 0.45, 'rescaleHeight': False, 'trialN': 81, 'loaded': True, 'loadedTime': 4062, 'positionName': 'LEFT', 'positionCoords': [512.6, 335], 'bid': 1}, {'imgObject': {}, 'id': 'mango', 'src': '/static/foodstim60/mango.jpg', 'key': 'i', 'origWidth': 411, 'origHeight': 411, 'width': 411, 'height': 411, 'widthPercent': 0.45, 'rescaleHeight': False, 'trialN': 81, 'loaded': True, 'loadedTime': 2768.5999999046326, 'positionName': 'RIGHT', 'positionCoords': [998.4, 334.5], 'bid': 4.94}]",145621.5,1669846721680,edamame,mango,1.0,4.94,3.9400000000000004,mango,1038.1999999284744,1038,1038.6999999284744,True,i,147164.09999990463,1542.5999999046326,1669846723222,1542,HRV,HRV_0313,2022-11-30 22:21:35
82,"[{'imgObject': {}, 'id': 'edamame', 'src': '/static/foodstim60/edamame.jpg', 'key': 'u', 'origWidth': 409, 'origHeight': 410, 'width': 409, 'height': 410, 'widthPercent': 0.45, 'rescaleHeight': False, 'trialN': 82, 'loaded': True, 'loadedTime': 4066.1999999284744, 'positionName': 'LEFT', 'positionCoords': [512.6, 335], 'bid': 1}, {'imgObject': {}, 'id': 'omelette', 'src': '/static/foodstim60/omelette.jpg', 'key': 'i', 'origWidth': 410, 'origHeight': 409, 'width': 410, 'height': 409, 'widthPercent': 0.45, 'rescaleHeight': False, 'trialN': 82, 'loaded': True, 'loadedTime': 4024, 'positionName': 'RIGHT', 'positionCoords': [998.4, 335.5], 'bid': 5.63}]",147164.29999995232,1669846723222,edamame,omelette,1.0,5.63,4.63,omelette,865.0,866,865.3999999761581,True,i,148533.29999995232,1369.0,1669846724591,1369,HRV,HRV_0313,2022-11-30 22:21:35
83,"[{'imgObject': {}, 'id': 'blueberries', 'src': '/static/foodstim60/blueberries.jpg', 'key': 'u', 'origWidth': 411, 'origHeight': 411, 'width': 411, 'height': 411, 'widthPercent': 0.45, 'rescaleHeight': False, 'trialN': 83, 'loaded': True, 'loadedTime': 4044.5, 'positionName': 'LEFT', 'positionCoords': [510.6, 334.5], 'bid': 6.67}, {'imgObject': {}, 'id': 'rigatoni and sauce', 'src': '/static/foodstim60/rigatoni and sauce.jpg', 'key': 'i', 'origWidth': 410, 'origHeight': 411, 'width': 410, 'height': 411, 'widthPercent': 0.45, 'rescaleHeight': False, 'trialN': 83, 'loaded': True, 'loadedTime': 3631.2999999523163, 'positionName': 'RIGHT', 'positionCoords': [998.4, 334.5], 'bid': 8.06}]",148533.5,1669846724592,blueberries,rigatoni and sauce,6.67,8.06,1.3900000000000006,rigatoni and sauce,1505.1999999284744,1505,1505.5999999046326,True,i,150541.69999992847,2008.1999999284744,1669846726600,2008,HRV,HRV_0313,2022-11-30 22:21:35
84,"[{'imgObject': {}, 'id': 'mashed potato', 'src': '/static/foodstim60/mashed potato.jpg', 'key': 'u', 'origWidth': 409, 'origHeight': 409, 'width': 409, 'height': 409, 'widthPercent': 0.45, 'rescaleHeight': False, 'trialN': 84, 'loaded': True, 'loadedTime': 3911.5, 'positionName': 'LEFT', 'positionCoords': [512.6, 335.5], 'bid': 5.71}, {'imgObject': {}, 'id': 'Tribe humus pita', 'src': '/static/foodstim60/Tribe humus pita.jpg', 'key': 'i', 'origWidth': 411, 'origHeight': 411, 'width': 411, 'height': 411, 'widthPercent': 0.45, 'rescaleHeight': False, 'trialN': 84, 'loaded': True, 'loadedTime': 3571.899999976158, 'positionName': 'RIGHT', 'positionCoords': [998.4, 334.5], 'bid': 3.36}]",150541.79999995232,1669846726600,mashed potato,Tribe humus pita,5.71,3.36,-2.35,mashed potato,1021.3999999761581,1022,1021.7999999523163,True,u,152069.09999990463,1527.2999999523163,1669846728127,1527,HRV,HRV_0313,2022-11-30 22:21:35
85,"[{'imgObject': {}, 'id': 'mango', 'src': '/static/foodstim60/mango.jpg', 'key': 'u', 'origWidth': 411, 'origHeight': 411, 'width': 411, 'height': 411, 'widthPercent': 0.45, 'rescaleHeight': False, 'trialN': 85, 'loaded': True, 'loadedTime': 2769.5, 'positionName': 'LEFT', 'positionCoords': [510.6, 334.5], 'bid': 4.94}, {'imgObject': {}, 'id': 'hashbrowns', 'src': '/static/foodstim60/hashbrowns.jpg', 'key': 'i', 'origWidth': 411, 'origHeight': 410, 'width': 411, 'height': 410, 'widthPercent': 0.45, 'rescaleHeight': False, 'trialN': 85, 'loaded': True, 'loadedTime': 3164.1999999284744, 'positionName': 'RIGHT', 'positionCoords': [998.4, 335], 'bid': 4.98}]",152069.89999997616,1669846728128,mango,hashbrowns,4.94,4.98,0.040000000000000036,hashbrowns,964.6999999284744,965,965.0,True,i,153540.09999990463,1470.1999999284744,1669846729598,1470,HRV,HRV_0313,2022-11-30 22:21:35
86,"[{'imgObject': {}, 'id': 'kiwi', 'src': '/static/foodstim60/kiwi.jpg', 'key': 'u', 'origWidth': 410, 'origHeight': 410, 'width': 410, 'height': 410, 'widthPercent': 0.45, 'rescaleHeight': False, 'trialN': 86, 'loaded': True, 'loadedTime': 4017.5999999046326, 'positionName': 'LEFT', 'positionCoords': [511.6, 335], 'bid': 6.51}, {'imgObject': {}, 'id': 'banana', 'src': '/static/foodstim60/banana.jpg', 'key': 'i', 'origWidth': 410, 'origHeight': 410, 'width': 410, 'height': 410, 'widthPercent': 0.45, 'rescaleHeight': False, 'trialN': 86, 'loaded': True, 'loadedTime': 3203.6999999284744, 'positionName': 'RIGHT', 'positionCoords': [998.4, 335], 'bid': 6.41}]",153540.19999992847,1669846729598,kiwi,banana,6.51,6.41,-0.09999999999999964,banana,1551.7000000476837,1553,1552.6000000238419,True,i,155596.89999997616,2056.7000000476837,1669846731655,2057,HRV,HRV_0313,2022-11-30 22:21:35
87,"[{'imgObject': {}, 'id': 'burrito', 'src': '/static/foodstim60/burrito.jpg', 'key': 'u', 'origWidth': 410, 'origHeight': 410, 'width': 410, 'height': 410, 'widthPercent': 0.45, 'rescaleHeight': False, 'trialN': 87, 'loaded': True, 'loadedTime': 2539.899999976158, 'positionName': 'LEFT', 'positionCoords': [511.6, 335], 'bid': 7.63}, {'imgObject': {}, 'id': 'banana', 'src': '/static/foodstim60/banana.jpg', 'key': 'i', 'origWidth': 410, 'origHeight': 410, 'width': 410, 'height': 410, 'widthPercent': 0.45, 'rescaleHeight': False, 'trialN': 87, 'loaded': True, 'loadedTime': 3204.0999999046326, 'positionName': 'RIGHT', 'positionCoords': [998.4, 335], 'bid': 6.41}]",155597.19999992847,1669846731655,burrito,banana,7.63,6.41,-1.2199999999999998,burrito,1496.0,1497,1496.5,True,u,157597.19999992847,2000.0,1669846733656,2001,HRV,HRV_0313,2022-11-30 22:21:35
88,"[{'imgObject': {}, 'id': 'grilled chicken strips', 'src': '/static/foodstim60/grilled chicken strips.jpg', 'key': 'u', 'origWidth': 410, 'origHeight': 411, 'width': 410, 'height': 411, 'widthPercent': 0.45, 'rescaleHeight': False, 'trialN': 88, 'loaded': True, 'loadedTime': 3953.5, 'positionName': 'LEFT', 'positionCoords': [511.6, 334.5], 'bid': 7.57}, {'imgObject': {}, 'id': 'sushi w_condiments', 'src': '/static/foodstim60/sushi w_condiments.jpg', 'key': 'i', 'origWidth': 410, 'origHeight': 410, 'width': 410, 'height': 410, 'widthPercent': 0.45, 'rescaleHeight': False, 'trialN': 88, 'loaded': True, 'loadedTime': 2798.2999999523163, 'positionName': 'RIGHT', 'positionCoords': [998.4, 335], 'bid': 9.93}]",157597.29999995232,1669846733656,grilled chicken strips,sushi w_condiments,7.57,9.93,2.3599999999999994,sushi w_condiments,906.0,906,906.3999999761581,True,i,159005.69999992847,1408.3999999761581,1669846735064,1408,HRV,HRV_0313,2022-11-30 22:21:35
89,"[{'imgObject': {}, 'id': 'strawberries', 'src': '/static/foodstim60/strawberries.jpg', 'key': 'u', 'origWidth': 410, 'origHeight': 410, 'width': 410, 'height': 410, 'widthPercent': 0.45, 'rescaleHeight': False, 'trialN': 89, 'loaded': True, 'loadedTime': 3368.5999999046326, 'positionName': 'LEFT', 'positionCoords': [511.6, 335], 'bid': 7.36}, {'imgObject': {}, 'id': 'froot loops w milk', 'src': '/static/foodstim60/froot loops w milk.jpg', 'key': 'i', 'origWidth': 410, 'origHeight': 410, 'width': 410, 'height': 410, 'widthPercent': 0.45, 'rescaleHeight': False, 'trialN': 89, 'loaded': True, 'loadedTime': 3901.0999999046326, 'positionName': 'RIGHT', 'positionCoords': [998.4, 335], 'bid': 7.28}]",159006.09999990463,1669846735065,strawberries,froot loops w milk,7.36,7.28,-0.08000000000000007,strawberries,956.4000000953674,957,957.0,True,u,160468.69999992847,1462.6000000238419,1669846736527,1462,HRV,HRV_0313,2022-11-30 22:21:35
90,"[{'imgObject': {}, 'id': 'corn cob', 'src': '/static/foodstim60/corn cob.jpg', 'key': 'u', 'origWidth': 411, 'origHeight': 411, 'width': 411, 'height': 411, 'widthPercent': 0.45, 'rescaleHeight': False, 'trialN': 90, 'loaded': True, 'loadedTime': 4013.7999999523163, 'positionName': 'LEFT', 'positionCoords': [510.6, 334.5], 'bid': 6.04}, {'imgObject': {}, 'id': 'Grapes', 'src': '/static/foodstim60/Grapes.jpg', 'key': 'i', 'origWidth': 411, 'origHeight': 411, 'width': 411, 'height': 411, 'widthPercent': 0.45, 'rescaleHeight': False, 'trialN': 90, 'loaded': True, 'loadedTime': 4023.399999976158, 'positionName': 'RIGHT', 'positionCoords': [998.4, 334.5], 'bid': 3.51}]",163581.0,1669846739640,corn cob,Grapes,6.04,3.51,-2.5300000000000002,corn cob,1310.3999999761581,1311,1311.1999999284744,True,u,165396.59999990463,1815.5999999046326,1669846741455,1815,HRV,HRV_0313,2022-11-30 22:21:35
91,"[{'imgObject': {}, 'id': 'blackbeanswithrice', 'src': '/static/foodstim60/blackbeanswithrice.jpg', 'key': 'u', 'origWidth': 410, 'origHeight': 410, 'width': 410, 'height': 410, 'widthPercent': 0.45, 'rescaleHeight': False, 'trialN': 91, 'loaded': True, 'loadedTime': 2500.5, 'positionName': 'LEFT', 'positionCoords': [511.6, 335], 'bid': 3.76}, {'imgObject': {}, 'id': 'Grapes', 'src': '/static/foodstim60/Grapes.jpg', 'key': 'i', 'origWidth': 411, 'origHeight': 411, 'width': 411, 'height': 411, 'widthPercent': 0.45, 'rescaleHeight': False, 'trialN': 91, 'loaded': True, 'loadedTime': 4022.7999999523163, 'positionName': 'RIGHT', 'positionCoords': [998.4, 334.5], 'bid': 3.51}]",165396.89999997616,1669846741456,blackbeanswithrice,Grapes,3.76,3.51,-0.25,Grapes,1667.0,1667,1667.6000000238419,True,i,167565.5,2168.600000023842,1669846743624,2168,HRV,HRV_0313,2022-11-30 22:21:35
92,"[{'imgObject': {}, 'id': 'turkeysandwich', 'src': '/static/foodstim60/turkeysandwich.jpg', 'key': 'u', 'origWidth': 409, 'origHeight': 409, 'width': 409, 'height': 409, 'widthPercent': 0.45, 'rescaleHeight': False, 'trialN': 92, 'loaded': True, 'loadedTime': 3312.0999999046326, 'positionName': 'LEFT', 'positionCoords': [512.6, 335.5], 'bid': 6.79}, {'imgObject': {}, 'id': 'rigatoni', 'src': '/static/foodstim60/rigatoni.jpg', 'key': 'i', 'origWidth': 411, 'origHeight': 411, 'width': 411, 'height': 411, 'widthPercent': 0.45, 'rescaleHeight': False, 'trialN': 92, 'loaded': True, 'loadedTime': 3549, 'positionName': 'RIGHT', 'positionCoords': [998.4, 334.5], 'bid': 6.91}]",167565.59999990463,1669846743624,turkeysandwich,rigatoni,6.79,6.91,0.1200000000000001,turkeysandwich,801.2000000476837,802,801.4000000953674,True,u,168868.69999992847,1303.1000000238419,1669846744927,1303,HRV,HRV_0313,2022-11-30 22:21:35
93,"[{'imgObject': {}, 'id': 'veggieswithdip', 'src': '/static/foodstim60/veggieswithdip.jpg', 'key': 'u', 'origWidth': 409, 'origHeight': 409, 'width': 409, 'height': 409, 'widthPercent': 0.45, 'rescaleHeight': False, 'trialN': 93, 'loaded': True, 'loadedTime': 2560.899999976158, 'positionName': 'LEFT', 'positionCoords': [512.6, 335.5], 'bid': 5.03}, {'imgObject': {}, 'id': 'hashbrowns', 'src': '/static/foodstim60/hashbrowns.jpg', 'key': 'i', 'origWidth': 411, 'origHeight': 410, 'width': 411, 'height': 410, 'widthPercent': 0.45, 'rescaleHeight': False, 'trialN': 93, 'loaded': True, 'loadedTime': 3159.7999999523163, 'positionName': 'RIGHT', 'positionCoords': [998.4, 335], 'bid': 4.98}]",168869.0,1669846744928,veggieswithdip,hashbrowns,5.03,4.98,-0.04999999999999982,veggieswithdip,1459.1999999284744,1459,1459.5999999046326,True,u,170836.59999990463,1967.5999999046326,1669846746895,1967,HRV,HRV_0313,2022-11-30 22:21:35
94,"[{'imgObject': {}, 'id': 'popsicles', 'src': '/static/foodstim60/popsicles.jpg', 'key': 'u', 'origWidth': 410, 'origHeight': 410, 'width': 410, 'height': 410, 'widthPercent': 0.45, 'rescaleHeight': False, 'trialN': 94, 'loaded': True, 'loadedTime': 4006.1999999284744, 'positionName': 'LEFT', 'positionCoords': [511.6, 335], 'bid': 7.0600000000000005}, {'imgObject': {}, 'id': 'granola w milk', 'src': '/static/foodstim60/granola w milk.jpg', 'key': 'i', 'origWidth': 410, 'origHeight': 410, 'width': 410, 'height': 410, 'widthPercent': 0.45, 'rescaleHeight': False, 'trialN': 94, 'loaded': True, 'loadedTime': 3823.5999999046326, 'positionName': 'RIGHT', 'positionCoords': [998.4, 335], 'bid': 6.4}]",170836.79999995232,1669846746895,popsicles,granola w milk,7.0600000000000005,6.4,-0.6600000000000001,granola w milk,1300.2999999523163,1301,1300.6000000238419,True,i,172645.09999990463,1808.2999999523163,1669846748704,1809,HRV,HRV_0313,2022-11-30 22:21:35
95,"[{'imgObject': {}, 'id': 'seaweed', 'src': '/static/foodstim60/seaweed.jpg', 'key': 'u', 'origWidth': 410, 'origHeight': 410, 'width': 410, 'height': 410, 'widthPercent': 0.45, 'rescaleHeight': False, 'trialN': 95, 'loaded': True, 'loadedTime': 3705.2999999523163, 'positionName': 'LEFT', 'positionCoords': [511.6, 335], 'bid': 0.02}, {'imgObject': {}, 'id': 'edamame', 'src': '/static/foodstim60/edamame.jpg', 'key': 'i', 'origWidth': 409, 'origHeight': 410, 'width': 409, 'height': 410, 'widthPercent': 0.45, 'rescaleHeight': False, 'trialN': 95, 'loaded': True, 'loadedTime': 4065.7999999523163, 'positionName': 'RIGHT', 'positionCoords': [998.4, 335], 'bid': 1}]",172645.29999995232,1669846748704,seaweed,edamame,0.02,1.0,0.98,edamame,1260.7999999523163,1261,1261.2000000476837,True,i,174413.59999990463,1768.2999999523163,1669846750472,1768,HRV,HRV_0313,2022-11-30 22:21:35
96,"[{'imgObject': {}, 'id': 'avocado', 'src': '/static/foodstim60/avocado.jpg', 'key': 'u', 'origWidth': 409, 'origHeight': 409, 'width': 409, 'height': 409, 'widthPercent': 0.45, 'rescaleHeight': False, 'trialN': 96, 'loaded': True, 'loadedTime': 3448.5, 'positionName': 'LEFT', 'positionCoords': [512.6, 335.5], 'bid': 10}, {'imgObject': {}, 'id': 'chickenfingers', 'src': '/static/foodstim60/chickenfingers.jpg', 'key': 'i', 'origWidth': 410, 'origHeight': 410, 'width': 410, 'height': 410, 'widthPercent': 0.45, 'rescaleHeight': False, 'trialN': 96, 'loaded': True, 'loadedTime': 3920.399999976158, 'positionName': 'RIGHT', 'positionCoords': [998.4, 335], 'bid': 9.84}]",174413.79999995232,1669846750472,avocado,chickenfingers,10.0,9.84,-0.16000000000000014,chickenfingers,1443.2000000476837,1444,1443.3999999761581,True,i,176365.69999992847,1951.8999999761581,1669846752424,1952,HRV,HRV_0313,2022-11-30 22:21:35
97,"[{'imgObject': {}, 'id': 'fruitsalad', 'src': '/static/foodstim60/fruitsalad.jpg', 'key': 'u', 'origWidth': 410, 'origHeight': 410, 'width': 410, 'height': 410, 'widthPercent': 0.45, 'rescaleHeight': False, 'trialN': 97, 'loaded': True, 'loadedTime': 4044.7999999523163, 'positionName': 'LEFT', 'positionCoords': [511.6, 335], 'bid': 8.23}, {'imgObject': {}, 'id': 'burger', 'src': '/static/foodstim60/burger.jpg', 'key': 'i', 'origWidth': 409, 'origHeight': 409, 'width': 409, 'height': 409, 'widthPercent': 0.45, 'rescaleHeight': False, 'trialN': 97, 'loaded': True, 'loadedTime': 2557.5, 'positionName': 'RIGHT', 'positionCoords': [998.4, 335.5], 'bid': 5.69}]",176365.79999995232,1669846752424,fruitsalad,burger,8.23,5.69,-2.54,fruitsalad,1684.3999999761581,1685,1684.8999999761581,True,u,178557.0,2191.2000000476837,1669846754616,2192,HRV,HRV_0313,2022-11-30 22:21:35
98,"[{'imgObject': {}, 'id': 'cherries', 'src': '/static/foodstim60/cherries.jpg', 'key': 'u', 'origWidth': 410, 'origHeight': 411, 'width': 410, 'height': 411, 'widthPercent': 0.45, 'rescaleHeight': False, 'trialN': 98, 'loaded': True, 'loadedTime': 3119.6999999284744, 'positionName': 'LEFT', 'positionCoords': [511.6, 334.5], 'bid': 6.0600000000000005}, {'imgObject': {}, 'id': 'blackbeanswithrice', 'src': '/static/foodstim60/blackbeanswithrice.jpg', 'key': 'i', 'origWidth': 410, 'origHeight': 410, 'width': 410, 'height': 410, 'widthPercent': 0.45, 'rescaleHeight': False, 'trialN': 98, 'loaded': True, 'loadedTime': 2489.7999999523163, 'positionName': 'RIGHT', 'positionCoords': [998.4, 335], 'bid': 3.76}]",178557.29999995232,1669846754616,cherries,blackbeanswithrice,6.0600000000000005,3.76,-2.3000000000000007,cherries,1079.1000000238419,1079,1079.2999999523163,True,u,180140.19999992847,1582.8999999761581,1669846756199,1583,HRV,HRV_0313,2022-11-30 22:21:35
99,"[{'imgObject': {}, 'id': 'bagel plain', 'src': '/static/foodstim60/bagel plain.jpg', 'key': 'u', 'origWidth': 410, 'origHeight': 410, 'width': 410, 'height': 410, 'widthPercent': 0.45, 'rescaleHeight': False, 'trialN': 99, 'loaded': True, 'loadedTime': 3155.6999999284744, 'positionName': 'LEFT', 'positionCoords': [511.6, 335], 'bid': 6.51}, {'imgObject': {}, 'id': 'yogurt no spoon', 'src': '/static/foodstim60/yogurt no spoon.jpg', 'key': 'i', 'origWidth': 411, 'origHeight': 410, 'width': 411, 'height': 410, 'widthPercent': 0.45, 'rescaleHeight': False, 'trialN': 99, 'loaded': True, 'loadedTime': 2551.6999999284744, 'positionName': 'RIGHT', 'positionCoords': [998.4, 335], 'bid': 7.75}]",180140.29999995232,1669846756199,bagel plain,yogurt no spoon,6.51,7.75,1.2400000000000002,yogurt no spoon,1383.1000000238419,1384,1383.6000000238419,True,i,182028.39999997616,1888.1000000238419,1669846758087,1888,HRV,HRV_0313,2022-11-30 22:21:35
100,"[{'imgObject': {}, 'id': 'mac & cheese', 'src': '/static/foodstim60/mac & cheese.jpg', 'key': 'u', 'origWidth': 410, 'origHeight': 410, 'width': 410, 'height': 410, 'widthPercent': 0.45, 'rescaleHeight': False, 'trialN': 100, 'loaded': True, 'loadedTime': 4032, 'positionName': 'LEFT', 'positionCoords': [511.6, 335], 'bid': 8.13}, {'imgObject': {}, 'id': 'rigatoni and sauce', 'src': '/static/foodstim60/rigatoni and sauce.jpg', 'key': 'i', 'origWidth': 410, 'origHeight': 411, 'width': 410, 'height': 411, 'widthPercent': 0.45, 'rescaleHeight': False, 'trialN': 100, 'loaded': True, 'loadedTime': 3634.899999976158, 'positionName': 'RIGHT', 'positionCoords': [998.4, 334.5], 'bid': 8.06}]",182028.59999990463,1669846758087,mac & cheese,rigatoni and sauce,8.13,8.06,-0.07000000000000028,rigatoni and sauce,1338.3000000715256,1339,1338.8000000715256,True,i,183868.29999995232,1839.7000000476837,1669846759927,1840,HRV,HRV_0313,2022-11-30 22:21:35
101,"[{'imgObject': {}, 'id': 'lox', 'src': '/static/foodstim60/lox.jpg', 'key': 'u', 'origWidth': 410, 'origHeight': 411, 'width': 410, 'height': 411, 'widthPercent': 0.45, 'rescaleHeight': False, 'trialN': 101, 'loaded': True, 'loadedTime': 2531.1999999284744, 'positionName': 'LEFT', 'positionCoords': [511.6, 334.5], 'bid': 0.08}, {'imgObject': {}, 'id': 'hotdog w must', 'src': '/static/foodstim60/hotdog w must.jpg', 'key': 'i', 'origWidth': 409, 'origHeight': 409, 'width': 409, 'height': 409, 'widthPercent': 0.45, 'rescaleHeight': False, 'trialN': 101, 'loaded': True, 'loadedTime': 2555.6999999284744, 'positionName': 'RIGHT', 'positionCoords': [998.4, 335.5], 'bid': 2.91}]",183868.5,1669846759927,lox,hotdog w must,0.08,2.91,2.83,hotdog w must,1124.0,1124,1124.1999999284744,True,i,185500.79999995232,1632.2999999523163,1669846761559,1632,HRV,HRV_0313,2022-11-30 22:21:35
102,"[{'imgObject': {}, 'id': 'roastedpotatoes', 'src': '/static/foodstim60/roastedpotatoes.jpg', 'key': 'u', 'origWidth': 409, 'origHeight': 410, 'width': 409, 'height': 410, 'widthPercent': 0.45, 'rescaleHeight': False, 'trialN': 102, 'loaded': True, 'loadedTime': 3688.1999999284744, 'positionName': 'LEFT', 'positionCoords': [512.6, 335], 'bid': 5.26}, {'imgObject': {}, 'id': 'banana', 'src': '/static/foodstim60/banana.jpg', 'key': 'i', 'origWidth': 410, 'origHeight': 410, 'width': 410, 'height': 410, 'widthPercent': 0.45, 'rescaleHeight': False, 'trialN': 102, 'loaded': True, 'loadedTime': 3204.1999999284744, 'positionName': 'RIGHT', 'positionCoords': [998.4, 335], 'bid': 6.41}]",185500.89999997616,1669846761560,roastedpotatoes,banana,5.26,6.41,1.1500000000000004,banana,1555.8999999761581,1556,1556.1999999284744,True,i,187558.0,2057.100000023842,1669846763617,2057,HRV,HRV_0313,2022-11-30 22:21:35
103,"[{'imgObject': {}, 'id': 'fruitsalad', 'src': '/static/foodstim60/fruitsalad.jpg', 'key': 'u', 'origWidth': 410, 'origHeight': 410, 'width': 410, 'height': 410, 'widthPercent': 0.45, 'rescaleHeight': False, 'trialN': 103, 'loaded': True, 'loadedTime': 4060.5999999046326, 'positionName': 'LEFT', 'positionCoords': [511.6, 335], 'bid': 8.23}, {'imgObject': {}, 'id': 'strawberries', 'src': '/static/foodstim60/strawberries.jpg', 'key': 'i', 'origWidth': 410, 'origHeight': 410, 'width': 410, 'height': 410, 'widthPercent': 0.45, 'rescaleHeight': False, 'trialN': 103, 'loaded': True, 'loadedTime': 3313.5, 'positionName': 'RIGHT', 'positionCoords': [998.4, 335], 'bid': 7.36}]",187558.69999992847,1669846763617,fruitsalad,strawberries,8.23,7.36,-0.8700000000000001,fruitsalad,1490.8999999761581,1492,1491.8999999761581,True,u,189556.69999992847,1998.0,1669846765615,1998,HRV,HRV_0313,2022-11-30 22:21:35
104,"[{'imgObject': {}, 'id': 'Tribe humus pita', 'src': '/static/foodstim60/Tribe humus pita.jpg', 'key': 'u', 'origWidth': 411, 'origHeight': 411, 'width': 411, 'height': 411, 'widthPercent': 0.45, 'rescaleHeight': False, 'trialN': 104, 'loaded': True, 'loadedTime': 3571.7999999523163, 'positionName': 'LEFT', 'positionCoords': [510.6, 334.5], 'bid': 3.36}, {'imgObject': {}, 'id': 'steak', 'src': '/static/foodstim60/steak.jpg', 'key': 'i', 'origWidth': 410, 'origHeight': 410, 'width': 410, 'height': 410, 'widthPercent': 0.45, 'rescaleHeight': False, 'trialN': 104, 'loaded': True, 'loadedTime': 2703.6999999284744, 'positionName': 'RIGHT', 'positionCoords': [998.4, 335], 'bid': 5}]",189557.09999990463,1669846765616,Tribe humus pita,steak,3.36,5.0,1.6400000000000001,steak,1931.6000000238419,1932,1932.1000000238419,True,i,191996.5,2439.4000000953674,1669846768055,2439,HRV,HRV_0313,2022-11-30 22:21:35
105,"[{'imgObject': {}, 'id': 'chickenfingers', 'src': '/static/foodstim60/chickenfingers.jpg', 'key': 'u', 'origWidth': 410, 'origHeight': 410, 'width': 410, 'height': 410, 'widthPercent': 0.45, 'rescaleHeight': False, 'trialN': 105, 'loaded': True, 'loadedTime': 3919.0999999046326, 'positionName': 'LEFT', 'positionCoords': [511.6, 335], 'bid': 9.84}, {'imgObject': {}, 'id': 'mac & cheese', 'src': '/static/foodstim60/mac & cheese.jpg', 'key': 'i', 'origWidth': 410, 'origHeight': 410, 'width': 410, 'height': 410, 'widthPercent': 0.45, 'rescaleHeight': False, 'trialN': 105, 'loaded': True, 'loadedTime': 4031, 'positionName': 'RIGHT', 'positionCoords': [998.4, 335], 'bid': 8.13}]",191996.69999992847,1669846768055,chickenfingers,mac & cheese,9.84,8.13,-1.709999999999999,chickenfingers,1242.0,1243,1242.5,True,u,193740.69999992847,1744.0,1669846769799,1744,HRV,HRV_0313,2022-11-30 22:21:35
106,"[{'imgObject': {}, 'id': 'mashed potato', 'src': '/static/foodstim60/mashed potato.jpg', 'key': 'u', 'origWidth': 409, 'origHeight': 409, 'width': 409, 'height': 409, 'widthPercent': 0.45, 'rescaleHeight': False, 'trialN': 106, 'loaded': True, 'loadedTime': 3911.6999999284744, 'positionName': 'LEFT', 'positionCoords': [512.6, 335.5], 'bid': 5.71}, {'imgObject': {}, 'id': 'omelette', 'src': '/static/foodstim60/omelette.jpg', 'key': 'i', 'origWidth': 410, 'origHeight': 409, 'width': 410, 'height': 409, 'widthPercent': 0.45, 'rescaleHeight': False, 'trialN': 106, 'loaded': True, 'loadedTime': 4028.5999999046326, 'positionName': 'RIGHT', 'positionCoords': [998.4, 335.5], 'bid': 5.63}]",193742.0,1669846769801,mashed potato,omelette,5.71,5.63,-0.08000000000000007,mashed potato,1126.3999999761581,1126,1126.6999999284744,True,u,195372.5,1630.5,1669846771431,1630,HRV,HRV_0313,2022-11-30 22:21:35
107,"[{'imgObject': {}, 'id': 'fruitsalad', 'src': '/static/foodstim60/fruitsalad.jpg', 'key': 'u', 'origWidth': 410, 'origHeight': 410, 'width': 410, 'height': 410, 'widthPercent': 0.45, 'rescaleHeight': False, 'trialN': 107, 'loaded': True, 'loadedTime': 4061.1999999284744, 'positionName': 'LEFT', 'positionCoords': [511.6, 335], 'bid': 8.23}, {'imgObject': {}, 'id': 'turkey sandwich', 'src': '/static/foodstim60/turkey sandwich.jpg', 'key': 'i', 'origWidth': 409, 'origHeight': 409, 'width': 409, 'height': 409, 'widthPercent': 0.45, 'rescaleHeight': False, 'trialN': 107, 'loaded': True, 'loadedTime': 3979, 'positionName': 'RIGHT', 'positionCoords': [998.4, 335.5], 'bid': 8.31}]",195375.29999995232,1669846771434,fruitsalad,turkey sandwich,8.23,8.31,0.08000000000000007,turkey sandwich,924.7999999523163,925,925.0,True,i,196804.5,1429.2000000476837,1669846772863,1429,HRV,HRV_0313,2022-11-30 22:21:35
108,"[{'imgObject': {}, 'id': 'mac & cheese', 'src': '/static/foodstim60/mac & cheese.jpg', 'key': 'u', 'origWidth': 410, 'origHeight': 410, 'width': 410, 'height': 410, 'widthPercent': 0.45, 'rescaleHeight': False, 'trialN': 108, 'loaded': True, 'loadedTime': 4028.7999999523163, 'positionName': 'LEFT', 'positionCoords': [511.6, 335], 'bid': 8.13}, {'imgObject': {}, 'id': 'turkeysandwich', 'src': '/static/foodstim60/turkeysandwich.jpg', 'key': 'i', 'origWidth': 409, 'origHeight': 409, 'width': 409, 'height': 409, 'widthPercent': 0.45, 'rescaleHeight': False, 'trialN': 108, 'loaded': True, 'loadedTime': 3295, 'positionName': 'RIGHT', 'positionCoords': [998.4, 335.5], 'bid': 6.79}]",196805.0,1669846772864,mac & cheese,turkeysandwich,8.13,6.79,-1.3400000000000007,turkeysandwich,1319.0,1319,1319.3999999761581,True,i,198629.59999990463,1824.5999999046326,1669846774688,1824,HRV,HRV_0313,2022-11-30 22:21:35
