success,trial_type,trial_index,time_elapsed,internal_node_id,Block,TrialNumber,TrialTime,trialTimeDiff,FPS_avg,FPS_med,FPS_mode,TrialDur,winResizeTime,rt,block,button_pressed,MotCoh,MotDir,ColCoh,Color,ChoiceKey,Choice,Accuracy,RT,nFrames,FPS,PPD,missTrial,missTrialMsg,onsetDelay,fullScreenExitTime,canvCenter,TrialType,Score,BlockTrial,stimulus,button_labels,exp,subjectId,date
True,fullscreen,0,1770,0.0-0.0,0.0,1.0,,,,,,,,,,,,,,,,,,,,,,,,,,,,,,,,HRV,HRV_0238,2022-11-30 19:24:04
,wl-check-fps,1,6787,0.0-1.0,0.0,2.0,"[2416.2, 2432.3, 2448.8, 2465.8, 2482.3, 2498.9, 2515.5, 2532.2, 2549.1, 2565.5, 2582.2, 2598.8, 2615.4, 2632, 2648.8, 2665.5, 2682.1, 2698.9, 2715.4, 2732.2, 2748.9, 2765.5, 2782, 2798.9, 2815.7, 2832.3, 2848.8, 2865.5, 2882.1, 2899, 2915.5, 2932.1, 2948.9, 2965.5, 2982.3, 2998.8, 3015.3, 3032.2, 3048.8, 3065.5, 3082.1, 3098.8, 3115.5, 3132.4, 3148.8, 3165.8, 3182.3, 3198.8, 3215.5, 3232.2, 3249.1, 3265.6, 3282.2, 3298.9, 3315.4, 3332.6, 3348.9, 3365.5, 3382.4, 3398.9, 3415.5, 3432.3, 3449, 3465.3, 3482, 3498.7, 3515.4, 3532.2, 3548.9, 3565.5, 3582.2, 3598.7, 3615.5, 3632.2, 3648.7, 3665.3, 3682.2, 3698.8, 3715.4, 3732.2, 3748.7, 3765.6, 3782.2, 3798.9, 3815.6, 3832.1, 3848.9, 3865.5, 3882.1, 3899.2, 3915.4, 3932.1, 3949.1, 3965.5, 3982, 3998.7, 4015.4, 4032.1, 4048.7, 4065.5, 4082.1, 4098.9, 4115.3, 4132, 4148.7, 4165.3, 4181.9, 4198.7, 4215.3, 4232, 4248.7, 4265.4, 4282, 4298.6, 4315.4, 4332, 4348.6, 4365.3, 4381.9, 4398.7, 4415.4, 4431.9, 4448.7, 4465.3, 4482, 4498.7, 4515.3, 4532.2, 4548.7, 4565.4, 4582.3, 4598.8, 4615.3, 4632.1, 4648.7, 4665.4, 4682.2, 4698.9, 4715.3, 4732, 4748.7, 4765.5, 4782.2, 4798.8, 4816.2, 4832.4, 4848.7, 4865.5, 4882.2, 4898.8, 4915.6, 4932.1, 4948.8, 4965.4, 4982.1, 4998.7, 5015.4, 5032.2, 5048.6, 5065.4, 5082.2, 5098.7, 5115.4, 5132.1, 5148.8, 5165.4, 5182.1, 5198.8, 5215.5, 5232.2, 5248.9, 5265.5, 5282.2, 5298.7, 5315.4, 5332.1, 5348.7, 5365.5, 5382.2, 5398.8, 5415.6, 5432.2, 5448.9, 5465.6, 5482.3, 5499, 5515.6, 5532.1, 5548.9, 5566.5, 5582.2, 5599, 5615.6, 5632.1, 5649, 5665.6, 5682.2, 5699, 5715.5, 5732.3, 5748.9, 5765.6, 5782.6, 5799.2, 5817, 5832.2, 5848.8, 5865.4, 5882.1, 5898.8, 5915.6, 5932.1, 5948.8, 5965.5, 5982.1, 5998.9, 6015.4, 6032.1, 6048.8, 6065.5, 6082.3, 6099, 6115.5, 6132.4, 6149.3, 6165.5, 6182.2, 6199, 6217.2, 6233.8, 6249.3, 6266, 6282.3, 6298.7, 6315.5, 6332.1, 6348.9, 6365.4, 6382.1, 6399, 6415.6, 6432.3, 6448.9, 6465.6, 6482.3, 6499, 6515.6, 6532.1, 6548.9, 6565.5, 6582.1, 6598.7, 6615.5, 6632.2, 6648.8, 6665.5, 6682.2, 6699.6, 6715.4, 6732.1, 6748.8, 6765.4, 6782.3, 6798.9, 6815.7, 6832.2, 6848.8, 6865.5, 6882.2, 6898.8, 6915.4, 6932.2, 6948.8, 6965.4, 6982, 6998.7, 7015.5, 7032.1, 7049, 7065.6, 7082.1, 7098.9, 7115.3, 7132.1, 7148.9, 7165.3, 7182.1, 7198.8, 7215.3, 7232, 7248.8, 7265.5, 7282.1, 7298.8, 7315.3, 7332, 7348.9, 7365.4, 7382.2, 7398.7]","[15.6, 16.1, 16.5, 17, 16.5, 16.6, 16.6, 16.7, 16.9, 16.4, 16.7, 16.6, 16.6, 16.6, 16.8, 16.7, 16.6, 16.8, 16.5, 16.8, 16.7, 16.6, 16.5, 16.9, 16.8, 16.6, 16.5, 16.7, 16.6, 16.9, 16.5, 16.6, 16.8, 16.6, 16.8, 16.5, 16.5, 16.9, 16.6, 16.7, 16.6, 16.7, 16.7, 16.9, 16.4, 17, 16.5, 16.5, 16.7, 16.7, 16.9, 16.5, 16.6, 16.7, 16.5, 17.2, 16.3, 16.6, 16.9, 16.5, 16.6, 16.8, 16.7, 16.3, 16.7, 16.7, 16.7, 16.8, 16.7, 16.6, 16.7, 16.5, 16.8, 16.7, 16.5, 16.6, 16.9, 16.6, 16.6, 16.8, 16.5, 16.9, 16.6, 16.7, 16.7, 16.5, 16.8, 16.6, 16.6, 17.1, 16.2, 16.7, 17, 16.4, 16.5, 16.7, 16.7, 16.7, 16.6, 16.8, 16.6, 16.8, 16.4, 16.7, 16.7, 16.6, 16.6, 16.8, 16.6, 16.7, 16.7, 16.7, 16.6, 16.6, 16.8, 16.6, 16.6, 16.7, 16.6, 16.8, 16.7, 16.5, 16.8, 16.6, 16.7, 16.7, 16.6, 16.9, 16.5, 16.7, 16.9, 16.5, 16.5, 16.8, 16.6, 16.7, 16.8, 16.7, 16.4, 16.7, 16.7, 16.8, 16.7, 16.6, 17.4, 16.2, 16.3, 16.8, 16.7, 16.6, 16.8, 16.5, 16.7, 16.6, 16.7, 16.6, 16.7, 16.8, 16.4, 16.8, 16.8, 16.5, 16.7, 16.7, 16.7, 16.6, 16.7, 16.7, 16.7, 16.7, 16.7, 16.6, 16.7, 16.5, 16.7, 16.7, 16.6, 16.8, 16.7, 16.6, 16.8, 16.6, 16.7, 16.7, 16.7, 16.7, 16.6, 16.5, 16.8, 17.6, 15.7, 16.8, 16.6, 16.5, 16.9, 16.6, 16.6, 16.8, 16.5, 16.8, 16.6, 16.7, 17, 16.6, 17.8, 15.2, 16.6, 16.6, 16.7, 16.7, 16.8, 16.5, 16.7, 16.7, 16.6, 16.8, 16.5, 16.7, 16.7, 16.7, 16.8, 16.7, 16.5, 16.9, 16.9, 16.2, 16.7, 16.8, 18.2, 16.6, 15.5, 16.7, 16.3, 16.4, 16.8, 16.6, 16.8, 16.5, 16.7, 16.9, 16.6, 16.7, 16.6, 16.7, 16.7, 16.7, 16.6, 16.5, 16.8, 16.6, 16.6, 16.6, 16.8, 16.7, 16.6, 16.7, 16.7, 17.4, 15.8, 16.7, 16.7, 16.6, 16.9, 16.6, 16.8, 16.5, 16.6, 16.7, 16.7, 16.6, 16.6, 16.8, 16.6, 16.6, 16.6, 16.7, 16.8, 16.6, 16.9, 16.6, 16.5, 16.8, 16.4, 16.8, 16.8, 16.4, 16.8, 16.7, 16.5, 16.7, 16.8, 16.7, 16.6, 16.7, 16.5, 16.7, 16.9, 16.5, 16.8, 16.5]",60.0,60.0,60.0,5014.8,[],,,,,,,,,,,,,,,,,,,,,,,,,HRV,HRV_0238,2022-11-30 19:24:04
,wl-html-keyboard-response,2,20198,0.0-2.0-0.0,0.0,3.0,,,,,,,,11402.5,0.0,0,,,,,,,,,,,,,,,,,,,,,,HRV,HRV_0238,2022-11-30 19:24:04
,wl-rdm,3,26786,0.0-3.0-0.0,0.0,4.0,,,,,,,[],,,,0.0,0.0,87.9,0.0,u,0.0,True,997.8999999761581,60.0,60.0,40.0,False,,3000.0,[],"[960, 540]",ColorTask_Demo,,,,,HRV,HRV_0238,2022-11-30 19:24:04
,wl-rdm,4,31619,0.0-3.0-1.0,0.0,5.0,,,,,,,[],,,,0.0,0.0,87.9,1.0,i,1.0,True,757.6000000238419,46.0,60.0,40.0,False,,2000.0,[],"[960, 540]",ColorTask_Demo,,,,,HRV,HRV_0238,2022-11-30 19:24:04
,wl-html-keyboard-response,5,36276,0.0-3.0-2.0,0.0,6.0,,,,,,,,2649.800000011921,0.0,1,,,,,,,,,,,,,,,,,,,,,,HRV,HRV_0238,2022-11-30 19:24:04
,wl-html-keyboard-response,6,43348,0.0-4.0-0.0,0.0,7.0,,,,,,,,5514.0,0.0,0,,,,,,,,,,,,,,,,,,,,,,HRV,HRV_0238,2022-11-30 19:24:04
,wl-html-keyboard-response,7,50436,0.0-5.0-0.0,0.0,8.0,,,,,,,,5081.600000023842,0.0,0,,,,,,,,,,,,,,,,,,,,,,HRV,HRV_0238,2022-11-30 19:24:04
,wl-rdm,8,52336,0.0-6.0-0.0,0.0,9.0,,,,,,,[],,,,,,87.9,1.0,i,1.0,True,588.9000000357628,36.0,60.0,40.0,False,,225.76812067230784,[],"[960, 540]",ColorTask,1.0,1.0,,,HRV,HRV_0238,2022-11-30 19:24:04
,wl-rdm,9,54352,0.0-6.1-0.1,0.0,10.0,,,,,,,[],,,,,,73.6,0.0,u,0.0,True,653.9000000357628,40.0,60.0,40.0,False,,271.8315583839233,[],"[960, 540]",ColorTask,2.0,2.0,,,HRV,HRV_0238,2022-11-30 19:24:04
,wl-rdm,10,56169,0.0-6.2-0.2,0.0,11.0,,,,,,,[],,,,,,73.6,0.0,u,0.0,True,527.5,32.0,60.0,40.0,False,,209.62020171954634,[],"[960, 540]",ColorTask,3.0,3.0,,,HRV,HRV_0238,2022-11-30 19:24:04
,wl-rdm,11,58302,0.0-6.3-0.3,0.0,12.0,,,,,,,[],,,,,,50.0,1.0,i,1.0,True,705.3000000119209,43.0,60.0,40.0,False,,363.7478876411336,[],"[960, 540]",ColorTask,4.0,4.0,,,HRV,HRV_0238,2022-11-30 19:24:04
,wl-rdm,12,60219,0.0-6.4-0.4,0.0,13.0,,,,,,,[],,,,,,53.2,0.0,i,1.0,False,593.3000000119209,36.0,60.0,40.0,False,,248.77989385207226,[],"[960, 540]",ColorTask,3.0,5.0,,,HRV,HRV_0238,2022-11-30 19:24:04
,wl-rdm,13,62119,0.0-6.5-0.5,0.0,14.0,,,,,,,[],,,,,,62.5,0.0,u,0.0,True,512.1999999880791,31.0,60.0,40.0,False,,324.6154227118464,[],"[960, 540]",ColorTask,4.0,6.0,,,HRV,HRV_0238,2022-11-30 19:24:04
,wl-rdm,14,64086,0.0-6.6-0.6,0.0,15.0,,,,,,,[],,,,,,50.0,0.0,i,1.0,False,596.8999999761581,36.0,60.0,40.0,False,,315.43235579900545,[],"[960, 540]",ColorTask,3.0,7.0,,,HRV,HRV_0238,2022-11-30 19:24:04
,wl-rdm,15,66053,0.0-6.7-0.7,0.0,16.0,,,,,,,[],,,,,,73.6,1.0,i,1.0,True,631.3999999761581,38.0,60.0,40.0,False,,272.42178721089846,[],"[960, 540]",ColorTask,4.0,8.0,,,HRV,HRV_0238,2022-11-30 19:24:04
,wl-rdm,16,67952,0.0-6.8-0.8,0.0,17.0,,,,,,,[],,,,,,50.0,0.0,i,1.0,False,602.8000000715256,37.0,60.0,40.0,False,,217.7402006900663,[],"[960, 540]",ColorTask,3.0,9.0,,,HRV,HRV_0238,2022-11-30 19:24:04
,wl-rdm,17,69803,0.0-6.9-0.9,0.0,18.0,,,,,,,[],,,,,,50.0,0.0,i,1.0,False,559.7000000476837,34.0,60.0,40.0,False,,208.32990284383078,[],"[960, 540]",ColorTask,2.0,10.0,,,HRV,HRV_0238,2022-11-30 19:24:04
,wl-rdm,18,71803,0.0-6.10-0.10,0.0,19.0,,,,,,,[],,,,,,56.4,1.0,i,1.0,True,624.8999999761581,38.0,60.0,40.0,False,,297.82668444708077,[],"[960, 540]",ColorTask,3.0,11.0,,,HRV,HRV_0238,2022-11-30 19:24:04
,wl-rdm,19,73802,0.0-6.11-0.11,0.0,20.0,,,,,,,[],,,,,,53.2,1.0,i,1.0,True,710.1000000834465,43.0,60.0,40.0,False,,215.12458722282543,[],"[960, 540]",ColorTask,4.0,12.0,,,HRV,HRV_0238,2022-11-30 19:24:04
,wl-rdm,20,75853,0.0-6.12-0.12,0.0,21.0,,,,,,,[],,,,,,87.9,0.0,u,0.0,True,591.5999999642372,36.0,60.0,40.0,False,,367.0222904578666,[],"[960, 540]",ColorTask,5.0,13.0,,,HRV,HRV_0238,2022-11-30 19:24:04
,wl-rdm,21,77738,0.0-6.13-0.13,0.0,22.0,,,,,,,[],,,,,,50.0,1.0,u,0.0,False,578.8000000119209,35.0,60.0,40.0,False,,236.46345314582442,[],"[960, 540]",ColorTask,4.0,14.0,,,HRV,HRV_0238,2022-11-30 19:24:04
,wl-rdm,22,79619,0.0-6.14-0.14,0.0,23.0,,,,,,,[],,,,,,73.6,1.0,i,1.0,True,483.19999998807907,29.0,60.0,40.0,False,,342.0323149745685,[],"[960, 540]",ColorTask,5.0,15.0,,,HRV,HRV_0238,2022-11-30 19:24:04
,wl-rdm,23,81353,0.0-6.15-0.15,0.0,24.0,,,,,,,[],,,,,,56.4,1.0,i,1.0,True,461.39999997615814,28.0,60.0,40.0,False,,215.0286485940482,[],"[960, 540]",ColorTask,6.0,16.0,,,HRV,HRV_0238,2022-11-30 19:24:04
,wl-rdm,24,83136,0.0-6.16-0.16,0.0,25.0,,,,,,,[],,,,,,53.2,0.0,u,0.0,True,403.8999999165535,25.0,60.0,40.0,False,,295.51661279397484,[],"[960, 540]",ColorTask,7.0,17.0,,,HRV,HRV_0238,2022-11-30 19:24:04
,wl-rdm,25,85170,0.0-6.17-0.17,0.0,26.0,,,,,,,[],,,,,,53.2,0.0,i,1.0,False,569.1000000238419,35.0,60.0,40.0,False,,379.8737490448498,[],"[960, 540]",ColorTask,6.0,18.0,,,HRV,HRV_0238,2022-11-30 19:24:04
,wl-rdm,26,87037,0.0-6.18-0.18,0.0,27.0,,,,,,,[],,,,,,73.6,0.0,i,1.0,False,491.0,30.0,60.0,40.0,False,,302.0307745783066,[],"[960, 540]",ColorTask,5.0,19.0,,,HRV,HRV_0238,2022-11-30 19:24:04
,wl-rdm,27,88953,0.0-6.19-0.19,0.0,28.0,,,,,,,[],,,,,,50.0,0.0,i,1.0,False,461.10000002384186,28.0,60.0,40.0,False,,395.73004841466246,[],"[960, 540]",ColorTask,4.0,20.0,,,HRV,HRV_0238,2022-11-30 19:24:04
,wl-rdm,28,90753,0.0-6.20-0.20,0.0,29.0,,,,,,,[],,,,,,87.9,0.0,u,0.0,True,454.30000001192093,28.0,60.0,40.0,False,,252.50599753025142,[],"[960, 540]",ColorTask,5.0,21.0,,,HRV,HRV_0238,2022-11-30 19:24:04
,wl-rdm,29,92636,0.0-6.21-0.21,0.0,30.0,,,,,,,[],,,,,,73.6,1.0,i,1.0,True,558.3000000119209,34.0,60.0,40.0,False,,237.6581539247926,[],"[960, 540]",ColorTask,6.0,22.0,,,HRV,HRV_0238,2022-11-30 19:24:04
,wl-rdm,30,94703,0.0-6.22-0.22,0.0,31.0,,,,,,,[],,,,,,56.4,1.0,i,1.0,True,606.0999999642372,37.0,60.0,40.0,False,,370.33798642948193,[],"[960, 540]",ColorTask,7.0,23.0,,,HRV,HRV_0238,2022-11-30 19:24:04
,wl-rdm,31,96586,0.0-6.23-0.23,0.0,32.0,,,,,,,[],,,,,,73.6,1.0,i,1.0,True,510.49999994039536,31.0,60.0,40.0,False,,312.81197947413693,[],"[960, 540]",ColorTask,8.0,24.0,,,HRV,HRV_0238,2022-11-30 19:24:04
,wl-rdm,32,98769,0.0-6.24-0.24,0.0,33.0,,,,,,,[],,,,,,53.2,0.0,u,0.0,True,704.1999999880791,43.0,60.0,40.0,False,,385.8195470217111,[],"[960, 540]",ColorTask,9.0,25.0,,,HRV,HRV_0238,2022-11-30 19:24:04
,wl-rdm,33,100670,0.0-6.25-0.25,0.0,34.0,,,,,,,[],,,,,,73.6,0.0,u,0.0,True,623.6999999880791,38.0,60.0,40.0,False,,213.81721106155996,[],"[960, 540]",ColorTask,10.0,26.0,,,HRV,HRV_0238,2022-11-30 19:24:04
,wl-rdm,34,102753,0.0-6.26-0.26,0.0,35.0,,,,,,,[],,,,,,53.2,1.0,u,0.0,False,687.5,42.0,60.0,40.0,False,,300.8072585344136,[],"[960, 540]",ColorTask,9.0,27.0,,,HRV,HRV_0238,2022-11-30 19:24:04
,wl-rdm,35,104636,0.0-6.27-0.27,0.0,36.0,,,,,,,[],,,,,,53.2,1.0,i,1.0,True,575.7999999523163,35.0,60.0,40.0,False,,218.95962029162942,[],"[960, 540]",ColorTask,10.0,28.0,,,HRV,HRV_0238,2022-11-30 19:24:04
,wl-rdm,36,106603,0.0-6.28-0.28,0.0,37.0,,,,,,,[],,,,,,50.0,1.0,i,1.0,True,509.0,31.0,60.0,40.0,False,,397.08138185114353,[],"[960, 540]",ColorTask,11.0,29.0,,,HRV,HRV_0238,2022-11-30 19:24:04
,wl-rdm,37,108520,0.0-6.29-0.29,0.0,38.0,,,,,,,[],,,,,,87.9,0.0,u,0.0,True,562.5,34.0,60.0,40.0,False,,287.4409787166386,[],"[960, 540]",ColorTask,12.0,30.0,,,HRV,HRV_0238,2022-11-30 19:24:04
,wl-rdm,38,110286,0.0-6.30-0.30,0.0,39.0,,,,,,,[],,,,,,73.6,1.0,i,1.0,True,405.80000001192093,25.0,60.0,40.0,False,,287.66093373607913,[],"[960, 540]",ColorTask,13.0,31.0,,,HRV,HRV_0238,2022-11-30 19:24:04
,wl-rdm,39,112070,0.0-6.31-0.31,0.0,40.0,,,,,,,[],,,,,,50.0,0.0,i,1.0,False,481.5,29.0,60.0,40.0,False,,220.62063911219914,[],"[960, 540]",ColorTask,12.0,32.0,,,HRV,HRV_0238,2022-11-30 19:24:04
,wl-rdm,40,113953,0.0-6.32-0.32,0.0,41.0,,,,,,,[],,,,,,87.9,0.0,u,0.0,True,554.0000000596046,34.0,60.0,40.0,False,,249.13236544215565,[],"[960, 540]",ColorTask,13.0,33.0,,,HRV,HRV_0238,2022-11-30 19:24:04
,wl-rdm,41,115770,0.0-6.33-0.33,0.0,42.0,,,,,,,[],,,,,,62.5,1.0,i,1.0,True,526.9999999403954,32.0,60.0,40.0,False,,212.0270982263664,[],"[960, 540]",ColorTask,14.0,34.0,,,HRV,HRV_0238,2022-11-30 19:24:04
,wl-rdm,42,117686,0.0-6.34-0.34,0.0,43.0,,,,,,,[],,,,,,62.5,1.0,i,1.0,True,498.30000001192093,30.0,60.0,40.0,False,,344.9384902379418,[],"[960, 540]",ColorTask,15.0,35.0,,,HRV,HRV_0238,2022-11-30 19:24:04
,wl-rdm,43,119570,0.0-6.35-0.35,0.0,44.0,,,,,,,[],,,,,,53.2,0.0,u,0.0,True,553.0,34.0,60.0,40.0,False,,261.2309240566001,[],"[960, 540]",ColorTask,16.0,36.0,,,HRV,HRV_0238,2022-11-30 19:24:04
,wl-rdm,44,121469,0.0-6.36-0.36,0.0,45.0,,,,,,,[],,,,,,50.0,1.0,i,1.0,True,557.3000000119209,34.0,60.0,40.0,False,,259.9896128375562,[],"[960, 540]",ColorTask,17.0,37.0,,,HRV,HRV_0238,2022-11-30 19:24:04
,wl-rdm,45,123353,0.0-6.37-0.37,0.0,46.0,,,,,,,[],,,,,,50.0,0.0,i,1.0,False,562.0999999642372,34.0,60.0,40.0,False,,239.20820723134207,[],"[960, 540]",ColorTask,16.0,38.0,,,HRV,HRV_0238,2022-11-30 19:24:04
,wl-rdm,46,125136,0.0-6.38-0.38,0.0,47.0,,,,,,,[],,,,,,87.9,0.0,u,0.0,True,455.0,28.0,60.0,40.0,False,,244.0610732806723,[],"[960, 540]",ColorTask,17.0,39.0,,,HRV,HRV_0238,2022-11-30 19:24:04
,wl-rdm,47,127203,0.0-6.39-0.39,0.0,48.0,,,,,,,[],,,,,,62.5,0.0,u,0.0,True,734.2999999523163,45.0,60.0,40.0,False,,265.7475357059118,[],"[960, 540]",ColorTask,18.0,40.0,,,HRV,HRV_0238,2022-11-30 19:24:04
,wl-rdm,48,129220,0.0-6.40-0.40,0.0,49.0,,,,,,,[],,,,,,50.0,0.0,i,1.0,False,651.4000000357628,40.0,60.0,40.0,False,,279.8401087523143,[],"[960, 540]",ColorTask,17.0,41.0,,,HRV,HRV_0238,2022-11-30 19:24:04
,wl-rdm,49,131203,0.0-6.41-0.41,0.0,50.0,,,,,,,[],,,,,,87.9,0.0,i,1.0,False,601.8000000119209,37.0,60.0,40.0,False,,296.06810110730623,[],"[960, 540]",ColorTask,16.0,42.0,,,HRV,HRV_0238,2022-11-30 19:24:04
,wl-rdm,50,133170,0.0-6.42-0.42,0.0,51.0,,,,,,,[],,,,,,62.5,0.0,i,1.0,False,669.9999999403954,41.0,60.0,40.0,False,,203.82713460301062,[],"[960, 540]",ColorTask,15.0,43.0,,,HRV,HRV_0238,2022-11-30 19:24:04
,wl-rdm,51,134969,0.0-6.43-0.43,0.0,52.0,,,,,,,[],,,,,,73.6,0.0,u,0.0,True,493.4000000357628,30.0,60.0,40.0,False,,245.38964004487897,[],"[960, 540]",ColorTask,16.0,44.0,,,HRV,HRV_0238,2022-11-30 19:24:04
,wl-rdm,52,136969,0.0-6.44-0.44,0.0,53.0,,,,,,,[],,,,,,56.4,0.0,i,1.0,False,710.3999999761581,43.0,60.0,40.0,False,,220.86444051003872,[],"[960, 540]",ColorTask,15.0,45.0,,,HRV,HRV_0238,2022-11-30 19:24:04
,wl-rdm,53,138819,0.0-6.45-0.45,0.0,54.0,,,,,,,[],,,,,,87.9,0.0,u,0.0,True,567.1999999880791,34.0,60.0,40.0,False,,209.64371274960175,[],"[960, 540]",ColorTask,16.0,46.0,,,HRV,HRV_0238,2022-11-30 19:24:04
,wl-rdm,54,140853,0.0-6.46-0.46,0.0,55.0,,,,,,,[],,,,,,50.0,1.0,i,1.0,True,665.6999999880791,40.0,60.0,40.0,False,,289.82080551347565,[],"[960, 540]",ColorTask,17.0,47.0,,,HRV,HRV_0238,2022-11-30 19:24:04
,wl-rdm,55,143052,0.0-6.47-0.47,0.0,56.0,,,,,,,[],,,,,,56.4,0.0,u,0.0,True,774.9999999403954,47.0,60.0,40.0,False,,334.09311010051266,[],"[960, 540]",ColorTask,18.0,48.0,,,HRV,HRV_0238,2022-11-30 19:24:04
,wl-rdm,56,144986,0.0-6.48-0.48,0.0,57.0,,,,,,,[],,,,,,87.9,1.0,i,1.0,True,643.5,39.0,60.0,40.0,False,,205.43505823324804,[],"[960, 540]",ColorTask,19.0,49.0,,,HRV,HRV_0238,2022-11-30 19:24:04
,wl-rdm,57,147119,0.0-6.49-0.49,0.0,58.0,,,,,,,[],,,,,,50.0,1.0,u,0.0,False,739.0999999642372,45.0,60.0,40.0,False,,315.6274844291089,[],"[960, 540]",ColorTask,18.0,50.0,,,HRV,HRV_0238,2022-11-30 19:24:04
,wl-rdm,58,149286,0.0-6.50-0.50,0.0,59.0,,,,,,,[],,,,,,73.6,1.0,i,1.0,True,764.8000000119209,46.0,60.0,40.0,False,,323.33462368436324,[],"[960, 540]",ColorTask,19.0,51.0,,,HRV,HRV_0238,2022-11-30 19:24:04
,wl-rdm,59,151603,0.0-6.51-0.51,0.0,60.0,,,,,,,[],,,,,,62.5,1.0,i,1.0,True,870.4000000357628,52.0,60.0,40.0,False,,382.06032460312707,[],"[960, 540]",ColorTask,20.0,52.0,,,HRV,HRV_0238,2022-11-30 19:24:04
,wl-rdm,60,153819,0.0-6.52-0.52,0.0,61.0,,,,,,,[],,,,,,73.6,1.0,i,1.0,True,809.5,49.0,60.0,40.0,False,,328.49570552661083,[],"[960, 540]",ColorTask,21.0,53.0,,,HRV,HRV_0238,2022-11-30 19:24:04
,wl-rdm,61,155803,0.0-6.53-0.53,0.0,62.0,,,,,,,[],,,,,,56.4,0.0,u,0.0,True,709.4000000357628,43.0,60.0,40.0,False,,212.50141737972515,[],"[960, 540]",ColorTask,22.0,54.0,,,HRV,HRV_0238,2022-11-30 19:24:04
,wl-rdm,62,157836,0.0-6.54-0.54,0.0,63.0,,,,,,,[],,,,,,87.9,1.0,i,1.0,True,741.5,45.0,60.0,40.0,False,,203.81072136528104,[],"[960, 540]",ColorTask,23.0,55.0,,,HRV,HRV_0238,2022-11-30 19:24:04
,wl-rdm,63,159936,0.0-6.55-0.55,0.0,64.0,,,,,,,[],,,,,,53.2,0.0,u,0.0,True,737.5,45.0,60.0,40.0,False,,267.05456470932177,[],"[960, 540]",ColorTask,24.0,56.0,,,HRV,HRV_0238,2022-11-30 19:24:04
,wl-rdm,64,162069,0.0-6.56-0.56,0.0,65.0,,,,,,,[],,,,,,50.0,1.0,i,1.0,True,799.0999999642372,48.0,60.0,40.0,False,,251.27308145377606,[],"[960, 540]",ColorTask,25.0,57.0,,,HRV,HRV_0238,2022-11-30 19:24:04
,wl-rdm,65,164319,0.0-6.57-0.57,0.0,66.0,,,,,,,[],,,,,,53.2,1.0,i,1.0,True,904.4000000357628,55.0,60.0,40.0,False,,275.1846159097577,[],"[960, 540]",ColorTask,26.0,58.0,,,HRV,HRV_0238,2022-11-30 19:24:04
,wl-rdm,66,166469,0.0-6.58-0.58,0.0,67.0,,,,,,,[],,,,,,53.2,0.0,u,0.0,True,848.1999999880791,51.0,60.0,40.0,False,,222.96454943964739,[],"[960, 540]",ColorTask,27.0,59.0,,,HRV,HRV_0238,2022-11-30 19:24:04
,wl-rdm,67,168686,0.0-6.59-0.59,0.0,68.0,,,,,,,[],,,,,,56.4,0.0,i,1.0,False,772.5,47.0,60.0,40.0,False,,380.5421525695171,[],"[960, 540]",ColorTask,26.0,60.0,,,HRV,HRV_0238,2022-11-30 19:24:04
,wl-rdm,68,170803,0.0-6.60-0.60,0.0,69.0,,,,,,,[],,,,,,73.6,1.0,i,1.0,True,768.8000000119209,47.0,60.0,40.0,False,,262.3699841826259,[],"[960, 540]",ColorTask,27.0,61.0,,,HRV,HRV_0238,2022-11-30 19:24:04
,wl-rdm,69,172986,0.0-6.61-0.61,0.0,70.0,,,,,,,[],,,,,,56.4,1.0,u,0.0,False,794.2999999523163,48.0,60.0,40.0,False,,310.1987915994323,[],"[960, 540]",ColorTask,26.0,62.0,,,HRV,HRV_0238,2022-11-30 19:24:04
,wl-rdm,70,174970,0.0-6.62-0.62,0.0,71.0,,,,,,,[],,,,,,56.4,1.0,i,1.0,True,644.2999999523163,39.0,60.0,40.0,False,,255.2464365516077,[],"[960, 540]",ColorTask,27.0,63.0,,,HRV,HRV_0238,2022-11-30 19:24:04
,wl-rdm,71,177236,0.0-6.63-0.63,0.0,72.0,,,,,,,[],,,,,,56.4,1.0,u,0.0,False,900.5,54.0,60.0,40.0,False,,293.49045847310305,[],"[960, 540]",ColorTask,26.0,64.0,,,HRV,HRV_0238,2022-11-30 19:24:04
,wl-rdm,72,179169,0.0-6.64-0.64,0.0,73.0,,,,,,,[],,,,,,62.5,1.0,i,1.0,True,652.6999999880791,40.0,60.0,40.0,False,,208.19916297726283,[],"[960, 540]",ColorTask,27.0,65.0,,,HRV,HRV_0238,2022-11-30 19:24:04
,wl-rdm,73,181286,0.0-6.65-0.65,0.0,74.0,,,,,,,[],,,,,,73.6,0.0,u,0.0,True,728.8999999761581,44.0,60.0,40.0,False,,319.6756087270959,[],"[960, 540]",ColorTask,28.0,66.0,,,HRV,HRV_0238,2022-11-30 19:24:04
,wl-rdm,74,183288,0.0-6.66-0.66,0.0,75.0,,,,,,,[],,,,,,73.6,0.0,u,0.0,True,647.4000000357628,39.0,60.0,40.0,False,,285.982768933916,[],"[960, 540]",ColorTask,29.0,67.0,,,HRV,HRV_0238,2022-11-30 19:24:04
,wl-rdm,75,185469,0.0-6.67-0.67,0.0,76.0,,,,,,,[],,,,,,62.5,0.0,u,0.0,True,823.5,50.0,60.0,40.0,False,,278.2813180535606,[],"[960, 540]",ColorTask,30.0,68.0,,,HRV,HRV_0238,2022-11-30 19:24:04
,wl-rdm,76,187436,0.0-6.68-0.68,0.0,77.0,,,,,,,[],,,,,,87.9,1.0,i,1.0,True,574.0999999642372,35.0,60.0,40.0,False,,311.81600275771746,[],"[960, 540]",ColorTask,31.0,69.0,,,HRV,HRV_0238,2022-11-30 19:24:04
,wl-rdm,77,189470,0.0-6.69-0.69,0.0,78.0,,,,,,,[],,,,,,62.5,0.0,u,0.0,True,640.5999999642372,39.0,60.0,40.0,False,,326.16541345503646,[],"[960, 540]",ColorTask,32.0,70.0,,,HRV,HRV_0238,2022-11-30 19:24:04
,wl-rdm,78,191336,0.0-6.70-0.70,0.0,79.0,,,,,,,[],,,,,,73.6,1.0,i,1.0,True,595.1999999880791,36.0,60.0,40.0,False,,213.17646668109302,[],"[960, 540]",ColorTask,33.0,71.0,,,HRV,HRV_0238,2022-11-30 19:24:04
,wl-rdm,79,193219,0.0-6.71-0.71,0.0,80.0,,,,,,,[],,,,,,87.9,0.0,u,0.0,True,551.5,34.0,60.0,40.0,False,,240.0389033388685,[],"[960, 540]",ColorTask,34.0,72.0,,,HRV,HRV_0238,2022-11-30 19:24:04
,wl-rdm,80,195353,0.0-6.72-0.72,0.0,81.0,,,,,,,[],,,,,,62.5,1.0,i,1.0,True,744.5999999642372,45.0,60.0,40.0,False,,332.62111267744615,[],"[960, 540]",ColorTask,35.0,73.0,,,HRV,HRV_0238,2022-11-30 19:24:04
,wl-rdm,81,197452,0.0-6.73-0.73,0.0,82.0,,,,,,,[],,,,,,62.5,1.0,u,0.0,False,791.0,48.0,60.0,40.0,False,,240.91093756943042,[],"[960, 540]",ColorTask,34.0,74.0,,,HRV,HRV_0238,2022-11-30 19:24:04
,wl-rdm,82,199386,0.0-6.74-0.74,0.0,83.0,,,,,,,[],,,,,,62.5,0.0,i,1.0,False,559.5,34.0,60.0,40.0,False,,314.49157102753514,[],"[960, 540]",ColorTask,33.0,75.0,,,HRV,HRV_0238,2022-11-30 19:24:04
,wl-rdm,83,201236,0.0-6.75-0.75,0.0,84.0,,,,,,,[],,,,,,56.4,0.0,u,0.0,True,515.8000000119209,31.0,60.0,40.0,False,,276.7672649214184,[],"[960, 540]",ColorTask,34.0,76.0,,,HRV,HRV_0238,2022-11-30 19:24:04
,wl-rdm,84,203202,0.0-6.76-0.76,0.0,85.0,,,,,,,[],,,,,,56.4,1.0,u,0.0,False,651.9000000357628,40.0,60.0,40.0,False,,238.18186239651266,[],"[960, 540]",ColorTask,33.0,77.0,,,HRV,HRV_0238,2022-11-30 19:24:04
,wl-rdm,85,205236,0.0-6.77-0.77,0.0,86.0,,,,,,,[],,,,,,53.2,1.0,i,1.0,True,701.8000000119209,43.0,60.0,40.0,False,,235.32182658569562,[],"[960, 540]",ColorTask,34.0,78.0,,,HRV,HRV_0238,2022-11-30 19:24:04
,wl-rdm,86,207336,0.0-6.78-0.78,0.0,87.0,,,,,,,[],,,,,,56.4,0.0,i,1.0,False,696.6000000238419,42.0,60.0,40.0,False,,325.3670017167427,[],"[960, 540]",ColorTask,33.0,79.0,,,HRV,HRV_0238,2022-11-30 19:24:04
,wl-rdm,87,209236,0.0-6.79-0.79,0.0,88.0,,,,,,,[],,,,,,53.2,1.0,u,0.0,False,551.0999999642372,34.0,60.0,40.0,False,,250.4251325874601,[],"[960, 540]",ColorTask,32.0,80.0,,,HRV,HRV_0238,2022-11-30 19:24:04
,wl-rdm,88,211536,0.0-6.80-0.80,0.0,89.0,,,,,,,[],,,,,,62.5,1.0,i,1.0,True,887.0,54.0,60.0,40.0,False,,340.09160474363887,[],"[960, 540]",ColorTask,33.0,81.0,,,HRV,HRV_0238,2022-11-30 19:24:04
,wl-rdm,89,213669,0.0-6.81-0.81,0.0,90.0,,,,,,,[],,,,,,53.2,1.0,i,1.0,True,831.2000000476837,50.0,60.0,40.0,False,,241.14046633911155,[],"[960, 540]",ColorTask,34.0,82.0,,,HRV,HRV_0238,2022-11-30 19:24:04
,wl-rdm,90,215652,0.0-6.82-0.82,0.0,91.0,,,,,,,[],,,,,,53.2,1.0,i,1.0,True,682.1000000238419,41.0,60.0,40.0,False,,234.80546079757008,[],"[960, 540]",ColorTask,35.0,83.0,,,HRV,HRV_0238,2022-11-30 19:24:04
,wl-rdm,91,217619,0.0-6.83-0.83,0.0,92.0,,,,,,,[],,,,,,87.9,0.0,u,0.0,True,668.0999999642372,41.0,60.0,40.0,False,,202.07837934212813,[],"[960, 540]",ColorTask,36.0,84.0,,,HRV,HRV_0238,2022-11-30 19:24:04
,wl-rdm,92,219619,0.0-6.84-0.84,0.0,93.0,,,,,,,[],,,,,,56.4,1.0,i,1.0,True,651.6999999880791,40.0,60.0,40.0,False,,256.7441026129977,[],"[960, 540]",ColorTask,37.0,85.0,,,HRV,HRV_0238,2022-11-30 19:24:04
,wl-rdm,93,221619,0.0-6.85-0.85,0.0,94.0,,,,,,,[],,,,,,56.4,1.0,i,1.0,True,584.0000000596046,35.0,60.0,40.0,False,,343.89864003633573,[],"[960, 540]",ColorTask,38.0,86.0,,,HRV,HRV_0238,2022-11-30 19:24:04
,wl-rdm,94,223552,0.0-6.86-0.86,0.0,95.0,,,,,,,[],,,,,,62.5,0.0,u,0.0,True,603.6000000238419,37.0,60.0,40.0,False,,250.01335579149543,[],"[960, 540]",ColorTask,39.0,87.0,,,HRV,HRV_0238,2022-11-30 19:24:04
,wl-rdm,95,225836,0.0-6.87-0.87,0.0,96.0,,,,,,,[],,,,,,73.6,0.0,u,0.0,True,808.9999999403954,49.0,60.0,40.0,False,,391.60628395215554,[],"[960, 540]",ColorTask,40.0,88.0,,,HRV,HRV_0238,2022-11-30 19:24:04
,wl-rdm,96,227853,0.0-6.88-0.88,0.0,97.0,,,,,,,[],,,,,,87.9,1.0,i,1.0,True,658.4999999403954,40.0,60.0,40.0,False,,269.89311857124693,[],"[960, 540]",ColorTask,41.0,89.0,,,HRV,HRV_0238,2022-11-30 19:24:04
,wl-rdm,97,229952,0.0-6.89-0.89,0.0,98.0,,,,,,,[],,,,,,73.6,0.0,u,0.0,True,670.0000000596046,41.0,60.0,40.0,False,,361.20610985483177,[],"[960, 540]",ColorTask,42.0,90.0,,,HRV,HRV_0238,2022-11-30 19:24:04
,wl-rdm,98,232402,0.0-6.90-0.90,0.0,99.0,,,,,,,[],,,,,,56.4,0.0,u,0.0,True,1101.5999999642372,67.0,60.0,40.0,False,,256.09861454265905,[],"[960, 540]",ColorTask,43.0,91.0,,,HRV,HRV_0238,2022-11-30 19:24:04
,wl-rdm,99,234436,0.0-6.91-0.91,0.0,100.0,,,,,,,[],,,,,,56.4,0.0,u,0.0,True,717.4999999403954,43.0,60.0,40.0,False,,239.15996458047346,[],"[960, 540]",ColorTask,44.0,92.0,,,HRV,HRV_0238,2022-11-30 19:24:04
,wl-rdm,100,236869,0.0-6.92-0.92,0.0,101.0,,,,,,,[],,,,,,50.0,1.0,i,1.0,True,998.6000000238419,60.0,60.0,40.0,False,,356.22711919147986,[],"[960, 540]",ColorTask,45.0,93.0,,,HRV,HRV_0238,2022-11-30 19:24:04
,wl-rdm,101,239069,0.0-6.93-0.93,0.0,102.0,,,,,,,[],,,,,,87.9,1.0,i,1.0,True,756.8999999761581,46.0,60.0,40.0,False,,362.0426599773036,[],"[960, 540]",ColorTask,46.0,94.0,,,HRV,HRV_0238,2022-11-30 19:24:04
,wl-rdm,102,241236,0.0-6.94-0.94,0.0,103.0,,,,,,,[],,,,,,53.2,1.0,u,0.0,False,882.5999999642372,53.0,60.0,40.0,False,,227.23753222770063,[],"[960, 540]",ColorTask,45.0,95.0,,,HRV,HRV_0238,2022-11-30 19:24:04
,wl-rdm,103,243303,0.0-6.95-0.95,0.0,104.0,,,,,,,[],,,,,,50.0,0.0,i,1.0,False,697.1999999880791,42.0,60.0,40.0,False,,294.3989546704895,[],"[960, 540]",ColorTask,44.0,96.0,,,HRV,HRV_0238,2022-11-30 19:24:04
,wl-rdm,104,245186,0.0-6.96-0.96,0.0,105.0,,,,,,,[],,,,,,53.2,0.0,i,1.0,False,584.9000000357628,36.0,60.0,40.0,False,,224.6480849495123,[],"[960, 540]",ColorTask,43.0,97.0,,,HRV,HRV_0238,2022-11-30 19:24:04
,wl-rdm,105,247186,0.0-6.97-0.97,0.0,106.0,,,,,,,[],,,,,,62.5,1.0,i,1.0,True,702.3000000119209,43.0,60.0,40.0,False,,205.2262632462995,[],"[960, 540]",ColorTask,44.0,98.0,,,HRV,HRV_0238,2022-11-30 19:24:04
,wl-rdm,106,249219,0.0-6.98-0.98,0.0,107.0,,,,,,,[],,,,,,50.0,0.0,i,1.0,False,618.1000000238419,38.0,60.0,40.0,False,,331.88047749695147,[],"[960, 540]",ColorTask,43.0,99.0,,,HRV,HRV_0238,2022-11-30 19:24:04
,wl-rdm,107,251369,0.0-6.99-0.99,0.0,108.0,,,,,,,[],,,,,,53.2,0.0,u,0.0,True,810.4000000357628,49.0,60.0,40.0,False,,268.1005335395312,[],"[960, 540]",ColorTask,44.0,100.0,,,HRV,HRV_0238,2022-11-30 19:24:04
,wl-rdm,108,253502,0.0-6.100-0.100,0.0,109.0,,,,,,,[],,,,,,50.0,1.0,u,0.0,False,821.5,50.0,60.0,40.0,False,,244.30878656029677,[],"[960, 540]",ColorTask,43.0,101.0,,,HRV,HRV_0238,2022-11-30 19:24:04
,wl-rdm,109,255553,0.0-6.101-0.101,0.0,110.0,,,,,,,[],,,,,,87.9,1.0,i,1.0,True,603.1999999880791,37.0,60.0,40.0,False,,355.44712212227046,[],"[960, 540]",ColorTask,44.0,102.0,,,HRV,HRV_0238,2022-11-30 19:24:04
,wl-rdm,110,257737,0.0-6.102-0.102,0.0,111.0,,,,,,,[],,,,,,62.5,1.0,i,1.0,True,777.1000000238419,47.0,60.0,40.0,False,,338.3451943051234,[],"[960, 540]",ColorTask,45.0,103.0,,,HRV,HRV_0238,2022-11-30 19:24:04
,wl-rdm,111,259953,0.0-6.103-0.103,0.0,112.0,,,,,,,[],,,,,,56.4,0.0,i,1.0,False,903.6999999880791,54.0,60.0,40.0,False,,239.22155472700723,[],"[960, 540]",ColorTask,44.0,104.0,,,HRV,HRV_0238,2022-11-30 19:24:04
,wl-rdm,112,261836,0.0-6.104-0.104,0.0,113.0,,,,,,,[],,,,,,87.9,1.0,i,1.0,True,592.7999999523163,36.0,60.0,40.0,False,,204.2342908873389,[],"[960, 540]",ColorTask,45.0,105.0,,,HRV,HRV_0238,2022-11-30 19:24:04
,wl-rdm,113,263803,0.0-6.105-0.105,0.0,114.0,,,,,,,[],,,,,,62.5,0.0,u,0.0,True,643.3999999761581,39.0,60.0,40.0,False,,245.59441001289858,[],"[960, 540]",ColorTask,46.0,106.0,,,HRV,HRV_0238,2022-11-30 19:24:04
,wl-rdm,114,265720,0.0-6.106-0.106,0.0,115.0,,,,,,,[],,,,,,87.9,1.0,i,1.0,True,546.9000000357628,33.0,60.0,40.0,False,,296.34404264298325,[],"[960, 540]",ColorTask,47.0,107.0,,,HRV,HRV_0238,2022-11-30 19:24:04
,wl-rdm,115,267986,0.0-6.107-0.107,0.0,116.0,,,,,,,[],,,,,,62.5,0.0,u,0.0,True,853.1000000238419,52.0,60.0,40.0,False,,327.93649790763686,[],"[960, 540]",ColorTask,48.0,108.0,,,HRV,HRV_0238,2022-11-30 19:24:04
,wl-html-keyboard-response,116,276148,0.0-7.0-0.0,1.0,117.0,,,,,,,,6154.199999988079,1.0,0,,,,,,,,,,,,,,,,,,,,,,HRV,HRV_0238,2022-11-30 19:24:04
,wl-rdm,117,278036,0.0-8.0-0.0,1.0,118.0,,,,,,,[],,,,,,73.6,1.0,i,1.0,True,516.8999999761581,31.0,60.0,40.0,False,,307.9613922982936,[],"[960, 540]",ColorTask,49.0,1.0,,,HRV,HRV_0238,2022-11-30 19:24:04
,wl-rdm,118,280103,0.0-8.1-0.1,1.0,119.0,,,,,,,[],,,,,,62.5,0.0,u,0.0,True,614.3000000119209,37.0,60.0,40.0,False,,379.73083655050675,[],"[960, 540]",ColorTask,50.0,2.0,,,HRV,HRV_0238,2022-11-30 19:24:04
,wl-rdm,119,282120,0.0-8.2-0.2,1.0,120.0,,,,,,,[],,,,,,73.6,0.0,u,0.0,True,712.6000000238419,43.0,60.0,40.0,False,,246.1729294144309,[],"[960, 540]",ColorTask,51.0,3.0,,,HRV,HRV_0238,2022-11-30 19:24:04
,wl-rdm,120,284003,0.0-8.3-0.3,1.0,121.0,,,,,,,[],,,,,,62.5,1.0,i,1.0,True,551.6000000238419,34.0,60.0,40.0,False,,257.7109344690502,[],"[960, 540]",ColorTask,52.0,4.0,,,HRV,HRV_0238,2022-11-30 19:24:04
,wl-rdm,121,286087,0.0-8.4-0.4,1.0,122.0,,,,,,,[],,,,,,62.5,1.0,u,0.0,False,746.8999999761581,45.0,60.0,40.0,False,,276.02242259949105,[],"[960, 540]",ColorTask,51.0,5.0,,,HRV,HRV_0238,2022-11-30 19:24:04
,wl-rdm,122,288020,0.0-8.5-0.5,1.0,123.0,,,,,,,[],,,,,,56.4,1.0,i,1.0,True,633.8000000119209,38.0,60.0,40.0,False,,229.3518773445469,[],"[960, 540]",ColorTask,52.0,6.0,,,HRV,HRV_0238,2022-11-30 19:24:04
,wl-rdm,123,290153,0.0-8.6-0.6,1.0,124.0,,,,,,,[],,,,,,56.4,0.0,u,0.0,True,794.3999999761581,48.0,60.0,40.0,False,,282.11356285456674,[],"[960, 540]",ColorTask,53.0,7.0,,,HRV,HRV_0238,2022-11-30 19:24:04
,wl-rdm,124,292270,0.0-8.7-0.7,1.0,125.0,,,,,,,[],,,,,,56.4,0.0,i,1.0,False,806.8999999761581,49.0,60.0,40.0,False,,220.43371256893198,[],"[960, 540]",ColorTask,52.0,8.0,,,HRV,HRV_0238,2022-11-30 19:24:04
,wl-rdm,125,294337,0.0-8.8-0.8,1.0,126.0,,,,,,,[],,,,,,53.2,0.0,u,0.0,True,772.2999999523163,47.0,60.0,40.0,False,,209.3632481555566,[],"[960, 540]",ColorTask,53.0,9.0,,,HRV,HRV_0238,2022-11-30 19:24:04
,wl-rdm,126,296536,0.0-8.9-0.9,1.0,127.0,,,,,,,[],,,,,,87.9,0.0,u,0.0,True,812.9999999403954,49.0,60.0,40.0,False,,306.649283248238,[],"[960, 540]",ColorTask,54.0,10.0,,,HRV,HRV_0238,2022-11-30 19:24:04
,wl-rdm,127,298636,0.0-8.10-0.10,1.0,128.0,,,,,,,[],,,,,,50.0,1.0,i,1.0,True,824.6999999880791,50.0,60.0,40.0,False,,207.5353220386689,[],"[960, 540]",ColorTask,55.0,11.0,,,HRV,HRV_0238,2022-11-30 19:24:04
,wl-rdm,128,300703,0.0-8.11-0.11,1.0,129.0,,,,,,,[],,,,,,53.2,0.0,u,0.0,True,772.3000000119209,47.0,60.0,40.0,False,,201.46226786857557,[],"[960, 540]",ColorTask,56.0,12.0,,,HRV,HRV_0238,2022-11-30 19:24:04
,wl-rdm,129,302920,0.0-8.12-0.12,1.0,130.0,,,,,,,[],,,,,,56.4,0.0,u,0.0,True,880.1000000238419,53.0,60.0,40.0,False,,250.67730162898314,[],"[960, 540]",ColorTask,57.0,13.0,,,HRV,HRV_0238,2022-11-30 19:24:04
,wl-rdm,130,304820,0.0-8.13-0.13,1.0,131.0,,,,,,,[],,,,,,87.9,0.0,u,0.0,True,618.0999999642372,37.0,60.0,40.0,False,,213.47365691102962,[],"[960, 540]",ColorTask,58.0,14.0,,,HRV,HRV_0238,2022-11-30 19:24:04
,wl-rdm,131,306737,0.0-8.14-0.14,1.0,132.0,,,,,,,[],,,,,,73.6,0.0,u,0.0,True,536.9000000357628,33.0,60.0,40.0,False,,312.60487858261183,[],"[960, 540]",ColorTask,59.0,15.0,,,HRV,HRV_0238,2022-11-30 19:24:04
,wl-rdm,132,308870,0.0-8.15-0.15,1.0,133.0,,,,,,,[],,,,,,53.2,1.0,u,0.0,False,815.3000000119209,49.0,60.0,40.0,False,,243.30469419762477,[],"[960, 540]",ColorTask,58.0,16.0,,,HRV,HRV_0238,2022-11-30 19:24:04
,wl-rdm,133,310837,0.0-8.16-0.16,1.0,134.0,,,,,,,[],,,,,,53.2,0.0,u,0.0,True,633.3999999761581,38.0,60.0,40.0,False,,250.2302841439103,[],"[960, 540]",ColorTask,59.0,17.0,,,HRV,HRV_0238,2022-11-30 19:24:04
,wl-rdm,134,312970,0.0-8.17-0.17,1.0,135.0,,,,,,,[],,,,,,53.2,1.0,u,0.0,False,726.9999999403954,44.0,60.0,40.0,False,,344.11537500095596,[],"[960, 540]",ColorTask,58.0,18.0,,,HRV,HRV_0238,2022-11-30 19:24:04
,wl-rdm,135,315153,0.0-8.18-0.18,1.0,136.0,,,,,,,[],,,,,,50.0,1.0,i,1.0,True,786.6000000238419,48.0,60.0,40.0,False,,327.1301332029025,[],"[960, 540]",ColorTask,59.0,19.0,,,HRV,HRV_0238,2022-11-30 19:24:04
,wl-rdm,136,317137,0.0-8.19-0.19,1.0,137.0,,,,,,,[],,,,,,87.9,0.0,u,0.0,True,554.8000000119209,34.0,60.0,40.0,False,,342.2306207750139,[],"[960, 540]",ColorTask,60.0,20.0,,,HRV,HRV_0238,2022-11-30 19:24:04
,wl-rdm,137,319287,0.0-8.20-0.20,1.0,138.0,,,,,,,[],,,,,,50.0,0.0,u,0.0,True,747.6999999880791,45.0,60.0,40.0,False,,331.28203200536984,[],"[960, 540]",ColorTask,61.0,21.0,,,HRV,HRV_0238,2022-11-30 19:24:04
,wl-rdm,138,321403,0.0-8.21-0.21,1.0,139.0,,,,,,,[],,,,,,73.6,1.0,i,1.0,True,675.6000000238419,41.0,60.0,40.0,False,,377.8195582924318,[],"[960, 540]",ColorTask,62.0,22.0,,,HRV,HRV_0238,2022-11-30 19:24:04
,wl-rdm,139,323353,0.0-8.22-0.22,1.0,140.0,,,,,,,[],,,,,,50.0,0.0,u,0.0,True,628.8000000119209,38.0,60.0,40.0,False,,244.1779944248282,[],"[960, 540]",ColorTask,63.0,23.0,,,HRV,HRV_0238,2022-11-30 19:24:04
,wl-rdm,140,325570,0.0-8.23-0.23,1.0,141.0,,,,,,,[],,,,,,56.4,1.0,u,0.0,False,887.6999999880791,54.0,60.0,40.0,False,,240.77961908717998,[],"[960, 540]",ColorTask,62.0,24.0,,,HRV,HRV_0238,2022-11-30 19:24:04
,wl-rdm,141,327520,0.0-8.24-0.24,1.0,142.0,,,,,,,[],,,,,,56.4,0.0,u,0.0,True,638.0,39.0,60.0,40.0,False,,221.21761558861937,[],"[960, 540]",ColorTask,63.0,25.0,,,HRV,HRV_0238,2022-11-30 19:24:04
,wl-rdm,142,329520,0.0-8.25-0.25,1.0,143.0,,,,,,,[],,,,,,53.2,1.0,i,1.0,True,704.3999999761581,43.0,60.0,40.0,False,,220.93870334997277,[],"[960, 540]",ColorTask,64.0,26.0,,,HRV,HRV_0238,2022-11-30 19:24:04
,wl-rdm,143,331870,0.0-8.26-0.26,1.0,144.0,,,,,,,[],,,,,,56.4,1.0,u,0.0,False,1007.6000000238419,61.0,60.0,40.0,False,,261.75463514768126,[],"[960, 540]",ColorTask,63.0,27.0,,,HRV,HRV_0238,2022-11-30 19:24:04
,wl-rdm,144,334003,0.0-8.27-0.27,1.0,145.0,,,,,,,[],,,,,,87.9,0.0,u,0.0,True,651.8000000119209,40.0,60.0,40.0,False,,385.51187727088177,[],"[960, 540]",ColorTask,64.0,28.0,,,HRV,HRV_0238,2022-11-30 19:24:04
,wl-rdm,145,336155,0.0-8.28-0.28,1.0,146.0,,,,,,,[],,,,,,50.0,0.0,i,1.0,False,710.9000000357628,43.0,60.0,40.0,False,,368.0014376089042,[],"[960, 540]",ColorTask,63.0,29.0,,,HRV,HRV_0238,2022-11-30 19:24:04
,wl-rdm,146,338087,0.0-8.29-0.29,1.0,147.0,,,,,,,[],,,,,,50.0,1.0,u,0.0,False,598.0,36.0,60.0,40.0,False,,261.0900820696647,[],"[960, 540]",ColorTask,62.0,30.0,,,HRV,HRV_0238,2022-11-30 19:24:04
,wl-rdm,147,340220,0.0-8.30-0.30,1.0,148.0,,,,,,,[],,,,,,73.6,0.0,u,0.0,True,775.0,47.0,60.0,40.0,False,,292.0290801676976,[],"[960, 540]",ColorTask,63.0,31.0,,,HRV,HRV_0238,2022-11-30 19:24:04
,wl-rdm,148,342437,0.0-8.31-0.31,1.0,149.0,,,,,,,[],,,,,,50.0,1.0,u,0.0,False,933.7000000476837,56.0,60.0,40.0,False,,203.77291916418994,[],"[960, 540]",ColorTask,62.0,32.0,,,HRV,HRV_0238,2022-11-30 19:24:04
,wl-rdm,149,344503,0.0-8.32-0.32,1.0,150.0,,,,,,,[],,,,,,53.2,1.0,u,0.0,False,680.5999999642372,41.0,60.0,40.0,False,,313.56094091909574,[],"[960, 540]",ColorTask,61.0,33.0,,,HRV,HRV_0238,2022-11-30 19:24:04
,wl-rdm,150,346403,0.0-8.33-0.33,1.0,151.0,,,,,,,[],,,,,,62.5,0.0,i,1.0,False,517.9000000357628,32.0,60.0,40.0,False,,316.3255882937751,[],"[960, 540]",ColorTask,60.0,34.0,,,HRV,HRV_0238,2022-11-30 19:24:04
,wl-rdm,151,348420,0.0-8.34-0.34,1.0,152.0,,,,,,,[],,,,,,73.6,1.0,i,1.0,True,567.2000000476837,34.0,60.0,40.0,False,,368.3795008398612,[],"[960, 540]",ColorTask,61.0,35.0,,,HRV,HRV_0238,2022-11-30 19:24:04
,wl-rdm,152,350320,0.0-8.35-0.35,1.0,153.0,,,,,,,[],,,,,,53.2,0.0,u,0.0,True,604.5,37.0,60.0,40.0,False,,216.93933686493142,[],"[960, 540]",ColorTask,62.0,36.0,,,HRV,HRV_0238,2022-11-30 19:24:04
,wl-rdm,153,352187,0.0-8.36-0.36,1.0,154.0,,,,,,,[],,,,,,87.9,0.0,u,0.0,True,560.8999999761581,34.0,60.0,40.0,False,,220.5465376603118,[],"[960, 540]",ColorTask,63.0,37.0,,,HRV,HRV_0238,2022-11-30 19:24:04
,wl-rdm,154,354203,0.0-8.37-0.37,1.0,155.0,,,,,,,[],,,,,,73.6,1.0,i,1.0,True,659.6999999880791,40.0,60.0,40.0,False,,273.52199088634677,[],"[960, 540]",ColorTask,64.0,38.0,,,HRV,HRV_0238,2022-11-30 19:24:04
,wl-rdm,155,356320,0.0-8.38-0.38,1.0,156.0,,,,,,,[],,,,,,73.6,0.0,u,0.0,True,704.5,43.0,60.0,40.0,False,,336.58137045502457,[],"[960, 540]",ColorTask,65.0,39.0,,,HRV,HRV_0238,2022-11-30 19:24:04
,wl-rdm,156,358387,0.0-8.39-0.39,1.0,157.0,,,,,,,[],,,,,,50.0,1.0,u,0.0,False,768.4000000357628,47.0,60.0,40.0,False,,218.04820972991766,[],"[960, 540]",ColorTask,64.0,40.0,,,HRV,HRV_0238,2022-11-30 19:24:04
,wl-rdm,157,360304,0.0-8.40-0.40,1.0,158.0,,,,,,,[],,,,,,87.9,1.0,i,1.0,True,572.9000000357628,34.0,60.0,40.0,False,,259.16581961786716,[],"[960, 540]",ColorTask,65.0,41.0,,,HRV,HRV_0238,2022-11-30 19:24:04
,wl-rdm,158,362470,0.0-8.41-0.41,1.0,159.0,,,,,,,[],,,,,,50.0,0.0,u,0.0,True,731.6999999880791,44.0,60.0,40.0,False,,353.0513958682252,[],"[960, 540]",ColorTask,66.0,42.0,,,HRV,HRV_0238,2022-11-30 19:24:04
,wl-rdm,159,364403,0.0-8.42-0.42,1.0,160.0,,,,,,,[],,,,,,87.9,1.0,i,1.0,True,651.4999999403954,40.0,60.0,40.0,False,,204.96850066180485,[],"[960, 540]",ColorTask,67.0,43.0,,,HRV,HRV_0238,2022-11-30 19:24:04
,wl-rdm,160,366421,0.0-8.43-0.43,1.0,161.0,,,,,,,[],,,,,,73.6,1.0,i,1.0,True,618.1000000238419,38.0,60.0,40.0,False,,319.76115058435505,[],"[960, 540]",ColorTask,68.0,44.0,,,HRV,HRV_0238,2022-11-30 19:24:04
,wl-rdm,161,368270,0.0-8.44-0.44,1.0,162.0,,,,,,,[],,,,,,73.6,1.0,i,1.0,True,523.5,32.0,60.0,40.0,False,,264.99762857329875,[],"[960, 540]",ColorTask,69.0,45.0,,,HRV,HRV_0238,2022-11-30 19:24:04
,wl-rdm,162,370353,0.0-8.45-0.45,1.0,163.0,,,,,,,[],,,,,,87.9,1.0,i,1.0,True,603.4999999403954,37.0,60.0,40.0,False,,389.1449942471855,[],"[960, 540]",ColorTask,70.0,46.0,,,HRV,HRV_0238,2022-11-30 19:24:04
,wl-rdm,163,372537,0.0-8.46-0.46,1.0,164.0,,,,,,,[],,,,,,62.5,0.0,u,0.0,True,745.1000000238419,45.0,60.0,40.0,False,,366.81090557291856,[],"[960, 540]",ColorTask,71.0,47.0,,,HRV,HRV_0238,2022-11-30 19:24:04
,wl-rdm,164,374553,0.0-8.47-0.47,1.0,165.0,,,,,,,[],,,,,,87.9,1.0,i,1.0,True,695.4999999403954,42.0,60.0,40.0,False,,242.37165073460196,[],"[960, 540]",ColorTask,72.0,48.0,,,HRV,HRV_0238,2022-11-30 19:24:04
,wl-rdm,165,376636,0.0-8.48-0.48,1.0,166.0,,,,,,,[],,,,,,62.5,0.0,u,0.0,True,658.6000000238419,40.0,60.0,40.0,False,,336.88625538067834,[],"[960, 540]",ColorTask,73.0,49.0,,,HRV,HRV_0238,2022-11-30 19:24:04
,wl-rdm,166,378486,0.0-8.49-0.49,1.0,167.0,,,,,,,[],,,,,,50.0,0.0,u,0.0,True,514.8000000119209,31.0,60.0,40.0,False,,253.87827024008612,[],"[960, 540]",ColorTask,74.0,50.0,,,HRV,HRV_0238,2022-11-30 19:24:04
,wl-rdm,167,380636,0.0-8.50-0.50,1.0,168.0,,,,,,,[],,,,,,73.6,0.0,u,0.0,True,707.4999999403954,43.0,60.0,40.0,False,,370.2159118951255,[],"[960, 540]",ColorTask,75.0,51.0,,,HRV,HRV_0238,2022-11-30 19:24:04
,wl-rdm,168,382569,0.0-8.51-0.51,1.0,169.0,,,,,,,[],,,,,,87.9,1.0,i,1.0,True,610.9999999403954,37.0,60.0,40.0,False,,233.12726773449666,[],"[960, 540]",ColorTask,76.0,52.0,,,HRV,HRV_0238,2022-11-30 19:24:04
,wl-rdm,169,384553,0.0-8.52-0.52,1.0,170.0,,,,,,,[],,,,,,56.4,0.0,u,0.0,True,661.0,40.0,60.0,40.0,False,,254.60534440253582,[],"[960, 540]",ColorTask,77.0,53.0,,,HRV,HRV_0238,2022-11-30 19:24:04
,wl-rdm,170,386703,0.0-8.53-0.53,1.0,171.0,,,,,,,[],,,,,,62.5,1.0,u,0.0,False,823.0,50.0,60.0,40.0,False,,249.3631827811862,[],"[960, 540]",ColorTask,76.0,54.0,,,HRV,HRV_0238,2022-11-30 19:24:04
,wl-rdm,171,388853,0.0-8.54-0.54,1.0,172.0,,,,,,,[],,,,,,62.5,1.0,u,0.0,False,849.8999999761581,51.0,60.0,40.0,False,,227.35197701261512,[],"[960, 540]",ColorTask,75.0,55.0,,,HRV,HRV_0238,2022-11-30 19:24:04
,wl-rdm,172,390986,0.0-8.55-0.55,1.0,173.0,,,,,,,[],,,,,,50.0,1.0,i,1.0,True,660.6000000238419,40.0,60.0,40.0,False,,383.9808752731915,[],"[960, 540]",ColorTask,76.0,56.0,,,HRV,HRV_0238,2022-11-30 19:24:04
,wl-rdm,173,393086,0.0-8.56-0.56,1.0,174.0,,,,,,,[],,,,,,62.5,0.0,i,1.0,False,740.0,45.0,60.0,40.0,False,,277.4510217633935,[],"[960, 540]",ColorTask,75.0,57.0,,,HRV,HRV_0238,2022-11-30 19:24:04
,wl-rdm,174,395069,0.0-8.57-0.57,1.0,175.0,,,,,,,[],,,,,,56.4,1.0,i,1.0,True,639.8000000119209,39.0,60.0,40.0,False,,270.9676691501205,[],"[960, 540]",ColorTask,76.0,58.0,,,HRV,HRV_0238,2022-11-30 19:24:04
,wl-rdm,175,397269,0.0-8.58-0.58,1.0,176.0,,,,,,,[],,,,,,50.0,1.0,u,0.0,False,813.1000000238419,49.0,60.0,40.0,False,,318.60960110677524,[],"[960, 540]",ColorTask,75.0,59.0,,,HRV,HRV_0238,2022-11-30 19:24:04
,wl-rdm,176,399303,0.0-8.59-0.59,1.0,177.0,,,,,,,[],,,,,,73.6,1.0,i,1.0,True,646.5,39.0,60.0,40.0,False,,330.18405315740404,[],"[960, 540]",ColorTask,76.0,60.0,,,HRV,HRV_0238,2022-11-30 19:24:04
,wl-rdm,177,401486,0.0-8.60-0.60,1.0,178.0,,,,,,,[],,,,,,87.9,1.0,i,1.0,True,822.5999999642372,50.0,60.0,40.0,False,,285.4570236113682,[],"[960, 540]",ColorTask,77.0,61.0,,,HRV,HRV_0238,2022-11-30 19:24:04
,wl-rdm,178,403686,0.0-8.61-0.61,1.0,179.0,,,,,,,[],,,,,,56.4,0.0,i,1.0,False,797.9000000357628,48.0,60.0,40.0,False,,317.64181513412296,[],"[960, 540]",ColorTask,76.0,62.0,,,HRV,HRV_0238,2022-11-30 19:24:04
,wl-rdm,179,405786,0.0-8.62-0.62,1.0,180.0,,,,,,,[],,,,,,53.2,1.0,u,0.0,False,676.1999999880791,41.0,60.0,40.0,False,,356.2800365265566,[],"[960, 540]",ColorTask,75.0,63.0,,,HRV,HRV_0238,2022-11-30 19:24:04
,wl-rdm,180,407886,0.0-8.63-0.63,1.0,181.0,,,,,,,[],,,,,,73.6,0.0,u,0.0,True,772.6999999880791,47.0,60.0,40.0,False,,258.38797929954166,[],"[960, 540]",ColorTask,76.0,64.0,,,HRV,HRV_0238,2022-11-30 19:24:04
,wl-rdm,181,409919,0.0-8.64-0.64,1.0,182.0,,,,,,,[],,,,,,87.9,0.0,u,0.0,True,588.6999999880791,36.0,60.0,40.0,False,,361.79114990348353,[],"[960, 540]",ColorTask,77.0,65.0,,,HRV,HRV_0238,2022-11-30 19:24:04
,wl-rdm,182,412036,0.0-8.65-0.65,1.0,183.0,,,,,,,[],,,,,,62.5,0.0,i,1.0,False,849.3999999761581,51.0,60.0,40.0,False,,203.18273006624088,[],"[960, 540]",ColorTask,76.0,66.0,,,HRV,HRV_0238,2022-11-30 19:24:04
,wl-rdm,183,413953,0.0-8.66-0.66,1.0,184.0,,,,,,,[],,,,,,87.9,1.0,i,1.0,True,636.9999999403954,39.0,60.0,40.0,False,,210.3331017618761,[],"[960, 540]",ColorTask,77.0,67.0,,,HRV,HRV_0238,2022-11-30 19:24:04
,wl-rdm,184,415936,0.0-8.67-0.67,1.0,185.0,,,,,,,[],,,,,,62.5,1.0,u,0.0,False,654.1999999284744,40.0,60.0,40.0,False,,244.7384198783959,[],"[960, 540]",ColorTask,76.0,68.0,,,HRV,HRV_0238,2022-11-30 19:24:04
,wl-rdm,185,418053,0.0-8.68-0.68,1.0,186.0,,,,,,,[],,,,,,56.4,1.0,i,1.0,True,767.0000000596046,46.0,60.0,40.0,False,,283.19733774023894,[],"[960, 540]",ColorTask,77.0,69.0,,,HRV,HRV_0238,2022-11-30 19:24:04
,wl-rdm,186,419886,0.0-8.69-0.69,1.0,187.0,,,,,,,[],,,,,,53.2,0.0,i,1.0,False,523.1999999880791,32.0,60.0,40.0,False,,221.36033272527112,[],"[960, 540]",ColorTask,76.0,70.0,,,HRV,HRV_0238,2022-11-30 19:24:04
,wl-rdm,187,421936,0.0-8.70-0.70,1.0,188.0,,,,,,,[],,,,,,56.4,1.0,i,1.0,True,671.0,41.0,60.0,40.0,False,,287.4409061705653,[],"[960, 540]",ColorTask,77.0,71.0,,,HRV,HRV_0238,2022-11-30 19:24:04
,wl-rdm,188,423953,0.0-8.71-0.71,1.0,189.0,,,,,,,[],,,,,,62.5,1.0,i,1.0,True,737.0000000596046,45.0,60.0,40.0,False,,213.62833203780482,[],"[960, 540]",ColorTask,78.0,72.0,,,HRV,HRV_0238,2022-11-30 19:24:04
,wl-rdm,189,426286,0.0-8.72-0.72,1.0,190.0,,,,,,,[],,,,,,62.5,1.0,i,1.0,True,989.1000000238419,60.0,60.0,40.0,False,,278.49388956445637,[],"[960, 540]",ColorTask,79.0,73.0,,,HRV,HRV_0238,2022-11-30 19:24:04
,wl-rdm,190,428386,0.0-8.73-0.73,1.0,191.0,,,,,,,[],,,,,,87.9,0.0,u,0.0,True,670.1000000238419,41.0,60.0,40.0,False,,340.48693046834717,[],"[960, 540]",ColorTask,80.0,74.0,,,HRV,HRV_0238,2022-11-30 19:24:04
,wl-rdm,191,430353,0.0-8.74-0.74,1.0,192.0,,,,,,,[],,,,,,73.6,1.0,i,1.0,True,653.2000000476837,40.0,60.0,40.0,False,,235.19925146856542,[],"[960, 540]",ColorTask,81.0,75.0,,,HRV,HRV_0238,2022-11-30 19:24:04
,wl-rdm,192,432636,0.0-8.75-0.75,1.0,193.0,,,,,,,[],,,,,,56.4,1.0,u,0.0,False,858.3999999761581,52.0,60.0,40.0,False,,342.0744114402985,[],"[960, 540]",ColorTask,80.0,76.0,,,HRV,HRV_0238,2022-11-30 19:24:04
,wl-rdm,193,434804,0.0-8.76-0.76,1.0,194.0,,,,,,,[],,,,,,56.4,0.0,u,0.0,True,735.8000000119209,45.0,60.0,40.0,False,,344.97284808863736,[],"[960, 540]",ColorTask,81.0,77.0,,,HRV,HRV_0238,2022-11-30 19:24:04
,wl-rdm,194,436920,0.0-8.77-0.77,1.0,195.0,,,,,,,[],,,,,,62.5,1.0,i,1.0,True,646.3000000119209,39.0,60.0,40.0,False,,393.53198843959865,[],"[960, 540]",ColorTask,82.0,78.0,,,HRV,HRV_0238,2022-11-30 19:24:04
,wl-rdm,195,438953,0.0-8.78-0.78,1.0,196.0,,,,,,,[],,,,,,62.5,1.0,i,1.0,True,727.8000000119209,44.0,60.0,40.0,False,,241.61610814241106,[],"[960, 540]",ColorTask,83.0,79.0,,,HRV,HRV_0238,2022-11-30 19:24:04
,wl-rdm,196,441420,0.0-8.79-0.79,1.0,197.0,,,,,,,[],,,,,,50.0,0.0,u,0.0,True,1191.800000011921,72.0,60.0,40.0,False,,206.36170752223677,[],"[960, 540]",ColorTask,84.0,80.0,,,HRV,HRV_0238,2022-11-30 19:24:04
,wl-rdm,197,443537,0.0-8.80-0.80,1.0,198.0,,,,,,,[],,,,,,50.0,0.0,i,1.0,False,820.6000000238419,50.0,60.0,40.0,False,,209.00568955953145,[],"[960, 540]",ColorTask,83.0,81.0,,,HRV,HRV_0238,2022-11-30 19:24:04
,wl-rdm,198,445870,0.0-8.81-0.81,1.0,199.0,,,,,,,[],,,,,,53.2,0.0,u,0.0,True,956.7000000476837,58.0,60.0,40.0,False,,295.22117769090914,[],"[960, 540]",ColorTask,84.0,82.0,,,HRV,HRV_0238,2022-11-30 19:24:04
,wl-rdm,199,448320,0.0-8.82-0.82,1.0,200.0,,,,,,,[],,,,,,62.5,0.0,u,0.0,True,1021.5000000596046,62.0,60.0,40.0,False,,355.0930205682746,[],"[960, 540]",ColorTask,85.0,83.0,,,HRV,HRV_0238,2022-11-30 19:24:04
,wl-rdm,200,450753,0.0-8.83-0.83,1.0,201.0,,,,,,,[],,,,,,50.0,1.0,u,0.0,False,1105.7999999523163,67.0,60.0,40.0,False,,236.6789024659649,[],"[960, 540]",ColorTask,84.0,84.0,,,HRV,HRV_0238,2022-11-30 19:24:04
,wl-rdm,201,453071,0.0-8.84-0.84,1.0,202.0,,,,,,,[],,,,,,56.4,1.0,i,1.0,True,956.2999999523163,58.0,60.0,40.0,False,,296.9285006410446,[],"[960, 540]",ColorTask,85.0,85.0,,,HRV,HRV_0238,2022-11-30 19:24:04
,wl-rdm,202,455320,0.0-8.85-0.85,1.0,203.0,,,,,,,[],,,,,,53.2,0.0,u,0.0,True,846.5000000596046,51.0,60.0,40.0,False,,317.9022826281408,[],"[960, 540]",ColorTask,86.0,86.0,,,HRV,HRV_0238,2022-11-30 19:24:04
,wl-rdm,203,457920,0.0-8.86-0.86,1.0,204.0,,,,,,,[],,,,,,62.5,0.0,u,0.0,True,1121.7000000476837,68.0,60.0,40.0,False,,393.8247544734938,[],"[960, 540]",ColorTask,87.0,87.0,,,HRV,HRV_0238,2022-11-30 19:24:04
,wl-rdm,204,460153,0.0-8.87-0.87,1.0,205.0,,,,,,,[],,,,,,56.4,1.0,u,0.0,False,811.8000000119209,49.0,60.0,40.0,False,,341.5633035484142,[],"[960, 540]",ColorTask,86.0,88.0,,,HRV,HRV_0238,2022-11-30 19:24:04
,wl-rdm,205,462070,0.0-8.88-0.88,1.0,206.0,,,,,,,[],,,,,,50.0,1.0,u,0.0,False,631.6000000238419,38.0,60.0,40.0,False,,216.64319406652552,[],"[960, 540]",ColorTask,85.0,89.0,,,HRV,HRV_0238,2022-11-30 19:24:04
,wl-rdm,206,464453,0.0-8.89-0.89,1.0,207.0,,,,,,,[],,,,,,50.0,0.0,u,0.0,True,1015.8999999761581,61.0,60.0,40.0,False,,296.7025931122002,[],"[960, 540]",ColorTask,86.0,90.0,,,HRV,HRV_0238,2022-11-30 19:24:04
,wl-rdm,207,466870,0.0-8.90-0.90,1.0,208.0,,,,,,,[],,,,,,53.2,0.0,i,1.0,False,1065.5,64.0,60.0,40.0,False,,273.12202659092,[],"[960, 540]",ColorTask,85.0,91.0,,,HRV,HRV_0238,2022-11-30 19:24:04
,wl-rdm,208,468853,0.0-8.91-0.91,1.0,209.0,,,,,,,[],,,,,,62.5,0.0,u,0.0,True,565.1999999880791,34.0,60.0,40.0,False,,356.15648896646417,[],"[960, 540]",ColorTask,86.0,92.0,,,HRV,HRV_0238,2022-11-30 19:24:04
,wl-rdm,209,471087,0.0-8.92-0.92,1.0,210.0,,,,,,,[],,,,,,53.2,1.0,u,0.0,False,890.1000000238419,54.0,60.0,40.0,False,,261.15901123302206,[],"[960, 540]",ColorTask,85.0,93.0,,,HRV,HRV_0238,2022-11-30 19:24:04
,wl-rdm,210,473270,0.0-8.93-0.93,1.0,211.0,,,,,,,[],,,,,,56.4,0.0,u,0.0,True,898.3000000119209,54.0,60.0,40.0,False,,208.3173708867474,[],"[960, 540]",ColorTask,86.0,94.0,,,HRV,HRV_0238,2022-11-30 19:24:04
,wl-rdm,211,475470,0.0-8.94-0.94,1.0,212.0,,,,,,,[],,,,,,73.6,1.0,i,1.0,True,824.2000000476837,50.0,60.0,40.0,False,,289.0375143006352,[],"[960, 540]",ColorTask,87.0,95.0,,,HRV,HRV_0238,2022-11-30 19:24:04
,wl-rdm,212,478037,0.0-8.95-0.95,1.0,213.0,,,,,,,[],,,,,,87.9,1.0,i,1.0,True,1199.7000000476837,72.0,60.0,40.0,False,,283.37953703050334,[],"[960, 540]",ColorTask,88.0,96.0,,,HRV,HRV_0238,2022-11-30 19:24:04
,wl-rdm,213,480003,0.0-8.96-0.96,1.0,214.0,,,,,,,[],,,,,,87.9,0.0,u,0.0,True,601.8000000119209,37.0,60.0,40.0,False,,281.39080740034353,[],"[960, 540]",ColorTask,89.0,97.0,,,HRV,HRV_0238,2022-11-30 19:24:04
,wl-rdm,214,482303,0.0-8.97-0.97,1.0,215.0,,,,,,,[],,,,,,53.2,1.0,i,1.0,True,938.4000000357628,57.0,60.0,40.0,False,,291.94281505914967,[],"[960, 540]",ColorTask,90.0,98.0,,,HRV,HRV_0238,2022-11-30 19:24:04
,wl-rdm,215,484188,0.0-8.98-0.98,1.0,216.0,,,,,,,[],,,,,,73.6,0.0,u,0.0,True,592.8999999761581,36.0,60.0,40.0,False,,218.54638652478008,[],"[960, 540]",ColorTask,91.0,99.0,,,HRV,HRV_0238,2022-11-30 19:24:04
,wl-rdm,216,486403,0.0-8.99-0.99,1.0,217.0,,,,,,,[],,,,,,53.2,0.0,i,1.0,False,885.5000000596046,54.0,60.0,40.0,False,,264.5788853585008,[],"[960, 540]",ColorTask,90.0,100.0,,,HRV,HRV_0238,2022-11-30 19:24:04
,wl-rdm,217,488403,0.0-8.100-0.100,1.0,218.0,,,,,,,[],,,,,,53.2,1.0,i,1.0,True,701.6000000238419,43.0,60.0,40.0,False,,217.45593579954172,[],"[960, 540]",ColorTask,91.0,101.0,,,HRV,HRV_0238,2022-11-30 19:24:04
,wl-rdm,218,490320,0.0-8.101-0.101,1.0,219.0,,,,,,,[],,,,,,87.9,0.0,u,0.0,True,604.5,37.0,60.0,40.0,False,,237.19742232544274,[],"[960, 540]",ColorTask,92.0,102.0,,,HRV,HRV_0238,2022-11-30 19:24:04
,wl-rdm,219,492353,0.0-8.102-0.102,1.0,220.0,,,,,,,[],,,,,,53.2,1.0,u,0.0,False,619.9000000357628,38.0,60.0,40.0,False,,347.6939219350447,[],"[960, 540]",ColorTask,91.0,103.0,,,HRV,HRV_0238,2022-11-30 19:24:04
,wl-rdm,220,494303,0.0-8.103-0.103,1.0,221.0,,,,,,,[],,,,,,73.6,0.0,u,0.0,True,672.0999999642372,41.0,60.0,40.0,False,,203.6996954755386,[],"[960, 540]",ColorTask,92.0,104.0,,,HRV,HRV_0238,2022-11-30 19:24:04
,wl-rdm,221,496270,0.0-8.104-0.104,1.0,222.0,,,,,,,[],,,,,,56.4,0.0,u,0.0,True,673.7000000476837,41.0,60.0,40.0,False,,205.03189774842184,[],"[960, 540]",ColorTask,93.0,105.0,,,HRV,HRV_0238,2022-11-30 19:24:04
,wl-rdm,222,498154,0.0-8.105-0.105,1.0,223.0,,,,,,,[],,,,,,73.6,0.0,u,0.0,True,594.5999999642372,36.0,60.0,40.0,False,,223.01207289835662,[],"[960, 540]",ColorTask,94.0,106.0,,,HRV,HRV_0238,2022-11-30 19:24:04
,wl-rdm,223,500587,0.0-8.106-0.106,1.0,224.0,,,,,,,[],,,,,,50.0,0.0,i,1.0,False,1043.8999999761581,63.0,60.0,40.0,False,,306.931482029499,[],"[960, 540]",ColorTask,93.0,107.0,,,HRV,HRV_0238,2022-11-30 19:24:04
,wl-rdm,224,502803,0.0-8.107-0.107,1.0,225.0,,,,,,,[],,,,,,87.9,1.0,i,1.0,True,817.8000000715256,50.0,60.0,40.0,False,,318.66426185923956,[],"[960, 540]",ColorTask,94.0,108.0,,,HRV,HRV_0238,2022-11-30 19:24:04
,wl-html-button-response,225,505715,0.0-9.0-0.0,,,,,,,,,,2908.400000035763,,0,,,,,,,,,,,,,,,,,,,,<h3>End of this session. Thank you!</h3><br>,['Close window'],HRV,HRV_0238,2022-11-30 19:24:04
