trialN,stimuli,trialStartTime,trialStartTime_UNIX,stimulus1,stimulus2,stimulus1Bid,stimulus2Bid,delta,selected,rt,rt_UNIX,rt_perfnow,receivedResponse,rsp,trialEndTime,trialDuration,trialEndTime_UNIX,trialDuration_UNIX,exp,subjectId,date
0,"[{'imgObject': {}, 'id': 'raspberries', 'src': '/static/foodstim60/raspberries.jpg', 'key': 'u', 'origWidth': 411, 'origHeight': 411, 'width': 411, 'height': 411, 'widthPercent': 0.45, 'rescaleHeight': False, 'trialN': 0, 'loaded': True, 'loadedTime': 2175.899999976158, 'positionName': 'LEFT', 'positionCoords': [510.6, 334.5], 'bid': 2.39}, {'imgObject': {}, 'id': 'orange slices', 'src': '/static/foodstim60/orange slices.jpg', 'key': 'i', 'origWidth': 409, 'origHeight': 410, 'width': 409, 'height': 410, 'widthPercent': 0.45, 'rescaleHeight': False, 'trialN': 0, 'loaded': True, 'loadedTime': 2187.599999964237, 'positionName': 'RIGHT', 'positionCoords': [998.4, 335], 'bid': 3.42}]",2591.5,1669834623417,raspberries,orange slices,2.39,3.42,1.0299999999999998,raspberries,2203.5,2204,2204.0,True,u,5303.399999976158,2711.899999976158,1669834626129,2712,HRV,HRV_0238,2022-11-30 19:02:17
1,"[{'imgObject': {}, 'id': 'banana', 'src': '/static/foodstim60/banana.jpg', 'key': 'u', 'origWidth': 410, 'origHeight': 410, 'width': 410, 'height': 410, 'widthPercent': 0.45, 'rescaleHeight': False, 'trialN': 1, 'loaded': True, 'loadedTime': 2192.2999999523163, 'positionName': 'LEFT', 'positionCoords': [511.6, 335], 'bid': 2.8000000000000003}, {'imgObject': {}, 'id': 'cantaloupe', 'src': '/static/foodstim60/cantaloupe.jpg', 'key': 'i', 'origWidth': 409, 'origHeight': 409, 'width': 409, 'height': 409, 'widthPercent': 0.45, 'rescaleHeight': False, 'trialN': 1, 'loaded': True, 'loadedTime': 2194.699999988079, 'positionName': 'RIGHT', 'positionCoords': [998.4, 335.5], 'bid': 3.06}]",5303.799999952316,1669834626129,banana,cantaloupe,2.8000000000000003,3.06,0.2599999999999998,banana,1186.800000011921,1188,1187.2000000476837,True,u,7006.799999952316,1703.0,1669834627832,1703,HRV,HRV_0238,2022-11-30 19:02:17
2,"[{'imgObject': {}, 'id': 'burger', 'src': '/static/foodstim60/burger.jpg', 'key': 'u', 'origWidth': 409, 'origHeight': 409, 'width': 409, 'height': 409, 'widthPercent': 0.45, 'rescaleHeight': False, 'trialN': 2, 'loaded': True, 'loadedTime': 2196.599999964237, 'positionName': 'LEFT', 'positionCoords': [512.6, 335.5], 'bid': 7.17}, {'imgObject': {}, 'id': 'cocktailshrimp', 'src': '/static/foodstim60/cocktailshrimp.jpg', 'key': 'i', 'origWidth': 410, 'origHeight': 410, 'width': 410, 'height': 410, 'widthPercent': 0.45, 'rescaleHeight': False, 'trialN': 2, 'loaded': True, 'loadedTime': 2197.7999999523163, 'positionName': 'RIGHT', 'positionCoords': [998.4, 335], 'bid': 7.01}]",7007.399999976158,1669834627833,burger,cocktailshrimp,7.17,7.01,-0.16000000000000014,burger,1435.199999988079,1435,1435.5,True,u,8954.399999976158,1947.0,1669834629780,1947,HRV,HRV_0238,2022-11-30 19:02:17
3,"[{'imgObject': {}, 'id': 'cocktailshrimp', 'src': '/static/foodstim60/cocktailshrimp.jpg', 'key': 'u', 'origWidth': 410, 'origHeight': 410, 'width': 410, 'height': 410, 'widthPercent': 0.45, 'rescaleHeight': False, 'trialN': 3, 'loaded': True, 'loadedTime': 2197.7999999523163, 'positionName': 'LEFT', 'positionCoords': [511.6, 335], 'bid': 7.01}, {'imgObject': {}, 'id': 'salmon', 'src': '/static/foodstim60/salmon.jpg', 'key': 'i', 'origWidth': 410, 'origHeight': 409, 'width': 410, 'height': 409, 'widthPercent': 0.45, 'rescaleHeight': False, 'trialN': 3, 'loaded': True, 'loadedTime': 2199.399999976158, 'positionName': 'RIGHT', 'positionCoords': [998.4, 335.5], 'bid': 6.6000000000000005}]",8954.899999976158,1669834629780,cocktailshrimp,salmon,7.01,6.6000000000000005,-0.40999999999999925,salmon,1120.300000011921,1121,1120.8999999761581,True,i,10585.699999988079,1630.800000011921,1669834631411,1631,HRV,HRV_0238,2022-11-30 19:02:17
4,"[{'imgObject': {}, 'id': 'popsicles', 'src': '/static/foodstim60/popsicles.jpg', 'key': 'u', 'origWidth': 410, 'origHeight': 410, 'width': 410, 'height': 410, 'widthPercent': 0.45, 'rescaleHeight': False, 'trialN': 4, 'loaded': True, 'loadedTime': 2590.199999988079, 'positionName': 'LEFT', 'positionCoords': [511.6, 335], 'bid': 3.39}, {'imgObject': {}, 'id': 'shreddedwheatwithmilk', 'src': '/static/foodstim60/shreddedwheatwithmilk.jpg', 'key': 'i', 'origWidth': 410, 'origHeight': 410, 'width': 410, 'height': 410, 'widthPercent': 0.45, 'rescaleHeight': False, 'trialN': 4, 'loaded': True, 'loadedTime': 2201.099999964237, 'positionName': 'RIGHT', 'positionCoords': [998.4, 335], 'bid': 2.32}]",10585.799999952316,1669834631411,popsicles,shreddedwheatwithmilk,3.39,2.32,-1.0700000000000003,shreddedwheatwithmilk,1009.0,1009,1009.1000000238419,True,i,12102.199999988079,1516.4000000357628,1669834632928,1517,HRV,HRV_0238,2022-11-30 19:02:17
5,"[{'imgObject': {}, 'id': 'bagel plain', 'src': '/static/foodstim60/bagel plain.jpg', 'key': 'u', 'origWidth': 410, 'origHeight': 410, 'width': 410, 'height': 410, 'widthPercent': 0.45, 'rescaleHeight': False, 'trialN': 5, 'loaded': True, 'loadedTime': 2207.2999999523163, 'positionName': 'LEFT', 'positionCoords': [511.6, 335], 'bid': 2.19}, {'imgObject': {}, 'id': 'blackbeanswithrice', 'src': '/static/foodstim60/blackbeanswithrice.jpg', 'key': 'i', 'origWidth': 410, 'origHeight': 410, 'width': 410, 'height': 410, 'widthPercent': 0.45, 'rescaleHeight': False, 'trialN': 5, 'loaded': True, 'loadedTime': 2219.199999988079, 'positionName': 'RIGHT', 'positionCoords': [998.4, 335], 'bid': 1.79}]",12102.5,1669834632928,bagel plain,blackbeanswithrice,2.19,1.79,-0.3999999999999999,bagel plain,1940.7999999523163,1941,1941.0999999642372,True,u,14557.799999952316,2455.2999999523163,1669834635383,2455,HRV,HRV_0238,2022-11-30 19:02:17
6,"[{'imgObject': {}, 'id': 'mango', 'src': '/static/foodstim60/mango.jpg', 'key': 'u', 'origWidth': 411, 'origHeight': 411, 'width': 411, 'height': 411, 'widthPercent': 0.45, 'rescaleHeight': False, 'trialN': 6, 'loaded': True, 'loadedTime': 2227.699999988079, 'positionName': 'LEFT', 'positionCoords': [510.6, 334.5], 'bid': 3.47}, {'imgObject': {}, 'id': 'hashbrowns', 'src': '/static/foodstim60/hashbrowns.jpg', 'key': 'i', 'origWidth': 411, 'origHeight': 410, 'width': 411, 'height': 410, 'widthPercent': 0.45, 'rescaleHeight': False, 'trialN': 6, 'loaded': True, 'loadedTime': 2233.5, 'positionName': 'RIGHT', 'positionCoords': [998.4, 335], 'bid': 5.44}]",14558.099999964237,1669834635384,mango,hashbrowns,3.47,5.44,1.9700000000000002,hashbrowns,1516.300000011921,1516,1516.5,True,i,16579.0,2020.9000000357628,1669834637404,2020,HRV,HRV_0238,2022-11-30 19:02:17
7,"[{'imgObject': {}, 'id': 'turkeysandwich', 'src': '/static/foodstim60/turkeysandwich.jpg', 'key': 'u', 'origWidth': 409, 'origHeight': 409, 'width': 409, 'height': 409, 'widthPercent': 0.45, 'rescaleHeight': False, 'trialN': 7, 'loaded': True, 'loadedTime': 2248, 'positionName': 'LEFT', 'positionCoords': [512.6, 335.5], 'bid': 6.72}, {'imgObject': {}, 'id': 'salmon', 'src': '/static/foodstim60/salmon.jpg', 'key': 'i', 'origWidth': 410, 'origHeight': 409, 'width': 410, 'height': 409, 'widthPercent': 0.45, 'rescaleHeight': False, 'trialN': 7, 'loaded': True, 'loadedTime': 2199.199999988079, 'positionName': 'RIGHT', 'positionCoords': [998.4, 335.5], 'bid': 6.6000000000000005}]",16579.299999952316,1669834637405,turkeysandwich,salmon,6.72,6.6000000000000005,-0.11999999999999922,turkeysandwich,1255.7000000476837,1256,1256.300000011921,True,u,18351.5,1772.2000000476837,1669834639177,1772,HRV,HRV_0238,2022-11-30 19:02:17
8,"[{'imgObject': {}, 'id': 'olives', 'src': '/static/foodstim60/olives.jpg', 'key': 'u', 'origWidth': 410, 'origHeight': 410, 'width': 410, 'height': 410, 'widthPercent': 0.45, 'rescaleHeight': False, 'trialN': 8, 'loaded': True, 'loadedTime': 2253.5, 'positionName': 'LEFT', 'positionCoords': [511.6, 335], 'bid': 2.67}, {'imgObject': {}, 'id': 'bagel plain', 'src': '/static/foodstim60/bagel plain.jpg', 'key': 'i', 'origWidth': 410, 'origHeight': 410, 'width': 410, 'height': 410, 'widthPercent': 0.45, 'rescaleHeight': False, 'trialN': 8, 'loaded': True, 'loadedTime': 2207.599999964237, 'positionName': 'RIGHT', 'positionCoords': [998.4, 335], 'bid': 2.19}]",18351.599999964237,1669834639177,olives,bagel plain,2.67,2.19,-0.48,olives,1787.300000011921,1788,1788.1000000238419,True,u,20649.299999952316,2297.699999988079,1669834641475,2298,HRV,HRV_0238,2022-11-30 19:02:17
9,"[{'imgObject': {}, 'id': 'tacos', 'src': '/static/foodstim60/tacos.jpg', 'key': 'u', 'origWidth': 411, 'origHeight': 411, 'width': 411, 'height': 411, 'widthPercent': 0.45, 'rescaleHeight': False, 'trialN': 9, 'loaded': True, 'loadedTime': 2266.599999964237, 'positionName': 'LEFT', 'positionCoords': [510.6, 334.5], 'bid': 5.32}, {'imgObject': {}, 'id': 'lox', 'src': '/static/foodstim60/lox.jpg', 'key': 'i', 'origWidth': 410, 'origHeight': 411, 'width': 410, 'height': 411, 'widthPercent': 0.45, 'rescaleHeight': False, 'trialN': 9, 'loaded': True, 'loadedTime': 2268, 'positionName': 'RIGHT', 'positionCoords': [998.4, 334.5], 'bid': 5.72}]",20649.69999998808,1669834641475,tacos,lox,5.32,5.72,0.39999999999999947,tacos,1041.199999988079,1042,1041.5,True,u,22206.599999964237,1556.8999999761581,1669834643032,1557,HRV,HRV_0238,2022-11-30 19:02:17
10,"[{'imgObject': {}, 'id': 'rigatoni and sauce', 'src': '/static/foodstim60/rigatoni and sauce.jpg', 'key': 'u', 'origWidth': 410, 'origHeight': 411, 'width': 410, 'height': 411, 'widthPercent': 0.45, 'rescaleHeight': False, 'trialN': 10, 'loaded': True, 'loadedTime': 2274.5, 'positionName': 'LEFT', 'positionCoords': [511.6, 334.5], 'bid': 3.59}, {'imgObject': {}, 'id': 'hotdog w must', 'src': '/static/foodstim60/hotdog w must.jpg', 'key': 'i', 'origWidth': 409, 'origHeight': 409, 'width': 409, 'height': 409, 'widthPercent': 0.45, 'rescaleHeight': False, 'trialN': 10, 'loaded': True, 'loadedTime': 2289.699999988079, 'positionName': 'RIGHT', 'positionCoords': [998.4, 335.5], 'bid': 6.25}]",22206.899999976158,1669834643032,rigatoni and sauce,hotdog w must,3.59,6.25,2.66,hotdog w must,1291.800000011921,1292,1292.1000000238419,True,i,24002.099999964237,1795.199999988079,1669834644828,1796,HRV,HRV_0238,2022-11-30 19:02:17
11,"[{'imgObject': {}, 'id': 'apple slices', 'src': '/static/foodstim60/apple slices.jpg', 'key': 'u', 'origWidth': 409, 'origHeight': 410, 'width': 409, 'height': 410, 'widthPercent': 0.45, 'rescaleHeight': False, 'trialN': 11, 'loaded': True, 'loadedTime': 2294.7999999523163, 'positionName': 'LEFT', 'positionCoords': [512.6, 335], 'bid': 3.25}, {'imgObject': {}, 'id': 'blackbeanswithrice', 'src': '/static/foodstim60/blackbeanswithrice.jpg', 'key': 'i', 'origWidth': 410, 'origHeight': 410, 'width': 410, 'height': 410, 'widthPercent': 0.45, 'rescaleHeight': False, 'trialN': 11, 'loaded': True, 'loadedTime': 2212.699999988079, 'positionName': 'RIGHT', 'positionCoords': [998.4, 335], 'bid': 1.79}]",24002.299999952316,1669834644828,apple slices,blackbeanswithrice,3.25,1.79,-1.46,blackbeanswithrice,1561.300000011921,1561,1561.6000000238419,True,i,26075.599999964237,2073.300000011921,1669834646901,2073,HRV,HRV_0238,2022-11-30 19:02:17
12,"[{'imgObject': {}, 'id': 'Grapes', 'src': '/static/foodstim60/Grapes.jpg', 'key': 'u', 'origWidth': 411, 'origHeight': 411, 'width': 411, 'height': 411, 'widthPercent': 0.45, 'rescaleHeight': False, 'trialN': 12, 'loaded': True, 'loadedTime': 2307.7999999523163, 'positionName': 'LEFT', 'positionCoords': [510.6, 334.5], 'bid': 4.16}, {'imgObject': {}, 'id': 'corn cob', 'src': '/static/foodstim60/corn cob.jpg', 'key': 'i', 'origWidth': 411, 'origHeight': 411, 'width': 411, 'height': 411, 'widthPercent': 0.45, 'rescaleHeight': False, 'trialN': 12, 'loaded': True, 'loadedTime': 2309.699999988079, 'positionName': 'RIGHT', 'positionCoords': [998.4, 334.5], 'bid': 1.14}]",26075.799999952316,1669834646901,Grapes,corn cob,4.16,1.14,-3.0200000000000005,Grapes,1071.1000000238419,1072,1071.300000011921,True,u,27654.299999952316,1578.5,1669834648480,1579,HRV,HRV_0238,2022-11-30 19:02:17
13,"[{'imgObject': {}, 'id': 'corn cob', 'src': '/static/foodstim60/corn cob.jpg', 'key': 'u', 'origWidth': 411, 'origHeight': 411, 'width': 411, 'height': 411, 'widthPercent': 0.45, 'rescaleHeight': False, 'trialN': 13, 'loaded': True, 'loadedTime': 2314.5, 'positionName': 'LEFT', 'positionCoords': [510.6, 334.5], 'bid': 1.14}, {'imgObject': {}, 'id': 'rigatoni', 'src': '/static/foodstim60/rigatoni.jpg', 'key': 'i', 'origWidth': 411, 'origHeight': 411, 'width': 411, 'height': 411, 'widthPercent': 0.45, 'rescaleHeight': False, 'trialN': 13, 'loaded': True, 'loadedTime': 2323.399999976158, 'positionName': 'RIGHT', 'positionCoords': [998.4, 334.5], 'bid': 1.58}]",27654.5,1669834648480,corn cob,rigatoni,1.14,1.58,0.44000000000000017,rigatoni,1156.2999999523163,1157,1156.5999999642372,True,i,29322.5,1668.0,1669834650148,1668,HRV,HRV_0238,2022-11-30 19:02:17
14,"[{'imgObject': {}, 'id': 'rigatoni and sauce', 'src': '/static/foodstim60/rigatoni and sauce.jpg', 'key': 'u', 'origWidth': 410, 'origHeight': 411, 'width': 410, 'height': 411, 'widthPercent': 0.45, 'rescaleHeight': False, 'trialN': 14, 'loaded': True, 'loadedTime': 2279.5, 'positionName': 'LEFT', 'positionCoords': [511.6, 334.5], 'bid': 3.59}, {'imgObject': {}, 'id': 'grilled chicken strips', 'src': '/static/foodstim60/grilled chicken strips.jpg', 'key': 'i', 'origWidth': 410, 'origHeight': 411, 'width': 410, 'height': 411, 'widthPercent': 0.45, 'rescaleHeight': False, 'trialN': 14, 'loaded': True, 'loadedTime': 2324.2999999523163, 'positionName': 'RIGHT', 'positionCoords': [998.4, 334.5], 'bid': 8.2}]",29322.899999976158,1669834650148,rigatoni and sauce,grilled chicken strips,3.59,8.2,4.609999999999999,rigatoni and sauce,847.6999999880791,848,848.0,True,u,30674.19999998808,1351.300000011921,1669834651500,1352,HRV,HRV_0238,2022-11-30 19:02:17
15,"[{'imgObject': {}, 'id': 'fruitsalad', 'src': '/static/foodstim60/fruitsalad.jpg', 'key': 'u', 'origWidth': 410, 'origHeight': 410, 'width': 410, 'height': 410, 'widthPercent': 0.45, 'rescaleHeight': False, 'trialN': 15, 'loaded': True, 'loadedTime': 2331.5, 'positionName': 'LEFT', 'positionCoords': [511.6, 335], 'bid': 3.8}, {'imgObject': {}, 'id': 'Grapes', 'src': '/static/foodstim60/Grapes.jpg', 'key': 'i', 'origWidth': 411, 'origHeight': 411, 'width': 411, 'height': 411, 'widthPercent': 0.45, 'rescaleHeight': False, 'trialN': 15, 'loaded': True, 'loadedTime': 2300.7999999523163, 'positionName': 'RIGHT', 'positionCoords': [998.4, 334.5], 'bid': 4.16}]",30674.799999952316,1669834651500,fruitsalad,Grapes,3.8,4.16,0.3600000000000003,Grapes,2888.300000011921,2889,2888.600000023842,True,i,34067.19999998808,3392.400000035763,1669834654893,3393,HRV,HRV_0238,2022-11-30 19:02:17
16,"[{'imgObject': {}, 'id': 'banana', 'src': '/static/foodstim60/banana.jpg', 'key': 'u', 'origWidth': 410, 'origHeight': 410, 'width': 410, 'height': 410, 'widthPercent': 0.45, 'rescaleHeight': False, 'trialN': 16, 'loaded': True, 'loadedTime': 2191.7999999523163, 'positionName': 'LEFT', 'positionCoords': [511.6, 335], 'bid': 2.8000000000000003}, {'imgObject': {}, 'id': 'rigatoni', 'src': '/static/foodstim60/rigatoni.jpg', 'key': 'i', 'origWidth': 411, 'origHeight': 411, 'width': 411, 'height': 411, 'widthPercent': 0.45, 'rescaleHeight': False, 'trialN': 16, 'loaded': True, 'loadedTime': 2315.5, 'positionName': 'RIGHT', 'positionCoords': [998.4, 334.5], 'bid': 1.58}]",34067.69999998808,1669834654893,banana,rigatoni,2.8000000000000003,1.58,-1.2200000000000002,banana,871.1999999880791,872,871.6999999880791,True,u,35441.69999998808,1374.0,1669834656267,1374,HRV,HRV_0238,2022-11-30 19:02:17
17,"[{'imgObject': {}, 'id': 'roastedpotatoes', 'src': '/static/foodstim60/roastedpotatoes.jpg', 'key': 'u', 'origWidth': 409, 'origHeight': 410, 'width': 409, 'height': 410, 'widthPercent': 0.45, 'rescaleHeight': False, 'trialN': 17, 'loaded': True, 'loadedTime': 2349.7999999523163, 'positionName': 'LEFT', 'positionCoords': [512.6, 335], 'bid': 7.65}, {'imgObject': {}, 'id': 'steak', 'src': '/static/foodstim60/steak.jpg', 'key': 'i', 'origWidth': 410, 'origHeight': 410, 'width': 410, 'height': 410, 'widthPercent': 0.45, 'rescaleHeight': False, 'trialN': 17, 'loaded': True, 'loadedTime': 2374.199999988079, 'positionName': 'RIGHT', 'positionCoords': [998.4, 335], 'bid': 7.79}]",35441.799999952316,1669834656267,roastedpotatoes,steak,7.65,7.79,0.13999999999999968,steak,1561.1000000238419,1562,1561.300000011921,True,i,37505.59999996424,2063.800000011921,1669834658331,2064,HRV,HRV_0238,2022-11-30 19:02:17
18,"[{'imgObject': {}, 'id': 'rigatoni and sauce', 'src': '/static/foodstim60/rigatoni and sauce.jpg', 'key': 'u', 'origWidth': 410, 'origHeight': 411, 'width': 410, 'height': 411, 'widthPercent': 0.45, 'rescaleHeight': False, 'trialN': 18, 'loaded': True, 'loadedTime': 2279.399999976158, 'positionName': 'LEFT', 'positionCoords': [511.6, 334.5], 'bid': 3.59}, {'imgObject': {}, 'id': 'tacos', 'src': '/static/foodstim60/tacos.jpg', 'key': 'i', 'origWidth': 411, 'origHeight': 411, 'width': 411, 'height': 411, 'widthPercent': 0.45, 'rescaleHeight': False, 'trialN': 18, 'loaded': True, 'loadedTime': 2260.899999976158, 'positionName': 'RIGHT', 'positionCoords': [998.4, 334.5], 'bid': 5.32}]",37505.799999952316,1669834658331,rigatoni and sauce,tacos,3.59,5.32,1.7300000000000004,tacos,825.3000000119209,826,826.0,True,i,38843.69999998808,1337.9000000357628,1669834659669,1338,HRV,HRV_0238,2022-11-30 19:02:17
19,"[{'imgObject': {}, 'id': 'eggsalad', 'src': '/static/foodstim60/eggsalad.jpg', 'key': 'u', 'origWidth': 410, 'origHeight': 409, 'width': 410, 'height': 409, 'widthPercent': 0.45, 'rescaleHeight': False, 'trialN': 19, 'loaded': True, 'loadedTime': 2375, 'positionName': 'LEFT', 'positionCoords': [511.6, 335.5], 'bid': 8.11}, {'imgObject': {}, 'id': 'salmon', 'src': '/static/foodstim60/salmon.jpg', 'key': 'i', 'origWidth': 410, 'origHeight': 409, 'width': 410, 'height': 409, 'widthPercent': 0.45, 'rescaleHeight': False, 'trialN': 19, 'loaded': True, 'loadedTime': 2199.599999964237, 'positionName': 'RIGHT', 'positionCoords': [998.4, 335.5], 'bid': 6.6000000000000005}]",38843.89999997616,1669834659669,eggsalad,salmon,8.11,6.6000000000000005,-1.509999999999999,eggsalad,1423.199999988079,1424,1423.6000000238419,True,u,40777.5,1933.6000000238419,1669834661603,1934,HRV,HRV_0238,2022-11-30 19:02:17
20,"[{'imgObject': {}, 'id': 'bagel and cc', 'src': '/static/foodstim60/bagel and cc.jpg', 'key': 'u', 'origWidth': 410, 'origHeight': 410, 'width': 410, 'height': 410, 'widthPercent': 0.45, 'rescaleHeight': False, 'trialN': 20, 'loaded': True, 'loadedTime': 2406.199999988079, 'positionName': 'LEFT', 'positionCoords': [511.6, 335], 'bid': 6.86}, {'imgObject': {}, 'id': 'eggs', 'src': '/static/foodstim60/eggs.jpg', 'key': 'i', 'origWidth': 409, 'origHeight': 409, 'width': 409, 'height': 409, 'widthPercent': 0.45, 'rescaleHeight': False, 'trialN': 20, 'loaded': True, 'loadedTime': 2433, 'positionName': 'RIGHT', 'positionCoords': [998.4, 335.5], 'bid': 9.11}]",40777.69999998808,1669834661603,bagel and cc,eggs,6.86,9.11,2.249999999999999,eggs,897.0,897,897.3000000119209,True,i,42183.59999996424,1405.8999999761581,1669834663009,1406,HRV,HRV_0238,2022-11-30 19:02:17
21,"[{'imgObject': {}, 'id': 'mashed potato', 'src': '/static/foodstim60/mashed potato.jpg', 'key': 'u', 'origWidth': 409, 'origHeight': 409, 'width': 409, 'height': 409, 'widthPercent': 0.45, 'rescaleHeight': False, 'trialN': 21, 'loaded': True, 'loadedTime': 2443, 'positionName': 'LEFT', 'positionCoords': [512.6, 335.5], 'bid': 6.42}, {'imgObject': {}, 'id': 'hotdog w must', 'src': '/static/foodstim60/hotdog w must.jpg', 'key': 'i', 'origWidth': 409, 'origHeight': 409, 'width': 409, 'height': 409, 'widthPercent': 0.45, 'rescaleHeight': False, 'trialN': 21, 'loaded': True, 'loadedTime': 2283.7999999523163, 'positionName': 'RIGHT', 'positionCoords': [998.4, 335.5], 'bid': 6.25}]",42183.799999952316,1669834663009,mashed potato,hotdog w must,6.42,6.25,-0.16999999999999993,mashed potato,1187.800000011921,1188,1188.1000000238419,True,u,43880.19999998808,1696.4000000357628,1669834664706,1697,HRV,HRV_0238,2022-11-30 19:02:17
22,"[{'imgObject': {}, 'id': 'hashbrowns', 'src': '/static/foodstim60/hashbrowns.jpg', 'key': 'u', 'origWidth': 411, 'origHeight': 410, 'width': 411, 'height': 410, 'widthPercent': 0.45, 'rescaleHeight': False, 'trialN': 22, 'loaded': True, 'loadedTime': 2241, 'positionName': 'LEFT', 'positionCoords': [510.6, 335], 'bid': 5.44}, {'imgObject': {}, 'id': 'avocado', 'src': '/static/foodstim60/avocado.jpg', 'key': 'i', 'origWidth': 409, 'origHeight': 409, 'width': 409, 'height': 409, 'widthPercent': 0.45, 'rescaleHeight': False, 'trialN': 22, 'loaded': True, 'loadedTime': 2447.199999988079, 'positionName': 'RIGHT', 'positionCoords': [998.4, 335.5], 'bid': 5.92}]",43880.39999997616,1669834664706,hashbrowns,avocado,5.44,5.92,0.47999999999999954,avocado,1394.1000000238419,1394,1394.3999999761581,True,i,45780.09999996424,1899.699999988079,1669834666606,1900,HRV,HRV_0238,2022-11-30 19:02:17
23,"[{'imgObject': {}, 'id': 'omelette', 'src': '/static/foodstim60/omelette.jpg', 'key': 'u', 'origWidth': 410, 'origHeight': 409, 'width': 410, 'height': 409, 'widthPercent': 0.45, 'rescaleHeight': False, 'trialN': 23, 'loaded': True, 'loadedTime': 2449.099999964237, 'positionName': 'LEFT', 'positionCoords': [511.6, 335.5], 'bid': 7.86}, {'imgObject': {}, 'id': 'orange slices', 'src': '/static/foodstim60/orange slices.jpg', 'key': 'i', 'origWidth': 409, 'origHeight': 410, 'width': 409, 'height': 410, 'widthPercent': 0.45, 'rescaleHeight': False, 'trialN': 23, 'loaded': True, 'loadedTime': 2189.399999976158, 'positionName': 'RIGHT', 'positionCoords': [998.4, 335], 'bid': 3.42}]",45780.39999997616,1669834666606,omelette,orange slices,7.86,3.42,-4.44,omelette,726.3999999761581,727,726.6999999880791,True,u,47009.0,1228.6000000238419,1669834667834,1228,HRV,HRV_0238,2022-11-30 19:02:17
24,"[{'imgObject': {}, 'id': 'fruitsalad', 'src': '/static/foodstim60/fruitsalad.jpg', 'key': 'u', 'origWidth': 410, 'origHeight': 410, 'width': 410, 'height': 410, 'widthPercent': 0.45, 'rescaleHeight': False, 'trialN': 24, 'loaded': True, 'loadedTime': 2339.5, 'positionName': 'LEFT', 'positionCoords': [511.6, 335], 'bid': 3.8}, {'imgObject': {}, 'id': 'seaweed', 'src': '/static/foodstim60/seaweed.jpg', 'key': 'i', 'origWidth': 410, 'origHeight': 410, 'width': 410, 'height': 410, 'widthPercent': 0.45, 'rescaleHeight': False, 'trialN': 24, 'loaded': True, 'loadedTime': 2466.399999976158, 'positionName': 'RIGHT', 'positionCoords': [998.4, 335], 'bid': 0.68}]",47009.19999998808,1669834667835,fruitsalad,seaweed,3.8,0.68,-3.1199999999999997,fruitsalad,954.3000000119209,954,954.6999999880791,True,u,48471.799999952316,1462.5999999642372,1669834669297,1462,HRV,HRV_0238,2022-11-30 19:02:17
25,"[{'imgObject': {}, 'id': 'mango', 'src': '/static/foodstim60/mango.jpg', 'key': 'u', 'origWidth': 411, 'origHeight': 411, 'width': 411, 'height': 411, 'widthPercent': 0.45, 'rescaleHeight': False, 'trialN': 25, 'loaded': True, 'loadedTime': 2227.899999976158, 'positionName': 'LEFT', 'positionCoords': [510.6, 334.5], 'bid': 3.47}, {'imgObject': {}, 'id': 'orange slices', 'src': '/static/foodstim60/orange slices.jpg', 'key': 'i', 'origWidth': 409, 'origHeight': 410, 'width': 409, 'height': 410, 'widthPercent': 0.45, 'rescaleHeight': False, 'trialN': 25, 'loaded': True, 'loadedTime': 2188.5, 'positionName': 'RIGHT', 'positionCoords': [998.4, 335], 'bid': 3.42}]",48472.0,1669834669297,mango,orange slices,3.47,3.42,-0.050000000000000266,orange slices,1010.5,1011,1010.6999999880791,True,i,49990.799999952316,1518.7999999523163,1669834670816,1519,HRV,HRV_0238,2022-11-30 19:02:17
26,"[{'imgObject': {}, 'id': 'grilled chicken strips', 'src': '/static/foodstim60/grilled chicken strips.jpg', 'key': 'u', 'origWidth': 410, 'origHeight': 411, 'width': 410, 'height': 411, 'widthPercent': 0.45, 'rescaleHeight': False, 'trialN': 26, 'loaded': True, 'loadedTime': 2324.399999976158, 'positionName': 'LEFT', 'positionCoords': [511.6, 334.5], 'bid': 8.2}, {'imgObject': {}, 'id': 'chicken nuggets2', 'src': '/static/foodstim60/chicken nuggets2.jpg', 'key': 'i', 'origWidth': 410, 'origHeight': 409, 'width': 410, 'height': 409, 'widthPercent': 0.45, 'rescaleHeight': False, 'trialN': 26, 'loaded': True, 'loadedTime': 2472.899999976158, 'positionName': 'RIGHT', 'positionCoords': [998.4, 335.5], 'bid': 8.76}]",49990.89999997616,1669834670816,grilled chicken strips,chicken nuggets2,8.2,8.76,0.5600000000000005,chicken nuggets2,1683.6000000238419,1684,1683.800000011921,True,i,52185.0,2194.100000023842,1669834673010,2194,HRV,HRV_0238,2022-11-30 19:02:17
27,"[{'imgObject': {}, 'id': 'rigatoni and sauce', 'src': '/static/foodstim60/rigatoni and sauce.jpg', 'key': 'u', 'origWidth': 410, 'origHeight': 411, 'width': 410, 'height': 411, 'widthPercent': 0.45, 'rescaleHeight': False, 'trialN': 27, 'loaded': True, 'loadedTime': 2279.399999976158, 'positionName': 'LEFT', 'positionCoords': [511.6, 334.5], 'bid': 3.59}, {'imgObject': {}, 'id': 'cherry tomato', 'src': '/static/foodstim60/cherry tomato.jpg', 'key': 'i', 'origWidth': 410, 'origHeight': 410, 'width': 410, 'height': 410, 'widthPercent': 0.45, 'rescaleHeight': False, 'trialN': 27, 'loaded': True, 'loadedTime': 2479.2999999523163, 'positionName': 'RIGHT', 'positionCoords': [998.4, 335], 'bid': 3.52}]",52185.09999996424,1669834673010,rigatoni and sauce,cherry tomato,3.59,3.52,-0.06999999999999984,rigatoni and sauce,914.1999999880791,915,914.6999999880791,True,u,53604.89999997616,1419.800000011921,1669834674430,1420,HRV,HRV_0238,2022-11-30 19:02:17
28,"[{'imgObject': {}, 'id': 'chickenfingers', 'src': '/static/foodstim60/chickenfingers.jpg', 'key': 'u', 'origWidth': 410, 'origHeight': 410, 'width': 410, 'height': 410, 'widthPercent': 0.45, 'rescaleHeight': False, 'trialN': 28, 'loaded': True, 'loadedTime': 2480.2999999523163, 'positionName': 'LEFT', 'positionCoords': [511.6, 335], 'bid': 6.41}, {'imgObject': {}, 'id': 'turkey sandwich', 'src': '/static/foodstim60/turkey sandwich.jpg', 'key': 'i', 'origWidth': 409, 'origHeight': 409, 'width': 409, 'height': 409, 'widthPercent': 0.45, 'rescaleHeight': False, 'trialN': 28, 'loaded': True, 'loadedTime': 2491.099999964237, 'positionName': 'RIGHT', 'positionCoords': [998.4, 335.5], 'bid': 6.78}]",53605.19999998808,1669834674430,chickenfingers,turkey sandwich,6.41,6.78,0.3700000000000001,turkey sandwich,710.0999999642372,711,710.5,True,i,54821.299999952316,1216.0999999642372,1669834675646,1216,HRV,HRV_0238,2022-11-30 19:02:17
29,"[{'imgObject': {}, 'id': 'baked potato', 'src': '/static/foodstim60/baked potato.jpg', 'key': 'u', 'origWidth': 409, 'origHeight': 410, 'width': 409, 'height': 410, 'widthPercent': 0.45, 'rescaleHeight': False, 'trialN': 29, 'loaded': True, 'loadedTime': 2492.7999999523163, 'positionName': 'LEFT', 'positionCoords': [512.6, 335], 'bid': 1.21}, {'imgObject': {}, 'id': 'cherries', 'src': '/static/foodstim60/cherries.jpg', 'key': 'i', 'origWidth': 410, 'origHeight': 411, 'width': 410, 'height': 411, 'widthPercent': 0.45, 'rescaleHeight': False, 'trialN': 29, 'loaded': True, 'loadedTime': 2499.699999988079, 'positionName': 'RIGHT', 'positionCoords': [998.4, 334.5], 'bid': 2.78}]",54821.5,1669834675647,baked potato,cherries,1.21,2.78,1.5699999999999998,cherries,1382.0,1382,1382.2999999523163,True,i,56715.89999997616,1894.3999999761581,1669834677541,1894,HRV,HRV_0238,2022-11-30 19:02:17
30,"[{'imgObject': {}, 'id': 'fruitsalad', 'src': '/static/foodstim60/fruitsalad.jpg', 'key': 'u', 'origWidth': 410, 'origHeight': 410, 'width': 410, 'height': 410, 'widthPercent': 0.45, 'rescaleHeight': False, 'trialN': 30, 'loaded': True, 'loadedTime': 2332.399999976158, 'positionName': 'LEFT', 'positionCoords': [511.6, 335], 'bid': 3.8}, {'imgObject': {}, 'id': 'granola w milk', 'src': '/static/foodstim60/granola w milk.jpg', 'key': 'i', 'origWidth': 410, 'origHeight': 410, 'width': 410, 'height': 410, 'widthPercent': 0.45, 'rescaleHeight': False, 'trialN': 30, 'loaded': True, 'loadedTime': 2515.699999988079, 'positionName': 'RIGHT', 'positionCoords': [998.4, 335], 'bid': 3.36}]",56716.39999997616,1669834677541,fruitsalad,granola w milk,3.8,3.36,-0.43999999999999995,fruitsalad,1246.699999988079,1248,1247.300000011921,True,u,58466.39999997616,1750.0,1669834679291,1750,HRV,HRV_0238,2022-11-30 19:02:17
31,"[{'imgObject': {}, 'id': 'burrito', 'src': '/static/foodstim60/burrito.jpg', 'key': 'u', 'origWidth': 410, 'origHeight': 410, 'width': 410, 'height': 410, 'widthPercent': 0.45, 'rescaleHeight': False, 'trialN': 31, 'loaded': True, 'loadedTime': 2527.7999999523163, 'positionName': 'LEFT', 'positionCoords': [511.6, 335], 'bid': 6.5}, {'imgObject': {}, 'id': 'mashed potato', 'src': '/static/foodstim60/mashed potato.jpg', 'key': 'i', 'origWidth': 409, 'origHeight': 409, 'width': 409, 'height': 409, 'widthPercent': 0.45, 'rescaleHeight': False, 'trialN': 31, 'loaded': True, 'loadedTime': 2434.099999964237, 'positionName': 'RIGHT', 'positionCoords': [998.4, 335.5], 'bid': 6.42}]",58466.59999996424,1669834679292,burrito,mashed potato,6.5,6.42,-0.08000000000000007,burrito,696.5,697,696.9000000357628,True,u,59667.89999997616,1201.300000011921,1669834680493,1201,HRV,HRV_0238,2022-11-30 19:02:17
32,"[{'imgObject': {}, 'id': 'olives', 'src': '/static/foodstim60/olives.jpg', 'key': 'u', 'origWidth': 410, 'origHeight': 410, 'width': 410, 'height': 410, 'widthPercent': 0.45, 'rescaleHeight': False, 'trialN': 32, 'loaded': True, 'loadedTime': 2256.199999988079, 'positionName': 'LEFT', 'positionCoords': [511.6, 335], 'bid': 2.67}, {'imgObject': {}, 'id': 'cheerios', 'src': '/static/foodstim60/cheerios.jpg', 'key': 'i', 'origWidth': 409, 'origHeight': 410, 'width': 409, 'height': 410, 'widthPercent': 0.45, 'rescaleHeight': False, 'trialN': 32, 'loaded': True, 'loadedTime': 2536.7999999523163, 'positionName': 'RIGHT', 'positionCoords': [998.4, 335], 'bid': 2.44}]",59668.0,1669834680493,olives,cheerios,2.67,2.44,-0.22999999999999998,olives,1063.0999999642372,1063,1063.5,True,u,61236.799999952316,1568.7999999523163,1669834682062,1569,HRV,HRV_0238,2022-11-30 19:02:17
33,"[{'imgObject': {}, 'id': 'burger', 'src': '/static/foodstim60/burger.jpg', 'key': 'u', 'origWidth': 409, 'origHeight': 409, 'width': 409, 'height': 409, 'widthPercent': 0.45, 'rescaleHeight': False, 'trialN': 33, 'loaded': True, 'loadedTime': 2196.5, 'positionName': 'LEFT', 'positionCoords': [512.6, 335.5], 'bid': 7.17}, {'imgObject': {}, 'id': 'veggieswithdip', 'src': '/static/foodstim60/veggieswithdip.jpg', 'key': 'i', 'origWidth': 409, 'origHeight': 409, 'width': 409, 'height': 409, 'widthPercent': 0.45, 'rescaleHeight': False, 'trialN': 33, 'loaded': True, 'loadedTime': 2540, 'positionName': 'RIGHT', 'positionCoords': [998.4, 335.5], 'bid': 6.93}]",61237.09999996424,1669834682062,burger,veggieswithdip,7.17,6.93,-0.2400000000000002,burger,933.6999999880791,934,934.1000000238419,True,u,62675.89999997616,1438.800000011921,1669834683501,1439,HRV,HRV_0238,2022-11-30 19:02:17
34,"[{'imgObject': {}, 'id': 'pear', 'src': '/static/foodstim60/pear.jpg', 'key': 'u', 'origWidth': 411, 'origHeight': 410, 'width': 411, 'height': 410, 'widthPercent': 0.45, 'rescaleHeight': False, 'trialN': 34, 'loaded': True, 'loadedTime': 2543, 'positionName': 'LEFT', 'positionCoords': [510.6, 335], 'bid': 3.61}, {'imgObject': {}, 'id': 'chickenfingers', 'src': '/static/foodstim60/chickenfingers.jpg', 'key': 'i', 'origWidth': 410, 'origHeight': 410, 'width': 410, 'height': 410, 'widthPercent': 0.45, 'rescaleHeight': False, 'trialN': 34, 'loaded': True, 'loadedTime': 2484.5, 'positionName': 'RIGHT', 'positionCoords': [998.4, 335], 'bid': 6.41}]",62676.09999996424,1669834683501,pear,chickenfingers,3.61,6.41,2.8000000000000003,chickenfingers,727.1000000238419,728,727.4000000357628,True,i,63908.09999996424,1232.0,1669834684733,1232,HRV,HRV_0238,2022-11-30 19:02:17
35,"[{'imgObject': {}, 'id': 'sweetpotato', 'src': '/static/foodstim60/sweetpotato.jpg', 'key': 'u', 'origWidth': 410, 'origHeight': 410, 'width': 410, 'height': 410, 'widthPercent': 0.45, 'rescaleHeight': False, 'trialN': 35, 'loaded': True, 'loadedTime': 2552.199999988079, 'positionName': 'LEFT', 'positionCoords': [511.6, 335], 'bid': 2.58}, {'imgObject': {}, 'id': 'blackbeanswithrice', 'src': '/static/foodstim60/blackbeanswithrice.jpg', 'key': 'i', 'origWidth': 410, 'origHeight': 410, 'width': 410, 'height': 410, 'widthPercent': 0.45, 'rescaleHeight': False, 'trialN': 35, 'loaded': True, 'loadedTime': 2220, 'positionName': 'RIGHT', 'positionCoords': [998.4, 335], 'bid': 1.79}]",63908.299999952316,1669834684733,sweetpotato,blackbeanswithrice,2.58,1.79,-0.79,blackbeanswithrice,998.3000000119209,999,998.6000000238419,True,i,65420.89999997616,1512.6000000238419,1669834686246,1513,HRV,HRV_0238,2022-11-30 19:02:17
36,"[{'imgObject': {}, 'id': 'cantaloupe', 'src': '/static/foodstim60/cantaloupe.jpg', 'key': 'u', 'origWidth': 409, 'origHeight': 409, 'width': 409, 'height': 409, 'widthPercent': 0.45, 'rescaleHeight': False, 'trialN': 36, 'loaded': True, 'loadedTime': 2194.199999988079, 'positionName': 'LEFT', 'positionCoords': [512.6, 335.5], 'bid': 3.06}, {'imgObject': {}, 'id': 'veggieswithdip', 'src': '/static/foodstim60/veggieswithdip.jpg', 'key': 'i', 'origWidth': 409, 'origHeight': 409, 'width': 409, 'height': 409, 'widthPercent': 0.45, 'rescaleHeight': False, 'trialN': 36, 'loaded': True, 'loadedTime': 2539.199999988079, 'positionName': 'RIGHT', 'positionCoords': [998.4, 335.5], 'bid': 6.93}]",65421.09999996424,1669834686246,cantaloupe,veggieswithdip,3.06,6.93,3.8699999999999997,veggieswithdip,1229.800000011921,1230,1230.0,True,i,67154.39999997616,1733.300000011921,1669834687979,1733,HRV,HRV_0238,2022-11-30 19:02:17
37,"[{'imgObject': {}, 'id': 'rigatoni', 'src': '/static/foodstim60/rigatoni.jpg', 'key': 'u', 'origWidth': 411, 'origHeight': 411, 'width': 411, 'height': 411, 'widthPercent': 0.45, 'rescaleHeight': False, 'trialN': 37, 'loaded': True, 'loadedTime': 2323.199999988079, 'positionName': 'LEFT', 'positionCoords': [510.6, 334.5], 'bid': 1.58}, {'imgObject': {}, 'id': 'baked potato', 'src': '/static/foodstim60/baked potato.jpg', 'key': 'i', 'origWidth': 409, 'origHeight': 410, 'width': 409, 'height': 410, 'widthPercent': 0.45, 'rescaleHeight': False, 'trialN': 37, 'loaded': True, 'loadedTime': 2497.899999976158, 'positionName': 'RIGHT', 'positionCoords': [998.4, 335], 'bid': 1.21}]",67154.5,1669834687980,rigatoni,baked potato,1.58,1.21,-0.3700000000000001,rigatoni,1672.3999999761581,1672,1672.699999988079,True,u,69341.09999996424,2186.599999964237,1669834690166,2186,HRV,HRV_0238,2022-11-30 19:02:17
38,"[{'imgObject': {}, 'id': 'mango', 'src': '/static/foodstim60/mango.jpg', 'key': 'u', 'origWidth': 411, 'origHeight': 411, 'width': 411, 'height': 411, 'widthPercent': 0.45, 'rescaleHeight': False, 'trialN': 38, 'loaded': True, 'loadedTime': 2220.2999999523163, 'positionName': 'LEFT', 'positionCoords': [510.6, 334.5], 'bid': 3.47}, {'imgObject': {}, 'id': 'Tribe humus pita', 'src': '/static/foodstim60/Tribe humus pita.jpg', 'key': 'i', 'origWidth': 411, 'origHeight': 411, 'width': 411, 'height': 411, 'widthPercent': 0.45, 'rescaleHeight': False, 'trialN': 38, 'loaded': True, 'loadedTime': 2552.399999976158, 'positionName': 'RIGHT', 'positionCoords': [998.4, 334.5], 'bid': 3.17}]",69341.29999995232,1669834690166,mango,Tribe humus pita,3.47,3.17,-0.30000000000000027,Tribe humus pita,973.9000000357628,975,974.2000000476837,True,i,70823.39999997616,1482.1000000238419,1669834691648,1482,HRV,HRV_0238,2022-11-30 19:02:17
39,"[{'imgObject': {}, 'id': 'luckycharms', 'src': '/static/foodstim60/luckycharms.jpg', 'key': 'u', 'origWidth': 410, 'origHeight': 409, 'width': 410, 'height': 409, 'widthPercent': 0.45, 'rescaleHeight': False, 'trialN': 39, 'loaded': True, 'loadedTime': 2555, 'positionName': 'LEFT', 'positionCoords': [511.6, 335.5], 'bid': 3.58}, {'imgObject': {}, 'id': 'avocado', 'src': '/static/foodstim60/avocado.jpg', 'key': 'i', 'origWidth': 409, 'origHeight': 409, 'width': 409, 'height': 409, 'widthPercent': 0.45, 'rescaleHeight': False, 'trialN': 39, 'loaded': True, 'loadedTime': 2448.099999964237, 'positionName': 'RIGHT', 'positionCoords': [998.4, 335.5], 'bid': 5.92}]",70824.29999995232,1669834691649,luckycharms,avocado,3.58,5.92,2.34,avocado,866.2000000476837,867,866.6000000238419,True,i,72200.89999997616,1376.6000000238419,1669834693026,1377,HRV,HRV_0238,2022-11-30 19:02:17
40,"[{'imgObject': {}, 'id': 'banana', 'src': '/static/foodstim60/banana.jpg', 'key': 'u', 'origWidth': 410, 'origHeight': 410, 'width': 410, 'height': 410, 'widthPercent': 0.45, 'rescaleHeight': False, 'trialN': 40, 'loaded': True, 'loadedTime': 2193, 'positionName': 'LEFT', 'positionCoords': [511.6, 335], 'bid': 2.8000000000000003}, {'imgObject': {}, 'id': 'apple slices', 'src': '/static/foodstim60/apple slices.jpg', 'key': 'i', 'origWidth': 409, 'origHeight': 410, 'width': 409, 'height': 410, 'widthPercent': 0.45, 'rescaleHeight': False, 'trialN': 40, 'loaded': True, 'loadedTime': 2295.2999999523163, 'positionName': 'RIGHT', 'positionCoords': [998.4, 335], 'bid': 3.25}]",72201.29999995232,1669834693026,banana,apple slices,2.8000000000000003,3.25,0.44999999999999973,banana,977.3000000119209,978,977.5,True,u,73694.39999997616,1493.1000000238419,1669834694519,1493,HRV,HRV_0238,2022-11-30 19:02:17
41,"[{'imgObject': {}, 'id': 'edamame', 'src': '/static/foodstim60/edamame.jpg', 'key': 'u', 'origWidth': 409, 'origHeight': 410, 'width': 409, 'height': 410, 'widthPercent': 0.45, 'rescaleHeight': False, 'trialN': 41, 'loaded': True, 'loadedTime': 2563.199999988079, 'positionName': 'LEFT', 'positionCoords': [512.6, 335], 'bid': 3.09}, {'imgObject': {}, 'id': 'Tribe humus pita', 'src': '/static/foodstim60/Tribe humus pita.jpg', 'key': 'i', 'origWidth': 411, 'origHeight': 411, 'width': 411, 'height': 411, 'widthPercent': 0.45, 'rescaleHeight': False, 'trialN': 41, 'loaded': True, 'loadedTime': 2554.599999964237, 'positionName': 'RIGHT', 'positionCoords': [998.4, 334.5], 'bid': 3.17}]",73694.59999996424,1669834694520,edamame,Tribe humus pita,3.09,3.17,0.08000000000000007,Tribe humus pita,2669.100000023842,2669,2669.199999988079,True,i,76869.0,3174.400000035763,1669834697694,3174,HRV,HRV_0238,2022-11-30 19:02:17
42,"[{'imgObject': {}, 'id': 'strawberries', 'src': '/static/foodstim60/strawberries.jpg', 'key': 'u', 'origWidth': 410, 'origHeight': 410, 'width': 410, 'height': 410, 'widthPercent': 0.45, 'rescaleHeight': False, 'trialN': 42, 'loaded': True, 'loadedTime': 2564.599999964237, 'positionName': 'LEFT', 'positionCoords': [511.6, 335], 'bid': 3.2}, {'imgObject': {}, 'id': 'apple slices', 'src': '/static/foodstim60/apple slices.jpg', 'key': 'i', 'origWidth': 409, 'origHeight': 410, 'width': 409, 'height': 410, 'widthPercent': 0.45, 'rescaleHeight': False, 'trialN': 42, 'loaded': True, 'loadedTime': 2295.5, 'positionName': 'RIGHT', 'positionCoords': [998.4, 335], 'bid': 3.25}]",76869.09999996424,1669834697694,strawberries,apple slices,3.2,3.25,0.04999999999999982,strawberries,821.4000000357628,822,821.8000000119209,True,u,78208.19999998808,1339.1000000238419,1669834699033,1339,HRV,HRV_0238,2022-11-30 19:02:17
43,"[{'imgObject': {}, 'id': 'baked potato', 'src': '/static/foodstim60/baked potato.jpg', 'key': 'u', 'origWidth': 409, 'origHeight': 410, 'width': 409, 'height': 410, 'widthPercent': 0.45, 'rescaleHeight': False, 'trialN': 43, 'loaded': True, 'loadedTime': 2498.899999976158, 'positionName': 'LEFT', 'positionCoords': [512.6, 335], 'bid': 1.21}, {'imgObject': {}, 'id': 'seaweed', 'src': '/static/foodstim60/seaweed.jpg', 'key': 'i', 'origWidth': 410, 'origHeight': 410, 'width': 410, 'height': 410, 'widthPercent': 0.45, 'rescaleHeight': False, 'trialN': 43, 'loaded': True, 'loadedTime': 2467.7999999523163, 'positionName': 'RIGHT', 'positionCoords': [998.4, 335], 'bid': 0.68}]",78208.39999997616,1669834699033,baked potato,seaweed,1.21,0.68,-0.5299999999999999,baked potato,827.0,828,827.6999999880791,True,u,79550.89999997616,1342.5,1669834700376,1343,HRV,HRV_0238,2022-11-30 19:02:17
44,"[{'imgObject': {}, 'id': 'fried eggs', 'src': '/static/foodstim60/fried eggs.jpg', 'key': 'u', 'origWidth': 410, 'origHeight': 410, 'width': 410, 'height': 410, 'widthPercent': 0.45, 'rescaleHeight': False, 'trialN': 44, 'loaded': True, 'loadedTime': 2564.699999988079, 'positionName': 'LEFT', 'positionCoords': [511.6, 335], 'bid': 7.81}, {'imgObject': {}, 'id': 'turkeysandwich', 'src': '/static/foodstim60/turkeysandwich.jpg', 'key': 'i', 'origWidth': 409, 'origHeight': 409, 'width': 409, 'height': 409, 'widthPercent': 0.45, 'rescaleHeight': False, 'trialN': 44, 'loaded': True, 'loadedTime': 2248.099999964237, 'positionName': 'RIGHT', 'positionCoords': [998.4, 335.5], 'bid': 6.72}]",79551.29999995232,1669834700376,fried eggs,turkeysandwich,7.81,6.72,-1.0899999999999999,fried eggs,603.2000000476837,604,603.4000000357628,True,u,80662.0,1110.7000000476837,1669834701487,1111,HRV,HRV_0238,2022-11-30 19:02:17
45,"[{'imgObject': {}, 'id': 'turkey sandwich', 'src': '/static/foodstim60/turkey sandwich.jpg', 'key': 'u', 'origWidth': 409, 'origHeight': 409, 'width': 409, 'height': 409, 'widthPercent': 0.45, 'rescaleHeight': False, 'trialN': 45, 'loaded': True, 'loadedTime': 2491.5, 'positionName': 'LEFT', 'positionCoords': [512.6, 335.5], 'bid': 6.78}, {'imgObject': {}, 'id': 'turkeysandwich', 'src': '/static/foodstim60/turkeysandwich.jpg', 'key': 'i', 'origWidth': 409, 'origHeight': 409, 'width': 409, 'height': 409, 'widthPercent': 0.45, 'rescaleHeight': False, 'trialN': 45, 'loaded': True, 'loadedTime': 2241.5, 'positionName': 'RIGHT', 'positionCoords': [998.4, 335.5], 'bid': 6.72}]",80662.39999997616,1669834701487,turkey sandwich,turkeysandwich,6.78,6.72,-0.0600000000000005,turkeysandwich,1622.300000011921,1623,1622.800000011921,True,i,82801.09999996424,2138.699999988079,1669834703626,2139,HRV,HRV_0238,2022-11-30 19:02:17
46,"[{'imgObject': {}, 'id': 'kiwi', 'src': '/static/foodstim60/kiwi.jpg', 'key': 'u', 'origWidth': 410, 'origHeight': 410, 'width': 410, 'height': 410, 'widthPercent': 0.45, 'rescaleHeight': False, 'trialN': 46, 'loaded': True, 'loadedTime': 2572.699999988079, 'positionName': 'LEFT', 'positionCoords': [511.6, 335], 'bid': 2.87}, {'imgObject': {}, 'id': 'blackbeanswithrice', 'src': '/static/foodstim60/blackbeanswithrice.jpg', 'key': 'i', 'origWidth': 410, 'origHeight': 410, 'width': 410, 'height': 410, 'widthPercent': 0.45, 'rescaleHeight': False, 'trialN': 46, 'loaded': True, 'loadedTime': 2213.599999964237, 'positionName': 'RIGHT', 'positionCoords': [998.4, 335], 'bid': 1.79}]",82801.19999998808,1669834703626,kiwi,blackbeanswithrice,2.87,1.79,-1.08,blackbeanswithrice,1386.0,1387,1386.3999999761581,True,i,84703.39999997616,1902.199999988079,1669834705528,1902,HRV,HRV_0238,2022-11-30 19:02:17
47,"[{'imgObject': {}, 'id': 'popsicles', 'src': '/static/foodstim60/popsicles.jpg', 'key': 'u', 'origWidth': 410, 'origHeight': 410, 'width': 410, 'height': 410, 'widthPercent': 0.45, 'rescaleHeight': False, 'trialN': 47, 'loaded': True, 'loadedTime': 2590.699999988079, 'positionName': 'LEFT', 'positionCoords': [511.6, 335], 'bid': 3.39}, {'imgObject': {}, 'id': 'fried eggs', 'src': '/static/foodstim60/fried eggs.jpg', 'key': 'i', 'origWidth': 410, 'origHeight': 410, 'width': 410, 'height': 410, 'widthPercent': 0.45, 'rescaleHeight': False, 'trialN': 47, 'loaded': True, 'loadedTime': 2565.399999976158, 'positionName': 'RIGHT', 'positionCoords': [998.4, 335], 'bid': 7.81}]",84703.59999996424,1669834705529,popsicles,fried eggs,3.39,7.81,4.42,fried eggs,762.9000000357628,763,763.1000000238419,True,i,85972.59999996424,1269.0,1669834706798,1269,HRV,HRV_0238,2022-11-30 19:02:17
48,"[{'imgObject': {}, 'id': 'eggs', 'src': '/static/foodstim60/eggs.jpg', 'key': 'u', 'origWidth': 409, 'origHeight': 409, 'width': 409, 'height': 409, 'widthPercent': 0.45, 'rescaleHeight': False, 'trialN': 48, 'loaded': True, 'loadedTime': 2433.699999988079, 'positionName': 'LEFT', 'positionCoords': [512.6, 335.5], 'bid': 9.11}, {'imgObject': {}, 'id': 'yogurt no spoon', 'src': '/static/foodstim60/yogurt no spoon.jpg', 'key': 'i', 'origWidth': 411, 'origHeight': 410, 'width': 411, 'height': 410, 'widthPercent': 0.45, 'rescaleHeight': False, 'trialN': 48, 'loaded': True, 'loadedTime': 2574.5, 'positionName': 'RIGHT', 'positionCoords': [998.4, 335], 'bid': 7.95}]",85972.69999998808,1669834706798,eggs,yogurt no spoon,9.11,7.95,-1.1599999999999993,eggs,581.8999999761581,582,582.0999999642372,True,u,87064.29999995232,1091.5999999642372,1669834707889,1091,HRV,HRV_0238,2022-11-30 19:02:17
49,"[{'imgObject': {}, 'id': 'fried eggs', 'src': '/static/foodstim60/fried eggs.jpg', 'key': 'u', 'origWidth': 410, 'origHeight': 410, 'width': 410, 'height': 410, 'widthPercent': 0.45, 'rescaleHeight': False, 'trialN': 49, 'loaded': True, 'loadedTime': 2565.599999964237, 'positionName': 'LEFT', 'positionCoords': [511.6, 335], 'bid': 7.81}, {'imgObject': {}, 'id': 'hotdog w must', 'src': '/static/foodstim60/hotdog w must.jpg', 'key': 'i', 'origWidth': 409, 'origHeight': 409, 'width': 409, 'height': 409, 'widthPercent': 0.45, 'rescaleHeight': False, 'trialN': 49, 'loaded': True, 'loadedTime': 2285.399999976158, 'positionName': 'RIGHT', 'positionCoords': [998.4, 335.5], 'bid': 6.25}]",87064.59999996424,1669834707890,fried eggs,hotdog w must,7.81,6.25,-1.5599999999999996,fried eggs,562.0,562,562.3000000119209,True,u,88134.59999996424,1070.0,1669834708960,1070,HRV,HRV_0238,2022-11-30 19:02:17
50,"[{'imgObject': {}, 'id': 'yogurt no spoon', 'src': '/static/foodstim60/yogurt no spoon.jpg', 'key': 'u', 'origWidth': 411, 'origHeight': 410, 'width': 411, 'height': 410, 'widthPercent': 0.45, 'rescaleHeight': False, 'trialN': 50, 'loaded': True, 'loadedTime': 2574.599999964237, 'positionName': 'LEFT', 'positionCoords': [510.6, 335], 'bid': 7.95}, {'imgObject': {}, 'id': 'mango', 'src': '/static/foodstim60/mango.jpg', 'key': 'i', 'origWidth': 411, 'origHeight': 411, 'width': 411, 'height': 411, 'widthPercent': 0.45, 'rescaleHeight': False, 'trialN': 50, 'loaded': True, 'loadedTime': 2221.399999976158, 'positionName': 'RIGHT', 'positionCoords': [998.4, 334.5], 'bid': 3.47}]",88135.09999996424,1669834708960,yogurt no spoon,mango,7.95,3.47,-4.48,yogurt no spoon,1507.6000000238419,1508,1507.9000000357628,True,u,90146.79999995232,2011.699999988079,1669834710972,2012,HRV,HRV_0238,2022-11-30 19:02:17
51,"[{'imgObject': {}, 'id': 'granola w milk', 'src': '/static/foodstim60/granola w milk.jpg', 'key': 'u', 'origWidth': 410, 'origHeight': 410, 'width': 410, 'height': 410, 'widthPercent': 0.45, 'rescaleHeight': False, 'trialN': 51, 'loaded': True, 'loadedTime': 2509.699999988079, 'positionName': 'LEFT', 'positionCoords': [511.6, 335], 'bid': 3.36}, {'imgObject': {}, 'id': 'kiwi', 'src': '/static/foodstim60/kiwi.jpg', 'key': 'i', 'origWidth': 410, 'origHeight': 410, 'width': 410, 'height': 410, 'widthPercent': 0.45, 'rescaleHeight': False, 'trialN': 51, 'loaded': True, 'loadedTime': 2572.399999976158, 'positionName': 'RIGHT', 'positionCoords': [998.4, 335], 'bid': 2.87}]",90147.0,1669834710972,granola w milk,kiwi,3.36,2.87,-0.48999999999999977,granola w milk,1143.5,1144,1143.7999999523163,True,u,91803.09999996424,1656.0999999642372,1669834712628,1656,HRV,HRV_0238,2022-11-30 19:02:17
52,"[{'imgObject': {}, 'id': 'turkeysandwich', 'src': '/static/foodstim60/turkeysandwich.jpg', 'key': 'u', 'origWidth': 409, 'origHeight': 409, 'width': 409, 'height': 409, 'widthPercent': 0.45, 'rescaleHeight': False, 'trialN': 52, 'loaded': True, 'loadedTime': 2247.599999964237, 'positionName': 'LEFT', 'positionCoords': [512.6, 335.5], 'bid': 6.72}, {'imgObject': {}, 'id': 'burger', 'src': '/static/foodstim60/burger.jpg', 'key': 'i', 'origWidth': 409, 'origHeight': 409, 'width': 409, 'height': 409, 'widthPercent': 0.45, 'rescaleHeight': False, 'trialN': 52, 'loaded': True, 'loadedTime': 2196.2999999523163, 'positionName': 'RIGHT', 'positionCoords': [998.4, 335.5], 'bid': 7.17}]",91803.29999995232,1669834712628,turkeysandwich,burger,6.72,7.17,0.4500000000000002,turkeysandwich,591.6000000238419,592,591.9000000357628,True,u,92903.5,1100.2000000476837,1669834713728,1100,HRV,HRV_0238,2022-11-30 19:02:17
53,"[{'imgObject': {}, 'id': 'banana', 'src': '/static/foodstim60/banana.jpg', 'key': 'u', 'origWidth': 410, 'origHeight': 410, 'width': 410, 'height': 410, 'widthPercent': 0.45, 'rescaleHeight': False, 'trialN': 53, 'loaded': True, 'loadedTime': 2189.699999988079, 'positionName': 'LEFT', 'positionCoords': [511.6, 335], 'bid': 2.8000000000000003}, {'imgObject': {}, 'id': 'turkey sandwich', 'src': '/static/foodstim60/turkey sandwich.jpg', 'key': 'i', 'origWidth': 409, 'origHeight': 409, 'width': 409, 'height': 409, 'widthPercent': 0.45, 'rescaleHeight': False, 'trialN': 53, 'loaded': True, 'loadedTime': 2491.699999988079, 'positionName': 'RIGHT', 'positionCoords': [998.4, 335.5], 'bid': 6.78}]",92903.79999995232,1669834713729,banana,turkey sandwich,2.8000000000000003,6.78,3.98,turkey sandwich,643.3000000119209,644,644.1000000238419,True,i,94056.39999997616,1152.6000000238419,1669834714881,1152,HRV,HRV_0238,2022-11-30 19:02:17
54,"[{'imgObject': {}, 'id': 'steak', 'src': '/static/foodstim60/steak.jpg', 'key': 'u', 'origWidth': 410, 'origHeight': 410, 'width': 410, 'height': 410, 'widthPercent': 0.45, 'rescaleHeight': False, 'trialN': 54, 'loaded': True, 'loadedTime': 2362.699999988079, 'positionName': 'LEFT', 'positionCoords': [511.6, 335], 'bid': 7.79}, {'imgObject': {}, 'id': 'fried eggs', 'src': '/static/foodstim60/fried eggs.jpg', 'key': 'i', 'origWidth': 410, 'origHeight': 410, 'width': 410, 'height': 410, 'widthPercent': 0.45, 'rescaleHeight': False, 'trialN': 54, 'loaded': True, 'loadedTime': 2565.699999988079, 'positionName': 'RIGHT', 'positionCoords': [998.4, 335], 'bid': 7.81}]",94056.59999996424,1669834714882,steak,fried eggs,7.79,7.81,0.019999999999999574,steak,658.1000000238419,658,658.3000000119209,True,u,95219.79999995232,1163.199999988079,1669834716045,1163,HRV,HRV_0238,2022-11-30 19:02:17
55,"[{'imgObject': {}, 'id': 'raisin bran w milk', 'src': '/static/foodstim60/raisin bran w milk.jpg', 'key': 'u', 'origWidth': 411, 'origHeight': 411, 'width': 411, 'height': 411, 'widthPercent': 0.45, 'rescaleHeight': False, 'trialN': 55, 'loaded': True, 'loadedTime': 2579.899999976158, 'positionName': 'LEFT', 'positionCoords': [510.6, 334.5], 'bid': 3.79}, {'imgObject': {}, 'id': 'eggs', 'src': '/static/foodstim60/eggs.jpg', 'key': 'i', 'origWidth': 409, 'origHeight': 409, 'width': 409, 'height': 409, 'widthPercent': 0.45, 'rescaleHeight': False, 'trialN': 55, 'loaded': True, 'loadedTime': 2427.7999999523163, 'positionName': 'RIGHT', 'positionCoords': [998.4, 335.5], 'bid': 9.11}]",95220.09999996424,1669834716045,raisin bran w milk,eggs,3.79,9.11,5.319999999999999,eggs,663.0,663,663.1999999880791,True,i,96391.29999995232,1171.199999988079,1669834717216,1171,HRV,HRV_0238,2022-11-30 19:02:17
56,"[{'imgObject': {}, 'id': 'corn cob', 'src': '/static/foodstim60/corn cob.jpg', 'key': 'u', 'origWidth': 411, 'origHeight': 411, 'width': 411, 'height': 411, 'widthPercent': 0.45, 'rescaleHeight': False, 'trialN': 56, 'loaded': True, 'loadedTime': 2309.7999999523163, 'positionName': 'LEFT', 'positionCoords': [510.6, 334.5], 'bid': 1.14}, {'imgObject': {}, 'id': 'edamame', 'src': '/static/foodstim60/edamame.jpg', 'key': 'i', 'origWidth': 409, 'origHeight': 410, 'width': 409, 'height': 410, 'widthPercent': 0.45, 'rescaleHeight': False, 'trialN': 56, 'loaded': True, 'loadedTime': 2563, 'positionName': 'RIGHT', 'positionCoords': [998.4, 335], 'bid': 3.09}]",96391.39999997616,1669834717216,corn cob,edamame,1.14,3.09,1.95,edamame,1395.3999999761581,1396,1395.6000000238419,True,i,98296.69999998808,1905.300000011921,1669834719122,1906,HRV,HRV_0238,2022-11-30 19:02:17
57,"[{'imgObject': {}, 'id': 'apple slices', 'src': '/static/foodstim60/apple slices.jpg', 'key': 'u', 'origWidth': 409, 'origHeight': 410, 'width': 409, 'height': 410, 'widthPercent': 0.45, 'rescaleHeight': False, 'trialN': 57, 'loaded': True, 'loadedTime': 2295.199999988079, 'positionName': 'LEFT', 'positionCoords': [512.6, 335], 'bid': 3.25}, {'imgObject': {}, 'id': 'cheerios', 'src': '/static/foodstim60/cheerios.jpg', 'key': 'i', 'origWidth': 409, 'origHeight': 410, 'width': 409, 'height': 410, 'widthPercent': 0.45, 'rescaleHeight': False, 'trialN': 57, 'loaded': True, 'loadedTime': 2535.899999976158, 'positionName': 'RIGHT', 'positionCoords': [998.4, 335], 'bid': 2.44}]",98296.69999998808,1669834719122,apple slices,cheerios,3.25,2.44,-0.81,cheerios,1458.0,1458,1458.199999988079,True,i,100257.89999997616,1961.199999988079,1669834721083,1961,HRV,HRV_0238,2022-11-30 19:02:17
58,"[{'imgObject': {}, 'id': 'mashed potato', 'src': '/static/foodstim60/mashed potato.jpg', 'key': 'u', 'origWidth': 409, 'origHeight': 409, 'width': 409, 'height': 409, 'widthPercent': 0.45, 'rescaleHeight': False, 'trialN': 58, 'loaded': True, 'loadedTime': 2442.599999964237, 'positionName': 'LEFT', 'positionCoords': [512.6, 335.5], 'bid': 6.42}, {'imgObject': {}, 'id': 'froot loops w milk', 'src': '/static/foodstim60/froot loops w milk.jpg', 'key': 'i', 'origWidth': 410, 'origHeight': 410, 'width': 410, 'height': 410, 'widthPercent': 0.45, 'rescaleHeight': False, 'trialN': 58, 'loaded': True, 'loadedTime': 2581.5, 'positionName': 'RIGHT', 'positionCoords': [998.4, 335], 'bid': 2.42}]",100258.5,1669834721084,mashed potato,froot loops w milk,6.42,2.42,-4.0,mashed potato,632.6999999880791,633,633.0,True,u,101406.39999997616,1147.8999999761581,1669834722231,1147,HRV,HRV_0238,2022-11-30 19:02:17
59,"[{'imgObject': {}, 'id': 'rigatoni', 'src': '/static/foodstim60/rigatoni.jpg', 'key': 'u', 'origWidth': 411, 'origHeight': 411, 'width': 411, 'height': 411, 'widthPercent': 0.45, 'rescaleHeight': False, 'trialN': 59, 'loaded': True, 'loadedTime': 2323, 'positionName': 'LEFT', 'positionCoords': [510.6, 334.5], 'bid': 1.58}, {'imgObject': {}, 'id': 'hashbrowns', 'src': '/static/foodstim60/hashbrowns.jpg', 'key': 'i', 'origWidth': 411, 'origHeight': 410, 'width': 411, 'height': 410, 'widthPercent': 0.45, 'rescaleHeight': False, 'trialN': 59, 'loaded': True, 'loadedTime': 2234.699999988079, 'positionName': 'RIGHT', 'positionCoords': [998.4, 335], 'bid': 5.44}]",101406.59999996424,1669834722232,rigatoni,hashbrowns,1.58,5.44,3.8600000000000003,rigatoni,652.6999999880791,653,653.1999999880791,True,u,102561.89999997616,1155.300000011921,1669834723387,1155,HRV,HRV_0238,2022-11-30 19:02:17
60,"[{'imgObject': {}, 'id': 'mac & cheese', 'src': '/static/foodstim60/mac & cheese.jpg', 'key': 'u', 'origWidth': 410, 'origHeight': 410, 'width': 410, 'height': 410, 'widthPercent': 0.45, 'rescaleHeight': False, 'trialN': 60, 'loaded': True, 'loadedTime': 2581.599999964237, 'positionName': 'LEFT', 'positionCoords': [511.6, 335], 'bid': 7.78}, {'imgObject': {}, 'id': 'eggs', 'src': '/static/foodstim60/eggs.jpg', 'key': 'i', 'origWidth': 409, 'origHeight': 409, 'width': 409, 'height': 409, 'widthPercent': 0.45, 'rescaleHeight': False, 'trialN': 60, 'loaded': True, 'loadedTime': 2426.199999988079, 'positionName': 'RIGHT', 'positionCoords': [998.4, 335.5], 'bid': 9.11}]",102562.09999996424,1669834723387,mac & cheese,eggs,7.78,9.11,1.3299999999999992,mac & cheese,680.4000000357628,681,680.8000000119209,True,u,103747.5,1185.4000000357628,1669834724573,1186,HRV,HRV_0238,2022-11-30 19:02:17
61,"[{'imgObject': {}, 'id': 'veggieswithdip', 'src': '/static/foodstim60/veggieswithdip.jpg', 'key': 'u', 'origWidth': 409, 'origHeight': 409, 'width': 409, 'height': 409, 'widthPercent': 0.45, 'rescaleHeight': False, 'trialN': 61, 'loaded': True, 'loadedTime': 2539.5, 'positionName': 'LEFT', 'positionCoords': [512.6, 335.5], 'bid': 6.93}, {'imgObject': {}, 'id': 'fruitsalad', 'src': '/static/foodstim60/fruitsalad.jpg', 'key': 'i', 'origWidth': 410, 'origHeight': 410, 'width': 410, 'height': 410, 'widthPercent': 0.45, 'rescaleHeight': False, 'trialN': 61, 'loaded': True, 'loadedTime': 2332.699999988079, 'positionName': 'RIGHT', 'positionCoords': [998.4, 335], 'bid': 3.8}]",103747.89999997616,1669834724573,veggieswithdip,fruitsalad,6.93,3.8,-3.13,veggieswithdip,887.6000000238419,888,887.8000000119209,True,u,105150.09999996424,1402.199999988079,1669834725975,1402,HRV,HRV_0238,2022-11-30 19:02:17
62,"[{'imgObject': {}, 'id': 'bagel plain', 'src': '/static/foodstim60/bagel plain.jpg', 'key': 'u', 'origWidth': 410, 'origHeight': 410, 'width': 410, 'height': 410, 'widthPercent': 0.45, 'rescaleHeight': False, 'trialN': 62, 'loaded': True, 'loadedTime': 2207.7999999523163, 'positionName': 'LEFT', 'positionCoords': [511.6, 335], 'bid': 2.19}, {'imgObject': {}, 'id': 'avocado', 'src': '/static/foodstim60/avocado.jpg', 'key': 'i', 'origWidth': 409, 'origHeight': 409, 'width': 409, 'height': 409, 'widthPercent': 0.45, 'rescaleHeight': False, 'trialN': 62, 'loaded': True, 'loadedTime': 2448.899999976158, 'positionName': 'RIGHT', 'positionCoords': [998.4, 335.5], 'bid': 5.92}]",105150.29999995232,1669834725975,bagel plain,avocado,2.19,5.92,3.73,bagel plain,716.7000000476837,717,717.1000000238419,True,u,106370.79999995232,1220.5,1669834727196,1221,HRV,HRV_0238,2022-11-30 19:02:17
63,"[{'imgObject': {}, 'id': 'raspberries', 'src': '/static/foodstim60/raspberries.jpg', 'key': 'u', 'origWidth': 411, 'origHeight': 411, 'width': 411, 'height': 411, 'widthPercent': 0.45, 'rescaleHeight': False, 'trialN': 63, 'loaded': True, 'loadedTime': 2176.699999988079, 'positionName': 'LEFT', 'positionCoords': [510.6, 334.5], 'bid': 2.39}, {'imgObject': {}, 'id': 'Tribe humus pita', 'src': '/static/foodstim60/Tribe humus pita.jpg', 'key': 'i', 'origWidth': 411, 'origHeight': 411, 'width': 411, 'height': 411, 'widthPercent': 0.45, 'rescaleHeight': False, 'trialN': 63, 'loaded': True, 'loadedTime': 2553.599999964237, 'positionName': 'RIGHT', 'positionCoords': [998.4, 334.5], 'bid': 3.17}]",106371.19999998808,1669834727196,raspberries,Tribe humus pita,2.39,3.17,0.7799999999999998,Tribe humus pita,888.0,889,888.6999999880791,True,i,107768.69999998808,1397.5,1669834728594,1398,HRV,HRV_0238,2022-11-30 19:02:17
64,"[{'imgObject': {}, 'id': 'cocktailshrimp', 'src': '/static/foodstim60/cocktailshrimp.jpg', 'key': 'u', 'origWidth': 410, 'origHeight': 410, 'width': 410, 'height': 410, 'widthPercent': 0.45, 'rescaleHeight': False, 'trialN': 64, 'loaded': True, 'loadedTime': 2197.899999976158, 'positionName': 'LEFT', 'positionCoords': [511.6, 335], 'bid': 7.01}, {'imgObject': {}, 'id': 'Grapes', 'src': '/static/foodstim60/Grapes.jpg', 'key': 'i', 'origWidth': 411, 'origHeight': 411, 'width': 411, 'height': 411, 'widthPercent': 0.45, 'rescaleHeight': False, 'trialN': 64, 'loaded': True, 'loadedTime': 2308.2999999523163, 'positionName': 'RIGHT', 'positionCoords': [998.4, 334.5], 'bid': 4.16}]",107768.79999995232,1669834728594,cocktailshrimp,Grapes,7.01,4.16,-2.8499999999999996,cocktailshrimp,850.1000000238419,850,850.4000000357628,True,u,109126.69999998808,1357.9000000357628,1669834729952,1358,HRV,HRV_0238,2022-11-30 19:02:17
65,"[{'imgObject': {}, 'id': 'cocktailshrimp', 'src': '/static/foodstim60/cocktailshrimp.jpg', 'key': 'u', 'origWidth': 410, 'origHeight': 410, 'width': 410, 'height': 410, 'widthPercent': 0.45, 'rescaleHeight': False, 'trialN': 65, 'loaded': True, 'loadedTime': 2196.699999988079, 'positionName': 'LEFT', 'positionCoords': [511.6, 335], 'bid': 7.01}, {'imgObject': {}, 'id': 'edamame', 'src': '/static/foodstim60/edamame.jpg', 'key': 'i', 'origWidth': 409, 'origHeight': 410, 'width': 409, 'height': 410, 'widthPercent': 0.45, 'rescaleHeight': False, 'trialN': 65, 'loaded': True, 'loadedTime': 2562.699999988079, 'positionName': 'RIGHT', 'positionCoords': [998.4, 335], 'bid': 3.09}]",109126.79999995232,1669834729952,cocktailshrimp,edamame,7.01,3.09,-3.92,cocktailshrimp,723.8000000119209,724,724.1000000238419,True,u,110362.39999997616,1235.6000000238419,1669834731187,1235,HRV,HRV_0238,2022-11-30 19:02:17
66,"[{'imgObject': {}, 'id': 'sushi w_condiments', 'src': '/static/foodstim60/sushi w_condiments.jpg', 'key': 'u', 'origWidth': 410, 'origHeight': 410, 'width': 410, 'height': 410, 'widthPercent': 0.45, 'rescaleHeight': False, 'trialN': 66, 'loaded': True, 'loadedTime': 2584.5, 'positionName': 'LEFT', 'positionCoords': [511.6, 335], 'bid': 6.73}, {'imgObject': {}, 'id': 'turkey sandwich', 'src': '/static/foodstim60/turkey sandwich.jpg', 'key': 'i', 'origWidth': 409, 'origHeight': 409, 'width': 409, 'height': 409, 'widthPercent': 0.45, 'rescaleHeight': False, 'trialN': 66, 'loaded': True, 'loadedTime': 2485.099999964237, 'positionName': 'RIGHT', 'positionCoords': [998.4, 335.5], 'bid': 6.78}]",110362.89999997616,1669834731188,sushi w_condiments,turkey sandwich,6.73,6.78,0.04999999999999982,sushi w_condiments,720.3999999761581,721,720.6999999880791,True,u,111595.39999997616,1232.5,1669834732420,1232,HRV,HRV_0238,2022-11-30 19:02:17
67,"[{'imgObject': {}, 'id': 'blueberries', 'src': '/static/foodstim60/blueberries.jpg', 'key': 'u', 'origWidth': 411, 'origHeight': 411, 'width': 411, 'height': 411, 'widthPercent': 0.45, 'rescaleHeight': False, 'trialN': 67, 'loaded': True, 'loadedTime': 2585.7999999523163, 'positionName': 'LEFT', 'positionCoords': [510.6, 334.5], 'bid': 3.7}, {'imgObject': {}, 'id': 'raisin bran w milk', 'src': '/static/foodstim60/raisin bran w milk.jpg', 'key': 'i', 'origWidth': 411, 'origHeight': 411, 'width': 411, 'height': 411, 'widthPercent': 0.45, 'rescaleHeight': False, 'trialN': 67, 'loaded': True, 'loadedTime': 2574.699999988079, 'positionName': 'RIGHT', 'positionCoords': [998.4, 334.5], 'bid': 3.79}]",111595.59999996424,1669834732421,blueberries,raisin bran w milk,3.7,3.79,0.08999999999999986,raisin bran w milk,831.1999999880791,831,831.5,True,i,112935.29999995232,1339.699999988079,1669834733760,1339,HRV,HRV_0238,2022-11-30 19:02:17
68,"[{'imgObject': {}, 'id': 'seaweed', 'src': '/static/foodstim60/seaweed.jpg', 'key': 'u', 'origWidth': 410, 'origHeight': 410, 'width': 410, 'height': 410, 'widthPercent': 0.45, 'rescaleHeight': False, 'trialN': 68, 'loaded': True, 'loadedTime': 2471.699999988079, 'positionName': 'LEFT', 'positionCoords': [511.6, 335], 'bid': 0.68}, {'imgObject': {}, 'id': 'cantaloupe', 'src': '/static/foodstim60/cantaloupe.jpg', 'key': 'i', 'origWidth': 409, 'origHeight': 409, 'width': 409, 'height': 409, 'widthPercent': 0.45, 'rescaleHeight': False, 'trialN': 68, 'loaded': True, 'loadedTime': 2193.099999964237, 'positionName': 'RIGHT', 'positionCoords': [998.4, 335.5], 'bid': 3.06}]",112935.39999997616,1669834733760,seaweed,cantaloupe,0.68,3.06,2.38,cantaloupe,1268.199999988079,1269,1268.6000000238419,True,i,114714.59999996424,1779.199999988079,1669834735539,1779,HRV,HRV_0238,2022-11-30 19:02:17
69,"[{'imgObject': {}, 'id': 'raisin bran w milk', 'src': '/static/foodstim60/raisin bran w milk.jpg', 'key': 'u', 'origWidth': 411, 'origHeight': 411, 'width': 411, 'height': 411, 'widthPercent': 0.45, 'rescaleHeight': False, 'trialN': 69, 'loaded': True, 'loadedTime': 2579.599999964237, 'positionName': 'LEFT', 'positionCoords': [510.6, 334.5], 'bid': 3.79}, {'imgObject': {}, 'id': 'burrito', 'src': '/static/foodstim60/burrito.jpg', 'key': 'i', 'origWidth': 410, 'origHeight': 410, 'width': 410, 'height': 410, 'widthPercent': 0.45, 'rescaleHeight': False, 'trialN': 69, 'loaded': True, 'loadedTime': 2527.599999964237, 'positionName': 'RIGHT', 'positionCoords': [998.4, 335], 'bid': 6.5}]",114714.79999995232,1669834735540,raisin bran w milk,burrito,3.79,6.5,2.71,burrito,864.2000000476837,864,864.4000000357628,True,i,116086.0,1371.2000000476837,1669834736911,1371,HRV,HRV_0238,2022-11-30 19:02:17
70,"[{'imgObject': {}, 'id': 'raspberries', 'src': '/static/foodstim60/raspberries.jpg', 'key': 'u', 'origWidth': 411, 'origHeight': 411, 'width': 411, 'height': 411, 'widthPercent': 0.45, 'rescaleHeight': False, 'trialN': 70, 'loaded': True, 'loadedTime': 2173.899999976158, 'positionName': 'LEFT', 'positionCoords': [510.6, 334.5], 'bid': 2.39}, {'imgObject': {}, 'id': 'chickenfingers', 'src': '/static/foodstim60/chickenfingers.jpg', 'key': 'i', 'origWidth': 410, 'origHeight': 410, 'width': 410, 'height': 410, 'widthPercent': 0.45, 'rescaleHeight': False, 'trialN': 70, 'loaded': True, 'loadedTime': 2484.899999976158, 'positionName': 'RIGHT', 'positionCoords': [998.4, 335], 'bid': 6.41}]",116086.19999998808,1669834736911,raspberries,chickenfingers,2.39,6.41,4.02,chickenfingers,740.3999999761581,741,740.6999999880791,True,i,117337.5,1251.300000011921,1669834738162,1251,HRV,HRV_0238,2022-11-30 19:02:17
71,"[{'imgObject': {}, 'id': 'corn cob', 'src': '/static/foodstim60/corn cob.jpg', 'key': 'u', 'origWidth': 411, 'origHeight': 411, 'width': 411, 'height': 411, 'widthPercent': 0.45, 'rescaleHeight': False, 'trialN': 71, 'loaded': True, 'loadedTime': 2308.699999988079, 'positionName': 'LEFT', 'positionCoords': [510.6, 334.5], 'bid': 1.14}, {'imgObject': {}, 'id': 'seaweed', 'src': '/static/foodstim60/seaweed.jpg', 'key': 'i', 'origWidth': 410, 'origHeight': 410, 'width': 410, 'height': 410, 'widthPercent': 0.45, 'rescaleHeight': False, 'trialN': 71, 'loaded': True, 'loadedTime': 2471.5, 'positionName': 'RIGHT', 'positionCoords': [998.4, 335], 'bid': 0.68}]",117337.69999998808,1669834738163,corn cob,seaweed,1.14,0.68,-0.45999999999999985,corn cob,1089.5999999642372,1089,1089.8999999761581,True,u,118934.69999998808,1597.0,1669834739760,1597,HRV,HRV_0238,2022-11-30 19:02:17
72,"[{'imgObject': {}, 'id': 'salmon', 'src': '/static/foodstim60/salmon.jpg', 'key': 'u', 'origWidth': 410, 'origHeight': 409, 'width': 410, 'height': 409, 'widthPercent': 0.45, 'rescaleHeight': False, 'trialN': 72, 'loaded': True, 'loadedTime': 2199.5, 'positionName': 'LEFT', 'positionCoords': [511.6, 335.5], 'bid': 6.6000000000000005}, {'imgObject': {}, 'id': 'sweetpotato', 'src': '/static/foodstim60/sweetpotato.jpg', 'key': 'i', 'origWidth': 410, 'origHeight': 410, 'width': 410, 'height': 410, 'widthPercent': 0.45, 'rescaleHeight': False, 'trialN': 72, 'loaded': True, 'loadedTime': 2551.599999964237, 'positionName': 'RIGHT', 'positionCoords': [998.4, 335], 'bid': 2.58}]",118935.19999998808,1669834739760,salmon,sweetpotato,6.6000000000000005,2.58,-4.0200000000000005,salmon,611.6999999880791,613,612.3999999761581,True,u,120058.89999997616,1123.699999988079,1669834740884,1124,HRV,HRV_0238,2022-11-30 19:02:17
73,"[{'imgObject': {}, 'id': 'turkey sandwich', 'src': '/static/foodstim60/turkey sandwich.jpg', 'key': 'u', 'origWidth': 409, 'origHeight': 409, 'width': 409, 'height': 409, 'widthPercent': 0.45, 'rescaleHeight': False, 'trialN': 73, 'loaded': True, 'loadedTime': 2491.699999988079, 'positionName': 'LEFT', 'positionCoords': [512.6, 335.5], 'bid': 6.78}, {'imgObject': {}, 'id': 'yogurt no spoon', 'src': '/static/foodstim60/yogurt no spoon.jpg', 'key': 'i', 'origWidth': 411, 'origHeight': 410, 'width': 411, 'height': 410, 'widthPercent': 0.45, 'rescaleHeight': False, 'trialN': 73, 'loaded': True, 'loadedTime': 2574.2999999523163, 'positionName': 'RIGHT', 'positionCoords': [998.4, 335], 'bid': 7.95}]",120059.09999996424,1669834740884,turkey sandwich,yogurt no spoon,6.78,7.95,1.17,turkey sandwich,544.4000000357628,545,544.6999999880791,True,u,121119.69999998808,1060.6000000238419,1669834741945,1061,HRV,HRV_0238,2022-11-30 19:02:17
74,"[{'imgObject': {}, 'id': 'luckycharms', 'src': '/static/foodstim60/luckycharms.jpg', 'key': 'u', 'origWidth': 410, 'origHeight': 409, 'width': 410, 'height': 409, 'widthPercent': 0.45, 'rescaleHeight': False, 'trialN': 74, 'loaded': True, 'loadedTime': 2556, 'positionName': 'LEFT', 'positionCoords': [511.6, 335.5], 'bid': 3.58}, {'imgObject': {}, 'id': 'eggsalad', 'src': '/static/foodstim60/eggsalad.jpg', 'key': 'i', 'origWidth': 410, 'origHeight': 409, 'width': 410, 'height': 409, 'widthPercent': 0.45, 'rescaleHeight': False, 'trialN': 74, 'loaded': True, 'loadedTime': 2391.199999988079, 'positionName': 'RIGHT', 'positionCoords': [998.4, 335.5], 'bid': 8.11}]",121119.89999997616,1669834741945,luckycharms,eggsalad,3.58,8.11,4.529999999999999,luckycharms,666.8999999761581,667,667.1000000238419,True,u,122290.19999998808,1170.300000011921,1669834743115,1170,HRV,HRV_0238,2022-11-30 19:02:17
75,"[{'imgObject': {}, 'id': 'mac & cheese', 'src': '/static/foodstim60/mac & cheese.jpg', 'key': 'u', 'origWidth': 410, 'origHeight': 410, 'width': 410, 'height': 410, 'widthPercent': 0.45, 'rescaleHeight': False, 'trialN': 75, 'loaded': True, 'loadedTime': 2583.399999976158, 'positionName': 'LEFT', 'positionCoords': [511.6, 335], 'bid': 7.78}, {'imgObject': {}, 'id': 'fried eggs', 'src': '/static/foodstim60/fried eggs.jpg', 'key': 'i', 'origWidth': 410, 'origHeight': 410, 'width': 410, 'height': 410, 'widthPercent': 0.45, 'rescaleHeight': False, 'trialN': 75, 'loaded': True, 'loadedTime': 2565.699999988079, 'positionName': 'RIGHT', 'positionCoords': [998.4, 335], 'bid': 7.81}]",122291.0,1669834743116,mac & cheese,fried eggs,7.78,7.81,0.02999999999999936,mac & cheese,632.8999999761581,634,633.6999999880791,True,u,123439.29999995232,1148.2999999523163,1669834744264,1148,HRV,HRV_0238,2022-11-30 19:02:17
76,"[{'imgObject': {}, 'id': 'salad w chicken', 'src': '/static/foodstim60/salad w chicken.jpg', 'key': 'u', 'origWidth': 411, 'origHeight': 411, 'width': 411, 'height': 411, 'widthPercent': 0.45, 'rescaleHeight': False, 'trialN': 76, 'loaded': True, 'loadedTime': 2587.5, 'positionName': 'LEFT', 'positionCoords': [510.6, 334.5], 'bid': 8.2}, {'imgObject': {}, 'id': 'fried eggs', 'src': '/static/foodstim60/fried eggs.jpg', 'key': 'i', 'origWidth': 410, 'origHeight': 410, 'width': 410, 'height': 410, 'widthPercent': 0.45, 'rescaleHeight': False, 'trialN': 76, 'loaded': True, 'loadedTime': 2571.099999964237, 'positionName': 'RIGHT', 'positionCoords': [998.4, 335], 'bid': 7.81}]",123439.59999996424,1669834744265,salad w chicken,fried eggs,8.2,7.81,-0.3899999999999997,salad w chicken,1098.9000000357628,1099,1099.199999988079,True,u,125049.5,1609.9000000357628,1669834745874,1609,HRV,HRV_0238,2022-11-30 19:02:17
77,"[{'imgObject': {}, 'id': 'raisin bran w milk', 'src': '/static/foodstim60/raisin bran w milk.jpg', 'key': 'u', 'origWidth': 411, 'origHeight': 411, 'width': 411, 'height': 411, 'widthPercent': 0.45, 'rescaleHeight': False, 'trialN': 77, 'loaded': True, 'loadedTime': 2579.099999964237, 'positionName': 'LEFT', 'positionCoords': [510.6, 334.5], 'bid': 3.79}, {'imgObject': {}, 'id': 'Grapes', 'src': '/static/foodstim60/Grapes.jpg', 'key': 'i', 'origWidth': 411, 'origHeight': 411, 'width': 411, 'height': 411, 'widthPercent': 0.45, 'rescaleHeight': False, 'trialN': 77, 'loaded': True, 'loadedTime': 2295.699999988079, 'positionName': 'RIGHT', 'positionCoords': [998.4, 334.5], 'bid': 4.16}]",125049.59999996424,1669834745875,raisin bran w milk,Grapes,3.79,4.16,0.3700000000000001,raisin bran w milk,705.4000000357628,705,705.6999999880791,True,u,126259.0,1209.4000000357628,1669834747084,1209,HRV,HRV_0238,2022-11-30 19:02:17
78,"[{'imgObject': {}, 'id': 'shreddedwheatwithmilk', 'src': '/static/foodstim60/shreddedwheatwithmilk.jpg', 'key': 'u', 'origWidth': 410, 'origHeight': 410, 'width': 410, 'height': 410, 'widthPercent': 0.45, 'rescaleHeight': False, 'trialN': 78, 'loaded': True, 'loadedTime': 2201.2999999523163, 'positionName': 'LEFT', 'positionCoords': [511.6, 335], 'bid': 2.32}, {'imgObject': {}, 'id': 'seaweed', 'src': '/static/foodstim60/seaweed.jpg', 'key': 'i', 'origWidth': 410, 'origHeight': 410, 'width': 410, 'height': 410, 'widthPercent': 0.45, 'rescaleHeight': False, 'trialN': 78, 'loaded': True, 'loadedTime': 2467.7999999523163, 'positionName': 'RIGHT', 'positionCoords': [998.4, 335], 'bid': 0.68}]",126259.5,1669834747084,shreddedwheatwithmilk,seaweed,2.32,0.68,-1.6399999999999997,shreddedwheatwithmilk,695.0,696,695.1999999880791,True,u,127468.0,1208.5,1669834748293,1209,HRV,HRV_0238,2022-11-30 19:02:17
79,"[{'imgObject': {}, 'id': 'sweetpotato', 'src': '/static/foodstim60/sweetpotato.jpg', 'key': 'u', 'origWidth': 410, 'origHeight': 410, 'width': 410, 'height': 410, 'widthPercent': 0.45, 'rescaleHeight': False, 'trialN': 79, 'loaded': True, 'loadedTime': 2552.399999976158, 'positionName': 'LEFT', 'positionCoords': [511.6, 335], 'bid': 2.58}, {'imgObject': {}, 'id': 'seaweed', 'src': '/static/foodstim60/seaweed.jpg', 'key': 'i', 'origWidth': 410, 'origHeight': 410, 'width': 410, 'height': 410, 'widthPercent': 0.45, 'rescaleHeight': False, 'trialN': 79, 'loaded': True, 'loadedTime': 2467.5, 'positionName': 'RIGHT', 'positionCoords': [998.4, 335], 'bid': 0.68}]",127468.89999997616,1669834748294,sweetpotato,seaweed,2.58,0.68,-1.9,sweetpotato,1005.6000000238419,1006,1005.8000000119209,True,u,128984.5,1515.6000000238419,1669834749809,1515,HRV,HRV_0238,2022-11-30 19:02:17
80,"[{'imgObject': {}, 'id': 'veggieswithdip', 'src': '/static/foodstim60/veggieswithdip.jpg', 'key': 'u', 'origWidth': 409, 'origHeight': 409, 'width': 409, 'height': 409, 'widthPercent': 0.45, 'rescaleHeight': False, 'trialN': 80, 'loaded': True, 'loadedTime': 2539.599999964237, 'positionName': 'LEFT', 'positionCoords': [512.6, 335.5], 'bid': 6.93}, {'imgObject': {}, 'id': 'eggsalad', 'src': '/static/foodstim60/eggsalad.jpg', 'key': 'i', 'origWidth': 410, 'origHeight': 409, 'width': 410, 'height': 409, 'widthPercent': 0.45, 'rescaleHeight': False, 'trialN': 80, 'loaded': True, 'loadedTime': 2405.099999964237, 'positionName': 'RIGHT', 'positionCoords': [998.4, 335.5], 'bid': 8.11}]",128984.59999996424,1669834749810,veggieswithdip,eggsalad,6.93,8.11,1.1799999999999997,veggieswithdip,658.6000000238419,658,658.8000000119209,True,u,130156.69999998808,1172.1000000238419,1669834750982,1172,HRV,HRV_0238,2022-11-30 19:02:17
81,"[{'imgObject': {}, 'id': 'Grapes', 'src': '/static/foodstim60/Grapes.jpg', 'key': 'u', 'origWidth': 411, 'origHeight': 411, 'width': 411, 'height': 411, 'widthPercent': 0.45, 'rescaleHeight': False, 'trialN': 81, 'loaded': True, 'loadedTime': 2301.5, 'positionName': 'LEFT', 'positionCoords': [510.6, 334.5], 'bid': 4.16}, {'imgObject': {}, 'id': 'luckycharms', 'src': '/static/foodstim60/luckycharms.jpg', 'key': 'i', 'origWidth': 410, 'origHeight': 409, 'width': 410, 'height': 409, 'widthPercent': 0.45, 'rescaleHeight': False, 'trialN': 81, 'loaded': True, 'loadedTime': 2557.5, 'positionName': 'RIGHT', 'positionCoords': [998.4, 335.5], 'bid': 3.58}]",130156.79999995232,1669834750982,Grapes,luckycharms,4.16,3.58,-0.5800000000000001,luckycharms,1390.2000000476837,1390,1390.5,True,i,132059.89999997616,1903.1000000238419,1669834752885,1903,HRV,HRV_0238,2022-11-30 19:02:17
82,"[{'imgObject': {}, 'id': 'Tribe humus pita', 'src': '/static/foodstim60/Tribe humus pita.jpg', 'key': 'u', 'origWidth': 411, 'origHeight': 411, 'width': 411, 'height': 411, 'widthPercent': 0.45, 'rescaleHeight': False, 'trialN': 82, 'loaded': True, 'loadedTime': 2554.899999976158, 'positionName': 'LEFT', 'positionCoords': [510.6, 334.5], 'bid': 3.17}, {'imgObject': {}, 'id': 'burger', 'src': '/static/foodstim60/burger.jpg', 'key': 'i', 'origWidth': 409, 'origHeight': 409, 'width': 409, 'height': 409, 'widthPercent': 0.45, 'rescaleHeight': False, 'trialN': 82, 'loaded': True, 'loadedTime': 2194.7999999523163, 'positionName': 'RIGHT', 'positionCoords': [998.4, 335.5], 'bid': 7.17}]",132060.5,1669834752885,Tribe humus pita,burger,3.17,7.17,4.0,burger,847.3999999761581,848,847.8999999761581,True,i,133419.59999996424,1359.0999999642372,1669834754245,1360,HRV,HRV_0238,2022-11-30 19:02:17
83,"[{'imgObject': {}, 'id': 'omelette', 'src': '/static/foodstim60/omelette.jpg', 'key': 'u', 'origWidth': 410, 'origHeight': 409, 'width': 410, 'height': 409, 'widthPercent': 0.45, 'rescaleHeight': False, 'trialN': 83, 'loaded': True, 'loadedTime': 2458.5, 'positionName': 'LEFT', 'positionCoords': [511.6, 335.5], 'bid': 7.86}, {'imgObject': {}, 'id': 'chicken nuggets2', 'src': '/static/foodstim60/chicken nuggets2.jpg', 'key': 'i', 'origWidth': 410, 'origHeight': 409, 'width': 410, 'height': 409, 'widthPercent': 0.45, 'rescaleHeight': False, 'trialN': 83, 'loaded': True, 'loadedTime': 2471.7999999523163, 'positionName': 'RIGHT', 'positionCoords': [998.4, 335.5], 'bid': 8.76}]",133419.79999995232,1669834754245,omelette,chicken nuggets2,7.86,8.76,0.8999999999999995,chicken nuggets2,766.7000000476837,767,767.1000000238419,True,i,134700.59999996424,1280.800000011921,1669834755526,1281,HRV,HRV_0238,2022-11-30 19:02:17
84,"[{'imgObject': {}, 'id': 'strawberries', 'src': '/static/foodstim60/strawberries.jpg', 'key': 'u', 'origWidth': 410, 'origHeight': 410, 'width': 410, 'height': 410, 'widthPercent': 0.45, 'rescaleHeight': False, 'trialN': 84, 'loaded': True, 'loadedTime': 2564.5, 'positionName': 'LEFT', 'positionCoords': [511.6, 335], 'bid': 3.2}, {'imgObject': {}, 'id': 'rigatoni', 'src': '/static/foodstim60/rigatoni.jpg', 'key': 'i', 'origWidth': 411, 'origHeight': 411, 'width': 411, 'height': 411, 'widthPercent': 0.45, 'rescaleHeight': False, 'trialN': 84, 'loaded': True, 'loadedTime': 2314.699999988079, 'positionName': 'RIGHT', 'positionCoords': [998.4, 334.5], 'bid': 1.58}]",134700.89999997616,1669834755526,strawberries,rigatoni,3.2,1.58,-1.62,strawberries,1661.800000011921,1662,1662.199999988079,True,u,136872.89999997616,2172.0,1669834757698,2172,HRV,HRV_0238,2022-11-30 19:02:17
85,"[{'imgObject': {}, 'id': 'luckycharms', 'src': '/static/foodstim60/luckycharms.jpg', 'key': 'u', 'origWidth': 410, 'origHeight': 409, 'width': 410, 'height': 409, 'widthPercent': 0.45, 'rescaleHeight': False, 'trialN': 85, 'loaded': True, 'loadedTime': 2556.599999964237, 'positionName': 'LEFT', 'positionCoords': [511.6, 335.5], 'bid': 3.58}, {'imgObject': {}, 'id': 'sweetpotato', 'src': '/static/foodstim60/sweetpotato.jpg', 'key': 'i', 'origWidth': 410, 'origHeight': 410, 'width': 410, 'height': 410, 'widthPercent': 0.45, 'rescaleHeight': False, 'trialN': 85, 'loaded': True, 'loadedTime': 2551.899999976158, 'positionName': 'RIGHT', 'positionCoords': [998.4, 335], 'bid': 2.58}]",136873.09999996424,1669834757698,luckycharms,sweetpotato,3.58,2.58,-1.0,sweetpotato,1009.5,1010,1009.6999999880791,True,i,138399.0,1525.9000000357628,1669834759224,1526,HRV,HRV_0238,2022-11-30 19:02:17
86,"[{'imgObject': {}, 'id': 'strawberries', 'src': '/static/foodstim60/strawberries.jpg', 'key': 'u', 'origWidth': 410, 'origHeight': 410, 'width': 410, 'height': 410, 'widthPercent': 0.45, 'rescaleHeight': False, 'trialN': 86, 'loaded': True, 'loadedTime': 2564.2999999523163, 'positionName': 'LEFT', 'positionCoords': [511.6, 335], 'bid': 3.2}, {'imgObject': {}, 'id': 'froot loops w milk', 'src': '/static/foodstim60/froot loops w milk.jpg', 'key': 'i', 'origWidth': 410, 'origHeight': 410, 'width': 410, 'height': 410, 'widthPercent': 0.45, 'rescaleHeight': False, 'trialN': 86, 'loaded': True, 'loadedTime': 2580.199999988079, 'positionName': 'RIGHT', 'positionCoords': [998.4, 335], 'bid': 2.42}]",138399.0,1669834759224,strawberries,froot loops w milk,3.2,2.42,-0.7800000000000002,strawberries,1531.8999999761581,1532,1532.199999988079,True,u,140437.59999996424,2038.5999999642372,1669834761262,2038,HRV,HRV_0238,2022-11-30 19:02:17
87,"[{'imgObject': {}, 'id': 'cantaloupe', 'src': '/static/foodstim60/cantaloupe.jpg', 'key': 'u', 'origWidth': 409, 'origHeight': 409, 'width': 409, 'height': 409, 'widthPercent': 0.45, 'rescaleHeight': False, 'trialN': 87, 'loaded': True, 'loadedTime': 2194.5, 'positionName': 'LEFT', 'positionCoords': [512.6, 335.5], 'bid': 3.06}, {'imgObject': {}, 'id': 'bagel plain', 'src': '/static/foodstim60/bagel plain.jpg', 'key': 'i', 'origWidth': 410, 'origHeight': 410, 'width': 410, 'height': 410, 'widthPercent': 0.45, 'rescaleHeight': False, 'trialN': 87, 'loaded': True, 'loadedTime': 2207.699999988079, 'positionName': 'RIGHT', 'positionCoords': [998.4, 335], 'bid': 2.19}]",140437.89999997616,1669834761263,cantaloupe,bagel plain,3.06,2.19,-0.8700000000000001,bagel plain,1333.0,1333,1333.199999988079,True,i,142287.39999997616,1849.5,1669834763112,1849,HRV,HRV_0238,2022-11-30 19:02:17
88,"[{'imgObject': {}, 'id': 'pear', 'src': '/static/foodstim60/pear.jpg', 'key': 'u', 'origWidth': 411, 'origHeight': 410, 'width': 411, 'height': 410, 'widthPercent': 0.45, 'rescaleHeight': False, 'trialN': 88, 'loaded': True, 'loadedTime': 2540.199999988079, 'positionName': 'LEFT', 'positionCoords': [510.6, 335], 'bid': 3.61}, {'imgObject': {}, 'id': 'luckycharms', 'src': '/static/foodstim60/luckycharms.jpg', 'key': 'i', 'origWidth': 410, 'origHeight': 409, 'width': 410, 'height': 409, 'widthPercent': 0.45, 'rescaleHeight': False, 'trialN': 88, 'loaded': True, 'loadedTime': 2557.399999976158, 'positionName': 'RIGHT', 'positionCoords': [998.4, 335.5], 'bid': 3.58}]",142288.0,1669834763113,pear,luckycharms,3.61,3.58,-0.029999999999999805,luckycharms,1051.3999999761581,1052,1052.0999999642372,True,i,143852.5,1564.5,1669834764677,1564,HRV,HRV_0238,2022-11-30 19:02:17
89,"[{'imgObject': {}, 'id': 'rigatoni and sauce', 'src': '/static/foodstim60/rigatoni and sauce.jpg', 'key': 'u', 'origWidth': 410, 'origHeight': 411, 'width': 410, 'height': 411, 'widthPercent': 0.45, 'rescaleHeight': False, 'trialN': 89, 'loaded': True, 'loadedTime': 2279.099999964237, 'positionName': 'LEFT', 'positionCoords': [511.6, 334.5], 'bid': 3.59}, {'imgObject': {}, 'id': 'olives', 'src': '/static/foodstim60/olives.jpg', 'key': 'i', 'origWidth': 410, 'origHeight': 410, 'width': 410, 'height': 410, 'widthPercent': 0.45, 'rescaleHeight': False, 'trialN': 89, 'loaded': True, 'loadedTime': 2260.5, 'positionName': 'RIGHT', 'positionCoords': [998.4, 335], 'bid': 2.67}]",143852.69999998808,1669834764678,rigatoni and sauce,olives,3.59,2.67,-0.9199999999999999,rigatoni and sauce,574.3000000119209,574,574.5999999642372,True,u,144929.89999997616,1077.199999988079,1669834765755,1077,HRV,HRV_0238,2022-11-30 19:02:17
90,"[{'imgObject': {}, 'id': 'cherries', 'src': '/static/foodstim60/cherries.jpg', 'key': 'u', 'origWidth': 410, 'origHeight': 411, 'width': 410, 'height': 411, 'widthPercent': 0.45, 'rescaleHeight': False, 'trialN': 90, 'loaded': True, 'loadedTime': 2501, 'positionName': 'LEFT', 'positionCoords': [511.6, 334.5], 'bid': 2.78}, {'imgObject': {}, 'id': 'sushi w_condiments', 'src': '/static/foodstim60/sushi w_condiments.jpg', 'key': 'i', 'origWidth': 410, 'origHeight': 410, 'width': 410, 'height': 410, 'widthPercent': 0.45, 'rescaleHeight': False, 'trialN': 90, 'loaded': True, 'loadedTime': 2583.5, 'positionName': 'RIGHT', 'positionCoords': [998.4, 335], 'bid': 6.73}]",149016.89999997616,1669834769842,cherries,sushi w_condiments,2.78,6.73,3.9500000000000006,sushi w_condiments,1042.0,1042,1042.3999999761581,True,i,150573.39999997616,1556.5,1669834771398,1556,HRV,HRV_0238,2022-11-30 19:02:17
91,"[{'imgObject': {}, 'id': 'blueberries', 'src': '/static/foodstim60/blueberries.jpg', 'key': 'u', 'origWidth': 411, 'origHeight': 411, 'width': 411, 'height': 411, 'widthPercent': 0.45, 'rescaleHeight': False, 'trialN': 91, 'loaded': True, 'loadedTime': 2585.699999988079, 'positionName': 'LEFT', 'positionCoords': [510.6, 334.5], 'bid': 3.7}, {'imgObject': {}, 'id': 'lox', 'src': '/static/foodstim60/lox.jpg', 'key': 'i', 'origWidth': 410, 'origHeight': 411, 'width': 410, 'height': 411, 'widthPercent': 0.45, 'rescaleHeight': False, 'trialN': 91, 'loaded': True, 'loadedTime': 2273.899999976158, 'positionName': 'RIGHT', 'positionCoords': [998.4, 334.5], 'bid': 5.72}]",150573.69999998808,1669834771399,blueberries,lox,3.7,5.72,2.0199999999999996,lox,1021.1999999880791,1021,1021.5,True,i,152102.39999997616,1528.699999988079,1669834772927,1528,HRV,HRV_0238,2022-11-30 19:02:17
92,"[{'imgObject': {}, 'id': 'mashed potato', 'src': '/static/foodstim60/mashed potato.jpg', 'key': 'u', 'origWidth': 409, 'origHeight': 409, 'width': 409, 'height': 409, 'widthPercent': 0.45, 'rescaleHeight': False, 'trialN': 92, 'loaded': True, 'loadedTime': 2443.199999988079, 'positionName': 'LEFT', 'positionCoords': [512.6, 335.5], 'bid': 6.42}, {'imgObject': {}, 'id': 'blueberries', 'src': '/static/foodstim60/blueberries.jpg', 'key': 'i', 'origWidth': 411, 'origHeight': 411, 'width': 411, 'height': 411, 'widthPercent': 0.45, 'rescaleHeight': False, 'trialN': 92, 'loaded': True, 'loadedTime': 2584.699999988079, 'positionName': 'RIGHT', 'positionCoords': [998.4, 334.5], 'bid': 3.7}]",152102.69999998808,1669834772928,mashed potato,blueberries,6.42,3.7,-2.7199999999999998,mashed potato,868.5,868,868.6999999880791,True,u,153479.09999996424,1376.3999999761581,1669834774304,1376,HRV,HRV_0238,2022-11-30 19:02:17
93,"[{'imgObject': {}, 'id': 'chickenfingers', 'src': '/static/foodstim60/chickenfingers.jpg', 'key': 'u', 'origWidth': 410, 'origHeight': 410, 'width': 410, 'height': 410, 'widthPercent': 0.45, 'rescaleHeight': False, 'trialN': 93, 'loaded': True, 'loadedTime': 2479.399999976158, 'positionName': 'LEFT', 'positionCoords': [511.6, 335], 'bid': 6.41}, {'imgObject': {}, 'id': 'hotdog w must', 'src': '/static/foodstim60/hotdog w must.jpg', 'key': 'i', 'origWidth': 409, 'origHeight': 409, 'width': 409, 'height': 409, 'widthPercent': 0.45, 'rescaleHeight': False, 'trialN': 93, 'loaded': True, 'loadedTime': 2285.899999976158, 'positionName': 'RIGHT', 'positionCoords': [998.4, 335.5], 'bid': 6.25}]",153479.29999995232,1669834774304,chickenfingers,hotdog w must,6.41,6.25,-0.16000000000000014,chickenfingers,611.7000000476837,612,611.9000000357628,True,u,154604.59999996424,1125.300000011921,1669834775429,1125,HRV,HRV_0238,2022-11-30 19:02:17
94,"[{'imgObject': {}, 'id': 'eggsalad', 'src': '/static/foodstim60/eggsalad.jpg', 'key': 'u', 'origWidth': 410, 'origHeight': 409, 'width': 410, 'height': 409, 'widthPercent': 0.45, 'rescaleHeight': False, 'trialN': 94, 'loaded': True, 'loadedTime': 2392.599999964237, 'positionName': 'LEFT', 'positionCoords': [511.6, 335.5], 'bid': 8.11}, {'imgObject': {}, 'id': 'yogurt no spoon', 'src': '/static/foodstim60/yogurt no spoon.jpg', 'key': 'i', 'origWidth': 411, 'origHeight': 410, 'width': 411, 'height': 410, 'widthPercent': 0.45, 'rescaleHeight': False, 'trialN': 94, 'loaded': True, 'loadedTime': 2574.599999964237, 'positionName': 'RIGHT', 'positionCoords': [998.4, 335], 'bid': 7.95}]",154604.79999995232,1669834775430,eggsalad,yogurt no spoon,8.11,7.95,-0.15999999999999925,eggsalad,542.3000000119209,543,542.8000000119209,True,u,155664.79999995232,1060.0,1669834776490,1060,HRV,HRV_0238,2022-11-30 19:02:17
95,"[{'imgObject': {}, 'id': 'salmon', 'src': '/static/foodstim60/salmon.jpg', 'key': 'u', 'origWidth': 410, 'origHeight': 409, 'width': 410, 'height': 409, 'widthPercent': 0.45, 'rescaleHeight': False, 'trialN': 95, 'loaded': True, 'loadedTime': 2198.199999988079, 'positionName': 'LEFT', 'positionCoords': [511.6, 335.5], 'bid': 6.6000000000000005}, {'imgObject': {}, 'id': 'sushi w_condiments', 'src': '/static/foodstim60/sushi w_condiments.jpg', 'key': 'i', 'origWidth': 410, 'origHeight': 410, 'width': 410, 'height': 410, 'widthPercent': 0.45, 'rescaleHeight': False, 'trialN': 95, 'loaded': True, 'loadedTime': 2584.599999964237, 'positionName': 'RIGHT', 'positionCoords': [998.4, 335], 'bid': 6.73}]",155665.0,1669834776490,salmon,sushi w_condiments,6.6000000000000005,6.73,0.1299999999999999,salmon,586.0999999642372,586,586.5,True,u,156758.79999995232,1093.7999999523163,1669834777584,1094,HRV,HRV_0238,2022-11-30 19:02:17
96,"[{'imgObject': {}, 'id': 'pear', 'src': '/static/foodstim60/pear.jpg', 'key': 'u', 'origWidth': 411, 'origHeight': 410, 'width': 411, 'height': 410, 'widthPercent': 0.45, 'rescaleHeight': False, 'trialN': 96, 'loaded': True, 'loadedTime': 2543.199999988079, 'positionName': 'LEFT', 'positionCoords': [510.6, 335], 'bid': 3.61}, {'imgObject': {}, 'id': 'cherries', 'src': '/static/foodstim60/cherries.jpg', 'key': 'i', 'origWidth': 410, 'origHeight': 411, 'width': 410, 'height': 411, 'widthPercent': 0.45, 'rescaleHeight': False, 'trialN': 96, 'loaded': True, 'loadedTime': 2506.2999999523163, 'positionName': 'RIGHT', 'positionCoords': [998.4, 334.5], 'bid': 2.78}]",156759.09999996424,1669834777584,pear,cherries,3.61,2.78,-0.8300000000000001,pear,1043.6000000238419,1044,1043.800000011921,True,u,158320.09999996424,1561.0,1669834779145,1561,HRV,HRV_0238,2022-11-30 19:02:17
97,"[{'imgObject': {}, 'id': 'shreddedwheatwithmilk', 'src': '/static/foodstim60/shreddedwheatwithmilk.jpg', 'key': 'u', 'origWidth': 410, 'origHeight': 410, 'width': 410, 'height': 410, 'widthPercent': 0.45, 'rescaleHeight': False, 'trialN': 97, 'loaded': True, 'loadedTime': 2200.899999976158, 'positionName': 'LEFT', 'positionCoords': [511.6, 335], 'bid': 2.32}, {'imgObject': {}, 'id': 'hotdog w must', 'src': '/static/foodstim60/hotdog w must.jpg', 'key': 'i', 'origWidth': 409, 'origHeight': 409, 'width': 409, 'height': 409, 'widthPercent': 0.45, 'rescaleHeight': False, 'trialN': 97, 'loaded': True, 'loadedTime': 2289.599999964237, 'positionName': 'RIGHT', 'positionCoords': [998.4, 335.5], 'bid': 6.25}]",158320.59999996424,1669834779146,shreddedwheatwithmilk,hotdog w must,2.32,6.25,3.93,shreddedwheatwithmilk,618.5,618,618.8000000119209,True,u,159441.5,1120.9000000357628,1669834780266,1120,HRV,HRV_0238,2022-11-30 19:02:17
98,"[{'imgObject': {}, 'id': 'edamame', 'src': '/static/foodstim60/edamame.jpg', 'key': 'u', 'origWidth': 409, 'origHeight': 410, 'width': 409, 'height': 410, 'widthPercent': 0.45, 'rescaleHeight': False, 'trialN': 98, 'loaded': True, 'loadedTime': 2557.699999988079, 'positionName': 'LEFT', 'positionCoords': [512.6, 335], 'bid': 3.09}, {'imgObject': {}, 'id': 'strawberries', 'src': '/static/foodstim60/strawberries.jpg', 'key': 'i', 'origWidth': 410, 'origHeight': 410, 'width': 410, 'height': 410, 'widthPercent': 0.45, 'rescaleHeight': False, 'trialN': 98, 'loaded': True, 'loadedTime': 2564.699999988079, 'positionName': 'RIGHT', 'positionCoords': [998.4, 335], 'bid': 3.2}]",159441.59999996424,1669834780267,edamame,strawberries,3.09,3.2,0.11000000000000032,strawberries,1241.199999988079,1241,1241.300000011921,True,i,161187.79999995232,1746.199999988079,1669834782013,1746,HRV,HRV_0238,2022-11-30 19:02:17
99,"[{'imgObject': {}, 'id': 'sweetpotato', 'src': '/static/foodstim60/sweetpotato.jpg', 'key': 'u', 'origWidth': 410, 'origHeight': 410, 'width': 410, 'height': 410, 'widthPercent': 0.45, 'rescaleHeight': False, 'trialN': 99, 'loaded': True, 'loadedTime': 2543.899999976158, 'positionName': 'LEFT', 'positionCoords': [511.6, 335], 'bid': 2.58}, {'imgObject': {}, 'id': 'froot loops w milk', 'src': '/static/foodstim60/froot loops w milk.jpg', 'key': 'i', 'origWidth': 410, 'origHeight': 410, 'width': 410, 'height': 410, 'widthPercent': 0.45, 'rescaleHeight': False, 'trialN': 99, 'loaded': True, 'loadedTime': 2581.199999988079, 'positionName': 'RIGHT', 'positionCoords': [998.4, 335], 'bid': 2.42}]",161188.39999997616,1669834782013,sweetpotato,froot loops w milk,2.58,2.42,-0.16000000000000014,sweetpotato,710.6999999880791,712,711.6000000238419,True,u,162405.59999996424,1217.199999988079,1669834783231,1218,HRV,HRV_0238,2022-11-30 19:02:17
100,"[{'imgObject': {}, 'id': 'olives', 'src': '/static/foodstim60/olives.jpg', 'key': 'u', 'origWidth': 410, 'origHeight': 410, 'width': 410, 'height': 410, 'widthPercent': 0.45, 'rescaleHeight': False, 'trialN': 100, 'loaded': True, 'loadedTime': 2255.7999999523163, 'positionName': 'LEFT', 'positionCoords': [511.6, 335], 'bid': 2.67}, {'imgObject': {}, 'id': 'corn cob', 'src': '/static/foodstim60/corn cob.jpg', 'key': 'i', 'origWidth': 411, 'origHeight': 411, 'width': 411, 'height': 411, 'widthPercent': 0.45, 'rescaleHeight': False, 'trialN': 100, 'loaded': True, 'loadedTime': 2314.099999964237, 'positionName': 'RIGHT', 'positionCoords': [998.4, 334.5], 'bid': 1.14}]",162406.0,1669834783231,olives,corn cob,2.67,1.14,-1.53,olives,693.1999999880791,694,693.8999999761581,True,u,163601.39999997616,1195.3999999761581,1669834784426,1195,HRV,HRV_0238,2022-11-30 19:02:17
101,"[{'imgObject': {}, 'id': 'bagel and cc', 'src': '/static/foodstim60/bagel and cc.jpg', 'key': 'u', 'origWidth': 410, 'origHeight': 410, 'width': 410, 'height': 410, 'widthPercent': 0.45, 'rescaleHeight': False, 'trialN': 101, 'loaded': True, 'loadedTime': 2405.2999999523163, 'positionName': 'LEFT', 'positionCoords': [511.6, 335], 'bid': 6.86}, {'imgObject': {}, 'id': 'veggieswithdip', 'src': '/static/foodstim60/veggieswithdip.jpg', 'key': 'i', 'origWidth': 409, 'origHeight': 409, 'width': 409, 'height': 409, 'widthPercent': 0.45, 'rescaleHeight': False, 'trialN': 101, 'loaded': True, 'loadedTime': 2537, 'positionName': 'RIGHT', 'positionCoords': [998.4, 335.5], 'bid': 6.93}]",163601.59999996424,1669834784427,bagel and cc,veggieswithdip,6.86,6.93,0.0699999999999994,veggieswithdip,1097.0,1097,1097.300000011921,True,i,165211.59999996424,1610.0,1669834786036,1609,HRV,HRV_0238,2022-11-30 19:02:17
102,"[{'imgObject': {}, 'id': 'mac & cheese', 'src': '/static/foodstim60/mac & cheese.jpg', 'key': 'u', 'origWidth': 410, 'origHeight': 410, 'width': 410, 'height': 410, 'widthPercent': 0.45, 'rescaleHeight': False, 'trialN': 102, 'loaded': True, 'loadedTime': 2583.5, 'positionName': 'LEFT', 'positionCoords': [511.6, 335], 'bid': 7.78}, {'imgObject': {}, 'id': 'apple slices', 'src': '/static/foodstim60/apple slices.jpg', 'key': 'i', 'origWidth': 409, 'origHeight': 410, 'width': 409, 'height': 410, 'widthPercent': 0.45, 'rescaleHeight': False, 'trialN': 102, 'loaded': True, 'loadedTime': 2289.899999976158, 'positionName': 'RIGHT', 'positionCoords': [998.4, 335], 'bid': 3.25}]",165212.0,1669834786037,mac & cheese,apple slices,7.78,3.25,-4.53,mac & cheese,863.1999999880791,864,863.5999999642372,True,u,166582.5,1370.5,1669834787407,1370,HRV,HRV_0238,2022-11-30 19:02:17
103,"[{'imgObject': {}, 'id': 'steak', 'src': '/static/foodstim60/steak.jpg', 'key': 'u', 'origWidth': 410, 'origHeight': 410, 'width': 410, 'height': 410, 'widthPercent': 0.45, 'rescaleHeight': False, 'trialN': 103, 'loaded': True, 'loadedTime': 2374.7999999523163, 'positionName': 'LEFT', 'positionCoords': [511.6, 335], 'bid': 7.79}, {'imgObject': {}, 'id': 'granola w milk', 'src': '/static/foodstim60/granola w milk.jpg', 'key': 'i', 'origWidth': 410, 'origHeight': 410, 'width': 410, 'height': 410, 'widthPercent': 0.45, 'rescaleHeight': False, 'trialN': 103, 'loaded': True, 'loadedTime': 2515.699999988079, 'positionName': 'RIGHT', 'positionCoords': [998.4, 335], 'bid': 3.36}]",166582.59999996424,1669834787408,steak,granola w milk,7.79,3.36,-4.43,steak,548.3000000119209,548,548.5,True,u,167641.59999996424,1059.0,1669834788467,1059,HRV,HRV_0238,2022-11-30 19:02:17
104,"[{'imgObject': {}, 'id': 'sushi w_condiments', 'src': '/static/foodstim60/sushi w_condiments.jpg', 'key': 'u', 'origWidth': 410, 'origHeight': 410, 'width': 410, 'height': 410, 'widthPercent': 0.45, 'rescaleHeight': False, 'trialN': 104, 'loaded': True, 'loadedTime': 2584.5, 'positionName': 'LEFT', 'positionCoords': [511.6, 335], 'bid': 6.73}, {'imgObject': {}, 'id': 'salad w chicken', 'src': '/static/foodstim60/salad w chicken.jpg', 'key': 'i', 'origWidth': 411, 'origHeight': 411, 'width': 411, 'height': 411, 'widthPercent': 0.45, 'rescaleHeight': False, 'trialN': 104, 'loaded': True, 'loadedTime': 2587.699999988079, 'positionName': 'RIGHT', 'positionCoords': [998.4, 334.5], 'bid': 8.2}]",167641.59999996424,1669834788467,sushi w_condiments,salad w chicken,6.73,8.2,1.4699999999999989,sushi w_condiments,657.1999999880791,657,657.3000000119209,True,u,168813.09999996424,1171.5,1669834789638,1171,HRV,HRV_0238,2022-11-30 19:02:17
105,"[{'imgObject': {}, 'id': 'lox', 'src': '/static/foodstim60/lox.jpg', 'key': 'u', 'origWidth': 410, 'origHeight': 411, 'width': 410, 'height': 411, 'widthPercent': 0.45, 'rescaleHeight': False, 'trialN': 105, 'loaded': True, 'loadedTime': 2268.199999988079, 'positionName': 'LEFT', 'positionCoords': [511.6, 334.5], 'bid': 5.72}, {'imgObject': {}, 'id': 'blackbeanswithrice', 'src': '/static/foodstim60/blackbeanswithrice.jpg', 'key': 'i', 'origWidth': 410, 'origHeight': 410, 'width': 410, 'height': 410, 'widthPercent': 0.45, 'rescaleHeight': False, 'trialN': 105, 'loaded': True, 'loadedTime': 2213.699999988079, 'positionName': 'RIGHT', 'positionCoords': [998.4, 335], 'bid': 1.79}]",168813.19999998808,1669834789638,lox,blackbeanswithrice,5.72,1.79,-3.9299999999999997,lox,1389.300000011921,1390,1389.5999999642372,True,u,170715.29999995232,1902.0999999642372,1669834791540,1902,HRV,HRV_0238,2022-11-30 19:02:17
106,"[{'imgObject': {}, 'id': 'banana', 'src': '/static/foodstim60/banana.jpg', 'key': 'u', 'origWidth': 410, 'origHeight': 410, 'width': 410, 'height': 410, 'widthPercent': 0.45, 'rescaleHeight': False, 'trialN': 106, 'loaded': True, 'loadedTime': 2192.599999964237, 'positionName': 'LEFT', 'positionCoords': [511.6, 335], 'bid': 2.8000000000000003}, {'imgObject': {}, 'id': 'blueberries', 'src': '/static/foodstim60/blueberries.jpg', 'key': 'i', 'origWidth': 411, 'origHeight': 411, 'width': 411, 'height': 411, 'widthPercent': 0.45, 'rescaleHeight': False, 'trialN': 106, 'loaded': True, 'loadedTime': 2585.5, 'positionName': 'RIGHT', 'positionCoords': [998.4, 334.5], 'bid': 3.7}]",170715.59999996424,1669834791541,banana,blueberries,2.8000000000000003,3.7,0.8999999999999999,banana,1439.6000000238419,1440,1440.1000000238419,True,u,172664.39999997616,1948.800000011921,1669834793490,1949,HRV,HRV_0238,2022-11-30 19:02:17
107,"[{'imgObject': {}, 'id': 'cherry tomato', 'src': '/static/foodstim60/cherry tomato.jpg', 'key': 'u', 'origWidth': 410, 'origHeight': 410, 'width': 410, 'height': 410, 'widthPercent': 0.45, 'rescaleHeight': False, 'trialN': 107, 'loaded': True, 'loadedTime': 2479.199999988079, 'positionName': 'LEFT', 'positionCoords': [511.6, 335], 'bid': 3.52}, {'imgObject': {}, 'id': 'ice cream sundae 002', 'src': '/static/foodstim60/ice cream sundae 002.jpg', 'key': 'i', 'origWidth': 409, 'origHeight': 409, 'width': 409, 'height': 409, 'widthPercent': 0.45, 'rescaleHeight': False, 'trialN': 107, 'loaded': True, 'loadedTime': 2589, 'positionName': 'RIGHT', 'positionCoords': [998.4, 335.5], 'bid': 8.09}]",172664.59999996424,1669834793490,cherry tomato,ice cream sundae 002,3.52,8.09,4.57,ice cream sundae 002,978.1000000238419,978,978.1999999880791,True,i,174149.0,1484.4000000357628,1669834794974,1484,HRV,HRV_0238,2022-11-30 19:02:17
108,"[{'imgObject': {}, 'id': 'cocktailshrimp', 'src': '/static/foodstim60/cocktailshrimp.jpg', 'key': 'u', 'origWidth': 410, 'origHeight': 410, 'width': 410, 'height': 410, 'widthPercent': 0.45, 'rescaleHeight': False, 'trialN': 108, 'loaded': True, 'loadedTime': 2198, 'positionName': 'LEFT', 'positionCoords': [511.6, 335], 'bid': 7.01}, {'imgObject': {}, 'id': 'grilled chicken strips', 'src': '/static/foodstim60/grilled chicken strips.jpg', 'key': 'i', 'origWidth': 410, 'origHeight': 411, 'width': 410, 'height': 411, 'widthPercent': 0.45, 'rescaleHeight': False, 'trialN': 108, 'loaded': True, 'loadedTime': 2323.5, 'positionName': 'RIGHT', 'positionCoords': [998.4, 334.5], 'bid': 8.2}]",174149.0,1669834794974,cocktailshrimp,grilled chicken strips,7.01,8.2,1.1899999999999995,grilled chicken strips,758.2999999523163,760,759.3999999761581,True,i,175410.59999996424,1261.5999999642372,1669834796236,1262,HRV,HRV_0238,2022-11-30 19:02:17
