success,trial_type,trial_index,time_elapsed,internal_node_id,Block,TrialNumber,TrialTime,trialTimeDiff,FPS_avg,FPS_med,FPS_mode,TrialDur,winResizeTime,rt,block,button_pressed,MotCoh,MotDir,ColCoh,Color,ChoiceKey,Choice,Accuracy,RT,nFrames,FPS,PPD,missTrial,missTrialMsg,onsetDelay,fullScreenExitTime,canvCenter,TrialType,Score,BlockTrial,stimulus,button_labels,exp,subjectId,date
True,fullscreen,0,2804,0.0-0.0,0.0,1.0,,,,,,,,,,,,,,,,,,,,,,,,,,,,,,,,HRV,HRV_0281,2022-11-30 21:16:04
,wl-check-fps,1,7831,0.0-1.0,0.0,2.0,"[3168.4, 3185.4, 3201.8, 3218.3, 3234.9, 3251.5, 3268.1, 3284.9, 3301.5, 3318.1, 3334.8, 3351.4, 3368, 3384.7, 3401.4, 3418.3, 3434.7, 3451.8, 3468.1, 3484.8, 3501.6, 3518.2, 3534.7, 3551.9, 3568, 3584.8, 3601.3, 3618.1, 3634.7, 3651.5, 3668.2, 3684.7, 3701.3, 3718.1, 3734.8, 3751.4, 3768.2, 3784.7, 3801.3, 3818.1, 3834.8, 3851.7, 3868.1, 3884.7, 3901.7, 3918.1, 3934.7, 3951.5, 3968, 3984.9, 4002, 4018.1, 4034.8, 4051.3, 4068.1, 4084.7, 4101.5, 4118.3, 4134.8, 4151.3, 4168.3, 4184.9, 4201.3, 4218, 4234.7, 4251.4, 4268, 4284.7, 4301.3, 4318.2, 4334.7, 4351.6, 4367.9, 4384.7, 4401.6, 4418, 4434.7, 4451.3, 4468, 4484.9, 4501.3, 4518.3, 4534.8, 4551.6, 4568.1, 4585.1, 4601.3, 4618.1, 4634.6, 4652, 4668, 4685.1, 4701.5, 4718.1, 4734.7, 4751.7, 4768.1, 4784.7, 4801.8, 4818.2, 4834.8, 4851.4, 4868, 4884.8, 4901.6, 4918.4, 4934.7, 4951.3, 4968, 4984.7, 5001.7, 5018.3, 5034.8, 5051.2, 5068.3, 5084.7, 5101.5, 5118.1, 5134.8, 5152, 5168.2, 5184.5, 5201.3, 5218.2, 5234.8, 5251.2, 5268.2, 5284.9, 5301.2, 5317.9, 5334.6, 5351.5, 5368.1, 5384.8, 5401.5, 5418.1, 5434.8, 5451.7, 5468.2, 5484.7, 5501.2, 5518.1, 5534.7, 5551.3, 5568, 5584.9, 5601.3, 5618, 5634.5, 5651.4, 5668.1, 5684.7, 5701.3, 5718, 5734.8, 5751.4, 5768, 5784.7, 5801.4, 5818.1, 5834.6, 5851.5, 5868.2, 5885, 5901.8, 5917.9, 5934.7, 5951.3, 5968.1, 5984.6, 6001.3, 6017.9, 6034.9, 6051.3, 6068.2, 6084.6, 6101.3, 6118.1, 6134.8, 6151.3, 6168.1, 6185, 6201.3, 6218, 6234.7, 6251.3, 6268.3, 6284.6, 6301.3, 6318.1, 6334.7, 6351.5, 6368.1, 6384.7, 6401.4, 6418.1, 6434.5, 6451.2, 6468.3, 6484.8, 6501.3, 6518.2, 6534.5, 6551.4, 6568, 6584.8, 6601.5, 6618, 6634.6, 6651.3, 6668, 6684.6, 6701.5, 6718, 6734.6, 6751.4, 6768.1, 6784.5, 6802.2, 6818.2, 6834.7, 6851.3, 6867.9, 6884.5, 6901.2, 6918.1, 6934.6, 6951.4, 6968, 6984.6, 7001.4, 7018, 7034.5, 7051.4, 7068, 7084.5, 7101.2, 7118, 7134.8, 7151.3, 7168.1, 7184.5, 7201.2, 7218, 7234.7, 7251.2, 7267.9, 7284.7, 7301.9, 7317.9, 7334.5, 7351.2, 7368, 7384.6, 7402, 7418, 7434.7, 7451.7, 7468, 7484.7, 7501.3, 7518, 7534.7, 7561.9, 7578.6, 7595.3, 7612, 7628.5, 7645.5, 7662.2, 7679, 7695.5, 7712.3, 7729.1, 7745.5, 7762.3, 7779.1, 7795.8, 7812.2, 7829, 7845.7, 7862.5, 7879, 7895.8, 7912.5, 7929.2, 7945.8, 7962.4, 7979.3, 7995.9, 8012.6, 8029.3, 8045.9, 8062.4, 8079.1, 8095.8, 8112.8, 8129.4, 8145.7, 8162.6]","[13.4, 17, 16.4, 16.5, 16.6, 16.6, 16.6, 16.8, 16.6, 16.6, 16.7, 16.6, 16.6, 16.7, 16.7, 16.9, 16.4, 17.1, 16.3, 16.7, 16.8, 16.6, 16.5, 17.2, 16.1, 16.8, 16.5, 16.8, 16.6, 16.8, 16.7, 16.5, 16.6, 16.8, 16.7, 16.6, 16.8, 16.5, 16.6, 16.8, 16.7, 16.9, 16.4, 16.6, 17, 16.4, 16.6, 16.8, 16.5, 16.9, 17.1, 16.1, 16.7, 16.5, 16.8, 16.6, 16.8, 16.8, 16.5, 16.5, 17, 16.6, 16.4, 16.7, 16.7, 16.7, 16.6, 16.7, 16.6, 16.9, 16.5, 16.9, 16.3, 16.8, 16.9, 16.4, 16.7, 16.6, 16.7, 16.9, 16.4, 17, 16.5, 16.8, 16.5, 17, 16.2, 16.8, 16.5, 17.4, 16, 17.1, 16.4, 16.6, 16.6, 17, 16.4, 16.6, 17.1, 16.4, 16.6, 16.6, 16.6, 16.8, 16.8, 16.8, 16.3, 16.6, 16.7, 16.7, 17, 16.6, 16.5, 16.4, 17.1, 16.4, 16.8, 16.6, 16.7, 17.2, 16.2, 16.3, 16.8, 16.9, 16.6, 16.4, 17, 16.7, 16.3, 16.7, 16.7, 16.9, 16.6, 16.7, 16.7, 16.6, 16.7, 16.9, 16.5, 16.5, 16.5, 16.9, 16.6, 16.6, 16.7, 16.9, 16.4, 16.7, 16.5, 16.9, 16.7, 16.6, 16.6, 16.7, 16.8, 16.6, 16.6, 16.7, 16.7, 16.7, 16.5, 16.9, 16.7, 16.8, 16.8, 16.1, 16.8, 16.6, 16.8, 16.5, 16.7, 16.6, 17, 16.4, 16.9, 16.4, 16.7, 16.8, 16.7, 16.5, 16.8, 16.9, 16.3, 16.7, 16.7, 16.6, 17, 16.3, 16.7, 16.8, 16.6, 16.8, 16.6, 16.6, 16.7, 16.7, 16.4, 16.7, 17.1, 16.5, 16.5, 16.9, 16.3, 16.9, 16.6, 16.8, 16.7, 16.5, 16.6, 16.7, 16.7, 16.6, 16.9, 16.5, 16.6, 16.8, 16.7, 16.4, 17.7, 16, 16.5, 16.6, 16.6, 16.6, 16.7, 16.9, 16.5, 16.8, 16.6, 16.6, 16.8, 16.6, 16.5, 16.9, 16.6, 16.5, 16.7, 16.8, 16.8, 16.5, 16.8, 16.4, 16.7, 16.8, 16.7, 16.5, 16.7, 16.8, 17.2, 16, 16.6, 16.7, 16.8, 16.6, 17.4, 16, 16.7, 17, 16.3, 16.7, 16.6, 16.7, 16.7, 27.2, 16.7, 16.7, 16.7, 16.5, 17, 16.7, 16.8, 16.5, 16.8, 16.8, 16.4, 16.8, 16.8, 16.7, 16.4, 16.8, 16.7, 16.8, 16.5, 16.8, 16.7, 16.7, 16.6, 16.6, 16.9, 16.6, 16.7, 16.7, 16.6, 16.5, 16.7, 16.7, 17, 16.6, 16.3, 16.9]",60.0,60.0,60.0,5024.7,[],,,,,,,,,,,,,,,,,,,,,,,,,HRV,HRV_0281,2022-11-30 21:16:04
,wl-html-keyboard-response,2,24894,0.0-2.0-0.0,0.0,3.0,,,,,,,,15045.900000095367,0.0,0,,,,,,,,,,,,,,,,,,,,,,HRV,HRV_0281,2022-11-30 21:16:04
,wl-rdm,3,31751,0.0-3.0-0.0,0.0,4.0,,,,,,,[],,,,0.0,0.0,87.9,0.0,u,0.0,True,1261.400000333786,76.0,60.0,40.0,False,,3000.0,[],"[960, 540]",ColorTask_Demo,,,,,HRV,HRV_0281,2022-11-30 21:16:04
,wl-rdm,4,36717,0.0-3.0-1.0,0.0,5.0,,,,,,,[],,,,0.0,0.0,87.9,1.0,i,1.0,True,867.2999999523163,53.0,60.0,40.0,False,,2000.0,[],"[960, 540]",ColorTask_Demo,,,,,HRV,HRV_0281,2022-11-30 21:16:04
,wl-html-keyboard-response,5,43989,0.0-3.0-2.0,0.0,6.0,,,,,,,,5266.600000143051,0.0,1,,,,,,,,,,,,,,,,,,,,,,HRV,HRV_0281,2022-11-30 21:16:04
,wl-html-keyboard-response,6,52677,0.0-4.0-0.0,0.0,7.0,,,,,,,,6684.399999856949,0.0,0,,,,,,,,,,,,,,,,,,,,,,HRV,HRV_0281,2022-11-30 21:16:04
,wl-html-keyboard-response,7,95708,0.0-5.0-0.0,0.0,8.0,,,,,,,,41024.799999952316,0.0,0,,,,,,,,,,,,,,,,,,,,,,HRV,HRV_0281,2022-11-30 21:16:04
,wl-rdm,8,98531,0.0-6.0-0.0,0.0,9.0,,,,,,,[],,,,,,53.2,0.0,u,0.0,True,1392.2000000476837,84.0,60.0,40.0,False,,366.73966643017206,[],"[960, 540]",ColorTask,1.0,1.0,,,HRV,HRV_0281,2022-11-30 21:16:04
,wl-rdm,9,100898,0.0-6.1-0.1,0.0,10.0,,,,,,,[],,,,,,73.6,0.0,u,0.0,True,959.5999999046326,58.0,60.0,40.0,False,,337.2468751213132,[],"[960, 540]",ColorTask,2.0,2.0,,,HRV,HRV_0281,2022-11-30 21:16:04
,wl-rdm,10,103298,0.0-6.2-0.2,0.0,11.0,,,,,,,[],,,,,,50.0,1.0,i,1.0,True,1010.5,61.0,60.0,40.0,False,,312.5744804727283,[],"[960, 540]",ColorTask,3.0,3.0,,,HRV,HRV_0281,2022-11-30 21:16:04
,wl-rdm,11,106997,0.0-6.3-0.3,0.0,12.0,,,,,,,[],,,,,,53.2,1.0,u,0.0,False,2407.5999999046326,145.0,60.0,40.0,False,,212.45663173722352,[],"[960, 540]",ColorTask,2.0,4.0,,,HRV,HRV_0281,2022-11-30 21:16:04
,wl-rdm,12,109581,0.0-6.4-0.4,0.0,13.0,,,,,,,[],,,,,,87.9,1.0,i,1.0,True,1282.0999999046326,77.0,60.0,40.0,False,,241.88507497782822,[],"[960, 540]",ColorTask,3.0,5.0,,,HRV,HRV_0281,2022-11-30 21:16:04
,wl-rdm,13,112714,0.0-6.5-0.5,0.0,14.0,,,,,,,[],,,,,,56.4,0.0,i,1.0,False,1836.2000000476837,111.0,60.0,40.0,False,,215.44552500601034,[],"[960, 540]",ColorTask,2.0,6.0,,,HRV,HRV_0281,2022-11-30 21:16:04
,wl-rdm,14,115081,0.0-6.6-0.6,0.0,15.0,,,,,,,[],,,,,,87.9,1.0,i,1.0,True,1020.7000000476837,62.0,60.0,40.0,False,,278.3841682194758,[],"[960, 540]",ColorTask,3.0,7.0,,,HRV,HRV_0281,2022-11-30 21:16:04
,wl-rdm,15,118481,0.0-6.7-0.7,0.0,16.0,,,,,,,[],,,,,,56.4,1.0,u,0.0,False,2013.0,121.0,60.0,40.0,False,,307.1068608517824,[],"[960, 540]",ColorTask,2.0,8.0,,,HRV,HRV_0281,2022-11-30 21:16:04
,wl-rdm,16,121098,0.0-6.8-0.8,0.0,17.0,,,,,,,[],,,,,,73.6,0.0,u,0.0,True,1271.8999998569489,77.0,60.0,40.0,False,,264.44980310355766,[],"[960, 540]",ColorTask,3.0,9.0,,,HRV,HRV_0281,2022-11-30 21:16:04
,wl-rdm,17,124664,0.0-6.9-0.9,0.0,18.0,,,,,,,[],,,,,,56.4,1.0,u,0.0,False,2123.4000000953674,128.0,60.0,40.0,False,,363.1516492647243,[],"[960, 540]",ColorTask,2.0,10.0,,,HRV,HRV_0281,2022-11-30 21:16:04
,wl-rdm,18,127898,0.0-6.10-0.10,0.0,19.0,,,,,,,[],,,,,,50.0,0.0,u,0.0,True,1839.2000000476837,111.0,60.0,40.0,False,,304.4556200201365,[],"[960, 540]",ColorTask,3.0,11.0,,,HRV,HRV_0281,2022-11-30 21:16:04
,wl-rdm,19,131549,0.0-6.11-0.11,0.0,20.0,,,,,,,[],,,,,,50.0,1.0,i,1.0,True,2204.100000143051,133.0,60.0,40.0,False,,367.24877103426746,[],"[960, 540]",ColorTask,4.0,12.0,,,HRV,HRV_0281,2022-11-30 21:16:04
,wl-rdm,20,133951,0.0-6.12-0.12,0.0,21.0,,,,,,,[],,,,,,87.9,0.0,u,0.0,True,1068.5,65.0,60.0,40.0,False,,266.341408419482,[],"[960, 540]",ColorTask,5.0,13.0,,,HRV,HRV_0281,2022-11-30 21:16:04
,wl-rdm,21,136954,0.0-6.13-0.13,0.0,22.0,,,,,,,[],,,,,,50.0,1.0,i,1.0,True,1557.7999999523163,94.0,60.0,40.0,False,,372.65280214172844,[],"[960, 540]",ColorTask,6.0,14.0,,,HRV,HRV_0281,2022-11-30 21:16:04
,wl-rdm,22,139523,0.0-6.14-0.14,0.0,23.0,,,,,,,[],,,,,,62.5,0.0,u,0.0,True,1247.8999998569489,75.0,60.0,40.0,False,,263.2499497269085,[],"[960, 540]",ColorTask,7.0,15.0,,,HRV,HRV_0281,2022-11-30 21:16:04
,wl-rdm,23,142593,0.0-6.15-0.15,0.0,24.0,,,,,,,[],,,,,,62.5,0.0,u,0.0,True,1717.5,103.0,60.0,40.0,False,,288.4038125287674,[],"[960, 540]",ColorTask,8.0,16.0,,,HRV,HRV_0281,2022-11-30 21:16:04
,wl-rdm,24,145580,0.0-6.16-0.16,0.0,25.0,,,,,,,[],,,,,,50.0,0.0,i,1.0,False,1657.5999999046326,100.0,60.0,40.0,False,,262.09372503828695,[],"[960, 540]",ColorTask,7.0,17.0,,,HRV,HRV_0281,2022-11-30 21:16:04
,wl-rdm,25,148098,0.0-6.17-0.17,0.0,26.0,,,,,,,[],,,,,,73.6,1.0,i,1.0,True,1216.0,73.0,60.0,40.0,False,,245.4551413692626,[],"[960, 540]",ColorTask,8.0,18.0,,,HRV,HRV_0281,2022-11-30 21:16:04
,wl-rdm,26,151668,0.0-6.18-0.18,0.0,27.0,,,,,,,[],,,,,,53.2,1.0,i,1.0,True,2265.5999999046326,136.0,60.0,40.0,False,,233.82734623982356,[],"[960, 540]",ColorTask,9.0,19.0,,,HRV,HRV_0281,2022-11-30 21:16:04
,wl-rdm,27,154863,0.0-6.19-0.19,0.0,28.0,,,,,,,[],,,,,,53.2,1.0,i,1.0,True,1863.9000000953674,112.0,60.0,40.0,False,,236.86077888733217,[],"[960, 540]",ColorTask,10.0,20.0,,,HRV,HRV_0281,2022-11-30 21:16:04
,wl-rdm,28,158146,0.0-6.20-0.20,0.0,29.0,,,,,,,[],,,,,,50.0,0.0,i,1.0,False,1881.9000000953674,113.0,60.0,40.0,False,,348.7866276802206,[],"[960, 540]",ColorTask,9.0,21.0,,,HRV,HRV_0281,2022-11-30 21:16:04
,wl-rdm,29,161696,0.0-6.21-0.21,0.0,30.0,,,,,,,[],,,,,,56.4,1.0,i,1.0,True,2218.899999856949,134.0,60.0,40.0,False,,236.9936949878567,[],"[960, 540]",ColorTask,10.0,22.0,,,HRV,HRV_0281,2022-11-30 21:16:04
,wl-rdm,30,164230,0.0-6.22-0.22,0.0,31.0,,,,,,,[],,,,,,73.6,0.0,u,0.0,True,1145.8999998569489,69.0,60.0,40.0,False,,329.27487986106314,[],"[960, 540]",ColorTask,11.0,23.0,,,HRV,HRV_0281,2022-11-30 21:16:04
,wl-rdm,31,166449,0.0-6.23-0.23,0.0,32.0,,,,,,,[],,,,,,87.9,1.0,i,1.0,True,852.7999999523163,52.0,60.0,40.0,False,,288.96293964803453,[],"[960, 540]",ColorTask,12.0,24.0,,,HRV,HRV_0281,2022-11-30 21:16:04
,wl-rdm,32,169702,0.0-6.24-0.24,0.0,33.0,,,,,,,[],,,,,,56.4,0.0,u,0.0,True,1948.5,117.0,60.0,40.0,False,,239.71288377558574,[],"[960, 540]",ColorTask,13.0,25.0,,,HRV,HRV_0281,2022-11-30 21:16:04
,wl-rdm,33,172672,0.0-6.25-0.25,0.0,34.0,,,,,,,[],,,,,,62.5,1.0,i,1.0,True,1521.7999999523163,92.0,60.0,40.0,False,,372.3844713813599,[],"[960, 540]",ColorTask,14.0,26.0,,,HRV,HRV_0281,2022-11-30 21:16:04
,wl-rdm,34,175541,0.0-6.26-0.26,0.0,35.0,,,,,,,[],,,,,,62.5,1.0,u,0.0,False,1465.4000000953674,88.0,60.0,40.0,False,,341.48657888648177,[],"[960, 540]",ColorTask,13.0,27.0,,,HRV,HRV_0281,2022-11-30 21:16:04
,wl-rdm,35,178227,0.0-6.27-0.27,0.0,36.0,,,,,,,[],,,,,,56.4,0.0,u,0.0,True,1368.4000000953674,82.0,60.0,40.0,False,,258.82266658513635,[],"[960, 540]",ColorTask,14.0,28.0,,,HRV,HRV_0281,2022-11-30 21:16:04
,wl-rdm,36,182147,0.0-6.28-0.28,0.0,37.0,,,,,,,[],,,,,,62.5,0.0,u,0.0,True,2568.9000000953674,155.0,60.0,40.0,False,,277.82537125421027,[],"[960, 540]",ColorTask,15.0,29.0,,,HRV,HRV_0281,2022-11-30 21:16:04
,wl-rdm,37,184549,0.0-6.29-0.29,0.0,38.0,,,,,,,[],,,,,,62.5,1.0,i,1.0,True,1065.8000001907349,64.0,60.0,40.0,False,,269.2067933290067,[],"[960, 540]",ColorTask,16.0,30.0,,,HRV,HRV_0281,2022-11-30 21:16:04
,wl-rdm,38,187518,0.0-6.30-0.30,0.0,39.0,,,,,,,[],,,,,,50.0,1.0,i,1.0,True,1673.7999999523163,101.0,60.0,40.0,False,,217.11657281802084,[],"[960, 540]",ColorTask,17.0,31.0,,,HRV,HRV_0281,2022-11-30 21:16:04
,wl-rdm,39,189754,0.0-6.31-0.31,0.0,40.0,,,,,,,[],,,,,,73.6,0.0,u,0.0,True,961.6999998092651,58.0,60.0,40.0,False,,201.0238978726853,[],"[960, 540]",ColorTask,18.0,32.0,,,HRV,HRV_0281,2022-11-30 21:16:04
,wl-rdm,40,192156,0.0-6.32-0.32,0.0,41.0,,,,,,,[],,,,,,87.9,0.0,u,0.0,True,1109.2000000476837,67.0,60.0,40.0,False,,220.52145970544154,[],"[960, 540]",ColorTask,19.0,33.0,,,HRV,HRV_0281,2022-11-30 21:16:04
,wl-rdm,41,195193,0.0-6.33-0.33,0.0,42.0,,,,,,,[],,,,,,56.4,0.0,i,1.0,False,1747.5,105.0,60.0,40.0,False,,221.41347784027326,[],"[960, 540]",ColorTask,18.0,34.0,,,HRV,HRV_0281,2022-11-30 21:16:04
,wl-rdm,42,197628,0.0-6.34-0.34,0.0,43.0,,,,,,,[],,,,,,62.5,1.0,i,1.0,True,1125.7999999523163,68.0,60.0,40.0,False,,241.60715236421953,[],"[960, 540]",ColorTask,19.0,35.0,,,HRV,HRV_0281,2022-11-30 21:16:04
,wl-rdm,43,200698,0.0-6.35-0.35,0.0,44.0,,,,,,,[],,,,,,62.5,0.0,u,0.0,True,1663.7999999523163,100.0,60.0,40.0,False,,339.8698670927737,[],"[960, 540]",ColorTask,20.0,36.0,,,HRV,HRV_0281,2022-11-30 21:16:04
,wl-rdm,44,203000,0.0-6.36-0.36,0.0,45.0,,,,,,,[],,,,,,73.6,0.0,u,0.0,True,998.2000000476837,60.0,60.0,40.0,False,,235.7152051498603,[],"[960, 540]",ColorTask,21.0,37.0,,,HRV,HRV_0281,2022-11-30 21:16:04
,wl-rdm,45,206703,0.0-6.37-0.37,0.0,46.0,,,,,,,[],,,,,,56.4,0.0,i,1.0,False,2375.7999997138977,143.0,60.0,40.0,False,,265.2884860729198,[],"[960, 540]",ColorTask,20.0,38.0,,,HRV,HRV_0281,2022-11-30 21:16:04
,wl-rdm,46,210008,0.0-6.38-0.38,0.0,47.0,,,,,,,[],,,,,,62.5,1.0,i,1.0,True,1883.2999999523163,113.0,60.0,40.0,False,,351.9348830166949,[],"[960, 540]",ColorTask,21.0,39.0,,,HRV,HRV_0281,2022-11-30 21:16:04
,wl-rdm,47,214344,0.0-6.39-0.39,0.0,48.0,,,,,,,[],,,,,,53.2,1.0,u,0.0,False,2933.5,176.0,60.0,40.0,False,,341.66108362962655,[],"[960, 540]",ColorTask,20.0,40.0,,,HRV,HRV_0281,2022-11-30 21:16:04
,wl-rdm,48,218431,0.0-6.40-0.40,0.0,49.0,,,,,,,[],,,,,,62.5,0.0,u,0.0,True,2777.0,167.0,60.0,40.0,False,,250.1931056785919,[],"[960, 540]",ColorTask,21.0,41.0,,,HRV,HRV_0281,2022-11-30 21:16:04
,wl-rdm,49,222736,0.0-6.41-0.41,0.0,49.0,,,,,,,[],,,,,,50.0,1.0,u,,,3026.7000000476837,179.0,60.0,40.0,True,RT_timeout ,229.01165624399707,[],"[960, 540]",ColorTask,20.0,42.0,,,HRV,HRV_0281,2022-11-30 21:16:04
,wl-rdm,50,225906,0.0-6.42-0.42,0.0,50.0,,,,,,,[],,,,,,50.0,0.0,u,0.0,True,1841.7000000476837,111.0,60.0,40.0,False,,265.39542471233216,[],"[960, 540]",ColorTask,21.0,43.0,,,HRV,HRV_0281,2022-11-30 21:16:04
,wl-rdm,51,228291,0.0-6.43-0.43,0.0,51.0,,,,,,,[],,,,,,73.6,1.0,i,1.0,True,1089.7000000476837,66.0,60.0,40.0,False,,215.52887379668377,[],"[960, 540]",ColorTask,22.0,44.0,,,HRV,HRV_0281,2022-11-30 21:16:04
,wl-rdm,52,230760,0.0-6.44-0.44,0.0,52.0,,,,,,,[],,,,,,56.4,1.0,u,0.0,False,1199.2999997138977,72.0,60.0,40.0,False,,213.0817028533727,[],"[960, 540]",ColorTask,21.0,45.0,,,HRV,HRV_0281,2022-11-30 21:16:04
,wl-rdm,53,233329,0.0-6.45-0.45,0.0,53.0,,,,,,,[],,,,,,73.6,1.0,i,1.0,True,1292.3000001907349,78.0,60.0,40.0,False,,212.91338834170205,[],"[960, 540]",ColorTask,22.0,46.0,,,HRV,HRV_0281,2022-11-30 21:16:04
,wl-rdm,54,236198,0.0-6.46-0.46,0.0,54.0,,,,,,,[],,,,,,50.0,1.0,u,0.0,False,1587.5,96.0,60.0,40.0,False,,207.62612885516637,[],"[960, 540]",ColorTask,21.0,47.0,,,HRV,HRV_0281,2022-11-30 21:16:04
,wl-rdm,55,238634,0.0-6.47-0.47,0.0,55.0,,,,,,,[],,,,,,53.2,1.0,i,1.0,True,1149.3000001907349,69.0,60.0,40.0,False,,220.56293685019386,[],"[960, 540]",ColorTask,22.0,48.0,,,HRV,HRV_0281,2022-11-30 21:16:04
,wl-rdm,56,241538,0.0-6.48-0.48,0.0,56.0,,,,,,,[],,,,,,53.2,0.0,u,0.0,True,1594.0,96.0,60.0,40.0,False,,232.9412094474414,[],"[960, 540]",ColorTask,23.0,49.0,,,HRV,HRV_0281,2022-11-30 21:16:04
,wl-rdm,57,243790,0.0-6.49-0.49,0.0,57.0,,,,,,,[],,,,,,87.9,0.0,u,0.0,True,829.2999999523163,50.0,60.0,40.0,False,,364.08225068824976,[],"[960, 540]",ColorTask,24.0,50.0,,,HRV,HRV_0281,2022-11-30 21:16:04
,wl-rdm,58,246126,0.0-6.50-0.50,0.0,58.0,,,,,,,[],,,,,,73.6,0.0,u,0.0,True,1014.5999999046326,61.0,60.0,40.0,False,,244.82820932289556,[],"[960, 540]",ColorTask,25.0,51.0,,,HRV,HRV_0281,2022-11-30 21:16:04
,wl-rdm,59,249194,0.0-6.51-0.51,0.0,59.0,,,,,,,[],,,,,,53.2,1.0,i,1.0,True,1700.5,102.0,60.0,40.0,False,,303.90015625644094,[],"[960, 540]",ColorTask,26.0,52.0,,,HRV,HRV_0281,2022-11-30 21:16:04
,wl-rdm,60,252030,0.0-6.52-0.52,0.0,60.0,,,,,,,[],,,,,,53.2,1.0,i,1.0,True,1530.1000001430511,92.0,60.0,40.0,False,,237.4377192018605,[],"[960, 540]",ColorTask,27.0,53.0,,,HRV,HRV_0281,2022-11-30 21:16:04
,wl-rdm,61,254216,0.0-6.53-0.53,0.0,61.0,,,,,,,[],,,,,,87.9,1.0,i,1.0,True,853.5999999046326,52.0,60.0,40.0,False,,264.2741131967273,[],"[960, 540]",ColorTask,28.0,54.0,,,HRV,HRV_0281,2022-11-30 21:16:04
,wl-rdm,62,257253,0.0-6.54-0.54,0.0,62.0,,,,,,,[],,,,,,56.4,1.0,i,1.0,True,1591.5,96.0,60.0,40.0,False,,376.9319048671682,[],"[960, 540]",ColorTask,29.0,55.0,,,HRV,HRV_0281,2022-11-30 21:16:04
,wl-rdm,63,260155,0.0-6.55-0.55,0.0,63.0,,,,,,,[],,,,,,62.5,1.0,i,1.0,True,1485.2000000476837,90.0,60.0,40.0,False,,347.58292366730893,[],"[960, 540]",ColorTask,30.0,56.0,,,HRV,HRV_0281,2022-11-30 21:16:04
,wl-rdm,64,262859,0.0-6.56-0.56,0.0,64.0,,,,,,,[],,,,,,50.0,0.0,i,1.0,False,1235.8000001907349,75.0,60.0,40.0,False,,393.81376748697073,[],"[960, 540]",ColorTask,29.0,57.0,,,HRV,HRV_0281,2022-11-30 21:16:04
,wl-rdm,65,265827,0.0-6.57-0.57,0.0,65.0,,,,,,,[],,,,,,50.0,1.0,u,0.0,False,1543.2999999523163,93.0,60.0,40.0,False,,351.36934447606563,[],"[960, 540]",ColorTask,28.0,58.0,,,HRV,HRV_0281,2022-11-30 21:16:04
,wl-rdm,66,267929,0.0-6.58-0.58,0.0,66.0,,,,,,,[],,,,,,87.9,1.0,i,1.0,True,753.2000000476837,46.0,60.0,40.0,False,,270.90132953922733,[],"[960, 540]",ColorTask,29.0,59.0,,,HRV,HRV_0281,2022-11-30 21:16:04
,wl-rdm,67,272100,0.0-6.59-0.59,0.0,67.0,,,,,,,[],,,,,,50.0,1.0,u,0.0,False,2861.7999999523163,172.0,60.0,40.0,False,,217.90625953284646,[],"[960, 540]",ColorTask,28.0,60.0,,,HRV,HRV_0281,2022-11-30 21:16:04
,wl-rdm,68,276354,0.0-6.60-0.60,0.0,68.0,,,,,,,[],,,,,,56.4,0.0,u,0.0,True,2863.7000000476837,172.0,60.0,40.0,False,,330.5927279449545,[],"[960, 540]",ColorTask,29.0,61.0,,,HRV,HRV_0281,2022-11-30 21:16:04
,wl-rdm,69,279875,0.0-6.61-0.61,0.0,69.0,,,,,,,[],,,,,,53.2,1.0,i,1.0,True,2213.600000143051,133.0,60.0,40.0,False,,230.32091342086255,[],"[960, 540]",ColorTask,30.0,62.0,,,HRV,HRV_0281,2022-11-30 21:16:04
,wl-rdm,70,282660,0.0-6.62-0.62,0.0,70.0,,,,,,,[],,,,,,53.2,0.0,i,1.0,False,1344.2999999523163,81.0,60.0,40.0,False,,383.23865742043085,[],"[960, 540]",ColorTask,29.0,63.0,,,HRV,HRV_0281,2022-11-30 21:16:04
,wl-rdm,71,285296,0.0-6.63-0.63,0.0,71.0,,,,,,,[],,,,,,56.4,1.0,u,0.0,False,1247.9000000953674,75.0,60.0,40.0,False,,331.1668271770095,[],"[960, 540]",ColorTask,28.0,64.0,,,HRV,HRV_0281,2022-11-30 21:16:04
,wl-rdm,72,287481,0.0-6.64-0.64,0.0,72.0,,,,,,,[],,,,,,73.6,1.0,i,1.0,True,822.0,50.0,60.0,40.0,False,,286.99809861304584,[],"[960, 540]",ColorTask,29.0,65.0,,,HRV,HRV_0281,2022-11-30 21:16:04
,wl-rdm,73,289867,0.0-6.65-0.65,0.0,73.0,,,,,,,[],,,,,,56.4,1.0,i,1.0,True,1087.4000000953674,66.0,60.0,40.0,False,,222.55472169451448,[],"[960, 540]",ColorTask,30.0,66.0,,,HRV,HRV_0281,2022-11-30 21:16:04
,wl-rdm,74,292002,0.0-6.66-0.66,0.0,74.0,,,,,,,[],,,,,,62.5,1.0,i,1.0,True,795.8999998569489,48.0,60.0,40.0,False,,281.9089717944799,[],"[960, 540]",ColorTask,31.0,67.0,,,HRV,HRV_0281,2022-11-30 21:16:04
,wl-rdm,75,294038,0.0-6.67-0.67,0.0,75.0,,,,,,,[],,,,,,73.6,1.0,i,1.0,True,759.4999997615814,46.0,60.0,40.0,False,,201.3113238523469,[],"[960, 540]",ColorTask,32.0,68.0,,,HRV,HRV_0281,2022-11-30 21:16:04
,wl-rdm,76,296124,0.0-6.68-0.68,0.0,76.0,,,,,,,[],,,,,,87.9,1.0,i,1.0,True,620.7000000476837,38.0,60.0,40.0,False,,391.2843428582414,[],"[960, 540]",ColorTask,33.0,69.0,,,HRV,HRV_0281,2022-11-30 21:16:04
,wl-rdm,77,298108,0.0-6.69-0.69,0.0,77.0,,,,,,,[],,,,,,87.9,1.0,i,1.0,True,652.8000001907349,40.0,60.0,40.0,False,,265.75855357807404,[],"[960, 540]",ColorTask,34.0,70.0,,,HRV,HRV_0281,2022-11-30 21:16:04
,wl-rdm,78,300527,0.0-6.70-0.70,0.0,78.0,,,,,,,[],,,,,,56.4,1.0,i,1.0,True,1066.7999999523163,64.0,60.0,40.0,False,,286.52149853964147,[],"[960, 540]",ColorTask,35.0,71.0,,,HRV,HRV_0281,2022-11-30 21:16:04
,wl-rdm,79,302996,0.0-6.71-0.71,0.0,79.0,,,,,,,[],,,,,,87.9,0.0,u,0.0,True,996.2000000476837,60.0,60.0,40.0,False,,394.01547406164286,[],"[960, 540]",ColorTask,36.0,72.0,,,HRV,HRV_0281,2022-11-30 21:16:04
,wl-rdm,80,305182,0.0-6.72-0.72,0.0,80.0,,,,,,,[],,,,,,87.9,1.0,i,1.0,True,752.5,46.0,60.0,40.0,False,,354.8596735460071,[],"[960, 540]",ColorTask,37.0,73.0,,,HRV,HRV_0281,2022-11-30 21:16:04
,wl-rdm,81,307467,0.0-6.73-0.73,0.0,81.0,,,,,,,[],,,,,,56.4,0.0,i,1.0,False,872.5,53.0,60.0,40.0,False,,320.3289881484626,[],"[960, 540]",ColorTask,36.0,74.0,,,HRV,HRV_0281,2022-11-30 21:16:04
,wl-rdm,82,309702,0.0-6.74-0.74,0.0,82.0,,,,,,,[],,,,,,87.9,0.0,u,0.0,True,776.3999998569489,47.0,60.0,40.0,False,,390.5373912157065,[],"[960, 540]",ColorTask,37.0,75.0,,,HRV,HRV_0281,2022-11-30 21:16:04
,wl-rdm,83,313240,0.0-6.75-0.75,0.0,83.0,,,,,,,[],,,,,,53.2,0.0,u,0.0,True,2077.5,125.0,60.0,40.0,False,,382.0724980081334,[],"[960, 540]",ColorTask,38.0,76.0,,,HRV,HRV_0281,2022-11-30 21:16:04
,wl-rdm,84,315558,0.0-6.76-0.76,0.0,84.0,,,,,,,[],,,,,,62.5,1.0,i,1.0,True,1045.0,63.0,60.0,40.0,False,,205.66830063218663,[],"[960, 540]",ColorTask,39.0,77.0,,,HRV,HRV_0281,2022-11-30 21:16:04
,wl-rdm,85,317794,0.0-6.77-0.77,0.0,85.0,,,,,,,[],,,,,,62.5,1.0,i,1.0,True,865.7999997138977,52.0,60.0,40.0,False,,313.9564297930167,[],"[960, 540]",ColorTask,40.0,78.0,,,HRV,HRV_0281,2022-11-30 21:16:04
,wl-rdm,86,320229,0.0-6.78-0.78,0.0,86.0,,,,,,,[],,,,,,53.2,0.0,i,1.0,False,978.7999999523163,59.0,60.0,40.0,False,,389.78120352339863,[],"[960, 540]",ColorTask,39.0,79.0,,,HRV,HRV_0281,2022-11-30 21:16:04
,wl-rdm,87,322749,0.0-6.79-0.79,0.0,87.0,,,,,,,[],,,,,,50.0,0.0,u,0.0,True,1189.2000000476837,72.0,60.0,40.0,False,,251.14135112142915,[],"[960, 540]",ColorTask,40.0,80.0,,,HRV,HRV_0281,2022-11-30 21:16:04
,wl-rdm,88,324934,0.0-6.80-0.80,0.0,88.0,,,,,,,[],,,,,,87.9,0.0,u,0.0,True,761.4000000953674,46.0,60.0,40.0,False,,352.41012122167217,[],"[960, 540]",ColorTask,41.0,81.0,,,HRV,HRV_0281,2022-11-30 21:16:04
,wl-rdm,89,327420,0.0-6.81-0.81,0.0,89.0,,,,,,,[],,,,,,56.4,1.0,u,0.0,False,1090.2999999523163,66.0,60.0,40.0,False,,327.7599034174986,[],"[960, 540]",ColorTask,40.0,82.0,,,HRV,HRV_0281,2022-11-30 21:16:04
,wl-rdm,90,330006,0.0-6.82-0.82,0.0,90.0,,,,,,,[],,,,,,53.2,0.0,u,0.0,True,1214.1000001430511,73.0,60.0,40.0,False,,292.05577228016506,[],"[960, 540]",ColorTask,41.0,83.0,,,HRV,HRV_0281,2022-11-30 21:16:04
,wl-rdm,91,332057,0.0-6.83-0.83,0.0,91.0,,,,,,,[],,,,,,53.2,0.0,u,0.0,True,758.2999999523163,46.0,60.0,40.0,False,,232.04638532969904,[],"[960, 540]",ColorTask,42.0,84.0,,,HRV,HRV_0281,2022-11-30 21:16:04
,wl-rdm,92,335077,0.0-6.84-0.84,0.0,92.0,,,,,,,[],,,,,,73.6,1.0,i,1.0,True,1648.2999999523163,99.0,60.0,40.0,False,,306.5123770167555,[],"[960, 540]",ColorTask,43.0,85.0,,,HRV,HRV_0281,2022-11-30 21:16:04
,wl-rdm,93,337529,0.0-6.85-0.85,0.0,93.0,,,,,,,[],,,,,,62.5,0.0,u,0.0,True,1026.8999998569489,62.0,60.0,40.0,False,,360.3823214289531,[],"[960, 540]",ColorTask,44.0,86.0,,,HRV,HRV_0281,2022-11-30 21:16:04
,wl-rdm,94,339798,0.0-6.86-0.86,0.0,94.0,,,,,,,[],,,,,,73.6,1.0,i,1.0,True,996.6000001430511,60.0,60.0,40.0,False,,200.93556614301215,[],"[960, 540]",ColorTask,45.0,87.0,,,HRV,HRV_0281,2022-11-30 21:16:04
,wl-rdm,95,341933,0.0-6.87-0.87,0.0,95.0,,,,,,,[],,,,,,87.9,0.0,u,0.0,True,689.3000001907349,42.0,60.0,40.0,False,,371.1245255856295,[],"[960, 540]",ColorTask,46.0,88.0,,,HRV,HRV_0281,2022-11-30 21:16:04
,wl-rdm,96,344386,0.0-6.88-0.88,0.0,96.0,,,,,,,[],,,,,,50.0,0.0,u,0.0,True,1135.0,69.0,60.0,40.0,False,,248.04748904805018,[],"[960, 540]",ColorTask,47.0,89.0,,,HRV,HRV_0281,2022-11-30 21:16:04
,wl-rdm,97,346522,0.0-6.89-0.89,0.0,97.0,,,,,,,[],,,,,,87.9,0.0,u,0.0,True,694.0,42.0,60.0,40.0,False,,361.639098617836,[],"[960, 540]",ColorTask,48.0,90.0,,,HRV,HRV_0281,2022-11-30 21:16:04
,wl-rdm,98,349073,0.0-6.90-0.90,0.0,98.0,,,,,,,[],,,,,,56.4,0.0,u,0.0,True,1236.0999999046326,75.0,60.0,40.0,False,,236.36570694199054,[],"[960, 540]",ColorTask,49.0,91.0,,,HRV,HRV_0281,2022-11-30 21:16:04
,wl-rdm,99,351126,0.0-6.91-0.91,0.0,99.0,,,,,,,[],,,,,,62.5,0.0,u,0.0,True,764.5999999046326,46.0,60.0,40.0,False,,217.16988967393553,[],"[960, 540]",ColorTask,50.0,92.0,,,HRV,HRV_0281,2022-11-30 21:16:04
,wl-rdm,100,353027,0.0-6.92-0.92,0.0,100.0,,,,,,,[],,,,,,73.6,0.0,u,0.0,True,566.9000000953674,34.0,60.0,40.0,False,,282.91356854196556,[],"[960, 540]",ColorTask,51.0,93.0,,,HRV,HRV_0281,2022-11-30 21:16:04
,wl-rdm,101,355346,0.0-6.93-0.93,0.0,101.0,,,,,,,[],,,,,,73.6,0.0,u,0.0,True,919.6999998092651,56.0,60.0,40.0,False,,315.0885001127244,[],"[960, 540]",ColorTask,52.0,94.0,,,HRV,HRV_0281,2022-11-30 21:16:04
,wl-rdm,102,357315,0.0-6.94-0.94,0.0,102.0,,,,,,,[],,,,,,87.9,0.0,u,0.0,True,635.3000001907349,39.0,60.0,40.0,False,,237.58673257734364,[],"[960, 540]",ColorTask,53.0,95.0,,,HRV,HRV_0281,2022-11-30 21:16:04
,wl-rdm,103,359584,0.0-6.95-0.95,0.0,103.0,,,,,,,[],,,,,,53.2,0.0,u,0.0,True,922.5999999046326,56.0,60.0,40.0,False,,276.28422700294504,[],"[960, 540]",ColorTask,54.0,96.0,,,HRV,HRV_0281,2022-11-30 21:16:04
,wl-rdm,104,362086,0.0-6.96-0.96,0.0,104.0,,,,,,,[],,,,,,73.6,1.0,i,1.0,True,1232.0999999046326,74.0,60.0,40.0,False,,214.6296192279552,[],"[960, 540]",ColorTask,55.0,97.0,,,HRV,HRV_0281,2022-11-30 21:16:04
,wl-rdm,105,364271,0.0-6.97-0.97,0.0,105.0,,,,,,,[],,,,,,50.0,0.0,i,1.0,False,904.7000000476837,55.0,60.0,40.0,False,,214.6942324230047,[],"[960, 540]",ColorTask,54.0,98.0,,,HRV,HRV_0281,2022-11-30 21:16:04
,wl-rdm,106,366490,0.0-6.98-0.98,0.0,106.0,,,,,,,[],,,,,,53.2,1.0,u,0.0,False,911.5999999046326,55.0,60.0,40.0,False,,234.12515399740366,[],"[960, 540]",ColorTask,53.0,99.0,,,HRV,HRV_0281,2022-11-30 21:16:04
,wl-rdm,107,368876,0.0-6.99-0.99,0.0,107.0,,,,,,,[],,,,,,73.6,1.0,i,1.0,True,960.0999999046326,58.0,60.0,40.0,False,,351.94937538234456,[],"[960, 540]",ColorTask,54.0,100.0,,,HRV,HRV_0281,2022-11-30 21:16:04
,wl-rdm,108,371196,0.0-6.100-0.100,0.0,108.0,,,,,,,[],,,,,,62.5,0.0,u,0.0,True,1045.0,63.0,60.0,40.0,False,,215.9425625579738,[],"[960, 540]",ColorTask,55.0,101.0,,,HRV,HRV_0281,2022-11-30 21:16:04
,wl-rdm,109,373797,0.0-6.101-0.101,0.0,109.0,,,,,,,[],,,,,,56.4,0.0,u,0.0,True,1318.2000000476837,80.0,60.0,40.0,False,,203.8338801815822,[],"[960, 540]",ColorTask,56.0,102.0,,,HRV,HRV_0281,2022-11-30 21:16:04
,wl-rdm,110,375899,0.0-6.102-0.102,0.0,110.0,,,,,,,[],,,,,,73.6,0.0,u,0.0,True,727.2000000476837,44.0,60.0,40.0,False,,313.47076089526024,[],"[960, 540]",ColorTask,57.0,103.0,,,HRV,HRV_0281,2022-11-30 21:16:04
,wl-rdm,111,378118,0.0-6.103-0.103,0.0,111.0,,,,,,,[],,,,,,50.0,0.0,u,0.0,True,950.1000001430511,57.0,60.0,40.0,False,,211.1718677973242,[],"[960, 540]",ColorTask,58.0,104.0,,,HRV,HRV_0281,2022-11-30 21:16:04
,wl-rdm,112,380354,0.0-6.104-0.104,0.0,112.0,,,,,,,[],,,,,,50.0,1.0,u,0.0,False,922.3000001907349,56.0,60.0,40.0,False,,231.7470919222298,[],"[960, 540]",ColorTask,57.0,105.0,,,HRV,HRV_0281,2022-11-30 21:16:04
,wl-rdm,113,383223,0.0-6.105-0.105,0.0,113.0,,,,,,,[],,,,,,53.2,0.0,i,1.0,False,1583.7000000476837,95.0,60.0,40.0,False,,217.77974555277663,[],"[960, 540]",ColorTask,56.0,106.0,,,HRV,HRV_0281,2022-11-30 21:16:04
,wl-rdm,114,385725,0.0-6.106-0.106,0.0,114.0,,,,,,,[],,,,,,62.5,0.0,u,0.0,True,1193.7999999523163,72.0,60.0,40.0,False,,248.887312323661,[],"[960, 540]",ColorTask,57.0,107.0,,,HRV,HRV_0281,2022-11-30 21:16:04
,wl-rdm,115,388294,0.0-6.107-0.107,0.0,115.0,,,,,,,[],,,,,,50.0,1.0,u,0.0,False,1168.9000000953674,71.0,60.0,40.0,False,,328.35628214103565,[],"[960, 540]",ColorTask,56.0,108.0,,,HRV,HRV_0281,2022-11-30 21:16:04
,wl-rdm,116,390313,0.0-6.108-0.108,0.0,116.0,,,,,,,[],,,,,,87.9,1.0,i,1.0,True,648.2000000476837,39.0,60.0,40.0,False,,314.06031274599013,[],"[960, 540]",ColorTask,57.0,109.0,,,HRV,HRV_0281,2022-11-30 21:16:04
,wl-html-keyboard-response,117,812812,0.0-7.0-0.0,1.0,117.0,,,,,,,,420493.10000014305,1.0,0,,,,,,,,,,,,,,,,,,,,,,HRV,HRV_0281,2022-11-30 21:16:04
,wl-rdm,118,816237,0.0-8.0-0.0,1.0,118.0,,,,,,,[],,,,,,50.0,0.0,u,0.0,True,2050.899999856949,124.0,60.0,40.0,False,,299.0766649168212,[],"[960, 540]",ColorTask,58.0,1.0,,,HRV,HRV_0281,2022-11-30 21:16:04
,wl-rdm,119,819253,0.0-8.1-0.1,1.0,119.0,,,,,,,[],,,,,,87.9,0.0,u,0.0,True,1574.2000000476837,95.0,60.0,40.0,False,,369.4652440600106,[],"[960, 540]",ColorTask,59.0,2.0,,,HRV,HRV_0281,2022-11-30 21:16:04
,wl-rdm,120,821587,0.0-8.2-0.2,1.0,120.0,,,,,,,[],,,,,,62.5,0.0,u,0.0,True,994.0,60.0,60.0,40.0,False,,273.04322758552206,[],"[960, 540]",ColorTask,60.0,3.0,,,HRV,HRV_0281,2022-11-30 21:16:04
,wl-rdm,121,823820,0.0-8.3-0.3,1.0,121.0,,,,,,,[],,,,,,87.9,1.0,i,1.0,True,852.2000000476837,52.0,60.0,40.0,False,,283.3227505663218,[],"[960, 540]",ColorTask,61.0,4.0,,,HRV,HRV_0281,2022-11-30 21:16:04
,wl-rdm,122,826170,0.0-8.4-0.4,1.0,122.0,,,,,,,[],,,,,,87.9,0.0,i,1.0,False,970.7000000476837,59.0,60.0,40.0,False,,311.92961314211783,[],"[960, 540]",ColorTask,60.0,5.0,,,HRV,HRV_0281,2022-11-30 21:16:04
,wl-rdm,123,828620,0.0-8.5-0.5,1.0,123.0,,,,,,,[],,,,,,53.2,1.0,i,1.0,True,1102.8000001907349,67.0,60.0,40.0,False,,252.42964375480935,[],"[960, 540]",ColorTask,61.0,6.0,,,HRV,HRV_0281,2022-11-30 21:16:04
,wl-rdm,124,831103,0.0-8.6-0.6,1.0,124.0,,,,,,,[],,,,,,53.2,1.0,i,1.0,True,1067.2000002861023,65.0,60.0,40.0,False,,330.89990457286876,[],"[960, 540]",ColorTask,62.0,7.0,,,HRV,HRV_0281,2022-11-30 21:16:04
,wl-rdm,125,833387,0.0-8.7-0.7,1.0,125.0,,,,,,,[],,,,,,87.9,1.0,i,1.0,True,971.8999998569489,59.0,60.0,40.0,False,,229.29060565758587,[],"[960, 540]",ColorTask,63.0,8.0,,,HRV,HRV_0281,2022-11-30 21:16:04
,wl-rdm,126,836070,0.0-8.8-0.8,1.0,126.0,,,,,,,[],,,,,,56.4,0.0,i,1.0,False,1393.7000000476837,84.0,60.0,40.0,False,,211.429063839166,[],"[960, 540]",ColorTask,62.0,9.0,,,HRV,HRV_0281,2022-11-30 21:16:04
,wl-rdm,127,838703,0.0-8.9-0.9,1.0,127.0,,,,,,,[],,,,,,50.0,0.0,u,0.0,True,1351.0,82.0,60.0,40.0,False,,210.43543476111577,[],"[960, 540]",ColorTask,63.0,10.0,,,HRV,HRV_0281,2022-11-30 21:16:04
,wl-rdm,128,840803,0.0-8.10-0.10,1.0,128.0,,,,,,,[],,,,,,87.9,0.0,u,0.0,True,829.0999999046326,50.0,60.0,40.0,False,,200.59864131908486,[],"[960, 540]",ColorTask,64.0,11.0,,,HRV,HRV_0281,2022-11-30 21:16:04
,wl-rdm,129,844303,0.0-8.11-0.11,1.0,129.0,,,,,,,[],,,,,,56.4,1.0,i,1.0,True,2184.5,132.0,60.0,40.0,False,,233.2652541966982,[],"[960, 540]",ColorTask,65.0,12.0,,,HRV,HRV_0281,2022-11-30 21:16:04
,wl-rdm,130,847469,0.0-8.12-0.12,1.0,130.0,,,,,,,[],,,,,,56.4,1.0,u,0.0,False,1736.8000001907349,105.0,60.0,40.0,False,,337.12600816167304,[],"[960, 540]",ColorTask,64.0,13.0,,,HRV,HRV_0281,2022-11-30 21:16:04
,wl-rdm,131,849637,0.0-8.13-0.13,1.0,131.0,,,,,,,[],,,,,,73.6,1.0,i,1.0,True,829.0,50.0,60.0,40.0,False,,273.0324610749462,[],"[960, 540]",ColorTask,65.0,14.0,,,HRV,HRV_0281,2022-11-30 21:16:04
,wl-rdm,132,851605,0.0-8.14-0.14,1.0,132.0,,,,,,,[],,,,,,73.6,1.0,i,1.0,True,696.7999999523163,42.0,60.0,40.0,False,,215.98644955447747,[],"[960, 540]",ColorTask,66.0,15.0,,,HRV,HRV_0281,2022-11-30 21:16:04
,wl-rdm,133,854491,0.0-8.15-0.15,1.0,133.0,,,,,,,[],,,,,,53.2,1.0,u,0.0,False,1558.2000000476837,94.0,60.0,40.0,False,,260.12285006177314,[],"[960, 540]",ColorTask,65.0,16.0,,,HRV,HRV_0281,2022-11-30 21:16:04
,wl-rdm,134,857027,0.0-8.16-0.16,1.0,134.0,,,,,,,[],,,,,,62.5,0.0,u,0.0,True,1199.2000000476837,72.0,60.0,40.0,False,,280.6133384956391,[],"[960, 540]",ColorTask,66.0,17.0,,,HRV,HRV_0281,2022-11-30 21:16:04
,wl-rdm,135,859213,0.0-8.17-0.17,1.0,135.0,,,,,,,[],,,,,,56.4,1.0,i,1.0,True,823.1000001430511,50.0,60.0,40.0,False,,289.47614998729534,[],"[960, 540]",ColorTask,67.0,18.0,,,HRV,HRV_0281,2022-11-30 21:16:04
,wl-rdm,136,861835,0.0-8.18-0.18,1.0,136.0,,,,,,,[],,,,,,73.6,0.0,u,0.0,True,1196.2000000476837,73.0,60.0,40.0,False,,348.1213506351575,[],"[960, 540]",ColorTask,68.0,19.0,,,HRV,HRV_0281,2022-11-30 21:16:04
,wl-rdm,137,863952,0.0-8.19-0.19,1.0,137.0,,,,,,,[],,,,,,73.6,1.0,i,1.0,True,635.2999999523163,39.0,60.0,40.0,False,,390.68212760683065,[],"[960, 540]",ColorTask,69.0,20.0,,,HRV,HRV_0281,2022-11-30 21:16:04
,wl-rdm,138,866285,0.0-8.20-0.20,1.0,138.0,,,,,,,[],,,,,,73.6,0.0,u,0.0,True,871.5999999046326,53.0,60.0,40.0,False,,398.15465440847134,[],"[960, 540]",ColorTask,70.0,21.0,,,HRV,HRV_0281,2022-11-30 21:16:04
,wl-rdm,139,870306,0.0-8.21-0.21,1.0,139.0,,,,,,,[],,,,,,53.2,1.0,i,1.0,True,2619.2000000476837,157.0,60.0,40.0,False,,343.6089127569694,[],"[960, 540]",ColorTask,71.0,22.0,,,HRV,HRV_0281,2022-11-30 21:16:04
,wl-rdm,140,872875,0.0-8.22-0.22,1.0,140.0,,,,,,,[],,,,,,87.9,0.0,u,0.0,True,1159.0,70.0,60.0,40.0,False,,349.41800519514675,[],"[960, 540]",ColorTask,72.0,23.0,,,HRV,HRV_0281,2022-11-30 21:16:04
,wl-rdm,141,875528,0.0-8.23-0.23,1.0,141.0,,,,,,,[],,,,,,53.2,1.0,u,0.0,False,1229.0,74.0,60.0,40.0,False,,361.11493596656453,[],"[960, 540]",ColorTask,71.0,24.0,,,HRV,HRV_0281,2022-11-30 21:16:04
,wl-rdm,142,877947,0.0-8.24-0.24,1.0,142.0,,,,,,,[],,,,,,62.5,1.0,i,1.0,True,1076.6999998092651,65.0,60.0,40.0,False,,261.5806808125086,[],"[960, 540]",ColorTask,72.0,25.0,,,HRV,HRV_0281,2022-11-30 21:16:04
,wl-rdm,143,880149,0.0-8.25-0.25,1.0,143.0,,,,,,,[],,,,,,73.6,1.0,i,1.0,True,898.9000000953674,54.0,60.0,40.0,False,,237.21017097321874,[],"[960, 540]",ColorTask,73.0,26.0,,,HRV,HRV_0281,2022-11-30 21:16:04
,wl-rdm,144,882468,0.0-8.26-0.26,1.0,144.0,,,,,,,[],,,,,,53.2,1.0,i,1.0,True,1048.7999999523163,63.0,60.0,40.0,False,,216.78430864871183,[],"[960, 540]",ColorTask,74.0,27.0,,,HRV,HRV_0281,2022-11-30 21:16:04
,wl-rdm,145,884636,0.0-8.27-0.27,1.0,145.0,,,,,,,[],,,,,,56.4,1.0,i,1.0,True,841.7000000476837,51.0,60.0,40.0,False,,254.88816682517836,[],"[960, 540]",ColorTask,75.0,28.0,,,HRV,HRV_0281,2022-11-30 21:16:04
,wl-rdm,146,887055,0.0-8.28-0.28,1.0,146.0,,,,,,,[],,,,,,56.4,0.0,u,0.0,True,1005.7000000476837,61.0,60.0,40.0,False,,341.1903887620043,[],"[960, 540]",ColorTask,76.0,29.0,,,HRV,HRV_0281,2022-11-30 21:16:04
,wl-rdm,147,889291,0.0-8.29-0.29,1.0,147.0,,,,,,,[],,,,,,56.4,1.0,i,1.0,True,877.5,53.0,60.0,40.0,False,,295.53429264552153,[],"[960, 540]",ColorTask,77.0,30.0,,,HRV,HRV_0281,2022-11-30 21:16:04
,wl-rdm,148,892427,0.0-8.30-0.30,1.0,148.0,,,,,,,[],,,,,,56.4,0.0,i,1.0,False,1777.7000000476837,107.0,60.0,40.0,False,,296.3162203123783,[],"[960, 540]",ColorTask,76.0,31.0,,,HRV,HRV_0281,2022-11-30 21:16:04
,wl-rdm,149,894997,0.0-8.31-0.31,1.0,149.0,,,,,,,[],,,,,,50.0,0.0,i,1.0,False,1234.7999999523163,75.0,60.0,40.0,False,,253.76485038858027,[],"[960, 540]",ColorTask,75.0,32.0,,,HRV,HRV_0281,2022-11-30 21:16:04
,wl-rdm,150,897366,0.0-8.32-0.32,1.0,150.0,,,,,,,[],,,,,,62.5,1.0,i,1.0,True,1017.5999999046326,61.0,60.0,40.0,False,,286.8180444243592,[],"[960, 540]",ColorTask,76.0,33.0,,,HRV,HRV_0281,2022-11-30 21:16:04
,wl-rdm,151,900051,0.0-8.33-0.33,1.0,151.0,,,,,,,[],,,,,,62.5,1.0,i,1.0,True,1269.2000002861023,77.0,60.0,40.0,False,,334.3901580057118,[],"[960, 540]",ColorTask,77.0,34.0,,,HRV,HRV_0281,2022-11-30 21:16:04
,wl-rdm,152,902954,0.0-8.34-0.34,1.0,152.0,,,,,,,[],,,,,,56.4,1.0,i,1.0,True,1513.2000000476837,91.0,60.0,40.0,False,,324.86934544264966,[],"[960, 540]",ColorTask,78.0,35.0,,,HRV,HRV_0281,2022-11-30 21:16:04
,wl-rdm,153,905173,0.0-8.35-0.35,1.0,153.0,,,,,,,[],,,,,,87.9,0.0,u,0.0,True,751.5,46.0,60.0,40.0,False,,399.96230582008275,[],"[960, 540]",ColorTask,79.0,36.0,,,HRV,HRV_0281,2022-11-30 21:16:04
,wl-rdm,154,907276,0.0-8.36-0.36,1.0,154.0,,,,,,,[],,,,,,62.5,0.0,u,0.0,True,745.0,45.0,60.0,40.0,False,,291.0843471120025,[],"[960, 540]",ColorTask,80.0,37.0,,,HRV,HRV_0281,2022-11-30 21:16:04
,wl-rdm,155,910078,0.0-8.37-0.37,1.0,155.0,,,,,,,[],,,,,,73.6,1.0,i,1.0,True,1476.2999999523163,89.0,60.0,40.0,False,,267.7397928433213,[],"[960, 540]",ColorTask,81.0,38.0,,,HRV,HRV_0281,2022-11-30 21:16:04
,wl-rdm,156,912264,0.0-8.38-0.38,1.0,156.0,,,,,,,[],,,,,,62.5,1.0,i,1.0,True,883.5,53.0,60.0,40.0,False,,243.3603694498838,[],"[960, 540]",ColorTask,82.0,39.0,,,HRV,HRV_0281,2022-11-30 21:16:04
,wl-rdm,157,914751,0.0-8.39-0.39,1.0,157.0,,,,,,,[],,,,,,87.9,1.0,i,1.0,True,1060.5,64.0,60.0,40.0,False,,357.7557686069938,[],"[960, 540]",ColorTask,83.0,40.0,,,HRV,HRV_0281,2022-11-30 21:16:04
,wl-rdm,158,916935,0.0-8.40-0.40,1.0,158.0,,,,,,,[],,,,,,87.9,1.0,i,1.0,True,901.2999997138977,55.0,60.0,40.0,False,,205.0681064019101,[],"[960, 540]",ColorTask,84.0,41.0,,,HRV,HRV_0281,2022-11-30 21:16:04
,wl-rdm,159,920488,0.0-8.41-0.41,1.0,159.0,,,,,,,[],,,,,,62.5,0.0,u,0.0,True,2102.2999999523163,126.0,60.0,40.0,False,,377.7617586253666,[],"[960, 540]",ColorTask,85.0,42.0,,,HRV,HRV_0281,2022-11-30 21:16:04
,wl-rdm,160,923374,0.0-8.42-0.42,1.0,160.0,,,,,,,[],,,,,,73.6,1.0,i,1.0,True,1578.3000001907349,95.0,60.0,40.0,False,,249.83425999750827,[],"[960, 540]",ColorTask,86.0,43.0,,,HRV,HRV_0281,2022-11-30 21:16:04
,wl-rdm,161,925576,0.0-8.43-0.43,1.0,161.0,,,,,,,[],,,,,,53.2,0.0,u,0.0,True,833.5999999046326,50.0,60.0,40.0,False,,312.92911010709895,[],"[960, 540]",ColorTask,87.0,44.0,,,HRV,HRV_0281,2022-11-30 21:16:04
,wl-rdm,162,929063,0.0-8.44-0.44,1.0,162.0,,,,,,,[],,,,,,50.0,0.0,i,1.0,False,2170.2000000476837,131.0,60.0,40.0,False,,234.70248421653486,[],"[960, 540]",ColorTask,86.0,45.0,,,HRV,HRV_0281,2022-11-30 21:16:04
,wl-rdm,163,931167,0.0-8.45-0.45,1.0,163.0,,,,,,,[],,,,,,87.9,1.0,i,1.0,True,812.7000000476837,49.0,60.0,40.0,False,,226.7805831147346,[],"[960, 540]",ColorTask,87.0,46.0,,,HRV,HRV_0281,2022-11-30 21:16:04
,wl-rdm,164,933701,0.0-8.46-0.46,1.0,164.0,,,,,,,[],,,,,,56.4,1.0,u,0.0,False,1138.0999999046326,69.0,60.0,40.0,False,,325.71416180544236,[],"[960, 540]",ColorTask,86.0,47.0,,,HRV,HRV_0281,2022-11-30 21:16:04
,wl-rdm,165,937121,0.0-8.47-0.47,1.0,165.0,,,,,,,[],,,,,,50.0,0.0,u,0.0,True,2077.899999856949,125.0,60.0,40.0,False,,273.7729591252197,[],"[960, 540]",ColorTask,87.0,48.0,,,HRV,HRV_0281,2022-11-30 21:16:04
,wl-rdm,166,939223,0.0-8.48-0.48,1.0,166.0,,,,,,,[],,,,,,56.4,0.0,u,0.0,True,787.0999999046326,48.0,60.0,40.0,False,,239.3393008152844,[],"[960, 540]",ColorTask,88.0,49.0,,,HRV,HRV_0281,2022-11-30 21:16:04
,wl-rdm,167,941942,0.0-8.49-0.49,1.0,167.0,,,,,,,[],,,,,,53.2,1.0,i,1.0,True,1322.0000002384186,80.0,60.0,40.0,False,,332.5619183228091,[],"[960, 540]",ColorTask,89.0,50.0,,,HRV,HRV_0281,2022-11-30 21:16:04
,wl-rdm,168,945212,0.0-8.50-0.50,1.0,168.0,,,,,,,[],,,,,,50.0,1.0,u,0.0,False,1966.900000333786,118.0,60.0,40.0,False,,237.45962798633025,[],"[960, 540]",ColorTask,88.0,51.0,,,HRV,HRV_0281,2022-11-30 21:16:04
,wl-rdm,169,947831,0.0-8.51-0.51,1.0,169.0,,,,,,,[],,,,,,62.5,1.0,i,1.0,True,1154.3999998569489,70.0,60.0,40.0,False,,390.8860492823601,[],"[960, 540]",ColorTask,89.0,52.0,,,HRV,HRV_0281,2022-11-30 21:16:04
,wl-rdm,170,950400,0.0-8.52-0.52,1.0,170.0,,,,,,,[],,,,,,73.6,0.0,u,0.0,True,1111.5,67.0,60.0,40.0,False,,397.645582531512,[],"[960, 540]",ColorTask,90.0,53.0,,,HRV,HRV_0281,2022-11-30 21:16:04
,wl-rdm,171,953019,0.0-8.53-0.53,1.0,171.0,,,,,,,[],,,,,,87.9,0.0,u,0.0,True,1233.5999999046326,74.0,60.0,40.0,False,,329.27258286311326,[],"[960, 540]",ColorTask,91.0,54.0,,,HRV,HRV_0281,2022-11-30 21:16:04
,wl-rdm,172,955889,0.0-8.54-0.54,1.0,172.0,,,,,,,[],,,,,,62.5,1.0,i,1.0,True,1478.4000000953674,89.0,60.0,40.0,False,,319.2109337123952,[],"[960, 540]",ColorTask,92.0,55.0,,,HRV,HRV_0281,2022-11-30 21:16:04
,wl-rdm,173,958491,0.0-8.55-0.55,1.0,173.0,,,,,,,[],,,,,,53.2,0.0,u,0.0,True,1185.9000000953674,72.0,60.0,40.0,False,,319.4054165339059,[],"[960, 540]",ColorTask,93.0,56.0,,,HRV,HRV_0281,2022-11-30 21:16:04
,wl-rdm,174,960844,0.0-8.56-0.56,1.0,174.0,,,,,,,[],,,,,,50.0,0.0,u,0.0,True,1068.1999998092651,64.0,60.0,40.0,False,,214.24111469005106,[],"[960, 540]",ColorTask,94.0,57.0,,,HRV,HRV_0281,2022-11-30 21:16:04
,wl-rdm,175,962796,0.0-8.57-0.57,1.0,175.0,,,,,,,[],,,,,,73.6,0.0,u,0.0,True,683.5999999046326,41.0,60.0,40.0,False,,207.59218691518308,[],"[960, 540]",ColorTask,95.0,58.0,,,HRV,HRV_0281,2022-11-30 21:16:04
,wl-rdm,176,965065,0.0-8.58-0.58,1.0,176.0,,,,,,,[],,,,,,50.0,1.0,u,0.0,False,837.5999999046326,51.0,60.0,40.0,False,,358.6075774090356,[],"[960, 540]",ColorTask,94.0,59.0,,,HRV,HRV_0281,2022-11-30 21:16:04
,wl-rdm,177,967116,0.0-8.59-0.59,1.0,177.0,,,,,,,[],,,,,,87.9,1.0,i,1.0,True,733.0,44.0,60.0,40.0,False,,254.0497788041182,[],"[960, 540]",ColorTask,95.0,60.0,,,HRV,HRV_0281,2022-11-30 21:16:04
,wl-rdm,178,969518,0.0-8.60-0.60,1.0,178.0,,,,,,,[],,,,,,73.6,0.0,u,0.0,True,948.1000001430511,57.0,60.0,40.0,False,,398.2495525708456,[],"[960, 540]",ColorTask,96.0,61.0,,,HRV,HRV_0281,2022-11-30 21:16:04
,wl-rdm,179,971804,0.0-8.61-0.61,1.0,179.0,,,,,,,[],,,,,,87.9,1.0,i,1.0,True,851.5999999046326,52.0,60.0,40.0,False,,363.15408125187776,[],"[960, 540]",ColorTask,97.0,62.0,,,HRV,HRV_0281,2022-11-30 21:16:04
,wl-rdm,180,974890,0.0-8.62-0.62,1.0,180.0,,,,,,,[],,,,,,50.0,1.0,i,1.0,True,1771.7000000476837,107.0,60.0,40.0,False,,224.93766732233684,[],"[960, 540]",ColorTask,98.0,63.0,,,HRV,HRV_0281,2022-11-30 21:16:04
,wl-rdm,181,977476,0.0-8.63-0.63,1.0,181.0,,,,,,,[],,,,,,53.2,1.0,i,1.0,True,1311.0000002384186,79.0,60.0,40.0,False,,204.08406361530004,[],"[960, 540]",ColorTask,99.0,64.0,,,HRV,HRV_0281,2022-11-30 21:16:04
,wl-rdm,182,979778,0.0-8.64-0.64,1.0,182.0,,,,,,,[],,,,,,73.6,0.0,u,0.0,True,895.1999998092651,54.0,60.0,40.0,False,,348.8993909264443,[],"[960, 540]",ColorTask,100.0,65.0,,,HRV,HRV_0281,2022-11-30 21:16:04
,wl-rdm,183,981948,0.0-8.65-0.65,1.0,183.0,,,,,,,[],,,,,,56.4,0.0,u,0.0,True,835.8999998569489,51.0,60.0,40.0,False,,256.3785565267025,[],"[960, 540]",ColorTask,101.0,66.0,,,HRV,HRV_0281,2022-11-30 21:16:04
,wl-rdm,184,983982,0.0-8.66-0.66,1.0,184.0,,,,,,,[],,,,,,73.6,1.0,i,1.0,True,715.7999999523163,43.0,60.0,40.0,False,,259.48300801094126,[],"[960, 540]",ColorTask,102.0,67.0,,,HRV,HRV_0281,2022-11-30 21:16:04
,wl-rdm,185,986768,0.0-8.67-0.67,1.0,185.0,,,,,,,[],,,,,,53.2,0.0,u,0.0,True,1465.4000000953674,88.0,60.0,40.0,False,,264.36104703534386,[],"[960, 540]",ColorTask,103.0,68.0,,,HRV,HRV_0281,2022-11-30 21:16:04
,wl-rdm,186,988903,0.0-8.68-0.68,1.0,186.0,,,,,,,[],,,,,,50.0,1.0,u,0.0,False,807.5999999046326,49.0,60.0,40.0,False,,261.9551841100026,[],"[960, 540]",ColorTask,102.0,69.0,,,HRV,HRV_0281,2022-11-30 21:16:04
,wl-rdm,187,991223,0.0-8.69-0.69,1.0,187.0,,,,,,,[],,,,,,53.2,0.0,u,0.0,True,942.0,57.0,60.0,40.0,False,,302.27060507874813,[],"[960, 540]",ColorTask,103.0,70.0,,,HRV,HRV_0281,2022-11-30 21:16:04
,wl-rdm,188,993658,0.0-8.70-0.70,1.0,188.0,,,,,,,[],,,,,,73.6,1.0,i,1.0,True,1139.0,69.0,60.0,40.0,False,,225.85044431437322,[],"[960, 540]",ColorTask,104.0,71.0,,,HRV,HRV_0281,2022-11-30 21:16:04
,wl-rdm,189,996044,0.0-8.71-0.71,1.0,189.0,,,,,,,[],,,,,,50.0,0.0,u,0.0,True,1036.5,63.0,60.0,40.0,False,,271.85607778825306,[],"[960, 540]",ColorTask,105.0,72.0,,,HRV,HRV_0281,2022-11-30 21:16:04
,wl-rdm,190,998281,0.0-8.72-0.72,1.0,190.0,,,,,,,[],,,,,,50.0,1.0,u,0.0,False,941.2999999523163,57.0,60.0,40.0,False,,223.6604505759301,[],"[960, 540]",ColorTask,104.0,73.0,,,HRV,HRV_0281,2022-11-30 21:16:04
,wl-rdm,191,1000365,0.0-8.73-0.73,1.0,191.0,,,,,,,[],,,,,,73.6,1.0,i,1.0,True,652.7000000476837,40.0,60.0,40.0,False,,363.8266650438635,[],"[960, 540]",ColorTask,105.0,74.0,,,HRV,HRV_0281,2022-11-30 21:16:04
,wl-rdm,192,1002550,0.0-8.74-0.74,1.0,192.0,,,,,,,[],,,,,,62.5,1.0,i,1.0,True,777.0,47.0,60.0,40.0,False,,349.95977309563034,[],"[960, 540]",ColorTask,106.0,75.0,,,HRV,HRV_0281,2022-11-30 21:16:04
,wl-rdm,193,1004719,0.0-8.75-0.75,1.0,193.0,,,,,,,[],,,,,,56.4,0.0,u,0.0,True,818.2000000476837,50.0,60.0,40.0,False,,273.95577530475305,[],"[960, 540]",ColorTask,107.0,76.0,,,HRV,HRV_0281,2022-11-30 21:16:04
,wl-rdm,194,1006821,0.0-8.76-0.76,1.0,194.0,,,,,,,[],,,,,,56.4,1.0,u,0.0,False,811.5,49.0,60.0,40.0,False,,230.78717831427002,[],"[960, 540]",ColorTask,106.0,77.0,,,HRV,HRV_0281,2022-11-30 21:16:04
,wl-rdm,195,1009140,0.0-8.77-0.77,1.0,195.0,,,,,,,[],,,,,,56.4,0.0,u,0.0,True,912.4999997615814,55.0,60.0,40.0,False,,347.7459898739156,[],"[960, 540]",ColorTask,107.0,78.0,,,HRV,HRV_0281,2022-11-30 21:16:04
,wl-rdm,196,1011375,0.0-8.78-0.78,1.0,196.0,,,,,,,[],,,,,,50.0,0.0,u,0.0,True,901.1999998092651,55.0,60.0,40.0,False,,265.61693420820717,[],"[960, 540]",ColorTask,108.0,79.0,,,HRV,HRV_0281,2022-11-30 21:16:04
,wl-rdm,197,1013961,0.0-8.79-0.79,1.0,197.0,,,,,,,[],,,,,,62.5,1.0,i,1.0,True,1191.7999999523163,72.0,60.0,40.0,False,,331.96895691886743,[],"[960, 540]",ColorTask,109.0,80.0,,,HRV,HRV_0281,2022-11-30 21:16:04
,wl-rdm,198,1016047,0.0-8.80-0.80,1.0,198.0,,,,,,,[],,,,,,73.6,0.0,u,0.0,True,769.5,47.0,60.0,40.0,False,,218.67843478794805,[],"[960, 540]",ColorTask,110.0,81.0,,,HRV,HRV_0281,2022-11-30 21:16:04
,wl-rdm,199,1018132,0.0-8.81-0.81,1.0,199.0,,,,,,,[],,,,,,62.5,0.0,u,0.0,True,713.7999999523163,43.0,60.0,40.0,False,,316.736675050144,[],"[960, 540]",ColorTask,111.0,82.0,,,HRV,HRV_0281,2022-11-30 21:16:04
,wl-rdm,200,1020267,0.0-8.82-0.82,1.0,200.0,,,,,,,[],,,,,,62.5,0.0,u,0.0,True,806.7999999523163,49.0,60.0,40.0,False,,259.9312222295319,[],"[960, 540]",ColorTask,112.0,83.0,,,HRV,HRV_0281,2022-11-30 21:16:04
,wl-rdm,201,1022753,0.0-8.83-0.83,1.0,201.0,,,,,,,[],,,,,,56.4,0.0,u,0.0,True,1201.2999999523163,73.0,60.0,40.0,False,,206.31573257354663,[],"[960, 540]",ColorTask,113.0,84.0,,,HRV,HRV_0281,2022-11-30 21:16:04
,wl-rdm,202,1024972,0.0-8.84-0.84,1.0,202.0,,,,,,,[],,,,,,53.2,0.0,u,0.0,True,872.7999999523163,53.0,60.0,40.0,False,,274.9090233870769,[],"[960, 540]",ColorTask,114.0,85.0,,,HRV,HRV_0281,2022-11-30 21:16:04
,wl-rdm,203,1027340,0.0-8.85-0.85,1.0,203.0,,,,,,,[],,,,,,53.2,0.0,u,0.0,True,1040.2999999523163,63.0,60.0,40.0,False,,237.73689956599347,[],"[960, 540]",ColorTask,115.0,86.0,,,HRV,HRV_0281,2022-11-30 21:16:04
,wl-rdm,204,1029576,0.0-8.86-0.86,1.0,204.0,,,,,,,[],,,,,,50.0,1.0,u,0.0,False,944.1999998092651,57.0,60.0,40.0,False,,218.5119567062059,[],"[960, 540]",ColorTask,114.0,87.0,,,HRV,HRV_0281,2022-11-30 21:16:04
,wl-rdm,205,1031896,0.0-8.87-0.87,1.0,205.0,,,,,,,[],,,,,,50.0,1.0,u,0.0,False,895.8000001907349,54.0,60.0,40.0,False,,350.2146967676251,[],"[960, 540]",ColorTask,113.0,88.0,,,HRV,HRV_0281,2022-11-30 21:16:04
,wl-rdm,206,1034297,0.0-8.88-0.88,1.0,206.0,,,,,,,[],,,,,,73.6,0.0,u,0.0,True,1027.2999999523163,62.0,60.0,40.0,False,,304.6699101518177,[],"[960, 540]",ColorTask,114.0,89.0,,,HRV,HRV_0281,2022-11-30 21:16:04
,wl-rdm,207,1037817,0.0-8.89-0.89,1.0,207.0,,,,,,,[],,,,,,56.4,0.0,u,0.0,True,2195.0,132.0,60.0,40.0,False,,253.1683172126357,[],"[960, 540]",ColorTask,115.0,90.0,,,HRV,HRV_0281,2022-11-30 21:16:04
,wl-rdm,208,1040086,0.0-8.90-0.90,1.0,208.0,,,,,,,[],,,,,,87.9,0.0,u,0.0,True,829.8999998569489,50.0,60.0,40.0,False,,378.7538148410756,[],"[960, 540]",ColorTask,116.0,91.0,,,HRV,HRV_0281,2022-11-30 21:16:04
,wl-rdm,209,1042855,0.0-8.91-0.91,1.0,209.0,,,,,,,[],,,,,,50.0,1.0,i,1.0,True,1480.2000002861023,89.0,60.0,40.0,False,,222.43087174976066,[],"[960, 540]",ColorTask,117.0,92.0,,,HRV,HRV_0281,2022-11-30 21:16:04
,wl-rdm,210,1044741,0.0-8.92-0.92,1.0,210.0,,,,,,,[],,,,,,87.9,1.0,i,1.0,True,598.6999998092651,36.0,60.0,40.0,False,,229.1964096558832,[],"[960, 540]",ColorTask,118.0,93.0,,,HRV,HRV_0281,2022-11-30 21:16:04
,wl-rdm,211,1047026,0.0-8.93-0.93,1.0,211.0,,,,,,,[],,,,,,53.2,1.0,i,1.0,True,919.2999999523163,56.0,60.0,40.0,False,,268.46479471965137,[],"[960, 540]",ColorTask,119.0,94.0,,,HRV,HRV_0281,2022-11-30 21:16:04
,wl-rdm,212,1049145,0.0-8.94-0.94,1.0,212.0,,,,,,,[],,,,,,56.4,1.0,i,1.0,True,794.7999999523163,48.0,60.0,40.0,False,,236.31860431536776,[],"[960, 540]",ColorTask,120.0,95.0,,,HRV,HRV_0281,2022-11-30 21:16:04
,wl-rdm,213,1051380,0.0-8.95-0.95,1.0,213.0,,,,,,,[],,,,,,50.0,0.0,u,0.0,True,933.0,56.0,60.0,40.0,False,,238.08842886617893,[],"[960, 540]",ColorTask,121.0,96.0,,,HRV,HRV_0281,2022-11-30 21:16:04
,wl-rdm,214,1053732,0.0-8.96-0.96,1.0,214.0,,,,,,,[],,,,,,50.0,1.0,i,1.0,True,1016.5999999046326,61.0,60.0,40.0,False,,273.52110189969085,[],"[960, 540]",ColorTask,122.0,97.0,,,HRV,HRV_0281,2022-11-30 21:16:04
,wl-rdm,215,1056068,0.0-8.97-0.97,1.0,215.0,,,,,,,[],,,,,,62.5,0.0,u,0.0,True,867.7000000476837,53.0,60.0,40.0,False,,389.26611926027294,[],"[960, 540]",ColorTask,123.0,98.0,,,HRV,HRV_0281,2022-11-30 21:16:04
,wl-rdm,216,1058420,0.0-8.98-0.98,1.0,216.0,,,,,,,[],,,,,,62.5,0.0,u,0.0,True,967.5,58.0,60.0,40.0,False,,327.6602351622139,[],"[960, 540]",ColorTask,124.0,99.0,,,HRV,HRV_0281,2022-11-30 21:16:04
,wl-rdm,217,1060389,0.0-8.99-0.99,1.0,217.0,,,,,,,[],,,,,,53.2,0.0,u,0.0,True,666.9000000953674,40.0,60.0,40.0,False,,240.97378586059935,[],"[960, 540]",ColorTask,125.0,100.0,,,HRV,HRV_0281,2022-11-30 21:16:04
,wl-rdm,218,1062424,0.0-8.100-0.100,1.0,218.0,,,,,,,[],,,,,,87.9,1.0,i,1.0,True,679.8999998569489,41.0,60.0,40.0,False,,285.8239014450307,[],"[960, 540]",ColorTask,126.0,101.0,,,HRV,HRV_0281,2022-11-30 21:16:04
,wl-rdm,219,1064442,0.0-8.101-0.101,1.0,219.0,,,,,,,[],,,,,,73.6,0.0,u,0.0,True,644.0999999046326,39.0,60.0,40.0,False,,304.61685653656843,[],"[960, 540]",ColorTask,127.0,102.0,,,HRV,HRV_0281,2022-11-30 21:16:04
,wl-rdm,220,1066711,0.0-8.102-0.102,1.0,220.0,,,,,,,[],,,,,,62.5,1.0,i,1.0,True,980.3000001907349,59.0,60.0,40.0,False,,219.9125777056235,[],"[960, 540]",ColorTask,128.0,103.0,,,HRV,HRV_0281,2022-11-30 21:16:04
,wl-rdm,221,1068897,0.0-8.103-0.103,1.0,221.0,,,,,,,[],,,,,,62.5,0.0,u,0.0,True,838.8999998569489,51.0,60.0,40.0,False,,274.55681296394863,[],"[960, 540]",ColorTask,129.0,104.0,,,HRV,HRV_0281,2022-11-30 21:16:04
,wl-rdm,222,1070949,0.0-8.104-0.104,1.0,222.0,,,,,,,[],,,,,,87.9,0.0,u,0.0,True,634.7999999523163,39.0,60.0,40.0,False,,348.95046095605267,[],"[960, 540]",ColorTask,130.0,105.0,,,HRV,HRV_0281,2022-11-30 21:16:04
,wl-rdm,223,1073217,0.0-8.105-0.105,1.0,223.0,,,,,,,[],,,,,,53.2,0.0,i,1.0,False,838.2000000476837,51.0,60.0,40.0,False,,354.8097860492188,[],"[960, 540]",ColorTask,129.0,106.0,,,HRV,HRV_0281,2022-11-30 21:16:04
,wl-rdm,224,1075253,0.0-8.106-0.106,1.0,224.0,,,,,,,[],,,,,,87.9,0.0,u,0.0,True,701.5,43.0,60.0,40.0,False,,255.39032361168321,[],"[960, 540]",ColorTask,130.0,107.0,,,HRV,HRV_0281,2022-11-30 21:16:04
,wl-rdm,225,1077755,0.0-8.107-0.107,1.0,225.0,,,,,,,[],,,,,,53.2,0.0,u,0.0,True,1178.7999999523163,71.0,60.0,40.0,False,,255.3134960966291,[],"[960, 540]",ColorTask,131.0,108.0,,,HRV,HRV_0281,2022-11-30 21:16:04
,wl-html-button-response,226,1081354,0.0-9.0-0.0,,,,,,,,,,3597.199999809265,,0,,,,,,,,,,,,,,,,,,,,<h3>End of this session. Thank you!</h3><br>,['Close window'],HRV,HRV_0281,2022-11-30 21:16:04
