trialN,stimuli,trialStartTime,trialStartTime_UNIX,stimulus1,stimulus2,stimulus1Bid,stimulus2Bid,delta,selected,rt,rt_UNIX,rt_perfnow,receivedResponse,rsp,trialEndTime,trialDuration,trialEndTime_UNIX,trialDuration_UNIX,exp,subjectId,date
0,"[{'imgObject': {}, 'id': 'seaweed', 'src': '/static/foodstim60/seaweed.jpg', 'key': 'u', 'origWidth': 410, 'origHeight': 410, 'width': 410, 'height': 410, 'widthPercent': 0.45, 'rescaleHeight': False, 'trialN': 0, 'loaded': True, 'loadedTime': 2196.4000000953674, 'positionName': 'LEFT', 'positionCoords': [511.6, 335], 'bid': 0.1}, {'imgObject': {}, 'id': 'cocktailshrimp', 'src': '/static/foodstim60/cocktailshrimp.jpg', 'key': 'i', 'origWidth': 410, 'origHeight': 410, 'width': 410, 'height': 410, 'widthPercent': 0.45, 'rescaleHeight': False, 'trialN': 0, 'loaded': True, 'loadedTime': 2242.300000190735, 'positionName': 'RIGHT', 'positionCoords': [998.4, 335], 'bid': 0.07}]",2540.4000000953674,1669840901698,seaweed,cocktailshrimp,0.1,0.07,-0.03,seaweed,1740.2000000476837,1741,1740.5999999046326,True,u,4790.100000143051,2249.7000000476837,1669840903948,2250,HRV,HRV_0281,2022-11-30 20:49:33
1,"[{'imgObject': {}, 'id': 'eggsalad', 'src': '/static/foodstim60/eggsalad.jpg', 'key': 'u', 'origWidth': 410, 'origHeight': 409, 'width': 410, 'height': 409, 'widthPercent': 0.45, 'rescaleHeight': False, 'trialN': 1, 'loaded': True, 'loadedTime': 2246.4000000953674, 'positionName': 'LEFT', 'positionCoords': [511.6, 335.5], 'bid': 0.27}, {'imgObject': {}, 'id': 'mango', 'src': '/static/foodstim60/mango.jpg', 'key': 'i', 'origWidth': 411, 'origHeight': 411, 'width': 411, 'height': 411, 'widthPercent': 0.45, 'rescaleHeight': False, 'trialN': 1, 'loaded': True, 'loadedTime': 2248.600000143051, 'positionName': 'RIGHT', 'positionCoords': [998.4, 334.5], 'bid': 0.12}]",4790.300000190735,1669840903948,eggsalad,mango,0.27,0.12,-0.15000000000000002,mango,1170.2999999523163,1171,1170.5,True,i,6480.800000190735,1690.5,1669840905639,1691,HRV,HRV_0281,2022-11-30 20:49:33
2,"[{'imgObject': {}, 'id': 'sweetpotato', 'src': '/static/foodstim60/sweetpotato.jpg', 'key': 'u', 'origWidth': 410, 'origHeight': 410, 'width': 410, 'height': 410, 'widthPercent': 0.45, 'rescaleHeight': False, 'trialN': 2, 'loaded': True, 'loadedTime': 2249.9000000953674, 'positionName': 'LEFT', 'positionCoords': [511.6, 335], 'bid': 0.06}, {'imgObject': {}, 'id': 'omelette', 'src': '/static/foodstim60/omelette.jpg', 'key': 'i', 'origWidth': 410, 'origHeight': 409, 'width': 410, 'height': 409, 'widthPercent': 0.45, 'rescaleHeight': False, 'trialN': 2, 'loaded': True, 'loadedTime': 2252.7000000476837, 'positionName': 'RIGHT', 'positionCoords': [998.4, 335.5], 'bid': 0.18}]",6481.100000143051,1669840905639,sweetpotato,omelette,0.06,0.18,0.12,sweetpotato,904.0999999046326,904,904.3999998569489,True,u,7897.900000095367,1416.7999999523163,1669840907056,1417,HRV,HRV_0281,2022-11-30 20:49:33
3,"[{'imgObject': {}, 'id': 'ice cream sundae 002', 'src': '/static/foodstim60/ice cream sundae 002.jpg', 'key': 'u', 'origWidth': 409, 'origHeight': 409, 'width': 409, 'height': 409, 'widthPercent': 0.45, 'rescaleHeight': False, 'trialN': 3, 'loaded': True, 'loadedTime': 2252.9000000953674, 'positionName': 'LEFT', 'positionCoords': [512.6, 335.5], 'bid': 5.01}, {'imgObject': {}, 'id': 'hotdog w must', 'src': '/static/foodstim60/hotdog w must.jpg', 'key': 'i', 'origWidth': 409, 'origHeight': 409, 'width': 409, 'height': 409, 'widthPercent': 0.45, 'rescaleHeight': False, 'trialN': 3, 'loaded': True, 'loadedTime': 2255.300000190735, 'positionName': 'RIGHT', 'positionCoords': [998.4, 335.5], 'bid': 9.25}]",7898.200000047684,1669840907056,ice cream sundae 002,hotdog w must,5.01,9.25,4.24,hotdog w must,959.2000000476837,960,959.6000001430511,True,i,9364.5,1466.2999999523163,1669840908522,1466,HRV,HRV_0281,2022-11-30 20:49:33
4,"[{'imgObject': {}, 'id': 'eggsalad', 'src': '/static/foodstim60/eggsalad.jpg', 'key': 'u', 'origWidth': 410, 'origHeight': 409, 'width': 410, 'height': 409, 'widthPercent': 0.45, 'rescaleHeight': False, 'trialN': 4, 'loaded': True, 'loadedTime': 2247.600000143051, 'positionName': 'LEFT', 'positionCoords': [511.6, 335.5], 'bid': 0.27}, {'imgObject': {}, 'id': 'rigatoni', 'src': '/static/foodstim60/rigatoni.jpg', 'key': 'i', 'origWidth': 411, 'origHeight': 411, 'width': 411, 'height': 411, 'widthPercent': 0.45, 'rescaleHeight': False, 'trialN': 4, 'loaded': True, 'loadedTime': 2257.7000000476837, 'positionName': 'RIGHT', 'positionCoords': [998.4, 334.5], 'bid': 9.4}]",9364.600000143051,1669840908522,eggsalad,rigatoni,0.27,9.4,9.13,rigatoni,756.5,757,756.7999999523163,True,i,10627.5,1262.8999998569489,1669840909785,1263,HRV,HRV_0281,2022-11-30 20:49:33
5,"[{'imgObject': {}, 'id': 'turkeysandwich', 'src': '/static/foodstim60/turkeysandwich.jpg', 'key': 'u', 'origWidth': 409, 'origHeight': 409, 'width': 409, 'height': 409, 'widthPercent': 0.45, 'rescaleHeight': False, 'trialN': 5, 'loaded': True, 'loadedTime': 2259.5, 'positionName': 'LEFT', 'positionCoords': [512.6, 335.5], 'bid': 0.17}, {'imgObject': {}, 'id': 'steak', 'src': '/static/foodstim60/steak.jpg', 'key': 'i', 'origWidth': 410, 'origHeight': 410, 'width': 410, 'height': 410, 'widthPercent': 0.45, 'rescaleHeight': False, 'trialN': 5, 'loaded': True, 'loadedTime': 2261.300000190735, 'positionName': 'RIGHT', 'positionCoords': [998.4, 335], 'bid': 5.07}]",10627.800000190735,1669840909786,turkeysandwich,steak,0.17,5.07,4.9,steak,870.3999998569489,870,870.5999999046326,True,i,12002.700000047684,1374.8999998569489,1669840911161,1375,HRV,HRV_0281,2022-11-30 20:49:33
6,"[{'imgObject': {}, 'id': 'mashed potato', 'src': '/static/foodstim60/mashed potato.jpg', 'key': 'u', 'origWidth': 409, 'origHeight': 409, 'width': 409, 'height': 409, 'widthPercent': 0.45, 'rescaleHeight': False, 'trialN': 6, 'loaded': True, 'loadedTime': 2262.100000143051, 'positionName': 'LEFT', 'positionCoords': [512.6, 335.5], 'bid': 0.32}, {'imgObject': {}, 'id': 'strawberries', 'src': '/static/foodstim60/strawberries.jpg', 'key': 'i', 'origWidth': 410, 'origHeight': 410, 'width': 410, 'height': 410, 'widthPercent': 0.45, 'rescaleHeight': False, 'trialN': 6, 'loaded': True, 'loadedTime': 2263.600000143051, 'positionName': 'RIGHT', 'positionCoords': [998.4, 335], 'bid': 5.0200000000000005}]",12002.900000095367,1669840911161,mashed potato,strawberries,0.32,5.0200000000000005,4.7,strawberries,727.0999999046326,727,727.2999999523163,True,i,13240.600000143051,1237.7000000476837,1669840912398,1237,HRV,HRV_0281,2022-11-30 20:49:33
7,"[{'imgObject': {}, 'id': 'hashbrowns', 'src': '/static/foodstim60/hashbrowns.jpg', 'key': 'u', 'origWidth': 411, 'origHeight': 410, 'width': 411, 'height': 410, 'widthPercent': 0.45, 'rescaleHeight': False, 'trialN': 7, 'loaded': True, 'loadedTime': 2264.5, 'positionName': 'LEFT', 'positionCoords': [510.6, 335], 'bid': 0.2}, {'imgObject': {}, 'id': 'edamame', 'src': '/static/foodstim60/edamame.jpg', 'key': 'i', 'origWidth': 409, 'origHeight': 410, 'width': 409, 'height': 410, 'widthPercent': 0.45, 'rescaleHeight': False, 'trialN': 7, 'loaded': True, 'loadedTime': 2264.9000000953674, 'positionName': 'RIGHT', 'positionCoords': [998.4, 335], 'bid': 0.18}]",13240.700000047684,1669840912399,hashbrowns,edamame,0.2,0.18,-0.020000000000000018,edamame,2017.0,2017,2017.2000000476837,True,i,15762.300000190735,2521.600000143051,1669840914920,2521,HRV,HRV_0281,2022-11-30 20:49:33
8,"[{'imgObject': {}, 'id': 'fruitsalad', 'src': '/static/foodstim60/fruitsalad.jpg', 'key': 'u', 'origWidth': 410, 'origHeight': 410, 'width': 410, 'height': 410, 'widthPercent': 0.45, 'rescaleHeight': False, 'trialN': 8, 'loaded': True, 'loadedTime': 2267, 'positionName': 'LEFT', 'positionCoords': [511.6, 335], 'bid': 0.36}, {'imgObject': {}, 'id': 'eggs', 'src': '/static/foodstim60/eggs.jpg', 'key': 'i', 'origWidth': 409, 'origHeight': 409, 'width': 409, 'height': 409, 'widthPercent': 0.45, 'rescaleHeight': False, 'trialN': 8, 'loaded': True, 'loadedTime': 2268.2000000476837, 'positionName': 'RIGHT', 'positionCoords': [998.4, 335.5], 'bid': 0.33}]",15762.5,1669840914920,fruitsalad,eggs,0.36,0.33,-0.02999999999999997,fruitsalad,1031.1000001430511,1032,1031.4000000953674,True,u,17302.200000047684,1539.7000000476837,1669840916460,1540,HRV,HRV_0281,2022-11-30 20:49:33
9,"[{'imgObject': {}, 'id': 'chickenfingers', 'src': '/static/foodstim60/chickenfingers.jpg', 'key': 'u', 'origWidth': 410, 'origHeight': 410, 'width': 410, 'height': 410, 'widthPercent': 0.45, 'rescaleHeight': False, 'trialN': 9, 'loaded': True, 'loadedTime': 2278.100000143051, 'positionName': 'LEFT', 'positionCoords': [511.6, 335], 'bid': 9.91}, {'imgObject': {}, 'id': 'froot loops w milk', 'src': '/static/foodstim60/froot loops w milk.jpg', 'key': 'i', 'origWidth': 410, 'origHeight': 410, 'width': 410, 'height': 410, 'widthPercent': 0.45, 'rescaleHeight': False, 'trialN': 9, 'loaded': True, 'loadedTime': 2316.5, 'positionName': 'RIGHT', 'positionCoords': [998.4, 335], 'bid': 9.72}]",17302.400000095367,1669840916460,chickenfingers,froot loops w milk,9.91,9.72,-0.1899999999999995,chickenfingers,819.9000000953674,820,820.2000000476837,True,u,18639.900000095367,1337.5,1669840917798,1338,HRV,HRV_0281,2022-11-30 20:49:33
10,"[{'imgObject': {}, 'id': 'baked potato', 'src': '/static/foodstim60/baked potato.jpg', 'key': 'u', 'origWidth': 409, 'origHeight': 410, 'width': 409, 'height': 410, 'widthPercent': 0.45, 'rescaleHeight': False, 'trialN': 10, 'loaded': True, 'loadedTime': 2336.800000190735, 'positionName': 'LEFT', 'positionCoords': [512.6, 335], 'bid': 8.57}, {'imgObject': {}, 'id': 'roastedpotatoes', 'src': '/static/foodstim60/roastedpotatoes.jpg', 'key': 'i', 'origWidth': 409, 'origHeight': 410, 'width': 409, 'height': 410, 'widthPercent': 0.45, 'rescaleHeight': False, 'trialN': 10, 'loaded': True, 'loadedTime': 2229.800000190735, 'positionName': 'RIGHT', 'positionCoords': [998.4, 335], 'bid': 8.23}]",18640.10000014305,1669840917798,baked potato,roastedpotatoes,8.57,8.23,-0.33999999999999986,baked potato,1690.3999998569489,1691,1690.7000000476837,True,u,20839.200000047684,2199.0999999046326,1669840919997,2199,HRV,HRV_0281,2022-11-30 20:49:33
11,"[{'imgObject': {}, 'id': 'tacos', 'src': '/static/foodstim60/tacos.jpg', 'key': 'u', 'origWidth': 411, 'origHeight': 411, 'width': 411, 'height': 411, 'widthPercent': 0.45, 'rescaleHeight': False, 'trialN': 11, 'loaded': True, 'loadedTime': 2251.5, 'positionName': 'LEFT', 'positionCoords': [510.6, 334.5], 'bid': 0.14}, {'imgObject': {}, 'id': 'mango', 'src': '/static/foodstim60/mango.jpg', 'key': 'i', 'origWidth': 411, 'origHeight': 411, 'width': 411, 'height': 411, 'widthPercent': 0.45, 'rescaleHeight': False, 'trialN': 11, 'loaded': True, 'loadedTime': 2248.9000000953674, 'positionName': 'RIGHT', 'positionCoords': [998.4, 334.5], 'bid': 0.12}]",20839.400000095367,1669840919997,tacos,mango,0.14,0.12,-0.020000000000000018,mango,1059.0999999046326,1060,1059.2999999523163,True,i,22409.200000047684,1569.7999999523163,1669840921567,1570,HRV,HRV_0281,2022-11-30 20:49:33
12,"[{'imgObject': {}, 'id': 'bagel plain', 'src': '/static/foodstim60/bagel plain.jpg', 'key': 'u', 'origWidth': 410, 'origHeight': 410, 'width': 410, 'height': 410, 'widthPercent': 0.45, 'rescaleHeight': False, 'trialN': 12, 'loaded': True, 'loadedTime': 2254.800000190735, 'positionName': 'LEFT', 'positionCoords': [511.6, 335], 'bid': 4.96}, {'imgObject': {}, 'id': 'sweetpotato', 'src': '/static/foodstim60/sweetpotato.jpg', 'key': 'i', 'origWidth': 410, 'origHeight': 410, 'width': 410, 'height': 410, 'widthPercent': 0.45, 'rescaleHeight': False, 'trialN': 12, 'loaded': True, 'loadedTime': 2250, 'positionName': 'RIGHT', 'positionCoords': [998.4, 335], 'bid': 0.06}]",22409.400000095367,1669840921567,bagel plain,sweetpotato,4.96,0.06,-4.9,bagel plain,817.0,817,817.2000000476837,True,u,23739.400000095367,1330.0,1669840922897,1330,HRV,HRV_0281,2022-11-30 20:49:33
13,"[{'imgObject': {}, 'id': 'cheerios', 'src': '/static/foodstim60/cheerios.jpg', 'key': 'u', 'origWidth': 409, 'origHeight': 410, 'width': 409, 'height': 410, 'widthPercent': 0.45, 'rescaleHeight': False, 'trialN': 13, 'loaded': True, 'loadedTime': 2257.600000143051, 'positionName': 'LEFT', 'positionCoords': [512.6, 335], 'bid': 9.43}, {'imgObject': {}, 'id': 'pear', 'src': '/static/foodstim60/pear.jpg', 'key': 'i', 'origWidth': 411, 'origHeight': 410, 'width': 411, 'height': 410, 'widthPercent': 0.45, 'rescaleHeight': False, 'trialN': 13, 'loaded': True, 'loadedTime': 2268.9000000953674, 'positionName': 'RIGHT', 'positionCoords': [998.4, 335], 'bid': 9.43}]",23739.60000014305,1669840922897,cheerios,pear,9.43,9.43,0.0,cheerios,1470.8999998569489,1472,1471.3999998569489,True,u,25714.60000014305,1975.0,1669840924872,1975,HRV,HRV_0281,2022-11-30 20:49:33
14,"[{'imgObject': {}, 'id': 'mango', 'src': '/static/foodstim60/mango.jpg', 'key': 'u', 'origWidth': 411, 'origHeight': 411, 'width': 411, 'height': 411, 'widthPercent': 0.45, 'rescaleHeight': False, 'trialN': 14, 'loaded': True, 'loadedTime': 2247.7000000476837, 'positionName': 'LEFT', 'positionCoords': [510.6, 334.5], 'bid': 0.12}, {'imgObject': {}, 'id': 'lox', 'src': '/static/foodstim60/lox.jpg', 'key': 'i', 'origWidth': 410, 'origHeight': 411, 'width': 410, 'height': 411, 'widthPercent': 0.45, 'rescaleHeight': False, 'trialN': 14, 'loaded': True, 'loadedTime': 2326, 'positionName': 'RIGHT', 'positionCoords': [998.4, 334.5], 'bid': 0.22}]",25714.700000047684,1669840924873,mango,lox,0.12,0.22,0.1,mango,1367.9000000953674,1368,1368.2000000476837,True,u,27594.10000014305,1879.4000000953674,1669840926752,1879,HRV,HRV_0281,2022-11-30 20:49:33
15,"[{'imgObject': {}, 'id': 'yogurt no spoon', 'src': '/static/foodstim60/yogurt no spoon.jpg', 'key': 'u', 'origWidth': 411, 'origHeight': 410, 'width': 411, 'height': 410, 'widthPercent': 0.45, 'rescaleHeight': False, 'trialN': 15, 'loaded': True, 'loadedTime': 2359.100000143051, 'positionName': 'LEFT', 'positionCoords': [510.6, 335], 'bid': 5.04}, {'imgObject': {}, 'id': 'ice cream sundae 002', 'src': '/static/foodstim60/ice cream sundae 002.jpg', 'key': 'i', 'origWidth': 409, 'origHeight': 409, 'width': 409, 'height': 409, 'widthPercent': 0.45, 'rescaleHeight': False, 'trialN': 15, 'loaded': True, 'loadedTime': 2254, 'positionName': 'RIGHT', 'positionCoords': [998.4, 335.5], 'bid': 5.01}]",27594.200000047684,1669840926752,yogurt no spoon,ice cream sundae 002,5.04,5.01,-0.03000000000000025,yogurt no spoon,1249.2999999523163,1250,1249.6000001430511,True,u,29361.300000190735,1767.1000001430511,1669840928519,1767,HRV,HRV_0281,2022-11-30 20:49:33
16,"[{'imgObject': {}, 'id': 'edamame', 'src': '/static/foodstim60/edamame.jpg', 'key': 'u', 'origWidth': 409, 'origHeight': 410, 'width': 409, 'height': 410, 'widthPercent': 0.45, 'rescaleHeight': False, 'trialN': 16, 'loaded': True, 'loadedTime': 2265.7000000476837, 'positionName': 'LEFT', 'positionCoords': [512.6, 335], 'bid': 0.18}, {'imgObject': {}, 'id': 'olives', 'src': '/static/foodstim60/olives.jpg', 'key': 'i', 'origWidth': 410, 'origHeight': 410, 'width': 410, 'height': 410, 'widthPercent': 0.45, 'rescaleHeight': False, 'trialN': 16, 'loaded': True, 'loadedTime': 2363.9000000953674, 'positionName': 'RIGHT', 'positionCoords': [998.4, 335], 'bid': 0.18}]",29361.400000095367,1669840928519,edamame,olives,0.18,0.18,0.0,edamame,1050.0999999046326,1051,1050.2999999523163,True,u,30918.200000047684,1556.7999999523163,1669840930076,1557,HRV,HRV_0281,2022-11-30 20:49:33
17,"[{'imgObject': {}, 'id': 'seaweed', 'src': '/static/foodstim60/seaweed.jpg', 'key': 'u', 'origWidth': 410, 'origHeight': 410, 'width': 410, 'height': 410, 'widthPercent': 0.45, 'rescaleHeight': False, 'trialN': 17, 'loaded': True, 'loadedTime': 2196.2000000476837, 'positionName': 'LEFT', 'positionCoords': [511.6, 335], 'bid': 0.1}, {'imgObject': {}, 'id': 'mac & cheese', 'src': '/static/foodstim60/mac & cheese.jpg', 'key': 'i', 'origWidth': 410, 'origHeight': 410, 'width': 410, 'height': 410, 'widthPercent': 0.45, 'rescaleHeight': False, 'trialN': 17, 'loaded': True, 'loadedTime': 2368, 'positionName': 'RIGHT', 'positionCoords': [998.4, 335], 'bid': 0.22}]",30918.400000095367,1669840930076,seaweed,mac & cheese,0.1,0.22,0.12,mac & cheese,1413.2999999523163,1413,1413.5,True,i,32837.40000009537,1919.0,1669840931995,1919,HRV,HRV_0281,2022-11-30 20:49:33
18,"[{'imgObject': {}, 'id': 'chickenfingers', 'src': '/static/foodstim60/chickenfingers.jpg', 'key': 'u', 'origWidth': 410, 'origHeight': 410, 'width': 410, 'height': 410, 'widthPercent': 0.45, 'rescaleHeight': False, 'trialN': 18, 'loaded': True, 'loadedTime': 2292.5, 'positionName': 'LEFT', 'positionCoords': [511.6, 335], 'bid': 9.91}, {'imgObject': {}, 'id': 'orange slices', 'src': '/static/foodstim60/orange slices.jpg', 'key': 'i', 'origWidth': 409, 'origHeight': 410, 'width': 409, 'height': 410, 'widthPercent': 0.45, 'rescaleHeight': False, 'trialN': 18, 'loaded': True, 'loadedTime': 2368.100000143051, 'positionName': 'RIGHT', 'positionCoords': [998.4, 335], 'bid': 7.56}]",32837.700000047684,1669840931995,chickenfingers,orange slices,9.91,7.56,-2.3500000000000005,chickenfingers,918.0,918,918.2999999523163,True,u,34259.60000014305,1421.9000000953674,1669840933417,1422,HRV,HRV_0281,2022-11-30 20:49:33
19,"[{'imgObject': {}, 'id': 'froot loops w milk', 'src': '/static/foodstim60/froot loops w milk.jpg', 'key': 'u', 'origWidth': 410, 'origHeight': 410, 'width': 410, 'height': 410, 'widthPercent': 0.45, 'rescaleHeight': False, 'trialN': 19, 'loaded': True, 'loadedTime': 2316, 'positionName': 'LEFT', 'positionCoords': [511.6, 335], 'bid': 9.72}, {'imgObject': {}, 'id': 'turkey sandwich', 'src': '/static/foodstim60/turkey sandwich.jpg', 'key': 'i', 'origWidth': 409, 'origHeight': 409, 'width': 409, 'height': 409, 'widthPercent': 0.45, 'rescaleHeight': False, 'trialN': 19, 'loaded': True, 'loadedTime': 2375.600000143051, 'positionName': 'RIGHT', 'positionCoords': [998.4, 335.5], 'bid': 0.32}]",34259.800000190735,1669840933417,froot loops w milk,turkey sandwich,9.72,0.32,-9.4,froot loops w milk,760.0,760,760.2999999523163,True,u,35526.300000190735,1266.5,1669840934683,1266,HRV,HRV_0281,2022-11-30 20:49:33
20,"[{'imgObject': {}, 'id': 'popsicles', 'src': '/static/foodstim60/popsicles.jpg', 'key': 'u', 'origWidth': 410, 'origHeight': 410, 'width': 410, 'height': 410, 'widthPercent': 0.45, 'rescaleHeight': False, 'trialN': 20, 'loaded': True, 'loadedTime': 2538.2000000476837, 'positionName': 'LEFT', 'positionCoords': [511.6, 335], 'bid': 9.8}, {'imgObject': {}, 'id': 'fruitsalad', 'src': '/static/foodstim60/fruitsalad.jpg', 'key': 'i', 'origWidth': 410, 'origHeight': 410, 'width': 410, 'height': 410, 'widthPercent': 0.45, 'rescaleHeight': False, 'trialN': 20, 'loaded': True, 'loadedTime': 2267, 'positionName': 'RIGHT', 'positionCoords': [998.4, 335], 'bid': 0.36}]",35526.40000009537,1669840934683,popsicles,fruitsalad,9.8,0.36,-9.440000000000001,popsicles,917.5,918,917.7999999523163,True,u,36953.40000009537,1427.0,1669840936110,1427,HRV,HRV_0281,2022-11-30 20:49:33
21,"[{'imgObject': {}, 'id': 'granola w milk', 'src': '/static/foodstim60/granola w milk.jpg', 'key': 'u', 'origWidth': 410, 'origHeight': 410, 'width': 410, 'height': 410, 'widthPercent': 0.45, 'rescaleHeight': False, 'trialN': 21, 'loaded': True, 'loadedTime': 2392, 'positionName': 'LEFT', 'positionCoords': [511.6, 335], 'bid': 6.59}, {'imgObject': {}, 'id': 'roastedpotatoes', 'src': '/static/foodstim60/roastedpotatoes.jpg', 'key': 'i', 'origWidth': 409, 'origHeight': 410, 'width': 409, 'height': 410, 'widthPercent': 0.45, 'rescaleHeight': False, 'trialN': 21, 'loaded': True, 'loadedTime': 2237.300000190735, 'positionName': 'RIGHT', 'positionCoords': [998.4, 335], 'bid': 8.23}]",36953.5,1669840936111,granola w milk,roastedpotatoes,6.59,8.23,1.6400000000000006,granola w milk,1218.3000001907349,1218,1218.6000001430511,True,u,38680.700000047684,1727.2000000476837,1669840937838,1727,HRV,HRV_0281,2022-11-30 20:49:33
22,"[{'imgObject': {}, 'id': 'kiwi', 'src': '/static/foodstim60/kiwi.jpg', 'key': 'u', 'origWidth': 410, 'origHeight': 410, 'width': 410, 'height': 410, 'widthPercent': 0.45, 'rescaleHeight': False, 'trialN': 22, 'loaded': True, 'loadedTime': 2392, 'positionName': 'LEFT', 'positionCoords': [511.6, 335], 'bid': 0.27}, {'imgObject': {}, 'id': 'cantaloupe', 'src': '/static/foodstim60/cantaloupe.jpg', 'key': 'i', 'origWidth': 409, 'origHeight': 409, 'width': 409, 'height': 409, 'widthPercent': 0.45, 'rescaleHeight': False, 'trialN': 22, 'loaded': True, 'loadedTime': 2394.7000000476837, 'positionName': 'RIGHT', 'positionCoords': [998.4, 335.5], 'bid': 0.23}]",38680.800000190735,1669840937838,kiwi,cantaloupe,0.27,0.23,-0.04000000000000001,cantaloupe,1267.0999999046326,1267,1267.3999998569489,True,i,40458.10000014305,1777.2999999523163,1669840939615,1777,HRV,HRV_0281,2022-11-30 20:49:33
23,"[{'imgObject': {}, 'id': 'orange slices', 'src': '/static/foodstim60/orange slices.jpg', 'key': 'u', 'origWidth': 409, 'origHeight': 410, 'width': 409, 'height': 410, 'widthPercent': 0.45, 'rescaleHeight': False, 'trialN': 23, 'loaded': True, 'loadedTime': 2374.4000000953674, 'positionName': 'LEFT', 'positionCoords': [512.6, 335], 'bid': 7.56}, {'imgObject': {}, 'id': 'roastedpotatoes', 'src': '/static/foodstim60/roastedpotatoes.jpg', 'key': 'i', 'origWidth': 409, 'origHeight': 410, 'width': 409, 'height': 410, 'widthPercent': 0.45, 'rescaleHeight': False, 'trialN': 23, 'loaded': True, 'loadedTime': 2217.600000143051, 'positionName': 'RIGHT', 'positionCoords': [998.4, 335], 'bid': 8.23}]",40458.300000190735,1669840939615,orange slices,roastedpotatoes,7.56,8.23,0.6700000000000008,orange slices,802.0999999046326,803,802.5,True,u,41762.800000190735,1304.5,1669840940920,1305,HRV,HRV_0281,2022-11-30 20:49:33
24,"[{'imgObject': {}, 'id': 'turkeysandwich', 'src': '/static/foodstim60/turkeysandwich.jpg', 'key': 'u', 'origWidth': 409, 'origHeight': 409, 'width': 409, 'height': 409, 'widthPercent': 0.45, 'rescaleHeight': False, 'trialN': 24, 'loaded': True, 'loadedTime': 2259.7000000476837, 'positionName': 'LEFT', 'positionCoords': [512.6, 335.5], 'bid': 0.17}, {'imgObject': {}, 'id': 'salad w chicken', 'src': '/static/foodstim60/salad w chicken.jpg', 'key': 'i', 'origWidth': 411, 'origHeight': 411, 'width': 411, 'height': 411, 'widthPercent': 0.45, 'rescaleHeight': False, 'trialN': 24, 'loaded': True, 'loadedTime': 2402.300000190735, 'positionName': 'RIGHT', 'positionCoords': [998.4, 334.5], 'bid': 0.02}]",41763.0,1669840940920,turkeysandwich,salad w chicken,0.17,0.02,-0.15000000000000002,salad w chicken,1049.6000001430511,1050,1049.8000001907349,True,i,43328.0,1565.0,1669840942485,1565,HRV,HRV_0281,2022-11-30 20:49:33
25,"[{'imgObject': {}, 'id': 'eggs', 'src': '/static/foodstim60/eggs.jpg', 'key': 'u', 'origWidth': 409, 'origHeight': 409, 'width': 409, 'height': 409, 'widthPercent': 0.45, 'rescaleHeight': False, 'trialN': 25, 'loaded': True, 'loadedTime': 2267.2000000476837, 'positionName': 'LEFT', 'positionCoords': [512.6, 335.5], 'bid': 0.33}, {'imgObject': {}, 'id': 'mashed potato', 'src': '/static/foodstim60/mashed potato.jpg', 'key': 'i', 'origWidth': 409, 'origHeight': 409, 'width': 409, 'height': 409, 'widthPercent': 0.45, 'rescaleHeight': False, 'trialN': 25, 'loaded': True, 'loadedTime': 2261.4000000953674, 'positionName': 'RIGHT', 'positionCoords': [998.4, 335.5], 'bid': 0.32}]",43328.10000014305,1669840942485,eggs,mashed potato,0.33,0.32,-0.010000000000000009,mashed potato,1324.5999999046326,1325,1324.8999998569489,True,i,45157.300000190735,1829.2000000476837,1669840944314,1829,HRV,HRV_0281,2022-11-30 20:49:33
26,"[{'imgObject': {}, 'id': 'cherries', 'src': '/static/foodstim60/cherries.jpg', 'key': 'u', 'origWidth': 410, 'origHeight': 411, 'width': 410, 'height': 411, 'widthPercent': 0.45, 'rescaleHeight': False, 'trialN': 26, 'loaded': True, 'loadedTime': 2402.600000143051, 'positionName': 'LEFT', 'positionCoords': [511.6, 334.5], 'bid': 5.07}, {'imgObject': {}, 'id': 'avocado', 'src': '/static/foodstim60/avocado.jpg', 'key': 'i', 'origWidth': 409, 'origHeight': 409, 'width': 409, 'height': 409, 'widthPercent': 0.45, 'rescaleHeight': False, 'trialN': 26, 'loaded': True, 'loadedTime': 2423.5, 'positionName': 'RIGHT', 'positionCoords': [998.4, 335.5], 'bid': 6.38}]",45157.40000009537,1669840944314,cherries,avocado,5.07,6.38,1.3099999999999996,avocado,759.4000000953674,760,759.7999999523163,True,i,46440.10000014305,1282.7000000476837,1669840945597,1283,HRV,HRV_0281,2022-11-30 20:49:33
27,"[{'imgObject': {}, 'id': 'mashed potato', 'src': '/static/foodstim60/mashed potato.jpg', 'key': 'u', 'origWidth': 409, 'origHeight': 409, 'width': 409, 'height': 409, 'widthPercent': 0.45, 'rescaleHeight': False, 'trialN': 27, 'loaded': True, 'loadedTime': 2262.4000000953674, 'positionName': 'LEFT', 'positionCoords': [512.6, 335.5], 'bid': 0.32}, {'imgObject': {}, 'id': 'salmon', 'src': '/static/foodstim60/salmon.jpg', 'key': 'i', 'origWidth': 410, 'origHeight': 409, 'width': 410, 'height': 409, 'widthPercent': 0.45, 'rescaleHeight': False, 'trialN': 27, 'loaded': True, 'loadedTime': 2434.100000143051, 'positionName': 'RIGHT', 'positionCoords': [998.4, 335.5], 'bid': 0.32}]",46440.200000047684,1669840945597,mashed potato,salmon,0.32,0.32,0.0,mashed potato,1028.7000000476837,1029,1029.2000000476837,True,u,47982.200000047684,1542.0,1669840947139,1542,HRV,HRV_0281,2022-11-30 20:49:33
28,"[{'imgObject': {}, 'id': 'froot loops w milk', 'src': '/static/foodstim60/froot loops w milk.jpg', 'key': 'u', 'origWidth': 410, 'origHeight': 410, 'width': 410, 'height': 410, 'widthPercent': 0.45, 'rescaleHeight': False, 'trialN': 28, 'loaded': True, 'loadedTime': 2316.4000000953674, 'positionName': 'LEFT', 'positionCoords': [511.6, 335], 'bid': 9.72}, {'imgObject': {}, 'id': 'corn cob', 'src': '/static/foodstim60/corn cob.jpg', 'key': 'i', 'origWidth': 411, 'origHeight': 411, 'width': 411, 'height': 411, 'widthPercent': 0.45, 'rescaleHeight': False, 'trialN': 28, 'loaded': True, 'loadedTime': 2435.300000190735, 'positionName': 'RIGHT', 'positionCoords': [998.4, 334.5], 'bid': 9.65}]",47982.200000047684,1669840947139,froot loops w milk,corn cob,9.72,9.65,-0.07000000000000028,froot loops w milk,1150.9000000953674,1151,1151.2000000476837,True,u,49651.700000047684,1669.5,1669840948809,1670,HRV,HRV_0281,2022-11-30 20:49:33
29,"[{'imgObject': {}, 'id': 'kiwi', 'src': '/static/foodstim60/kiwi.jpg', 'key': 'u', 'origWidth': 410, 'origHeight': 410, 'width': 410, 'height': 410, 'widthPercent': 0.45, 'rescaleHeight': False, 'trialN': 29, 'loaded': True, 'loadedTime': 2393.100000143051, 'positionName': 'LEFT', 'positionCoords': [511.6, 335], 'bid': 0.27}, {'imgObject': {}, 'id': 'eggsalad', 'src': '/static/foodstim60/eggsalad.jpg', 'key': 'i', 'origWidth': 410, 'origHeight': 409, 'width': 410, 'height': 409, 'widthPercent': 0.45, 'rescaleHeight': False, 'trialN': 29, 'loaded': True, 'loadedTime': 2246.7000000476837, 'positionName': 'RIGHT', 'positionCoords': [998.4, 335.5], 'bid': 0.27}]",49651.90000009537,1669840948809,kiwi,eggsalad,0.27,0.27,0.0,kiwi,1209.4000000953674,1210,1209.7000000476837,True,u,51379.700000047684,1727.7999999523163,1669840950537,1728,HRV,HRV_0281,2022-11-30 20:49:33
30,"[{'imgObject': {}, 'id': 'veggieswithdip', 'src': '/static/foodstim60/veggieswithdip.jpg', 'key': 'u', 'origWidth': 409, 'origHeight': 409, 'width': 409, 'height': 409, 'widthPercent': 0.45, 'rescaleHeight': False, 'trialN': 30, 'loaded': True, 'loadedTime': 2460.5, 'positionName': 'LEFT', 'positionCoords': [512.6, 335.5], 'bid': 0.28}, {'imgObject': {}, 'id': 'sushi w_condiments', 'src': '/static/foodstim60/sushi w_condiments.jpg', 'key': 'i', 'origWidth': 410, 'origHeight': 410, 'width': 410, 'height': 410, 'widthPercent': 0.45, 'rescaleHeight': False, 'trialN': 30, 'loaded': True, 'loadedTime': 2461.800000190735, 'positionName': 'RIGHT', 'positionCoords': [998.4, 335], 'bid': 0.28}]",51380.0,1669840950537,veggieswithdip,sushi w_condiments,0.28,0.28,0.0,veggieswithdip,1081.5,1082,1081.7000000476837,True,u,52985.0,1605.0,1669840952142,1605,HRV,HRV_0281,2022-11-30 20:49:33
31,"[{'imgObject': {}, 'id': 'chicken nuggets2', 'src': '/static/foodstim60/chicken nuggets2.jpg', 'key': 'u', 'origWidth': 410, 'origHeight': 409, 'width': 410, 'height': 409, 'widthPercent': 0.45, 'rescaleHeight': False, 'trialN': 31, 'loaded': True, 'loadedTime': 2477.100000143051, 'positionName': 'LEFT', 'positionCoords': [511.6, 335.5], 'bid': 9.81}, {'imgObject': {}, 'id': 'corn cob', 'src': '/static/foodstim60/corn cob.jpg', 'key': 'i', 'origWidth': 411, 'origHeight': 411, 'width': 411, 'height': 411, 'widthPercent': 0.45, 'rescaleHeight': False, 'trialN': 31, 'loaded': True, 'loadedTime': 2446.9000000953674, 'positionName': 'RIGHT', 'positionCoords': [998.4, 334.5], 'bid': 9.65}]",52985.200000047684,1669840952142,chicken nuggets2,corn cob,9.81,9.65,-0.16000000000000014,chicken nuggets2,1380.7999999523163,1381,1381.0,True,u,54892.90000009537,1907.7000000476837,1669840954050,1908,HRV,HRV_0281,2022-11-30 20:49:33
32,"[{'imgObject': {}, 'id': 'sweetpotato', 'src': '/static/foodstim60/sweetpotato.jpg', 'key': 'u', 'origWidth': 410, 'origHeight': 410, 'width': 410, 'height': 410, 'widthPercent': 0.45, 'rescaleHeight': False, 'trialN': 32, 'loaded': True, 'loadedTime': 2249, 'positionName': 'LEFT', 'positionCoords': [511.6, 335], 'bid': 0.06}, {'imgObject': {}, 'id': 'cantaloupe', 'src': '/static/foodstim60/cantaloupe.jpg', 'key': 'i', 'origWidth': 409, 'origHeight': 409, 'width': 409, 'height': 409, 'widthPercent': 0.45, 'rescaleHeight': False, 'trialN': 32, 'loaded': True, 'loadedTime': 2394.600000143051, 'positionName': 'RIGHT', 'positionCoords': [998.4, 335.5], 'bid': 0.23}]",54893.10000014305,1669840954050,sweetpotato,cantaloupe,0.06,0.23,0.17,cantaloupe,1184.7000000476837,1185,1185.0,True,i,56599.300000190735,1706.2000000476837,1669840955756,1706,HRV,HRV_0281,2022-11-30 20:49:33
33,"[{'imgObject': {}, 'id': 'cheerios', 'src': '/static/foodstim60/cheerios.jpg', 'key': 'u', 'origWidth': 409, 'origHeight': 410, 'width': 409, 'height': 410, 'widthPercent': 0.45, 'rescaleHeight': False, 'trialN': 33, 'loaded': True, 'loadedTime': 2257.300000190735, 'positionName': 'LEFT', 'positionCoords': [512.6, 335], 'bid': 9.43}, {'imgObject': {}, 'id': 'popsicles', 'src': '/static/foodstim60/popsicles.jpg', 'key': 'i', 'origWidth': 410, 'origHeight': 410, 'width': 410, 'height': 410, 'widthPercent': 0.45, 'rescaleHeight': False, 'trialN': 33, 'loaded': True, 'loadedTime': 2539.7000000476837, 'positionName': 'RIGHT', 'positionCoords': [998.4, 335], 'bid': 9.8}]",56599.5,1669840955756,cheerios,popsicles,9.43,9.8,0.370000000000001,popsicles,1110.0,1111,1110.3000001907349,True,i,58223.200000047684,1623.7000000476837,1669840957380,1624,HRV,HRV_0281,2022-11-30 20:49:33
34,"[{'imgObject': {}, 'id': 'steak', 'src': '/static/foodstim60/steak.jpg', 'key': 'u', 'origWidth': 410, 'origHeight': 410, 'width': 410, 'height': 410, 'widthPercent': 0.45, 'rescaleHeight': False, 'trialN': 34, 'loaded': True, 'loadedTime': 2261.4000000953674, 'positionName': 'LEFT', 'positionCoords': [511.6, 335], 'bid': 5.07}, {'imgObject': {}, 'id': 'cheerios', 'src': '/static/foodstim60/cheerios.jpg', 'key': 'i', 'origWidth': 409, 'origHeight': 410, 'width': 409, 'height': 410, 'widthPercent': 0.45, 'rescaleHeight': False, 'trialN': 34, 'loaded': True, 'loadedTime': 2256.4000000953674, 'positionName': 'RIGHT', 'positionCoords': [998.4, 335], 'bid': 9.43}]",58223.300000190735,1669840957380,steak,cheerios,5.07,9.43,4.359999999999999,cheerios,894.2999999523163,895,894.5999999046326,True,i,59628.200000047684,1404.8999998569489,1669840958785,1405,HRV,HRV_0281,2022-11-30 20:49:33
35,"[{'imgObject': {}, 'id': 'fried eggs', 'src': '/static/foodstim60/fried eggs.jpg', 'key': 'u', 'origWidth': 410, 'origHeight': 410, 'width': 410, 'height': 410, 'widthPercent': 0.45, 'rescaleHeight': False, 'trialN': 35, 'loaded': True, 'loadedTime': 2477.800000190735, 'positionName': 'LEFT', 'positionCoords': [511.6, 335], 'bid': 0.22}, {'imgObject': {}, 'id': 'lox', 'src': '/static/foodstim60/lox.jpg', 'key': 'i', 'origWidth': 410, 'origHeight': 411, 'width': 410, 'height': 411, 'widthPercent': 0.45, 'rescaleHeight': False, 'trialN': 35, 'loaded': True, 'loadedTime': 2327.100000143051, 'positionName': 'RIGHT', 'positionCoords': [998.4, 334.5], 'bid': 0.22}]",59628.5,1669840958786,fried eggs,lox,0.22,0.22,0.0,fried eggs,2353.800000190735,2354,2354.100000143051,True,u,62501.300000190735,2872.800000190735,1669840961658,2872,HRV,HRV_0281,2022-11-30 20:49:33
36,"[{'imgObject': {}, 'id': 'strawberries', 'src': '/static/foodstim60/strawberries.jpg', 'key': 'u', 'origWidth': 410, 'origHeight': 410, 'width': 410, 'height': 410, 'widthPercent': 0.45, 'rescaleHeight': False, 'trialN': 36, 'loaded': True, 'loadedTime': 2262.600000143051, 'positionName': 'LEFT', 'positionCoords': [511.6, 335], 'bid': 5.0200000000000005}, {'imgObject': {}, 'id': 'yogurt no spoon', 'src': '/static/foodstim60/yogurt no spoon.jpg', 'key': 'i', 'origWidth': 411, 'origHeight': 410, 'width': 411, 'height': 410, 'widthPercent': 0.45, 'rescaleHeight': False, 'trialN': 36, 'loaded': True, 'loadedTime': 2362, 'positionName': 'RIGHT', 'positionCoords': [998.4, 335], 'bid': 5.04}]",62501.5,1669840961658,strawberries,yogurt no spoon,5.0200000000000005,5.04,0.019999999999999574,yogurt no spoon,825.0,826,825.3000001907349,True,i,63844.60000014305,1343.1000001430511,1669840963002,1344,HRV,HRV_0281,2022-11-30 20:49:33
37,"[{'imgObject': {}, 'id': 'avocado', 'src': '/static/foodstim60/avocado.jpg', 'key': 'u', 'origWidth': 409, 'origHeight': 409, 'width': 409, 'height': 409, 'widthPercent': 0.45, 'rescaleHeight': False, 'trialN': 37, 'loaded': True, 'loadedTime': 2423.600000143051, 'positionName': 'LEFT', 'positionCoords': [512.6, 335.5], 'bid': 6.38}, {'imgObject': {}, 'id': 'burger', 'src': '/static/foodstim60/burger.jpg', 'key': 'i', 'origWidth': 409, 'origHeight': 409, 'width': 409, 'height': 409, 'widthPercent': 0.45, 'rescaleHeight': False, 'trialN': 37, 'loaded': True, 'loadedTime': 2480.300000190735, 'positionName': 'RIGHT', 'positionCoords': [998.4, 335.5], 'bid': 4.92}]",63844.800000190735,1669840963002,avocado,burger,6.38,4.92,-1.46,avocado,1818.0999999046326,1818,1818.3999998569489,True,u,66183.30000019073,2338.5,1669840965340,2338,HRV,HRV_0281,2022-11-30 20:49:33
38,"[{'imgObject': {}, 'id': 'eggs', 'src': '/static/foodstim60/eggs.jpg', 'key': 'u', 'origWidth': 409, 'origHeight': 409, 'width': 409, 'height': 409, 'widthPercent': 0.45, 'rescaleHeight': False, 'trialN': 38, 'loaded': True, 'loadedTime': 2267.800000190735, 'positionName': 'LEFT', 'positionCoords': [512.6, 335.5], 'bid': 0.33}, {'imgObject': {}, 'id': 'rigatoni and sauce', 'src': '/static/foodstim60/rigatoni and sauce.jpg', 'key': 'i', 'origWidth': 410, 'origHeight': 411, 'width': 410, 'height': 411, 'widthPercent': 0.45, 'rescaleHeight': False, 'trialN': 38, 'loaded': True, 'loadedTime': 2481.7000000476837, 'positionName': 'RIGHT', 'positionCoords': [998.4, 334.5], 'bid': 9.77}]",66183.40000009537,1669840965341,eggs,rigatoni and sauce,0.33,9.77,9.44,rigatoni and sauce,711.4000000953674,711,711.7000000476837,True,i,67403.60000014305,1220.2000000476837,1669840966561,1220,HRV,HRV_0281,2022-11-30 20:49:33
39,"[{'imgObject': {}, 'id': 'chicken nuggets2', 'src': '/static/foodstim60/chicken nuggets2.jpg', 'key': 'u', 'origWidth': 410, 'origHeight': 409, 'width': 410, 'height': 409, 'widthPercent': 0.45, 'rescaleHeight': False, 'trialN': 39, 'loaded': True, 'loadedTime': 2476.5, 'positionName': 'LEFT', 'positionCoords': [511.6, 335.5], 'bid': 9.81}, {'imgObject': {}, 'id': 'chickenfingers', 'src': '/static/foodstim60/chickenfingers.jpg', 'key': 'i', 'origWidth': 410, 'origHeight': 410, 'width': 410, 'height': 410, 'widthPercent': 0.45, 'rescaleHeight': False, 'trialN': 39, 'loaded': True, 'loadedTime': 2304.2000000476837, 'positionName': 'RIGHT', 'positionCoords': [998.4, 335], 'bid': 9.91}]",67403.70000004768,1669840966561,chicken nuggets2,chickenfingers,9.81,9.91,0.09999999999999964,chickenfingers,1939.2999999523163,1939,1939.6000001430511,True,i,69862.20000004768,2458.5,1669840969019,2458,HRV,HRV_0281,2022-11-30 20:49:33
40,"[{'imgObject': {}, 'id': 'salad w chicken', 'src': '/static/foodstim60/salad w chicken.jpg', 'key': 'u', 'origWidth': 411, 'origHeight': 411, 'width': 411, 'height': 411, 'widthPercent': 0.45, 'rescaleHeight': False, 'trialN': 40, 'loaded': True, 'loadedTime': 2395.2000000476837, 'positionName': 'LEFT', 'positionCoords': [510.6, 334.5], 'bid': 0.02}, {'imgObject': {}, 'id': 'sweetpotato', 'src': '/static/foodstim60/sweetpotato.jpg', 'key': 'i', 'origWidth': 410, 'origHeight': 410, 'width': 410, 'height': 410, 'widthPercent': 0.45, 'rescaleHeight': False, 'trialN': 40, 'loaded': True, 'loadedTime': 2250.2000000476837, 'positionName': 'RIGHT', 'positionCoords': [998.4, 335], 'bid': 0.06}]",69862.30000019073,1669840969019,salad w chicken,sweetpotato,0.02,0.06,0.039999999999999994,sweetpotato,1945.0,1946,1945.3999998569489,True,i,72320.20000004768,2457.899999856949,1669840971477,2458,HRV,HRV_0281,2022-11-30 20:49:33
41,"[{'imgObject': {}, 'id': 'salmon', 'src': '/static/foodstim60/salmon.jpg', 'key': 'u', 'origWidth': 410, 'origHeight': 409, 'width': 410, 'height': 409, 'widthPercent': 0.45, 'rescaleHeight': False, 'trialN': 41, 'loaded': True, 'loadedTime': 2433.4000000953674, 'positionName': 'LEFT', 'positionCoords': [511.6, 335.5], 'bid': 0.32}, {'imgObject': {}, 'id': 'bagel plain', 'src': '/static/foodstim60/bagel plain.jpg', 'key': 'i', 'origWidth': 410, 'origHeight': 410, 'width': 410, 'height': 410, 'widthPercent': 0.45, 'rescaleHeight': False, 'trialN': 41, 'loaded': True, 'loadedTime': 2255.100000143051, 'positionName': 'RIGHT', 'positionCoords': [998.4, 335], 'bid': 4.96}]",72320.40000009537,1669840971477,salmon,bagel plain,0.32,4.96,4.64,bagel plain,847.0,848,847.2000000476837,True,i,73677.80000019073,1357.4000000953674,1669840972835,1358,HRV,HRV_0281,2022-11-30 20:49:33
42,"[{'imgObject': {}, 'id': 'rigatoni', 'src': '/static/foodstim60/rigatoni.jpg', 'key': 'u', 'origWidth': 411, 'origHeight': 411, 'width': 411, 'height': 411, 'widthPercent': 0.45, 'rescaleHeight': False, 'trialN': 42, 'loaded': True, 'loadedTime': 2258.600000143051, 'positionName': 'LEFT', 'positionCoords': [510.6, 334.5], 'bid': 9.4}, {'imgObject': {}, 'id': 'chickenfingers', 'src': '/static/foodstim60/chickenfingers.jpg', 'key': 'i', 'origWidth': 410, 'origHeight': 410, 'width': 410, 'height': 410, 'widthPercent': 0.45, 'rescaleHeight': False, 'trialN': 42, 'loaded': True, 'loadedTime': 2304.600000143051, 'positionName': 'RIGHT', 'positionCoords': [998.4, 335], 'bid': 9.91}]",73677.90000009537,1669840972835,rigatoni,chickenfingers,9.4,9.91,0.5099999999999998,chickenfingers,753.0,753,753.2999999523163,True,i,74941.10000014305,1263.2000000476837,1669840974098,1263,HRV,HRV_0281,2022-11-30 20:49:33
43,"[{'imgObject': {}, 'id': 'baked potato', 'src': '/static/foodstim60/baked potato.jpg', 'key': 'u', 'origWidth': 409, 'origHeight': 410, 'width': 409, 'height': 410, 'widthPercent': 0.45, 'rescaleHeight': False, 'trialN': 43, 'loaded': True, 'loadedTime': 2358.600000143051, 'positionName': 'LEFT', 'positionCoords': [512.6, 335], 'bid': 8.57}, {'imgObject': {}, 'id': 'raspberries', 'src': '/static/foodstim60/raspberries.jpg', 'key': 'i', 'origWidth': 411, 'origHeight': 411, 'width': 411, 'height': 411, 'widthPercent': 0.45, 'rescaleHeight': False, 'trialN': 43, 'loaded': True, 'loadedTime': 2489.300000190735, 'positionName': 'RIGHT', 'positionCoords': [998.4, 334.5], 'bid': 4.97}]",74941.20000004768,1669840974098,baked potato,raspberries,8.57,4.97,-3.6000000000000005,raspberries,1362.7000000476837,1363,1362.9000000953674,True,i,76812.70000004768,1871.5,1669840975970,1872,HRV,HRV_0281,2022-11-30 20:49:33
44,"[{'imgObject': {}, 'id': 'froot loops w milk', 'src': '/static/foodstim60/froot loops w milk.jpg', 'key': 'u', 'origWidth': 410, 'origHeight': 410, 'width': 410, 'height': 410, 'widthPercent': 0.45, 'rescaleHeight': False, 'trialN': 44, 'loaded': True, 'loadedTime': 2305.7000000476837, 'positionName': 'LEFT', 'positionCoords': [511.6, 335], 'bid': 9.72}, {'imgObject': {}, 'id': 'apple slices', 'src': '/static/foodstim60/apple slices.jpg', 'key': 'i', 'origWidth': 409, 'origHeight': 410, 'width': 409, 'height': 410, 'widthPercent': 0.45, 'rescaleHeight': False, 'trialN': 44, 'loaded': True, 'loadedTime': 2491, 'positionName': 'RIGHT', 'positionCoords': [998.4, 335], 'bid': 6.83}]",76812.80000019073,1669840975970,froot loops w milk,apple slices,9.72,6.83,-2.8900000000000006,froot loops w milk,1058.5,1059,1058.6999998092651,True,u,78385.10000014305,1572.2999999523163,1669840977542,1572,HRV,HRV_0281,2022-11-30 20:49:33
45,"[{'imgObject': {}, 'id': 'bagel plain', 'src': '/static/foodstim60/bagel plain.jpg', 'key': 'u', 'origWidth': 410, 'origHeight': 410, 'width': 410, 'height': 410, 'widthPercent': 0.45, 'rescaleHeight': False, 'trialN': 45, 'loaded': True, 'loadedTime': 2254.800000190735, 'positionName': 'LEFT', 'positionCoords': [511.6, 335], 'bid': 4.96}, {'imgObject': {}, 'id': 'roastedpotatoes', 'src': '/static/foodstim60/roastedpotatoes.jpg', 'key': 'i', 'origWidth': 409, 'origHeight': 410, 'width': 409, 'height': 410, 'widthPercent': 0.45, 'rescaleHeight': False, 'trialN': 45, 'loaded': True, 'loadedTime': 2227.2000000476837, 'positionName': 'RIGHT', 'positionCoords': [998.4, 335], 'bid': 8.23}]",78385.20000004768,1669840977542,bagel plain,roastedpotatoes,4.96,8.23,3.2700000000000005,roastedpotatoes,1342.7999999523163,1343,1343.0,True,i,80241.0,1855.7999999523163,1669840979398,1856,HRV,HRV_0281,2022-11-30 20:49:33
46,"[{'imgObject': {}, 'id': 'blackbeanswithrice', 'src': '/static/foodstim60/blackbeanswithrice.jpg', 'key': 'u', 'origWidth': 410, 'origHeight': 410, 'width': 410, 'height': 410, 'widthPercent': 0.45, 'rescaleHeight': False, 'trialN': 46, 'loaded': True, 'loadedTime': 2492.100000143051, 'positionName': 'LEFT', 'positionCoords': [511.6, 335], 'bid': 0.23}, {'imgObject': {}, 'id': 'mac & cheese', 'src': '/static/foodstim60/mac & cheese.jpg', 'key': 'i', 'origWidth': 410, 'origHeight': 410, 'width': 410, 'height': 410, 'widthPercent': 0.45, 'rescaleHeight': False, 'trialN': 46, 'loaded': True, 'loadedTime': 2367.800000190735, 'positionName': 'RIGHT', 'positionCoords': [998.4, 335], 'bid': 0.22}]",80241.20000004768,1669840979398,blackbeanswithrice,mac & cheese,0.23,0.22,-0.010000000000000009,mac & cheese,1342.6000001430511,1343,1342.7999999523163,True,i,82099.80000019073,1858.6000001430511,1669840981257,1859,HRV,HRV_0281,2022-11-30 20:49:33
47,"[{'imgObject': {}, 'id': 'grilled chicken strips', 'src': '/static/foodstim60/grilled chicken strips.jpg', 'key': 'u', 'origWidth': 410, 'origHeight': 411, 'width': 410, 'height': 411, 'widthPercent': 0.45, 'rescaleHeight': False, 'trialN': 47, 'loaded': True, 'loadedTime': 2504.300000190735, 'positionName': 'LEFT', 'positionCoords': [511.6, 334.5], 'bid': 8.19}, {'imgObject': {}, 'id': 'baked potato', 'src': '/static/foodstim60/baked potato.jpg', 'key': 'i', 'origWidth': 409, 'origHeight': 410, 'width': 409, 'height': 410, 'widthPercent': 0.45, 'rescaleHeight': False, 'trialN': 47, 'loaded': True, 'loadedTime': 2337.7000000476837, 'positionName': 'RIGHT', 'positionCoords': [998.4, 335], 'bid': 8.57}]",82100.0,1669840981257,grilled chicken strips,baked potato,8.19,8.57,0.3800000000000008,grilled chicken strips,1195.7000000476837,1196,1196.0,True,u,83807.90000009537,1707.9000000953674,1669840982965,1708,HRV,HRV_0281,2022-11-30 20:49:33
48,"[{'imgObject': {}, 'id': 'yogurt no spoon', 'src': '/static/foodstim60/yogurt no spoon.jpg', 'key': 'u', 'origWidth': 411, 'origHeight': 410, 'width': 411, 'height': 410, 'widthPercent': 0.45, 'rescaleHeight': False, 'trialN': 48, 'loaded': True, 'loadedTime': 2362.100000143051, 'positionName': 'LEFT', 'positionCoords': [510.6, 335], 'bid': 5.04}, {'imgObject': {}, 'id': 'pear', 'src': '/static/foodstim60/pear.jpg', 'key': 'i', 'origWidth': 411, 'origHeight': 410, 'width': 411, 'height': 410, 'widthPercent': 0.45, 'rescaleHeight': False, 'trialN': 48, 'loaded': True, 'loadedTime': 2277.7000000476837, 'positionName': 'RIGHT', 'positionCoords': [998.4, 335], 'bid': 9.43}]",83808.10000014305,1669840982965,yogurt no spoon,pear,5.04,9.43,4.39,pear,1407.8999998569489,1408,1408.2999999523163,True,i,85728.40000009537,1920.2999999523163,1669840984886,1921,HRV,HRV_0281,2022-11-30 20:49:33
49,"[{'imgObject': {}, 'id': 'pear', 'src': '/static/foodstim60/pear.jpg', 'key': 'u', 'origWidth': 411, 'origHeight': 410, 'width': 411, 'height': 410, 'widthPercent': 0.45, 'rescaleHeight': False, 'trialN': 49, 'loaded': True, 'loadedTime': 2278, 'positionName': 'LEFT', 'positionCoords': [510.6, 335], 'bid': 9.43}, {'imgObject': {}, 'id': 'hotdog w must', 'src': '/static/foodstim60/hotdog w must.jpg', 'key': 'i', 'origWidth': 409, 'origHeight': 409, 'width': 409, 'height': 409, 'widthPercent': 0.45, 'rescaleHeight': False, 'trialN': 49, 'loaded': True, 'loadedTime': 2256.300000190735, 'positionName': 'RIGHT', 'positionCoords': [998.4, 335.5], 'bid': 9.25}]",85728.70000004768,1669840984886,pear,hotdog w must,9.43,9.25,-0.17999999999999972,hotdog w must,1456.1000001430511,1456,1456.4000000953674,True,i,87705.5,1976.7999999523163,1669840986863,1977,HRV,HRV_0281,2022-11-30 20:49:33
50,"[{'imgObject': {}, 'id': 'sweetpotato', 'src': '/static/foodstim60/sweetpotato.jpg', 'key': 'u', 'origWidth': 410, 'origHeight': 410, 'width': 410, 'height': 410, 'widthPercent': 0.45, 'rescaleHeight': False, 'trialN': 50, 'loaded': True, 'loadedTime': 2249.800000190735, 'positionName': 'LEFT', 'positionCoords': [511.6, 335], 'bid': 0.06}, {'imgObject': {}, 'id': 'hashbrowns', 'src': '/static/foodstim60/hashbrowns.jpg', 'key': 'i', 'origWidth': 411, 'origHeight': 410, 'width': 411, 'height': 410, 'widthPercent': 0.45, 'rescaleHeight': False, 'trialN': 50, 'loaded': True, 'loadedTime': 2264.9000000953674, 'positionName': 'RIGHT', 'positionCoords': [998.4, 335], 'bid': 0.2}]",87705.70000004768,1669840986863,sweetpotato,hashbrowns,0.06,0.2,0.14,sweetpotato,1671.2000000476837,1671,1671.4000000953674,True,u,89890.90000009537,2185.2000000476837,1669840989048,2185,HRV,HRV_0281,2022-11-30 20:49:33
51,"[{'imgObject': {}, 'id': 'cherries', 'src': '/static/foodstim60/cherries.jpg', 'key': 'u', 'origWidth': 410, 'origHeight': 411, 'width': 410, 'height': 411, 'widthPercent': 0.45, 'rescaleHeight': False, 'trialN': 51, 'loaded': True, 'loadedTime': 2412.7000000476837, 'positionName': 'LEFT', 'positionCoords': [511.6, 334.5], 'bid': 5.07}, {'imgObject': {}, 'id': 'fruitsalad', 'src': '/static/foodstim60/fruitsalad.jpg', 'key': 'i', 'origWidth': 410, 'origHeight': 410, 'width': 410, 'height': 410, 'widthPercent': 0.45, 'rescaleHeight': False, 'trialN': 51, 'loaded': True, 'loadedTime': 2265.9000000953674, 'positionName': 'RIGHT', 'positionCoords': [998.4, 335], 'bid': 0.36}]",89891.10000014305,1669840989048,cherries,fruitsalad,5.07,0.36,-4.71,fruitsalad,893.8999998569489,894,894.0999999046326,True,i,91302.5,1411.3999998569489,1669840990460,1412,HRV,HRV_0281,2022-11-30 20:49:33
52,"[{'imgObject': {}, 'id': 'edamame', 'src': '/static/foodstim60/edamame.jpg', 'key': 'u', 'origWidth': 409, 'origHeight': 410, 'width': 409, 'height': 410, 'widthPercent': 0.45, 'rescaleHeight': False, 'trialN': 52, 'loaded': True, 'loadedTime': 2265.9000000953674, 'positionName': 'LEFT', 'positionCoords': [512.6, 335], 'bid': 0.18}, {'imgObject': {}, 'id': 'mashed potato', 'src': '/static/foodstim60/mashed potato.jpg', 'key': 'i', 'origWidth': 409, 'origHeight': 409, 'width': 409, 'height': 409, 'widthPercent': 0.45, 'rescaleHeight': False, 'trialN': 52, 'loaded': True, 'loadedTime': 2262.100000143051, 'positionName': 'RIGHT', 'positionCoords': [998.4, 335.5], 'bid': 0.32}]",91302.70000004768,1669840990460,edamame,mashed potato,0.18,0.32,0.14,edamame,1129.9000000953674,1120,1130.2000000476837,True,u,92940.30000019073,1637.6000001430511,1669840992088,1628,HRV,HRV_0281,2022-11-30 20:49:33
53,"[{'imgObject': {}, 'id': 'popsicles', 'src': '/static/foodstim60/popsicles.jpg', 'key': 'u', 'origWidth': 410, 'origHeight': 410, 'width': 410, 'height': 410, 'widthPercent': 0.45, 'rescaleHeight': False, 'trialN': 53, 'loaded': True, 'loadedTime': 2539.4000000953674, 'positionName': 'LEFT', 'positionCoords': [511.6, 335], 'bid': 9.8}, {'imgObject': {}, 'id': 'shreddedwheatwithmilk', 'src': '/static/foodstim60/shreddedwheatwithmilk.jpg', 'key': 'i', 'origWidth': 410, 'origHeight': 410, 'width': 410, 'height': 410, 'widthPercent': 0.45, 'rescaleHeight': False, 'trialN': 53, 'loaded': True, 'loadedTime': 2505.5, 'positionName': 'RIGHT', 'positionCoords': [998.4, 335], 'bid': 6.82}]",92940.40000009537,1669840992088,popsicles,shreddedwheatwithmilk,9.8,6.82,-2.9800000000000004,popsicles,836.7999999523163,837,837.0999999046326,True,u,94291.60000014305,1351.2000000476837,1669840993439,1351,HRV,HRV_0281,2022-11-30 20:49:33
54,"[{'imgObject': {}, 'id': 'orange slices', 'src': '/static/foodstim60/orange slices.jpg', 'key': 'u', 'origWidth': 409, 'origHeight': 410, 'width': 409, 'height': 410, 'widthPercent': 0.45, 'rescaleHeight': False, 'trialN': 54, 'loaded': True, 'loadedTime': 2374.5, 'positionName': 'LEFT', 'positionCoords': [512.6, 335], 'bid': 7.56}, {'imgObject': {}, 'id': 'lox', 'src': '/static/foodstim60/lox.jpg', 'key': 'i', 'origWidth': 410, 'origHeight': 411, 'width': 410, 'height': 411, 'widthPercent': 0.45, 'rescaleHeight': False, 'trialN': 54, 'loaded': True, 'loadedTime': 2327, 'positionName': 'RIGHT', 'positionCoords': [998.4, 334.5], 'bid': 0.22}]",94291.70000004768,1669840993439,orange slices,lox,7.56,0.22,-7.34,orange slices,1229.7999999523163,1230,1230.1000001430511,True,u,96037.10000014305,1745.4000000953674,1669840995184,1745,HRV,HRV_0281,2022-11-30 20:49:33
55,"[{'imgObject': {}, 'id': 'yogurt no spoon', 'src': '/static/foodstim60/yogurt no spoon.jpg', 'key': 'u', 'origWidth': 411, 'origHeight': 410, 'width': 411, 'height': 410, 'widthPercent': 0.45, 'rescaleHeight': False, 'trialN': 55, 'loaded': True, 'loadedTime': 2361.4000000953674, 'positionName': 'LEFT', 'positionCoords': [510.6, 335], 'bid': 5.04}, {'imgObject': {}, 'id': 'burger', 'src': '/static/foodstim60/burger.jpg', 'key': 'i', 'origWidth': 409, 'origHeight': 409, 'width': 409, 'height': 409, 'widthPercent': 0.45, 'rescaleHeight': False, 'trialN': 55, 'loaded': True, 'loadedTime': 2480.2000000476837, 'positionName': 'RIGHT', 'positionCoords': [998.4, 335.5], 'bid': 4.92}]",96037.30000019073,1669840995185,yogurt no spoon,burger,5.04,4.92,-0.1200000000000001,yogurt no spoon,1051.6999998092651,1052,1051.8999998569489,True,u,97605.80000019073,1568.5,1669840996753,1568,HRV,HRV_0281,2022-11-30 20:49:33
56,"[{'imgObject': {}, 'id': 'pear', 'src': '/static/foodstim60/pear.jpg', 'key': 'u', 'origWidth': 411, 'origHeight': 410, 'width': 411, 'height': 410, 'widthPercent': 0.45, 'rescaleHeight': False, 'trialN': 56, 'loaded': True, 'loadedTime': 2277.9000000953674, 'positionName': 'LEFT', 'positionCoords': [510.6, 335], 'bid': 9.43}, {'imgObject': {}, 'id': 'rigatoni and sauce', 'src': '/static/foodstim60/rigatoni and sauce.jpg', 'key': 'i', 'origWidth': 410, 'origHeight': 411, 'width': 410, 'height': 411, 'widthPercent': 0.45, 'rescaleHeight': False, 'trialN': 56, 'loaded': True, 'loadedTime': 2481.9000000953674, 'positionName': 'RIGHT', 'positionCoords': [998.4, 334.5], 'bid': 9.77}]",97605.90000009537,1669840996753,pear,rigatoni and sauce,9.43,9.77,0.33999999999999986,rigatoni and sauce,668.0,668,668.2999999523163,True,i,98792.0,1186.0999999046326,1669840997939,1186,HRV,HRV_0281,2022-11-30 20:49:33
57,"[{'imgObject': {}, 'id': 'raspberries', 'src': '/static/foodstim60/raspberries.jpg', 'key': 'u', 'origWidth': 411, 'origHeight': 411, 'width': 411, 'height': 411, 'widthPercent': 0.45, 'rescaleHeight': False, 'trialN': 57, 'loaded': True, 'loadedTime': 2489.600000143051, 'positionName': 'LEFT', 'positionCoords': [510.6, 334.5], 'bid': 4.97}, {'imgObject': {}, 'id': 'cocktailshrimp', 'src': '/static/foodstim60/cocktailshrimp.jpg', 'key': 'i', 'origWidth': 410, 'origHeight': 410, 'width': 410, 'height': 410, 'widthPercent': 0.45, 'rescaleHeight': False, 'trialN': 57, 'loaded': True, 'loadedTime': 2243.9000000953674, 'positionName': 'RIGHT', 'positionCoords': [998.4, 335], 'bid': 0.07}]",98792.10000014305,1669840997939,raspberries,cocktailshrimp,4.97,0.07,-4.8999999999999995,raspberries,937.2000000476837,938,937.3999998569489,True,u,100243.80000019073,1451.7000000476837,1669840999391,1452,HRV,HRV_0281,2022-11-30 20:49:33
58,"[{'imgObject': {}, 'id': 'olives', 'src': '/static/foodstim60/olives.jpg', 'key': 'u', 'origWidth': 410, 'origHeight': 410, 'width': 410, 'height': 410, 'widthPercent': 0.45, 'rescaleHeight': False, 'trialN': 58, 'loaded': True, 'loadedTime': 2364.5, 'positionName': 'LEFT', 'positionCoords': [511.6, 335], 'bid': 0.18}, {'imgObject': {}, 'id': 'kiwi', 'src': '/static/foodstim60/kiwi.jpg', 'key': 'i', 'origWidth': 410, 'origHeight': 410, 'width': 410, 'height': 410, 'widthPercent': 0.45, 'rescaleHeight': False, 'trialN': 58, 'loaded': True, 'loadedTime': 2393.300000190735, 'positionName': 'RIGHT', 'positionCoords': [998.4, 335], 'bid': 0.27}]",100244.0,1669840999391,olives,kiwi,0.18,0.27,0.09000000000000002,kiwi,1470.1000001430511,1471,1470.4000000953674,True,i,102220.5,1976.5,1669841001368,1977,HRV,HRV_0281,2022-11-30 20:49:33
59,"[{'imgObject': {}, 'id': 'turkey sandwich', 'src': '/static/foodstim60/turkey sandwich.jpg', 'key': 'u', 'origWidth': 409, 'origHeight': 409, 'width': 409, 'height': 409, 'widthPercent': 0.45, 'rescaleHeight': False, 'trialN': 59, 'loaded': True, 'loadedTime': 2375.600000143051, 'positionName': 'LEFT', 'positionCoords': [512.6, 335.5], 'bid': 0.32}, {'imgObject': {}, 'id': 'ice cream sundae 002', 'src': '/static/foodstim60/ice cream sundae 002.jpg', 'key': 'i', 'origWidth': 409, 'origHeight': 409, 'width': 409, 'height': 409, 'widthPercent': 0.45, 'rescaleHeight': False, 'trialN': 59, 'loaded': True, 'loadedTime': 2253.800000190735, 'positionName': 'RIGHT', 'positionCoords': [998.4, 335.5], 'bid': 5.01}]",102220.80000019073,1669841001368,turkey sandwich,ice cream sundae 002,0.32,5.01,4.6899999999999995,ice cream sundae 002,837.3999998569489,838,837.6999998092651,True,i,103577.10000014305,1356.2999999523163,1669841002724,1356,HRV,HRV_0281,2022-11-30 20:49:33
60,"[{'imgObject': {}, 'id': 'burrito', 'src': '/static/foodstim60/burrito.jpg', 'key': 'u', 'origWidth': 410, 'origHeight': 410, 'width': 410, 'height': 410, 'widthPercent': 0.45, 'rescaleHeight': False, 'trialN': 60, 'loaded': True, 'loadedTime': 2515.100000143051, 'positionName': 'LEFT', 'positionCoords': [511.6, 335], 'bid': 0.3}, {'imgObject': {}, 'id': 'turkey sandwich', 'src': '/static/foodstim60/turkey sandwich.jpg', 'key': 'i', 'origWidth': 409, 'origHeight': 409, 'width': 409, 'height': 409, 'widthPercent': 0.45, 'rescaleHeight': False, 'trialN': 60, 'loaded': True, 'loadedTime': 2388.300000190735, 'positionName': 'RIGHT', 'positionCoords': [998.4, 335.5], 'bid': 0.32}]",103577.40000009537,1669841002725,burrito,turkey sandwich,0.3,0.32,0.020000000000000018,turkey sandwich,1064.5,1064,1064.7999999523163,True,i,105166.60000014305,1589.2000000476837,1669841004314,1589,HRV,HRV_0281,2022-11-30 20:49:33
61,"[{'imgObject': {}, 'id': 'blueberries', 'src': '/static/foodstim60/blueberries.jpg', 'key': 'u', 'origWidth': 411, 'origHeight': 411, 'width': 411, 'height': 411, 'widthPercent': 0.45, 'rescaleHeight': False, 'trialN': 61, 'loaded': True, 'loadedTime': 2516.5, 'positionName': 'LEFT', 'positionCoords': [510.6, 334.5], 'bid': 4.95}, {'imgObject': {}, 'id': 'bagel plain', 'src': '/static/foodstim60/bagel plain.jpg', 'key': 'i', 'origWidth': 410, 'origHeight': 410, 'width': 410, 'height': 410, 'widthPercent': 0.45, 'rescaleHeight': False, 'trialN': 61, 'loaded': True, 'loadedTime': 2255, 'positionName': 'RIGHT', 'positionCoords': [998.4, 335], 'bid': 4.96}]",105166.80000019073,1669841004314,blueberries,bagel plain,4.95,4.96,0.009999999999999787,bagel plain,899.5999999046326,900,899.7999999523163,True,i,106572.90000009537,1406.0999999046326,1669841005720,1406,HRV,HRV_0281,2022-11-30 20:49:33
62,"[{'imgObject': {}, 'id': 'bagel and cc', 'src': '/static/foodstim60/bagel and cc.jpg', 'key': 'u', 'origWidth': 410, 'origHeight': 410, 'width': 410, 'height': 410, 'widthPercent': 0.45, 'rescaleHeight': False, 'trialN': 62, 'loaded': True, 'loadedTime': 2518.2000000476837, 'positionName': 'LEFT', 'positionCoords': [511.6, 335], 'bid': 4.87}, {'imgObject': {}, 'id': 'strawberries', 'src': '/static/foodstim60/strawberries.jpg', 'key': 'i', 'origWidth': 410, 'origHeight': 410, 'width': 410, 'height': 410, 'widthPercent': 0.45, 'rescaleHeight': False, 'trialN': 62, 'loaded': True, 'loadedTime': 2263.300000190735, 'positionName': 'RIGHT', 'positionCoords': [998.4, 335], 'bid': 5.0200000000000005}]",106573.10000014305,1669841005720,bagel and cc,strawberries,4.87,5.0200000000000005,0.15000000000000036,bagel and cc,1717.5,1718,1717.7000000476837,True,u,108810.0,2236.899999856949,1669841007957,2237,HRV,HRV_0281,2022-11-30 20:49:33
63,"[{'imgObject': {}, 'id': 'sushi w_condiments', 'src': '/static/foodstim60/sushi w_condiments.jpg', 'key': 'u', 'origWidth': 410, 'origHeight': 410, 'width': 410, 'height': 410, 'widthPercent': 0.45, 'rescaleHeight': False, 'trialN': 63, 'loaded': True, 'loadedTime': 2461.7000000476837, 'positionName': 'LEFT', 'positionCoords': [511.6, 335], 'bid': 0.28}, {'imgObject': {}, 'id': 'pear', 'src': '/static/foodstim60/pear.jpg', 'key': 'i', 'origWidth': 411, 'origHeight': 410, 'width': 411, 'height': 410, 'widthPercent': 0.45, 'rescaleHeight': False, 'trialN': 63, 'loaded': True, 'loadedTime': 2268.9000000953674, 'positionName': 'RIGHT', 'positionCoords': [998.4, 335], 'bid': 9.43}]",108810.20000004768,1669841007957,sushi w_condiments,pear,0.28,9.43,9.15,pear,808.7000000476837,809,809.0,True,i,110131.10000014305,1320.9000000953674,1669841009278,1321,HRV,HRV_0281,2022-11-30 20:49:33
64,"[{'imgObject': {}, 'id': 'blackbeanswithrice', 'src': '/static/foodstim60/blackbeanswithrice.jpg', 'key': 'u', 'origWidth': 410, 'origHeight': 410, 'width': 410, 'height': 410, 'widthPercent': 0.45, 'rescaleHeight': False, 'trialN': 64, 'loaded': True, 'loadedTime': 2491.300000190735, 'positionName': 'LEFT', 'positionCoords': [511.6, 335], 'bid': 0.23}, {'imgObject': {}, 'id': 'lox', 'src': '/static/foodstim60/lox.jpg', 'key': 'i', 'origWidth': 410, 'origHeight': 411, 'width': 410, 'height': 411, 'widthPercent': 0.45, 'rescaleHeight': False, 'trialN': 64, 'loaded': True, 'loadedTime': 2327.300000190735, 'positionName': 'RIGHT', 'positionCoords': [998.4, 334.5], 'bid': 0.22}]",110131.20000004768,1669841009278,blackbeanswithrice,lox,0.23,0.22,-0.010000000000000009,blackbeanswithrice,1407.7000000476837,1408,1408.0,True,u,112049.60000014305,1918.4000000953674,1669841011197,1919,HRV,HRV_0281,2022-11-30 20:49:33
65,"[{'imgObject': {}, 'id': 'grilled chicken strips', 'src': '/static/foodstim60/grilled chicken strips.jpg', 'key': 'u', 'origWidth': 410, 'origHeight': 411, 'width': 410, 'height': 411, 'widthPercent': 0.45, 'rescaleHeight': False, 'trialN': 65, 'loaded': True, 'loadedTime': 2503.100000143051, 'positionName': 'LEFT', 'positionCoords': [511.6, 334.5], 'bid': 8.19}, {'imgObject': {}, 'id': 'blueberries', 'src': '/static/foodstim60/blueberries.jpg', 'key': 'i', 'origWidth': 411, 'origHeight': 411, 'width': 411, 'height': 411, 'widthPercent': 0.45, 'rescaleHeight': False, 'trialN': 65, 'loaded': True, 'loadedTime': 2517.100000143051, 'positionName': 'RIGHT', 'positionCoords': [998.4, 334.5], 'bid': 4.95}]",112049.70000004768,1669841011197,grilled chicken strips,blueberries,8.19,4.95,-3.2399999999999993,grilled chicken strips,705.4000000953674,706,705.6000001430511,True,u,113269.40000009537,1219.7000000476837,1669841012417,1220,HRV,HRV_0281,2022-11-30 20:49:33
66,"[{'imgObject': {}, 'id': 'cantaloupe', 'src': '/static/foodstim60/cantaloupe.jpg', 'key': 'u', 'origWidth': 409, 'origHeight': 409, 'width': 409, 'height': 409, 'widthPercent': 0.45, 'rescaleHeight': False, 'trialN': 66, 'loaded': True, 'loadedTime': 2393.800000190735, 'positionName': 'LEFT', 'positionCoords': [512.6, 335.5], 'bid': 0.23}, {'imgObject': {}, 'id': 'cherry tomato', 'src': '/static/foodstim60/cherry tomato.jpg', 'key': 'i', 'origWidth': 410, 'origHeight': 410, 'width': 410, 'height': 410, 'widthPercent': 0.45, 'rescaleHeight': False, 'trialN': 66, 'loaded': True, 'loadedTime': 2519.100000143051, 'positionName': 'RIGHT', 'positionCoords': [998.4, 335], 'bid': 0.27}]",113269.60000014305,1669841012417,cantaloupe,cherry tomato,0.23,0.27,0.04000000000000001,cantaloupe,893.0,893,893.3999998569489,True,u,114674.5,1404.8999998569489,1669841013822,1405,HRV,HRV_0281,2022-11-30 20:49:33
67,"[{'imgObject': {}, 'id': 'raisin bran w milk', 'src': '/static/foodstim60/raisin bran w milk.jpg', 'key': 'u', 'origWidth': 411, 'origHeight': 411, 'width': 411, 'height': 411, 'widthPercent': 0.45, 'rescaleHeight': False, 'trialN': 67, 'loaded': True, 'loadedTime': 2531.800000190735, 'positionName': 'LEFT', 'positionCoords': [510.6, 334.5], 'bid': 5.67}, {'imgObject': {}, 'id': 'avocado', 'src': '/static/foodstim60/avocado.jpg', 'key': 'i', 'origWidth': 409, 'origHeight': 409, 'width': 409, 'height': 409, 'widthPercent': 0.45, 'rescaleHeight': False, 'trialN': 67, 'loaded': True, 'loadedTime': 2413.4000000953674, 'positionName': 'RIGHT', 'positionCoords': [998.4, 335.5], 'bid': 6.38}]",114674.70000004768,1669841013822,raisin bran w milk,avocado,5.67,6.38,0.71,avocado,1328.0,1328,1328.2999999523163,True,i,116508.10000014305,1833.4000000953674,1669841015655,1833,HRV,HRV_0281,2022-11-30 20:49:33
68,"[{'imgObject': {}, 'id': 'fried eggs', 'src': '/static/foodstim60/fried eggs.jpg', 'key': 'u', 'origWidth': 410, 'origHeight': 410, 'width': 410, 'height': 410, 'widthPercent': 0.45, 'rescaleHeight': False, 'trialN': 68, 'loaded': True, 'loadedTime': 2478, 'positionName': 'LEFT', 'positionCoords': [511.6, 335], 'bid': 0.22}, {'imgObject': {}, 'id': 'kiwi', 'src': '/static/foodstim60/kiwi.jpg', 'key': 'i', 'origWidth': 410, 'origHeight': 410, 'width': 410, 'height': 410, 'widthPercent': 0.45, 'rescaleHeight': False, 'trialN': 68, 'loaded': True, 'loadedTime': 2393.4000000953674, 'positionName': 'RIGHT', 'positionCoords': [998.4, 335], 'bid': 0.27}]",116508.20000004768,1669841015656,fried eggs,kiwi,0.22,0.27,0.05000000000000002,kiwi,934.6000001430511,934,934.9000000953674,True,i,117954.90000009537,1446.7000000476837,1669841017102,1446,HRV,HRV_0281,2022-11-30 20:49:33
69,"[{'imgObject': {}, 'id': 'Tribe humus pita', 'src': '/static/foodstim60/Tribe humus pita.jpg', 'key': 'u', 'origWidth': 411, 'origHeight': 411, 'width': 411, 'height': 411, 'widthPercent': 0.45, 'rescaleHeight': False, 'trialN': 69, 'loaded': True, 'loadedTime': 2533, 'positionName': 'LEFT', 'positionCoords': [510.6, 334.5], 'bid': 0.19}, {'imgObject': {}, 'id': 'salad w chicken', 'src': '/static/foodstim60/salad w chicken.jpg', 'key': 'i', 'origWidth': 411, 'origHeight': 411, 'width': 411, 'height': 411, 'widthPercent': 0.45, 'rescaleHeight': False, 'trialN': 69, 'loaded': True, 'loadedTime': 2402.300000190735, 'positionName': 'RIGHT', 'positionCoords': [998.4, 334.5], 'bid': 0.02}]",117955.0,1669841017102,Tribe humus pita,salad w chicken,0.19,0.02,-0.17,Tribe humus pita,1408.1000001430511,1409,1408.4000000953674,True,u,119873.30000019073,1918.3000001907349,1669841019021,1919,HRV,HRV_0281,2022-11-30 20:49:33
70,"[{'imgObject': {}, 'id': 'ice cream sundae 002', 'src': '/static/foodstim60/ice cream sundae 002.jpg', 'key': 'u', 'origWidth': 409, 'origHeight': 409, 'width': 409, 'height': 409, 'widthPercent': 0.45, 'rescaleHeight': False, 'trialN': 70, 'loaded': True, 'loadedTime': 2253.800000190735, 'positionName': 'LEFT', 'positionCoords': [512.6, 335.5], 'bid': 5.01}, {'imgObject': {}, 'id': 'seaweed', 'src': '/static/foodstim60/seaweed.jpg', 'key': 'i', 'origWidth': 410, 'origHeight': 410, 'width': 410, 'height': 410, 'widthPercent': 0.45, 'rescaleHeight': False, 'trialN': 70, 'loaded': True, 'loadedTime': 2185.4000000953674, 'positionName': 'RIGHT', 'positionCoords': [998.4, 335], 'bid': 0.1}]",119873.40000009537,1669841019021,ice cream sundae 002,seaweed,5.01,0.1,-4.91,ice cream sundae 002,882.5,883,882.9000000953674,True,u,121261.90000009537,1388.5,1669841020409,1388,HRV,HRV_0281,2022-11-30 20:49:33
71,"[{'imgObject': {}, 'id': 'bagel and cc', 'src': '/static/foodstim60/bagel and cc.jpg', 'key': 'u', 'origWidth': 410, 'origHeight': 410, 'width': 410, 'height': 410, 'widthPercent': 0.45, 'rescaleHeight': False, 'trialN': 71, 'loaded': True, 'loadedTime': 2518.300000190735, 'positionName': 'LEFT', 'positionCoords': [511.6, 335], 'bid': 4.87}, {'imgObject': {}, 'id': 'mac & cheese', 'src': '/static/foodstim60/mac & cheese.jpg', 'key': 'i', 'origWidth': 410, 'origHeight': 410, 'width': 410, 'height': 410, 'widthPercent': 0.45, 'rescaleHeight': False, 'trialN': 71, 'loaded': True, 'loadedTime': 2367.100000143051, 'positionName': 'RIGHT', 'positionCoords': [998.4, 335], 'bid': 0.22}]",121262.0,1669841020409,bagel and cc,mac & cheese,4.87,0.22,-4.65,mac & cheese,1109.2000000476837,1110,1109.5,True,i,122885.10000014305,1623.1000001430511,1669841022032,1623,HRV,HRV_0281,2022-11-30 20:49:33
72,"[{'imgObject': {}, 'id': 'cherry tomato', 'src': '/static/foodstim60/cherry tomato.jpg', 'key': 'u', 'origWidth': 410, 'origHeight': 410, 'width': 410, 'height': 410, 'widthPercent': 0.45, 'rescaleHeight': False, 'trialN': 72, 'loaded': True, 'loadedTime': 2519.2000000476837, 'positionName': 'LEFT', 'positionCoords': [511.6, 335], 'bid': 0.27}, {'imgObject': {}, 'id': 'turkey sandwich', 'src': '/static/foodstim60/turkey sandwich.jpg', 'key': 'i', 'origWidth': 409, 'origHeight': 409, 'width': 409, 'height': 409, 'widthPercent': 0.45, 'rescaleHeight': False, 'trialN': 72, 'loaded': True, 'loadedTime': 2385.7000000476837, 'positionName': 'RIGHT', 'positionCoords': [998.4, 335.5], 'bid': 0.32}]",122885.20000004768,1669841022032,cherry tomato,turkey sandwich,0.27,0.32,0.04999999999999999,cherry tomato,2030.9000000953674,2032,2031.2000000476837,True,u,125429.20000004768,2544.0,1669841024576,2544,HRV,HRV_0281,2022-11-30 20:49:33
73,"[{'imgObject': {}, 'id': 'roastedpotatoes', 'src': '/static/foodstim60/roastedpotatoes.jpg', 'key': 'u', 'origWidth': 409, 'origHeight': 410, 'width': 409, 'height': 410, 'widthPercent': 0.45, 'rescaleHeight': False, 'trialN': 73, 'loaded': True, 'loadedTime': 2218.600000143051, 'positionName': 'LEFT', 'positionCoords': [512.6, 335], 'bid': 8.23}, {'imgObject': {}, 'id': 'cantaloupe', 'src': '/static/foodstim60/cantaloupe.jpg', 'key': 'i', 'origWidth': 409, 'origHeight': 409, 'width': 409, 'height': 409, 'widthPercent': 0.45, 'rescaleHeight': False, 'trialN': 73, 'loaded': True, 'loadedTime': 2395.2000000476837, 'positionName': 'RIGHT', 'positionCoords': [998.4, 335.5], 'bid': 0.23}]",125429.30000019073,1669841024577,roastedpotatoes,cantaloupe,8.23,0.23,-8.0,cantaloupe,1134.3999998569489,1134,1134.5999999046326,True,i,127077.90000009537,1648.5999999046326,1669841026225,1648,HRV,HRV_0281,2022-11-30 20:49:33
74,"[{'imgObject': {}, 'id': 'veggieswithdip', 'src': '/static/foodstim60/veggieswithdip.jpg', 'key': 'u', 'origWidth': 409, 'origHeight': 409, 'width': 409, 'height': 409, 'widthPercent': 0.45, 'rescaleHeight': False, 'trialN': 74, 'loaded': True, 'loadedTime': 2460.9000000953674, 'positionName': 'LEFT', 'positionCoords': [512.6, 335.5], 'bid': 0.28}, {'imgObject': {}, 'id': 'bagel plain', 'src': '/static/foodstim60/bagel plain.jpg', 'key': 'i', 'origWidth': 410, 'origHeight': 410, 'width': 410, 'height': 410, 'widthPercent': 0.45, 'rescaleHeight': False, 'trialN': 74, 'loaded': True, 'loadedTime': 2254.100000143051, 'positionName': 'RIGHT', 'positionCoords': [998.4, 335], 'bid': 4.96}]",127078.0,1669841026225,veggieswithdip,bagel plain,0.28,4.96,4.68,bagel plain,653.9000000953674,655,654.3000001907349,True,i,128236.0,1158.0,1669841027383,1158,HRV,HRV_0281,2022-11-30 20:49:33
75,"[{'imgObject': {}, 'id': 'corn cob', 'src': '/static/foodstim60/corn cob.jpg', 'key': 'u', 'origWidth': 411, 'origHeight': 411, 'width': 411, 'height': 411, 'widthPercent': 0.45, 'rescaleHeight': False, 'trialN': 75, 'loaded': True, 'loadedTime': 2447.5, 'positionName': 'LEFT', 'positionCoords': [510.6, 334.5], 'bid': 9.65}, {'imgObject': {}, 'id': 'burrito', 'src': '/static/foodstim60/burrito.jpg', 'key': 'i', 'origWidth': 410, 'origHeight': 410, 'width': 410, 'height': 410, 'widthPercent': 0.45, 'rescaleHeight': False, 'trialN': 75, 'loaded': True, 'loadedTime': 2516.100000143051, 'positionName': 'RIGHT', 'positionCoords': [998.4, 335], 'bid': 0.3}]",128236.20000004768,1669841027383,corn cob,burrito,9.65,0.3,-9.35,corn cob,951.7999999523163,953,952.1000001430511,True,u,129704.20000004768,1468.0,1669841028851,1468,HRV,HRV_0281,2022-11-30 20:49:33
76,"[{'imgObject': {}, 'id': 'Tribe humus pita', 'src': '/static/foodstim60/Tribe humus pita.jpg', 'key': 'u', 'origWidth': 411, 'origHeight': 411, 'width': 411, 'height': 411, 'widthPercent': 0.45, 'rescaleHeight': False, 'trialN': 76, 'loaded': True, 'loadedTime': 2532.9000000953674, 'positionName': 'LEFT', 'positionCoords': [510.6, 334.5], 'bid': 0.19}, {'imgObject': {}, 'id': 'hashbrowns', 'src': '/static/foodstim60/hashbrowns.jpg', 'key': 'i', 'origWidth': 411, 'origHeight': 410, 'width': 411, 'height': 410, 'widthPercent': 0.45, 'rescaleHeight': False, 'trialN': 76, 'loaded': True, 'loadedTime': 2264.600000143051, 'positionName': 'RIGHT', 'positionCoords': [998.4, 335], 'bid': 0.2}]",129704.30000019073,1669841028852,Tribe humus pita,hashbrowns,0.19,0.2,0.010000000000000009,Tribe humus pita,1308.2999999523163,1308,1308.5999999046326,True,u,131520.20000004768,1815.8999998569489,1669841030667,1815,HRV,HRV_0281,2022-11-30 20:49:33
77,"[{'imgObject': {}, 'id': 'banana', 'src': '/static/foodstim60/banana.jpg', 'key': 'u', 'origWidth': 410, 'origHeight': 410, 'width': 410, 'height': 410, 'widthPercent': 0.45, 'rescaleHeight': False, 'trialN': 77, 'loaded': True, 'loadedTime': 2534.2000000476837, 'positionName': 'LEFT', 'positionCoords': [511.6, 335], 'bid': 9.76}, {'imgObject': {}, 'id': 'mashed potato', 'src': '/static/foodstim60/mashed potato.jpg', 'key': 'i', 'origWidth': 409, 'origHeight': 409, 'width': 409, 'height': 409, 'widthPercent': 0.45, 'rescaleHeight': False, 'trialN': 77, 'loaded': True, 'loadedTime': 2262.300000190735, 'positionName': 'RIGHT', 'positionCoords': [998.4, 335.5], 'bid': 0.32}]",131520.40000009537,1669841030668,banana,mashed potato,9.76,0.32,-9.44,banana,740.0,740,740.2000000476837,True,u,132771.90000009537,1251.5,1669841031919,1251,HRV,HRV_0281,2022-11-30 20:49:33
78,"[{'imgObject': {}, 'id': 'raisin bran w milk', 'src': '/static/foodstim60/raisin bran w milk.jpg', 'key': 'u', 'origWidth': 411, 'origHeight': 411, 'width': 411, 'height': 411, 'widthPercent': 0.45, 'rescaleHeight': False, 'trialN': 78, 'loaded': True, 'loadedTime': 2531.5, 'positionName': 'LEFT', 'positionCoords': [510.6, 334.5], 'bid': 5.67}, {'imgObject': {}, 'id': 'olives', 'src': '/static/foodstim60/olives.jpg', 'key': 'i', 'origWidth': 410, 'origHeight': 410, 'width': 410, 'height': 410, 'widthPercent': 0.45, 'rescaleHeight': False, 'trialN': 78, 'loaded': True, 'loadedTime': 2363.300000190735, 'positionName': 'RIGHT', 'positionCoords': [998.4, 335], 'bid': 0.18}]",132772.10000014305,1669841031919,raisin bran w milk,olives,5.67,0.18,-5.49,raisin bran w milk,1072.2999999523163,1073,1072.5,True,u,134353.20000004768,1581.0999999046326,1669841033500,1581,HRV,HRV_0281,2022-11-30 20:49:33
79,"[{'imgObject': {}, 'id': 'veggieswithdip', 'src': '/static/foodstim60/veggieswithdip.jpg', 'key': 'u', 'origWidth': 409, 'origHeight': 409, 'width': 409, 'height': 409, 'widthPercent': 0.45, 'rescaleHeight': False, 'trialN': 79, 'loaded': True, 'loadedTime': 2460.9000000953674, 'positionName': 'LEFT', 'positionCoords': [512.6, 335.5], 'bid': 0.28}, {'imgObject': {}, 'id': 'cheerios', 'src': '/static/foodstim60/cheerios.jpg', 'key': 'i', 'origWidth': 409, 'origHeight': 410, 'width': 409, 'height': 410, 'widthPercent': 0.45, 'rescaleHeight': False, 'trialN': 79, 'loaded': True, 'loadedTime': 2257.100000143051, 'positionName': 'RIGHT', 'positionCoords': [998.4, 335], 'bid': 9.43}]",134353.30000019073,1669841033501,veggieswithdip,cheerios,0.28,9.43,9.15,cheerios,851.7999999523163,852,852.0,True,i,135717.80000019073,1364.5,1669841034865,1364,HRV,HRV_0281,2022-11-30 20:49:33
80,"[{'imgObject': {}, 'id': 'cocktailshrimp', 'src': '/static/foodstim60/cocktailshrimp.jpg', 'key': 'u', 'origWidth': 410, 'origHeight': 410, 'width': 410, 'height': 410, 'widthPercent': 0.45, 'rescaleHeight': False, 'trialN': 80, 'loaded': True, 'loadedTime': 2240.100000143051, 'positionName': 'LEFT', 'positionCoords': [511.6, 335], 'bid': 0.07}, {'imgObject': {}, 'id': 'cherry tomato', 'src': '/static/foodstim60/cherry tomato.jpg', 'key': 'i', 'origWidth': 410, 'origHeight': 410, 'width': 410, 'height': 410, 'widthPercent': 0.45, 'rescaleHeight': False, 'trialN': 80, 'loaded': True, 'loadedTime': 2519.100000143051, 'positionName': 'RIGHT', 'positionCoords': [998.4, 335], 'bid': 0.27}]",135717.90000009537,1669841034865,cocktailshrimp,cherry tomato,0.07,0.27,0.2,cherry tomato,1054.9000000953674,1055,1055.2000000476837,True,i,137297.40000009537,1579.5,1669841036445,1580,HRV,HRV_0281,2022-11-30 20:49:33
81,"[{'imgObject': {}, 'id': 'yogurt no spoon', 'src': '/static/foodstim60/yogurt no spoon.jpg', 'key': 'u', 'origWidth': 411, 'origHeight': 410, 'width': 411, 'height': 410, 'widthPercent': 0.45, 'rescaleHeight': False, 'trialN': 81, 'loaded': True, 'loadedTime': 2362.2000000476837, 'positionName': 'LEFT', 'positionCoords': [510.6, 335], 'bid': 5.04}, {'imgObject': {}, 'id': 'tacos', 'src': '/static/foodstim60/tacos.jpg', 'key': 'i', 'origWidth': 411, 'origHeight': 411, 'width': 411, 'height': 411, 'widthPercent': 0.45, 'rescaleHeight': False, 'trialN': 81, 'loaded': True, 'loadedTime': 2250.300000190735, 'positionName': 'RIGHT', 'positionCoords': [998.4, 334.5], 'bid': 0.14}]",137297.5,1669841036445,yogurt no spoon,tacos,5.04,0.14,-4.9,yogurt no spoon,1155.9000000953674,1156,1156.2000000476837,True,u,138970.90000009537,1673.4000000953674,1669841038118,1673,HRV,HRV_0281,2022-11-30 20:49:33
82,"[{'imgObject': {}, 'id': 'raspberries', 'src': '/static/foodstim60/raspberries.jpg', 'key': 'u', 'origWidth': 411, 'origHeight': 411, 'width': 411, 'height': 411, 'widthPercent': 0.45, 'rescaleHeight': False, 'trialN': 82, 'loaded': True, 'loadedTime': 2489.600000143051, 'positionName': 'LEFT', 'positionCoords': [510.6, 334.5], 'bid': 4.97}, {'imgObject': {}, 'id': 'strawberries', 'src': '/static/foodstim60/strawberries.jpg', 'key': 'i', 'origWidth': 410, 'origHeight': 410, 'width': 410, 'height': 410, 'widthPercent': 0.45, 'rescaleHeight': False, 'trialN': 82, 'loaded': True, 'loadedTime': 2263.5, 'positionName': 'RIGHT', 'positionCoords': [998.4, 335], 'bid': 5.0200000000000005}]",138971.0,1669841038118,raspberries,strawberries,4.97,5.0200000000000005,0.05000000000000071,strawberries,1770.2000000476837,1771,1770.4000000953674,True,i,141249.5,2278.5,1669841040397,2279,HRV,HRV_0281,2022-11-30 20:49:33
83,"[{'imgObject': {}, 'id': 'bagel and cc', 'src': '/static/foodstim60/bagel and cc.jpg', 'key': 'u', 'origWidth': 410, 'origHeight': 410, 'width': 410, 'height': 410, 'widthPercent': 0.45, 'rescaleHeight': False, 'trialN': 83, 'loaded': True, 'loadedTime': 2517.5, 'positionName': 'LEFT', 'positionCoords': [511.6, 335], 'bid': 4.87}, {'imgObject': {}, 'id': 'chicken nuggets2', 'src': '/static/foodstim60/chicken nuggets2.jpg', 'key': 'i', 'origWidth': 410, 'origHeight': 409, 'width': 410, 'height': 409, 'widthPercent': 0.45, 'rescaleHeight': False, 'trialN': 83, 'loaded': True, 'loadedTime': 2476.5, 'positionName': 'RIGHT', 'positionCoords': [998.4, 335.5], 'bid': 9.81}]",141249.60000014305,1669841040397,bagel and cc,chicken nuggets2,4.87,9.81,4.94,chicken nuggets2,1011.7999999523163,1012,1012.0999999046326,True,i,142773.5,1523.8999998569489,1669841041921,1524,HRV,HRV_0281,2022-11-30 20:49:33
84,"[{'imgObject': {}, 'id': 'omelette', 'src': '/static/foodstim60/omelette.jpg', 'key': 'u', 'origWidth': 410, 'origHeight': 409, 'width': 410, 'height': 409, 'widthPercent': 0.45, 'rescaleHeight': False, 'trialN': 84, 'loaded': True, 'loadedTime': 2252.7000000476837, 'positionName': 'LEFT', 'positionCoords': [511.6, 335.5], 'bid': 0.18}, {'imgObject': {}, 'id': 'tacos', 'src': '/static/foodstim60/tacos.jpg', 'key': 'i', 'origWidth': 411, 'origHeight': 411, 'width': 411, 'height': 411, 'widthPercent': 0.45, 'rescaleHeight': False, 'trialN': 84, 'loaded': True, 'loadedTime': 2251.7000000476837, 'positionName': 'RIGHT', 'positionCoords': [998.4, 334.5], 'bid': 0.14}]",142773.70000004768,1669841041921,omelette,tacos,0.18,0.14,-0.03999999999999998,omelette,1231.7000000476837,1232,1232.1000001430511,True,u,144517.0,1743.2999999523163,1669841043664,1743,HRV,HRV_0281,2022-11-30 20:49:33
85,"[{'imgObject': {}, 'id': 'rigatoni and sauce', 'src': '/static/foodstim60/rigatoni and sauce.jpg', 'key': 'u', 'origWidth': 410, 'origHeight': 411, 'width': 410, 'height': 411, 'widthPercent': 0.45, 'rescaleHeight': False, 'trialN': 85, 'loaded': True, 'loadedTime': 2481.5, 'positionName': 'LEFT', 'positionCoords': [511.6, 334.5], 'bid': 9.77}, {'imgObject': {}, 'id': 'Grapes', 'src': '/static/foodstim60/Grapes.jpg', 'key': 'i', 'origWidth': 411, 'origHeight': 411, 'width': 411, 'height': 411, 'widthPercent': 0.45, 'rescaleHeight': False, 'trialN': 85, 'loaded': True, 'loadedTime': 2535, 'positionName': 'RIGHT', 'positionCoords': [998.4, 334.5], 'bid': 6.72}]",144517.20000004768,1669841043664,rigatoni and sauce,Grapes,9.77,6.72,-3.05,rigatoni and sauce,784.9000000953674,786,785.2000000476837,True,u,145816.70000004768,1299.5,1669841044964,1300,HRV,HRV_0281,2022-11-30 20:49:33
86,"[{'imgObject': {}, 'id': 'sushi w_condiments', 'src': '/static/foodstim60/sushi w_condiments.jpg', 'key': 'u', 'origWidth': 410, 'origHeight': 410, 'width': 410, 'height': 410, 'widthPercent': 0.45, 'rescaleHeight': False, 'trialN': 86, 'loaded': True, 'loadedTime': 2471.2000000476837, 'positionName': 'LEFT', 'positionCoords': [511.6, 335], 'bid': 0.28}, {'imgObject': {}, 'id': 'blueberries', 'src': '/static/foodstim60/blueberries.jpg', 'key': 'i', 'origWidth': 411, 'origHeight': 411, 'width': 411, 'height': 411, 'widthPercent': 0.45, 'rescaleHeight': False, 'trialN': 86, 'loaded': True, 'loadedTime': 2517.2000000476837, 'positionName': 'RIGHT', 'positionCoords': [998.4, 334.5], 'bid': 4.95}]",145816.80000019073,1669841044964,sushi w_condiments,blueberries,0.28,4.95,4.67,blueberries,925.3999998569489,926,925.5999999046326,True,i,147253.20000004768,1436.3999998569489,1669841046400,1436,HRV,HRV_0281,2022-11-30 20:49:33
87,"[{'imgObject': {}, 'id': 'sweetpotato', 'src': '/static/foodstim60/sweetpotato.jpg', 'key': 'u', 'origWidth': 410, 'origHeight': 410, 'width': 410, 'height': 410, 'widthPercent': 0.45, 'rescaleHeight': False, 'trialN': 87, 'loaded': True, 'loadedTime': 2249.9000000953674, 'positionName': 'LEFT', 'positionCoords': [511.6, 335], 'bid': 0.06}, {'imgObject': {}, 'id': 'seaweed', 'src': '/static/foodstim60/seaweed.jpg', 'key': 'i', 'origWidth': 410, 'origHeight': 410, 'width': 410, 'height': 410, 'widthPercent': 0.45, 'rescaleHeight': False, 'trialN': 87, 'loaded': True, 'loadedTime': 2185.5, 'positionName': 'RIGHT', 'positionCoords': [998.4, 335], 'bid': 0.1}]",147253.40000009537,1669841046401,sweetpotato,seaweed,0.06,0.1,0.04000000000000001,sweetpotato,768.7999999523163,769,769.0999999046326,True,u,148530.5,1277.0999999046326,1669841047678,1277,HRV,HRV_0281,2022-11-30 20:49:33
88,"[{'imgObject': {}, 'id': 'steak', 'src': '/static/foodstim60/steak.jpg', 'key': 'u', 'origWidth': 410, 'origHeight': 410, 'width': 410, 'height': 410, 'widthPercent': 0.45, 'rescaleHeight': False, 'trialN': 88, 'loaded': True, 'loadedTime': 2260.800000190735, 'positionName': 'LEFT', 'positionCoords': [511.6, 335], 'bid': 5.07}, {'imgObject': {}, 'id': 'cherries', 'src': '/static/foodstim60/cherries.jpg', 'key': 'i', 'origWidth': 410, 'origHeight': 411, 'width': 410, 'height': 411, 'widthPercent': 0.45, 'rescaleHeight': False, 'trialN': 88, 'loaded': True, 'loadedTime': 2413.100000143051, 'positionName': 'RIGHT', 'positionCoords': [998.4, 334.5], 'bid': 5.07}]",148530.70000004768,1669841047678,steak,cherries,5.07,5.07,0.0,steak,707.7999999523163,708,708.1000001430511,True,u,149746.30000019073,1215.6000001430511,1669841048894,1216,HRV,HRV_0281,2022-11-30 20:49:33
89,"[{'imgObject': {}, 'id': 'cherries', 'src': '/static/foodstim60/cherries.jpg', 'key': 'u', 'origWidth': 410, 'origHeight': 411, 'width': 410, 'height': 411, 'widthPercent': 0.45, 'rescaleHeight': False, 'trialN': 89, 'loaded': True, 'loadedTime': 2413.300000190735, 'positionName': 'LEFT', 'positionCoords': [511.6, 334.5], 'bid': 5.07}, {'imgObject': {}, 'id': 'corn cob', 'src': '/static/foodstim60/corn cob.jpg', 'key': 'i', 'origWidth': 411, 'origHeight': 411, 'width': 411, 'height': 411, 'widthPercent': 0.45, 'rescaleHeight': False, 'trialN': 89, 'loaded': True, 'loadedTime': 2434.5, 'positionName': 'RIGHT', 'positionCoords': [998.4, 334.5], 'bid': 9.65}]",149746.5,1669841048894,cherries,corn cob,5.07,9.65,4.58,corn cob,995.5,995,995.7000000476837,True,i,151249.90000009537,1503.4000000953674,1669841050397,1503,HRV,HRV_0281,2022-11-30 20:49:33
90,"[{'imgObject': {}, 'id': 'steak', 'src': '/static/foodstim60/steak.jpg', 'key': 'u', 'origWidth': 410, 'origHeight': 410, 'width': 410, 'height': 410, 'widthPercent': 0.45, 'rescaleHeight': False, 'trialN': 90, 'loaded': True, 'loadedTime': 2260.100000143051, 'positionName': 'LEFT', 'positionCoords': [511.6, 335], 'bid': 5.07}, {'imgObject': {}, 'id': 'shreddedwheatwithmilk', 'src': '/static/foodstim60/shreddedwheatwithmilk.jpg', 'key': 'i', 'origWidth': 410, 'origHeight': 410, 'width': 410, 'height': 410, 'widthPercent': 0.45, 'rescaleHeight': False, 'trialN': 90, 'loaded': True, 'loadedTime': 2514.9000000953674, 'positionName': 'RIGHT', 'positionCoords': [998.4, 335], 'bid': 6.82}]",328395.5,1669841227553,steak,shreddedwheatwithmilk,5.07,6.82,1.75,steak,2539.100000143051,2539,2539.4000000953674,True,u,331461.40000009537,3065.9000000953674,1669841230619,3066,HRV,HRV_0281,2022-11-30 20:49:33
91,"[{'imgObject': {}, 'id': 'banana', 'src': '/static/foodstim60/banana.jpg', 'key': 'u', 'origWidth': 410, 'origHeight': 410, 'width': 410, 'height': 410, 'widthPercent': 0.45, 'rescaleHeight': False, 'trialN': 91, 'loaded': True, 'loadedTime': 2534.100000143051, 'positionName': 'LEFT', 'positionCoords': [511.6, 335], 'bid': 9.76}, {'imgObject': {}, 'id': 'hotdog w must', 'src': '/static/foodstim60/hotdog w must.jpg', 'key': 'i', 'origWidth': 409, 'origHeight': 409, 'width': 409, 'height': 409, 'widthPercent': 0.45, 'rescaleHeight': False, 'trialN': 91, 'loaded': True, 'loadedTime': 2256, 'positionName': 'RIGHT', 'positionCoords': [998.4, 335.5], 'bid': 9.25}]",331461.60000014305,1669841230619,banana,hotdog w must,9.76,9.25,-0.5099999999999998,banana,817.5,818,817.7999999523163,True,u,332798.40000009537,1336.7999999523163,1669841231956,1337,HRV,HRV_0281,2022-11-30 20:49:33
92,"[{'imgObject': {}, 'id': 'sushi w_condiments', 'src': '/static/foodstim60/sushi w_condiments.jpg', 'key': 'u', 'origWidth': 410, 'origHeight': 410, 'width': 410, 'height': 410, 'widthPercent': 0.45, 'rescaleHeight': False, 'trialN': 92, 'loaded': True, 'loadedTime': 2461.9000000953674, 'positionName': 'LEFT', 'positionCoords': [511.6, 335], 'bid': 0.28}, {'imgObject': {}, 'id': 'burrito', 'src': '/static/foodstim60/burrito.jpg', 'key': 'i', 'origWidth': 410, 'origHeight': 410, 'width': 410, 'height': 410, 'widthPercent': 0.45, 'rescaleHeight': False, 'trialN': 92, 'loaded': True, 'loadedTime': 2516.4000000953674, 'positionName': 'RIGHT', 'positionCoords': [998.4, 335], 'bid': 0.3}]",332798.60000014305,1669841231956,sushi w_condiments,burrito,0.28,0.3,0.019999999999999962,burrito,1224.7000000476837,1225,1225.0,True,i,334534.80000019073,1736.2000000476837,1669841233692,1736,HRV,HRV_0281,2022-11-30 20:49:33
93,"[{'imgObject': {}, 'id': 'froot loops w milk', 'src': '/static/foodstim60/froot loops w milk.jpg', 'key': 'u', 'origWidth': 410, 'origHeight': 410, 'width': 410, 'height': 410, 'widthPercent': 0.45, 'rescaleHeight': False, 'trialN': 93, 'loaded': True, 'loadedTime': 2316.600000143051, 'positionName': 'LEFT', 'positionCoords': [511.6, 335], 'bid': 9.72}, {'imgObject': {}, 'id': 'raisin bran w milk', 'src': '/static/foodstim60/raisin bran w milk.jpg', 'key': 'i', 'origWidth': 411, 'origHeight': 411, 'width': 411, 'height': 411, 'widthPercent': 0.45, 'rescaleHeight': False, 'trialN': 93, 'loaded': True, 'loadedTime': 2531.600000143051, 'positionName': 'RIGHT', 'positionCoords': [998.4, 334.5], 'bid': 5.67}]",334534.90000009537,1669841233692,froot loops w milk,raisin bran w milk,9.72,5.67,-4.050000000000001,froot loops w milk,912.5,913,912.9000000953674,True,u,335956.60000014305,1421.7000000476837,1669841235114,1422,HRV,HRV_0281,2022-11-30 20:49:33
94,"[{'imgObject': {}, 'id': 'grilled chicken strips', 'src': '/static/foodstim60/grilled chicken strips.jpg', 'key': 'u', 'origWidth': 410, 'origHeight': 411, 'width': 410, 'height': 411, 'widthPercent': 0.45, 'rescaleHeight': False, 'trialN': 94, 'loaded': True, 'loadedTime': 2504.5, 'positionName': 'LEFT', 'positionCoords': [511.6, 334.5], 'bid': 8.19}, {'imgObject': {}, 'id': 'orange slices', 'src': '/static/foodstim60/orange slices.jpg', 'key': 'i', 'origWidth': 409, 'origHeight': 410, 'width': 409, 'height': 410, 'widthPercent': 0.45, 'rescaleHeight': False, 'trialN': 94, 'loaded': True, 'loadedTime': 2374.100000143051, 'positionName': 'RIGHT', 'positionCoords': [998.4, 335], 'bid': 7.56}]",335956.80000019073,1669841235114,grilled chicken strips,orange slices,8.19,7.56,-0.6299999999999999,orange slices,930.2999999523163,931,930.5999999046326,True,i,337400.30000019073,1443.5,1669841236558,1444,HRV,HRV_0281,2022-11-30 20:49:33
95,"[{'imgObject': {}, 'id': 'shreddedwheatwithmilk', 'src': '/static/foodstim60/shreddedwheatwithmilk.jpg', 'key': 'u', 'origWidth': 410, 'origHeight': 410, 'width': 410, 'height': 410, 'widthPercent': 0.45, 'rescaleHeight': False, 'trialN': 95, 'loaded': True, 'loadedTime': 2504.800000190735, 'positionName': 'LEFT', 'positionCoords': [511.6, 335], 'bid': 6.82}, {'imgObject': {}, 'id': 'granola w milk', 'src': '/static/foodstim60/granola w milk.jpg', 'key': 'i', 'origWidth': 410, 'origHeight': 410, 'width': 410, 'height': 410, 'widthPercent': 0.45, 'rescaleHeight': False, 'trialN': 95, 'loaded': True, 'loadedTime': 2391, 'positionName': 'RIGHT', 'positionCoords': [998.4, 335], 'bid': 6.59}]",337400.5,1669841236558,shreddedwheatwithmilk,granola w milk,6.82,6.59,-0.23000000000000043,shreddedwheatwithmilk,1359.5,1360,1359.8000001907349,True,u,339267.7000000477,1867.2000000476837,1669841238425,1867,HRV,HRV_0281,2022-11-30 20:49:33
96,"[{'imgObject': {}, 'id': 'burrito', 'src': '/static/foodstim60/burrito.jpg', 'key': 'u', 'origWidth': 410, 'origHeight': 410, 'width': 410, 'height': 410, 'widthPercent': 0.45, 'rescaleHeight': False, 'trialN': 96, 'loaded': True, 'loadedTime': 2516.2000000476837, 'positionName': 'LEFT', 'positionCoords': [511.6, 335], 'bid': 0.3}, {'imgObject': {}, 'id': 'cantaloupe', 'src': '/static/foodstim60/cantaloupe.jpg', 'key': 'i', 'origWidth': 409, 'origHeight': 409, 'width': 409, 'height': 409, 'widthPercent': 0.45, 'rescaleHeight': False, 'trialN': 96, 'loaded': True, 'loadedTime': 2394.800000190735, 'positionName': 'RIGHT', 'positionCoords': [998.4, 335.5], 'bid': 0.23}]",339267.90000009537,1669841238425,burrito,cantaloupe,0.3,0.23,-0.06999999999999998,cantaloupe,1011.9000000953674,1013,1012.2999999523163,True,i,340796.2000000477,1528.2999999523163,1669841239954,1529,HRV,HRV_0281,2022-11-30 20:49:33
97,"[{'imgObject': {}, 'id': 'raisin bran w milk', 'src': '/static/foodstim60/raisin bran w milk.jpg', 'key': 'u', 'origWidth': 411, 'origHeight': 411, 'width': 411, 'height': 411, 'widthPercent': 0.45, 'rescaleHeight': False, 'trialN': 97, 'loaded': True, 'loadedTime': 2531.800000190735, 'positionName': 'LEFT', 'positionCoords': [510.6, 334.5], 'bid': 5.67}, {'imgObject': {}, 'id': 'orange slices', 'src': '/static/foodstim60/orange slices.jpg', 'key': 'i', 'origWidth': 409, 'origHeight': 410, 'width': 409, 'height': 410, 'widthPercent': 0.45, 'rescaleHeight': False, 'trialN': 97, 'loaded': True, 'loadedTime': 2368.800000190735, 'positionName': 'RIGHT', 'positionCoords': [998.4, 335], 'bid': 7.56}]",340796.40000009537,1669841239954,raisin bran w milk,orange slices,5.67,7.56,1.8899999999999997,orange slices,731.5999999046326,732,731.9000000953674,True,i,342037.80000019073,1241.4000000953674,1669841241195,1241,HRV,HRV_0281,2022-11-30 20:49:33
98,"[{'imgObject': {}, 'id': 'raspberries', 'src': '/static/foodstim60/raspberries.jpg', 'key': 'u', 'origWidth': 411, 'origHeight': 411, 'width': 411, 'height': 411, 'widthPercent': 0.45, 'rescaleHeight': False, 'trialN': 98, 'loaded': True, 'loadedTime': 2482.600000143051, 'positionName': 'LEFT', 'positionCoords': [510.6, 334.5], 'bid': 4.97}, {'imgObject': {}, 'id': 'burrito', 'src': '/static/foodstim60/burrito.jpg', 'key': 'i', 'origWidth': 410, 'origHeight': 410, 'width': 410, 'height': 410, 'widthPercent': 0.45, 'rescaleHeight': False, 'trialN': 98, 'loaded': True, 'loadedTime': 2516.4000000953674, 'positionName': 'RIGHT', 'positionCoords': [998.4, 335], 'bid': 0.3}]",342038.0,1669841241195,raspberries,burrito,4.97,0.3,-4.67,raspberries,754.1000001430511,755,754.3000001907349,True,u,343305.0,1267.0,1669841242462,1267,HRV,HRV_0281,2022-11-30 20:49:33
99,"[{'imgObject': {}, 'id': 'bagel and cc', 'src': '/static/foodstim60/bagel and cc.jpg', 'key': 'u', 'origWidth': 410, 'origHeight': 410, 'width': 410, 'height': 410, 'widthPercent': 0.45, 'rescaleHeight': False, 'trialN': 99, 'loaded': True, 'loadedTime': 2518.300000190735, 'positionName': 'LEFT', 'positionCoords': [511.6, 335], 'bid': 4.87}, {'imgObject': {}, 'id': 'burger', 'src': '/static/foodstim60/burger.jpg', 'key': 'i', 'origWidth': 409, 'origHeight': 409, 'width': 409, 'height': 409, 'widthPercent': 0.45, 'rescaleHeight': False, 'trialN': 99, 'loaded': True, 'loadedTime': 2479.4000000953674, 'positionName': 'RIGHT', 'positionCoords': [998.4, 335.5], 'bid': 4.92}]",343305.10000014305,1669841242463,bagel and cc,burger,4.87,4.92,0.04999999999999982,bagel and cc,958.5999999046326,959,958.8999998569489,True,u,344781.0,1475.8999998569489,1669841243938,1475,HRV,HRV_0281,2022-11-30 20:49:33
100,"[{'imgObject': {}, 'id': 'sushi w_condiments', 'src': '/static/foodstim60/sushi w_condiments.jpg', 'key': 'u', 'origWidth': 410, 'origHeight': 410, 'width': 410, 'height': 410, 'widthPercent': 0.45, 'rescaleHeight': False, 'trialN': 100, 'loaded': True, 'loadedTime': 2461.800000190735, 'positionName': 'LEFT', 'positionCoords': [511.6, 335], 'bid': 0.28}, {'imgObject': {}, 'id': 'lox', 'src': '/static/foodstim60/lox.jpg', 'key': 'i', 'origWidth': 410, 'origHeight': 411, 'width': 410, 'height': 411, 'widthPercent': 0.45, 'rescaleHeight': False, 'trialN': 100, 'loaded': True, 'loadedTime': 2336.300000190735, 'positionName': 'RIGHT', 'positionCoords': [998.4, 334.5], 'bid': 0.22}]",344781.2000000477,1669841243939,sushi w_condiments,lox,0.28,0.22,-0.060000000000000026,sushi w_condiments,2171.2000000476837,2171,2171.5,True,u,347472.0,2690.7999999523163,1669841246629,2690,HRV,HRV_0281,2022-11-30 20:49:33
101,"[{'imgObject': {}, 'id': 'hashbrowns', 'src': '/static/foodstim60/hashbrowns.jpg', 'key': 'u', 'origWidth': 411, 'origHeight': 410, 'width': 411, 'height': 410, 'widthPercent': 0.45, 'rescaleHeight': False, 'trialN': 101, 'loaded': True, 'loadedTime': 2263.7000000476837, 'positionName': 'LEFT', 'positionCoords': [510.6, 335], 'bid': 0.2}, {'imgObject': {}, 'id': 'Grapes', 'src': '/static/foodstim60/Grapes.jpg', 'key': 'i', 'origWidth': 411, 'origHeight': 411, 'width': 411, 'height': 411, 'widthPercent': 0.45, 'rescaleHeight': False, 'trialN': 101, 'loaded': True, 'loadedTime': 2535, 'positionName': 'RIGHT', 'positionCoords': [998.4, 334.5], 'bid': 6.72}]",347472.10000014305,1669841246630,hashbrowns,Grapes,0.2,6.72,6.52,Grapes,968.5,968,968.8999998569489,True,i,348948.10000014305,1476.0,1669841248106,1476,HRV,HRV_0281,2022-11-30 20:49:33
102,"[{'imgObject': {}, 'id': 'olives', 'src': '/static/foodstim60/olives.jpg', 'key': 'u', 'origWidth': 410, 'origHeight': 410, 'width': 410, 'height': 410, 'widthPercent': 0.45, 'rescaleHeight': False, 'trialN': 102, 'loaded': True, 'loadedTime': 2365, 'positionName': 'LEFT', 'positionCoords': [511.6, 335], 'bid': 0.18}, {'imgObject': {}, 'id': 'cocktailshrimp', 'src': '/static/foodstim60/cocktailshrimp.jpg', 'key': 'i', 'origWidth': 410, 'origHeight': 410, 'width': 410, 'height': 410, 'widthPercent': 0.45, 'rescaleHeight': False, 'trialN': 102, 'loaded': True, 'loadedTime': 2243.2000000476837, 'positionName': 'RIGHT', 'positionCoords': [998.4, 335], 'bid': 0.07}]",348948.2000000477,1669841248106,olives,cocktailshrimp,0.18,0.07,-0.10999999999999999,olives,1108.7999999523163,1109,1109.0,True,u,350568.60000014305,1620.4000000953674,1669841249726,1620,HRV,HRV_0281,2022-11-30 20:49:33
103,"[{'imgObject': {}, 'id': 'raisin bran w milk', 'src': '/static/foodstim60/raisin bran w milk.jpg', 'key': 'u', 'origWidth': 411, 'origHeight': 411, 'width': 411, 'height': 411, 'widthPercent': 0.45, 'rescaleHeight': False, 'trialN': 103, 'loaded': True, 'loadedTime': 2519.300000190735, 'positionName': 'LEFT', 'positionCoords': [510.6, 334.5], 'bid': 5.67}, {'imgObject': {}, 'id': 'steak', 'src': '/static/foodstim60/steak.jpg', 'key': 'i', 'origWidth': 410, 'origHeight': 410, 'width': 410, 'height': 410, 'widthPercent': 0.45, 'rescaleHeight': False, 'trialN': 103, 'loaded': True, 'loadedTime': 2260.9000000953674, 'positionName': 'RIGHT', 'positionCoords': [998.4, 335], 'bid': 5.07}]",350568.80000019073,1669841249726,raisin bran w milk,steak,5.67,5.07,-0.5999999999999996,raisin bran w milk,1616.1999998092651,1617,1616.5,True,u,352704.60000014305,2135.7999999523163,1669841251862,2136,HRV,HRV_0281,2022-11-30 20:49:33
104,"[{'imgObject': {}, 'id': 'rigatoni', 'src': '/static/foodstim60/rigatoni.jpg', 'key': 'u', 'origWidth': 411, 'origHeight': 411, 'width': 411, 'height': 411, 'widthPercent': 0.45, 'rescaleHeight': False, 'trialN': 104, 'loaded': True, 'loadedTime': 2258.800000190735, 'positionName': 'LEFT', 'positionCoords': [510.6, 334.5], 'bid': 9.4}, {'imgObject': {}, 'id': 'cheerios', 'src': '/static/foodstim60/cheerios.jpg', 'key': 'i', 'origWidth': 409, 'origHeight': 410, 'width': 409, 'height': 410, 'widthPercent': 0.45, 'rescaleHeight': False, 'trialN': 104, 'loaded': True, 'loadedTime': 2257.300000190735, 'positionName': 'RIGHT', 'positionCoords': [998.4, 335], 'bid': 9.43}]",352704.80000019073,1669841251862,rigatoni,cheerios,9.4,9.43,0.02999999999999936,rigatoni,1016.5,1017,1016.7999999523163,True,u,354226.80000019073,1522.0,1669841253384,1522,HRV,HRV_0281,2022-11-30 20:49:33
105,"[{'imgObject': {}, 'id': 'luckycharms', 'src': '/static/foodstim60/luckycharms.jpg', 'key': 'u', 'origWidth': 410, 'origHeight': 409, 'width': 410, 'height': 409, 'widthPercent': 0.45, 'rescaleHeight': False, 'trialN': 105, 'loaded': True, 'loadedTime': 2535.800000190735, 'positionName': 'LEFT', 'positionCoords': [511.6, 335.5], 'bid': 9.77}, {'imgObject': {}, 'id': 'froot loops w milk', 'src': '/static/foodstim60/froot loops w milk.jpg', 'key': 'i', 'origWidth': 410, 'origHeight': 410, 'width': 410, 'height': 410, 'widthPercent': 0.45, 'rescaleHeight': False, 'trialN': 105, 'loaded': True, 'loadedTime': 2304.800000190735, 'positionName': 'RIGHT', 'positionCoords': [998.4, 335], 'bid': 9.72}]",354227.0,1669841253384,luckycharms,froot loops w milk,9.77,9.72,-0.049999999999998934,froot loops w milk,2470.100000143051,2471,2470.4000000953674,True,i,357205.80000019073,2978.800000190735,1669841256363,2979,HRV,HRV_0281,2022-11-30 20:49:33
106,"[{'imgObject': {}, 'id': 'Tribe humus pita', 'src': '/static/foodstim60/Tribe humus pita.jpg', 'key': 'u', 'origWidth': 411, 'origHeight': 411, 'width': 411, 'height': 411, 'widthPercent': 0.45, 'rescaleHeight': False, 'trialN': 106, 'loaded': True, 'loadedTime': 2531.9000000953674, 'positionName': 'LEFT', 'positionCoords': [510.6, 334.5], 'bid': 0.19}, {'imgObject': {}, 'id': 'granola w milk', 'src': '/static/foodstim60/granola w milk.jpg', 'key': 'i', 'origWidth': 410, 'origHeight': 410, 'width': 410, 'height': 410, 'widthPercent': 0.45, 'rescaleHeight': False, 'trialN': 106, 'loaded': True, 'loadedTime': 2391.5, 'positionName': 'RIGHT', 'positionCoords': [998.4, 335], 'bid': 6.59}]",357205.90000009537,1669841256363,Tribe humus pita,granola w milk,0.19,6.59,6.3999999999999995,granola w milk,1075.2000000476837,1076,1075.5,True,i,358798.0,1592.0999999046326,1669841257955,1592,HRV,HRV_0281,2022-11-30 20:49:33
107,"[{'imgObject': {}, 'id': 'hashbrowns', 'src': '/static/foodstim60/hashbrowns.jpg', 'key': 'u', 'origWidth': 411, 'origHeight': 410, 'width': 411, 'height': 410, 'widthPercent': 0.45, 'rescaleHeight': False, 'trialN': 107, 'loaded': True, 'loadedTime': 2264.5, 'positionName': 'LEFT', 'positionCoords': [510.6, 335], 'bid': 0.2}, {'imgObject': {}, 'id': 'tacos', 'src': '/static/foodstim60/tacos.jpg', 'key': 'i', 'origWidth': 411, 'origHeight': 411, 'width': 411, 'height': 411, 'widthPercent': 0.45, 'rescaleHeight': False, 'trialN': 107, 'loaded': True, 'loadedTime': 2251.4000000953674, 'positionName': 'RIGHT', 'positionCoords': [998.4, 334.5], 'bid': 0.14}]",358798.2000000477,1669841257956,hashbrowns,tacos,0.2,0.14,-0.06,tacos,1259.4000000953674,1259,1259.7000000476837,True,i,360565.0,1766.7999999523163,1669841259722,1766,HRV,HRV_0281,2022-11-30 20:49:33
108,"[{'imgObject': {}, 'id': 'apple slices', 'src': '/static/foodstim60/apple slices.jpg', 'key': 'u', 'origWidth': 409, 'origHeight': 410, 'width': 409, 'height': 410, 'widthPercent': 0.45, 'rescaleHeight': False, 'trialN': 108, 'loaded': True, 'loadedTime': 2490.800000190735, 'positionName': 'LEFT', 'positionCoords': [512.6, 335], 'bid': 6.83}, {'imgObject': {}, 'id': 'mac & cheese', 'src': '/static/foodstim60/mac & cheese.jpg', 'key': 'i', 'origWidth': 410, 'origHeight': 410, 'width': 410, 'height': 410, 'widthPercent': 0.45, 'rescaleHeight': False, 'trialN': 108, 'loaded': True, 'loadedTime': 2365.100000143051, 'positionName': 'RIGHT', 'positionCoords': [998.4, 335], 'bid': 0.22}]",360565.10000014305,1669841259723,apple slices,mac & cheese,6.83,0.22,-6.61,apple slices,1396.8999998569489,1397,1397.0999999046326,True,u,362468.40000009537,1903.2999999523163,1669841261626,1903,HRV,HRV_0281,2022-11-30 20:49:33
