success,trial_type,trial_index,time_elapsed,internal_node_id,Block,TrialNumber,TrialTime,trialTimeDiff,FPS_avg,FPS_med,FPS_mode,TrialDur,winResizeTime,rt,block,button_pressed,MotCoh,MotDir,ColCoh,Color,ChoiceKey,Choice,Accuracy,RT,nFrames,FPS,PPD,missTrial,missTrialMsg,onsetDelay,fullScreenExitTime,canvCenter,TrialType,Score,BlockTrial,stimulus,button_labels,exp,subjectId,date
True,fullscreen,0,2124,0.0-0.0,0.0,1.0,,,,,,,,,,,,,,,,,,,,,,,,,,,,,,,,HRV,HRV_0126,2022-11-30 18:50:10
,wl-check-fps,1,7622,0.0-1.0,0.0,2.0,"[5866, 5884, 5899, 5917, 5925, 5943, 5974, 5985, 6004, 6035, 6042, 6066, 6078, 6096, 6108, 6127, 6143, 6159, 6179, 6193, 6208, 6226, 6242, 6260, 6284, 6292, 6315, 6326, 6349, 6362, 6378, 6392, 6409, 6425, 6448, 6459, 6477, 6495, 6508, 6530, 6541, 6559, 6579, 6593, 6609, 6627, 6641, 6661, 6675, 6691, 6717, 6729, 6747, 6758, 6780, 6795, 6957, 6977, 6998, 7048, 7079, 7095, 7123, 7153, 7183, 7192, 7212, 7226, 7246, 7259, 7277, 7302, 7314, 7337, 7344, 7365, 7376, 7395, 7411, 7427, 7442, 7460, 7475, 7492, 7508, 7526, 7558, 7569, 7595, 7615, 7628, 7645, 7658, 7675, 7691, 7709, 7725, 7742, 7765, 7778, 7800, 7813, 7831, 7842, 7866, 7877, 7895, 7911, 7926, 7942, 7959, 7975, 7992, 8009, 8037, 8053, 8060, 8079, 8098, 8114, 8126, 8142, 8159, 8176, 8192, 8209, 8237, 8243, 8264, 8275, 8299, 8310, 8328, 8342, 8358, 8375, 8392, 8409, 8427, 8441, 8459, 8495, 8509, 8525, 8549, 8559, 8581, 8592, 8613, 8625, 8642, 8658, 8675, 8692, 8709, 8725, 8742, 8764, 8775, 8796, 8812, 8845, 8866, 8877, 8897, 8920, 8934, 8950, 8964, 8981, 9000, 9018, 9028, 9042, 9058, 9075, 9091, 9108, 9124, 9141, 9165, 9175, 9196, 9208, 9228, 9241, 9258, 9274, 9294, 9318, 9332, 9352, 9362, 9381, 9391, 9412, 9424, 9445, 9463, 9475, 9490, 9508, 9526, 9541, 9567, 9578, 9598, 9611, 9632, 9641, 9760, 9777, 9792, 9813, 9829, 9878, 9889, 9902, 9912, 9927, 9941, 9965, 9977, 10019, 10031, 10045, 10063, 10077, 10092, 10108, 10129, 10149, 10161, 10182, 10196, 10208, 10224, 10240, 10260, 10280, 10293, 10313, 10325, 10347, 10358, 10376, 10392, 10407, 10426, 10441, 10459, 10475, 10501, 10529, 10545, 10561, 10579, 10613, 10630, 10641, 10663, 10677, 10692, 10712, 10732, 10745, 10758, 10775, 10792, 10808, 10825, 10846, 10859, 10879, 10892, 10910, 10925, 10942, 10958, 10976, 10991, 11008, 11025, 11042, 11064, 11076, 11095, 11108, 11129, 11141, 11159, 11175, 11194, 11217, 11238, 11252, 11282, 11297, 11313, 11326]","[14, 18, 15, 18, 8, 18, 31, 11, 19, 31, 7, 24, 12, 18, 12, 19, 16, 16, 20, 14, 15, 18, 16, 18, 24, 8, 23, 11, 23, 13, 16, 14, 17, 16, 23, 11, 18, 18, 13, 22, 11, 18, 20, 14, 16, 18, 14, 20, 14, 16, 26, 12, 18, 11, 22, 15, 162, 20, 21, 50, 31, 16, 28, 30, 30, 9, 20, 14, 20, 13, 18, 25, 12, 23, 7, 21, 11, 19, 16, 16, 15, 18, 15, 17, 16, 18, 32, 11, 26, 20, 13, 17, 13, 17, 16, 18, 16, 17, 23, 13, 22, 13, 18, 11, 24, 11, 18, 16, 15, 16, 17, 16, 17, 17, 28, 16, 7, 19, 19, 16, 12, 16, 17, 17, 16, 17, 28, 6, 21, 11, 24, 11, 18, 14, 16, 17, 17, 17, 18, 14, 18, 36, 14, 16, 24, 10, 22, 11, 21, 12, 17, 16, 17, 17, 17, 16, 17, 22, 11, 21, 16, 33, 21, 11, 20, 23, 14, 16, 14, 17, 19, 18, 10, 14, 16, 17, 16, 17, 16, 17, 24, 10, 21, 12, 20, 13, 17, 16, 20, 24, 14, 20, 10, 19, 10, 21, 12, 21, 18, 12, 15, 18, 18, 15, 26, 11, 20, 13, 21, 9, 119, 17, 15, 21, 16, 49, 11, 13, 10, 15, 14, 24, 12, 42, 12, 14, 18, 14, 15, 16, 21, 20, 12, 21, 14, 12, 16, 16, 20, 20, 13, 20, 12, 22, 11, 18, 16, 15, 19, 15, 18, 16, 26, 28, 16, 16, 18, 34, 17, 11, 22, 14, 15, 20, 20, 13, 13, 17, 17, 16, 17, 21, 13, 20, 13, 18, 15, 17, 16, 18, 15, 17, 17, 17, 22, 12, 19, 13, 21, 12, 18, 16, 19, 23, 21, 14, 30, 15, 16, 13]",55.0,69.0,63.0,5493.0,[],,,,,,,,,,,,,,,,,,,,,,,,,HRV,HRV_0126,2022-11-30 18:50:10
,wl-html-keyboard-response,2,34596,0.0-2.0-0.0,0.0,3.0,,,,,,,,24967.0,0.0,0,,,,,,,,,,,,,,,,,,,,,,HRV,HRV_0126,2022-11-30 18:50:10
,wl-rdm,3,47334,0.0-3.0-0.0,0.0,4.0,,,,,,,[],,,,0.0,0.0,87.9,0.0,u,0.0,True,2085.0,124.0,63.0,40.0,False,too_early ,3000.0,[],"[512, 384]",ColorTask_Demo,,,,,HRV,HRV_0126,2022-11-30 18:50:10
,wl-rdm,4,52615,0.0-3.0-1.0,0.0,5.0,,,,,,,[],,,,0.0,0.0,87.9,1.0,i,1.0,True,1204.0,72.0,63.0,40.0,False,,2000.0,[],"[512, 384]",ColorTask_Demo,,,,,HRV,HRV_0126,2022-11-30 18:50:10
,wl-html-keyboard-response,5,109940,0.0-3.0-2.0,0.0,6.0,,,,,,,,55319.0,0.0,1,,,,,,,,,,,,,,,,,,,,,,HRV,HRV_0126,2022-11-30 18:50:10
,wl-html-keyboard-response,6,127888,0.0-4.0-0.0,0.0,7.0,,,,,,,,15938.0,0.0,0,,,,,,,,,,,,,,,,,,,,,,HRV,HRV_0126,2022-11-30 18:50:10
,wl-html-keyboard-response,7,146541,0.0-5.0-0.0,0.0,8.0,,,,,,,,16647.0,0.0,0,,,,,,,,,,,,,,,,,,,,,,HRV,HRV_0126,2022-11-30 18:50:10
,wl-rdm,8,149315,0.0-6.0-0.0,0.0,9.0,,,,,,,[],,,,,,87.9,0.0,u,0.0,True,1371.0,76.0,63.0,40.0,False,,320.2319009203338,[],"[512, 384]",ColorTask,1.0,1.0,,,HRV,HRV_0126,2022-11-30 18:50:10
,wl-rdm,9,152504,0.0-6.1-0.1,0.0,10.0,,,,,,,[],,,,,,53.2,0.0,i,1.0,False,1706.0,97.0,63.0,40.0,False,,347.7216282590592,[],"[512, 384]",ColorTask,0.0,2.0,,,HRV,HRV_0126,2022-11-30 18:50:10
,wl-rdm,10,155112,0.0-6.2-0.2,0.0,11.0,,,,,,,[],,,,,,87.9,1.0,i,1.0,True,1211.0,55.0,63.0,40.0,False,,332.90334976795157,[],"[512, 384]",ColorTask,1.0,3.0,,,HRV,HRV_0126,2022-11-30 18:50:10
,wl-rdm,11,158262,0.0-6.3-0.3,0.0,12.0,,,,,,,[],,,,,,62.5,0.0,i,1.0,False,1770.0,99.0,63.0,40.0,False,,288.12111411804335,[],"[512, 384]",ColorTask,0.0,4.0,,,HRV,HRV_0126,2022-11-30 18:50:10
,wl-rdm,12,160914,0.0-6.4-0.4,0.0,13.0,,,,,,,[],,,,,,87.9,0.0,i,1.0,False,1352.0,79.0,63.0,40.0,False,,219.48854254649453,[],"[512, 384]",ColorTask,-1.0,5.0,,,HRV,HRV_0126,2022-11-30 18:50:10
,wl-rdm,13,163603,0.0-6.5-0.5,0.0,14.0,,,,,,,[],,,,,,73.6,0.0,u,0.0,True,1398.0,80.0,63.0,40.0,False,,202.60525658550964,[],"[512, 384]",ColorTask,0.0,6.0,,,HRV,HRV_0126,2022-11-30 18:50:10
,wl-rdm,14,166383,0.0-6.6-0.6,0.0,15.0,,,,,,,[],,,,,,62.5,0.0,i,1.0,False,1456.0,85.0,63.0,40.0,False,,252.98702193254917,[],"[512, 384]",ColorTask,-1.0,7.0,,,HRV,HRV_0126,2022-11-30 18:50:10
,wl-rdm,15,169153,0.0-6.7-0.7,0.0,16.0,,,,,,,[],,,,,,62.5,1.0,i,1.0,True,1313.0,79.0,63.0,40.0,False,,266.19810612344736,[],"[512, 384]",ColorTask,0.0,8.0,,,HRV,HRV_0126,2022-11-30 18:50:10
,wl-rdm,16,172412,0.0-6.8-0.8,0.0,17.0,,,,,,,[],,,,,,53.2,0.0,u,0.0,True,1830.0,101.0,63.0,40.0,False,,365.9534002664818,[],"[512, 384]",ColorTask,1.0,9.0,,,HRV,HRV_0126,2022-11-30 18:50:10
,wl-rdm,17,175413,0.0-6.9-0.9,0.0,18.0,,,,,,,[],,,,,,62.5,1.0,i,1.0,True,1531.0,82.0,63.0,40.0,False,,390.11667653950815,[],"[512, 384]",ColorTask,2.0,10.0,,,HRV,HRV_0126,2022-11-30 18:50:10
,wl-rdm,18,178381,0.0-6.10-0.10,0.0,19.0,,,,,,,[],,,,,,87.9,0.0,u,0.0,True,1627.0,89.0,63.0,40.0,False,,263.20104092264535,[],"[512, 384]",ColorTask,3.0,11.0,,,HRV,HRV_0126,2022-11-30 18:50:10
,wl-rdm,19,182021,0.0-6.11-0.11,0.0,20.0,,,,,,,[],,,,,,56.4,0.0,u,0.0,True,2159.0,117.0,63.0,40.0,False,,392.89213950333976,[],"[512, 384]",ColorTask,4.0,12.0,,,HRV,HRV_0126,2022-11-30 18:50:10
,wl-rdm,20,185145,0.0-6.12-0.12,0.0,21.0,,,,,,,[],,,,,,56.4,1.0,i,1.0,True,1762.0,93.0,63.0,40.0,False,,300.21631356210014,[],"[512, 384]",ColorTask,5.0,13.0,,,HRV,HRV_0126,2022-11-30 18:50:10
,wl-rdm,21,188844,0.0-6.13-0.13,0.0,22.0,,,,,,,[],,,,,,50.0,0.0,u,0.0,True,2409.0,134.0,63.0,40.0,False,,212.5549898355287,[],"[512, 384]",ColorTask,6.0,14.0,,,HRV,HRV_0126,2022-11-30 18:50:10
,wl-rdm,22,191867,0.0-6.14-0.14,0.0,23.0,,,,,,,[],,,,,,56.4,1.0,i,1.0,True,1750.0,105.0,63.0,40.0,False,,206.66129512048434,[],"[512, 384]",ColorTask,7.0,15.0,,,HRV,HRV_0126,2022-11-30 18:50:10
,wl-rdm,23,195013,0.0-6.15-0.15,0.0,24.0,,,,,,,[],,,,,,73.6,1.0,i,1.0,True,1761.0,99.0,63.0,40.0,False,,321.0607456358665,[],"[512, 384]",ColorTask,8.0,16.0,,,HRV,HRV_0126,2022-11-30 18:50:10
,wl-rdm,24,198012,0.0-6.16-0.16,0.0,25.0,,,,,,,[],,,,,,62.5,0.0,u,0.0,True,1523.0,80.0,63.0,40.0,False,,376.79263586541254,[],"[512, 384]",ColorTask,9.0,17.0,,,HRV,HRV_0126,2022-11-30 18:50:10
,wl-rdm,25,200878,0.0-6.17-0.17,0.0,26.0,,,,,,,[],,,,,,50.0,0.0,i,1.0,False,1411.0,85.0,63.0,40.0,False,,288.19560376991404,[],"[512, 384]",ColorTask,8.0,18.0,,,HRV,HRV_0126,2022-11-30 18:50:10
,wl-rdm,26,203571,0.0-6.18-0.18,0.0,27.0,,,,,,,[],,,,,,73.6,0.0,u,0.0,True,1305.0,70.0,63.0,40.0,False,,311.2454297591836,[],"[512, 384]",ColorTask,9.0,19.0,,,HRV,HRV_0126,2022-11-30 18:50:10
,wl-rdm,27,206411,0.0-6.19-0.19,0.0,28.0,,,,,,,[],,,,,,62.5,0.0,i,1.0,False,1509.0,78.0,63.0,40.0,False,,243.76674829594745,[],"[512, 384]",ColorTask,8.0,20.0,,,HRV,HRV_0126,2022-11-30 18:50:10
,wl-rdm,28,208998,0.0-6.20-0.20,0.0,29.0,,,,,,,[],,,,,,73.6,1.0,i,1.0,True,1116.0,63.0,63.0,40.0,False,,394.63113899780825,[],"[512, 384]",ColorTask,9.0,21.0,,,HRV,HRV_0126,2022-11-30 18:50:10
,wl-rdm,29,211478,0.0-6.21-0.21,0.0,30.0,,,,,,,[],,,,,,62.5,1.0,u,0.0,False,1110.0,59.0,63.0,40.0,False,,268.09817762315106,[],"[512, 384]",ColorTask,8.0,22.0,,,HRV,HRV_0126,2022-11-30 18:50:10
,wl-rdm,30,214136,0.0-6.22-0.22,0.0,31.0,,,,,,,[],,,,,,50.0,0.0,u,0.0,True,1351.0,77.0,63.0,40.0,False,,220.28305703753549,[],"[512, 384]",ColorTask,9.0,23.0,,,HRV,HRV_0126,2022-11-30 18:50:10
,wl-rdm,31,216986,0.0-6.23-0.23,0.0,32.0,,,,,,,[],,,,,,87.9,1.0,i,1.0,True,1509.0,86.0,63.0,40.0,False,,243.9539645605086,[],"[512, 384]",ColorTask,10.0,24.0,,,HRV,HRV_0126,2022-11-30 18:50:10
,wl-rdm,32,219648,0.0-6.24-0.24,0.0,33.0,,,,,,,[],,,,,,53.2,0.0,u,0.0,True,1269.0,73.0,63.0,40.0,False,,297.54993484527824,[],"[512, 384]",ColorTask,11.0,25.0,,,HRV,HRV_0126,2022-11-30 18:50:10
,wl-rdm,33,222228,0.0-6.25-0.25,0.0,34.0,,,,,,,[],,,,,,62.5,1.0,i,1.0,True,1122.0,53.0,63.0,40.0,False,,387.46938935745027,[],"[512, 384]",ColorTask,12.0,26.0,,,HRV,HRV_0126,2022-11-30 18:50:10
,wl-rdm,34,224994,0.0-6.26-0.26,0.0,35.0,,,,,,,[],,,,,,56.4,1.0,i,1.0,True,1369.0,80.0,63.0,40.0,False,,298.42191187497957,[],"[512, 384]",ColorTask,13.0,27.0,,,HRV,HRV_0126,2022-11-30 18:50:10
,wl-rdm,35,227532,0.0-6.27-0.27,0.0,36.0,,,,,,,[],,,,,,53.2,1.0,i,1.0,True,1043.0,62.0,63.0,40.0,False,,350.97312361958257,[],"[512, 384]",ColorTask,14.0,28.0,,,HRV,HRV_0126,2022-11-30 18:50:10
,wl-rdm,36,230610,0.0-6.28-0.28,0.0,37.0,,,,,,,[],,,,,,62.5,1.0,i,1.0,True,1710.0,90.0,63.0,40.0,False,,298.93367157886905,[],"[512, 384]",ColorTask,15.0,29.0,,,HRV,HRV_0126,2022-11-30 18:50:10
,wl-rdm,37,233248,0.0-6.29-0.29,0.0,38.0,,,,,,,[],,,,,,73.6,0.0,u,0.0,True,1296.0,76.0,63.0,40.0,False,,265.8723985410888,[],"[512, 384]",ColorTask,16.0,30.0,,,HRV,HRV_0126,2022-11-30 18:50:10
,wl-rdm,38,236160,0.0-6.30-0.30,0.0,39.0,,,,,,,[],,,,,,50.0,1.0,i,1.0,True,1604.0,68.0,63.0,40.0,False,,257.1096174051424,[],"[512, 384]",ColorTask,17.0,31.0,,,HRV,HRV_0126,2022-11-30 18:50:10
,wl-rdm,39,238717,0.0-6.31-0.31,0.0,40.0,,,,,,,[],,,,,,50.0,0.0,i,1.0,False,1242.0,65.0,63.0,40.0,False,,221.88249184656658,[],"[512, 384]",ColorTask,16.0,32.0,,,HRV,HRV_0126,2022-11-30 18:50:10
,wl-rdm,40,241309,0.0-6.32-0.32,0.0,41.0,,,,,,,[],,,,,,73.6,1.0,i,1.0,True,1254.0,75.0,63.0,40.0,False,,282.4808339347864,[],"[512, 384]",ColorTask,17.0,33.0,,,HRV,HRV_0126,2022-11-30 18:50:10
,wl-rdm,41,243893,0.0-6.33-0.33,0.0,42.0,,,,,,,[],,,,,,56.4,0.0,u,0.0,True,1142.0,57.0,63.0,40.0,False,,349.98004181981867,[],"[512, 384]",ColorTask,18.0,34.0,,,HRV,HRV_0126,2022-11-30 18:50:10
,wl-rdm,42,246551,0.0-6.34-0.34,0.0,43.0,,,,,,,[],,,,,,87.9,0.0,u,0.0,True,1250.0,68.0,63.0,40.0,False,,312.3123786380737,[],"[512, 384]",ColorTask,19.0,35.0,,,HRV,HRV_0126,2022-11-30 18:50:10
,wl-rdm,43,248980,0.0-6.35-0.35,0.0,44.0,,,,,,,[],,,,,,87.9,1.0,i,1.0,True,1064.0,62.0,63.0,40.0,False,,290.36628389585997,[],"[512, 384]",ColorTask,20.0,36.0,,,HRV,HRV_0126,2022-11-30 18:50:10
,wl-rdm,44,251425,0.0-6.36-0.36,0.0,45.0,,,,,,,[],,,,,,62.5,1.0,i,1.0,True,1139.0,61.0,63.0,40.0,False,,227.466821879996,[],"[512, 384]",ColorTask,21.0,37.0,,,HRV,HRV_0126,2022-11-30 18:50:10
,wl-rdm,45,254043,0.0-6.37-0.37,0.0,46.0,,,,,,,[],,,,,,53.2,1.0,i,1.0,True,1336.0,70.0,63.0,40.0,False,,205.19409768678125,[],"[512, 384]",ColorTask,22.0,38.0,,,HRV,HRV_0126,2022-11-30 18:50:10
,wl-rdm,46,256708,0.0-6.38-0.38,0.0,47.0,,,,,,,[],,,,,,62.5,0.0,u,0.0,True,1264.0,75.0,63.0,40.0,False,,333.67326122671136,[],"[512, 384]",ColorTask,23.0,39.0,,,HRV,HRV_0126,2022-11-30 18:50:10
,wl-rdm,47,259109,0.0-6.39-0.39,0.0,48.0,,,,,,,[],,,,,,53.2,1.0,u,0.0,False,976.0,59.0,63.0,40.0,False,,345.5908934860673,[],"[512, 384]",ColorTask,22.0,40.0,,,HRV,HRV_0126,2022-11-30 18:50:10
,wl-rdm,48,261510,0.0-6.40-0.40,0.0,49.0,,,,,,,[],,,,,,73.6,1.0,i,1.0,True,1069.0,61.0,63.0,40.0,False,,236.43395422264655,[],"[512, 384]",ColorTask,23.0,41.0,,,HRV,HRV_0126,2022-11-30 18:50:10
,wl-rdm,49,263976,0.0-6.41-0.41,0.0,50.0,,,,,,,[],,,,,,53.2,1.0,u,0.0,False,1178.0,56.0,63.0,40.0,False,,204.6366096132167,[],"[512, 384]",ColorTask,22.0,42.0,,,HRV,HRV_0126,2022-11-30 18:50:10
,wl-rdm,50,266392,0.0-6.42-0.42,0.0,51.0,,,,,,,[],,,,,,50.0,1.0,i,1.0,True,999.0,56.0,63.0,40.0,False,,335.4249682080014,[],"[512, 384]",ColorTask,23.0,43.0,,,HRV,HRV_0126,2022-11-30 18:50:10
,wl-rdm,51,269059,0.0-6.43-0.43,0.0,52.0,,,,,,,[],,,,,,87.9,1.0,i,1.0,True,1216.0,72.0,63.0,40.0,False,,272.6295153666391,[],"[512, 384]",ColorTask,24.0,44.0,,,HRV,HRV_0126,2022-11-30 18:50:10
,wl-rdm,52,271920,0.0-6.44-0.44,0.0,53.0,,,,,,,[],,,,,,53.2,0.0,u,0.0,True,1431.0,81.0,63.0,40.0,False,,232.1269469022718,[],"[512, 384]",ColorTask,25.0,45.0,,,HRV,HRV_0126,2022-11-30 18:50:10
,wl-rdm,53,274344,0.0-6.45-0.45,0.0,54.0,,,,,,,[],,,,,,56.4,1.0,i,1.0,True,1104.0,51.0,63.0,40.0,False,,249.79300793781007,[],"[512, 384]",ColorTask,26.0,46.0,,,HRV,HRV_0126,2022-11-30 18:50:10
,wl-rdm,54,276792,0.0-6.46-0.46,0.0,55.0,,,,,,,[],,,,,,50.0,1.0,u,0.0,False,1123.0,63.0,63.0,40.0,False,,254.4260288949307,[],"[512, 384]",ColorTask,25.0,47.0,,,HRV,HRV_0126,2022-11-30 18:50:10
,wl-rdm,55,279642,0.0-6.47-0.47,0.0,56.0,,,,,,,[],,,,,,53.2,0.0,u,0.0,True,1409.0,76.0,63.0,40.0,False,,368.01530650514934,[],"[512, 384]",ColorTask,26.0,48.0,,,HRV,HRV_0126,2022-11-30 18:50:10
,wl-rdm,56,282092,0.0-6.48-0.48,0.0,57.0,,,,,,,[],,,,,,56.4,0.0,i,1.0,False,1175.0,64.0,63.0,40.0,False,,200.6320789923516,[],"[512, 384]",ColorTask,25.0,49.0,,,HRV,HRV_0126,2022-11-30 18:50:10
,wl-rdm,57,284775,0.0-6.49-0.49,0.0,58.0,,,,,,,[],,,,,,50.0,1.0,u,0.0,False,1340.0,78.0,63.0,40.0,False,,214.9418605886412,[],"[512, 384]",ColorTask,24.0,50.0,,,HRV,HRV_0126,2022-11-30 18:50:10
,wl-rdm,58,287620,0.0-6.50-0.50,0.0,59.0,,,,,,,[],,,,,,53.2,1.0,i,1.0,True,1400.0,69.0,63.0,40.0,False,,359.8426247508101,[],"[512, 384]",ColorTask,25.0,51.0,,,HRV,HRV_0126,2022-11-30 18:50:10
,wl-rdm,59,289947,0.0-6.51-0.51,0.0,60.0,,,,,,,[],,,,,,87.9,1.0,i,1.0,True,965.0,52.0,63.0,40.0,False,,253.06244730433872,[],"[512, 384]",ColorTask,26.0,52.0,,,HRV,HRV_0126,2022-11-30 18:50:10
,wl-rdm,60,293007,0.0-6.52-0.52,0.0,61.0,,,,,,,[],,,,,,56.4,0.0,i,1.0,False,1665.0,77.0,63.0,40.0,False,,287.7006971908904,[],"[512, 384]",ColorTask,25.0,53.0,,,HRV,HRV_0126,2022-11-30 18:50:10
,wl-rdm,61,295942,0.0-6.53-0.53,0.0,62.0,,,,,,,[],,,,,,73.6,0.0,u,0.0,True,1509.0,65.0,63.0,40.0,False,,273.6785016007572,[],"[512, 384]",ColorTask,26.0,54.0,,,HRV,HRV_0126,2022-11-30 18:50:10
,wl-rdm,62,299191,0.0-6.54-0.54,0.0,63.0,,,,,,,[],,,,,,56.4,0.0,i,1.0,False,1943.0,100.0,63.0,40.0,False,,238.4171696226832,[],"[512, 384]",ColorTask,25.0,55.0,,,HRV,HRV_0126,2022-11-30 18:50:10
,wl-rdm,63,301747,0.0-6.55-0.55,0.0,64.0,,,,,,,[],,,,,,50.0,1.0,i,1.0,True,1219.0,61.0,63.0,40.0,False,,260.85383466802864,[],"[512, 384]",ColorTask,26.0,56.0,,,HRV,HRV_0126,2022-11-30 18:50:10
,wl-rdm,64,304607,0.0-6.56-0.56,0.0,65.0,,,,,,,[],,,,,,56.4,1.0,i,1.0,True,1455.0,69.0,63.0,40.0,False,,315.9333935212978,[],"[512, 384]",ColorTask,27.0,57.0,,,HRV,HRV_0126,2022-11-30 18:50:10
,wl-rdm,65,307099,0.0-6.57-0.57,0.0,66.0,,,,,,,[],,,,,,87.9,1.0,i,1.0,True,1199.0,59.0,63.0,40.0,False,,224.87825859852487,[],"[512, 384]",ColorTask,28.0,58.0,,,HRV,HRV_0126,2022-11-30 18:50:10
,wl-rdm,66,309941,0.0-6.58-0.58,0.0,67.0,,,,,,,[],,,,,,62.5,1.0,i,1.0,True,1501.0,77.0,63.0,40.0,False,,258.2035852190878,[],"[512, 384]",ColorTask,29.0,59.0,,,HRV,HRV_0126,2022-11-30 18:50:10
,wl-rdm,67,312307,0.0-6.59-0.59,0.0,68.0,,,,,,,[],,,,,,53.2,0.0,i,1.0,False,1057.0,63.0,63.0,40.0,False,,226.7679896803792,[],"[512, 384]",ColorTask,28.0,60.0,,,HRV,HRV_0126,2022-11-30 18:50:10
,wl-rdm,68,314684,0.0-6.60-0.60,0.0,69.0,,,,,,,[],,,,,,73.6,1.0,u,0.0,False,911.0,53.0,63.0,40.0,False,,342.39420580551496,[],"[512, 384]",ColorTask,27.0,61.0,,,HRV,HRV_0126,2022-11-30 18:50:10
,wl-rdm,69,316996,0.0-6.61-0.61,0.0,70.0,,,,,,,[],,,,,,50.0,0.0,i,1.0,False,840.0,50.0,63.0,40.0,False,,282.68476127422696,[],"[512, 384]",ColorTask,26.0,62.0,,,HRV,HRV_0126,2022-11-30 18:50:10
,wl-rdm,70,319607,0.0-6.62-0.62,0.0,71.0,,,,,,,[],,,,,,50.0,0.0,u,0.0,True,1318.0,76.0,63.0,40.0,False,,231.94430535993058,[],"[512, 384]",ColorTask,27.0,63.0,,,HRV,HRV_0126,2022-11-30 18:50:10
,wl-rdm,71,322641,0.0-6.63-0.63,0.0,72.0,,,,,,,[],,,,,,56.4,0.0,i,1.0,False,1754.0,95.0,63.0,40.0,False,,204.67423564921248,[],"[512, 384]",ColorTask,26.0,64.0,,,HRV,HRV_0126,2022-11-30 18:50:10
,wl-rdm,72,325830,0.0-6.64-0.64,0.0,73.0,,,,,,,[],,,,,,62.5,0.0,u,0.0,True,1725.0,95.0,63.0,40.0,False,,363.6331960810096,[],"[512, 384]",ColorTask,27.0,65.0,,,HRV,HRV_0126,2022-11-30 18:50:10
,wl-rdm,73,328992,0.0-6.65-0.65,0.0,74.0,,,,,,,[],,,,,,62.5,1.0,i,1.0,True,1718.0,93.0,63.0,40.0,False,,368.10517083438697,[],"[512, 384]",ColorTask,28.0,66.0,,,HRV,HRV_0126,2022-11-30 18:50:10
,wl-rdm,74,331714,0.0-6.66-0.66,0.0,75.0,,,,,,,[],,,,,,56.4,1.0,i,1.0,True,1333.0,78.0,63.0,40.0,False,,299.8785486895562,[],"[512, 384]",ColorTask,29.0,67.0,,,HRV,HRV_0126,2022-11-30 18:50:10
,wl-rdm,75,334090,0.0-6.67-0.67,0.0,76.0,,,,,,,[],,,,,,87.9,1.0,i,1.0,True,987.0,57.0,63.0,40.0,False,,343.857628607822,[],"[512, 384]",ColorTask,30.0,68.0,,,HRV,HRV_0126,2022-11-30 18:50:10
,wl-rdm,76,336423,0.0-6.68-0.68,0.0,77.0,,,,,,,[],,,,,,87.9,1.0,i,1.0,True,877.0,51.0,63.0,40.0,False,,211.93408459721172,[],"[512, 384]",ColorTask,31.0,69.0,,,HRV,HRV_0126,2022-11-30 18:50:10
,wl-rdm,77,338608,0.0-6.69-0.69,0.0,78.0,,,,,,,[],,,,,,73.6,0.0,i,1.0,False,834.0,50.0,63.0,40.0,False,,290.21229090848976,[],"[512, 384]",ColorTask,30.0,70.0,,,HRV,HRV_0126,2022-11-30 18:50:10
,wl-rdm,78,340924,0.0-6.70-0.70,0.0,79.0,,,,,,,[],,,,,,53.2,1.0,i,1.0,True,905.0,47.0,63.0,40.0,False,,340.6858243547949,[],"[512, 384]",ColorTask,31.0,71.0,,,HRV,HRV_0126,2022-11-30 18:50:10
,wl-rdm,79,344009,0.0-6.71-0.71,0.0,80.0,,,,,,,[],,,,,,56.4,0.0,u,0.0,True,1700.0,81.0,63.0,40.0,False,,306.43755356047996,[],"[512, 384]",ColorTask,32.0,72.0,,,HRV,HRV_0126,2022-11-30 18:50:10
,wl-rdm,80,346659,0.0-6.72-0.72,0.0,81.0,,,,,,,[],,,,,,50.0,1.0,i,1.0,True,1355.0,82.0,63.0,40.0,False,,202.53288838226004,[],"[512, 384]",ColorTask,33.0,73.0,,,HRV,HRV_0126,2022-11-30 18:50:10
,wl-rdm,81,348906,0.0-6.73-0.73,0.0,82.0,,,,,,,[],,,,,,53.2,0.0,i,1.0,False,769.0,46.0,63.0,40.0,False,,310.7658132582553,[],"[512, 384]",ColorTask,32.0,74.0,,,HRV,HRV_0126,2022-11-30 18:50:10
,wl-rdm,82,351739,0.0-6.74-0.74,0.0,83.0,,,,,,,[],,,,,,62.5,0.0,u,0.0,True,1513.0,80.0,63.0,40.0,False,,258.8937394900734,[],"[512, 384]",ColorTask,33.0,75.0,,,HRV,HRV_0126,2022-11-30 18:50:10
,wl-rdm,83,354706,0.0-6.75-0.75,0.0,84.0,,,,,,,[],,,,,,50.0,1.0,u,0.0,False,1498.0,82.0,63.0,40.0,False,,399.96872269728755,[],"[512, 384]",ColorTask,32.0,76.0,,,HRV,HRV_0126,2022-11-30 18:50:10
,wl-rdm,84,357861,0.0-6.76-0.76,0.0,85.0,,,,,,,[],,,,,,73.6,0.0,u,0.0,True,1759.0,90.0,63.0,40.0,False,,325.53634450075083,[],"[512, 384]",ColorTask,33.0,77.0,,,HRV,HRV_0126,2022-11-30 18:50:10
,wl-rdm,85,360639,0.0-6.77-0.77,0.0,86.0,,,,,,,[],,,,,,50.0,0.0,u,0.0,True,1497.0,83.0,63.0,40.0,False,,214.0037191954251,[],"[512, 384]",ColorTask,34.0,78.0,,,HRV,HRV_0126,2022-11-30 18:50:10
,wl-rdm,86,363306,0.0-6.78-0.78,0.0,87.0,,,,,,,[],,,,,,50.0,1.0,i,1.0,True,1124.0,67.0,63.0,40.0,False,,350.2053725225374,[],"[512, 384]",ColorTask,35.0,79.0,,,HRV,HRV_0126,2022-11-30 18:50:10
,wl-rdm,87,366183,0.0-6.79-0.79,0.0,88.0,,,,,,,[],,,,,,56.4,0.0,u,0.0,True,1479.0,84.0,63.0,40.0,False,,307.13350396459646,[],"[512, 384]",ColorTask,36.0,80.0,,,HRV,HRV_0126,2022-11-30 18:50:10
,wl-rdm,88,368782,0.0-6.80-0.80,0.0,89.0,,,,,,,[],,,,,,87.9,0.0,i,1.0,False,1152.0,64.0,63.0,40.0,False,,383.57335718055486,[],"[512, 384]",ColorTask,35.0,81.0,,,HRV,HRV_0126,2022-11-30 18:50:10
,wl-rdm,89,371792,0.0-6.81-0.81,0.0,90.0,,,,,,,[],,,,,,50.0,0.0,u,0.0,True,1571.0,80.0,63.0,40.0,False,,357.1818912002753,[],"[512, 384]",ColorTask,36.0,82.0,,,HRV,HRV_0126,2022-11-30 18:50:10
,wl-rdm,90,374258,0.0-6.82-0.82,0.0,91.0,,,,,,,[],,,,,,87.9,0.0,i,1.0,False,1102.0,67.0,63.0,40.0,False,,273.4857149122971,[],"[512, 384]",ColorTask,35.0,83.0,,,HRV,HRV_0126,2022-11-30 18:50:10
,wl-rdm,91,376839,0.0-6.83-0.83,0.0,92.0,,,,,,,[],,,,,,53.2,1.0,i,1.0,True,1166.0,71.0,63.0,40.0,False,,331.74333091891003,[],"[512, 384]",ColorTask,36.0,84.0,,,HRV,HRV_0126,2022-11-30 18:50:10
,wl-rdm,92,379397,0.0-6.84-0.84,0.0,93.0,,,,,,,[],,,,,,53.2,1.0,i,1.0,True,1281.0,62.0,63.0,40.0,False,,230.38779514467672,[],"[512, 384]",ColorTask,37.0,85.0,,,HRV,HRV_0126,2022-11-30 18:50:10
,wl-rdm,93,382155,0.0-6.85-0.85,0.0,94.0,,,,,,,[],,,,,,73.6,1.0,i,1.0,True,1221.0,71.0,63.0,40.0,False,,385.31356921473036,[],"[512, 384]",ColorTask,38.0,86.0,,,HRV,HRV_0126,2022-11-30 18:50:10
,wl-rdm,94,384655,0.0-6.86-0.86,0.0,95.0,,,,,,,[],,,,,,56.4,1.0,u,0.0,False,1109.0,64.0,63.0,40.0,False,,221.56898051100657,[],"[512, 384]",ColorTask,37.0,87.0,,,HRV,HRV_0126,2022-11-30 18:50:10
,wl-rdm,95,387256,0.0-6.87-0.87,0.0,96.0,,,,,,,[],,,,,,87.9,1.0,i,1.0,True,1315.0,65.0,63.0,40.0,False,,207.86787500786141,[],"[512, 384]",ColorTask,38.0,88.0,,,HRV,HRV_0126,2022-11-30 18:50:10
,wl-rdm,96,389926,0.0-6.88-0.88,0.0,97.0,,,,,,,[],,,,,,73.6,0.0,u,0.0,True,1380.0,76.0,63.0,40.0,False,,218.79110074393031,[],"[512, 384]",ColorTask,39.0,89.0,,,HRV,HRV_0126,2022-11-30 18:50:10
,wl-rdm,97,392491,0.0-6.89-0.89,0.0,98.0,,,,,,,[],,,,,,87.9,0.0,i,1.0,False,1186.0,71.0,63.0,40.0,False,,238.7823132834397,[],"[512, 384]",ColorTask,38.0,90.0,,,HRV,HRV_0126,2022-11-30 18:50:10
,wl-rdm,98,394887,0.0-6.90-0.90,0.0,99.0,,,,,,,[],,,,,,73.6,1.0,i,1.0,True,973.0,54.0,63.0,40.0,False,,356.44976547108604,[],"[512, 384]",ColorTask,39.0,91.0,,,HRV,HRV_0126,2022-11-30 18:50:10
,wl-rdm,99,397742,0.0-6.91-0.91,0.0,100.0,,,,,,,[],,,,,,56.4,1.0,u,0.0,False,1580.0,87.0,63.0,40.0,False,,210.13408145598402,[],"[512, 384]",ColorTask,38.0,92.0,,,HRV,HRV_0126,2022-11-30 18:50:10
,wl-rdm,100,400894,0.0-6.92-0.92,0.0,101.0,,,,,,,[],,,,,,73.6,0.0,u,0.0,True,1801.0,81.0,63.0,40.0,False,,262.92806093141917,[],"[512, 384]",ColorTask,39.0,93.0,,,HRV,HRV_0126,2022-11-30 18:50:10
,wl-rdm,101,403295,0.0-6.93-0.93,0.0,102.0,,,,,,,[],,,,,,50.0,0.0,i,1.0,False,1041.0,62.0,63.0,40.0,False,,227.44852111993063,[],"[512, 384]",ColorTask,38.0,94.0,,,HRV,HRV_0126,2022-11-30 18:50:10
,wl-rdm,102,406088,0.0-6.94-0.94,0.0,103.0,,,,,,,[],,,,,,73.6,0.0,u,0.0,True,1443.0,87.0,63.0,40.0,False,,285.4359610233151,[],"[512, 384]",ColorTask,39.0,95.0,,,HRV,HRV_0126,2022-11-30 18:50:10
,wl-rdm,103,408570,0.0-6.95-0.95,0.0,104.0,,,,,,,[],,,,,,87.9,0.0,u,0.0,True,1143.0,58.0,63.0,40.0,False,,262.75991835803023,[],"[512, 384]",ColorTask,40.0,96.0,,,HRV,HRV_0126,2022-11-30 18:50:10
,wl-rdm,104,411347,0.0-6.96-0.96,0.0,105.0,,,,,,,[],,,,,,73.6,1.0,i,1.0,True,1389.0,81.0,63.0,40.0,False,,312.32227521428285,[],"[512, 384]",ColorTask,41.0,97.0,,,HRV,HRV_0126,2022-11-30 18:50:10
,wl-rdm,105,413805,0.0-6.97-0.97,0.0,106.0,,,,,,,[],,,,,,62.5,1.0,i,1.0,True,1148.0,64.0,63.0,40.0,False,,216.5876898039697,[],"[512, 384]",ColorTask,42.0,98.0,,,HRV,HRV_0126,2022-11-30 18:50:10
,wl-rdm,106,416372,0.0-6.98-0.98,0.0,107.0,,,,,,,[],,,,,,62.5,0.0,i,1.0,False,1174.0,61.0,63.0,40.0,False,,308.2036287728858,[],"[512, 384]",ColorTask,41.0,99.0,,,HRV,HRV_0126,2022-11-30 18:50:10
,wl-rdm,107,418818,0.0-6.99-0.99,0.0,108.0,,,,,,,[],,,,,,62.5,0.0,u,0.0,True,1098.0,65.0,63.0,40.0,False,,269.2631013594302,[],"[512, 384]",ColorTask,42.0,100.0,,,HRV,HRV_0126,2022-11-30 18:50:10
,wl-rdm,108,422021,0.0-6.100-0.100,0.0,109.0,,,,,,,[],,,,,,53.2,0.0,i,1.0,False,1910.0,113.0,63.0,40.0,False,,229.37392191423888,[],"[512, 384]",ColorTask,41.0,101.0,,,HRV,HRV_0126,2022-11-30 18:50:10
,wl-rdm,109,424423,0.0-6.101-0.101,0.0,110.0,,,,,,,[],,,,,,73.6,1.0,i,1.0,True,1091.0,58.0,63.0,40.0,False,,238.78792667370175,[],"[512, 384]",ColorTask,42.0,102.0,,,HRV,HRV_0126,2022-11-30 18:50:10
,wl-rdm,110,427214,0.0-6.102-0.102,0.0,111.0,,,,,,,[],,,,,,56.4,0.0,u,0.0,True,1451.0,87.0,63.0,40.0,False,,264.5578069361801,[],"[512, 384]",ColorTask,43.0,103.0,,,HRV,HRV_0126,2022-11-30 18:50:10
,wl-rdm,111,430357,0.0-6.103-0.103,0.0,112.0,,,,,,,[],,,,,,50.0,1.0,u,0.0,False,1839.0,97.0,63.0,40.0,False,,219.2368137342331,[],"[512, 384]",ColorTask,42.0,104.0,,,HRV,HRV_0126,2022-11-30 18:50:10
,wl-rdm,112,432711,0.0-6.104-0.104,0.0,113.0,,,,,,,[],,,,,,53.2,1.0,i,1.0,True,1004.0,60.0,63.0,40.0,False,,275.8556245856671,[],"[512, 384]",ColorTask,43.0,105.0,,,HRV,HRV_0126,2022-11-30 18:50:10
,wl-rdm,113,435954,0.0-6.105-0.105,0.0,114.0,,,,,,,[],,,,,,87.9,0.0,u,0.0,True,1756.0,95.0,63.0,40.0,False,,371.96866351666307,[],"[512, 384]",ColorTask,44.0,106.0,,,HRV,HRV_0126,2022-11-30 18:50:10
,wl-rdm,114,439121,0.0-6.106-0.106,0.0,115.0,,,,,,,[],,,,,,56.4,1.0,i,1.0,True,1732.0,91.0,63.0,40.0,False,,360.5660164316561,[],"[512, 384]",ColorTask,45.0,107.0,,,HRV,HRV_0126,2022-11-30 18:50:10
,wl-rdm,115,442188,0.0-6.107-0.107,0.0,116.0,,,,,,,[],,,,,,53.2,0.0,u,0.0,True,1738.0,90.0,63.0,40.0,False,,274.43868792935586,[],"[512, 384]",ColorTask,46.0,108.0,,,HRV,HRV_0126,2022-11-30 18:50:10
,wl-html-keyboard-response,116,539107,0.0-7.0-0.0,1.0,116.0,,,,,,,,94903.0,1.0,0,,,,,,,,,,,,True,undefinedblurEvent ,,,,,,,,,HRV,HRV_0126,2022-11-30 18:50:10
,wl-rdm,117,541749,0.0-8.0-0.0,1.0,117.0,,,,,,,[],,,,,,87.9,1.0,i,1.0,True,1347.0,67.0,63.0,40.0,False,,214.0485829096173,[],"[512, 384]",ColorTask,47.0,1.0,,,HRV,HRV_0126,2022-11-30 18:50:10
,wl-rdm,118,544401,0.0-8.1-0.1,1.0,118.0,,,,,,,[],,,,,,53.2,0.0,u,0.0,True,1350.0,67.0,63.0,40.0,False,,217.00414132777962,[],"[512, 384]",ColorTask,48.0,2.0,,,HRV,HRV_0126,2022-11-30 18:50:10
,wl-rdm,119,547148,0.0-8.2-0.2,1.0,119.0,,,,,,,[],,,,,,73.6,0.0,i,1.0,False,1348.0,80.0,63.0,40.0,False,,254.1984697569344,[],"[512, 384]",ColorTask,47.0,3.0,,,HRV,HRV_0126,2022-11-30 18:50:10
,wl-rdm,120,550064,0.0-8.3-0.3,1.0,120.0,,,,,,,[],,,,,,50.0,1.0,u,0.0,False,1611.0,89.0,63.0,40.0,False,,221.1487998257344,[],"[512, 384]",ColorTask,46.0,4.0,,,HRV,HRV_0126,2022-11-30 18:50:10
,wl-rdm,121,552898,0.0-8.4-0.4,1.0,121.0,,,,,,,[],,,,,,56.4,0.0,i,1.0,False,1449.0,84.0,63.0,40.0,False,,307.2591027326611,[],"[512, 384]",ColorTask,45.0,5.0,,,HRV,HRV_0126,2022-11-30 18:50:10
,wl-rdm,122,555721,0.0-8.5-0.5,1.0,122.0,,,,,,,[],,,,,,53.2,0.0,i,1.0,False,1438.0,84.0,63.0,40.0,False,,298.4857182122327,[],"[512, 384]",ColorTask,44.0,6.0,,,HRV,HRV_0126,2022-11-30 18:50:10
,wl-rdm,123,558215,0.0-8.6-0.6,1.0,123.0,,,,,,,[],,,,,,50.0,1.0,u,0.0,False,1059.0,62.0,63.0,40.0,False,,371.0049827919949,[],"[512, 384]",ColorTask,43.0,7.0,,,HRV,HRV_0126,2022-11-30 18:50:10
,wl-rdm,124,561235,0.0-8.7-0.7,1.0,124.0,,,,,,,[],,,,,,50.0,1.0,i,1.0,True,1731.0,94.0,63.0,40.0,False,,211.63973967781303,[],"[512, 384]",ColorTask,44.0,8.0,,,HRV,HRV_0126,2022-11-30 18:50:10
,wl-rdm,125,564636,0.0-8.8-0.8,1.0,125.0,,,,,,,[],,,,,,53.2,0.0,i,1.0,False,1978.0,107.0,63.0,40.0,False,,353.60321929949464,[],"[512, 384]",ColorTask,43.0,9.0,,,HRV,HRV_0126,2022-11-30 18:50:10
,wl-rdm,126,567716,0.0-8.9-0.9,1.0,126.0,,,,,,,[],,,,,,53.2,0.0,u,0.0,True,1700.0,100.0,63.0,40.0,False,,284.12178590364766,[],"[512, 384]",ColorTask,44.0,10.0,,,HRV,HRV_0126,2022-11-30 18:50:10
,wl-rdm,127,570626,0.0-8.10-0.10,1.0,127.0,,,,,,,[],,,,,,53.2,0.0,i,1.0,False,1460.0,86.0,63.0,40.0,False,,304.35338646011405,[],"[512, 384]",ColorTask,43.0,11.0,,,HRV,HRV_0126,2022-11-30 18:50:10
,wl-rdm,128,573456,0.0-8.11-0.11,1.0,128.0,,,,,,,[],,,,,,62.5,1.0,u,0.0,False,1533.0,89.0,63.0,40.0,False,,212.26528368219235,[],"[512, 384]",ColorTask,42.0,12.0,,,HRV,HRV_0126,2022-11-30 18:50:10
,wl-rdm,129,576331,0.0-8.12-0.12,1.0,129.0,,,,,,,[],,,,,,53.2,1.0,i,1.0,True,1445.0,75.0,63.0,40.0,False,,360.53358256433427,[],"[512, 384]",ColorTask,43.0,13.0,,,HRV,HRV_0126,2022-11-30 18:50:10
,wl-rdm,130,578835,0.0-8.13-0.13,1.0,130.0,,,,,,,[],,,,,,56.4,1.0,i,1.0,True,1130.0,60.0,63.0,40.0,False,,314.52564788873246,[],"[512, 384]",ColorTask,44.0,14.0,,,HRV,HRV_0126,2022-11-30 18:50:10
,wl-rdm,131,581497,0.0-8.14-0.14,1.0,131.0,,,,,,,[],,,,,,56.4,0.0,i,1.0,False,1369.0,80.0,63.0,40.0,False,,223.24720944253187,[],"[512, 384]",ColorTask,43.0,15.0,,,HRV,HRV_0126,2022-11-30 18:50:10
,wl-rdm,132,584231,0.0-8.15-0.15,1.0,132.0,,,,,,,[],,,,,,62.5,1.0,i,1.0,True,1312.0,72.0,63.0,40.0,False,,292.8034520088968,[],"[512, 384]",ColorTask,44.0,16.0,,,HRV,HRV_0126,2022-11-30 18:50:10
,wl-rdm,133,586764,0.0-8.16-0.16,1.0,133.0,,,,,,,[],,,,,,50.0,0.0,i,1.0,False,1246.0,71.0,63.0,40.0,False,,232.13793560203723,[],"[512, 384]",ColorTask,43.0,17.0,,,HRV,HRV_0126,2022-11-30 18:50:10
,wl-rdm,134,589616,0.0-8.17-0.17,1.0,134.0,,,,,,,[],,,,,,53.2,1.0,i,1.0,True,1386.0,81.0,63.0,40.0,False,,226.94148200730353,[],"[512, 384]",ColorTask,44.0,18.0,,,HRV,HRV_0126,2022-11-30 18:50:10
,wl-rdm,135,591852,0.0-8.18-0.18,1.0,135.0,,,,,,,[],,,,,,87.9,0.0,u,0.0,True,896.0,53.0,63.0,40.0,False,,254.7007961773058,[],"[512, 384]",ColorTask,45.0,19.0,,,HRV,HRV_0126,2022-11-30 18:50:10
,wl-rdm,136,594813,0.0-8.19-0.19,1.0,136.0,,,,,,,[],,,,,,53.2,1.0,u,0.0,False,1536.0,84.0,63.0,40.0,False,,336.8707422030815,[],"[512, 384]",ColorTask,44.0,20.0,,,HRV,HRV_0126,2022-11-30 18:50:10
,wl-rdm,137,597034,0.0-8.20-0.20,1.0,137.0,,,,,,,[],,,,,,62.5,1.0,i,1.0,True,902.0,51.0,63.0,40.0,False,,234.36970014734922,[],"[512, 384]",ColorTask,45.0,21.0,,,HRV,HRV_0126,2022-11-30 18:50:10
,wl-rdm,138,599497,0.0-8.21-0.21,1.0,138.0,,,,,,,[],,,,,,56.4,0.0,i,1.0,False,1150.0,69.0,63.0,40.0,False,,254.24374969920945,[],"[512, 384]",ColorTask,44.0,22.0,,,HRV,HRV_0126,2022-11-30 18:50:10
,wl-rdm,139,602178,0.0-8.22-0.22,1.0,139.0,,,,,,,[],,,,,,73.6,0.0,u,0.0,True,1142.0,67.0,63.0,40.0,False,,346.61603790147683,[],"[512, 384]",ColorTask,45.0,23.0,,,HRV,HRV_0126,2022-11-30 18:50:10
,wl-rdm,140,604663,0.0-8.23-0.23,1.0,140.0,,,,,,,[],,,,,,62.5,1.0,i,1.0,True,1067.0,62.0,63.0,40.0,False,,354.75495978841184,[],"[512, 384]",ColorTask,46.0,24.0,,,HRV,HRV_0126,2022-11-30 18:50:10
,wl-rdm,141,607645,0.0-8.24-0.24,1.0,141.0,,,,,,,[],,,,,,50.0,0.0,i,1.0,False,1631.0,79.0,63.0,40.0,False,,274.0547239508418,[],"[512, 384]",ColorTask,45.0,25.0,,,HRV,HRV_0126,2022-11-30 18:50:10
,wl-rdm,142,610484,0.0-8.25-0.25,1.0,142.0,,,,,,,[],,,,,,62.5,0.0,u,0.0,True,1412.0,85.0,63.0,40.0,False,,255.48826054651704,[],"[512, 384]",ColorTask,46.0,26.0,,,HRV,HRV_0126,2022-11-30 18:50:10
,wl-rdm,143,612779,0.0-8.26-0.26,1.0,143.0,,,,,,,[],,,,,,73.6,1.0,i,1.0,True,999.0,58.0,63.0,40.0,False,,239.30323883809393,[],"[512, 384]",ColorTask,47.0,27.0,,,HRV,HRV_0126,2022-11-30 18:50:10
,wl-rdm,144,615569,0.0-8.27-0.27,1.0,144.0,,,,,,,[],,,,,,87.9,0.0,u,0.0,True,1464.0,76.0,63.0,40.0,False,,248.29725725923655,[],"[512, 384]",ColorTask,48.0,28.0,,,HRV,HRV_0126,2022-11-30 18:50:10
,wl-rdm,145,618479,0.0-8.28-0.28,1.0,145.0,,,,,,,[],,,,,,87.9,0.0,u,0.0,True,1561.0,90.0,63.0,40.0,False,,284.40757757400604,[],"[512, 384]",ColorTask,49.0,29.0,,,HRV,HRV_0126,2022-11-30 18:50:10
,wl-rdm,146,621046,0.0-8.29-0.29,1.0,146.0,,,,,,,[],,,,,,50.0,1.0,u,0.0,False,1289.0,66.0,63.0,40.0,False,,209.07892786631894,[],"[512, 384]",ColorTask,48.0,30.0,,,HRV,HRV_0126,2022-11-30 18:50:10
,wl-rdm,147,623486,0.0-8.30-0.30,1.0,147.0,,,,,,,[],,,,,,56.4,0.0,i,1.0,False,1001.0,59.0,63.0,40.0,False,,267.25149296954874,[],"[512, 384]",ColorTask,47.0,31.0,,,HRV,HRV_0126,2022-11-30 18:50:10
,wl-rdm,148,626395,0.0-8.31-0.31,1.0,148.0,,,,,,,[],,,,,,50.0,0.0,i,1.0,False,1523.0,89.0,63.0,40.0,False,,290.1278944936056,[],"[512, 384]",ColorTask,46.0,32.0,,,HRV,HRV_0126,2022-11-30 18:50:10
,wl-rdm,149,628829,0.0-8.32-0.32,1.0,149.0,,,,,,,[],,,,,,73.6,1.0,i,1.0,True,1124.0,66.0,63.0,40.0,False,,234.14587244772756,[],"[512, 384]",ColorTask,47.0,33.0,,,HRV,HRV_0126,2022-11-30 18:50:10
,wl-rdm,150,631667,0.0-8.33-0.33,1.0,150.0,,,,,,,[],,,,,,53.2,1.0,u,0.0,False,1539.0,74.0,63.0,40.0,False,,226.48831782818897,[],"[512, 384]",ColorTask,46.0,34.0,,,HRV,HRV_0126,2022-11-30 18:50:10
,wl-rdm,151,634026,0.0-8.34-0.34,1.0,151.0,,,,,,,[],,,,,,50.0,1.0,i,1.0,True,929.0,56.0,63.0,40.0,False,,328.3445241433591,[],"[512, 384]",ColorTask,47.0,35.0,,,HRV,HRV_0126,2022-11-30 18:50:10
,wl-rdm,152,636513,0.0-8.35-0.35,1.0,152.0,,,,,,,[],,,,,,62.5,0.0,i,1.0,False,1108.0,64.0,63.0,40.0,False,,296.24171116596824,[],"[512, 384]",ColorTask,46.0,36.0,,,HRV,HRV_0126,2022-11-30 18:50:10
,wl-rdm,153,638796,0.0-8.36-0.36,1.0,153.0,,,,,,,[],,,,,,87.9,0.0,i,1.0,False,945.0,54.0,63.0,40.0,False,,254.36669279410435,[],"[512, 384]",ColorTask,45.0,37.0,,,HRV,HRV_0126,2022-11-30 18:50:10
,wl-rdm,154,641329,0.0-8.37-0.37,1.0,154.0,,,,,,,[],,,,,,53.2,0.0,i,1.0,False,1059.0,56.0,63.0,40.0,False,,392.62166993133894,[],"[512, 384]",ColorTask,44.0,38.0,,,HRV,HRV_0126,2022-11-30 18:50:10
,wl-rdm,155,643697,0.0-8.38-0.38,1.0,155.0,,,,,,,[],,,,,,56.4,1.0,u,0.0,False,942.0,56.0,63.0,40.0,False,,335.382102465348,[],"[512, 384]",ColorTask,43.0,39.0,,,HRV,HRV_0126,2022-11-30 18:50:10
,wl-rdm,156,646446,0.0-8.39-0.39,1.0,156.0,,,,,,,[],,,,,,73.6,0.0,i,1.0,False,1349.0,79.0,63.0,40.0,False,,329.6268932370803,[],"[512, 384]",ColorTask,42.0,40.0,,,HRV,HRV_0126,2022-11-30 18:50:10
,wl-rdm,157,649131,0.0-8.40-0.40,1.0,157.0,,,,,,,[],,,,,,53.2,0.0,i,1.0,False,1261.0,68.0,63.0,40.0,False,,347.2983411837714,[],"[512, 384]",ColorTask,41.0,41.0,,,HRV,HRV_0126,2022-11-30 18:50:10
,wl-rdm,158,651794,0.0-8.41-0.41,1.0,158.0,,,,,,,[],,,,,,56.4,1.0,u,0.0,False,1374.0,80.0,63.0,40.0,False,,230.20566475130482,[],"[512, 384]",ColorTask,40.0,42.0,,,HRV,HRV_0126,2022-11-30 18:50:10
,wl-rdm,159,654212,0.0-8.42-0.42,1.0,159.0,,,,,,,[],,,,,,56.4,1.0,i,1.0,True,1092.0,66.0,63.0,40.0,False,,231.356078758275,[],"[512, 384]",ColorTask,41.0,43.0,,,HRV,HRV_0126,2022-11-30 18:50:10
,wl-rdm,160,656795,0.0-8.43-0.43,1.0,160.0,,,,,,,[],,,,,,73.6,0.0,i,1.0,False,1193.0,62.0,63.0,40.0,False,,305.3123892248044,[],"[512, 384]",ColorTask,40.0,44.0,,,HRV,HRV_0126,2022-11-30 18:50:10
,wl-rdm,161,659230,0.0-8.44-0.44,1.0,161.0,,,,,,,[],,,,,,87.9,1.0,i,1.0,True,1102.0,63.0,63.0,40.0,False,,254.34537071337306,[],"[512, 384]",ColorTask,41.0,45.0,,,HRV,HRV_0126,2022-11-30 18:50:10
,wl-rdm,162,661779,0.0-8.45-0.45,1.0,162.0,,,,,,,[],,,,,,56.4,1.0,i,1.0,True,1114.0,60.0,63.0,40.0,False,,347.78898673102174,[],"[512, 384]",ColorTask,42.0,46.0,,,HRV,HRV_0126,2022-11-30 18:50:10
,wl-rdm,163,664162,0.0-8.46-0.46,1.0,163.0,,,,,,,[],,,,,,87.9,0.0,u,0.0,True,1061.0,64.0,63.0,40.0,False,,224.6934197862745,[],"[512, 384]",ColorTask,43.0,47.0,,,HRV,HRV_0126,2022-11-30 18:50:10
,wl-rdm,164,666677,0.0-8.47-0.47,1.0,164.0,,,,,,,[],,,,,,73.6,0.0,u,0.0,True,1232.0,65.0,63.0,40.0,False,,200.15802581246655,[],"[512, 384]",ColorTask,44.0,48.0,,,HRV,HRV_0126,2022-11-30 18:50:10
,wl-rdm,165,669299,0.0-8.48-0.48,1.0,165.0,,,,,,,[],,,,,,62.5,0.0,i,1.0,False,1182.0,64.0,63.0,40.0,False,,360.1080875626162,[],"[512, 384]",ColorTask,43.0,49.0,,,HRV,HRV_0126,2022-11-30 18:50:10
,wl-rdm,166,671752,0.0-8.49-0.49,1.0,166.0,,,,,,,[],,,,,,53.2,1.0,u,0.0,False,1145.0,68.0,63.0,40.0,False,,244.34865839705697,[],"[512, 384]",ColorTask,42.0,50.0,,,HRV,HRV_0126,2022-11-30 18:50:10
,wl-rdm,167,674574,0.0-8.50-0.50,1.0,167.0,,,,,,,[],,,,,,73.6,0.0,u,0.0,True,1328.0,68.0,63.0,40.0,False,,398.9587776690338,[],"[512, 384]",ColorTask,43.0,51.0,,,HRV,HRV_0126,2022-11-30 18:50:10
,wl-rdm,168,677308,0.0-8.51-0.51,1.0,168.0,,,,,,,[],,,,,,73.6,0.0,u,0.0,True,1225.0,67.0,63.0,40.0,False,,240.83445748433945,[],"[512, 384]",ColorTask,44.0,52.0,,,HRV,HRV_0126,2022-11-30 18:50:10
,wl-rdm,169,679670,0.0-8.52-0.52,1.0,169.0,,,,,,,[],,,,,,87.9,0.0,u,0.0,True,1016.0,56.0,63.0,40.0,False,,257.52007882887216,[],"[512, 384]",ColorTask,45.0,53.0,,,HRV,HRV_0126,2022-11-30 18:50:10
,wl-rdm,170,681994,0.0-8.53-0.53,1.0,170.0,,,,,,,[],,,,,,62.5,0.0,u,0.0,True,994.0,58.0,63.0,40.0,False,,252.4249403012923,[],"[512, 384]",ColorTask,46.0,54.0,,,HRV,HRV_0126,2022-11-30 18:50:10
,wl-rdm,171,684728,0.0-8.54-0.54,1.0,171.0,,,,,,,[],,,,,,62.5,0.0,u,0.0,True,1330.0,73.0,63.0,40.0,False,,321.1013252206432,[],"[512, 384]",ColorTask,47.0,55.0,,,HRV,HRV_0126,2022-11-30 18:50:10
,wl-rdm,172,687077,0.0-8.55-0.55,1.0,172.0,,,,,,,[],,,,,,73.6,1.0,i,1.0,True,1027.0,52.0,63.0,40.0,False,,236.43861745719008,[],"[512, 384]",ColorTask,48.0,56.0,,,HRV,HRV_0126,2022-11-30 18:50:10
,wl-rdm,173,690266,0.0-8.56-0.56,1.0,173.0,,,,,,,[],,,,,,50.0,0.0,u,0.0,True,1895.0,103.0,63.0,40.0,False,,203.3466535428961,[],"[512, 384]",ColorTask,49.0,57.0,,,HRV,HRV_0126,2022-11-30 18:50:10
,wl-rdm,174,693063,0.0-8.57-0.57,1.0,174.0,,,,,,,[],,,,,,62.5,1.0,i,1.0,True,1416.0,75.0,63.0,40.0,False,,266.2874783271296,[],"[512, 384]",ColorTask,50.0,58.0,,,HRV,HRV_0126,2022-11-30 18:50:10
,wl-rdm,175,695524,0.0-8.58-0.58,1.0,175.0,,,,,,,[],,,,,,50.0,1.0,u,0.0,False,1122.0,64.0,63.0,40.0,False,,267.73346004266665,[],"[512, 384]",ColorTask,49.0,59.0,,,HRV,HRV_0126,2022-11-30 18:50:10
,wl-rdm,176,698144,0.0-8.59-0.59,1.0,176.0,,,,,,,[],,,,,,53.2,1.0,u,0.0,False,1312.0,75.0,63.0,40.0,False,,241.73586006932385,[],"[512, 384]",ColorTask,48.0,60.0,,,HRV,HRV_0126,2022-11-30 18:50:10
,wl-rdm,177,700497,0.0-8.60-0.60,1.0,177.0,,,,,,,[],,,,,,56.4,1.0,i,1.0,True,1004.0,60.0,63.0,40.0,False,,261.3507270966585,[],"[512, 384]",ColorTask,49.0,61.0,,,HRV,HRV_0126,2022-11-30 18:50:10
,wl-rdm,178,703061,0.0-8.61-0.61,1.0,178.0,,,,,,,[],,,,,,53.2,1.0,i,1.0,True,976.0,58.0,63.0,40.0,False,,352.89484658834624,[],"[512, 384]",ColorTask,50.0,62.0,,,HRV,HRV_0126,2022-11-30 18:50:10
,wl-rdm,179,705461,0.0-8.62-0.62,1.0,179.0,,,,,,,[],,,,,,56.4,0.0,u,0.0,True,1126.0,66.0,63.0,40.0,False,,202.90636529791496,[],"[512, 384]",ColorTask,51.0,63.0,,,HRV,HRV_0126,2022-11-30 18:50:10
,wl-rdm,180,708178,0.0-8.63-0.63,1.0,180.0,,,,,,,[],,,,,,62.5,0.0,u,0.0,True,1295.0,77.0,63.0,40.0,False,,344.27001598322954,[],"[512, 384]",ColorTask,52.0,64.0,,,HRV,HRV_0126,2022-11-30 18:50:10
,wl-rdm,181,710727,0.0-8.64-0.64,1.0,181.0,,,,,,,[],,,,,,87.9,1.0,i,1.0,True,1086.0,62.0,63.0,40.0,False,,377.62862057004537,[],"[512, 384]",ColorTask,53.0,65.0,,,HRV,HRV_0126,2022-11-30 18:50:10
,wl-rdm,182,713280,0.0-8.65-0.65,1.0,182.0,,,,,,,[],,,,,,56.4,0.0,i,1.0,False,1086.0,61.0,63.0,40.0,False,,385.14283413779793,[],"[512, 384]",ColorTask,52.0,66.0,,,HRV,HRV_0126,2022-11-30 18:50:10
,wl-rdm,183,715916,0.0-8.66-0.66,1.0,183.0,,,,,,,[],,,,,,62.5,1.0,u,0.0,False,1220.0,73.0,63.0,40.0,False,,330.1603320379607,[],"[512, 384]",ColorTask,51.0,67.0,,,HRV,HRV_0126,2022-11-30 18:50:10
,wl-rdm,184,718311,0.0-8.67-0.67,1.0,184.0,,,,,,,[],,,,,,87.9,1.0,i,1.0,True,1021.0,52.0,63.0,40.0,False,,285.4915161745137,[],"[512, 384]",ColorTask,52.0,68.0,,,HRV,HRV_0126,2022-11-30 18:50:10
,wl-rdm,185,720727,0.0-8.68-0.68,1.0,185.0,,,,,,,[],,,,,,87.9,1.0,i,1.0,True,1010.0,59.0,63.0,40.0,False,,315.7530595813828,[],"[512, 384]",ColorTask,53.0,69.0,,,HRV,HRV_0126,2022-11-30 18:50:10
,wl-rdm,186,723094,0.0-8.69-0.69,1.0,186.0,,,,,,,[],,,,,,87.9,1.0,i,1.0,True,887.0,52.0,63.0,40.0,False,,394.7551962870019,[],"[512, 384]",ColorTask,54.0,70.0,,,HRV,HRV_0126,2022-11-30 18:50:10
,wl-rdm,187,725198,0.0-8.70-0.70,1.0,187.0,,,,,,,[],,,,,,56.4,1.0,i,1.0,True,740.0,45.0,63.0,40.0,False,,274.4291075820439,[],"[512, 384]",ColorTask,55.0,71.0,,,HRV,HRV_0126,2022-11-30 18:50:10
,wl-rdm,188,727434,0.0-8.71-0.71,1.0,188.0,,,,,,,[],,,,,,73.6,1.0,i,1.0,True,831.0,49.0,63.0,40.0,False,,305.43733535361673,[],"[512, 384]",ColorTask,56.0,72.0,,,HRV,HRV_0126,2022-11-30 18:50:10
,wl-rdm,189,729793,0.0-8.72-0.72,1.0,189.0,,,,,,,[],,,,,,62.5,0.0,u,0.0,True,973.0,55.0,63.0,40.0,False,,247.33215369594376,[],"[512, 384]",ColorTask,57.0,73.0,,,HRV,HRV_0126,2022-11-30 18:50:10
,wl-rdm,190,732443,0.0-8.73-0.73,1.0,190.0,,,,,,,[],,,,,,62.5,0.0,i,1.0,False,1328.0,70.0,63.0,40.0,False,,255.12114609565958,[],"[512, 384]",ColorTask,56.0,74.0,,,HRV,HRV_0126,2022-11-30 18:50:10
,wl-rdm,191,734924,0.0-8.74-0.74,1.0,191.0,,,,,,,[],,,,,,56.4,0.0,u,0.0,True,1173.0,63.0,63.0,40.0,False,,215.07247490184812,[],"[512, 384]",ColorTask,57.0,75.0,,,HRV,HRV_0126,2022-11-30 18:50:10
,wl-rdm,192,737402,0.0-8.75-0.75,1.0,192.0,,,,,,,[],,,,,,56.4,0.0,i,1.0,False,1164.0,70.0,63.0,40.0,False,,239.16194238319483,[],"[512, 384]",ColorTask,56.0,76.0,,,HRV,HRV_0126,2022-11-30 18:50:10
,wl-rdm,193,740042,0.0-8.76-0.76,1.0,193.0,,,,,,,[],,,,,,50.0,0.0,u,0.0,True,1179.0,61.0,63.0,40.0,False,,373.54013005822213,[],"[512, 384]",ColorTask,57.0,77.0,,,HRV,HRV_0126,2022-11-30 18:50:10
,wl-rdm,194,742291,0.0-8.77-0.77,1.0,194.0,,,,,,,[],,,,,,62.5,1.0,i,1.0,True,951.0,56.0,63.0,40.0,False,,219.12888296574894,[],"[512, 384]",ColorTask,58.0,78.0,,,HRV,HRV_0126,2022-11-30 18:50:10
,wl-rdm,195,744648,0.0-8.78-0.78,1.0,195.0,,,,,,,[],,,,,,73.6,1.0,i,1.0,True,1036.0,61.0,63.0,40.0,False,,232.08449239682946,[],"[512, 384]",ColorTask,59.0,79.0,,,HRV,HRV_0126,2022-11-30 18:50:10
,wl-rdm,196,747193,0.0-8.79-0.79,1.0,196.0,,,,,,,[],,,,,,87.9,0.0,u,0.0,True,1102.0,64.0,63.0,40.0,False,,372.226622148409,[],"[512, 384]",ColorTask,60.0,80.0,,,HRV,HRV_0126,2022-11-30 18:50:10
,wl-rdm,197,749890,0.0-8.80-0.80,1.0,197.0,,,,,,,[],,,,,,56.4,0.0,u,0.0,True,1297.0,73.0,63.0,40.0,False,,339.1152599123912,[],"[512, 384]",ColorTask,61.0,81.0,,,HRV,HRV_0126,2022-11-30 18:50:10
,wl-rdm,198,752525,0.0-8.81-0.81,1.0,198.0,,,,,,,[],,,,,,73.6,1.0,i,1.0,True,1276.0,75.0,63.0,40.0,False,,289.6201582740843,[],"[512, 384]",ColorTask,62.0,82.0,,,HRV,HRV_0126,2022-11-30 18:50:10
,wl-rdm,199,754858,0.0-8.82-0.82,1.0,199.0,,,,,,,[],,,,,,87.9,1.0,i,1.0,True,917.0,54.0,63.0,40.0,False,,316.1161311422228,[],"[512, 384]",ColorTask,63.0,83.0,,,HRV,HRV_0126,2022-11-30 18:50:10
,wl-rdm,200,757067,0.0-8.83-0.83,1.0,200.0,,,,,,,[],,,,,,62.5,1.0,i,1.0,True,857.0,48.0,63.0,40.0,False,,272.392162529999,[],"[512, 384]",ColorTask,64.0,84.0,,,HRV,HRV_0126,2022-11-30 18:50:10
,wl-rdm,201,759423,0.0-8.84-0.84,1.0,201.0,,,,,,,[],,,,,,87.9,0.0,u,0.0,True,1056.0,53.0,63.0,40.0,False,,221.19807073344316,[],"[512, 384]",ColorTask,65.0,85.0,,,HRV,HRV_0126,2022-11-30 18:50:10
,wl-rdm,202,762275,0.0-8.85-0.85,1.0,202.0,,,,,,,[],,,,,,73.6,0.0,i,1.0,False,1400.0,74.0,63.0,40.0,False,,367.63000614090777,[],"[512, 384]",ColorTask,64.0,86.0,,,HRV,HRV_0126,2022-11-30 18:50:10
,wl-rdm,203,764565,0.0-8.86-0.86,1.0,203.0,,,,,,,[],,,,,,87.9,0.0,u,0.0,True,940.0,54.0,63.0,40.0,False,,281.8869578821689,[],"[512, 384]",ColorTask,65.0,87.0,,,HRV,HRV_0126,2022-11-30 18:50:10
,wl-rdm,204,767206,0.0-8.87-0.87,1.0,204.0,,,,,,,[],,,,,,50.0,1.0,u,0.0,False,1192.0,72.0,63.0,40.0,False,,369.83986231723827,[],"[512, 384]",ColorTask,64.0,88.0,,,HRV,HRV_0126,2022-11-30 18:50:10
,wl-rdm,205,769806,0.0-8.88-0.88,1.0,205.0,,,,,,,[],,,,,,50.0,1.0,u,0.0,False,1213.0,71.0,63.0,40.0,False,,324.38159858123197,[],"[512, 384]",ColorTask,63.0,89.0,,,HRV,HRV_0126,2022-11-30 18:50:10
,wl-rdm,206,772723,0.0-8.89-0.89,1.0,206.0,,,,,,,[],,,,,,53.2,1.0,u,0.0,False,1521.0,84.0,63.0,40.0,False,,306.39422251909497,[],"[512, 384]",ColorTask,62.0,90.0,,,HRV,HRV_0126,2022-11-30 18:50:10
,wl-rdm,207,775424,0.0-8.90-0.90,1.0,207.0,,,,,,,[],,,,,,62.5,1.0,u,0.0,False,1312.0,71.0,63.0,40.0,False,,296.71301995607564,[],"[512, 384]",ColorTask,61.0,91.0,,,HRV,HRV_0126,2022-11-30 18:50:10
,wl-rdm,208,777709,0.0-8.91-0.91,1.0,208.0,,,,,,,[],,,,,,50.0,0.0,i,1.0,False,952.0,55.0,63.0,40.0,False,,260.8371592271409,[],"[512, 384]",ColorTask,60.0,92.0,,,HRV,HRV_0126,2022-11-30 18:50:10
,wl-rdm,209,780207,0.0-8.92-0.92,1.0,209.0,,,,,,,[],,,,,,50.0,0.0,i,1.0,False,1108.0,56.0,63.0,40.0,False,,304.9869288979141,[],"[512, 384]",ColorTask,59.0,93.0,,,HRV,HRV_0126,2022-11-30 18:50:10
,wl-rdm,210,782913,0.0-8.93-0.93,1.0,210.0,,,,,,,[],,,,,,53.2,0.0,i,1.0,False,1287.0,69.0,63.0,40.0,False,,343.1015900133479,[],"[512, 384]",ColorTask,58.0,94.0,,,HRV,HRV_0126,2022-11-30 18:50:10
,wl-rdm,211,785107,0.0-8.94-0.94,1.0,211.0,,,,,,,[],,,,,,50.0,0.0,u,0.0,True,759.0,46.0,63.0,40.0,False,,384.6124572573252,[],"[512, 384]",ColorTask,59.0,95.0,,,HRV,HRV_0126,2022-11-30 18:50:10
,wl-rdm,212,787422,0.0-8.95-0.95,1.0,212.0,,,,,,,[],,,,,,56.4,1.0,i,1.0,True,902.0,53.0,63.0,40.0,False,,243.26361043329678,[],"[512, 384]",ColorTask,60.0,96.0,,,HRV,HRV_0126,2022-11-30 18:50:10
,wl-rdm,213,789740,0.0-8.96-0.96,1.0,213.0,,,,,,,[],,,,,,73.6,0.0,u,0.0,True,1012.0,49.0,63.0,40.0,False,,234.26185765902773,[],"[512, 384]",ColorTask,61.0,97.0,,,HRV,HRV_0126,2022-11-30 18:50:10
,wl-rdm,214,792229,0.0-8.97-0.97,1.0,214.0,,,,,,,[],,,,,,56.4,1.0,i,1.0,True,1077.0,53.0,63.0,40.0,False,,318.1649299989646,[],"[512, 384]",ColorTask,62.0,98.0,,,HRV,HRV_0126,2022-11-30 18:50:10
,wl-rdm,215,794605,0.0-8.98-0.98,1.0,215.0,,,,,,,[],,,,,,87.9,1.0,i,1.0,True,993.0,58.0,63.0,40.0,False,,316.64652001713125,[],"[512, 384]",ColorTask,63.0,99.0,,,HRV,HRV_0126,2022-11-30 18:50:10
,wl-rdm,216,797120,0.0-8.99-0.99,1.0,216.0,,,,,,,[],,,,,,73.6,1.0,u,0.0,False,1040.0,60.0,63.0,40.0,False,,393.0021106450196,[],"[512, 384]",ColorTask,62.0,100.0,,,HRV,HRV_0126,2022-11-30 18:50:10
,wl-rdm,217,799306,0.0-8.100-0.100,1.0,217.0,,,,,,,[],,,,,,73.6,1.0,i,1.0,True,778.0,47.0,63.0,40.0,False,,321.2691828685565,[],"[512, 384]",ColorTask,63.0,101.0,,,HRV,HRV_0126,2022-11-30 18:50:10
,wl-rdm,218,801573,0.0-8.101-0.101,1.0,218.0,,,,,,,[],,,,,,62.5,0.0,i,1.0,False,795.0,38.0,63.0,40.0,False,,375.9603397764055,[],"[512, 384]",ColorTask,62.0,102.0,,,HRV,HRV_0126,2022-11-30 18:50:10
,wl-rdm,219,803788,0.0-8.102-0.102,1.0,219.0,,,,,,,[],,,,,,73.6,1.0,i,1.0,True,894.0,53.0,63.0,40.0,False,,226.0022976045287,[],"[512, 384]",ColorTask,63.0,103.0,,,HRV,HRV_0126,2022-11-30 18:50:10
,wl-rdm,220,806072,0.0-8.103-0.103,1.0,220.0,,,,,,,[],,,,,,53.2,0.0,u,0.0,True,964.0,47.0,63.0,40.0,False,,241.3277678561398,[],"[512, 384]",ColorTask,64.0,104.0,,,HRV,HRV_0126,2022-11-30 18:50:10
,wl-rdm,221,808356,0.0-8.104-0.104,1.0,221.0,,,,,,,[],,,,,,50.0,1.0,i,1.0,True,847.0,51.0,63.0,40.0,False,,346.29604326864273,[],"[512, 384]",ColorTask,65.0,105.0,,,HRV,HRV_0126,2022-11-30 18:50:10
,wl-rdm,222,810905,0.0-8.105-0.105,1.0,222.0,,,,,,,[],,,,,,50.0,0.0,i,1.0,False,1224.0,65.0,63.0,40.0,False,,255.07863776264736,[],"[512, 384]",ColorTask,64.0,106.0,,,HRV,HRV_0126,2022-11-30 18:50:10
,wl-rdm,223,813338,0.0-8.106-0.106,1.0,223.0,,,,,,,[],,,,,,53.2,1.0,i,1.0,True,1178.0,71.0,63.0,40.0,False,,205.0983971841814,[],"[512, 384]",ColorTask,65.0,107.0,,,HRV,HRV_0126,2022-11-30 18:50:10
,wl-rdm,224,815602,0.0-8.107-0.107,1.0,224.0,,,,,,,[],,,,,,87.9,1.0,i,1.0,True,887.0,48.0,63.0,40.0,False,,251.3431082537972,[],"[512, 384]",ColorTask,66.0,108.0,,,HRV,HRV_0126,2022-11-30 18:50:10
,wl-html-button-response,225,819308,0.0-9.0-0.0,,,,,,,,,,3677.0,,0,,,,,,,,,,,,,,,,,,,,<h3>End of this session. Thank you!</h3><br>,['Close window'],HRV,HRV_0126,2022-11-30 18:50:10
