trialN,stimuli,trialStartTime,trialStartTime_UNIX,stimulus1,stimulus2,stimulus1Bid,stimulus2Bid,delta,selected,rsp,rt,rt_UNIX,receivedResponse,trialEndTime,trialDuration,trialEndTime_UNIX,trialDuration_UNIX,trialEvents,exp,subjectId,date
0,"[{'imgObject': {}, 'id': 'steak', 'src': '/static/foodstim60/steak.jpg', 'key': 'u', 'origWidth': 410, 'origHeight': 410, 'width': 410, 'height': 410, 'widthPercent': 0.45, 'rescaleHeight': False, 'trialN': 0, 'loaded': True, 'loadedTime': 4820, 'positionName': 'LEFT', 'positionCoords': [81.52, 179], 'bid': 4.88}, {'imgObject': {}, 'id': 'fried eggs', 'src': '/static/foodstim60/fried eggs.jpg', 'key': 'i', 'origWidth': 410, 'origHeight': 410, 'width': 410, 'height': 410, 'widthPercent': 0.45, 'rescaleHeight': False, 'trialN': 0, 'loaded': True, 'loadedTime': 4912, 'positionName': 'RIGHT', 'positionCoords': [532.48, 179], 'bid': 5.15}]",6412,1669831107171,steak,fried eggs,4.88,5.15,0.27000000000000046,NaN,NaN,NaN,NaN,False,10425,4013,1669831111184,4013,,HRV,HRV_0126,2022-11-30 18:11:05
1,"[{'imgObject': {}, 'id': 'seaweed', 'src': '/static/foodstim60/seaweed.jpg', 'key': 'u', 'origWidth': 410, 'origHeight': 410, 'width': 410, 'height': 410, 'widthPercent': 0.45, 'rescaleHeight': False, 'trialN': 1, 'loaded': True, 'loadedTime': 4947, 'positionName': 'LEFT', 'positionCoords': [81.52, 179], 'bid': 4.72}, {'imgObject': {}, 'id': 'steak', 'src': '/static/foodstim60/steak.jpg', 'key': 'i', 'origWidth': 410, 'origHeight': 410, 'width': 410, 'height': 410, 'widthPercent': 0.45, 'rescaleHeight': False, 'trialN': 1, 'loaded': True, 'loadedTime': 4863, 'positionName': 'RIGHT', 'positionCoords': [532.48, 179], 'bid': 4.88}]",10425,1669831111184,seaweed,steak,4.72,4.88,0.16000000000000014,NaN,NaN,NaN,NaN,False,14439,4014,1669831115198,4014,,HRV,HRV_0126,2022-11-30 18:11:05
2,"[{'imgObject': {}, 'id': 'popsicles', 'src': '/static/foodstim60/popsicles.jpg', 'key': 'u', 'origWidth': 410, 'origHeight': 410, 'width': 410, 'height': 410, 'widthPercent': 0.45, 'rescaleHeight': False, 'trialN': 2, 'loaded': True, 'loadedTime': 6395, 'positionName': 'LEFT', 'positionCoords': [81.52, 179], 'bid': 9.25}, {'imgObject': {}, 'id': 'cherry tomato', 'src': '/static/foodstim60/cherry tomato.jpg', 'key': 'i', 'origWidth': 410, 'origHeight': 410, 'width': 410, 'height': 410, 'widthPercent': 0.45, 'rescaleHeight': False, 'trialN': 2, 'loaded': True, 'loadedTime': 4978, 'positionName': 'RIGHT', 'positionCoords': [532.48, 179], 'bid': 6.4}]",14439,1669831115198,popsicles,cherry tomato,9.25,6.4,-2.8499999999999996,NaN,NaN,NaN,NaN,False,18467,4028,1669831119226,4028,,HRV,HRV_0126,2022-11-30 18:11:05
3,"[{'imgObject': {}, 'id': 'granola w milk', 'src': '/static/foodstim60/granola w milk.jpg', 'key': 'u', 'origWidth': 410, 'origHeight': 410, 'width': 410, 'height': 410, 'widthPercent': 0.45, 'rescaleHeight': False, 'trialN': 3, 'loaded': True, 'loadedTime': 5009, 'positionName': 'LEFT', 'positionCoords': [81.52, 179], 'bid': 6.62}, {'imgObject': {}, 'id': 'tacos', 'src': '/static/foodstim60/tacos.jpg', 'key': 'i', 'origWidth': 411, 'origHeight': 411, 'width': 411, 'height': 411, 'widthPercent': 0.45, 'rescaleHeight': False, 'trialN': 3, 'loaded': True, 'loadedTime': 5009, 'positionName': 'RIGHT', 'positionCoords': [532.48, 178.5], 'bid': 8.08}]",18468,1669831119227,granola w milk,tacos,6.62,8.08,1.46,NaN,NaN,NaN,NaN,False,22502,4034,1669831123261,4034,,HRV,HRV_0126,2022-11-30 18:11:05
4,"[{'imgObject': {}, 'id': 'lox', 'src': '/static/foodstim60/lox.jpg', 'key': 'u', 'origWidth': 410, 'origHeight': 411, 'width': 410, 'height': 411, 'widthPercent': 0.45, 'rescaleHeight': False, 'trialN': 4, 'loaded': True, 'loadedTime': 5046, 'positionName': 'LEFT', 'positionCoords': [81.52, 178.5], 'bid': 7.890000000000001}, {'imgObject': {}, 'id': 'Grapes', 'src': '/static/foodstim60/Grapes.jpg', 'key': 'i', 'origWidth': 411, 'origHeight': 411, 'width': 411, 'height': 411, 'widthPercent': 0.45, 'rescaleHeight': False, 'trialN': 4, 'loaded': True, 'loadedTime': 5070, 'positionName': 'RIGHT', 'positionCoords': [532.48, 178.5], 'bid': 8.9}]",22502,1669831123261,lox,Grapes,7.890000000000001,8.9,1.0099999999999998,NaN,NaN,NaN,NaN,False,26528,4026,1669831127287,4026,,HRV,HRV_0126,2022-11-30 18:11:05
5,"[{'imgObject': {}, 'id': 'yogurt no spoon', 'src': '/static/foodstim60/yogurt no spoon.jpg', 'key': 'u', 'origWidth': 411, 'origHeight': 410, 'width': 411, 'height': 410, 'widthPercent': 0.45, 'rescaleHeight': False, 'trialN': 5, 'loaded': True, 'loadedTime': 5096, 'positionName': 'LEFT', 'positionCoords': [80.52, 179], 'bid': 9.21}, {'imgObject': {}, 'id': 'luckycharms', 'src': '/static/foodstim60/luckycharms.jpg', 'key': 'i', 'origWidth': 410, 'origHeight': 409, 'width': 410, 'height': 409, 'widthPercent': 0.45, 'rescaleHeight': False, 'trialN': 5, 'loaded': True, 'loadedTime': 5111, 'positionName': 'RIGHT', 'positionCoords': [532.48, 179.5], 'bid': 8.41}]",26529,1669831127288,yogurt no spoon,luckycharms,9.21,8.41,-0.8000000000000007,NaN,NaN,NaN,NaN,False,30543,4014,1669831131302,4014,,HRV,HRV_0126,2022-11-30 18:11:05
6,"[{'imgObject': {}, 'id': 'shreddedwheatwithmilk', 'src': '/static/foodstim60/shreddedwheatwithmilk.jpg', 'key': 'u', 'origWidth': 410, 'origHeight': 410, 'width': 410, 'height': 410, 'widthPercent': 0.45, 'rescaleHeight': False, 'trialN': 6, 'loaded': True, 'loadedTime': 5142, 'positionName': 'LEFT', 'positionCoords': [81.52, 179], 'bid': 5.87}, {'imgObject': {}, 'id': 'cherry tomato', 'src': '/static/foodstim60/cherry tomato.jpg', 'key': 'i', 'origWidth': 410, 'origHeight': 410, 'width': 410, 'height': 410, 'widthPercent': 0.45, 'rescaleHeight': False, 'trialN': 6, 'loaded': True, 'loadedTime': 4978, 'positionName': 'RIGHT', 'positionCoords': [532.48, 179], 'bid': 6.4}]",30544,1669831131303,shreddedwheatwithmilk,cherry tomato,5.87,6.4,0.5300000000000002,NaN,NaN,NaN,NaN,False,34559,4015,1669831135318,4015,,HRV,HRV_0126,2022-11-30 18:11:05
7,"[{'imgObject': {}, 'id': 'bagel and cc', 'src': '/static/foodstim60/bagel and cc.jpg', 'key': 'u', 'origWidth': 410, 'origHeight': 410, 'width': 410, 'height': 410, 'widthPercent': 0.45, 'rescaleHeight': False, 'trialN': 7, 'loaded': True, 'loadedTime': 5142, 'positionName': 'LEFT', 'positionCoords': [81.52, 179], 'bid': 1.85}, {'imgObject': {}, 'id': 'shreddedwheatwithmilk', 'src': '/static/foodstim60/shreddedwheatwithmilk.jpg', 'key': 'i', 'origWidth': 410, 'origHeight': 410, 'width': 410, 'height': 410, 'widthPercent': 0.45, 'rescaleHeight': False, 'trialN': 7, 'loaded': True, 'loadedTime': 5127, 'positionName': 'RIGHT', 'positionCoords': [532.48, 179], 'bid': 5.87}]",34559,1669831135318,bagel and cc,shreddedwheatwithmilk,1.85,5.87,4.02,NaN,NaN,NaN,NaN,False,38592,4033,1669831139351,4033,,HRV,HRV_0126,2022-11-30 18:11:05
8,"[{'imgObject': {}, 'id': 'turkey sandwich', 'src': '/static/foodstim60/turkey sandwich.jpg', 'key': 'u', 'origWidth': 409, 'origHeight': 409, 'width': 409, 'height': 409, 'widthPercent': 0.45, 'rescaleHeight': False, 'trialN': 8, 'loaded': True, 'loadedTime': 5205, 'positionName': 'LEFT', 'positionCoords': [82.52, 179.5], 'bid': 7.12}, {'imgObject': {}, 'id': 'rigatoni', 'src': '/static/foodstim60/rigatoni.jpg', 'key': 'i', 'origWidth': 411, 'origHeight': 411, 'width': 411, 'height': 411, 'widthPercent': 0.45, 'rescaleHeight': False, 'trialN': 8, 'loaded': True, 'loadedTime': 5205, 'positionName': 'RIGHT', 'positionCoords': [532.48, 178.5], 'bid': 7.77}]",38592,1669831139351,turkey sandwich,rigatoni,7.12,7.77,0.6499999999999995,NaN,NaN,NaN,NaN,False,42620,4028,1669831143379,4028,,HRV,HRV_0126,2022-11-30 18:11:05
9,"[{'imgObject': {}, 'id': 'cocktailshrimp', 'src': '/static/foodstim60/cocktailshrimp.jpg', 'key': 'u', 'origWidth': 410, 'origHeight': 410, 'width': 410, 'height': 410, 'widthPercent': 0.45, 'rescaleHeight': False, 'trialN': 9, 'loaded': True, 'loadedTime': 5236, 'positionName': 'LEFT', 'positionCoords': [81.52, 179], 'bid': 6.95}, {'imgObject': {}, 'id': 'lox', 'src': '/static/foodstim60/lox.jpg', 'key': 'i', 'origWidth': 410, 'origHeight': 411, 'width': 410, 'height': 411, 'widthPercent': 0.45, 'rescaleHeight': False, 'trialN': 9, 'loaded': True, 'loadedTime': 5025, 'positionName': 'RIGHT', 'positionCoords': [532.48, 178.5], 'bid': 7.890000000000001}]",42621,1669831143380,cocktailshrimp,lox,6.95,7.890000000000001,0.9400000000000004,NaN,NaN,NaN,NaN,False,46653,4032,1669831147412,4032,,HRV,HRV_0126,2022-11-30 18:11:05
10,"[{'imgObject': {}, 'id': 'burger', 'src': '/static/foodstim60/burger.jpg', 'key': 'u', 'origWidth': 409, 'origHeight': 409, 'width': 409, 'height': 409, 'widthPercent': 0.45, 'rescaleHeight': False, 'trialN': 10, 'loaded': True, 'loadedTime': 5236, 'positionName': 'LEFT', 'positionCoords': [82.52, 179.5], 'bid': 4.92}, {'imgObject': {}, 'id': 'cherries', 'src': '/static/foodstim60/cherries.jpg', 'key': 'i', 'origWidth': 410, 'origHeight': 411, 'width': 410, 'height': 411, 'widthPercent': 0.45, 'rescaleHeight': False, 'trialN': 10, 'loaded': True, 'loadedTime': 5252, 'positionName': 'RIGHT', 'positionCoords': [532.48, 178.5], 'bid': 6.58}]",46653,1669831147412,burger,cherries,4.92,6.58,1.6600000000000001,NaN,NaN,NaN,NaN,False,50754,4101,1669831151513,4101,,HRV,HRV_0126,2022-11-30 18:11:05
11,"[{'imgObject': {}, 'id': 'pear', 'src': '/static/foodstim60/pear.jpg', 'key': 'u', 'origWidth': 411, 'origHeight': 410, 'width': 411, 'height': 410, 'widthPercent': 0.45, 'rescaleHeight': False, 'trialN': 11, 'loaded': True, 'loadedTime': 5268, 'positionName': 'LEFT', 'positionCoords': [80.52, 179], 'bid': 7.79}, {'imgObject': {}, 'id': 'burrito', 'src': '/static/foodstim60/burrito.jpg', 'key': 'i', 'origWidth': 410, 'origHeight': 410, 'width': 410, 'height': 410, 'widthPercent': 0.45, 'rescaleHeight': False, 'trialN': 11, 'loaded': True, 'loadedTime': 5330, 'positionName': 'RIGHT', 'positionCoords': [532.48, 179], 'bid': 2.32}]",50754,1669831151513,pear,burrito,7.79,2.32,-5.470000000000001,NaN,NaN,NaN,NaN,False,54776,4022,1669831155535,4022,,HRV,HRV_0126,2022-11-30 18:11:05
12,"[{'imgObject': {}, 'id': 'cantaloupe', 'src': '/static/foodstim60/cantaloupe.jpg', 'key': 'u', 'origWidth': 409, 'origHeight': 409, 'width': 409, 'height': 409, 'widthPercent': 0.45, 'rescaleHeight': False, 'trialN': 12, 'loaded': True, 'loadedTime': 5346, 'positionName': 'LEFT', 'positionCoords': [82.52, 179.5], 'bid': 9}, {'imgObject': {}, 'id': 'Grapes', 'src': '/static/foodstim60/Grapes.jpg', 'key': 'i', 'origWidth': 411, 'origHeight': 411, 'width': 411, 'height': 411, 'widthPercent': 0.45, 'rescaleHeight': False, 'trialN': 12, 'loaded': True, 'loadedTime': 5058, 'positionName': 'RIGHT', 'positionCoords': [532.48, 178.5], 'bid': 8.9}]",54777,1669831155536,cantaloupe,Grapes,9.0,8.9,-0.09999999999999964,NaN,NaN,NaN,NaN,False,58811,4034,1669831159570,4034,,HRV,HRV_0126,2022-11-30 18:11:05
13,"[{'imgObject': {}, 'id': 'fried eggs', 'src': '/static/foodstim60/fried eggs.jpg', 'key': 'u', 'origWidth': 410, 'origHeight': 410, 'width': 410, 'height': 410, 'widthPercent': 0.45, 'rescaleHeight': False, 'trialN': 13, 'loaded': True, 'loadedTime': 4915, 'positionName': 'LEFT', 'positionCoords': [81.52, 179], 'bid': 5.15}, {'imgObject': {}, 'id': 'chicken nuggets2', 'src': '/static/foodstim60/chicken nuggets2.jpg', 'key': 'i', 'origWidth': 410, 'origHeight': 409, 'width': 410, 'height': 409, 'widthPercent': 0.45, 'rescaleHeight': False, 'trialN': 13, 'loaded': True, 'loadedTime': 5392, 'positionName': 'RIGHT', 'positionCoords': [532.48, 179.5], 'bid': 3.73}]",58811,1669831159570,fried eggs,chicken nuggets2,5.15,3.73,-1.4200000000000004,NaN,NaN,NaN,NaN,False,62838,4027,1669831163597,4027,,HRV,HRV_0126,2022-11-30 18:11:05
14,"[{'imgObject': {}, 'id': 'burrito', 'src': '/static/foodstim60/burrito.jpg', 'key': 'u', 'origWidth': 410, 'origHeight': 410, 'width': 410, 'height': 410, 'widthPercent': 0.45, 'rescaleHeight': False, 'trialN': 14, 'loaded': True, 'loadedTime': 5330, 'positionName': 'LEFT', 'positionCoords': [81.52, 179], 'bid': 2.32}, {'imgObject': {}, 'id': 'mac & cheese', 'src': '/static/foodstim60/mac & cheese.jpg', 'key': 'i', 'origWidth': 410, 'origHeight': 410, 'width': 410, 'height': 410, 'widthPercent': 0.45, 'rescaleHeight': False, 'trialN': 14, 'loaded': True, 'loadedTime': 5424, 'positionName': 'RIGHT', 'positionCoords': [532.48, 179], 'bid': 5.3500000000000005}]",62838,1669831163597,burrito,mac & cheese,2.32,5.3500000000000005,3.0300000000000007,NaN,NaN,NaN,NaN,False,66855,4017,1669831167614,4017,,HRV,HRV_0126,2022-11-30 18:11:05
15,"[{'imgObject': {}, 'id': 'blueberries', 'src': '/static/foodstim60/blueberries.jpg', 'key': 'u', 'origWidth': 411, 'origHeight': 411, 'width': 411, 'height': 411, 'widthPercent': 0.45, 'rescaleHeight': False, 'trialN': 15, 'loaded': True, 'loadedTime': 5481, 'positionName': 'LEFT', 'positionCoords': [80.52, 178.5], 'bid': 9.96}, {'imgObject': {}, 'id': 'Grapes', 'src': '/static/foodstim60/Grapes.jpg', 'key': 'i', 'origWidth': 411, 'origHeight': 411, 'width': 411, 'height': 411, 'widthPercent': 0.45, 'rescaleHeight': False, 'trialN': 15, 'loaded': True, 'loadedTime': 5052, 'positionName': 'RIGHT', 'positionCoords': [532.48, 178.5], 'bid': 8.9}]",66855,1669831167614,blueberries,Grapes,9.96,8.9,-1.0600000000000005,NaN,NaN,NaN,NaN,False,70884,4029,1669831171643,4029,,HRV,HRV_0126,2022-11-30 18:11:05
16,"[{'imgObject': {}, 'id': 'Tribe humus pita', 'src': '/static/foodstim60/Tribe humus pita.jpg', 'key': 'u', 'origWidth': 411, 'origHeight': 411, 'width': 411, 'height': 411, 'widthPercent': 0.45, 'rescaleHeight': False, 'trialN': 16, 'loaded': True, 'loadedTime': 5497, 'positionName': 'LEFT', 'positionCoords': [80.52, 178.5], 'bid': 5.54}, {'imgObject': {}, 'id': 'hotdog w must', 'src': '/static/foodstim60/hotdog w must.jpg', 'key': 'i', 'origWidth': 409, 'origHeight': 409, 'width': 409, 'height': 409, 'widthPercent': 0.45, 'rescaleHeight': False, 'trialN': 16, 'loaded': True, 'loadedTime': 5513, 'positionName': 'RIGHT', 'positionCoords': [532.48, 179.5], 'bid': 5.8}]",70884,1669831171643,Tribe humus pita,hotdog w must,5.54,5.8,0.2599999999999998,NaN,NaN,NaN,NaN,False,74921,4037,1669831175680,4037,,HRV,HRV_0126,2022-11-30 18:11:05
17,"[{'imgObject': {}, 'id': 'Tribe humus pita', 'src': '/static/foodstim60/Tribe humus pita.jpg', 'key': 'u', 'origWidth': 411, 'origHeight': 411, 'width': 411, 'height': 411, 'widthPercent': 0.45, 'rescaleHeight': False, 'trialN': 17, 'loaded': True, 'loadedTime': 5497, 'positionName': 'LEFT', 'positionCoords': [80.52, 178.5], 'bid': 5.54}, {'imgObject': {}, 'id': 'salmon', 'src': '/static/foodstim60/salmon.jpg', 'key': 'i', 'origWidth': 410, 'origHeight': 409, 'width': 410, 'height': 409, 'widthPercent': 0.45, 'rescaleHeight': False, 'trialN': 17, 'loaded': True, 'loadedTime': 5528, 'positionName': 'RIGHT', 'positionCoords': [532.48, 179.5], 'bid': 8.69}]",74921,1669831175680,Tribe humus pita,salmon,5.54,8.69,3.1499999999999995,NaN,NaN,NaN,NaN,False,78933,4012,1669831179692,4012,,HRV,HRV_0126,2022-11-30 18:11:05
18,"[{'imgObject': {}, 'id': 'raspberries', 'src': '/static/foodstim60/raspberries.jpg', 'key': 'u', 'origWidth': 411, 'origHeight': 411, 'width': 411, 'height': 411, 'widthPercent': 0.45, 'rescaleHeight': False, 'trialN': 18, 'loaded': True, 'loadedTime': 5528, 'positionName': 'LEFT', 'positionCoords': [80.52, 178.5], 'bid': 8.57}, {'imgObject': {}, 'id': 'popsicles', 'src': '/static/foodstim60/popsicles.jpg', 'key': 'i', 'origWidth': 410, 'origHeight': 410, 'width': 410, 'height': 410, 'widthPercent': 0.45, 'rescaleHeight': False, 'trialN': 18, 'loaded': True, 'loadedTime': 6395, 'positionName': 'RIGHT', 'positionCoords': [532.48, 179], 'bid': 9.25}]",78933,1669831179692,raspberries,popsicles,8.57,9.25,0.6799999999999997,NaN,NaN,NaN,NaN,False,83055,4122,1669831183814,4122,,HRV,HRV_0126,2022-11-30 18:11:05
19,"[{'imgObject': {}, 'id': 'mashed potato', 'src': '/static/foodstim60/mashed potato.jpg', 'key': 'u', 'origWidth': 409, 'origHeight': 409, 'width': 409, 'height': 409, 'widthPercent': 0.45, 'rescaleHeight': False, 'trialN': 19, 'loaded': True, 'loadedTime': 5544, 'positionName': 'LEFT', 'positionCoords': [82.52, 179.5], 'bid': 7.890000000000001}, {'imgObject': {}, 'id': 'baked potato', 'src': '/static/foodstim60/baked potato.jpg', 'key': 'i', 'origWidth': 409, 'origHeight': 410, 'width': 409, 'height': 410, 'widthPercent': 0.45, 'rescaleHeight': False, 'trialN': 19, 'loaded': True, 'loadedTime': 5575, 'positionName': 'RIGHT', 'positionCoords': [532.48, 179], 'bid': 3.28}]",83055,1669831183814,mashed potato,baked potato,7.890000000000001,3.28,-4.610000000000001,NaN,NaN,NaN,NaN,False,87085,4030,1669831187844,4030,,HRV,HRV_0126,2022-11-30 18:11:05
20,"[{'imgObject': {}, 'id': 'steak', 'src': '/static/foodstim60/steak.jpg', 'key': 'u', 'origWidth': 410, 'origHeight': 410, 'width': 410, 'height': 410, 'widthPercent': 0.45, 'rescaleHeight': False, 'trialN': 20, 'loaded': True, 'loadedTime': 4873, 'positionName': 'LEFT', 'positionCoords': [81.52, 179], 'bid': 4.88}, {'imgObject': {}, 'id': 'turkeysandwich', 'src': '/static/foodstim60/turkeysandwich.jpg', 'key': 'i', 'origWidth': 409, 'origHeight': 409, 'width': 409, 'height': 409, 'widthPercent': 0.45, 'rescaleHeight': False, 'trialN': 20, 'loaded': True, 'loadedTime': 5591, 'positionName': 'RIGHT', 'positionCoords': [532.48, 179.5], 'bid': 3.1}]",87088,1669831187847,steak,turkeysandwich,4.88,3.1,-1.7799999999999998,NaN,NaN,NaN,NaN,False,92227,5139,1669831192986,5139,"[{'event': 'onblur', 'details': 'out of focus', 'performance time': 88203, 'date time': 1669831188962}, {'event': 'visibilitychange', 'details': 'hidden', 'performance time': 88247, 'date time': 1669831189006}]",HRV,HRV_0126,2022-11-30 18:11:05
21,"[{'imgObject': {}, 'id': 'ice cream sundae 002', 'src': '/static/foodstim60/ice cream sundae 002.jpg', 'key': 'u', 'origWidth': 409, 'origHeight': 409, 'width': 409, 'height': 409, 'widthPercent': 0.45, 'rescaleHeight': False, 'trialN': 21, 'loaded': True, 'loadedTime': 5610, 'positionName': 'LEFT', 'positionCoords': [82.52, 179.5], 'bid': 8.96}, {'imgObject': {}, 'id': 'sushi w_condiments', 'src': '/static/foodstim60/sushi w_condiments.jpg', 'key': 'i', 'origWidth': 410, 'origHeight': 410, 'width': 410, 'height': 410, 'widthPercent': 0.45, 'rescaleHeight': False, 'trialN': 21, 'loaded': True, 'loadedTime': 5623, 'positionName': 'RIGHT', 'positionCoords': [532.48, 179], 'bid': 6.17}]",92227,1669831192986,ice cream sundae 002,sushi w_condiments,8.96,6.17,-2.790000000000001,NaN,NaN,NaN,NaN,False,97214,4987,1669831197973,4987,,HRV,HRV_0126,2022-11-30 18:11:05
22,"[{'imgObject': {}, 'id': 'cantaloupe', 'src': '/static/foodstim60/cantaloupe.jpg', 'key': 'u', 'origWidth': 409, 'origHeight': 409, 'width': 409, 'height': 409, 'widthPercent': 0.45, 'rescaleHeight': False, 'trialN': 22, 'loaded': True, 'loadedTime': 5361, 'positionName': 'LEFT', 'positionCoords': [82.52, 179.5], 'bid': 9}, {'imgObject': {}, 'id': 'yogurt no spoon', 'src': '/static/foodstim60/yogurt no spoon.jpg', 'key': 'i', 'origWidth': 411, 'origHeight': 410, 'width': 411, 'height': 410, 'widthPercent': 0.45, 'rescaleHeight': False, 'trialN': 22, 'loaded': True, 'loadedTime': 5096, 'positionName': 'RIGHT', 'positionCoords': [532.48, 179], 'bid': 9.21}]",97214,1669831197973,cantaloupe,yogurt no spoon,9.0,9.21,0.21000000000000085,NaN,NaN,NaN,NaN,False,102227,5013,1669831202986,5013,,HRV,HRV_0126,2022-11-30 18:11:05
23,"[{'imgObject': {}, 'id': 'fried eggs', 'src': '/static/foodstim60/fried eggs.jpg', 'key': 'u', 'origWidth': 410, 'origHeight': 410, 'width': 410, 'height': 410, 'widthPercent': 0.45, 'rescaleHeight': False, 'trialN': 23, 'loaded': True, 'loadedTime': 4915, 'positionName': 'LEFT', 'positionCoords': [81.52, 179], 'bid': 5.15}, {'imgObject': {}, 'id': 'burger', 'src': '/static/foodstim60/burger.jpg', 'key': 'i', 'origWidth': 409, 'origHeight': 409, 'width': 409, 'height': 409, 'widthPercent': 0.45, 'rescaleHeight': False, 'trialN': 23, 'loaded': True, 'loadedTime': 5236, 'positionName': 'RIGHT', 'positionCoords': [532.48, 179.5], 'bid': 4.92}]",102227,1669831202986,fried eggs,burger,5.15,4.92,-0.23000000000000043,NaN,NaN,NaN,NaN,False,107216,4989,1669831207975,4989,,HRV,HRV_0126,2022-11-30 18:11:05
24,"[{'imgObject': {}, 'id': 'edamame', 'src': '/static/foodstim60/edamame.jpg', 'key': 'u', 'origWidth': 409, 'origHeight': 410, 'width': 409, 'height': 410, 'widthPercent': 0.45, 'rescaleHeight': False, 'trialN': 24, 'loaded': True, 'loadedTime': 5638, 'positionName': 'LEFT', 'positionCoords': [82.52, 179], 'bid': 8.75}, {'imgObject': {}, 'id': 'orange slices', 'src': '/static/foodstim60/orange slices.jpg', 'key': 'i', 'origWidth': 409, 'origHeight': 410, 'width': 409, 'height': 410, 'widthPercent': 0.45, 'rescaleHeight': False, 'trialN': 24, 'loaded': True, 'loadedTime': 5669, 'positionName': 'RIGHT', 'positionCoords': [532.48, 179], 'bid': 9.76}]",107216,1669831207975,edamame,orange slices,8.75,9.76,1.0099999999999998,NaN,NaN,NaN,NaN,False,112226,5010,1669831212985,5010,,HRV,HRV_0126,2022-11-30 18:11:05
25,"[{'imgObject': {}, 'id': 'turkey sandwich', 'src': '/static/foodstim60/turkey sandwich.jpg', 'key': 'u', 'origWidth': 409, 'origHeight': 409, 'width': 409, 'height': 409, 'widthPercent': 0.45, 'rescaleHeight': False, 'trialN': 25, 'loaded': True, 'loadedTime': 5189, 'positionName': 'LEFT', 'positionCoords': [82.52, 179.5], 'bid': 7.12}, {'imgObject': {}, 'id': 'banana', 'src': '/static/foodstim60/banana.jpg', 'key': 'i', 'origWidth': 410, 'origHeight': 410, 'width': 410, 'height': 410, 'widthPercent': 0.45, 'rescaleHeight': False, 'trialN': 25, 'loaded': True, 'loadedTime': 5684, 'positionName': 'RIGHT', 'positionCoords': [532.48, 179], 'bid': 10}]",112226,1669831212985,turkey sandwich,banana,7.12,10.0,2.88,NaN,NaN,NaN,NaN,False,117229,5003,1669831217988,5003,,HRV,HRV_0126,2022-11-30 18:11:05
26,"[{'imgObject': {}, 'id': 'omelette', 'src': '/static/foodstim60/omelette.jpg', 'key': 'u', 'origWidth': 410, 'origHeight': 409, 'width': 410, 'height': 409, 'widthPercent': 0.45, 'rescaleHeight': False, 'trialN': 26, 'loaded': True, 'loadedTime': 5731, 'positionName': 'LEFT', 'positionCoords': [81.52, 179.5], 'bid': 4.47}, {'imgObject': {}, 'id': 'cherry tomato', 'src': '/static/foodstim60/cherry tomato.jpg', 'key': 'i', 'origWidth': 410, 'origHeight': 410, 'width': 410, 'height': 410, 'widthPercent': 0.45, 'rescaleHeight': False, 'trialN': 26, 'loaded': True, 'loadedTime': 4962, 'positionName': 'RIGHT', 'positionCoords': [532.48, 179], 'bid': 6.4}]",117229,1669831217988,omelette,cherry tomato,4.47,6.4,1.9300000000000006,NaN,NaN,NaN,NaN,False,122216,4987,1669831222976,4988,,HRV,HRV_0126,2022-11-30 18:11:05
27,"[{'imgObject': {}, 'id': 'rigatoni and sauce', 'src': '/static/foodstim60/rigatoni and sauce.jpg', 'key': 'u', 'origWidth': 410, 'origHeight': 411, 'width': 410, 'height': 411, 'widthPercent': 0.45, 'rescaleHeight': False, 'trialN': 27, 'loaded': True, 'loadedTime': 5731, 'positionName': 'LEFT', 'positionCoords': [81.52, 178.5], 'bid': 6.5}, {'imgObject': {}, 'id': 'roastedpotatoes', 'src': '/static/foodstim60/roastedpotatoes.jpg', 'key': 'i', 'origWidth': 409, 'origHeight': 410, 'width': 409, 'height': 410, 'widthPercent': 0.45, 'rescaleHeight': False, 'trialN': 27, 'loaded': True, 'loadedTime': 5747, 'positionName': 'RIGHT', 'positionCoords': [532.48, 179], 'bid': 5.87}]",122220,1669831222980,rigatoni and sauce,roastedpotatoes,6.5,5.87,-0.6299999999999999,NaN,NaN,NaN,NaN,False,127227,5007,1669831227987,5007,,HRV,HRV_0126,2022-11-30 18:11:05
28,"[{'imgObject': {}, 'id': 'eggsalad', 'src': '/static/foodstim60/eggsalad.jpg', 'key': 'u', 'origWidth': 410, 'origHeight': 409, 'width': 410, 'height': 409, 'widthPercent': 0.45, 'rescaleHeight': False, 'trialN': 28, 'loaded': True, 'loadedTime': 5763, 'positionName': 'LEFT', 'positionCoords': [81.52, 179.5], 'bid': 8.2}, {'imgObject': {}, 'id': 'omelette', 'src': '/static/foodstim60/omelette.jpg', 'key': 'i', 'origWidth': 410, 'origHeight': 409, 'width': 410, 'height': 409, 'widthPercent': 0.45, 'rescaleHeight': False, 'trialN': 28, 'loaded': True, 'loadedTime': 5684, 'positionName': 'RIGHT', 'positionCoords': [532.48, 179.5], 'bid': 4.47}]",127227,1669831227987,eggsalad,omelette,8.2,4.47,-3.7299999999999995,NaN,NaN,NaN,NaN,False,132224,4997,1669831232984,4997,,HRV,HRV_0126,2022-11-30 18:11:05
29,"[{'imgObject': {}, 'id': 'yogurt no spoon', 'src': '/static/foodstim60/yogurt no spoon.jpg', 'key': 'u', 'origWidth': 411, 'origHeight': 410, 'width': 411, 'height': 410, 'widthPercent': 0.45, 'rescaleHeight': False, 'trialN': 29, 'loaded': True, 'loadedTime': 5080, 'positionName': 'LEFT', 'positionCoords': [80.52, 179], 'bid': 9.21}, {'imgObject': {}, 'id': 'tacos', 'src': '/static/foodstim60/tacos.jpg', 'key': 'i', 'origWidth': 411, 'origHeight': 411, 'width': 411, 'height': 411, 'widthPercent': 0.45, 'rescaleHeight': False, 'trialN': 29, 'loaded': True, 'loadedTime': 5025, 'positionName': 'RIGHT', 'positionCoords': [532.48, 178.5], 'bid': 8.08}]",132224,1669831232984,yogurt no spoon,tacos,9.21,8.08,-1.1300000000000008,NaN,NaN,NaN,NaN,False,137510,5286,1669831238270,5286,"[{'event': 'onfocus', 'details': 'in focus', 'performance time': 136914, 'date time': 1669831237674}, {'event': 'visibilitychange', 'details': 'visible', 'performance time': 136944, 'date time': 1669831237704}]",HRV,HRV_0126,2022-11-30 18:11:05
30,"[{'imgObject': {}, 'id': 'raspberries', 'src': '/static/foodstim60/raspberries.jpg', 'key': 'u', 'origWidth': 411, 'origHeight': 411, 'width': 411, 'height': 411, 'widthPercent': 0.45, 'rescaleHeight': False, 'trialN': 30, 'loaded': True, 'loadedTime': 5528, 'positionName': 'LEFT', 'positionCoords': [80.52, 178.5], 'bid': 8.57}, {'imgObject': {}, 'id': 'raisin bran w milk', 'src': '/static/foodstim60/raisin bran w milk.jpg', 'key': 'i', 'origWidth': 411, 'origHeight': 411, 'width': 411, 'height': 411, 'widthPercent': 0.45, 'rescaleHeight': False, 'trialN': 30, 'loaded': True, 'loadedTime': 5778, 'positionName': 'RIGHT', 'positionCoords': [532.48, 178.5], 'bid': 8.33}]",137511,1669831238271,raspberries,raisin bran w milk,8.57,8.33,-0.2400000000000002,NaN,NaN,NaN,NaN,False,141519,4008,1669831242279,4008,,HRV,HRV_0126,2022-11-30 18:11:05
31,"[{'imgObject': {}, 'id': 'orange slices', 'src': '/static/foodstim60/orange slices.jpg', 'key': 'u', 'origWidth': 409, 'origHeight': 410, 'width': 409, 'height': 410, 'widthPercent': 0.45, 'rescaleHeight': False, 'trialN': 31, 'loaded': True, 'loadedTime': 5669, 'positionName': 'LEFT', 'positionCoords': [82.52, 179], 'bid': 9.76}, {'imgObject': {}, 'id': 'eggs', 'src': '/static/foodstim60/eggs.jpg', 'key': 'i', 'origWidth': 409, 'origHeight': 409, 'width': 409, 'height': 409, 'widthPercent': 0.45, 'rescaleHeight': False, 'trialN': 31, 'loaded': True, 'loadedTime': 5794, 'positionName': 'RIGHT', 'positionCoords': [532.48, 179.5], 'bid': 9.29}]",141520,1669831242280,orange slices,eggs,9.76,9.29,-0.47000000000000064,NaN,NaN,NaN,NaN,False,145535,4015,1669831246295,4015,,HRV,HRV_0126,2022-11-30 18:11:05
32,"[{'imgObject': {}, 'id': 'eggsalad', 'src': '/static/foodstim60/eggsalad.jpg', 'key': 'u', 'origWidth': 410, 'origHeight': 409, 'width': 410, 'height': 409, 'widthPercent': 0.45, 'rescaleHeight': False, 'trialN': 32, 'loaded': True, 'loadedTime': 5763, 'positionName': 'LEFT', 'positionCoords': [81.52, 179.5], 'bid': 8.2}, {'imgObject': {}, 'id': 'salmon', 'src': '/static/foodstim60/salmon.jpg', 'key': 'i', 'origWidth': 410, 'origHeight': 409, 'width': 410, 'height': 409, 'widthPercent': 0.45, 'rescaleHeight': False, 'trialN': 32, 'loaded': True, 'loadedTime': 5513, 'positionName': 'RIGHT', 'positionCoords': [532.48, 179.5], 'bid': 8.69}]",145535,1669831246295,eggsalad,salmon,8.2,8.69,0.4900000000000002,NaN,NaN,NaN,NaN,False,149571,4036,1669831250331,4036,,HRV,HRV_0126,2022-11-30 18:11:05
33,"[{'imgObject': {}, 'id': 'banana', 'src': '/static/foodstim60/banana.jpg', 'key': 'u', 'origWidth': 410, 'origHeight': 410, 'width': 410, 'height': 410, 'widthPercent': 0.45, 'rescaleHeight': False, 'trialN': 33, 'loaded': True, 'loadedTime': 5669, 'positionName': 'LEFT', 'positionCoords': [81.52, 179], 'bid': 10}, {'imgObject': {}, 'id': 'fruitsalad', 'src': '/static/foodstim60/fruitsalad.jpg', 'key': 'i', 'origWidth': 410, 'origHeight': 410, 'width': 410, 'height': 410, 'widthPercent': 0.45, 'rescaleHeight': False, 'trialN': 33, 'loaded': True, 'loadedTime': 5794, 'positionName': 'RIGHT', 'positionCoords': [532.48, 179], 'bid': 8.69}]",149572,1669831250332,banana,fruitsalad,10.0,8.69,-1.3100000000000005,NaN,NaN,NaN,NaN,False,153581,4009,1669831254341,4009,,HRV,HRV_0126,2022-11-30 18:11:05
34,"[{'imgObject': {}, 'id': 'cantaloupe', 'src': '/static/foodstim60/cantaloupe.jpg', 'key': 'u', 'origWidth': 409, 'origHeight': 409, 'width': 409, 'height': 409, 'widthPercent': 0.45, 'rescaleHeight': False, 'trialN': 34, 'loaded': True, 'loadedTime': 5361, 'positionName': 'LEFT', 'positionCoords': [82.52, 179.5], 'bid': 9}, {'imgObject': {}, 'id': 'chickenfingers', 'src': '/static/foodstim60/chickenfingers.jpg', 'key': 'i', 'origWidth': 410, 'origHeight': 410, 'width': 410, 'height': 410, 'widthPercent': 0.45, 'rescaleHeight': False, 'trialN': 34, 'loaded': True, 'loadedTime': 5825, 'positionName': 'RIGHT', 'positionCoords': [532.48, 179], 'bid': 6.19}]",153581,1669831254341,cantaloupe,chickenfingers,9.0,6.19,-2.8099999999999996,NaN,NaN,NaN,NaN,False,157590,4009,1669831258350,4009,,HRV,HRV_0126,2022-11-30 18:11:05
35,"[{'imgObject': {}, 'id': 'seaweed', 'src': '/static/foodstim60/seaweed.jpg', 'key': 'u', 'origWidth': 410, 'origHeight': 410, 'width': 410, 'height': 410, 'widthPercent': 0.45, 'rescaleHeight': False, 'trialN': 35, 'loaded': True, 'loadedTime': 4931, 'positionName': 'LEFT', 'positionCoords': [81.52, 179], 'bid': 4.72}, {'imgObject': {}, 'id': 'rigatoni and sauce', 'src': '/static/foodstim60/rigatoni and sauce.jpg', 'key': 'i', 'origWidth': 410, 'origHeight': 411, 'width': 410, 'height': 411, 'widthPercent': 0.45, 'rescaleHeight': False, 'trialN': 35, 'loaded': True, 'loadedTime': 5731, 'positionName': 'RIGHT', 'positionCoords': [532.48, 178.5], 'bid': 6.5}]",157590,1669831258350,seaweed,rigatoni and sauce,4.72,6.5,1.7800000000000002,NaN,NaN,NaN,NaN,False,161599,4009,1669831262359,4009,,HRV,HRV_0126,2022-11-30 18:11:05
36,"[{'imgObject': {}, 'id': 'sweetpotato', 'src': '/static/foodstim60/sweetpotato.jpg', 'key': 'u', 'origWidth': 410, 'origHeight': 410, 'width': 410, 'height': 410, 'widthPercent': 0.45, 'rescaleHeight': False, 'trialN': 36, 'loaded': True, 'loadedTime': 5825, 'positionName': 'LEFT', 'positionCoords': [81.52, 179], 'bid': 4.04}, {'imgObject': {}, 'id': 'tacos', 'src': '/static/foodstim60/tacos.jpg', 'key': 'i', 'origWidth': 411, 'origHeight': 411, 'width': 411, 'height': 411, 'widthPercent': 0.45, 'rescaleHeight': False, 'trialN': 36, 'loaded': True, 'loadedTime': 5009, 'positionName': 'RIGHT', 'positionCoords': [532.48, 178.5], 'bid': 8.08}]",161599,1669831262359,sweetpotato,tacos,4.04,8.08,4.04,NaN,NaN,NaN,NaN,False,165607,4008,1669831266367,4008,,HRV,HRV_0126,2022-11-30 18:11:05
37,"[{'imgObject': {}, 'id': 'eggsalad', 'src': '/static/foodstim60/eggsalad.jpg', 'key': 'u', 'origWidth': 410, 'origHeight': 409, 'width': 410, 'height': 409, 'widthPercent': 0.45, 'rescaleHeight': False, 'trialN': 37, 'loaded': True, 'loadedTime': 5763, 'positionName': 'LEFT', 'positionCoords': [81.52, 179.5], 'bid': 8.2}, {'imgObject': {}, 'id': 'cheerios', 'src': '/static/foodstim60/cheerios.jpg', 'key': 'i', 'origWidth': 409, 'origHeight': 410, 'width': 409, 'height': 410, 'widthPercent': 0.45, 'rescaleHeight': False, 'trialN': 37, 'loaded': True, 'loadedTime': 5856, 'positionName': 'RIGHT', 'positionCoords': [532.48, 179], 'bid': 8.3}]",165607,1669831266367,eggsalad,cheerios,8.2,8.3,0.10000000000000142,NaN,NaN,NaN,NaN,False,169614,4007,1669831270374,4007,,HRV,HRV_0126,2022-11-30 18:11:05
38,"[{'imgObject': {}, 'id': 'banana', 'src': '/static/foodstim60/banana.jpg', 'key': 'u', 'origWidth': 410, 'origHeight': 410, 'width': 410, 'height': 410, 'widthPercent': 0.45, 'rescaleHeight': False, 'trialN': 38, 'loaded': True, 'loadedTime': 5684, 'positionName': 'LEFT', 'positionCoords': [81.52, 179], 'bid': 10}, {'imgObject': {}, 'id': 'apple slices', 'src': '/static/foodstim60/apple slices.jpg', 'key': 'i', 'origWidth': 409, 'origHeight': 410, 'width': 409, 'height': 410, 'widthPercent': 0.45, 'rescaleHeight': False, 'trialN': 38, 'loaded': True, 'loadedTime': 5856, 'positionName': 'RIGHT', 'positionCoords': [532.48, 179], 'bid': 9.27}]",169616,1669831270376,banana,apple slices,10.0,9.27,-0.7300000000000004,NaN,NaN,NaN,NaN,False,173629,4013,1669831274389,4013,,HRV,HRV_0126,2022-11-30 18:11:05
39,"[{'imgObject': {}, 'id': 'popsicles', 'src': '/static/foodstim60/popsicles.jpg', 'key': 'u', 'origWidth': 410, 'origHeight': 410, 'width': 410, 'height': 410, 'widthPercent': 0.45, 'rescaleHeight': False, 'trialN': 39, 'loaded': True, 'loadedTime': 6395, 'positionName': 'LEFT', 'positionCoords': [81.52, 179], 'bid': 9.25}, {'imgObject': {}, 'id': 'apple slices', 'src': '/static/foodstim60/apple slices.jpg', 'key': 'i', 'origWidth': 409, 'origHeight': 410, 'width': 409, 'height': 410, 'widthPercent': 0.45, 'rescaleHeight': False, 'trialN': 39, 'loaded': True, 'loadedTime': 5856, 'positionName': 'RIGHT', 'positionCoords': [532.48, 179], 'bid': 9.27}]",173630,1669831274390,popsicles,apple slices,9.25,9.27,0.019999999999999574,NaN,NaN,NaN,NaN,False,177664,4034,1669831278424,4034,,HRV,HRV_0126,2022-11-30 18:11:05
40,"[{'imgObject': {}, 'id': 'salad w chicken', 'src': '/static/foodstim60/salad w chicken.jpg', 'key': 'u', 'origWidth': 411, 'origHeight': 411, 'width': 411, 'height': 411, 'widthPercent': 0.45, 'rescaleHeight': False, 'trialN': 40, 'loaded': True, 'loadedTime': 5856, 'positionName': 'LEFT', 'positionCoords': [80.52, 178.5], 'bid': 5.99}, {'imgObject': {}, 'id': 'Grapes', 'src': '/static/foodstim60/Grapes.jpg', 'key': 'i', 'origWidth': 411, 'origHeight': 411, 'width': 411, 'height': 411, 'widthPercent': 0.45, 'rescaleHeight': False, 'trialN': 40, 'loaded': True, 'loadedTime': 5080, 'positionName': 'RIGHT', 'positionCoords': [532.48, 178.5], 'bid': 8.9}]",177664,1669831278424,salad w chicken,Grapes,5.99,8.9,2.91,NaN,NaN,NaN,NaN,False,181692,4028,1669831282453,4029,,HRV,HRV_0126,2022-11-30 18:11:05
41,"[{'imgObject': {}, 'id': 'cherries', 'src': '/static/foodstim60/cherries.jpg', 'key': 'u', 'origWidth': 410, 'origHeight': 411, 'width': 410, 'height': 411, 'widthPercent': 0.45, 'rescaleHeight': False, 'trialN': 41, 'loaded': True, 'loadedTime': 5252, 'positionName': 'LEFT', 'positionCoords': [81.52, 178.5], 'bid': 6.58}, {'imgObject': {}, 'id': 'kiwi', 'src': '/static/foodstim60/kiwi.jpg', 'key': 'i', 'origWidth': 410, 'origHeight': 410, 'width': 410, 'height': 410, 'widthPercent': 0.45, 'rescaleHeight': False, 'trialN': 41, 'loaded': True, 'loadedTime': 5872, 'positionName': 'RIGHT', 'positionCoords': [532.48, 179], 'bid': 6.5600000000000005}]",181692,1669831282453,cherries,kiwi,6.58,6.5600000000000005,-0.019999999999999574,NaN,NaN,NaN,NaN,False,185723,4031,1669831286484,4031,,HRV,HRV_0126,2022-11-30 18:11:05
42,"[{'imgObject': {}, 'id': 'salad w chicken', 'src': '/static/foodstim60/salad w chicken.jpg', 'key': 'u', 'origWidth': 411, 'origHeight': 411, 'width': 411, 'height': 411, 'widthPercent': 0.45, 'rescaleHeight': False, 'trialN': 42, 'loaded': True, 'loadedTime': 5856, 'positionName': 'LEFT', 'positionCoords': [80.52, 178.5], 'bid': 5.99}, {'imgObject': {}, 'id': 'sushi w_condiments', 'src': '/static/foodstim60/sushi w_condiments.jpg', 'key': 'i', 'origWidth': 410, 'origHeight': 410, 'width': 410, 'height': 410, 'widthPercent': 0.45, 'rescaleHeight': False, 'trialN': 42, 'loaded': True, 'loadedTime': 5623, 'positionName': 'RIGHT', 'positionCoords': [532.48, 179], 'bid': 6.17}]",185724,1669831286485,salad w chicken,sushi w_condiments,5.99,6.17,0.17999999999999972,NaN,NaN,NaN,NaN,False,189756,4032,1669831290517,4032,,HRV,HRV_0126,2022-11-30 18:11:05
43,"[{'imgObject': {}, 'id': 'steak', 'src': '/static/foodstim60/steak.jpg', 'key': 'u', 'origWidth': 410, 'origHeight': 410, 'width': 410, 'height': 410, 'widthPercent': 0.45, 'rescaleHeight': False, 'trialN': 43, 'loaded': True, 'loadedTime': 4866, 'positionName': 'LEFT', 'positionCoords': [81.52, 179], 'bid': 4.88}, {'imgObject': {}, 'id': 'cheerios', 'src': '/static/foodstim60/cheerios.jpg', 'key': 'i', 'origWidth': 409, 'origHeight': 410, 'width': 409, 'height': 410, 'widthPercent': 0.45, 'rescaleHeight': False, 'trialN': 43, 'loaded': True, 'loadedTime': 5841, 'positionName': 'RIGHT', 'positionCoords': [532.48, 179], 'bid': 8.3}]",189757,1669831290518,steak,cheerios,4.88,8.3,3.420000000000001,NaN,NaN,NaN,NaN,False,193787,4030,1669831294548,4030,,HRV,HRV_0126,2022-11-30 18:11:05
44,"[{'imgObject': {}, 'id': 'salmon', 'src': '/static/foodstim60/salmon.jpg', 'key': 'u', 'origWidth': 410, 'origHeight': 409, 'width': 410, 'height': 409, 'widthPercent': 0.45, 'rescaleHeight': False, 'trialN': 44, 'loaded': True, 'loadedTime': 5528, 'positionName': 'LEFT', 'positionCoords': [81.52, 179.5], 'bid': 8.69}, {'imgObject': {}, 'id': 'luckycharms', 'src': '/static/foodstim60/luckycharms.jpg', 'key': 'i', 'origWidth': 410, 'origHeight': 409, 'width': 410, 'height': 409, 'widthPercent': 0.45, 'rescaleHeight': False, 'trialN': 44, 'loaded': True, 'loadedTime': 5096, 'positionName': 'RIGHT', 'positionCoords': [532.48, 179.5], 'bid': 8.41}]",193787,1669831294548,salmon,luckycharms,8.69,8.41,-0.27999999999999936,NaN,NaN,NaN,NaN,False,197837,4050,1669831298598,4050,,HRV,HRV_0126,2022-11-30 18:11:05
45,"[{'imgObject': {}, 'id': 'turkeysandwich', 'src': '/static/foodstim60/turkeysandwich.jpg', 'key': 'u', 'origWidth': 409, 'origHeight': 409, 'width': 409, 'height': 409, 'widthPercent': 0.45, 'rescaleHeight': False, 'trialN': 45, 'loaded': True, 'loadedTime': 5591, 'positionName': 'LEFT', 'positionCoords': [82.52, 179.5], 'bid': 3.1}, {'imgObject': {}, 'id': 'lox', 'src': '/static/foodstim60/lox.jpg', 'key': 'i', 'origWidth': 410, 'origHeight': 411, 'width': 410, 'height': 411, 'widthPercent': 0.45, 'rescaleHeight': False, 'trialN': 45, 'loaded': True, 'loadedTime': 5042, 'positionName': 'RIGHT', 'positionCoords': [532.48, 178.5], 'bid': 7.890000000000001}]",197838,1669831298599,turkeysandwich,lox,3.1,7.890000000000001,4.790000000000001,NaN,NaN,NaN,NaN,False,201860,4022,1669831302621,4022,,HRV,HRV_0126,2022-11-30 18:11:05
46,"[{'imgObject': {}, 'id': 'mango', 'src': '/static/foodstim60/mango.jpg', 'key': 'u', 'origWidth': 411, 'origHeight': 411, 'width': 411, 'height': 411, 'widthPercent': 0.45, 'rescaleHeight': False, 'trialN': 46, 'loaded': True, 'loadedTime': 5872, 'positionName': 'LEFT', 'positionCoords': [80.52, 178.5], 'bid': 9.82}, {'imgObject': {}, 'id': 'cantaloupe', 'src': '/static/foodstim60/cantaloupe.jpg', 'key': 'i', 'origWidth': 409, 'origHeight': 409, 'width': 409, 'height': 409, 'widthPercent': 0.45, 'rescaleHeight': False, 'trialN': 46, 'loaded': True, 'loadedTime': 5346, 'positionName': 'RIGHT', 'positionCoords': [532.48, 179.5], 'bid': 9}]",201861,1669831302622,mango,cantaloupe,9.82,9.0,-0.8200000000000003,NaN,NaN,NaN,NaN,False,205901,4040,1669831306662,4040,,HRV,HRV_0126,2022-11-30 18:11:05
47,"[{'imgObject': {}, 'id': 'mashed potato', 'src': '/static/foodstim60/mashed potato.jpg', 'key': 'u', 'origWidth': 409, 'origHeight': 409, 'width': 409, 'height': 409, 'widthPercent': 0.45, 'rescaleHeight': False, 'trialN': 47, 'loaded': True, 'loadedTime': 5560, 'positionName': 'LEFT', 'positionCoords': [82.52, 179.5], 'bid': 7.890000000000001}, {'imgObject': {}, 'id': 'kiwi', 'src': '/static/foodstim60/kiwi.jpg', 'key': 'i', 'origWidth': 410, 'origHeight': 410, 'width': 410, 'height': 410, 'widthPercent': 0.45, 'rescaleHeight': False, 'trialN': 47, 'loaded': True, 'loadedTime': 5872, 'positionName': 'RIGHT', 'positionCoords': [532.48, 179], 'bid': 6.5600000000000005}]",205901,1669831306662,mashed potato,kiwi,7.890000000000001,6.5600000000000005,-1.33,NaN,NaN,NaN,NaN,False,209926,4025,1669831310687,4025,,HRV,HRV_0126,2022-11-30 18:11:05
48,"[{'imgObject': {}, 'id': 'avocado', 'src': '/static/foodstim60/avocado.jpg', 'key': 'u', 'origWidth': 409, 'origHeight': 409, 'width': 409, 'height': 409, 'widthPercent': 0.45, 'rescaleHeight': False, 'trialN': 48, 'loaded': True, 'loadedTime': 5919, 'positionName': 'LEFT', 'positionCoords': [82.52, 179.5], 'bid': 8.82}, {'imgObject': {}, 'id': 'strawberries', 'src': '/static/foodstim60/strawberries.jpg', 'key': 'i', 'origWidth': 410, 'origHeight': 410, 'width': 410, 'height': 410, 'widthPercent': 0.45, 'rescaleHeight': False, 'trialN': 48, 'loaded': True, 'loadedTime': 5934, 'positionName': 'RIGHT', 'positionCoords': [532.48, 179], 'bid': 9.92}]",209928,1669831310689,avocado,strawberries,8.82,9.92,1.0999999999999996,NaN,NaN,NaN,NaN,False,214040,4112,1669831314801,4112,,HRV,HRV_0126,2022-11-30 18:11:05
49,"[{'imgObject': {}, 'id': 'orange slices', 'src': '/static/foodstim60/orange slices.jpg', 'key': 'u', 'origWidth': 409, 'origHeight': 410, 'width': 409, 'height': 410, 'widthPercent': 0.45, 'rescaleHeight': False, 'trialN': 49, 'loaded': True, 'loadedTime': 5669, 'positionName': 'LEFT', 'positionCoords': [82.52, 179], 'bid': 9.76}, {'imgObject': {}, 'id': 'ice cream sundae 002', 'src': '/static/foodstim60/ice cream sundae 002.jpg', 'key': 'i', 'origWidth': 409, 'origHeight': 409, 'width': 409, 'height': 409, 'widthPercent': 0.45, 'rescaleHeight': False, 'trialN': 49, 'loaded': True, 'loadedTime': 5591, 'positionName': 'RIGHT', 'positionCoords': [532.48, 179.5], 'bid': 8.96}]",214041,1669831314802,orange slices,ice cream sundae 002,9.76,8.96,-0.7999999999999989,NaN,NaN,NaN,NaN,False,218068,4027,1669831318829,4027,"[{'event': 'onblur', 'details': 'out of focus', 'performance time': 214975, 'date time': 1669831315736}, {'event': 'visibilitychange', 'details': 'hidden', 'performance time': 214990, 'date time': 1669831315751}, {'event': 'onfocus', 'details': 'in focus', 'performance time': 217240, 'date time': 1669831318001}, {'event': 'visibilitychange', 'details': 'visible', 'performance time': 217388, 'date time': 1669831318149}]",HRV,HRV_0126,2022-11-30 18:11:05
50,"[{'imgObject': {}, 'id': 'apple slices', 'src': '/static/foodstim60/apple slices.jpg', 'key': 'u', 'origWidth': 409, 'origHeight': 410, 'width': 409, 'height': 410, 'widthPercent': 0.45, 'rescaleHeight': False, 'trialN': 50, 'loaded': True, 'loadedTime': 5856, 'positionName': 'LEFT', 'positionCoords': [82.52, 179], 'bid': 9.27}, {'imgObject': {}, 'id': 'orange slices', 'src': '/static/foodstim60/orange slices.jpg', 'key': 'i', 'origWidth': 409, 'origHeight': 410, 'width': 409, 'height': 410, 'widthPercent': 0.45, 'rescaleHeight': False, 'trialN': 50, 'loaded': True, 'loadedTime': 5669, 'positionName': 'RIGHT', 'positionCoords': [532.48, 179], 'bid': 9.76}]",218069,1669831318830,apple slices,orange slices,9.27,9.76,0.4900000000000002,NaN,NaN,NaN,NaN,False,222094,4025,1669831322855,4025,,HRV,HRV_0126,2022-11-30 18:11:05
51,"[{'imgObject': {}, 'id': 'blueberries', 'src': '/static/foodstim60/blueberries.jpg', 'key': 'u', 'origWidth': 411, 'origHeight': 411, 'width': 411, 'height': 411, 'widthPercent': 0.45, 'rescaleHeight': False, 'trialN': 51, 'loaded': True, 'loadedTime': 5478, 'positionName': 'LEFT', 'positionCoords': [80.52, 178.5], 'bid': 9.96}, {'imgObject': {}, 'id': 'banana', 'src': '/static/foodstim60/banana.jpg', 'key': 'i', 'origWidth': 410, 'origHeight': 410, 'width': 410, 'height': 410, 'widthPercent': 0.45, 'rescaleHeight': False, 'trialN': 51, 'loaded': True, 'loadedTime': 5684, 'positionName': 'RIGHT', 'positionCoords': [532.48, 179], 'bid': 10}]",222095,1669831322856,blueberries,banana,9.96,10.0,0.03999999999999915,NaN,NaN,NaN,NaN,False,226103,4008,1669831326864,4008,,HRV,HRV_0126,2022-11-30 18:11:05
52,"[{'imgObject': {}, 'id': 'luckycharms', 'src': '/static/foodstim60/luckycharms.jpg', 'key': 'u', 'origWidth': 410, 'origHeight': 409, 'width': 410, 'height': 409, 'widthPercent': 0.45, 'rescaleHeight': False, 'trialN': 52, 'loaded': True, 'loadedTime': 5096, 'positionName': 'LEFT', 'positionCoords': [81.52, 179.5], 'bid': 8.41}, {'imgObject': {}, 'id': 'raisin bran w milk', 'src': '/static/foodstim60/raisin bran w milk.jpg', 'key': 'i', 'origWidth': 411, 'origHeight': 411, 'width': 411, 'height': 411, 'widthPercent': 0.45, 'rescaleHeight': False, 'trialN': 52, 'loaded': True, 'loadedTime': 5778, 'positionName': 'RIGHT', 'positionCoords': [532.48, 178.5], 'bid': 8.33}]",226105,1669831326866,luckycharms,raisin bran w milk,8.41,8.33,-0.08000000000000007,NaN,NaN,NaN,NaN,False,230132,4027,1669831330893,4027,,HRV,HRV_0126,2022-11-30 18:11:05
53,"[{'imgObject': {}, 'id': 'mashed potato', 'src': '/static/foodstim60/mashed potato.jpg', 'key': 'u', 'origWidth': 409, 'origHeight': 409, 'width': 409, 'height': 409, 'widthPercent': 0.45, 'rescaleHeight': False, 'trialN': 53, 'loaded': True, 'loadedTime': 5575, 'positionName': 'LEFT', 'positionCoords': [82.52, 179.5], 'bid': 7.890000000000001}, {'imgObject': {}, 'id': 'pear', 'src': '/static/foodstim60/pear.jpg', 'key': 'i', 'origWidth': 411, 'origHeight': 410, 'width': 411, 'height': 410, 'widthPercent': 0.45, 'rescaleHeight': False, 'trialN': 53, 'loaded': True, 'loadedTime': 5268, 'positionName': 'RIGHT', 'positionCoords': [532.48, 179], 'bid': 7.79}]",230132,1669831330893,mashed potato,pear,7.890000000000001,7.79,-0.10000000000000053,NaN,NaN,NaN,NaN,False,234168,4036,1669831334929,4036,,HRV,HRV_0126,2022-11-30 18:11:05
54,"[{'imgObject': {}, 'id': 'sushi w_condiments', 'src': '/static/foodstim60/sushi w_condiments.jpg', 'key': 'u', 'origWidth': 410, 'origHeight': 410, 'width': 410, 'height': 410, 'widthPercent': 0.45, 'rescaleHeight': False, 'trialN': 54, 'loaded': True, 'loadedTime': 5638, 'positionName': 'LEFT', 'positionCoords': [81.52, 179], 'bid': 6.17}, {'imgObject': {}, 'id': 'Tribe humus pita', 'src': '/static/foodstim60/Tribe humus pita.jpg', 'key': 'i', 'origWidth': 411, 'origHeight': 411, 'width': 411, 'height': 411, 'widthPercent': 0.45, 'rescaleHeight': False, 'trialN': 54, 'loaded': True, 'loadedTime': 5497, 'positionName': 'RIGHT', 'positionCoords': [532.48, 178.5], 'bid': 5.54}]",234168,1669831334929,sushi w_condiments,Tribe humus pita,6.17,5.54,-0.6299999999999999,NaN,NaN,NaN,NaN,False,238186,4018,1669831338947,4018,,HRV,HRV_0126,2022-11-30 18:11:05
55,"[{'imgObject': {}, 'id': 'omelette', 'src': '/static/foodstim60/omelette.jpg', 'key': 'u', 'origWidth': 410, 'origHeight': 409, 'width': 410, 'height': 409, 'widthPercent': 0.45, 'rescaleHeight': False, 'trialN': 55, 'loaded': True, 'loadedTime': 5684, 'positionName': 'LEFT', 'positionCoords': [81.52, 179.5], 'bid': 4.47}, {'imgObject': {}, 'id': 'sweetpotato', 'src': '/static/foodstim60/sweetpotato.jpg', 'key': 'i', 'origWidth': 410, 'origHeight': 410, 'width': 410, 'height': 410, 'widthPercent': 0.45, 'rescaleHeight': False, 'trialN': 55, 'loaded': True, 'loadedTime': 5841, 'positionName': 'RIGHT', 'positionCoords': [532.48, 179], 'bid': 4.04}]",238186,1669831338947,omelette,sweetpotato,4.47,4.04,-0.4299999999999997,NaN,NaN,NaN,NaN,False,242210,4024,1669831342971,4024,,HRV,HRV_0126,2022-11-30 18:11:05
56,"[{'imgObject': {}, 'id': 'banana', 'src': '/static/foodstim60/banana.jpg', 'key': 'u', 'origWidth': 410, 'origHeight': 410, 'width': 410, 'height': 410, 'widthPercent': 0.45, 'rescaleHeight': False, 'trialN': 56, 'loaded': True, 'loadedTime': 5684, 'positionName': 'LEFT', 'positionCoords': [81.52, 179], 'bid': 10}, {'imgObject': {}, 'id': 'strawberries', 'src': '/static/foodstim60/strawberries.jpg', 'key': 'i', 'origWidth': 410, 'origHeight': 410, 'width': 410, 'height': 410, 'widthPercent': 0.45, 'rescaleHeight': False, 'trialN': 56, 'loaded': True, 'loadedTime': 5934, 'positionName': 'RIGHT', 'positionCoords': [532.48, 179], 'bid': 9.92}]",242211,1669831342972,banana,strawberries,10.0,9.92,-0.08000000000000007,NaN,NaN,NaN,NaN,False,246227,4016,1669831346988,4016,,HRV,HRV_0126,2022-11-30 18:11:05
57,"[{'imgObject': {}, 'id': 'yogurt no spoon', 'src': '/static/foodstim60/yogurt no spoon.jpg', 'key': 'u', 'origWidth': 411, 'origHeight': 410, 'width': 411, 'height': 410, 'widthPercent': 0.45, 'rescaleHeight': False, 'trialN': 57, 'loaded': True, 'loadedTime': 5080, 'positionName': 'LEFT', 'positionCoords': [80.52, 179], 'bid': 9.21}, {'imgObject': {}, 'id': 'ice cream sundae 002', 'src': '/static/foodstim60/ice cream sundae 002.jpg', 'key': 'i', 'origWidth': 409, 'origHeight': 409, 'width': 409, 'height': 409, 'widthPercent': 0.45, 'rescaleHeight': False, 'trialN': 57, 'loaded': True, 'loadedTime': 5623, 'positionName': 'RIGHT', 'positionCoords': [532.48, 179.5], 'bid': 8.96}]",246228,1669831346989,yogurt no spoon,ice cream sundae 002,9.21,8.96,-0.25,NaN,NaN,NaN,NaN,False,250245,4017,1669831351006,4017,,HRV,HRV_0126,2022-11-30 18:11:05
58,"[{'imgObject': {}, 'id': 'cocktailshrimp', 'src': '/static/foodstim60/cocktailshrimp.jpg', 'key': 'u', 'origWidth': 410, 'origHeight': 410, 'width': 410, 'height': 410, 'widthPercent': 0.45, 'rescaleHeight': False, 'trialN': 58, 'loaded': True, 'loadedTime': 5221, 'positionName': 'LEFT', 'positionCoords': [81.52, 179], 'bid': 6.95}, {'imgObject': {}, 'id': 'granola w milk', 'src': '/static/foodstim60/granola w milk.jpg', 'key': 'i', 'origWidth': 410, 'origHeight': 410, 'width': 410, 'height': 410, 'widthPercent': 0.45, 'rescaleHeight': False, 'trialN': 58, 'loaded': True, 'loadedTime': 4994, 'positionName': 'RIGHT', 'positionCoords': [532.48, 179], 'bid': 6.62}]",250245,1669831351006,cocktailshrimp,granola w milk,6.95,6.62,-0.33000000000000007,NaN,NaN,NaN,NaN,False,254262,4017,1669831355023,4017,,HRV,HRV_0126,2022-11-30 18:11:05
59,"[{'imgObject': {}, 'id': 'roastedpotatoes', 'src': '/static/foodstim60/roastedpotatoes.jpg', 'key': 'u', 'origWidth': 409, 'origHeight': 410, 'width': 409, 'height': 410, 'widthPercent': 0.45, 'rescaleHeight': False, 'trialN': 59, 'loaded': True, 'loadedTime': 5747, 'positionName': 'LEFT', 'positionCoords': [82.52, 179], 'bid': 5.87}, {'imgObject': {}, 'id': 'sushi w_condiments', 'src': '/static/foodstim60/sushi w_condiments.jpg', 'key': 'i', 'origWidth': 410, 'origHeight': 410, 'width': 410, 'height': 410, 'widthPercent': 0.45, 'rescaleHeight': False, 'trialN': 59, 'loaded': True, 'loadedTime': 5623, 'positionName': 'RIGHT', 'positionCoords': [532.48, 179], 'bid': 6.17}]",254262,1669831355023,roastedpotatoes,sushi w_condiments,5.87,6.17,0.2999999999999998,NaN,NaN,NaN,NaN,False,258286,4024,1669831359047,4024,,HRV,HRV_0126,2022-11-30 18:11:05
60,"[{'imgObject': {}, 'id': 'hotdog w must', 'src': '/static/foodstim60/hotdog w must.jpg', 'key': 'u', 'origWidth': 409, 'origHeight': 409, 'width': 409, 'height': 409, 'widthPercent': 0.45, 'rescaleHeight': False, 'trialN': 60, 'loaded': True, 'loadedTime': 5513, 'positionName': 'LEFT', 'positionCoords': [82.52, 179.5], 'bid': 5.8}, {'imgObject': {}, 'id': 'edamame', 'src': '/static/foodstim60/edamame.jpg', 'key': 'i', 'origWidth': 409, 'origHeight': 410, 'width': 409, 'height': 410, 'widthPercent': 0.45, 'rescaleHeight': False, 'trialN': 60, 'loaded': True, 'loadedTime': 5638, 'positionName': 'RIGHT', 'positionCoords': [532.48, 179], 'bid': 8.75}]",258290,1669831359052,hotdog w must,edamame,5.8,8.75,2.95,NaN,NaN,NaN,NaN,False,262308,4018,1669831363069,4017,,HRV,HRV_0126,2022-11-30 18:11:05
61,"[{'imgObject': {}, 'id': 'grilled chicken strips', 'src': '/static/foodstim60/grilled chicken strips.jpg', 'key': 'u', 'origWidth': 410, 'origHeight': 411, 'width': 410, 'height': 411, 'widthPercent': 0.45, 'rescaleHeight': False, 'trialN': 61, 'loaded': True, 'loadedTime': 5934, 'positionName': 'LEFT', 'positionCoords': [81.52, 178.5], 'bid': 6.34}, {'imgObject': {}, 'id': 'sweetpotato', 'src': '/static/foodstim60/sweetpotato.jpg', 'key': 'i', 'origWidth': 410, 'origHeight': 410, 'width': 410, 'height': 410, 'widthPercent': 0.45, 'rescaleHeight': False, 'trialN': 61, 'loaded': True, 'loadedTime': 5841, 'positionName': 'RIGHT', 'positionCoords': [532.48, 179], 'bid': 4.04}]",262308,1669831363069,grilled chicken strips,sweetpotato,6.34,4.04,-2.3,NaN,NaN,NaN,NaN,False,266332,4024,1669831367093,4024,,HRV,HRV_0126,2022-11-30 18:11:05
62,"[{'imgObject': {}, 'id': 'olives', 'src': '/static/foodstim60/olives.jpg', 'key': 'u', 'origWidth': 410, 'origHeight': 410, 'width': 410, 'height': 410, 'widthPercent': 0.45, 'rescaleHeight': False, 'trialN': 62, 'loaded': True, 'loadedTime': 5934, 'positionName': 'LEFT', 'positionCoords': [81.52, 179], 'bid': 7.67}, {'imgObject': {}, 'id': 'edamame', 'src': '/static/foodstim60/edamame.jpg', 'key': 'i', 'origWidth': 409, 'origHeight': 410, 'width': 409, 'height': 410, 'widthPercent': 0.45, 'rescaleHeight': False, 'trialN': 62, 'loaded': True, 'loadedTime': 5654, 'positionName': 'RIGHT', 'positionCoords': [532.48, 179], 'bid': 8.75}]",266332,1669831367093,olives,edamame,7.67,8.75,1.08,NaN,NaN,NaN,NaN,False,270360,4028,1669831371121,4028,,HRV,HRV_0126,2022-11-30 18:11:05
63,"[{'imgObject': {}, 'id': 'blackbeanswithrice', 'src': '/static/foodstim60/blackbeanswithrice.jpg', 'key': 'u', 'origWidth': 410, 'origHeight': 410, 'width': 410, 'height': 410, 'widthPercent': 0.45, 'rescaleHeight': False, 'trialN': 63, 'loaded': True, 'loadedTime': 5934, 'positionName': 'LEFT', 'positionCoords': [81.52, 179], 'bid': 5.7}, {'imgObject': {}, 'id': 'turkey sandwich', 'src': '/static/foodstim60/turkey sandwich.jpg', 'key': 'i', 'origWidth': 409, 'origHeight': 409, 'width': 409, 'height': 409, 'widthPercent': 0.45, 'rescaleHeight': False, 'trialN': 63, 'loaded': True, 'loadedTime': 5189, 'positionName': 'RIGHT', 'positionCoords': [532.48, 179.5], 'bid': 7.12}]",270362,1669831371123,blackbeanswithrice,turkey sandwich,5.7,7.12,1.42,NaN,NaN,NaN,NaN,False,274396,4034,1669831375157,4034,,HRV,HRV_0126,2022-11-30 18:11:05
64,"[{'imgObject': {}, 'id': 'shreddedwheatwithmilk', 'src': '/static/foodstim60/shreddedwheatwithmilk.jpg', 'key': 'u', 'origWidth': 410, 'origHeight': 410, 'width': 410, 'height': 410, 'widthPercent': 0.45, 'rescaleHeight': False, 'trialN': 64, 'loaded': True, 'loadedTime': 5127, 'positionName': 'LEFT', 'positionCoords': [81.52, 179], 'bid': 5.87}, {'imgObject': {}, 'id': 'froot loops w milk', 'src': '/static/foodstim60/froot loops w milk.jpg', 'key': 'i', 'origWidth': 410, 'origHeight': 410, 'width': 410, 'height': 410, 'widthPercent': 0.45, 'rescaleHeight': False, 'trialN': 64, 'loaded': True, 'loadedTime': 5950, 'positionName': 'RIGHT', 'positionCoords': [532.48, 179], 'bid': 8.78}]",274398,1669831375159,shreddedwheatwithmilk,froot loops w milk,5.87,8.78,2.9099999999999993,NaN,NaN,NaN,NaN,False,278424,4026,1669831379185,4026,,HRV,HRV_0126,2022-11-30 18:11:05
65,"[{'imgObject': {}, 'id': 'strawberries', 'src': '/static/foodstim60/strawberries.jpg', 'key': 'u', 'origWidth': 410, 'origHeight': 410, 'width': 410, 'height': 410, 'widthPercent': 0.45, 'rescaleHeight': False, 'trialN': 65, 'loaded': True, 'loadedTime': 5934, 'positionName': 'LEFT', 'positionCoords': [81.52, 179], 'bid': 9.92}, {'imgObject': {}, 'id': 'cocktailshrimp', 'src': '/static/foodstim60/cocktailshrimp.jpg', 'key': 'i', 'origWidth': 410, 'origHeight': 410, 'width': 410, 'height': 410, 'widthPercent': 0.45, 'rescaleHeight': False, 'trialN': 65, 'loaded': True, 'loadedTime': 5221, 'positionName': 'RIGHT', 'positionCoords': [532.48, 179], 'bid': 6.95}]",278425,1669831379186,strawberries,cocktailshrimp,9.92,6.95,-2.9699999999999998,NaN,NaN,NaN,NaN,False,282457,4032,1669831383218,4032,,HRV,HRV_0126,2022-11-30 18:11:05
66,"[{'imgObject': {}, 'id': 'rigatoni', 'src': '/static/foodstim60/rigatoni.jpg', 'key': 'u', 'origWidth': 411, 'origHeight': 411, 'width': 411, 'height': 411, 'widthPercent': 0.45, 'rescaleHeight': False, 'trialN': 66, 'loaded': True, 'loadedTime': 5205, 'positionName': 'LEFT', 'positionCoords': [80.52, 178.5], 'bid': 7.77}, {'imgObject': {}, 'id': 'froot loops w milk', 'src': '/static/foodstim60/froot loops w milk.jpg', 'key': 'i', 'origWidth': 410, 'origHeight': 410, 'width': 410, 'height': 410, 'widthPercent': 0.45, 'rescaleHeight': False, 'trialN': 66, 'loaded': True, 'loadedTime': 5950, 'positionName': 'RIGHT', 'positionCoords': [532.48, 179], 'bid': 8.78}]",282457,1669831383218,rigatoni,froot loops w milk,7.77,8.78,1.0099999999999998,NaN,NaN,NaN,NaN,False,286472,4015,1669831387233,4015,,HRV,HRV_0126,2022-11-30 18:11:05
67,"[{'imgObject': {}, 'id': 'roastedpotatoes', 'src': '/static/foodstim60/roastedpotatoes.jpg', 'key': 'u', 'origWidth': 409, 'origHeight': 410, 'width': 409, 'height': 410, 'widthPercent': 0.45, 'rescaleHeight': False, 'trialN': 67, 'loaded': True, 'loadedTime': 5747, 'positionName': 'LEFT', 'positionCoords': [82.52, 179], 'bid': 5.87}, {'imgObject': {}, 'id': 'avocado', 'src': '/static/foodstim60/avocado.jpg', 'key': 'i', 'origWidth': 409, 'origHeight': 409, 'width': 409, 'height': 409, 'widthPercent': 0.45, 'rescaleHeight': False, 'trialN': 67, 'loaded': True, 'loadedTime': 5919, 'positionName': 'RIGHT', 'positionCoords': [532.48, 179.5], 'bid': 8.82}]",286472,1669831387233,roastedpotatoes,avocado,5.87,8.82,2.95,NaN,NaN,NaN,NaN,False,290491,4019,1669831391252,4019,,HRV,HRV_0126,2022-11-30 18:11:05
68,"[{'imgObject': {}, 'id': 'chicken nuggets2', 'src': '/static/foodstim60/chicken nuggets2.jpg', 'key': 'u', 'origWidth': 410, 'origHeight': 409, 'width': 410, 'height': 409, 'widthPercent': 0.45, 'rescaleHeight': False, 'trialN': 68, 'loaded': True, 'loadedTime': 5408, 'positionName': 'LEFT', 'positionCoords': [81.52, 179.5], 'bid': 3.73}, {'imgObject': {}, 'id': 'chickenfingers', 'src': '/static/foodstim60/chickenfingers.jpg', 'key': 'i', 'origWidth': 410, 'origHeight': 410, 'width': 410, 'height': 410, 'widthPercent': 0.45, 'rescaleHeight': False, 'trialN': 68, 'loaded': True, 'loadedTime': 5825, 'positionName': 'RIGHT', 'positionCoords': [532.48, 179], 'bid': 6.19}]",290492,1669831391253,chicken nuggets2,chickenfingers,3.73,6.19,2.4600000000000004,NaN,NaN,NaN,NaN,False,294507,4015,1669831395268,4015,,HRV,HRV_0126,2022-11-30 18:11:05
69,"[{'imgObject': {}, 'id': 'sweetpotato', 'src': '/static/foodstim60/sweetpotato.jpg', 'key': 'u', 'origWidth': 410, 'origHeight': 410, 'width': 410, 'height': 410, 'widthPercent': 0.45, 'rescaleHeight': False, 'trialN': 69, 'loaded': True, 'loadedTime': 5841, 'positionName': 'LEFT', 'positionCoords': [81.52, 179], 'bid': 4.04}, {'imgObject': {}, 'id': 'baked potato', 'src': '/static/foodstim60/baked potato.jpg', 'key': 'i', 'origWidth': 409, 'origHeight': 410, 'width': 409, 'height': 410, 'widthPercent': 0.45, 'rescaleHeight': False, 'trialN': 69, 'loaded': True, 'loadedTime': 5591, 'positionName': 'RIGHT', 'positionCoords': [532.48, 179], 'bid': 3.28}]",294508,1669831395269,sweetpotato,baked potato,4.04,3.28,-0.7600000000000002,NaN,NaN,NaN,NaN,False,298532,4024,1669831399293,4024,,HRV,HRV_0126,2022-11-30 18:11:05
70,"[{'imgObject': {}, 'id': 'kiwi', 'src': '/static/foodstim60/kiwi.jpg', 'key': 'u', 'origWidth': 410, 'origHeight': 410, 'width': 410, 'height': 410, 'widthPercent': 0.45, 'rescaleHeight': False, 'trialN': 70, 'loaded': True, 'loadedTime': 5872, 'positionName': 'LEFT', 'positionCoords': [81.52, 179], 'bid': 6.5600000000000005}, {'imgObject': {}, 'id': 'steak', 'src': '/static/foodstim60/steak.jpg', 'key': 'i', 'origWidth': 410, 'origHeight': 410, 'width': 410, 'height': 410, 'widthPercent': 0.45, 'rescaleHeight': False, 'trialN': 70, 'loaded': True, 'loadedTime': 4859, 'positionName': 'RIGHT', 'positionCoords': [532.48, 179], 'bid': 4.88}]",298533,1669831399294,kiwi,steak,6.5600000000000005,4.88,-1.6800000000000006,NaN,NaN,NaN,NaN,False,302560,4027,1669831403322,4028,,HRV,HRV_0126,2022-11-30 18:11:05
71,"[{'imgObject': {}, 'id': 'chickenfingers', 'src': '/static/foodstim60/chickenfingers.jpg', 'key': 'u', 'origWidth': 410, 'origHeight': 410, 'width': 410, 'height': 410, 'widthPercent': 0.45, 'rescaleHeight': False, 'trialN': 71, 'loaded': True, 'loadedTime': 5825, 'positionName': 'LEFT', 'positionCoords': [81.52, 179], 'bid': 6.19}, {'imgObject': {}, 'id': 'grilled chicken strips', 'src': '/static/foodstim60/grilled chicken strips.jpg', 'key': 'i', 'origWidth': 410, 'origHeight': 411, 'width': 410, 'height': 411, 'widthPercent': 0.45, 'rescaleHeight': False, 'trialN': 71, 'loaded': True, 'loadedTime': 5934, 'positionName': 'RIGHT', 'positionCoords': [532.48, 178.5], 'bid': 6.34}]",302560,1669831403322,chickenfingers,grilled chicken strips,6.19,6.34,0.14999999999999947,NaN,NaN,NaN,NaN,False,306583,4023,1669831407345,4023,,HRV,HRV_0126,2022-11-30 18:11:05
72,"[{'imgObject': {}, 'id': 'mac & cheese', 'src': '/static/foodstim60/mac & cheese.jpg', 'key': 'u', 'origWidth': 410, 'origHeight': 410, 'width': 410, 'height': 410, 'widthPercent': 0.45, 'rescaleHeight': False, 'trialN': 72, 'loaded': True, 'loadedTime': 5424, 'positionName': 'LEFT', 'positionCoords': [81.52, 179], 'bid': 5.3500000000000005}, {'imgObject': {}, 'id': 'blackbeanswithrice', 'src': '/static/foodstim60/blackbeanswithrice.jpg', 'key': 'i', 'origWidth': 410, 'origHeight': 410, 'width': 410, 'height': 410, 'widthPercent': 0.45, 'rescaleHeight': False, 'trialN': 72, 'loaded': True, 'loadedTime': 5950, 'positionName': 'RIGHT', 'positionCoords': [532.48, 179], 'bid': 5.7}]",306584,1669831407346,mac & cheese,blackbeanswithrice,5.3500000000000005,5.7,0.34999999999999964,NaN,NaN,NaN,NaN,False,310608,4024,1669831411370,4024,,HRV,HRV_0126,2022-11-30 18:11:05
73,"[{'imgObject': {}, 'id': 'cherries', 'src': '/static/foodstim60/cherries.jpg', 'key': 'u', 'origWidth': 410, 'origHeight': 411, 'width': 410, 'height': 411, 'widthPercent': 0.45, 'rescaleHeight': False, 'trialN': 73, 'loaded': True, 'loadedTime': 5252, 'positionName': 'LEFT', 'positionCoords': [81.52, 178.5], 'bid': 6.58}, {'imgObject': {}, 'id': 'cocktailshrimp', 'src': '/static/foodstim60/cocktailshrimp.jpg', 'key': 'i', 'origWidth': 410, 'origHeight': 410, 'width': 410, 'height': 410, 'widthPercent': 0.45, 'rescaleHeight': False, 'trialN': 73, 'loaded': True, 'loadedTime': 5236, 'positionName': 'RIGHT', 'positionCoords': [532.48, 179], 'bid': 6.95}]",310608,1669831411370,cherries,cocktailshrimp,6.58,6.95,0.3700000000000001,NaN,NaN,NaN,NaN,False,314626,4018,1669831415388,4018,,HRV,HRV_0126,2022-11-30 18:11:05
74,"[{'imgObject': {}, 'id': 'blackbeanswithrice', 'src': '/static/foodstim60/blackbeanswithrice.jpg', 'key': 'u', 'origWidth': 410, 'origHeight': 410, 'width': 410, 'height': 410, 'widthPercent': 0.45, 'rescaleHeight': False, 'trialN': 74, 'loaded': True, 'loadedTime': 5950, 'positionName': 'LEFT', 'positionCoords': [81.52, 179], 'bid': 5.7}, {'imgObject': {}, 'id': 'chickenfingers', 'src': '/static/foodstim60/chickenfingers.jpg', 'key': 'i', 'origWidth': 410, 'origHeight': 410, 'width': 410, 'height': 410, 'widthPercent': 0.45, 'rescaleHeight': False, 'trialN': 74, 'loaded': True, 'loadedTime': 5810, 'positionName': 'RIGHT', 'positionCoords': [532.48, 179], 'bid': 6.19}]",314628,1669831415390,blackbeanswithrice,chickenfingers,5.7,6.19,0.4900000000000002,NaN,NaN,NaN,NaN,False,318657,4029,1669831419419,4029,,HRV,HRV_0126,2022-11-30 18:11:05
75,"[{'imgObject': {}, 'id': 'edamame', 'src': '/static/foodstim60/edamame.jpg', 'key': 'u', 'origWidth': 409, 'origHeight': 410, 'width': 409, 'height': 410, 'widthPercent': 0.45, 'rescaleHeight': False, 'trialN': 75, 'loaded': True, 'loadedTime': 5638, 'positionName': 'LEFT', 'positionCoords': [82.52, 179], 'bid': 8.75}, {'imgObject': {}, 'id': 'cheerios', 'src': '/static/foodstim60/cheerios.jpg', 'key': 'i', 'origWidth': 409, 'origHeight': 410, 'width': 409, 'height': 410, 'widthPercent': 0.45, 'rescaleHeight': False, 'trialN': 75, 'loaded': True, 'loadedTime': 5856, 'positionName': 'RIGHT', 'positionCoords': [532.48, 179], 'bid': 8.3}]",318657,1669831419419,edamame,cheerios,8.75,8.3,-0.4499999999999993,NaN,NaN,NaN,NaN,False,322688,4031,1669831423450,4031,,HRV,HRV_0126,2022-11-30 18:11:05
76,"[{'imgObject': {}, 'id': 'pear', 'src': '/static/foodstim60/pear.jpg', 'key': 'u', 'origWidth': 411, 'origHeight': 410, 'width': 411, 'height': 410, 'widthPercent': 0.45, 'rescaleHeight': False, 'trialN': 76, 'loaded': True, 'loadedTime': 5268, 'positionName': 'LEFT', 'positionCoords': [80.52, 179], 'bid': 7.79}, {'imgObject': {}, 'id': 'cherry tomato', 'src': '/static/foodstim60/cherry tomato.jpg', 'key': 'i', 'origWidth': 410, 'origHeight': 410, 'width': 410, 'height': 410, 'widthPercent': 0.45, 'rescaleHeight': False, 'trialN': 76, 'loaded': True, 'loadedTime': 4978, 'positionName': 'RIGHT', 'positionCoords': [532.48, 179], 'bid': 6.4}]",322689,1669831423451,pear,cherry tomato,7.79,6.4,-1.3899999999999997,NaN,NaN,NaN,NaN,False,326719,4030,1669831427481,4030,,HRV,HRV_0126,2022-11-30 18:11:05
77,"[{'imgObject': {}, 'id': 'sweetpotato', 'src': '/static/foodstim60/sweetpotato.jpg', 'key': 'u', 'origWidth': 410, 'origHeight': 410, 'width': 410, 'height': 410, 'widthPercent': 0.45, 'rescaleHeight': False, 'trialN': 77, 'loaded': True, 'loadedTime': 5841, 'positionName': 'LEFT', 'positionCoords': [81.52, 179], 'bid': 4.04}, {'imgObject': {}, 'id': 'bagel plain', 'src': '/static/foodstim60/bagel plain.jpg', 'key': 'i', 'origWidth': 410, 'origHeight': 410, 'width': 410, 'height': 410, 'widthPercent': 0.45, 'rescaleHeight': False, 'trialN': 77, 'loaded': True, 'loadedTime': 4962, 'positionName': 'RIGHT', 'positionCoords': [532.48, 179], 'bid': 1.01}]",326720,1669831427482,sweetpotato,bagel plain,4.04,1.01,-3.0300000000000002,NaN,NaN,NaN,NaN,False,332219,5499,1669831432981,5499,"[{'event': 'onblur', 'details': 'out of focus', 'performance time': 328606, 'date time': 1669831429368}, {'event': 'visibilitychange', 'details': 'hidden', 'performance time': 329138, 'date time': 1669831429900}]",HRV,HRV_0126,2022-11-30 18:11:05
78,"[{'imgObject': {}, 'id': 'yogurt no spoon', 'src': '/static/foodstim60/yogurt no spoon.jpg', 'key': 'u', 'origWidth': 411, 'origHeight': 410, 'width': 411, 'height': 410, 'widthPercent': 0.45, 'rescaleHeight': False, 'trialN': 78, 'loaded': True, 'loadedTime': 5080, 'positionName': 'LEFT', 'positionCoords': [80.52, 179], 'bid': 9.21}, {'imgObject': {}, 'id': 'strawberries', 'src': '/static/foodstim60/strawberries.jpg', 'key': 'i', 'origWidth': 410, 'origHeight': 410, 'width': 410, 'height': 410, 'widthPercent': 0.45, 'rescaleHeight': False, 'trialN': 78, 'loaded': True, 'loadedTime': 5934, 'positionName': 'RIGHT', 'positionCoords': [532.48, 179], 'bid': 9.92}]",332219,1669831432981,yogurt no spoon,strawberries,9.21,9.92,0.7099999999999991,NaN,NaN,NaN,NaN,False,337220,5001,1669831437982,5001,,HRV,HRV_0126,2022-11-30 18:11:05
79,"[{'imgObject': {}, 'id': 'raisin bran w milk', 'src': '/static/foodstim60/raisin bran w milk.jpg', 'key': 'u', 'origWidth': 411, 'origHeight': 411, 'width': 411, 'height': 411, 'widthPercent': 0.45, 'rescaleHeight': False, 'trialN': 79, 'loaded': True, 'loadedTime': 5778, 'positionName': 'LEFT', 'positionCoords': [80.52, 178.5], 'bid': 8.33}, {'imgObject': {}, 'id': 'froot loops w milk', 'src': '/static/foodstim60/froot loops w milk.jpg', 'key': 'i', 'origWidth': 410, 'origHeight': 410, 'width': 410, 'height': 410, 'widthPercent': 0.45, 'rescaleHeight': False, 'trialN': 79, 'loaded': True, 'loadedTime': 5950, 'positionName': 'RIGHT', 'positionCoords': [532.48, 179], 'bid': 8.78}]",337220,1669831437982,raisin bran w milk,froot loops w milk,8.33,8.78,0.4499999999999993,NaN,NaN,NaN,NaN,False,342224,5004,1669831442986,5004,,HRV,HRV_0126,2022-11-30 18:11:05
80,"[{'imgObject': {}, 'id': 'mac & cheese', 'src': '/static/foodstim60/mac & cheese.jpg', 'key': 'u', 'origWidth': 410, 'origHeight': 410, 'width': 410, 'height': 410, 'widthPercent': 0.45, 'rescaleHeight': False, 'trialN': 80, 'loaded': True, 'loadedTime': 5440, 'positionName': 'LEFT', 'positionCoords': [81.52, 179], 'bid': 5.3500000000000005}, {'imgObject': {}, 'id': 'Tribe humus pita', 'src': '/static/foodstim60/Tribe humus pita.jpg', 'key': 'i', 'origWidth': 411, 'origHeight': 411, 'width': 411, 'height': 411, 'widthPercent': 0.45, 'rescaleHeight': False, 'trialN': 80, 'loaded': True, 'loadedTime': 5497, 'positionName': 'RIGHT', 'positionCoords': [532.48, 178.5], 'bid': 5.54}]",342225,1669831442987,mac & cheese,Tribe humus pita,5.3500000000000005,5.54,0.1899999999999995,NaN,NaN,NaN,NaN,False,347222,4997,1669831447984,4997,,HRV,HRV_0126,2022-11-30 18:11:05
81,"[{'imgObject': {}, 'id': 'hotdog w must', 'src': '/static/foodstim60/hotdog w must.jpg', 'key': 'u', 'origWidth': 409, 'origHeight': 409, 'width': 409, 'height': 409, 'widthPercent': 0.45, 'rescaleHeight': False, 'trialN': 81, 'loaded': True, 'loadedTime': 5513, 'positionName': 'LEFT', 'positionCoords': [82.52, 179.5], 'bid': 5.8}, {'imgObject': {}, 'id': 'blackbeanswithrice', 'src': '/static/foodstim60/blackbeanswithrice.jpg', 'key': 'i', 'origWidth': 410, 'origHeight': 410, 'width': 410, 'height': 410, 'widthPercent': 0.45, 'rescaleHeight': False, 'trialN': 81, 'loaded': True, 'loadedTime': 5950, 'positionName': 'RIGHT', 'positionCoords': [532.48, 179], 'bid': 5.7}]",347222,1669831447984,hotdog w must,blackbeanswithrice,5.8,5.7,-0.09999999999999964,NaN,NaN,NaN,NaN,False,352235,5013,1669831452997,5013,,HRV,HRV_0126,2022-11-30 18:11:05
82,"[{'imgObject': {}, 'id': 'blueberries', 'src': '/static/foodstim60/blueberries.jpg', 'key': 'u', 'origWidth': 411, 'origHeight': 411, 'width': 411, 'height': 411, 'widthPercent': 0.45, 'rescaleHeight': False, 'trialN': 82, 'loaded': True, 'loadedTime': 5481, 'positionName': 'LEFT', 'positionCoords': [80.52, 178.5], 'bid': 9.96}, {'imgObject': {}, 'id': 'mango', 'src': '/static/foodstim60/mango.jpg', 'key': 'i', 'origWidth': 411, 'origHeight': 411, 'width': 411, 'height': 411, 'widthPercent': 0.45, 'rescaleHeight': False, 'trialN': 82, 'loaded': True, 'loadedTime': 5888, 'positionName': 'RIGHT', 'positionCoords': [532.48, 178.5], 'bid': 9.82}]",352235,1669831452997,blueberries,mango,9.96,9.82,-0.14000000000000057,NaN,NaN,NaN,NaN,False,357265,5030,1669831458027,5030,,HRV,HRV_0126,2022-11-30 18:11:05
83,"[{'imgObject': {}, 'id': 'turkeysandwich', 'src': '/static/foodstim60/turkeysandwich.jpg', 'key': 'u', 'origWidth': 409, 'origHeight': 409, 'width': 409, 'height': 409, 'widthPercent': 0.45, 'rescaleHeight': False, 'trialN': 83, 'loaded': True, 'loadedTime': 5591, 'positionName': 'LEFT', 'positionCoords': [82.52, 179.5], 'bid': 3.1}, {'imgObject': {}, 'id': 'burrito', 'src': '/static/foodstim60/burrito.jpg', 'key': 'i', 'origWidth': 410, 'origHeight': 410, 'width': 410, 'height': 410, 'widthPercent': 0.45, 'rescaleHeight': False, 'trialN': 83, 'loaded': True, 'loadedTime': 5330, 'positionName': 'RIGHT', 'positionCoords': [532.48, 179], 'bid': 2.32}]",357265,1669831458027,turkeysandwich,burrito,3.1,2.32,-0.7800000000000002,NaN,NaN,NaN,NaN,False,362218,4953,1669831462980,4953,,HRV,HRV_0126,2022-11-30 18:11:05
84,"[{'imgObject': {}, 'id': 'mashed potato', 'src': '/static/foodstim60/mashed potato.jpg', 'key': 'u', 'origWidth': 409, 'origHeight': 409, 'width': 409, 'height': 409, 'widthPercent': 0.45, 'rescaleHeight': False, 'trialN': 84, 'loaded': True, 'loadedTime': 5544, 'positionName': 'LEFT', 'positionCoords': [82.52, 179.5], 'bid': 7.890000000000001}, {'imgObject': {}, 'id': 'hashbrowns', 'src': '/static/foodstim60/hashbrowns.jpg', 'key': 'i', 'origWidth': 411, 'origHeight': 410, 'width': 411, 'height': 410, 'widthPercent': 0.45, 'rescaleHeight': False, 'trialN': 84, 'loaded': True, 'loadedTime': 5283, 'positionName': 'RIGHT', 'positionCoords': [532.48, 179], 'bid': 7.1000000000000005}]",362218,1669831462980,mashed potato,hashbrowns,7.890000000000001,7.1000000000000005,-0.79,NaN,NaN,NaN,NaN,False,367225,5007,1669831467987,5007,,HRV,HRV_0126,2022-11-30 18:11:05
85,"[{'imgObject': {}, 'id': 'Grapes', 'src': '/static/foodstim60/Grapes.jpg', 'key': 'u', 'origWidth': 411, 'origHeight': 411, 'width': 411, 'height': 411, 'widthPercent': 0.45, 'rescaleHeight': False, 'trialN': 85, 'loaded': True, 'loadedTime': 5070, 'positionName': 'LEFT', 'positionCoords': [80.52, 178.5], 'bid': 8.9}, {'imgObject': {}, 'id': 'ice cream sundae 002', 'src': '/static/foodstim60/ice cream sundae 002.jpg', 'key': 'i', 'origWidth': 409, 'origHeight': 409, 'width': 409, 'height': 409, 'widthPercent': 0.45, 'rescaleHeight': False, 'trialN': 85, 'loaded': True, 'loadedTime': 5610, 'positionName': 'RIGHT', 'positionCoords': [532.48, 179.5], 'bid': 8.96}]",367225,1669831467987,Grapes,ice cream sundae 002,8.9,8.96,0.0600000000000005,NaN,NaN,NaN,NaN,False,372231,5006,1669831472993,5006,,HRV,HRV_0126,2022-11-30 18:11:05
86,"[{'imgObject': {}, 'id': 'popsicles', 'src': '/static/foodstim60/popsicles.jpg', 'key': 'u', 'origWidth': 410, 'origHeight': 410, 'width': 410, 'height': 410, 'widthPercent': 0.45, 'rescaleHeight': False, 'trialN': 86, 'loaded': True, 'loadedTime': 6395, 'positionName': 'LEFT', 'positionCoords': [81.52, 179], 'bid': 9.25}, {'imgObject': {}, 'id': 'eggsalad', 'src': '/static/foodstim60/eggsalad.jpg', 'key': 'i', 'origWidth': 410, 'origHeight': 409, 'width': 410, 'height': 409, 'widthPercent': 0.45, 'rescaleHeight': False, 'trialN': 86, 'loaded': True, 'loadedTime': 5763, 'positionName': 'RIGHT', 'positionCoords': [532.48, 179.5], 'bid': 8.2}]",372231,1669831472993,popsicles,eggsalad,9.25,8.2,-1.0500000000000007,NaN,NaN,NaN,NaN,False,377215,4984,1669831477977,4984,,HRV,HRV_0126,2022-11-30 18:11:05
87,"[{'imgObject': {}, 'id': 'raisin bran w milk', 'src': '/static/foodstim60/raisin bran w milk.jpg', 'key': 'u', 'origWidth': 411, 'origHeight': 411, 'width': 411, 'height': 411, 'widthPercent': 0.45, 'rescaleHeight': False, 'trialN': 87, 'loaded': True, 'loadedTime': 5778, 'positionName': 'LEFT', 'positionCoords': [80.52, 178.5], 'bid': 8.33}, {'imgObject': {}, 'id': 'burger', 'src': '/static/foodstim60/burger.jpg', 'key': 'i', 'origWidth': 409, 'origHeight': 409, 'width': 409, 'height': 409, 'widthPercent': 0.45, 'rescaleHeight': False, 'trialN': 87, 'loaded': True, 'loadedTime': 5236, 'positionName': 'RIGHT', 'positionCoords': [532.48, 179.5], 'bid': 4.92}]",377215,1669831477977,raisin bran w milk,burger,8.33,4.92,-3.41,NaN,NaN,NaN,NaN,False,381241,4026,1669831482003,4026,"[{'event': 'onfocus', 'details': 'in focus', 'performance time': 379560, 'date time': 1669831480322}, {'event': 'visibilitychange', 'details': 'visible', 'performance time': 379584, 'date time': 1669831480346}]",HRV,HRV_0126,2022-11-30 18:11:05
88,"[{'imgObject': {}, 'id': 'raisin bran w milk', 'src': '/static/foodstim60/raisin bran w milk.jpg', 'key': 'u', 'origWidth': 411, 'origHeight': 411, 'width': 411, 'height': 411, 'widthPercent': 0.45, 'rescaleHeight': False, 'trialN': 88, 'loaded': True, 'loadedTime': 5763, 'positionName': 'LEFT', 'positionCoords': [80.52, 178.5], 'bid': 8.33}, {'imgObject': {}, 'id': 'orange slices', 'src': '/static/foodstim60/orange slices.jpg', 'key': 'i', 'origWidth': 409, 'origHeight': 410, 'width': 409, 'height': 410, 'widthPercent': 0.45, 'rescaleHeight': False, 'trialN': 88, 'loaded': True, 'loadedTime': 5654, 'positionName': 'RIGHT', 'positionCoords': [532.48, 179], 'bid': 9.76}]",381241,1669831482003,raisin bran w milk,orange slices,8.33,9.76,1.4299999999999997,NaN,NaN,NaN,NaN,False,385253,4012,1669831486015,4012,,HRV,HRV_0126,2022-11-30 18:11:05
89,"[{'imgObject': {}, 'id': 'rigatoni and sauce', 'src': '/static/foodstim60/rigatoni and sauce.jpg', 'key': 'u', 'origWidth': 410, 'origHeight': 411, 'width': 410, 'height': 411, 'widthPercent': 0.45, 'rescaleHeight': False, 'trialN': 89, 'loaded': True, 'loadedTime': 5747, 'positionName': 'LEFT', 'positionCoords': [81.52, 178.5], 'bid': 6.5}, {'imgObject': {}, 'id': 'grilled chicken strips', 'src': '/static/foodstim60/grilled chicken strips.jpg', 'key': 'i', 'origWidth': 410, 'origHeight': 411, 'width': 410, 'height': 411, 'widthPercent': 0.45, 'rescaleHeight': False, 'trialN': 89, 'loaded': True, 'loadedTime': 5934, 'positionName': 'RIGHT', 'positionCoords': [532.48, 178.5], 'bid': 6.34}]",385254,1669831486016,rigatoni and sauce,grilled chicken strips,6.5,6.34,-0.16000000000000014,NaN,NaN,NaN,NaN,False,389286,4032,1669831490048,4032,,HRV,HRV_0126,2022-11-30 18:11:05
90,"[{'imgObject': {}, 'id': 'mango', 'src': '/static/foodstim60/mango.jpg', 'key': 'u', 'origWidth': 411, 'origHeight': 411, 'width': 411, 'height': 411, 'widthPercent': 0.45, 'rescaleHeight': False, 'trialN': 90, 'loaded': True, 'loadedTime': 5872, 'positionName': 'LEFT', 'positionCoords': [80.52, 178.5], 'bid': 9.82}, {'imgObject': {}, 'id': 'luckycharms', 'src': '/static/foodstim60/luckycharms.jpg', 'key': 'i', 'origWidth': 410, 'origHeight': 409, 'width': 410, 'height': 409, 'widthPercent': 0.45, 'rescaleHeight': False, 'trialN': 90, 'loaded': True, 'loadedTime': 5111, 'positionName': 'RIGHT', 'positionCoords': [532.48, 179.5], 'bid': 8.41}]",395880,1669831496642,mango,luckycharms,9.82,8.41,-1.4100000000000001,NaN,NaN,NaN,NaN,False,399902,4022,1669831500664,4022,,HRV,HRV_0126,2022-11-30 18:11:05
91,"[{'imgObject': {}, 'id': 'chicken nuggets2', 'src': '/static/foodstim60/chicken nuggets2.jpg', 'key': 'u', 'origWidth': 410, 'origHeight': 409, 'width': 410, 'height': 409, 'widthPercent': 0.45, 'rescaleHeight': False, 'trialN': 91, 'loaded': True, 'loadedTime': 5408, 'positionName': 'LEFT', 'positionCoords': [81.52, 179.5], 'bid': 3.73}, {'imgObject': {}, 'id': 'veggieswithdip', 'src': '/static/foodstim60/veggieswithdip.jpg', 'key': 'i', 'origWidth': 409, 'origHeight': 409, 'width': 409, 'height': 409, 'widthPercent': 0.45, 'rescaleHeight': False, 'trialN': 91, 'loaded': True, 'loadedTime': 5361, 'positionName': 'RIGHT', 'positionCoords': [532.48, 179.5], 'bid': 7.96}]",399906,1669831500668,chicken nuggets2,veggieswithdip,3.73,7.96,4.23,NaN,NaN,NaN,NaN,False,403958,4052,1669831504720,4052,,HRV,HRV_0126,2022-11-30 18:11:05
92,"[{'imgObject': {}, 'id': 'hashbrowns', 'src': '/static/foodstim60/hashbrowns.jpg', 'key': 'u', 'origWidth': 411, 'origHeight': 410, 'width': 411, 'height': 410, 'widthPercent': 0.45, 'rescaleHeight': False, 'trialN': 92, 'loaded': True, 'loadedTime': 5314, 'positionName': 'LEFT', 'positionCoords': [80.52, 179], 'bid': 7.1000000000000005}, {'imgObject': {}, 'id': 'olives', 'src': '/static/foodstim60/olives.jpg', 'key': 'i', 'origWidth': 410, 'origHeight': 410, 'width': 410, 'height': 410, 'widthPercent': 0.45, 'rescaleHeight': False, 'trialN': 92, 'loaded': True, 'loadedTime': 5934, 'positionName': 'RIGHT', 'positionCoords': [532.48, 179], 'bid': 7.67}]",403958,1669831504720,hashbrowns,olives,7.1000000000000005,7.67,0.5699999999999994,NaN,NaN,NaN,NaN,False,407976,4018,1669831508738,4018,,HRV,HRV_0126,2022-11-30 18:11:05
93,"[{'imgObject': {}, 'id': 'mac & cheese', 'src': '/static/foodstim60/mac & cheese.jpg', 'key': 'u', 'origWidth': 410, 'origHeight': 410, 'width': 410, 'height': 410, 'widthPercent': 0.45, 'rescaleHeight': False, 'trialN': 93, 'loaded': True, 'loadedTime': 5471, 'positionName': 'LEFT', 'positionCoords': [81.52, 179], 'bid': 5.3500000000000005}, {'imgObject': {}, 'id': 'salad w chicken', 'src': '/static/foodstim60/salad w chicken.jpg', 'key': 'i', 'origWidth': 411, 'origHeight': 411, 'width': 411, 'height': 411, 'widthPercent': 0.45, 'rescaleHeight': False, 'trialN': 93, 'loaded': True, 'loadedTime': 5856, 'positionName': 'RIGHT', 'positionCoords': [532.48, 178.5], 'bid': 5.99}]",407976,1669831508738,mac & cheese,salad w chicken,5.3500000000000005,5.99,0.6399999999999997,NaN,NaN,NaN,NaN,False,412001,4025,1669831512763,4025,,HRV,HRV_0126,2022-11-30 18:11:05
94,"[{'imgObject': {}, 'id': 'avocado', 'src': '/static/foodstim60/avocado.jpg', 'key': 'u', 'origWidth': 409, 'origHeight': 409, 'width': 409, 'height': 409, 'widthPercent': 0.45, 'rescaleHeight': False, 'trialN': 94, 'loaded': True, 'loadedTime': 5919, 'positionName': 'LEFT', 'positionCoords': [82.52, 179.5], 'bid': 8.82}, {'imgObject': {}, 'id': 'edamame', 'src': '/static/foodstim60/edamame.jpg', 'key': 'i', 'origWidth': 409, 'origHeight': 410, 'width': 409, 'height': 410, 'widthPercent': 0.45, 'rescaleHeight': False, 'trialN': 94, 'loaded': True, 'loadedTime': 5654, 'positionName': 'RIGHT', 'positionCoords': [532.48, 179], 'bid': 8.75}]",412008,1669831512770,avocado,edamame,8.82,8.75,-0.07000000000000028,NaN,NaN,NaN,NaN,False,416019,4011,1669831516781,4011,,HRV,HRV_0126,2022-11-30 18:11:05
95,"[{'imgObject': {}, 'id': 'blueberries', 'src': '/static/foodstim60/blueberries.jpg', 'key': 'u', 'origWidth': 411, 'origHeight': 411, 'width': 411, 'height': 411, 'widthPercent': 0.45, 'rescaleHeight': False, 'trialN': 95, 'loaded': True, 'loadedTime': 5481, 'positionName': 'LEFT', 'positionCoords': [80.52, 178.5], 'bid': 9.96}, {'imgObject': {}, 'id': 'salmon', 'src': '/static/foodstim60/salmon.jpg', 'key': 'i', 'origWidth': 410, 'origHeight': 409, 'width': 410, 'height': 409, 'widthPercent': 0.45, 'rescaleHeight': False, 'trialN': 95, 'loaded': True, 'loadedTime': 5528, 'positionName': 'RIGHT', 'positionCoords': [532.48, 179.5], 'bid': 8.69}]",416019,1669831516781,blueberries,salmon,9.96,8.69,-1.2700000000000014,NaN,NaN,NaN,NaN,False,420052,4033,1669831520814,4033,,HRV,HRV_0126,2022-11-30 18:11:05
96,"[{'imgObject': {}, 'id': 'raspberries', 'src': '/static/foodstim60/raspberries.jpg', 'key': 'u', 'origWidth': 411, 'origHeight': 411, 'width': 411, 'height': 411, 'widthPercent': 0.45, 'rescaleHeight': False, 'trialN': 96, 'loaded': True, 'loadedTime': 5528, 'positionName': 'LEFT', 'positionCoords': [80.52, 178.5], 'bid': 8.57}, {'imgObject': {}, 'id': 'tacos', 'src': '/static/foodstim60/tacos.jpg', 'key': 'i', 'origWidth': 411, 'origHeight': 411, 'width': 411, 'height': 411, 'widthPercent': 0.45, 'rescaleHeight': False, 'trialN': 96, 'loaded': True, 'loadedTime': 5009, 'positionName': 'RIGHT', 'positionCoords': [532.48, 178.5], 'bid': 8.08}]",420052,1669831520814,raspberries,tacos,8.57,8.08,-0.4900000000000002,NaN,NaN,NaN,NaN,False,424094,4042,1669831524856,4042,,HRV,HRV_0126,2022-11-30 18:11:05
97,"[{'imgObject': {}, 'id': 'seaweed', 'src': '/static/foodstim60/seaweed.jpg', 'key': 'u', 'origWidth': 410, 'origHeight': 410, 'width': 410, 'height': 410, 'widthPercent': 0.45, 'rescaleHeight': False, 'trialN': 97, 'loaded': True, 'loadedTime': 4915, 'positionName': 'LEFT', 'positionCoords': [81.52, 179], 'bid': 4.72}, {'imgObject': {}, 'id': 'burger', 'src': '/static/foodstim60/burger.jpg', 'key': 'i', 'origWidth': 409, 'origHeight': 409, 'width': 409, 'height': 409, 'widthPercent': 0.45, 'rescaleHeight': False, 'trialN': 97, 'loaded': True, 'loadedTime': 5252, 'positionName': 'RIGHT', 'positionCoords': [532.48, 179.5], 'bid': 4.92}]",424095,1669831524857,seaweed,burger,4.72,4.92,0.20000000000000018,NaN,NaN,NaN,NaN,False,428117,4022,1669831528879,4022,,HRV,HRV_0126,2022-11-30 18:11:05
98,"[{'imgObject': {}, 'id': 'rigatoni and sauce', 'src': '/static/foodstim60/rigatoni and sauce.jpg', 'key': 'u', 'origWidth': 410, 'origHeight': 411, 'width': 410, 'height': 411, 'widthPercent': 0.45, 'rescaleHeight': False, 'trialN': 98, 'loaded': True, 'loadedTime': 5747, 'positionName': 'LEFT', 'positionCoords': [81.52, 178.5], 'bid': 6.5}, {'imgObject': {}, 'id': 'apple slices', 'src': '/static/foodstim60/apple slices.jpg', 'key': 'i', 'origWidth': 409, 'origHeight': 410, 'width': 409, 'height': 410, 'widthPercent': 0.45, 'rescaleHeight': False, 'trialN': 98, 'loaded': True, 'loadedTime': 5856, 'positionName': 'RIGHT', 'positionCoords': [532.48, 179], 'bid': 9.27}]",428118,1669831528880,rigatoni and sauce,apple slices,6.5,9.27,2.7699999999999996,NaN,NaN,NaN,NaN,False,432152,4034,1669831532914,4034,,HRV,HRV_0126,2022-11-30 18:11:05
99,"[{'imgObject': {}, 'id': 'blueberries', 'src': '/static/foodstim60/blueberries.jpg', 'key': 'u', 'origWidth': 411, 'origHeight': 411, 'width': 411, 'height': 411, 'widthPercent': 0.45, 'rescaleHeight': False, 'trialN': 99, 'loaded': True, 'loadedTime': 5481, 'positionName': 'LEFT', 'positionCoords': [80.52, 178.5], 'bid': 9.96}, {'imgObject': {}, 'id': 'popsicles', 'src': '/static/foodstim60/popsicles.jpg', 'key': 'i', 'origWidth': 410, 'origHeight': 410, 'width': 410, 'height': 410, 'widthPercent': 0.45, 'rescaleHeight': False, 'trialN': 99, 'loaded': True, 'loadedTime': 6395, 'positionName': 'RIGHT', 'positionCoords': [532.48, 179], 'bid': 9.25}]",432152,1669831532914,blueberries,popsicles,9.96,9.25,-0.7100000000000009,NaN,NaN,NaN,NaN,False,436184,4032,1669831536946,4032,,HRV,HRV_0126,2022-11-30 18:11:05
100,"[{'imgObject': {}, 'id': 'turkeysandwich', 'src': '/static/foodstim60/turkeysandwich.jpg', 'key': 'u', 'origWidth': 409, 'origHeight': 409, 'width': 409, 'height': 409, 'widthPercent': 0.45, 'rescaleHeight': False, 'trialN': 100, 'loaded': True, 'loadedTime': 5591, 'positionName': 'LEFT', 'positionCoords': [82.52, 179.5], 'bid': 3.1}, {'imgObject': {}, 'id': 'Tribe humus pita', 'src': '/static/foodstim60/Tribe humus pita.jpg', 'key': 'i', 'origWidth': 411, 'origHeight': 411, 'width': 411, 'height': 411, 'widthPercent': 0.45, 'rescaleHeight': False, 'trialN': 100, 'loaded': True, 'loadedTime': 5481, 'positionName': 'RIGHT', 'positionCoords': [532.48, 178.5], 'bid': 5.54}]",436185,1669831536947,turkeysandwich,Tribe humus pita,3.1,5.54,2.44,NaN,NaN,NaN,NaN,False,440217,4032,1669831540979,4032,,HRV,HRV_0126,2022-11-30 18:11:05
101,"[{'imgObject': {}, 'id': 'burrito', 'src': '/static/foodstim60/burrito.jpg', 'key': 'u', 'origWidth': 410, 'origHeight': 410, 'width': 410, 'height': 410, 'widthPercent': 0.45, 'rescaleHeight': False, 'trialN': 101, 'loaded': True, 'loadedTime': 5346, 'positionName': 'LEFT', 'positionCoords': [81.52, 179], 'bid': 2.32}, {'imgObject': {}, 'id': 'roastedpotatoes', 'src': '/static/foodstim60/roastedpotatoes.jpg', 'key': 'i', 'origWidth': 409, 'origHeight': 410, 'width': 409, 'height': 410, 'widthPercent': 0.45, 'rescaleHeight': False, 'trialN': 101, 'loaded': True, 'loadedTime': 5747, 'positionName': 'RIGHT', 'positionCoords': [532.48, 179], 'bid': 5.87}]",440217,1669831540979,burrito,roastedpotatoes,2.32,5.87,3.5500000000000003,NaN,NaN,NaN,NaN,False,444234,4017,1669831544996,4017,,HRV,HRV_0126,2022-11-30 18:11:05
102,"[{'imgObject': {}, 'id': 'corn cob', 'src': '/static/foodstim60/corn cob.jpg', 'key': 'u', 'origWidth': 411, 'origHeight': 411, 'width': 411, 'height': 411, 'widthPercent': 0.45, 'rescaleHeight': False, 'trialN': 102, 'loaded': True, 'loadedTime': 5408, 'positionName': 'LEFT', 'positionCoords': [80.52, 178.5], 'bid': 8.22}, {'imgObject': {}, 'id': 'seaweed', 'src': '/static/foodstim60/seaweed.jpg', 'key': 'i', 'origWidth': 410, 'origHeight': 410, 'width': 410, 'height': 410, 'widthPercent': 0.45, 'rescaleHeight': False, 'trialN': 102, 'loaded': True, 'loadedTime': 4931, 'positionName': 'RIGHT', 'positionCoords': [532.48, 179], 'bid': 4.72}]",444236,1669831544998,corn cob,seaweed,8.22,4.72,-3.500000000000001,NaN,NaN,NaN,NaN,False,448269,4033,1669831549031,4033,,HRV,HRV_0126,2022-11-30 18:11:05
103,"[{'imgObject': {}, 'id': 'turkey sandwich', 'src': '/static/foodstim60/turkey sandwich.jpg', 'key': 'u', 'origWidth': 409, 'origHeight': 409, 'width': 409, 'height': 409, 'widthPercent': 0.45, 'rescaleHeight': False, 'trialN': 103, 'loaded': True, 'loadedTime': 5189, 'positionName': 'LEFT', 'positionCoords': [82.52, 179.5], 'bid': 7.12}, {'imgObject': {}, 'id': 'cheerios', 'src': '/static/foodstim60/cheerios.jpg', 'key': 'i', 'origWidth': 409, 'origHeight': 410, 'width': 409, 'height': 410, 'widthPercent': 0.45, 'rescaleHeight': False, 'trialN': 103, 'loaded': True, 'loadedTime': 5856, 'positionName': 'RIGHT', 'positionCoords': [532.48, 179], 'bid': 8.3}]",448270,1669831549032,turkey sandwich,cheerios,7.12,8.3,1.1800000000000006,NaN,NaN,NaN,NaN,False,452300,4030,1669831553062,4030,,HRV,HRV_0126,2022-11-30 18:11:05
104,"[{'imgObject': {}, 'id': 'hotdog w must', 'src': '/static/foodstim60/hotdog w must.jpg', 'key': 'u', 'origWidth': 409, 'origHeight': 409, 'width': 409, 'height': 409, 'widthPercent': 0.45, 'rescaleHeight': False, 'trialN': 104, 'loaded': True, 'loadedTime': 5513, 'positionName': 'LEFT', 'positionCoords': [82.52, 179.5], 'bid': 5.8}, {'imgObject': {}, 'id': 'chicken nuggets2', 'src': '/static/foodstim60/chicken nuggets2.jpg', 'key': 'i', 'origWidth': 410, 'origHeight': 409, 'width': 410, 'height': 409, 'widthPercent': 0.45, 'rescaleHeight': False, 'trialN': 104, 'loaded': True, 'loadedTime': 5408, 'positionName': 'RIGHT', 'positionCoords': [532.48, 179.5], 'bid': 3.73}]",452301,1669831553063,hotdog w must,chicken nuggets2,5.8,3.73,-2.07,NaN,NaN,NaN,NaN,False,456334,4033,1669831557096,4033,,HRV,HRV_0126,2022-11-30 18:11:05
105,"[{'imgObject': {}, 'id': 'chicken nuggets2', 'src': '/static/foodstim60/chicken nuggets2.jpg', 'key': 'u', 'origWidth': 410, 'origHeight': 409, 'width': 410, 'height': 409, 'widthPercent': 0.45, 'rescaleHeight': False, 'trialN': 105, 'loaded': True, 'loadedTime': 5392, 'positionName': 'LEFT', 'positionCoords': [81.52, 179.5], 'bid': 3.73}, {'imgObject': {}, 'id': 'baked potato', 'src': '/static/foodstim60/baked potato.jpg', 'key': 'i', 'origWidth': 409, 'origHeight': 410, 'width': 409, 'height': 410, 'widthPercent': 0.45, 'rescaleHeight': False, 'trialN': 105, 'loaded': True, 'loadedTime': 5591, 'positionName': 'RIGHT', 'positionCoords': [532.48, 179], 'bid': 3.28}]",456334,1669831557096,chicken nuggets2,baked potato,3.73,3.28,-0.4500000000000002,NaN,NaN,NaN,NaN,False,460354,4020,1669831561116,4020,,HRV,HRV_0126,2022-11-30 18:11:05
106,"[{'imgObject': {}, 'id': 'turkeysandwich', 'src': '/static/foodstim60/turkeysandwich.jpg', 'key': 'u', 'origWidth': 409, 'origHeight': 409, 'width': 409, 'height': 409, 'widthPercent': 0.45, 'rescaleHeight': False, 'trialN': 106, 'loaded': True, 'loadedTime': 5591, 'positionName': 'LEFT', 'positionCoords': [82.52, 179.5], 'bid': 3.1}, {'imgObject': {}, 'id': 'salad w chicken', 'src': '/static/foodstim60/salad w chicken.jpg', 'key': 'i', 'origWidth': 411, 'origHeight': 411, 'width': 411, 'height': 411, 'widthPercent': 0.45, 'rescaleHeight': False, 'trialN': 106, 'loaded': True, 'loadedTime': 5856, 'positionName': 'RIGHT', 'positionCoords': [532.48, 178.5], 'bid': 5.99}]",460354,1669831561116,turkeysandwich,salad w chicken,3.1,5.99,2.89,NaN,NaN,NaN,NaN,False,464430,4076,1669831565200,4084,,HRV,HRV_0126,2022-11-30 18:11:05
107,"[{'imgObject': {}, 'id': 'shreddedwheatwithmilk', 'src': '/static/foodstim60/shreddedwheatwithmilk.jpg', 'key': 'u', 'origWidth': 410, 'origHeight': 410, 'width': 410, 'height': 410, 'widthPercent': 0.45, 'rescaleHeight': False, 'trialN': 107, 'loaded': True, 'loadedTime': 5127, 'positionName': 'LEFT', 'positionCoords': [81.52, 179], 'bid': 5.87}, {'imgObject': {}, 'id': 'sweetpotato', 'src': '/static/foodstim60/sweetpotato.jpg', 'key': 'i', 'origWidth': 410, 'origHeight': 410, 'width': 410, 'height': 410, 'widthPercent': 0.45, 'rescaleHeight': False, 'trialN': 107, 'loaded': True, 'loadedTime': 5841, 'positionName': 'RIGHT', 'positionCoords': [532.48, 179], 'bid': 4.04}]",464438,1669831565200,shreddedwheatwithmilk,sweetpotato,5.87,4.04,-1.83,NaN,NaN,NaN,NaN,False,468463,4025,1669831569225,4025,,HRV,HRV_0126,2022-11-30 18:11:05
108,"[{'imgObject': {}, 'id': 'salmon', 'src': '/static/foodstim60/salmon.jpg', 'key': 'u', 'origWidth': 410, 'origHeight': 409, 'width': 410, 'height': 409, 'widthPercent': 0.45, 'rescaleHeight': False, 'trialN': 108, 'loaded': True, 'loadedTime': 5528, 'positionName': 'LEFT', 'positionCoords': [81.52, 179.5], 'bid': 8.69}, {'imgObject': {}, 'id': 'raspberries', 'src': '/static/foodstim60/raspberries.jpg', 'key': 'i', 'origWidth': 411, 'origHeight': 411, 'width': 411, 'height': 411, 'widthPercent': 0.45, 'rescaleHeight': False, 'trialN': 108, 'loaded': True, 'loadedTime': 5544, 'positionName': 'RIGHT', 'positionCoords': [532.48, 178.5], 'bid': 8.57}]",468463,1669831569225,salmon,raspberries,8.69,8.57,-0.11999999999999922,NaN,NaN,NaN,NaN,False,472494,4031,1669831573256,4031,,HRV,HRV_0126,2022-11-30 18:11:05
109,"[{'imgObject': {}, 'id': 'olives', 'src': '/static/foodstim60/olives.jpg', 'key': 'u', 'origWidth': 410, 'origHeight': 410, 'width': 410, 'height': 410, 'widthPercent': 0.45, 'rescaleHeight': False, 'trialN': 109, 'loaded': True, 'loadedTime': 5934, 'positionName': 'LEFT', 'positionCoords': [81.52, 179], 'bid': 7.67}, {'imgObject': {}, 'id': 'bagel plain', 'src': '/static/foodstim60/bagel plain.jpg', 'key': 'i', 'origWidth': 410, 'origHeight': 410, 'width': 410, 'height': 410, 'widthPercent': 0.45, 'rescaleHeight': False, 'trialN': 109, 'loaded': True, 'loadedTime': 4947, 'positionName': 'RIGHT', 'positionCoords': [532.48, 179], 'bid': 1.01}]",472494,1669831573256,olives,bagel plain,7.67,1.01,-6.66,NaN,NaN,NaN,NaN,False,476526,4032,1669831577288,4032,,HRV,HRV_0126,2022-11-30 18:11:05
110,"[{'imgObject': {}, 'id': 'ice cream sundae 002', 'src': '/static/foodstim60/ice cream sundae 002.jpg', 'key': 'u', 'origWidth': 409, 'origHeight': 409, 'width': 409, 'height': 409, 'widthPercent': 0.45, 'rescaleHeight': False, 'trialN': 110, 'loaded': True, 'loadedTime': 5623, 'positionName': 'LEFT', 'positionCoords': [82.52, 179.5], 'bid': 8.96}, {'imgObject': {}, 'id': 'mashed potato', 'src': '/static/foodstim60/mashed potato.jpg', 'key': 'i', 'origWidth': 409, 'origHeight': 409, 'width': 409, 'height': 409, 'widthPercent': 0.45, 'rescaleHeight': False, 'trialN': 110, 'loaded': True, 'loadedTime': 5560, 'positionName': 'RIGHT', 'positionCoords': [532.48, 179.5], 'bid': 7.890000000000001}]",476529,1669831577291,ice cream sundae 002,mashed potato,8.96,7.890000000000001,-1.0700000000000003,NaN,NaN,NaN,NaN,False,480556,4027,1669831581318,4027,,HRV,HRV_0126,2022-11-30 18:11:05
111,"[{'imgObject': {}, 'id': 'cherries', 'src': '/static/foodstim60/cherries.jpg', 'key': 'u', 'origWidth': 410, 'origHeight': 411, 'width': 410, 'height': 411, 'widthPercent': 0.45, 'rescaleHeight': False, 'trialN': 111, 'loaded': True, 'loadedTime': 5252, 'positionName': 'LEFT', 'positionCoords': [81.52, 178.5], 'bid': 6.58}, {'imgObject': {}, 'id': 'rigatoni', 'src': '/static/foodstim60/rigatoni.jpg', 'key': 'i', 'origWidth': 411, 'origHeight': 411, 'width': 411, 'height': 411, 'widthPercent': 0.45, 'rescaleHeight': False, 'trialN': 111, 'loaded': True, 'loadedTime': 5205, 'positionName': 'RIGHT', 'positionCoords': [532.48, 178.5], 'bid': 7.77}]",480558,1669831581320,cherries,rigatoni,6.58,7.77,1.1899999999999995,NaN,NaN,NaN,NaN,False,484589,4031,1669831585350,4030,,HRV,HRV_0126,2022-11-30 18:11:05
112,"[{'imgObject': {}, 'id': 'eggsalad', 'src': '/static/foodstim60/eggsalad.jpg', 'key': 'u', 'origWidth': 410, 'origHeight': 409, 'width': 410, 'height': 409, 'widthPercent': 0.45, 'rescaleHeight': False, 'trialN': 112, 'loaded': True, 'loadedTime': 5763, 'positionName': 'LEFT', 'positionCoords': [81.52, 179.5], 'bid': 8.2}, {'imgObject': {}, 'id': 'cocktailshrimp', 'src': '/static/foodstim60/cocktailshrimp.jpg', 'key': 'i', 'origWidth': 410, 'origHeight': 410, 'width': 410, 'height': 410, 'widthPercent': 0.45, 'rescaleHeight': False, 'trialN': 112, 'loaded': True, 'loadedTime': 5221, 'positionName': 'RIGHT', 'positionCoords': [532.48, 179], 'bid': 6.95}]",484589,1669831585350,eggsalad,cocktailshrimp,8.2,6.95,-1.2499999999999991,NaN,NaN,NaN,NaN,False,488619,4030,1669831589380,4030,,HRV,HRV_0126,2022-11-30 18:11:05
113,"[{'imgObject': {}, 'id': 'granola w milk', 'src': '/static/foodstim60/granola w milk.jpg', 'key': 'u', 'origWidth': 410, 'origHeight': 410, 'width': 410, 'height': 410, 'widthPercent': 0.45, 'rescaleHeight': False, 'trialN': 113, 'loaded': True, 'loadedTime': 4994, 'positionName': 'LEFT', 'positionCoords': [81.52, 179], 'bid': 6.62}, {'imgObject': {}, 'id': 'kiwi', 'src': '/static/foodstim60/kiwi.jpg', 'key': 'i', 'origWidth': 410, 'origHeight': 410, 'width': 410, 'height': 410, 'widthPercent': 0.45, 'rescaleHeight': False, 'trialN': 113, 'loaded': True, 'loadedTime': 5872, 'positionName': 'RIGHT', 'positionCoords': [532.48, 179], 'bid': 6.5600000000000005}]",488621,1669831589382,granola w milk,kiwi,6.62,6.5600000000000005,-0.05999999999999961,NaN,NaN,NaN,NaN,False,492662,4041,1669831593423,4041,,HRV,HRV_0126,2022-11-30 18:11:05
114,"[{'imgObject': {}, 'id': 'roastedpotatoes', 'src': '/static/foodstim60/roastedpotatoes.jpg', 'key': 'u', 'origWidth': 409, 'origHeight': 410, 'width': 409, 'height': 410, 'widthPercent': 0.45, 'rescaleHeight': False, 'trialN': 114, 'loaded': True, 'loadedTime': 5747, 'positionName': 'LEFT', 'positionCoords': [82.52, 179], 'bid': 5.87}, {'imgObject': {}, 'id': 'shreddedwheatwithmilk', 'src': '/static/foodstim60/shreddedwheatwithmilk.jpg', 'key': 'i', 'origWidth': 410, 'origHeight': 410, 'width': 410, 'height': 410, 'widthPercent': 0.45, 'rescaleHeight': False, 'trialN': 114, 'loaded': True, 'loadedTime': 5127, 'positionName': 'RIGHT', 'positionCoords': [532.48, 179], 'bid': 5.87}]",492662,1669831593423,roastedpotatoes,shreddedwheatwithmilk,5.87,5.87,0.0,NaN,NaN,NaN,NaN,False,496682,4020,1669831597443,4020,,HRV,HRV_0126,2022-11-30 18:11:05
115,"[{'imgObject': {}, 'id': 'tacos', 'src': '/static/foodstim60/tacos.jpg', 'key': 'u', 'origWidth': 411, 'origHeight': 411, 'width': 411, 'height': 411, 'widthPercent': 0.45, 'rescaleHeight': False, 'trialN': 115, 'loaded': True, 'loadedTime': 5009, 'positionName': 'LEFT', 'positionCoords': [80.52, 178.5], 'bid': 8.08}, {'imgObject': {}, 'id': 'corn cob', 'src': '/static/foodstim60/corn cob.jpg', 'key': 'i', 'origWidth': 411, 'origHeight': 411, 'width': 411, 'height': 411, 'widthPercent': 0.45, 'rescaleHeight': False, 'trialN': 115, 'loaded': True, 'loadedTime': 5408, 'positionName': 'RIGHT', 'positionCoords': [532.48, 178.5], 'bid': 8.22}]",496682,1669831597443,tacos,corn cob,8.08,8.22,0.14000000000000057,NaN,NaN,NaN,NaN,False,500712,4030,1669831601473,4030,,HRV,HRV_0126,2022-11-30 18:11:05
116,"[{'imgObject': {}, 'id': 'cantaloupe', 'src': '/static/foodstim60/cantaloupe.jpg', 'key': 'u', 'origWidth': 409, 'origHeight': 409, 'width': 409, 'height': 409, 'widthPercent': 0.45, 'rescaleHeight': False, 'trialN': 116, 'loaded': True, 'loadedTime': 5346, 'positionName': 'LEFT', 'positionCoords': [82.52, 179.5], 'bid': 9}, {'imgObject': {}, 'id': 'raisin bran w milk', 'src': '/static/foodstim60/raisin bran w milk.jpg', 'key': 'i', 'origWidth': 411, 'origHeight': 411, 'width': 411, 'height': 411, 'widthPercent': 0.45, 'rescaleHeight': False, 'trialN': 116, 'loaded': True, 'loadedTime': 5778, 'positionName': 'RIGHT', 'positionCoords': [532.48, 178.5], 'bid': 8.33}]",500713,1669831601474,cantaloupe,raisin bran w milk,9.0,8.33,-0.6699999999999999,NaN,NaN,NaN,NaN,False,504743,4030,1669831605504,4030,,HRV,HRV_0126,2022-11-30 18:11:05
117,"[{'imgObject': {}, 'id': 'olives', 'src': '/static/foodstim60/olives.jpg', 'key': 'u', 'origWidth': 410, 'origHeight': 410, 'width': 410, 'height': 410, 'widthPercent': 0.45, 'rescaleHeight': False, 'trialN': 117, 'loaded': True, 'loadedTime': 5934, 'positionName': 'LEFT', 'positionCoords': [81.52, 179], 'bid': 7.67}, {'imgObject': {}, 'id': 'chickenfingers', 'src': '/static/foodstim60/chickenfingers.jpg', 'key': 'i', 'origWidth': 410, 'origHeight': 410, 'width': 410, 'height': 410, 'widthPercent': 0.45, 'rescaleHeight': False, 'trialN': 117, 'loaded': True, 'loadedTime': 5825, 'positionName': 'RIGHT', 'positionCoords': [532.48, 179], 'bid': 6.19}]",504743,1669831605504,olives,chickenfingers,7.67,6.19,-1.4799999999999995,NaN,NaN,NaN,NaN,False,508759,4016,1669831609520,4016,,HRV,HRV_0126,2022-11-30 18:11:05
