success,trial_type,trial_index,time_elapsed,internal_node_id,Block,TrialNumber,TrialTime,trialTimeDiff,FPS_avg,FPS_med,FPS_mode,TrialDur,winResizeTime,rt,block,button_pressed,MotCoh,MotDir,ColCoh,Color,ChoiceKey,Choice,Accuracy,RT,nFrames,FPS,PPD,missTrial,missTrialMsg,onsetDelay,fullScreenExitTime,canvCenter,TrialType,Score,BlockTrial,stimulus,button_labels,exp,subjectId,date
True,fullscreen,0,1946,0.0-0.0,0.0,1.0,,,,,,,,,,,,,,,,,,,,,,,,,,,,,,,,HRV,HRV_0312,2022-11-30 22:14:16
,wl-check-fps,1,6976,0.0-1.0,0.0,2.0,"[2392.2, 2407.7, 2425.5, 2442.2, 2458.7, 2475.1, 2492.5, 2509, 2524.8, 2542.8, 2558.7, 2575.4, 2592.2, 2608.7, 2626.4, 2642.1, 2658.9, 2675.6, 2692.2, 2709, 2725.8, 2742.8, 2759.8, 2776.3, 2792.8, 2809.8, 2826.5, 2843.2, 2860, 2875.7, 2893.4, 2909.7, 2926.7, 2942.9, 2959.5, 2976.9, 2993.5, 3009.8, 3026.4, 3043.7, 3060.5, 3076.7, 3093.2, 3110.8, 3126.4, 3143.5, 3160.3, 3176.7, 3194.1, 3210.2, 3227, 3244.3, 3260.1, 3277, 3293.4, 3310.7, 3327.5, 3344.3, 3361, 3377.3, 3393.7, 3411.2, 3427.7, 3444.6, 3461.3, 3477.2, 3495.2, 3511.3, 3527.6, 3544.5, 3560.9, 3578.6, 3594.6, 3611.4, 3628.6, 3645.5, 3662.3, 3678.3, 3695, 3711.9, 3728.9, 3745.6, 3762.2, 3779.2, 3795, 3811.7, 3828.6, 3845.7, 3862.7, 3878.4, 3896.1, 3911.8, 3929.4, 3945.2, 3962.8, 3979.6, 3996.3, 4012.5, 4029.4, 4046.1, 4062.6, 4079.6, 4096.3, 4113.2, 4129, 4146.6, 4162.8, 4179.6, 4196.8, 4212.9, 4229.8, 4246.7, 4262.7, 4279.7, 4296.7, 4313.3, 4330.5, 4346.7, 4363.3, 4380.7, 4396.4, 4413.4, 4430.2, 4446.8, 4463.3, 4481.1, 4497.5, 4513.4, 4530.6, 4547.5, 4564.3, 4581.3, 4597.8, 4614.4, 4630.6, 4647.5, 4664.2, 4680.9, 4697.8, 4713.6, 4730.4, 4747.2, 4764.3, 4781.2, 4798.3, 4814.7, 4831.5, 4847.6, 4864.3, 4880.9, 4897.4, 4914.3, 4931, 4948, 4964.9, 4981.6, 4998.5, 5015.4, 5032.2, 5047.9, 5065.2, 5082.5, 5098.6, 5115.4, 5132.7, 5148.4, 5165.3, 5182.6, 5199.2, 5215.9, 5232.5, 5249.2, 5266.2, 5282.3, 5299.2, 5315.3, 5332.9, 5349, 5366.1, 5382.5, 5399.4, 5416.3, 5432.9, 5449.8, 5466.4, 5482.4, 5499, 5516.1, 5533, 5549.1, 5565.8, 5582.5, 5599.7, 5616.6, 5633.2, 5649.9, 5666.9, 5682.8, 5699.7, 5716.4, 5733, 5750.6, 5766.3, 5783.2, 5800.1, 5817.1, 5833.3, 5850.3, 5866.9, 5883.5, 5900.4, 5917.3, 5934.2, 5950.8, 5967.6, 5984.3, 6000.5, 6017.7, 6034.7, 6051.1, 6067.1, 6084.3, 6100.6, 6118.2, 6134.7, 6150.9, 6168.2, 6184.9, 6201.3, 6217.6, 6234.1, 6251.6, 6267.6, 6284.2, 6301.4, 6317.6, 6335, 6350.9, 6369.3, 6384.7, 6401.9, 6418.5, 6436.3, 6451.2, 6468.8, 6484.9, 6501.5, 6518, 6534.7, 6551.7, 6568.8, 6585.4, 6602.3, 6619, 6635.7, 6652.5, 6668.5, 6685.8, 6702.7, 6719.1, 6735.5, 6752.5, 6769, 6786, 6802.9, 6819.7, 6836, 6852.7, 6869.3, 6886.4, 6903.2, 6919, 6936, 6952.6, 6969.8, 6986.6, 7003, 7020.1, 7036.5, 7052.9, 7069.4, 7086.2, 7103.5, 7120.2, 7136.5, 7153.7, 7169.9, 7186.5, 7203.3, 7220.6, 7236.8, 7254.3, 7270.8, 7287.1, 7303.7, 7320.1, 7337.2, 7353.5, 7370.2, 7387.5]","[14.2, 15.5, 17.8, 16.7, 16.5, 16.4, 17.4, 16.5, 15.8, 18, 15.9, 16.7, 16.8, 16.5, 17.7, 15.7, 16.8, 16.7, 16.6, 16.8, 16.8, 17, 17, 16.5, 16.5, 17, 16.7, 16.7, 16.8, 15.7, 17.7, 16.3, 17, 16.2, 16.6, 17.4, 16.6, 16.3, 16.6, 17.3, 16.8, 16.2, 16.5, 17.6, 15.6, 17.1, 16.8, 16.4, 17.4, 16.1, 16.8, 17.3, 15.8, 16.9, 16.4, 17.3, 16.8, 16.8, 16.7, 16.3, 16.4, 17.5, 16.5, 16.9, 16.7, 15.9, 18, 16.1, 16.3, 16.9, 16.4, 17.7, 16, 16.8, 17.2, 16.9, 16.8, 16, 16.7, 16.9, 17, 16.7, 16.6, 17, 15.8, 16.7, 16.9, 17.1, 17, 15.7, 17.7, 15.7, 17.6, 15.8, 17.6, 16.8, 16.7, 16.2, 16.9, 16.7, 16.5, 17, 16.7, 16.9, 15.8, 17.6, 16.2, 16.8, 17.2, 16.1, 16.9, 16.9, 16, 17, 17, 16.6, 17.2, 16.2, 16.6, 17.4, 15.7, 17, 16.8, 16.6, 16.5, 17.8, 16.4, 15.9, 17.2, 16.9, 16.8, 17, 16.5, 16.6, 16.2, 16.9, 16.7, 16.7, 16.9, 15.8, 16.8, 16.8, 17.1, 16.9, 17.1, 16.4, 16.8, 16.1, 16.7, 16.6, 16.5, 16.9, 16.7, 17, 16.9, 16.7, 16.9, 16.9, 16.8, 15.7, 17.3, 17.3, 16.1, 16.8, 17.3, 15.7, 16.9, 17.3, 16.6, 16.7, 16.6, 16.7, 17, 16.1, 16.9, 16.1, 17.6, 16.1, 17.1, 16.4, 16.9, 16.9, 16.6, 16.9, 16.6, 16, 16.6, 17.1, 16.9, 16.1, 16.7, 16.7, 17.2, 16.9, 16.6, 16.7, 17, 15.9, 16.9, 16.7, 16.6, 17.6, 15.7, 16.9, 16.9, 17, 16.2, 17, 16.6, 16.6, 16.9, 16.9, 16.9, 16.6, 16.8, 16.7, 16.2, 17.2, 17, 16.4, 16, 17.2, 16.3, 17.6, 16.5, 16.2, 17.3, 16.7, 16.4, 16.3, 16.5, 17.5, 16, 16.6, 17.2, 16.2, 17.4, 15.9, 18.4, 15.4, 17.2, 16.6, 17.8, 14.9, 17.6, 16.1, 16.6, 16.5, 16.7, 17, 17.1, 16.6, 16.9, 16.7, 16.7, 16.8, 16, 17.3, 16.9, 16.4, 16.4, 17, 16.5, 17, 16.9, 16.8, 16.3, 16.7, 16.6, 17.1, 16.8, 15.8, 17, 16.6, 17.2, 16.8, 16.4, 17.1, 16.4, 16.4, 16.5, 16.8, 17.3, 16.7, 16.3, 17.2, 16.2, 16.6, 16.8, 17.3, 16.2, 17.5, 16.5, 16.3, 16.6, 16.4, 17.1, 16.3, 16.7, 17.3]",60.0,60.0,59.0,5026.3,[],,,,,,,,,,,,,,,,,,,,,,,,,HRV,HRV_0312,2022-11-30 22:14:16
,wl-html-keyboard-response,2,29106,0.0-2.0-0.0,0.0,3.0,,,,,,,,20121.799999998882,0.0,0,,,,,,,,,,,,,,,,,,,,,,HRV,HRV_0312,2022-11-30 22:14:16
,wl-rdm,3,36346,0.0-3.0-0.0,0.0,4.0,,,,,,,[],,,,0.0,0.0,87.9,0.0,u,0.0,True,1665.0999999996275,100.0,59.0,40.0,False,,3000.0,[],"[840, 525]",ColorTask_Demo,,,,,HRV,HRV_0312,2022-11-30 22:14:16
,wl-rdm,4,41074,0.0-3.0-1.0,0.0,5.0,,,,,,,[],,,,0.0,0.0,87.9,1.0,i,1.0,True,664.2000000011176,40.0,59.0,40.0,False,,2000.0,[],"[840, 525]",ColorTask_Demo,,,,,HRV,HRV_0312,2022-11-30 22:14:16
,wl-html-keyboard-response,5,46514,0.0-3.0-2.0,0.0,6.0,,,,,,,,3433.300000000745,0.0,1,,,,,,,,,,,,,,,,,,,,,,HRV,HRV_0312,2022-11-30 22:14:16
,wl-html-keyboard-response,6,56682,0.0-4.0-0.0,0.0,7.0,,,,,,,,8161.5,0.0,0,,,,,,,,,,,,,,,,,,,,,,HRV,HRV_0312,2022-11-30 22:14:16
,wl-html-keyboard-response,7,72866,0.0-5.0-0.0,0.0,8.0,,,,,,,,14178.099999999627,0.0,0,,,,,,,,,,,,,,,,,,,,,,HRV,HRV_0312,2022-11-30 22:14:16
,wl-rdm,8,75074,0.0-6.0-0.0,0.0,9.0,,,,,,,[],,,,,,56.4,0.0,i,1.0,False,937.3999999985099,57.0,59.0,40.0,False,,201.0258237279843,[],"[840, 525]",ColorTask,-1.0,1.0,,,HRV,HRV_0312,2022-11-30 22:14:16
,wl-rdm,9,77364,0.0-6.1-0.1,0.0,10.0,,,,,,,[],,,,,,56.4,1.0,u,0.0,False,988.2999999988824,60.0,59.0,40.0,False,,232.68296179071228,[],"[840, 525]",ColorTask,-2.0,2.0,,,HRV,HRV_0312,2022-11-30 22:14:16
,wl-rdm,10,79251,0.0-6.2-0.2,0.0,11.0,,,,,,,[],,,,,,87.9,1.0,i,1.0,True,502.5,31.0,59.0,40.0,False,,310.1152880189571,[],"[840, 525]",ColorTask,-1.0,3.0,,,HRV,HRV_0312,2022-11-30 22:14:16
,wl-rdm,11,81606,0.0-6.3-0.3,0.0,12.0,,,,,,,[],,,,,,56.4,1.0,i,1.0,True,986.1000000014901,59.0,59.0,40.0,False,,294.840893285143,[],"[840, 525]",ColorTask,0.0,4.0,,,HRV,HRV_0312,2022-11-30 22:14:16
,wl-rdm,12,83762,0.0-6.4-0.4,0.0,13.0,,,,,,,[],,,,,,53.2,1.0,i,1.0,True,753.5999999996275,46.0,59.0,40.0,False,,328.3940690748929,[],"[840, 525]",ColorTask,1.0,5.0,,,HRV,HRV_0312,2022-11-30 22:14:16
,wl-rdm,13,85600,0.0-6.5-0.5,0.0,14.0,,,,,,,[],,,,,,87.9,0.0,u,0.0,True,512.6999999992549,31.0,59.0,40.0,False,,255.91196987679507,[],"[840, 525]",ColorTask,2.0,6.0,,,HRV,HRV_0312,2022-11-30 22:14:16
,wl-rdm,14,87772,0.0-6.6-0.6,0.0,15.0,,,,,,,[],,,,,,50.0,0.0,u,0.0,True,759.6000000014901,46.0,59.0,40.0,False,,348.11159470645634,[],"[840, 525]",ColorTask,3.0,7.0,,,HRV,HRV_0312,2022-11-30 22:14:16
,wl-rdm,15,89910,0.0-6.7-0.7,0.0,16.0,,,,,,,[],,,,,,53.2,0.0,u,0.0,True,680.9999999981374,41.0,59.0,40.0,False,,395.6363574900738,[],"[840, 525]",ColorTask,4.0,8.0,,,HRV,HRV_0312,2022-11-30 22:14:16
,wl-rdm,16,92316,0.0-6.8-0.8,0.0,17.0,,,,,,,[],,,,,,56.4,1.0,u,0.0,False,984.0,59.0,59.0,40.0,False,,366.83721716845025,[],"[840, 525]",ColorTask,3.0,9.0,,,HRV,HRV_0312,2022-11-30 22:14:16
,wl-rdm,17,94789,0.0-6.9-0.9,0.0,18.0,,,,,,,[],,,,,,50.0,1.0,u,0.0,False,1116.9000000003725,67.0,59.0,40.0,False,,287.5392079279943,[],"[840, 525]",ColorTask,2.0,10.0,,,HRV,HRV_0312,2022-11-30 22:14:16
,wl-rdm,18,96994,0.0-6.10-0.10,0.0,19.0,,,,,,,[],,,,,,53.2,0.0,u,0.0,True,903.5,55.0,59.0,40.0,False,,217.74492370734006,[],"[840, 525]",ColorTask,3.0,11.0,,,HRV,HRV_0312,2022-11-30 22:14:16
,wl-rdm,19,98999,0.0-6.11-0.11,0.0,20.0,,,,,,,[],,,,,,62.5,0.0,u,0.0,True,696.9000000022352,42.0,59.0,40.0,False,,237.39699852356648,[],"[840, 525]",ColorTask,4.0,12.0,,,HRV,HRV_0312,2022-11-30 22:14:16
,wl-rdm,20,100821,0.0-6.12-0.12,0.0,21.0,,,,,,,[],,,,,,56.4,0.0,i,1.0,False,473.5,29.0,59.0,40.0,False,,263.4642923260661,[],"[840, 525]",ColorTask,3.0,13.0,,,HRV,HRV_0312,2022-11-30 22:14:16
,wl-rdm,21,102691,0.0-6.13-0.13,0.0,22.0,,,,,,,[],,,,,,73.6,0.0,u,0.0,True,584.0000000018626,35.0,59.0,40.0,False,,229.43037546059526,[],"[840, 525]",ColorTask,4.0,14.0,,,HRV,HRV_0312,2022-11-30 22:14:16
,wl-rdm,22,104563,0.0-6.14-0.14,0.0,23.0,,,,,,,[],,,,,,73.6,1.0,i,1.0,True,591.6000000014901,36.0,59.0,40.0,False,,201.5434316085666,[],"[840, 525]",ColorTask,5.0,15.0,,,HRV,HRV_0312,2022-11-30 22:14:16
,wl-rdm,23,106585,0.0-6.15-0.15,0.0,24.0,,,,,,,[],,,,,,53.2,0.0,i,1.0,False,687.3000000026077,42.0,59.0,40.0,False,,260.0986492489102,[],"[840, 525]",ColorTask,4.0,16.0,,,HRV,HRV_0312,2022-11-30 22:14:16
,wl-rdm,24,108639,0.0-6.16-0.16,0.0,25.0,,,,,,,[],,,,,,56.4,0.0,u,0.0,True,629.0999999996275,38.0,59.0,40.0,False,,356.97703003593733,[],"[840, 525]",ColorTask,5.0,17.0,,,HRV,HRV_0312,2022-11-30 22:14:16
,wl-rdm,25,110962,0.0-6.17-0.17,0.0,26.0,,,,,,,[],,,,,,62.5,1.0,i,1.0,True,977.4000000003725,59.0,59.0,40.0,False,,277.70852534401854,[],"[840, 525]",ColorTask,6.0,18.0,,,HRV,HRV_0312,2022-11-30 22:14:16
,wl-rdm,26,112900,0.0-6.18-0.18,0.0,27.0,,,,,,,[],,,,,,73.6,0.0,u,0.0,True,650.0999999996275,39.0,59.0,40.0,False,,225.77077643059567,[],"[840, 525]",ColorTask,7.0,19.0,,,HRV,HRV_0312,2022-11-30 22:14:16
,wl-rdm,27,115039,0.0-6.19-0.19,0.0,28.0,,,,,,,[],,,,,,73.6,1.0,i,1.0,True,672.3000000007451,41.0,59.0,40.0,False,,389.80308028221316,[],"[840, 525]",ColorTask,8.0,20.0,,,HRV,HRV_0312,2022-11-30 22:14:16
,wl-rdm,28,117011,0.0-6.20-0.20,0.0,29.0,,,,,,,[],,,,,,73.6,0.0,u,0.0,True,601.2999999988824,36.0,59.0,40.0,False,,312.35115343866534,[],"[840, 525]",ColorTask,9.0,21.0,,,HRV,HRV_0312,2022-11-30 22:14:16
,wl-rdm,29,119232,0.0-6.21-0.21,0.0,30.0,,,,,,,[],,,,,,50.0,0.0,i,1.0,False,888.1999999992549,54.0,59.0,40.0,False,,260.95276784975704,[],"[840, 525]",ColorTask,8.0,22.0,,,HRV,HRV_0312,2022-11-30 22:14:16
,wl-rdm,30,121721,0.0-6.22-0.22,0.0,31.0,,,,,,,[],,,,,,53.2,1.0,i,1.0,True,1120.300000000745,67.0,59.0,40.0,False,,308.02570945102775,[],"[840, 525]",ColorTask,9.0,23.0,,,HRV,HRV_0312,2022-11-30 22:14:16
,wl-rdm,31,124361,0.0-6.23-0.23,0.0,32.0,,,,,,,[],,,,,,53.2,0.0,u,0.0,True,1338.300000000745,81.0,59.0,40.0,False,,218.99426776722743,[],"[840, 525]",ColorTask,10.0,24.0,,,HRV,HRV_0312,2022-11-30 22:14:16
,wl-rdm,32,126633,0.0-6.24-0.24,0.0,33.0,,,,,,,[],,,,,,56.4,1.0,i,1.0,True,894.0000000018626,54.0,59.0,40.0,False,,305.92632663106684,[],"[840, 525]",ColorTask,11.0,25.0,,,HRV,HRV_0312,2022-11-30 22:14:16
,wl-rdm,33,128655,0.0-6.25-0.25,0.0,34.0,,,,,,,[],,,,,,56.4,0.0,u,0.0,True,688.6999999992549,42.0,59.0,40.0,False,,254.96417245460447,[],"[840, 525]",ColorTask,12.0,26.0,,,HRV,HRV_0312,2022-11-30 22:14:16
,wl-rdm,34,130710,0.0-6.26-0.26,0.0,35.0,,,,,,,[],,,,,,73.6,0.0,u,0.0,True,672.7000000011176,41.0,59.0,40.0,False,,303.94055052132455,[],"[840, 525]",ColorTask,13.0,27.0,,,HRV,HRV_0312,2022-11-30 22:14:16
,wl-rdm,35,133066,0.0-6.27-0.27,0.0,36.0,,,,,,,[],,,,,,50.0,1.0,u,0.0,False,1060.800000000745,64.0,59.0,40.0,False,,220.48442219258945,[],"[840, 525]",ColorTask,12.0,28.0,,,HRV,HRV_0312,2022-11-30 22:14:16
,wl-rdm,36,135639,0.0-6.28-0.28,0.0,37.0,,,,,,,[],,,,,,53.2,0.0,u,0.0,True,1252.699999999255,76.0,59.0,40.0,False,,246.5507594445948,[],"[840, 525]",ColorTask,13.0,29.0,,,HRV,HRV_0312,2022-11-30 22:14:16
,wl-rdm,37,138029,0.0-6.29-0.29,0.0,38.0,,,,,,,[],,,,,,56.4,0.0,u,0.0,True,1049.7000000011176,63.0,59.0,40.0,False,,275.4911953210287,[],"[840, 525]",ColorTask,14.0,30.0,,,HRV,HRV_0312,2022-11-30 22:14:16
,wl-rdm,38,140969,0.0-6.30-0.30,0.0,39.0,,,,,,,[],,,,,,62.5,0.0,u,0.0,True,1646.5999999996275,99.0,59.0,40.0,False,,231.6527664298628,[],"[840, 525]",ColorTask,15.0,31.0,,,HRV,HRV_0312,2022-11-30 22:14:16
,wl-rdm,39,142889,0.0-6.31-0.31,0.0,40.0,,,,,,,[],,,,,,87.9,0.0,u,0.0,True,620.0999999996275,38.0,59.0,40.0,False,,211.46933088575474,[],"[840, 525]",ColorTask,16.0,32.0,,,HRV,HRV_0312,2022-11-30 22:14:16
,wl-rdm,40,144929,0.0-6.32-0.32,0.0,41.0,,,,,,,[],,,,,,53.2,0.0,u,0.0,True,737.4000000022352,45.0,59.0,40.0,False,,222.31052735241815,[],"[840, 525]",ColorTask,17.0,33.0,,,HRV,HRV_0312,2022-11-30 22:14:16
,wl-rdm,41,147000,0.0-6.33-0.33,0.0,42.0,,,,,,,[],,,,,,62.5,0.0,u,0.0,True,728.2000000011176,44.0,59.0,40.0,False,,281.3944000924608,[],"[840, 525]",ColorTask,18.0,34.0,,,HRV,HRV_0312,2022-11-30 22:14:16
,wl-rdm,42,149406,0.0-6.34-0.34,0.0,43.0,,,,,,,[],,,,,,53.2,1.0,i,1.0,True,1114.2999999988824,67.0,59.0,40.0,False,,229.75558315260963,[],"[840, 525]",ColorTask,19.0,35.0,,,HRV,HRV_0312,2022-11-30 22:14:16
,wl-rdm,43,151277,0.0-6.35-0.35,0.0,44.0,,,,,,,[],,,,,,73.6,1.0,i,1.0,True,573.1999999992549,35.0,59.0,40.0,False,,222.32194269085468,[],"[840, 525]",ColorTask,20.0,36.0,,,HRV,HRV_0312,2022-11-30 22:14:16
,wl-rdm,44,153315,0.0-6.36-0.36,0.0,45.0,,,,,,,[],,,,,,62.5,0.0,u,0.0,True,649.0,39.0,59.0,40.0,False,,328.3405461828281,[],"[840, 525]",ColorTask,21.0,37.0,,,HRV,HRV_0312,2022-11-30 22:14:16
,wl-rdm,45,155955,0.0-6.37-0.37,0.0,46.0,,,,,,,[],,,,,,62.5,0.0,u,0.0,True,1234.0999999996275,74.0,59.0,40.0,False,,344.8380340847383,[],"[840, 525]",ColorTask,22.0,38.0,,,HRV,HRV_0312,2022-11-30 22:14:16
,wl-rdm,46,158963,0.0-6.38-0.38,0.0,47.0,,,,,,,[],,,,,,50.0,0.0,i,1.0,False,1618.3999999985099,97.0,59.0,40.0,False,,331.8644215975905,[],"[840, 525]",ColorTask,21.0,39.0,,,HRV,HRV_0312,2022-11-30 22:14:16
,wl-rdm,47,161118,0.0-6.39-0.39,0.0,48.0,,,,,,,[],,,,,,62.5,0.0,u,0.0,True,880.3000000026077,53.0,59.0,40.0,False,,215.1319483628131,[],"[840, 525]",ColorTask,22.0,40.0,,,HRV,HRV_0312,2022-11-30 22:14:16
,wl-rdm,48,163240,0.0-6.40-0.40,0.0,49.0,,,,,,,[],,,,,,53.2,1.0,u,0.0,False,685.7999999988824,41.0,59.0,40.0,False,,374.0585341337792,[],"[840, 525]",ColorTask,21.0,41.0,,,HRV,HRV_0312,2022-11-30 22:14:16
,wl-rdm,49,165829,0.0-6.41-0.41,0.0,50.0,,,,,,,[],,,,,,56.4,0.0,u,0.0,True,1299.0000000018626,78.0,59.0,40.0,False,,230.71586794277283,[],"[840, 525]",ColorTask,22.0,42.0,,,HRV,HRV_0312,2022-11-30 22:14:16
,wl-rdm,50,167867,0.0-6.42-0.42,0.0,51.0,,,,,,,[],,,,,,50.0,1.0,i,1.0,True,757.3999999985099,46.0,59.0,40.0,False,,214.34783561473458,[],"[840, 525]",ColorTask,23.0,43.0,,,HRV,HRV_0312,2022-11-30 22:14:16
,wl-rdm,51,169773,0.0-6.43-0.43,0.0,52.0,,,,,,,[],,,,,,50.0,1.0,i,1.0,True,513.8999999985099,31.0,59.0,40.0,False,,328.2668492706074,[],"[840, 525]",ColorTask,24.0,44.0,,,HRV,HRV_0312,2022-11-30 22:14:16
,wl-rdm,52,171660,0.0-6.44-0.44,0.0,53.0,,,,,,,[],,,,,,62.5,1.0,i,1.0,True,598.0999999996275,36.0,59.0,40.0,False,,221.48172009031381,[],"[840, 525]",ColorTask,25.0,45.0,,,HRV,HRV_0312,2022-11-30 22:14:16
,wl-rdm,53,174066,0.0-6.45-0.45,0.0,54.0,,,,,,,[],,,,,,53.2,0.0,u,0.0,True,1058.9000000003725,64.0,59.0,40.0,False,,277.4282649387293,[],"[840, 525]",ColorTask,26.0,46.0,,,HRV,HRV_0312,2022-11-30 22:14:16
,wl-rdm,54,176038,0.0-6.46-0.46,0.0,55.0,,,,,,,[],,,,,,87.9,0.0,u,0.0,True,538.7000000011176,33.0,59.0,40.0,False,,354.3745368033723,[],"[840, 525]",ColorTask,27.0,47.0,,,HRV,HRV_0312,2022-11-30 22:14:16
,wl-rdm,55,177926,0.0-6.47-0.47,0.0,56.0,,,,,,,[],,,,,,73.6,0.0,u,0.0,True,529.0,32.0,59.0,40.0,False,,293.4524294236189,[],"[840, 525]",ColorTask,28.0,48.0,,,HRV,HRV_0312,2022-11-30 22:14:16
,wl-rdm,56,180081,0.0-6.48-0.48,0.0,57.0,,,,,,,[],,,,,,62.5,1.0,i,1.0,True,710.0,43.0,59.0,40.0,False,,371.5795437422309,[],"[840, 525]",ColorTask,29.0,49.0,,,HRV,HRV_0312,2022-11-30 22:14:16
,wl-rdm,57,181902,0.0-6.49-0.49,0.0,58.0,,,,,,,[],,,,,,62.5,1.0,i,1.0,True,461.7999999988824,28.0,59.0,40.0,False,,288.25138589445083,[],"[840, 525]",ColorTask,30.0,50.0,,,HRV,HRV_0312,2022-11-30 22:14:16
,wl-rdm,58,183840,0.0-6.50-0.50,0.0,59.0,,,,,,,[],,,,,,73.6,0.0,u,0.0,True,660.2999999988824,40.0,59.0,40.0,False,,208.85441295761393,[],"[840, 525]",ColorTask,31.0,51.0,,,HRV,HRV_0312,2022-11-30 22:14:16
,wl-rdm,59,185812,0.0-6.51-0.51,0.0,60.0,,,,,,,[],,,,,,50.0,0.0,i,1.0,False,690.5999999996275,42.0,59.0,40.0,False,,206.63461971124835,[],"[840, 525]",ColorTask,30.0,52.0,,,HRV,HRV_0312,2022-11-30 22:14:16
,wl-rdm,60,187800,0.0-6.52-0.52,0.0,61.0,,,,,,,[],,,,,,50.0,0.0,u,0.0,True,536.5999999996275,33.0,59.0,40.0,False,,384.7507741557865,[],"[840, 525]",ColorTask,31.0,53.0,,,HRV,HRV_0312,2022-11-30 22:14:16
,wl-rdm,61,190540,0.0-6.53-0.53,0.0,62.0,,,,,,,[],,,,,,62.5,1.0,i,1.0,True,1382.9000000003725,83.0,59.0,40.0,False,,301.1687387300028,[],"[840, 525]",ColorTask,32.0,54.0,,,HRV,HRV_0312,2022-11-30 22:14:16
,wl-rdm,62,193780,0.0-6.54-0.54,0.0,63.0,,,,,,,[],,,,,,56.4,1.0,i,1.0,True,1841.8000000026077,111.0,59.0,40.0,False,,322.25542671886046,[],"[840, 525]",ColorTask,33.0,55.0,,,HRV,HRV_0312,2022-11-30 22:14:16
,wl-rdm,63,195736,0.0-6.55-0.55,0.0,64.0,,,,,,,[],,,,,,87.9,0.0,u,0.0,True,526.3000000007451,32.0,59.0,40.0,False,,363.0343595679485,[],"[840, 525]",ColorTask,34.0,56.0,,,HRV,HRV_0312,2022-11-30 22:14:16
,wl-rdm,64,197707,0.0-6.56-0.56,0.0,65.0,,,,,,,[],,,,,,50.0,1.0,i,1.0,True,673.5,41.0,59.0,40.0,False,,224.0357108599319,[],"[840, 525]",ColorTask,35.0,57.0,,,HRV,HRV_0312,2022-11-30 22:14:16
,wl-rdm,65,199913,0.0-6.57-0.57,0.0,66.0,,,,,,,[],,,,,,73.6,1.0,i,1.0,True,768.0000000018626,46.0,59.0,40.0,False,,382.62799077591126,[],"[840, 525]",ColorTask,36.0,58.0,,,HRV,HRV_0312,2022-11-30 22:14:16
,wl-rdm,66,202119,0.0-6.58-0.58,0.0,67.0,,,,,,,[],,,,,,73.6,1.0,i,1.0,True,829.1999999992549,50.0,59.0,40.0,False,,303.41668605858854,[],"[840, 525]",ColorTask,37.0,59.0,,,HRV,HRV_0312,2022-11-30 22:14:16
,wl-rdm,67,204056,0.0-6.59-0.59,0.0,68.0,,,,,,,[],,,,,,73.6,0.0,u,0.0,True,517.1999999992549,31.0,59.0,40.0,False,,358.98206917548606,[],"[840, 525]",ColorTask,38.0,60.0,,,HRV,HRV_0312,2022-11-30 22:14:16
,wl-rdm,68,206379,0.0-6.60-0.60,0.0,69.0,,,,,,,[],,,,,,56.4,1.0,i,1.0,True,1041.9000000003725,63.0,59.0,40.0,False,,205.15994530946946,[],"[840, 525]",ColorTask,39.0,61.0,,,HRV,HRV_0312,2022-11-30 22:14:16
,wl-rdm,69,208667,0.0-6.61-0.61,0.0,70.0,,,,,,,[],,,,,,56.4,1.0,i,1.0,True,1007.0999999996275,61.0,59.0,40.0,False,,211.8452922031307,[],"[840, 525]",ColorTask,40.0,62.0,,,HRV,HRV_0312,2022-11-30 22:14:16
,wl-rdm,70,210639,0.0-6.62-0.62,0.0,71.0,,,,,,,[],,,,,,53.2,1.0,u,0.0,False,610.8000000007451,37.0,59.0,40.0,False,,285.1957134418236,[],"[840, 525]",ColorTask,39.0,63.0,,,HRV,HRV_0312,2022-11-30 22:14:16
,wl-rdm,71,213062,0.0-6.63-0.63,0.0,72.0,,,,,,,[],,,,,,56.4,0.0,u,0.0,True,1127.5999999996275,68.0,59.0,40.0,False,,221.49532983045887,[],"[840, 525]",ColorTask,40.0,64.0,,,HRV,HRV_0312,2022-11-30 22:14:16
,wl-rdm,72,214983,0.0-6.64-0.64,0.0,73.0,,,,,,,[],,,,,,87.9,1.0,i,1.0,True,602.9000000003725,37.0,59.0,40.0,False,,248.50046670788296,[],"[840, 525]",ColorTask,41.0,65.0,,,HRV,HRV_0312,2022-11-30 22:14:16
,wl-rdm,73,217021,0.0-6.65-0.65,0.0,74.0,,,,,,,[],,,,,,62.5,0.0,u,0.0,True,575.7000000011176,35.0,59.0,40.0,False,,394.3432461322999,[],"[840, 525]",ColorTask,42.0,66.0,,,HRV,HRV_0312,2022-11-30 22:14:16
,wl-rdm,74,219862,0.0-6.66-0.66,0.0,75.0,,,,,,,[],,,,,,50.0,1.0,i,1.0,True,1480.2999999988824,89.0,59.0,40.0,False,,299.85206849051013,[],"[840, 525]",ColorTask,43.0,67.0,,,HRV,HRV_0312,2022-11-30 22:14:16
,wl-rdm,75,221703,0.0-6.67-0.67,0.0,76.0,,,,,,,[],,,,,,56.4,0.0,u,0.0,True,522.6999999992549,32.0,59.0,40.0,False,,248.09052157517485,[],"[840, 525]",ColorTask,44.0,68.0,,,HRV,HRV_0312,2022-11-30 22:14:16
,wl-rdm,76,223621,0.0-6.68-0.68,0.0,77.0,,,,,,,[],,,,,,87.9,1.0,i,1.0,True,505.09999999962747,31.0,59.0,40.0,False,,339.32887034509827,[],"[840, 525]",ColorTask,45.0,69.0,,,HRV,HRV_0312,2022-11-30 22:14:16
,wl-rdm,77,225509,0.0-6.69-0.69,0.0,78.0,,,,,,,[],,,,,,87.9,1.0,i,1.0,True,554.4000000003725,34.0,59.0,40.0,False,,262.4658804583656,[],"[840, 525]",ColorTask,46.0,70.0,,,HRV,HRV_0312,2022-11-30 22:14:16
,wl-rdm,78,227564,0.0-6.70-0.70,0.0,79.0,,,,,,,[],,,,,,53.2,1.0,u,0.0,False,596.4000000003725,36.0,59.0,40.0,False,,399.4846251844335,[],"[840, 525]",ColorTask,45.0,71.0,,,HRV,HRV_0312,2022-11-30 22:14:16
,wl-rdm,79,229653,0.0-6.71-0.71,0.0,80.0,,,,,,,[],,,,,,73.6,1.0,i,1.0,True,806.3000000026077,49.0,59.0,40.0,False,,210.48522251529812,[],"[840, 525]",ColorTask,46.0,72.0,,,HRV,HRV_0312,2022-11-30 22:14:16
,wl-rdm,80,231707,0.0-6.72-0.72,0.0,81.0,,,,,,,[],,,,,,73.6,1.0,i,1.0,True,656.6000000014901,40.0,59.0,40.0,False,,332.14091052506836,[],"[840, 525]",ColorTask,47.0,73.0,,,HRV,HRV_0312,2022-11-30 22:14:16
,wl-rdm,81,233612,0.0-6.73-0.73,0.0,82.0,,,,,,,[],,,,,,87.9,1.0,i,1.0,True,596.2000000011176,36.0,59.0,40.0,False,,234.28053124597827,[],"[840, 525]",ColorTask,48.0,74.0,,,HRV,HRV_0312,2022-11-30 22:14:16
,wl-rdm,82,236035,0.0-6.74-0.74,0.0,83.0,,,,,,,[],,,,,,50.0,1.0,u,0.0,False,1076.199999999255,65.0,59.0,40.0,False,,257.3048468643145,[],"[840, 525]",ColorTask,47.0,75.0,,,HRV,HRV_0312,2022-11-30 22:14:16
,wl-rdm,83,238006,0.0-6.75-0.75,0.0,84.0,,,,,,,[],,,,,,87.9,0.0,u,0.0,True,627.8000000026077,38.0,59.0,40.0,False,,284.4305183582945,[],"[840, 525]",ColorTask,48.0,76.0,,,HRV,HRV_0312,2022-11-30 22:14:16
,wl-rdm,84,240263,0.0-6.76-0.76,0.0,85.0,,,,,,,[],,,,,,50.0,0.0,u,0.0,True,978.5999999996275,59.0,59.0,40.0,False,,211.29564857985005,[],"[840, 525]",ColorTask,49.0,77.0,,,HRV,HRV_0312,2022-11-30 22:14:16
,wl-rdm,85,242166,0.0-6.77-0.77,0.0,86.0,,,,,,,[],,,,,,87.9,1.0,i,1.0,True,536.3999999985099,33.0,59.0,40.0,False,,292.6754495133136,[],"[840, 525]",ColorTask,50.0,78.0,,,HRV,HRV_0312,2022-11-30 22:14:16
,wl-rdm,86,243921,0.0-6.78-0.78,0.0,87.0,,,,,,,[],,,,,,62.5,1.0,i,1.0,True,458.3999999985099,28.0,59.0,40.0,False,,231.89165657371512,[],"[840, 525]",ColorTask,51.0,79.0,,,HRV,HRV_0312,2022-11-30 22:14:16
,wl-rdm,87,246677,0.0-6.79-0.79,0.0,88.0,,,,,,,[],,,,,,53.2,1.0,u,0.0,False,1313.0999999996275,79.0,59.0,40.0,False,,371.47553083374044,[],"[840, 525]",ColorTask,50.0,80.0,,,HRV,HRV_0312,2022-11-30 22:14:16
,wl-rdm,88,248599,0.0-6.80-0.80,0.0,89.0,,,,,,,[],,,,,,87.9,0.0,u,0.0,True,605.0999999996275,37.0,59.0,40.0,False,,236.34573873971385,[],"[840, 525]",ColorTask,51.0,81.0,,,HRV,HRV_0312,2022-11-30 22:14:16
,wl-rdm,89,250520,0.0-6.81-0.81,0.0,90.0,,,,,,,[],,,,,,87.9,1.0,i,1.0,True,549.8000000007451,33.0,59.0,40.0,False,,313.47530197607296,[],"[840, 525]",ColorTask,52.0,82.0,,,HRV,HRV_0312,2022-11-30 22:14:16
,wl-rdm,90,253393,0.0-6.82-0.82,0.0,91.0,,,,,,,[],,,,,,53.2,1.0,i,1.0,True,1559.2999999988824,94.0,59.0,40.0,False,,237.42034984835124,[],"[840, 525]",ColorTask,53.0,83.0,,,HRV,HRV_0312,2022-11-30 22:14:16
,wl-rdm,91,255248,0.0-6.83-0.83,0.0,92.0,,,,,,,[],,,,,,87.9,0.0,u,0.0,True,516.1999999992549,31.0,59.0,40.0,False,,267.2881007172777,[],"[840, 525]",ColorTask,54.0,84.0,,,HRV,HRV_0312,2022-11-30 22:14:16
,wl-rdm,92,257320,0.0-6.84-0.84,0.0,93.0,,,,,,,[],,,,,,50.0,1.0,i,1.0,True,716.8999999985099,43.0,59.0,40.0,False,,283.7223579451881,[],"[840, 525]",ColorTask,55.0,85.0,,,HRV,HRV_0312,2022-11-30 22:14:16
,wl-rdm,93,259626,0.0-6.85-0.85,0.0,94.0,,,,,,,[],,,,,,53.2,0.0,u,0.0,True,899.2000000011176,54.0,59.0,40.0,False,,342.67889733920646,[],"[840, 525]",ColorTask,56.0,86.0,,,HRV,HRV_0312,2022-11-30 22:14:16
,wl-rdm,94,262249,0.0-6.86-0.86,0.0,95.0,,,,,,,[],,,,,,56.4,1.0,i,1.0,True,1200.9000000003725,72.0,59.0,40.0,False,,353.1162870652031,[],"[840, 525]",ColorTask,57.0,87.0,,,HRV,HRV_0312,2022-11-30 22:14:16
,wl-rdm,95,264087,0.0-6.87-0.87,0.0,96.0,,,,,,,[],,,,,,73.6,1.0,i,1.0,True,552.9000000003725,34.0,59.0,40.0,False,,212.6221762782285,[],"[840, 525]",ColorTask,58.0,88.0,,,HRV,HRV_0312,2022-11-30 22:14:16
,wl-rdm,96,266225,0.0-6.88-0.88,0.0,97.0,,,,,,,[],,,,,,50.0,0.0,i,1.0,False,866.5999999996275,52.0,59.0,40.0,False,,205.38719846712164,[],"[840, 525]",ColorTask,57.0,89.0,,,HRV,HRV_0312,2022-11-30 22:14:16
,wl-rdm,97,268481,0.0-6.89-0.89,0.0,98.0,,,,,,,[],,,,,,62.5,1.0,u,0.0,False,958.9000000003725,58.0,59.0,40.0,False,,221.00882329623215,[],"[840, 525]",ColorTask,56.0,90.0,,,HRV,HRV_0312,2022-11-30 22:14:16
,wl-rdm,98,270953,0.0-6.90-0.90,0.0,99.0,,,,,,,[],,,,,,62.5,0.0,u,0.0,True,1183.300000000745,71.0,59.0,40.0,False,,233.7609679432108,[],"[840, 525]",ColorTask,57.0,91.0,,,HRV,HRV_0312,2022-11-30 22:14:16
,wl-rdm,99,272958,0.0-6.91-0.91,0.0,100.0,,,,,,,[],,,,,,87.9,0.0,u,0.0,True,669.0,40.0,59.0,40.0,False,,277.66012253755724,[],"[840, 525]",ColorTask,58.0,92.0,,,HRV,HRV_0312,2022-11-30 22:14:16
,wl-rdm,100,275247,0.0-6.92-0.92,0.0,101.0,,,,,,,[],,,,,,73.6,1.0,i,1.0,True,943.0,57.0,59.0,40.0,False,,275.30130994612244,[],"[840, 525]",ColorTask,59.0,93.0,,,HRV,HRV_0312,2022-11-30 22:14:16
,wl-rdm,101,278054,0.0-6.93-0.93,0.0,102.0,,,,,,,[],,,,,,62.5,0.0,u,0.0,True,1436.9000000003725,86.0,59.0,40.0,False,,307.7607084068401,[],"[840, 525]",ColorTask,60.0,94.0,,,HRV,HRV_0312,2022-11-30 22:14:16
,wl-rdm,102,280376,0.0-6.94-0.94,0.0,103.0,,,,,,,[],,,,,,50.0,0.0,i,1.0,False,892.0,54.0,59.0,40.0,False,,359.3404679112182,[],"[840, 525]",ColorTask,59.0,95.0,,,HRV,HRV_0312,2022-11-30 22:14:16
,wl-rdm,103,282332,0.0-6.95-0.95,0.0,104.0,,,,,,,[],,,,,,87.9,1.0,i,1.0,True,663.3000000007451,40.0,59.0,40.0,False,,219.38133699924694,[],"[840, 525]",ColorTask,60.0,96.0,,,HRV,HRV_0312,2022-11-30 22:14:16
,wl-rdm,104,284653,0.0-6.96-0.96,0.0,105.0,,,,,,,[],,,,,,53.2,0.0,u,0.0,True,964.2000000011176,58.0,59.0,40.0,False,,283.00067408370086,[],"[840, 525]",ColorTask,61.0,97.0,,,HRV,HRV_0312,2022-11-30 22:14:16
,wl-rdm,105,287227,0.0-6.97-0.97,0.0,106.0,,,,,,,[],,,,,,62.5,1.0,i,1.0,True,1239.9000000003725,75.0,59.0,40.0,False,,261.83286486722477,[],"[840, 525]",ColorTask,62.0,98.0,,,HRV,HRV_0312,2022-11-30 22:14:16
,wl-rdm,106,289499,0.0-6.98-0.98,0.0,107.0,,,,,,,[],,,,,,56.4,1.0,i,1.0,True,788.9000000003725,48.0,59.0,40.0,False,,393.6507434690801,[],"[840, 525]",ColorTask,63.0,99.0,,,HRV,HRV_0312,2022-11-30 22:14:16
,wl-rdm,107,291721,0.0-6.99-0.99,0.0,108.0,,,,,,,[],,,,,,62.5,1.0,i,1.0,True,932.6999999992549,56.0,59.0,40.0,False,,217.52456831499802,[],"[840, 525]",ColorTask,64.0,100.0,,,HRV,HRV_0312,2022-11-30 22:14:16
,wl-rdm,108,293809,0.0-6.100-0.100,0.0,109.0,,,,,,,[],,,,,,73.6,0.0,u,0.0,True,664.3999999985099,40.0,59.0,40.0,False,,357.53810703329555,[],"[840, 525]",ColorTask,65.0,101.0,,,HRV,HRV_0312,2022-11-30 22:14:16
,wl-rdm,109,296015,0.0-6.101-0.101,0.0,110.0,,,,,,,[],,,,,,56.4,0.0,u,0.0,True,875.8000000007451,53.0,59.0,40.0,False,,265.90585615395617,[],"[840, 525]",ColorTask,66.0,102.0,,,HRV,HRV_0312,2022-11-30 22:14:16
,wl-rdm,110,297852,0.0-6.102-0.102,0.0,111.0,,,,,,,[],,,,,,87.9,0.0,u,0.0,True,560.9000000003725,34.0,59.0,40.0,False,,202.16344660309184,[],"[840, 525]",ColorTask,67.0,103.0,,,HRV,HRV_0312,2022-11-30 22:14:16
,wl-rdm,111,299707,0.0-6.103-0.103,0.0,112.0,,,,,,,[],,,,,,87.9,1.0,i,1.0,True,540.4000000003725,33.0,59.0,40.0,False,,245.79224413481586,[],"[840, 525]",ColorTask,68.0,104.0,,,HRV,HRV_0312,2022-11-30 22:14:16
,wl-rdm,112,302013,0.0-6.104-0.104,0.0,113.0,,,,,,,[],,,,,,53.2,1.0,i,1.0,True,921.5999999996275,56.0,59.0,40.0,False,,311.7390059005318,[],"[840, 525]",ColorTask,69.0,105.0,,,HRV,HRV_0312,2022-11-30 22:14:16
,wl-rdm,113,304001,0.0-6.105-0.105,0.0,114.0,,,,,,,[],,,,,,50.0,1.0,u,0.0,False,640.2000000011176,39.0,59.0,40.0,False,,273.41515182988553,[],"[840, 525]",ColorTask,68.0,106.0,,,HRV,HRV_0312,2022-11-30 22:14:16
,wl-rdm,114,306173,0.0-6.106-0.106,0.0,115.0,,,,,,,[],,,,,,73.6,0.0,u,0.0,True,786.0000000018626,47.0,59.0,40.0,False,,318.5499704918019,[],"[840, 525]",ColorTask,69.0,107.0,,,HRV,HRV_0312,2022-11-30 22:14:16
,wl-rdm,115,309097,0.0-6.107-0.107,0.0,116.0,,,,,,,[],,,,,,50.0,0.0,i,1.0,False,1483.7999999988824,89.0,59.0,40.0,False,,370.6201825192312,[],"[840, 525]",ColorTask,68.0,108.0,,,HRV,HRV_0312,2022-11-30 22:14:16
,wl-html-keyboard-response,116,317794,0.0-7.0-0.0,1.0,117.0,,,,,,,,6689.799999998882,1.0,0,,,,,,,,,,,,,,,,,,,,,,HRV,HRV_0312,2022-11-30 22:14:16
,wl-rdm,117,320458,0.0-8.0-0.0,1.0,118.0,,,,,,,[],,,,,,56.4,0.0,i,1.0,False,1214.699999999255,73.0,59.0,40.0,False,,392.19606053516804,[],"[840, 525]",ColorTask,67.0,1.0,,,HRV,HRV_0312,2022-11-30 22:14:16
,wl-rdm,118,322513,0.0-8.1-0.1,1.0,119.0,,,,,,,[],,,,,,56.4,1.0,i,1.0,True,731.3999999985099,44.0,59.0,40.0,False,,250.44222400296536,[],"[840, 525]",ColorTask,68.0,2.0,,,HRV,HRV_0312,2022-11-30 22:14:16
,wl-rdm,119,324501,0.0-8.2-0.2,1.0,120.0,,,,,,,[],,,,,,56.4,0.0,u,0.0,True,660.0999999996275,40.0,59.0,40.0,False,,257.4215039411248,[],"[840, 525]",ColorTask,69.0,3.0,,,HRV,HRV_0312,2022-11-30 22:14:16
,wl-rdm,120,326640,0.0-8.3-0.3,1.0,121.0,,,,,,,[],,,,,,62.5,1.0,i,1.0,True,757.9000000003725,46.0,59.0,40.0,False,,313.1772749586931,[],"[840, 525]",ColorTask,70.0,4.0,,,HRV,HRV_0312,2022-11-30 22:14:16
,wl-rdm,121,328427,0.0-8.4-0.4,1.0,122.0,,,,,,,[],,,,,,87.9,1.0,i,1.0,True,494.40000000037253,30.0,59.0,40.0,False,,220.18417986034734,[],"[840, 525]",ColorTask,71.0,5.0,,,HRV,HRV_0312,2022-11-30 22:14:16
,wl-rdm,122,330248,0.0-8.5-0.5,1.0,123.0,,,,,,,[],,,,,,73.6,1.0,i,1.0,True,547.5,33.0,59.0,40.0,False,,214.518979940583,[],"[840, 525]",ColorTask,72.0,6.0,,,HRV,HRV_0312,2022-11-30 22:14:16
,wl-rdm,123,332186,0.0-8.6-0.6,1.0,124.0,,,,,,,[],,,,,,50.0,0.0,u,0.0,True,646.3000000007451,39.0,59.0,40.0,False,,232.50981337834097,[],"[840, 525]",ColorTask,73.0,7.0,,,HRV,HRV_0312,2022-11-30 22:14:16
,wl-rdm,124,334359,0.0-8.7-0.7,1.0,125.0,,,,,,,[],,,,,,53.2,0.0,u,0.0,True,724.8000000007451,44.0,59.0,40.0,False,,370.64054348648597,[],"[840, 525]",ColorTask,74.0,8.0,,,HRV,HRV_0312,2022-11-30 22:14:16
,wl-rdm,125,337599,0.0-8.8-0.8,1.0,126.0,,,,,,,[],,,,,,62.5,0.0,u,0.0,True,1894.0,114.0,59.0,40.0,False,,272.02304249819673,[],"[840, 525]",ColorTask,75.0,9.0,,,HRV,HRV_0312,2022-11-30 22:14:16
,wl-rdm,126,339471,0.0-8.9-0.9,1.0,127.0,,,,,,,[],,,,,,87.9,0.0,u,0.0,True,490.7999999988824,30.0,59.0,40.0,False,,305.4769377645851,[],"[840, 525]",ColorTask,76.0,10.0,,,HRV,HRV_0312,2022-11-30 22:14:16
,wl-rdm,127,341526,0.0-8.10-0.10,1.0,128.0,,,,,,,[],,,,,,73.6,0.0,u,0.0,True,625.6999999992549,38.0,59.0,40.0,False,,357.3437871698345,[],"[840, 525]",ColorTask,77.0,11.0,,,HRV,HRV_0312,2022-11-30 22:14:16
,wl-rdm,128,343832,0.0-8.11-0.11,1.0,129.0,,,,,,,[],,,,,,50.0,1.0,u,0.0,False,899.0000000018626,54.0,59.0,40.0,False,,339.7052483957953,[],"[840, 525]",ColorTask,76.0,12.0,,,HRV,HRV_0312,2022-11-30 22:14:16
,wl-rdm,129,345803,0.0-8.12-0.12,1.0,130.0,,,,,,,[],,,,,,56.4,1.0,i,1.0,True,554.4000000003725,34.0,59.0,40.0,False,,334.5270446894862,[],"[840, 525]",ColorTask,77.0,13.0,,,HRV,HRV_0312,2022-11-30 22:14:16
,wl-rdm,130,349011,0.0-8.13-0.13,1.0,131.0,,,,,,,[],,,,,,50.0,1.0,i,1.0,True,1739.9000000003725,105.0,59.0,40.0,False,,399.3323279310982,[],"[840, 525]",ColorTask,78.0,14.0,,,HRV,HRV_0312,2022-11-30 22:14:16
,wl-rdm,131,350933,0.0-8.14-0.14,1.0,132.0,,,,,,,[],,,,,,87.9,0.0,u,0.0,True,602.0999999996275,37.0,59.0,40.0,False,,241.0777237634868,[],"[840, 525]",ColorTask,79.0,15.0,,,HRV,HRV_0312,2022-11-30 22:14:16
,wl-rdm,132,352738,0.0-8.15-0.15,1.0,133.0,,,,,,,[],,,,,,87.9,1.0,i,1.0,True,455.8999999985099,28.0,59.0,40.0,False,,272.4660641600684,[],"[840, 525]",ColorTask,80.0,16.0,,,HRV,HRV_0312,2022-11-30 22:14:16
,wl-rdm,133,354691,0.0-8.16-0.16,1.0,134.0,,,,,,,[],,,,,,50.0,0.0,i,1.0,False,626.9000000003725,38.0,59.0,40.0,False,,261.95633198064706,[],"[840, 525]",ColorTask,79.0,17.0,,,HRV,HRV_0312,2022-11-30 22:14:16
,wl-rdm,134,356714,0.0-8.17-0.17,1.0,135.0,,,,,,,[],,,,,,53.2,1.0,i,1.0,True,596.5999999996275,36.0,59.0,40.0,False,,356.628872698649,[],"[840, 525]",ColorTask,80.0,18.0,,,HRV,HRV_0312,2022-11-30 22:14:16
,wl-rdm,135,359203,0.0-8.18-0.18,1.0,136.0,,,,,,,[],,,,,,56.4,0.0,u,0.0,True,1197.3999999985099,72.0,59.0,40.0,False,,212.15318763119768,[],"[840, 525]",ColorTask,81.0,19.0,,,HRV,HRV_0312,2022-11-30 22:14:16
,wl-rdm,136,361174,0.0-8.19-0.19,1.0,137.0,,,,,,,[],,,,,,62.5,1.0,i,1.0,True,616.0999999996275,37.0,59.0,40.0,False,,287.6777144027488,[],"[840, 525]",ColorTask,82.0,20.0,,,HRV,HRV_0312,2022-11-30 22:14:16
,wl-rdm,137,363814,0.0-8.20-0.20,1.0,138.0,,,,,,,[],,,,,,53.2,1.0,i,1.0,True,1217.800000000745,73.0,59.0,40.0,False,,355.76051803989435,[],"[840, 525]",ColorTask,83.0,21.0,,,HRV,HRV_0312,2022-11-30 22:14:16
,wl-rdm,138,366571,0.0-8.21-0.21,1.0,139.0,,,,,,,[],,,,,,53.2,0.0,u,0.0,True,1463.0999999996275,88.0,59.0,40.0,False,,231.23765098319032,[],"[840, 525]",ColorTask,84.0,22.0,,,HRV,HRV_0312,2022-11-30 22:14:16
,wl-rdm,139,368659,0.0-8.22-0.22,1.0,140.0,,,,,,,[],,,,,,73.6,1.0,i,1.0,True,619.2999999988824,38.0,59.0,40.0,False,,397.83699434729175,[],"[840, 525]",ColorTask,85.0,23.0,,,HRV,HRV_0312,2022-11-30 22:14:16
,wl-rdm,140,370380,0.0-8.23-0.23,1.0,141.0,,,,,,,[],,,,,,56.4,1.0,i,1.0,True,443.40000000037253,27.0,59.0,40.0,False,,212.07483458894697,[],"[840, 525]",ColorTask,86.0,24.0,,,HRV,HRV_0312,2022-11-30 22:14:16
,wl-rdm,141,372167,0.0-8.24-0.24,1.0,142.0,,,,,,,[],,,,,,56.4,0.0,u,0.0,True,379.7999999988824,23.0,59.0,40.0,False,,344.3683302837228,[],"[840, 525]",ColorTask,87.0,25.0,,,HRV,HRV_0312,2022-11-30 22:14:16
,wl-rdm,142,374123,0.0-8.25-0.25,1.0,143.0,,,,,,,[],,,,,,73.6,0.0,u,0.0,True,537.2000000011176,33.0,59.0,40.0,False,,326.06966230136476,[],"[840, 525]",ColorTask,88.0,26.0,,,HRV,HRV_0312,2022-11-30 22:14:16
,wl-rdm,143,376078,0.0-8.26-0.26,1.0,144.0,,,,,,,[],,,,,,56.4,0.0,u,0.0,True,542.4000000003725,33.0,59.0,40.0,False,,348.5651556424009,[],"[840, 525]",ColorTask,89.0,27.0,,,HRV,HRV_0312,2022-11-30 22:14:16
,wl-rdm,144,378165,0.0-8.27-0.27,1.0,145.0,,,,,,,[],,,,,,53.2,0.0,i,1.0,False,758.5999999996275,46.0,59.0,40.0,False,,261.58054848807944,[],"[840, 525]",ColorTask,88.0,28.0,,,HRV,HRV_0312,2022-11-30 22:14:16
,wl-rdm,145,380254,0.0-8.28-0.28,1.0,146.0,,,,,,,[],,,,,,53.2,1.0,u,0.0,False,791.6999999992549,48.0,59.0,40.0,False,,220.93282821857102,[],"[840, 525]",ColorTask,87.0,29.0,,,HRV,HRV_0312,2022-11-30 22:14:16
,wl-rdm,146,382242,0.0-8.29-0.29,1.0,147.0,,,,,,,[],,,,,,53.2,1.0,i,1.0,True,604.0,37.0,59.0,40.0,False,,309.8044847280243,[],"[840, 525]",ColorTask,88.0,30.0,,,HRV,HRV_0312,2022-11-30 22:14:16
,wl-rdm,147,384164,0.0-8.30-0.30,1.0,148.0,,,,,,,[],,,,,,87.9,0.0,u,0.0,True,643.3000000007451,39.0,59.0,40.0,False,,204.34677511793774,[],"[840, 525]",ColorTask,89.0,31.0,,,HRV,HRV_0312,2022-11-30 22:14:16
,wl-rdm,148,386102,0.0-8.31-0.31,1.0,149.0,,,,,,,[],,,,,,87.9,1.0,i,1.0,True,498.5,30.0,59.0,40.0,False,,380.75827074930555,[],"[840, 525]",ColorTask,90.0,32.0,,,HRV,HRV_0312,2022-11-30 22:14:16
,wl-rdm,149,388257,0.0-8.32-0.32,1.0,150.0,,,,,,,[],,,,,,62.5,0.0,u,0.0,True,737.7999999988824,45.0,59.0,40.0,False,,335.9499949336575,[],"[840, 525]",ColorTask,91.0,33.0,,,HRV,HRV_0312,2022-11-30 22:14:16
,wl-rdm,150,390530,0.0-8.33-0.33,1.0,151.0,,,,,,,[],,,,,,87.9,0.0,u,0.0,True,989.0999999996275,60.0,59.0,40.0,False,,212.86818640364268,[],"[840, 525]",ColorTask,92.0,34.0,,,HRV,HRV_0312,2022-11-30 22:14:16
,wl-rdm,151,392418,0.0-8.34-0.34,1.0,152.0,,,,,,,[],,,,,,73.6,0.0,u,0.0,True,595.5999999996275,36.0,59.0,40.0,False,,232.83896690324218,[],"[840, 525]",ColorTask,93.0,35.0,,,HRV,HRV_0312,2022-11-30 22:14:16
,wl-rdm,152,394289,0.0-8.35-0.35,1.0,153.0,,,,,,,[],,,,,,62.5,0.0,u,0.0,True,496.19999999925494,30.0,59.0,40.0,False,,308.70731472967884,[],"[840, 525]",ColorTask,94.0,36.0,,,HRV,HRV_0312,2022-11-30 22:14:16
,wl-rdm,153,396879,0.0-8.36-0.36,1.0,154.0,,,,,,,[],,,,,,56.4,1.0,i,1.0,True,1275.3999999985099,77.0,59.0,40.0,False,,240.46937373261807,[],"[840, 525]",ColorTask,95.0,37.0,,,HRV,HRV_0312,2022-11-30 22:14:16
,wl-rdm,154,398966,0.0-8.37-0.37,1.0,155.0,,,,,,,[],,,,,,53.2,0.0,u,0.0,True,697.7999999988824,42.0,59.0,40.0,False,,328.3992187792385,[],"[840, 525]",ColorTask,96.0,38.0,,,HRV,HRV_0312,2022-11-30 22:14:16
,wl-rdm,155,400938,0.0-8.38-0.38,1.0,156.0,,,,,,,[],,,,,,87.9,0.0,u,0.0,True,654.0,40.0,59.0,40.0,False,,241.96899775971252,[],"[840, 525]",ColorTask,97.0,39.0,,,HRV,HRV_0312,2022-11-30 22:14:16
,wl-rdm,156,403144,0.0-8.39-0.39,1.0,157.0,,,,,,,[],,,,,,62.5,1.0,u,0.0,False,864.4000000003725,52.0,59.0,40.0,False,,281.3155749566221,[],"[840, 525]",ColorTask,96.0,40.0,,,HRV,HRV_0312,2022-11-30 22:14:16
,wl-rdm,157,405132,0.0-8.40-0.40,1.0,158.0,,,,,,,[],,,,,,87.9,0.0,u,0.0,True,659.9000000003725,40.0,59.0,40.0,False,,265.7606831454377,[],"[840, 525]",ColorTask,97.0,41.0,,,HRV,HRV_0312,2022-11-30 22:14:16
,wl-rdm,158,407120,0.0-8.41-0.41,1.0,159.0,,,,,,,[],,,,,,50.0,0.0,i,1.0,False,705.8000000007451,43.0,59.0,40.0,False,,211.69011042684252,[],"[840, 525]",ColorTask,96.0,42.0,,,HRV,HRV_0312,2022-11-30 22:14:16
,wl-rdm,159,409275,0.0-8.42-0.42,1.0,160.0,,,,,,,[],,,,,,73.6,0.0,u,0.0,True,709.8000000007451,43.0,59.0,40.0,False,,382.09464503263337,[],"[840, 525]",ColorTask,97.0,43.0,,,HRV,HRV_0312,2022-11-30 22:14:16
,wl-rdm,160,412834,0.0-8.43-0.43,1.0,161.0,,,,,,,[],,,,,,50.0,0.0,i,1.0,False,2240.5999999996275,135.0,59.0,40.0,False,,241.2601589682823,[],"[840, 525]",ColorTask,96.0,44.0,,,HRV,HRV_0312,2022-11-30 22:14:16
,wl-rdm,161,414806,0.0-8.44-0.44,1.0,162.0,,,,,,,[],,,,,,56.4,1.0,i,1.0,True,675.4000000003725,41.0,59.0,40.0,False,,229.85453954751432,[],"[840, 525]",ColorTask,97.0,45.0,,,HRV,HRV_0312,2022-11-30 22:14:16
,wl-rdm,162,416794,0.0-8.45-0.45,1.0,163.0,,,,,,,[],,,,,,53.2,0.0,u,0.0,True,670.7000000011176,41.0,59.0,40.0,False,,242.75959432971555,[],"[840, 525]",ColorTask,98.0,46.0,,,HRV,HRV_0312,2022-11-30 22:14:16
,wl-rdm,163,419116,0.0-8.46-0.46,1.0,164.0,,,,,,,[],,,,,,50.0,0.0,i,1.0,False,867.5000000018626,52.0,59.0,40.0,False,,392.47466309346646,[],"[840, 525]",ColorTask,97.0,47.0,,,HRV,HRV_0312,2022-11-30 22:14:16
,wl-rdm,164,421121,0.0-8.47-0.47,1.0,165.0,,,,,,,[],,,,,,53.2,1.0,i,1.0,True,672.3000000026077,41.0,59.0,40.0,False,,256.8649317294409,[],"[840, 525]",ColorTask,98.0,48.0,,,HRV,HRV_0312,2022-11-30 22:14:16
,wl-rdm,165,423143,0.0-8.48-0.48,1.0,166.0,,,,,,,[],,,,,,73.6,0.0,u,0.0,True,609.7999999988824,37.0,59.0,40.0,False,,349.81140567204613,[],"[840, 525]",ColorTask,99.0,49.0,,,HRV,HRV_0312,2022-11-30 22:14:16
,wl-rdm,166,425214,0.0-8.49-0.49,1.0,167.0,,,,,,,[],,,,,,73.6,0.0,u,0.0,True,630.8999999985099,38.0,59.0,40.0,False,,377.8877618487838,[],"[840, 525]",ColorTask,100.0,50.0,,,HRV,HRV_0312,2022-11-30 22:14:16
,wl-rdm,167,427069,0.0-8.50-0.50,1.0,168.0,,,,,,,[],,,,,,87.9,0.0,u,0.0,True,524.5,32.0,59.0,40.0,False,,254.58406062536267,[],"[840, 525]",ColorTask,101.0,51.0,,,HRV,HRV_0312,2022-11-30 22:14:16
,wl-rdm,168,429341,0.0-8.51-0.51,1.0,169.0,,,,,,,[],,,,,,50.0,0.0,u,0.0,True,882.5999999996275,53.0,59.0,40.0,False,,317.86313288449367,[],"[840, 525]",ColorTask,102.0,52.0,,,HRV,HRV_0312,2022-11-30 22:14:16
,wl-rdm,169,431530,0.0-8.52-0.52,1.0,170.0,,,,,,,[],,,,,,62.5,0.0,u,0.0,True,887.5,54.0,59.0,40.0,False,,232.57699260235157,[],"[840, 525]",ColorTask,103.0,53.0,,,HRV,HRV_0312,2022-11-30 22:14:16
,wl-rdm,170,433535,0.0-8.53-0.53,1.0,171.0,,,,,,,[],,,,,,62.5,1.0,i,1.0,True,681.0999999996275,41.0,59.0,40.0,False,,264.35328830480427,[],"[840, 525]",ColorTask,104.0,54.0,,,HRV,HRV_0312,2022-11-30 22:14:16
,wl-rdm,171,435573,0.0-8.54-0.54,1.0,172.0,,,,,,,[],,,,,,62.5,1.0,i,1.0,True,725.0999999996275,44.0,59.0,40.0,False,,246.2965764283922,[],"[840, 525]",ColorTask,105.0,55.0,,,HRV,HRV_0312,2022-11-30 22:14:16
,wl-rdm,172,437645,0.0-8.55-0.55,1.0,173.0,,,,,,,[],,,,,,56.4,0.0,u,0.0,True,790.1999999992549,48.0,59.0,40.0,False,,217.57709879383307,[],"[840, 525]",ColorTask,106.0,56.0,,,HRV,HRV_0312,2022-11-30 22:14:16
,wl-rdm,173,439483,0.0-8.56-0.56,1.0,174.0,,,,,,,[],,,,,,87.9,1.0,i,1.0,True,543.1999999992549,33.0,59.0,40.0,False,,228.5049740972702,[],"[840, 525]",ColorTask,107.0,57.0,,,HRV,HRV_0312,2022-11-30 22:14:16
,wl-rdm,174,441371,0.0-8.57-0.57,1.0,175.0,,,,,,,[],,,,,,73.6,1.0,i,1.0,True,526.6999999992549,32.0,59.0,40.0,False,,293.1250285952872,[],"[840, 525]",ColorTask,108.0,58.0,,,HRV,HRV_0312,2022-11-30 22:14:16
,wl-rdm,175,443242,0.0-8.58-0.58,1.0,176.0,,,,,,,[],,,,,,73.6,1.0,i,1.0,True,576.8000000007451,35.0,59.0,40.0,False,,221.19210571495577,[],"[840, 525]",ColorTask,109.0,59.0,,,HRV,HRV_0312,2022-11-30 22:14:16
,wl-rdm,176,445213,0.0-8.59-0.59,1.0,177.0,,,,,,,[],,,,,,87.9,0.0,u,0.0,True,573.2000000011176,35.0,59.0,40.0,False,,326.99777853286923,[],"[840, 525]",ColorTask,110.0,60.0,,,HRV,HRV_0312,2022-11-30 22:14:16
,wl-rdm,177,447135,0.0-8.60-0.60,1.0,178.0,,,,,,,[],,,,,,87.9,1.0,i,1.0,True,538.9000000003725,33.0,59.0,40.0,False,,311.4412242828685,[],"[840, 525]",ColorTask,111.0,61.0,,,HRV,HRV_0312,2022-11-30 22:14:16
,wl-rdm,178,450510,0.0-8.61-0.61,1.0,179.0,,,,,,,[],,,,,,50.0,1.0,i,1.0,True,1934.5,116.0,59.0,40.0,False,,376.7204451431263,[],"[840, 525]",ColorTask,112.0,62.0,,,HRV,HRV_0312,2022-11-30 22:14:16
,wl-rdm,179,452665,0.0-8.62-0.62,1.0,180.0,,,,,,,[],,,,,,56.4,0.0,u,0.0,True,721.6000000014901,44.0,59.0,40.0,False,,353.58951038209807,[],"[840, 525]",ColorTask,113.0,63.0,,,HRV,HRV_0312,2022-11-30 22:14:16
,wl-rdm,180,454586,0.0-8.63-0.63,1.0,181.0,,,,,,,[],,,,,,53.2,0.0,u,0.0,True,592.8999999985099,36.0,59.0,40.0,False,,237.88562565987488,[],"[840, 525]",ColorTask,114.0,64.0,,,HRV,HRV_0312,2022-11-30 22:14:16
,wl-rdm,181,456892,0.0-8.64-0.64,1.0,182.0,,,,,,,[],,,,,,53.2,1.0,i,1.0,True,892.6000000014901,54.0,59.0,40.0,False,,344.92849085836394,[],"[840, 525]",ColorTask,115.0,65.0,,,HRV,HRV_0312,2022-11-30 22:14:16
,wl-rdm,182,459080,0.0-8.65-0.65,1.0,183.0,,,,,,,[],,,,,,53.2,1.0,i,1.0,True,895.8000000007451,54.0,59.0,40.0,False,,231.47526006069435,[],"[840, 525]",ColorTask,116.0,66.0,,,HRV,HRV_0312,2022-11-30 22:14:16
,wl-rdm,183,461102,0.0-8.66-0.66,1.0,184.0,,,,,,,[],,,,,,53.2,0.0,u,0.0,True,647.0999999996275,39.0,59.0,40.0,False,,306.15749283321884,[],"[840, 525]",ColorTask,117.0,67.0,,,HRV,HRV_0312,2022-11-30 22:14:16
,wl-rdm,184,462923,0.0-8.67-0.67,1.0,185.0,,,,,,,[],,,,,,50.0,1.0,u,0.0,False,516.9000000003725,31.0,59.0,40.0,False,,241.9186364059516,[],"[840, 525]",ColorTask,116.0,68.0,,,HRV,HRV_0312,2022-11-30 22:14:16
,wl-rdm,185,464761,0.0-8.68-0.68,1.0,186.0,,,,,,,[],,,,,,73.6,1.0,i,1.0,True,553.0,34.0,59.0,40.0,False,,208.9495842818646,[],"[840, 525]",ColorTask,117.0,69.0,,,HRV,HRV_0312,2022-11-30 22:14:16
,wl-rdm,186,466766,0.0-8.69-0.69,1.0,187.0,,,,,,,[],,,,,,62.5,0.0,u,0.0,True,647.7000000011176,39.0,59.0,40.0,False,,291.02440377515086,[],"[840, 525]",ColorTask,118.0,70.0,,,HRV,HRV_0312,2022-11-30 22:14:16
,wl-rdm,187,469038,0.0-8.70-0.70,1.0,188.0,,,,,,,[],,,,,,62.5,1.0,i,1.0,True,856.5999999996275,52.0,59.0,40.0,False,,337.8763958633442,[],"[840, 525]",ColorTask,119.0,71.0,,,HRV,HRV_0312,2022-11-30 22:14:16
,wl-rdm,188,470893,0.0-8.71-0.71,1.0,189.0,,,,,,,[],,,,,,62.5,0.0,u,0.0,True,541.0999999996275,33.0,59.0,40.0,False,,247.1590214891557,[],"[840, 525]",ColorTask,120.0,72.0,,,HRV,HRV_0312,2022-11-30 22:14:16
,wl-rdm,189,472780,0.0-8.72-0.72,1.0,190.0,,,,,,,[],,,,,,73.6,1.0,i,1.0,True,615.2999999988824,37.0,59.0,40.0,False,,214.23769352844084,[],"[840, 525]",ColorTask,121.0,73.0,,,HRV,HRV_0312,2022-11-30 22:14:16
,wl-rdm,190,474853,0.0-8.73-0.73,1.0,191.0,,,,,,,[],,,,,,73.6,1.0,i,1.0,True,631.6999999992549,38.0,59.0,40.0,False,,380.6268687031519,[],"[840, 525]",ColorTask,122.0,74.0,,,HRV,HRV_0312,2022-11-30 22:14:16
,wl-rdm,191,476807,0.0-8.74-0.74,1.0,192.0,,,,,,,[],,,,,,73.6,1.0,i,1.0,True,529.0,32.0,59.0,40.0,False,,360.31567171827993,[],"[840, 525]",ColorTask,123.0,75.0,,,HRV,HRV_0312,2022-11-30 22:14:16
,wl-rdm,192,478761,0.0-8.75-0.75,1.0,193.0,,,,,,,[],,,,,,56.4,1.0,u,0.0,False,625.9000000003725,38.0,59.0,40.0,False,,264.821102803698,[],"[840, 525]",ColorTask,122.0,76.0,,,HRV,HRV_0312,2022-11-30 22:14:16
,wl-rdm,193,481151,0.0-8.76-0.76,1.0,194.0,,,,,,,[],,,,,,53.2,0.0,i,1.0,False,1080.4000000003725,65.0,59.0,40.0,False,,246.43258466463402,[],"[840, 525]",ColorTask,121.0,77.0,,,HRV,HRV_0312,2022-11-30 22:14:16
,wl-rdm,194,483523,0.0-8.77-0.77,1.0,195.0,,,,,,,[],,,,,,53.2,0.0,u,0.0,True,1076.0999999977648,65.0,59.0,40.0,False,,223.65972177100974,[],"[840, 525]",ColorTask,122.0,78.0,,,HRV,HRV_0312,2022-11-30 22:14:16
,wl-rdm,195,485428,0.0-8.78-0.78,1.0,196.0,,,,,,,[],,,,,,62.5,0.0,u,0.0,True,564.8000000007451,34.0,59.0,40.0,False,,267.602196888801,[],"[840, 525]",ColorTask,123.0,79.0,,,HRV,HRV_0312,2022-11-30 22:14:16
,wl-rdm,196,487851,0.0-8.79-0.79,1.0,197.0,,,,,,,[],,,,,,53.2,1.0,i,1.0,True,1050.2999999988824,63.0,59.0,40.0,False,,304.42245582183966,[],"[840, 525]",ColorTask,124.0,80.0,,,HRV,HRV_0312,2022-11-30 22:14:16
,wl-rdm,197,491426,0.0-8.80-0.80,1.0,198.0,,,,,,,[],,,,,,56.4,1.0,u,0.0,False,2238.4000000003725,134.0,59.0,40.0,False,,272.62914795543264,[],"[840, 525]",ColorTask,123.0,81.0,,,HRV,HRV_0312,2022-11-30 22:14:16
,wl-rdm,198,493598,0.0-8.81-0.81,1.0,199.0,,,,,,,[],,,,,,50.0,0.0,i,1.0,False,879.6999999992549,53.0,59.0,40.0,False,,225.77968662539135,[],"[840, 525]",ColorTask,122.0,82.0,,,HRV,HRV_0312,2022-11-30 22:14:16
,wl-rdm,199,495386,0.0-8.82-0.82,1.0,200.0,,,,,,,[],,,,,,62.5,1.0,i,1.0,True,533.4000000003725,32.0,59.0,40.0,False,,200.26536167247158,[],"[840, 525]",ColorTask,123.0,83.0,,,HRV,HRV_0312,2022-11-30 22:14:16
,wl-rdm,200,497424,0.0-8.83-0.83,1.0,201.0,,,,,,,[],,,,,,87.9,0.0,u,0.0,True,587.5999999996275,36.0,59.0,40.0,False,,357.96721543063137,[],"[840, 525]",ColorTask,124.0,84.0,,,HRV,HRV_0312,2022-11-30 22:14:16
,wl-rdm,201,499496,0.0-8.84-0.84,1.0,202.0,,,,,,,[],,,,,,50.0,0.0,i,1.0,False,710.7999999988824,43.0,59.0,40.0,False,,296.60115691232085,[],"[840, 525]",ColorTask,123.0,85.0,,,HRV,HRV_0312,2022-11-30 22:14:16
,wl-rdm,202,501601,0.0-8.85-0.85,1.0,203.0,,,,,,,[],,,,,,73.6,0.0,u,0.0,True,754.0,46.0,59.0,40.0,False,,279.7681867389737,[],"[840, 525]",ColorTask,124.0,86.0,,,HRV,HRV_0312,2022-11-30 22:14:16
,wl-rdm,203,504107,0.0-8.86-0.86,1.0,204.0,,,,,,,[],,,,,,50.0,1.0,i,1.0,True,1075.199999999255,65.0,59.0,40.0,False,,352.8429521649398,[],"[840, 525]",ColorTask,125.0,87.0,,,HRV,HRV_0312,2022-11-30 22:14:16
,wl-rdm,204,505962,0.0-8.87-0.87,1.0,205.0,,,,,,,[],,,,,,73.6,0.0,u,0.0,True,491.7999999988824,30.0,59.0,40.0,False,,289.46149894998155,[],"[840, 525]",ColorTask,126.0,88.0,,,HRV,HRV_0312,2022-11-30 22:14:16
,wl-rdm,205,508467,0.0-8.88-0.88,1.0,206.0,,,,,,,[],,,,,,62.5,1.0,i,1.0,True,1065.9000000003725,64.0,59.0,40.0,False,,374.99567909955135,[],"[840, 525]",ColorTask,127.0,89.0,,,HRV,HRV_0312,2022-11-30 22:14:16
,wl-rdm,206,510356,0.0-8.89-0.89,1.0,207.0,,,,,,,[],,,,,,73.6,0.0,u,0.0,True,523.3000000007451,32.0,59.0,40.0,False,,284.7312627146564,[],"[840, 525]",ColorTask,128.0,90.0,,,HRV,HRV_0312,2022-11-30 22:14:16
,wl-rdm,207,512277,0.0-8.90-0.90,1.0,208.0,,,,,,,[],,,,,,87.9,1.0,i,1.0,True,622.0999999996275,38.0,59.0,40.0,False,,223.60075210792152,[],"[840, 525]",ColorTask,129.0,91.0,,,HRV,HRV_0312,2022-11-30 22:14:16
,wl-rdm,208,514249,0.0-8.91-0.91,1.0,209.0,,,,,,,[],,,,,,73.6,1.0,i,1.0,True,693.2999999988824,42.0,59.0,40.0,False,,206.85002843641314,[],"[840, 525]",ColorTask,130.0,92.0,,,HRV,HRV_0312,2022-11-30 22:14:16
,wl-rdm,209,516454,0.0-8.92-0.92,1.0,210.0,,,,,,,[],,,,,,62.5,1.0,i,1.0,True,772.8000000007451,47.0,59.0,40.0,False,,353.85038903444763,[],"[840, 525]",ColorTask,131.0,93.0,,,HRV,HRV_0312,2022-11-30 22:14:16
,wl-rdm,210,518810,0.0-8.93-0.93,1.0,211.0,,,,,,,[],,,,,,56.4,1.0,i,1.0,True,942.5,57.0,59.0,40.0,False,,349.3899399813922,[],"[840, 525]",ColorTask,132.0,94.0,,,HRV,HRV_0312,2022-11-30 22:14:16
,wl-rdm,211,520915,0.0-8.94-0.94,1.0,212.0,,,,,,,[],,,,,,62.5,0.0,u,0.0,True,715.3000000007451,43.0,59.0,40.0,False,,333.64714308253394,[],"[840, 525]",ColorTask,133.0,95.0,,,HRV,HRV_0312,2022-11-30 22:14:16
,wl-rdm,212,523454,0.0-8.95-0.95,1.0,213.0,,,,,,,[],,,,,,56.4,1.0,i,1.0,True,1113.2000000011176,67.0,59.0,40.0,False,,367.39706128955936,[],"[840, 525]",ColorTask,134.0,96.0,,,HRV,HRV_0312,2022-11-30 22:14:16
,wl-rdm,213,525410,0.0-8.96-0.96,1.0,214.0,,,,,,,[],,,,,,50.0,1.0,i,1.0,True,601.0,37.0,59.0,40.0,False,,272.8082236430715,[],"[840, 525]",ColorTask,135.0,97.0,,,HRV,HRV_0312,2022-11-30 22:14:16
,wl-rdm,214,527380,0.0-8.97-0.97,1.0,215.0,,,,,,,[],,,,,,87.9,1.0,i,1.0,True,622.9000000003725,38.0,59.0,40.0,False,,279.96660653819646,[],"[840, 525]",ColorTask,136.0,98.0,,,HRV,HRV_0312,2022-11-30 22:14:16
,wl-rdm,215,529269,0.0-8.98-0.98,1.0,216.0,,,,,,,[],,,,,,62.5,0.0,u,0.0,True,579.7000000011176,35.0,59.0,40.0,False,,251.1920060676602,[],"[840, 525]",ColorTask,137.0,99.0,,,HRV,HRV_0312,2022-11-30 22:14:16
,wl-rdm,216,531174,0.0-8.99-0.99,1.0,217.0,,,,,,,[],,,,,,56.4,0.0,u,0.0,True,487.9000000022352,30.0,59.0,40.0,False,,345.4103018523777,[],"[840, 525]",ColorTask,138.0,100.0,,,HRV,HRV_0312,2022-11-30 22:14:16
,wl-rdm,217,532880,0.0-8.100-0.100,1.0,218.0,,,,,,,[],,,,,,87.9,1.0,i,1.0,True,412.0,25.0,59.0,40.0,False,,233.39576285226678,[],"[840, 525]",ColorTask,139.0,101.0,,,HRV,HRV_0312,2022-11-30 22:14:16
,wl-rdm,218,534934,0.0-8.101-0.101,1.0,219.0,,,,,,,[],,,,,,50.0,1.0,u,0.0,False,588.2999999988824,36.0,59.0,40.0,False,,396.5214613532678,[],"[840, 525]",ColorTask,138.0,102.0,,,HRV,HRV_0312,2022-11-30 22:14:16
,wl-rdm,219,536687,0.0-8.102-0.102,1.0,220.0,,,,,,,[],,,,,,87.9,1.0,i,1.0,True,478.0,29.0,59.0,40.0,False,,213.0974013624523,[],"[840, 525]",ColorTask,139.0,103.0,,,HRV,HRV_0312,2022-11-30 22:14:16
,wl-rdm,220,538609,0.0-8.103-0.103,1.0,221.0,,,,,,,[],,,,,,56.4,0.0,u,0.0,True,619.4000000003725,38.0,59.0,40.0,False,,223.8253778252358,[],"[840, 525]",ColorTask,140.0,104.0,,,HRV,HRV_0312,2022-11-30 22:14:16
,wl-rdm,221,541566,0.0-8.104-0.104,1.0,222.0,,,,,,,[],,,,,,50.0,1.0,i,1.0,True,1581.2000000011176,95.0,59.0,40.0,False,,307.0683049313093,[],"[840, 525]",ColorTask,141.0,105.0,,,HRV,HRV_0312,2022-11-30 22:14:16
,wl-rdm,222,544157,0.0-8.105-0.105,1.0,223.0,,,,,,,[],,,,,,53.2,1.0,i,1.0,True,1215.7999999988824,73.0,59.0,40.0,False,,316.4303497038111,[],"[840, 525]",ColorTask,142.0,106.0,,,HRV,HRV_0312,2022-11-30 22:14:16
,wl-rdm,223,546511,0.0-8.106-0.106,1.0,224.0,,,,,,,[],,,,,,50.0,1.0,u,0.0,False,1079.0,65.0,59.0,40.0,False,,214.69338464978281,[],"[840, 525]",ColorTask,141.0,107.0,,,HRV,HRV_0312,2022-11-30 22:14:16
,wl-rdm,224,548649,0.0-8.107-0.107,1.0,225.0,,,,,,,[],,,,,,50.0,0.0,i,1.0,False,867.1999999992549,52.0,59.0,40.0,False,,205.77526174376354,[],"[840, 525]",ColorTask,140.0,108.0,,,HRV,HRV_0312,2022-11-30 22:14:16
,wl-html-button-response,225,550709,0.0-9.0-0.0,,,,,,,,,,2055.5,,0,,,,,,,,,,,,,,,,,,,,<h3>End of this session. Thank you!</h3><br>,['Close window'],HRV,HRV_0312,2022-11-30 22:14:16
