trialN,stimuli,trialStartTime,trialStartTime_UNIX,stimulus1,stimulus2,stimulus1Bid,stimulus2Bid,delta,selected,rt,rt_UNIX,rt_perfnow,receivedResponse,rsp,trialEndTime,trialDuration,trialEndTime_UNIX,trialDuration_UNIX,exp,subjectId,date
0,"[{'imgObject': {}, 'id': 'sweetpotato', 'src': '/static/foodstim60/sweetpotato.jpg', 'key': 'u', 'origWidth': 410, 'origHeight': 410, 'width': 410, 'height': 410, 'widthPercent': 0.45, 'rescaleHeight': False, 'trialN': 0, 'loaded': True, 'loadedTime': 2396.39999999851, 'positionName': 'LEFT', 'positionCoords': [396.4, 320], 'bid': 9.08}, {'imgObject': {}, 'id': 'mango', 'src': '/static/foodstim60/mango.jpg', 'key': 'i', 'origWidth': 411, 'origHeight': 411, 'width': 411, 'height': 411, 'widthPercent': 0.45, 'rescaleHeight': False, 'trialN': 0, 'loaded': True, 'loadedTime': 2414, 'positionName': 'RIGHT', 'positionCoords': [873.6, 319.5], 'bid': 8.53}]",3413.5999999996275,1669844716558,sweetpotato,mango,9.08,8.53,-0.5500000000000007,sweetpotato,2991.0999999996275,2994,2993.7999999988824,True,u,6910.299999998882,3496.699999999255,1669844720055,3497,HRV,HRV_0312,2022-11-30 21:50:57
1,"[{'imgObject': {}, 'id': 'orange slices', 'src': '/static/foodstim60/orange slices.jpg', 'key': 'u', 'origWidth': 409, 'origHeight': 410, 'width': 409, 'height': 410, 'widthPercent': 0.45, 'rescaleHeight': False, 'trialN': 1, 'loaded': True, 'loadedTime': 2420, 'positionName': 'LEFT', 'positionCoords': [397.4, 320], 'bid': 8.97}, {'imgObject': {}, 'id': 'kiwi', 'src': '/static/foodstim60/kiwi.jpg', 'key': 'i', 'origWidth': 410, 'origHeight': 410, 'width': 410, 'height': 410, 'widthPercent': 0.45, 'rescaleHeight': False, 'trialN': 1, 'loaded': True, 'loadedTime': 2429.39999999851, 'positionName': 'RIGHT', 'positionCoords': [873.6, 320], 'bid': 8.98}]",6910.5999999996275,1669844720055,orange slices,kiwi,8.97,8.98,0.009999999999999787,kiwi,1542.0999999996275,1545,1544.199999999255,True,i,8957.89999999851,2047.2999999988824,1669844722103,2048,HRV,HRV_0312,2022-11-30 21:50:57
2,"[{'imgObject': {}, 'id': 'hotdog w must', 'src': '/static/foodstim60/hotdog w must.jpg', 'key': 'u', 'origWidth': 409, 'origHeight': 409, 'width': 409, 'height': 409, 'widthPercent': 0.45, 'rescaleHeight': False, 'trialN': 2, 'loaded': True, 'loadedTime': 2431.5999999996275, 'positionName': 'LEFT', 'positionCoords': [397.4, 320.5], 'bid': 5.91}, {'imgObject': {}, 'id': 'orange slices', 'src': '/static/foodstim60/orange slices.jpg', 'key': 'i', 'origWidth': 409, 'origHeight': 410, 'width': 409, 'height': 410, 'widthPercent': 0.45, 'rescaleHeight': False, 'trialN': 2, 'loaded': True, 'loadedTime': 2425.0999999996275, 'positionName': 'RIGHT', 'positionCoords': [873.6, 320], 'bid': 8.97}]",8958.199999999255,1669844722103,hotdog w must,orange slices,5.91,8.97,3.0600000000000005,orange slices,966.5,968,968.3000000007451,True,i,10430.0,1471.800000000745,1669844723575,1472,HRV,HRV_0312,2022-11-30 21:50:57
3,"[{'imgObject': {}, 'id': 'bagel and cc', 'src': '/static/foodstim60/bagel and cc.jpg', 'key': 'u', 'origWidth': 410, 'origHeight': 410, 'width': 410, 'height': 410, 'widthPercent': 0.45, 'rescaleHeight': False, 'trialN': 3, 'loaded': True, 'loadedTime': 2439.39999999851, 'positionName': 'LEFT', 'positionCoords': [396.4, 320], 'bid': 9.69}, {'imgObject': {}, 'id': 'fried eggs', 'src': '/static/foodstim60/fried eggs.jpg', 'key': 'i', 'origWidth': 410, 'origHeight': 410, 'width': 410, 'height': 410, 'widthPercent': 0.45, 'rescaleHeight': False, 'trialN': 3, 'loaded': True, 'loadedTime': 2444.5, 'positionName': 'RIGHT', 'positionCoords': [873.6, 320], 'bid': 9.04}]",10430.199999999255,1669844723575,bagel and cc,fried eggs,9.69,9.04,-0.6500000000000004,bagel and cc,1614.5,1617,1616.699999999255,True,u,12550.0,2119.800000000745,1669844725695,2120,HRV,HRV_0312,2022-11-30 21:50:57
4,"[{'imgObject': {}, 'id': 'turkeysandwich', 'src': '/static/foodstim60/turkeysandwich.jpg', 'key': 'u', 'origWidth': 409, 'origHeight': 409, 'width': 409, 'height': 409, 'widthPercent': 0.45, 'rescaleHeight': False, 'trialN': 4, 'loaded': True, 'loadedTime': 2446.5999999996275, 'positionName': 'LEFT', 'positionCoords': [397.4, 320.5], 'bid': 6.23}, {'imgObject': {}, 'id': 'rigatoni', 'src': '/static/foodstim60/rigatoni.jpg', 'key': 'i', 'origWidth': 411, 'origHeight': 411, 'width': 411, 'height': 411, 'widthPercent': 0.45, 'rescaleHeight': False, 'trialN': 4, 'loaded': True, 'loadedTime': 2455.89999999851, 'positionName': 'RIGHT', 'positionCoords': [873.6, 319.5], 'bid': 7.52}]",12550.199999999255,1669844725695,turkeysandwich,rigatoni,6.23,7.52,1.2899999999999991,rigatoni,894.5,897,896.5999999996275,True,i,13949.89999999851,1399.699999999255,1669844727095,1400,HRV,HRV_0312,2022-11-30 21:50:57
5,"[{'imgObject': {}, 'id': 'olives', 'src': '/static/foodstim60/olives.jpg', 'key': 'u', 'origWidth': 410, 'origHeight': 410, 'width': 410, 'height': 410, 'widthPercent': 0.45, 'rescaleHeight': False, 'trialN': 5, 'loaded': True, 'loadedTime': 2463.5999999996275, 'positionName': 'LEFT', 'positionCoords': [396.4, 320], 'bid': 8.35}, {'imgObject': {}, 'id': 'orange slices', 'src': '/static/foodstim60/orange slices.jpg', 'key': 'i', 'origWidth': 409, 'origHeight': 410, 'width': 409, 'height': 410, 'widthPercent': 0.45, 'rescaleHeight': False, 'trialN': 5, 'loaded': True, 'loadedTime': 2422.0999999996275, 'positionName': 'RIGHT', 'positionCoords': [873.6, 320], 'bid': 8.97}]",13950.0,1669844727095,olives,orange slices,8.35,8.97,0.620000000000001,orange slices,1094.699999999255,1096,1096.5,True,i,15550.0,1600.0,1669844728695,1600,HRV,HRV_0312,2022-11-30 21:50:57
6,"[{'imgObject': {}, 'id': 'sweetpotato', 'src': '/static/foodstim60/sweetpotato.jpg', 'key': 'u', 'origWidth': 410, 'origHeight': 410, 'width': 410, 'height': 410, 'widthPercent': 0.45, 'rescaleHeight': False, 'trialN': 6, 'loaded': True, 'loadedTime': 2346, 'positionName': 'LEFT', 'positionCoords': [396.4, 320], 'bid': 9.08}, {'imgObject': {}, 'id': 'fried eggs', 'src': '/static/foodstim60/fried eggs.jpg', 'key': 'i', 'origWidth': 410, 'origHeight': 410, 'width': 410, 'height': 410, 'widthPercent': 0.45, 'rescaleHeight': False, 'trialN': 6, 'loaded': True, 'loadedTime': 2446.2999999988824, 'positionName': 'RIGHT', 'positionCoords': [873.6, 320], 'bid': 9.04}]",15550.199999999255,1669844728695,sweetpotato,fried eggs,9.08,9.04,-0.040000000000000924,fried eggs,1422.5,1424,1424.300000000745,True,i,17478.0,1927.800000000745,1669844730623,1928,HRV,HRV_0312,2022-11-30 21:50:57
7,"[{'imgObject': {}, 'id': 'froot loops w milk', 'src': '/static/foodstim60/froot loops w milk.jpg', 'key': 'u', 'origWidth': 410, 'origHeight': 410, 'width': 410, 'height': 410, 'widthPercent': 0.45, 'rescaleHeight': False, 'trialN': 7, 'loaded': True, 'loadedTime': 2468.5, 'positionName': 'LEFT', 'positionCoords': [396.4, 320], 'bid': 5.97}, {'imgObject': {}, 'id': 'hotdog w must', 'src': '/static/foodstim60/hotdog w must.jpg', 'key': 'i', 'origWidth': 409, 'origHeight': 409, 'width': 409, 'height': 409, 'widthPercent': 0.45, 'rescaleHeight': False, 'trialN': 7, 'loaded': True, 'loadedTime': 2433.5999999996275, 'positionName': 'RIGHT', 'positionCoords': [873.6, 320.5], 'bid': 5.91}]",17478.199999999255,1669844730623,froot loops w milk,hotdog w must,5.97,5.91,-0.05999999999999961,froot loops w milk,1118.5,1120,1120.5,True,u,19102.0,1623.800000000745,1669844732247,1624,HRV,HRV_0312,2022-11-30 21:50:57
8,"[{'imgObject': {}, 'id': 'avocado', 'src': '/static/foodstim60/avocado.jpg', 'key': 'u', 'origWidth': 409, 'origHeight': 409, 'width': 409, 'height': 409, 'widthPercent': 0.45, 'rescaleHeight': False, 'trialN': 8, 'loaded': True, 'loadedTime': 2481.39999999851, 'positionName': 'LEFT', 'positionCoords': [397.4, 320.5], 'bid': 9.63}, {'imgObject': {}, 'id': 'mashed potato', 'src': '/static/foodstim60/mashed potato.jpg', 'key': 'i', 'origWidth': 409, 'origHeight': 409, 'width': 409, 'height': 409, 'widthPercent': 0.45, 'rescaleHeight': False, 'trialN': 8, 'loaded': True, 'loadedTime': 2549.699999999255, 'positionName': 'RIGHT', 'positionCoords': [873.6, 320.5], 'bid': 9.67}]",19102.099999999627,1669844732247,avocado,mashed potato,9.63,9.67,0.03999999999999915,mashed potato,2910.5999999996275,2912,2912.5,True,i,22518.0,3415.9000000003725,1669844735663,3416,HRV,HRV_0312,2022-11-30 21:50:57
9,"[{'imgObject': {}, 'id': 'popsicles', 'src': '/static/foodstim60/popsicles.jpg', 'key': 'u', 'origWidth': 410, 'origHeight': 410, 'width': 410, 'height': 410, 'widthPercent': 0.45, 'rescaleHeight': False, 'trialN': 9, 'loaded': True, 'loadedTime': 2653.0999999996275, 'positionName': 'LEFT', 'positionCoords': [396.4, 320], 'bid': 7.140000000000001}, {'imgObject': {}, 'id': 'granola w milk', 'src': '/static/foodstim60/granola w milk.jpg', 'key': 'i', 'origWidth': 410, 'origHeight': 410, 'width': 410, 'height': 410, 'widthPercent': 0.45, 'rescaleHeight': False, 'trialN': 9, 'loaded': True, 'loadedTime': 2657.0999999996275, 'positionName': 'RIGHT', 'positionCoords': [873.6, 320], 'bid': 7.15}]",22518.199999999255,1669844735663,popsicles,granola w milk,7.140000000000001,7.15,0.009999999999999787,granola w milk,1150.5,1152,1152.4000000003725,True,i,24174.0,1655.800000000745,1669844737319,1656,HRV,HRV_0312,2022-11-30 21:50:57
10,"[{'imgObject': {}, 'id': 'fruitsalad', 'src': '/static/foodstim60/fruitsalad.jpg', 'key': 'u', 'origWidth': 410, 'origHeight': 410, 'width': 410, 'height': 410, 'widthPercent': 0.45, 'rescaleHeight': False, 'trialN': 10, 'loaded': True, 'loadedTime': 2667.39999999851, 'positionName': 'LEFT', 'positionCoords': [396.4, 320], 'bid': 9.78}, {'imgObject': {}, 'id': 'rigatoni and sauce', 'src': '/static/foodstim60/rigatoni and sauce.jpg', 'key': 'i', 'origWidth': 410, 'origHeight': 411, 'width': 410, 'height': 411, 'widthPercent': 0.45, 'rescaleHeight': False, 'trialN': 10, 'loaded': True, 'loadedTime': 2667.89999999851, 'positionName': 'RIGHT', 'positionCoords': [873.6, 319.5], 'bid': 9.47}]",24174.099999999627,1669844737319,fruitsalad,rigatoni and sauce,9.78,9.47,-0.3099999999999987,rigatoni and sauce,2246.5999999996275,2248,2248.2999999988824,True,i,26925.799999998882,2751.699999999255,1669844740071,2752,HRV,HRV_0312,2022-11-30 21:50:57
11,"[{'imgObject': {}, 'id': 'strawberries', 'src': '/static/foodstim60/strawberries.jpg', 'key': 'u', 'origWidth': 410, 'origHeight': 410, 'width': 410, 'height': 410, 'widthPercent': 0.45, 'rescaleHeight': False, 'trialN': 11, 'loaded': True, 'loadedTime': 2706.89999999851, 'positionName': 'LEFT', 'positionCoords': [396.4, 320], 'bid': 8.01}, {'imgObject': {}, 'id': 'granola w milk', 'src': '/static/foodstim60/granola w milk.jpg', 'key': 'i', 'origWidth': 410, 'origHeight': 410, 'width': 410, 'height': 410, 'widthPercent': 0.45, 'rescaleHeight': False, 'trialN': 11, 'loaded': True, 'loadedTime': 2659.89999999851, 'positionName': 'RIGHT', 'positionCoords': [873.6, 320], 'bid': 7.15}]",26926.0,1669844740071,strawberries,granola w milk,8.01,7.15,-0.8599999999999994,strawberries,1486.699999999255,1488,1488.3999999985099,True,u,28918.0,1992.0,1669844742063,1992,HRV,HRV_0312,2022-11-30 21:50:57
12,"[{'imgObject': {}, 'id': 'cantaloupe', 'src': '/static/foodstim60/cantaloupe.jpg', 'key': 'u', 'origWidth': 409, 'origHeight': 409, 'width': 409, 'height': 409, 'widthPercent': 0.45, 'rescaleHeight': False, 'trialN': 12, 'loaded': True, 'loadedTime': 2790, 'positionName': 'LEFT', 'positionCoords': [397.4, 320.5], 'bid': 8.34}, {'imgObject': {}, 'id': 'ice cream sundae 002', 'src': '/static/foodstim60/ice cream sundae 002.jpg', 'key': 'i', 'origWidth': 409, 'origHeight': 409, 'width': 409, 'height': 409, 'widthPercent': 0.45, 'rescaleHeight': False, 'trialN': 12, 'loaded': True, 'loadedTime': 2840.39999999851, 'positionName': 'RIGHT', 'positionCoords': [873.6, 320.5], 'bid': 8.78}]",28918.199999999255,1669844742063,cantaloupe,ice cream sundae 002,8.34,8.78,0.4399999999999995,ice cream sundae 002,1302.5,1304,1303.9000000003725,True,i,30725.89999999851,1807.699999999255,1669844743871,1808,HRV,HRV_0312,2022-11-30 21:50:57
13,"[{'imgObject': {}, 'id': 'sushi w_condiments', 'src': '/static/foodstim60/sushi w_condiments.jpg', 'key': 'u', 'origWidth': 410, 'origHeight': 410, 'width': 410, 'height': 410, 'widthPercent': 0.45, 'rescaleHeight': False, 'trialN': 13, 'loaded': True, 'loadedTime': 2891.39999999851, 'positionName': 'LEFT', 'positionCoords': [396.4, 320], 'bid': 9.8}, {'imgObject': {}, 'id': 'burrito', 'src': '/static/foodstim60/burrito.jpg', 'key': 'i', 'origWidth': 410, 'origHeight': 410, 'width': 410, 'height': 410, 'widthPercent': 0.45, 'rescaleHeight': False, 'trialN': 13, 'loaded': True, 'loadedTime': 2896.39999999851, 'positionName': 'RIGHT', 'positionCoords': [873.6, 320], 'bid': 9.7}]",30726.199999999255,1669844743871,sushi w_condiments,burrito,9.8,9.7,-0.10000000000000142,sushi w_condiments,1302.5,1304,1304.199999999255,True,u,32534.0,1807.800000000745,1669844745679,1808,HRV,HRV_0312,2022-11-30 21:50:57
14,"[{'imgObject': {}, 'id': 'corn cob', 'src': '/static/foodstim60/corn cob.jpg', 'key': 'u', 'origWidth': 411, 'origHeight': 411, 'width': 411, 'height': 411, 'widthPercent': 0.45, 'rescaleHeight': False, 'trialN': 14, 'loaded': True, 'loadedTime': 2899.699999999255, 'positionName': 'LEFT', 'positionCoords': [395.4, 319.5], 'bid': 7.98}, {'imgObject': {}, 'id': 'cherry tomato', 'src': '/static/foodstim60/cherry tomato.jpg', 'key': 'i', 'origWidth': 410, 'origHeight': 410, 'width': 410, 'height': 410, 'widthPercent': 0.45, 'rescaleHeight': False, 'trialN': 14, 'loaded': True, 'loadedTime': 2903.699999999255, 'positionName': 'RIGHT', 'positionCoords': [873.6, 320], 'bid': 6.32}]",32534.199999999255,1669844745679,corn cob,cherry tomato,7.98,6.32,-1.6600000000000001,corn cob,1126.5,1128,1127.5,True,u,34165.89999999851,1631.699999999255,1669844747311,1632,HRV,HRV_0312,2022-11-30 21:50:57
15,"[{'imgObject': {}, 'id': 'apple slices', 'src': '/static/foodstim60/apple slices.jpg', 'key': 'u', 'origWidth': 409, 'origHeight': 410, 'width': 409, 'height': 410, 'widthPercent': 0.45, 'rescaleHeight': False, 'trialN': 15, 'loaded': True, 'loadedTime': 2908.0999999996275, 'positionName': 'LEFT', 'positionCoords': [397.4, 320], 'bid': 6.92}, {'imgObject': {}, 'id': 'turkeysandwich', 'src': '/static/foodstim60/turkeysandwich.jpg', 'key': 'i', 'origWidth': 409, 'origHeight': 409, 'width': 409, 'height': 409, 'widthPercent': 0.45, 'rescaleHeight': False, 'trialN': 15, 'loaded': True, 'loadedTime': 2451.2999999988824, 'positionName': 'RIGHT', 'positionCoords': [873.6, 320.5], 'bid': 6.23}]",34166.09999999963,1669844747311,apple slices,turkeysandwich,6.92,6.23,-0.6899999999999995,apple slices,1870.5999999996275,1872,1872.0,True,u,36541.89999999851,2375.7999999988824,1669844749687,2376,HRV,HRV_0312,2022-11-30 21:50:57
16,"[{'imgObject': {}, 'id': 'raspberries', 'src': '/static/foodstim60/raspberries.jpg', 'key': 'u', 'origWidth': 411, 'origHeight': 411, 'width': 411, 'height': 411, 'widthPercent': 0.45, 'rescaleHeight': False, 'trialN': 16, 'loaded': True, 'loadedTime': 2910.5, 'positionName': 'LEFT', 'positionCoords': [395.4, 319.5], 'bid': 9.46}, {'imgObject': {}, 'id': 'baked potato', 'src': '/static/foodstim60/baked potato.jpg', 'key': 'i', 'origWidth': 409, 'origHeight': 410, 'width': 409, 'height': 410, 'widthPercent': 0.45, 'rescaleHeight': False, 'trialN': 16, 'loaded': True, 'loadedTime': 2915.5, 'positionName': 'RIGHT', 'positionCoords': [873.6, 320], 'bid': 9.34}]",36542.09999999963,1669844749687,raspberries,baked potato,9.46,9.34,-0.120000000000001,raspberries,2422.5999999996275,2424,2423.9000000003725,True,u,39470.0,2927.9000000003725,1669844752615,2928,HRV,HRV_0312,2022-11-30 21:50:57
17,"[{'imgObject': {}, 'id': 'olives', 'src': '/static/foodstim60/olives.jpg', 'key': 'u', 'origWidth': 410, 'origHeight': 410, 'width': 410, 'height': 410, 'widthPercent': 0.45, 'rescaleHeight': False, 'trialN': 17, 'loaded': True, 'loadedTime': 2457.7999999988824, 'positionName': 'LEFT', 'positionCoords': [396.4, 320], 'bid': 8.35}, {'imgObject': {}, 'id': 'roastedpotatoes', 'src': '/static/foodstim60/roastedpotatoes.jpg', 'key': 'i', 'origWidth': 409, 'origHeight': 410, 'width': 409, 'height': 410, 'widthPercent': 0.45, 'rescaleHeight': False, 'trialN': 17, 'loaded': True, 'loadedTime': 2920.699999999255, 'positionName': 'RIGHT', 'positionCoords': [873.6, 320], 'bid': 9.78}]",39470.199999999255,1669844752615,olives,roastedpotatoes,8.35,9.78,1.4299999999999997,roastedpotatoes,974.5,976,975.6999999992549,True,i,40949.89999999851,1479.699999999255,1669844754095,1480,HRV,HRV_0312,2022-11-30 21:50:57
18,"[{'imgObject': {}, 'id': 'veggieswithdip', 'src': '/static/foodstim60/veggieswithdip.jpg', 'key': 'u', 'origWidth': 409, 'origHeight': 409, 'width': 409, 'height': 409, 'widthPercent': 0.45, 'rescaleHeight': False, 'trialN': 18, 'loaded': True, 'loadedTime': 2922.5999999996275, 'positionName': 'LEFT', 'positionCoords': [397.4, 320.5], 'bid': 8.65}, {'imgObject': {}, 'id': 'eggs', 'src': '/static/foodstim60/eggs.jpg', 'key': 'i', 'origWidth': 409, 'origHeight': 409, 'width': 409, 'height': 409, 'widthPercent': 0.45, 'rescaleHeight': False, 'trialN': 18, 'loaded': True, 'loadedTime': 2928.5999999996275, 'positionName': 'RIGHT', 'positionCoords': [873.6, 320.5], 'bid': 8.09}]",40950.09999999963,1669844754095,veggieswithdip,eggs,8.65,8.09,-0.5600000000000005,veggieswithdip,1126.5999999996275,1128,1128.0,True,u,42581.89999999851,1631.7999999988824,1669844755727,1632,HRV,HRV_0312,2022-11-30 21:50:57
19,"[{'imgObject': {}, 'id': 'banana', 'src': '/static/foodstim60/banana.jpg', 'key': 'u', 'origWidth': 410, 'origHeight': 410, 'width': 410, 'height': 410, 'widthPercent': 0.45, 'rescaleHeight': False, 'trialN': 19, 'loaded': True, 'loadedTime': 2931.89999999851, 'positionName': 'LEFT', 'positionCoords': [396.4, 320], 'bid': 6.48}, {'imgObject': {}, 'id': 'chickenfingers', 'src': '/static/foodstim60/chickenfingers.jpg', 'key': 'i', 'origWidth': 410, 'origHeight': 410, 'width': 410, 'height': 410, 'widthPercent': 0.45, 'rescaleHeight': False, 'trialN': 19, 'loaded': True, 'loadedTime': 2941, 'positionName': 'RIGHT', 'positionCoords': [873.6, 320], 'bid': 6.47}]",42582.199999999255,1669844755727,banana,chickenfingers,6.48,6.47,-0.010000000000000675,banana,1558.5,1560,1559.800000000745,True,u,44646.0,2063.800000000745,1669844757791,2064,HRV,HRV_0312,2022-11-30 21:50:57
20,"[{'imgObject': {}, 'id': 'eggs', 'src': '/static/foodstim60/eggs.jpg', 'key': 'u', 'origWidth': 409, 'origHeight': 409, 'width': 409, 'height': 409, 'widthPercent': 0.45, 'rescaleHeight': False, 'trialN': 20, 'loaded': True, 'loadedTime': 2927.89999999851, 'positionName': 'LEFT', 'positionCoords': [397.4, 320.5], 'bid': 8.09}, {'imgObject': {}, 'id': 'grilled chicken strips', 'src': '/static/foodstim60/grilled chicken strips.jpg', 'key': 'i', 'origWidth': 410, 'origHeight': 411, 'width': 410, 'height': 411, 'widthPercent': 0.45, 'rescaleHeight': False, 'trialN': 20, 'loaded': True, 'loadedTime': 3020, 'positionName': 'RIGHT', 'positionCoords': [873.6, 319.5], 'bid': 6.3500000000000005}]",44646.0,1669844757791,eggs,grilled chicken strips,8.09,6.3500000000000005,-1.7399999999999993,eggs,1230.699999999255,1231,1231.5999999996275,True,u,46382.0,1736.0,1669844759527,1736,HRV,HRV_0312,2022-11-30 21:50:57
21,"[{'imgObject': {}, 'id': 'eggsalad', 'src': '/static/foodstim60/eggsalad.jpg', 'key': 'u', 'origWidth': 410, 'origHeight': 409, 'width': 410, 'height': 409, 'widthPercent': 0.45, 'rescaleHeight': False, 'trialN': 21, 'loaded': True, 'loadedTime': 3022.39999999851, 'positionName': 'LEFT', 'positionCoords': [396.4, 320.5], 'bid': 5}, {'imgObject': {}, 'id': 'popsicles', 'src': '/static/foodstim60/popsicles.jpg', 'key': 'i', 'origWidth': 410, 'origHeight': 410, 'width': 410, 'height': 410, 'widthPercent': 0.45, 'rescaleHeight': False, 'trialN': 21, 'loaded': True, 'loadedTime': 2654.7999999988824, 'positionName': 'RIGHT', 'positionCoords': [873.6, 320], 'bid': 7.140000000000001}]",46382.199999999255,1669844759527,eggsalad,popsicles,5.0,7.140000000000001,2.1400000000000006,popsicles,1845.5,1848,1848.0,True,i,48733.89999999851,2351.699999999255,1669844761879,2352,HRV,HRV_0312,2022-11-30 21:50:57
22,"[{'imgObject': {}, 'id': 'froot loops w milk', 'src': '/static/foodstim60/froot loops w milk.jpg', 'key': 'u', 'origWidth': 410, 'origHeight': 410, 'width': 410, 'height': 410, 'widthPercent': 0.45, 'rescaleHeight': False, 'trialN': 22, 'loaded': True, 'loadedTime': 2463.699999999255, 'positionName': 'LEFT', 'positionCoords': [396.4, 320], 'bid': 5.97}, {'imgObject': {}, 'id': 'eggsalad', 'src': '/static/foodstim60/eggsalad.jpg', 'key': 'i', 'origWidth': 410, 'origHeight': 409, 'width': 410, 'height': 409, 'widthPercent': 0.45, 'rescaleHeight': False, 'trialN': 22, 'loaded': True, 'loadedTime': 3022.199999999255, 'positionName': 'RIGHT', 'positionCoords': [873.6, 320.5], 'bid': 5}]",48734.09999999963,1669844761879,froot loops w milk,eggsalad,5.97,5.0,-0.9699999999999998,froot loops w milk,1285.5999999996275,1288,1287.699999999255,True,u,50525.89999999851,1791.7999999988824,1669844763671,1792,HRV,HRV_0312,2022-11-30 21:50:57
23,"[{'imgObject': {}, 'id': 'tacos', 'src': '/static/foodstim60/tacos.jpg', 'key': 'u', 'origWidth': 411, 'origHeight': 411, 'width': 411, 'height': 411, 'widthPercent': 0.45, 'rescaleHeight': False, 'trialN': 23, 'loaded': True, 'loadedTime': 3063.699999999255, 'positionName': 'LEFT', 'positionCoords': [395.4, 319.5], 'bid': 9.82}, {'imgObject': {}, 'id': 'bagel and cc', 'src': '/static/foodstim60/bagel and cc.jpg', 'key': 'i', 'origWidth': 410, 'origHeight': 410, 'width': 410, 'height': 410, 'widthPercent': 0.45, 'rescaleHeight': False, 'trialN': 23, 'loaded': True, 'loadedTime': 2438.7999999988824, 'positionName': 'RIGHT', 'positionCoords': [873.6, 320], 'bid': 9.69}]",50526.199999999255,1669844763671,tacos,bagel and cc,9.82,9.69,-0.13000000000000078,tacos,981.5,983,983.4000000003725,True,u,52013.89999999851,1487.699999999255,1669844765159,1488,HRV,HRV_0312,2022-11-30 21:50:57
24,"[{'imgObject': {}, 'id': 'mango', 'src': '/static/foodstim60/mango.jpg', 'key': 'u', 'origWidth': 411, 'origHeight': 411, 'width': 411, 'height': 411, 'widthPercent': 0.45, 'rescaleHeight': False, 'trialN': 24, 'loaded': True, 'loadedTime': 2416.7999999988824, 'positionName': 'LEFT', 'positionCoords': [395.4, 319.5], 'bid': 8.53}, {'imgObject': {}, 'id': 'tacos', 'src': '/static/foodstim60/tacos.jpg', 'key': 'i', 'origWidth': 411, 'origHeight': 411, 'width': 411, 'height': 411, 'widthPercent': 0.45, 'rescaleHeight': False, 'trialN': 24, 'loaded': True, 'loadedTime': 3063.7999999988824, 'positionName': 'RIGHT', 'positionCoords': [873.6, 319.5], 'bid': 9.82}]",52014.09999999963,1669844765159,mango,tacos,8.53,9.82,1.290000000000001,tacos,701.5999999996275,703,703.2999999988824,True,i,53222.0,1207.9000000003725,1669844766367,1208,HRV,HRV_0312,2022-11-30 21:50:57
25,"[{'imgObject': {}, 'id': 'cherries', 'src': '/static/foodstim60/cherries.jpg', 'key': 'u', 'origWidth': 410, 'origHeight': 411, 'width': 410, 'height': 411, 'widthPercent': 0.45, 'rescaleHeight': False, 'trialN': 25, 'loaded': True, 'loadedTime': 3065.5999999996275, 'positionName': 'LEFT', 'positionCoords': [396.4, 319.5], 'bid': 9.48}, {'imgObject': {}, 'id': 'sushi w_condiments', 'src': '/static/foodstim60/sushi w_condiments.jpg', 'key': 'i', 'origWidth': 410, 'origHeight': 410, 'width': 410, 'height': 410, 'widthPercent': 0.45, 'rescaleHeight': False, 'trialN': 25, 'loaded': True, 'loadedTime': 2891.0999999996275, 'positionName': 'RIGHT', 'positionCoords': [873.6, 320], 'bid': 9.8}]",53222.199999999255,1669844766367,cherries,sushi w_condiments,9.48,9.8,0.3200000000000003,sushi w_condiments,893.5,896,895.5,True,i,54622.0,1399.800000000745,1669844767767,1400,HRV,HRV_0312,2022-11-30 21:50:57
26,"[{'imgObject': {}, 'id': 'burrito', 'src': '/static/foodstim60/burrito.jpg', 'key': 'u', 'origWidth': 410, 'origHeight': 410, 'width': 410, 'height': 410, 'widthPercent': 0.45, 'rescaleHeight': False, 'trialN': 26, 'loaded': True, 'loadedTime': 2894.39999999851, 'positionName': 'LEFT', 'positionCoords': [396.4, 320], 'bid': 9.7}, {'imgObject': {}, 'id': 'yogurt no spoon', 'src': '/static/foodstim60/yogurt no spoon.jpg', 'key': 'i', 'origWidth': 411, 'origHeight': 410, 'width': 411, 'height': 410, 'widthPercent': 0.45, 'rescaleHeight': False, 'trialN': 26, 'loaded': True, 'loadedTime': 3106.7999999988824, 'positionName': 'RIGHT', 'positionCoords': [873.6, 320], 'bid': 9.47}]",54622.09999999963,1669844767767,burrito,yogurt no spoon,9.7,9.47,-0.22999999999999865,burrito,869.5999999996275,872,871.5999999996275,True,u,55998.0,1375.9000000003725,1669844769143,1376,HRV,HRV_0312,2022-11-30 21:50:57
27,"[{'imgObject': {}, 'id': 'blackbeanswithrice', 'src': '/static/foodstim60/blackbeanswithrice.jpg', 'key': 'u', 'origWidth': 410, 'origHeight': 410, 'width': 410, 'height': 410, 'widthPercent': 0.45, 'rescaleHeight': False, 'trialN': 27, 'loaded': True, 'loadedTime': 3108.5999999996275, 'positionName': 'LEFT', 'positionCoords': [396.4, 320], 'bid': 9.09}, {'imgObject': {}, 'id': 'omelette', 'src': '/static/foodstim60/omelette.jpg', 'key': 'i', 'origWidth': 410, 'origHeight': 409, 'width': 410, 'height': 409, 'widthPercent': 0.45, 'rescaleHeight': False, 'trialN': 27, 'loaded': True, 'loadedTime': 3148.2999999988824, 'positionName': 'RIGHT', 'positionCoords': [873.6, 320.5], 'bid': 9.11}]",55998.09999999963,1669844769143,blackbeanswithrice,omelette,9.09,9.11,0.019999999999999574,omelette,1229.5999999996275,1231,1231.4000000003725,True,i,57734.0,1735.9000000003725,1669844770879,1736,HRV,HRV_0312,2022-11-30 21:50:57
28,"[{'imgObject': {}, 'id': 'salmon', 'src': '/static/foodstim60/salmon.jpg', 'key': 'u', 'origWidth': 410, 'origHeight': 409, 'width': 410, 'height': 409, 'widthPercent': 0.45, 'rescaleHeight': False, 'trialN': 28, 'loaded': True, 'loadedTime': 3150.0999999996275, 'positionName': 'LEFT', 'positionCoords': [396.4, 320.5], 'bid': 9.77}, {'imgObject': {}, 'id': 'lox', 'src': '/static/foodstim60/lox.jpg', 'key': 'i', 'origWidth': 410, 'origHeight': 411, 'width': 410, 'height': 411, 'widthPercent': 0.45, 'rescaleHeight': False, 'trialN': 28, 'loaded': True, 'loadedTime': 3231.39999999851, 'positionName': 'RIGHT', 'positionCoords': [873.6, 319.5], 'bid': 9.69}]",57734.09999999963,1669844770879,salmon,lox,9.77,9.69,-0.08000000000000007,salmon,1133.5999999996275,1136,1136.0,True,u,59373.89999999851,1639.7999999988824,1669844772519,1640,HRV,HRV_0312,2022-11-30 21:50:57
29,"[{'imgObject': {}, 'id': 'hotdog w must', 'src': '/static/foodstim60/hotdog w must.jpg', 'key': 'u', 'origWidth': 409, 'origHeight': 409, 'width': 409, 'height': 409, 'widthPercent': 0.45, 'rescaleHeight': False, 'trialN': 29, 'loaded': True, 'loadedTime': 2435.199999999255, 'positionName': 'LEFT', 'positionCoords': [397.4, 320.5], 'bid': 5.91}, {'imgObject': {}, 'id': 'turkey sandwich', 'src': '/static/foodstim60/turkey sandwich.jpg', 'key': 'i', 'origWidth': 409, 'origHeight': 409, 'width': 409, 'height': 409, 'widthPercent': 0.45, 'rescaleHeight': False, 'trialN': 29, 'loaded': True, 'loadedTime': 3233.2999999988824, 'positionName': 'RIGHT', 'positionCoords': [873.6, 320.5], 'bid': 6.34}]",59374.0,1669844772519,hotdog w must,turkey sandwich,5.91,6.34,0.4299999999999997,turkey sandwich,1493.699999999255,1495,1495.5999999996275,True,i,61373.89999999851,1999.8999999985099,1669844774519,2000,HRV,HRV_0312,2022-11-30 21:50:57
30,"[{'imgObject': {}, 'id': 'cantaloupe', 'src': '/static/foodstim60/cantaloupe.jpg', 'key': 'u', 'origWidth': 409, 'origHeight': 409, 'width': 409, 'height': 409, 'widthPercent': 0.45, 'rescaleHeight': False, 'trialN': 30, 'loaded': True, 'loadedTime': 2789.89999999851, 'positionName': 'LEFT', 'positionCoords': [397.4, 320.5], 'bid': 8.34}, {'imgObject': {}, 'id': 'burger', 'src': '/static/foodstim60/burger.jpg', 'key': 'i', 'origWidth': 409, 'origHeight': 409, 'width': 409, 'height': 409, 'widthPercent': 0.45, 'rescaleHeight': False, 'trialN': 30, 'loaded': True, 'loadedTime': 3233.89999999851, 'positionName': 'RIGHT', 'positionCoords': [873.6, 320.5], 'bid': 6.45}]",61374.0,1669844774519,cantaloupe,burger,8.34,6.45,-1.8899999999999997,cantaloupe,1213.699999999255,1215,1215.5,True,u,63093.89999999851,1719.8999999985099,1669844776239,1720,HRV,HRV_0312,2022-11-30 21:50:57
31,"[{'imgObject': {}, 'id': 'raisin bran w milk', 'src': '/static/foodstim60/raisin bran w milk.jpg', 'key': 'u', 'origWidth': 411, 'origHeight': 411, 'width': 411, 'height': 411, 'widthPercent': 0.45, 'rescaleHeight': False, 'trialN': 31, 'loaded': True, 'loadedTime': 3276.5999999996275, 'positionName': 'LEFT', 'positionCoords': [395.4, 319.5], 'bid': 7.79}, {'imgObject': {}, 'id': 'ice cream sundae 002', 'src': '/static/foodstim60/ice cream sundae 002.jpg', 'key': 'i', 'origWidth': 409, 'origHeight': 409, 'width': 409, 'height': 409, 'widthPercent': 0.45, 'rescaleHeight': False, 'trialN': 31, 'loaded': True, 'loadedTime': 2790.5999999996275, 'positionName': 'RIGHT', 'positionCoords': [873.6, 320.5], 'bid': 8.78}]",63094.199999999255,1669844776239,raisin bran w milk,ice cream sundae 002,7.79,8.78,0.9899999999999993,ice cream sundae 002,1453.5,1455,1455.0,True,i,65054.0,1959.800000000745,1669844778199,1960,HRV,HRV_0312,2022-11-30 21:50:57
32,"[{'imgObject': {}, 'id': 'bagel plain', 'src': '/static/foodstim60/bagel plain.jpg', 'key': 'u', 'origWidth': 410, 'origHeight': 410, 'width': 410, 'height': 410, 'widthPercent': 0.45, 'rescaleHeight': False, 'trialN': 32, 'loaded': True, 'loadedTime': 3278.39999999851, 'positionName': 'LEFT', 'positionCoords': [396.4, 320], 'bid': 8.39}, {'imgObject': {}, 'id': 'chickenfingers', 'src': '/static/foodstim60/chickenfingers.jpg', 'key': 'i', 'origWidth': 410, 'origHeight': 410, 'width': 410, 'height': 410, 'widthPercent': 0.45, 'rescaleHeight': False, 'trialN': 32, 'loaded': True, 'loadedTime': 2975, 'positionName': 'RIGHT', 'positionCoords': [873.6, 320], 'bid': 6.47}]",65054.09999999963,1669844778199,bagel plain,chickenfingers,8.39,6.47,-1.9200000000000008,bagel plain,1045.5999999996275,1047,1047.2999999988824,True,u,66606.0,1551.9000000003725,1669844779751,1552,HRV,HRV_0312,2022-11-30 21:50:57
33,"[{'imgObject': {}, 'id': 'cheerios', 'src': '/static/foodstim60/cheerios.jpg', 'key': 'u', 'origWidth': 409, 'origHeight': 410, 'width': 409, 'height': 410, 'widthPercent': 0.45, 'rescaleHeight': False, 'trialN': 33, 'loaded': True, 'loadedTime': 3279.89999999851, 'positionName': 'LEFT', 'positionCoords': [397.4, 320], 'bid': 7.33}, {'imgObject': {}, 'id': 'salad w chicken', 'src': '/static/foodstim60/salad w chicken.jpg', 'key': 'i', 'origWidth': 411, 'origHeight': 411, 'width': 411, 'height': 411, 'widthPercent': 0.45, 'rescaleHeight': False, 'trialN': 33, 'loaded': True, 'loadedTime': 3316.2999999988824, 'positionName': 'RIGHT', 'positionCoords': [873.6, 319.5], 'bid': 7.32}]",66606.09999999963,1669844779751,cheerios,salad w chicken,7.33,7.32,-0.009999999999999787,cheerios,2157.5999999996275,2159,2159.199999999255,True,u,69269.89999999851,2663.7999999988824,1669844782415,2664,HRV,HRV_0312,2022-11-30 21:50:57
34,"[{'imgObject': {}, 'id': 'raspberries', 'src': '/static/foodstim60/raspberries.jpg', 'key': 'u', 'origWidth': 411, 'origHeight': 411, 'width': 411, 'height': 411, 'widthPercent': 0.45, 'rescaleHeight': False, 'trialN': 34, 'loaded': True, 'loadedTime': 2912.0999999996275, 'positionName': 'LEFT', 'positionCoords': [395.4, 319.5], 'bid': 9.46}, {'imgObject': {}, 'id': 'grilled chicken strips', 'src': '/static/foodstim60/grilled chicken strips.jpg', 'key': 'i', 'origWidth': 410, 'origHeight': 411, 'width': 410, 'height': 411, 'widthPercent': 0.45, 'rescaleHeight': False, 'trialN': 34, 'loaded': True, 'loadedTime': 2978.2999999988824, 'positionName': 'RIGHT', 'positionCoords': [873.6, 319.5], 'bid': 6.3500000000000005}]",69270.09999999963,1669844782415,raspberries,grilled chicken strips,9.46,6.3500000000000005,-3.1100000000000003,raspberries,1205.5999999996275,1207,1207.0999999996275,True,u,70982.0,1711.9000000003725,1669844784127,1712,HRV,HRV_0312,2022-11-30 21:50:57
35,"[{'imgObject': {}, 'id': 'turkey sandwich', 'src': '/static/foodstim60/turkey sandwich.jpg', 'key': 'u', 'origWidth': 409, 'origHeight': 409, 'width': 409, 'height': 409, 'widthPercent': 0.45, 'rescaleHeight': False, 'trialN': 35, 'loaded': True, 'loadedTime': 3232.0999999996275, 'positionName': 'LEFT', 'positionCoords': [397.4, 320.5], 'bid': 6.34}, {'imgObject': {}, 'id': 'baked potato', 'src': '/static/foodstim60/baked potato.jpg', 'key': 'i', 'origWidth': 409, 'origHeight': 410, 'width': 409, 'height': 410, 'widthPercent': 0.45, 'rescaleHeight': False, 'trialN': 35, 'loaded': True, 'loadedTime': 2914.5999999996275, 'positionName': 'RIGHT', 'positionCoords': [873.6, 320], 'bid': 9.34}]",70982.19999999925,1669844784127,turkey sandwich,baked potato,6.34,9.34,3.0,baked potato,1661.5,1663,1663.199999999255,True,i,73149.89999999851,2167.699999999255,1669844786295,2168,HRV,HRV_0312,2022-11-30 21:50:57
36,"[{'imgObject': {}, 'id': 'cantaloupe', 'src': '/static/foodstim60/cantaloupe.jpg', 'key': 'u', 'origWidth': 409, 'origHeight': 409, 'width': 409, 'height': 409, 'widthPercent': 0.45, 'rescaleHeight': False, 'trialN': 36, 'loaded': True, 'loadedTime': 2745.5, 'positionName': 'LEFT', 'positionCoords': [397.4, 320.5], 'bid': 8.34}, {'imgObject': {}, 'id': 'bagel plain', 'src': '/static/foodstim60/bagel plain.jpg', 'key': 'i', 'origWidth': 410, 'origHeight': 410, 'width': 410, 'height': 410, 'widthPercent': 0.45, 'rescaleHeight': False, 'trialN': 36, 'loaded': True, 'loadedTime': 3278.5, 'positionName': 'RIGHT', 'positionCoords': [873.6, 320], 'bid': 8.39}]",73150.09999999963,1669844786295,cantaloupe,bagel plain,8.34,8.39,0.05000000000000071,cantaloupe,1101.5999999996275,1103,1103.0999999996275,True,u,74758.0,1607.9000000003725,1669844787903,1608,HRV,HRV_0312,2022-11-30 21:50:57
37,"[{'imgObject': {}, 'id': 'cocktailshrimp', 'src': '/static/foodstim60/cocktailshrimp.jpg', 'key': 'u', 'origWidth': 410, 'origHeight': 410, 'width': 410, 'height': 410, 'widthPercent': 0.45, 'rescaleHeight': False, 'trialN': 37, 'loaded': True, 'loadedTime': 3318.199999999255, 'positionName': 'LEFT', 'positionCoords': [396.4, 320], 'bid': 9.55}, {'imgObject': {}, 'id': 'yogurt no spoon', 'src': '/static/foodstim60/yogurt no spoon.jpg', 'key': 'i', 'origWidth': 411, 'origHeight': 410, 'width': 411, 'height': 410, 'widthPercent': 0.45, 'rescaleHeight': False, 'trialN': 37, 'loaded': True, 'loadedTime': 3107.2999999988824, 'positionName': 'RIGHT', 'positionCoords': [873.6, 320], 'bid': 9.47}]",74758.19999999925,1669844787903,cocktailshrimp,yogurt no spoon,9.55,9.47,-0.08000000000000007,cocktailshrimp,1005.5,1007,1007.0999999996275,True,u,76270.0,1511.800000000745,1669844789415,1512,HRV,HRV_0312,2022-11-30 21:50:57
38,"[{'imgObject': {}, 'id': 'veggieswithdip', 'src': '/static/foodstim60/veggieswithdip.jpg', 'key': 'u', 'origWidth': 409, 'origHeight': 409, 'width': 409, 'height': 409, 'widthPercent': 0.45, 'rescaleHeight': False, 'trialN': 38, 'loaded': True, 'loadedTime': 2924.699999999255, 'positionName': 'LEFT', 'positionCoords': [397.4, 320.5], 'bid': 8.65}, {'imgObject': {}, 'id': 'hashbrowns', 'src': '/static/foodstim60/hashbrowns.jpg', 'key': 'i', 'origWidth': 411, 'origHeight': 410, 'width': 411, 'height': 410, 'widthPercent': 0.45, 'rescaleHeight': False, 'trialN': 38, 'loaded': True, 'loadedTime': 3319.7999999988824, 'positionName': 'RIGHT', 'positionCoords': [873.6, 320], 'bid': 4.96}]",76270.09999999963,1669844789415,veggieswithdip,hashbrowns,8.65,4.96,-3.6900000000000004,veggieswithdip,1109.5999999996275,1111,1110.9000000003725,True,u,77885.89999999851,1615.7999999988824,1669844791031,1616,HRV,HRV_0312,2022-11-30 21:50:57
39,"[{'imgObject': {}, 'id': 'banana', 'src': '/static/foodstim60/banana.jpg', 'key': 'u', 'origWidth': 410, 'origHeight': 410, 'width': 410, 'height': 410, 'widthPercent': 0.45, 'rescaleHeight': False, 'trialN': 39, 'loaded': True, 'loadedTime': 2931.7999999988824, 'positionName': 'LEFT', 'positionCoords': [396.4, 320], 'bid': 6.48}, {'imgObject': {}, 'id': 'froot loops w milk', 'src': '/static/foodstim60/froot loops w milk.jpg', 'key': 'i', 'origWidth': 410, 'origHeight': 410, 'width': 410, 'height': 410, 'widthPercent': 0.45, 'rescaleHeight': False, 'trialN': 39, 'loaded': True, 'loadedTime': 2465.7999999988824, 'positionName': 'RIGHT', 'positionCoords': [873.6, 320], 'bid': 5.97}]",77886.09999999963,1669844791031,banana,froot loops w milk,6.48,5.97,-0.5100000000000007,banana,2605.5999999996275,2607,2607.199999999255,True,u,80997.89999999851,3111.7999999988824,1669844794143,3112,HRV,HRV_0312,2022-11-30 21:50:57
40,"[{'imgObject': {}, 'id': 'rigatoni and sauce', 'src': '/static/foodstim60/rigatoni and sauce.jpg', 'key': 'u', 'origWidth': 410, 'origHeight': 411, 'width': 410, 'height': 411, 'widthPercent': 0.45, 'rescaleHeight': False, 'trialN': 40, 'loaded': True, 'loadedTime': 2669.699999999255, 'positionName': 'LEFT', 'positionCoords': [396.4, 319.5], 'bid': 9.47}, {'imgObject': {}, 'id': 'shreddedwheatwithmilk', 'src': '/static/foodstim60/shreddedwheatwithmilk.jpg', 'key': 'i', 'origWidth': 410, 'origHeight': 410, 'width': 410, 'height': 410, 'widthPercent': 0.45, 'rescaleHeight': False, 'trialN': 40, 'loaded': True, 'loadedTime': 3357.5, 'positionName': 'RIGHT', 'positionCoords': [873.6, 320], 'bid': 9.65}]",80998.09999999963,1669844794143,rigatoni and sauce,shreddedwheatwithmilk,9.47,9.65,0.17999999999999972,rigatoni and sauce,1781.5999999996275,1784,1783.7999999988824,True,u,83286.09999999963,2288.0,1669844796431,2288,HRV,HRV_0312,2022-11-30 21:50:57
41,"[{'imgObject': {}, 'id': 'chicken nuggets2', 'src': '/static/foodstim60/chicken nuggets2.jpg', 'key': 'u', 'origWidth': 410, 'origHeight': 409, 'width': 410, 'height': 409, 'widthPercent': 0.45, 'rescaleHeight': False, 'trialN': 41, 'loaded': True, 'loadedTime': 3361.199999999255, 'positionName': 'LEFT', 'positionCoords': [396.4, 320.5], 'bid': 6.47}, {'imgObject': {}, 'id': 'yogurt no spoon', 'src': '/static/foodstim60/yogurt no spoon.jpg', 'key': 'i', 'origWidth': 411, 'origHeight': 410, 'width': 411, 'height': 410, 'widthPercent': 0.45, 'rescaleHeight': False, 'trialN': 41, 'loaded': True, 'loadedTime': 3107, 'positionName': 'RIGHT', 'positionCoords': [873.6, 320], 'bid': 9.47}]",83286.19999999925,1669844796431,chicken nuggets2,yogurt no spoon,6.47,9.47,3.000000000000001,yogurt no spoon,1333.5,1335,1334.800000000745,True,i,85125.89999999851,1839.699999999255,1669844798271,1840,HRV,HRV_0312,2022-11-30 21:50:57
42,"[{'imgObject': {}, 'id': 'edamame', 'src': '/static/foodstim60/edamame.jpg', 'key': 'u', 'origWidth': 409, 'origHeight': 410, 'width': 409, 'height': 410, 'widthPercent': 0.45, 'rescaleHeight': False, 'trialN': 42, 'loaded': True, 'loadedTime': 3362.699999999255, 'positionName': 'LEFT', 'positionCoords': [397.4, 320], 'bid': 9.6}, {'imgObject': {}, 'id': 'Grapes', 'src': '/static/foodstim60/Grapes.jpg', 'key': 'i', 'origWidth': 411, 'origHeight': 411, 'width': 411, 'height': 411, 'widthPercent': 0.45, 'rescaleHeight': False, 'trialN': 42, 'loaded': True, 'loadedTime': 3364.89999999851, 'positionName': 'RIGHT', 'positionCoords': [873.6, 319.5], 'bid': 6.83}]",85125.89999999851,1669844798271,edamame,Grapes,9.6,6.83,-2.7699999999999996,edamame,940.8000000007451,943,942.8000000007451,True,u,86573.89999999851,1448.0,1669844799719,1448,HRV,HRV_0312,2022-11-30 21:50:57
43,"[{'imgObject': {}, 'id': 'granola w milk', 'src': '/static/foodstim60/granola w milk.jpg', 'key': 'u', 'origWidth': 410, 'origHeight': 410, 'width': 410, 'height': 410, 'widthPercent': 0.45, 'rescaleHeight': False, 'trialN': 43, 'loaded': True, 'loadedTime': 2658.5, 'positionName': 'LEFT', 'positionCoords': [396.4, 320], 'bid': 7.15}, {'imgObject': {}, 'id': 'cheerios', 'src': '/static/foodstim60/cheerios.jpg', 'key': 'i', 'origWidth': 409, 'origHeight': 410, 'width': 409, 'height': 410, 'widthPercent': 0.45, 'rescaleHeight': False, 'trialN': 43, 'loaded': True, 'loadedTime': 3279.7999999988824, 'positionName': 'RIGHT', 'positionCoords': [873.6, 320], 'bid': 7.33}]",86574.09999999963,1669844799719,granola w milk,cheerios,7.15,7.33,0.17999999999999972,granola w milk,1244.5999999996275,1247,1246.699999999255,True,u,88325.89999999851,1751.7999999988824,1669844801471,1752,HRV,HRV_0312,2022-11-30 21:50:57
44,"[{'imgObject': {}, 'id': 'tacos', 'src': '/static/foodstim60/tacos.jpg', 'key': 'u', 'origWidth': 411, 'origHeight': 411, 'width': 411, 'height': 411, 'widthPercent': 0.45, 'rescaleHeight': False, 'trialN': 44, 'loaded': True, 'loadedTime': 3022.5, 'positionName': 'LEFT', 'positionCoords': [395.4, 319.5], 'bid': 9.82}, {'imgObject': {}, 'id': 'mac & cheese', 'src': '/static/foodstim60/mac & cheese.jpg', 'key': 'i', 'origWidth': 410, 'origHeight': 410, 'width': 410, 'height': 410, 'widthPercent': 0.45, 'rescaleHeight': False, 'trialN': 44, 'loaded': True, 'loadedTime': 3365.0999999996275, 'positionName': 'RIGHT', 'positionCoords': [873.6, 320], 'bid': 9.82}]",88326.19999999925,1669844801471,tacos,mac & cheese,9.82,9.82,0.0,tacos,1684.5,1687,1686.800000000745,True,u,90518.0,2191.800000000745,1669844803663,2192,HRV,HRV_0312,2022-11-30 21:50:57
45,"[{'imgObject': {}, 'id': 'cherry tomato', 'src': '/static/foodstim60/cherry tomato.jpg', 'key': 'u', 'origWidth': 410, 'origHeight': 410, 'width': 410, 'height': 410, 'widthPercent': 0.45, 'rescaleHeight': False, 'trialN': 45, 'loaded': True, 'loadedTime': 2903.5999999996275, 'positionName': 'LEFT', 'positionCoords': [396.4, 320], 'bid': 6.32}, {'imgObject': {}, 'id': 'granola w milk', 'src': '/static/foodstim60/granola w milk.jpg', 'key': 'i', 'origWidth': 410, 'origHeight': 410, 'width': 410, 'height': 410, 'widthPercent': 0.45, 'rescaleHeight': False, 'trialN': 45, 'loaded': True, 'loadedTime': 2660.89999999851, 'positionName': 'RIGHT', 'positionCoords': [873.6, 320], 'bid': 7.15}]",90518.19999999925,1669844803663,cherry tomato,granola w milk,6.32,7.15,0.8300000000000001,granola w milk,1108.5,1111,1111.0,True,i,92134.0,1615.800000000745,1669844805279,1616,HRV,HRV_0312,2022-11-30 21:50:57
46,"[{'imgObject': {}, 'id': 'kiwi', 'src': '/static/foodstim60/kiwi.jpg', 'key': 'u', 'origWidth': 410, 'origHeight': 410, 'width': 410, 'height': 410, 'widthPercent': 0.45, 'rescaleHeight': False, 'trialN': 46, 'loaded': True, 'loadedTime': 2429.5, 'positionName': 'LEFT', 'positionCoords': [396.4, 320], 'bid': 8.98}, {'imgObject': {}, 'id': 'froot loops w milk', 'src': '/static/foodstim60/froot loops w milk.jpg', 'key': 'i', 'origWidth': 410, 'origHeight': 410, 'width': 410, 'height': 410, 'widthPercent': 0.45, 'rescaleHeight': False, 'trialN': 46, 'loaded': True, 'loadedTime': 2465.5999999996275, 'positionName': 'RIGHT', 'positionCoords': [873.6, 320], 'bid': 5.97}]",92134.09999999963,1669844805279,kiwi,froot loops w milk,8.98,5.97,-3.0100000000000007,kiwi,1252.5999999996275,1255,1254.7999999988824,True,u,93893.89999999851,1759.7999999988824,1669844807039,1760,HRV,HRV_0312,2022-11-30 21:50:57
47,"[{'imgObject': {}, 'id': 'sweetpotato', 'src': '/static/foodstim60/sweetpotato.jpg', 'key': 'u', 'origWidth': 410, 'origHeight': 410, 'width': 410, 'height': 410, 'widthPercent': 0.45, 'rescaleHeight': False, 'trialN': 47, 'loaded': True, 'loadedTime': 2350.0999999996275, 'positionName': 'LEFT', 'positionCoords': [396.4, 320], 'bid': 9.08}, {'imgObject': {}, 'id': 'kiwi', 'src': '/static/foodstim60/kiwi.jpg', 'key': 'i', 'origWidth': 410, 'origHeight': 410, 'width': 410, 'height': 410, 'widthPercent': 0.45, 'rescaleHeight': False, 'trialN': 47, 'loaded': True, 'loadedTime': 2428.199999999255, 'positionName': 'RIGHT', 'positionCoords': [873.6, 320], 'bid': 8.98}]",93894.0,1669844807039,sweetpotato,kiwi,9.08,8.98,-0.09999999999999964,kiwi,2276.699999999255,2279,2278.5999999996275,True,i,96678.0,2784.0,1669844809823,2784,HRV,HRV_0312,2022-11-30 21:50:57
48,"[{'imgObject': {}, 'id': 'shreddedwheatwithmilk', 'src': '/static/foodstim60/shreddedwheatwithmilk.jpg', 'key': 'u', 'origWidth': 410, 'origHeight': 410, 'width': 410, 'height': 410, 'widthPercent': 0.45, 'rescaleHeight': False, 'trialN': 48, 'loaded': True, 'loadedTime': 3359, 'positionName': 'LEFT', 'positionCoords': [396.4, 320], 'bid': 9.65}, {'imgObject': {}, 'id': 'mashed potato', 'src': '/static/foodstim60/mashed potato.jpg', 'key': 'i', 'origWidth': 409, 'origHeight': 409, 'width': 409, 'height': 409, 'widthPercent': 0.45, 'rescaleHeight': False, 'trialN': 48, 'loaded': True, 'loadedTime': 2596.699999999255, 'positionName': 'RIGHT', 'positionCoords': [873.6, 320.5], 'bid': 9.67}]",96678.19999999925,1669844809823,shreddedwheatwithmilk,mashed potato,9.65,9.67,0.019999999999999574,mashed potato,1228.5,1230,1230.300000000745,True,i,98414.0,1735.800000000745,1669844811559,1736,HRV,HRV_0312,2022-11-30 21:50:57
49,"[{'imgObject': {}, 'id': 'salmon', 'src': '/static/foodstim60/salmon.jpg', 'key': 'u', 'origWidth': 410, 'origHeight': 409, 'width': 410, 'height': 409, 'widthPercent': 0.45, 'rescaleHeight': False, 'trialN': 49, 'loaded': True, 'loadedTime': 3189.2999999988824, 'positionName': 'LEFT', 'positionCoords': [396.4, 320.5], 'bid': 9.77}, {'imgObject': {}, 'id': 'edamame', 'src': '/static/foodstim60/edamame.jpg', 'key': 'i', 'origWidth': 409, 'origHeight': 410, 'width': 409, 'height': 410, 'widthPercent': 0.45, 'rescaleHeight': False, 'trialN': 49, 'loaded': True, 'loadedTime': 3361.2999999988824, 'positionName': 'RIGHT', 'positionCoords': [873.6, 320], 'bid': 9.6}]",98414.09999999963,1669844811559,salmon,edamame,9.77,9.6,-0.16999999999999993,salmon,1140.5999999996275,1143,1143.0,True,u,100062.0,1647.9000000003725,1669844813207,1648,HRV,HRV_0312,2022-11-30 21:50:57
50,"[{'imgObject': {}, 'id': 'blueberries', 'src': '/static/foodstim60/blueberries.jpg', 'key': 'u', 'origWidth': 411, 'origHeight': 411, 'width': 411, 'height': 411, 'widthPercent': 0.45, 'rescaleHeight': False, 'trialN': 50, 'loaded': True, 'loadedTime': 3402, 'positionName': 'LEFT', 'positionCoords': [395.4, 319.5], 'bid': 9.69}, {'imgObject': {}, 'id': 'roastedpotatoes', 'src': '/static/foodstim60/roastedpotatoes.jpg', 'key': 'i', 'origWidth': 409, 'origHeight': 410, 'width': 409, 'height': 410, 'widthPercent': 0.45, 'rescaleHeight': False, 'trialN': 50, 'loaded': True, 'loadedTime': 2919.7999999988824, 'positionName': 'RIGHT', 'positionCoords': [873.6, 320], 'bid': 9.78}]",100062.09999999963,1669844813207,blueberries,roastedpotatoes,9.69,9.78,0.08999999999999986,roastedpotatoes,2748.5999999996275,2751,2750.9000000003725,True,i,103318.0,3255.9000000003725,1669844816463,3256,HRV,HRV_0312,2022-11-30 21:50:57
51,"[{'imgObject': {}, 'id': 'burger', 'src': '/static/foodstim60/burger.jpg', 'key': 'u', 'origWidth': 409, 'origHeight': 409, 'width': 409, 'height': 409, 'widthPercent': 0.45, 'rescaleHeight': False, 'trialN': 51, 'loaded': True, 'loadedTime': 3274.2999999988824, 'positionName': 'LEFT', 'positionCoords': [397.4, 320.5], 'bid': 6.45}, {'imgObject': {}, 'id': 'hashbrowns', 'src': '/static/foodstim60/hashbrowns.jpg', 'key': 'i', 'origWidth': 411, 'origHeight': 410, 'width': 411, 'height': 410, 'widthPercent': 0.45, 'rescaleHeight': False, 'trialN': 51, 'loaded': True, 'loadedTime': 3357.199999999255, 'positionName': 'RIGHT', 'positionCoords': [873.6, 320], 'bid': 4.96}]",103318.09999999963,1669844816463,burger,hashbrowns,6.45,4.96,-1.4900000000000002,burger,1596.5999999996275,1598,1598.199999999255,True,u,105422.0,2103.9000000003725,1669844818567,2104,HRV,HRV_0312,2022-11-30 21:50:57
52,"[{'imgObject': {}, 'id': 'eggs', 'src': '/static/foodstim60/eggs.jpg', 'key': 'u', 'origWidth': 409, 'origHeight': 409, 'width': 409, 'height': 409, 'widthPercent': 0.45, 'rescaleHeight': False, 'trialN': 52, 'loaded': True, 'loadedTime': 2926.699999999255, 'positionName': 'LEFT', 'positionCoords': [397.4, 320.5], 'bid': 8.09}, {'imgObject': {}, 'id': 'olives', 'src': '/static/foodstim60/olives.jpg', 'key': 'i', 'origWidth': 410, 'origHeight': 410, 'width': 410, 'height': 410, 'widthPercent': 0.45, 'rescaleHeight': False, 'trialN': 52, 'loaded': True, 'loadedTime': 2462.0999999996275, 'positionName': 'RIGHT', 'positionCoords': [873.6, 320], 'bid': 8.35}]",105422.09999999963,1669844818567,eggs,olives,8.09,8.35,0.2599999999999998,eggs,916.5999999996275,919,918.5999999996275,True,u,106846.0,1423.9000000003725,1669844819991,1424,HRV,HRV_0312,2022-11-30 21:50:57
53,"[{'imgObject': {}, 'id': 'edamame', 'src': '/static/foodstim60/edamame.jpg', 'key': 'u', 'origWidth': 409, 'origHeight': 410, 'width': 409, 'height': 410, 'widthPercent': 0.45, 'rescaleHeight': False, 'trialN': 53, 'loaded': True, 'loadedTime': 3362.5999999996275, 'positionName': 'LEFT', 'positionCoords': [397.4, 320], 'bid': 9.6}, {'imgObject': {}, 'id': 'avocado', 'src': '/static/foodstim60/avocado.jpg', 'key': 'i', 'origWidth': 409, 'origHeight': 409, 'width': 409, 'height': 409, 'widthPercent': 0.45, 'rescaleHeight': False, 'trialN': 53, 'loaded': True, 'loadedTime': 2549.2999999988824, 'positionName': 'RIGHT', 'positionCoords': [873.6, 320.5], 'bid': 9.63}]",106846.19999999925,1669844819991,edamame,avocado,9.6,9.63,0.030000000000001137,avocado,1716.5,1718,1718.300000000745,True,i,109069.89999999851,2223.699999999255,1669844822215,2224,HRV,HRV_0312,2022-11-30 21:50:57
54,"[{'imgObject': {}, 'id': 'Tribe humus pita', 'src': '/static/foodstim60/Tribe humus pita.jpg', 'key': 'u', 'origWidth': 411, 'origHeight': 411, 'width': 411, 'height': 411, 'widthPercent': 0.45, 'rescaleHeight': False, 'trialN': 54, 'loaded': True, 'loadedTime': 3403.5, 'positionName': 'LEFT', 'positionCoords': [395.4, 319.5], 'bid': 9.71}, {'imgObject': {}, 'id': 'corn cob', 'src': '/static/foodstim60/corn cob.jpg', 'key': 'i', 'origWidth': 411, 'origHeight': 411, 'width': 411, 'height': 411, 'widthPercent': 0.45, 'rescaleHeight': False, 'trialN': 54, 'loaded': True, 'loadedTime': 2898.699999999255, 'positionName': 'RIGHT', 'positionCoords': [873.6, 319.5], 'bid': 7.98}]",109070.09999999963,1669844822215,Tribe humus pita,corn cob,9.71,7.98,-1.7300000000000004,Tribe humus pita,868.5999999996275,870,870.0999999996275,True,u,110446.0,1375.9000000003725,1669844823591,1376,HRV,HRV_0312,2022-11-30 21:50:57
55,"[{'imgObject': {}, 'id': 'pear', 'src': '/static/foodstim60/pear.jpg', 'key': 'u', 'origWidth': 411, 'origHeight': 410, 'width': 411, 'height': 410, 'widthPercent': 0.45, 'rescaleHeight': False, 'trialN': 55, 'loaded': True, 'loadedTime': 3405.0999999996275, 'positionName': 'LEFT', 'positionCoords': [395.4, 320], 'bid': 8.53}, {'imgObject': {}, 'id': 'fried eggs', 'src': '/static/foodstim60/fried eggs.jpg', 'key': 'i', 'origWidth': 410, 'origHeight': 410, 'width': 410, 'height': 410, 'widthPercent': 0.45, 'rescaleHeight': False, 'trialN': 55, 'loaded': True, 'loadedTime': 2441.5999999996275, 'positionName': 'RIGHT', 'positionCoords': [873.6, 320], 'bid': 9.04}]",110446.19999999925,1669844823591,pear,fried eggs,8.53,9.04,0.5099999999999998,fried eggs,1220.5,1222,1222.199999999255,True,i,112174.0,1727.800000000745,1669844825319,1728,HRV,HRV_0312,2022-11-30 21:50:57
56,"[{'imgObject': {}, 'id': 'granola w milk', 'src': '/static/foodstim60/granola w milk.jpg', 'key': 'u', 'origWidth': 410, 'origHeight': 410, 'width': 410, 'height': 410, 'widthPercent': 0.45, 'rescaleHeight': False, 'trialN': 56, 'loaded': True, 'loadedTime': 2659.5999999996275, 'positionName': 'LEFT', 'positionCoords': [396.4, 320], 'bid': 7.15}, {'imgObject': {}, 'id': 'hotdog w must', 'src': '/static/foodstim60/hotdog w must.jpg', 'key': 'i', 'origWidth': 409, 'origHeight': 409, 'width': 409, 'height': 409, 'widthPercent': 0.45, 'rescaleHeight': False, 'trialN': 56, 'loaded': True, 'loadedTime': 2432.89999999851, 'positionName': 'RIGHT', 'positionCoords': [873.6, 320.5], 'bid': 5.91}]",112174.19999999925,1669844825319,granola w milk,hotdog w must,7.15,5.91,-1.2400000000000002,granola w milk,924.5,926,926.0999999996275,True,u,113605.79999999888,1431.5999999996275,1669844826751,1432,HRV,HRV_0312,2022-11-30 21:50:57
57,"[{'imgObject': {}, 'id': 'strawberries', 'src': '/static/foodstim60/strawberries.jpg', 'key': 'u', 'origWidth': 410, 'origHeight': 410, 'width': 410, 'height': 410, 'widthPercent': 0.45, 'rescaleHeight': False, 'trialN': 57, 'loaded': True, 'loadedTime': 2708.2999999988824, 'positionName': 'LEFT', 'positionCoords': [396.4, 320], 'bid': 8.01}, {'imgObject': {}, 'id': 'kiwi', 'src': '/static/foodstim60/kiwi.jpg', 'key': 'i', 'origWidth': 410, 'origHeight': 410, 'width': 410, 'height': 410, 'widthPercent': 0.45, 'rescaleHeight': False, 'trialN': 57, 'loaded': True, 'loadedTime': 2428.39999999851, 'positionName': 'RIGHT', 'positionCoords': [873.6, 320], 'bid': 8.98}]",113606.0,1669844826751,strawberries,kiwi,8.01,8.98,0.9700000000000006,kiwi,1148.699999999255,1150,1150.199999999255,True,i,115261.89999999851,1655.8999999985099,1669844828407,1656,HRV,HRV_0312,2022-11-30 21:50:57
58,"[{'imgObject': {}, 'id': 'Grapes', 'src': '/static/foodstim60/Grapes.jpg', 'key': 'u', 'origWidth': 411, 'origHeight': 411, 'width': 411, 'height': 411, 'widthPercent': 0.45, 'rescaleHeight': False, 'trialN': 58, 'loaded': True, 'loadedTime': 3364.699999999255, 'positionName': 'LEFT', 'positionCoords': [395.4, 319.5], 'bid': 6.83}, {'imgObject': {}, 'id': 'luckycharms', 'src': '/static/foodstim60/luckycharms.jpg', 'key': 'i', 'origWidth': 410, 'origHeight': 409, 'width': 410, 'height': 409, 'widthPercent': 0.45, 'rescaleHeight': False, 'trialN': 58, 'loaded': True, 'loadedTime': 3406.89999999851, 'positionName': 'RIGHT', 'positionCoords': [873.6, 320.5], 'bid': 6.01}]",115262.0,1669844828407,Grapes,luckycharms,6.83,6.01,-0.8200000000000003,luckycharms,1804.699999999255,1807,1806.7999999988824,True,i,117574.0,2312.0,1669844830719,2312,HRV,HRV_0312,2022-11-30 21:50:57
59,"[{'imgObject': {}, 'id': 'sushi w_condiments', 'src': '/static/foodstim60/sushi w_condiments.jpg', 'key': 'u', 'origWidth': 410, 'origHeight': 410, 'width': 410, 'height': 410, 'widthPercent': 0.45, 'rescaleHeight': False, 'trialN': 59, 'loaded': True, 'loadedTime': 2881.5999999996275, 'positionName': 'LEFT', 'positionCoords': [396.4, 320], 'bid': 9.8}, {'imgObject': {}, 'id': 'roastedpotatoes', 'src': '/static/foodstim60/roastedpotatoes.jpg', 'key': 'i', 'origWidth': 409, 'origHeight': 410, 'width': 409, 'height': 410, 'widthPercent': 0.45, 'rescaleHeight': False, 'trialN': 59, 'loaded': True, 'loadedTime': 2921.7999999988824, 'positionName': 'RIGHT', 'positionCoords': [873.6, 320], 'bid': 9.78}]",117574.19999999925,1669844830719,sushi w_condiments,roastedpotatoes,9.8,9.78,-0.02000000000000135,sushi w_condiments,972.5,974,973.9000000003725,True,u,119054.0,1479.800000000745,1669844832199,1480,HRV,HRV_0312,2022-11-30 21:50:57
60,"[{'imgObject': {}, 'id': 'apple slices', 'src': '/static/foodstim60/apple slices.jpg', 'key': 'u', 'origWidth': 409, 'origHeight': 410, 'width': 409, 'height': 410, 'widthPercent': 0.45, 'rescaleHeight': False, 'trialN': 60, 'loaded': True, 'loadedTime': 2906.39999999851, 'positionName': 'LEFT', 'positionCoords': [397.4, 320], 'bid': 6.92}, {'imgObject': {}, 'id': 'banana', 'src': '/static/foodstim60/banana.jpg', 'key': 'i', 'origWidth': 410, 'origHeight': 410, 'width': 410, 'height': 410, 'widthPercent': 0.45, 'rescaleHeight': False, 'trialN': 60, 'loaded': True, 'loadedTime': 2935.699999999255, 'positionName': 'RIGHT', 'positionCoords': [873.6, 320], 'bid': 6.48}]",119054.19999999925,1669844832199,apple slices,banana,6.92,6.48,-0.4399999999999995,banana,1452.5,1454,1454.0,True,i,121013.89999999851,1959.699999999255,1669844834159,1960,HRV,HRV_0312,2022-11-30 21:50:57
61,"[{'imgObject': {}, 'id': 'avocado', 'src': '/static/foodstim60/avocado.jpg', 'key': 'u', 'origWidth': 409, 'origHeight': 409, 'width': 409, 'height': 409, 'widthPercent': 0.45, 'rescaleHeight': False, 'trialN': 61, 'loaded': True, 'loadedTime': 2468.5999999996275, 'positionName': 'LEFT', 'positionCoords': [397.4, 320.5], 'bid': 9.63}, {'imgObject': {}, 'id': 'apple slices', 'src': '/static/foodstim60/apple slices.jpg', 'key': 'i', 'origWidth': 409, 'origHeight': 410, 'width': 409, 'height': 410, 'widthPercent': 0.45, 'rescaleHeight': False, 'trialN': 61, 'loaded': True, 'loadedTime': 2906.2999999988824, 'positionName': 'RIGHT', 'positionCoords': [873.6, 320], 'bid': 6.92}]",121014.09999999963,1669844834159,avocado,apple slices,9.63,6.92,-2.710000000000001,avocado,932.5999999996275,934,933.5,True,u,122454.09999999963,1440.0,1669844835599,1440,HRV,HRV_0312,2022-11-30 21:50:57
62,"[{'imgObject': {}, 'id': 'burger', 'src': '/static/foodstim60/burger.jpg', 'key': 'u', 'origWidth': 409, 'origHeight': 409, 'width': 409, 'height': 409, 'widthPercent': 0.45, 'rescaleHeight': False, 'trialN': 62, 'loaded': True, 'loadedTime': 3275.199999999255, 'positionName': 'LEFT', 'positionCoords': [397.4, 320.5], 'bid': 6.45}, {'imgObject': {}, 'id': 'rigatoni and sauce', 'src': '/static/foodstim60/rigatoni and sauce.jpg', 'key': 'i', 'origWidth': 410, 'origHeight': 411, 'width': 410, 'height': 411, 'widthPercent': 0.45, 'rescaleHeight': False, 'trialN': 62, 'loaded': True, 'loadedTime': 2669.2999999988824, 'positionName': 'RIGHT', 'positionCoords': [873.6, 319.5], 'bid': 9.47}]",122454.29999999888,1669844835599,burger,rigatoni and sauce,6.45,9.47,3.0200000000000005,rigatoni and sauce,772.4000000003725,774,774.2000000011176,True,i,123733.89999999851,1279.5999999996275,1669844836879,1280,HRV,HRV_0312,2022-11-30 21:50:57
63,"[{'imgObject': {}, 'id': 'kiwi', 'src': '/static/foodstim60/kiwi.jpg', 'key': 'u', 'origWidth': 410, 'origHeight': 410, 'width': 410, 'height': 410, 'widthPercent': 0.45, 'rescaleHeight': False, 'trialN': 63, 'loaded': True, 'loadedTime': 2430.89999999851, 'positionName': 'LEFT', 'positionCoords': [396.4, 320], 'bid': 8.98}, {'imgObject': {}, 'id': 'lox', 'src': '/static/foodstim60/lox.jpg', 'key': 'i', 'origWidth': 410, 'origHeight': 411, 'width': 410, 'height': 411, 'widthPercent': 0.45, 'rescaleHeight': False, 'trialN': 63, 'loaded': True, 'loadedTime': 3232, 'positionName': 'RIGHT', 'positionCoords': [873.6, 319.5], 'bid': 9.69}]",123734.0,1669844836879,kiwi,lox,8.98,9.69,0.7099999999999991,kiwi,1212.699999999255,1215,1214.7999999988824,True,u,125454.0,1720.0,1669844838599,1720,HRV,HRV_0312,2022-11-30 21:50:57
64,"[{'imgObject': {}, 'id': 'burrito', 'src': '/static/foodstim60/burrito.jpg', 'key': 'u', 'origWidth': 410, 'origHeight': 410, 'width': 410, 'height': 410, 'widthPercent': 0.45, 'rescaleHeight': False, 'trialN': 64, 'loaded': True, 'loadedTime': 2896.5, 'positionName': 'LEFT', 'positionCoords': [396.4, 320], 'bid': 9.7}, {'imgObject': {}, 'id': 'raisin bran w milk', 'src': '/static/foodstim60/raisin bran w milk.jpg', 'key': 'i', 'origWidth': 411, 'origHeight': 411, 'width': 411, 'height': 411, 'widthPercent': 0.45, 'rescaleHeight': False, 'trialN': 64, 'loaded': True, 'loadedTime': 3277.0999999996275, 'positionName': 'RIGHT', 'positionCoords': [873.6, 319.5], 'bid': 7.79}]",125454.09999999963,1669844838599,burrito,raisin bran w milk,9.7,7.79,-1.9099999999999993,burrito,1156.5999999996275,1158,1157.7999999988824,True,u,127118.0,1663.9000000003725,1669844840263,1664,HRV,HRV_0312,2022-11-30 21:50:57
65,"[{'imgObject': {}, 'id': 'cherries', 'src': '/static/foodstim60/cherries.jpg', 'key': 'u', 'origWidth': 410, 'origHeight': 411, 'width': 410, 'height': 411, 'widthPercent': 0.45, 'rescaleHeight': False, 'trialN': 65, 'loaded': True, 'loadedTime': 3066.2999999988824, 'positionName': 'LEFT', 'positionCoords': [396.4, 319.5], 'bid': 9.48}, {'imgObject': {}, 'id': 'cocktailshrimp', 'src': '/static/foodstim60/cocktailshrimp.jpg', 'key': 'i', 'origWidth': 410, 'origHeight': 410, 'width': 410, 'height': 410, 'widthPercent': 0.45, 'rescaleHeight': False, 'trialN': 65, 'loaded': True, 'loadedTime': 3318.0999999996275, 'positionName': 'RIGHT', 'positionCoords': [873.6, 320], 'bid': 9.55}]",127118.19999999925,1669844840263,cherries,cocktailshrimp,9.48,9.55,0.07000000000000028,cherries,1643.5,1646,1645.5999999996275,True,u,129270.0,2151.800000000745,1669844842415,2152,HRV,HRV_0312,2022-11-30 21:50:57
66,"[{'imgObject': {}, 'id': 'popsicles', 'src': '/static/foodstim60/popsicles.jpg', 'key': 'u', 'origWidth': 410, 'origHeight': 410, 'width': 410, 'height': 410, 'widthPercent': 0.45, 'rescaleHeight': False, 'trialN': 66, 'loaded': True, 'loadedTime': 2653.39999999851, 'positionName': 'LEFT', 'positionCoords': [396.4, 320], 'bid': 7.140000000000001}, {'imgObject': {}, 'id': 'corn cob', 'src': '/static/foodstim60/corn cob.jpg', 'key': 'i', 'origWidth': 411, 'origHeight': 411, 'width': 411, 'height': 411, 'widthPercent': 0.45, 'rescaleHeight': False, 'trialN': 66, 'loaded': True, 'loadedTime': 2897.5, 'positionName': 'RIGHT', 'positionCoords': [873.6, 319.5], 'bid': 7.98}]",129270.19999999925,1669844842415,popsicles,corn cob,7.140000000000001,7.98,0.8399999999999999,corn cob,963.5,966,965.5999999996275,True,i,130741.79999999888,1471.5999999996275,1669844843887,1472,HRV,HRV_0312,2022-11-30 21:50:57
67,"[{'imgObject': {}, 'id': 'luckycharms', 'src': '/static/foodstim60/luckycharms.jpg', 'key': 'u', 'origWidth': 410, 'origHeight': 409, 'width': 410, 'height': 409, 'widthPercent': 0.45, 'rescaleHeight': False, 'trialN': 67, 'loaded': True, 'loadedTime': 3407.0999999996275, 'positionName': 'LEFT', 'positionCoords': [396.4, 320.5], 'bid': 6.01}, {'imgObject': {}, 'id': 'burger', 'src': '/static/foodstim60/burger.jpg', 'key': 'i', 'origWidth': 409, 'origHeight': 409, 'width': 409, 'height': 409, 'widthPercent': 0.45, 'rescaleHeight': False, 'trialN': 67, 'loaded': True, 'loadedTime': 3275, 'positionName': 'RIGHT', 'positionCoords': [873.6, 320.5], 'bid': 6.45}]",130742.09999999963,1669844843887,luckycharms,burger,6.01,6.45,0.4400000000000004,burger,2275.5999999996275,2278,2277.9000000003725,True,i,133525.8999999985,2783.7999999988824,1669844846671,2784,HRV,HRV_0312,2022-11-30 21:50:57
68,"[{'imgObject': {}, 'id': 'luckycharms', 'src': '/static/foodstim60/luckycharms.jpg', 'key': 'u', 'origWidth': 410, 'origHeight': 409, 'width': 410, 'height': 409, 'widthPercent': 0.45, 'rescaleHeight': False, 'trialN': 68, 'loaded': True, 'loadedTime': 3407.39999999851, 'positionName': 'LEFT', 'positionCoords': [396.4, 320.5], 'bid': 6.01}, {'imgObject': {}, 'id': 'turkeysandwich', 'src': '/static/foodstim60/turkeysandwich.jpg', 'key': 'i', 'origWidth': 409, 'origHeight': 409, 'width': 409, 'height': 409, 'widthPercent': 0.45, 'rescaleHeight': False, 'trialN': 68, 'loaded': True, 'loadedTime': 2450.39999999851, 'positionName': 'RIGHT', 'positionCoords': [873.6, 320.5], 'bid': 6.23}]",133526.0,1669844846671,luckycharms,turkeysandwich,6.01,6.23,0.22000000000000064,luckycharms,2667.699999999255,2670,2670.199999999255,True,u,136702.0,3176.0,1669844849847,3176,HRV,HRV_0312,2022-11-30 21:50:57
69,"[{'imgObject': {}, 'id': 'omelette', 'src': '/static/foodstim60/omelette.jpg', 'key': 'u', 'origWidth': 410, 'origHeight': 409, 'width': 410, 'height': 409, 'widthPercent': 0.45, 'rescaleHeight': False, 'trialN': 69, 'loaded': True, 'loadedTime': 3149.5999999996275, 'positionName': 'LEFT', 'positionCoords': [396.4, 320.5], 'bid': 9.11}, {'imgObject': {}, 'id': 'cherry tomato', 'src': '/static/foodstim60/cherry tomato.jpg', 'key': 'i', 'origWidth': 410, 'origHeight': 410, 'width': 410, 'height': 410, 'widthPercent': 0.45, 'rescaleHeight': False, 'trialN': 69, 'loaded': True, 'loadedTime': 2903.89999999851, 'positionName': 'RIGHT', 'positionCoords': [873.6, 320], 'bid': 6.32}]",136702.0,1669844849847,omelette,cherry tomato,9.11,6.32,-2.789999999999999,omelette,1003.6999999992549,1006,1005.8999999985099,True,u,138213.8999999985,1511.8999999985099,1669844851359,1512,HRV,HRV_0312,2022-11-30 21:50:57
70,"[{'imgObject': {}, 'id': 'salmon', 'src': '/static/foodstim60/salmon.jpg', 'key': 'u', 'origWidth': 410, 'origHeight': 409, 'width': 410, 'height': 409, 'widthPercent': 0.45, 'rescaleHeight': False, 'trialN': 70, 'loaded': True, 'loadedTime': 3189.5999999996275, 'positionName': 'LEFT', 'positionCoords': [396.4, 320.5], 'bid': 9.77}, {'imgObject': {}, 'id': 'eggs', 'src': '/static/foodstim60/eggs.jpg', 'key': 'i', 'origWidth': 409, 'origHeight': 409, 'width': 409, 'height': 409, 'widthPercent': 0.45, 'rescaleHeight': False, 'trialN': 70, 'loaded': True, 'loadedTime': 2928.89999999851, 'positionName': 'RIGHT', 'positionCoords': [873.6, 320.5], 'bid': 8.09}]",138214.09999999963,1669844851359,salmon,eggs,9.77,8.09,-1.6799999999999997,salmon,803.5999999996275,806,805.6999999992549,True,u,139525.8999999985,1311.7999999988824,1669844852671,1312,HRV,HRV_0312,2022-11-30 21:50:57
71,"[{'imgObject': {}, 'id': 'turkey sandwich', 'src': '/static/foodstim60/turkey sandwich.jpg', 'key': 'u', 'origWidth': 409, 'origHeight': 409, 'width': 409, 'height': 409, 'widthPercent': 0.45, 'rescaleHeight': False, 'trialN': 71, 'loaded': True, 'loadedTime': 3233.699999999255, 'positionName': 'LEFT', 'positionCoords': [397.4, 320.5], 'bid': 6.34}, {'imgObject': {}, 'id': 'grilled chicken strips', 'src': '/static/foodstim60/grilled chicken strips.jpg', 'key': 'i', 'origWidth': 410, 'origHeight': 411, 'width': 410, 'height': 411, 'widthPercent': 0.45, 'rescaleHeight': False, 'trialN': 71, 'loaded': True, 'loadedTime': 2975.39999999851, 'positionName': 'RIGHT', 'positionCoords': [873.6, 319.5], 'bid': 6.3500000000000005}]",139526.0,1669844852671,turkey sandwich,grilled chicken strips,6.34,6.3500000000000005,0.010000000000000675,grilled chicken strips,1803.699999999255,1806,1805.699999999255,True,i,141838.0,2312.0,1669844854983,2312,HRV,HRV_0312,2022-11-30 21:50:57
72,"[{'imgObject': {}, 'id': 'bagel plain', 'src': '/static/foodstim60/bagel plain.jpg', 'key': 'u', 'origWidth': 410, 'origHeight': 410, 'width': 410, 'height': 410, 'widthPercent': 0.45, 'rescaleHeight': False, 'trialN': 72, 'loaded': True, 'loadedTime': 3277.199999999255, 'positionName': 'LEFT', 'positionCoords': [396.4, 320], 'bid': 8.39}, {'imgObject': {}, 'id': 'olives', 'src': '/static/foodstim60/olives.jpg', 'key': 'i', 'origWidth': 410, 'origHeight': 410, 'width': 410, 'height': 410, 'widthPercent': 0.45, 'rescaleHeight': False, 'trialN': 72, 'loaded': True, 'loadedTime': 2462.7999999988824, 'positionName': 'RIGHT', 'positionCoords': [873.6, 320], 'bid': 8.35}]",141838.09999999963,1669844854983,bagel plain,olives,8.39,8.35,-0.040000000000000924,bagel plain,1355.5999999996275,1358,1357.5999999996275,True,u,143702.0,1863.9000000003725,1669844856847,1864,HRV,HRV_0312,2022-11-30 21:50:57
73,"[{'imgObject': {}, 'id': 'banana', 'src': '/static/foodstim60/banana.jpg', 'key': 'u', 'origWidth': 410, 'origHeight': 410, 'width': 410, 'height': 410, 'widthPercent': 0.45, 'rescaleHeight': False, 'trialN': 73, 'loaded': True, 'loadedTime': 2931.199999999255, 'positionName': 'LEFT', 'positionCoords': [396.4, 320], 'bid': 6.48}, {'imgObject': {}, 'id': 'cocktailshrimp', 'src': '/static/foodstim60/cocktailshrimp.jpg', 'key': 'i', 'origWidth': 410, 'origHeight': 410, 'width': 410, 'height': 410, 'widthPercent': 0.45, 'rescaleHeight': False, 'trialN': 73, 'loaded': True, 'loadedTime': 3316.7999999988824, 'positionName': 'RIGHT', 'positionCoords': [873.6, 320], 'bid': 9.55}]",143702.19999999925,1669844856847,banana,cocktailshrimp,6.48,9.55,3.0700000000000003,cocktailshrimp,779.5,782,781.5,True,i,144989.79999999888,1287.5999999996275,1669844858135,1288,HRV,HRV_0312,2022-11-30 21:50:57
74,"[{'imgObject': {}, 'id': 'salmon', 'src': '/static/foodstim60/salmon.jpg', 'key': 'u', 'origWidth': 410, 'origHeight': 409, 'width': 410, 'height': 409, 'widthPercent': 0.45, 'rescaleHeight': False, 'trialN': 74, 'loaded': True, 'loadedTime': 3189.699999999255, 'positionName': 'LEFT', 'positionCoords': [396.4, 320.5], 'bid': 9.77}, {'imgObject': {}, 'id': 'raspberries', 'src': '/static/foodstim60/raspberries.jpg', 'key': 'i', 'origWidth': 411, 'origHeight': 411, 'width': 411, 'height': 411, 'widthPercent': 0.45, 'rescaleHeight': False, 'trialN': 74, 'loaded': True, 'loadedTime': 2911.0999999996275, 'positionName': 'RIGHT', 'positionCoords': [873.6, 319.5], 'bid': 9.46}]",144990.0,1669844858135,salmon,raspberries,9.77,9.46,-0.3099999999999987,salmon,747.6999999992549,749,749.5999999996275,True,u,146246.0,1256.0,1669844859391,1256,HRV,HRV_0312,2022-11-30 21:50:57
75,"[{'imgObject': {}, 'id': 'blueberries', 'src': '/static/foodstim60/blueberries.jpg', 'key': 'u', 'origWidth': 411, 'origHeight': 411, 'width': 411, 'height': 411, 'widthPercent': 0.45, 'rescaleHeight': False, 'trialN': 75, 'loaded': True, 'loadedTime': 3401.89999999851, 'positionName': 'LEFT', 'positionCoords': [395.4, 319.5], 'bid': 9.69}, {'imgObject': {}, 'id': 'sweetpotato', 'src': '/static/foodstim60/sweetpotato.jpg', 'key': 'i', 'origWidth': 410, 'origHeight': 410, 'width': 410, 'height': 410, 'widthPercent': 0.45, 'rescaleHeight': False, 'trialN': 75, 'loaded': True, 'loadedTime': 2397, 'positionName': 'RIGHT', 'positionCoords': [873.6, 320], 'bid': 9.08}]",146246.19999999925,1669844859391,blueberries,sweetpotato,9.69,9.08,-0.6099999999999994,blueberries,1107.5,1110,1109.800000000745,True,u,147862.0,1615.800000000745,1669844861007,1616,HRV,HRV_0312,2022-11-30 21:50:57
76,"[{'imgObject': {}, 'id': 'shreddedwheatwithmilk', 'src': '/static/foodstim60/shreddedwheatwithmilk.jpg', 'key': 'u', 'origWidth': 410, 'origHeight': 410, 'width': 410, 'height': 410, 'widthPercent': 0.45, 'rescaleHeight': False, 'trialN': 76, 'loaded': True, 'loadedTime': 3359.39999999851, 'positionName': 'LEFT', 'positionCoords': [396.4, 320], 'bid': 9.65}, {'imgObject': {}, 'id': 'roastedpotatoes', 'src': '/static/foodstim60/roastedpotatoes.jpg', 'key': 'i', 'origWidth': 409, 'origHeight': 410, 'width': 409, 'height': 410, 'widthPercent': 0.45, 'rescaleHeight': False, 'trialN': 76, 'loaded': True, 'loadedTime': 2918.199999999255, 'positionName': 'RIGHT', 'positionCoords': [873.6, 320], 'bid': 9.78}]",147862.09999999963,1669844861007,shreddedwheatwithmilk,roastedpotatoes,9.65,9.78,0.129999999999999,roastedpotatoes,867.5999999996275,869,869.1999999992549,True,i,149238.0,1375.9000000003725,1669844862383,1376,HRV,HRV_0312,2022-11-30 21:50:57
77,"[{'imgObject': {}, 'id': 'avocado', 'src': '/static/foodstim60/avocado.jpg', 'key': 'u', 'origWidth': 409, 'origHeight': 409, 'width': 409, 'height': 409, 'widthPercent': 0.45, 'rescaleHeight': False, 'trialN': 77, 'loaded': True, 'loadedTime': 2480.699999999255, 'positionName': 'LEFT', 'positionCoords': [397.4, 320.5], 'bid': 9.63}, {'imgObject': {}, 'id': 'veggieswithdip', 'src': '/static/foodstim60/veggieswithdip.jpg', 'key': 'i', 'origWidth': 409, 'origHeight': 409, 'width': 409, 'height': 409, 'widthPercent': 0.45, 'rescaleHeight': False, 'trialN': 77, 'loaded': True, 'loadedTime': 2924.5, 'positionName': 'RIGHT', 'positionCoords': [873.6, 320.5], 'bid': 8.65}]",149238.09999999963,1669844862383,avocado,veggieswithdip,9.63,8.65,-0.9800000000000004,avocado,1211.5999999996275,1214,1213.699999999255,True,u,150958.0,1719.9000000003725,1669844864103,1720,HRV,HRV_0312,2022-11-30 21:50:57
78,"[{'imgObject': {}, 'id': 'Tribe humus pita', 'src': '/static/foodstim60/Tribe humus pita.jpg', 'key': 'u', 'origWidth': 411, 'origHeight': 411, 'width': 411, 'height': 411, 'widthPercent': 0.45, 'rescaleHeight': False, 'trialN': 78, 'loaded': True, 'loadedTime': 3402.0999999996275, 'positionName': 'LEFT', 'positionCoords': [395.4, 319.5], 'bid': 9.71}, {'imgObject': {}, 'id': 'seaweed', 'src': '/static/foodstim60/seaweed.jpg', 'key': 'i', 'origWidth': 410, 'origHeight': 410, 'width': 410, 'height': 410, 'widthPercent': 0.45, 'rescaleHeight': False, 'trialN': 78, 'loaded': True, 'loadedTime': 3409.199999999255, 'positionName': 'RIGHT', 'positionCoords': [873.6, 320], 'bid': 9.73}]",150958.09999999963,1669844864103,Tribe humus pita,seaweed,9.71,9.73,0.019999999999999574,Tribe humus pita,2051.5999999996275,2053,2053.4000000003725,True,u,153518.0,2559.9000000003725,1669844866663,2560,HRV,HRV_0312,2022-11-30 21:50:57
79,"[{'imgObject': {}, 'id': 'fruitsalad', 'src': '/static/foodstim60/fruitsalad.jpg', 'key': 'u', 'origWidth': 410, 'origHeight': 410, 'width': 410, 'height': 410, 'widthPercent': 0.45, 'rescaleHeight': False, 'trialN': 79, 'loaded': True, 'loadedTime': 2663, 'positionName': 'LEFT', 'positionCoords': [396.4, 320], 'bid': 9.78}, {'imgObject': {}, 'id': 'seaweed', 'src': '/static/foodstim60/seaweed.jpg', 'key': 'i', 'origWidth': 410, 'origHeight': 410, 'width': 410, 'height': 410, 'widthPercent': 0.45, 'rescaleHeight': False, 'trialN': 79, 'loaded': True, 'loadedTime': 3407.5, 'positionName': 'RIGHT', 'positionCoords': [873.6, 320], 'bid': 9.73}]",153518.19999999925,1669844866663,fruitsalad,seaweed,9.78,9.73,-0.049999999999998934,seaweed,771.5,777,777.4000000003725,True,i,154798.09999999963,1279.9000000003725,1669844867943,1280,HRV,HRV_0312,2022-11-30 21:50:57
80,"[{'imgObject': {}, 'id': 'corn cob', 'src': '/static/foodstim60/corn cob.jpg', 'key': 'u', 'origWidth': 411, 'origHeight': 411, 'width': 411, 'height': 411, 'widthPercent': 0.45, 'rescaleHeight': False, 'trialN': 80, 'loaded': True, 'loadedTime': 2898.5, 'positionName': 'LEFT', 'positionCoords': [395.4, 319.5], 'bid': 7.98}, {'imgObject': {}, 'id': 'rigatoni', 'src': '/static/foodstim60/rigatoni.jpg', 'key': 'i', 'origWidth': 411, 'origHeight': 411, 'width': 411, 'height': 411, 'widthPercent': 0.45, 'rescaleHeight': False, 'trialN': 80, 'loaded': True, 'loadedTime': 2452.39999999851, 'positionName': 'RIGHT', 'positionCoords': [873.6, 319.5], 'bid': 7.52}]",154798.19999999925,1669844867943,corn cob,rigatoni,7.98,7.52,-0.46000000000000085,corn cob,1179.5,1181,1181.0999999996275,True,u,156485.8999999985,1687.699999999255,1669844869631,1688,HRV,HRV_0312,2022-11-30 21:50:57
81,"[{'imgObject': {}, 'id': 'blackbeanswithrice', 'src': '/static/foodstim60/blackbeanswithrice.jpg', 'key': 'u', 'origWidth': 410, 'origHeight': 410, 'width': 410, 'height': 410, 'widthPercent': 0.45, 'rescaleHeight': False, 'trialN': 81, 'loaded': True, 'loadedTime': 3107.5, 'positionName': 'LEFT', 'positionCoords': [396.4, 320], 'bid': 9.09}, {'imgObject': {}, 'id': 'cherries', 'src': '/static/foodstim60/cherries.jpg', 'key': 'i', 'origWidth': 410, 'origHeight': 411, 'width': 410, 'height': 411, 'widthPercent': 0.45, 'rescaleHeight': False, 'trialN': 81, 'loaded': True, 'loadedTime': 3065.39999999851, 'positionName': 'RIGHT', 'positionCoords': [873.6, 319.5], 'bid': 9.48}]",156486.0,1669844869631,blackbeanswithrice,cherries,9.09,9.48,0.39000000000000057,blackbeanswithrice,1963.699999999255,1965,1965.3999999985099,True,u,158958.0,2472.0,1669844872103,2472,HRV,HRV_0312,2022-11-30 21:50:57
82,"[{'imgObject': {}, 'id': 'pear', 'src': '/static/foodstim60/pear.jpg', 'key': 'u', 'origWidth': 411, 'origHeight': 410, 'width': 411, 'height': 410, 'widthPercent': 0.45, 'rescaleHeight': False, 'trialN': 82, 'loaded': True, 'loadedTime': 3405.0999999996275, 'positionName': 'LEFT', 'positionCoords': [395.4, 320], 'bid': 8.53}, {'imgObject': {}, 'id': 'mac & cheese', 'src': '/static/foodstim60/mac & cheese.jpg', 'key': 'i', 'origWidth': 410, 'origHeight': 410, 'width': 410, 'height': 410, 'widthPercent': 0.45, 'rescaleHeight': False, 'trialN': 82, 'loaded': True, 'loadedTime': 3368, 'positionName': 'RIGHT', 'positionCoords': [873.6, 320], 'bid': 9.82}]",158958.09999999963,1669844872103,pear,mac & cheese,8.53,9.82,1.290000000000001,mac & cheese,851.5999999996275,853,853.0999999996275,True,i,160318.09999999963,1360.0,1669844873463,1360,HRV,HRV_0312,2022-11-30 21:50:57
83,"[{'imgObject': {}, 'id': 'yogurt no spoon', 'src': '/static/foodstim60/yogurt no spoon.jpg', 'key': 'u', 'origWidth': 411, 'origHeight': 410, 'width': 411, 'height': 410, 'widthPercent': 0.45, 'rescaleHeight': False, 'trialN': 83, 'loaded': True, 'loadedTime': 3106.89999999851, 'positionName': 'LEFT', 'positionCoords': [395.4, 320], 'bid': 9.47}, {'imgObject': {}, 'id': 'mashed potato', 'src': '/static/foodstim60/mashed potato.jpg', 'key': 'i', 'origWidth': 409, 'origHeight': 409, 'width': 409, 'height': 409, 'widthPercent': 0.45, 'rescaleHeight': False, 'trialN': 83, 'loaded': True, 'loadedTime': 2553.199999999255, 'positionName': 'RIGHT', 'positionCoords': [873.6, 320.5], 'bid': 9.67}]",160318.19999999925,1669844873463,yogurt no spoon,mashed potato,9.47,9.67,0.1999999999999993,mashed potato,1235.5,1237,1236.5999999996275,True,i,162061.8999999985,1743.699999999255,1669844875207,1744,HRV,HRV_0312,2022-11-30 21:50:57
84,"[{'imgObject': {}, 'id': 'mango', 'src': '/static/foodstim60/mango.jpg', 'key': 'u', 'origWidth': 411, 'origHeight': 411, 'width': 411, 'height': 411, 'widthPercent': 0.45, 'rescaleHeight': False, 'trialN': 84, 'loaded': True, 'loadedTime': 2412.5999999996275, 'positionName': 'LEFT', 'positionCoords': [395.4, 319.5], 'bid': 8.53}, {'imgObject': {}, 'id': 'pear', 'src': '/static/foodstim60/pear.jpg', 'key': 'i', 'origWidth': 411, 'origHeight': 410, 'width': 411, 'height': 410, 'widthPercent': 0.45, 'rescaleHeight': False, 'trialN': 84, 'loaded': True, 'loadedTime': 3403.89999999851, 'positionName': 'RIGHT', 'positionCoords': [873.6, 320], 'bid': 8.53}]",162062.0,1669844875207,mango,pear,8.53,8.53,0.0,mango,1339.699999999255,1341,1341.199999999255,True,u,163910.0,1848.0,1669844877055,1848,HRV,HRV_0312,2022-11-30 21:50:57
85,"[{'imgObject': {}, 'id': 'shreddedwheatwithmilk', 'src': '/static/foodstim60/shreddedwheatwithmilk.jpg', 'key': 'u', 'origWidth': 410, 'origHeight': 410, 'width': 410, 'height': 410, 'widthPercent': 0.45, 'rescaleHeight': False, 'trialN': 85, 'loaded': True, 'loadedTime': 3359.5999999996275, 'positionName': 'LEFT', 'positionCoords': [396.4, 320], 'bid': 9.65}, {'imgObject': {}, 'id': 'popsicles', 'src': '/static/foodstim60/popsicles.jpg', 'key': 'i', 'origWidth': 410, 'origHeight': 410, 'width': 410, 'height': 410, 'widthPercent': 0.45, 'rescaleHeight': False, 'trialN': 85, 'loaded': True, 'loadedTime': 2654.39999999851, 'positionName': 'RIGHT', 'positionCoords': [873.6, 320], 'bid': 7.140000000000001}]",163910.19999999925,1669844877055,shreddedwheatwithmilk,popsicles,9.65,7.140000000000001,-2.51,shreddedwheatwithmilk,1299.5,1301,1301.0999999996275,True,u,165718.0,1807.800000000745,1669844878863,1808,HRV,HRV_0312,2022-11-30 21:50:57
86,"[{'imgObject': {}, 'id': 'lox', 'src': '/static/foodstim60/lox.jpg', 'key': 'u', 'origWidth': 410, 'origHeight': 411, 'width': 410, 'height': 411, 'widthPercent': 0.45, 'rescaleHeight': False, 'trialN': 86, 'loaded': True, 'loadedTime': 3191.199999999255, 'positionName': 'LEFT', 'positionCoords': [396.4, 319.5], 'bid': 9.69}, {'imgObject': {}, 'id': 'salad w chicken', 'src': '/static/foodstim60/salad w chicken.jpg', 'key': 'i', 'origWidth': 411, 'origHeight': 411, 'width': 411, 'height': 411, 'widthPercent': 0.45, 'rescaleHeight': False, 'trialN': 86, 'loaded': True, 'loadedTime': 3316.5999999996275, 'positionName': 'RIGHT', 'positionCoords': [873.6, 319.5], 'bid': 7.32}]",165718.19999999925,1669844878863,lox,salad w chicken,9.69,7.32,-2.369999999999999,lox,1867.5,1869,1868.5999999996275,True,u,168094.0,2375.800000000745,1669844881239,2376,HRV,HRV_0312,2022-11-30 21:50:57
87,"[{'imgObject': {}, 'id': 'ice cream sundae 002', 'src': '/static/foodstim60/ice cream sundae 002.jpg', 'key': 'u', 'origWidth': 409, 'origHeight': 409, 'width': 409, 'height': 409, 'widthPercent': 0.45, 'rescaleHeight': False, 'trialN': 87, 'loaded': True, 'loadedTime': 2839.5999999996275, 'positionName': 'LEFT', 'positionCoords': [397.4, 320.5], 'bid': 8.78}, {'imgObject': {}, 'id': 'shreddedwheatwithmilk', 'src': '/static/foodstim60/shreddedwheatwithmilk.jpg', 'key': 'i', 'origWidth': 410, 'origHeight': 410, 'width': 410, 'height': 410, 'widthPercent': 0.45, 'rescaleHeight': False, 'trialN': 87, 'loaded': True, 'loadedTime': 3359.5, 'positionName': 'RIGHT', 'positionCoords': [873.6, 320], 'bid': 9.65}]",168094.09999999963,1669844881239,ice cream sundae 002,shreddedwheatwithmilk,8.78,9.65,0.870000000000001,ice cream sundae 002,1347.5999999996275,1349,1349.2999999988824,True,u,169950.0,1855.9000000003725,1669844883095,1856,HRV,HRV_0312,2022-11-30 21:50:57
88,"[{'imgObject': {}, 'id': 'kiwi', 'src': '/static/foodstim60/kiwi.jpg', 'key': 'u', 'origWidth': 410, 'origHeight': 410, 'width': 410, 'height': 410, 'widthPercent': 0.45, 'rescaleHeight': False, 'trialN': 88, 'loaded': True, 'loadedTime': 2426.2999999988824, 'positionName': 'LEFT', 'positionCoords': [396.4, 320], 'bid': 8.98}, {'imgObject': {}, 'id': 'bagel plain', 'src': '/static/foodstim60/bagel plain.jpg', 'key': 'i', 'origWidth': 410, 'origHeight': 410, 'width': 410, 'height': 410, 'widthPercent': 0.45, 'rescaleHeight': False, 'trialN': 88, 'loaded': True, 'loadedTime': 3278.199999999255, 'positionName': 'RIGHT', 'positionCoords': [873.6, 320], 'bid': 8.39}]",169950.09999999963,1669844883095,kiwi,bagel plain,8.98,8.39,-0.5899999999999999,kiwi,1771.5999999996275,1773,1772.7999999988824,True,u,172230.0,2279.9000000003725,1669844885375,2280,HRV,HRV_0312,2022-11-30 21:50:57
89,"[{'imgObject': {}, 'id': 'strawberries', 'src': '/static/foodstim60/strawberries.jpg', 'key': 'u', 'origWidth': 410, 'origHeight': 410, 'width': 410, 'height': 410, 'widthPercent': 0.45, 'rescaleHeight': False, 'trialN': 89, 'loaded': True, 'loadedTime': 2743, 'positionName': 'LEFT', 'positionCoords': [396.4, 320], 'bid': 8.01}, {'imgObject': {}, 'id': 'turkey sandwich', 'src': '/static/foodstim60/turkey sandwich.jpg', 'key': 'i', 'origWidth': 409, 'origHeight': 409, 'width': 409, 'height': 409, 'widthPercent': 0.45, 'rescaleHeight': False, 'trialN': 89, 'loaded': True, 'loadedTime': 3233.5999999996275, 'positionName': 'RIGHT', 'positionCoords': [873.6, 320.5], 'bid': 6.34}]",172230.19999999925,1669844885375,strawberries,turkey sandwich,8.01,6.34,-1.67,strawberries,1394.5,1396,1396.300000000745,True,u,174133.8999999985,1903.699999999255,1669844887279,1904,HRV,HRV_0312,2022-11-30 21:50:57
90,"[{'imgObject': {}, 'id': 'seaweed', 'src': '/static/foodstim60/seaweed.jpg', 'key': 'u', 'origWidth': 410, 'origHeight': 410, 'width': 410, 'height': 410, 'widthPercent': 0.45, 'rescaleHeight': False, 'trialN': 90, 'loaded': True, 'loadedTime': 3409.39999999851, 'positionName': 'LEFT', 'positionCoords': [396.4, 320], 'bid': 9.73}, {'imgObject': {}, 'id': 'baked potato', 'src': '/static/foodstim60/baked potato.jpg', 'key': 'i', 'origWidth': 409, 'origHeight': 410, 'width': 409, 'height': 410, 'widthPercent': 0.45, 'rescaleHeight': False, 'trialN': 90, 'loaded': True, 'loadedTime': 2916.39999999851, 'positionName': 'RIGHT', 'positionCoords': [873.6, 320], 'bid': 9.34}]",177014.19999999925,1669844890159,seaweed,baked potato,9.73,9.34,-0.39000000000000057,seaweed,2082.5,2085,2084.5,True,u,179606.0,2591.800000000745,1669844892751,2592,HRV,HRV_0312,2022-11-30 21:50:57
91,"[{'imgObject': {}, 'id': 'cherry tomato', 'src': '/static/foodstim60/cherry tomato.jpg', 'key': 'u', 'origWidth': 410, 'origHeight': 410, 'width': 410, 'height': 410, 'widthPercent': 0.45, 'rescaleHeight': False, 'trialN': 91, 'loaded': True, 'loadedTime': 2902.7999999988824, 'positionName': 'LEFT', 'positionCoords': [396.4, 320], 'bid': 6.32}, {'imgObject': {}, 'id': 'eggsalad', 'src': '/static/foodstim60/eggsalad.jpg', 'key': 'i', 'origWidth': 410, 'origHeight': 409, 'width': 410, 'height': 409, 'widthPercent': 0.45, 'rescaleHeight': False, 'trialN': 91, 'loaded': True, 'loadedTime': 3022.5, 'positionName': 'RIGHT', 'positionCoords': [873.6, 320.5], 'bid': 5}]",179606.19999999925,1669844892751,cherry tomato,eggsalad,6.32,5.0,-1.3200000000000003,cherry tomato,1314.5,1317,1317.0,True,u,181430.0,1823.800000000745,1669844894575,1824,HRV,HRV_0312,2022-11-30 21:50:57
92,"[{'imgObject': {}, 'id': 'fruitsalad', 'src': '/static/foodstim60/fruitsalad.jpg', 'key': 'u', 'origWidth': 410, 'origHeight': 410, 'width': 410, 'height': 410, 'widthPercent': 0.45, 'rescaleHeight': False, 'trialN': 92, 'loaded': True, 'loadedTime': 2667.5999999996275, 'positionName': 'LEFT', 'positionCoords': [396.4, 320], 'bid': 9.78}, {'imgObject': {}, 'id': 'cantaloupe', 'src': '/static/foodstim60/cantaloupe.jpg', 'key': 'i', 'origWidth': 409, 'origHeight': 409, 'width': 409, 'height': 409, 'widthPercent': 0.45, 'rescaleHeight': False, 'trialN': 92, 'loaded': True, 'loadedTime': 2743.89999999851, 'positionName': 'RIGHT', 'positionCoords': [873.6, 320.5], 'bid': 8.34}]",181430.09999999963,1669844894575,fruitsalad,cantaloupe,9.78,8.34,-1.4399999999999995,fruitsalad,1114.5999999996275,1116,1116.199999999255,True,u,183054.0,1623.9000000003725,1669844896199,1624,HRV,HRV_0312,2022-11-30 21:50:57
93,"[{'imgObject': {}, 'id': 'veggieswithdip', 'src': '/static/foodstim60/veggieswithdip.jpg', 'key': 'u', 'origWidth': 409, 'origHeight': 409, 'width': 409, 'height': 409, 'widthPercent': 0.45, 'rescaleHeight': False, 'trialN': 93, 'loaded': True, 'loadedTime': 2925.699999999255, 'positionName': 'LEFT', 'positionCoords': [397.4, 320.5], 'bid': 8.65}, {'imgObject': {}, 'id': 'rigatoni', 'src': '/static/foodstim60/rigatoni.jpg', 'key': 'i', 'origWidth': 411, 'origHeight': 411, 'width': 411, 'height': 411, 'widthPercent': 0.45, 'rescaleHeight': False, 'trialN': 93, 'loaded': True, 'loadedTime': 2454.89999999851, 'positionName': 'RIGHT', 'positionCoords': [873.6, 319.5], 'bid': 7.52}]",183054.09999999963,1669844896199,veggieswithdip,rigatoni,8.65,7.52,-1.1300000000000008,veggieswithdip,1154.5999999996275,1156,1156.4000000003725,True,u,184717.8999999985,1663.7999999988824,1669844897863,1664,HRV,HRV_0312,2022-11-30 21:50:57
94,"[{'imgObject': {}, 'id': 'hashbrowns', 'src': '/static/foodstim60/hashbrowns.jpg', 'key': 'u', 'origWidth': 411, 'origHeight': 410, 'width': 411, 'height': 410, 'widthPercent': 0.45, 'rescaleHeight': False, 'trialN': 94, 'loaded': True, 'loadedTime': 3319.89999999851, 'positionName': 'LEFT', 'positionCoords': [395.4, 320], 'bid': 4.96}, {'imgObject': {}, 'id': 'eggsalad', 'src': '/static/foodstim60/eggsalad.jpg', 'key': 'i', 'origWidth': 410, 'origHeight': 409, 'width': 410, 'height': 409, 'widthPercent': 0.45, 'rescaleHeight': False, 'trialN': 94, 'loaded': True, 'loadedTime': 3020.5999999996275, 'positionName': 'RIGHT', 'positionCoords': [873.6, 320.5], 'bid': 5}]",184718.09999999963,1669844897863,hashbrowns,eggsalad,4.96,5.0,0.040000000000000036,eggsalad,1410.5999999996275,1412,1412.4000000003725,True,i,186638.0,1919.9000000003725,1669844899783,1920,HRV,HRV_0312,2022-11-30 21:50:57
95,"[{'imgObject': {}, 'id': 'ice cream sundae 002', 'src': '/static/foodstim60/ice cream sundae 002.jpg', 'key': 'u', 'origWidth': 409, 'origHeight': 409, 'width': 409, 'height': 409, 'widthPercent': 0.45, 'rescaleHeight': False, 'trialN': 95, 'loaded': True, 'loadedTime': 2840.0999999996275, 'positionName': 'LEFT', 'positionCoords': [397.4, 320.5], 'bid': 8.78}, {'imgObject': {}, 'id': 'mango', 'src': '/static/foodstim60/mango.jpg', 'key': 'i', 'origWidth': 411, 'origHeight': 411, 'width': 411, 'height': 411, 'widthPercent': 0.45, 'rescaleHeight': False, 'trialN': 95, 'loaded': True, 'loadedTime': 2415.89999999851, 'positionName': 'RIGHT', 'positionCoords': [873.6, 319.5], 'bid': 8.53}]",186638.19999999925,1669844899783,ice cream sundae 002,mango,8.78,8.53,-0.25,ice cream sundae 002,914.5,917,916.5,True,u,188062.0,1423.800000000745,1669844901207,1424,HRV,HRV_0312,2022-11-30 21:50:57
96,"[{'imgObject': {}, 'id': 'mac & cheese', 'src': '/static/foodstim60/mac & cheese.jpg', 'key': 'u', 'origWidth': 410, 'origHeight': 410, 'width': 410, 'height': 410, 'widthPercent': 0.45, 'rescaleHeight': False, 'trialN': 96, 'loaded': True, 'loadedTime': 3400, 'positionName': 'LEFT', 'positionCoords': [396.4, 320], 'bid': 9.82}, {'imgObject': {}, 'id': 'lox', 'src': '/static/foodstim60/lox.jpg', 'key': 'i', 'origWidth': 410, 'origHeight': 411, 'width': 410, 'height': 411, 'widthPercent': 0.45, 'rescaleHeight': False, 'trialN': 96, 'loaded': True, 'loadedTime': 3189.89999999851, 'positionName': 'RIGHT', 'positionCoords': [873.6, 319.5], 'bid': 9.69}]",188062.09999999963,1669844901207,mac & cheese,lox,9.82,9.69,-0.13000000000000078,mac & cheese,746.5999999996275,748,748.1999999992549,True,u,189317.8999999985,1255.7999999988824,1669844902463,1256,HRV,HRV_0312,2022-11-30 21:50:57
97,"[{'imgObject': {}, 'id': 'cocktailshrimp', 'src': '/static/foodstim60/cocktailshrimp.jpg', 'key': 'u', 'origWidth': 410, 'origHeight': 410, 'width': 410, 'height': 410, 'widthPercent': 0.45, 'rescaleHeight': False, 'trialN': 97, 'loaded': True, 'loadedTime': 3318.2999999988824, 'positionName': 'LEFT', 'positionCoords': [396.4, 320], 'bid': 9.55}, {'imgObject': {}, 'id': 'omelette', 'src': '/static/foodstim60/omelette.jpg', 'key': 'i', 'origWidth': 410, 'origHeight': 409, 'width': 410, 'height': 409, 'widthPercent': 0.45, 'rescaleHeight': False, 'trialN': 97, 'loaded': True, 'loadedTime': 3149.699999999255, 'positionName': 'RIGHT', 'positionCoords': [873.6, 320.5], 'bid': 9.11}]",189318.09999999963,1669844902463,cocktailshrimp,omelette,9.55,9.11,-0.4400000000000013,cocktailshrimp,1594.5999999996275,1596,1596.199999999255,True,u,191421.8999999985,2103.7999999988824,1669844904567,2104,HRV,HRV_0312,2022-11-30 21:50:57
98,"[{'imgObject': {}, 'id': 'omelette', 'src': '/static/foodstim60/omelette.jpg', 'key': 'u', 'origWidth': 410, 'origHeight': 409, 'width': 410, 'height': 409, 'widthPercent': 0.45, 'rescaleHeight': False, 'trialN': 98, 'loaded': True, 'loadedTime': 3149.7999999988824, 'positionName': 'LEFT', 'positionCoords': [396.4, 320.5], 'bid': 9.11}, {'imgObject': {}, 'id': 'raspberries', 'src': '/static/foodstim60/raspberries.jpg', 'key': 'i', 'origWidth': 411, 'origHeight': 411, 'width': 411, 'height': 411, 'widthPercent': 0.45, 'rescaleHeight': False, 'trialN': 98, 'loaded': True, 'loadedTime': 2908.89999999851, 'positionName': 'RIGHT', 'positionCoords': [873.6, 319.5], 'bid': 9.46}]",191422.09999999963,1669844904567,omelette,raspberries,9.11,9.46,0.3500000000000014,omelette,970.5999999996275,973,972.5999999996275,True,u,192901.8999999985,1479.7999999988824,1669844906047,1480,HRV,HRV_0312,2022-11-30 21:50:57
99,"[{'imgObject': {}, 'id': 'bagel plain', 'src': '/static/foodstim60/bagel plain.jpg', 'key': 'u', 'origWidth': 410, 'origHeight': 410, 'width': 410, 'height': 410, 'widthPercent': 0.45, 'rescaleHeight': False, 'trialN': 99, 'loaded': True, 'loadedTime': 3278.199999999255, 'positionName': 'LEFT', 'positionCoords': [396.4, 320], 'bid': 8.39}, {'imgObject': {}, 'id': 'omelette', 'src': '/static/foodstim60/omelette.jpg', 'key': 'i', 'origWidth': 410, 'origHeight': 409, 'width': 410, 'height': 409, 'widthPercent': 0.45, 'rescaleHeight': False, 'trialN': 99, 'loaded': True, 'loadedTime': 3149.89999999851, 'positionName': 'RIGHT', 'positionCoords': [873.6, 320.5], 'bid': 9.11}]",192902.09999999963,1669844906047,bagel plain,omelette,8.39,9.11,0.7199999999999989,omelette,914.5999999996275,916,916.2999999988824,True,i,194325.8999999985,1423.7999999988824,1669844907471,1424,HRV,HRV_0312,2022-11-30 21:50:57
100,"[{'imgObject': {}, 'id': 'luckycharms', 'src': '/static/foodstim60/luckycharms.jpg', 'key': 'u', 'origWidth': 410, 'origHeight': 409, 'width': 410, 'height': 409, 'widthPercent': 0.45, 'rescaleHeight': False, 'trialN': 100, 'loaded': True, 'loadedTime': 3405.199999999255, 'positionName': 'LEFT', 'positionCoords': [396.4, 320.5], 'bid': 6.01}, {'imgObject': {}, 'id': 'cheerios', 'src': '/static/foodstim60/cheerios.jpg', 'key': 'i', 'origWidth': 409, 'origHeight': 410, 'width': 409, 'height': 410, 'widthPercent': 0.45, 'rescaleHeight': False, 'trialN': 100, 'loaded': True, 'loadedTime': 3314.5, 'positionName': 'RIGHT', 'positionCoords': [873.6, 320], 'bid': 7.33}]",194326.0,1669844907471,luckycharms,cheerios,6.01,7.33,1.3200000000000003,cheerios,1130.699999999255,1132,1132.0,True,i,195965.8999999985,1639.8999999985099,1669844909111,1640,HRV,HRV_0312,2022-11-30 21:50:57
101,"[{'imgObject': {}, 'id': 'blackbeanswithrice', 'src': '/static/foodstim60/blackbeanswithrice.jpg', 'key': 'u', 'origWidth': 410, 'origHeight': 410, 'width': 410, 'height': 410, 'widthPercent': 0.45, 'rescaleHeight': False, 'trialN': 101, 'loaded': True, 'loadedTime': 3147.89999999851, 'positionName': 'LEFT', 'positionCoords': [396.4, 320], 'bid': 9.09}, {'imgObject': {}, 'id': 'baked potato', 'src': '/static/foodstim60/baked potato.jpg', 'key': 'i', 'origWidth': 409, 'origHeight': 410, 'width': 409, 'height': 410, 'widthPercent': 0.45, 'rescaleHeight': False, 'trialN': 101, 'loaded': True, 'loadedTime': 2915.5999999996275, 'positionName': 'RIGHT', 'positionCoords': [873.6, 320], 'bid': 9.34}]",195966.09999999963,1669844909111,blackbeanswithrice,baked potato,9.09,9.34,0.25,blackbeanswithrice,1146.5999999996275,1148,1148.0,True,u,197621.8999999985,1655.7999999988824,1669844910767,1656,HRV,HRV_0312,2022-11-30 21:50:57
102,"[{'imgObject': {}, 'id': 'eggsalad', 'src': '/static/foodstim60/eggsalad.jpg', 'key': 'u', 'origWidth': 410, 'origHeight': 409, 'width': 410, 'height': 409, 'widthPercent': 0.45, 'rescaleHeight': False, 'trialN': 102, 'loaded': True, 'loadedTime': 3021.89999999851, 'positionName': 'LEFT', 'positionCoords': [396.4, 320.5], 'bid': 5}, {'imgObject': {}, 'id': 'ice cream sundae 002', 'src': '/static/foodstim60/ice cream sundae 002.jpg', 'key': 'i', 'origWidth': 409, 'origHeight': 409, 'width': 409, 'height': 409, 'widthPercent': 0.45, 'rescaleHeight': False, 'trialN': 102, 'loaded': True, 'loadedTime': 2840.5, 'positionName': 'RIGHT', 'positionCoords': [873.6, 320.5], 'bid': 8.78}]",197622.0,1669844910767,eggsalad,ice cream sundae 002,5.0,8.78,3.7799999999999994,ice cream sundae 002,1010.6999999992549,1012,1012.1999999992549,True,i,199141.8999999985,1519.8999999985099,1669844912287,1520,HRV,HRV_0312,2022-11-30 21:50:57
103,"[{'imgObject': {}, 'id': 'granola w milk', 'src': '/static/foodstim60/granola w milk.jpg', 'key': 'u', 'origWidth': 410, 'origHeight': 410, 'width': 410, 'height': 410, 'widthPercent': 0.45, 'rescaleHeight': False, 'trialN': 103, 'loaded': True, 'loadedTime': 2659.699999999255, 'positionName': 'LEFT', 'positionCoords': [396.4, 320], 'bid': 7.15}, {'imgObject': {}, 'id': 'mashed potato', 'src': '/static/foodstim60/mashed potato.jpg', 'key': 'i', 'origWidth': 409, 'origHeight': 409, 'width': 409, 'height': 409, 'widthPercent': 0.45, 'rescaleHeight': False, 'trialN': 103, 'loaded': True, 'loadedTime': 2552.0999999996275, 'positionName': 'RIGHT', 'positionCoords': [873.6, 320.5], 'bid': 9.67}]",199142.09999999963,1669844912287,granola w milk,mashed potato,7.15,9.67,2.5199999999999996,mashed potato,1178.5999999996275,1180,1179.9000000003725,True,i,200830.0,1687.9000000003725,1669844913975,1688,HRV,HRV_0312,2022-11-30 21:50:57
104,"[{'imgObject': {}, 'id': 'froot loops w milk', 'src': '/static/foodstim60/froot loops w milk.jpg', 'key': 'u', 'origWidth': 410, 'origHeight': 410, 'width': 410, 'height': 410, 'widthPercent': 0.45, 'rescaleHeight': False, 'trialN': 104, 'loaded': True, 'loadedTime': 2467.699999999255, 'positionName': 'LEFT', 'positionCoords': [396.4, 320], 'bid': 5.97}, {'imgObject': {}, 'id': 'grilled chicken strips', 'src': '/static/foodstim60/grilled chicken strips.jpg', 'key': 'i', 'origWidth': 410, 'origHeight': 411, 'width': 410, 'height': 411, 'widthPercent': 0.45, 'rescaleHeight': False, 'trialN': 104, 'loaded': True, 'loadedTime': 2978.199999999255, 'positionName': 'RIGHT', 'positionCoords': [873.6, 319.5], 'bid': 6.3500000000000005}]",200830.09999999963,1669844913975,froot loops w milk,grilled chicken strips,5.97,6.3500000000000005,0.3800000000000008,froot loops w milk,1362.5999999996275,1364,1363.7999999988824,True,u,202702.0,1871.9000000003725,1669844915847,1872,HRV,HRV_0312,2022-11-30 21:50:57
105,"[{'imgObject': {}, 'id': 'pear', 'src': '/static/foodstim60/pear.jpg', 'key': 'u', 'origWidth': 411, 'origHeight': 410, 'width': 411, 'height': 410, 'widthPercent': 0.45, 'rescaleHeight': False, 'trialN': 105, 'loaded': True, 'loadedTime': 3404.89999999851, 'positionName': 'LEFT', 'positionCoords': [395.4, 320], 'bid': 8.53}, {'imgObject': {}, 'id': 'banana', 'src': '/static/foodstim60/banana.jpg', 'key': 'i', 'origWidth': 410, 'origHeight': 410, 'width': 410, 'height': 410, 'widthPercent': 0.45, 'rescaleHeight': False, 'trialN': 105, 'loaded': True, 'loadedTime': 2937.0999999996275, 'positionName': 'RIGHT', 'positionCoords': [873.6, 320], 'bid': 6.48}]",202702.09999999963,1669844915847,pear,banana,8.53,6.48,-2.049999999999999,banana,1290.5999999996275,1292,1292.5999999996275,True,i,204501.8999999985,1799.7999999988824,1669844917647,1800,HRV,HRV_0312,2022-11-30 21:50:57
106,"[{'imgObject': {}, 'id': 'salad w chicken', 'src': '/static/foodstim60/salad w chicken.jpg', 'key': 'u', 'origWidth': 411, 'origHeight': 411, 'width': 411, 'height': 411, 'widthPercent': 0.45, 'rescaleHeight': False, 'trialN': 106, 'loaded': True, 'loadedTime': 3316.5, 'positionName': 'LEFT', 'positionCoords': [395.4, 319.5], 'bid': 7.32}, {'imgObject': {}, 'id': 'turkey sandwich', 'src': '/static/foodstim60/turkey sandwich.jpg', 'key': 'i', 'origWidth': 409, 'origHeight': 409, 'width': 409, 'height': 409, 'widthPercent': 0.45, 'rescaleHeight': False, 'trialN': 106, 'loaded': True, 'loadedTime': 3233.5, 'positionName': 'RIGHT', 'positionCoords': [873.6, 320.5], 'bid': 6.34}]",204502.0,1669844917647,salad w chicken,turkey sandwich,7.32,6.34,-0.9800000000000004,salad w chicken,1474.699999999255,1476,1476.0,True,u,206485.8999999985,1983.8999999985099,1669844919631,1984,HRV,HRV_0312,2022-11-30 21:50:57
107,"[{'imgObject': {}, 'id': 'hashbrowns', 'src': '/static/foodstim60/hashbrowns.jpg', 'key': 'u', 'origWidth': 411, 'origHeight': 410, 'width': 411, 'height': 410, 'widthPercent': 0.45, 'rescaleHeight': False, 'trialN': 107, 'loaded': True, 'loadedTime': 3318.5, 'positionName': 'LEFT', 'positionCoords': [395.4, 320], 'bid': 4.96}, {'imgObject': {}, 'id': 'apple slices', 'src': '/static/foodstim60/apple slices.jpg', 'key': 'i', 'origWidth': 409, 'origHeight': 410, 'width': 409, 'height': 410, 'widthPercent': 0.45, 'rescaleHeight': False, 'trialN': 107, 'loaded': True, 'loadedTime': 2908.199999999255, 'positionName': 'RIGHT', 'positionCoords': [873.6, 320], 'bid': 6.92}]",206486.0,1669844919631,hashbrowns,apple slices,4.96,6.92,1.96,apple slices,1354.699999999255,1356,1356.0999999996275,True,i,208350.0,1864.0,1669844921495,1864,HRV,HRV_0312,2022-11-30 21:50:57
108,"[{'imgObject': {}, 'id': 'steak', 'src': '/static/foodstim60/steak.jpg', 'key': 'u', 'origWidth': 410, 'origHeight': 410, 'width': 410, 'height': 410, 'widthPercent': 0.45, 'rescaleHeight': False, 'trialN': 108, 'loaded': True, 'loadedTime': 3411.2999999988824, 'positionName': 'LEFT', 'positionCoords': [396.4, 320], 'bid': 6.3}, {'imgObject': {}, 'id': 'cherry tomato', 'src': '/static/foodstim60/cherry tomato.jpg', 'key': 'i', 'origWidth': 410, 'origHeight': 410, 'width': 410, 'height': 410, 'widthPercent': 0.45, 'rescaleHeight': False, 'trialN': 108, 'loaded': True, 'loadedTime': 2900.5999999996275, 'positionName': 'RIGHT', 'positionCoords': [873.6, 320], 'bid': 6.32}]",208350.09999999963,1669844921495,steak,cherry tomato,6.3,6.32,0.020000000000000462,steak,2458.5999999996275,2460,2459.7999999988824,True,u,211318.0,2967.9000000003725,1669844924463,2968,HRV,HRV_0312,2022-11-30 21:50:57
