success,trial_type,trial_index,time_elapsed,internal_node_id,Block,TrialNumber,TrialTime,trialTimeDiff,FPS_avg,FPS_med,FPS_mode,TrialDur,winResizeTime,rt,block,button_pressed,MotCoh,MotDir,ColCoh,Color,ChoiceKey,Choice,Accuracy,RT,nFrames,FPS,PPD,missTrial,missTrialMsg,onsetDelay,fullScreenExitTime,canvCenter,TrialType,Score,BlockTrial,stimulus,button_labels,exp,subjectId,date
True,fullscreen,0,1743,0.0-0.0,0.0,1.0,,,,,,,,,,,,,,,,,,,,,,,,,,,,,,,,HRV,HRV_0149,2022-11-30 18:52:23
,wl-check-fps,1,6744,0.0-1.0,0.0,2.0,"[2248.5, 2261.8, 2278.4, 2295.5, 2311.8, 2328.6, 2345.1, 2361.8, 2378.7, 2395.1, 2411.9, 2428.3, 2445.4, 2461.8, 2478.2, 2495.5, 2512.8, 2528.4, 2545, 2561.7, 2578.3, 2595.1, 2611.7, 2628.3, 2645.2, 2661.6, 2678.3, 2694.9, 2711.9, 2728.5, 2745.1, 2761.6, 2778.4, 2795.1, 2811.6, 2828.3, 2845.2, 2861.8, 2878.6, 2895, 2911.6, 2928.3, 2945.1, 2961.8, 2978.5, 2995, 3012, 3028.6, 3045.1, 3061.7, 3078.4, 3095.1, 3111.7, 3128.3, 3145.1, 3161.6, 3178.4, 3195, 3211.7, 3228.4, 3245, 3261.7, 3278.4, 3295, 3311.8, 3328.3, 3345, 3361.6, 3378.4, 3395, 3411.7, 3428.5, 3445, 3461.6, 3478.4, 3495.2, 3511.9, 3528.3, 3544.9, 3561.6, 3578.4, 3595, 3611.8, 3628.4, 3645, 3661.8, 3678.4, 3695, 3711.7, 3728.3, 3745, 3761.6, 3778.4, 3795.1, 3811.8, 3828.3, 3845, 3861.7, 3878.3, 3895.1, 3911.8, 3928.3, 3945, 3961.7, 3978.3, 3995, 4011.7, 4028.3, 4045, 4061.7, 4078.5, 4095.5, 4111.8, 4128.6, 4145.3, 4161.8, 4178.8, 4195.6, 4211.9, 4228.5, 4245.6, 4262, 4278.9, 4295.2, 4312, 4328.7, 4345.2, 4361.8, 4378.3, 4395, 4411.7, 4428.4, 4444.9, 4461.7, 4478.7, 4495.1, 4512, 4528.3, 4545.5, 4561.8, 4578.6, 4595.3, 4611.7, 4628.4, 4645.4, 4662, 4678.5, 4695.1, 4711.7, 4728.4, 4745.1, 4761.8, 4778.4, 4794.9, 4811.8, 4828.4, 4845.1, 4861.7, 4878.3, 4894.9, 4911.8, 4928.5, 4944.9, 4961.6, 4978.3, 4995.1, 5011.7, 5028.4, 5045.2, 5061.8, 5078.5, 5095.2, 5111.6, 5128.3, 5144.9, 5161.6, 5178.3, 5194.9, 5211.6, 5228.2, 5244.9, 5261.7, 5278.4, 5295, 5311.9, 5328.6, 5345.2, 5361.6, 5378.4, 5395.3, 5412, 5428.5, 5445, 5461.7, 5478.3, 5495, 5512.1, 5528.4, 5545.2, 5561.8, 5578.4, 5595, 5611.8, 5628.5, 5645.1, 5661.8, 5678.7, 5695.1, 5711.7, 5728.4, 5745, 5761.6, 5778.6, 5795.3, 5811.7, 5828.6, 5845.2, 5861.8, 5878.7, 5895.1, 5912, 5928.3, 5945.5, 5961.7, 5978.4, 5995.1, 6011.8, 6028.4, 6045.1, 6061.7, 6078.6, 6095.4, 6111.6, 6128.6, 6145.1, 6161.8, 6178.4, 6195, 6211.8, 6228.5, 6245.1, 6261.7, 6278.5, 6295.1, 6311.9, 6328.4, 6345.2, 6361.9, 6378.5, 6395, 6411.8, 6428.5, 6445.1, 6462, 6478.5, 6495, 6512, 6528.4, 6545.2, 6561.8, 6578.6, 6595.4, 6611.7, 6628.4, 6645.1, 6661.7, 6678.5, 6695.1, 6711.7, 6728.4, 6745.1, 6761.7, 6778.5, 6795.1, 6811.8, 6828.4, 6845.1, 6861.8, 6878.4, 6895.1, 6911.6, 6928.5, 6945.1, 6961.6, 6978.6, 6995, 7011.9, 7028.7, 7045.2, 7061.8, 7078.4, 7095, 7111.7, 7128.4, 7145.1, 7161.7, 7178.3, 7195, 7211.7, 7228.3]","[1.4, 13.3, 16.6, 17.1, 16.3, 16.8, 16.5, 16.7, 16.9, 16.4, 16.8, 16.4, 17.1, 16.4, 16.4, 17.3, 17.3, 15.6, 16.6, 16.7, 16.6, 16.8, 16.6, 16.6, 16.9, 16.4, 16.7, 16.6, 17, 16.6, 16.6, 16.5, 16.8, 16.7, 16.5, 16.7, 16.9, 16.6, 16.8, 16.4, 16.6, 16.7, 16.8, 16.7, 16.7, 16.5, 17, 16.6, 16.5, 16.6, 16.7, 16.7, 16.6, 16.6, 16.8, 16.5, 16.8, 16.6, 16.7, 16.7, 16.6, 16.7, 16.7, 16.6, 16.8, 16.5, 16.7, 16.6, 16.8, 16.6, 16.7, 16.8, 16.5, 16.6, 16.8, 16.8, 16.7, 16.4, 16.6, 16.7, 16.8, 16.6, 16.8, 16.6, 16.6, 16.8, 16.6, 16.6, 16.7, 16.6, 16.7, 16.6, 16.8, 16.7, 16.7, 16.5, 16.7, 16.7, 16.6, 16.8, 16.7, 16.5, 16.7, 16.7, 16.6, 16.7, 16.7, 16.6, 16.7, 16.7, 16.8, 17, 16.3, 16.8, 16.7, 16.5, 17, 16.8, 16.3, 16.6, 17.1, 16.4, 16.9, 16.3, 16.8, 16.7, 16.5, 16.6, 16.5, 16.7, 16.7, 16.7, 16.5, 16.8, 17, 16.4, 16.9, 16.3, 17.2, 16.3, 16.8, 16.7, 16.4, 16.7, 17, 16.6, 16.5, 16.6, 16.6, 16.7, 16.7, 16.7, 16.6, 16.5, 16.9, 16.6, 16.7, 16.6, 16.6, 16.6, 16.9, 16.7, 16.4, 16.7, 16.7, 16.8, 16.6, 16.7, 16.8, 16.6, 16.7, 16.7, 16.4, 16.7, 16.6, 16.7, 16.7, 16.6, 16.7, 16.6, 16.7, 16.8, 16.7, 16.6, 16.9, 16.7, 16.6, 16.4, 16.8, 16.9, 16.7, 16.5, 16.5, 16.7, 16.6, 16.7, 17.1, 16.3, 16.8, 16.6, 16.6, 16.6, 16.8, 16.7, 16.6, 16.7, 16.9, 16.4, 16.6, 16.7, 16.6, 16.6, 17, 16.7, 16.4, 16.9, 16.6, 16.6, 16.9, 16.4, 16.9, 16.3, 17.2, 16.2, 16.7, 16.7, 16.7, 16.6, 16.7, 16.6, 16.9, 16.8, 16.2, 17, 16.5, 16.7, 16.6, 16.6, 16.8, 16.7, 16.6, 16.6, 16.8, 16.6, 16.8, 16.5, 16.8, 16.7, 16.6, 16.5, 16.8, 16.7, 16.6, 16.9, 16.5, 16.5, 17, 16.4, 16.8, 16.6, 16.8, 16.8, 16.3, 16.7, 16.7, 16.6, 16.8, 16.6, 16.6, 16.7, 16.7, 16.6, 16.8, 16.6, 16.7, 16.6, 16.7, 16.7, 16.6, 16.7, 16.5, 16.9, 16.6, 16.5, 17, 16.4, 16.9, 16.8, 16.5, 16.6, 16.6, 16.6, 16.7, 16.7, 16.7, 16.6, 16.6, 16.7, 16.7, 16.6]",60.0,60.0,60.0,4997.9,[],,,,,,,,,,,,,,,,,,,,,,,,,HRV,HRV_0149,2022-11-30 18:52:23
,wl-html-keyboard-response,2,14467,0.0-2.0-0.0,0.0,3.0,,,,,,,,5696.0,0.0,0,,,,,,,,,,,,,,,,,,,,,,HRV,HRV_0149,2022-11-30 18:52:23
,wl-rdm,3,21510,0.0-3.0-0.0,0.0,4.0,,,,,,,[],,,,0.0,0.0,87.9,0.0,u,0.0,True,1480.7999999523163,89.0,60.0,40.0,False,,3000.0,[],"[960, 540]",ColorTask_Demo,,,,,HRV,HRV_0149,2022-11-30 18:52:23
,wl-rdm,4,26426,0.0-3.0-1.0,0.0,5.0,,,,,,,[],,,,0.0,0.0,87.9,1.0,i,1.0,True,848.9000000953674,51.0,60.0,40.0,False,,2000.0,[],"[960, 540]",ColorTask_Demo,,,,,HRV,HRV_0149,2022-11-30 18:52:23
,wl-html-keyboard-response,5,30523,0.0-3.0-2.0,0.0,6.0,,,,,,,,2089.300000190735,0.0,1,,,,,,,,,,,,,,,,,,,,,,HRV,HRV_0149,2022-11-30 18:52:23
,wl-html-keyboard-response,6,38595,0.0-4.0-0.0,0.0,7.0,,,,,,,,6067.5,0.0,0,,,,,,,,,,,,,,,,,,,,,,HRV,HRV_0149,2022-11-30 18:52:23
,wl-html-keyboard-response,7,59925,0.0-5.0-0.0,0.0,8.0,,,,,,,,19319.5,0.0,0,,,,,,,,,,,,,,,,,,,,,,HRV,HRV_0149,2022-11-30 18:52:23
,wl-rdm,8,62494,0.0-6.0-0.0,0.0,9.0,,,,,,,[],,,,,,56.4,1.0,i,1.0,True,1270.3999998569489,77.0,60.0,40.0,False,,230.5117386122478,[],"[960, 540]",ColorTask,1.0,1.0,,,HRV,HRV_0149,2022-11-30 18:52:23
,wl-rdm,9,64927,0.0-6.1-0.1,0.0,10.0,,,,,,,[],,,,,,62.5,1.0,i,1.0,True,1044.0000002384186,63.0,60.0,40.0,False,,309.2825619740566,[],"[960, 540]",ColorTask,2.0,2.0,,,HRV,HRV_0149,2022-11-30 18:52:23
,wl-rdm,10,67128,0.0-6.2-0.2,0.0,11.0,,,,,,,[],,,,,,53.2,0.0,u,0.0,True,851.0,52.0,60.0,40.0,False,,276.1663535110901,[],"[960, 540]",ColorTask,3.0,3.0,,,HRV,HRV_0149,2022-11-30 18:52:23
,wl-rdm,11,69378,0.0-6.3-0.3,0.0,12.0,,,,,,,[],,,,,,53.2,0.0,u,0.0,True,924.8000001907349,56.0,60.0,40.0,False,,256.6891031810653,[],"[960, 540]",ColorTask,4.0,4.0,,,HRV,HRV_0149,2022-11-30 18:52:23
,wl-rdm,12,71744,0.0-6.4-0.4,0.0,13.0,,,,,,,[],,,,,,56.4,1.0,i,1.0,True,1051.0,64.0,60.0,40.0,False,,239.65648104705326,[],"[960, 540]",ColorTask,5.0,5.0,,,HRV,HRV_0149,2022-11-30 18:52:23
,wl-rdm,13,73845,0.0-6.5-0.5,0.0,14.0,,,,,,,[],,,,,,73.6,0.0,i,1.0,False,784.5,48.0,60.0,40.0,False,,240.79900927860004,[],"[960, 540]",ColorTask,4.0,6.0,,,HRV,HRV_0149,2022-11-30 18:52:23
,wl-rdm,14,76012,0.0-6.6-0.6,0.0,15.0,,,,,,,[],,,,,,73.6,0.0,u,0.0,True,707.0999999046326,43.0,60.0,40.0,False,,390.97424921313086,[],"[960, 540]",ColorTask,5.0,7.0,,,HRV,HRV_0149,2022-11-30 18:52:23
,wl-rdm,15,78095,0.0-6.7-0.7,0.0,16.0,,,,,,,[],,,,,,53.2,1.0,i,1.0,True,785.7000000476837,48.0,60.0,40.0,False,,207.9630839684221,[],"[960, 540]",ColorTask,6.0,8.0,,,HRV,HRV_0149,2022-11-30 18:52:23
,wl-rdm,16,80361,0.0-6.8-0.8,0.0,17.0,,,,,,,[],,,,,,62.5,1.0,i,1.0,True,795.6999998092651,48.0,60.0,40.0,False,,396.3498954582744,[],"[960, 540]",ColorTask,7.0,9.0,,,HRV,HRV_0149,2022-11-30 18:52:23
,wl-rdm,17,82595,0.0-6.9-0.9,0.0,18.0,,,,,,,[],,,,,,87.9,0.0,u,0.0,True,808.7999999523163,49.0,60.0,40.0,False,,354.53389974189633,[],"[960, 540]",ColorTask,8.0,10.0,,,HRV,HRV_0149,2022-11-30 18:52:23
,wl-rdm,18,85545,0.0-6.10-0.10,0.0,19.0,,,,,,,[],,,,,,56.4,0.0,u,0.0,True,1621.5999999046326,98.0,60.0,40.0,False,,250.62721248119144,[],"[960, 540]",ColorTask,9.0,11.0,,,HRV,HRV_0149,2022-11-30 18:52:23
,wl-rdm,19,87628,0.0-6.11-0.11,0.0,20.0,,,,,,,[],,,,,,87.9,1.0,i,1.0,True,775.2999999523163,47.0,60.0,40.0,False,,223.92620742214362,[],"[960, 540]",ColorTask,10.0,12.0,,,HRV,HRV_0149,2022-11-30 18:52:23
,wl-rdm,20,89945,0.0-6.12-0.12,0.0,21.0,,,,,,,[],,,,,,56.4,1.0,i,1.0,True,1010.0,61.0,60.0,40.0,False,,229.56899681645916,[],"[960, 540]",ColorTask,11.0,13.0,,,HRV,HRV_0149,2022-11-30 18:52:23
,wl-rdm,21,92211,0.0-6.13-0.13,0.0,22.0,,,,,,,[],,,,,,73.6,1.0,i,1.0,True,923.9999997615814,56.0,60.0,40.0,False,,270.5566904008706,[],"[960, 540]",ColorTask,12.0,14.0,,,HRV,HRV_0149,2022-11-30 18:52:23
,wl-rdm,22,94578,0.0-6.14-0.14,0.0,23.0,,,,,,,[],,,,,,50.0,1.0,i,1.0,True,999.3999998569489,60.0,60.0,40.0,False,,310.2913090703662,[],"[960, 540]",ColorTask,13.0,15.0,,,HRV,HRV_0149,2022-11-30 18:52:23
,wl-rdm,23,96461,0.0-6.15-0.15,0.0,24.0,,,,,,,[],,,,,,87.9,1.0,i,1.0,True,613.5000002384186,37.0,60.0,40.0,False,,212.44533005040992,[],"[960, 540]",ColorTask,14.0,16.0,,,HRV,HRV_0149,2022-11-30 18:52:23
,wl-rdm,24,98645,0.0-6.16-0.16,0.0,25.0,,,,,,,[],,,,,,56.4,0.0,i,1.0,False,842.5999999046326,51.0,60.0,40.0,False,,266.62085849236786,[],"[960, 540]",ColorTask,13.0,17.0,,,HRV,HRV_0149,2022-11-30 18:52:23
,wl-rdm,25,100628,0.0-6.17-0.17,0.0,26.0,,,,,,,[],,,,,,87.9,0.0,u,0.0,True,629.4000000953674,38.0,60.0,40.0,False,,285.2419838552365,[],"[960, 540]",ColorTask,14.0,18.0,,,HRV,HRV_0149,2022-11-30 18:52:23
,wl-rdm,26,102678,0.0-6.18-0.18,0.0,27.0,,,,,,,[],,,,,,73.6,0.0,u,0.0,True,754.0999999046326,46.0,60.0,40.0,False,,204.2061554105979,[],"[960, 540]",ColorTask,15.0,19.0,,,HRV,HRV_0149,2022-11-30 18:52:23
,wl-rdm,27,105128,0.0-6.19-0.19,0.0,28.0,,,,,,,[],,,,,,53.2,0.0,u,0.0,True,1010.3999998569489,61.0,60.0,40.0,False,,365.7348647527767,[],"[960, 540]",ColorTask,16.0,20.0,,,HRV,HRV_0149,2022-11-30 18:52:23
,wl-rdm,28,107395,0.0-6.20-0.20,0.0,29.0,,,,,,,[],,,,,,56.4,0.0,i,1.0,False,822.0,50.0,60.0,40.0,False,,366.113801229518,[],"[960, 540]",ColorTask,15.0,21.0,,,HRV,HRV_0149,2022-11-30 18:52:23
,wl-rdm,29,110412,0.0-6.21-0.21,0.0,30.0,,,,,,,[],,,,,,62.5,0.0,u,0.0,True,1677.0,101.0,60.0,40.0,False,,260.5689864142622,[],"[960, 540]",ColorTask,16.0,22.0,,,HRV,HRV_0149,2022-11-30 18:52:23
,wl-rdm,30,113212,0.0-6.22-0.22,0.0,31.0,,,,,,,[],,,,,,50.0,0.0,u,0.0,True,1364.4999997615814,82.0,60.0,40.0,False,,357.71379977423567,[],"[960, 540]",ColorTask,17.0,23.0,,,HRV,HRV_0149,2022-11-30 18:52:23
,wl-rdm,31,115745,0.0-6.23-0.23,0.0,32.0,,,,,,,[],,,,,,56.4,1.0,i,1.0,True,1148.1999998092651,69.0,60.0,40.0,False,,326.65953438632613,[],"[960, 540]",ColorTask,18.0,24.0,,,HRV,HRV_0149,2022-11-30 18:52:23
,wl-rdm,32,118029,0.0-6.24-0.24,0.0,33.0,,,,,,,[],,,,,,87.9,1.0,i,1.0,True,853.8000001907349,52.0,60.0,40.0,False,,355.4819851342316,[],"[960, 540]",ColorTask,19.0,25.0,,,HRV,HRV_0149,2022-11-30 18:52:23
,wl-rdm,33,119912,0.0-6.25-0.25,0.0,34.0,,,,,,,[],,,,,,62.5,0.0,i,1.0,False,575.0999999046326,35.0,60.0,40.0,False,,237.18019720554503,[],"[960, 540]",ColorTask,18.0,26.0,,,HRV,HRV_0149,2022-11-30 18:52:23
,wl-rdm,34,121962,0.0-6.26-0.26,0.0,35.0,,,,,,,[],,,,,,62.5,0.0,u,0.0,True,729.9999997615814,44.0,60.0,40.0,False,,254.13159557709648,[],"[960, 540]",ColorTask,19.0,27.0,,,HRV,HRV_0149,2022-11-30 18:52:23
,wl-rdm,35,124145,0.0-6.27-0.27,0.0,36.0,,,,,,,[],,,,,,73.6,0.0,u,0.0,True,788.7999999523163,48.0,60.0,40.0,False,,305.1658377379574,[],"[960, 540]",ColorTask,20.0,28.0,,,HRV,HRV_0149,2022-11-30 18:52:23
,wl-rdm,36,126112,0.0-6.28-0.28,0.0,37.0,,,,,,,[],,,,,,53.2,1.0,i,1.0,True,652.0,40.0,60.0,40.0,False,,247.81157491431412,[],"[960, 540]",ColorTask,21.0,29.0,,,HRV,HRV_0149,2022-11-30 18:52:23
,wl-rdm,37,128162,0.0-6.29-0.29,0.0,38.0,,,,,,,[],,,,,,87.9,1.0,i,1.0,True,769.2000000476837,47.0,60.0,40.0,False,,212.7707106445105,[],"[960, 540]",ColorTask,22.0,30.0,,,HRV,HRV_0149,2022-11-30 18:52:23
,wl-rdm,38,130429,0.0-6.30-0.30,0.0,39.0,,,,,,,[],,,,,,56.4,0.0,i,1.0,False,792.2000000476837,48.0,60.0,40.0,False,,392.38756173222396,[],"[960, 540]",ColorTask,21.0,31.0,,,HRV,HRV_0149,2022-11-30 18:52:23
,wl-rdm,39,132612,0.0-6.31-0.31,0.0,40.0,,,,,,,[],,,,,,62.5,1.0,i,1.0,True,745.7999999523163,45.0,60.0,40.0,False,,363.32195525686234,[],"[960, 540]",ColorTask,22.0,32.0,,,HRV,HRV_0149,2022-11-30 18:52:23
,wl-rdm,40,134289,0.0-6.32-0.32,0.0,40.0,,,,,,,[1676],,,,,,53.2,1.0,,,,,44.0,60.0,40.0,True,exitFullScreen exitFullScreen blurEvent ,339.72168248312596,[],"[960, 540]",ColorTask,21.0,33.0,,,HRV,HRV_0149,2022-11-30 18:52:23
,wl-rdm,41,144713,0.0-6.33-0.33,0.0,40.0,,,,,,,[],,,,,,87.9,0.0,u,,,172.29999995231628,0.0,60.0,40.0,True,enterFullScreen blurEvent ,265.73834299532473,[],"[None, None]",ColorTask,20.0,34.0,,,HRV,HRV_0149,2022-11-30 18:52:23
,wl-rdm,42,146979,0.0-6.34-0.34,0.0,41.0,,,,,,,[],,,,,,73.6,0.0,u,0.0,True,951.1000001430511,58.0,60.0,40.0,False,,230.83850639759748,[],"[960, 540]",ColorTask,21.0,35.0,,,HRV,HRV_0149,2022-11-30 18:52:23
,wl-rdm,43,149046,0.0-6.35-0.35,0.0,42.0,,,,,,,[],,,,,,50.0,1.0,i,1.0,True,725.0,44.0,60.0,40.0,False,,275.6531065364182,[],"[960, 540]",ColorTask,22.0,36.0,,,HRV,HRV_0149,2022-11-30 18:52:23
,wl-rdm,44,151212,0.0-6.36-0.36,0.0,43.0,,,,,,,[],,,,,,73.6,1.0,i,1.0,True,731.8999998569489,44.0,60.0,40.0,False,,383.3131223759084,[],"[960, 540]",ColorTask,23.0,37.0,,,HRV,HRV_0149,2022-11-30 18:52:23
,wl-rdm,45,153379,0.0-6.37-0.37,0.0,44.0,,,,,,,[],,,,,,87.9,0.0,u,0.0,True,794.4000000953674,48.0,60.0,40.0,False,,312.97884936658767,[],"[960, 540]",ColorTask,24.0,38.0,,,HRV,HRV_0149,2022-11-30 18:52:23
,wl-rdm,46,155496,0.0-6.38-0.38,0.0,45.0,,,,,,,[],,,,,,73.6,0.0,i,1.0,False,729.7999999523163,44.0,60.0,40.0,False,,318.7621485646975,[],"[960, 540]",ColorTask,23.0,39.0,,,HRV,HRV_0149,2022-11-30 18:52:23
,wl-rdm,47,157412,0.0-6.39-0.39,0.0,46.0,,,,,,,[],,,,,,87.9,1.0,i,1.0,True,528.2000000476837,32.0,60.0,40.0,False,,317.6962002588589,[],"[960, 540]",ColorTask,24.0,40.0,,,HRV,HRV_0149,2022-11-30 18:52:23
,wl-rdm,48,159546,0.0-6.40-0.40,0.0,47.0,,,,,,,[],,,,,,50.0,1.0,i,1.0,True,773.7999999523163,47.0,60.0,40.0,False,,268.07860494151464,[],"[960, 540]",ColorTask,25.0,41.0,,,HRV,HRV_0149,2022-11-30 18:52:23
,wl-rdm,49,161662,0.0-6.41-0.41,0.0,48.0,,,,,,,[],,,,,,73.6,0.0,u,0.0,True,691.0,42.0,60.0,40.0,False,,343.54341150317157,[],"[960, 540]",ColorTask,26.0,42.0,,,HRV,HRV_0149,2022-11-30 18:52:23
,wl-rdm,50,163412,0.0-6.42-0.42,0.0,49.0,,,,,,,[],,,,,,87.9,0.0,u,0.0,True,464.30000019073486,28.0,60.0,40.0,False,,231.68227994832228,[],"[960, 540]",ColorTask,27.0,43.0,,,HRV,HRV_0149,2022-11-30 18:52:23
,wl-rdm,51,165396,0.0-6.43-0.43,0.0,50.0,,,,,,,[],,,,,,73.6,1.0,i,1.0,True,562.5,34.0,60.0,40.0,False,,353.7539949138802,[],"[960, 540]",ColorTask,28.0,44.0,,,HRV,HRV_0149,2022-11-30 18:52:23
,wl-rdm,52,167296,0.0-6.44-0.44,0.0,51.0,,,,,,,[],,,,,,87.9,1.0,i,1.0,True,496.2000000476837,30.0,60.0,40.0,False,,347.5054654772525,[],"[960, 540]",ColorTask,29.0,45.0,,,HRV,HRV_0149,2022-11-30 18:52:23
,wl-rdm,53,169095,0.0-6.45-0.45,0.0,52.0,,,,,,,[],,,,,,73.6,1.0,i,1.0,True,466.39999985694885,28.0,60.0,40.0,False,,261.8621025324266,[],"[960, 540]",ColorTask,30.0,46.0,,,HRV,HRV_0149,2022-11-30 18:52:23
,wl-rdm,54,171029,0.0-6.46-0.46,0.0,53.0,,,,,,,[],,,,,,73.6,1.0,i,1.0,True,547.5000002384186,33.0,60.0,40.0,False,,313.3957868764963,[],"[960, 540]",ColorTask,31.0,47.0,,,HRV,HRV_0149,2022-11-30 18:52:23
,wl-rdm,55,172929,0.0-6.47-0.47,0.0,54.0,,,,,,,[],,,,,,73.6,1.0,i,1.0,True,543.7999999523163,33.0,60.0,40.0,False,,279.68608267626604,[],"[960, 540]",ColorTask,32.0,48.0,,,HRV,HRV_0149,2022-11-30 18:52:23
,wl-rdm,56,174662,0.0-6.48-0.48,0.0,55.0,,,,,,,[],,,,,,53.2,1.0,i,1.0,True,435.2000002861023,27.0,60.0,40.0,False,,218.23405159122544,[],"[960, 540]",ColorTask,33.0,49.0,,,HRV,HRV_0149,2022-11-30 18:52:23
,wl-rdm,57,176273,0.0-6.49-0.49,0.0,55.0,,,,,,,[1610.5],,,,,,73.6,1.0,i,1.0,True,429.2999999523163,26.0,60.0,40.0,True,exitFullScreen exitFullScreen blurEvent ,322.4400401822487,[],"[960, 540]",ColorTask,34.0,50.0,,,HRV,HRV_0149,2022-11-30 18:52:23
,wl-rdm,58,179907,0.0-6.50-0.50,0.0,55.0,,,,,,,[],,,,,,56.4,1.0,,,,,0.0,60.0,40.0,True,enterFullScreen ,221.71419363578704,[],"[None, None]",ColorTask,33.0,51.0,,,HRV,HRV_0149,2022-11-30 18:52:23
,wl-rdm,59,181962,0.0-6.51-0.51,0.0,56.0,,,,,,,[],,,,,,56.4,1.0,u,0.0,False,716.4000000953674,43.0,60.0,40.0,False,,269.3521164477359,[],"[960, 540]",ColorTask,32.0,52.0,,,HRV,HRV_0149,2022-11-30 18:52:23
,wl-rdm,60,183912,0.0-6.52-0.52,0.0,57.0,,,,,,,[],,,,,,50.0,0.0,u,0.0,True,647.2999999523163,39.0,60.0,40.0,False,,248.93658121647906,[],"[960, 540]",ColorTask,33.0,53.0,,,HRV,HRV_0149,2022-11-30 18:52:23
,wl-rdm,61,185995,0.0-6.53-0.53,0.0,58.0,,,,,,,[],,,,,,56.4,0.0,i,1.0,False,643.8999998569489,39.0,60.0,40.0,False,,371.8805935890548,[],"[960, 540]",ColorTask,32.0,54.0,,,HRV,HRV_0149,2022-11-30 18:52:23
,wl-rdm,62,188229,0.0-6.54-0.54,0.0,59.0,,,,,,,[],,,,,,62.5,1.0,i,1.0,True,839.6000001430511,51.0,60.0,40.0,False,,306.2489528576067,[],"[960, 540]",ColorTask,33.0,55.0,,,HRV,HRV_0149,2022-11-30 18:52:23
,wl-rdm,63,190312,0.0-6.55-0.55,0.0,60.0,,,,,,,[],,,,,,62.5,1.0,i,1.0,True,761.0,46.0,60.0,40.0,False,,258.9400524990737,[],"[960, 540]",ColorTask,34.0,56.0,,,HRV,HRV_0149,2022-11-30 18:52:23
,wl-rdm,64,192379,0.0-6.56-0.56,0.0,61.0,,,,,,,[],,,,,,87.9,0.0,u,0.0,True,797.9000000953674,48.0,60.0,40.0,False,,215.70557622706966,[],"[960, 540]",ColorTask,35.0,57.0,,,HRV,HRV_0149,2022-11-30 18:52:23
,wl-rdm,65,194396,0.0-6.57-0.57,0.0,62.0,,,,,,,[],,,,,,53.2,0.0,i,1.0,False,602.7000000476837,37.0,60.0,40.0,False,,336.32798149209776,[],"[960, 540]",ColorTask,34.0,58.0,,,HRV,HRV_0149,2022-11-30 18:52:23
,wl-rdm,66,196646,0.0-6.58-0.58,0.0,63.0,,,,,,,[],,,,,,50.0,0.0,u,0.0,True,943.0999999046326,57.0,60.0,40.0,False,,243.3733882132566,[],"[960, 540]",ColorTask,35.0,59.0,,,HRV,HRV_0149,2022-11-30 18:52:23
,wl-rdm,67,198846,0.0-6.59-0.59,0.0,64.0,,,,,,,[],,,,,,50.0,1.0,i,1.0,True,861.9000000953674,52.0,60.0,40.0,False,,261.0325670200816,[],"[960, 540]",ColorTask,36.0,60.0,,,HRV,HRV_0149,2022-11-30 18:52:23
,wl-rdm,68,201162,0.0-6.60-0.60,0.0,65.0,,,,,,,[],,,,,,62.5,1.0,u,0.0,False,839.7000000476837,51.0,60.0,40.0,False,,389.3911732216803,[],"[960, 540]",ColorTask,35.0,61.0,,,HRV,HRV_0149,2022-11-30 18:52:23
,wl-rdm,69,203362,0.0-6.61-0.61,0.0,66.0,,,,,,,[],,,,,,62.5,0.0,u,0.0,True,849.2999999523163,51.0,60.0,40.0,False,,294.0920715114577,[],"[960, 540]",ColorTask,36.0,62.0,,,HRV,HRV_0149,2022-11-30 18:52:23
,wl-rdm,70,205962,0.0-6.62-0.62,0.0,67.0,,,,,,,[],,,,,,53.2,0.0,i,1.0,False,1134.5000002384186,69.0,60.0,40.0,False,,397.0399131231785,[],"[960, 540]",ColorTask,35.0,63.0,,,HRV,HRV_0149,2022-11-30 18:52:23
,wl-rdm,71,208312,0.0-6.63-0.63,0.0,68.0,,,,,,,[],,,,,,53.2,0.0,u,0.0,True,971.9999997615814,59.0,60.0,40.0,False,,303.8924794483395,[],"[960, 540]",ColorTask,36.0,64.0,,,HRV,HRV_0149,2022-11-30 18:52:23
,wl-rdm,72,210996,0.0-6.64-0.64,0.0,69.0,,,,,,,[],,,,,,53.2,0.0,u,0.0,True,1261.7999999523163,76.0,60.0,40.0,False,,344.2692911222735,[],"[960, 540]",ColorTask,37.0,65.0,,,HRV,HRV_0149,2022-11-30 18:52:23
,wl-rdm,73,213179,0.0-6.65-0.65,0.0,70.0,,,,,,,[],,,,,,56.4,0.0,u,0.0,True,881.2999999523163,53.0,60.0,40.0,False,,244.21490665056652,[],"[960, 540]",ColorTask,38.0,66.0,,,HRV,HRV_0149,2022-11-30 18:52:23
,wl-rdm,74,215463,0.0-6.66-0.66,0.0,71.0,,,,,,,[],,,,,,62.5,0.0,u,0.0,True,909.2999999523163,55.0,60.0,40.0,False,,286.08044913206925,[],"[960, 540]",ColorTask,39.0,67.0,,,HRV,HRV_0149,2022-11-30 18:52:23
,wl-rdm,75,217696,0.0-6.67-0.67,0.0,72.0,,,,,,,[],,,,,,53.2,1.0,u,0.0,False,833.2999999523163,50.0,60.0,40.0,False,,333.03482012695156,[],"[960, 540]",ColorTask,38.0,68.0,,,HRV,HRV_0149,2022-11-30 18:52:23
,wl-rdm,76,219963,0.0-6.68-0.68,0.0,73.0,,,,,,,[],,,,,,56.4,1.0,u,0.0,False,905.8000001907349,55.0,60.0,40.0,False,,268.3642496760112,[],"[960, 540]",ColorTask,37.0,69.0,,,HRV,HRV_0149,2022-11-30 18:52:23
,wl-rdm,77,222313,0.0-6.69-0.69,0.0,74.0,,,,,,,[],,,,,,62.5,0.0,u,0.0,True,892.2000002861023,54.0,60.0,40.0,False,,381.9194612482995,[],"[960, 540]",ColorTask,38.0,70.0,,,HRV,HRV_0149,2022-11-30 18:52:23
,wl-rdm,78,224746,0.0-6.70-0.70,0.0,75.0,,,,,,,[],,,,,,50.0,0.0,i,1.0,False,973.7999999523163,59.0,60.0,40.0,False,,390.1540869961508,[],"[960, 540]",ColorTask,37.0,71.0,,,HRV,HRV_0149,2022-11-30 18:52:23
,wl-rdm,79,227096,0.0-6.71-0.71,0.0,76.0,,,,,,,[],,,,,,87.9,0.0,u,0.0,True,1021.9000000953674,62.0,60.0,40.0,False,,238.84176219881854,[],"[960, 540]",ColorTask,38.0,72.0,,,HRV,HRV_0149,2022-11-30 18:52:23
,wl-rdm,80,229563,0.0-6.72-0.72,0.0,77.0,,,,,,,[],,,,,,50.0,1.0,i,1.0,True,1155.5999999046326,70.0,60.0,40.0,False,,226.37815918664114,[],"[960, 540]",ColorTask,39.0,73.0,,,HRV,HRV_0149,2022-11-30 18:52:23
,wl-rdm,81,231813,0.0-6.73-0.73,0.0,78.0,,,,,,,[],,,,,,87.9,0.0,u,0.0,True,955.6000001430511,58.0,60.0,40.0,False,,206.1307337380729,[],"[960, 540]",ColorTask,40.0,74.0,,,HRV,HRV_0149,2022-11-30 18:52:23
,wl-rdm,82,234763,0.0-6.74-0.74,0.0,79.0,,,,,,,[],,,,,,73.6,1.0,i,1.0,True,1650.2000000476837,99.0,60.0,40.0,False,,218.42103088167897,[],"[960, 540]",ColorTask,41.0,75.0,,,HRV,HRV_0149,2022-11-30 18:52:23
,wl-rdm,83,237080,0.0-6.75-0.75,0.0,80.0,,,,,,,[],,,,,,53.2,1.0,i,1.0,True,998.8999998569489,60.0,60.0,40.0,False,,260.3094661368819,[],"[960, 540]",ColorTask,42.0,76.0,,,HRV,HRV_0149,2022-11-30 18:52:23
,wl-rdm,84,239480,0.0-6.76-0.76,0.0,81.0,,,,,,,[],,,,,,56.4,0.0,i,1.0,False,1085.3000001907349,66.0,60.0,40.0,False,,229.04757563092906,[],"[960, 540]",ColorTask,41.0,77.0,,,HRV,HRV_0149,2022-11-30 18:52:23
,wl-rdm,85,242030,0.0-6.77-0.77,0.0,82.0,,,,,,,[],,,,,,50.0,0.0,i,1.0,False,1275.7000002861023,77.0,60.0,40.0,False,,211.3699867818295,[],"[960, 540]",ColorTask,40.0,78.0,,,HRV,HRV_0149,2022-11-30 18:52:23
,wl-rdm,86,244697,0.0-6.78-0.78,0.0,83.0,,,,,,,[],,,,,,50.0,1.0,i,1.0,True,1368.7000000476837,83.0,60.0,40.0,False,,214.67786792963236,[],"[960, 540]",ColorTask,41.0,79.0,,,HRV,HRV_0149,2022-11-30 18:52:23
,wl-rdm,87,247113,0.0-6.79-0.79,0.0,84.0,,,,,,,[],,,,,,87.9,0.0,u,0.0,True,965.5999999046326,58.0,60.0,40.0,False,,382.70120458261516,[],"[960, 540]",ColorTask,42.0,80.0,,,HRV,HRV_0149,2022-11-30 18:52:23
,wl-rdm,88,249830,0.0-6.80-0.80,0.0,85.0,,,,,,,[],,,,,,53.2,1.0,i,1.0,True,1328.0,80.0,60.0,40.0,False,,321.201488772758,[],"[960, 540]",ColorTask,43.0,81.0,,,HRV,HRV_0149,2022-11-30 18:52:23
,wl-rdm,89,251947,0.0-6.81-0.81,0.0,86.0,,,,,,,[],,,,,,87.9,1.0,i,1.0,True,689.0,42.0,60.0,40.0,False,,335.8277815407339,[],"[960, 540]",ColorTask,44.0,82.0,,,HRV,HRV_0149,2022-11-30 18:52:23
,wl-rdm,90,254030,0.0-6.82-0.82,0.0,87.0,,,,,,,[],,,,,,56.4,1.0,u,0.0,False,627.3000001907349,38.0,60.0,40.0,False,,384.7914804312988,[],"[960, 540]",ColorTask,43.0,83.0,,,HRV,HRV_0149,2022-11-30 18:52:23
,wl-rdm,91,256014,0.0-6.83-0.83,0.0,88.0,,,,,,,[],,,,,,62.5,0.0,u,0.0,True,588.2000000476837,36.0,60.0,40.0,False,,316.4069990405614,[],"[960, 540]",ColorTask,44.0,84.0,,,HRV,HRV_0149,2022-11-30 18:52:23
,wl-rdm,92,258030,0.0-6.84-0.84,0.0,89.0,,,,,,,[],,,,,,73.6,0.0,u,0.0,True,612.2999999523163,37.0,60.0,40.0,False,,321.2068993450058,[],"[960, 540]",ColorTask,45.0,85.0,,,HRV,HRV_0149,2022-11-30 18:52:23
,wl-rdm,93,259997,0.0-6.85-0.85,0.0,90.0,,,,,,,[],,,,,,87.9,0.0,u,0.0,True,508.2999999523163,31.0,60.0,40.0,False,,377.82330072181054,[],"[960, 540]",ColorTask,46.0,86.0,,,HRV,HRV_0149,2022-11-30 18:52:23
,wl-rdm,94,262047,0.0-6.86-0.86,0.0,91.0,,,,,,,[],,,,,,62.5,1.0,i,1.0,True,728.8999998569489,44.0,60.0,40.0,False,,255.01646112485037,[],"[960, 540]",ColorTask,47.0,87.0,,,HRV,HRV_0149,2022-11-30 18:52:23
,wl-rdm,95,263880,0.0-6.87-0.87,0.0,92.0,,,,,,,[],,,,,,53.2,0.0,i,1.0,False,542.0999999046326,33.0,60.0,40.0,False,,204.135888287739,[],"[960, 540]",ColorTask,46.0,88.0,,,HRV,HRV_0149,2022-11-30 18:52:23
,wl-rdm,96,265930,0.0-6.88-0.88,0.0,93.0,,,,,,,[],,,,,,56.4,1.0,i,1.0,True,753.9000000953674,46.0,60.0,40.0,False,,220.4893335177957,[],"[960, 540]",ColorTask,47.0,89.0,,,HRV,HRV_0149,2022-11-30 18:52:23
,wl-rdm,97,268214,0.0-6.89-0.89,0.0,94.0,,,,,,,[],,,,,,73.6,0.0,u,0.0,True,836.5,51.0,60.0,40.0,False,,368.3630824258935,[],"[960, 540]",ColorTask,48.0,90.0,,,HRV,HRV_0149,2022-11-30 18:52:23
,wl-rdm,98,270347,0.0-6.90-0.90,0.0,95.0,,,,,,,[],,,,,,53.2,1.0,i,1.0,True,746.0,45.0,60.0,40.0,False,,311.7732035326587,[],"[960, 540]",ColorTask,49.0,91.0,,,HRV,HRV_0149,2022-11-30 18:52:23
,wl-rdm,99,272397,0.0-6.91-0.91,0.0,96.0,,,,,,,[],,,,,,53.2,1.0,u,0.0,False,745.0,45.0,60.0,40.0,False,,228.99828618632733,[],"[960, 540]",ColorTask,48.0,92.0,,,HRV,HRV_0149,2022-11-30 18:52:23
,wl-rdm,100,274547,0.0-6.92-0.92,0.0,97.0,,,,,,,[],,,,,,50.0,1.0,i,1.0,True,710.5,43.0,60.0,40.0,False,,368.0273454152694,[],"[960, 540]",ColorTask,49.0,93.0,,,HRV,HRV_0149,2022-11-30 18:52:23
,wl-rdm,101,276931,0.0-6.93-0.93,0.0,98.0,,,,,,,[],,,,,,62.5,0.0,u,0.0,True,928.2000000476837,56.0,60.0,40.0,False,,386.33235017499396,[],"[960, 540]",ColorTask,50.0,94.0,,,HRV,HRV_0149,2022-11-30 18:52:23
,wl-rdm,102,279231,0.0-6.94-0.94,0.0,99.0,,,,,,,[],,,,,,50.0,0.0,i,1.0,False,870.1000001430511,53.0,60.0,40.0,False,,334.22981255129974,[],"[960, 540]",ColorTask,49.0,95.0,,,HRV,HRV_0149,2022-11-30 18:52:23
,wl-rdm,103,281747,0.0-6.95-0.95,0.0,100.0,,,,,,,[],,,,,,73.6,1.0,u,0.0,False,1037.9000000953674,63.0,60.0,40.0,False,,398.19674365290444,[],"[960, 540]",ColorTask,48.0,96.0,,,HRV,HRV_0149,2022-11-30 18:52:23
,wl-rdm,104,284347,0.0-6.96-0.96,0.0,101.0,,,,,,,[],,,,,,56.4,1.0,u,0.0,False,1249.2999999523163,75.0,60.0,40.0,False,,266.8833221564945,[],"[960, 540]",ColorTask,47.0,97.0,,,HRV,HRV_0149,2022-11-30 18:52:23
,wl-rdm,105,286547,0.0-6.97-0.97,0.0,102.0,,,,,,,[],,,,,,53.2,0.0,u,0.0,True,911.2000000476837,55.0,60.0,40.0,False,,205.3738372351881,[],"[960, 540]",ColorTask,48.0,98.0,,,HRV,HRV_0149,2022-11-30 18:52:23
,wl-rdm,106,288764,0.0-6.98-0.98,0.0,103.0,,,,,,,[],,,,,,62.5,1.0,i,1.0,True,756.7999999523163,46.0,60.0,40.0,False,,383.8887000533673,[],"[960, 540]",ColorTask,49.0,99.0,,,HRV,HRV_0149,2022-11-30 18:52:23
,wl-rdm,107,291130,0.0-6.99-0.99,0.0,104.0,,,,,,,[],,,,,,56.4,0.0,i,1.0,False,1051.0,64.0,60.0,40.0,False,,237.06166788851957,[],"[960, 540]",ColorTask,48.0,100.0,,,HRV,HRV_0149,2022-11-30 18:52:23
,wl-rdm,108,293514,0.0-6.100-0.100,0.0,105.0,,,,,,,[],,,,,,73.6,1.0,i,1.0,True,991.900000333786,60.0,60.0,40.0,False,,302.0265750264463,[],"[960, 540]",ColorTask,49.0,101.0,,,HRV,HRV_0149,2022-11-30 18:52:23
,wl-rdm,109,296031,0.0-6.101-0.101,0.0,106.0,,,,,,,[],,,,,,50.0,1.0,u,0.0,False,1151.5999999046326,70.0,60.0,40.0,False,,285.91459270133714,[],"[960, 540]",ColorTask,48.0,102.0,,,HRV,HRV_0149,2022-11-30 18:52:23
,wl-rdm,110,298297,0.0-6.102-0.102,0.0,107.0,,,,,,,[],,,,,,62.5,0.0,u,0.0,True,919.5,56.0,60.0,40.0,False,,270.33129249002496,[],"[960, 540]",ColorTask,49.0,103.0,,,HRV,HRV_0149,2022-11-30 18:52:23
,wl-rdm,111,300980,0.0-6.103-0.103,0.0,108.0,,,,,,,[],,,,,,50.0,0.0,u,0.0,True,1219.2000002861023,74.0,60.0,40.0,False,,392.4746755259911,[],"[960, 540]",ColorTask,50.0,104.0,,,HRV,HRV_0149,2022-11-30 18:52:23
,wl-rdm,112,303231,0.0-6.104-0.104,0.0,109.0,,,,,,,[],,,,,,50.0,0.0,u,0.0,True,928.2000000476837,56.0,60.0,40.0,False,,266.3247986775377,[],"[960, 540]",ColorTask,51.0,105.0,,,HRV,HRV_0149,2022-11-30 18:52:23
,wl-rdm,113,305564,0.0-6.105-0.105,0.0,110.0,,,,,,,[],,,,,,53.2,1.0,u,0.0,False,920.7999999523163,56.0,60.0,40.0,False,,321.6507813057498,[],"[960, 540]",ColorTask,50.0,106.0,,,HRV,HRV_0149,2022-11-30 18:52:23
,wl-rdm,114,307881,0.0-6.106-0.106,0.0,111.0,,,,,,,[],,,,,,56.4,0.0,u,0.0,True,967.6000001430511,59.0,60.0,40.0,False,,255.53444882015185,[],"[960, 540]",ColorTask,51.0,107.0,,,HRV,HRV_0149,2022-11-30 18:52:23
,wl-rdm,115,310064,0.0-6.107-0.107,0.0,112.0,,,,,,,[],,,,,,62.5,1.0,i,1.0,True,765.5,46.0,60.0,40.0,False,,357.9951694513578,[],"[960, 540]",ColorTask,52.0,108.0,,,HRV,HRV_0149,2022-11-30 18:52:23
,wl-rdm,116,312447,0.0-6.108-0.108,0.0,113.0,,,,,,,[],,,,,,50.0,1.0,i,1.0,True,960.5,58.0,60.0,40.0,False,,338.7200338118822,[],"[960, 540]",ColorTask,53.0,109.0,,,HRV,HRV_0149,2022-11-30 18:52:23
,wl-rdm,117,314614,0.0-6.109-0.109,0.0,114.0,,,,,,,[],,,,,,87.9,1.0,i,1.0,True,888.1000001430511,54.0,60.0,40.0,False,,210.44407024558987,[],"[960, 540]",ColorTask,54.0,110.0,,,HRV,HRV_0149,2022-11-30 18:52:23
,wl-rdm,118,316614,0.0-6.110-0.110,0.0,115.0,,,,,,,[],,,,,,87.9,1.0,i,1.0,True,625.2999999523163,38.0,60.0,40.0,False,,294.69144040631573,[],"[960, 540]",ColorTask,55.0,111.0,,,HRV,HRV_0149,2022-11-30 18:52:23
,wl-rdm,119,318847,0.0-6.111-0.111,0.0,116.0,,,,,,,[],,,,,,50.0,0.0,u,0.0,True,790.2000000476837,48.0,60.0,40.0,False,,363.2458410724755,[],"[960, 540]",ColorTask,56.0,112.0,,,HRV,HRV_0149,2022-11-30 18:52:23
,wl-html-keyboard-response,120,327628,0.0-7.0-0.0,1.0,117.0,,,,,,,,6771.799999952316,1.0,0,,,,,,,,,,,,,,,,,,,,,,HRV,HRV_0149,2022-11-30 18:52:23
,wl-rdm,121,329565,0.0-8.0-0.0,1.0,118.0,,,,,,,[],,,,,,87.9,1.0,i,1.0,True,662.4000000953674,40.0,60.0,40.0,False,,205.60165040063055,[],"[960, 540]",ColorTask,57.0,1.0,,,HRV,HRV_0149,2022-11-30 18:52:23
,wl-rdm,122,331764,0.0-8.1-0.1,1.0,119.0,,,,,,,[],,,,,,62.5,0.0,u,0.0,True,836.2000000476837,51.0,60.0,40.0,False,,285.42384818332374,[],"[960, 540]",ColorTask,58.0,2.0,,,HRV,HRV_0149,2022-11-30 18:52:23
,wl-rdm,123,333781,0.0-8.2-0.2,1.0,120.0,,,,,,,[],,,,,,62.5,0.0,u,0.0,True,657.7000000476837,40.0,60.0,40.0,False,,294.3468710134285,[],"[960, 540]",ColorTask,59.0,3.0,,,HRV,HRV_0149,2022-11-30 18:52:23
,wl-rdm,124,335981,0.0-8.3-0.3,1.0,121.0,,,,,,,[],,,,,,50.0,0.0,u,0.0,True,796.5999999046326,48.0,60.0,40.0,False,,338.43854196516713,[],"[960, 540]",ColorTask,60.0,4.0,,,HRV,HRV_0149,2022-11-30 18:52:23
,wl-rdm,125,338031,0.0-8.4-0.4,1.0,122.0,,,,,,,[],,,,,,73.6,0.0,i,1.0,False,714.4999997615814,43.0,60.0,40.0,False,,268.5115970459048,[],"[960, 540]",ColorTask,59.0,5.0,,,HRV,HRV_0149,2022-11-30 18:52:23
,wl-rdm,126,340131,0.0-8.5-0.5,1.0,123.0,,,,,,,[],,,,,,87.9,1.0,i,1.0,True,684.5,42.0,60.0,40.0,False,,348.9438742445386,[],"[960, 540]",ColorTask,60.0,6.0,,,HRV,HRV_0149,2022-11-30 18:52:23
,wl-rdm,127,342415,0.0-8.6-0.6,1.0,124.0,,,,,,,[],,,,,,62.5,0.0,i,1.0,False,880.0000002384186,53.0,60.0,40.0,False,,329.76595074626084,[],"[960, 540]",ColorTask,59.0,7.0,,,HRV,HRV_0149,2022-11-30 18:52:23
,wl-rdm,128,344565,0.0-8.7-0.7,1.0,125.0,,,,,,,[],,,,,,53.2,1.0,i,1.0,True,844.8999998569489,51.0,60.0,40.0,False,,246.3937544838147,[],"[960, 540]",ColorTask,60.0,8.0,,,HRV,HRV_0149,2022-11-30 18:52:23
,wl-rdm,129,346665,0.0-8.8-0.8,1.0,126.0,,,,,,,[],,,,,,53.2,0.0,i,1.0,False,703.9000000953674,43.0,60.0,40.0,False,,321.78191904460544,[],"[960, 540]",ColorTask,59.0,9.0,,,HRV,HRV_0149,2022-11-30 18:52:23
,wl-rdm,130,348815,0.0-8.9-0.9,1.0,127.0,,,,,,,[],,,,,,87.9,1.0,i,1.0,True,818.5,50.0,60.0,40.0,False,,254.3086902890535,[],"[960, 540]",ColorTask,60.0,10.0,,,HRV,HRV_0149,2022-11-30 18:52:23
,wl-rdm,131,351265,0.0-8.10-0.10,1.0,128.0,,,,,,,[],,,,,,56.4,1.0,u,0.0,False,1168.7999999523163,71.0,60.0,40.0,False,,200.4977928463585,[],"[960, 540]",ColorTask,59.0,11.0,,,HRV,HRV_0149,2022-11-30 18:52:23
,wl-rdm,132,353598,0.0-8.11-0.11,1.0,129.0,,,,,,,[],,,,,,50.0,0.0,u,0.0,True,985.3999998569489,60.0,60.0,40.0,False,,279.3506104473141,[],"[960, 540]",ColorTask,60.0,12.0,,,HRV,HRV_0149,2022-11-30 18:52:23
,wl-rdm,133,355832,0.0-8.12-0.12,1.0,130.0,,,,,,,[],,,,,,50.0,0.0,u,0.0,True,921.9000000953674,56.0,60.0,40.0,False,,241.4113793184825,[],"[960, 540]",ColorTask,61.0,13.0,,,HRV,HRV_0149,2022-11-30 18:52:23
,wl-rdm,134,357782,0.0-8.13-0.13,1.0,131.0,,,,,,,[],,,,,,56.4,0.0,u,0.0,True,644.2999997138977,39.0,60.0,40.0,False,,219.81316767473427,[],"[960, 540]",ColorTask,62.0,14.0,,,HRV,HRV_0149,2022-11-30 18:52:23
,wl-rdm,135,359882,0.0-8.14-0.14,1.0,132.0,,,,,,,[],,,,,,53.2,1.0,u,0.0,False,803.0,49.0,60.0,40.0,False,,219.73067703574222,[],"[960, 540]",ColorTask,61.0,15.0,,,HRV,HRV_0149,2022-11-30 18:52:23
,wl-rdm,136,362199,0.0-8.15-0.15,1.0,133.0,,,,,,,[],,,,,,62.5,0.0,u,0.0,True,920.5,56.0,60.0,40.0,False,,319.24088686702015,[],"[960, 540]",ColorTask,62.0,16.0,,,HRV,HRV_0149,2022-11-30 18:52:23
,wl-rdm,137,364282,0.0-8.16-0.16,1.0,134.0,,,,,,,[],,,,,,50.0,0.0,u,0.0,True,726.8999998569489,44.0,60.0,40.0,False,,282.2276192655395,[],"[960, 540]",ColorTask,63.0,17.0,,,HRV,HRV_0149,2022-11-30 18:52:23
,wl-rdm,138,366882,0.0-8.17-0.17,1.0,135.0,,,,,,,[],,,,,,73.6,1.0,u,0.0,False,1191.7000002861023,72.0,60.0,40.0,False,,339.93075380358454,[],"[960, 540]",ColorTask,62.0,18.0,,,HRV,HRV_0149,2022-11-30 18:52:23
,wl-rdm,139,368732,0.0-8.18-0.18,1.0,136.0,,,,,,,[],,,,,,56.4,1.0,i,1.0,True,525.1000001430511,32.0,60.0,40.0,False,,235.47974334430353,[],"[960, 540]",ColorTask,63.0,19.0,,,HRV,HRV_0149,2022-11-30 18:52:23
,wl-rdm,140,370948,0.0-8.19-0.19,1.0,137.0,,,,,,,[],,,,,,73.6,1.0,i,1.0,True,800.2000000476837,48.0,60.0,40.0,False,,345.6854931287003,[],"[960, 540]",ColorTask,64.0,20.0,,,HRV,HRV_0149,2022-11-30 18:52:23
,wl-rdm,141,373732,0.0-8.20-0.20,1.0,138.0,,,,,,,[],,,,,,56.4,0.0,u,0.0,True,1420.0999999046326,86.0,60.0,40.0,False,,267.1188516533542,[],"[960, 540]",ColorTask,65.0,21.0,,,HRV,HRV_0149,2022-11-30 18:52:23
,wl-rdm,142,377615,0.0-8.21-0.21,1.0,139.0,,,,,,,[],,,,,,73.6,0.0,u,0.0,True,2597.5000002384186,156.0,60.0,40.0,False,,231.23378732014345,[],"[960, 540]",ColorTask,66.0,22.0,,,HRV,HRV_0149,2022-11-30 18:52:23
,wl-rdm,143,380716,0.0-8.22-0.22,1.0,140.0,,,,,,,[],,,,,,56.4,0.0,u,0.0,True,1637.2000000476837,99.0,60.0,40.0,False,,399.95122608645,[],"[960, 540]",ColorTask,67.0,23.0,,,HRV,HRV_0149,2022-11-30 18:52:23
,wl-rdm,144,383549,0.0-8.23-0.23,1.0,141.0,,,,,,,[],,,,,,73.6,1.0,u,0.0,False,1497.7000000476837,90.0,60.0,40.0,False,,257.8945964666271,[],"[960, 540]",ColorTask,66.0,24.0,,,HRV,HRV_0149,2022-11-30 18:52:23
,wl-rdm,145,385815,0.0-8.24-0.24,1.0,142.0,,,,,,,[],,,,,,50.0,0.0,i,1.0,False,901.5999999046326,55.0,60.0,40.0,False,,289.3294701451694,[],"[960, 540]",ColorTask,65.0,25.0,,,HRV,HRV_0149,2022-11-30 18:52:23
,wl-rdm,146,390049,0.0-8.25-0.25,1.0,143.0,,,,,,,[],,,,,,87.9,1.0,u,0.0,False,2919.899999856949,176.0,60.0,40.0,False,,249.02592236288496,[],"[960, 540]",ColorTask,64.0,26.0,,,HRV,HRV_0149,2022-11-30 18:52:23
,wl-rdm,147,392049,0.0-8.26-0.26,1.0,144.0,,,,,,,[],,,,,,87.9,1.0,i,1.0,True,717.6999998092651,44.0,60.0,40.0,False,,200.83351802863143,[],"[960, 540]",ColorTask,65.0,27.0,,,HRV,HRV_0149,2022-11-30 18:52:23
,wl-rdm,148,396466,0.0-8.27-0.27,1.0,144.0,,,,,,,[],,,,,,53.2,0.0,u,,,3193.899999856949,179.0,60.0,40.0,True,RT_timeout ,316.89444521138176,[],"[960, 540]",ColorTask,64.0,28.0,,,HRV,HRV_0149,2022-11-30 18:52:23
,wl-rdm,149,398999,0.0-8.28-0.28,1.0,145.0,,,,,,,[],,,,,,87.9,0.0,u,0.0,True,1214.8999998569489,73.0,60.0,40.0,False,,235.3403396064115,[],"[960, 540]",ColorTask,65.0,29.0,,,HRV,HRV_0149,2022-11-30 18:52:23
,wl-rdm,150,402399,0.0-8.29-0.29,1.0,146.0,,,,,,,[],,,,,,73.6,0.0,i,1.0,False,2062.100000143051,124.0,60.0,40.0,False,,267.801809498544,[],"[960, 540]",ColorTask,64.0,30.0,,,HRV,HRV_0149,2022-11-30 18:52:23
,wl-rdm,151,404699,0.0-8.30-0.30,1.0,147.0,,,,,,,[],,,,,,87.9,1.0,i,1.0,True,959.6000001430511,58.0,60.0,40.0,False,,280.49277546574694,[],"[960, 540]",ColorTask,65.0,31.0,,,HRV,HRV_0149,2022-11-30 18:52:23
,wl-rdm,152,407316,0.0-8.31-0.31,1.0,148.0,,,,,,,[],,,,,,50.0,1.0,u,0.0,False,1310.5999999046326,79.0,60.0,40.0,False,,236.99003144564614,[],"[960, 540]",ColorTask,64.0,32.0,,,HRV,HRV_0149,2022-11-30 18:52:23
,wl-rdm,153,410082,0.0-8.32-0.32,1.0,149.0,,,,,,,[],,,,,,53.2,0.0,i,1.0,False,1336.0,81.0,60.0,40.0,False,,361.80316594473754,[],"[960, 540]",ColorTask,63.0,33.0,,,HRV,HRV_0149,2022-11-30 18:52:23
,wl-rdm,154,412583,0.0-8.33-0.33,1.0,150.0,,,,,,,[],,,,,,56.4,1.0,i,1.0,True,1138.0,69.0,60.0,40.0,False,,285.3752570104905,[],"[960, 540]",ColorTask,64.0,34.0,,,HRV,HRV_0149,2022-11-30 18:52:23
,wl-rdm,155,414849,0.0-8.34-0.34,1.0,151.0,,,,,,,[],,,,,,62.5,1.0,i,1.0,True,854.7999999523163,52.0,60.0,40.0,False,,333.9004135137998,[],"[960, 540]",ColorTask,65.0,35.0,,,HRV,HRV_0149,2022-11-30 18:52:23
,wl-rdm,156,416916,0.0-8.35-0.35,1.0,152.0,,,,,,,[],,,,,,50.0,1.0,i,1.0,True,662.6000001430511,40.0,60.0,40.0,False,,346.61411574580893,[],"[960, 540]",ColorTask,66.0,36.0,,,HRV,HRV_0149,2022-11-30 18:52:23
,wl-rdm,157,419049,0.0-8.36-0.36,1.0,153.0,,,,,,,[],,,,,,53.2,0.0,i,1.0,False,678.8000001907349,41.0,60.0,40.0,False,,393.61862365954573,[],"[960, 540]",ColorTask,65.0,37.0,,,HRV,HRV_0149,2022-11-30 18:52:23
,wl-rdm,158,421316,0.0-8.37-0.37,1.0,154.0,,,,,,,[],,,,,,62.5,0.0,i,1.0,False,884.3000001907349,54.0,60.0,40.0,False,,311.090289874917,[],"[960, 540]",ColorTask,64.0,38.0,,,HRV,HRV_0149,2022-11-30 18:52:23
,wl-rdm,159,423483,0.0-8.38-0.38,1.0,155.0,,,,,,,[],,,,,,87.9,0.0,u,0.0,True,898.0,54.0,60.0,40.0,False,,211.9701782452019,[],"[960, 540]",ColorTask,65.0,39.0,,,HRV,HRV_0149,2022-11-30 18:52:23
,wl-rdm,160,425616,0.0-8.39-0.39,1.0,156.0,,,,,,,[],,,,,,53.2,0.0,u,0.0,True,794.8999998569489,48.0,60.0,40.0,False,,272.83083040019244,[],"[960, 540]",ColorTask,66.0,40.0,,,HRV,HRV_0149,2022-11-30 18:52:23
,wl-rdm,161,427633,0.0-8.40-0.40,1.0,157.0,,,,,,,[],,,,,,62.5,0.0,u,0.0,True,721.2000000476837,44.0,60.0,40.0,False,,228.68001373605273,[],"[960, 540]",ColorTask,67.0,41.0,,,HRV,HRV_0149,2022-11-30 18:52:23
,wl-rdm,162,429583,0.0-8.41-0.41,1.0,158.0,,,,,,,[],,,,,,87.9,0.0,u,0.0,True,630.4000000953674,38.0,60.0,40.0,False,,264.01169967593523,[],"[960, 540]",ColorTask,68.0,42.0,,,HRV,HRV_0149,2022-11-30 18:52:23
,wl-rdm,163,431732,0.0-8.42-0.42,1.0,159.0,,,,,,,[],,,,,,50.0,0.0,i,1.0,False,832.3000001907349,50.0,60.0,40.0,False,,262.1496612683798,[],"[960, 540]",ColorTask,67.0,43.0,,,HRV,HRV_0149,2022-11-30 18:52:23
,wl-rdm,164,433866,0.0-8.43-0.43,1.0,160.0,,,,,,,[],,,,,,53.2,0.0,i,1.0,False,782.7000000476837,47.0,60.0,40.0,False,,293.47474857531665,[],"[960, 540]",ColorTask,66.0,44.0,,,HRV,HRV_0149,2022-11-30 18:52:23
,wl-rdm,165,435716,0.0-8.44-0.44,1.0,161.0,,,,,,,[],,,,,,62.5,1.0,i,1.0,True,510.7999999523163,31.0,60.0,40.0,False,,280.5303965824044,[],"[960, 540]",ColorTask,67.0,45.0,,,HRV,HRV_0149,2022-11-30 18:52:23
,wl-rdm,166,437366,0.0-8.45-0.45,1.0,162.0,,,,,,,[],,,,,,56.4,1.0,i,1.0,True,358.0,22.0,60.0,40.0,False,,217.99507385861904,[],"[960, 540]",ColorTask,68.0,46.0,,,HRV,HRV_0149,2022-11-30 18:52:23
,wl-rdm,167,439433,0.0-8.46-0.46,1.0,163.0,,,,,,,[],,,,,,53.2,0.0,i,1.0,False,712.3999998569489,43.0,60.0,40.0,False,,292.8920745586928,[],"[960, 540]",ColorTask,67.0,47.0,,,HRV,HRV_0149,2022-11-30 18:52:23
,wl-rdm,168,441166,0.0-8.47-0.47,1.0,164.0,,,,,,,[],,,,,,56.4,1.0,u,0.0,False,336.7000000476837,21.0,60.0,40.0,False,,325.30072004425165,[],"[960, 540]",ColorTask,66.0,48.0,,,HRV,HRV_0149,2022-11-30 18:52:23
,wl-rdm,169,442966,0.0-8.48-0.48,1.0,165.0,,,,,,,[],,,,,,50.0,1.0,u,0.0,False,408.7000000476837,25.0,60.0,40.0,False,,329.8800406434723,[],"[960, 540]",ColorTask,65.0,49.0,,,HRV,HRV_0149,2022-11-30 18:52:23
,wl-rdm,170,445050,0.0-8.49-0.49,1.0,166.0,,,,,,,[],,,,,,73.6,1.0,i,1.0,True,778.1000001430511,47.0,60.0,40.0,False,,242.1521855127174,[],"[960, 540]",ColorTask,66.0,50.0,,,HRV,HRV_0149,2022-11-30 18:52:23
,wl-rdm,171,447666,0.0-8.50-0.50,1.0,167.0,,,,,,,[],,,,,,62.5,1.0,i,1.0,True,1248.5,75.0,60.0,40.0,False,,310.0074165712332,[],"[960, 540]",ColorTask,67.0,51.0,,,HRV,HRV_0149,2022-11-30 18:52:23
,wl-rdm,172,449850,0.0-8.51-0.51,1.0,168.0,,,,,,,[],,,,,,56.4,0.0,i,1.0,False,860.5,52.0,60.0,40.0,False,,250.75930718308604,[],"[960, 540]",ColorTask,66.0,52.0,,,HRV,HRV_0149,2022-11-30 18:52:23
,wl-rdm,173,452233,0.0-8.52-0.52,1.0,169.0,,,,,,,[],,,,,,50.0,0.0,i,1.0,False,919.4000000953674,56.0,60.0,40.0,False,,399.5653218274067,[],"[960, 540]",ColorTask,65.0,53.0,,,HRV,HRV_0149,2022-11-30 18:52:23
,wl-rdm,174,454366,0.0-8.53-0.53,1.0,170.0,,,,,,,[],,,,,,53.2,0.0,i,1.0,False,709.3999998569489,43.0,60.0,40.0,False,,350.88119836754726,[],"[960, 540]",ColorTask,64.0,54.0,,,HRV,HRV_0149,2022-11-30 18:52:23
,wl-rdm,175,456650,0.0-8.54-0.54,1.0,171.0,,,,,,,[],,,,,,56.4,1.0,u,0.0,False,854.5999999046326,52.0,60.0,40.0,False,,364.014987738203,[],"[960, 540]",ColorTask,63.0,55.0,,,HRV,HRV_0149,2022-11-30 18:52:23
,wl-rdm,176,458716,0.0-8.55-0.55,1.0,172.0,,,,,,,[],,,,,,73.6,0.0,u,0.0,True,751.0999999046326,46.0,60.0,40.0,False,,236.34511987070613,[],"[960, 540]",ColorTask,64.0,56.0,,,HRV,HRV_0149,2022-11-30 18:52:23
,wl-rdm,177,460766,0.0-8.56-0.56,1.0,173.0,,,,,,,[],,,,,,50.0,1.0,u,0.0,False,692.6000001430511,42.0,60.0,40.0,False,,299.6294820524807,[],"[960, 540]",ColorTask,63.0,57.0,,,HRV,HRV_0149,2022-11-30 18:52:23
,wl-rdm,178,463067,0.0-8.57-0.57,1.0,174.0,,,,,,,[],,,,,,50.0,1.0,u,0.0,False,1021.0000002384186,62.0,60.0,40.0,False,,200.03067883061775,[],"[960, 540]",ColorTask,62.0,58.0,,,HRV,HRV_0149,2022-11-30 18:52:23
,wl-rdm,179,466333,0.0-8.58-0.58,1.0,175.0,,,,,,,[],,,,,,53.2,1.0,i,1.0,True,1998.5,120.0,60.0,40.0,False,,204.7396808860686,[],"[960, 540]",ColorTask,63.0,59.0,,,HRV,HRV_0149,2022-11-30 18:52:23
,wl-rdm,180,468983,0.0-8.59-0.59,1.0,176.0,,,,,,,[],,,,,,87.9,0.0,u,0.0,True,1221.2000000476837,74.0,60.0,40.0,False,,356.3111741079946,[],"[960, 540]",ColorTask,64.0,60.0,,,HRV,HRV_0149,2022-11-30 18:52:23
,wl-rdm,181,471666,0.0-8.60-0.60,1.0,177.0,,,,,,,[],,,,,,73.6,0.0,u,0.0,True,1252.0999999046326,76.0,60.0,40.0,False,,351.5107320124218,[],"[960, 540]",ColorTask,65.0,61.0,,,HRV,HRV_0149,2022-11-30 18:52:23
,wl-rdm,182,474067,0.0-8.61-0.61,1.0,178.0,,,,,,,[],,,,,,73.6,0.0,u,0.0,True,1001.2000000476837,61.0,60.0,40.0,False,,331.87055931123757,[],"[960, 540]",ColorTask,66.0,62.0,,,HRV,HRV_0149,2022-11-30 18:52:23
,wl-rdm,183,476350,0.0-8.62-0.62,1.0,179.0,,,,,,,[],,,,,,62.5,1.0,i,1.0,True,1011.7999999523163,61.0,60.0,40.0,False,,205.14774614209608,[],"[960, 540]",ColorTask,67.0,63.0,,,HRV,HRV_0149,2022-11-30 18:52:23
,wl-rdm,184,478550,0.0-8.63-0.63,1.0,180.0,,,,,,,[],,,,,,87.9,0.0,u,0.0,True,857.9000000953674,52.0,60.0,40.0,False,,265.63737164045017,[],"[960, 540]",ColorTask,68.0,64.0,,,HRV,HRV_0149,2022-11-30 18:52:23
,wl-rdm,185,480850,0.0-8.64-0.64,1.0,181.0,,,,,,,[],,,,,,53.2,1.0,u,0.0,False,893.0,54.0,60.0,40.0,False,,343.7479737412889,[],"[960, 540]",ColorTask,67.0,65.0,,,HRV,HRV_0149,2022-11-30 18:52:23
,wl-rdm,186,483233,0.0-8.65-0.65,1.0,182.0,,,,,,,[],,,,,,87.9,0.0,u,0.0,True,1059.5999999046326,64.0,60.0,40.0,False,,252.33761773595478,[],"[960, 540]",ColorTask,68.0,66.0,,,HRV,HRV_0149,2022-11-30 18:52:23
,wl-rdm,187,486267,0.0-8.66-0.66,1.0,183.0,,,,,,,[],,,,,,62.5,0.0,i,1.0,False,1603.7999999523163,97.0,60.0,40.0,False,,363.88375554915734,[],"[960, 540]",ColorTask,67.0,67.0,,,HRV,HRV_0149,2022-11-30 18:52:23
,wl-rdm,188,488733,0.0-8.67-0.67,1.0,184.0,,,,,,,[],,,,,,50.0,1.0,i,1.0,True,1193.8999998569489,72.0,60.0,40.0,False,,211.09648301863433,[],"[960, 540]",ColorTask,68.0,68.0,,,HRV,HRV_0149,2022-11-30 18:52:23
,wl-rdm,189,491150,0.0-8.68-0.68,1.0,185.0,,,,,,,[],,,,,,73.6,1.0,i,1.0,True,1003.6000001430511,61.0,60.0,40.0,False,,341.4676183352615,[],"[960, 540]",ColorTask,69.0,69.0,,,HRV,HRV_0149,2022-11-30 18:52:23
,wl-rdm,190,493483,0.0-8.69-0.69,1.0,186.0,,,,,,,[],,,,,,56.4,1.0,i,1.0,True,902.9000000953674,55.0,60.0,40.0,False,,365.3782743589915,[],"[960, 540]",ColorTask,70.0,70.0,,,HRV,HRV_0149,2022-11-30 18:52:23
,wl-rdm,191,495583,0.0-8.70-0.70,1.0,187.0,,,,,,,[],,,,,,62.5,1.0,i,1.0,True,770.099999666214,47.0,60.0,40.0,False,,262.79081740438454,[],"[960, 540]",ColorTask,71.0,71.0,,,HRV,HRV_0149,2022-11-30 18:52:23
,wl-rdm,192,497817,0.0-8.71-0.71,1.0,188.0,,,,,,,[],,,,,,62.5,1.0,i,1.0,True,916.0,55.0,60.0,40.0,False,,250.06122403483766,[],"[960, 540]",ColorTask,72.0,72.0,,,HRV,HRV_0149,2022-11-30 18:52:23
,wl-rdm,193,499867,0.0-8.72-0.72,1.0,189.0,,,,,,,[],,,,,,73.6,1.0,i,1.0,True,763.4000000953674,46.0,60.0,40.0,False,,224.75907413901942,[],"[960, 540]",ColorTask,73.0,73.0,,,HRV,HRV_0149,2022-11-30 18:52:23
,wl-rdm,194,502284,0.0-8.73-0.73,1.0,190.0,,,,,,,[],,,,,,53.2,0.0,u,0.0,True,1039.5,63.0,60.0,40.0,False,,309.6046634843852,[],"[960, 540]",ColorTask,74.0,74.0,,,HRV,HRV_0149,2022-11-30 18:52:23
,wl-rdm,195,505234,0.0-8.74-0.74,1.0,191.0,,,,,,,[],,,,,,53.2,1.0,u,0.0,False,1589.5999999046326,96.0,60.0,40.0,False,,269.75803937177074,[],"[960, 540]",ColorTask,73.0,75.0,,,HRV,HRV_0149,2022-11-30 18:52:23
,wl-rdm,196,507634,0.0-8.75-0.75,1.0,192.0,,,,,,,[],,,,,,56.4,1.0,i,1.0,True,1098.2999999523163,66.0,60.0,40.0,False,,246.88985578218148,[],"[960, 540]",ColorTask,74.0,76.0,,,HRV,HRV_0149,2022-11-30 18:52:23
,wl-rdm,197,509934,0.0-8.76-0.76,1.0,193.0,,,,,,,[],,,,,,53.2,1.0,i,1.0,True,985.2999999523163,60.0,60.0,40.0,False,,242.9576815686044,[],"[960, 540]",ColorTask,75.0,77.0,,,HRV,HRV_0149,2022-11-30 18:52:23
,wl-rdm,198,512117,0.0-8.77-0.77,1.0,194.0,,,,,,,[],,,,,,87.9,0.0,u,0.0,True,844.3999998569489,51.0,60.0,40.0,False,,274.73396299710873,[],"[960, 540]",ColorTask,76.0,78.0,,,HRV,HRV_0149,2022-11-30 18:52:23
,wl-rdm,199,514150,0.0-8.78-0.78,1.0,195.0,,,,,,,[],,,,,,87.9,0.0,u,0.0,True,764.5999999046326,46.0,60.0,40.0,False,,210.4471635644233,[],"[960, 540]",ColorTask,77.0,79.0,,,HRV,HRV_0149,2022-11-30 18:52:23
,wl-rdm,200,516834,0.0-8.79-0.79,1.0,196.0,,,,,,,[],,,,,,50.0,1.0,u,0.0,False,1230.9000000953674,74.0,60.0,40.0,False,,392.7845231071325,[],"[960, 540]",ColorTask,76.0,80.0,,,HRV,HRV_0149,2022-11-30 18:52:23
,wl-rdm,201,518717,0.0-8.80-0.80,1.0,197.0,,,,,,,[],,,,,,53.2,1.0,i,1.0,True,601.1999998092651,37.0,60.0,40.0,False,,200.87239832674348,[],"[960, 540]",ColorTask,77.0,81.0,,,HRV,HRV_0149,2022-11-30 18:52:23
,wl-rdm,202,520800,0.0-8.81-0.81,1.0,198.0,,,,,,,[],,,,,,73.6,0.0,u,0.0,True,694.8999998569489,42.0,60.0,40.0,False,,325.8020215691537,[],"[960, 540]",ColorTask,78.0,82.0,,,HRV,HRV_0149,2022-11-30 18:52:23
,wl-rdm,203,523034,0.0-8.82-0.82,1.0,199.0,,,,,,,[],,,,,,87.9,1.0,i,1.0,True,837.0,51.0,60.0,40.0,False,,312.36233445398005,[],"[960, 540]",ColorTask,79.0,83.0,,,HRV,HRV_0149,2022-11-30 18:52:23
,wl-rdm,204,525017,0.0-8.83-0.83,1.0,200.0,,,,,,,[],,,,,,73.6,1.0,i,1.0,True,658.6000001430511,40.0,60.0,40.0,False,,260.85305576207145,[],"[960, 540]",ColorTask,80.0,84.0,,,HRV,HRV_0149,2022-11-30 18:52:23
,wl-rdm,205,527150,0.0-8.84-0.84,1.0,201.0,,,,,,,[],,,,,,56.4,0.0,u,0.0,True,762.7000000476837,46.0,60.0,40.0,False,,302.16393625242836,[],"[960, 540]",ColorTask,81.0,85.0,,,HRV,HRV_0149,2022-11-30 18:52:23
,wl-rdm,206,529367,0.0-8.85-0.85,1.0,202.0,,,,,,,[],,,,,,62.5,1.0,i,1.0,True,827.9000000953674,50.0,60.0,40.0,False,,326.2473162369294,[],"[960, 540]",ColorTask,82.0,86.0,,,HRV,HRV_0149,2022-11-30 18:52:23
,wl-rdm,207,531284,0.0-8.86-0.86,1.0,203.0,,,,,,,[],,,,,,53.2,1.0,i,1.0,True,623.1000001430511,38.0,60.0,40.0,False,,220.55523714458084,[],"[960, 540]",ColorTask,83.0,87.0,,,HRV,HRV_0149,2022-11-30 18:52:23
,wl-rdm,208,533451,0.0-8.87-0.87,1.0,204.0,,,,,,,[],,,,,,62.5,0.0,u,0.0,True,853.8999998569489,52.0,60.0,40.0,False,,234.34098292412753,[],"[960, 540]",ColorTask,84.0,88.0,,,HRV,HRV_0149,2022-11-30 18:52:23
,wl-rdm,209,535601,0.0-8.88-0.88,1.0,205.0,,,,,,,[],,,,,,50.0,1.0,u,0.0,False,842.8000001907349,51.0,60.0,40.0,False,,249.08269909136934,[],"[960, 540]",ColorTask,83.0,89.0,,,HRV,HRV_0149,2022-11-30 18:52:23
,wl-rdm,210,537784,0.0-8.89-0.89,1.0,206.0,,,,,,,[],,,,,,56.4,0.0,i,1.0,False,770.1999998092651,47.0,60.0,40.0,False,,348.52581007861534,[],"[960, 540]",ColorTask,82.0,90.0,,,HRV,HRV_0149,2022-11-30 18:52:23
,wl-rdm,211,540184,0.0-8.90-0.90,1.0,207.0,,,,,,,[],,,,,,56.4,0.0,u,0.0,True,1123.6999998092651,68.0,60.0,40.0,False,,209.13590844889941,[],"[960, 540]",ColorTask,83.0,91.0,,,HRV,HRV_0149,2022-11-30 18:52:23
,wl-rdm,212,542334,0.0-8.91-0.91,1.0,208.0,,,,,,,[],,,,,,62.5,1.0,u,0.0,False,808.5,49.0,60.0,40.0,False,,280.55774622180905,[],"[960, 540]",ColorTask,82.0,92.0,,,HRV,HRV_0149,2022-11-30 18:52:23
,wl-rdm,213,544517,0.0-8.92-0.92,1.0,209.0,,,,,,,[],,,,,,87.9,0.0,u,0.0,True,735.5,45.0,60.0,40.0,False,,374.53845626470263,[],"[960, 540]",ColorTask,83.0,93.0,,,HRV,HRV_0149,2022-11-30 18:52:23
,wl-rdm,214,547317,0.0-8.93-0.93,1.0,210.0,,,,,,,[],,,,,,73.6,0.0,u,0.0,True,1444.6000001430511,87.0,60.0,40.0,False,,288.79496424690973,[],"[960, 540]",ColorTask,84.0,94.0,,,HRV,HRV_0149,2022-11-30 18:52:23
,wl-rdm,215,549601,0.0-8.94-0.94,1.0,211.0,,,,,,,[],,,,,,56.4,0.0,u,0.0,True,943.0,57.0,60.0,40.0,False,,269.7506581113232,[],"[960, 540]",ColorTask,85.0,95.0,,,HRV,HRV_0149,2022-11-30 18:52:23
,wl-rdm,216,551767,0.0-8.95-0.95,1.0,212.0,,,,,,,[],,,,,,73.6,1.0,i,1.0,True,830.8000001907349,50.0,60.0,40.0,False,,277.0037274798445,[],"[960, 540]",ColorTask,86.0,96.0,,,HRV,HRV_0149,2022-11-30 18:52:23
,wl-rdm,217,554051,0.0-8.96-0.96,1.0,213.0,,,,,,,[],,,,,,87.9,1.0,i,1.0,True,827.7999999523163,50.0,60.0,40.0,False,,397.7917048439532,[],"[960, 540]",ColorTask,87.0,97.0,,,HRV,HRV_0149,2022-11-30 18:52:23
,wl-rdm,218,556451,0.0-8.97-0.97,1.0,214.0,,,,,,,[],,,,,,53.2,0.0,i,1.0,False,991.0999999046326,60.0,60.0,40.0,False,,344.55632671657264,[],"[960, 540]",ColorTask,86.0,98.0,,,HRV,HRV_0149,2022-11-30 18:52:23
,wl-rdm,219,558501,0.0-8.98-0.98,1.0,215.0,,,,,,,[],,,,,,50.0,0.0,u,0.0,True,655.9000000953674,40.0,60.0,40.0,False,,325.86106059120186,[],"[960, 540]",ColorTask,87.0,99.0,,,HRV,HRV_0149,2022-11-30 18:52:23
,wl-rdm,220,560951,0.0-8.99-0.99,1.0,216.0,,,,,,,[],,,,,,62.5,0.0,u,0.0,True,1153.7000000476837,70.0,60.0,40.0,False,,223.0537097340345,[],"[960, 540]",ColorTask,88.0,100.0,,,HRV,HRV_0149,2022-11-30 18:52:23
,wl-rdm,221,562851,0.0-8.100-0.100,1.0,217.0,,,,,,,[],,,,,,56.4,1.0,u,0.0,False,627.1000001430511,38.0,60.0,40.0,False,,216.08681209433126,[],"[960, 540]",ColorTask,87.0,101.0,,,HRV,HRV_0149,2022-11-30 18:52:23
,wl-rdm,222,564901,0.0-8.101-0.101,1.0,218.0,,,,,,,[],,,,,,50.0,1.0,i,1.0,True,771.2999999523163,47.0,60.0,40.0,False,,201.7425868689751,[],"[960, 540]",ColorTask,88.0,102.0,,,HRV,HRV_0149,2022-11-30 18:52:23
,wl-rdm,223,567035,0.0-8.102-0.102,1.0,219.0,,,,,,,[],,,,,,56.4,0.0,i,1.0,False,866.0999999046326,52.0,60.0,40.0,False,,200.35621734738945,[],"[960, 540]",ColorTask,87.0,103.0,,,HRV,HRV_0149,2022-11-30 18:52:23
,wl-rdm,224,569501,0.0-8.103-0.103,1.0,220.0,,,,,,,[],,,,,,50.0,0.0,u,0.0,True,1004.4000000953674,61.0,60.0,40.0,False,,387.68401340312755,[],"[960, 540]",ColorTask,88.0,104.0,,,HRV,HRV_0149,2022-11-30 18:52:23
,wl-rdm,225,571668,0.0-8.104-0.104,1.0,221.0,,,,,,,[],,,,,,53.2,1.0,i,1.0,True,849.9000000953674,51.0,60.0,40.0,False,,241.6180293156949,[],"[960, 540]",ColorTask,89.0,105.0,,,HRV,HRV_0149,2022-11-30 18:52:23
,wl-rdm,226,573801,0.0-8.105-0.105,1.0,222.0,,,,,,,[],,,,,,73.6,1.0,i,1.0,True,840.2000000476837,51.0,60.0,40.0,False,,223.85549730505812,[],"[960, 540]",ColorTask,90.0,106.0,,,HRV,HRV_0149,2022-11-30 18:52:23
,wl-rdm,227,575984,0.0-8.106-0.106,1.0,223.0,,,,,,,[],,,,,,62.5,1.0,i,1.0,True,737.0000002384186,45.0,60.0,40.0,False,,381.8236116842418,[],"[960, 540]",ColorTask,91.0,107.0,,,HRV,HRV_0149,2022-11-30 18:52:23
,wl-rdm,228,577984,0.0-8.107-0.107,1.0,224.0,,,,,,,[],,,,,,87.9,1.0,i,1.0,True,712.0999999046326,43.0,60.0,40.0,False,,217.10755468189538,[],"[960, 540]",ColorTask,92.0,108.0,,,HRV,HRV_0149,2022-11-30 18:52:23
,wl-rdm,229,580168,0.0-8.108-0.108,1.0,225.0,,,,,,,[],,,,,,73.6,0.0,i,1.0,False,870.0,53.0,60.0,40.0,False,,241.5802970287751,[],"[960, 540]",ColorTask,91.0,109.0,,,HRV,HRV_0149,2022-11-30 18:52:23
,wl-html-button-response,230,599851,0.0-9.0-0.0,,,,,,,,,,19680.199999809265,,0,,,,,,,,,,,,,,,,,,,,<h3>End of this session. Thank you!</h3><br>,['Close window'],HRV,HRV_0149,2022-11-30 18:52:23
