trialN,stimuli,question,trialStartTime,trialStartTime_UNIX,stimulus1,rt,receivedResponse,rating,trialEndTime,trialDuration,stimulus1Loaded,trialEvents,exp,subjectId,date
0,"[{'imgObject': {}, 'id': 'pear', 'src': '/static/foodstim60/pear.jpg', 'key': 'NaN', 'origWidth': 411, 'origHeight': 410, 'width': 411, 'height': 410, 'widthPercent': 0.8, 'rescaleHeight': True, 'trialN': 0, 'loaded': True, 'loadedTime': 2698.899999856949, 'positionName': 'CENTER', 'positionCoords': [754.5, 335]}]",Rate how much you want to eat this food from 0 (least) to 10 (most).,2886.5,1669832204435,pear,1726.7999999523163,True,4.0200000000000005,4613.299999952316,1726.7999999523163,True,,HRV,HRV_0149,2022-11-30 18:18:14
1,"[{'imgObject': {}, 'id': 'raisin bran w milk', 'src': '/static/foodstim60/raisin bran w milk.jpg', 'key': 'NaN', 'origWidth': 411, 'origHeight': 411, 'width': 411, 'height': 411, 'widthPercent': 0.8, 'rescaleHeight': True, 'trialN': 1, 'loaded': True, 'loadedTime': 2703.5999999046326, 'positionName': 'CENTER', 'positionCoords': [754.5, 334.5]}]",Rate how much you want to eat this food from 0 (least) to 10 (most).,4615.5,1669832206164,raisin bran w milk,1043.5,True,7.41,5659.0,1043.5,True,,HRV,HRV_0149,2022-11-30 18:18:14
2,"[{'imgObject': {}, 'id': 'yogurt no spoon', 'src': '/static/foodstim60/yogurt no spoon.jpg', 'key': 'NaN', 'origWidth': 411, 'origHeight': 410, 'width': 411, 'height': 410, 'widthPercent': 0.8, 'rescaleHeight': True, 'trialN': 2, 'loaded': True, 'loadedTime': 2705.399999856949, 'positionName': 'CENTER', 'positionCoords': [754.5, 335]}]",Rate how much you want to eat this food from 0 (least) to 10 (most).,5660.0,1669832207209,yogurt no spoon,1373.6999998092651,True,9.32,7033.699999809265,1373.6999998092651,True,"[{'event': 'onblur', 'details': 'out of focus', 'performance time': 6048.699999809265, 'date time': 1669832207598}, {'event': 'visibilitychange', 'details': 'hidden', 'performance time': 6050.899999856949, 'date time': 1669832207600}, {'event': 'onfocus', 'details': 'in focus', 'performance time': 6101.299999952316, 'date time': 1669832207650}, {'event': 'visibilitychange', 'details': 'visible', 'performance time': 6119.799999952316, 'date time': 1669832207669}, {'event': 'fullscreenchange', 'details': 'fullscreenexit', 'performance time': 6142.099999904633, 'date time': 1669832207691}]",HRV,HRV_0149,2022-11-30 18:18:14
3,"[{'imgObject': {}, 'id': 'cheerios', 'src': '/static/foodstim60/cheerios.jpg', 'key': 'NaN', 'origWidth': 409, 'origHeight': 410, 'width': 409, 'height': 410, 'widthPercent': 0.8, 'rescaleHeight': True, 'trialN': 3, 'loaded': True, 'loadedTime': 7037.599999904633, 'positionName': 'CENTER', 'positionCoords': [755.5, 263.5]}]",Rate how much you want to eat this food from 0 (least) to 10 (most).,7034.699999809265,1669832208584,cheerios,961.7000000476837,True,7.65,7996.399999856949,961.7000000476837,True,,HRV,HRV_0149,2022-11-30 18:18:14
4,"[{'imgObject': {}, 'id': 'granola w milk', 'src': '/static/foodstim60/granola w milk.jpg', 'key': 'NaN', 'origWidth': 410, 'origHeight': 410, 'width': 410, 'height': 410, 'widthPercent': 0.8, 'rescaleHeight': True, 'trialN': 4, 'loaded': True, 'loadedTime': 8004.799999952316, 'positionName': 'CENTER', 'positionCoords': [755, 263.5]}]",Rate how much you want to eat this food from 0 (least) to 10 (most).,7998.099999904633,1669832209547,granola w milk,835.4000000953674,True,8.84,8833.5,835.4000000953674,True,,HRV,HRV_0149,2022-11-30 18:18:14
5,"[{'imgObject': {}, 'id': 'chicken nuggets2', 'src': '/static/foodstim60/chicken nuggets2.jpg', 'key': 'NaN', 'origWidth': 410, 'origHeight': 409, 'width': 410, 'height': 409, 'widthPercent': 0.8, 'rescaleHeight': True, 'trialN': 5, 'loaded': True, 'loadedTime': 8842.299999952316, 'positionName': 'CENTER', 'positionCoords': [755, 264]}]",Rate how much you want to eat this food from 0 (least) to 10 (most).,8835.099999904633,1669832210384,chicken nuggets2,1269.7000000476837,True,9.57,10104.799999952316,1269.7000000476837,True,,HRV,HRV_0149,2022-11-30 18:18:14
6,"[{'imgObject': {}, 'id': 'cantaloupe', 'src': '/static/foodstim60/cantaloupe.jpg', 'key': 'NaN', 'origWidth': 409, 'origHeight': 409, 'width': 409, 'height': 409, 'widthPercent': 0.8, 'rescaleHeight': True, 'trialN': 6, 'loaded': True, 'loadedTime': 10111, 'positionName': 'CENTER', 'positionCoords': [755.5, 264]}]",Rate how much you want to eat this food from 0 (least) to 10 (most).,10106.399999856949,1669832211655,cantaloupe,1328.7000000476837,True,6.16,11435.099999904633,1328.7000000476837,True,,HRV,HRV_0149,2022-11-30 18:18:14
7,"[{'imgObject': {}, 'id': 'kiwi', 'src': '/static/foodstim60/kiwi.jpg', 'key': 'NaN', 'origWidth': 410, 'origHeight': 410, 'width': 410, 'height': 410, 'widthPercent': 0.8, 'rescaleHeight': True, 'trialN': 7, 'loaded': True, 'loadedTime': 11440.199999809265, 'positionName': 'CENTER', 'positionCoords': [755, 263.5]}]",Rate how much you want to eat this food from 0 (least) to 10 (most).,11436.5,1669832212985,kiwi,860.0,True,4.67,12296.5,860.0,True,"[{'event': 'onblur', 'details': 'out of focus', 'performance time': 12018.399999856949, 'date time': 1669832213567}, {'event': 'visibilitychange', 'details': 'hidden', 'performance time': 12021.899999856949, 'date time': 1669832213571}, {'event': 'onfocus', 'details': 'in focus', 'performance time': 12049.699999809265, 'date time': 1669832213599}, {'event': 'visibilitychange', 'details': 'visible', 'performance time': 12055.699999809265, 'date time': 1669832213605}]",HRV,HRV_0149,2022-11-30 18:18:14
8,"[{'imgObject': {}, 'id': 'banana', 'src': '/static/foodstim60/banana.jpg', 'key': 'NaN', 'origWidth': 410, 'origHeight': 410, 'width': 410, 'height': 410, 'widthPercent': 0.8, 'rescaleHeight': True, 'trialN': 8, 'loaded': True, 'loadedTime': 12303, 'positionName': 'CENTER', 'positionCoords': [755, 263.5]}]",Rate how much you want to eat this food from 0 (least) to 10 (most).,12297.799999952316,1669832213847,banana,794.0,True,3.0100000000000002,13091.799999952316,794.0,True,,HRV,HRV_0149,2022-11-30 18:18:14
9,"[{'imgObject': {}, 'id': 'luckycharms', 'src': '/static/foodstim60/luckycharms.jpg', 'key': 'NaN', 'origWidth': 410, 'origHeight': 409, 'width': 410, 'height': 409, 'widthPercent': 0.8, 'rescaleHeight': True, 'trialN': 9, 'loaded': True, 'loadedTime': 13096.799999952316, 'positionName': 'CENTER', 'positionCoords': [755, 264]}]",Rate how much you want to eat this food from 0 (least) to 10 (most).,13093.299999952316,1669832214642,luckycharms,1183.2999999523163,True,7.94,14276.599999904633,1183.2999999523163,True,,HRV,HRV_0149,2022-11-30 18:18:14
10,"[{'imgObject': {}, 'id': 'salad w chicken', 'src': '/static/foodstim60/salad w chicken.jpg', 'key': 'NaN', 'origWidth': 411, 'origHeight': 411, 'width': 411, 'height': 411, 'widthPercent': 0.8, 'rescaleHeight': True, 'trialN': 10, 'loaded': True, 'loadedTime': 14284.899999856949, 'positionName': 'CENTER', 'positionCoords': [754.5, 263]}]",Rate how much you want to eat this food from 0 (least) to 10 (most).,14278.399999856949,1669832215827,salad w chicken,1065.6000001430511,True,9.38,15344.0,1065.6000001430511,True,,HRV,HRV_0149,2022-11-30 18:18:14
11,"[{'imgObject': {}, 'id': 'sushi w_condiments', 'src': '/static/foodstim60/sushi w_condiments.jpg', 'key': 'NaN', 'origWidth': 410, 'origHeight': 410, 'width': 410, 'height': 410, 'widthPercent': 0.8, 'rescaleHeight': True, 'trialN': 11, 'loaded': True, 'loadedTime': 15347.899999856949, 'positionName': 'CENTER', 'positionCoords': [755, 263.5]}]",Rate how much you want to eat this food from 0 (least) to 10 (most).,15345.0,1669832216894,sushi w_condiments,1201.3999998569489,True,6.71,16546.39999985695,1201.3999998569489,True,,HRV,HRV_0149,2022-11-30 18:18:14
12,"[{'imgObject': {}, 'id': 'cherry tomato', 'src': '/static/foodstim60/cherry tomato.jpg', 'key': 'NaN', 'origWidth': 410, 'origHeight': 410, 'width': 410, 'height': 410, 'widthPercent': 0.8, 'rescaleHeight': True, 'trialN': 12, 'loaded': True, 'loadedTime': 16551.099999904633, 'positionName': 'CENTER', 'positionCoords': [755, 263.5]}]",Rate how much you want to eat this food from 0 (least) to 10 (most).,16547.5,1669832218096,cherry tomato,1615.5999999046326,True,3.09,18163.099999904633,1615.5999999046326,True,"[{'event': 'onblur', 'details': 'out of focus', 'performance time': 18022.5, 'date time': 1669832219571}, {'event': 'visibilitychange', 'details': 'hidden', 'performance time': 18024.299999952316, 'date time': 1669832219573}, {'event': 'onfocus', 'details': 'in focus', 'performance time': 18046.699999809265, 'date time': 1669832219596}, {'event': 'visibilitychange', 'details': 'visible', 'performance time': 18051.799999952316, 'date time': 1669832219601}]",HRV,HRV_0149,2022-11-30 18:18:14
13,"[{'imgObject': {}, 'id': 'apple slices', 'src': '/static/foodstim60/apple slices.jpg', 'key': 'NaN', 'origWidth': 409, 'origHeight': 410, 'width': 409, 'height': 410, 'widthPercent': 0.8, 'rescaleHeight': True, 'trialN': 13, 'loaded': True, 'loadedTime': 18170, 'positionName': 'CENTER', 'positionCoords': [755.5, 263.5]}]",Rate how much you want to eat this food from 0 (least) to 10 (most).,18164.699999809265,1669832219714,apple slices,1064.8000001907349,True,6.37,19229.5,1064.8000001907349,True,,HRV,HRV_0149,2022-11-30 18:18:14
14,"[{'imgObject': {}, 'id': 'omelette', 'src': '/static/foodstim60/omelette.jpg', 'key': 'NaN', 'origWidth': 410, 'origHeight': 409, 'width': 410, 'height': 409, 'widthPercent': 0.8, 'rescaleHeight': True, 'trialN': 14, 'loaded': True, 'loadedTime': 19235.699999809265, 'positionName': 'CENTER', 'positionCoords': [755, 264]}]",Rate how much you want to eat this food from 0 (least) to 10 (most).,19231.0,1669832220780,omelette,1149.3999998569489,True,8.82,20380.39999985695,1149.3999998569489,True,,HRV,HRV_0149,2022-11-30 18:18:14
15,"[{'imgObject': {}, 'id': 'lox', 'src': '/static/foodstim60/lox.jpg', 'key': 'NaN', 'origWidth': 410, 'origHeight': 411, 'width': 410, 'height': 411, 'widthPercent': 0.8, 'rescaleHeight': True, 'trialN': 15, 'loaded': True, 'loadedTime': 20385.599999904633, 'positionName': 'CENTER', 'positionCoords': [755, 263]}]",Rate how much you want to eat this food from 0 (least) to 10 (most).,20381.699999809265,1669832221931,lox,5353.800000190735,True,2.18,25735.5,5353.800000190735,True,"[{'event': 'onblur', 'details': 'out of focus', 'performance time': 23047.599999904633, 'date time': 1669832224596}, {'event': 'visibilitychange', 'details': 'hidden', 'performance time': 23051.299999952316, 'date time': 1669832224600}, {'event': 'onfocus', 'details': 'in focus', 'performance time': 23080.39999985695, 'date time': 1669832224629}, {'event': 'visibilitychange', 'details': 'visible', 'performance time': 23085.699999809265, 'date time': 1669832224635}]",HRV,HRV_0149,2022-11-30 18:18:14
16,"[{'imgObject': {}, 'id': 'steak', 'src': '/static/foodstim60/steak.jpg', 'key': 'NaN', 'origWidth': 410, 'origHeight': 410, 'width': 410, 'height': 410, 'widthPercent': 0.8, 'rescaleHeight': True, 'trialN': 16, 'loaded': True, 'loadedTime': 25746.599999904633, 'positionName': 'CENTER', 'positionCoords': [755, 263.5]}]",Rate how much you want to eat this food from 0 (least) to 10 (most).,25737.299999952316,1669832227286,steak,8672.599999904633,True,10.0,34409.89999985695,8672.599999904633,True,"[{'event': 'onblur', 'details': 'out of focus', 'performance time': 30019.699999809265, 'date time': 1669832231569}, {'event': 'visibilitychange', 'details': 'hidden', 'performance time': 30023, 'date time': 1669832231572}, {'event': 'onfocus', 'details': 'in focus', 'performance time': 30057.89999985695, 'date time': 1669832231607}, {'event': 'visibilitychange', 'details': 'visible', 'performance time': 30066.5, 'date time': 1669832231615}]",HRV,HRV_0149,2022-11-30 18:18:14
17,"[{'imgObject': {}, 'id': 'ice cream sundae 002', 'src': '/static/foodstim60/ice cream sundae 002.jpg', 'key': 'NaN', 'origWidth': 409, 'origHeight': 409, 'width': 409, 'height': 409, 'widthPercent': 0.8, 'rescaleHeight': True, 'trialN': 17, 'loaded': True, 'loadedTime': 34415.09999990463, 'positionName': 'CENTER', 'positionCoords': [755.5, 264]}]",Rate how much you want to eat this food from 0 (least) to 10 (most).,34410.699999809265,1669832235960,ice cream sundae 002,1255.9000000953674,True,6.86,35666.59999990463,1255.9000000953674,True,,HRV,HRV_0149,2022-11-30 18:18:14
18,"[{'imgObject': {}, 'id': 'bagel and cc', 'src': '/static/foodstim60/bagel and cc.jpg', 'key': 'NaN', 'origWidth': 410, 'origHeight': 410, 'width': 410, 'height': 410, 'widthPercent': 0.8, 'rescaleHeight': True, 'trialN': 18, 'loaded': True, 'loadedTime': 35675.299999952316, 'positionName': 'CENTER', 'positionCoords': [755, 263.5]}]",Rate how much you want to eat this food from 0 (least) to 10 (most).,35668.09999990463,1669832237217,bagel and cc,1047.5,True,8.34,36715.59999990463,1047.5,True,"[{'event': 'onblur', 'details': 'out of focus', 'performance time': 36021.299999952316, 'date time': 1669832237570}, {'event': 'visibilitychange', 'details': 'hidden', 'performance time': 36023.59999990463, 'date time': 1669832237572}, {'event': 'onfocus', 'details': 'in focus', 'performance time': 36044.799999952316, 'date time': 1669832237594}, {'event': 'visibilitychange', 'details': 'visible', 'performance time': 36049.5, 'date time': 1669832237598}]",HRV,HRV_0149,2022-11-30 18:18:14
19,"[{'imgObject': {}, 'id': 'hotdog w must', 'src': '/static/foodstim60/hotdog w must.jpg', 'key': 'NaN', 'origWidth': 409, 'origHeight': 409, 'width': 409, 'height': 409, 'widthPercent': 0.8, 'rescaleHeight': True, 'trialN': 19, 'loaded': True, 'loadedTime': 36722.799999952316, 'positionName': 'CENTER', 'positionCoords': [755.5, 264]}]",Rate how much you want to eat this food from 0 (least) to 10 (most).,36716.799999952316,1669832238266,hotdog w must,1356.2000000476837,True,9.98,38073.0,1356.2000000476837,True,,HRV,HRV_0149,2022-11-30 18:18:14
20,"[{'imgObject': {}, 'id': 'shreddedwheatwithmilk', 'src': '/static/foodstim60/shreddedwheatwithmilk.jpg', 'key': 'NaN', 'origWidth': 410, 'origHeight': 410, 'width': 410, 'height': 410, 'widthPercent': 0.8, 'rescaleHeight': True, 'trialN': 20, 'loaded': True, 'loadedTime': 38082, 'positionName': 'CENTER', 'positionCoords': [755, 263.5]}]",Rate how much you want to eat this food from 0 (least) to 10 (most).,38074.89999985695,1669832239624,shreddedwheatwithmilk,1049.0,True,6.59,39123.89999985695,1049.0,True,,HRV,HRV_0149,2022-11-30 18:18:14
21,"[{'imgObject': {}, 'id': 'corn cob', 'src': '/static/foodstim60/corn cob.jpg', 'key': 'NaN', 'origWidth': 411, 'origHeight': 411, 'width': 411, 'height': 411, 'widthPercent': 0.8, 'rescaleHeight': True, 'trialN': 21, 'loaded': True, 'loadedTime': 39132.59999990463, 'positionName': 'CENTER', 'positionCoords': [754.5, 263]}]",Rate how much you want to eat this food from 0 (least) to 10 (most).,39125.59999990463,1669832240674,corn cob,840.2000000476837,True,5.29,39965.799999952316,840.2000000476837,True,,HRV,HRV_0149,2022-11-30 18:18:14
22,"[{'imgObject': {}, 'id': 'bagel plain', 'src': '/static/foodstim60/bagel plain.jpg', 'key': 'NaN', 'origWidth': 410, 'origHeight': 410, 'width': 410, 'height': 410, 'widthPercent': 0.8, 'rescaleHeight': True, 'trialN': 22, 'loaded': True, 'loadedTime': 39970.59999990463, 'positionName': 'CENTER', 'positionCoords': [755, 263.5]}]",Rate how much you want to eat this food from 0 (least) to 10 (most).,39967.09999990463,1669832241516,bagel plain,798.4000000953674,True,7.5,40765.5,798.4000000953674,True,,HRV,HRV_0149,2022-11-30 18:18:14
23,"[{'imgObject': {}, 'id': 'rigatoni and sauce', 'src': '/static/foodstim60/rigatoni and sauce.jpg', 'key': 'NaN', 'origWidth': 410, 'origHeight': 411, 'width': 410, 'height': 411, 'widthPercent': 0.8, 'rescaleHeight': True, 'trialN': 23, 'loaded': True, 'loadedTime': 40770.199999809265, 'positionName': 'CENTER', 'positionCoords': [755, 263]}]",Rate how much you want to eat this food from 0 (least) to 10 (most).,40766.59999990463,1669832242316,rigatoni and sauce,1236.7999999523163,True,5.48,42003.39999985695,1236.7999999523163,True,,HRV,HRV_0149,2022-11-30 18:18:14
24,"[{'imgObject': {}, 'id': 'Tribe humus pita', 'src': '/static/foodstim60/Tribe humus pita.jpg', 'key': 'NaN', 'origWidth': 411, 'origHeight': 411, 'width': 411, 'height': 411, 'widthPercent': 0.8, 'rescaleHeight': True, 'trialN': 24, 'loaded': True, 'loadedTime': 42014.89999985695, 'positionName': 'CENTER', 'positionCoords': [754.5, 263]}]",Rate how much you want to eat this food from 0 (least) to 10 (most).,42005.5,1669832243554,Tribe humus pita,1511.0,True,4.94,43516.5,1511.0,True,"[{'event': 'onblur', 'details': 'out of focus', 'performance time': 42021.799999952316, 'date time': 1669832243571}, {'event': 'visibilitychange', 'details': 'hidden', 'performance time': 42024.699999809265, 'date time': 1669832243574}, {'event': 'onfocus', 'details': 'in focus', 'performance time': 42052.299999952316, 'date time': 1669832243601}, {'event': 'visibilitychange', 'details': 'visible', 'performance time': 42058.39999985695, 'date time': 1669832243607}]",HRV,HRV_0149,2022-11-30 18:18:14
25,"[{'imgObject': {}, 'id': 'mac & cheese', 'src': '/static/foodstim60/mac & cheese.jpg', 'key': 'NaN', 'origWidth': 410, 'origHeight': 410, 'width': 410, 'height': 410, 'widthPercent': 0.8, 'rescaleHeight': True, 'trialN': 25, 'loaded': True, 'loadedTime': 43528.299999952316, 'positionName': 'CENTER', 'positionCoords': [755, 263.5]}]",Rate how much you want to eat this food from 0 (least) to 10 (most).,43518.09999990463,1669832245067,mac & cheese,1690.2000000476837,True,9.98,45208.299999952316,1690.2000000476837,True,,HRV,HRV_0149,2022-11-30 18:18:14
26,"[{'imgObject': {}, 'id': 'cherries', 'src': '/static/foodstim60/cherries.jpg', 'key': 'NaN', 'origWidth': 410, 'origHeight': 411, 'width': 410, 'height': 411, 'widthPercent': 0.8, 'rescaleHeight': True, 'trialN': 26, 'loaded': True, 'loadedTime': 45215.199999809265, 'positionName': 'CENTER', 'positionCoords': [755, 263]}]",Rate how much you want to eat this food from 0 (least) to 10 (most).,45209.89999985695,1669832246759,cherries,1125.2000000476837,True,6.16,46335.09999990463,1125.2000000476837,True,,HRV,HRV_0149,2022-11-30 18:18:14
27,"[{'imgObject': {}, 'id': 'edamame', 'src': '/static/foodstim60/edamame.jpg', 'key': 'NaN', 'origWidth': 409, 'origHeight': 410, 'width': 409, 'height': 410, 'widthPercent': 0.8, 'rescaleHeight': True, 'trialN': 27, 'loaded': True, 'loadedTime': 46340, 'positionName': 'CENTER', 'positionCoords': [755.5, 263.5]}]",Rate how much you want to eat this food from 0 (least) to 10 (most).,46336.299999952316,1669832247885,edamame,1300.8999998569489,True,2.47,47637.199999809265,1300.8999998569489,True,,HRV,HRV_0149,2022-11-30 18:18:14
28,"[{'imgObject': {}, 'id': 'fruitsalad', 'src': '/static/foodstim60/fruitsalad.jpg', 'key': 'NaN', 'origWidth': 410, 'origHeight': 410, 'width': 410, 'height': 410, 'widthPercent': 0.8, 'rescaleHeight': True, 'trialN': 28, 'loaded': True, 'loadedTime': 47646.09999990463, 'positionName': 'CENTER', 'positionCoords': [755, 263.5]}]",Rate how much you want to eat this food from 0 (least) to 10 (most).,47639.09999990463,1669832249188,fruitsalad,1006.7000000476837,True,6.43,48645.799999952316,1006.7000000476837,True,"[{'event': 'onblur', 'details': 'out of focus', 'performance time': 48032.5, 'date time': 1669832249581}, {'event': 'visibilitychange', 'details': 'hidden', 'performance time': 48035.59999990463, 'date time': 1669832249584}, {'event': 'onfocus', 'details': 'in focus', 'performance time': 48062.89999985695, 'date time': 1669832249612}, {'event': 'visibilitychange', 'details': 'visible', 'performance time': 48068.39999985695, 'date time': 1669832249617}]",HRV,HRV_0149,2022-11-30 18:18:14
29,"[{'imgObject': {}, 'id': 'mango', 'src': '/static/foodstim60/mango.jpg', 'key': 'NaN', 'origWidth': 411, 'origHeight': 411, 'width': 411, 'height': 411, 'widthPercent': 0.8, 'rescaleHeight': True, 'trialN': 29, 'loaded': True, 'loadedTime': 48653.799999952316, 'positionName': 'CENTER', 'positionCoords': [754.5, 263]}]",Rate how much you want to eat this food from 0 (least) to 10 (most).,48647.199999809265,1669832250196,mango,1335.0,True,4.87,49982.199999809265,1335.0,True,,HRV,HRV_0149,2022-11-30 18:18:14
30,"[{'imgObject': {}, 'id': 'blackbeanswithrice', 'src': '/static/foodstim60/blackbeanswithrice.jpg', 'key': 'NaN', 'origWidth': 410, 'origHeight': 410, 'width': 410, 'height': 410, 'widthPercent': 0.8, 'rescaleHeight': True, 'trialN': 30, 'loaded': True, 'loadedTime': 49987.89999985695, 'positionName': 'CENTER', 'positionCoords': [755, 263.5]}]",Rate how much you want to eat this food from 0 (least) to 10 (most).,49983.299999952316,1669832251532,blackbeanswithrice,1930.0999999046326,True,7.29,51913.39999985695,1930.0999999046326,True,,HRV,HRV_0149,2022-11-30 18:18:14
31,"[{'imgObject': {}, 'id': 'turkeysandwich', 'src': '/static/foodstim60/turkeysandwich.jpg', 'key': 'NaN', 'origWidth': 409, 'origHeight': 409, 'width': 409, 'height': 409, 'widthPercent': 0.8, 'rescaleHeight': True, 'trialN': 31, 'loaded': True, 'loadedTime': 51917.299999952316, 'positionName': 'CENTER', 'positionCoords': [755.5, 264]}]",Rate how much you want to eat this food from 0 (least) to 10 (most).,51914.5,1669832253463,turkeysandwich,1341.0999999046326,True,9.91,53255.59999990463,1341.0999999046326,True,,HRV,HRV_0149,2022-11-30 18:18:14
32,"[{'imgObject': {}, 'id': 'chickenfingers', 'src': '/static/foodstim60/chickenfingers.jpg', 'key': 'NaN', 'origWidth': 410, 'origHeight': 410, 'width': 410, 'height': 410, 'widthPercent': 0.8, 'rescaleHeight': True, 'trialN': 32, 'loaded': True, 'loadedTime': 53265.39999985695, 'positionName': 'CENTER', 'positionCoords': [755, 263.5]}]",Rate how much you want to eat this food from 0 (least) to 10 (most).,53257.5,1669832254806,chickenfingers,1568.5999999046326,True,9.93,54826.09999990463,1568.5999999046326,True,"[{'event': 'onblur', 'details': 'out of focus', 'performance time': 54020.59999990463, 'date time': 1669832255569}, {'event': 'visibilitychange', 'details': 'hidden', 'performance time': 54024.09999990463, 'date time': 1669832255573}, {'event': 'onfocus', 'details': 'in focus', 'performance time': 54052.89999985695, 'date time': 1669832255601}, {'event': 'visibilitychange', 'details': 'visible', 'performance time': 54060, 'date time': 1669832255609}]",HRV,HRV_0149,2022-11-30 18:18:14
33,"[{'imgObject': {}, 'id': 'raspberries', 'src': '/static/foodstim60/raspberries.jpg', 'key': 'NaN', 'origWidth': 411, 'origHeight': 411, 'width': 411, 'height': 411, 'widthPercent': 0.8, 'rescaleHeight': True, 'trialN': 33, 'loaded': True, 'loadedTime': 54832.39999985695, 'positionName': 'CENTER', 'positionCoords': [754.5, 263]}]",Rate how much you want to eat this food from 0 (least) to 10 (most).,54827.299999952316,1669832256376,raspberries,1173.7999999523163,True,6.12,56001.09999990463,1173.7999999523163,True,,HRV,HRV_0149,2022-11-30 18:18:14
34,"[{'imgObject': {}, 'id': 'turkey sandwich', 'src': '/static/foodstim60/turkey sandwich.jpg', 'key': 'NaN', 'origWidth': 409, 'origHeight': 409, 'width': 409, 'height': 409, 'widthPercent': 0.8, 'rescaleHeight': True, 'trialN': 34, 'loaded': True, 'loadedTime': 56004.59999990463, 'positionName': 'CENTER', 'positionCoords': [755.5, 264]}]",Rate how much you want to eat this food from 0 (least) to 10 (most).,56002.09999990463,1669832257551,turkey sandwich,1634.7000000476837,True,10.0,57636.799999952316,1634.7000000476837,True,,HRV,HRV_0149,2022-11-30 18:18:14
35,"[{'imgObject': {}, 'id': 'tacos', 'src': '/static/foodstim60/tacos.jpg', 'key': 'NaN', 'origWidth': 411, 'origHeight': 411, 'width': 411, 'height': 411, 'widthPercent': 0.8, 'rescaleHeight': True, 'trialN': 35, 'loaded': True, 'loadedTime': 57641, 'positionName': 'CENTER', 'positionCoords': [754.5, 263]}]",Rate how much you want to eat this food from 0 (least) to 10 (most).,57637.699999809265,1669832259186,tacos,1651.5,True,2.62,59289.199999809265,1651.5,True,,HRV,HRV_0149,2022-11-30 18:18:14
36,"[{'imgObject': {}, 'id': 'sweetpotato', 'src': '/static/foodstim60/sweetpotato.jpg', 'key': 'NaN', 'origWidth': 410, 'origHeight': 410, 'width': 410, 'height': 410, 'widthPercent': 0.8, 'rescaleHeight': True, 'trialN': 36, 'loaded': True, 'loadedTime': 59293.39999985695, 'positionName': 'CENTER', 'positionCoords': [755, 263.5]}]",Rate how much you want to eat this food from 0 (least) to 10 (most).,59290.299999952316,1669832260839,sweetpotato,1721.8999998569489,True,10.0,61012.199999809265,1721.8999998569489,True,,HRV,HRV_0149,2022-11-30 18:18:14
37,"[{'imgObject': {}, 'id': 'veggieswithdip', 'src': '/static/foodstim60/veggieswithdip.jpg', 'key': 'NaN', 'origWidth': 409, 'origHeight': 409, 'width': 409, 'height': 409, 'widthPercent': 0.8, 'rescaleHeight': True, 'trialN': 37, 'loaded': True, 'loadedTime': 61020.5, 'positionName': 'CENTER', 'positionCoords': [755.5, 264]}]",Rate how much you want to eat this food from 0 (least) to 10 (most).,61014.0,1669832262563,veggieswithdip,841.7999999523163,True,8.08,61855.799999952316,841.7999999523163,True,,HRV,HRV_0149,2022-11-30 18:18:14
38,"[{'imgObject': {}, 'id': 'popsicles', 'src': '/static/foodstim60/popsicles.jpg', 'key': 'NaN', 'origWidth': 410, 'origHeight': 410, 'width': 410, 'height': 410, 'widthPercent': 0.8, 'rescaleHeight': True, 'trialN': 38, 'loaded': True, 'loadedTime': 61864.699999809265, 'positionName': 'CENTER', 'positionCoords': [755, 263.5]}]",Rate how much you want to eat this food from 0 (least) to 10 (most).,61857.699999809265,1669832263406,popsicles,1311.6000001430511,True,6.1000000000000005,63169.299999952316,1311.6000001430511,True,,HRV,HRV_0149,2022-11-30 18:18:14
39,"[{'imgObject': {}, 'id': 'grilled chicken strips', 'src': '/static/foodstim60/grilled chicken strips.jpg', 'key': 'NaN', 'origWidth': 410, 'origHeight': 411, 'width': 410, 'height': 411, 'widthPercent': 0.8, 'rescaleHeight': True, 'trialN': 39, 'loaded': True, 'loadedTime': 63178.39999985695, 'positionName': 'CENTER', 'positionCoords': [755, 263]}]",Rate how much you want to eat this food from 0 (least) to 10 (most).,63171.199999809265,1669832264720,grilled chicken strips,1289.3000001907349,True,9.92,64460.5,1289.3000001907349,True,,HRV,HRV_0149,2022-11-30 18:18:14
40,"[{'imgObject': {}, 'id': 'orange slices', 'src': '/static/foodstim60/orange slices.jpg', 'key': 'NaN', 'origWidth': 409, 'origHeight': 410, 'width': 409, 'height': 410, 'widthPercent': 0.8, 'rescaleHeight': True, 'trialN': 40, 'loaded': True, 'loadedTime': 64464.5, 'positionName': 'CENTER', 'positionCoords': [755.5, 263.5]}]",Rate how much you want to eat this food from 0 (least) to 10 (most).,64461.699999809265,1669832266010,orange slices,1023.4000000953674,True,5.16,65485.09999990463,1023.4000000953674,True,,HRV,HRV_0149,2022-11-30 18:18:14
41,"[{'imgObject': {}, 'id': 'Grapes', 'src': '/static/foodstim60/Grapes.jpg', 'key': 'NaN', 'origWidth': 411, 'origHeight': 411, 'width': 411, 'height': 411, 'widthPercent': 0.8, 'rescaleHeight': True, 'trialN': 41, 'loaded': True, 'loadedTime': 65488.699999809265, 'positionName': 'CENTER', 'positionCoords': [754.5, 263]}]",Rate how much you want to eat this food from 0 (least) to 10 (most).,65486.0,1669832267035,Grapes,1150.5999999046326,True,5.38,66636.59999990463,1150.5999999046326,True,,HRV,HRV_0149,2022-11-30 18:18:14
42,"[{'imgObject': {}, 'id': 'fried eggs', 'src': '/static/foodstim60/fried eggs.jpg', 'key': 'NaN', 'origWidth': 410, 'origHeight': 410, 'width': 410, 'height': 410, 'widthPercent': 0.8, 'rescaleHeight': True, 'trialN': 42, 'loaded': True, 'loadedTime': 66644.69999980927, 'positionName': 'CENTER', 'positionCoords': [755, 263.5]}]",Rate how much you want to eat this food from 0 (least) to 10 (most).,66638.19999980927,1669832268187,fried eggs,1363.8000001907349,True,7.8100000000000005,68002.0,1363.8000001907349,True,,HRV,HRV_0149,2022-11-30 18:18:14
43,"[{'imgObject': {}, 'id': 'blueberries', 'src': '/static/foodstim60/blueberries.jpg', 'key': 'NaN', 'origWidth': 411, 'origHeight': 411, 'width': 411, 'height': 411, 'widthPercent': 0.8, 'rescaleHeight': True, 'trialN': 43, 'loaded': True, 'loadedTime': 68010.29999995232, 'positionName': 'CENTER', 'positionCoords': [754.5, 263]}]",Rate how much you want to eat this food from 0 (least) to 10 (most).,68004.0,1669832269553,blueberries,1256.8999998569489,True,4.4,69260.89999985695,1256.8999998569489,True,,HRV,HRV_0149,2022-11-30 18:18:14
44,"[{'imgObject': {}, 'id': 'hashbrowns', 'src': '/static/foodstim60/hashbrowns.jpg', 'key': 'NaN', 'origWidth': 411, 'origHeight': 410, 'width': 411, 'height': 410, 'widthPercent': 0.8, 'rescaleHeight': True, 'trialN': 44, 'loaded': True, 'loadedTime': 69269.69999980927, 'positionName': 'CENTER', 'positionCoords': [754.5, 263.5]}]",Rate how much you want to eat this food from 0 (least) to 10 (most).,69262.5,1669832270811,hashbrowns,1327.0,True,7.12,70589.5,1327.0,True,,HRV,HRV_0149,2022-11-30 18:18:14
45,"[{'imgObject': {}, 'id': 'olives', 'src': '/static/foodstim60/olives.jpg', 'key': 'NaN', 'origWidth': 410, 'origHeight': 410, 'width': 410, 'height': 410, 'widthPercent': 0.8, 'rescaleHeight': True, 'trialN': 45, 'loaded': True, 'loadedTime': 70594.89999985695, 'positionName': 'CENTER', 'positionCoords': [755, 263.5]}]",Rate how much you want to eat this food from 0 (least) to 10 (most).,70590.79999995232,1669832272139,olives,1456.2000000476837,True,3.92,72047.0,1456.2000000476837,True,,HRV,HRV_0149,2022-11-30 18:18:14
46,"[{'imgObject': {}, 'id': 'salmon', 'src': '/static/foodstim60/salmon.jpg', 'key': 'NaN', 'origWidth': 410, 'origHeight': 409, 'width': 410, 'height': 409, 'widthPercent': 0.8, 'rescaleHeight': True, 'trialN': 46, 'loaded': True, 'loadedTime': 72054.19999980927, 'positionName': 'CENTER', 'positionCoords': [755, 264]}]",Rate how much you want to eat this food from 0 (least) to 10 (most).,72048.69999980927,1669832273597,salmon,1460.8000001907349,True,9.88,73509.5,1460.8000001907349,True,,HRV,HRV_0149,2022-11-30 18:18:14
47,"[{'imgObject': {}, 'id': 'burger', 'src': '/static/foodstim60/burger.jpg', 'key': 'NaN', 'origWidth': 409, 'origHeight': 409, 'width': 409, 'height': 409, 'widthPercent': 0.8, 'rescaleHeight': True, 'trialN': 47, 'loaded': True, 'loadedTime': 73518.09999990463, 'positionName': 'CENTER', 'positionCoords': [755.5, 264]}]",Rate how much you want to eat this food from 0 (least) to 10 (most).,73511.19999980927,1669832275060,burger,1332.9000000953674,True,9.36,74844.09999990463,1332.9000000953674,True,,HRV,HRV_0149,2022-11-30 18:18:14
48,"[{'imgObject': {}, 'id': 'mashed potato', 'src': '/static/foodstim60/mashed potato.jpg', 'key': 'NaN', 'origWidth': 409, 'origHeight': 409, 'width': 409, 'height': 409, 'widthPercent': 0.8, 'rescaleHeight': True, 'trialN': 48, 'loaded': True, 'loadedTime': 74854.19999980927, 'positionName': 'CENTER', 'positionCoords': [755.5, 264]}]",Rate how much you want to eat this food from 0 (least) to 10 (most).,74845.89999985695,1669832276394,mashed potato,936.7000000476837,True,6.57,75782.59999990463,936.7000000476837,True,,HRV,HRV_0149,2022-11-30 18:18:14
49,"[{'imgObject': {}, 'id': 'froot loops w milk', 'src': '/static/foodstim60/froot loops w milk.jpg', 'key': 'NaN', 'origWidth': 410, 'origHeight': 410, 'width': 410, 'height': 410, 'widthPercent': 0.8, 'rescaleHeight': True, 'trialN': 49, 'loaded': True, 'loadedTime': 75787.79999995232, 'positionName': 'CENTER', 'positionCoords': [755, 263.5]}]",Rate how much you want to eat this food from 0 (least) to 10 (most).,75784.0,1669832277332,froot loops w milk,1372.8999998569489,True,9.5,77156.89999985695,1372.8999998569489,True,,HRV,HRV_0149,2022-11-30 18:18:14
50,"[{'imgObject': {}, 'id': 'eggs', 'src': '/static/foodstim60/eggs.jpg', 'key': 'NaN', 'origWidth': 409, 'origHeight': 409, 'width': 409, 'height': 409, 'widthPercent': 0.8, 'rescaleHeight': True, 'trialN': 50, 'loaded': True, 'loadedTime': 77161.39999985695, 'positionName': 'CENTER', 'positionCoords': [755.5, 264]}]",Rate how much you want to eat this food from 0 (least) to 10 (most).,77158.0,1669832278707,eggs,1237.1999998092651,True,7.4,78395.19999980927,1237.1999998092651,True,,HRV,HRV_0149,2022-11-30 18:18:14
51,"[{'imgObject': {}, 'id': 'strawberries', 'src': '/static/foodstim60/strawberries.jpg', 'key': 'NaN', 'origWidth': 410, 'origHeight': 410, 'width': 410, 'height': 410, 'widthPercent': 0.8, 'rescaleHeight': True, 'trialN': 51, 'loaded': True, 'loadedTime': 78405.19999980927, 'positionName': 'CENTER', 'positionCoords': [755, 263.5]}]",Rate how much you want to eat this food from 0 (least) to 10 (most).,78397.19999980927,1669832279946,strawberries,1320.7000000476837,True,6.34,79717.89999985695,1320.7000000476837,True,,HRV,HRV_0149,2022-11-30 18:18:14
52,"[{'imgObject': {}, 'id': 'eggsalad', 'src': '/static/foodstim60/eggsalad.jpg', 'key': 'NaN', 'origWidth': 410, 'origHeight': 409, 'width': 410, 'height': 409, 'widthPercent': 0.8, 'rescaleHeight': True, 'trialN': 52, 'loaded': True, 'loadedTime': 79726.29999995232, 'positionName': 'CENTER', 'positionCoords': [755, 264]}]",Rate how much you want to eat this food from 0 (least) to 10 (most).,79719.5,1669832281268,eggsalad,1395.1999998092651,True,8.66,81114.69999980927,1395.1999998092651,True,,HRV,HRV_0149,2022-11-30 18:18:14
53,"[{'imgObject': {}, 'id': 'rigatoni', 'src': '/static/foodstim60/rigatoni.jpg', 'key': 'NaN', 'origWidth': 411, 'origHeight': 411, 'width': 411, 'height': 411, 'widthPercent': 0.8, 'rescaleHeight': True, 'trialN': 53, 'loaded': True, 'loadedTime': 81122.79999995232, 'positionName': 'CENTER', 'positionCoords': [754.5, 263]}]",Rate how much you want to eat this food from 0 (least) to 10 (most).,81116.19999980927,1669832282665,rigatoni,1447.8000001907349,True,4.8,82564.0,1447.8000001907349,True,,HRV,HRV_0149,2022-11-30 18:18:14
54,"[{'imgObject': {}, 'id': 'roastedpotatoes', 'src': '/static/foodstim60/roastedpotatoes.jpg', 'key': 'NaN', 'origWidth': 409, 'origHeight': 410, 'width': 409, 'height': 410, 'widthPercent': 0.8, 'rescaleHeight': True, 'trialN': 54, 'loaded': True, 'loadedTime': 82567.5, 'positionName': 'CENTER', 'positionCoords': [755.5, 263.5]}]",Rate how much you want to eat this food from 0 (least) to 10 (most).,82564.89999985695,1669832284113,roastedpotatoes,1158.0,True,9.01,83722.89999985695,1158.0,True,,HRV,HRV_0149,2022-11-30 18:18:14
55,"[{'imgObject': {}, 'id': 'burrito', 'src': '/static/foodstim60/burrito.jpg', 'key': 'NaN', 'origWidth': 410, 'origHeight': 410, 'width': 410, 'height': 410, 'widthPercent': 0.8, 'rescaleHeight': True, 'trialN': 55, 'loaded': True, 'loadedTime': 83727.69999980927, 'positionName': 'CENTER', 'positionCoords': [755, 263.5]}]",Rate how much you want to eat this food from 0 (least) to 10 (most).,83724.09999990463,1669832285273,burrito,1396.7999999523163,True,9.4,85120.89999985695,1396.7999999523163,True,,HRV,HRV_0149,2022-11-30 18:18:14
56,"[{'imgObject': {}, 'id': 'avocado', 'src': '/static/foodstim60/avocado.jpg', 'key': 'NaN', 'origWidth': 409, 'origHeight': 409, 'width': 409, 'height': 409, 'widthPercent': 0.8, 'rescaleHeight': True, 'trialN': 56, 'loaded': True, 'loadedTime': 85129.19999980927, 'positionName': 'CENTER', 'positionCoords': [755.5, 264]}]",Rate how much you want to eat this food from 0 (least) to 10 (most).,85122.5,1669832286671,avocado,1600.2999999523163,True,5.4,86722.79999995232,1600.2999999523163,True,,HRV,HRV_0149,2022-11-30 18:18:14
57,"[{'imgObject': {}, 'id': 'baked potato', 'src': '/static/foodstim60/baked potato.jpg', 'key': 'NaN', 'origWidth': 409, 'origHeight': 410, 'width': 409, 'height': 410, 'widthPercent': 0.8, 'rescaleHeight': True, 'trialN': 57, 'loaded': True, 'loadedTime': 86731.19999980927, 'positionName': 'CENTER', 'positionCoords': [755.5, 263.5]}]",Rate how much you want to eat this food from 0 (least) to 10 (most).,86724.5,1669832288273,baked potato,1460.7999999523163,True,9.66,88185.29999995232,1460.7999999523163,True,,HRV,HRV_0149,2022-11-30 18:18:14
58,"[{'imgObject': {}, 'id': 'cocktailshrimp', 'src': '/static/foodstim60/cocktailshrimp.jpg', 'key': 'NaN', 'origWidth': 410, 'origHeight': 410, 'width': 410, 'height': 410, 'widthPercent': 0.8, 'rescaleHeight': True, 'trialN': 58, 'loaded': True, 'loadedTime': 88194, 'positionName': 'CENTER', 'positionCoords': [755, 263.5]}]",Rate how much you want to eat this food from 0 (least) to 10 (most).,88187.19999980927,1669832289736,cocktailshrimp,1239.5,True,3.09,89426.69999980927,1239.5,True,,HRV,HRV_0149,2022-11-30 18:18:14
59,"[{'imgObject': {}, 'id': 'seaweed', 'src': '/static/foodstim60/seaweed.jpg', 'key': 'NaN', 'origWidth': 410, 'origHeight': 410, 'width': 410, 'height': 410, 'widthPercent': 0.8, 'rescaleHeight': True, 'trialN': 59, 'loaded': True, 'loadedTime': 89432.09999990463, 'positionName': 'CENTER', 'positionCoords': [755, 263.5]}]",Rate how much you want to eat this food from 0 (least) to 10 (most).,89428.09999990463,1669832290977,seaweed,1619.0999999046326,True,1.3800000000000001,91047.19999980927,1619.0999999046326,True,,HRV,HRV_0149,2022-11-30 18:18:14
