trialN,stimuli,trialStartTime,trialStartTime_UNIX,stimulus1,stimulus2,stimulus1Bid,stimulus2Bid,delta,selected,rt,rt_UNIX,rt_perfnow,receivedResponse,rsp,trialEndTime,trialDuration,trialEndTime_UNIX,trialDuration_UNIX,trialEvents,exp,subjectId,date
0,"[{'imgObject': {}, 'id': 'cheerios', 'src': '/static/foodstim60/cheerios.jpg', 'key': 'u', 'origWidth': 409, 'origHeight': 410, 'width': 409, 'height': 410, 'widthPercent': 0.45, 'rescaleHeight': False, 'trialN': 0, 'loaded': True, 'loadedTime': 2142.0999999046326, 'positionName': 'LEFT', 'positionCoords': [512.6, 335], 'bid': 7.65}, {'imgObject': {}, 'id': 'cocktailshrimp', 'src': '/static/foodstim60/cocktailshrimp.jpg', 'key': 'i', 'origWidth': 410, 'origHeight': 410, 'width': 410, 'height': 410, 'widthPercent': 0.45, 'rescaleHeight': False, 'trialN': 0, 'loaded': True, 'loadedTime': 2168.899999856949, 'positionName': 'RIGHT', 'positionCoords': [998.4, 335], 'bid': 3.09}]",2584.5999999046326,1669833428518,cheerios,cocktailshrimp,7.65,3.09,-4.5600000000000005,cheerios,1233.4000000953674,1234,1234.1000001430511,True,u,4326.799999952316,1742.2000000476837,1669833430260,1742,,HRV,HRV_0149,2022-11-30 18:42:19
1,"[{'imgObject': {}, 'id': 'pear', 'src': '/static/foodstim60/pear.jpg', 'key': 'u', 'origWidth': 411, 'origHeight': 410, 'width': 411, 'height': 410, 'widthPercent': 0.45, 'rescaleHeight': False, 'trialN': 1, 'loaded': True, 'loadedTime': 2178.0999999046326, 'positionName': 'LEFT', 'positionCoords': [510.6, 335], 'bid': 4.0200000000000005}, {'imgObject': {}, 'id': 'rigatoni and sauce', 'src': '/static/foodstim60/rigatoni and sauce.jpg', 'key': 'i', 'origWidth': 410, 'origHeight': 411, 'width': 410, 'height': 411, 'widthPercent': 0.45, 'rescaleHeight': False, 'trialN': 1, 'loaded': True, 'loadedTime': 2180.7999999523163, 'positionName': 'RIGHT', 'positionCoords': [998.4, 334.5], 'bid': 5.48}]",4327.200000047684,1669833430260,pear,rigatoni and sauce,4.0200000000000005,5.48,1.46,rigatoni and sauce,1057.0999999046326,1058,1057.3999998569489,True,i,5887.099999904633,1559.8999998569489,1669833431820,1560,,HRV,HRV_0149,2022-11-30 18:42:19
2,"[{'imgObject': {}, 'id': 'corn cob', 'src': '/static/foodstim60/corn cob.jpg', 'key': 'u', 'origWidth': 411, 'origHeight': 411, 'width': 411, 'height': 411, 'widthPercent': 0.45, 'rescaleHeight': False, 'trialN': 2, 'loaded': True, 'loadedTime': 2182, 'positionName': 'LEFT', 'positionCoords': [510.6, 334.5], 'bid': 5.29}, {'imgObject': {}, 'id': 'cantaloupe', 'src': '/static/foodstim60/cantaloupe.jpg', 'key': 'i', 'origWidth': 409, 'origHeight': 409, 'width': 409, 'height': 409, 'widthPercent': 0.45, 'rescaleHeight': False, 'trialN': 2, 'loaded': True, 'loadedTime': 2183.7000000476837, 'positionName': 'RIGHT', 'positionCoords': [998.4, 335.5], 'bid': 6.16}]",5887.599999904633,1669833431821,corn cob,cantaloupe,5.29,6.16,0.8700000000000001,cantaloupe,1422.2999999523163,1422,1422.7000000476837,True,i,7822.799999952316,1935.2000000476837,1669833433756,1935,,HRV,HRV_0149,2022-11-30 18:42:19
3,"[{'imgObject': {}, 'id': 'ice cream sundae 002', 'src': '/static/foodstim60/ice cream sundae 002.jpg', 'key': 'u', 'origWidth': 409, 'origHeight': 409, 'width': 409, 'height': 409, 'widthPercent': 0.45, 'rescaleHeight': False, 'trialN': 3, 'loaded': True, 'loadedTime': 2184.899999856949, 'positionName': 'LEFT', 'positionCoords': [512.6, 335.5], 'bid': 6.86}, {'imgObject': {}, 'id': 'cheerios', 'src': '/static/foodstim60/cheerios.jpg', 'key': 'i', 'origWidth': 409, 'origHeight': 410, 'width': 409, 'height': 410, 'widthPercent': 0.45, 'rescaleHeight': False, 'trialN': 3, 'loaded': True, 'loadedTime': 2141.5999999046326, 'positionName': 'RIGHT', 'positionCoords': [998.4, 335], 'bid': 7.65}]",7823.099999904633,1669833433756,ice cream sundae 002,cheerios,6.86,7.65,0.79,cheerios,1110.1000001430511,1111,1110.4000000953674,True,i,9454.5,1631.4000000953674,1669833435388,1632,,HRV,HRV_0149,2022-11-30 18:42:19
4,"[{'imgObject': {}, 'id': 'mashed potato', 'src': '/static/foodstim60/mashed potato.jpg', 'key': 'u', 'origWidth': 409, 'origHeight': 409, 'width': 409, 'height': 409, 'widthPercent': 0.45, 'rescaleHeight': False, 'trialN': 4, 'loaded': True, 'loadedTime': 2185.0999999046326, 'positionName': 'LEFT', 'positionCoords': [512.6, 335.5], 'bid': 6.57}, {'imgObject': {}, 'id': 'shreddedwheatwithmilk', 'src': '/static/foodstim60/shreddedwheatwithmilk.jpg', 'key': 'i', 'origWidth': 410, 'origHeight': 410, 'width': 410, 'height': 410, 'widthPercent': 0.45, 'rescaleHeight': False, 'trialN': 4, 'loaded': True, 'loadedTime': 2188.2000000476837, 'positionName': 'RIGHT', 'positionCoords': [998.4, 335], 'bid': 6.59}]",9454.799999952316,1669833435388,mashed potato,shreddedwheatwithmilk,6.57,6.59,0.019999999999999574,shreddedwheatwithmilk,1507.2000000476837,1508,1507.5999999046326,True,i,11473.299999952316,2018.5,1669833437406,2018,,HRV,HRV_0149,2022-11-30 18:42:19
5,"[{'imgObject': {}, 'id': 'veggieswithdip', 'src': '/static/foodstim60/veggieswithdip.jpg', 'key': 'u', 'origWidth': 409, 'origHeight': 409, 'width': 409, 'height': 409, 'widthPercent': 0.45, 'rescaleHeight': False, 'trialN': 5, 'loaded': True, 'loadedTime': 2189.2000000476837, 'positionName': 'LEFT', 'positionCoords': [512.6, 335.5], 'bid': 8.08}, {'imgObject': {}, 'id': 'sushi w_condiments', 'src': '/static/foodstim60/sushi w_condiments.jpg', 'key': 'i', 'origWidth': 410, 'origHeight': 410, 'width': 410, 'height': 410, 'widthPercent': 0.45, 'rescaleHeight': False, 'trialN': 5, 'loaded': True, 'loadedTime': 2189.899999856949, 'positionName': 'RIGHT', 'positionCoords': [998.4, 335], 'bid': 6.71}]",11473.599999904633,1669833437407,veggieswithdip,sushi w_condiments,8.08,6.71,-1.37,veggieswithdip,1575.2999999523163,1575,1575.7000000476837,True,u,13569.299999952316,2095.7000000476837,1669833439502,2095,,HRV,HRV_0149,2022-11-30 18:42:19
6,"[{'imgObject': {}, 'id': 'veggieswithdip', 'src': '/static/foodstim60/veggieswithdip.jpg', 'key': 'u', 'origWidth': 409, 'origHeight': 409, 'width': 409, 'height': 409, 'widthPercent': 0.45, 'rescaleHeight': False, 'trialN': 6, 'loaded': True, 'loadedTime': 2189.5999999046326, 'positionName': 'LEFT', 'positionCoords': [512.6, 335.5], 'bid': 8.08}, {'imgObject': {}, 'id': 'fried eggs', 'src': '/static/foodstim60/fried eggs.jpg', 'key': 'i', 'origWidth': 410, 'origHeight': 410, 'width': 410, 'height': 410, 'widthPercent': 0.45, 'rescaleHeight': False, 'trialN': 6, 'loaded': True, 'loadedTime': 2192.5, 'positionName': 'RIGHT', 'positionCoords': [998.4, 335], 'bid': 7.81}]",13569.700000047684,1669833439503,veggieswithdip,fried eggs,8.08,7.81,-0.27000000000000046,fried eggs,1532.2999999523163,1532,1532.5999999046326,True,i,15623.399999856949,2053.699999809265,1669833441557,2054,,HRV,HRV_0149,2022-11-30 18:42:19
7,"[{'imgObject': {}, 'id': 'fried eggs', 'src': '/static/foodstim60/fried eggs.jpg', 'key': 'u', 'origWidth': 410, 'origHeight': 410, 'width': 410, 'height': 410, 'widthPercent': 0.45, 'rescaleHeight': False, 'trialN': 7, 'loaded': True, 'loadedTime': 2193.0999999046326, 'positionName': 'LEFT', 'positionCoords': [511.6, 335], 'bid': 7.81}, {'imgObject': {}, 'id': 'luckycharms', 'src': '/static/foodstim60/luckycharms.jpg', 'key': 'i', 'origWidth': 410, 'origHeight': 409, 'width': 410, 'height': 409, 'widthPercent': 0.45, 'rescaleHeight': False, 'trialN': 7, 'loaded': True, 'loadedTime': 2194.399999856949, 'positionName': 'RIGHT', 'positionCoords': [998.4, 335.5], 'bid': 7.94}]",15623.799999952316,1669833441557,fried eggs,luckycharms,7.81,7.94,0.13000000000000078,fried eggs,1322.4000000953674,1323,1322.7999999523163,True,u,17460.200000047684,1836.4000000953674,1669833443393,1836,,HRV,HRV_0149,2022-11-30 18:42:19
8,"[{'imgObject': {}, 'id': 'kiwi', 'src': '/static/foodstim60/kiwi.jpg', 'key': 'u', 'origWidth': 410, 'origHeight': 410, 'width': 410, 'height': 410, 'widthPercent': 0.45, 'rescaleHeight': False, 'trialN': 8, 'loaded': True, 'loadedTime': 2195.7999999523163, 'positionName': 'LEFT', 'positionCoords': [511.6, 335], 'bid': 4.67}, {'imgObject': {}, 'id': 'rigatoni', 'src': '/static/foodstim60/rigatoni.jpg', 'key': 'i', 'origWidth': 411, 'origHeight': 411, 'width': 411, 'height': 411, 'widthPercent': 0.45, 'rescaleHeight': False, 'trialN': 8, 'loaded': True, 'loadedTime': 2197.5, 'positionName': 'RIGHT', 'positionCoords': [998.4, 334.5], 'bid': 4.8}]",17460.39999985695,1669833443394,kiwi,rigatoni,4.67,4.8,0.1299999999999999,rigatoni,1546.5,1546,1547.0,True,i,19521.89999985695,2061.5,1669833445455,2061,,HRV,HRV_0149,2022-11-30 18:42:19
9,"[{'imgObject': {}, 'id': 'granola w milk', 'src': '/static/foodstim60/granola w milk.jpg', 'key': 'u', 'origWidth': 410, 'origHeight': 410, 'width': 410, 'height': 410, 'widthPercent': 0.45, 'rescaleHeight': False, 'trialN': 9, 'loaded': True, 'loadedTime': 2202.5, 'positionName': 'LEFT', 'positionCoords': [511.6, 335], 'bid': 8.84}, {'imgObject': {}, 'id': 'eggsalad', 'src': '/static/foodstim60/eggsalad.jpg', 'key': 'i', 'origWidth': 410, 'origHeight': 409, 'width': 410, 'height': 409, 'widthPercent': 0.45, 'rescaleHeight': False, 'trialN': 9, 'loaded': True, 'loadedTime': 2223.7999999523163, 'positionName': 'RIGHT', 'positionCoords': [998.4, 335.5], 'bid': 8.66}]",19522.200000047684,1669833445455,granola w milk,eggsalad,8.84,8.66,-0.17999999999999972,granola w milk,1298.0999999046326,1299,1298.3999998569489,True,u,21324.599999904633,1802.3999998569489,1669833447258,1803,,HRV,HRV_0149,2022-11-30 18:42:19
10,"[{'imgObject': {}, 'id': 'kiwi', 'src': '/static/foodstim60/kiwi.jpg', 'key': 'u', 'origWidth': 410, 'origHeight': 410, 'width': 410, 'height': 410, 'widthPercent': 0.45, 'rescaleHeight': False, 'trialN': 10, 'loaded': True, 'loadedTime': 2195, 'positionName': 'LEFT', 'positionCoords': [511.6, 335], 'bid': 4.67}, {'imgObject': {}, 'id': 'banana', 'src': '/static/foodstim60/banana.jpg', 'key': 'i', 'origWidth': 410, 'origHeight': 410, 'width': 410, 'height': 410, 'widthPercent': 0.45, 'rescaleHeight': False, 'trialN': 10, 'loaded': True, 'loadedTime': 2225.0999999046326, 'positionName': 'RIGHT', 'positionCoords': [998.4, 335], 'bid': 3.01}]",21324.89999985695,1669833447258,kiwi,banana,4.67,3.01,-1.6600000000000001,banana,1102.1000001430511,1103,1102.6000001430511,True,i,22940.89999985695,1616.0,1669833448874,1616,"[{'event': 'onblur', 'details': 'out of focus', 'performance time': 22664.200000047684, 'date time': 1669833448597}, {'event': 'fullscreenchange', 'details': 'fullscreenexit', 'performance time': 22666.299999952316, 'date time': 1669833448599}, {'event': 'visibilitychange', 'details': 'hidden', 'performance time': 22670.599999904633, 'date time': 1669833448604}, {'event': 'onfocus', 'details': 'in focus', 'performance time': 22722, 'date time': 1669833448655}, {'event': 'visibilitychange', 'details': 'visible', 'performance time': 22738.89999985695, 'date time': 1669833448672}]",HRV,HRV_0149,2022-11-30 18:42:19
11,"[{'imgObject': {}, 'id': 'turkeysandwich', 'src': '/static/foodstim60/turkeysandwich.jpg', 'key': 'u', 'origWidth': 409, 'origHeight': 409, 'width': 409, 'height': 409, 'widthPercent': 0.45, 'rescaleHeight': False, 'trialN': 11, 'loaded': True, 'loadedTime': 22944, 'positionName': 'LEFT', 'positionCoords': [512.6, 264], 'bid': 9.91}, {'imgObject': {}, 'id': 'steak', 'src': '/static/foodstim60/steak.jpg', 'key': 'i', 'origWidth': 410, 'origHeight': 410, 'width': 410, 'height': 410, 'widthPercent': 0.45, 'rescaleHeight': False, 'trialN': 11, 'loaded': True, 'loadedTime': 22944.299999952316, 'positionName': 'RIGHT', 'positionCoords': [998.4, 263.5], 'bid': 10}]",22941.599999904633,1669833448875,turkeysandwich,steak,9.91,10.0,0.08999999999999986,steak,1403.6000001430511,1404,1403.9000000953674,True,i,24853.0,1911.4000000953674,1669833450786,1911,,HRV,HRV_0149,2022-11-30 18:42:19
12,"[{'imgObject': {}, 'id': 'eggsalad', 'src': '/static/foodstim60/eggsalad.jpg', 'key': 'u', 'origWidth': 410, 'origHeight': 409, 'width': 410, 'height': 409, 'widthPercent': 0.45, 'rescaleHeight': False, 'trialN': 12, 'loaded': True, 'loadedTime': 24856.099999904633, 'positionName': 'LEFT', 'positionCoords': [511.6, 264], 'bid': 8.66}, {'imgObject': {}, 'id': 'mac & cheese', 'src': '/static/foodstim60/mac & cheese.jpg', 'key': 'i', 'origWidth': 410, 'origHeight': 410, 'width': 410, 'height': 410, 'widthPercent': 0.45, 'rescaleHeight': False, 'trialN': 12, 'loaded': True, 'loadedTime': 24856.599999904633, 'positionName': 'RIGHT', 'positionCoords': [998.4, 263.5], 'bid': 9.98}]",24853.799999952316,1669833450787,eggsalad,mac & cheese,8.66,9.98,1.3200000000000003,mac & cheese,880.2999999523163,881,880.7000000476837,True,i,26249.0,1395.2000000476837,1669833452182,1395,,HRV,HRV_0149,2022-11-30 18:42:19
13,"[{'imgObject': {}, 'id': 'mango', 'src': '/static/foodstim60/mango.jpg', 'key': 'u', 'origWidth': 411, 'origHeight': 411, 'width': 411, 'height': 411, 'widthPercent': 0.45, 'rescaleHeight': False, 'trialN': 13, 'loaded': True, 'loadedTime': 26250.700000047684, 'positionName': 'LEFT', 'positionCoords': [510.6, 263], 'bid': 4.87}, {'imgObject': {}, 'id': 'rigatoni and sauce', 'src': '/static/foodstim60/rigatoni and sauce.jpg', 'key': 'i', 'origWidth': 410, 'origHeight': 411, 'width': 410, 'height': 411, 'widthPercent': 0.45, 'rescaleHeight': False, 'trialN': 13, 'loaded': True, 'loadedTime': 26251, 'positionName': 'RIGHT', 'positionCoords': [998.4, 263], 'bid': 5.48}]",26249.5,1669833452183,mango,rigatoni and sauce,4.87,5.48,0.6100000000000003,rigatoni and sauce,947.5999999046326,948,948.0,True,i,27707.89999985695,1458.3999998569489,1669833453641,1458,,HRV,HRV_0149,2022-11-30 18:42:19
14,"[{'imgObject': {}, 'id': 'burger', 'src': '/static/foodstim60/burger.jpg', 'key': 'u', 'origWidth': 409, 'origHeight': 409, 'width': 409, 'height': 409, 'widthPercent': 0.45, 'rescaleHeight': False, 'trialN': 14, 'loaded': True, 'loadedTime': 27710.799999952316, 'positionName': 'LEFT', 'positionCoords': [512.6, 264], 'bid': 9.36}, {'imgObject': {}, 'id': 'mac & cheese', 'src': '/static/foodstim60/mac & cheese.jpg', 'key': 'i', 'origWidth': 410, 'origHeight': 410, 'width': 410, 'height': 410, 'widthPercent': 0.45, 'rescaleHeight': False, 'trialN': 14, 'loaded': True, 'loadedTime': 27711.5, 'positionName': 'RIGHT', 'positionCoords': [998.4, 263.5], 'bid': 9.98}]",27708.599999904633,1669833453642,burger,mac & cheese,9.36,9.98,0.620000000000001,mac & cheese,1069.7999999523163,1070,1070.0,True,i,29293.200000047684,1584.6000001430511,1669833455226,1584,"[{'event': 'onblur', 'details': 'out of focus', 'performance time': 28643.5, 'date time': 1669833454577}, {'event': 'visibilitychange', 'details': 'hidden', 'performance time': 28647.700000047684, 'date time': 1669833454581}, {'event': 'onfocus', 'details': 'in focus', 'performance time': 28674.89999985695, 'date time': 1669833454608}, {'event': 'visibilitychange', 'details': 'visible', 'performance time': 28680.39999985695, 'date time': 1669833454613}]",HRV,HRV_0149,2022-11-30 18:42:19
15,"[{'imgObject': {}, 'id': 'salmon', 'src': '/static/foodstim60/salmon.jpg', 'key': 'u', 'origWidth': 410, 'origHeight': 409, 'width': 410, 'height': 409, 'widthPercent': 0.45, 'rescaleHeight': False, 'trialN': 15, 'loaded': True, 'loadedTime': 29296.799999952316, 'positionName': 'LEFT', 'positionCoords': [511.6, 264], 'bid': 9.88}, {'imgObject': {}, 'id': 'baked potato', 'src': '/static/foodstim60/baked potato.jpg', 'key': 'i', 'origWidth': 409, 'origHeight': 410, 'width': 409, 'height': 410, 'widthPercent': 0.45, 'rescaleHeight': False, 'trialN': 15, 'loaded': True, 'loadedTime': 29297.200000047684, 'positionName': 'RIGHT', 'positionCoords': [998.4, 263.5], 'bid': 9.66}]",29293.599999904633,1669833455227,salmon,baked potato,9.88,9.66,-0.22000000000000064,baked potato,1261.5,1262,1261.7999999523163,True,i,31073.0,1779.4000000953674,1669833457006,1779,,HRV,HRV_0149,2022-11-30 18:42:19
16,"[{'imgObject': {}, 'id': 'yogurt no spoon', 'src': '/static/foodstim60/yogurt no spoon.jpg', 'key': 'u', 'origWidth': 411, 'origHeight': 410, 'width': 411, 'height': 410, 'widthPercent': 0.45, 'rescaleHeight': False, 'trialN': 16, 'loaded': True, 'loadedTime': 31076.099999904633, 'positionName': 'LEFT', 'positionCoords': [510.6, 263.5], 'bid': 9.32}, {'imgObject': {}, 'id': 'turkey sandwich', 'src': '/static/foodstim60/turkey sandwich.jpg', 'key': 'i', 'origWidth': 409, 'origHeight': 409, 'width': 409, 'height': 409, 'widthPercent': 0.45, 'rescaleHeight': False, 'trialN': 16, 'loaded': True, 'loadedTime': 31076.799999952316, 'positionName': 'RIGHT', 'positionCoords': [998.4, 264], 'bid': 10}]",31073.799999952316,1669833457007,yogurt no spoon,turkey sandwich,9.32,10.0,0.6799999999999997,turkey sandwich,1586.5,1587,1586.7999999523163,True,i,33168.0,2094.2000000476837,1669833459101,2094,,HRV,HRV_0149,2022-11-30 18:42:19
17,"[{'imgObject': {}, 'id': 'mac & cheese', 'src': '/static/foodstim60/mac & cheese.jpg', 'key': 'u', 'origWidth': 410, 'origHeight': 410, 'width': 410, 'height': 410, 'widthPercent': 0.45, 'rescaleHeight': False, 'trialN': 17, 'loaded': True, 'loadedTime': 33169.89999985695, 'positionName': 'LEFT', 'positionCoords': [511.6, 263.5], 'bid': 9.98}, {'imgObject': {}, 'id': 'chickenfingers', 'src': '/static/foodstim60/chickenfingers.jpg', 'key': 'i', 'origWidth': 410, 'origHeight': 410, 'width': 410, 'height': 410, 'widthPercent': 0.45, 'rescaleHeight': False, 'trialN': 17, 'loaded': True, 'loadedTime': 33170.09999990463, 'positionName': 'RIGHT', 'positionCoords': [998.4, 263.5], 'bid': 9.93}]",33168.5,1669833459102,mac & cheese,chickenfingers,9.98,9.93,-0.05000000000000071,mac & cheese,1117.2999999523163,1118,1118.0999999046326,True,u,34808.200000047684,1639.7000000476837,1669833460741,1639,,HRV,HRV_0149,2022-11-30 18:42:19
18,"[{'imgObject': {}, 'id': 'yogurt no spoon', 'src': '/static/foodstim60/yogurt no spoon.jpg', 'key': 'u', 'origWidth': 411, 'origHeight': 410, 'width': 411, 'height': 410, 'widthPercent': 0.45, 'rescaleHeight': False, 'trialN': 18, 'loaded': True, 'loadedTime': 34811.299999952316, 'positionName': 'LEFT', 'positionCoords': [510.6, 263.5], 'bid': 9.32}, {'imgObject': {}, 'id': 'veggieswithdip', 'src': '/static/foodstim60/veggieswithdip.jpg', 'key': 'i', 'origWidth': 409, 'origHeight': 409, 'width': 409, 'height': 409, 'widthPercent': 0.45, 'rescaleHeight': False, 'trialN': 18, 'loaded': True, 'loadedTime': 34811.799999952316, 'positionName': 'RIGHT', 'positionCoords': [998.4, 264], 'bid': 8.08}]",34809.0,1669833460742,yogurt no spoon,veggieswithdip,9.32,8.08,-1.2400000000000002,veggieswithdip,1911.3999998569489,1912,1912.0,True,i,37239.59999990463,2430.5999999046326,1669833463173,2431,,HRV,HRV_0149,2022-11-30 18:42:19
19,"[{'imgObject': {}, 'id': 'rigatoni and sauce', 'src': '/static/foodstim60/rigatoni and sauce.jpg', 'key': 'u', 'origWidth': 410, 'origHeight': 411, 'width': 410, 'height': 411, 'widthPercent': 0.45, 'rescaleHeight': False, 'trialN': 19, 'loaded': True, 'loadedTime': 37242.5, 'positionName': 'LEFT', 'positionCoords': [511.6, 263], 'bid': 5.48}, {'imgObject': {}, 'id': 'froot loops w milk', 'src': '/static/foodstim60/froot loops w milk.jpg', 'key': 'i', 'origWidth': 410, 'origHeight': 410, 'width': 410, 'height': 410, 'widthPercent': 0.45, 'rescaleHeight': False, 'trialN': 19, 'loaded': True, 'loadedTime': 37242.89999985695, 'positionName': 'RIGHT', 'positionCoords': [998.4, 263.5], 'bid': 9.5}]",37240.299999952316,1669833463173,rigatoni and sauce,froot loops w milk,5.48,9.5,4.02,froot loops w milk,1176.7999999523163,1178,1177.2000000476837,True,i,38922.200000047684,1681.9000000953674,1669833464855,1682,,HRV,HRV_0149,2022-11-30 18:42:19
20,"[{'imgObject': {}, 'id': 'burrito', 'src': '/static/foodstim60/burrito.jpg', 'key': 'u', 'origWidth': 410, 'origHeight': 410, 'width': 410, 'height': 410, 'widthPercent': 0.45, 'rescaleHeight': False, 'trialN': 20, 'loaded': True, 'loadedTime': 38923.89999985695, 'positionName': 'LEFT', 'positionCoords': [511.6, 263.5], 'bid': 9.4}, {'imgObject': {}, 'id': 'sweetpotato', 'src': '/static/foodstim60/sweetpotato.jpg', 'key': 'i', 'origWidth': 410, 'origHeight': 410, 'width': 410, 'height': 410, 'widthPercent': 0.45, 'rescaleHeight': False, 'trialN': 20, 'loaded': True, 'loadedTime': 38924.299999952316, 'positionName': 'RIGHT', 'positionCoords': [998.4, 263.5], 'bid': 10}]",38922.59999990463,1669833464856,burrito,sweetpotato,9.4,10.0,0.5999999999999996,sweetpotato,1388.5,1389,1388.9000000953674,True,i,40825.5,1902.9000000953674,1669833466759,1903,,HRV,HRV_0149,2022-11-30 18:42:19
21,"[{'imgObject': {}, 'id': 'fried eggs', 'src': '/static/foodstim60/fried eggs.jpg', 'key': 'u', 'origWidth': 410, 'origHeight': 410, 'width': 410, 'height': 410, 'widthPercent': 0.45, 'rescaleHeight': False, 'trialN': 21, 'loaded': True, 'loadedTime': 40828.59999990463, 'positionName': 'LEFT', 'positionCoords': [511.6, 263.5], 'bid': 7.81}, {'imgObject': {}, 'id': 'mashed potato', 'src': '/static/foodstim60/mashed potato.jpg', 'key': 'i', 'origWidth': 409, 'origHeight': 409, 'width': 409, 'height': 409, 'widthPercent': 0.45, 'rescaleHeight': False, 'trialN': 21, 'loaded': True, 'loadedTime': 40829.299999952316, 'positionName': 'RIGHT', 'positionCoords': [998.4, 264], 'bid': 6.57}]",40826.299999952316,1669833466759,fried eggs,mashed potato,7.81,6.57,-1.2399999999999993,mashed potato,1041.7000000476837,1043,1042.2000000476837,True,i,42374.09999990463,1547.7999999523163,1669833468307,1548,,HRV,HRV_0149,2022-11-30 18:42:19
22,"[{'imgObject': {}, 'id': 'raisin bran w milk', 'src': '/static/foodstim60/raisin bran w milk.jpg', 'key': 'u', 'origWidth': 411, 'origHeight': 411, 'width': 411, 'height': 411, 'widthPercent': 0.45, 'rescaleHeight': False, 'trialN': 22, 'loaded': True, 'loadedTime': 42377, 'positionName': 'LEFT', 'positionCoords': [510.6, 263], 'bid': 7.41}, {'imgObject': {}, 'id': 'eggs', 'src': '/static/foodstim60/eggs.jpg', 'key': 'i', 'origWidth': 409, 'origHeight': 409, 'width': 409, 'height': 409, 'widthPercent': 0.45, 'rescaleHeight': False, 'trialN': 22, 'loaded': True, 'loadedTime': 42377.39999985695, 'positionName': 'RIGHT', 'positionCoords': [998.4, 264], 'bid': 7.4}]",42374.799999952316,1669833468308,raisin bran w milk,eggs,7.41,7.4,-0.009999999999999787,raisin bran w milk,1076.9000000953674,1077,1077.4000000953674,True,u,43968.09999990463,1593.2999999523163,1669833469901,1593,,HRV,HRV_0149,2022-11-30 18:42:19
23,"[{'imgObject': {}, 'id': 'sushi w_condiments', 'src': '/static/foodstim60/sushi w_condiments.jpg', 'key': 'u', 'origWidth': 410, 'origHeight': 410, 'width': 410, 'height': 410, 'widthPercent': 0.45, 'rescaleHeight': False, 'trialN': 23, 'loaded': True, 'loadedTime': 43969.799999952316, 'positionName': 'LEFT', 'positionCoords': [511.6, 263.5], 'bid': 6.71}, {'imgObject': {}, 'id': 'hashbrowns', 'src': '/static/foodstim60/hashbrowns.jpg', 'key': 'i', 'origWidth': 411, 'origHeight': 410, 'width': 411, 'height': 410, 'widthPercent': 0.45, 'rescaleHeight': False, 'trialN': 23, 'loaded': True, 'loadedTime': 43970.09999990463, 'positionName': 'RIGHT', 'positionCoords': [998.4, 263.5], 'bid': 7.12}]",43968.39999985695,1669833469902,sushi w_condiments,hashbrowns,6.71,7.12,0.41000000000000014,hashbrowns,954.4000000953674,954,954.8000001907349,True,i,45425.700000047684,1457.3000001907349,1669833471359,1457,,HRV,HRV_0149,2022-11-30 18:42:19
24,"[{'imgObject': {}, 'id': 'cantaloupe', 'src': '/static/foodstim60/cantaloupe.jpg', 'key': 'u', 'origWidth': 409, 'origHeight': 409, 'width': 409, 'height': 409, 'widthPercent': 0.45, 'rescaleHeight': False, 'trialN': 24, 'loaded': True, 'loadedTime': 45427.39999985695, 'positionName': 'LEFT', 'positionCoords': [512.6, 264], 'bid': 6.16}, {'imgObject': {}, 'id': 'raspberries', 'src': '/static/foodstim60/raspberries.jpg', 'key': 'i', 'origWidth': 411, 'origHeight': 411, 'width': 411, 'height': 411, 'widthPercent': 0.45, 'rescaleHeight': False, 'trialN': 24, 'loaded': True, 'loadedTime': 45427.59999990463, 'positionName': 'RIGHT', 'positionCoords': [998.4, 263], 'bid': 6.12}]",45426.299999952316,1669833471359,cantaloupe,raspberries,6.16,6.12,-0.040000000000000036,cantaloupe,1382.9000000953674,1384,1383.2999999523163,True,u,47323.200000047684,1896.9000000953674,1669833473256,1897,,HRV,HRV_0149,2022-11-30 18:42:19
25,"[{'imgObject': {}, 'id': 'omelette', 'src': '/static/foodstim60/omelette.jpg', 'key': 'u', 'origWidth': 410, 'origHeight': 409, 'width': 410, 'height': 409, 'widthPercent': 0.45, 'rescaleHeight': False, 'trialN': 25, 'loaded': True, 'loadedTime': 47326, 'positionName': 'LEFT', 'positionCoords': [511.6, 264], 'bid': 8.82}, {'imgObject': {}, 'id': 'rigatoni', 'src': '/static/foodstim60/rigatoni.jpg', 'key': 'i', 'origWidth': 411, 'origHeight': 411, 'width': 411, 'height': 411, 'widthPercent': 0.45, 'rescaleHeight': False, 'trialN': 25, 'loaded': True, 'loadedTime': 47326.700000047684, 'positionName': 'RIGHT', 'positionCoords': [998.4, 263], 'bid': 4.8}]",47323.799999952316,1669833473257,omelette,rigatoni,8.82,4.8,-4.0200000000000005,omelette,1205.2999999523163,1206,1205.5999999046326,True,u,49045.09999990463,1721.2999999523163,1669833474978,1721,,HRV,HRV_0149,2022-11-30 18:42:19
26,"[{'imgObject': {}, 'id': 'lox', 'src': '/static/foodstim60/lox.jpg', 'key': 'u', 'origWidth': 410, 'origHeight': 411, 'width': 410, 'height': 411, 'widthPercent': 0.45, 'rescaleHeight': False, 'trialN': 26, 'loaded': True, 'loadedTime': 49048.200000047684, 'positionName': 'LEFT', 'positionCoords': [511.6, 263], 'bid': 2.18}, {'imgObject': {}, 'id': 'seaweed', 'src': '/static/foodstim60/seaweed.jpg', 'key': 'i', 'origWidth': 410, 'origHeight': 410, 'width': 410, 'height': 410, 'widthPercent': 0.45, 'rescaleHeight': False, 'trialN': 26, 'loaded': True, 'loadedTime': 49048.700000047684, 'positionName': 'RIGHT', 'positionCoords': [998.4, 263.5], 'bid': 1.38}]",49045.799999952316,1669833474979,lox,seaweed,2.18,1.38,-0.8000000000000003,lox,1162.0,1162,1162.2000000476837,True,u,50724.89999985695,1679.0999999046326,1669833476658,1679,,HRV,HRV_0149,2022-11-30 18:42:19
27,"[{'imgObject': {}, 'id': 'fried eggs', 'src': '/static/foodstim60/fried eggs.jpg', 'key': 'u', 'origWidth': 410, 'origHeight': 410, 'width': 410, 'height': 410, 'widthPercent': 0.45, 'rescaleHeight': False, 'trialN': 27, 'loaded': True, 'loadedTime': 50727.39999985695, 'positionName': 'LEFT', 'positionCoords': [511.6, 263.5], 'bid': 7.81}, {'imgObject': {}, 'id': 'cherry tomato', 'src': '/static/foodstim60/cherry tomato.jpg', 'key': 'i', 'origWidth': 410, 'origHeight': 410, 'width': 410, 'height': 410, 'widthPercent': 0.45, 'rescaleHeight': False, 'trialN': 27, 'loaded': True, 'loadedTime': 50727.799999952316, 'positionName': 'RIGHT', 'positionCoords': [998.4, 263.5], 'bid': 3.09}]",50725.5,1669833476659,fried eggs,cherry tomato,7.81,3.09,-4.72,fried eggs,1467.5999999046326,1468,1468.0,True,u,52706.59999990463,1981.0999999046326,1669833478640,1981,,HRV,HRV_0149,2022-11-30 18:42:19
28,"[{'imgObject': {}, 'id': 'cocktailshrimp', 'src': '/static/foodstim60/cocktailshrimp.jpg', 'key': 'u', 'origWidth': 410, 'origHeight': 410, 'width': 410, 'height': 410, 'widthPercent': 0.45, 'rescaleHeight': False, 'trialN': 28, 'loaded': True, 'loadedTime': 52709.59999990463, 'positionName': 'LEFT', 'positionCoords': [511.6, 263.5], 'bid': 3.09}, {'imgObject': {}, 'id': 'olives', 'src': '/static/foodstim60/olives.jpg', 'key': 'i', 'origWidth': 410, 'origHeight': 410, 'width': 410, 'height': 410, 'widthPercent': 0.45, 'rescaleHeight': False, 'trialN': 28, 'loaded': True, 'loadedTime': 52709.89999985695, 'positionName': 'RIGHT', 'positionCoords': [998.4, 263.5], 'bid': 3.92}]",52707.299999952316,1669833478640,cocktailshrimp,olives,3.09,3.92,0.8300000000000001,olives,962.5999999046326,964,963.0999999046326,True,i,54183.39999985695,1476.0999999046326,1669833480117,1477,,HRV,HRV_0149,2022-11-30 18:42:19
29,"[{'imgObject': {}, 'id': 'bagel plain', 'src': '/static/foodstim60/bagel plain.jpg', 'key': 'u', 'origWidth': 410, 'origHeight': 410, 'width': 410, 'height': 410, 'widthPercent': 0.45, 'rescaleHeight': False, 'trialN': 29, 'loaded': True, 'loadedTime': 54185.39999985695, 'positionName': 'LEFT', 'positionCoords': [511.6, 263.5], 'bid': 7.5}, {'imgObject': {}, 'id': 'cheerios', 'src': '/static/foodstim60/cheerios.jpg', 'key': 'i', 'origWidth': 409, 'origHeight': 410, 'width': 409, 'height': 410, 'widthPercent': 0.45, 'rescaleHeight': False, 'trialN': 29, 'loaded': True, 'loadedTime': 54185.59999990463, 'positionName': 'RIGHT', 'positionCoords': [998.4, 263.5], 'bid': 7.65}]",54183.89999985695,1669833480117,bagel plain,cheerios,7.5,7.65,0.15000000000000036,cheerios,1053.5,1054,1053.9000000953674,True,i,55745.5,1561.6000001430511,1669833481679,1562,,HRV,HRV_0149,2022-11-30 18:42:19
30,"[{'imgObject': {}, 'id': 'froot loops w milk', 'src': '/static/foodstim60/froot loops w milk.jpg', 'key': 'u', 'origWidth': 410, 'origHeight': 410, 'width': 410, 'height': 410, 'widthPercent': 0.45, 'rescaleHeight': False, 'trialN': 30, 'loaded': True, 'loadedTime': 55747.200000047684, 'positionName': 'LEFT', 'positionCoords': [511.6, 263.5], 'bid': 9.5}, {'imgObject': {}, 'id': 'baked potato', 'src': '/static/foodstim60/baked potato.jpg', 'key': 'i', 'origWidth': 409, 'origHeight': 410, 'width': 409, 'height': 410, 'widthPercent': 0.45, 'rescaleHeight': False, 'trialN': 30, 'loaded': True, 'loadedTime': 55747.5, 'positionName': 'RIGHT', 'positionCoords': [998.4, 263.5], 'bid': 9.66}]",55745.89999985695,1669833481679,froot loops w milk,baked potato,9.5,9.66,0.16000000000000014,baked potato,994.0,995,994.5,True,i,57256.799999952316,1510.9000000953674,1669833483190,1511,,HRV,HRV_0149,2022-11-30 18:42:19
31,"[{'imgObject': {}, 'id': 'avocado', 'src': '/static/foodstim60/avocado.jpg', 'key': 'u', 'origWidth': 409, 'origHeight': 409, 'width': 409, 'height': 409, 'widthPercent': 0.45, 'rescaleHeight': False, 'trialN': 31, 'loaded': True, 'loadedTime': 57258.700000047684, 'positionName': 'LEFT', 'positionCoords': [512.6, 264], 'bid': 5.4}, {'imgObject': {}, 'id': 'popsicles', 'src': '/static/foodstim60/popsicles.jpg', 'key': 'i', 'origWidth': 410, 'origHeight': 410, 'width': 410, 'height': 410, 'widthPercent': 0.45, 'rescaleHeight': False, 'trialN': 31, 'loaded': True, 'loadedTime': 57259, 'positionName': 'RIGHT', 'positionCoords': [998.4, 263.5], 'bid': 6.1000000000000005}]",57257.299999952316,1669833483190,avocado,popsicles,5.4,6.1000000000000005,0.7000000000000002,avocado,1292.5999999046326,1293,1293.0999999046326,True,u,59057.799999952316,1800.5,1669833484991,1801,"[{'event': 'onblur', 'details': 'out of focus', 'performance time': 58632.89999985695, 'date time': 1669833484566}, {'event': 'visibilitychange', 'details': 'hidden', 'performance time': 58637, 'date time': 1669833484570}, {'event': 'onfocus', 'details': 'in focus', 'performance time': 58667.799999952316, 'date time': 1669833484601}, {'event': 'visibilitychange', 'details': 'visible', 'performance time': 58673.39999985695, 'date time': 1669833484607}, {'event': 'onblur', 'details': 'out of focus', 'performance time': 58676.799999952316, 'date time': 1669833484610}, {'event': 'visibilitychange', 'details': 'hidden', 'performance time': 58679.09999990463, 'date time': 1669833484612}, {'event': 'onfocus', 'details': 'in focus', 'performance time': 58716.700000047684, 'date time': 1669833484650}, {'event': 'visibilitychange', 'details': 'visible', 'performance time': 58723.5, 'date time': 1669833484657}]",HRV,HRV_0149,2022-11-30 18:42:19
32,"[{'imgObject': {}, 'id': 'pear', 'src': '/static/foodstim60/pear.jpg', 'key': 'u', 'origWidth': 411, 'origHeight': 410, 'width': 411, 'height': 410, 'widthPercent': 0.45, 'rescaleHeight': False, 'trialN': 32, 'loaded': True, 'loadedTime': 59064.09999990463, 'positionName': 'LEFT', 'positionCoords': [510.6, 263.5], 'bid': 4.0200000000000005}, {'imgObject': {}, 'id': 'strawberries', 'src': '/static/foodstim60/strawberries.jpg', 'key': 'i', 'origWidth': 410, 'origHeight': 410, 'width': 410, 'height': 410, 'widthPercent': 0.45, 'rescaleHeight': False, 'trialN': 32, 'loaded': True, 'loadedTime': 59064.700000047684, 'positionName': 'RIGHT', 'positionCoords': [998.4, 263.5], 'bid': 6.34}]",59058.59999990463,1669833484992,pear,strawberries,4.0200000000000005,6.34,2.3199999999999994,pear,3123.600000143051,3110,3123.7999999523163,True,u,62698.5,3639.9000000953674,1669833488619,3627,,HRV,HRV_0149,2022-11-30 18:42:19
33,"[{'imgObject': {}, 'id': 'turkey sandwich', 'src': '/static/foodstim60/turkey sandwich.jpg', 'key': 'u', 'origWidth': 409, 'origHeight': 409, 'width': 409, 'height': 409, 'widthPercent': 0.45, 'rescaleHeight': False, 'trialN': 33, 'loaded': True, 'loadedTime': 62701, 'positionName': 'LEFT', 'positionCoords': [512.6, 264], 'bid': 10}, {'imgObject': {}, 'id': 'ice cream sundae 002', 'src': '/static/foodstim60/ice cream sundae 002.jpg', 'key': 'i', 'origWidth': 409, 'origHeight': 409, 'width': 409, 'height': 409, 'widthPercent': 0.45, 'rescaleHeight': False, 'trialN': 33, 'loaded': True, 'loadedTime': 62701.39999985695, 'positionName': 'RIGHT', 'positionCoords': [998.4, 264], 'bid': 6.86}]",62699.0,1669833488619,turkey sandwich,ice cream sundae 002,10.0,6.86,-3.1399999999999997,turkey sandwich,1530.5999999046326,1531,1531.0999999046326,True,u,64736.299999952316,2037.2999999523163,1669833490656,2037,"[{'event': 'onblur', 'details': 'out of focus', 'performance time': 64647.200000047684, 'date time': 1669833490567}, {'event': 'visibilitychange', 'details': 'hidden', 'performance time': 64651, 'date time': 1669833490571}, {'event': 'onfocus', 'details': 'in focus', 'performance time': 64689.799999952316, 'date time': 1669833490610}, {'event': 'visibilitychange', 'details': 'visible', 'performance time': 64695.700000047684, 'date time': 1669833490616}, {'event': 'onblur', 'details': 'out of focus', 'performance time': 64697, 'date time': 1669833490617}, {'event': 'visibilitychange', 'details': 'hidden', 'performance time': 64699.09999990463, 'date time': 1669833490619}, {'event': 'onfocus', 'details': 'in focus', 'performance time': 64728.59999990463, 'date time': 1669833490649}, {'event': 'visibilitychange', 'details': 'visible', 'performance time': 64735.89999985695, 'date time': 1669833490656}]",HRV,HRV_0149,2022-11-30 18:42:19
34,"[{'imgObject': {}, 'id': 'chicken nuggets2', 'src': '/static/foodstim60/chicken nuggets2.jpg', 'key': 'u', 'origWidth': 410, 'origHeight': 409, 'width': 410, 'height': 409, 'widthPercent': 0.45, 'rescaleHeight': False, 'trialN': 34, 'loaded': True, 'loadedTime': 64742.799999952316, 'positionName': 'LEFT', 'positionCoords': [511.6, 264], 'bid': 9.57}, {'imgObject': {}, 'id': 'popsicles', 'src': '/static/foodstim60/popsicles.jpg', 'key': 'i', 'origWidth': 410, 'origHeight': 410, 'width': 410, 'height': 410, 'widthPercent': 0.45, 'rescaleHeight': False, 'trialN': 34, 'loaded': True, 'loadedTime': 64743.200000047684, 'positionName': 'RIGHT', 'positionCoords': [998.4, 263.5], 'bid': 6.1000000000000005}]",64736.799999952316,1669833490657,chicken nuggets2,popsicles,9.57,6.1000000000000005,-3.4699999999999998,chicken nuggets2,968.7999999523163,969,969.2000000476837,True,u,66216.39999985695,1479.5999999046326,1669833492137,1480,,HRV,HRV_0149,2022-11-30 18:42:19
35,"[{'imgObject': {}, 'id': 'eggs', 'src': '/static/foodstim60/eggs.jpg', 'key': 'u', 'origWidth': 409, 'origHeight': 409, 'width': 409, 'height': 409, 'widthPercent': 0.45, 'rescaleHeight': False, 'trialN': 35, 'loaded': True, 'loadedTime': 66218.20000004768, 'positionName': 'LEFT', 'positionCoords': [512.6, 264], 'bid': 7.4}, {'imgObject': {}, 'id': 'burrito', 'src': '/static/foodstim60/burrito.jpg', 'key': 'i', 'origWidth': 410, 'origHeight': 410, 'width': 410, 'height': 410, 'widthPercent': 0.45, 'rescaleHeight': False, 'trialN': 35, 'loaded': True, 'loadedTime': 66218.5, 'positionName': 'RIGHT', 'positionCoords': [998.4, 263.5], 'bid': 9.4}]",66216.79999995232,1669833492137,eggs,burrito,7.4,9.4,2.0,burrito,1154.2999999523163,1155,1154.7000000476837,True,i,67882.70000004768,1665.9000000953674,1669833493803,1666,,HRV,HRV_0149,2022-11-30 18:42:19
36,"[{'imgObject': {}, 'id': 'fruitsalad', 'src': '/static/foodstim60/fruitsalad.jpg', 'key': 'u', 'origWidth': 410, 'origHeight': 410, 'width': 410, 'height': 410, 'widthPercent': 0.45, 'rescaleHeight': False, 'trialN': 36, 'loaded': True, 'loadedTime': 67884.70000004768, 'positionName': 'LEFT', 'positionCoords': [511.6, 263.5], 'bid': 6.43}, {'imgObject': {}, 'id': 'mac & cheese', 'src': '/static/foodstim60/mac & cheese.jpg', 'key': 'i', 'origWidth': 410, 'origHeight': 410, 'width': 410, 'height': 410, 'widthPercent': 0.45, 'rescaleHeight': False, 'trialN': 36, 'loaded': True, 'loadedTime': 67884.89999985695, 'positionName': 'RIGHT', 'positionCoords': [998.4, 263.5], 'bid': 9.98}]",67883.09999990463,1669833493803,fruitsalad,mac & cheese,6.43,9.98,3.5500000000000007,fruitsalad,1018.2000000476837,1019,1018.6000001430511,True,u,69422.0,1538.9000000953674,1669833495342,1539,,HRV,HRV_0149,2022-11-30 18:42:19
37,"[{'imgObject': {}, 'id': 'mango', 'src': '/static/foodstim60/mango.jpg', 'key': 'u', 'origWidth': 411, 'origHeight': 411, 'width': 411, 'height': 411, 'widthPercent': 0.45, 'rescaleHeight': False, 'trialN': 37, 'loaded': True, 'loadedTime': 69425, 'positionName': 'LEFT', 'positionCoords': [510.6, 263], 'bid': 4.87}, {'imgObject': {}, 'id': 'shreddedwheatwithmilk', 'src': '/static/foodstim60/shreddedwheatwithmilk.jpg', 'key': 'i', 'origWidth': 410, 'origHeight': 410, 'width': 410, 'height': 410, 'widthPercent': 0.45, 'rescaleHeight': False, 'trialN': 37, 'loaded': True, 'loadedTime': 69425.5, 'positionName': 'RIGHT', 'positionCoords': [998.4, 263.5], 'bid': 6.59}]",69422.70000004768,1669833495343,mango,shreddedwheatwithmilk,4.87,6.59,1.7199999999999998,mango,1306.3999998569489,1307,1306.6999998092651,True,u,71248.5,1825.7999999523163,1669833497169,1826,"[{'event': 'onblur', 'details': 'out of focus', 'performance time': 69647.39999985695, 'date time': 1669833495568}, {'event': 'visibilitychange', 'details': 'hidden', 'performance time': 69651, 'date time': 1669833495571}, {'event': 'onfocus', 'details': 'in focus', 'performance time': 69678.39999985695, 'date time': 1669833495599}, {'event': 'visibilitychange', 'details': 'visible', 'performance time': 69684.79999995232, 'date time': 1669833495605}]",HRV,HRV_0149,2022-11-30 18:42:19
38,"[{'imgObject': {}, 'id': 'steak', 'src': '/static/foodstim60/steak.jpg', 'key': 'u', 'origWidth': 410, 'origHeight': 410, 'width': 410, 'height': 410, 'widthPercent': 0.45, 'rescaleHeight': False, 'trialN': 38, 'loaded': True, 'loadedTime': 71254.5, 'positionName': 'LEFT', 'positionCoords': [511.6, 263.5], 'bid': 10}, {'imgObject': {}, 'id': 'hotdog w must', 'src': '/static/foodstim60/hotdog w must.jpg', 'key': 'i', 'origWidth': 409, 'origHeight': 409, 'width': 409, 'height': 409, 'widthPercent': 0.45, 'rescaleHeight': False, 'trialN': 38, 'loaded': True, 'loadedTime': 71255.09999990463, 'positionName': 'RIGHT', 'positionCoords': [998.4, 264], 'bid': 9.98}]",71249.29999995232,1669833497169,steak,hotdog w must,10.0,9.98,-0.019999999999999574,steak,965.7999999523163,967,966.2000000476837,True,u,72723.20000004768,1473.9000000953674,1669833498643,1474,,HRV,HRV_0149,2022-11-30 18:42:19
39,"[{'imgObject': {}, 'id': 'avocado', 'src': '/static/foodstim60/avocado.jpg', 'key': 'u', 'origWidth': 409, 'origHeight': 409, 'width': 409, 'height': 409, 'widthPercent': 0.45, 'rescaleHeight': False, 'trialN': 39, 'loaded': True, 'loadedTime': 72726.29999995232, 'positionName': 'LEFT', 'positionCoords': [512.6, 264], 'bid': 5.4}, {'imgObject': {}, 'id': 'Grapes', 'src': '/static/foodstim60/Grapes.jpg', 'key': 'i', 'origWidth': 411, 'origHeight': 411, 'width': 411, 'height': 411, 'widthPercent': 0.45, 'rescaleHeight': False, 'trialN': 39, 'loaded': True, 'loadedTime': 72726.70000004768, 'positionName': 'RIGHT', 'positionCoords': [998.4, 263], 'bid': 5.38}]",72724.0,1669833498644,avocado,Grapes,5.4,5.38,-0.020000000000000462,avocado,1183.0999999046326,1184,1183.5,True,u,74412.20000004768,1688.2000000476837,1669833500332,1688,,HRV,HRV_0149,2022-11-30 18:42:19
40,"[{'imgObject': {}, 'id': 'turkey sandwich', 'src': '/static/foodstim60/turkey sandwich.jpg', 'key': 'u', 'origWidth': 409, 'origHeight': 409, 'width': 409, 'height': 409, 'widthPercent': 0.45, 'rescaleHeight': False, 'trialN': 40, 'loaded': True, 'loadedTime': 74414.20000004768, 'positionName': 'LEFT', 'positionCoords': [512.6, 264], 'bid': 10}, {'imgObject': {}, 'id': 'steak', 'src': '/static/foodstim60/steak.jpg', 'key': 'i', 'origWidth': 410, 'origHeight': 410, 'width': 410, 'height': 410, 'widthPercent': 0.45, 'rescaleHeight': False, 'trialN': 40, 'loaded': True, 'loadedTime': 74414.39999985695, 'positionName': 'RIGHT', 'positionCoords': [998.4, 263.5], 'bid': 10}]",74412.79999995232,1669833500333,turkey sandwich,steak,10.0,10.0,0.0,turkey sandwich,920.5999999046326,921,921.0,True,u,75837.89999985695,1425.0999999046326,1669833501758,1425,,HRV,HRV_0149,2022-11-30 18:42:19
41,"[{'imgObject': {}, 'id': 'burrito', 'src': '/static/foodstim60/burrito.jpg', 'key': 'u', 'origWidth': 410, 'origHeight': 410, 'width': 410, 'height': 410, 'widthPercent': 0.45, 'rescaleHeight': False, 'trialN': 41, 'loaded': True, 'loadedTime': 75839.20000004768, 'positionName': 'LEFT', 'positionCoords': [511.6, 263.5], 'bid': 9.4}, {'imgObject': {}, 'id': 'avocado', 'src': '/static/foodstim60/avocado.jpg', 'key': 'i', 'origWidth': 409, 'origHeight': 409, 'width': 409, 'height': 409, 'widthPercent': 0.45, 'rescaleHeight': False, 'trialN': 41, 'loaded': True, 'loadedTime': 75839.39999985695, 'positionName': 'RIGHT', 'positionCoords': [998.4, 264], 'bid': 5.4}]",75838.29999995232,1669833501758,burrito,avocado,9.4,5.4,-4.0,burrito,1594.0999999046326,1595,1594.5,True,u,77953.70000004768,2115.4000000953674,1669833503874,2116,,HRV,HRV_0149,2022-11-30 18:42:19
42,"[{'imgObject': {}, 'id': 'cherry tomato', 'src': '/static/foodstim60/cherry tomato.jpg', 'key': 'u', 'origWidth': 410, 'origHeight': 410, 'width': 410, 'height': 410, 'widthPercent': 0.45, 'rescaleHeight': False, 'trialN': 42, 'loaded': True, 'loadedTime': 77955.59999990463, 'positionName': 'LEFT', 'positionCoords': [511.6, 263.5], 'bid': 3.09}, {'imgObject': {}, 'id': 'olives', 'src': '/static/foodstim60/olives.jpg', 'key': 'i', 'origWidth': 410, 'origHeight': 410, 'width': 410, 'height': 410, 'widthPercent': 0.45, 'rescaleHeight': False, 'trialN': 42, 'loaded': True, 'loadedTime': 77955.89999985695, 'positionName': 'RIGHT', 'positionCoords': [998.4, 263.5], 'bid': 3.92}]",77954.39999985695,1669833503875,cherry tomato,olives,3.09,3.92,0.8300000000000001,olives,1687.7000000476837,1688,1688.2000000476837,True,i,80153.70000004768,2199.300000190735,1669833506074,2199,,HRV,HRV_0149,2022-11-30 18:42:19
43,"[{'imgObject': {}, 'id': 'lox', 'src': '/static/foodstim60/lox.jpg', 'key': 'u', 'origWidth': 410, 'origHeight': 411, 'width': 410, 'height': 411, 'widthPercent': 0.45, 'rescaleHeight': False, 'trialN': 43, 'loaded': True, 'loadedTime': 80155.59999990463, 'positionName': 'LEFT', 'positionCoords': [511.6, 263], 'bid': 2.18}, {'imgObject': {}, 'id': 'olives', 'src': '/static/foodstim60/olives.jpg', 'key': 'i', 'origWidth': 410, 'origHeight': 410, 'width': 410, 'height': 410, 'widthPercent': 0.45, 'rescaleHeight': False, 'trialN': 43, 'loaded': True, 'loadedTime': 80155.89999985695, 'positionName': 'RIGHT', 'positionCoords': [998.4, 263.5], 'bid': 3.92}]",80154.20000004768,1669833506074,lox,olives,2.18,3.92,1.7399999999999998,lox,1600.1999998092651,1601,1600.5999999046326,True,u,82273.39999985695,2119.199999809265,1669833508194,2120,,HRV,HRV_0149,2022-11-30 18:42:19
44,"[{'imgObject': {}, 'id': 'strawberries', 'src': '/static/foodstim60/strawberries.jpg', 'key': 'u', 'origWidth': 410, 'origHeight': 410, 'width': 410, 'height': 410, 'widthPercent': 0.45, 'rescaleHeight': False, 'trialN': 44, 'loaded': True, 'loadedTime': 82276.79999995232, 'positionName': 'LEFT', 'positionCoords': [511.6, 263.5], 'bid': 6.34}, {'imgObject': {}, 'id': 'avocado', 'src': '/static/foodstim60/avocado.jpg', 'key': 'i', 'origWidth': 409, 'origHeight': 409, 'width': 409, 'height': 409, 'widthPercent': 0.45, 'rescaleHeight': False, 'trialN': 44, 'loaded': True, 'loadedTime': 82277.09999990463, 'positionName': 'RIGHT', 'positionCoords': [998.4, 264], 'bid': 5.4}]",82274.20000004768,1669833508194,strawberries,avocado,6.34,5.4,-0.9399999999999995,strawberries,1386.6999998092651,1387,1387.0999999046326,True,u,84171.39999985695,1897.1999998092651,1669833510091,1897,,HRV,HRV_0149,2022-11-30 18:42:19
45,"[{'imgObject': {}, 'id': 'shreddedwheatwithmilk', 'src': '/static/foodstim60/shreddedwheatwithmilk.jpg', 'key': 'u', 'origWidth': 410, 'origHeight': 410, 'width': 410, 'height': 410, 'widthPercent': 0.45, 'rescaleHeight': False, 'trialN': 45, 'loaded': True, 'loadedTime': 84174.5, 'positionName': 'LEFT', 'positionCoords': [511.6, 263.5], 'bid': 6.59}, {'imgObject': {}, 'id': 'raisin bran w milk', 'src': '/static/foodstim60/raisin bran w milk.jpg', 'key': 'i', 'origWidth': 411, 'origHeight': 411, 'width': 411, 'height': 411, 'widthPercent': 0.45, 'rescaleHeight': False, 'trialN': 45, 'loaded': True, 'loadedTime': 84174.89999985695, 'positionName': 'RIGHT', 'positionCoords': [998.4, 263], 'bid': 7.41}]",84172.0,1669833510092,shreddedwheatwithmilk,raisin bran w milk,6.59,7.41,0.8200000000000003,shreddedwheatwithmilk,931.8999998569489,932,932.2999999523163,True,u,85624.70000004768,1452.7000000476837,1669833511545,1453,,HRV,HRV_0149,2022-11-30 18:42:19
46,"[{'imgObject': {}, 'id': 'granola w milk', 'src': '/static/foodstim60/granola w milk.jpg', 'key': 'u', 'origWidth': 410, 'origHeight': 410, 'width': 410, 'height': 410, 'widthPercent': 0.45, 'rescaleHeight': False, 'trialN': 46, 'loaded': True, 'loadedTime': 85628.09999990463, 'positionName': 'LEFT', 'positionCoords': [511.6, 263.5], 'bid': 8.84}, {'imgObject': {}, 'id': 'fried eggs', 'src': '/static/foodstim60/fried eggs.jpg', 'key': 'i', 'origWidth': 410, 'origHeight': 410, 'width': 410, 'height': 410, 'widthPercent': 0.45, 'rescaleHeight': False, 'trialN': 46, 'loaded': True, 'loadedTime': 85628.79999995232, 'positionName': 'RIGHT', 'positionCoords': [998.4, 263.5], 'bid': 7.81}]",85625.59999990463,1669833511546,granola w milk,fried eggs,8.84,7.81,-1.0300000000000002,granola w milk,1260.1000001430511,1260,1260.5,True,u,87408.0,1782.4000000953674,1669833513328,1782,,HRV,HRV_0149,2022-11-30 18:42:19
47,"[{'imgObject': {}, 'id': 'strawberries', 'src': '/static/foodstim60/strawberries.jpg', 'key': 'u', 'origWidth': 410, 'origHeight': 410, 'width': 410, 'height': 410, 'widthPercent': 0.45, 'rescaleHeight': False, 'trialN': 47, 'loaded': True, 'loadedTime': 87409.89999985695, 'positionName': 'LEFT', 'positionCoords': [511.6, 263.5], 'bid': 6.34}, {'imgObject': {}, 'id': 'cherries', 'src': '/static/foodstim60/cherries.jpg', 'key': 'i', 'origWidth': 410, 'origHeight': 411, 'width': 410, 'height': 411, 'widthPercent': 0.45, 'rescaleHeight': False, 'trialN': 47, 'loaded': True, 'loadedTime': 87410.09999990463, 'positionName': 'RIGHT', 'positionCoords': [998.4, 263], 'bid': 6.16}]",87408.59999990463,1669833513329,strawberries,cherries,6.34,6.16,-0.17999999999999972,cherries,2827.600000143051,2828,2828.0,True,i,90742.20000004768,3333.600000143051,1669833516662,3333,,HRV,HRV_0149,2022-11-30 18:42:19
48,"[{'imgObject': {}, 'id': 'Grapes', 'src': '/static/foodstim60/Grapes.jpg', 'key': 'u', 'origWidth': 411, 'origHeight': 411, 'width': 411, 'height': 411, 'widthPercent': 0.45, 'rescaleHeight': False, 'trialN': 48, 'loaded': True, 'loadedTime': 90745.79999995232, 'positionName': 'LEFT', 'positionCoords': [510.6, 263], 'bid': 5.38}, {'imgObject': {}, 'id': 'cherry tomato', 'src': '/static/foodstim60/cherry tomato.jpg', 'key': 'i', 'origWidth': 410, 'origHeight': 410, 'width': 410, 'height': 410, 'widthPercent': 0.45, 'rescaleHeight': False, 'trialN': 48, 'loaded': True, 'loadedTime': 90746.39999985695, 'positionName': 'RIGHT', 'positionCoords': [998.4, 263.5], 'bid': 3.09}]",90743.29999995232,1669833516663,Grapes,cherry tomato,5.38,3.09,-2.29,Grapes,2254.7999999523163,2256,2255.2000000476837,True,u,93507.79999995232,2764.5,1669833519428,2765,,HRV,HRV_0149,2022-11-30 18:42:19
49,"[{'imgObject': {}, 'id': 'fruitsalad', 'src': '/static/foodstim60/fruitsalad.jpg', 'key': 'u', 'origWidth': 410, 'origHeight': 410, 'width': 410, 'height': 410, 'widthPercent': 0.45, 'rescaleHeight': False, 'trialN': 49, 'loaded': True, 'loadedTime': 93509.70000004768, 'positionName': 'LEFT', 'positionCoords': [511.6, 263.5], 'bid': 6.43}, {'imgObject': {}, 'id': 'apple slices', 'src': '/static/foodstim60/apple slices.jpg', 'key': 'i', 'origWidth': 409, 'origHeight': 410, 'width': 409, 'height': 410, 'widthPercent': 0.45, 'rescaleHeight': False, 'trialN': 49, 'loaded': True, 'loadedTime': 93509.89999985695, 'positionName': 'RIGHT', 'positionCoords': [998.4, 263.5], 'bid': 6.37}]",93508.20000004768,1669833519428,fruitsalad,apple slices,6.43,6.37,-0.05999999999999961,fruitsalad,2920.7999999523163,2922,2921.0999999046326,True,u,96940.5,3432.2999999523163,1669833522861,3433,,HRV,HRV_0149,2022-11-30 18:42:19
50,"[{'imgObject': {}, 'id': 'seaweed', 'src': '/static/foodstim60/seaweed.jpg', 'key': 'u', 'origWidth': 410, 'origHeight': 410, 'width': 410, 'height': 410, 'widthPercent': 0.45, 'rescaleHeight': False, 'trialN': 50, 'loaded': True, 'loadedTime': 96943.59999990463, 'positionName': 'LEFT', 'positionCoords': [511.6, 263.5], 'bid': 1.38}, {'imgObject': {}, 'id': 'kiwi', 'src': '/static/foodstim60/kiwi.jpg', 'key': 'i', 'origWidth': 410, 'origHeight': 410, 'width': 410, 'height': 410, 'widthPercent': 0.45, 'rescaleHeight': False, 'trialN': 50, 'loaded': True, 'loadedTime': 96944.29999995232, 'positionName': 'RIGHT', 'positionCoords': [998.4, 263.5], 'bid': 4.67}]",96941.20000004768,1669833522861,seaweed,kiwi,1.38,4.67,3.29,kiwi,2213.2999999523163,2214,2213.5999999046326,True,i,99658.79999995232,2717.5999999046326,1669833525579,2718,,HRV,HRV_0149,2022-11-30 18:42:19
51,"[{'imgObject': {}, 'id': 'popsicles', 'src': '/static/foodstim60/popsicles.jpg', 'key': 'u', 'origWidth': 410, 'origHeight': 410, 'width': 410, 'height': 410, 'widthPercent': 0.45, 'rescaleHeight': False, 'trialN': 51, 'loaded': True, 'loadedTime': 99661.89999985695, 'positionName': 'LEFT', 'positionCoords': [511.6, 263.5], 'bid': 6.1000000000000005}, {'imgObject': {}, 'id': 'Tribe humus pita', 'src': '/static/foodstim60/Tribe humus pita.jpg', 'key': 'i', 'origWidth': 411, 'origHeight': 411, 'width': 411, 'height': 411, 'widthPercent': 0.45, 'rescaleHeight': False, 'trialN': 51, 'loaded': True, 'loadedTime': 99662.5, 'positionName': 'RIGHT', 'positionCoords': [998.4, 263], 'bid': 4.94}]",99659.39999985695,1669833525580,popsicles,Tribe humus pita,6.1000000000000005,4.94,-1.1600000000000001,Tribe humus pita,1721.6000001430511,1722,1722.1000001430511,True,i,101891.39999985695,2232.0,1669833527812,2232,,HRV,HRV_0149,2022-11-30 18:42:19
52,"[{'imgObject': {}, 'id': 'baked potato', 'src': '/static/foodstim60/baked potato.jpg', 'key': 'u', 'origWidth': 409, 'origHeight': 410, 'width': 409, 'height': 410, 'widthPercent': 0.45, 'rescaleHeight': False, 'trialN': 52, 'loaded': True, 'loadedTime': 101894.5, 'positionName': 'LEFT', 'positionCoords': [512.6, 263.5], 'bid': 9.66}, {'imgObject': {}, 'id': 'cheerios', 'src': '/static/foodstim60/cheerios.jpg', 'key': 'i', 'origWidth': 409, 'origHeight': 410, 'width': 409, 'height': 410, 'widthPercent': 0.45, 'rescaleHeight': False, 'trialN': 52, 'loaded': True, 'loadedTime': 101894.89999985695, 'positionName': 'RIGHT', 'positionCoords': [998.4, 263.5], 'bid': 7.65}]",101892.20000004768,1669833527812,baked potato,cheerios,9.66,7.65,-2.01,baked potato,875.0999999046326,876,875.5,True,u,103275.0,1382.7999999523163,1669833529195,1383,,HRV,HRV_0149,2022-11-30 18:42:19
53,"[{'imgObject': {}, 'id': 'grilled chicken strips', 'src': '/static/foodstim60/grilled chicken strips.jpg', 'key': 'u', 'origWidth': 410, 'origHeight': 411, 'width': 410, 'height': 411, 'widthPercent': 0.45, 'rescaleHeight': False, 'trialN': 53, 'loaded': True, 'loadedTime': 103278.09999990463, 'positionName': 'LEFT', 'positionCoords': [511.6, 263], 'bid': 9.92}, {'imgObject': {}, 'id': 'strawberries', 'src': '/static/foodstim60/strawberries.jpg', 'key': 'i', 'origWidth': 410, 'origHeight': 410, 'width': 410, 'height': 410, 'widthPercent': 0.45, 'rescaleHeight': False, 'trialN': 53, 'loaded': True, 'loadedTime': 103278.5, 'positionName': 'RIGHT', 'positionCoords': [998.4, 263.5], 'bid': 6.34}]",103275.70000004768,1669833529196,grilled chicken strips,strawberries,9.92,6.34,-3.58,grilled chicken strips,948.6999998092651,949,949.0999999046326,True,u,104738.5,1462.7999999523163,1669833530659,1463,,HRV,HRV_0149,2022-11-30 18:42:19
54,"[{'imgObject': {}, 'id': 'seaweed', 'src': '/static/foodstim60/seaweed.jpg', 'key': 'u', 'origWidth': 410, 'origHeight': 410, 'width': 410, 'height': 410, 'widthPercent': 0.45, 'rescaleHeight': False, 'trialN': 54, 'loaded': True, 'loadedTime': 104740.39999985695, 'positionName': 'LEFT', 'positionCoords': [511.6, 263.5], 'bid': 1.38}, {'imgObject': {}, 'id': 'cherry tomato', 'src': '/static/foodstim60/cherry tomato.jpg', 'key': 'i', 'origWidth': 410, 'origHeight': 410, 'width': 410, 'height': 410, 'widthPercent': 0.45, 'rescaleHeight': False, 'trialN': 54, 'loaded': True, 'loadedTime': 104740.59999990463, 'positionName': 'RIGHT', 'positionCoords': [998.4, 263.5], 'bid': 3.09}]",104739.0,1669833530659,seaweed,cherry tomato,1.38,3.09,1.71,cherry tomato,816.0,816,816.2000000476837,True,i,106064.89999985695,1325.8999998569489,1669833531985,1326,,HRV,HRV_0149,2022-11-30 18:42:19
55,"[{'imgObject': {}, 'id': 'Grapes', 'src': '/static/foodstim60/Grapes.jpg', 'key': 'u', 'origWidth': 411, 'origHeight': 411, 'width': 411, 'height': 411, 'widthPercent': 0.45, 'rescaleHeight': False, 'trialN': 55, 'loaded': True, 'loadedTime': 106068.09999990463, 'positionName': 'LEFT', 'positionCoords': [510.6, 263], 'bid': 5.38}, {'imgObject': {}, 'id': 'lox', 'src': '/static/foodstim60/lox.jpg', 'key': 'i', 'origWidth': 410, 'origHeight': 411, 'width': 410, 'height': 411, 'widthPercent': 0.45, 'rescaleHeight': False, 'trialN': 55, 'loaded': True, 'loadedTime': 106068.79999995232, 'positionName': 'RIGHT', 'positionCoords': [998.4, 263], 'bid': 2.18}]",106065.70000004768,1669833531986,Grapes,lox,5.38,2.18,-3.1999999999999997,Grapes,1119.3999998569489,1120,1119.7999999523163,True,u,107690.20000004768,1624.5,1669833533610,1624,,HRV,HRV_0149,2022-11-30 18:42:19
56,"[{'imgObject': {}, 'id': 'turkeysandwich', 'src': '/static/foodstim60/turkeysandwich.jpg', 'key': 'u', 'origWidth': 409, 'origHeight': 409, 'width': 409, 'height': 409, 'widthPercent': 0.45, 'rescaleHeight': False, 'trialN': 56, 'loaded': True, 'loadedTime': 107693.20000004768, 'positionName': 'LEFT', 'positionCoords': [512.6, 264], 'bid': 9.91}, {'imgObject': {}, 'id': 'cherries', 'src': '/static/foodstim60/cherries.jpg', 'key': 'i', 'origWidth': 410, 'origHeight': 411, 'width': 410, 'height': 411, 'widthPercent': 0.45, 'rescaleHeight': False, 'trialN': 56, 'loaded': True, 'loadedTime': 107693.70000004768, 'positionName': 'RIGHT', 'positionCoords': [998.4, 263], 'bid': 6.16}]",107690.79999995232,1669833533611,turkeysandwich,cherries,9.91,6.16,-3.75,turkeysandwich,980.2999999523163,981,980.7000000476837,True,u,109190.29999995232,1499.5,1669833535110,1499,,HRV,HRV_0149,2022-11-30 18:42:19
57,"[{'imgObject': {}, 'id': 'raspberries', 'src': '/static/foodstim60/raspberries.jpg', 'key': 'u', 'origWidth': 411, 'origHeight': 411, 'width': 411, 'height': 411, 'widthPercent': 0.45, 'rescaleHeight': False, 'trialN': 57, 'loaded': True, 'loadedTime': 109193.29999995232, 'positionName': 'LEFT', 'positionCoords': [510.6, 263], 'bid': 6.12}, {'imgObject': {}, 'id': 'hashbrowns', 'src': '/static/foodstim60/hashbrowns.jpg', 'key': 'i', 'origWidth': 411, 'origHeight': 410, 'width': 411, 'height': 410, 'widthPercent': 0.45, 'rescaleHeight': False, 'trialN': 57, 'loaded': True, 'loadedTime': 109193.79999995232, 'positionName': 'RIGHT', 'positionCoords': [998.4, 263.5], 'bid': 7.12}]",109190.89999985695,1669833535111,raspberries,hashbrowns,6.12,7.12,1.0,hashbrowns,901.8000001907349,902,902.0,True,i,110594.0,1403.1000001430511,1669833536514,1403,,HRV,HRV_0149,2022-11-30 18:42:19
58,"[{'imgObject': {}, 'id': 'yogurt no spoon', 'src': '/static/foodstim60/yogurt no spoon.jpg', 'key': 'u', 'origWidth': 411, 'origHeight': 410, 'width': 411, 'height': 410, 'widthPercent': 0.45, 'rescaleHeight': False, 'trialN': 58, 'loaded': True, 'loadedTime': 110595.79999995232, 'positionName': 'LEFT', 'positionCoords': [510.6, 263.5], 'bid': 9.32}, {'imgObject': {}, 'id': 'burger', 'src': '/static/foodstim60/burger.jpg', 'key': 'i', 'origWidth': 409, 'origHeight': 409, 'width': 409, 'height': 409, 'widthPercent': 0.45, 'rescaleHeight': False, 'trialN': 58, 'loaded': True, 'loadedTime': 110596, 'positionName': 'RIGHT', 'positionCoords': [998.4, 264], 'bid': 9.36}]",110594.39999985695,1669833536515,yogurt no spoon,burger,9.32,9.36,0.03999999999999915,yogurt no spoon,1013.6000001430511,1013,1014.0,True,u,112121.20000004768,1526.8000001907349,1669833538041,1526,,HRV,HRV_0149,2022-11-30 18:42:19
59,"[{'imgObject': {}, 'id': 'blackbeanswithrice', 'src': '/static/foodstim60/blackbeanswithrice.jpg', 'key': 'u', 'origWidth': 410, 'origHeight': 410, 'width': 410, 'height': 410, 'widthPercent': 0.45, 'rescaleHeight': False, 'trialN': 59, 'loaded': True, 'loadedTime': 112124.39999985695, 'positionName': 'LEFT', 'positionCoords': [511.6, 263.5], 'bid': 7.29}, {'imgObject': {}, 'id': 'cantaloupe', 'src': '/static/foodstim60/cantaloupe.jpg', 'key': 'i', 'origWidth': 409, 'origHeight': 409, 'width': 409, 'height': 409, 'widthPercent': 0.45, 'rescaleHeight': False, 'trialN': 59, 'loaded': True, 'loadedTime': 112124.70000004768, 'positionName': 'RIGHT', 'positionCoords': [998.4, 264], 'bid': 6.16}]",112122.0,1669833538042,blackbeanswithrice,cantaloupe,7.29,6.16,-1.13,blackbeanswithrice,1904.0,1904,1904.3999998569489,True,u,114540.59999990463,2418.5999999046326,1669833540461,2419,,HRV,HRV_0149,2022-11-30 18:42:19
60,"[{'imgObject': {}, 'id': 'apple slices', 'src': '/static/foodstim60/apple slices.jpg', 'key': 'u', 'origWidth': 409, 'origHeight': 410, 'width': 409, 'height': 410, 'widthPercent': 0.45, 'rescaleHeight': False, 'trialN': 60, 'loaded': True, 'loadedTime': 114544.59999990463, 'positionName': 'LEFT', 'positionCoords': [512.6, 263.5], 'bid': 6.37}, {'imgObject': {}, 'id': 'hashbrowns', 'src': '/static/foodstim60/hashbrowns.jpg', 'key': 'i', 'origWidth': 411, 'origHeight': 410, 'width': 411, 'height': 410, 'widthPercent': 0.45, 'rescaleHeight': False, 'trialN': 60, 'loaded': True, 'loadedTime': 114545.20000004768, 'positionName': 'RIGHT', 'positionCoords': [998.4, 263.5], 'bid': 7.12}]",114541.59999990463,1669833540462,apple slices,hashbrowns,6.37,7.12,0.75,hashbrowns,1770.4000000953674,1771,1770.7999999523163,True,i,116818.39999985695,2276.7999999523163,1669833542739,2277,,HRV,HRV_0149,2022-11-30 18:42:19
61,"[{'imgObject': {}, 'id': 'bagel plain', 'src': '/static/foodstim60/bagel plain.jpg', 'key': 'u', 'origWidth': 410, 'origHeight': 410, 'width': 410, 'height': 410, 'widthPercent': 0.45, 'rescaleHeight': False, 'trialN': 61, 'loaded': True, 'loadedTime': 116819.5, 'positionName': 'LEFT', 'positionCoords': [511.6, 263.5], 'bid': 7.5}, {'imgObject': {}, 'id': 'sushi w_condiments', 'src': '/static/foodstim60/sushi w_condiments.jpg', 'key': 'i', 'origWidth': 410, 'origHeight': 410, 'width': 410, 'height': 410, 'widthPercent': 0.45, 'rescaleHeight': False, 'trialN': 61, 'loaded': True, 'loadedTime': 116819.59999990463, 'positionName': 'RIGHT', 'positionCoords': [998.4, 263.5], 'bid': 6.71}]",116818.79999995232,1669833542739,bagel plain,sushi w_condiments,7.5,6.71,-0.79,bagel plain,1105.7999999523163,1106,1106.0999999046326,True,u,118432.79999995232,1614.0,1669833544353,1614,,HRV,HRV_0149,2022-11-30 18:42:19
62,"[{'imgObject': {}, 'id': 'popsicles', 'src': '/static/foodstim60/popsicles.jpg', 'key': 'u', 'origWidth': 410, 'origHeight': 410, 'width': 410, 'height': 410, 'widthPercent': 0.45, 'rescaleHeight': False, 'trialN': 62, 'loaded': True, 'loadedTime': 118435.89999985695, 'positionName': 'LEFT', 'positionCoords': [511.6, 263.5], 'bid': 6.1000000000000005}, {'imgObject': {}, 'id': 'blueberries', 'src': '/static/foodstim60/blueberries.jpg', 'key': 'i', 'origWidth': 411, 'origHeight': 411, 'width': 411, 'height': 411, 'widthPercent': 0.45, 'rescaleHeight': False, 'trialN': 62, 'loaded': True, 'loadedTime': 118436.20000004768, 'positionName': 'RIGHT', 'positionCoords': [998.4, 263], 'bid': 4.4}]",118433.5,1669833544354,popsicles,blueberries,6.1000000000000005,4.4,-1.7000000000000002,blueberries,984.3999998569489,984,984.7999999523163,True,i,119924.09999990463,1490.5999999046326,1669833545844,1490,,HRV,HRV_0149,2022-11-30 18:42:19
63,"[{'imgObject': {}, 'id': 'fruitsalad', 'src': '/static/foodstim60/fruitsalad.jpg', 'key': 'u', 'origWidth': 410, 'origHeight': 410, 'width': 410, 'height': 410, 'widthPercent': 0.45, 'rescaleHeight': False, 'trialN': 63, 'loaded': True, 'loadedTime': 119927.29999995232, 'positionName': 'LEFT', 'positionCoords': [511.6, 263.5], 'bid': 6.43}, {'imgObject': {}, 'id': 'cheerios', 'src': '/static/foodstim60/cheerios.jpg', 'key': 'i', 'origWidth': 409, 'origHeight': 410, 'width': 409, 'height': 410, 'widthPercent': 0.45, 'rescaleHeight': False, 'trialN': 63, 'loaded': True, 'loadedTime': 119927.59999990463, 'positionName': 'RIGHT', 'positionCoords': [998.4, 263.5], 'bid': 7.65}]",119924.79999995232,1669833545845,fruitsalad,cheerios,6.43,7.65,1.2200000000000006,cheerios,1069.7000000476837,1070,1070.2000000476837,True,i,121507.70000004768,1582.9000000953674,1669833547441,1596,,HRV,HRV_0149,2022-11-30 18:42:19
64,"[{'imgObject': {}, 'id': 'roastedpotatoes', 'src': '/static/foodstim60/roastedpotatoes.jpg', 'key': 'u', 'origWidth': 409, 'origHeight': 410, 'width': 409, 'height': 410, 'widthPercent': 0.45, 'rescaleHeight': False, 'trialN': 64, 'loaded': True, 'loadedTime': 121510.79999995232, 'positionName': 'LEFT', 'positionCoords': [512.6, 263.5], 'bid': 9.01}, {'imgObject': {}, 'id': 'grilled chicken strips', 'src': '/static/foodstim60/grilled chicken strips.jpg', 'key': 'i', 'origWidth': 410, 'origHeight': 411, 'width': 410, 'height': 411, 'widthPercent': 0.45, 'rescaleHeight': False, 'trialN': 64, 'loaded': True, 'loadedTime': 121511.39999985695, 'positionName': 'RIGHT', 'positionCoords': [998.4, 263], 'bid': 9.92}]",121508.39999985695,1669833547442,roastedpotatoes,grilled chicken strips,9.01,9.92,0.9100000000000001,grilled chicken strips,1266.8000001907349,1267,1267.1000001430511,True,i,123285.5,1777.1000001430511,1669833549219,1777,,HRV,HRV_0149,2022-11-30 18:42:19
65,"[{'imgObject': {}, 'id': 'ice cream sundae 002', 'src': '/static/foodstim60/ice cream sundae 002.jpg', 'key': 'u', 'origWidth': 409, 'origHeight': 409, 'width': 409, 'height': 409, 'widthPercent': 0.45, 'rescaleHeight': False, 'trialN': 65, 'loaded': True, 'loadedTime': 123287.5, 'positionName': 'LEFT', 'positionCoords': [512.6, 264], 'bid': 6.86}, {'imgObject': {}, 'id': 'bagel and cc', 'src': '/static/foodstim60/bagel and cc.jpg', 'key': 'i', 'origWidth': 410, 'origHeight': 410, 'width': 410, 'height': 410, 'widthPercent': 0.45, 'rescaleHeight': False, 'trialN': 65, 'loaded': True, 'loadedTime': 123287.59999990463, 'positionName': 'RIGHT', 'positionCoords': [998.4, 263.5], 'bid': 8.34}]",123286.0,1669833549219,ice cream sundae 002,bagel and cc,6.86,8.34,1.4799999999999995,bagel and cc,1659.0,1660,1659.5,True,i,125457.59999990463,2171.5999999046326,1669833551391,2172,,HRV,HRV_0149,2022-11-30 18:42:19
66,"[{'imgObject': {}, 'id': 'avocado', 'src': '/static/foodstim60/avocado.jpg', 'key': 'u', 'origWidth': 409, 'origHeight': 409, 'width': 409, 'height': 409, 'widthPercent': 0.45, 'rescaleHeight': False, 'trialN': 66, 'loaded': True, 'loadedTime': 125460.79999995232, 'positionName': 'LEFT', 'positionCoords': [512.6, 264], 'bid': 5.4}, {'imgObject': {}, 'id': 'edamame', 'src': '/static/foodstim60/edamame.jpg', 'key': 'i', 'origWidth': 409, 'origHeight': 410, 'width': 409, 'height': 410, 'widthPercent': 0.45, 'rescaleHeight': False, 'trialN': 66, 'loaded': True, 'loadedTime': 125461.09999990463, 'positionName': 'RIGHT', 'positionCoords': [998.4, 263.5], 'bid': 2.47}]",125458.29999995232,1669833551392,avocado,edamame,5.4,2.47,-2.93,avocado,1152.7000000476837,1153,1153.2000000476837,True,u,127124.20000004768,1665.9000000953674,1669833553058,1666,,HRV,HRV_0149,2022-11-30 18:42:19
67,"[{'imgObject': {}, 'id': 'seaweed', 'src': '/static/foodstim60/seaweed.jpg', 'key': 'u', 'origWidth': 410, 'origHeight': 410, 'width': 410, 'height': 410, 'widthPercent': 0.45, 'rescaleHeight': False, 'trialN': 67, 'loaded': True, 'loadedTime': 127127.29999995232, 'positionName': 'LEFT', 'positionCoords': [511.6, 263.5], 'bid': 1.38}, {'imgObject': {}, 'id': 'edamame', 'src': '/static/foodstim60/edamame.jpg', 'key': 'i', 'origWidth': 409, 'origHeight': 410, 'width': 409, 'height': 410, 'widthPercent': 0.45, 'rescaleHeight': False, 'trialN': 67, 'loaded': True, 'loadedTime': 127127.70000004768, 'positionName': 'RIGHT', 'positionCoords': [998.4, 263.5], 'bid': 2.47}]",127124.89999985695,1669833553058,seaweed,edamame,1.38,2.47,1.0900000000000003,edamame,873.3000001907349,874,873.8000001907349,True,i,128507.79999995232,1382.9000000953674,1669833554441,1383,,HRV,HRV_0149,2022-11-30 18:42:19
68,"[{'imgObject': {}, 'id': 'olives', 'src': '/static/foodstim60/olives.jpg', 'key': 'u', 'origWidth': 410, 'origHeight': 410, 'width': 410, 'height': 410, 'widthPercent': 0.45, 'rescaleHeight': False, 'trialN': 68, 'loaded': True, 'loadedTime': 128510.20000004768, 'positionName': 'LEFT', 'positionCoords': [511.6, 263.5], 'bid': 3.92}, {'imgObject': {}, 'id': 'cherries', 'src': '/static/foodstim60/cherries.jpg', 'key': 'i', 'origWidth': 410, 'origHeight': 411, 'width': 410, 'height': 411, 'widthPercent': 0.45, 'rescaleHeight': False, 'trialN': 68, 'loaded': True, 'loadedTime': 128510.59999990463, 'positionName': 'RIGHT', 'positionCoords': [998.4, 263], 'bid': 6.16}]",128508.39999985695,1669833554442,olives,cherries,3.92,6.16,2.24,cherries,937.9000000953674,938,938.2000000476837,True,i,129962.29999995232,1453.9000000953674,1669833555896,1454,,HRV,HRV_0149,2022-11-30 18:42:19
69,"[{'imgObject': {}, 'id': 'eggsalad', 'src': '/static/foodstim60/eggsalad.jpg', 'key': 'u', 'origWidth': 410, 'origHeight': 409, 'width': 410, 'height': 409, 'widthPercent': 0.45, 'rescaleHeight': False, 'trialN': 69, 'loaded': True, 'loadedTime': 129965.59999990463, 'positionName': 'LEFT', 'positionCoords': [511.6, 264], 'bid': 8.66}, {'imgObject': {}, 'id': 'salad w chicken', 'src': '/static/foodstim60/salad w chicken.jpg', 'key': 'i', 'origWidth': 411, 'origHeight': 411, 'width': 411, 'height': 411, 'widthPercent': 0.45, 'rescaleHeight': False, 'trialN': 69, 'loaded': True, 'loadedTime': 129966.29999995232, 'positionName': 'RIGHT', 'positionCoords': [998.4, 263], 'bid': 9.38}]",129963.20000004768,1669833555897,eggsalad,salad w chicken,8.66,9.38,0.7200000000000006,salad w chicken,1095.0,1095,1095.3999998569489,True,i,131574.20000004768,1611.0,1669833557508,1611,,HRV,HRV_0149,2022-11-30 18:42:19
70,"[{'imgObject': {}, 'id': 'ice cream sundae 002', 'src': '/static/foodstim60/ice cream sundae 002.jpg', 'key': 'u', 'origWidth': 409, 'origHeight': 409, 'width': 409, 'height': 409, 'widthPercent': 0.45, 'rescaleHeight': False, 'trialN': 70, 'loaded': True, 'loadedTime': 131577.39999985695, 'positionName': 'LEFT', 'positionCoords': [512.6, 264], 'bid': 6.86}, {'imgObject': {}, 'id': 'sushi w_condiments', 'src': '/static/foodstim60/sushi w_condiments.jpg', 'key': 'i', 'origWidth': 410, 'origHeight': 410, 'width': 410, 'height': 410, 'widthPercent': 0.45, 'rescaleHeight': False, 'trialN': 70, 'loaded': True, 'loadedTime': 131578.09999990463, 'positionName': 'RIGHT', 'positionCoords': [998.4, 263.5], 'bid': 6.71}]",131575.0,1669833557508,ice cream sundae 002,sushi w_condiments,6.86,6.71,-0.15000000000000036,ice cream sundae 002,1075.2000000476837,1076,1075.5999999046326,True,u,133157.29999995232,1582.2999999523163,1669833559091,1583,,HRV,HRV_0149,2022-11-30 18:42:19
71,"[{'imgObject': {}, 'id': 'kiwi', 'src': '/static/foodstim60/kiwi.jpg', 'key': 'u', 'origWidth': 410, 'origHeight': 410, 'width': 410, 'height': 410, 'widthPercent': 0.45, 'rescaleHeight': False, 'trialN': 71, 'loaded': True, 'loadedTime': 133160.59999990463, 'positionName': 'LEFT', 'positionCoords': [511.6, 263.5], 'bid': 4.67}, {'imgObject': {}, 'id': 'eggsalad', 'src': '/static/foodstim60/eggsalad.jpg', 'key': 'i', 'origWidth': 410, 'origHeight': 409, 'width': 410, 'height': 409, 'widthPercent': 0.45, 'rescaleHeight': False, 'trialN': 71, 'loaded': True, 'loadedTime': 133160.89999985695, 'positionName': 'RIGHT', 'positionCoords': [998.4, 264], 'bid': 8.66}]",133158.0,1669833559092,kiwi,eggsalad,4.67,8.66,3.99,eggsalad,1112.5,1112,1112.8999998569489,True,i,134790.79999995232,1632.7999999523163,1669833560724,1632,,HRV,HRV_0149,2022-11-30 18:42:19
72,"[{'imgObject': {}, 'id': 'mashed potato', 'src': '/static/foodstim60/mashed potato.jpg', 'key': 'u', 'origWidth': 409, 'origHeight': 409, 'width': 409, 'height': 409, 'widthPercent': 0.45, 'rescaleHeight': False, 'trialN': 72, 'loaded': True, 'loadedTime': 134792.59999990463, 'positionName': 'LEFT', 'positionCoords': [512.6, 264], 'bid': 6.57}, {'imgObject': {}, 'id': 'apple slices', 'src': '/static/foodstim60/apple slices.jpg', 'key': 'i', 'origWidth': 409, 'origHeight': 410, 'width': 409, 'height': 410, 'widthPercent': 0.45, 'rescaleHeight': False, 'trialN': 72, 'loaded': True, 'loadedTime': 134792.70000004768, 'positionName': 'RIGHT', 'positionCoords': [998.4, 263.5], 'bid': 6.37}]",134791.20000004768,1669833560725,mashed potato,apple slices,6.57,6.37,-0.20000000000000018,mashed potato,981.8999998569489,982,982.2999999523163,True,u,136282.0,1490.7999999523163,1669833562215,1490,,HRV,HRV_0149,2022-11-30 18:42:19
73,"[{'imgObject': {}, 'id': 'banana', 'src': '/static/foodstim60/banana.jpg', 'key': 'u', 'origWidth': 410, 'origHeight': 410, 'width': 410, 'height': 410, 'widthPercent': 0.45, 'rescaleHeight': False, 'trialN': 73, 'loaded': True, 'loadedTime': 136285.09999990463, 'positionName': 'LEFT', 'positionCoords': [511.6, 263.5], 'bid': 3.01}, {'imgObject': {}, 'id': 'cocktailshrimp', 'src': '/static/foodstim60/cocktailshrimp.jpg', 'key': 'i', 'origWidth': 410, 'origHeight': 410, 'width': 410, 'height': 410, 'widthPercent': 0.45, 'rescaleHeight': False, 'trialN': 73, 'loaded': True, 'loadedTime': 136285.70000004768, 'positionName': 'RIGHT', 'positionCoords': [998.4, 263.5], 'bid': 3.09}]",136282.70000004768,1669833562216,banana,cocktailshrimp,3.01,3.09,0.08000000000000007,banana,1084.5,1085,1084.7999999523163,True,u,137885.59999990463,1602.8999998569489,1669833563819,1603,,HRV,HRV_0149,2022-11-30 18:42:19
74,"[{'imgObject': {}, 'id': 'orange slices', 'src': '/static/foodstim60/orange slices.jpg', 'key': 'u', 'origWidth': 409, 'origHeight': 410, 'width': 409, 'height': 410, 'widthPercent': 0.45, 'rescaleHeight': False, 'trialN': 74, 'loaded': True, 'loadedTime': 137888.70000004768, 'positionName': 'LEFT', 'positionCoords': [512.6, 263.5], 'bid': 5.16}, {'imgObject': {}, 'id': 'raspberries', 'src': '/static/foodstim60/raspberries.jpg', 'key': 'i', 'origWidth': 411, 'origHeight': 411, 'width': 411, 'height': 411, 'widthPercent': 0.45, 'rescaleHeight': False, 'trialN': 74, 'loaded': True, 'loadedTime': 137889, 'positionName': 'RIGHT', 'positionCoords': [998.4, 263], 'bid': 6.12}]",137886.20000004768,1669833563820,orange slices,raspberries,5.16,6.12,0.96,orange slices,1380.6999998092651,1381,1381.0999999046326,True,u,139774.0,1887.7999999523163,1669833565708,1888,,HRV,HRV_0149,2022-11-30 18:42:19
75,"[{'imgObject': {}, 'id': 'Tribe humus pita', 'src': '/static/foodstim60/Tribe humus pita.jpg', 'key': 'u', 'origWidth': 411, 'origHeight': 411, 'width': 411, 'height': 411, 'widthPercent': 0.45, 'rescaleHeight': False, 'trialN': 75, 'loaded': True, 'loadedTime': 139777.20000004768, 'positionName': 'LEFT', 'positionCoords': [510.6, 263], 'bid': 4.94}, {'imgObject': {}, 'id': 'mango', 'src': '/static/foodstim60/mango.jpg', 'key': 'i', 'origWidth': 411, 'origHeight': 411, 'width': 411, 'height': 411, 'widthPercent': 0.45, 'rescaleHeight': False, 'trialN': 75, 'loaded': True, 'loadedTime': 139777.59999990463, 'positionName': 'RIGHT', 'positionCoords': [998.4, 263], 'bid': 4.87}]",139774.70000004768,1669833565708,Tribe humus pita,mango,4.94,4.87,-0.07000000000000028,Tribe humus pita,1058.5,1059,1058.6999998092651,True,u,141351.59999990463,1576.8999998569489,1669833567285,1577,,HRV,HRV_0149,2022-11-30 18:42:19
76,"[{'imgObject': {}, 'id': 'mac & cheese', 'src': '/static/foodstim60/mac & cheese.jpg', 'key': 'u', 'origWidth': 410, 'origHeight': 410, 'width': 410, 'height': 410, 'widthPercent': 0.45, 'rescaleHeight': False, 'trialN': 76, 'loaded': True, 'loadedTime': 141353.59999990463, 'positionName': 'LEFT', 'positionCoords': [511.6, 263.5], 'bid': 9.98}, {'imgObject': {}, 'id': 'grilled chicken strips', 'src': '/static/foodstim60/grilled chicken strips.jpg', 'key': 'i', 'origWidth': 410, 'origHeight': 411, 'width': 410, 'height': 411, 'widthPercent': 0.45, 'rescaleHeight': False, 'trialN': 76, 'loaded': True, 'loadedTime': 141353.79999995232, 'positionName': 'RIGHT', 'positionCoords': [998.4, 263], 'bid': 9.92}]",141352.20000004768,1669833567286,mac & cheese,grilled chicken strips,9.98,9.92,-0.0600000000000005,mac & cheese,750.0,750,750.3999998569489,True,u,142624.39999985695,1272.1999998092651,1669833568558,1272,,HRV,HRV_0149,2022-11-30 18:42:19
77,"[{'imgObject': {}, 'id': 'omelette', 'src': '/static/foodstim60/omelette.jpg', 'key': 'u', 'origWidth': 410, 'origHeight': 409, 'width': 410, 'height': 409, 'widthPercent': 0.45, 'rescaleHeight': False, 'trialN': 77, 'loaded': True, 'loadedTime': 142628.5, 'positionName': 'LEFT', 'positionCoords': [511.6, 264], 'bid': 8.82}, {'imgObject': {}, 'id': 'burrito', 'src': '/static/foodstim60/burrito.jpg', 'key': 'i', 'origWidth': 410, 'origHeight': 410, 'width': 410, 'height': 410, 'widthPercent': 0.45, 'rescaleHeight': False, 'trialN': 77, 'loaded': True, 'loadedTime': 142628.89999985695, 'positionName': 'RIGHT', 'positionCoords': [998.4, 263.5], 'bid': 9.4}]",142625.39999985695,1669833568559,omelette,burrito,8.82,9.4,0.5800000000000001,burrito,1617.9000000953674,1618,1618.4000000953674,True,i,144758.5,2133.100000143051,1669833570692,2133,"[{'event': 'onblur', 'details': 'out of focus', 'performance time': 142639.29999995232, 'date time': 1669833568573}, {'event': 'visibilitychange', 'details': 'hidden', 'performance time': 142644.5, 'date time': 1669833568578}, {'event': 'onfocus', 'details': 'in focus', 'performance time': 142676, 'date time': 1669833568610}, {'event': 'visibilitychange', 'details': 'visible', 'performance time': 142682.79999995232, 'date time': 1669833568616}]",HRV,HRV_0149,2022-11-30 18:42:19
78,"[{'imgObject': {}, 'id': 'raisin bran w milk', 'src': '/static/foodstim60/raisin bran w milk.jpg', 'key': 'u', 'origWidth': 411, 'origHeight': 411, 'width': 411, 'height': 411, 'widthPercent': 0.45, 'rescaleHeight': False, 'trialN': 78, 'loaded': True, 'loadedTime': 144764.39999985695, 'positionName': 'LEFT', 'positionCoords': [510.6, 263], 'bid': 7.41}, {'imgObject': {}, 'id': 'froot loops w milk', 'src': '/static/foodstim60/froot loops w milk.jpg', 'key': 'i', 'origWidth': 410, 'origHeight': 410, 'width': 410, 'height': 410, 'widthPercent': 0.45, 'rescaleHeight': False, 'trialN': 78, 'loaded': True, 'loadedTime': 144764.89999985695, 'positionName': 'RIGHT', 'positionCoords': [998.4, 263.5], 'bid': 9.5}]",144759.20000004768,1669833570693,raisin bran w milk,froot loops w milk,7.41,9.5,2.09,raisin bran w milk,941.0999999046326,941,941.3999998569489,True,u,146208.09999990463,1448.8999998569489,1669833572142,1449,,HRV,HRV_0149,2022-11-30 18:42:19
79,"[{'imgObject': {}, 'id': 'hotdog w must', 'src': '/static/foodstim60/hotdog w must.jpg', 'key': 'u', 'origWidth': 409, 'origHeight': 409, 'width': 409, 'height': 409, 'widthPercent': 0.45, 'rescaleHeight': False, 'trialN': 79, 'loaded': True, 'loadedTime': 146211.5, 'positionName': 'LEFT', 'positionCoords': [512.6, 264], 'bid': 9.98}, {'imgObject': {}, 'id': 'baked potato', 'src': '/static/foodstim60/baked potato.jpg', 'key': 'i', 'origWidth': 409, 'origHeight': 410, 'width': 409, 'height': 410, 'widthPercent': 0.45, 'rescaleHeight': False, 'trialN': 79, 'loaded': True, 'loadedTime': 146212, 'positionName': 'RIGHT', 'positionCoords': [998.4, 263.5], 'bid': 9.66}]",146209.0,1669833572143,hotdog w must,baked potato,9.98,9.66,-0.3200000000000003,baked potato,788.2000000476837,788,788.5,True,i,147508.89999985695,1299.8999998569489,1669833573442,1299,,HRV,HRV_0149,2022-11-30 18:42:19
80,"[{'imgObject': {}, 'id': 'bagel plain', 'src': '/static/foodstim60/bagel plain.jpg', 'key': 'u', 'origWidth': 410, 'origHeight': 410, 'width': 410, 'height': 410, 'widthPercent': 0.45, 'rescaleHeight': False, 'trialN': 80, 'loaded': True, 'loadedTime': 147510.89999985695, 'positionName': 'LEFT', 'positionCoords': [511.6, 263.5], 'bid': 7.5}, {'imgObject': {}, 'id': 'eggs', 'src': '/static/foodstim60/eggs.jpg', 'key': 'i', 'origWidth': 409, 'origHeight': 409, 'width': 409, 'height': 409, 'widthPercent': 0.45, 'rescaleHeight': False, 'trialN': 80, 'loaded': True, 'loadedTime': 147511, 'positionName': 'RIGHT', 'positionCoords': [998.4, 264], 'bid': 7.4}]",147509.39999985695,1669833573443,bagel plain,eggs,7.5,7.4,-0.09999999999999964,bagel plain,1864.8000001907349,1865,1865.4000000953674,True,u,149891.0,2381.600000143051,1669833575825,2382,,HRV,HRV_0149,2022-11-30 18:42:19
81,"[{'imgObject': {}, 'id': 'corn cob', 'src': '/static/foodstim60/corn cob.jpg', 'key': 'u', 'origWidth': 411, 'origHeight': 411, 'width': 411, 'height': 411, 'widthPercent': 0.45, 'rescaleHeight': False, 'trialN': 81, 'loaded': True, 'loadedTime': 149894.29999995232, 'positionName': 'LEFT', 'positionCoords': [510.6, 263], 'bid': 5.29}, {'imgObject': {}, 'id': 'cocktailshrimp', 'src': '/static/foodstim60/cocktailshrimp.jpg', 'key': 'i', 'origWidth': 410, 'origHeight': 410, 'width': 410, 'height': 410, 'widthPercent': 0.45, 'rescaleHeight': False, 'trialN': 81, 'loaded': True, 'loadedTime': 149894.79999995232, 'positionName': 'RIGHT', 'positionCoords': [998.4, 263.5], 'bid': 3.09}]",149891.79999995232,1669833575825,corn cob,cocktailshrimp,5.29,3.09,-2.2,corn cob,1101.2999999523163,1102,1101.7999999523163,True,u,151507.59999990463,1615.7999999523163,1669833577441,1616,,HRV,HRV_0149,2022-11-30 18:42:19
82,"[{'imgObject': {}, 'id': 'raisin bran w milk', 'src': '/static/foodstim60/raisin bran w milk.jpg', 'key': 'u', 'origWidth': 411, 'origHeight': 411, 'width': 411, 'height': 411, 'widthPercent': 0.45, 'rescaleHeight': False, 'trialN': 82, 'loaded': True, 'loadedTime': 151510.70000004768, 'positionName': 'LEFT', 'positionCoords': [510.6, 263], 'bid': 7.41}, {'imgObject': {}, 'id': 'tacos', 'src': '/static/foodstim60/tacos.jpg', 'key': 'i', 'origWidth': 411, 'origHeight': 411, 'width': 411, 'height': 411, 'widthPercent': 0.45, 'rescaleHeight': False, 'trialN': 82, 'loaded': True, 'loadedTime': 151511.29999995232, 'positionName': 'RIGHT', 'positionCoords': [998.4, 263], 'bid': 2.62}]",151508.29999995232,1669833577442,raisin bran w milk,tacos,7.41,2.62,-4.79,tacos,1419.7999999523163,1420,1420.0,True,i,153434.79999995232,1926.5,1669833579368,1926,,HRV,HRV_0149,2022-11-30 18:42:19
83,"[{'imgObject': {}, 'id': 'Tribe humus pita', 'src': '/static/foodstim60/Tribe humus pita.jpg', 'key': 'u', 'origWidth': 411, 'origHeight': 411, 'width': 411, 'height': 411, 'widthPercent': 0.45, 'rescaleHeight': False, 'trialN': 83, 'loaded': True, 'loadedTime': 153436.79999995232, 'positionName': 'LEFT', 'positionCoords': [510.6, 263], 'bid': 4.94}, {'imgObject': {}, 'id': 'roastedpotatoes', 'src': '/static/foodstim60/roastedpotatoes.jpg', 'key': 'i', 'origWidth': 409, 'origHeight': 410, 'width': 409, 'height': 410, 'widthPercent': 0.45, 'rescaleHeight': False, 'trialN': 83, 'loaded': True, 'loadedTime': 153437, 'positionName': 'RIGHT', 'positionCoords': [998.4, 263.5], 'bid': 9.01}]",153435.29999995232,1669833579369,Tribe humus pita,roastedpotatoes,4.94,9.01,4.069999999999999,Tribe humus pita,897.7000000476837,898,898.2000000476837,True,u,154844.79999995232,1409.5,1669833580778,1409,"[{'event': 'onblur', 'details': 'out of focus', 'performance time': 154636.20000004768, 'date time': 1669833580570}, {'event': 'visibilitychange', 'details': 'hidden', 'performance time': 154640.29999995232, 'date time': 1669833580574}, {'event': 'onfocus', 'details': 'in focus', 'performance time': 154676.89999985695, 'date time': 1669833580610}, {'event': 'visibilitychange', 'details': 'visible', 'performance time': 154683.70000004768, 'date time': 1669833580617}, {'event': 'onblur', 'details': 'out of focus', 'performance time': 154684.29999995232, 'date time': 1669833580618}, {'event': 'visibilitychange', 'details': 'hidden', 'performance time': 154684.5, 'date time': 1669833580618}, {'event': 'onfocus', 'details': 'in focus', 'performance time': 154719.5, 'date time': 1669833580653}, {'event': 'visibilitychange', 'details': 'visible', 'performance time': 154726.59999990463, 'date time': 1669833580660}]",HRV,HRV_0149,2022-11-30 18:42:19
84,"[{'imgObject': {}, 'id': 'cantaloupe', 'src': '/static/foodstim60/cantaloupe.jpg', 'key': 'u', 'origWidth': 409, 'origHeight': 409, 'width': 409, 'height': 409, 'widthPercent': 0.45, 'rescaleHeight': False, 'trialN': 84, 'loaded': True, 'loadedTime': 154848.70000004768, 'positionName': 'LEFT', 'positionCoords': [512.6, 264], 'bid': 6.16}, {'imgObject': {}, 'id': 'cherry tomato', 'src': '/static/foodstim60/cherry tomato.jpg', 'key': 'i', 'origWidth': 410, 'origHeight': 410, 'width': 410, 'height': 410, 'widthPercent': 0.45, 'rescaleHeight': False, 'trialN': 84, 'loaded': True, 'loadedTime': 154849.09999990463, 'positionName': 'RIGHT', 'positionCoords': [998.4, 263.5], 'bid': 3.09}]",154845.39999985695,1669833580779,cantaloupe,cherry tomato,6.16,3.09,-3.0700000000000003,cantaloupe,1215.8000001907349,1216,1216.1000001430511,True,u,156574.29999995232,1728.9000000953674,1669833582508,1729,,HRV,HRV_0149,2022-11-30 18:42:19
85,"[{'imgObject': {}, 'id': 'corn cob', 'src': '/static/foodstim60/corn cob.jpg', 'key': 'u', 'origWidth': 411, 'origHeight': 411, 'width': 411, 'height': 411, 'widthPercent': 0.45, 'rescaleHeight': False, 'trialN': 85, 'loaded': True, 'loadedTime': 156576.29999995232, 'positionName': 'LEFT', 'positionCoords': [510.6, 263], 'bid': 5.29}, {'imgObject': {}, 'id': 'seaweed', 'src': '/static/foodstim60/seaweed.jpg', 'key': 'i', 'origWidth': 410, 'origHeight': 410, 'width': 410, 'height': 410, 'widthPercent': 0.45, 'rescaleHeight': False, 'trialN': 85, 'loaded': True, 'loadedTime': 156576.5, 'positionName': 'RIGHT', 'positionCoords': [998.4, 263.5], 'bid': 1.38}]",156574.89999985695,1669833582508,corn cob,seaweed,5.29,1.38,-3.91,corn cob,1123.0,1124,1123.4000000953674,True,u,158208.59999990463,1633.7000000476837,1669833584142,1634,,HRV,HRV_0149,2022-11-30 18:42:19
86,"[{'imgObject': {}, 'id': 'chickenfingers', 'src': '/static/foodstim60/chickenfingers.jpg', 'key': 'u', 'origWidth': 410, 'origHeight': 410, 'width': 410, 'height': 410, 'widthPercent': 0.45, 'rescaleHeight': False, 'trialN': 86, 'loaded': True, 'loadedTime': 158211.89999985695, 'positionName': 'LEFT', 'positionCoords': [511.6, 263.5], 'bid': 9.93}, {'imgObject': {}, 'id': 'apple slices', 'src': '/static/foodstim60/apple slices.jpg', 'key': 'i', 'origWidth': 409, 'origHeight': 410, 'width': 409, 'height': 410, 'widthPercent': 0.45, 'rescaleHeight': False, 'trialN': 86, 'loaded': True, 'loadedTime': 158212.29999995232, 'positionName': 'RIGHT', 'positionCoords': [998.4, 263.5], 'bid': 6.37}]",158209.29999995232,1669833584143,chickenfingers,apple slices,9.93,6.37,-3.5599999999999996,chickenfingers,910.0999999046326,910,910.4000000953674,True,u,159639.79999995232,1430.5,1669833585573,1430,,HRV,HRV_0149,2022-11-30 18:42:19
87,"[{'imgObject': {}, 'id': 'shreddedwheatwithmilk', 'src': '/static/foodstim60/shreddedwheatwithmilk.jpg', 'key': 'u', 'origWidth': 410, 'origHeight': 410, 'width': 410, 'height': 410, 'widthPercent': 0.45, 'rescaleHeight': False, 'trialN': 87, 'loaded': True, 'loadedTime': 159641.70000004768, 'positionName': 'LEFT', 'positionCoords': [511.6, 263.5], 'bid': 6.59}, {'imgObject': {}, 'id': 'luckycharms', 'src': '/static/foodstim60/luckycharms.jpg', 'key': 'i', 'origWidth': 410, 'origHeight': 409, 'width': 410, 'height': 409, 'widthPercent': 0.45, 'rescaleHeight': False, 'trialN': 87, 'loaded': True, 'loadedTime': 159642.09999990463, 'positionName': 'RIGHT', 'positionCoords': [998.4, 264], 'bid': 7.94}]",159640.39999985695,1669833585574,shreddedwheatwithmilk,luckycharms,6.59,7.94,1.3500000000000005,luckycharms,1516.9000000953674,1517,1517.3000001907349,True,i,161681.20000004768,2040.8000001907349,1669833587615,2041,,HRV,HRV_0149,2022-11-30 18:42:19
88,"[{'imgObject': {}, 'id': 'chickenfingers', 'src': '/static/foodstim60/chickenfingers.jpg', 'key': 'u', 'origWidth': 410, 'origHeight': 410, 'width': 410, 'height': 410, 'widthPercent': 0.45, 'rescaleHeight': False, 'trialN': 88, 'loaded': True, 'loadedTime': 161684.5, 'positionName': 'LEFT', 'positionCoords': [511.6, 263.5], 'bid': 9.93}, {'imgObject': {}, 'id': 'yogurt no spoon', 'src': '/static/foodstim60/yogurt no spoon.jpg', 'key': 'i', 'origWidth': 411, 'origHeight': 410, 'width': 411, 'height': 410, 'widthPercent': 0.45, 'rescaleHeight': False, 'trialN': 88, 'loaded': True, 'loadedTime': 161685.20000004768, 'positionName': 'RIGHT', 'positionCoords': [998.4, 263.5], 'bid': 9.32}]",161682.09999990463,1669833587616,chickenfingers,yogurt no spoon,9.93,9.32,-0.6099999999999994,chickenfingers,967.2000000476837,967,967.6000001430511,True,u,163158.09999990463,1476.0,1669833589092,1476,,HRV,HRV_0149,2022-11-30 18:42:19
89,"[{'imgObject': {}, 'id': 'olives', 'src': '/static/foodstim60/olives.jpg', 'key': 'u', 'origWidth': 410, 'origHeight': 410, 'width': 410, 'height': 410, 'widthPercent': 0.45, 'rescaleHeight': False, 'trialN': 89, 'loaded': True, 'loadedTime': 163161.09999990463, 'positionName': 'LEFT', 'positionCoords': [511.6, 263.5], 'bid': 3.92}, {'imgObject': {}, 'id': 'luckycharms', 'src': '/static/foodstim60/luckycharms.jpg', 'key': 'i', 'origWidth': 410, 'origHeight': 409, 'width': 410, 'height': 409, 'widthPercent': 0.45, 'rescaleHeight': False, 'trialN': 89, 'loaded': True, 'loadedTime': 163161.5, 'positionName': 'RIGHT', 'positionCoords': [998.4, 264], 'bid': 7.94}]",163158.79999995232,1669833589092,olives,luckycharms,3.92,7.94,4.0200000000000005,luckycharms,1439.2999999523163,1440,1439.5999999046326,True,i,165122.5,1963.7000000476837,1669833591056,1964,,HRV,HRV_0149,2022-11-30 18:42:19
90,"[{'imgObject': {}, 'id': 'eggs', 'src': '/static/foodstim60/eggs.jpg', 'key': 'u', 'origWidth': 409, 'origHeight': 409, 'width': 409, 'height': 409, 'widthPercent': 0.45, 'rescaleHeight': False, 'trialN': 90, 'loaded': True, 'loadedTime': 2348.399999856949, 'positionName': 'LEFT', 'positionCoords': [512.6, 335.5], 'bid': 7.4}, {'imgObject': {}, 'id': 'cherries', 'src': '/static/foodstim60/cherries.jpg', 'key': 'i', 'origWidth': 410, 'origHeight': 411, 'width': 410, 'height': 411, 'widthPercent': 0.45, 'rescaleHeight': False, 'trialN': 90, 'loaded': True, 'loadedTime': 2511.5999999046326, 'positionName': 'RIGHT', 'positionCoords': [998.4, 334.5], 'bid': 6.16}]",167185.59999990463,1669833593119,eggs,cherries,7.4,6.16,-1.2400000000000002,cherries,1348.6000001430511,1349,1348.9000000953674,True,i,169044.39999985695,1858.7999999523163,1669833594978,1859,"[{'event': 'fullscreenchange', 'details': 'fullscreenenter', 'performance time': 167186.79999995232, 'date time': 1669833593120}]",HRV,HRV_0149,2022-11-30 18:42:19
91,"[{'imgObject': {}, 'id': 'eggsalad', 'src': '/static/foodstim60/eggsalad.jpg', 'key': 'u', 'origWidth': 410, 'origHeight': 409, 'width': 410, 'height': 409, 'widthPercent': 0.45, 'rescaleHeight': False, 'trialN': 91, 'loaded': True, 'loadedTime': 2223.7999999523163, 'positionName': 'LEFT', 'positionCoords': [511.6, 335.5], 'bid': 8.66}, {'imgObject': {}, 'id': 'omelette', 'src': '/static/foodstim60/omelette.jpg', 'key': 'i', 'origWidth': 410, 'origHeight': 409, 'width': 410, 'height': 409, 'widthPercent': 0.45, 'rescaleHeight': False, 'trialN': 91, 'loaded': True, 'loadedTime': 2398.7000000476837, 'positionName': 'RIGHT', 'positionCoords': [998.4, 335.5], 'bid': 8.82}]",169044.70000004768,1669833594978,eggsalad,omelette,8.66,8.82,0.16000000000000014,omelette,779.2999999523163,780,779.5999999046326,True,i,170340.89999985695,1296.1999998092651,1669833596274,1296,,HRV,HRV_0149,2022-11-30 18:42:19
92,"[{'imgObject': {}, 'id': 'popsicles', 'src': '/static/foodstim60/popsicles.jpg', 'key': 'u', 'origWidth': 410, 'origHeight': 410, 'width': 410, 'height': 410, 'widthPercent': 0.45, 'rescaleHeight': False, 'trialN': 92, 'loaded': True, 'loadedTime': 2577.7000000476837, 'positionName': 'LEFT', 'positionCoords': [511.6, 335], 'bid': 6.1000000000000005}, {'imgObject': {}, 'id': 'rigatoni and sauce', 'src': '/static/foodstim60/rigatoni and sauce.jpg', 'key': 'i', 'origWidth': 410, 'origHeight': 411, 'width': 410, 'height': 411, 'widthPercent': 0.45, 'rescaleHeight': False, 'trialN': 92, 'loaded': True, 'loadedTime': 2180.5999999046326, 'positionName': 'RIGHT', 'positionCoords': [998.4, 334.5], 'bid': 5.48}]",170341.20000004768,1669833596275,popsicles,rigatoni and sauce,6.1000000000000005,5.48,-0.6200000000000001,rigatoni and sauce,809.2999999523163,809,809.6999998092651,True,i,171662.89999985695,1321.6999998092651,1669833597596,1321,,HRV,HRV_0149,2022-11-30 18:42:19
93,"[{'imgObject': {}, 'id': 'eggsalad', 'src': '/static/foodstim60/eggsalad.jpg', 'key': 'u', 'origWidth': 410, 'origHeight': 409, 'width': 410, 'height': 409, 'widthPercent': 0.45, 'rescaleHeight': False, 'trialN': 93, 'loaded': True, 'loadedTime': 2222.5999999046326, 'positionName': 'LEFT', 'positionCoords': [511.6, 335.5], 'bid': 8.66}, {'imgObject': {}, 'id': 'baked potato', 'src': '/static/foodstim60/baked potato.jpg', 'key': 'i', 'origWidth': 409, 'origHeight': 410, 'width': 409, 'height': 410, 'widthPercent': 0.45, 'rescaleHeight': False, 'trialN': 93, 'loaded': True, 'loadedTime': 2179.0999999046326, 'positionName': 'RIGHT', 'positionCoords': [998.4, 335], 'bid': 9.66}]",171663.20000004768,1669833597597,eggsalad,baked potato,8.66,9.66,1.0,baked potato,715.1999998092651,715,715.6999998092651,True,i,172881.59999990463,1218.3999998569489,1669833598815,1218,"[{'event': 'onblur', 'details': 'out of focus', 'performance time': 172661.59999990463, 'date time': 1669833598595}, {'event': 'fullscreenchange', 'details': 'fullscreenexit', 'performance time': 172663.59999990463, 'date time': 1669833598597}, {'event': 'visibilitychange', 'details': 'hidden', 'performance time': 172667, 'date time': 1669833598601}, {'event': 'visibilitychange', 'details': 'visible', 'performance time': 172701.29999995232, 'date time': 1669833598635}, {'event': 'onfocus', 'details': 'in focus', 'performance time': 172701.59999990463, 'date time': 1669833598635}, {'event': 'onblur', 'details': 'out of focus', 'performance time': 172709.39999985695, 'date time': 1669833598643}, {'event': 'visibilitychange', 'details': 'hidden', 'performance time': 172711, 'date time': 1669833598644}, {'event': 'onfocus', 'details': 'in focus', 'performance time': 172732.59999990463, 'date time': 1669833598666}, {'event': 'visibilitychange', 'details': 'visible', 'performance time': 172739.29999995232, 'date time': 1669833598673}]",HRV,HRV_0149,2022-11-30 18:42:19
94,"[{'imgObject': {}, 'id': 'salmon', 'src': '/static/foodstim60/salmon.jpg', 'key': 'u', 'origWidth': 410, 'origHeight': 409, 'width': 410, 'height': 409, 'widthPercent': 0.45, 'rescaleHeight': False, 'trialN': 94, 'loaded': True, 'loadedTime': 172885.70000004768, 'positionName': 'LEFT', 'positionCoords': [511.6, 264], 'bid': 9.88}, {'imgObject': {}, 'id': 'chicken nuggets2', 'src': '/static/foodstim60/chicken nuggets2.jpg', 'key': 'i', 'origWidth': 410, 'origHeight': 409, 'width': 410, 'height': 409, 'widthPercent': 0.45, 'rescaleHeight': False, 'trialN': 94, 'loaded': True, 'loadedTime': 172886.39999985695, 'positionName': 'RIGHT', 'positionCoords': [998.4, 264], 'bid': 9.57}]",172882.20000004768,1669833598816,salmon,chicken nuggets2,9.88,9.57,-0.3100000000000005,salmon,811.5,812,811.8999998569489,True,u,174213.5,1331.2999999523163,1669833600147,1331,,HRV,HRV_0149,2022-11-30 18:42:19
95,"[{'imgObject': {}, 'id': 'sweetpotato', 'src': '/static/foodstim60/sweetpotato.jpg', 'key': 'u', 'origWidth': 410, 'origHeight': 410, 'width': 410, 'height': 410, 'widthPercent': 0.45, 'rescaleHeight': False, 'trialN': 95, 'loaded': True, 'loadedTime': 174215.79999995232, 'positionName': 'LEFT', 'positionCoords': [511.6, 263.5], 'bid': 10}, {'imgObject': {}, 'id': 'turkey sandwich', 'src': '/static/foodstim60/turkey sandwich.jpg', 'key': 'i', 'origWidth': 409, 'origHeight': 409, 'width': 409, 'height': 409, 'widthPercent': 0.45, 'rescaleHeight': False, 'trialN': 95, 'loaded': True, 'loadedTime': 174216, 'positionName': 'RIGHT', 'positionCoords': [998.4, 264], 'bid': 10}]",174214.09999990463,1669833600148,sweetpotato,turkey sandwich,10.0,10.0,0.0,turkey sandwich,991.9000000953674,992,992.2999999523163,True,i,175709.59999990463,1495.5,1669833601643,1495,,HRV,HRV_0149,2022-11-30 18:42:19
96,"[{'imgObject': {}, 'id': 'burger', 'src': '/static/foodstim60/burger.jpg', 'key': 'u', 'origWidth': 409, 'origHeight': 409, 'width': 409, 'height': 409, 'widthPercent': 0.45, 'rescaleHeight': False, 'trialN': 96, 'loaded': True, 'loadedTime': 175712.79999995232, 'positionName': 'LEFT', 'positionCoords': [512.6, 264], 'bid': 9.36}, {'imgObject': {}, 'id': 'corn cob', 'src': '/static/foodstim60/corn cob.jpg', 'key': 'i', 'origWidth': 411, 'origHeight': 411, 'width': 411, 'height': 411, 'widthPercent': 0.45, 'rescaleHeight': False, 'trialN': 96, 'loaded': True, 'loadedTime': 175713.39999985695, 'positionName': 'RIGHT', 'positionCoords': [998.4, 263], 'bid': 5.29}]",175710.29999995232,1669833601644,burger,corn cob,9.36,5.29,-4.069999999999999,corn cob,800.9000000953674,801,801.2999999523163,True,i,177022.29999995232,1312.0,1669833602956,1312,,HRV,HRV_0149,2022-11-30 18:42:19
97,"[{'imgObject': {}, 'id': 'corn cob', 'src': '/static/foodstim60/corn cob.jpg', 'key': 'u', 'origWidth': 411, 'origHeight': 411, 'width': 411, 'height': 411, 'widthPercent': 0.45, 'rescaleHeight': False, 'trialN': 97, 'loaded': True, 'loadedTime': 177025.79999995232, 'positionName': 'LEFT', 'positionCoords': [510.6, 263], 'bid': 5.29}, {'imgObject': {}, 'id': 'Tribe humus pita', 'src': '/static/foodstim60/Tribe humus pita.jpg', 'key': 'i', 'origWidth': 411, 'origHeight': 411, 'width': 411, 'height': 411, 'widthPercent': 0.45, 'rescaleHeight': False, 'trialN': 97, 'loaded': True, 'loadedTime': 177026.59999990463, 'positionName': 'RIGHT', 'positionCoords': [998.4, 263], 'bid': 4.94}]",177023.09999990463,1669833602957,corn cob,Tribe humus pita,5.29,4.94,-0.34999999999999964,corn cob,721.2000000476837,721,721.5,True,u,178259.29999995232,1236.2000000476837,1669833604193,1236,,HRV,HRV_0149,2022-11-30 18:42:19
98,"[{'imgObject': {}, 'id': 'popsicles', 'src': '/static/foodstim60/popsicles.jpg', 'key': 'u', 'origWidth': 410, 'origHeight': 410, 'width': 410, 'height': 410, 'widthPercent': 0.45, 'rescaleHeight': False, 'trialN': 98, 'loaded': True, 'loadedTime': 178261.29999995232, 'positionName': 'LEFT', 'positionCoords': [511.6, 263.5], 'bid': 6.1000000000000005}, {'imgObject': {}, 'id': 'banana', 'src': '/static/foodstim60/banana.jpg', 'key': 'i', 'origWidth': 410, 'origHeight': 410, 'width': 410, 'height': 410, 'widthPercent': 0.45, 'rescaleHeight': False, 'trialN': 98, 'loaded': True, 'loadedTime': 178261.5, 'positionName': 'RIGHT', 'positionCoords': [998.4, 263.5], 'bid': 3.01}]",178259.79999995232,1669833604193,popsicles,banana,6.1000000000000005,3.01,-3.0900000000000007,banana,863.4000000953674,864,863.9000000953674,True,i,179641.20000004768,1381.4000000953674,1669833605575,1382,,HRV,HRV_0149,2022-11-30 18:42:19
99,"[{'imgObject': {}, 'id': 'burrito', 'src': '/static/foodstim60/burrito.jpg', 'key': 'u', 'origWidth': 410, 'origHeight': 410, 'width': 410, 'height': 410, 'widthPercent': 0.45, 'rescaleHeight': False, 'trialN': 99, 'loaded': True, 'loadedTime': 179644.5, 'positionName': 'LEFT', 'positionCoords': [511.6, 263.5], 'bid': 9.4}, {'imgObject': {}, 'id': 'salad w chicken', 'src': '/static/foodstim60/salad w chicken.jpg', 'key': 'i', 'origWidth': 411, 'origHeight': 411, 'width': 411, 'height': 411, 'widthPercent': 0.45, 'rescaleHeight': False, 'trialN': 99, 'loaded': True, 'loadedTime': 179644.89999985695, 'positionName': 'RIGHT', 'positionCoords': [998.4, 263], 'bid': 9.38}]",179642.09999990463,1669833605576,burrito,salad w chicken,9.4,9.38,-0.019999999999999574,burrito,1073.9000000953674,1074,1074.2999999523163,True,u,181226.09999990463,1584.0,1669833607160,1584,,HRV,HRV_0149,2022-11-30 18:42:19
100,"[{'imgObject': {}, 'id': 'chicken nuggets2', 'src': '/static/foodstim60/chicken nuggets2.jpg', 'key': 'u', 'origWidth': 410, 'origHeight': 409, 'width': 410, 'height': 409, 'widthPercent': 0.45, 'rescaleHeight': False, 'trialN': 100, 'loaded': True, 'loadedTime': 181229.5, 'positionName': 'LEFT', 'positionCoords': [511.6, 264], 'bid': 9.57}, {'imgObject': {}, 'id': 'mac & cheese', 'src': '/static/foodstim60/mac & cheese.jpg', 'key': 'i', 'origWidth': 410, 'origHeight': 410, 'width': 410, 'height': 410, 'widthPercent': 0.45, 'rescaleHeight': False, 'trialN': 100, 'loaded': True, 'loadedTime': 181230.20000004768, 'positionName': 'RIGHT', 'positionCoords': [998.4, 263.5], 'bid': 9.98}]",181226.89999985695,1669833607160,chicken nuggets2,mac & cheese,9.57,9.98,0.41000000000000014,mac & cheese,1499.6000001430511,1500,1500.0,True,i,183240.39999985695,2013.5,1669833609174,2014,,HRV,HRV_0149,2022-11-30 18:42:19
101,"[{'imgObject': {}, 'id': 'granola w milk', 'src': '/static/foodstim60/granola w milk.jpg', 'key': 'u', 'origWidth': 410, 'origHeight': 410, 'width': 410, 'height': 410, 'widthPercent': 0.45, 'rescaleHeight': False, 'trialN': 101, 'loaded': True, 'loadedTime': 183242.5, 'positionName': 'LEFT', 'positionCoords': [511.6, 263.5], 'bid': 8.84}, {'imgObject': {}, 'id': 'mango', 'src': '/static/foodstim60/mango.jpg', 'key': 'i', 'origWidth': 411, 'origHeight': 411, 'width': 411, 'height': 411, 'widthPercent': 0.45, 'rescaleHeight': False, 'trialN': 101, 'loaded': True, 'loadedTime': 183243, 'positionName': 'RIGHT', 'positionCoords': [998.4, 263], 'bid': 4.87}]",183241.0,1669833609174,granola w milk,mango,8.84,4.87,-3.9699999999999998,granola w milk,913.0999999046326,914,913.3999998569489,True,u,184658.09999990463,1417.0999999046326,1669833610591,1417,,HRV,HRV_0149,2022-11-30 18:42:19
