trialN,stimuli,question,trialStartTime,trialStartTime_UNIX,stimulus1,rt,receivedResponse,rating,trialEndTime,trialDuration,stimulus1Loaded,trialEvents,exp,subjectId,date
0,"[{'imgObject': {}, 'id': 'mac & cheese', 'src': '/static/foodstim60/mac & cheese.jpg', 'key': 'NaN', 'origWidth': 410, 'origHeight': 410, 'width': 410, 'height': 410, 'widthPercent': 0.8, 'rescaleHeight': True, 'trialN': 0, 'loaded': True, 'loadedTime': 47583.90000000596, 'positionName': 'CENTER', 'positionCoords': [755, 335]}]",Rate how much you want to eat this food from 0 (least) to 10 (most).,48526.0,1669836264069,mac & cheese,4502.4000000059605,True,8.73,53028.40000000596,4502.4000000059605,True,,HRV,HRV_0229,2022-11-30 19:27:49
1,"[{'imgObject': {}, 'id': 'tacos', 'src': '/static/foodstim60/tacos.jpg', 'key': 'NaN', 'origWidth': 411, 'origHeight': 411, 'width': 411, 'height': 411, 'widthPercent': 0.8, 'rescaleHeight': True, 'trialN': 1, 'loaded': True, 'loadedTime': 47767.79999999702, 'positionName': 'CENTER', 'positionCoords': [754.5, 334.5]}]",Rate how much you want to eat this food from 0 (least) to 10 (most).,53031.09999999404,1669836268574,tacos,1581.2000000029802,True,7.94,54612.29999999702,1581.2000000029802,True,,HRV,HRV_0229,2022-11-30 19:27:49
2,"[{'imgObject': {}, 'id': 'raspberries', 'src': '/static/foodstim60/raspberries.jpg', 'key': 'NaN', 'origWidth': 411, 'origHeight': 411, 'width': 411, 'height': 411, 'widthPercent': 0.8, 'rescaleHeight': True, 'trialN': 2, 'loaded': True, 'loadedTime': 47711, 'positionName': 'CENTER', 'positionCoords': [754.5, 334.5]}]",Rate how much you want to eat this food from 0 (least) to 10 (most).,54613.29999999702,1669836270157,raspberries,3111.0,True,6.9,57724.29999999702,3111.0,True,,HRV,HRV_0229,2022-11-30 19:27:49
3,"[{'imgObject': {}, 'id': 'bagel plain', 'src': '/static/foodstim60/bagel plain.jpg', 'key': 'NaN', 'origWidth': 410, 'origHeight': 410, 'width': 410, 'height': 410, 'widthPercent': 0.8, 'rescaleHeight': True, 'trialN': 3, 'loaded': True, 'loadedTime': 47680.70000000298, 'positionName': 'CENTER', 'positionCoords': [755, 335]}]",Rate how much you want to eat this food from 0 (least) to 10 (most).,57725.29999999702,1669836273269,bagel plain,1559.1000000089407,True,7.73,59284.40000000596,1559.1000000089407,True,,HRV,HRV_0229,2022-11-30 19:27:49
4,"[{'imgObject': {}, 'id': 'Grapes', 'src': '/static/foodstim60/Grapes.jpg', 'key': 'NaN', 'origWidth': 411, 'origHeight': 411, 'width': 411, 'height': 411, 'widthPercent': 0.8, 'rescaleHeight': True, 'trialN': 4, 'loaded': True, 'loadedTime': 47737, 'positionName': 'CENTER', 'positionCoords': [754.5, 334.5]}]",Rate how much you want to eat this food from 0 (least) to 10 (most).,59285.40000000596,1669836274829,Grapes,3471.0,True,3.5300000000000002,62756.40000000596,3471.0,True,,HRV,HRV_0229,2022-11-30 19:27:49
5,"[{'imgObject': {}, 'id': 'yogurt no spoon', 'src': '/static/foodstim60/yogurt no spoon.jpg', 'key': 'NaN', 'origWidth': 411, 'origHeight': 410, 'width': 411, 'height': 410, 'widthPercent': 0.8, 'rescaleHeight': True, 'trialN': 5, 'loaded': True, 'loadedTime': 47745.09999999404, 'positionName': 'CENTER', 'positionCoords': [754.5, 335]}]",Rate how much you want to eat this food from 0 (least) to 10 (most).,62757.59999999404,1669836278301,yogurt no spoon,2342.7000000029802,True,5.73,65100.29999999702,2342.7000000029802,True,,HRV,HRV_0229,2022-11-30 19:27:49
6,"[{'imgObject': {}, 'id': 'mashed potato', 'src': '/static/foodstim60/mashed potato.jpg', 'key': 'NaN', 'origWidth': 409, 'origHeight': 409, 'width': 409, 'height': 409, 'widthPercent': 0.8, 'rescaleHeight': True, 'trialN': 6, 'loaded': True, 'loadedTime': 47717, 'positionName': 'CENTER', 'positionCoords': [755.5, 335.5]}]",Rate how much you want to eat this food from 0 (least) to 10 (most).,65101.5,1669836280645,mashed potato,1934.7000000029802,True,7.19,67036.20000000298,1934.7000000029802,True,,HRV,HRV_0229,2022-11-30 19:27:49
7,"[{'imgObject': {}, 'id': 'turkeysandwich', 'src': '/static/foodstim60/turkeysandwich.jpg', 'key': 'NaN', 'origWidth': 409, 'origHeight': 409, 'width': 409, 'height': 409, 'widthPercent': 0.8, 'rescaleHeight': True, 'trialN': 7, 'loaded': True, 'loadedTime': 47747.70000000298, 'positionName': 'CENTER', 'positionCoords': [755.5, 335.5]}]",Rate how much you want to eat this food from 0 (least) to 10 (most).,67037.40000000596,1669836282581,turkeysandwich,1670.7999999970198,True,6.91,68708.20000000298,1670.7999999970198,True,,HRV,HRV_0229,2022-11-30 19:27:49
8,"[{'imgObject': {}, 'id': 'granola w milk', 'src': '/static/foodstim60/granola w milk.jpg', 'key': 'NaN', 'origWidth': 410, 'origHeight': 410, 'width': 410, 'height': 410, 'widthPercent': 0.8, 'rescaleHeight': True, 'trialN': 8, 'loaded': True, 'loadedTime': 47773.09999999404, 'positionName': 'CENTER', 'positionCoords': [755, 335]}]",Rate how much you want to eat this food from 0 (least) to 10 (most).,68709.29999999702,1669836284253,granola w milk,1710.9000000059605,True,6.76,70420.20000000298,1710.9000000059605,True,,HRV,HRV_0229,2022-11-30 19:27:49
9,"[{'imgObject': {}, 'id': 'cocktailshrimp', 'src': '/static/foodstim60/cocktailshrimp.jpg', 'key': 'NaN', 'origWidth': 410, 'origHeight': 410, 'width': 410, 'height': 410, 'widthPercent': 0.8, 'rescaleHeight': True, 'trialN': 9, 'loaded': True, 'loadedTime': 47812.40000000596, 'positionName': 'CENTER', 'positionCoords': [755, 335]}]",Rate how much you want to eat this food from 0 (least) to 10 (most).,70421.40000000596,1669836285965,cocktailshrimp,1463.0999999940395,True,5.45,71884.5,1463.0999999940395,True,,HRV,HRV_0229,2022-11-30 19:27:49
10,"[{'imgObject': {}, 'id': 'grilled chicken strips', 'src': '/static/foodstim60/grilled chicken strips.jpg', 'key': 'NaN', 'origWidth': 410, 'origHeight': 411, 'width': 410, 'height': 411, 'widthPercent': 0.8, 'rescaleHeight': True, 'trialN': 10, 'loaded': True, 'loadedTime': 47810.5, 'positionName': 'CENTER', 'positionCoords': [755, 334.5]}]",Rate how much you want to eat this food from 0 (least) to 10 (most).,71886.0,1669836287429,grilled chicken strips,1366.0999999940395,True,7.48,73252.09999999404,1366.0999999940395,True,,HRV,HRV_0229,2022-11-30 19:27:49
11,"[{'imgObject': {}, 'id': 'ice cream sundae 002', 'src': '/static/foodstim60/ice cream sundae 002.jpg', 'key': 'NaN', 'origWidth': 409, 'origHeight': 409, 'width': 409, 'height': 409, 'widthPercent': 0.8, 'rescaleHeight': True, 'trialN': 11, 'loaded': True, 'loadedTime': 47833.5, 'positionName': 'CENTER', 'positionCoords': [755.5, 335.5]}]",Rate how much you want to eat this food from 0 (least) to 10 (most).,73253.59999999404,1669836288797,ice cream sundae 002,7262.4000000059605,True,5.3,80516.0,7262.4000000059605,True,,HRV,HRV_0229,2022-11-30 19:27:49
12,"[{'imgObject': {}, 'id': 'strawberries', 'src': '/static/foodstim60/strawberries.jpg', 'key': 'NaN', 'origWidth': 410, 'origHeight': 410, 'width': 410, 'height': 410, 'widthPercent': 0.8, 'rescaleHeight': True, 'trialN': 12, 'loaded': True, 'loadedTime': 47839, 'positionName': 'CENTER', 'positionCoords': [755, 335]}]",Rate how much you want to eat this food from 0 (least) to 10 (most).,80517.40000000596,1669836296060,strawberries,1406.5999999940395,True,4.07,81924.0,1406.5999999940395,True,,HRV,HRV_0229,2022-11-30 19:27:49
13,"[{'imgObject': {}, 'id': 'blueberries', 'src': '/static/foodstim60/blueberries.jpg', 'key': 'NaN', 'origWidth': 411, 'origHeight': 411, 'width': 411, 'height': 411, 'widthPercent': 0.8, 'rescaleHeight': True, 'trialN': 13, 'loaded': True, 'loadedTime': 47864.90000000596, 'positionName': 'CENTER', 'positionCoords': [754.5, 334.5]}]",Rate how much you want to eat this food from 0 (least) to 10 (most).,81925.40000000596,1669836297468,blueberries,1278.5,True,6.87,83203.90000000596,1278.5,True,,HRV,HRV_0229,2022-11-30 19:27:49
14,"[{'imgObject': {}, 'id': 'pear', 'src': '/static/foodstim60/pear.jpg', 'key': 'NaN', 'origWidth': 411, 'origHeight': 410, 'width': 411, 'height': 410, 'widthPercent': 0.8, 'rescaleHeight': True, 'trialN': 14, 'loaded': True, 'loadedTime': 47871.90000000596, 'positionName': 'CENTER', 'positionCoords': [754.5, 335]}]",Rate how much you want to eat this food from 0 (least) to 10 (most).,83205.29999999702,1669836298748,pear,734.7000000029802,True,6.51,83940.0,734.7000000029802,True,,HRV,HRV_0229,2022-11-30 19:27:49
15,"[{'imgObject': {}, 'id': 'chickenfingers', 'src': '/static/foodstim60/chickenfingers.jpg', 'key': 'NaN', 'origWidth': 410, 'origHeight': 410, 'width': 410, 'height': 410, 'widthPercent': 0.8, 'rescaleHeight': True, 'trialN': 15, 'loaded': True, 'loadedTime': 47873.5, 'positionName': 'CENTER', 'positionCoords': [755, 335]}]",Rate how much you want to eat this food from 0 (least) to 10 (most).,83941.29999999702,1669836299484,chickenfingers,927.6000000089407,True,7.67,84868.90000000596,927.6000000089407,True,,HRV,HRV_0229,2022-11-30 19:27:49
16,"[{'imgObject': {}, 'id': 'froot loops w milk', 'src': '/static/foodstim60/froot loops w milk.jpg', 'key': 'NaN', 'origWidth': 410, 'origHeight': 410, 'width': 410, 'height': 410, 'widthPercent': 0.8, 'rescaleHeight': True, 'trialN': 16, 'loaded': True, 'loadedTime': 47874.70000000298, 'positionName': 'CENTER', 'positionCoords': [755, 335]}]",Rate how much you want to eat this food from 0 (least) to 10 (most).,84870.40000000596,1669836300413,froot loops w milk,1029.5999999940395,True,2.85,85900.0,1029.5999999940395,True,,HRV,HRV_0229,2022-11-30 19:27:49
17,"[{'imgObject': {}, 'id': 'cheerios', 'src': '/static/foodstim60/cheerios.jpg', 'key': 'NaN', 'origWidth': 409, 'origHeight': 410, 'width': 409, 'height': 410, 'widthPercent': 0.8, 'rescaleHeight': True, 'trialN': 17, 'loaded': True, 'loadedTime': 47875.79999999702, 'positionName': 'CENTER', 'positionCoords': [755.5, 335]}]",Rate how much you want to eat this food from 0 (least) to 10 (most).,85901.5,1669836301444,cheerios,6454.5,True,5.42,92356.0,6454.5,True,,HRV,HRV_0229,2022-11-30 19:27:49
18,"[{'imgObject': {}, 'id': 'burrito', 'src': '/static/foodstim60/burrito.jpg', 'key': 'NaN', 'origWidth': 410, 'origHeight': 410, 'width': 410, 'height': 410, 'widthPercent': 0.8, 'rescaleHeight': True, 'trialN': 18, 'loaded': True, 'loadedTime': 47877, 'positionName': 'CENTER', 'positionCoords': [755, 335]}]",Rate how much you want to eat this food from 0 (least) to 10 (most).,92357.40000000596,1669836307900,burrito,1478.5,True,7.58,93835.90000000596,1478.5,True,,HRV,HRV_0229,2022-11-30 19:27:49
19,"[{'imgObject': {}, 'id': 'raisin bran w milk', 'src': '/static/foodstim60/raisin bran w milk.jpg', 'key': 'NaN', 'origWidth': 411, 'origHeight': 411, 'width': 411, 'height': 411, 'widthPercent': 0.8, 'rescaleHeight': True, 'trialN': 19, 'loaded': True, 'loadedTime': 47884.09999999404, 'positionName': 'CENTER', 'positionCoords': [754.5, 334.5]}]",Rate how much you want to eat this food from 0 (least) to 10 (most).,93836.90000000596,1669836309380,raisin bran w milk,1431.0999999940395,True,2.46,95268.0,1431.0999999940395,True,,HRV,HRV_0229,2022-11-30 19:27:49
20,"[{'imgObject': {}, 'id': 'omelette', 'src': '/static/foodstim60/omelette.jpg', 'key': 'NaN', 'origWidth': 410, 'origHeight': 409, 'width': 410, 'height': 409, 'widthPercent': 0.8, 'rescaleHeight': True, 'trialN': 20, 'loaded': True, 'loadedTime': 47891.90000000596, 'positionName': 'CENTER', 'positionCoords': [755, 335.5]}]",Rate how much you want to eat this food from 0 (least) to 10 (most).,95268.79999999702,1669836310812,omelette,1159.1000000089407,True,4.37,96427.90000000596,1159.1000000089407,True,,HRV,HRV_0229,2022-11-30 19:27:49
21,"[{'imgObject': {}, 'id': 'eggsalad', 'src': '/static/foodstim60/eggsalad.jpg', 'key': 'NaN', 'origWidth': 410, 'origHeight': 409, 'width': 410, 'height': 409, 'widthPercent': 0.8, 'rescaleHeight': True, 'trialN': 21, 'loaded': True, 'loadedTime': 47959.70000000298, 'positionName': 'CENTER', 'positionCoords': [755, 335.5]}]",Rate how much you want to eat this food from 0 (least) to 10 (most).,96428.79999999702,1669836311972,eggsalad,1063.1000000089407,True,6.23,97491.90000000596,1063.1000000089407,True,,HRV,HRV_0229,2022-11-30 19:27:49
22,"[{'imgObject': {}, 'id': 'luckycharms', 'src': '/static/foodstim60/luckycharms.jpg', 'key': 'NaN', 'origWidth': 410, 'origHeight': 409, 'width': 410, 'height': 409, 'widthPercent': 0.8, 'rescaleHeight': True, 'trialN': 22, 'loaded': True, 'loadedTime': 47965.40000000596, 'positionName': 'CENTER', 'positionCoords': [755, 335.5]}]",Rate how much you want to eat this food from 0 (least) to 10 (most).,97492.90000000596,1669836313036,luckycharms,766.8999999910593,True,3.61,98259.79999999702,766.8999999910593,True,,HRV,HRV_0229,2022-11-30 19:27:49
23,"[{'imgObject': {}, 'id': 'chicken nuggets2', 'src': '/static/foodstim60/chicken nuggets2.jpg', 'key': 'NaN', 'origWidth': 410, 'origHeight': 409, 'width': 410, 'height': 409, 'widthPercent': 0.8, 'rescaleHeight': True, 'trialN': 23, 'loaded': True, 'loadedTime': 47972.20000000298, 'positionName': 'CENTER', 'positionCoords': [755, 335.5]}]",Rate how much you want to eat this food from 0 (least) to 10 (most).,98260.79999999702,1669836313804,chicken nuggets2,11382.90000000596,True,8.39,109643.70000000298,11382.90000000596,True,,HRV,HRV_0229,2022-11-30 19:27:49
24,"[{'imgObject': {}, 'id': 'corn cob', 'src': '/static/foodstim60/corn cob.jpg', 'key': 'NaN', 'origWidth': 411, 'origHeight': 411, 'width': 411, 'height': 411, 'widthPercent': 0.8, 'rescaleHeight': True, 'trialN': 24, 'loaded': True, 'loadedTime': 48005.79999999702, 'positionName': 'CENTER', 'positionCoords': [754.5, 334.5]}]",Rate how much you want to eat this food from 0 (least) to 10 (most).,109644.79999999702,1669836325188,corn cob,2694.9000000059605,True,7.4,112339.70000000298,2694.9000000059605,True,,HRV,HRV_0229,2022-11-30 19:27:49
25,"[{'imgObject': {}, 'id': 'edamame', 'src': '/static/foodstim60/edamame.jpg', 'key': 'NaN', 'origWidth': 409, 'origHeight': 410, 'width': 409, 'height': 410, 'widthPercent': 0.8, 'rescaleHeight': True, 'trialN': 25, 'loaded': True, 'loadedTime': 48007.70000000298, 'positionName': 'CENTER', 'positionCoords': [755.5, 335]}]",Rate how much you want to eat this food from 0 (least) to 10 (most).,112340.70000000298,1669836327884,edamame,1519.0,True,2.11,113859.70000000298,1519.0,True,,HRV,HRV_0229,2022-11-30 19:27:49
26,"[{'imgObject': {}, 'id': 'lox', 'src': '/static/foodstim60/lox.jpg', 'key': 'NaN', 'origWidth': 410, 'origHeight': 411, 'width': 410, 'height': 411, 'widthPercent': 0.8, 'rescaleHeight': True, 'trialN': 26, 'loaded': True, 'loadedTime': 48010.20000000298, 'positionName': 'CENTER', 'positionCoords': [755, 334.5]}]",Rate how much you want to eat this food from 0 (least) to 10 (most).,113860.70000000298,1669836329404,lox,1567.0,True,3.69,115427.70000000298,1567.0,True,,HRV,HRV_0229,2022-11-30 19:27:49
27,"[{'imgObject': {}, 'id': 'blackbeanswithrice', 'src': '/static/foodstim60/blackbeanswithrice.jpg', 'key': 'NaN', 'origWidth': 410, 'origHeight': 410, 'width': 410, 'height': 410, 'widthPercent': 0.8, 'rescaleHeight': True, 'trialN': 27, 'loaded': True, 'loadedTime': 48037.70000000298, 'positionName': 'CENTER', 'positionCoords': [755, 335]}]",Rate how much you want to eat this food from 0 (least) to 10 (most).,115428.90000000596,1669836330972,blackbeanswithrice,1854.699999988079,True,6.55,117283.59999999404,1854.699999988079,True,,HRV,HRV_0229,2022-11-30 19:27:49
28,"[{'imgObject': {}, 'id': 'apple slices', 'src': '/static/foodstim60/apple slices.jpg', 'key': 'NaN', 'origWidth': 409, 'origHeight': 410, 'width': 409, 'height': 410, 'widthPercent': 0.8, 'rescaleHeight': True, 'trialN': 28, 'loaded': True, 'loadedTime': 48042.09999999404, 'positionName': 'CENTER', 'positionCoords': [755.5, 335]}]",Rate how much you want to eat this food from 0 (least) to 10 (most).,117284.79999999702,1669836332828,apple slices,1366.9000000059605,True,4.09,118651.70000000298,1366.9000000059605,True,,HRV,HRV_0229,2022-11-30 19:27:49
29,"[{'imgObject': {}, 'id': 'banana', 'src': '/static/foodstim60/banana.jpg', 'key': 'NaN', 'origWidth': 410, 'origHeight': 410, 'width': 410, 'height': 410, 'widthPercent': 0.8, 'rescaleHeight': True, 'trialN': 29, 'loaded': True, 'loadedTime': 48053.59999999404, 'positionName': 'CENTER', 'positionCoords': [755, 335]}]",Rate how much you want to eat this food from 0 (least) to 10 (most).,118652.79999999702,1669836334196,banana,878.7999999970198,True,6.65,119531.59999999404,878.7999999970198,True,,HRV,HRV_0229,2022-11-30 19:27:49
30,"[{'imgObject': {}, 'id': 'burger', 'src': '/static/foodstim60/burger.jpg', 'key': 'NaN', 'origWidth': 409, 'origHeight': 409, 'width': 409, 'height': 409, 'widthPercent': 0.8, 'rescaleHeight': True, 'trialN': 30, 'loaded': True, 'loadedTime': 48073.09999999404, 'positionName': 'CENTER', 'positionCoords': [755.5, 335.5]}]",Rate how much you want to eat this food from 0 (least) to 10 (most).,119532.70000000298,1669836335076,burger,12390.89999999106,True,8.38,131923.59999999404,12390.89999999106,True,"[{'event': 'onblur', 'details': 'out of focus', 'performance time': 120684.90000000596, 'date time': 1669836336228}, {'event': 'onfocus', 'details': 'in focus', 'performance time': 131858.79999999702, 'date time': 1669836347402}]",HRV,HRV_0229,2022-11-30 19:27:49
31,"[{'imgObject': {}, 'id': 'roastedpotatoes', 'src': '/static/foodstim60/roastedpotatoes.jpg', 'key': 'NaN', 'origWidth': 409, 'origHeight': 410, 'width': 409, 'height': 410, 'widthPercent': 0.8, 'rescaleHeight': True, 'trialN': 31, 'loaded': True, 'loadedTime': 48072, 'positionName': 'CENTER', 'positionCoords': [755.5, 335]}]",Rate how much you want to eat this food from 0 (least) to 10 (most).,131924.79999999702,1669836347468,roastedpotatoes,7550.70000000298,True,6.58,139475.5,7550.70000000298,True,"[{'event': 'onblur', 'details': 'out of focus', 'performance time': 134494.29999999702, 'date time': 1669836350037}, {'event': 'onfocus', 'details': 'in focus', 'performance time': 139411, 'date time': 1669836354954}]",HRV,HRV_0229,2022-11-30 19:27:49
32,"[{'imgObject': {}, 'id': 'rigatoni and sauce', 'src': '/static/foodstim60/rigatoni and sauce.jpg', 'key': 'NaN', 'origWidth': 410, 'origHeight': 411, 'width': 410, 'height': 411, 'widthPercent': 0.8, 'rescaleHeight': True, 'trialN': 32, 'loaded': True, 'loadedTime': 48079.40000000596, 'positionName': 'CENTER', 'positionCoords': [755, 334.5]}]",Rate how much you want to eat this food from 0 (least) to 10 (most).,139477.09999999404,1669836355020,rigatoni and sauce,782.3000000119209,True,7.55,140259.40000000596,782.3000000119209,True,,HRV,HRV_0229,2022-11-30 19:27:49
33,"[{'imgObject': {}, 'id': 'kiwi', 'src': '/static/foodstim60/kiwi.jpg', 'key': 'NaN', 'origWidth': 410, 'origHeight': 410, 'width': 410, 'height': 410, 'widthPercent': 0.8, 'rescaleHeight': True, 'trialN': 33, 'loaded': True, 'loadedTime': 48105.40000000596, 'positionName': 'CENTER', 'positionCoords': [755, 335]}]",Rate how much you want to eat this food from 0 (least) to 10 (most).,140260.79999999702,1669836355804,kiwi,438.6000000089407,True,5.16,140699.40000000596,438.6000000089407,True,,HRV,HRV_0229,2022-11-30 19:27:49
34,"[{'imgObject': {}, 'id': 'fried eggs', 'src': '/static/foodstim60/fried eggs.jpg', 'key': 'NaN', 'origWidth': 410, 'origHeight': 410, 'width': 410, 'height': 410, 'widthPercent': 0.8, 'rescaleHeight': True, 'trialN': 34, 'loaded': True, 'loadedTime': 48107.79999999702, 'positionName': 'CENTER', 'positionCoords': [755, 335]}]",Rate how much you want to eat this food from 0 (least) to 10 (most).,140700.70000000298,1669836356244,fried eggs,25230.20000000298,True,6.7700000000000005,165930.90000000596,25230.20000000298,True,"[{'event': 'onblur', 'details': 'out of focus', 'performance time': 142359.09999999404, 'date time': 1669836357902}, {'event': 'onfocus', 'details': 'in focus', 'performance time': 165882.20000000298, 'date time': 1669836381425}]",HRV,HRV_0229,2022-11-30 19:27:49
35,"[{'imgObject': {}, 'id': 'cherries', 'src': '/static/foodstim60/cherries.jpg', 'key': 'NaN', 'origWidth': 410, 'origHeight': 411, 'width': 410, 'height': 411, 'widthPercent': 0.8, 'rescaleHeight': True, 'trialN': 35, 'loaded': True, 'loadedTime': 48123.59999999404, 'positionName': 'CENTER', 'positionCoords': [755, 334.5]}]",Rate how much you want to eat this food from 0 (least) to 10 (most).,165932.90000000596,1669836381476,cherries,8078.199999988079,True,2.83,174011.09999999404,8078.199999988079,True,"[{'event': 'onblur', 'details': 'out of focus', 'performance time': 167278.70000000298, 'date time': 1669836382822}, {'event': 'onfocus', 'details': 'in focus', 'performance time': 172694.59999999404, 'date time': 1669836388237}]",HRV,HRV_0229,2022-11-30 19:27:49
36,"[{'imgObject': {}, 'id': 'avocado', 'src': '/static/foodstim60/avocado.jpg', 'key': 'NaN', 'origWidth': 409, 'origHeight': 409, 'width': 409, 'height': 409, 'widthPercent': 0.8, 'rescaleHeight': True, 'trialN': 36, 'loaded': True, 'loadedTime': 48184.79999999702, 'positionName': 'CENTER', 'positionCoords': [755.5, 335.5]}]",Rate how much you want to eat this food from 0 (least) to 10 (most).,174012.09999999404,1669836389555,avocado,1286.9000000059605,True,3.42,175299.0,1286.9000000059605,True,,HRV,HRV_0229,2022-11-30 19:27:49
37,"[{'imgObject': {}, 'id': 'rigatoni', 'src': '/static/foodstim60/rigatoni.jpg', 'key': 'NaN', 'origWidth': 411, 'origHeight': 411, 'width': 411, 'height': 411, 'widthPercent': 0.8, 'rescaleHeight': True, 'trialN': 37, 'loaded': True, 'loadedTime': 48188.59999999404, 'positionName': 'CENTER', 'positionCoords': [754.5, 334.5]}]",Rate how much you want to eat this food from 0 (least) to 10 (most).,175299.90000000596,1669836390843,rigatoni,1103.0,True,5.7700000000000005,176402.90000000596,1103.0,True,,HRV,HRV_0229,2022-11-30 19:27:49
38,"[{'imgObject': {}, 'id': 'mango', 'src': '/static/foodstim60/mango.jpg', 'key': 'NaN', 'origWidth': 411, 'origHeight': 411, 'width': 411, 'height': 411, 'widthPercent': 0.8, 'rescaleHeight': True, 'trialN': 38, 'loaded': True, 'loadedTime': 48181.20000000298, 'positionName': 'CENTER', 'positionCoords': [754.5, 334.5]}]",Rate how much you want to eat this food from 0 (least) to 10 (most).,176403.90000000596,1669836391947,mango,407.29999999701977,True,3.17,176811.20000000298,407.29999999701977,True,,HRV,HRV_0229,2022-11-30 19:27:49
39,"[{'imgObject': {}, 'id': 'popsicles', 'src': '/static/foodstim60/popsicles.jpg', 'key': 'NaN', 'origWidth': 410, 'origHeight': 410, 'width': 410, 'height': 410, 'widthPercent': 0.8, 'rescaleHeight': True, 'trialN': 39, 'loaded': True, 'loadedTime': 48223.09999999404, 'positionName': 'CENTER', 'positionCoords': [755, 335]}]",Rate how much you want to eat this food from 0 (least) to 10 (most).,176812.5,1669836392355,popsicles,454.5,True,7.66,177267.0,454.5,True,,HRV,HRV_0229,2022-11-30 19:27:49
40,"[{'imgObject': {}, 'id': 'veggieswithdip', 'src': '/static/foodstim60/veggieswithdip.jpg', 'key': 'NaN', 'origWidth': 409, 'origHeight': 409, 'width': 409, 'height': 409, 'widthPercent': 0.8, 'rescaleHeight': True, 'trialN': 40, 'loaded': True, 'loadedTime': 48225.20000000298, 'positionName': 'CENTER', 'positionCoords': [755.5, 335.5]}]",Rate how much you want to eat this food from 0 (least) to 10 (most).,177268.0,1669836392811,veggieswithdip,487.0,True,4.32,177755.0,487.0,True,,HRV,HRV_0229,2022-11-30 19:27:49
41,"[{'imgObject': {}, 'id': 'olives', 'src': '/static/foodstim60/olives.jpg', 'key': 'NaN', 'origWidth': 410, 'origHeight': 410, 'width': 410, 'height': 410, 'widthPercent': 0.8, 'rescaleHeight': True, 'trialN': 41, 'loaded': True, 'loadedTime': 48226.5, 'positionName': 'CENTER', 'positionCoords': [755, 335]}]",Rate how much you want to eat this food from 0 (least) to 10 (most).,177756.0,1669836393299,olives,470.90000000596046,True,2.71,178226.90000000596,470.90000000596046,True,,HRV,HRV_0229,2022-11-30 19:27:49
42,"[{'imgObject': {}, 'id': 'bagel and cc', 'src': '/static/foodstim60/bagel and cc.jpg', 'key': 'NaN', 'origWidth': 410, 'origHeight': 410, 'width': 410, 'height': 410, 'widthPercent': 0.8, 'rescaleHeight': True, 'trialN': 42, 'loaded': True, 'loadedTime': 48246.79999999702, 'positionName': 'CENTER', 'positionCoords': [755, 335]}]",Rate how much you want to eat this food from 0 (least) to 10 (most).,178228.29999999702,1669836393771,bagel and cc,927.7999999970198,True,7.16,179156.09999999404,927.7999999970198,True,,HRV,HRV_0229,2022-11-30 19:27:49
43,"[{'imgObject': {}, 'id': 'steak', 'src': '/static/foodstim60/steak.jpg', 'key': 'NaN', 'origWidth': 410, 'origHeight': 410, 'width': 410, 'height': 410, 'widthPercent': 0.8, 'rescaleHeight': True, 'trialN': 43, 'loaded': True, 'loadedTime': 48349.20000000298, 'positionName': 'CENTER', 'positionCoords': [755, 335]}]",Rate how much you want to eat this food from 0 (least) to 10 (most).,179157.90000000596,1669836394701,steak,813.0999999940395,True,6.41,179971.0,813.0999999940395,True,,HRV,HRV_0229,2022-11-30 19:27:49
44,"[{'imgObject': {}, 'id': 'sweetpotato', 'src': '/static/foodstim60/sweetpotato.jpg', 'key': 'NaN', 'origWidth': 410, 'origHeight': 410, 'width': 410, 'height': 410, 'widthPercent': 0.8, 'rescaleHeight': True, 'trialN': 44, 'loaded': True, 'loadedTime': 48248, 'positionName': 'CENTER', 'positionCoords': [755, 335]}]",Rate how much you want to eat this food from 0 (least) to 10 (most).,179972.0,1669836395515,sweetpotato,406.90000000596046,True,7.6000000000000005,180378.90000000596,406.90000000596046,True,,HRV,HRV_0229,2022-11-30 19:27:49
45,"[{'imgObject': {}, 'id': 'Tribe humus pita', 'src': '/static/foodstim60/Tribe humus pita.jpg', 'key': 'NaN', 'origWidth': 411, 'origHeight': 411, 'width': 411, 'height': 411, 'widthPercent': 0.8, 'rescaleHeight': True, 'trialN': 45, 'loaded': True, 'loadedTime': 48403.90000000596, 'positionName': 'CENTER', 'positionCoords': [754.5, 334.5]}]",Rate how much you want to eat this food from 0 (least) to 10 (most).,180380.0,1669836395923,Tribe humus pita,846.9000000059605,True,2.16,181226.90000000596,846.9000000059605,True,,HRV,HRV_0229,2022-11-30 19:27:49
46,"[{'imgObject': {}, 'id': 'baked potato', 'src': '/static/foodstim60/baked potato.jpg', 'key': 'NaN', 'origWidth': 409, 'origHeight': 410, 'width': 409, 'height': 410, 'widthPercent': 0.8, 'rescaleHeight': True, 'trialN': 46, 'loaded': True, 'loadedTime': 48385.79999999702, 'positionName': 'CENTER', 'positionCoords': [755.5, 335]}]",Rate how much you want to eat this food from 0 (least) to 10 (most).,181228.09999999404,1669836396771,baked potato,486.80000001192093,True,3.0500000000000003,181714.90000000596,486.80000001192093,True,,HRV,HRV_0229,2022-11-30 19:27:49
47,"[{'imgObject': {}, 'id': 'cantaloupe', 'src': '/static/foodstim60/cantaloupe.jpg', 'key': 'NaN', 'origWidth': 409, 'origHeight': 409, 'width': 409, 'height': 409, 'widthPercent': 0.8, 'rescaleHeight': True, 'trialN': 47, 'loaded': True, 'loadedTime': 48383.09999999404, 'positionName': 'CENTER', 'positionCoords': [755.5, 335.5]}]",Rate how much you want to eat this food from 0 (least) to 10 (most).,181716.0,1669836397259,cantaloupe,950.9000000059605,True,8.31,182666.90000000596,950.9000000059605,True,,HRV,HRV_0229,2022-11-30 19:27:49
48,"[{'imgObject': {}, 'id': 'orange slices', 'src': '/static/foodstim60/orange slices.jpg', 'key': 'NaN', 'origWidth': 409, 'origHeight': 410, 'width': 409, 'height': 410, 'widthPercent': 0.8, 'rescaleHeight': True, 'trialN': 48, 'loaded': True, 'loadedTime': 48425.29999999702, 'positionName': 'CENTER', 'positionCoords': [755.5, 335]}]",Rate how much you want to eat this food from 0 (least) to 10 (most).,182668.29999999702,1669836398211,orange slices,17142.40000000596,True,7.09,199810.70000000298,17142.40000000596,True,"[{'event': 'onblur', 'details': 'out of focus', 'performance time': 183604.40000000596, 'date time': 1669836399147}, {'event': 'onfocus', 'details': 'in focus', 'performance time': 199191.90000000596, 'date time': 1669836414735}]",HRV,HRV_0229,2022-11-30 19:27:49
49,"[{'imgObject': {}, 'id': 'seaweed', 'src': '/static/foodstim60/seaweed.jpg', 'key': 'NaN', 'origWidth': 410, 'origHeight': 410, 'width': 410, 'height': 410, 'widthPercent': 0.8, 'rescaleHeight': True, 'trialN': 49, 'loaded': True, 'loadedTime': 48387.09999999404, 'positionName': 'CENTER', 'positionCoords': [755, 335]}]",Rate how much you want to eat this food from 0 (least) to 10 (most).,199812.20000000298,1669836415355,seaweed,1430.5,True,1.43,201242.70000000298,1430.5,True,,HRV,HRV_0229,2022-11-30 19:27:49
50,"[{'imgObject': {}, 'id': 'cherry tomato', 'src': '/static/foodstim60/cherry tomato.jpg', 'key': 'NaN', 'origWidth': 410, 'origHeight': 410, 'width': 410, 'height': 410, 'widthPercent': 0.8, 'rescaleHeight': True, 'trialN': 50, 'loaded': True, 'loadedTime': 48430.5, 'positionName': 'CENTER', 'positionCoords': [755, 335]}]",Rate how much you want to eat this food from 0 (least) to 10 (most).,201244.09999999404,1669836416787,cherry tomato,33486.0,True,3.9,234730.09999999404,33486.0,True,"[{'event': 'onblur', 'details': 'out of focus', 'performance time': 209150.29999999702, 'date time': 1669836424693}, {'event': 'onfocus', 'details': 'in focus', 'performance time': 234670.59999999404, 'date time': 1669836450214}]",HRV,HRV_0229,2022-11-30 19:27:49
51,"[{'imgObject': {}, 'id': 'sushi w_condiments', 'src': '/static/foodstim60/sushi w_condiments.jpg', 'key': 'NaN', 'origWidth': 410, 'origHeight': 410, 'width': 410, 'height': 410, 'widthPercent': 0.8, 'rescaleHeight': True, 'trialN': 51, 'loaded': True, 'loadedTime': 48482.59999999404, 'positionName': 'CENTER', 'positionCoords': [755, 335]}]",Rate how much you want to eat this food from 0 (least) to 10 (most).,234731.29999999702,1669836450274,sushi w_condiments,742.7999999970198,True,6.86,235474.09999999404,742.7999999970198,True,,HRV,HRV_0229,2022-11-30 19:27:49
52,"[{'imgObject': {}, 'id': 'fruitsalad', 'src': '/static/foodstim60/fruitsalad.jpg', 'key': 'NaN', 'origWidth': 410, 'origHeight': 410, 'width': 410, 'height': 410, 'widthPercent': 0.8, 'rescaleHeight': True, 'trialN': 52, 'loaded': True, 'loadedTime': 48446.79999999702, 'positionName': 'CENTER', 'positionCoords': [755, 335]}]",Rate how much you want to eat this food from 0 (least) to 10 (most).,235475.0,1669836451018,fruitsalad,2639.2999999970198,True,7.5600000000000005,238114.29999999702,2639.2999999970198,True,"[{'event': 'onblur', 'details': 'out of focus', 'performance time': 236914.70000000298, 'date time': 1669836452458}, {'event': 'onfocus', 'details': 'in focus', 'performance time': 238048, 'date time': 1669836453591}]",HRV,HRV_0229,2022-11-30 19:27:49
53,"[{'imgObject': {}, 'id': 'hotdog w must', 'src': '/static/foodstim60/hotdog w must.jpg', 'key': 'NaN', 'origWidth': 409, 'origHeight': 409, 'width': 409, 'height': 409, 'widthPercent': 0.8, 'rescaleHeight': True, 'trialN': 53, 'loaded': True, 'loadedTime': 48480.29999999702, 'positionName': 'CENTER', 'positionCoords': [755.5, 335.5]}]",Rate how much you want to eat this food from 0 (least) to 10 (most).,238115.40000000596,1669836453658,hotdog w must,2294.7999999970198,True,2.46,240410.20000000298,2294.7999999970198,True,,HRV,HRV_0229,2022-11-30 19:27:49
54,"[{'imgObject': {}, 'id': 'turkey sandwich', 'src': '/static/foodstim60/turkey sandwich.jpg', 'key': 'NaN', 'origWidth': 409, 'origHeight': 409, 'width': 409, 'height': 409, 'widthPercent': 0.8, 'rescaleHeight': True, 'trialN': 54, 'loaded': True, 'loadedTime': 48481.5, 'positionName': 'CENTER', 'positionCoords': [755.5, 335.5]}]",Rate how much you want to eat this food from 0 (least) to 10 (most).,240411.09999999404,1669836455954,turkey sandwich,1695.2000000029802,True,2.73,242106.29999999702,1695.2000000029802,True,,HRV,HRV_0229,2022-11-30 19:27:49
55,"[{'imgObject': {}, 'id': 'eggs', 'src': '/static/foodstim60/eggs.jpg', 'key': 'NaN', 'origWidth': 409, 'origHeight': 409, 'width': 409, 'height': 409, 'widthPercent': 0.8, 'rescaleHeight': True, 'trialN': 55, 'loaded': True, 'loadedTime': 48510.90000000596, 'positionName': 'CENTER', 'positionCoords': [755.5, 335.5]}]",Rate how much you want to eat this food from 0 (least) to 10 (most).,242107.29999999702,1669836457650,eggs,1263.0,True,6.68,243370.29999999702,1263.0,True,,HRV,HRV_0229,2022-11-30 19:27:49
56,"[{'imgObject': {}, 'id': 'shreddedwheatwithmilk', 'src': '/static/foodstim60/shreddedwheatwithmilk.jpg', 'key': 'NaN', 'origWidth': 410, 'origHeight': 410, 'width': 410, 'height': 410, 'widthPercent': 0.8, 'rescaleHeight': True, 'trialN': 56, 'loaded': True, 'loadedTime': 48519.29999999702, 'positionName': 'CENTER', 'positionCoords': [755, 335]}]",Rate how much you want to eat this food from 0 (least) to 10 (most).,243371.40000000596,1669836458914,shreddedwheatwithmilk,3286.5999999940395,True,5.78,246658.0,3286.5999999940395,True,,HRV,HRV_0229,2022-11-30 19:27:49
57,"[{'imgObject': {}, 'id': 'salmon', 'src': '/static/foodstim60/salmon.jpg', 'key': 'NaN', 'origWidth': 410, 'origHeight': 409, 'width': 410, 'height': 409, 'widthPercent': 0.8, 'rescaleHeight': True, 'trialN': 57, 'loaded': True, 'loadedTime': 48522.20000000298, 'positionName': 'CENTER', 'positionCoords': [755, 335.5]}]",Rate how much you want to eat this food from 0 (least) to 10 (most).,246661.0,1669836462204,salmon,1445.2000000029802,True,8.06,248106.20000000298,1445.2000000029802,True,,HRV,HRV_0229,2022-11-30 19:27:49
58,"[{'imgObject': {}, 'id': 'hashbrowns', 'src': '/static/foodstim60/hashbrowns.jpg', 'key': 'NaN', 'origWidth': 411, 'origHeight': 410, 'width': 411, 'height': 410, 'widthPercent': 0.8, 'rescaleHeight': True, 'trialN': 58, 'loaded': True, 'loadedTime': 48524, 'positionName': 'CENTER', 'positionCoords': [754.5, 335]}]",Rate how much you want to eat this food from 0 (least) to 10 (most).,248107.20000000298,1669836463650,hashbrowns,2583.0,True,2.56,250690.20000000298,2583.0,True,,HRV,HRV_0229,2022-11-30 19:27:49
59,"[{'imgObject': {}, 'id': 'salad w chicken', 'src': '/static/foodstim60/salad w chicken.jpg', 'key': 'NaN', 'origWidth': 411, 'origHeight': 411, 'width': 411, 'height': 411, 'widthPercent': 0.8, 'rescaleHeight': True, 'trialN': 59, 'loaded': True, 'loadedTime': 48525.29999999702, 'positionName': 'CENTER', 'positionCoords': [754.5, 334.5]}]",Rate how much you want to eat this food from 0 (least) to 10 (most).,250691.29999999702,1669836466234,salad w chicken,2390.7999999970198,True,0.97,253082.09999999404,2390.7999999970198,True,,HRV,HRV_0229,2022-11-30 19:27:49
