trialN,stimuli,trialStartTime,trialStartTime_UNIX,stimulus1,stimulus2,stimulus1Bid,stimulus2Bid,delta,selected,rt,rt_UNIX,rt_perfnow,receivedResponse,rsp,trialEndTime,trialDuration,trialEndTime_UNIX,trialDuration_UNIX,exp,subjectId,date
0,"[{'imgObject': {}, 'id': 'kiwi', 'src': '/static/foodstim60/kiwi.jpg', 'key': 'u', 'origWidth': 410, 'origHeight': 410, 'width': 410, 'height': 410, 'widthPercent': 0.45, 'rescaleHeight': False, 'trialN': 0, 'loaded': True, 'loadedTime': 2375.5, 'positionName': 'LEFT', 'positionCoords': [511.6, 335], 'bid': 4.12}, {'imgObject': {}, 'id': 'granola w milk', 'src': '/static/foodstim60/granola w milk.jpg', 'key': 'i', 'origWidth': 410, 'origHeight': 410, 'width': 410, 'height': 410, 'widthPercent': 0.45, 'rescaleHeight': False, 'trialN': 0, 'loaded': True, 'loadedTime': 2385.5999999940395, 'positionName': 'RIGHT', 'positionCoords': [998.4, 335], 'bid': 3.82}]",2772.5,1669837293480,kiwi,granola w milk,4.12,3.82,-0.30000000000000027,granola w milk,1597.5999999940395,1600,1600.0999999940395,True,i,4878.20000000298,2105.7000000029802,1669837295586,2106,HRV,HRV_0229,2022-11-30 19:45:15
1,"[{'imgObject': {}, 'id': 'edamame', 'src': '/static/foodstim60/edamame.jpg', 'key': 'u', 'origWidth': 409, 'origHeight': 410, 'width': 409, 'height': 410, 'widthPercent': 0.45, 'rescaleHeight': False, 'trialN': 1, 'loaded': True, 'loadedTime': 2395.8999999910593, 'positionName': 'LEFT', 'positionCoords': [512.6, 335], 'bid': 1.92}, {'imgObject': {}, 'id': 'veggieswithdip', 'src': '/static/foodstim60/veggieswithdip.jpg', 'key': 'i', 'origWidth': 409, 'origHeight': 409, 'width': 409, 'height': 409, 'widthPercent': 0.45, 'rescaleHeight': False, 'trialN': 1, 'loaded': True, 'loadedTime': 2400.5, 'positionName': 'RIGHT', 'positionCoords': [998.4, 335.5], 'bid': 3.46}]",4878.5999999940395,1669837295586,edamame,veggieswithdip,1.92,3.46,1.54,edamame,932.6000000089407,934,934.1000000089407,True,u,6319.0999999940395,1440.5,1669837297027,1441,HRV,HRV_0229,2022-11-30 19:45:15
2,"[{'imgObject': {}, 'id': 'turkey sandwich', 'src': '/static/foodstim60/turkey sandwich.jpg', 'key': 'u', 'origWidth': 409, 'origHeight': 409, 'width': 409, 'height': 409, 'widthPercent': 0.45, 'rescaleHeight': False, 'trialN': 2, 'loaded': True, 'loadedTime': 2403.5, 'positionName': 'LEFT', 'positionCoords': [512.6, 335.5], 'bid': 6.7}, {'imgObject': {}, 'id': 'froot loops w milk', 'src': '/static/foodstim60/froot loops w milk.jpg', 'key': 'i', 'origWidth': 410, 'origHeight': 410, 'width': 410, 'height': 410, 'widthPercent': 0.45, 'rescaleHeight': False, 'trialN': 2, 'loaded': True, 'loadedTime': 2406.2999999970198, 'positionName': 'RIGHT', 'positionCoords': [998.4, 335], 'bid': 8.01}]",6319.5999999940395,1669837297027,turkey sandwich,froot loops w milk,6.7,8.01,1.3099999999999996,turkey sandwich,683.5,684,684.2000000029802,True,u,7510.399999991059,1190.7999999970198,1669837298218,1191,HRV,HRV_0229,2022-11-30 19:45:15
3,"[{'imgObject': {}, 'id': 'banana', 'src': '/static/foodstim60/banana.jpg', 'key': 'u', 'origWidth': 410, 'origHeight': 410, 'width': 410, 'height': 410, 'widthPercent': 0.45, 'rescaleHeight': False, 'trialN': 3, 'loaded': True, 'loadedTime': 2409.2999999970198, 'positionName': 'LEFT', 'positionCoords': [511.6, 335], 'bid': 7.68}, {'imgObject': {}, 'id': 'rigatoni and sauce', 'src': '/static/foodstim60/rigatoni and sauce.jpg', 'key': 'i', 'origWidth': 410, 'origHeight': 411, 'width': 410, 'height': 411, 'widthPercent': 0.45, 'rescaleHeight': False, 'trialN': 3, 'loaded': True, 'loadedTime': 2410.8999999910593, 'positionName': 'RIGHT', 'positionCoords': [998.4, 334.5], 'bid': 7.94}]",7510.70000000298,1669837298218,banana,rigatoni and sauce,7.68,7.94,0.2600000000000007,banana,1101.7999999970198,1103,1102.2999999970198,True,u,9118.39999999106,1607.699999988079,1669837299826,1608,HRV,HRV_0229,2022-11-30 19:45:15
4,"[{'imgObject': {}, 'id': 'cherry tomato', 'src': '/static/foodstim60/cherry tomato.jpg', 'key': 'u', 'origWidth': 410, 'origHeight': 410, 'width': 410, 'height': 410, 'widthPercent': 0.45, 'rescaleHeight': False, 'trialN': 4, 'loaded': True, 'loadedTime': 2412.3999999910593, 'positionName': 'LEFT', 'positionCoords': [511.6, 335], 'bid': 2.63}, {'imgObject': {}, 'id': 'hotdog w must', 'src': '/static/foodstim60/hotdog w must.jpg', 'key': 'i', 'origWidth': 409, 'origHeight': 409, 'width': 409, 'height': 409, 'widthPercent': 0.45, 'rescaleHeight': False, 'trialN': 4, 'loaded': True, 'loadedTime': 2417.7000000029802, 'positionName': 'RIGHT', 'positionCoords': [998.4, 335.5], 'bid': 6.9}]",9118.89999999106,1669837299827,cherry tomato,hotdog w must,2.63,6.9,4.2700000000000005,hotdog w must,1042.7000000029802,1043,1043.0,True,i,10662.29999999702,1543.4000000059605,1669837301370,1543,HRV,HRV_0229,2022-11-30 19:45:15
5,"[{'imgObject': {}, 'id': 'yogurt no spoon', 'src': '/static/foodstim60/yogurt no spoon.jpg', 'key': 'u', 'origWidth': 411, 'origHeight': 410, 'width': 411, 'height': 410, 'widthPercent': 0.45, 'rescaleHeight': False, 'trialN': 5, 'loaded': True, 'loadedTime': 2419.8999999910593, 'positionName': 'LEFT', 'positionCoords': [510.6, 335], 'bid': 5.3100000000000005}, {'imgObject': {}, 'id': 'luckycharms', 'src': '/static/foodstim60/luckycharms.jpg', 'key': 'i', 'origWidth': 410, 'origHeight': 409, 'width': 410, 'height': 409, 'widthPercent': 0.45, 'rescaleHeight': False, 'trialN': 5, 'loaded': True, 'loadedTime': 2427.0999999940395, 'positionName': 'RIGHT', 'positionCoords': [998.4, 335.5], 'bid': 6.95}]",10662.59999999404,1669837301370,yogurt no spoon,luckycharms,5.3100000000000005,6.95,1.6399999999999997,luckycharms,1193.1000000089407,1195,1194.5,True,i,12359.09999999404,1696.5,1669837303067,1697,HRV,HRV_0229,2022-11-30 19:45:15
6,"[{'imgObject': {}, 'id': 'rigatoni', 'src': '/static/foodstim60/rigatoni.jpg', 'key': 'u', 'origWidth': 411, 'origHeight': 411, 'width': 411, 'height': 411, 'widthPercent': 0.45, 'rescaleHeight': False, 'trialN': 6, 'loaded': True, 'loadedTime': 2475.2000000029802, 'positionName': 'LEFT', 'positionCoords': [510.6, 334.5], 'bid': 3.9}, {'imgObject': {}, 'id': 'kiwi', 'src': '/static/foodstim60/kiwi.jpg', 'key': 'i', 'origWidth': 410, 'origHeight': 410, 'width': 410, 'height': 410, 'widthPercent': 0.45, 'rescaleHeight': False, 'trialN': 6, 'loaded': True, 'loadedTime': 2374.8999999910593, 'positionName': 'RIGHT', 'positionCoords': [998.4, 335], 'bid': 4.12}]",12359.39999999106,1669837303067,rigatoni,kiwi,3.9,4.12,0.2200000000000002,rigatoni,672.8000000119209,674,674.3000000119209,True,u,13534.89999999106,1175.5,1669837304243,1176,HRV,HRV_0229,2022-11-30 19:45:15
7,"[{'imgObject': {}, 'id': 'bagel and cc', 'src': '/static/foodstim60/bagel and cc.jpg', 'key': 'u', 'origWidth': 410, 'origHeight': 410, 'width': 410, 'height': 410, 'widthPercent': 0.45, 'rescaleHeight': False, 'trialN': 7, 'loaded': True, 'loadedTime': 2488.2999999970198, 'positionName': 'LEFT', 'positionCoords': [511.6, 335], 'bid': 6.5}, {'imgObject': {}, 'id': 'roastedpotatoes', 'src': '/static/foodstim60/roastedpotatoes.jpg', 'key': 'i', 'origWidth': 409, 'origHeight': 410, 'width': 409, 'height': 410, 'widthPercent': 0.45, 'rescaleHeight': False, 'trialN': 7, 'loaded': True, 'loadedTime': 2491, 'positionName': 'RIGHT', 'positionCoords': [998.4, 335], 'bid': 8.28}]",13535.20000000298,1669837304243,bagel and cc,roastedpotatoes,6.5,8.28,1.7799999999999994,roastedpotatoes,1052.0999999940395,1052,1052.5,True,i,15095.29999999702,1560.0999999940395,1669837305803,1560,HRV,HRV_0229,2022-11-30 19:45:15
8,"[{'imgObject': {}, 'id': 'mango', 'src': '/static/foodstim60/mango.jpg', 'key': 'u', 'origWidth': 411, 'origHeight': 411, 'width': 411, 'height': 411, 'widthPercent': 0.45, 'rescaleHeight': False, 'trialN': 8, 'loaded': True, 'loadedTime': 2492.5999999940395, 'positionName': 'LEFT', 'positionCoords': [510.6, 334.5], 'bid': 3.45}, {'imgObject': {}, 'id': 'turkeysandwich', 'src': '/static/foodstim60/turkeysandwich.jpg', 'key': 'i', 'origWidth': 409, 'origHeight': 409, 'width': 409, 'height': 409, 'widthPercent': 0.45, 'rescaleHeight': False, 'trialN': 8, 'loaded': True, 'loadedTime': 2495.5999999940395, 'positionName': 'RIGHT', 'positionCoords': [998.4, 335.5], 'bid': 3.44}]",15095.79999999702,1669837305804,mango,turkeysandwich,3.45,3.44,-0.010000000000000231,turkeysandwich,877.4000000059605,877,878.0,True,i,16479.09999999404,1383.2999999970198,1669837307187,1383,HRV,HRV_0229,2022-11-30 19:45:15
9,"[{'imgObject': {}, 'id': 'veggieswithdip', 'src': '/static/foodstim60/veggieswithdip.jpg', 'key': 'u', 'origWidth': 409, 'origHeight': 409, 'width': 409, 'height': 409, 'widthPercent': 0.45, 'rescaleHeight': False, 'trialN': 9, 'loaded': True, 'loadedTime': 2400, 'positionName': 'LEFT', 'positionCoords': [512.6, 335.5], 'bid': 3.46}, {'imgObject': {}, 'id': 'rigatoni', 'src': '/static/foodstim60/rigatoni.jpg', 'key': 'i', 'origWidth': 411, 'origHeight': 411, 'width': 411, 'height': 411, 'widthPercent': 0.45, 'rescaleHeight': False, 'trialN': 9, 'loaded': True, 'loadedTime': 2427.7000000029802, 'positionName': 'RIGHT', 'positionCoords': [998.4, 334.5], 'bid': 3.9}]",16479.5,1669837307187,veggieswithdip,rigatoni,3.46,3.9,0.43999999999999995,rigatoni,627,628,627.3999999910593,True,i,17615.09999999404,1135.5999999940395,1669837308323,1136,HRV,HRV_0229,2022-11-30 19:45:15
10,"[{'imgObject': {}, 'id': 'avocado', 'src': '/static/foodstim60/avocado.jpg', 'key': 'u', 'origWidth': 409, 'origHeight': 409, 'width': 409, 'height': 409, 'widthPercent': 0.45, 'rescaleHeight': False, 'trialN': 10, 'loaded': True, 'loadedTime': 2498.8999999910593, 'positionName': 'LEFT', 'positionCoords': [512.6, 335.5], 'bid': 6.68}, {'imgObject': {}, 'id': 'rigatoni and sauce', 'src': '/static/foodstim60/rigatoni and sauce.jpg', 'key': 'i', 'origWidth': 410, 'origHeight': 411, 'width': 410, 'height': 411, 'widthPercent': 0.45, 'rescaleHeight': False, 'trialN': 10, 'loaded': True, 'loadedTime': 2409.7000000029802, 'positionName': 'RIGHT', 'positionCoords': [998.4, 334.5], 'bid': 7.94}]",17615.79999999702,1669837308324,avocado,rigatoni and sauce,6.68,7.94,1.2600000000000007,rigatoni and sauce,572,572,572.5999999940395,True,i,18694.79999999702,1079.0,1669837309403,1079,HRV,HRV_0229,2022-11-30 19:45:15
11,"[{'imgObject': {}, 'id': 'eggsalad', 'src': '/static/foodstim60/eggsalad.jpg', 'key': 'u', 'origWidth': 410, 'origHeight': 409, 'width': 410, 'height': 409, 'widthPercent': 0.45, 'rescaleHeight': False, 'trialN': 11, 'loaded': True, 'loadedTime': 2502.7999999970198, 'positionName': 'LEFT', 'positionCoords': [511.6, 335.5], 'bid': 0.87}, {'imgObject': {}, 'id': 'cherry tomato', 'src': '/static/foodstim60/cherry tomato.jpg', 'key': 'i', 'origWidth': 410, 'origHeight': 410, 'width': 410, 'height': 410, 'widthPercent': 0.45, 'rescaleHeight': False, 'trialN': 11, 'loaded': True, 'loadedTime': 2414.7000000029802, 'positionName': 'RIGHT', 'positionCoords': [998.4, 335], 'bid': 2.63}]",18695.09999999404,1669837309403,eggsalad,cherry tomato,0.87,2.63,1.7599999999999998,eggsalad,1160.6000000089407,1161,1161.5,True,u,20359.59999999404,1664.5,1669837311067,1664,HRV,HRV_0229,2022-11-30 19:45:15
12,"[{'imgObject': {}, 'id': 'corn cob', 'src': '/static/foodstim60/corn cob.jpg', 'key': 'u', 'origWidth': 411, 'origHeight': 411, 'width': 411, 'height': 411, 'widthPercent': 0.45, 'rescaleHeight': False, 'trialN': 12, 'loaded': True, 'loadedTime': 2504.2999999970198, 'positionName': 'LEFT', 'positionCoords': [510.6, 334.5], 'bid': 3.36}, {'imgObject': {}, 'id': 'banana', 'src': '/static/foodstim60/banana.jpg', 'key': 'i', 'origWidth': 410, 'origHeight': 410, 'width': 410, 'height': 410, 'widthPercent': 0.45, 'rescaleHeight': False, 'trialN': 12, 'loaded': True, 'loadedTime': 2406.7000000029802, 'positionName': 'RIGHT', 'positionCoords': [998.4, 335], 'bid': 7.68}]",20359.79999999702,1669837311068,corn cob,banana,3.36,7.68,4.32,corn cob,1017.4000000059605,1017,1017.9000000059605,True,u,21878.09999999404,1518.2999999970198,1669837312586,1518,HRV,HRV_0229,2022-11-30 19:45:15
13,"[{'imgObject': {}, 'id': 'cherries', 'src': '/static/foodstim60/cherries.jpg', 'key': 'u', 'origWidth': 410, 'origHeight': 411, 'width': 410, 'height': 411, 'widthPercent': 0.45, 'rescaleHeight': False, 'trialN': 13, 'loaded': True, 'loadedTime': 2506.0999999940395, 'positionName': 'LEFT', 'positionCoords': [511.6, 334.5], 'bid': 4.88}, {'imgObject': {}, 'id': 'sushi w_condiments', 'src': '/static/foodstim60/sushi w_condiments.jpg', 'key': 'i', 'origWidth': 410, 'origHeight': 410, 'width': 410, 'height': 410, 'widthPercent': 0.45, 'rescaleHeight': False, 'trialN': 13, 'loaded': True, 'loadedTime': 2510.2999999970198, 'positionName': 'RIGHT', 'positionCoords': [998.4, 335], 'bid': 3.36}]",21878.29999999702,1669837312586,cherries,sushi w_condiments,4.88,3.36,-1.52,cherries,1580.7000000029802,1582,1581.7999999970198,True,u,23966.09999999404,2087.7999999970198,1669837314674,2088,HRV,HRV_0229,2022-11-30 19:45:15
14,"[{'imgObject': {}, 'id': 'burrito', 'src': '/static/foodstim60/burrito.jpg', 'key': 'u', 'origWidth': 410, 'origHeight': 410, 'width': 410, 'height': 410, 'widthPercent': 0.45, 'rescaleHeight': False, 'trialN': 14, 'loaded': True, 'loadedTime': 2511.0999999940395, 'positionName': 'LEFT', 'positionCoords': [511.6, 335], 'bid': 7.61}, {'imgObject': {}, 'id': 'luckycharms', 'src': '/static/foodstim60/luckycharms.jpg', 'key': 'i', 'origWidth': 410, 'origHeight': 409, 'width': 410, 'height': 409, 'widthPercent': 0.45, 'rescaleHeight': False, 'trialN': 14, 'loaded': True, 'loadedTime': 2423.0999999940395, 'positionName': 'RIGHT', 'positionCoords': [998.4, 335.5], 'bid': 6.95}]",23966.39999999106,1669837314674,burrito,luckycharms,7.61,6.95,-0.6600000000000001,burrito,635.9000000059605,637,637.2000000029802,True,u,25110.20000000298,1143.800000011921,1669837315818,1144,HRV,HRV_0229,2022-11-30 19:45:15
15,"[{'imgObject': {}, 'id': 'bagel and cc', 'src': '/static/foodstim60/bagel and cc.jpg', 'key': 'u', 'origWidth': 410, 'origHeight': 410, 'width': 410, 'height': 410, 'widthPercent': 0.45, 'rescaleHeight': False, 'trialN': 15, 'loaded': True, 'loadedTime': 2488, 'positionName': 'LEFT', 'positionCoords': [511.6, 335], 'bid': 6.5}, {'imgObject': {}, 'id': 'luckycharms', 'src': '/static/foodstim60/luckycharms.jpg', 'key': 'i', 'origWidth': 410, 'origHeight': 409, 'width': 410, 'height': 409, 'widthPercent': 0.45, 'rescaleHeight': False, 'trialN': 15, 'loaded': True, 'loadedTime': 2425.7999999970198, 'positionName': 'RIGHT', 'positionCoords': [998.4, 335.5], 'bid': 6.95}]",25111.0,1669837315819,bagel and cc,luckycharms,6.5,6.95,0.4500000000000002,luckycharms,533.2000000029802,534,534.7000000029802,True,i,26150.5,1039.5,1669837316858,1039,HRV,HRV_0229,2022-11-30 19:45:15
16,"[{'imgObject': {}, 'id': 'cherry tomato', 'src': '/static/foodstim60/cherry tomato.jpg', 'key': 'u', 'origWidth': 410, 'origHeight': 410, 'width': 410, 'height': 410, 'widthPercent': 0.45, 'rescaleHeight': False, 'trialN': 16, 'loaded': True, 'loadedTime': 2413.2999999970198, 'positionName': 'LEFT', 'positionCoords': [511.6, 335], 'bid': 2.63}, {'imgObject': {}, 'id': 'salad w chicken', 'src': '/static/foodstim60/salad w chicken.jpg', 'key': 'i', 'origWidth': 411, 'origHeight': 411, 'width': 411, 'height': 411, 'widthPercent': 0.45, 'rescaleHeight': False, 'trialN': 16, 'loaded': True, 'loadedTime': 2533, 'positionName': 'RIGHT', 'positionCoords': [998.4, 334.5], 'bid': 3.43}]",26150.70000000298,1669837316858,cherry tomato,salad w chicken,2.63,3.43,0.8000000000000003,cherry tomato,499.3999999910593,501,500.3999999910593,True,u,27158.29999999702,1007.5999999940395,1669837317866,1008,HRV,HRV_0229,2022-11-30 19:45:15
17,"[{'imgObject': {}, 'id': 'burrito', 'src': '/static/foodstim60/burrito.jpg', 'key': 'u', 'origWidth': 410, 'origHeight': 410, 'width': 410, 'height': 410, 'widthPercent': 0.45, 'rescaleHeight': False, 'trialN': 17, 'loaded': True, 'loadedTime': 2512.3999999910593, 'positionName': 'LEFT', 'positionCoords': [511.6, 335], 'bid': 7.61}, {'imgObject': {}, 'id': 'seaweed', 'src': '/static/foodstim60/seaweed.jpg', 'key': 'i', 'origWidth': 410, 'origHeight': 410, 'width': 410, 'height': 410, 'widthPercent': 0.45, 'rescaleHeight': False, 'trialN': 17, 'loaded': True, 'loadedTime': 2559.7000000029802, 'positionName': 'RIGHT', 'positionCoords': [998.4, 335], 'bid': 2.98}]",27158.59999999404,1669837317866,burrito,seaweed,7.61,2.98,-4.630000000000001,burrito,640.4000000059605,641,641.1000000089407,True,u,28302.59999999404,1144.0,1669837319010,1144,HRV,HRV_0229,2022-11-30 19:45:15
18,"[{'imgObject': {}, 'id': 'chicken nuggets2', 'src': '/static/foodstim60/chicken nuggets2.jpg', 'key': 'u', 'origWidth': 410, 'origHeight': 409, 'width': 410, 'height': 409, 'widthPercent': 0.45, 'rescaleHeight': False, 'trialN': 18, 'loaded': True, 'loadedTime': 2560.5999999940395, 'positionName': 'LEFT', 'positionCoords': [511.6, 335.5], 'bid': 6.25}, {'imgObject': {}, 'id': 'grilled chicken strips', 'src': '/static/foodstim60/grilled chicken strips.jpg', 'key': 'i', 'origWidth': 410, 'origHeight': 411, 'width': 410, 'height': 411, 'widthPercent': 0.45, 'rescaleHeight': False, 'trialN': 18, 'loaded': True, 'loadedTime': 2572.3999999910593, 'positionName': 'RIGHT', 'positionCoords': [998.4, 334.5], 'bid': 6.890000000000001}]",28302.89999999106,1669837319011,chicken nuggets2,grilled chicken strips,6.25,6.890000000000001,0.6400000000000006,grilled chicken strips,395.70000000298023,396,396.30000001192093,True,i,29206.09999999404,903.2000000029802,1669837319914,903,HRV,HRV_0229,2022-11-30 19:45:15
19,"[{'imgObject': {}, 'id': 'hotdog w must', 'src': '/static/foodstim60/hotdog w must.jpg', 'key': 'u', 'origWidth': 409, 'origHeight': 409, 'width': 409, 'height': 409, 'widthPercent': 0.45, 'rescaleHeight': False, 'trialN': 19, 'loaded': True, 'loadedTime': 2416.8999999910593, 'positionName': 'LEFT', 'positionCoords': [512.6, 335.5], 'bid': 6.9}, {'imgObject': {}, 'id': 'cherries', 'src': '/static/foodstim60/cherries.jpg', 'key': 'i', 'origWidth': 410, 'origHeight': 411, 'width': 410, 'height': 411, 'widthPercent': 0.45, 'rescaleHeight': False, 'trialN': 19, 'loaded': True, 'loadedTime': 2507.7999999970198, 'positionName': 'RIGHT', 'positionCoords': [998.4, 334.5], 'bid': 4.88}]",29206.29999999702,1669837319914,hotdog w must,cherries,6.9,4.88,-2.0200000000000005,hotdog w must,768.9000000059605,769,769.5,True,u,30478.09999999404,1271.7999999970198,1669837321186,1272,HRV,HRV_0229,2022-11-30 19:45:15
20,"[{'imgObject': {}, 'id': 'baked potato', 'src': '/static/foodstim60/baked potato.jpg', 'key': 'u', 'origWidth': 409, 'origHeight': 410, 'width': 409, 'height': 410, 'widthPercent': 0.45, 'rescaleHeight': False, 'trialN': 20, 'loaded': True, 'loadedTime': 2577.8999999910593, 'positionName': 'LEFT', 'positionCoords': [512.6, 335], 'bid': 4.54}, {'imgObject': {}, 'id': 'Grapes', 'src': '/static/foodstim60/Grapes.jpg', 'key': 'i', 'origWidth': 411, 'origHeight': 411, 'width': 411, 'height': 411, 'widthPercent': 0.45, 'rescaleHeight': False, 'trialN': 20, 'loaded': True, 'loadedTime': 2579.8999999910593, 'positionName': 'RIGHT', 'positionCoords': [998.4, 334.5], 'bid': 4.17}]",30478.29999999702,1669837321186,baked potato,Grapes,4.54,4.17,-0.3700000000000001,baked potato,427,428,427.5,True,u,31410.0,931.7000000029802,1669837322118,932,HRV,HRV_0229,2022-11-30 19:45:15
21,"[{'imgObject': {}, 'id': 'salmon', 'src': '/static/foodstim60/salmon.jpg', 'key': 'u', 'origWidth': 410, 'origHeight': 409, 'width': 410, 'height': 409, 'widthPercent': 0.45, 'rescaleHeight': False, 'trialN': 21, 'loaded': True, 'loadedTime': 2583.0999999940395, 'positionName': 'LEFT', 'positionCoords': [511.6, 335.5], 'bid': 8.76}, {'imgObject': {}, 'id': 'froot loops w milk', 'src': '/static/foodstim60/froot loops w milk.jpg', 'key': 'i', 'origWidth': 410, 'origHeight': 410, 'width': 410, 'height': 410, 'widthPercent': 0.45, 'rescaleHeight': False, 'trialN': 21, 'loaded': True, 'loadedTime': 2406.2999999970198, 'positionName': 'RIGHT', 'positionCoords': [998.4, 335], 'bid': 8.01}]",31410.29999999702,1669837322118,salmon,froot loops w milk,8.76,8.01,-0.75,froot loops w milk,323.70000000298023,324,324.5,True,i,32238.89999999106,828.5999999940395,1669837322947,829,HRV,HRV_0229,2022-11-30 19:45:15
22,"[{'imgObject': {}, 'id': 'sweetpotato', 'src': '/static/foodstim60/sweetpotato.jpg', 'key': 'u', 'origWidth': 410, 'origHeight': 410, 'width': 410, 'height': 410, 'widthPercent': 0.45, 'rescaleHeight': False, 'trialN': 22, 'loaded': True, 'loadedTime': 2586.3999999910593, 'positionName': 'LEFT', 'positionCoords': [511.6, 335], 'bid': 1.34}, {'imgObject': {}, 'id': 'mashed potato', 'src': '/static/foodstim60/mashed potato.jpg', 'key': 'i', 'origWidth': 409, 'origHeight': 409, 'width': 409, 'height': 409, 'widthPercent': 0.45, 'rescaleHeight': False, 'trialN': 22, 'loaded': True, 'loadedTime': 2590.5999999940395, 'positionName': 'RIGHT', 'positionCoords': [998.4, 335.5], 'bid': 1.39}]",32239.09999999404,1669837322947,sweetpotato,mashed potato,1.34,1.39,0.04999999999999982,sweetpotato,286.79999999701977,287,287.29999999701977,True,u,33030.20000000298,791.1000000089407,1669837323738,791,HRV,HRV_0229,2022-11-30 19:45:15
23,"[{'imgObject': {}, 'id': 'banana', 'src': '/static/foodstim60/banana.jpg', 'key': 'u', 'origWidth': 410, 'origHeight': 410, 'width': 410, 'height': 410, 'widthPercent': 0.45, 'rescaleHeight': False, 'trialN': 23, 'loaded': True, 'loadedTime': 2407.7000000029802, 'positionName': 'LEFT', 'positionCoords': [511.6, 335], 'bid': 7.68}, {'imgObject': {}, 'id': 'lox', 'src': '/static/foodstim60/lox.jpg', 'key': 'i', 'origWidth': 410, 'origHeight': 411, 'width': 410, 'height': 411, 'widthPercent': 0.45, 'rescaleHeight': False, 'trialN': 23, 'loaded': True, 'loadedTime': 2592.3999999910593, 'positionName': 'RIGHT', 'positionCoords': [998.4, 334.5], 'bid': 8.92}]",33030.5,1669837323738,banana,lox,7.68,8.92,1.2400000000000002,banana,288.79999999701977,290,289.3999999910593,True,u,33822.29999999702,791.7999999970198,1669837324530,792,HRV,HRV_0229,2022-11-30 19:45:15
24,"[{'imgObject': {}, 'id': 'ice cream sundae 002', 'src': '/static/foodstim60/ice cream sundae 002.jpg', 'key': 'u', 'origWidth': 409, 'origHeight': 409, 'width': 409, 'height': 409, 'widthPercent': 0.45, 'rescaleHeight': False, 'trialN': 24, 'loaded': True, 'loadedTime': 2595.3999999910593, 'positionName': 'LEFT', 'positionCoords': [512.6, 335.5], 'bid': 1.87}, {'imgObject': {}, 'id': 'omelette', 'src': '/static/foodstim60/omelette.jpg', 'key': 'i', 'origWidth': 410, 'origHeight': 409, 'width': 410, 'height': 409, 'widthPercent': 0.45, 'rescaleHeight': False, 'trialN': 24, 'loaded': True, 'loadedTime': 2607.0999999940395, 'positionName': 'RIGHT', 'positionCoords': [998.4, 335.5], 'bid': 3.25}]",33822.59999999404,1669837324530,ice cream sundae 002,omelette,1.87,3.25,1.38,omelette,268.90000000596046,270,269.5,True,i,34599.29999999702,776.7000000029802,1669837325307,777,HRV,HRV_0229,2022-11-30 19:45:15
25,"[{'imgObject': {}, 'id': 'shreddedwheatwithmilk', 'src': '/static/foodstim60/shreddedwheatwithmilk.jpg', 'key': 'u', 'origWidth': 410, 'origHeight': 410, 'width': 410, 'height': 410, 'widthPercent': 0.45, 'rescaleHeight': False, 'trialN': 25, 'loaded': True, 'loadedTime': 2617.7000000029802, 'positionName': 'LEFT', 'positionCoords': [511.6, 335], 'bid': 6.19}, {'imgObject': {}, 'id': 'raspberries', 'src': '/static/foodstim60/raspberries.jpg', 'key': 'i', 'origWidth': 411, 'origHeight': 411, 'width': 411, 'height': 411, 'widthPercent': 0.45, 'rescaleHeight': False, 'trialN': 25, 'loaded': True, 'loadedTime': 2618.2999999970198, 'positionName': 'RIGHT', 'positionCoords': [998.4, 334.5], 'bid': 6.0200000000000005}]",34599.70000000298,1669837325307,shreddedwheatwithmilk,raspberries,6.19,6.0200000000000005,-0.16999999999999993,raspberries,329.09999999403954,331,330.5,True,i,35430.79999999702,831.0999999940395,1669837326138,831,HRV,HRV_0229,2022-11-30 19:45:15
26,"[{'imgObject': {}, 'id': 'blueberries', 'src': '/static/foodstim60/blueberries.jpg', 'key': 'u', 'origWidth': 411, 'origHeight': 411, 'width': 411, 'height': 411, 'widthPercent': 0.45, 'rescaleHeight': False, 'trialN': 26, 'loaded': True, 'loadedTime': 2638, 'positionName': 'LEFT', 'positionCoords': [510.6, 334.5], 'bid': 2.21}, {'imgObject': {}, 'id': 'strawberries', 'src': '/static/foodstim60/strawberries.jpg', 'key': 'i', 'origWidth': 410, 'origHeight': 410, 'width': 410, 'height': 410, 'widthPercent': 0.45, 'rescaleHeight': False, 'trialN': 26, 'loaded': True, 'loadedTime': 2639, 'positionName': 'RIGHT', 'positionCoords': [998.4, 335], 'bid': 1.93}]",35431.09999999404,1669837326139,blueberries,strawberries,2.21,1.93,-0.28,blueberries,227.79999999701977,228,228.5,True,u,36166.70000000298,735.6000000089407,1669837326874,735,HRV,HRV_0229,2022-11-30 19:45:15
27,"[{'imgObject': {}, 'id': 'Grapes', 'src': '/static/foodstim60/Grapes.jpg', 'key': 'u', 'origWidth': 411, 'origHeight': 411, 'width': 411, 'height': 411, 'widthPercent': 0.45, 'rescaleHeight': False, 'trialN': 27, 'loaded': True, 'loadedTime': 2578.5999999940395, 'positionName': 'LEFT', 'positionCoords': [510.6, 334.5], 'bid': 4.17}, {'imgObject': {}, 'id': 'salmon', 'src': '/static/foodstim60/salmon.jpg', 'key': 'i', 'origWidth': 410, 'origHeight': 409, 'width': 410, 'height': 409, 'widthPercent': 0.45, 'rescaleHeight': False, 'trialN': 27, 'loaded': True, 'loadedTime': 2582.7999999970198, 'positionName': 'RIGHT', 'positionCoords': [998.4, 335.5], 'bid': 8.76}]",36166.89999999106,1669837326874,Grapes,salmon,4.17,8.76,4.59,salmon,328,329,328.5,True,i,36999.89999999106,833.0,1669837327707,833,HRV,HRV_0229,2022-11-30 19:45:15
28,"[{'imgObject': {}, 'id': 'kiwi', 'src': '/static/foodstim60/kiwi.jpg', 'key': 'u', 'origWidth': 410, 'origHeight': 410, 'width': 410, 'height': 410, 'widthPercent': 0.45, 'rescaleHeight': False, 'trialN': 28, 'loaded': True, 'loadedTime': 2312.8999999910593, 'positionName': 'LEFT', 'positionCoords': [511.6, 335], 'bid': 4.12}, {'imgObject': {}, 'id': 'fruitsalad', 'src': '/static/foodstim60/fruitsalad.jpg', 'key': 'i', 'origWidth': 410, 'origHeight': 410, 'width': 410, 'height': 410, 'widthPercent': 0.45, 'rescaleHeight': False, 'trialN': 28, 'loaded': True, 'loadedTime': 2641.8999999910593, 'positionName': 'RIGHT', 'positionCoords': [998.4, 335], 'bid': 5.8}]",37000.09999999404,1669837327708,kiwi,fruitsalad,4.12,5.8,1.6799999999999997,kiwi,254.20000000298023,255,254.90000000596046,True,u,37758.29999999702,758.2000000029802,1669837328466,758,HRV,HRV_0229,2022-11-30 19:45:15
29,"[{'imgObject': {}, 'id': 'blackbeanswithrice', 'src': '/static/foodstim60/blackbeanswithrice.jpg', 'key': 'u', 'origWidth': 410, 'origHeight': 410, 'width': 410, 'height': 410, 'widthPercent': 0.45, 'rescaleHeight': False, 'trialN': 29, 'loaded': True, 'loadedTime': 2644.2999999970198, 'positionName': 'LEFT', 'positionCoords': [511.6, 335], 'bid': 6.3}, {'imgObject': {}, 'id': 'shreddedwheatwithmilk', 'src': '/static/foodstim60/shreddedwheatwithmilk.jpg', 'key': 'i', 'origWidth': 410, 'origHeight': 410, 'width': 410, 'height': 410, 'widthPercent': 0.45, 'rescaleHeight': False, 'trialN': 29, 'loaded': True, 'loadedTime': 2609, 'positionName': 'RIGHT', 'positionCoords': [998.4, 335], 'bid': 6.19}]",37758.5,1669837328466,blackbeanswithrice,shreddedwheatwithmilk,6.3,6.19,-0.10999999999999943,blackbeanswithrice,277.29999999701977,278,277.79999999701977,True,u,38543.29999999702,784.7999999970198,1669837329251,785,HRV,HRV_0229,2022-11-30 19:45:15
30,"[{'imgObject': {}, 'id': 'bagel plain', 'src': '/static/foodstim60/bagel plain.jpg', 'key': 'u', 'origWidth': 410, 'origHeight': 410, 'width': 410, 'height': 410, 'widthPercent': 0.45, 'rescaleHeight': False, 'trialN': 30, 'loaded': True, 'loadedTime': 2647.2000000029802, 'positionName': 'LEFT', 'positionCoords': [511.6, 335], 'bid': 6.01}, {'imgObject': {}, 'id': 'granola w milk', 'src': '/static/foodstim60/granola w milk.jpg', 'key': 'i', 'origWidth': 410, 'origHeight': 410, 'width': 410, 'height': 410, 'widthPercent': 0.45, 'rescaleHeight': False, 'trialN': 30, 'loaded': True, 'loadedTime': 2391.5, 'positionName': 'RIGHT', 'positionCoords': [998.4, 335], 'bid': 3.82}]",38543.59999999404,1669837329251,bagel plain,granola w milk,6.01,3.82,-2.19,granola w milk,203.40000000596046,204,204.40000000596046,True,i,39255.29999999702,711.7000000029802,1669837329963,712,HRV,HRV_0229,2022-11-30 19:45:15
31,"[{'imgObject': {}, 'id': 'raisin bran w milk', 'src': '/static/foodstim60/raisin bran w milk.jpg', 'key': 'u', 'origWidth': 411, 'origHeight': 411, 'width': 411, 'height': 411, 'widthPercent': 0.45, 'rescaleHeight': False, 'trialN': 31, 'loaded': True, 'loadedTime': 2649.3999999910593, 'positionName': 'LEFT', 'positionCoords': [510.6, 334.5], 'bid': 1.41}, {'imgObject': {}, 'id': 'cheerios', 'src': '/static/foodstim60/cheerios.jpg', 'key': 'i', 'origWidth': 409, 'origHeight': 410, 'width': 409, 'height': 410, 'widthPercent': 0.45, 'rescaleHeight': False, 'trialN': 31, 'loaded': True, 'loadedTime': 2651.2000000029802, 'positionName': 'RIGHT', 'positionCoords': [998.4, 335], 'bid': 1.42}]",39255.5,1669837329963,raisin bran w milk,cheerios,1.41,1.42,0.010000000000000009,raisin bran w milk,270.20000000298023,271,270.70000000298023,True,u,40031.59999999404,776.0999999940395,1669837330739,776,HRV,HRV_0229,2022-11-30 19:45:15
32,"[{'imgObject': {}, 'id': 'tacos', 'src': '/static/foodstim60/tacos.jpg', 'key': 'u', 'origWidth': 411, 'origHeight': 411, 'width': 411, 'height': 411, 'widthPercent': 0.45, 'rescaleHeight': False, 'trialN': 32, 'loaded': True, 'loadedTime': 2653.5999999940395, 'positionName': 'LEFT', 'positionCoords': [510.6, 334.5], 'bid': 1.34}, {'imgObject': {}, 'id': 'seaweed', 'src': '/static/foodstim60/seaweed.jpg', 'key': 'i', 'origWidth': 410, 'origHeight': 410, 'width': 410, 'height': 410, 'widthPercent': 0.45, 'rescaleHeight': False, 'trialN': 32, 'loaded': True, 'loadedTime': 2543.5, 'positionName': 'RIGHT', 'positionCoords': [998.4, 335], 'bid': 2.98}]",40031.89999999106,1669837330739,tacos,seaweed,1.34,2.98,1.64,seaweed,368.1000000089407,369,368.80000001192093,True,i,40902.39999999106,870.5,1669837331610,871,HRV,HRV_0229,2022-11-30 19:45:15
33,"[{'imgObject': {}, 'id': 'avocado', 'src': '/static/foodstim60/avocado.jpg', 'key': 'u', 'origWidth': 409, 'origHeight': 409, 'width': 409, 'height': 409, 'widthPercent': 0.45, 'rescaleHeight': False, 'trialN': 33, 'loaded': True, 'loadedTime': 2498.3999999910593, 'positionName': 'LEFT', 'positionCoords': [512.6, 335.5], 'bid': 6.68}, {'imgObject': {}, 'id': 'mac & cheese', 'src': '/static/foodstim60/mac & cheese.jpg', 'key': 'i', 'origWidth': 410, 'origHeight': 410, 'width': 410, 'height': 410, 'widthPercent': 0.45, 'rescaleHeight': False, 'trialN': 33, 'loaded': True, 'loadedTime': 2697.7999999970198, 'positionName': 'RIGHT', 'positionCoords': [998.4, 335], 'bid': 6.75}]",40902.70000000298,1669837331610,avocado,mac & cheese,6.68,6.75,0.07000000000000028,avocado,206.29999999701977,207,207.19999998807907,True,u,41614.39999999106,711.6999999880791,1669837332322,712,HRV,HRV_0229,2022-11-30 19:45:15
34,"[{'imgObject': {}, 'id': 'strawberries', 'src': '/static/foodstim60/strawberries.jpg', 'key': 'u', 'origWidth': 410, 'origHeight': 410, 'width': 410, 'height': 410, 'widthPercent': 0.45, 'rescaleHeight': False, 'trialN': 34, 'loaded': True, 'loadedTime': 2640.5999999940395, 'positionName': 'LEFT', 'positionCoords': [511.6, 335], 'bid': 1.93}, {'imgObject': {}, 'id': 'eggsalad', 'src': '/static/foodstim60/eggsalad.jpg', 'key': 'i', 'origWidth': 410, 'origHeight': 409, 'width': 410, 'height': 409, 'widthPercent': 0.45, 'rescaleHeight': False, 'trialN': 34, 'loaded': True, 'loadedTime': 2502.2999999970198, 'positionName': 'RIGHT', 'positionCoords': [998.4, 335.5], 'bid': 0.87}]",41614.70000000298,1669837332322,strawberries,eggsalad,1.93,0.87,-1.06,strawberries,268.8999999910593,270,269.69999998807907,True,u,42390.59999999404,775.8999999910593,1669837333098,776,HRV,HRV_0229,2022-11-30 19:45:15
35,"[{'imgObject': {}, 'id': 'raisin bran w milk', 'src': '/static/foodstim60/raisin bran w milk.jpg', 'key': 'u', 'origWidth': 411, 'origHeight': 411, 'width': 411, 'height': 411, 'widthPercent': 0.45, 'rescaleHeight': False, 'trialN': 35, 'loaded': True, 'loadedTime': 2647.3999999910593, 'positionName': 'LEFT', 'positionCoords': [510.6, 334.5], 'bid': 1.41}, {'imgObject': {}, 'id': 'apple slices', 'src': '/static/foodstim60/apple slices.jpg', 'key': 'i', 'origWidth': 409, 'origHeight': 410, 'width': 409, 'height': 410, 'widthPercent': 0.45, 'rescaleHeight': False, 'trialN': 35, 'loaded': True, 'loadedTime': 2699.7999999970198, 'positionName': 'RIGHT', 'positionCoords': [998.4, 335], 'bid': 5.8500000000000005}]",42390.89999999106,1669837333098,raisin bran w milk,apple slices,1.41,5.8500000000000005,4.44,apple slices,201.40000000596046,203,202.40000000596046,True,i,43094.0,703.1000000089407,1669837333802,704,HRV,HRV_0229,2022-11-30 19:45:15
36,"[{'imgObject': {}, 'id': 'cantaloupe', 'src': '/static/foodstim60/cantaloupe.jpg', 'key': 'u', 'origWidth': 409, 'origHeight': 409, 'width': 409, 'height': 409, 'widthPercent': 0.45, 'rescaleHeight': False, 'trialN': 36, 'loaded': True, 'loadedTime': 2701.8999999910593, 'positionName': 'LEFT', 'positionCoords': [512.6, 335.5], 'bid': 2.29}, {'imgObject': {}, 'id': 'tacos', 'src': '/static/foodstim60/tacos.jpg', 'key': 'i', 'origWidth': 411, 'origHeight': 411, 'width': 411, 'height': 411, 'widthPercent': 0.45, 'rescaleHeight': False, 'trialN': 36, 'loaded': True, 'loadedTime': 2653.7999999970198, 'positionName': 'RIGHT', 'positionCoords': [998.4, 334.5], 'bid': 1.34}]",43094.20000000298,1669837333802,cantaloupe,tacos,2.29,1.34,-0.95,cantaloupe,201.79999999701977,203,203.19999998807907,True,u,43798.5,704.2999999970198,1669837334506,704,HRV,HRV_0229,2022-11-30 19:45:15
37,"[{'imgObject': {}, 'id': 'cherry tomato', 'src': '/static/foodstim60/cherry tomato.jpg', 'key': 'u', 'origWidth': 410, 'origHeight': 410, 'width': 410, 'height': 410, 'widthPercent': 0.45, 'rescaleHeight': False, 'trialN': 37, 'loaded': True, 'loadedTime': 2414.3999999910593, 'positionName': 'LEFT', 'positionCoords': [511.6, 335], 'bid': 2.63}, {'imgObject': {}, 'id': 'fried eggs', 'src': '/static/foodstim60/fried eggs.jpg', 'key': 'i', 'origWidth': 410, 'origHeight': 410, 'width': 410, 'height': 410, 'widthPercent': 0.45, 'rescaleHeight': False, 'trialN': 37, 'loaded': True, 'loadedTime': 2702.5, 'positionName': 'RIGHT', 'positionCoords': [998.4, 335], 'bid': 2.63}]",43798.79999999702,1669837334506,cherry tomato,fried eggs,2.63,2.63,0.0,fried eggs,279.90000000596046,282,281.79999999701977,True,i,44583.20000000298,784.4000000059605,1669837335291,785,HRV,HRV_0229,2022-11-30 19:45:15
38,"[{'imgObject': {}, 'id': 'raspberries', 'src': '/static/foodstim60/raspberries.jpg', 'key': 'u', 'origWidth': 411, 'origHeight': 411, 'width': 411, 'height': 411, 'widthPercent': 0.45, 'rescaleHeight': False, 'trialN': 38, 'loaded': True, 'loadedTime': 2636.2000000029802, 'positionName': 'LEFT', 'positionCoords': [510.6, 334.5], 'bid': 6.0200000000000005}, {'imgObject': {}, 'id': 'rigatoni', 'src': '/static/foodstim60/rigatoni.jpg', 'key': 'i', 'origWidth': 411, 'origHeight': 411, 'width': 411, 'height': 411, 'widthPercent': 0.45, 'rescaleHeight': False, 'trialN': 38, 'loaded': True, 'loadedTime': 2475.8999999910593, 'positionName': 'RIGHT', 'positionCoords': [998.4, 334.5], 'bid': 3.9}]",44583.5,1669837335291,raspberries,rigatoni,6.0200000000000005,3.9,-2.1200000000000006,rigatoni,134.79999999701977,136,135.59999999403954,True,i,45223.0,639.5,1669837335931,640,HRV,HRV_0229,2022-11-30 19:45:15
39,"[{'imgObject': {}, 'id': 'blueberries', 'src': '/static/foodstim60/blueberries.jpg', 'key': 'u', 'origWidth': 411, 'origHeight': 411, 'width': 411, 'height': 411, 'widthPercent': 0.45, 'rescaleHeight': False, 'trialN': 39, 'loaded': True, 'loadedTime': 2636.5, 'positionName': 'LEFT', 'positionCoords': [510.6, 334.5], 'bid': 2.21}, {'imgObject': {}, 'id': 'rigatoni', 'src': '/static/foodstim60/rigatoni.jpg', 'key': 'i', 'origWidth': 411, 'origHeight': 411, 'width': 411, 'height': 411, 'widthPercent': 0.45, 'rescaleHeight': False, 'trialN': 39, 'loaded': True, 'loadedTime': 2476.0999999940395, 'positionName': 'RIGHT', 'positionCoords': [998.4, 334.5], 'bid': 3.9}]",45223.20000000298,1669837335931,blueberries,rigatoni,2.21,3.9,1.69,blueberries,182.79999999701977,184,183.8999999910593,True,u,45910.79999999702,687.5999999940395,1669837336618,687,HRV,HRV_0229,2022-11-30 19:45:15
40,"[{'imgObject': {}, 'id': 'banana', 'src': '/static/foodstim60/banana.jpg', 'key': 'u', 'origWidth': 410, 'origHeight': 410, 'width': 410, 'height': 410, 'widthPercent': 0.45, 'rescaleHeight': False, 'trialN': 40, 'loaded': True, 'loadedTime': 2408.7999999970198, 'positionName': 'LEFT', 'positionCoords': [511.6, 335], 'bid': 7.68}, {'imgObject': {}, 'id': 'apple slices', 'src': '/static/foodstim60/apple slices.jpg', 'key': 'i', 'origWidth': 409, 'origHeight': 410, 'width': 409, 'height': 410, 'widthPercent': 0.45, 'rescaleHeight': False, 'trialN': 40, 'loaded': True, 'loadedTime': 2700, 'positionName': 'RIGHT', 'positionCoords': [998.4, 335], 'bid': 5.8500000000000005}]",45911.09999999404,1669837336619,banana,apple slices,7.68,5.8500000000000005,-1.8299999999999992,apple slices,276.79999999701977,277,277.40000000596046,True,i,46694.89999999106,783.7999999970198,1669837337402,783,HRV,HRV_0229,2022-11-30 19:45:15
41,"[{'imgObject': {}, 'id': 'mashed potato', 'src': '/static/foodstim60/mashed potato.jpg', 'key': 'u', 'origWidth': 409, 'origHeight': 409, 'width': 409, 'height': 409, 'widthPercent': 0.45, 'rescaleHeight': False, 'trialN': 41, 'loaded': True, 'loadedTime': 2590.2000000029802, 'positionName': 'LEFT', 'positionCoords': [512.6, 335.5], 'bid': 1.39}, {'imgObject': {}, 'id': 'omelette', 'src': '/static/foodstim60/omelette.jpg', 'key': 'i', 'origWidth': 410, 'origHeight': 409, 'width': 410, 'height': 409, 'widthPercent': 0.45, 'rescaleHeight': False, 'trialN': 41, 'loaded': True, 'loadedTime': 2605.5999999940395, 'positionName': 'RIGHT', 'positionCoords': [998.4, 335.5], 'bid': 3.25}]",46695.09999999404,1669837337403,mashed potato,omelette,1.39,3.25,1.86,omelette,296.79999999701977,297,297.6000000089407,True,i,47493.89999999106,798.7999999970198,1669837338201,798,HRV,HRV_0229,2022-11-30 19:45:15
42,"[{'imgObject': {}, 'id': 'turkeysandwich', 'src': '/static/foodstim60/turkeysandwich.jpg', 'key': 'u', 'origWidth': 409, 'origHeight': 409, 'width': 409, 'height': 409, 'widthPercent': 0.45, 'rescaleHeight': False, 'trialN': 42, 'loaded': True, 'loadedTime': 2496.2999999970198, 'positionName': 'LEFT', 'positionCoords': [512.6, 335.5], 'bid': 3.44}, {'imgObject': {}, 'id': 'froot loops w milk', 'src': '/static/foodstim60/froot loops w milk.jpg', 'key': 'i', 'origWidth': 410, 'origHeight': 410, 'width': 410, 'height': 410, 'widthPercent': 0.45, 'rescaleHeight': False, 'trialN': 42, 'loaded': True, 'loadedTime': 2403.8999999910593, 'positionName': 'RIGHT', 'positionCoords': [998.4, 335], 'bid': 8.01}]",47494.20000000298,1669837338202,turkeysandwich,froot loops w milk,3.44,8.01,4.57,turkeysandwich,249.69999998807907,250,250.29999999701977,True,u,48246.59999999404,752.3999999910593,1669837338954,752,HRV,HRV_0229,2022-11-30 19:45:15
43,"[{'imgObject': {}, 'id': 'fruitsalad', 'src': '/static/foodstim60/fruitsalad.jpg', 'key': 'u', 'origWidth': 410, 'origHeight': 410, 'width': 410, 'height': 410, 'widthPercent': 0.45, 'rescaleHeight': False, 'trialN': 43, 'loaded': True, 'loadedTime': 2642.3999999910593, 'positionName': 'LEFT', 'positionCoords': [511.6, 335], 'bid': 5.8}, {'imgObject': {}, 'id': 'bagel plain', 'src': '/static/foodstim60/bagel plain.jpg', 'key': 'i', 'origWidth': 410, 'origHeight': 410, 'width': 410, 'height': 410, 'widthPercent': 0.45, 'rescaleHeight': False, 'trialN': 43, 'loaded': True, 'loadedTime': 2646.2999999970198, 'positionName': 'RIGHT', 'positionCoords': [998.4, 335], 'bid': 6.01}]",48246.89999999106,1669837338954,fruitsalad,bagel plain,5.8,6.01,0.20999999999999996,fruitsalad,315.1000000089407,316,315.80000001192093,True,u,49063.20000000298,816.3000000119209,1669837339771,817,HRV,HRV_0229,2022-11-30 19:45:15
44,"[{'imgObject': {}, 'id': 'baked potato', 'src': '/static/foodstim60/baked potato.jpg', 'key': 'u', 'origWidth': 409, 'origHeight': 410, 'width': 409, 'height': 410, 'widthPercent': 0.45, 'rescaleHeight': False, 'trialN': 44, 'loaded': True, 'loadedTime': 2575, 'positionName': 'LEFT', 'positionCoords': [512.6, 335], 'bid': 4.54}, {'imgObject': {}, 'id': 'yogurt no spoon', 'src': '/static/foodstim60/yogurt no spoon.jpg', 'key': 'i', 'origWidth': 411, 'origHeight': 410, 'width': 411, 'height': 410, 'widthPercent': 0.45, 'rescaleHeight': False, 'trialN': 44, 'loaded': True, 'loadedTime': 2422, 'positionName': 'RIGHT', 'positionCoords': [998.4, 335], 'bid': 5.3100000000000005}]",49063.39999999106,1669837339771,baked potato,yogurt no spoon,4.54,5.3100000000000005,0.7700000000000005,baked potato,686.6000000089407,687,687.5,True,u,50254.09999999404,1190.7000000029802,1669837340962,1191,HRV,HRV_0229,2022-11-30 19:45:15
45,"[{'imgObject': {}, 'id': 'rigatoni', 'src': '/static/foodstim60/rigatoni.jpg', 'key': 'u', 'origWidth': 411, 'origHeight': 411, 'width': 411, 'height': 411, 'widthPercent': 0.45, 'rescaleHeight': False, 'trialN': 45, 'loaded': True, 'loadedTime': 2428.7999999970198, 'positionName': 'LEFT', 'positionCoords': [510.6, 334.5], 'bid': 3.9}, {'imgObject': {}, 'id': 'pear', 'src': '/static/foodstim60/pear.jpg', 'key': 'i', 'origWidth': 411, 'origHeight': 410, 'width': 411, 'height': 410, 'widthPercent': 0.45, 'rescaleHeight': False, 'trialN': 45, 'loaded': True, 'loadedTime': 2705.2000000029802, 'positionName': 'RIGHT', 'positionCoords': [998.4, 335], 'bid': 5.79}]",50254.29999999702,1669837340962,rigatoni,pear,3.9,5.79,1.8900000000000001,pear,244.5,245,245.0,True,i,51005.89999999106,751.5999999940395,1669837341713,751,HRV,HRV_0229,2022-11-30 19:45:15
46,"[{'imgObject': {}, 'id': 'blackbeanswithrice', 'src': '/static/foodstim60/blackbeanswithrice.jpg', 'key': 'u', 'origWidth': 410, 'origHeight': 410, 'width': 410, 'height': 410, 'widthPercent': 0.45, 'rescaleHeight': False, 'trialN': 46, 'loaded': True, 'loadedTime': 2643.2999999970198, 'positionName': 'LEFT', 'positionCoords': [511.6, 335], 'bid': 6.3}, {'imgObject': {}, 'id': 'edamame', 'src': '/static/foodstim60/edamame.jpg', 'key': 'i', 'origWidth': 409, 'origHeight': 410, 'width': 409, 'height': 410, 'widthPercent': 0.45, 'rescaleHeight': False, 'trialN': 46, 'loaded': True, 'loadedTime': 2396.5999999940395, 'positionName': 'RIGHT', 'positionCoords': [998.4, 335], 'bid': 1.92}]",51006.20000000298,1669837341714,blackbeanswithrice,edamame,6.3,1.92,-4.38,blackbeanswithrice,459.19999998807907,459,459.69999998807907,True,u,51967.5,961.2999999970198,1669837342675,961,HRV,HRV_0229,2022-11-30 19:45:15
47,"[{'imgObject': {}, 'id': 'bagel plain', 'src': '/static/foodstim60/bagel plain.jpg', 'key': 'u', 'origWidth': 410, 'origHeight': 410, 'width': 410, 'height': 410, 'widthPercent': 0.45, 'rescaleHeight': False, 'trialN': 47, 'loaded': True, 'loadedTime': 2645.0999999940395, 'positionName': 'LEFT', 'positionCoords': [511.6, 335], 'bid': 6.01}, {'imgObject': {}, 'id': 'cheerios', 'src': '/static/foodstim60/cheerios.jpg', 'key': 'i', 'origWidth': 409, 'origHeight': 410, 'width': 409, 'height': 410, 'widthPercent': 0.45, 'rescaleHeight': False, 'trialN': 47, 'loaded': True, 'loadedTime': 2651.2999999970198, 'positionName': 'RIGHT', 'positionCoords': [998.4, 335], 'bid': 1.42}]",51968.0,1669837342676,bagel plain,cheerios,6.01,1.42,-4.59,bagel plain,513.5,514,514.3999999910593,True,u,52982.89999999106,1014.8999999910593,1669837343690,1014,HRV,HRV_0229,2022-11-30 19:45:15
48,"[{'imgObject': {}, 'id': 'salmon', 'src': '/static/foodstim60/salmon.jpg', 'key': 'u', 'origWidth': 410, 'origHeight': 409, 'width': 410, 'height': 409, 'widthPercent': 0.45, 'rescaleHeight': False, 'trialN': 48, 'loaded': True, 'loadedTime': 2581.2000000029802, 'positionName': 'LEFT', 'positionCoords': [511.6, 335.5], 'bid': 8.76}, {'imgObject': {}, 'id': 'hashbrowns', 'src': '/static/foodstim60/hashbrowns.jpg', 'key': 'i', 'origWidth': 411, 'origHeight': 410, 'width': 411, 'height': 410, 'widthPercent': 0.45, 'rescaleHeight': False, 'trialN': 48, 'loaded': True, 'loadedTime': 2706.8999999910593, 'positionName': 'RIGHT', 'positionCoords': [998.4, 335], 'bid': 7.63}]",52983.29999999702,1669837343691,salmon,hashbrowns,8.76,7.63,-1.13,salmon,682.2999999970198,683,682.7999999970198,True,u,54166.70000000298,1183.4000000059605,1669837344874,1183,HRV,HRV_0229,2022-11-30 19:45:15
49,"[{'imgObject': {}, 'id': 'hashbrowns', 'src': '/static/foodstim60/hashbrowns.jpg', 'key': 'u', 'origWidth': 411, 'origHeight': 410, 'width': 411, 'height': 410, 'widthPercent': 0.45, 'rescaleHeight': False, 'trialN': 49, 'loaded': True, 'loadedTime': 2706.2000000029802, 'positionName': 'LEFT', 'positionCoords': [510.6, 335], 'bid': 7.63}, {'imgObject': {}, 'id': 'Tribe humus pita', 'src': '/static/foodstim60/Tribe humus pita.jpg', 'key': 'i', 'origWidth': 411, 'origHeight': 411, 'width': 411, 'height': 411, 'widthPercent': 0.45, 'rescaleHeight': False, 'trialN': 49, 'loaded': True, 'loadedTime': 2708.2999999970198, 'positionName': 'RIGHT', 'positionCoords': [998.4, 334.5], 'bid': 7.91}]",54167.0,1669837344875,hashbrowns,Tribe humus pita,7.63,7.91,0.28000000000000025,hashbrowns,578.2000000029802,578,578.7000000029802,True,u,55246.70000000298,1079.7000000029802,1669837345954,1079,HRV,HRV_0229,2022-11-30 19:45:15
50,"[{'imgObject': {}, 'id': 'fried eggs', 'src': '/static/foodstim60/fried eggs.jpg', 'key': 'u', 'origWidth': 410, 'origHeight': 410, 'width': 410, 'height': 410, 'widthPercent': 0.45, 'rescaleHeight': False, 'trialN': 50, 'loaded': True, 'loadedTime': 2703.7000000029802, 'positionName': 'LEFT', 'positionCoords': [511.6, 335], 'bid': 2.63}, {'imgObject': {}, 'id': 'raisin bran w milk', 'src': '/static/foodstim60/raisin bran w milk.jpg', 'key': 'i', 'origWidth': 411, 'origHeight': 411, 'width': 411, 'height': 411, 'widthPercent': 0.45, 'rescaleHeight': False, 'trialN': 50, 'loaded': True, 'loadedTime': 2649.8999999910593, 'positionName': 'RIGHT', 'positionCoords': [998.4, 334.5], 'bid': 1.41}]",55246.79999999702,1669837345954,fried eggs,raisin bran w milk,2.63,1.41,-1.22,fried eggs,525.7000000029802,527,526.5,True,u,56278.0,1031.2000000029802,1669837346986,1032,HRV,HRV_0229,2022-11-30 19:45:15
51,"[{'imgObject': {}, 'id': 'orange slices', 'src': '/static/foodstim60/orange slices.jpg', 'key': 'u', 'origWidth': 409, 'origHeight': 410, 'width': 409, 'height': 410, 'widthPercent': 0.45, 'rescaleHeight': False, 'trialN': 51, 'loaded': True, 'loadedTime': 2709.2999999970198, 'positionName': 'LEFT', 'positionCoords': [512.6, 335], 'bid': 2.91}, {'imgObject': {}, 'id': 'sweetpotato', 'src': '/static/foodstim60/sweetpotato.jpg', 'key': 'i', 'origWidth': 410, 'origHeight': 410, 'width': 410, 'height': 410, 'widthPercent': 0.45, 'rescaleHeight': False, 'trialN': 51, 'loaded': True, 'loadedTime': 2586.8999999910593, 'positionName': 'RIGHT', 'positionCoords': [998.4, 335], 'bid': 1.34}]",56278.20000000298,1669837346986,orange slices,sweetpotato,2.91,1.34,-1.57,orange slices,592.1999999880791,593,593.0999999940395,True,u,57374.89999999106,1096.699999988079,1669837348082,1096,HRV,HRV_0229,2022-11-30 19:45:15
52,"[{'imgObject': {}, 'id': 'burger', 'src': '/static/foodstim60/burger.jpg', 'key': 'u', 'origWidth': 409, 'origHeight': 409, 'width': 409, 'height': 409, 'widthPercent': 0.45, 'rescaleHeight': False, 'trialN': 52, 'loaded': True, 'loadedTime': 2711.2000000029802, 'positionName': 'LEFT', 'positionCoords': [512.6, 335.5], 'bid': 8.18}, {'imgObject': {}, 'id': 'chicken nuggets2', 'src': '/static/foodstim60/chicken nuggets2.jpg', 'key': 'i', 'origWidth': 410, 'origHeight': 409, 'width': 410, 'height': 409, 'widthPercent': 0.45, 'rescaleHeight': False, 'trialN': 52, 'loaded': True, 'loadedTime': 2562.5999999940395, 'positionName': 'RIGHT', 'positionCoords': [998.4, 335.5], 'bid': 6.25}]",57375.09999999404,1669837348083,burger,chicken nuggets2,8.18,6.25,-1.9299999999999997,chicken nuggets2,114.70000000298023,115,115.40000000596046,True,i,57998.79999999702,623.7000000029802,1669837348706,623,HRV,HRV_0229,2022-11-30 19:45:15
53,"[{'imgObject': {}, 'id': 'cheerios', 'src': '/static/foodstim60/cheerios.jpg', 'key': 'u', 'origWidth': 409, 'origHeight': 410, 'width': 409, 'height': 410, 'widthPercent': 0.45, 'rescaleHeight': False, 'trialN': 53, 'loaded': True, 'loadedTime': 2651.7999999970198, 'positionName': 'LEFT', 'positionCoords': [512.6, 335], 'bid': 1.42}, {'imgObject': {}, 'id': 'cherry tomato', 'src': '/static/foodstim60/cherry tomato.jpg', 'key': 'i', 'origWidth': 410, 'origHeight': 410, 'width': 410, 'height': 410, 'widthPercent': 0.45, 'rescaleHeight': False, 'trialN': 53, 'loaded': True, 'loadedTime': 2413.7000000029802, 'positionName': 'RIGHT', 'positionCoords': [998.4, 335], 'bid': 2.63}]",57999.29999999702,1669837348707,cheerios,cherry tomato,1.42,2.63,1.21,cheerios,354.40000000596046,355,355.0,True,u,58855.39999999106,856.0999999940395,1669837349563,856,HRV,HRV_0229,2022-11-30 19:45:15
54,"[{'imgObject': {}, 'id': 'cherries', 'src': '/static/foodstim60/cherries.jpg', 'key': 'u', 'origWidth': 410, 'origHeight': 411, 'width': 410, 'height': 411, 'widthPercent': 0.45, 'rescaleHeight': False, 'trialN': 54, 'loaded': True, 'loadedTime': 2507.8999999910593, 'positionName': 'LEFT', 'positionCoords': [511.6, 334.5], 'bid': 4.88}, {'imgObject': {}, 'id': 'veggieswithdip', 'src': '/static/foodstim60/veggieswithdip.jpg', 'key': 'i', 'origWidth': 409, 'origHeight': 409, 'width': 409, 'height': 409, 'widthPercent': 0.45, 'rescaleHeight': False, 'trialN': 54, 'loaded': True, 'loadedTime': 2399.5999999940395, 'positionName': 'RIGHT', 'positionCoords': [998.4, 335.5], 'bid': 3.46}]",58855.89999999106,1669837349563,cherries,veggieswithdip,4.88,3.46,-1.42,cherries,723.7000000029802,724,724.0,True,u,60086.79999999702,1230.9000000059605,1669837350794,1231,HRV,HRV_0229,2022-11-30 19:45:15
55,"[{'imgObject': {}, 'id': 'burger', 'src': '/static/foodstim60/burger.jpg', 'key': 'u', 'origWidth': 409, 'origHeight': 409, 'width': 409, 'height': 409, 'widthPercent': 0.45, 'rescaleHeight': False, 'trialN': 55, 'loaded': True, 'loadedTime': 2712.2999999970198, 'positionName': 'LEFT', 'positionCoords': [512.6, 335.5], 'bid': 8.18}, {'imgObject': {}, 'id': 'roastedpotatoes', 'src': '/static/foodstim60/roastedpotatoes.jpg', 'key': 'i', 'origWidth': 409, 'origHeight': 410, 'width': 409, 'height': 410, 'widthPercent': 0.45, 'rescaleHeight': False, 'trialN': 55, 'loaded': True, 'loadedTime': 2491.0999999940395, 'positionName': 'RIGHT', 'positionCoords': [998.4, 335], 'bid': 8.28}]",60086.89999999106,1669837350794,burger,roastedpotatoes,8.18,8.28,0.09999999999999964,burger,480.6000000089407,482,481.20000000298023,True,u,61070.20000000298,983.3000000119209,1669837351778,984,HRV,HRV_0229,2022-11-30 19:45:15
56,"[{'imgObject': {}, 'id': 'rigatoni and sauce', 'src': '/static/foodstim60/rigatoni and sauce.jpg', 'key': 'u', 'origWidth': 410, 'origHeight': 411, 'width': 410, 'height': 411, 'widthPercent': 0.45, 'rescaleHeight': False, 'trialN': 56, 'loaded': True, 'loadedTime': 2412, 'positionName': 'LEFT', 'positionCoords': [511.6, 334.5], 'bid': 7.94}, {'imgObject': {}, 'id': 'cocktailshrimp', 'src': '/static/foodstim60/cocktailshrimp.jpg', 'key': 'i', 'origWidth': 410, 'origHeight': 410, 'width': 410, 'height': 410, 'widthPercent': 0.45, 'rescaleHeight': False, 'trialN': 56, 'loaded': True, 'loadedTime': 2716.0999999940395, 'positionName': 'RIGHT', 'positionCoords': [998.4, 335], 'bid': 8.41}]",61070.39999999106,1669837351778,rigatoni and sauce,cocktailshrimp,7.94,8.41,0.46999999999999975,rigatoni and sauce,446.90000000596046,447,447.40000000596046,True,u,62023.59999999404,953.2000000029802,1669837352731,953,HRV,HRV_0229,2022-11-30 19:45:15
57,"[{'imgObject': {}, 'id': 'steak', 'src': '/static/foodstim60/steak.jpg', 'key': 'u', 'origWidth': 410, 'origHeight': 410, 'width': 410, 'height': 410, 'widthPercent': 0.45, 'rescaleHeight': False, 'trialN': 57, 'loaded': True, 'loadedTime': 2718.5, 'positionName': 'LEFT', 'positionCoords': [511.6, 335], 'bid': 8.25}, {'imgObject': {}, 'id': 'roastedpotatoes', 'src': '/static/foodstim60/roastedpotatoes.jpg', 'key': 'i', 'origWidth': 409, 'origHeight': 410, 'width': 409, 'height': 410, 'widthPercent': 0.45, 'rescaleHeight': False, 'trialN': 57, 'loaded': True, 'loadedTime': 2490.5, 'positionName': 'RIGHT', 'positionCoords': [998.4, 335], 'bid': 8.28}]",62023.89999999106,1669837352731,steak,roastedpotatoes,8.25,8.28,0.02999999999999936,steak,559.6000000089407,561,560.3000000119209,True,u,63086.59999999404,1062.7000000029802,1669837353794,1063,HRV,HRV_0229,2022-11-30 19:45:15
58,"[{'imgObject': {}, 'id': 'fruitsalad', 'src': '/static/foodstim60/fruitsalad.jpg', 'key': 'u', 'origWidth': 410, 'origHeight': 410, 'width': 410, 'height': 410, 'widthPercent': 0.45, 'rescaleHeight': False, 'trialN': 58, 'loaded': True, 'loadedTime': 2641.7999999970198, 'positionName': 'LEFT', 'positionCoords': [511.6, 335], 'bid': 5.8}, {'imgObject': {}, 'id': 'mashed potato', 'src': '/static/foodstim60/mashed potato.jpg', 'key': 'i', 'origWidth': 409, 'origHeight': 409, 'width': 409, 'height': 409, 'widthPercent': 0.45, 'rescaleHeight': False, 'trialN': 58, 'loaded': True, 'loadedTime': 2587.5, 'positionName': 'RIGHT', 'positionCoords': [998.4, 335.5], 'bid': 1.39}]",63087.0,1669837353795,fruitsalad,mashed potato,5.8,1.39,-4.41,mashed potato,701.5999999940395,703,703.0999999940395,True,i,64294.79999999702,1207.7999999970198,1669837355002,1207,HRV,HRV_0229,2022-11-30 19:45:15
59,"[{'imgObject': {}, 'id': 'chickenfingers', 'src': '/static/foodstim60/chickenfingers.jpg', 'key': 'u', 'origWidth': 410, 'origHeight': 410, 'width': 410, 'height': 410, 'widthPercent': 0.45, 'rescaleHeight': False, 'trialN': 59, 'loaded': True, 'loadedTime': 2719.5999999940395, 'positionName': 'LEFT', 'positionCoords': [511.6, 335], 'bid': 8.290000000000001}, {'imgObject': {}, 'id': 'rigatoni', 'src': '/static/foodstim60/rigatoni.jpg', 'key': 'i', 'origWidth': 411, 'origHeight': 411, 'width': 411, 'height': 411, 'widthPercent': 0.45, 'rescaleHeight': False, 'trialN': 59, 'loaded': True, 'loadedTime': 2475.5999999940395, 'positionName': 'RIGHT', 'positionCoords': [998.4, 334.5], 'bid': 3.9}]",64294.89999999106,1669837355002,chickenfingers,rigatoni,8.290000000000001,3.9,-4.390000000000001,chickenfingers,572.9000000059605,575,574.2000000029802,True,u,65374.89999999106,1080.0,1669837356082,1080,HRV,HRV_0229,2022-11-30 19:45:15
60,"[{'imgObject': {}, 'id': 'fruitsalad', 'src': '/static/foodstim60/fruitsalad.jpg', 'key': 'u', 'origWidth': 410, 'origHeight': 410, 'width': 410, 'height': 410, 'widthPercent': 0.45, 'rescaleHeight': False, 'trialN': 60, 'loaded': True, 'loadedTime': 2641, 'positionName': 'LEFT', 'positionCoords': [511.6, 335], 'bid': 5.8}, {'imgObject': {}, 'id': 'mango', 'src': '/static/foodstim60/mango.jpg', 'key': 'i', 'origWidth': 411, 'origHeight': 411, 'width': 411, 'height': 411, 'widthPercent': 0.45, 'rescaleHeight': False, 'trialN': 60, 'loaded': True, 'loadedTime': 2493.3999999910593, 'positionName': 'RIGHT', 'positionCoords': [998.4, 334.5], 'bid': 3.45}]",65375.29999999702,1669837356083,fruitsalad,mango,5.8,3.45,-2.3499999999999996,fruitsalad,658.7000000029802,659,659.7000000029802,True,u,66543.79999999702,1168.5,1669837357251,1168,HRV,HRV_0229,2022-11-30 19:45:15
61,"[{'imgObject': {}, 'id': 'grilled chicken strips', 'src': '/static/foodstim60/grilled chicken strips.jpg', 'key': 'u', 'origWidth': 410, 'origHeight': 411, 'width': 410, 'height': 411, 'widthPercent': 0.45, 'rescaleHeight': False, 'trialN': 61, 'loaded': True, 'loadedTime': 2573.5999999940395, 'positionName': 'LEFT', 'positionCoords': [511.6, 334.5], 'bid': 6.890000000000001}, {'imgObject': {}, 'id': 'luckycharms', 'src': '/static/foodstim60/luckycharms.jpg', 'key': 'i', 'origWidth': 410, 'origHeight': 409, 'width': 410, 'height': 409, 'widthPercent': 0.45, 'rescaleHeight': False, 'trialN': 61, 'loaded': True, 'loadedTime': 2427.2999999970198, 'positionName': 'RIGHT', 'positionCoords': [998.4, 335.5], 'bid': 6.95}]",66544.0,1669837357252,grilled chicken strips,luckycharms,6.890000000000001,6.95,0.05999999999999961,grilled chicken strips,512.5,512,512.8999999910593,True,u,67558.0,1014.0,1669837358266,1014,HRV,HRV_0229,2022-11-30 19:45:15
62,"[{'imgObject': {}, 'id': 'Tribe humus pita', 'src': '/static/foodstim60/Tribe humus pita.jpg', 'key': 'u', 'origWidth': 411, 'origHeight': 411, 'width': 411, 'height': 411, 'widthPercent': 0.45, 'rescaleHeight': False, 'trialN': 62, 'loaded': True, 'loadedTime': 2708.7000000029802, 'positionName': 'LEFT', 'positionCoords': [510.6, 334.5], 'bid': 7.91}, {'imgObject': {}, 'id': 'bagel plain', 'src': '/static/foodstim60/bagel plain.jpg', 'key': 'i', 'origWidth': 410, 'origHeight': 410, 'width': 410, 'height': 410, 'widthPercent': 0.45, 'rescaleHeight': False, 'trialN': 62, 'loaded': True, 'loadedTime': 2646.5, 'positionName': 'RIGHT', 'positionCoords': [998.4, 335], 'bid': 6.01}]",67558.20000000298,1669837358266,Tribe humus pita,bagel plain,7.91,6.01,-1.9000000000000004,Tribe humus pita,498.3999999910593,499,498.8999999910593,True,u,68558.0,999.7999999970198,1669837359266,1000,HRV,HRV_0229,2022-11-30 19:45:15
63,"[{'imgObject': {}, 'id': 'mashed potato', 'src': '/static/foodstim60/mashed potato.jpg', 'key': 'u', 'origWidth': 409, 'origHeight': 409, 'width': 409, 'height': 409, 'widthPercent': 0.45, 'rescaleHeight': False, 'trialN': 63, 'loaded': True, 'loadedTime': 2589.5999999940395, 'positionName': 'LEFT', 'positionCoords': [512.6, 335.5], 'bid': 1.39}, {'imgObject': {}, 'id': 'edamame', 'src': '/static/foodstim60/edamame.jpg', 'key': 'i', 'origWidth': 409, 'origHeight': 410, 'width': 409, 'height': 410, 'widthPercent': 0.45, 'rescaleHeight': False, 'trialN': 63, 'loaded': True, 'loadedTime': 2397.2000000029802, 'positionName': 'RIGHT', 'positionCoords': [998.4, 335], 'bid': 1.92}]",68558.29999999702,1669837359266,mashed potato,edamame,1.39,1.92,0.53,edamame,259.40000000596046,260,259.79999999701977,True,i,69319.0,760.7000000029802,1669837360026,760,HRV,HRV_0229,2022-11-30 19:45:15
64,"[{'imgObject': {}, 'id': 'bagel plain', 'src': '/static/foodstim60/bagel plain.jpg', 'key': 'u', 'origWidth': 410, 'origHeight': 410, 'width': 410, 'height': 410, 'widthPercent': 0.45, 'rescaleHeight': False, 'trialN': 64, 'loaded': True, 'loadedTime': 2646.7999999970198, 'positionName': 'LEFT', 'positionCoords': [511.6, 335], 'bid': 6.01}, {'imgObject': {}, 'id': 'apple slices', 'src': '/static/foodstim60/apple slices.jpg', 'key': 'i', 'origWidth': 409, 'origHeight': 410, 'width': 409, 'height': 410, 'widthPercent': 0.45, 'rescaleHeight': False, 'trialN': 64, 'loaded': True, 'loadedTime': 2698.7999999970198, 'positionName': 'RIGHT', 'positionCoords': [998.4, 335], 'bid': 5.8500000000000005}]",69319.20000000298,1669837360027,bagel plain,apple slices,6.01,5.8500000000000005,-0.15999999999999925,apple slices,353.29999999701977,354,353.8999999910593,True,i,70175.79999999702,856.5999999940395,1669837360883,856,HRV,HRV_0229,2022-11-30 19:45:15
65,"[{'imgObject': {}, 'id': 'hashbrowns', 'src': '/static/foodstim60/hashbrowns.jpg', 'key': 'u', 'origWidth': 411, 'origHeight': 410, 'width': 411, 'height': 410, 'widthPercent': 0.45, 'rescaleHeight': False, 'trialN': 65, 'loaded': True, 'loadedTime': 2706.7999999970198, 'positionName': 'LEFT', 'positionCoords': [510.6, 335], 'bid': 7.63}, {'imgObject': {}, 'id': 'banana', 'src': '/static/foodstim60/banana.jpg', 'key': 'i', 'origWidth': 410, 'origHeight': 410, 'width': 410, 'height': 410, 'widthPercent': 0.45, 'rescaleHeight': False, 'trialN': 65, 'loaded': True, 'loadedTime': 2408.2000000029802, 'positionName': 'RIGHT', 'positionCoords': [998.4, 335], 'bid': 7.68}]",70176.20000000298,1669837360884,hashbrowns,banana,7.63,7.68,0.04999999999999982,hashbrowns,297.69999998807907,298,298.19999998807907,True,u,70982.0,805.7999999970198,1669837361690,806,HRV,HRV_0229,2022-11-30 19:45:15
66,"[{'imgObject': {}, 'id': 'granola w milk', 'src': '/static/foodstim60/granola w milk.jpg', 'key': 'u', 'origWidth': 410, 'origHeight': 410, 'width': 410, 'height': 410, 'widthPercent': 0.45, 'rescaleHeight': False, 'trialN': 66, 'loaded': True, 'loadedTime': 2390.2999999970198, 'positionName': 'LEFT', 'positionCoords': [511.6, 335], 'bid': 3.82}, {'imgObject': {}, 'id': 'roastedpotatoes', 'src': '/static/foodstim60/roastedpotatoes.jpg', 'key': 'i', 'origWidth': 409, 'origHeight': 410, 'width': 409, 'height': 410, 'widthPercent': 0.45, 'rescaleHeight': False, 'trialN': 66, 'loaded': True, 'loadedTime': 2491.3999999910593, 'positionName': 'RIGHT', 'positionCoords': [998.4, 335], 'bid': 8.28}]",70982.20000000298,1669837361690,granola w milk,roastedpotatoes,3.82,8.28,4.459999999999999,granola w milk,637.1999999880791,638,637.8999999910593,True,u,72126.59999999404,1144.3999999910593,1669837362834,1144,HRV,HRV_0229,2022-11-30 19:45:15
67,"[{'imgObject': {}, 'id': 'mashed potato', 'src': '/static/foodstim60/mashed potato.jpg', 'key': 'u', 'origWidth': 409, 'origHeight': 409, 'width': 409, 'height': 409, 'widthPercent': 0.45, 'rescaleHeight': False, 'trialN': 67, 'loaded': True, 'loadedTime': 2589.0999999940395, 'positionName': 'LEFT', 'positionCoords': [512.6, 335.5], 'bid': 1.39}, {'imgObject': {}, 'id': 'tacos', 'src': '/static/foodstim60/tacos.jpg', 'key': 'i', 'origWidth': 411, 'origHeight': 411, 'width': 411, 'height': 411, 'widthPercent': 0.45, 'rescaleHeight': False, 'trialN': 67, 'loaded': True, 'loadedTime': 2653, 'positionName': 'RIGHT', 'positionCoords': [998.4, 334.5], 'bid': 1.34}]",72126.79999999702,1669837362834,mashed potato,tacos,1.39,1.34,-0.04999999999999982,mashed potato,361.79999999701977,363,362.5,True,u,72990.0,863.2000000029802,1669837363698,864,HRV,HRV_0229,2022-11-30 19:45:15
68,"[{'imgObject': {}, 'id': 'popsicles', 'src': '/static/foodstim60/popsicles.jpg', 'key': 'u', 'origWidth': 410, 'origHeight': 410, 'width': 410, 'height': 410, 'widthPercent': 0.45, 'rescaleHeight': False, 'trialN': 68, 'loaded': True, 'loadedTime': 2721.7999999970198, 'positionName': 'LEFT', 'positionCoords': [511.6, 335], 'bid': 1.57}, {'imgObject': {}, 'id': 'sweetpotato', 'src': '/static/foodstim60/sweetpotato.jpg', 'key': 'i', 'origWidth': 410, 'origHeight': 410, 'width': 410, 'height': 410, 'widthPercent': 0.45, 'rescaleHeight': False, 'trialN': 68, 'loaded': True, 'loadedTime': 2586, 'positionName': 'RIGHT', 'positionCoords': [998.4, 335], 'bid': 1.34}]",72990.20000000298,1669837363698,popsicles,sweetpotato,1.57,1.34,-0.22999999999999998,sweetpotato,317.69999998807907,318,318.5,True,i,73815.0,824.7999999970198,1669837364523,825,HRV,HRV_0229,2022-11-30 19:45:15
69,"[{'imgObject': {}, 'id': 'burrito', 'src': '/static/foodstim60/burrito.jpg', 'key': 'u', 'origWidth': 410, 'origHeight': 410, 'width': 410, 'height': 410, 'widthPercent': 0.45, 'rescaleHeight': False, 'trialN': 69, 'loaded': True, 'loadedTime': 2512.2999999970198, 'positionName': 'LEFT', 'positionCoords': [511.6, 335], 'bid': 7.61}, {'imgObject': {}, 'id': 'avocado', 'src': '/static/foodstim60/avocado.jpg', 'key': 'i', 'origWidth': 409, 'origHeight': 409, 'width': 409, 'height': 409, 'widthPercent': 0.45, 'rescaleHeight': False, 'trialN': 69, 'loaded': True, 'loadedTime': 2499.0999999940395, 'positionName': 'RIGHT', 'positionCoords': [998.4, 335.5], 'bid': 6.68}]",73815.20000000298,1669837364523,burrito,avocado,7.61,6.68,-0.9300000000000006,burrito,354.59999999403954,355,355.5,True,u,74678.09999999404,862.8999999910593,1669837365386,863,HRV,HRV_0229,2022-11-30 19:45:15
70,"[{'imgObject': {}, 'id': 'ice cream sundae 002', 'src': '/static/foodstim60/ice cream sundae 002.jpg', 'key': 'u', 'origWidth': 409, 'origHeight': 409, 'width': 409, 'height': 409, 'widthPercent': 0.45, 'rescaleHeight': False, 'trialN': 70, 'loaded': True, 'loadedTime': 2595, 'positionName': 'LEFT', 'positionCoords': [512.6, 335.5], 'bid': 1.87}, {'imgObject': {}, 'id': 'strawberries', 'src': '/static/foodstim60/strawberries.jpg', 'key': 'i', 'origWidth': 410, 'origHeight': 410, 'width': 410, 'height': 410, 'widthPercent': 0.45, 'rescaleHeight': False, 'trialN': 70, 'loaded': True, 'loadedTime': 2640.7999999970198, 'positionName': 'RIGHT', 'positionCoords': [998.4, 335], 'bid': 1.93}]",74678.59999999404,1669837365386,ice cream sundae 002,strawberries,1.87,1.93,0.05999999999999983,ice cream sundae 002,316.79999999701977,318,317.40000000596046,True,u,75502.70000000298,824.1000000089407,1669837366210,824,HRV,HRV_0229,2022-11-30 19:45:15
71,"[{'imgObject': {}, 'id': 'banana', 'src': '/static/foodstim60/banana.jpg', 'key': 'u', 'origWidth': 410, 'origHeight': 410, 'width': 410, 'height': 410, 'widthPercent': 0.45, 'rescaleHeight': False, 'trialN': 71, 'loaded': True, 'loadedTime': 2408.5, 'positionName': 'LEFT', 'positionCoords': [511.6, 335], 'bid': 7.68}, {'imgObject': {}, 'id': 'roastedpotatoes', 'src': '/static/foodstim60/roastedpotatoes.jpg', 'key': 'i', 'origWidth': 409, 'origHeight': 410, 'width': 409, 'height': 410, 'widthPercent': 0.45, 'rescaleHeight': False, 'trialN': 71, 'loaded': True, 'loadedTime': 2489.5, 'positionName': 'RIGHT', 'positionCoords': [998.4, 335], 'bid': 8.28}]",75502.89999999106,1669837366210,banana,roastedpotatoes,7.68,8.28,0.5999999999999996,banana,250.40000000596046,251,250.90000000596046,True,u,76255.29999999702,752.4000000059605,1669837366963,753,HRV,HRV_0229,2022-11-30 19:45:15
72,"[{'imgObject': {}, 'id': 'yogurt no spoon', 'src': '/static/foodstim60/yogurt no spoon.jpg', 'key': 'u', 'origWidth': 411, 'origHeight': 410, 'width': 411, 'height': 410, 'widthPercent': 0.45, 'rescaleHeight': False, 'trialN': 72, 'loaded': True, 'loadedTime': 2422.5999999940395, 'positionName': 'LEFT', 'positionCoords': [510.6, 335], 'bid': 5.3100000000000005}, {'imgObject': {}, 'id': 'sweetpotato', 'src': '/static/foodstim60/sweetpotato.jpg', 'key': 'i', 'origWidth': 410, 'origHeight': 410, 'width': 410, 'height': 410, 'widthPercent': 0.45, 'rescaleHeight': False, 'trialN': 72, 'loaded': True, 'loadedTime': 2587.3999999910593, 'positionName': 'RIGHT', 'positionCoords': [998.4, 335], 'bid': 1.34}]",76255.70000000298,1669837366963,yogurt no spoon,sweetpotato,5.3100000000000005,1.34,-3.9700000000000006,sweetpotato,215.59999999403954,217,216.3999999910593,True,i,76975.09999999404,719.3999999910593,1669837367683,720,HRV,HRV_0229,2022-11-30 19:45:15
73,"[{'imgObject': {}, 'id': 'Grapes', 'src': '/static/foodstim60/Grapes.jpg', 'key': 'u', 'origWidth': 411, 'origHeight': 411, 'width': 411, 'height': 411, 'widthPercent': 0.45, 'rescaleHeight': False, 'trialN': 73, 'loaded': True, 'loadedTime': 2580.0999999940395, 'positionName': 'LEFT', 'positionCoords': [510.6, 334.5], 'bid': 4.17}, {'imgObject': {}, 'id': 'apple slices', 'src': '/static/foodstim60/apple slices.jpg', 'key': 'i', 'origWidth': 409, 'origHeight': 410, 'width': 409, 'height': 410, 'widthPercent': 0.45, 'rescaleHeight': False, 'trialN': 73, 'loaded': True, 'loadedTime': 2699.7999999970198, 'positionName': 'RIGHT', 'positionCoords': [998.4, 335], 'bid': 5.8500000000000005}]",76975.29999999702,1669837367683,Grapes,apple slices,4.17,5.8500000000000005,1.6800000000000006,apple slices,353.29999999701977,354,353.90000000596046,True,i,77831.0,855.7000000029802,1669837368538,855,HRV,HRV_0229,2022-11-30 19:45:15
74,"[{'imgObject': {}, 'id': 'turkey sandwich', 'src': '/static/foodstim60/turkey sandwich.jpg', 'key': 'u', 'origWidth': 409, 'origHeight': 409, 'width': 409, 'height': 409, 'widthPercent': 0.45, 'rescaleHeight': False, 'trialN': 74, 'loaded': True, 'loadedTime': 2402.5999999940395, 'positionName': 'LEFT', 'positionCoords': [512.6, 335.5], 'bid': 6.7}, {'imgObject': {}, 'id': 'raspberries', 'src': '/static/foodstim60/raspberries.jpg', 'key': 'i', 'origWidth': 411, 'origHeight': 411, 'width': 411, 'height': 411, 'widthPercent': 0.45, 'rescaleHeight': False, 'trialN': 74, 'loaded': True, 'loadedTime': 2636.2999999970198, 'positionName': 'RIGHT', 'positionCoords': [998.4, 334.5], 'bid': 6.0200000000000005}]",77831.09999999404,1669837368539,turkey sandwich,raspberries,6.7,6.0200000000000005,-0.6799999999999997,turkey sandwich,301.6000000089407,302,302.1000000089407,True,u,78639.0,807.9000000059605,1669837369347,808,HRV,HRV_0229,2022-11-30 19:45:15
75,"[{'imgObject': {}, 'id': 'granola w milk', 'src': '/static/foodstim60/granola w milk.jpg', 'key': 'u', 'origWidth': 410, 'origHeight': 410, 'width': 410, 'height': 410, 'widthPercent': 0.45, 'rescaleHeight': False, 'trialN': 75, 'loaded': True, 'loadedTime': 2386.5999999940395, 'positionName': 'LEFT', 'positionCoords': [511.6, 335], 'bid': 3.82}, {'imgObject': {}, 'id': 'veggieswithdip', 'src': '/static/foodstim60/veggieswithdip.jpg', 'key': 'i', 'origWidth': 409, 'origHeight': 409, 'width': 409, 'height': 409, 'widthPercent': 0.45, 'rescaleHeight': False, 'trialN': 75, 'loaded': True, 'loadedTime': 2400.3999999910593, 'positionName': 'RIGHT', 'positionCoords': [998.4, 335.5], 'bid': 3.46}]",78639.59999999404,1669837369347,granola w milk,veggieswithdip,3.82,3.46,-0.3599999999999999,granola w milk,349.90000000596046,351,350.5,True,u,79494.09999999404,854.5,1669837370202,855,HRV,HRV_0229,2022-11-30 19:45:15
76,"[{'imgObject': {}, 'id': 'mango', 'src': '/static/foodstim60/mango.jpg', 'key': 'u', 'origWidth': 411, 'origHeight': 411, 'width': 411, 'height': 411, 'widthPercent': 0.45, 'rescaleHeight': False, 'trialN': 76, 'loaded': True, 'loadedTime': 2493.0999999940395, 'positionName': 'LEFT', 'positionCoords': [510.6, 334.5], 'bid': 3.45}, {'imgObject': {}, 'id': 'ice cream sundae 002', 'src': '/static/foodstim60/ice cream sundae 002.jpg', 'key': 'i', 'origWidth': 409, 'origHeight': 409, 'width': 409, 'height': 409, 'widthPercent': 0.45, 'rescaleHeight': False, 'trialN': 76, 'loaded': True, 'loadedTime': 2594.0999999940395, 'positionName': 'RIGHT', 'positionCoords': [998.4, 335.5], 'bid': 1.87}]",79494.5,1669837370202,mango,ice cream sundae 002,3.45,1.87,-1.58,ice cream sundae 002,497.09999999403954,498,497.8999999910593,True,i,80494.20000000298,999.7000000029802,1669837371202,1000,HRV,HRV_0229,2022-11-30 19:45:15
77,"[{'imgObject': {}, 'id': 'mango', 'src': '/static/foodstim60/mango.jpg', 'key': 'u', 'origWidth': 411, 'origHeight': 411, 'width': 411, 'height': 411, 'widthPercent': 0.45, 'rescaleHeight': False, 'trialN': 77, 'loaded': True, 'loadedTime': 2493.8999999910593, 'positionName': 'LEFT', 'positionCoords': [510.6, 334.5], 'bid': 3.45}, {'imgObject': {}, 'id': 'salad w chicken', 'src': '/static/foodstim60/salad w chicken.jpg', 'key': 'i', 'origWidth': 411, 'origHeight': 411, 'width': 411, 'height': 411, 'widthPercent': 0.45, 'rescaleHeight': False, 'trialN': 77, 'loaded': True, 'loadedTime': 2533.2999999970198, 'positionName': 'RIGHT', 'positionCoords': [998.4, 334.5], 'bid': 3.43}]",80494.5,1669837371202,mango,salad w chicken,3.45,3.43,-0.020000000000000018,salad w chicken,455.5,456,456.09999999403954,True,i,81454.20000000298,959.7000000029802,1669837372162,960,HRV,HRV_0229,2022-11-30 19:45:15
78,"[{'imgObject': {}, 'id': 'burger', 'src': '/static/foodstim60/burger.jpg', 'key': 'u', 'origWidth': 409, 'origHeight': 409, 'width': 409, 'height': 409, 'widthPercent': 0.45, 'rescaleHeight': False, 'trialN': 78, 'loaded': True, 'loadedTime': 2712.2000000029802, 'positionName': 'LEFT', 'positionCoords': [512.6, 335.5], 'bid': 8.18}, {'imgObject': {}, 'id': 'mango', 'src': '/static/foodstim60/mango.jpg', 'key': 'i', 'origWidth': 411, 'origHeight': 411, 'width': 411, 'height': 411, 'widthPercent': 0.45, 'rescaleHeight': False, 'trialN': 78, 'loaded': True, 'loadedTime': 2493.5999999940395, 'positionName': 'RIGHT', 'positionCoords': [998.4, 334.5], 'bid': 3.45}]",81454.39999999106,1669837372162,burger,mango,8.18,3.45,-4.7299999999999995,burger,274.20000000298023,275,274.70000000298023,True,u,82230.29999999702,775.9000000059605,1669837372938,776,HRV,HRV_0229,2022-11-30 19:45:15
79,"[{'imgObject': {}, 'id': 'olives', 'src': '/static/foodstim60/olives.jpg', 'key': 'u', 'origWidth': 410, 'origHeight': 410, 'width': 410, 'height': 410, 'widthPercent': 0.45, 'rescaleHeight': False, 'trialN': 79, 'loaded': True, 'loadedTime': 2722.8999999910593, 'positionName': 'LEFT', 'positionCoords': [511.6, 335], 'bid': 1.51}, {'imgObject': {}, 'id': 'popsicles', 'src': '/static/foodstim60/popsicles.jpg', 'key': 'i', 'origWidth': 410, 'origHeight': 410, 'width': 410, 'height': 410, 'widthPercent': 0.45, 'rescaleHeight': False, 'trialN': 79, 'loaded': True, 'loadedTime': 2721.2000000029802, 'positionName': 'RIGHT', 'positionCoords': [998.4, 335], 'bid': 1.57}]",82230.5,1669837372938,olives,popsicles,1.51,1.57,0.06000000000000005,olives,280.3999999910593,281,280.8999999910593,True,u,83015.5,785.0,1669837373723,785,HRV,HRV_0229,2022-11-30 19:45:15
80,"[{'imgObject': {}, 'id': 'salad w chicken', 'src': '/static/foodstim60/salad w chicken.jpg', 'key': 'u', 'origWidth': 411, 'origHeight': 411, 'width': 411, 'height': 411, 'widthPercent': 0.45, 'rescaleHeight': False, 'trialN': 80, 'loaded': True, 'loadedTime': 2531.0999999940395, 'positionName': 'LEFT', 'positionCoords': [510.6, 334.5], 'bid': 3.43}, {'imgObject': {}, 'id': 'sushi w_condiments', 'src': '/static/foodstim60/sushi w_condiments.jpg', 'key': 'i', 'origWidth': 410, 'origHeight': 410, 'width': 410, 'height': 410, 'widthPercent': 0.45, 'rescaleHeight': False, 'trialN': 80, 'loaded': True, 'loadedTime': 2510.3999999910593, 'positionName': 'RIGHT', 'positionCoords': [998.4, 335], 'bid': 3.36}]",83015.79999999702,1669837373723,salad w chicken,sushi w_condiments,3.43,3.36,-0.07000000000000028,sushi w_condiments,240.59999999403954,241,241.20000000298023,True,i,83758.39999999106,742.5999999940395,1669837374466,743,HRV,HRV_0229,2022-11-30 19:45:15
81,"[{'imgObject': {}, 'id': 'baked potato', 'src': '/static/foodstim60/baked potato.jpg', 'key': 'u', 'origWidth': 409, 'origHeight': 410, 'width': 409, 'height': 410, 'widthPercent': 0.45, 'rescaleHeight': False, 'trialN': 81, 'loaded': True, 'loadedTime': 2576.7000000029802, 'positionName': 'LEFT', 'positionCoords': [512.6, 335], 'bid': 4.54}, {'imgObject': {}, 'id': 'lox', 'src': '/static/foodstim60/lox.jpg', 'key': 'i', 'origWidth': 410, 'origHeight': 411, 'width': 410, 'height': 411, 'widthPercent': 0.45, 'rescaleHeight': False, 'trialN': 81, 'loaded': True, 'loadedTime': 2593, 'positionName': 'RIGHT', 'positionCoords': [998.4, 334.5], 'bid': 8.92}]",83758.70000000298,1669837374466,baked potato,lox,4.54,8.92,4.38,baked potato,233.3999999910593,234,234.29999999701977,True,u,84495.0,736.2999999970198,1669837375203,737,HRV,HRV_0229,2022-11-30 19:45:15
82,"[{'imgObject': {}, 'id': 'popsicles', 'src': '/static/foodstim60/popsicles.jpg', 'key': 'u', 'origWidth': 410, 'origHeight': 410, 'width': 410, 'height': 410, 'widthPercent': 0.45, 'rescaleHeight': False, 'trialN': 82, 'loaded': True, 'loadedTime': 2721, 'positionName': 'LEFT', 'positionCoords': [511.6, 335], 'bid': 1.57}, {'imgObject': {}, 'id': 'turkeysandwich', 'src': '/static/foodstim60/turkeysandwich.jpg', 'key': 'i', 'origWidth': 409, 'origHeight': 409, 'width': 409, 'height': 409, 'widthPercent': 0.45, 'rescaleHeight': False, 'trialN': 82, 'loaded': True, 'loadedTime': 2496.5, 'positionName': 'RIGHT', 'positionCoords': [998.4, 335.5], 'bid': 3.44}]",84495.20000000298,1669837375203,popsicles,turkeysandwich,1.57,3.44,1.8699999999999999,popsicles,259.09999999403954,259,259.69999998807907,True,u,85262.70000000298,767.5,1669837375970,767,HRV,HRV_0229,2022-11-30 19:45:15
83,"[{'imgObject': {}, 'id': 'blueberries', 'src': '/static/foodstim60/blueberries.jpg', 'key': 'u', 'origWidth': 411, 'origHeight': 411, 'width': 411, 'height': 411, 'widthPercent': 0.45, 'rescaleHeight': False, 'trialN': 83, 'loaded': True, 'loadedTime': 2637.8999999910593, 'positionName': 'LEFT', 'positionCoords': [510.6, 334.5], 'bid': 2.21}, {'imgObject': {}, 'id': 'sweetpotato', 'src': '/static/foodstim60/sweetpotato.jpg', 'key': 'i', 'origWidth': 410, 'origHeight': 410, 'width': 410, 'height': 410, 'widthPercent': 0.45, 'rescaleHeight': False, 'trialN': 83, 'loaded': True, 'loadedTime': 2584.3999999910593, 'positionName': 'RIGHT', 'positionCoords': [998.4, 335], 'bid': 1.34}]",85263.0,1669837375970,blueberries,sweetpotato,2.21,1.34,-0.8699999999999999,sweetpotato,175.20000000298023,177,176.29999999701977,True,i,85942.79999999702,679.7999999970198,1669837376650,680,HRV,HRV_0229,2022-11-30 19:45:15
84,"[{'imgObject': {}, 'id': 'blueberries', 'src': '/static/foodstim60/blueberries.jpg', 'key': 'u', 'origWidth': 411, 'origHeight': 411, 'width': 411, 'height': 411, 'widthPercent': 0.45, 'rescaleHeight': False, 'trialN': 84, 'loaded': True, 'loadedTime': 2637.3999999910593, 'positionName': 'LEFT', 'positionCoords': [510.6, 334.5], 'bid': 2.21}, {'imgObject': {}, 'id': 'cheerios', 'src': '/static/foodstim60/cheerios.jpg', 'key': 'i', 'origWidth': 409, 'origHeight': 410, 'width': 409, 'height': 410, 'widthPercent': 0.45, 'rescaleHeight': False, 'trialN': 84, 'loaded': True, 'loadedTime': 2651.2000000029802, 'positionName': 'RIGHT', 'positionCoords': [998.4, 335], 'bid': 1.42}]",85943.20000000298,1669837376651,blueberries,cheerios,2.21,1.42,-0.79,cheerios,294.3999999910593,295,295.0,True,i,86743.79999999702,800.5999999940395,1669837377451,800,HRV,HRV_0229,2022-11-30 19:45:15
85,"[{'imgObject': {}, 'id': 'olives', 'src': '/static/foodstim60/olives.jpg', 'key': 'u', 'origWidth': 410, 'origHeight': 410, 'width': 410, 'height': 410, 'widthPercent': 0.45, 'rescaleHeight': False, 'trialN': 85, 'loaded': True, 'loadedTime': 2723.0999999940395, 'positionName': 'LEFT', 'positionCoords': [511.6, 335], 'bid': 1.51}, {'imgObject': {}, 'id': 'salad w chicken', 'src': '/static/foodstim60/salad w chicken.jpg', 'key': 'i', 'origWidth': 411, 'origHeight': 411, 'width': 411, 'height': 411, 'widthPercent': 0.45, 'rescaleHeight': False, 'trialN': 85, 'loaded': True, 'loadedTime': 2532.5999999940395, 'positionName': 'RIGHT', 'positionCoords': [998.4, 334.5], 'bid': 3.43}]",86744.0,1669837377451,olives,salad w chicken,1.51,3.43,1.9200000000000002,olives,223.70000000298023,225,224.09999999403954,True,u,87471.39999999106,727.3999999910593,1669837378179,728,HRV,HRV_0229,2022-11-30 19:45:15
86,"[{'imgObject': {}, 'id': 'baked potato', 'src': '/static/foodstim60/baked potato.jpg', 'key': 'u', 'origWidth': 409, 'origHeight': 410, 'width': 409, 'height': 410, 'widthPercent': 0.45, 'rescaleHeight': False, 'trialN': 86, 'loaded': True, 'loadedTime': 2577.2000000029802, 'positionName': 'LEFT', 'positionCoords': [512.6, 335], 'bid': 4.54}, {'imgObject': {}, 'id': 'fried eggs', 'src': '/static/foodstim60/fried eggs.jpg', 'key': 'i', 'origWidth': 410, 'origHeight': 410, 'width': 410, 'height': 410, 'widthPercent': 0.45, 'rescaleHeight': False, 'trialN': 86, 'loaded': True, 'loadedTime': 2703.5999999940395, 'positionName': 'RIGHT', 'positionCoords': [998.4, 335], 'bid': 2.63}]",87471.79999999702,1669837378179,baked potato,fried eggs,4.54,2.63,-1.9100000000000001,baked potato,297.70000000298023,299,298.29999999701977,True,u,88271.29999999702,799.5,1669837378979,800,HRV,HRV_0229,2022-11-30 19:45:15
87,"[{'imgObject': {}, 'id': 'tacos', 'src': '/static/foodstim60/tacos.jpg', 'key': 'u', 'origWidth': 411, 'origHeight': 411, 'width': 411, 'height': 411, 'widthPercent': 0.45, 'rescaleHeight': False, 'trialN': 87, 'loaded': True, 'loadedTime': 2653.7000000029802, 'positionName': 'LEFT', 'positionCoords': [510.6, 334.5], 'bid': 1.34}, {'imgObject': {}, 'id': 'ice cream sundae 002', 'src': '/static/foodstim60/ice cream sundae 002.jpg', 'key': 'i', 'origWidth': 409, 'origHeight': 409, 'width': 409, 'height': 409, 'widthPercent': 0.45, 'rescaleHeight': False, 'trialN': 87, 'loaded': True, 'loadedTime': 2594.2999999970198, 'positionName': 'RIGHT', 'positionCoords': [998.4, 335.5], 'bid': 1.87}]",88271.89999999106,1669837378979,tacos,ice cream sundae 002,1.34,1.87,0.53,ice cream sundae 002,273.80000001192093,275,274.5,True,i,89054.29999999702,782.4000000059605,1669837379762,783,HRV,HRV_0229,2022-11-30 19:45:15
88,"[{'imgObject': {}, 'id': 'pear', 'src': '/static/foodstim60/pear.jpg', 'key': 'u', 'origWidth': 411, 'origHeight': 410, 'width': 411, 'height': 410, 'widthPercent': 0.45, 'rescaleHeight': False, 'trialN': 88, 'loaded': True, 'loadedTime': 2704.8999999910593, 'positionName': 'LEFT', 'positionCoords': [510.6, 335], 'bid': 5.79}, {'imgObject': {}, 'id': 'turkeysandwich', 'src': '/static/foodstim60/turkeysandwich.jpg', 'key': 'i', 'origWidth': 409, 'origHeight': 409, 'width': 409, 'height': 409, 'widthPercent': 0.45, 'rescaleHeight': False, 'trialN': 88, 'loaded': True, 'loadedTime': 2494.2999999970198, 'positionName': 'RIGHT', 'positionCoords': [998.4, 335.5], 'bid': 3.44}]",89054.39999999106,1669837379762,pear,turkeysandwich,5.79,3.44,-2.35,pear,406.80000001192093,407,407.20000000298023,True,u,89967.79999999702,913.4000000059605,1669837380675,913,HRV,HRV_0229,2022-11-30 19:45:15
89,"[{'imgObject': {}, 'id': 'orange slices', 'src': '/static/foodstim60/orange slices.jpg', 'key': 'u', 'origWidth': 409, 'origHeight': 410, 'width': 409, 'height': 410, 'widthPercent': 0.45, 'rescaleHeight': False, 'trialN': 89, 'loaded': True, 'loadedTime': 2710.3999999910593, 'positionName': 'LEFT', 'positionCoords': [512.6, 335], 'bid': 2.91}, {'imgObject': {}, 'id': 'olives', 'src': '/static/foodstim60/olives.jpg', 'key': 'i', 'origWidth': 410, 'origHeight': 410, 'width': 410, 'height': 410, 'widthPercent': 0.45, 'rescaleHeight': False, 'trialN': 89, 'loaded': True, 'loadedTime': 2723.0999999940395, 'positionName': 'RIGHT', 'positionCoords': [998.4, 335], 'bid': 1.51}]",89968.09999999404,1669837380676,orange slices,olives,2.91,1.51,-1.4000000000000001,olives,397.5,398,398.0,True,i,90870.0,901.9000000059605,1669837381578,902,HRV,HRV_0229,2022-11-30 19:45:15
90,"[{'imgObject': {}, 'id': 'steak', 'src': '/static/foodstim60/steak.jpg', 'key': 'u', 'origWidth': 410, 'origHeight': 410, 'width': 410, 'height': 410, 'widthPercent': 0.45, 'rescaleHeight': False, 'trialN': 90, 'loaded': True, 'loadedTime': 2717.2000000029802, 'positionName': 'LEFT', 'positionCoords': [511.6, 335], 'bid': 8.25}, {'imgObject': {}, 'id': 'froot loops w milk', 'src': '/static/foodstim60/froot loops w milk.jpg', 'key': 'i', 'origWidth': 410, 'origHeight': 410, 'width': 410, 'height': 410, 'widthPercent': 0.45, 'rescaleHeight': False, 'trialN': 90, 'loaded': True, 'loadedTime': 2405, 'positionName': 'RIGHT', 'positionCoords': [998.4, 335], 'bid': 8.01}]",94486.09999999404,1669837385194,steak,froot loops w milk,8.25,8.01,-0.2400000000000002,steak,1685.7000000029802,1686,1686.6000000089407,True,u,96678.89999999106,2192.7999999970198,1669837387386,2192,HRV,HRV_0229,2022-11-30 19:45:15
91,"[{'imgObject': {}, 'id': 'cantaloupe', 'src': '/static/foodstim60/cantaloupe.jpg', 'key': 'u', 'origWidth': 409, 'origHeight': 409, 'width': 409, 'height': 409, 'widthPercent': 0.45, 'rescaleHeight': False, 'trialN': 91, 'loaded': True, 'loadedTime': 2700.2000000029802, 'positionName': 'LEFT', 'positionCoords': [512.6, 335.5], 'bid': 2.29}, {'imgObject': {}, 'id': 'omelette', 'src': '/static/foodstim60/omelette.jpg', 'key': 'i', 'origWidth': 410, 'origHeight': 409, 'width': 410, 'height': 409, 'widthPercent': 0.45, 'rescaleHeight': False, 'trialN': 91, 'loaded': True, 'loadedTime': 2595.7000000029802, 'positionName': 'RIGHT', 'positionCoords': [998.4, 335.5], 'bid': 3.25}]",96679.20000000298,1669837387386,cantaloupe,omelette,2.29,3.25,0.96,omelette,1390.8999999910593,1392,1391.7999999970198,True,i,98574.20000000298,1895.0,1669837389281,1895,HRV,HRV_0229,2022-11-30 19:45:15
92,"[{'imgObject': {}, 'id': 'turkey sandwich', 'src': '/static/foodstim60/turkey sandwich.jpg', 'key': 'u', 'origWidth': 409, 'origHeight': 409, 'width': 409, 'height': 409, 'widthPercent': 0.45, 'rescaleHeight': False, 'trialN': 92, 'loaded': True, 'loadedTime': 2403.2999999970198, 'positionName': 'LEFT', 'positionCoords': [512.6, 335.5], 'bid': 6.7}, {'imgObject': {}, 'id': 'mac & cheese', 'src': '/static/foodstim60/mac & cheese.jpg', 'key': 'i', 'origWidth': 410, 'origHeight': 410, 'width': 410, 'height': 410, 'widthPercent': 0.45, 'rescaleHeight': False, 'trialN': 92, 'loaded': True, 'loadedTime': 2655.2999999970198, 'positionName': 'RIGHT', 'positionCoords': [998.4, 335], 'bid': 6.75}]",98574.29999999702,1669837389282,turkey sandwich,mac & cheese,6.7,6.75,0.04999999999999982,turkey sandwich,531.5,532,532.2000000029802,True,u,99607.09999999404,1032.7999999970198,1669837390314,1032,HRV,HRV_0229,2022-11-30 19:45:15
93,"[{'imgObject': {}, 'id': 'luckycharms', 'src': '/static/foodstim60/luckycharms.jpg', 'key': 'u', 'origWidth': 410, 'origHeight': 409, 'width': 410, 'height': 409, 'widthPercent': 0.45, 'rescaleHeight': False, 'trialN': 93, 'loaded': True, 'loadedTime': 2426.2999999970198, 'positionName': 'LEFT', 'positionCoords': [511.6, 335.5], 'bid': 6.95}, {'imgObject': {}, 'id': 'orange slices', 'src': '/static/foodstim60/orange slices.jpg', 'key': 'i', 'origWidth': 409, 'origHeight': 410, 'width': 409, 'height': 410, 'widthPercent': 0.45, 'rescaleHeight': False, 'trialN': 93, 'loaded': True, 'loadedTime': 2710.2999999970198, 'positionName': 'RIGHT', 'positionCoords': [998.4, 335], 'bid': 2.91}]",99607.5,1669837390315,luckycharms,orange slices,6.95,2.91,-4.04,luckycharms,624.7999999970198,625,625.2999999970198,True,u,100735.0,1127.5,1669837391442,1127,HRV,HRV_0229,2022-11-30 19:45:15
94,"[{'imgObject': {}, 'id': 'raisin bran w milk', 'src': '/static/foodstim60/raisin bran w milk.jpg', 'key': 'u', 'origWidth': 411, 'origHeight': 411, 'width': 411, 'height': 411, 'widthPercent': 0.45, 'rescaleHeight': False, 'trialN': 94, 'loaded': True, 'loadedTime': 2649.7999999970198, 'positionName': 'LEFT', 'positionCoords': [510.6, 334.5], 'bid': 1.41}, {'imgObject': {}, 'id': 'corn cob', 'src': '/static/foodstim60/corn cob.jpg', 'key': 'i', 'origWidth': 411, 'origHeight': 411, 'width': 411, 'height': 411, 'widthPercent': 0.45, 'rescaleHeight': False, 'trialN': 94, 'loaded': True, 'loadedTime': 2505.0999999940395, 'positionName': 'RIGHT', 'positionCoords': [998.4, 334.5], 'bid': 3.36}]",100735.29999999702,1669837391442,raisin bran w milk,corn cob,1.41,3.36,1.95,corn cob,795,796,795.7999999970198,True,i,102031.39999999106,1296.0999999940395,1669837392739,1297,HRV,HRV_0229,2022-11-30 19:45:15
95,"[{'imgObject': {}, 'id': 'apple slices', 'src': '/static/foodstim60/apple slices.jpg', 'key': 'u', 'origWidth': 409, 'origHeight': 410, 'width': 409, 'height': 410, 'widthPercent': 0.45, 'rescaleHeight': False, 'trialN': 95, 'loaded': True, 'loadedTime': 2698, 'positionName': 'LEFT', 'positionCoords': [512.6, 335], 'bid': 5.8500000000000005}, {'imgObject': {}, 'id': 'veggieswithdip', 'src': '/static/foodstim60/veggieswithdip.jpg', 'key': 'i', 'origWidth': 409, 'origHeight': 409, 'width': 409, 'height': 409, 'widthPercent': 0.45, 'rescaleHeight': False, 'trialN': 95, 'loaded': True, 'loadedTime': 2397.7999999970198, 'positionName': 'RIGHT', 'positionCoords': [998.4, 335.5], 'bid': 3.46}]",102031.59999999404,1669837392739,apple slices,veggieswithdip,5.8500000000000005,3.46,-2.3900000000000006,apple slices,589.5,591,590.9000000059605,True,u,103126.70000000298,1095.1000000089407,1669837393834,1095,HRV,HRV_0229,2022-11-30 19:45:15
96,"[{'imgObject': {}, 'id': 'shreddedwheatwithmilk', 'src': '/static/foodstim60/shreddedwheatwithmilk.jpg', 'key': 'u', 'origWidth': 410, 'origHeight': 410, 'width': 410, 'height': 410, 'widthPercent': 0.45, 'rescaleHeight': False, 'trialN': 96, 'loaded': True, 'loadedTime': 2607.5, 'positionName': 'LEFT', 'positionCoords': [511.6, 335], 'bid': 6.19}, {'imgObject': {}, 'id': 'kiwi', 'src': '/static/foodstim60/kiwi.jpg', 'key': 'i', 'origWidth': 410, 'origHeight': 410, 'width': 410, 'height': 410, 'widthPercent': 0.45, 'rescaleHeight': False, 'trialN': 96, 'loaded': True, 'loadedTime': 2314.5, 'positionName': 'RIGHT', 'positionCoords': [998.4, 335], 'bid': 4.12}]",103127.0,1669837393834,shreddedwheatwithmilk,kiwi,6.19,4.12,-2.0700000000000003,shreddedwheatwithmilk,600.8999999910593,602,601.8999999910593,True,u,104230.79999999702,1103.7999999970198,1669837394938,1104,HRV,HRV_0229,2022-11-30 19:45:15
97,"[{'imgObject': {}, 'id': 'edamame', 'src': '/static/foodstim60/edamame.jpg', 'key': 'u', 'origWidth': 409, 'origHeight': 410, 'width': 409, 'height': 410, 'widthPercent': 0.45, 'rescaleHeight': False, 'trialN': 97, 'loaded': True, 'loadedTime': 2394.7999999970198, 'positionName': 'LEFT', 'positionCoords': [512.6, 335], 'bid': 1.92}, {'imgObject': {}, 'id': 'ice cream sundae 002', 'src': '/static/foodstim60/ice cream sundae 002.jpg', 'key': 'i', 'origWidth': 409, 'origHeight': 409, 'width': 409, 'height': 409, 'widthPercent': 0.45, 'rescaleHeight': False, 'trialN': 97, 'loaded': True, 'loadedTime': 2593.2999999970198, 'positionName': 'RIGHT', 'positionCoords': [998.4, 335.5], 'bid': 1.87}]",104231.09999999404,1669837394938,edamame,ice cream sundae 002,1.92,1.87,-0.04999999999999982,ice cream sundae 002,870.6000000089407,872,871.5,True,i,105607.70000000298,1376.6000000089407,1669837396315,1377,HRV,HRV_0229,2022-11-30 19:45:15
98,"[{'imgObject': {}, 'id': 'cocktailshrimp', 'src': '/static/foodstim60/cocktailshrimp.jpg', 'key': 'u', 'origWidth': 410, 'origHeight': 410, 'width': 410, 'height': 410, 'widthPercent': 0.45, 'rescaleHeight': False, 'trialN': 98, 'loaded': True, 'loadedTime': 2715.5, 'positionName': 'LEFT', 'positionCoords': [511.6, 335], 'bid': 8.41}, {'imgObject': {}, 'id': 'chickenfingers', 'src': '/static/foodstim60/chickenfingers.jpg', 'key': 'i', 'origWidth': 410, 'origHeight': 410, 'width': 410, 'height': 410, 'widthPercent': 0.45, 'rescaleHeight': False, 'trialN': 98, 'loaded': True, 'loadedTime': 2720, 'positionName': 'RIGHT', 'positionCoords': [998.4, 335], 'bid': 8.290000000000001}]",105608.0,1669837396315,cocktailshrimp,chickenfingers,8.41,8.290000000000001,-0.11999999999999922,chickenfingers,676.7999999970198,677,677.2999999970198,True,i,106790.0,1182.0,1669837397497,1182,HRV,HRV_0229,2022-11-30 19:45:15
99,"[{'imgObject': {}, 'id': 'raspberries', 'src': '/static/foodstim60/raspberries.jpg', 'key': 'u', 'origWidth': 411, 'origHeight': 411, 'width': 411, 'height': 411, 'widthPercent': 0.45, 'rescaleHeight': False, 'trialN': 99, 'loaded': True, 'loadedTime': 2635.8999999910593, 'positionName': 'LEFT', 'positionCoords': [510.6, 334.5], 'bid': 6.0200000000000005}, {'imgObject': {}, 'id': 'chicken nuggets2', 'src': '/static/foodstim60/chicken nuggets2.jpg', 'key': 'i', 'origWidth': 410, 'origHeight': 409, 'width': 410, 'height': 409, 'widthPercent': 0.45, 'rescaleHeight': False, 'trialN': 99, 'loaded': True, 'loadedTime': 2570.7999999970198, 'positionName': 'RIGHT', 'positionCoords': [998.4, 335.5], 'bid': 6.25}]",106790.20000000298,1669837397497,raspberries,chicken nuggets2,6.0200000000000005,6.25,0.22999999999999954,chicken nuggets2,595,596,596.0999999940395,True,i,107886.89999999106,1096.699999988079,1669837398594,1097,HRV,HRV_0229,2022-11-30 19:45:15
100,"[{'imgObject': {}, 'id': 'cocktailshrimp', 'src': '/static/foodstim60/cocktailshrimp.jpg', 'key': 'u', 'origWidth': 410, 'origHeight': 410, 'width': 410, 'height': 410, 'widthPercent': 0.45, 'rescaleHeight': False, 'trialN': 100, 'loaded': True, 'loadedTime': 2715.2999999970198, 'positionName': 'LEFT', 'positionCoords': [511.6, 335], 'bid': 8.41}, {'imgObject': {}, 'id': 'kiwi', 'src': '/static/foodstim60/kiwi.jpg', 'key': 'i', 'origWidth': 410, 'origHeight': 410, 'width': 410, 'height': 410, 'widthPercent': 0.45, 'rescaleHeight': False, 'trialN': 100, 'loaded': True, 'loadedTime': 2314.7000000029802, 'positionName': 'RIGHT', 'positionCoords': [998.4, 335], 'bid': 4.12}]",107887.09999999404,1669837398594,cocktailshrimp,kiwi,8.41,4.12,-4.29,kiwi,759.2999999970198,760,760.1000000089407,True,i,109150.29999999702,1263.2000000029802,1669837399858,1264,HRV,HRV_0229,2022-11-30 19:45:15
101,"[{'imgObject': {}, 'id': 'avocado', 'src': '/static/foodstim60/avocado.jpg', 'key': 'u', 'origWidth': 409, 'origHeight': 409, 'width': 409, 'height': 409, 'widthPercent': 0.45, 'rescaleHeight': False, 'trialN': 101, 'loaded': True, 'loadedTime': 2497.2000000029802, 'positionName': 'LEFT', 'positionCoords': [512.6, 335.5], 'bid': 6.68}, {'imgObject': {}, 'id': 'chickenfingers', 'src': '/static/foodstim60/chickenfingers.jpg', 'key': 'i', 'origWidth': 410, 'origHeight': 410, 'width': 410, 'height': 410, 'widthPercent': 0.45, 'rescaleHeight': False, 'trialN': 101, 'loaded': True, 'loadedTime': 2719.8999999910593, 'positionName': 'RIGHT', 'positionCoords': [998.4, 335], 'bid': 8.290000000000001}]",109150.5,1669837399858,avocado,chickenfingers,6.68,8.290000000000001,1.6100000000000012,chickenfingers,569.5,570,569.8999999910593,True,i,110223.0,1072.5,1669837400930,1072,HRV,HRV_0229,2022-11-30 19:45:15
102,"[{'imgObject': {}, 'id': 'shreddedwheatwithmilk', 'src': '/static/foodstim60/shreddedwheatwithmilk.jpg', 'key': 'u', 'origWidth': 410, 'origHeight': 410, 'width': 410, 'height': 410, 'widthPercent': 0.45, 'rescaleHeight': False, 'trialN': 102, 'loaded': True, 'loadedTime': 2616.5, 'positionName': 'LEFT', 'positionCoords': [511.6, 335], 'bid': 6.19}, {'imgObject': {}, 'id': 'popsicles', 'src': '/static/foodstim60/popsicles.jpg', 'key': 'i', 'origWidth': 410, 'origHeight': 410, 'width': 410, 'height': 410, 'widthPercent': 0.45, 'rescaleHeight': False, 'trialN': 102, 'loaded': True, 'loadedTime': 2721.8999999910593, 'positionName': 'RIGHT', 'positionCoords': [998.4, 335], 'bid': 1.57}]",110223.29999999702,1669837400931,shreddedwheatwithmilk,popsicles,6.19,1.57,-4.62,shreddedwheatwithmilk,700.7999999970198,701,701.2999999970198,True,u,111431.39999999106,1208.0999999940395,1669837402139,1208,HRV,HRV_0229,2022-11-30 19:45:15
103,"[{'imgObject': {}, 'id': 'blackbeanswithrice', 'src': '/static/foodstim60/blackbeanswithrice.jpg', 'key': 'u', 'origWidth': 410, 'origHeight': 410, 'width': 410, 'height': 410, 'widthPercent': 0.45, 'rescaleHeight': False, 'trialN': 103, 'loaded': True, 'loadedTime': 2644.3999999910593, 'positionName': 'LEFT', 'positionCoords': [511.6, 335], 'bid': 6.3}, {'imgObject': {}, 'id': 'chicken nuggets2', 'src': '/static/foodstim60/chicken nuggets2.jpg', 'key': 'i', 'origWidth': 410, 'origHeight': 409, 'width': 410, 'height': 409, 'widthPercent': 0.45, 'rescaleHeight': False, 'trialN': 103, 'loaded': True, 'loadedTime': 2572, 'positionName': 'RIGHT', 'positionCoords': [998.4, 335.5], 'bid': 6.25}]",111431.70000000298,1669837402139,blackbeanswithrice,chicken nuggets2,6.3,6.25,-0.04999999999999982,chicken nuggets2,571.3999999910593,572,571.8999999910593,True,i,112510.29999999702,1078.5999999940395,1669837403217,1078,HRV,HRV_0229,2022-11-30 19:45:15
104,"[{'imgObject': {}, 'id': 'blueberries', 'src': '/static/foodstim60/blueberries.jpg', 'key': 'u', 'origWidth': 411, 'origHeight': 411, 'width': 411, 'height': 411, 'widthPercent': 0.45, 'rescaleHeight': False, 'trialN': 104, 'loaded': True, 'loadedTime': 2638.3999999910593, 'positionName': 'LEFT', 'positionCoords': [510.6, 334.5], 'bid': 2.21}, {'imgObject': {}, 'id': 'edamame', 'src': '/static/foodstim60/edamame.jpg', 'key': 'i', 'origWidth': 409, 'origHeight': 410, 'width': 409, 'height': 410, 'widthPercent': 0.45, 'rescaleHeight': False, 'trialN': 104, 'loaded': True, 'loadedTime': 2395.3999999910593, 'positionName': 'RIGHT', 'positionCoords': [998.4, 335], 'bid': 1.92}]",112510.5,1669837403218,blueberries,edamame,2.21,1.92,-0.29000000000000004,blueberries,645.5,646,646.0,True,u,113662.39999999106,1151.8999999910593,1669837404370,1152,HRV,HRV_0229,2022-11-30 19:45:15
105,"[{'imgObject': {}, 'id': 'cantaloupe', 'src': '/static/foodstim60/cantaloupe.jpg', 'key': 'u', 'origWidth': 409, 'origHeight': 409, 'width': 409, 'height': 409, 'widthPercent': 0.45, 'rescaleHeight': False, 'trialN': 105, 'loaded': True, 'loadedTime': 2701.5999999940395, 'positionName': 'LEFT', 'positionCoords': [512.6, 335.5], 'bid': 2.29}, {'imgObject': {}, 'id': 'kiwi', 'src': '/static/foodstim60/kiwi.jpg', 'key': 'i', 'origWidth': 410, 'origHeight': 410, 'width': 410, 'height': 410, 'widthPercent': 0.45, 'rescaleHeight': False, 'trialN': 105, 'loaded': True, 'loadedTime': 2375.7999999970198, 'positionName': 'RIGHT', 'positionCoords': [998.4, 335], 'bid': 4.12}]",113662.70000000298,1669837404370,cantaloupe,kiwi,2.29,4.12,1.83,cantaloupe,532,534,533.5999999940395,True,u,114702.20000000298,1039.5,1669837405409,1039,HRV,HRV_0229,2022-11-30 19:45:15
106,"[{'imgObject': {}, 'id': 'seaweed', 'src': '/static/foodstim60/seaweed.jpg', 'key': 'u', 'origWidth': 410, 'origHeight': 410, 'width': 410, 'height': 410, 'widthPercent': 0.45, 'rescaleHeight': False, 'trialN': 106, 'loaded': True, 'loadedTime': 2533.5, 'positionName': 'LEFT', 'positionCoords': [511.6, 335], 'bid': 2.98}, {'imgObject': {}, 'id': 'popsicles', 'src': '/static/foodstim60/popsicles.jpg', 'key': 'i', 'origWidth': 410, 'origHeight': 410, 'width': 410, 'height': 410, 'widthPercent': 0.45, 'rescaleHeight': False, 'trialN': 106, 'loaded': True, 'loadedTime': 2721.0999999940395, 'positionName': 'RIGHT', 'positionCoords': [998.4, 335], 'bid': 1.57}]",114702.29999999702,1669837405410,seaweed,popsicles,2.98,1.57,-1.41,popsicles,611.5999999940395,612,612.2999999970198,True,i,115822.09999999404,1119.7999999970198,1669837406529,1119,HRV,HRV_0229,2022-11-30 19:45:15
107,"[{'imgObject': {}, 'id': 'cocktailshrimp', 'src': '/static/foodstim60/cocktailshrimp.jpg', 'key': 'u', 'origWidth': 410, 'origHeight': 410, 'width': 410, 'height': 410, 'widthPercent': 0.45, 'rescaleHeight': False, 'trialN': 107, 'loaded': True, 'loadedTime': 2712.7000000029802, 'positionName': 'LEFT', 'positionCoords': [511.6, 335], 'bid': 8.41}, {'imgObject': {}, 'id': 'turkey sandwich', 'src': '/static/foodstim60/turkey sandwich.jpg', 'key': 'i', 'origWidth': 409, 'origHeight': 409, 'width': 409, 'height': 409, 'widthPercent': 0.45, 'rescaleHeight': False, 'trialN': 107, 'loaded': True, 'loadedTime': 2402.8999999910593, 'positionName': 'RIGHT', 'positionCoords': [998.4, 335.5], 'bid': 6.7}]",115822.39999999106,1669837406530,cocktailshrimp,turkey sandwich,8.41,6.7,-1.71,turkey sandwich,624.2000000029802,625,625.8000000119209,True,i,116953.29999999702,1130.9000000059605,1669837407660,1130,HRV,HRV_0229,2022-11-30 19:45:15
108,"[{'imgObject': {}, 'id': 'cherries', 'src': '/static/foodstim60/cherries.jpg', 'key': 'u', 'origWidth': 410, 'origHeight': 411, 'width': 410, 'height': 411, 'widthPercent': 0.45, 'rescaleHeight': False, 'trialN': 108, 'loaded': True, 'loadedTime': 2507.8999999910593, 'positionName': 'LEFT', 'positionCoords': [511.6, 334.5], 'bid': 4.88}, {'imgObject': {}, 'id': 'Grapes', 'src': '/static/foodstim60/Grapes.jpg', 'key': 'i', 'origWidth': 411, 'origHeight': 411, 'width': 411, 'height': 411, 'widthPercent': 0.45, 'rescaleHeight': False, 'trialN': 108, 'loaded': True, 'loadedTime': 2580.5, 'positionName': 'RIGHT', 'positionCoords': [998.4, 334.5], 'bid': 4.17}]",116953.59999999404,1669837407661,cherries,Grapes,4.88,4.17,-0.71,cherries,706.2999999970198,708,708.0,True,u,118166.29999999702,1212.7000000029802,1669837408873,1212,HRV,HRV_0229,2022-11-30 19:45:15
