trialN,stimuli,trialStartTime,trialStartTime_UNIX,stimulus1,stimulus2,stimulus1Bid,stimulus2Bid,delta,selected,rt,rt_UNIX,rt_perfnow,receivedResponse,rsp,trialEndTime,trialDuration,trialEndTime_UNIX,trialDuration_UNIX,trialEvents,exp,subjectId,date
0,"[{'imgObject': {}, 'id': 'bagel plain', 'src': '/static/foodstim60/bagel plain.jpg', 'key': 'u', 'origWidth': 410, 'origHeight': 410, 'width': 410, 'height': 410, 'widthPercent': 0.45, 'rescaleHeight': False, 'trialN': 0, 'loaded': True, 'loadedTime': 4681, 'positionName': 'LEFT', 'positionCoords': [245.68, 179], 'bid': 1.32}, {'imgObject': {}, 'id': 'fried eggs', 'src': '/static/foodstim60/fried eggs.jpg', 'key': 'i', 'origWidth': 410, 'origHeight': 410, 'width': 410, 'height': 410, 'widthPercent': 0.45, 'rescaleHeight': False, 'trialN': 0, 'loaded': True, 'loadedTime': 4898, 'positionName': 'RIGHT', 'positionCoords': [710.32, 179], 'bid': 4.22}]",6831,1669833812590,bagel plain,fried eggs,1.32,4.22,2.8999999999999995,bagel plain,1068,1069,1069.0,True,u,8404,1573,1669833814163,1573,,HRV,HRV_0195,2022-11-30 18:46:08
1,"[{'imgObject': {}, 'id': 'rigatoni', 'src': '/static/foodstim60/rigatoni.jpg', 'key': 'u', 'origWidth': 411, 'origHeight': 411, 'width': 411, 'height': 411, 'widthPercent': 0.45, 'rescaleHeight': False, 'trialN': 1, 'loaded': True, 'loadedTime': 4914, 'positionName': 'LEFT', 'positionCoords': [244.68, 178.5], 'bid': 8.89}, {'imgObject': {}, 'id': 'pear', 'src': '/static/foodstim60/pear.jpg', 'key': 'i', 'origWidth': 411, 'origHeight': 410, 'width': 411, 'height': 410, 'widthPercent': 0.45, 'rescaleHeight': False, 'trialN': 1, 'loaded': True, 'loadedTime': 4930, 'positionName': 'RIGHT', 'positionCoords': [710.32, 179], 'bid': 9.83}]",8404,1669833814163,rigatoni,pear,8.89,9.83,0.9399999999999995,rigatoni,143,143,143.0,True,u,9057,653,1669833814816,653,,HRV,HRV_0195,2022-11-30 18:46:08
2,"[{'imgObject': {}, 'id': 'eggsalad', 'src': '/static/foodstim60/eggsalad.jpg', 'key': 'u', 'origWidth': 410, 'origHeight': 409, 'width': 410, 'height': 409, 'widthPercent': 0.45, 'rescaleHeight': False, 'trialN': 2, 'loaded': True, 'loadedTime': 4930, 'positionName': 'LEFT', 'positionCoords': [245.68, 179.5], 'bid': 4.45}, {'imgObject': {}, 'id': 'hotdog w must', 'src': '/static/foodstim60/hotdog w must.jpg', 'key': 'i', 'origWidth': 409, 'origHeight': 409, 'width': 409, 'height': 409, 'widthPercent': 0.45, 'rescaleHeight': False, 'trialN': 2, 'loaded': True, 'loadedTime': 4978, 'positionName': 'RIGHT', 'positionCoords': [710.32, 179.5], 'bid': 4.5600000000000005}]",9057,1669833814816,eggsalad,hotdog w must,4.45,4.5600000000000005,0.11000000000000032,eggsalad,56,56,56.0,True,u,9620,563,1669833815379,563,,HRV,HRV_0195,2022-11-30 18:46:08
3,"[{'imgObject': {}, 'id': 'fried eggs', 'src': '/static/foodstim60/fried eggs.jpg', 'key': 'u', 'origWidth': 410, 'origHeight': 410, 'width': 410, 'height': 410, 'widthPercent': 0.45, 'rescaleHeight': False, 'trialN': 3, 'loaded': True, 'loadedTime': 4898, 'positionName': 'LEFT', 'positionCoords': [245.68, 179], 'bid': 4.22}, {'imgObject': {}, 'id': 'Grapes', 'src': '/static/foodstim60/Grapes.jpg', 'key': 'i', 'origWidth': 411, 'origHeight': 411, 'width': 411, 'height': 411, 'widthPercent': 0.45, 'rescaleHeight': False, 'trialN': 3, 'loaded': True, 'loadedTime': 5019, 'positionName': 'RIGHT', 'positionCoords': [710.32, 178.5], 'bid': 3.97}]",9620,1669833815379,fried eggs,Grapes,4.22,3.97,-0.24999999999999956,fried eggs,126,127,127.0,True,u,10267,647,1669833816026,647,,HRV,HRV_0195,2022-11-30 18:46:08
4,"[{'imgObject': {}, 'id': 'tacos', 'src': '/static/foodstim60/tacos.jpg', 'key': 'u', 'origWidth': 411, 'origHeight': 411, 'width': 411, 'height': 411, 'widthPercent': 0.45, 'rescaleHeight': False, 'trialN': 4, 'loaded': True, 'loadedTime': 5021, 'positionName': 'LEFT', 'positionCoords': [244.68, 178.5], 'bid': 3.79}, {'imgObject': {}, 'id': 'luckycharms', 'src': '/static/foodstim60/luckycharms.jpg', 'key': 'i', 'origWidth': 410, 'origHeight': 409, 'width': 410, 'height': 409, 'widthPercent': 0.45, 'rescaleHeight': False, 'trialN': 4, 'loaded': True, 'loadedTime': 5029, 'positionName': 'RIGHT', 'positionCoords': [710.32, 179.5], 'bid': 3.5700000000000003}]",10267,1669833816026,tacos,luckycharms,3.79,3.5700000000000003,-0.21999999999999975,tacos,79,80,80.0,True,u,10866,599,1669833816625,599,,HRV,HRV_0195,2022-11-30 18:46:08
5,"[{'imgObject': {}, 'id': 'luckycharms', 'src': '/static/foodstim60/luckycharms.jpg', 'key': 'u', 'origWidth': 410, 'origHeight': 409, 'width': 410, 'height': 409, 'widthPercent': 0.45, 'rescaleHeight': False, 'trialN': 5, 'loaded': True, 'loadedTime': 5034, 'positionName': 'LEFT', 'positionCoords': [245.68, 179.5], 'bid': 3.5700000000000003}, {'imgObject': {}, 'id': 'banana', 'src': '/static/foodstim60/banana.jpg', 'key': 'i', 'origWidth': 410, 'origHeight': 410, 'width': 410, 'height': 410, 'widthPercent': 0.45, 'rescaleHeight': False, 'trialN': 5, 'loaded': True, 'loadedTime': 5039, 'positionName': 'RIGHT', 'positionCoords': [710.32, 179], 'bid': 3.06}]",10866,1669833816625,luckycharms,banana,3.5700000000000003,3.06,-0.5100000000000002,banana,346,346,346.0,True,i,11733,867,1669833817492,867,,HRV,HRV_0195,2022-11-30 18:46:08
6,"[{'imgObject': {}, 'id': 'mashed potato', 'src': '/static/foodstim60/mashed potato.jpg', 'key': 'u', 'origWidth': 409, 'origHeight': 409, 'width': 409, 'height': 409, 'widthPercent': 0.45, 'rescaleHeight': False, 'trialN': 6, 'loaded': True, 'loadedTime': 5079, 'positionName': 'LEFT', 'positionCoords': [246.68, 179.5], 'bid': 7.59}, {'imgObject': {}, 'id': 'burger', 'src': '/static/foodstim60/burger.jpg', 'key': 'i', 'origWidth': 409, 'origHeight': 409, 'width': 409, 'height': 409, 'widthPercent': 0.45, 'rescaleHeight': False, 'trialN': 6, 'loaded': True, 'loadedTime': 5079, 'positionName': 'RIGHT', 'positionCoords': [710.32, 179.5], 'bid': 8.03}]",11733,1669833817492,mashed potato,burger,7.59,8.03,0.4399999999999995,mashed potato,13,13,13.0,True,u,12254,521,1669833818013,521,,HRV,HRV_0195,2022-11-30 18:46:08
7,"[{'imgObject': {}, 'id': 'banana', 'src': '/static/foodstim60/banana.jpg', 'key': 'u', 'origWidth': 410, 'origHeight': 410, 'width': 410, 'height': 410, 'widthPercent': 0.45, 'rescaleHeight': False, 'trialN': 7, 'loaded': True, 'loadedTime': 5042, 'positionName': 'LEFT', 'positionCoords': [245.68, 179], 'bid': 3.06}, {'imgObject': {}, 'id': 'hotdog w must', 'src': '/static/foodstim60/hotdog w must.jpg', 'key': 'i', 'origWidth': 409, 'origHeight': 409, 'width': 409, 'height': 409, 'widthPercent': 0.45, 'rescaleHeight': False, 'trialN': 7, 'loaded': True, 'loadedTime': 4978, 'positionName': 'RIGHT', 'positionCoords': [710.32, 179.5], 'bid': 4.5600000000000005}]",12254,1669833818013,banana,hotdog w must,3.06,4.5600000000000005,1.5000000000000004,hotdog w must,22,22,22.0,True,i,12784,530,1669833818543,530,,HRV,HRV_0195,2022-11-30 18:46:08
8,"[{'imgObject': {}, 'id': 'apple slices', 'src': '/static/foodstim60/apple slices.jpg', 'key': 'u', 'origWidth': 409, 'origHeight': 410, 'width': 409, 'height': 410, 'widthPercent': 0.45, 'rescaleHeight': False, 'trialN': 8, 'loaded': True, 'loadedTime': 5095, 'positionName': 'LEFT', 'positionCoords': [246.68, 179], 'bid': 3.34}, {'imgObject': {}, 'id': 'cocktailshrimp', 'src': '/static/foodstim60/cocktailshrimp.jpg', 'key': 'i', 'origWidth': 410, 'origHeight': 410, 'width': 410, 'height': 410, 'widthPercent': 0.45, 'rescaleHeight': False, 'trialN': 8, 'loaded': True, 'loadedTime': 5095, 'positionName': 'RIGHT', 'positionCoords': [710.32, 179], 'bid': 0.81}]",12784,1669833818543,apple slices,cocktailshrimp,3.34,0.81,-2.53,apple slices,47,47,47.0,True,u,13335,551,1669833819094,551,,HRV,HRV_0195,2022-11-30 18:46:08
9,"[{'imgObject': {}, 'id': 'burger', 'src': '/static/foodstim60/burger.jpg', 'key': 'u', 'origWidth': 409, 'origHeight': 409, 'width': 409, 'height': 409, 'widthPercent': 0.45, 'rescaleHeight': False, 'trialN': 9, 'loaded': True, 'loadedTime': 5079, 'positionName': 'LEFT', 'positionCoords': [246.68, 179.5], 'bid': 8.03}, {'imgObject': {}, 'id': 'salad w chicken', 'src': '/static/foodstim60/salad w chicken.jpg', 'key': 'i', 'origWidth': 411, 'origHeight': 411, 'width': 411, 'height': 411, 'widthPercent': 0.45, 'rescaleHeight': False, 'trialN': 9, 'loaded': True, 'loadedTime': 5126, 'positionName': 'RIGHT', 'positionCoords': [710.32, 178.5], 'bid': 8.66}]",13335,1669833819094,burger,salad w chicken,8.03,8.66,0.6300000000000008,burger,107,107,107.0,True,u,13968,633,1669833819727,633,,HRV,HRV_0195,2022-11-30 18:46:08
10,"[{'imgObject': {}, 'id': 'froot loops w milk', 'src': '/static/foodstim60/froot loops w milk.jpg', 'key': 'u', 'origWidth': 410, 'origHeight': 410, 'width': 410, 'height': 410, 'widthPercent': 0.45, 'rescaleHeight': False, 'trialN': 10, 'loaded': True, 'loadedTime': 5126, 'positionName': 'LEFT', 'positionCoords': [245.68, 179], 'bid': 5.32}, {'imgObject': {}, 'id': 'yogurt no spoon', 'src': '/static/foodstim60/yogurt no spoon.jpg', 'key': 'i', 'origWidth': 411, 'origHeight': 410, 'width': 411, 'height': 410, 'widthPercent': 0.45, 'rescaleHeight': False, 'trialN': 10, 'loaded': True, 'loadedTime': 5142, 'positionName': 'RIGHT', 'positionCoords': [710.32, 179], 'bid': 5.13}]",13968,1669833819727,froot loops w milk,yogurt no spoon,5.32,5.13,-0.1900000000000004,froot loops w milk,143,143,143.0,True,u,14617,649,1669833820376,649,,HRV,HRV_0195,2022-11-30 18:46:08
11,"[{'imgObject': {}, 'id': 'salad w chicken', 'src': '/static/foodstim60/salad w chicken.jpg', 'key': 'u', 'origWidth': 411, 'origHeight': 411, 'width': 411, 'height': 411, 'widthPercent': 0.45, 'rescaleHeight': False, 'trialN': 11, 'loaded': True, 'loadedTime': 5126, 'positionName': 'LEFT', 'positionCoords': [244.68, 178.5], 'bid': 8.66}, {'imgObject': {}, 'id': 'corn cob', 'src': '/static/foodstim60/corn cob.jpg', 'key': 'i', 'origWidth': 411, 'origHeight': 411, 'width': 411, 'height': 411, 'widthPercent': 0.45, 'rescaleHeight': False, 'trialN': 11, 'loaded': True, 'loadedTime': 5142, 'positionName': 'RIGHT', 'positionCoords': [710.32, 178.5], 'bid': 9.83}]",14617,1669833820376,salad w chicken,corn cob,8.66,9.83,1.17,salad w chicken,128,128,128.0,True,u,15251,634,1669833821010,634,,HRV,HRV_0195,2022-11-30 18:46:08
12,"[{'imgObject': {}, 'id': 'chicken nuggets2', 'src': '/static/foodstim60/chicken nuggets2.jpg', 'key': 'u', 'origWidth': 410, 'origHeight': 409, 'width': 410, 'height': 409, 'widthPercent': 0.45, 'rescaleHeight': False, 'trialN': 12, 'loaded': True, 'loadedTime': 5157, 'positionName': 'LEFT', 'positionCoords': [245.68, 179.5], 'bid': 8.26}, {'imgObject': {}, 'id': 'salad w chicken', 'src': '/static/foodstim60/salad w chicken.jpg', 'key': 'i', 'origWidth': 411, 'origHeight': 411, 'width': 411, 'height': 411, 'widthPercent': 0.45, 'rescaleHeight': False, 'trialN': 12, 'loaded': True, 'loadedTime': 5126, 'positionName': 'RIGHT', 'positionCoords': [710.32, 178.5], 'bid': 8.66}]",15251,1669833821010,chicken nuggets2,salad w chicken,8.26,8.66,0.40000000000000036,chicken nuggets2,131,131,131.0,True,u,15890,639,1669833821649,639,,HRV,HRV_0195,2022-11-30 18:46:08
13,"[{'imgObject': {}, 'id': 'luckycharms', 'src': '/static/foodstim60/luckycharms.jpg', 'key': 'u', 'origWidth': 410, 'origHeight': 409, 'width': 410, 'height': 409, 'widthPercent': 0.45, 'rescaleHeight': False, 'trialN': 13, 'loaded': True, 'loadedTime': 5037, 'positionName': 'LEFT', 'positionCoords': [245.68, 179.5], 'bid': 3.5700000000000003}, {'imgObject': {}, 'id': 'mango', 'src': '/static/foodstim60/mango.jpg', 'key': 'i', 'origWidth': 411, 'origHeight': 411, 'width': 411, 'height': 411, 'widthPercent': 0.45, 'rescaleHeight': False, 'trialN': 13, 'loaded': True, 'loadedTime': 5173, 'positionName': 'RIGHT', 'positionCoords': [710.32, 178.5], 'bid': 5.2700000000000005}]",15890,1669833821649,luckycharms,mango,3.5700000000000003,5.2700000000000005,1.7000000000000002,luckycharms,146,146,146.0,True,u,16551,661,1669833822310,661,,HRV,HRV_0195,2022-11-30 18:46:08
14,"[{'imgObject': {}, 'id': 'pear', 'src': '/static/foodstim60/pear.jpg', 'key': 'u', 'origWidth': 411, 'origHeight': 410, 'width': 411, 'height': 410, 'widthPercent': 0.45, 'rescaleHeight': False, 'trialN': 14, 'loaded': True, 'loadedTime': 4914, 'positionName': 'LEFT', 'positionCoords': [244.68, 179], 'bid': 9.83}, {'imgObject': {}, 'id': 'corn cob', 'src': '/static/foodstim60/corn cob.jpg', 'key': 'i', 'origWidth': 411, 'origHeight': 411, 'width': 411, 'height': 411, 'widthPercent': 0.45, 'rescaleHeight': False, 'trialN': 14, 'loaded': True, 'loadedTime': 5142, 'positionName': 'RIGHT', 'positionCoords': [710.32, 178.5], 'bid': 9.83}]",16551,1669833822310,pear,corn cob,9.83,9.83,0.0,pear,122,122,122.0,True,u,17200,649,1669833822959,649,,HRV,HRV_0195,2022-11-30 18:46:08
15,"[{'imgObject': {}, 'id': 'froot loops w milk', 'src': '/static/foodstim60/froot loops w milk.jpg', 'key': 'u', 'origWidth': 410, 'origHeight': 410, 'width': 410, 'height': 410, 'widthPercent': 0.45, 'rescaleHeight': False, 'trialN': 15, 'loaded': True, 'loadedTime': 5126, 'positionName': 'LEFT', 'positionCoords': [245.68, 179], 'bid': 5.32}, {'imgObject': {}, 'id': 'cherries', 'src': '/static/foodstim60/cherries.jpg', 'key': 'i', 'origWidth': 410, 'origHeight': 411, 'width': 410, 'height': 411, 'widthPercent': 0.45, 'rescaleHeight': False, 'trialN': 15, 'loaded': True, 'loadedTime': 5188, 'positionName': 'RIGHT', 'positionCoords': [710.32, 178.5], 'bid': 7.04}]",17200,1669833822959,froot loops w milk,cherries,5.32,7.04,1.7199999999999998,froot loops w milk,141,141,141.0,True,u,17850,650,1669833823609,650,,HRV,HRV_0195,2022-11-30 18:46:08
16,"[{'imgObject': {}, 'id': 'ice cream sundae 002', 'src': '/static/foodstim60/ice cream sundae 002.jpg', 'key': 'u', 'origWidth': 409, 'origHeight': 409, 'width': 409, 'height': 409, 'widthPercent': 0.45, 'rescaleHeight': False, 'trialN': 16, 'loaded': True, 'loadedTime': 5188, 'positionName': 'LEFT', 'positionCoords': [246.68, 179.5], 'bid': 6.66}, {'imgObject': {}, 'id': 'fruitsalad', 'src': '/static/foodstim60/fruitsalad.jpg', 'key': 'i', 'origWidth': 410, 'origHeight': 410, 'width': 410, 'height': 410, 'widthPercent': 0.45, 'rescaleHeight': False, 'trialN': 16, 'loaded': True, 'loadedTime': 5204, 'positionName': 'RIGHT', 'positionCoords': [710.32, 179], 'bid': 8.17}]",17850,1669833823609,ice cream sundae 002,fruitsalad,6.66,8.17,1.5099999999999998,ice cream sundae 002,126,126,126.0,True,u,18484,634,1669833824243,634,,HRV,HRV_0195,2022-11-30 18:46:08
17,"[{'imgObject': {}, 'id': 'baked potato', 'src': '/static/foodstim60/baked potato.jpg', 'key': 'u', 'origWidth': 409, 'origHeight': 410, 'width': 409, 'height': 410, 'widthPercent': 0.45, 'rescaleHeight': False, 'trialN': 17, 'loaded': True, 'loadedTime': 5204, 'positionName': 'LEFT', 'positionCoords': [246.68, 179], 'bid': 6.99}, {'imgObject': {}, 'id': 'eggs', 'src': '/static/foodstim60/eggs.jpg', 'key': 'i', 'origWidth': 409, 'origHeight': 409, 'width': 409, 'height': 409, 'widthPercent': 0.45, 'rescaleHeight': False, 'trialN': 17, 'loaded': True, 'loadedTime': 5204, 'positionName': 'RIGHT', 'positionCoords': [710.32, 179.5], 'bid': 5.98}]",18484,1669833824243,baked potato,eggs,6.99,5.98,-1.0099999999999998,baked potato,12,13,13.0,True,u,19023,539,1669833824782,539,,HRV,HRV_0195,2022-11-30 18:46:08
18,"[{'imgObject': {}, 'id': 'rigatoni and sauce', 'src': '/static/foodstim60/rigatoni and sauce.jpg', 'key': 'u', 'origWidth': 410, 'origHeight': 411, 'width': 410, 'height': 411, 'widthPercent': 0.45, 'rescaleHeight': False, 'trialN': 18, 'loaded': True, 'loadedTime': 5220, 'positionName': 'LEFT', 'positionCoords': [245.68, 178.5], 'bid': 1.82}, {'imgObject': {}, 'id': 'sushi w_condiments', 'src': '/static/foodstim60/sushi w_condiments.jpg', 'key': 'i', 'origWidth': 410, 'origHeight': 410, 'width': 410, 'height': 410, 'widthPercent': 0.45, 'rescaleHeight': False, 'trialN': 18, 'loaded': True, 'loadedTime': 5251, 'positionName': 'RIGHT', 'positionCoords': [710.32, 179], 'bid': 0.18}]",19023,1669833824782,rigatoni and sauce,sushi w_condiments,1.82,0.18,-1.6400000000000001,rigatoni and sauce,93,93,93.0,True,u,19634,611,1669833825393,611,,HRV,HRV_0195,2022-11-30 18:46:08
19,"[{'imgObject': {}, 'id': 'sweetpotato', 'src': '/static/foodstim60/sweetpotato.jpg', 'key': 'u', 'origWidth': 410, 'origHeight': 410, 'width': 410, 'height': 410, 'widthPercent': 0.45, 'rescaleHeight': False, 'trialN': 19, 'loaded': True, 'loadedTime': 5251, 'positionName': 'LEFT', 'positionCoords': [245.68, 179], 'bid': 7.28}, {'imgObject': {}, 'id': 'granola w milk', 'src': '/static/foodstim60/granola w milk.jpg', 'key': 'i', 'origWidth': 410, 'origHeight': 410, 'width': 410, 'height': 410, 'widthPercent': 0.45, 'rescaleHeight': False, 'trialN': 19, 'loaded': True, 'loadedTime': 5251, 'positionName': 'RIGHT', 'positionCoords': [710.32, 179], 'bid': 7.38}]",19634,1669833825393,sweetpotato,granola w milk,7.28,7.38,0.09999999999999964,sweetpotato,219,219,219.0,True,u,20367,733,1669833826126,733,,HRV,HRV_0195,2022-11-30 18:46:08
20,"[{'imgObject': {}, 'id': 'eggs', 'src': '/static/foodstim60/eggs.jpg', 'key': 'u', 'origWidth': 409, 'origHeight': 409, 'width': 409, 'height': 409, 'widthPercent': 0.45, 'rescaleHeight': False, 'trialN': 20, 'loaded': True, 'loadedTime': 5220, 'positionName': 'LEFT', 'positionCoords': [246.68, 179.5], 'bid': 5.98}, {'imgObject': {}, 'id': 'pear', 'src': '/static/foodstim60/pear.jpg', 'key': 'i', 'origWidth': 411, 'origHeight': 410, 'width': 411, 'height': 410, 'widthPercent': 0.45, 'rescaleHeight': False, 'trialN': 20, 'loaded': True, 'loadedTime': 4914, 'positionName': 'RIGHT', 'positionCoords': [710.32, 179], 'bid': 9.83}]",20367,1669833826126,eggs,pear,5.98,9.83,3.8499999999999996,eggs,296,296,296.0,True,u,21171,804,1669833826930,804,,HRV,HRV_0195,2022-11-30 18:46:08
21,"[{'imgObject': {}, 'id': 'raisin bran w milk', 'src': '/static/foodstim60/raisin bran w milk.jpg', 'key': 'u', 'origWidth': 411, 'origHeight': 411, 'width': 411, 'height': 411, 'widthPercent': 0.45, 'rescaleHeight': False, 'trialN': 21, 'loaded': True, 'loadedTime': 5267, 'positionName': 'LEFT', 'positionCoords': [244.68, 178.5], 'bid': 5.99}, {'imgObject': {}, 'id': 'turkey sandwich', 'src': '/static/foodstim60/turkey sandwich.jpg', 'key': 'i', 'origWidth': 409, 'origHeight': 409, 'width': 409, 'height': 409, 'widthPercent': 0.45, 'rescaleHeight': False, 'trialN': 21, 'loaded': True, 'loadedTime': 5267, 'positionName': 'RIGHT', 'positionCoords': [710.32, 179.5], 'bid': 5.8}]",21171,1669833826930,raisin bran w milk,turkey sandwich,5.99,5.8,-0.1900000000000004,raisin bran w milk,183,183,183.0,True,u,21868,697,1669833827627,697,,HRV,HRV_0195,2022-11-30 18:46:08
22,"[{'imgObject': {}, 'id': 'cherry tomato', 'src': '/static/foodstim60/cherry tomato.jpg', 'key': 'u', 'origWidth': 410, 'origHeight': 410, 'width': 410, 'height': 410, 'widthPercent': 0.45, 'rescaleHeight': False, 'trialN': 22, 'loaded': True, 'loadedTime': 5267, 'positionName': 'LEFT', 'positionCoords': [245.68, 179], 'bid': 6.12}, {'imgObject': {}, 'id': 'cantaloupe', 'src': '/static/foodstim60/cantaloupe.jpg', 'key': 'i', 'origWidth': 409, 'origHeight': 409, 'width': 409, 'height': 409, 'widthPercent': 0.45, 'rescaleHeight': False, 'trialN': 22, 'loaded': True, 'loadedTime': 5282, 'positionName': 'RIGHT', 'positionCoords': [710.32, 179.5], 'bid': 0.25}]",21868,1669833827627,cherry tomato,cantaloupe,6.12,0.25,-5.87,cherry tomato,202,201,202.0,True,u,22583,715,1669833828341,714,,HRV,HRV_0195,2022-11-30 18:46:08
23,"[{'imgObject': {}, 'id': 'salmon', 'src': '/static/foodstim60/salmon.jpg', 'key': 'u', 'origWidth': 410, 'origHeight': 409, 'width': 410, 'height': 409, 'widthPercent': 0.45, 'rescaleHeight': False, 'trialN': 23, 'loaded': True, 'loadedTime': 5282, 'positionName': 'LEFT', 'positionCoords': [245.68, 179.5], 'bid': 0.3}, {'imgObject': {}, 'id': 'cocktailshrimp', 'src': '/static/foodstim60/cocktailshrimp.jpg', 'key': 'i', 'origWidth': 410, 'origHeight': 410, 'width': 410, 'height': 410, 'widthPercent': 0.45, 'rescaleHeight': False, 'trialN': 23, 'loaded': True, 'loadedTime': 5095, 'positionName': 'RIGHT', 'positionCoords': [710.32, 179], 'bid': 0.81}]",22583,1669833828341,salmon,cocktailshrimp,0.3,0.81,0.51,salmon,14,14,14.0,True,u,23101,518,1669833828859,518,,HRV,HRV_0195,2022-11-30 18:46:08
24,"[{'imgObject': {}, 'id': 'veggieswithdip', 'src': '/static/foodstim60/veggieswithdip.jpg', 'key': 'u', 'origWidth': 409, 'origHeight': 409, 'width': 409, 'height': 409, 'widthPercent': 0.45, 'rescaleHeight': False, 'trialN': 24, 'loaded': True, 'loadedTime': 5282, 'positionName': 'LEFT', 'positionCoords': [246.68, 179.5], 'bid': 2.21}, {'imgObject': {}, 'id': 'bagel and cc', 'src': '/static/foodstim60/bagel and cc.jpg', 'key': 'i', 'origWidth': 410, 'origHeight': 410, 'width': 410, 'height': 410, 'widthPercent': 0.45, 'rescaleHeight': False, 'trialN': 24, 'loaded': True, 'loadedTime': 5314, 'positionName': 'RIGHT', 'positionCoords': [710.32, 179], 'bid': 7.09}]",23101,1669833828859,veggieswithdip,bagel and cc,2.21,7.09,4.88,bagel and cc,65,65,65.0,True,i,23669,568,1669833829427,568,,HRV,HRV_0195,2022-11-30 18:46:08
25,"[{'imgObject': {}, 'id': 'baked potato', 'src': '/static/foodstim60/baked potato.jpg', 'key': 'u', 'origWidth': 409, 'origHeight': 410, 'width': 409, 'height': 410, 'widthPercent': 0.45, 'rescaleHeight': False, 'trialN': 25, 'loaded': True, 'loadedTime': 5204, 'positionName': 'LEFT', 'positionCoords': [246.68, 179], 'bid': 6.99}, {'imgObject': {}, 'id': 'chicken nuggets2', 'src': '/static/foodstim60/chicken nuggets2.jpg', 'key': 'i', 'origWidth': 410, 'origHeight': 409, 'width': 410, 'height': 409, 'widthPercent': 0.45, 'rescaleHeight': False, 'trialN': 25, 'loaded': True, 'loadedTime': 5157, 'positionName': 'RIGHT', 'positionCoords': [710.32, 179.5], 'bid': 8.26}]",23669,1669833829427,baked potato,chicken nuggets2,6.99,8.26,1.2699999999999996,baked potato,80,80,80.0,True,u,24252,583,1669833830010,583,,HRV,HRV_0195,2022-11-30 18:46:08
26,"[{'imgObject': {}, 'id': 'corn cob', 'src': '/static/foodstim60/corn cob.jpg', 'key': 'u', 'origWidth': 411, 'origHeight': 411, 'width': 411, 'height': 411, 'widthPercent': 0.45, 'rescaleHeight': False, 'trialN': 26, 'loaded': True, 'loadedTime': 5142, 'positionName': 'LEFT', 'positionCoords': [244.68, 178.5], 'bid': 9.83}, {'imgObject': {}, 'id': 'turkey sandwich', 'src': '/static/foodstim60/turkey sandwich.jpg', 'key': 'i', 'origWidth': 409, 'origHeight': 409, 'width': 409, 'height': 409, 'widthPercent': 0.45, 'rescaleHeight': False, 'trialN': 26, 'loaded': True, 'loadedTime': 5267, 'positionName': 'RIGHT', 'positionCoords': [710.32, 179.5], 'bid': 5.8}]",24252,1669833830010,corn cob,turkey sandwich,9.83,5.8,-4.03,corn cob,170,170,170.0,True,u,24932,680,1669833830690,680,,HRV,HRV_0195,2022-11-30 18:46:08
27,"[{'imgObject': {}, 'id': 'strawberries', 'src': '/static/foodstim60/strawberries.jpg', 'key': 'u', 'origWidth': 410, 'origHeight': 410, 'width': 410, 'height': 410, 'widthPercent': 0.45, 'rescaleHeight': False, 'trialN': 27, 'loaded': True, 'loadedTime': 5314, 'positionName': 'LEFT', 'positionCoords': [245.68, 179], 'bid': 4.13}, {'imgObject': {}, 'id': 'orange slices', 'src': '/static/foodstim60/orange slices.jpg', 'key': 'i', 'origWidth': 409, 'origHeight': 410, 'width': 409, 'height': 410, 'widthPercent': 0.45, 'rescaleHeight': False, 'trialN': 27, 'loaded': True, 'loadedTime': 5314, 'positionName': 'RIGHT', 'positionCoords': [710.32, 179], 'bid': 7.69}]",24932,1669833830690,strawberries,orange slices,4.13,7.69,3.5600000000000005,strawberries,658,658,658.0,True,u,26100,1168,1669833831858,1168,,HRV,HRV_0195,2022-11-30 18:46:08
28,"[{'imgObject': {}, 'id': 'mac & cheese', 'src': '/static/foodstim60/mac & cheese.jpg', 'key': 'u', 'origWidth': 410, 'origHeight': 410, 'width': 410, 'height': 410, 'widthPercent': 0.45, 'rescaleHeight': False, 'trialN': 28, 'loaded': True, 'loadedTime': 5314, 'positionName': 'LEFT', 'positionCoords': [245.68, 179], 'bid': 7.72}, {'imgObject': {}, 'id': 'fried eggs', 'src': '/static/foodstim60/fried eggs.jpg', 'key': 'i', 'origWidth': 410, 'origHeight': 410, 'width': 410, 'height': 410, 'widthPercent': 0.45, 'rescaleHeight': False, 'trialN': 28, 'loaded': True, 'loadedTime': 4914, 'positionName': 'RIGHT', 'positionCoords': [710.32, 179], 'bid': 4.22}]",26100,1669833831858,mac & cheese,fried eggs,7.72,4.22,-3.5,mac & cheese,16,17,17.0,True,u,26633,533,1669833832391,533,,HRV,HRV_0195,2022-11-30 18:46:08
29,"[{'imgObject': {}, 'id': 'shreddedwheatwithmilk', 'src': '/static/foodstim60/shreddedwheatwithmilk.jpg', 'key': 'u', 'origWidth': 410, 'origHeight': 410, 'width': 410, 'height': 410, 'widthPercent': 0.45, 'rescaleHeight': False, 'trialN': 29, 'loaded': True, 'loadedTime': 5314, 'positionName': 'LEFT', 'positionCoords': [245.68, 179], 'bid': 5.07}, {'imgObject': {}, 'id': 'ice cream sundae 002', 'src': '/static/foodstim60/ice cream sundae 002.jpg', 'key': 'i', 'origWidth': 409, 'origHeight': 409, 'width': 409, 'height': 409, 'widthPercent': 0.45, 'rescaleHeight': False, 'trialN': 29, 'loaded': True, 'loadedTime': 5188, 'positionName': 'RIGHT', 'positionCoords': [710.32, 179.5], 'bid': 6.66}]",26633,1669833832391,shreddedwheatwithmilk,ice cream sundae 002,5.07,6.66,1.5899999999999999,ice cream sundae 002,48,48,48.0,True,i,27197,564,1669833832955,564,,HRV,HRV_0195,2022-11-30 18:46:08
30,"[{'imgObject': {}, 'id': 'bagel and cc', 'src': '/static/foodstim60/bagel and cc.jpg', 'key': 'u', 'origWidth': 410, 'origHeight': 410, 'width': 410, 'height': 410, 'widthPercent': 0.45, 'rescaleHeight': False, 'trialN': 30, 'loaded': True, 'loadedTime': 5314, 'positionName': 'LEFT', 'positionCoords': [245.68, 179], 'bid': 7.09}, {'imgObject': {}, 'id': 'blueberries', 'src': '/static/foodstim60/blueberries.jpg', 'key': 'i', 'origWidth': 411, 'origHeight': 411, 'width': 411, 'height': 411, 'widthPercent': 0.45, 'rescaleHeight': False, 'trialN': 30, 'loaded': True, 'loadedTime': 5329, 'positionName': 'RIGHT', 'positionCoords': [710.32, 178.5], 'bid': 5.38}]",27197,1669833832955,bagel and cc,blueberries,7.09,5.38,-1.71,bagel and cc,112,112,112.0,True,u,27816,619,1669833833574,619,,HRV,HRV_0195,2022-11-30 18:46:08
31,"[{'imgObject': {}, 'id': 'rigatoni', 'src': '/static/foodstim60/rigatoni.jpg', 'key': 'u', 'origWidth': 411, 'origHeight': 411, 'width': 411, 'height': 411, 'widthPercent': 0.45, 'rescaleHeight': False, 'trialN': 31, 'loaded': True, 'loadedTime': 4914, 'positionName': 'LEFT', 'positionCoords': [244.68, 178.5], 'bid': 8.89}, {'imgObject': {}, 'id': 'roastedpotatoes', 'src': '/static/foodstim60/roastedpotatoes.jpg', 'key': 'i', 'origWidth': 409, 'origHeight': 410, 'width': 409, 'height': 410, 'widthPercent': 0.45, 'rescaleHeight': False, 'trialN': 31, 'loaded': True, 'loadedTime': 5329, 'positionName': 'RIGHT', 'positionCoords': [710.32, 179], 'bid': 8.06}]",27816,1669833833574,rigatoni,roastedpotatoes,8.89,8.06,-0.8300000000000001,rigatoni,100,100,100.0,True,u,28433,617,1669833834191,617,,HRV,HRV_0195,2022-11-30 18:46:08
32,"[{'imgObject': {}, 'id': 'sushi w_condiments', 'src': '/static/foodstim60/sushi w_condiments.jpg', 'key': 'u', 'origWidth': 410, 'origHeight': 410, 'width': 410, 'height': 410, 'widthPercent': 0.45, 'rescaleHeight': False, 'trialN': 32, 'loaded': True, 'loadedTime': 5235, 'positionName': 'LEFT', 'positionCoords': [245.68, 179], 'bid': 0.18}, {'imgObject': {}, 'id': 'luckycharms', 'src': '/static/foodstim60/luckycharms.jpg', 'key': 'i', 'origWidth': 410, 'origHeight': 409, 'width': 410, 'height': 409, 'widthPercent': 0.45, 'rescaleHeight': False, 'trialN': 32, 'loaded': True, 'loadedTime': 5032, 'positionName': 'RIGHT', 'positionCoords': [710.32, 179.5], 'bid': 3.5700000000000003}]",28433,1669833834191,sushi w_condiments,luckycharms,0.18,3.5700000000000003,3.39,sushi w_condiments,63,63,63.0,True,u,29008,575,1669833834766,575,,HRV,HRV_0195,2022-11-30 18:46:08
33,"[{'imgObject': {}, 'id': 'bagel plain', 'src': '/static/foodstim60/bagel plain.jpg', 'key': 'u', 'origWidth': 410, 'origHeight': 410, 'width': 410, 'height': 410, 'widthPercent': 0.45, 'rescaleHeight': False, 'trialN': 33, 'loaded': True, 'loadedTime': 4665, 'positionName': 'LEFT', 'positionCoords': [245.68, 179], 'bid': 1.32}, {'imgObject': {}, 'id': 'omelette', 'src': '/static/foodstim60/omelette.jpg', 'key': 'i', 'origWidth': 410, 'origHeight': 409, 'width': 410, 'height': 409, 'widthPercent': 0.45, 'rescaleHeight': False, 'trialN': 33, 'loaded': True, 'loadedTime': 5329, 'positionName': 'RIGHT', 'positionCoords': [710.32, 179.5], 'bid': 6.72}]",29008,1669833834766,bagel plain,omelette,1.32,6.72,5.3999999999999995,bagel plain,228,228,228.0,True,u,29766,758,1669833835524,758,,HRV,HRV_0195,2022-11-30 18:46:08
34,"[{'imgObject': {}, 'id': 'bagel and cc', 'src': '/static/foodstim60/bagel and cc.jpg', 'key': 'u', 'origWidth': 410, 'origHeight': 410, 'width': 410, 'height': 410, 'widthPercent': 0.45, 'rescaleHeight': False, 'trialN': 34, 'loaded': True, 'loadedTime': 5314, 'positionName': 'LEFT', 'positionCoords': [245.68, 179], 'bid': 7.09}, {'imgObject': {}, 'id': 'orange slices', 'src': '/static/foodstim60/orange slices.jpg', 'key': 'i', 'origWidth': 409, 'origHeight': 410, 'width': 409, 'height': 410, 'widthPercent': 0.45, 'rescaleHeight': False, 'trialN': 34, 'loaded': True, 'loadedTime': 5314, 'positionName': 'RIGHT', 'positionCoords': [710.32, 179], 'bid': 7.69}]",29766,1669833835524,bagel and cc,orange slices,7.09,7.69,0.6000000000000005,bagel and cc,344,344,344.0,True,u,30633,867,1669833836391,867,,HRV,HRV_0195,2022-11-30 18:46:08
35,"[{'imgObject': {}, 'id': 'shreddedwheatwithmilk', 'src': '/static/foodstim60/shreddedwheatwithmilk.jpg', 'key': 'u', 'origWidth': 410, 'origHeight': 410, 'width': 410, 'height': 410, 'widthPercent': 0.45, 'rescaleHeight': False, 'trialN': 35, 'loaded': True, 'loadedTime': 5329, 'positionName': 'LEFT', 'positionCoords': [245.68, 179], 'bid': 5.07}, {'imgObject': {}, 'id': 'chickenfingers', 'src': '/static/foodstim60/chickenfingers.jpg', 'key': 'i', 'origWidth': 410, 'origHeight': 410, 'width': 410, 'height': 410, 'widthPercent': 0.45, 'rescaleHeight': False, 'trialN': 35, 'loaded': True, 'loadedTime': 4696, 'positionName': 'RIGHT', 'positionCoords': [710.32, 179], 'bid': 8.48}]",30633,1669833836391,shreddedwheatwithmilk,chickenfingers,5.07,8.48,3.41,shreddedwheatwithmilk,438,454,454.0,True,u,31600,967,1669833837358,967,,HRV,HRV_0195,2022-11-30 18:46:08
36,"[{'imgObject': {}, 'id': 'pear', 'src': '/static/foodstim60/pear.jpg', 'key': 'u', 'origWidth': 411, 'origHeight': 410, 'width': 411, 'height': 410, 'widthPercent': 0.45, 'rescaleHeight': False, 'trialN': 36, 'loaded': True, 'loadedTime': 4930, 'positionName': 'LEFT', 'positionCoords': [244.68, 179], 'bid': 9.83}, {'imgObject': {}, 'id': 'chickenfingers', 'src': '/static/foodstim60/chickenfingers.jpg', 'key': 'i', 'origWidth': 410, 'origHeight': 410, 'width': 410, 'height': 410, 'widthPercent': 0.45, 'rescaleHeight': False, 'trialN': 36, 'loaded': True, 'loadedTime': 4696, 'positionName': 'RIGHT', 'positionCoords': [710.32, 179], 'bid': 8.48}]",31600,1669833837358,pear,chickenfingers,9.83,8.48,-1.3499999999999996,chickenfingers,47,47,47.0,True,i,32166,566,1669833837924,566,,HRV,HRV_0195,2022-11-30 18:46:08
37,"[{'imgObject': {}, 'id': 'Tribe humus pita', 'src': '/static/foodstim60/Tribe humus pita.jpg', 'key': 'u', 'origWidth': 411, 'origHeight': 411, 'width': 411, 'height': 411, 'widthPercent': 0.45, 'rescaleHeight': False, 'trialN': 37, 'loaded': True, 'loadedTime': 4743, 'positionName': 'LEFT', 'positionCoords': [244.68, 178.5], 'bid': 1.61}, {'imgObject': {}, 'id': 'bagel plain', 'src': '/static/foodstim60/bagel plain.jpg', 'key': 'i', 'origWidth': 410, 'origHeight': 410, 'width': 410, 'height': 410, 'widthPercent': 0.45, 'rescaleHeight': False, 'trialN': 37, 'loaded': True, 'loadedTime': 4640, 'positionName': 'RIGHT', 'positionCoords': [710.32, 179], 'bid': 1.32}]",32166,1669833837924,Tribe humus pita,bagel plain,1.61,1.32,-0.29000000000000004,bagel plain,10,11,11.0,True,i,32699,533,1669833838457,533,,HRV,HRV_0195,2022-11-30 18:46:08
38,"[{'imgObject': {}, 'id': 'steak', 'src': '/static/foodstim60/steak.jpg', 'key': 'u', 'origWidth': 410, 'origHeight': 410, 'width': 410, 'height': 410, 'widthPercent': 0.45, 'rescaleHeight': False, 'trialN': 38, 'loaded': True, 'loadedTime': 4743, 'positionName': 'LEFT', 'positionCoords': [245.68, 179], 'bid': 4.22}, {'imgObject': {}, 'id': 'strawberries', 'src': '/static/foodstim60/strawberries.jpg', 'key': 'i', 'origWidth': 410, 'origHeight': 410, 'width': 410, 'height': 410, 'widthPercent': 0.45, 'rescaleHeight': False, 'trialN': 38, 'loaded': True, 'loadedTime': 5314, 'positionName': 'RIGHT', 'positionCoords': [710.32, 179], 'bid': 4.13}]",32699,1669833838457,steak,strawberries,4.22,4.13,-0.08999999999999986,steak,95,95,95.0,True,u,33300,601,1669833839058,601,,HRV,HRV_0195,2022-11-30 18:46:08
39,"[{'imgObject': {}, 'id': 'eggsalad', 'src': '/static/foodstim60/eggsalad.jpg', 'key': 'u', 'origWidth': 410, 'origHeight': 409, 'width': 410, 'height': 409, 'widthPercent': 0.45, 'rescaleHeight': False, 'trialN': 39, 'loaded': True, 'loadedTime': 4930, 'positionName': 'LEFT', 'positionCoords': [245.68, 179.5], 'bid': 4.45}, {'imgObject': {}, 'id': 'avocado', 'src': '/static/foodstim60/avocado.jpg', 'key': 'i', 'origWidth': 409, 'origHeight': 409, 'width': 409, 'height': 409, 'widthPercent': 0.45, 'rescaleHeight': False, 'trialN': 39, 'loaded': True, 'loadedTime': 4759, 'positionName': 'RIGHT', 'positionCoords': [710.32, 179.5], 'bid': 4.53}]",33300,1669833839058,eggsalad,avocado,4.45,4.53,0.08000000000000007,eggsalad,296,296,296.0,True,u,34115,815,1669833839873,815,,HRV,HRV_0195,2022-11-30 18:46:08
40,"[{'imgObject': {}, 'id': 'mango', 'src': '/static/foodstim60/mango.jpg', 'key': 'u', 'origWidth': 411, 'origHeight': 411, 'width': 411, 'height': 411, 'widthPercent': 0.45, 'rescaleHeight': False, 'trialN': 40, 'loaded': True, 'loadedTime': 5157, 'positionName': 'LEFT', 'positionCoords': [244.68, 178.5], 'bid': 5.2700000000000005}, {'imgObject': {}, 'id': 'yogurt no spoon', 'src': '/static/foodstim60/yogurt no spoon.jpg', 'key': 'i', 'origWidth': 411, 'origHeight': 410, 'width': 411, 'height': 410, 'widthPercent': 0.45, 'rescaleHeight': False, 'trialN': 40, 'loaded': True, 'loadedTime': 5142, 'positionName': 'RIGHT', 'positionCoords': [710.32, 179], 'bid': 5.13}]",34115,1669833839873,mango,yogurt no spoon,5.2700000000000005,5.13,-0.14000000000000057,mango,94,94,94.0,True,u,34733,618,1669833840491,618,,HRV,HRV_0195,2022-11-30 18:46:08
41,"[{'imgObject': {}, 'id': 'omelette', 'src': '/static/foodstim60/omelette.jpg', 'key': 'u', 'origWidth': 410, 'origHeight': 409, 'width': 410, 'height': 409, 'widthPercent': 0.45, 'rescaleHeight': False, 'trialN': 41, 'loaded': True, 'loadedTime': 5329, 'positionName': 'LEFT', 'positionCoords': [245.68, 179.5], 'bid': 6.72}, {'imgObject': {}, 'id': 'baked potato', 'src': '/static/foodstim60/baked potato.jpg', 'key': 'i', 'origWidth': 409, 'origHeight': 410, 'width': 409, 'height': 410, 'widthPercent': 0.45, 'rescaleHeight': False, 'trialN': 41, 'loaded': True, 'loadedTime': 5204, 'positionName': 'RIGHT', 'positionCoords': [710.32, 179], 'bid': 6.99}]",34733,1669833840491,omelette,baked potato,6.72,6.99,0.27000000000000046,omelette,10,11,11.0,True,u,35251,518,1669833841009,518,,HRV,HRV_0195,2022-11-30 18:46:08
42,"[{'imgObject': {}, 'id': 'corn cob', 'src': '/static/foodstim60/corn cob.jpg', 'key': 'u', 'origWidth': 411, 'origHeight': 411, 'width': 411, 'height': 411, 'widthPercent': 0.45, 'rescaleHeight': False, 'trialN': 42, 'loaded': True, 'loadedTime': 5142, 'positionName': 'LEFT', 'positionCoords': [244.68, 178.5], 'bid': 9.83}, {'imgObject': {}, 'id': 'lox', 'src': '/static/foodstim60/lox.jpg', 'key': 'i', 'origWidth': 410, 'origHeight': 411, 'width': 410, 'height': 411, 'widthPercent': 0.45, 'rescaleHeight': False, 'trialN': 42, 'loaded': True, 'loadedTime': 4790, 'positionName': 'RIGHT', 'positionCoords': [710.32, 178.5], 'bid': 8.46}]",35251,1669833841009,corn cob,lox,9.83,8.46,-1.3699999999999992,corn cob,405,405,405.0,True,u,36165,914,1669833841923,914,,HRV,HRV_0195,2022-11-30 18:46:08
43,"[{'imgObject': {}, 'id': 'strawberries', 'src': '/static/foodstim60/strawberries.jpg', 'key': 'u', 'origWidth': 410, 'origHeight': 410, 'width': 410, 'height': 410, 'widthPercent': 0.45, 'rescaleHeight': False, 'trialN': 43, 'loaded': True, 'loadedTime': 5314, 'positionName': 'LEFT', 'positionCoords': [245.68, 179], 'bid': 4.13}, {'imgObject': {}, 'id': 'kiwi', 'src': '/static/foodstim60/kiwi.jpg', 'key': 'i', 'origWidth': 410, 'origHeight': 410, 'width': 410, 'height': 410, 'widthPercent': 0.45, 'rescaleHeight': False, 'trialN': 43, 'loaded': True, 'loadedTime': 4790, 'positionName': 'RIGHT', 'positionCoords': [710.32, 179], 'bid': 4.75}]",36165,1669833841923,strawberries,kiwi,4.13,4.75,0.6200000000000001,strawberries,393,393,393.0,True,u,37067,902,1669833842825,902,,HRV,HRV_0195,2022-11-30 18:46:08
44,"[{'imgObject': {}, 'id': 'Tribe humus pita', 'src': '/static/foodstim60/Tribe humus pita.jpg', 'key': 'u', 'origWidth': 411, 'origHeight': 411, 'width': 411, 'height': 411, 'widthPercent': 0.45, 'rescaleHeight': False, 'trialN': 44, 'loaded': True, 'loadedTime': 4712, 'positionName': 'LEFT', 'positionCoords': [244.68, 178.5], 'bid': 1.61}, {'imgObject': {}, 'id': 'veggieswithdip', 'src': '/static/foodstim60/veggieswithdip.jpg', 'key': 'i', 'origWidth': 409, 'origHeight': 409, 'width': 409, 'height': 409, 'widthPercent': 0.45, 'rescaleHeight': False, 'trialN': 44, 'loaded': True, 'loadedTime': 5298, 'positionName': 'RIGHT', 'positionCoords': [710.32, 179.5], 'bid': 2.21}]",37067,1669833842825,Tribe humus pita,veggieswithdip,1.61,2.21,0.5999999999999999,Tribe humus pita,206,206,206.0,True,u,37782,715,1669833843540,715,,HRV,HRV_0195,2022-11-30 18:46:08
45,"[{'imgObject': {}, 'id': 'cheerios', 'src': '/static/foodstim60/cheerios.jpg', 'key': 'u', 'origWidth': 409, 'origHeight': 410, 'width': 409, 'height': 410, 'widthPercent': 0.45, 'rescaleHeight': False, 'trialN': 45, 'loaded': True, 'loadedTime': 4806, 'positionName': 'LEFT', 'positionCoords': [246.68, 179], 'bid': 8.33}, {'imgObject': {}, 'id': 'rigatoni', 'src': '/static/foodstim60/rigatoni.jpg', 'key': 'i', 'origWidth': 411, 'origHeight': 411, 'width': 411, 'height': 411, 'widthPercent': 0.45, 'rescaleHeight': False, 'trialN': 45, 'loaded': True, 'loadedTime': 4914, 'positionName': 'RIGHT', 'positionCoords': [710.32, 178.5], 'bid': 8.89}]",37782,1669833843540,cheerios,rigatoni,8.33,8.89,0.5600000000000005,cheerios,34,34,34.0,True,u,38333,551,1669833844091,551,,HRV,HRV_0195,2022-11-30 18:46:08
46,"[{'imgObject': {}, 'id': 'Tribe humus pita', 'src': '/static/foodstim60/Tribe humus pita.jpg', 'key': 'u', 'origWidth': 411, 'origHeight': 411, 'width': 411, 'height': 411, 'widthPercent': 0.45, 'rescaleHeight': False, 'trialN': 46, 'loaded': True, 'loadedTime': 4743, 'positionName': 'LEFT', 'positionCoords': [244.68, 178.5], 'bid': 1.61}, {'imgObject': {}, 'id': 'baked potato', 'src': '/static/foodstim60/baked potato.jpg', 'key': 'i', 'origWidth': 409, 'origHeight': 410, 'width': 409, 'height': 410, 'widthPercent': 0.45, 'rescaleHeight': False, 'trialN': 46, 'loaded': True, 'loadedTime': 5204, 'positionName': 'RIGHT', 'positionCoords': [710.32, 179], 'bid': 6.99}]",38333,1669833844091,Tribe humus pita,baked potato,1.61,6.99,5.38,Tribe humus pita,186,186,186.0,True,u,39033,700,1669833844791,700,,HRV,HRV_0195,2022-11-30 18:46:08
47,"[{'imgObject': {}, 'id': 'yogurt no spoon', 'src': '/static/foodstim60/yogurt no spoon.jpg', 'key': 'u', 'origWidth': 411, 'origHeight': 410, 'width': 411, 'height': 410, 'widthPercent': 0.45, 'rescaleHeight': False, 'trialN': 47, 'loaded': True, 'loadedTime': 5142, 'positionName': 'LEFT', 'positionCoords': [244.68, 179], 'bid': 5.13}, {'imgObject': {}, 'id': 'raisin bran w milk', 'src': '/static/foodstim60/raisin bran w milk.jpg', 'key': 'i', 'origWidth': 411, 'origHeight': 411, 'width': 411, 'height': 411, 'widthPercent': 0.45, 'rescaleHeight': False, 'trialN': 47, 'loaded': True, 'loadedTime': 5267, 'positionName': 'RIGHT', 'positionCoords': [710.32, 178.5], 'bid': 5.99}]",39033,1669833844791,yogurt no spoon,raisin bran w milk,5.13,5.99,0.8600000000000003,raisin bran w milk,430,430,430.0,True,i,39986,953,1669833845744,953,,HRV,HRV_0195,2022-11-30 18:46:08
48,"[{'imgObject': {}, 'id': 'blackbeanswithrice', 'src': '/static/foodstim60/blackbeanswithrice.jpg', 'key': 'u', 'origWidth': 410, 'origHeight': 410, 'width': 410, 'height': 410, 'widthPercent': 0.45, 'rescaleHeight': False, 'trialN': 48, 'loaded': True, 'loadedTime': 4821, 'positionName': 'LEFT', 'positionCoords': [245.68, 179], 'bid': 7.79}, {'imgObject': {}, 'id': 'raisin bran w milk', 'src': '/static/foodstim60/raisin bran w milk.jpg', 'key': 'i', 'origWidth': 411, 'origHeight': 411, 'width': 411, 'height': 411, 'widthPercent': 0.45, 'rescaleHeight': False, 'trialN': 48, 'loaded': True, 'loadedTime': 5267, 'positionName': 'RIGHT', 'positionCoords': [710.32, 178.5], 'bid': 5.99}]",39986,1669833845744,blackbeanswithrice,raisin bran w milk,7.79,5.99,-1.7999999999999998,blackbeanswithrice,356,371,371.0,True,u,40866,880,1669833846624,880,,HRV,HRV_0195,2022-11-30 18:46:08
49,"[{'imgObject': {}, 'id': 'bagel plain', 'src': '/static/foodstim60/bagel plain.jpg', 'key': 'u', 'origWidth': 410, 'origHeight': 410, 'width': 410, 'height': 410, 'widthPercent': 0.45, 'rescaleHeight': False, 'trialN': 49, 'loaded': True, 'loadedTime': 4681, 'positionName': 'LEFT', 'positionCoords': [245.68, 179], 'bid': 1.32}, {'imgObject': {}, 'id': 'kiwi', 'src': '/static/foodstim60/kiwi.jpg', 'key': 'i', 'origWidth': 410, 'origHeight': 410, 'width': 410, 'height': 410, 'widthPercent': 0.45, 'rescaleHeight': False, 'trialN': 49, 'loaded': True, 'loadedTime': 4806, 'positionName': 'RIGHT', 'positionCoords': [710.32, 179], 'bid': 4.75}]",40866,1669833846624,bagel plain,kiwi,1.32,4.75,3.4299999999999997,bagel plain,440,440,440.0,True,u,41816,950,1669833847574,950,,HRV,HRV_0195,2022-11-30 18:46:08
50,"[{'imgObject': {}, 'id': 'banana', 'src': '/static/foodstim60/banana.jpg', 'key': 'u', 'origWidth': 410, 'origHeight': 410, 'width': 410, 'height': 410, 'widthPercent': 0.45, 'rescaleHeight': False, 'trialN': 50, 'loaded': True, 'loadedTime': 5047, 'positionName': 'LEFT', 'positionCoords': [245.68, 179], 'bid': 3.06}, {'imgObject': {}, 'id': 'salmon', 'src': '/static/foodstim60/salmon.jpg', 'key': 'i', 'origWidth': 410, 'origHeight': 409, 'width': 410, 'height': 409, 'widthPercent': 0.45, 'rescaleHeight': False, 'trialN': 50, 'loaded': True, 'loadedTime': 5282, 'positionName': 'RIGHT', 'positionCoords': [710.32, 179.5], 'bid': 0.3}]",41816,1669833847574,banana,salmon,3.06,0.3,-2.7600000000000002,banana,1686,1686,1686.0,True,u,44016,2200,1669833849774,2200,,HRV,HRV_0195,2022-11-30 18:46:08
51,"[{'imgObject': {}, 'id': 'raisin bran w milk', 'src': '/static/foodstim60/raisin bran w milk.jpg', 'key': 'u', 'origWidth': 411, 'origHeight': 411, 'width': 411, 'height': 411, 'widthPercent': 0.45, 'rescaleHeight': False, 'trialN': 51, 'loaded': True, 'loadedTime': 5267, 'positionName': 'LEFT', 'positionCoords': [244.68, 178.5], 'bid': 5.99}, {'imgObject': {}, 'id': 'sushi w_condiments', 'src': '/static/foodstim60/sushi w_condiments.jpg', 'key': 'i', 'origWidth': 410, 'origHeight': 410, 'width': 410, 'height': 410, 'widthPercent': 0.45, 'rescaleHeight': False, 'trialN': 51, 'loaded': True, 'loadedTime': 5251, 'positionName': 'RIGHT', 'positionCoords': [710.32, 179], 'bid': 0.18}]",44016,1669833849774,raisin bran w milk,sushi w_condiments,5.99,0.18,-5.8100000000000005,raisin bran w milk,12,13,13.0,True,u,44544,528,1669833850302,528,,HRV,HRV_0195,2022-11-30 18:46:08
52,"[{'imgObject': {}, 'id': 'seaweed', 'src': '/static/foodstim60/seaweed.jpg', 'key': 'u', 'origWidth': 410, 'origHeight': 410, 'width': 410, 'height': 410, 'widthPercent': 0.45, 'rescaleHeight': False, 'trialN': 52, 'loaded': True, 'loadedTime': 4853, 'positionName': 'LEFT', 'positionCoords': [245.68, 179], 'bid': 5.04}, {'imgObject': {}, 'id': 'burrito', 'src': '/static/foodstim60/burrito.jpg', 'key': 'i', 'origWidth': 410, 'origHeight': 410, 'width': 410, 'height': 410, 'widthPercent': 0.45, 'rescaleHeight': False, 'trialN': 52, 'loaded': True, 'loadedTime': 4862, 'positionName': 'RIGHT', 'positionCoords': [710.32, 179], 'bid': 4.75}]",44544,1669833850302,seaweed,burrito,5.04,4.75,-0.29000000000000004,seaweed,12,13,13.0,True,u,45067,523,1669833850825,523,,HRV,HRV_0195,2022-11-30 18:46:08
53,"[{'imgObject': {}, 'id': 'banana', 'src': '/static/foodstim60/banana.jpg', 'key': 'u', 'origWidth': 410, 'origHeight': 410, 'width': 410, 'height': 410, 'widthPercent': 0.45, 'rescaleHeight': False, 'trialN': 53, 'loaded': True, 'loadedTime': 5040, 'positionName': 'LEFT', 'positionCoords': [245.68, 179], 'bid': 3.06}, {'imgObject': {}, 'id': 'sweetpotato', 'src': '/static/foodstim60/sweetpotato.jpg', 'key': 'i', 'origWidth': 410, 'origHeight': 410, 'width': 410, 'height': 410, 'widthPercent': 0.45, 'rescaleHeight': False, 'trialN': 53, 'loaded': True, 'loadedTime': 5251, 'positionName': 'RIGHT', 'positionCoords': [710.32, 179], 'bid': 7.28}]",45067,1669833850825,banana,sweetpotato,3.06,7.28,4.220000000000001,sweetpotato,20,20,20.0,True,i,45609,542,1669833851367,542,,HRV,HRV_0195,2022-11-30 18:46:08
54,"[{'imgObject': {}, 'id': 'blackbeanswithrice', 'src': '/static/foodstim60/blackbeanswithrice.jpg', 'key': 'u', 'origWidth': 410, 'origHeight': 410, 'width': 410, 'height': 410, 'widthPercent': 0.45, 'rescaleHeight': False, 'trialN': 54, 'loaded': True, 'loadedTime': 4837, 'positionName': 'LEFT', 'positionCoords': [245.68, 179], 'bid': 7.79}, {'imgObject': {}, 'id': 'steak', 'src': '/static/foodstim60/steak.jpg', 'key': 'i', 'origWidth': 410, 'origHeight': 410, 'width': 410, 'height': 410, 'widthPercent': 0.45, 'rescaleHeight': False, 'trialN': 54, 'loaded': True, 'loadedTime': 4743, 'positionName': 'RIGHT', 'positionCoords': [710.32, 179], 'bid': 4.22}]",45609,1669833851367,blackbeanswithrice,steak,7.79,4.22,-3.5700000000000003,blackbeanswithrice,47,47,47.0,True,u,46165,556,1669833851923,556,,HRV,HRV_0195,2022-11-30 18:46:08
55,"[{'imgObject': {}, 'id': 'grilled chicken strips', 'src': '/static/foodstim60/grilled chicken strips.jpg', 'key': 'u', 'origWidth': 410, 'origHeight': 411, 'width': 410, 'height': 411, 'widthPercent': 0.45, 'rescaleHeight': False, 'trialN': 55, 'loaded': True, 'loadedTime': 4867, 'positionName': 'LEFT', 'positionCoords': [245.68, 178.5], 'bid': 6.21}, {'imgObject': {}, 'id': 'omelette', 'src': '/static/foodstim60/omelette.jpg', 'key': 'i', 'origWidth': 410, 'origHeight': 409, 'width': 410, 'height': 409, 'widthPercent': 0.45, 'rescaleHeight': False, 'trialN': 55, 'loaded': True, 'loadedTime': 5329, 'positionName': 'RIGHT', 'positionCoords': [710.32, 179.5], 'bid': 6.72}]",46165,1669833851923,grilled chicken strips,omelette,6.21,6.72,0.5099999999999998,grilled chicken strips,115,115,115.0,True,u,46799,634,1669833852557,634,,HRV,HRV_0195,2022-11-30 18:46:08
56,"[{'imgObject': {}, 'id': 'cheerios', 'src': '/static/foodstim60/cheerios.jpg', 'key': 'u', 'origWidth': 409, 'origHeight': 410, 'width': 409, 'height': 410, 'widthPercent': 0.45, 'rescaleHeight': False, 'trialN': 56, 'loaded': True, 'loadedTime': 4806, 'positionName': 'LEFT', 'positionCoords': [246.68, 179], 'bid': 8.33}, {'imgObject': {}, 'id': 'chicken nuggets2', 'src': '/static/foodstim60/chicken nuggets2.jpg', 'key': 'i', 'origWidth': 410, 'origHeight': 409, 'width': 410, 'height': 409, 'widthPercent': 0.45, 'rescaleHeight': False, 'trialN': 56, 'loaded': True, 'loadedTime': 5157, 'positionName': 'RIGHT', 'positionCoords': [710.32, 179.5], 'bid': 8.26}]",46799,1669833852557,cheerios,chicken nuggets2,8.33,8.26,-0.07000000000000028,chicken nuggets2,37,38,38.0,True,i,47349,550,1669833853107,550,,HRV,HRV_0195,2022-11-30 18:46:08
57,"[{'imgObject': {}, 'id': 'grilled chicken strips', 'src': '/static/foodstim60/grilled chicken strips.jpg', 'key': 'u', 'origWidth': 410, 'origHeight': 411, 'width': 410, 'height': 411, 'widthPercent': 0.45, 'rescaleHeight': False, 'trialN': 57, 'loaded': True, 'loadedTime': 4867, 'positionName': 'LEFT', 'positionCoords': [245.68, 178.5], 'bid': 6.21}, {'imgObject': {}, 'id': 'ice cream sundae 002', 'src': '/static/foodstim60/ice cream sundae 002.jpg', 'key': 'i', 'origWidth': 409, 'origHeight': 409, 'width': 409, 'height': 409, 'widthPercent': 0.45, 'rescaleHeight': False, 'trialN': 57, 'loaded': True, 'loadedTime': 5188, 'positionName': 'RIGHT', 'positionCoords': [710.32, 179.5], 'bid': 6.66}]",47349,1669833853107,grilled chicken strips,ice cream sundae 002,6.21,6.66,0.4500000000000002,ice cream sundae 002,63,63,63.0,True,i,47932,583,1669833853690,583,,HRV,HRV_0195,2022-11-30 18:46:08
58,"[{'imgObject': {}, 'id': 'cherry tomato', 'src': '/static/foodstim60/cherry tomato.jpg', 'key': 'u', 'origWidth': 410, 'origHeight': 410, 'width': 410, 'height': 410, 'widthPercent': 0.45, 'rescaleHeight': False, 'trialN': 58, 'loaded': True, 'loadedTime': 5282, 'positionName': 'LEFT', 'positionCoords': [245.68, 179], 'bid': 6.12}, {'imgObject': {}, 'id': 'raspberries', 'src': '/static/foodstim60/raspberries.jpg', 'key': 'i', 'origWidth': 411, 'origHeight': 411, 'width': 411, 'height': 411, 'widthPercent': 0.45, 'rescaleHeight': False, 'trialN': 58, 'loaded': True, 'loadedTime': 4883, 'positionName': 'RIGHT', 'positionCoords': [710.32, 178.5], 'bid': 4.97}]",47932,1669833853690,cherry tomato,raspberries,6.12,4.97,-1.1500000000000004,cherry tomato,64,64,64.0,True,u,48515,583,1669833854273,583,,HRV,HRV_0195,2022-11-30 18:46:08
59,"[{'imgObject': {}, 'id': 'blueberries', 'src': '/static/foodstim60/blueberries.jpg', 'key': 'u', 'origWidth': 411, 'origHeight': 411, 'width': 411, 'height': 411, 'widthPercent': 0.45, 'rescaleHeight': False, 'trialN': 59, 'loaded': True, 'loadedTime': 5329, 'positionName': 'LEFT', 'positionCoords': [244.68, 178.5], 'bid': 5.38}, {'imgObject': {}, 'id': 'ice cream sundae 002', 'src': '/static/foodstim60/ice cream sundae 002.jpg', 'key': 'i', 'origWidth': 409, 'origHeight': 409, 'width': 409, 'height': 409, 'widthPercent': 0.45, 'rescaleHeight': False, 'trialN': 59, 'loaded': True, 'loadedTime': 5188, 'positionName': 'RIGHT', 'positionCoords': [710.32, 179.5], 'bid': 6.66}]",48515,1669833854273,blueberries,ice cream sundae 002,5.38,6.66,1.2800000000000002,blueberries,110,110,110.0,True,u,49147,632,1669833854905,632,,HRV,HRV_0195,2022-11-30 18:46:08
60,"[{'imgObject': {}, 'id': 'raspberries', 'src': '/static/foodstim60/raspberries.jpg', 'key': 'u', 'origWidth': 411, 'origHeight': 411, 'width': 411, 'height': 411, 'widthPercent': 0.45, 'rescaleHeight': False, 'trialN': 60, 'loaded': True, 'loadedTime': 4867, 'positionName': 'LEFT', 'positionCoords': [244.68, 178.5], 'bid': 4.97}, {'imgObject': {}, 'id': 'rigatoni and sauce', 'src': '/static/foodstim60/rigatoni and sauce.jpg', 'key': 'i', 'origWidth': 410, 'origHeight': 411, 'width': 410, 'height': 411, 'widthPercent': 0.45, 'rescaleHeight': False, 'trialN': 60, 'loaded': True, 'loadedTime': 5220, 'positionName': 'RIGHT', 'positionCoords': [710.32, 178.5], 'bid': 1.82}]",49147,1669833854905,raspberries,rigatoni and sauce,4.97,1.82,-3.1499999999999995,raspberries,335,335,335.0,True,u,49999,852,1669833855757,852,,HRV,HRV_0195,2022-11-30 18:46:08
61,"[{'imgObject': {}, 'id': 'cherries', 'src': '/static/foodstim60/cherries.jpg', 'key': 'u', 'origWidth': 410, 'origHeight': 411, 'width': 410, 'height': 411, 'widthPercent': 0.45, 'rescaleHeight': False, 'trialN': 61, 'loaded': True, 'loadedTime': 5188, 'positionName': 'LEFT', 'positionCoords': [245.68, 178.5], 'bid': 7.04}, {'imgObject': {}, 'id': 'turkeysandwich', 'src': '/static/foodstim60/turkeysandwich.jpg', 'key': 'i', 'origWidth': 409, 'origHeight': 409, 'width': 409, 'height': 409, 'widthPercent': 0.45, 'rescaleHeight': False, 'trialN': 61, 'loaded': True, 'loadedTime': 4964, 'positionName': 'RIGHT', 'positionCoords': [710.32, 179.5], 'bid': 7.62}]",49999,1669833855757,cherries,turkeysandwich,7.04,7.62,0.5800000000000001,turkeysandwich,220,220,220.0,True,i,50735,736,1669833856493,736,,HRV,HRV_0195,2022-11-30 18:46:08
62,"[{'imgObject': {}, 'id': 'turkey sandwich', 'src': '/static/foodstim60/turkey sandwich.jpg', 'key': 'u', 'origWidth': 409, 'origHeight': 409, 'width': 409, 'height': 409, 'widthPercent': 0.45, 'rescaleHeight': False, 'trialN': 62, 'loaded': True, 'loadedTime': 5267, 'positionName': 'LEFT', 'positionCoords': [246.68, 179.5], 'bid': 5.8}, {'imgObject': {}, 'id': 'omelette', 'src': '/static/foodstim60/omelette.jpg', 'key': 'i', 'origWidth': 410, 'origHeight': 409, 'width': 410, 'height': 409, 'widthPercent': 0.45, 'rescaleHeight': False, 'trialN': 62, 'loaded': True, 'loadedTime': 5329, 'positionName': 'RIGHT', 'positionCoords': [710.32, 179.5], 'bid': 6.72}]",50735,1669833856493,turkey sandwich,omelette,5.8,6.72,0.9199999999999999,omelette,342,342,342.0,True,i,51599,864,1669833857357,864,,HRV,HRV_0195,2022-11-30 18:46:08
63,"[{'imgObject': {}, 'id': 'froot loops w milk', 'src': '/static/foodstim60/froot loops w milk.jpg', 'key': 'u', 'origWidth': 410, 'origHeight': 410, 'width': 410, 'height': 410, 'widthPercent': 0.45, 'rescaleHeight': False, 'trialN': 63, 'loaded': True, 'loadedTime': 5126, 'positionName': 'LEFT', 'positionCoords': [245.68, 179], 'bid': 5.32}, {'imgObject': {}, 'id': 'blueberries', 'src': '/static/foodstim60/blueberries.jpg', 'key': 'i', 'origWidth': 411, 'origHeight': 411, 'width': 411, 'height': 411, 'widthPercent': 0.45, 'rescaleHeight': False, 'trialN': 63, 'loaded': True, 'loadedTime': 5329, 'positionName': 'RIGHT', 'positionCoords': [710.32, 178.5], 'bid': 5.38}]",51599,1669833857357,froot loops w milk,blueberries,5.32,5.38,0.05999999999999961,froot loops w milk,93,93,93.0,True,u,52199,600,1669833857957,600,,HRV,HRV_0195,2022-11-30 18:46:08
64,"[{'imgObject': {}, 'id': 'avocado', 'src': '/static/foodstim60/avocado.jpg', 'key': 'u', 'origWidth': 409, 'origHeight': 409, 'width': 409, 'height': 409, 'widthPercent': 0.45, 'rescaleHeight': False, 'trialN': 64, 'loaded': True, 'loadedTime': 4759, 'positionName': 'LEFT', 'positionCoords': [246.68, 179.5], 'bid': 4.53}, {'imgObject': {}, 'id': 'kiwi', 'src': '/static/foodstim60/kiwi.jpg', 'key': 'i', 'origWidth': 410, 'origHeight': 410, 'width': 410, 'height': 410, 'widthPercent': 0.45, 'rescaleHeight': False, 'trialN': 64, 'loaded': True, 'loadedTime': 4790, 'positionName': 'RIGHT', 'positionCoords': [710.32, 179], 'bid': 4.75}]",52199,1669833857957,avocado,kiwi,4.53,4.75,0.21999999999999975,avocado,921,921,921.0,True,u,53632,1433,1669833859390,1433,,HRV,HRV_0195,2022-11-30 18:46:08
65,"[{'imgObject': {}, 'id': 'olives', 'src': '/static/foodstim60/olives.jpg', 'key': 'u', 'origWidth': 410, 'origHeight': 410, 'width': 410, 'height': 410, 'widthPercent': 0.45, 'rescaleHeight': False, 'trialN': 65, 'loaded': True, 'loadedTime': 4983, 'positionName': 'LEFT', 'positionCoords': [245.68, 179], 'bid': 7.6}, {'imgObject': {}, 'id': 'cheerios', 'src': '/static/foodstim60/cheerios.jpg', 'key': 'i', 'origWidth': 409, 'origHeight': 410, 'width': 409, 'height': 410, 'widthPercent': 0.45, 'rescaleHeight': False, 'trialN': 65, 'loaded': True, 'loadedTime': 4806, 'positionName': 'RIGHT', 'positionCoords': [710.32, 179], 'bid': 8.33}]",53632,1669833859390,olives,cheerios,7.6,8.33,0.7300000000000004,olives,204,204,204.0,True,u,54349,717,1669833860107,717,,HRV,HRV_0195,2022-11-30 18:46:08
66,"[{'imgObject': {}, 'id': 'cocktailshrimp', 'src': '/static/foodstim60/cocktailshrimp.jpg', 'key': 'u', 'origWidth': 410, 'origHeight': 410, 'width': 410, 'height': 410, 'widthPercent': 0.45, 'rescaleHeight': False, 'trialN': 66, 'loaded': True, 'loadedTime': 5095, 'positionName': 'LEFT', 'positionCoords': [245.68, 179], 'bid': 0.81}, {'imgObject': {}, 'id': 'cantaloupe', 'src': '/static/foodstim60/cantaloupe.jpg', 'key': 'i', 'origWidth': 409, 'origHeight': 409, 'width': 409, 'height': 409, 'widthPercent': 0.45, 'rescaleHeight': False, 'trialN': 66, 'loaded': True, 'loadedTime': 5282, 'positionName': 'RIGHT', 'positionCoords': [710.32, 179.5], 'bid': 0.25}]",54349,1669833860107,cocktailshrimp,cantaloupe,0.81,0.25,-0.56,cocktailshrimp,58,58,58.0,True,u,54917,568,1669833860675,568,,HRV,HRV_0195,2022-11-30 18:46:08
67,"[{'imgObject': {}, 'id': 'cherries', 'src': '/static/foodstim60/cherries.jpg', 'key': 'u', 'origWidth': 410, 'origHeight': 411, 'width': 410, 'height': 411, 'widthPercent': 0.45, 'rescaleHeight': False, 'trialN': 67, 'loaded': True, 'loadedTime': 5188, 'positionName': 'LEFT', 'positionCoords': [245.68, 178.5], 'bid': 7.04}, {'imgObject': {}, 'id': 'bagel and cc', 'src': '/static/foodstim60/bagel and cc.jpg', 'key': 'i', 'origWidth': 410, 'origHeight': 410, 'width': 410, 'height': 410, 'widthPercent': 0.45, 'rescaleHeight': False, 'trialN': 67, 'loaded': True, 'loadedTime': 5314, 'positionName': 'RIGHT', 'positionCoords': [710.32, 179], 'bid': 7.09}]",54917,1669833860675,cherries,bagel and cc,7.04,7.09,0.04999999999999982,cherries,20,20,20.0,True,u,55449,532,1669833861207,532,,HRV,HRV_0195,2022-11-30 18:46:08
68,"[{'imgObject': {}, 'id': 'popsicles', 'src': '/static/foodstim60/popsicles.jpg', 'key': 'u', 'origWidth': 410, 'origHeight': 410, 'width': 410, 'height': 410, 'widthPercent': 0.45, 'rescaleHeight': False, 'trialN': 68, 'loaded': True, 'loadedTime': 6824, 'positionName': 'LEFT', 'positionCoords': [245.68, 179], 'bid': 8.58}, {'imgObject': {}, 'id': 'edamame', 'src': '/static/foodstim60/edamame.jpg', 'key': 'i', 'origWidth': 409, 'origHeight': 410, 'width': 409, 'height': 410, 'widthPercent': 0.45, 'rescaleHeight': False, 'trialN': 68, 'loaded': True, 'loadedTime': 5063, 'positionName': 'RIGHT', 'positionCoords': [710.32, 179], 'bid': 8.61}]",55449,1669833861207,popsicles,edamame,8.58,8.61,0.02999999999999936,popsicles,113,113,113.0,True,u,56082,633,1669833861840,633,,HRV,HRV_0195,2022-11-30 18:46:08
69,"[{'imgObject': {}, 'id': 'turkey sandwich', 'src': '/static/foodstim60/turkey sandwich.jpg', 'key': 'u', 'origWidth': 409, 'origHeight': 409, 'width': 409, 'height': 409, 'widthPercent': 0.45, 'rescaleHeight': False, 'trialN': 69, 'loaded': True, 'loadedTime': 5267, 'positionName': 'LEFT', 'positionCoords': [246.68, 179.5], 'bid': 5.8}, {'imgObject': {}, 'id': 'strawberries', 'src': '/static/foodstim60/strawberries.jpg', 'key': 'i', 'origWidth': 410, 'origHeight': 410, 'width': 410, 'height': 410, 'widthPercent': 0.45, 'rescaleHeight': False, 'trialN': 69, 'loaded': True, 'loadedTime': 5314, 'positionName': 'RIGHT', 'positionCoords': [710.32, 179], 'bid': 4.13}]",56082,1669833861840,turkey sandwich,strawberries,5.8,4.13,-1.67,turkey sandwich,80,80,80.0,True,u,56683,601,1669833862441,601,,HRV,HRV_0195,2022-11-30 18:46:08
70,"[{'imgObject': {}, 'id': 'fried eggs', 'src': '/static/foodstim60/fried eggs.jpg', 'key': 'u', 'origWidth': 410, 'origHeight': 410, 'width': 410, 'height': 410, 'widthPercent': 0.45, 'rescaleHeight': False, 'trialN': 70, 'loaded': True, 'loadedTime': 4898, 'positionName': 'LEFT', 'positionCoords': [245.68, 179], 'bid': 4.22}, {'imgObject': {}, 'id': 'burrito', 'src': '/static/foodstim60/burrito.jpg', 'key': 'i', 'origWidth': 410, 'origHeight': 410, 'width': 410, 'height': 410, 'widthPercent': 0.45, 'rescaleHeight': False, 'trialN': 70, 'loaded': True, 'loadedTime': 4863, 'positionName': 'RIGHT', 'positionCoords': [710.32, 179], 'bid': 4.75}]",56683,1669833862441,fried eggs,burrito,4.22,4.75,0.5300000000000002,fried eggs,235,235,235.0,True,u,57432,749,1669833863190,749,,HRV,HRV_0195,2022-11-30 18:46:08
71,"[{'imgObject': {}, 'id': 'fruitsalad', 'src': '/static/foodstim60/fruitsalad.jpg', 'key': 'u', 'origWidth': 410, 'origHeight': 410, 'width': 410, 'height': 410, 'widthPercent': 0.45, 'rescaleHeight': False, 'trialN': 71, 'loaded': True, 'loadedTime': 5204, 'positionName': 'LEFT', 'positionCoords': [245.68, 179], 'bid': 8.17}, {'imgObject': {}, 'id': 'hotdog w must', 'src': '/static/foodstim60/hotdog w must.jpg', 'key': 'i', 'origWidth': 409, 'origHeight': 409, 'width': 409, 'height': 409, 'widthPercent': 0.45, 'rescaleHeight': False, 'trialN': 71, 'loaded': True, 'loadedTime': 4976, 'positionName': 'RIGHT', 'positionCoords': [710.32, 179.5], 'bid': 4.5600000000000005}]",57432,1669833863190,fruitsalad,hotdog w must,8.17,4.5600000000000005,-3.6099999999999994,hotdog w must,11,12,12.0,True,i,57950,518,1669833863708,518,,HRV,HRV_0195,2022-11-30 18:46:08
72,"[{'imgObject': {}, 'id': 'orange slices', 'src': '/static/foodstim60/orange slices.jpg', 'key': 'u', 'origWidth': 409, 'origHeight': 410, 'width': 409, 'height': 410, 'widthPercent': 0.45, 'rescaleHeight': False, 'trialN': 72, 'loaded': True, 'loadedTime': 5314, 'positionName': 'LEFT', 'positionCoords': [246.68, 179], 'bid': 7.69}, {'imgObject': {}, 'id': 'turkeysandwich', 'src': '/static/foodstim60/turkeysandwich.jpg', 'key': 'i', 'origWidth': 409, 'origHeight': 409, 'width': 409, 'height': 409, 'widthPercent': 0.45, 'rescaleHeight': False, 'trialN': 72, 'loaded': True, 'loadedTime': 4968, 'positionName': 'RIGHT', 'positionCoords': [710.32, 179.5], 'bid': 7.62}]",57950,1669833863708,orange slices,turkeysandwich,7.69,7.62,-0.07000000000000028,orange slices,46,46,46.0,True,u,58499,549,1669833864257,549,,HRV,HRV_0195,2022-11-30 18:46:08
73,"[{'imgObject': {}, 'id': 'grilled chicken strips', 'src': '/static/foodstim60/grilled chicken strips.jpg', 'key': 'u', 'origWidth': 410, 'origHeight': 411, 'width': 410, 'height': 411, 'widthPercent': 0.45, 'rescaleHeight': False, 'trialN': 73, 'loaded': True, 'loadedTime': 4867, 'positionName': 'LEFT', 'positionCoords': [245.68, 178.5], 'bid': 6.21}, {'imgObject': {}, 'id': 'roastedpotatoes', 'src': '/static/foodstim60/roastedpotatoes.jpg', 'key': 'i', 'origWidth': 409, 'origHeight': 410, 'width': 409, 'height': 410, 'widthPercent': 0.45, 'rescaleHeight': False, 'trialN': 73, 'loaded': True, 'loadedTime': 5329, 'positionName': 'RIGHT', 'positionCoords': [710.32, 179], 'bid': 8.06}]",58499,1669833864257,grilled chicken strips,roastedpotatoes,6.21,8.06,1.8500000000000005,roastedpotatoes,219,219,219.0,True,i,59233,734,1669833864991,734,,HRV,HRV_0195,2022-11-30 18:46:08
74,"[{'imgObject': {}, 'id': 'seaweed', 'src': '/static/foodstim60/seaweed.jpg', 'key': 'u', 'origWidth': 410, 'origHeight': 410, 'width': 410, 'height': 410, 'widthPercent': 0.45, 'rescaleHeight': False, 'trialN': 74, 'loaded': True, 'loadedTime': 4856, 'positionName': 'LEFT', 'positionCoords': [245.68, 179], 'bid': 5.04}, {'imgObject': {}, 'id': 'grilled chicken strips', 'src': '/static/foodstim60/grilled chicken strips.jpg', 'key': 'i', 'origWidth': 410, 'origHeight': 411, 'width': 410, 'height': 411, 'widthPercent': 0.45, 'rescaleHeight': False, 'trialN': 74, 'loaded': True, 'loadedTime': 4867, 'positionName': 'RIGHT', 'positionCoords': [710.32, 178.5], 'bid': 6.21}]",59233,1669833864991,seaweed,grilled chicken strips,5.04,6.21,1.17,seaweed,351,351,351.0,True,u,60100,867,1669833865858,867,,HRV,HRV_0195,2022-11-30 18:46:08
75,"[{'imgObject': {}, 'id': 'turkey sandwich', 'src': '/static/foodstim60/turkey sandwich.jpg', 'key': 'u', 'origWidth': 409, 'origHeight': 409, 'width': 409, 'height': 409, 'widthPercent': 0.45, 'rescaleHeight': False, 'trialN': 75, 'loaded': True, 'loadedTime': 5267, 'positionName': 'LEFT', 'positionCoords': [246.68, 179.5], 'bid': 5.8}, {'imgObject': {}, 'id': 'eggs', 'src': '/static/foodstim60/eggs.jpg', 'key': 'i', 'origWidth': 409, 'origHeight': 409, 'width': 409, 'height': 409, 'widthPercent': 0.45, 'rescaleHeight': False, 'trialN': 75, 'loaded': True, 'loadedTime': 5204, 'positionName': 'RIGHT', 'positionCoords': [710.32, 179.5], 'bid': 5.98}]",60100,1669833865858,turkey sandwich,eggs,5.8,5.98,0.1800000000000006,eggs,26,26,26.0,True,i,60632,532,1669833866390,532,,HRV,HRV_0195,2022-11-30 18:46:08
76,"[{'imgObject': {}, 'id': 'mango', 'src': '/static/foodstim60/mango.jpg', 'key': 'u', 'origWidth': 411, 'origHeight': 411, 'width': 411, 'height': 411, 'widthPercent': 0.45, 'rescaleHeight': False, 'trialN': 76, 'loaded': True, 'loadedTime': 5173, 'positionName': 'LEFT', 'positionCoords': [244.68, 178.5], 'bid': 5.2700000000000005}, {'imgObject': {}, 'id': 'baked potato', 'src': '/static/foodstim60/baked potato.jpg', 'key': 'i', 'origWidth': 409, 'origHeight': 410, 'width': 409, 'height': 410, 'widthPercent': 0.45, 'rescaleHeight': False, 'trialN': 76, 'loaded': True, 'loadedTime': 5204, 'positionName': 'RIGHT', 'positionCoords': [710.32, 179], 'bid': 6.99}]",60632,1669833866390,mango,baked potato,5.2700000000000005,6.99,1.7199999999999998,mango,173,173,173.0,True,u,61332,700,1669833867090,700,,HRV,HRV_0195,2022-11-30 18:46:08
77,"[{'imgObject': {}, 'id': 'salad w chicken', 'src': '/static/foodstim60/salad w chicken.jpg', 'key': 'u', 'origWidth': 411, 'origHeight': 411, 'width': 411, 'height': 411, 'widthPercent': 0.45, 'rescaleHeight': False, 'trialN': 77, 'loaded': True, 'loadedTime': 5126, 'positionName': 'LEFT', 'positionCoords': [244.68, 178.5], 'bid': 8.66}, {'imgObject': {}, 'id': 'rigatoni', 'src': '/static/foodstim60/rigatoni.jpg', 'key': 'i', 'origWidth': 411, 'origHeight': 411, 'width': 411, 'height': 411, 'widthPercent': 0.45, 'rescaleHeight': False, 'trialN': 77, 'loaded': True, 'loadedTime': 4914, 'positionName': 'RIGHT', 'positionCoords': [710.32, 178.5], 'bid': 8.89}]",61332,1669833867090,salad w chicken,rigatoni,8.66,8.89,0.23000000000000043,salad w chicken,660,660,660.0,True,u,62500,1168,1669833868258,1168,,HRV,HRV_0195,2022-11-30 18:46:08
78,"[{'imgObject': {}, 'id': 'fruitsalad', 'src': '/static/foodstim60/fruitsalad.jpg', 'key': 'u', 'origWidth': 410, 'origHeight': 410, 'width': 410, 'height': 410, 'widthPercent': 0.45, 'rescaleHeight': False, 'trialN': 78, 'loaded': True, 'loadedTime': 5204, 'positionName': 'LEFT', 'positionCoords': [245.68, 179], 'bid': 8.17}, {'imgObject': {}, 'id': 'hashbrowns', 'src': '/static/foodstim60/hashbrowns.jpg', 'key': 'i', 'origWidth': 411, 'origHeight': 410, 'width': 411, 'height': 410, 'widthPercent': 0.45, 'rescaleHeight': False, 'trialN': 78, 'loaded': True, 'loadedTime': 5063, 'positionName': 'RIGHT', 'positionCoords': [710.32, 179], 'bid': 8.25}]",62500,1669833868258,fruitsalad,hashbrowns,8.17,8.25,0.08000000000000007,fruitsalad,296,296,296.0,True,u,63314,814,1669833869072,814,,HRV,HRV_0195,2022-11-30 18:46:08
79,"[{'imgObject': {}, 'id': 'mango', 'src': '/static/foodstim60/mango.jpg', 'key': 'u', 'origWidth': 411, 'origHeight': 411, 'width': 411, 'height': 411, 'widthPercent': 0.45, 'rescaleHeight': False, 'trialN': 79, 'loaded': True, 'loadedTime': 5157, 'positionName': 'LEFT', 'positionCoords': [244.68, 178.5], 'bid': 5.2700000000000005}, {'imgObject': {}, 'id': 'blueberries', 'src': '/static/foodstim60/blueberries.jpg', 'key': 'i', 'origWidth': 411, 'origHeight': 411, 'width': 411, 'height': 411, 'widthPercent': 0.45, 'rescaleHeight': False, 'trialN': 79, 'loaded': True, 'loadedTime': 5329, 'positionName': 'RIGHT', 'positionCoords': [710.32, 178.5], 'bid': 5.38}]",63314,1669833869072,mango,blueberries,5.2700000000000005,5.38,0.10999999999999943,blueberries,254,254,254.0,True,i,64098,784,1669833869856,784,,HRV,HRV_0195,2022-11-30 18:46:08
80,"[{'imgObject': {}, 'id': 'baked potato', 'src': '/static/foodstim60/baked potato.jpg', 'key': 'u', 'origWidth': 409, 'origHeight': 410, 'width': 409, 'height': 410, 'widthPercent': 0.45, 'rescaleHeight': False, 'trialN': 80, 'loaded': True, 'loadedTime': 5204, 'positionName': 'LEFT', 'positionCoords': [246.68, 179], 'bid': 6.99}, {'imgObject': {}, 'id': 'ice cream sundae 002', 'src': '/static/foodstim60/ice cream sundae 002.jpg', 'key': 'i', 'origWidth': 409, 'origHeight': 409, 'width': 409, 'height': 409, 'widthPercent': 0.45, 'rescaleHeight': False, 'trialN': 80, 'loaded': True, 'loadedTime': 5188, 'positionName': 'RIGHT', 'positionCoords': [710.32, 179.5], 'bid': 6.66}]",64098,1669833869856,baked potato,ice cream sundae 002,6.99,6.66,-0.33000000000000007,ice cream sundae 002,882,882,882.0,True,i,65498,1400,1669833871256,1400,,HRV,HRV_0195,2022-11-30 18:46:08
81,"[{'imgObject': {}, 'id': 'edamame', 'src': '/static/foodstim60/edamame.jpg', 'key': 'u', 'origWidth': 409, 'origHeight': 410, 'width': 409, 'height': 410, 'widthPercent': 0.45, 'rescaleHeight': False, 'trialN': 81, 'loaded': True, 'loadedTime': 5055, 'positionName': 'LEFT', 'positionCoords': [246.68, 179], 'bid': 8.61}, {'imgObject': {}, 'id': 'blackbeanswithrice', 'src': '/static/foodstim60/blackbeanswithrice.jpg', 'key': 'i', 'origWidth': 410, 'origHeight': 410, 'width': 410, 'height': 410, 'widthPercent': 0.45, 'rescaleHeight': False, 'trialN': 81, 'loaded': True, 'loadedTime': 4821, 'positionName': 'RIGHT', 'positionCoords': [710.32, 179], 'bid': 7.79}]",65498,1669833871256,edamame,blackbeanswithrice,8.61,7.79,-0.8199999999999994,edamame,49,49,49.0,True,u,66065,567,1669833871823,567,,HRV,HRV_0195,2022-11-30 18:46:08
82,"[{'imgObject': {}, 'id': 'veggieswithdip', 'src': '/static/foodstim60/veggieswithdip.jpg', 'key': 'u', 'origWidth': 409, 'origHeight': 409, 'width': 409, 'height': 409, 'widthPercent': 0.45, 'rescaleHeight': False, 'trialN': 82, 'loaded': True, 'loadedTime': 5282, 'positionName': 'LEFT', 'positionCoords': [246.68, 179.5], 'bid': 2.21}, {'imgObject': {}, 'id': 'cantaloupe', 'src': '/static/foodstim60/cantaloupe.jpg', 'key': 'i', 'origWidth': 409, 'origHeight': 409, 'width': 409, 'height': 409, 'widthPercent': 0.45, 'rescaleHeight': False, 'trialN': 82, 'loaded': True, 'loadedTime': 5282, 'positionName': 'RIGHT', 'positionCoords': [710.32, 179.5], 'bid': 0.25}]",66065,1669833871823,veggieswithdip,cantaloupe,2.21,0.25,-1.96,veggieswithdip,61,62,62.0,True,u,66635,570,1669833872393,570,,HRV,HRV_0195,2022-11-30 18:46:08
83,"[{'imgObject': {}, 'id': 'seaweed', 'src': '/static/foodstim60/seaweed.jpg', 'key': 'u', 'origWidth': 410, 'origHeight': 410, 'width': 410, 'height': 410, 'widthPercent': 0.45, 'rescaleHeight': False, 'trialN': 83, 'loaded': True, 'loadedTime': 4858, 'positionName': 'LEFT', 'positionCoords': [245.68, 179], 'bid': 5.04}, {'imgObject': {}, 'id': 'veggieswithdip', 'src': '/static/foodstim60/veggieswithdip.jpg', 'key': 'i', 'origWidth': 409, 'origHeight': 409, 'width': 409, 'height': 409, 'widthPercent': 0.45, 'rescaleHeight': False, 'trialN': 83, 'loaded': True, 'loadedTime': 5298, 'positionName': 'RIGHT', 'positionCoords': [710.32, 179.5], 'bid': 2.21}]",66635,1669833872393,seaweed,veggieswithdip,5.04,2.21,-2.83,veggieswithdip,44,44,44.0,True,i,67182,547,1669833872940,547,,HRV,HRV_0195,2022-11-30 18:46:08
84,"[{'imgObject': {}, 'id': 'sushi w_condiments', 'src': '/static/foodstim60/sushi w_condiments.jpg', 'key': 'u', 'origWidth': 410, 'origHeight': 410, 'width': 410, 'height': 410, 'widthPercent': 0.45, 'rescaleHeight': False, 'trialN': 84, 'loaded': True, 'loadedTime': 5235, 'positionName': 'LEFT', 'positionCoords': [245.68, 179], 'bid': 0.18}, {'imgObject': {}, 'id': 'cantaloupe', 'src': '/static/foodstim60/cantaloupe.jpg', 'key': 'i', 'origWidth': 409, 'origHeight': 409, 'width': 409, 'height': 409, 'widthPercent': 0.45, 'rescaleHeight': False, 'trialN': 84, 'loaded': True, 'loadedTime': 5282, 'positionName': 'RIGHT', 'positionCoords': [710.32, 179.5], 'bid': 0.25}]",67182,1669833872940,sushi w_condiments,cantaloupe,0.18,0.25,0.07,sushi w_condiments,391,391,391.0,True,u,68097,915,1669833873855,915,,HRV,HRV_0195,2022-11-30 18:46:08
85,"[{'imgObject': {}, 'id': 'cocktailshrimp', 'src': '/static/foodstim60/cocktailshrimp.jpg', 'key': 'u', 'origWidth': 410, 'origHeight': 410, 'width': 410, 'height': 410, 'widthPercent': 0.45, 'rescaleHeight': False, 'trialN': 85, 'loaded': True, 'loadedTime': 5095, 'positionName': 'LEFT', 'positionCoords': [245.68, 179], 'bid': 0.81}, {'imgObject': {}, 'id': 'ice cream sundae 002', 'src': '/static/foodstim60/ice cream sundae 002.jpg', 'key': 'i', 'origWidth': 409, 'origHeight': 409, 'width': 409, 'height': 409, 'widthPercent': 0.45, 'rescaleHeight': False, 'trialN': 85, 'loaded': True, 'loadedTime': 5188, 'positionName': 'RIGHT', 'positionCoords': [710.32, 179.5], 'bid': 6.66}]",68097,1669833873855,cocktailshrimp,ice cream sundae 002,0.81,6.66,5.85,cocktailshrimp,39,39,39.0,True,u,68649,552,1669833874407,552,,HRV,HRV_0195,2022-11-30 18:46:08
86,"[{'imgObject': {}, 'id': 'steak', 'src': '/static/foodstim60/steak.jpg', 'key': 'u', 'origWidth': 410, 'origHeight': 410, 'width': 410, 'height': 410, 'widthPercent': 0.45, 'rescaleHeight': False, 'trialN': 86, 'loaded': True, 'loadedTime': 4743, 'positionName': 'LEFT', 'positionCoords': [245.68, 179], 'bid': 4.22}, {'imgObject': {}, 'id': 'raspberries', 'src': '/static/foodstim60/raspberries.jpg', 'key': 'i', 'origWidth': 411, 'origHeight': 411, 'width': 411, 'height': 411, 'widthPercent': 0.45, 'rescaleHeight': False, 'trialN': 86, 'loaded': True, 'loadedTime': 4883, 'positionName': 'RIGHT', 'positionCoords': [710.32, 178.5], 'bid': 4.97}]",68649,1669833874407,steak,raspberries,4.22,4.97,0.75,raspberries,78,78,78.0,True,i,69248,599,1669833875006,599,,HRV,HRV_0195,2022-11-30 18:46:08
87,"[{'imgObject': {}, 'id': 'cocktailshrimp', 'src': '/static/foodstim60/cocktailshrimp.jpg', 'key': 'u', 'origWidth': 410, 'origHeight': 410, 'width': 410, 'height': 410, 'widthPercent': 0.45, 'rescaleHeight': False, 'trialN': 87, 'loaded': True, 'loadedTime': 5110, 'positionName': 'LEFT', 'positionCoords': [245.68, 179], 'bid': 0.81}, {'imgObject': {}, 'id': 'hotdog w must', 'src': '/static/foodstim60/hotdog w must.jpg', 'key': 'i', 'origWidth': 409, 'origHeight': 409, 'width': 409, 'height': 409, 'widthPercent': 0.45, 'rescaleHeight': False, 'trialN': 87, 'loaded': True, 'loadedTime': 4972, 'positionName': 'RIGHT', 'positionCoords': [710.32, 179.5], 'bid': 4.5600000000000005}]",69248,1669833875006,cocktailshrimp,hotdog w must,0.81,4.5600000000000005,3.7500000000000004,hotdog w must,19,19,19.0,True,i,69781,533,1669833875539,533,,HRV,HRV_0195,2022-11-30 18:46:08
88,"[{'imgObject': {}, 'id': 'banana', 'src': '/static/foodstim60/banana.jpg', 'key': 'u', 'origWidth': 410, 'origHeight': 410, 'width': 410, 'height': 410, 'widthPercent': 0.45, 'rescaleHeight': False, 'trialN': 88, 'loaded': True, 'loadedTime': 5042, 'positionName': 'LEFT', 'positionCoords': [245.68, 179], 'bid': 3.06}, {'imgObject': {}, 'id': 'shreddedwheatwithmilk', 'src': '/static/foodstim60/shreddedwheatwithmilk.jpg', 'key': 'i', 'origWidth': 410, 'origHeight': 410, 'width': 410, 'height': 410, 'widthPercent': 0.45, 'rescaleHeight': False, 'trialN': 88, 'loaded': True, 'loadedTime': 5329, 'positionName': 'RIGHT', 'positionCoords': [710.32, 179], 'bid': 5.07}]",69781,1669833875539,banana,shreddedwheatwithmilk,3.06,5.07,2.0100000000000002,shreddedwheatwithmilk,45,45,45.0,True,i,70347,566,1669833876105,566,,HRV,HRV_0195,2022-11-30 18:46:08
89,"[{'imgObject': {}, 'id': 'seaweed', 'src': '/static/foodstim60/seaweed.jpg', 'key': 'u', 'origWidth': 410, 'origHeight': 410, 'width': 410, 'height': 410, 'widthPercent': 0.45, 'rescaleHeight': False, 'trialN': 89, 'loaded': True, 'loadedTime': 4837, 'positionName': 'LEFT', 'positionCoords': [245.68, 179], 'bid': 5.04}, {'imgObject': {}, 'id': 'shreddedwheatwithmilk', 'src': '/static/foodstim60/shreddedwheatwithmilk.jpg', 'key': 'i', 'origWidth': 410, 'origHeight': 410, 'width': 410, 'height': 410, 'widthPercent': 0.45, 'rescaleHeight': False, 'trialN': 89, 'loaded': True, 'loadedTime': 5329, 'positionName': 'RIGHT', 'positionCoords': [710.32, 179], 'bid': 5.07}]",70347,1669833876105,seaweed,shreddedwheatwithmilk,5.04,5.07,0.03000000000000025,seaweed,268,268,268.0,True,u,71131,784,1669833876889,784,,HRV,HRV_0195,2022-11-30 18:46:08
90,"[{'imgObject': {}, 'id': 'sweetpotato', 'src': '/static/foodstim60/sweetpotato.jpg', 'key': 'u', 'origWidth': 410, 'origHeight': 410, 'width': 410, 'height': 410, 'widthPercent': 0.45, 'rescaleHeight': False, 'trialN': 90, 'loaded': True, 'loadedTime': 5251, 'positionName': 'LEFT', 'positionCoords': [245.68, 179], 'bid': 7.28}, {'imgObject': {}, 'id': 'chickenfingers', 'src': '/static/foodstim60/chickenfingers.jpg', 'key': 'i', 'origWidth': 410, 'origHeight': 410, 'width': 410, 'height': 410, 'widthPercent': 0.45, 'rescaleHeight': False, 'trialN': 90, 'loaded': True, 'loadedTime': 4712, 'positionName': 'RIGHT', 'positionCoords': [710.32, 179], 'bid': 8.48}]",74597,1669833880355,sweetpotato,chickenfingers,7.28,8.48,1.2000000000000002,sweetpotato,1080,1090,1090.0,True,u,76198,1601,1669833881956,1601,,HRV,HRV_0195,2022-11-30 18:46:08
91,"[{'imgObject': {}, 'id': 'omelette', 'src': '/static/foodstim60/omelette.jpg', 'key': 'u', 'origWidth': 410, 'origHeight': 409, 'width': 410, 'height': 409, 'widthPercent': 0.45, 'rescaleHeight': False, 'trialN': 91, 'loaded': True, 'loadedTime': 5329, 'positionName': 'LEFT', 'positionCoords': [245.68, 179.5], 'bid': 6.72}, {'imgObject': {}, 'id': 'yogurt no spoon', 'src': '/static/foodstim60/yogurt no spoon.jpg', 'key': 'i', 'origWidth': 411, 'origHeight': 410, 'width': 411, 'height': 410, 'widthPercent': 0.45, 'rescaleHeight': False, 'trialN': 91, 'loaded': True, 'loadedTime': 5142, 'positionName': 'RIGHT', 'positionCoords': [710.32, 179], 'bid': 5.13}]",76198,1669833881956,omelette,yogurt no spoon,6.72,5.13,-1.5899999999999999,omelette,187,187,187.0,True,u,76898,700,1669833882656,700,,HRV,HRV_0195,2022-11-30 18:46:08
92,"[{'imgObject': {}, 'id': 'bagel and cc', 'src': '/static/foodstim60/bagel and cc.jpg', 'key': 'u', 'origWidth': 410, 'origHeight': 410, 'width': 410, 'height': 410, 'widthPercent': 0.45, 'rescaleHeight': False, 'trialN': 92, 'loaded': True, 'loadedTime': 5298, 'positionName': 'LEFT', 'positionCoords': [245.68, 179], 'bid': 7.09}, {'imgObject': {}, 'id': 'lox', 'src': '/static/foodstim60/lox.jpg', 'key': 'i', 'origWidth': 410, 'origHeight': 411, 'width': 410, 'height': 411, 'widthPercent': 0.45, 'rescaleHeight': False, 'trialN': 92, 'loaded': True, 'loadedTime': 4759, 'positionName': 'RIGHT', 'positionCoords': [710.32, 178.5], 'bid': 8.46}]",76898,1669833882656,bagel and cc,lox,7.09,8.46,1.370000000000001,bagel and cc,140,140,140.0,True,u,77548,650,1669833883306,650,,HRV,HRV_0195,2022-11-30 18:46:08
93,"[{'imgObject': {}, 'id': 'rigatoni and sauce', 'src': '/static/foodstim60/rigatoni and sauce.jpg', 'key': 'u', 'origWidth': 410, 'origHeight': 411, 'width': 410, 'height': 411, 'widthPercent': 0.45, 'rescaleHeight': False, 'trialN': 93, 'loaded': True, 'loadedTime': 5235, 'positionName': 'LEFT', 'positionCoords': [245.68, 178.5], 'bid': 1.82}, {'imgObject': {}, 'id': 'cherries', 'src': '/static/foodstim60/cherries.jpg', 'key': 'i', 'origWidth': 410, 'origHeight': 411, 'width': 410, 'height': 411, 'widthPercent': 0.45, 'rescaleHeight': False, 'trialN': 93, 'loaded': True, 'loadedTime': 5188, 'positionName': 'RIGHT', 'positionCoords': [710.32, 178.5], 'bid': 7.04}]",77548,1669833883306,rigatoni and sauce,cherries,1.82,7.04,5.22,rigatoni and sauce,1818,1818,1818.0,True,u,79881,2333,1669833885639,2333,,HRV,HRV_0195,2022-11-30 18:46:08
94,"[{'imgObject': {}, 'id': 'luckycharms', 'src': '/static/foodstim60/luckycharms.jpg', 'key': 'u', 'origWidth': 410, 'origHeight': 409, 'width': 410, 'height': 409, 'widthPercent': 0.45, 'rescaleHeight': False, 'trialN': 94, 'loaded': True, 'loadedTime': 5036, 'positionName': 'LEFT', 'positionCoords': [245.68, 179.5], 'bid': 3.5700000000000003}, {'imgObject': {}, 'id': 'bagel plain', 'src': '/static/foodstim60/bagel plain.jpg', 'key': 'i', 'origWidth': 410, 'origHeight': 410, 'width': 410, 'height': 410, 'widthPercent': 0.45, 'rescaleHeight': False, 'trialN': 94, 'loaded': True, 'loadedTime': 4665, 'positionName': 'RIGHT', 'positionCoords': [710.32, 179], 'bid': 1.32}]",79881,1669833885639,luckycharms,bagel plain,3.5700000000000003,1.32,-2.25,luckycharms,273,273,273.0,True,u,80664,783,1669833886422,783,,HRV,HRV_0195,2022-11-30 18:46:08
95,"[{'imgObject': {}, 'id': 'eggs', 'src': '/static/foodstim60/eggs.jpg', 'key': 'u', 'origWidth': 409, 'origHeight': 409, 'width': 409, 'height': 409, 'widthPercent': 0.45, 'rescaleHeight': False, 'trialN': 95, 'loaded': True, 'loadedTime': 5204, 'positionName': 'LEFT', 'positionCoords': [246.68, 179.5], 'bid': 5.98}, {'imgObject': {}, 'id': 'cherry tomato', 'src': '/static/foodstim60/cherry tomato.jpg', 'key': 'i', 'origWidth': 410, 'origHeight': 410, 'width': 410, 'height': 410, 'widthPercent': 0.45, 'rescaleHeight': False, 'trialN': 95, 'loaded': True, 'loadedTime': 5282, 'positionName': 'RIGHT', 'positionCoords': [710.32, 179], 'bid': 6.12}]",80664,1669833886422,eggs,cherry tomato,5.98,6.12,0.13999999999999968,cherry tomato,86,86,86.0,True,i,81263,599,1669833887021,599,,HRV,HRV_0195,2022-11-30 18:46:08
96,"[{'imgObject': {}, 'id': 'salmon', 'src': '/static/foodstim60/salmon.jpg', 'key': 'u', 'origWidth': 410, 'origHeight': 409, 'width': 410, 'height': 409, 'widthPercent': 0.45, 'rescaleHeight': False, 'trialN': 96, 'loaded': True, 'loadedTime': 5282, 'positionName': 'LEFT', 'positionCoords': [245.68, 179.5], 'bid': 0.3}, {'imgObject': {}, 'id': 'sushi w_condiments', 'src': '/static/foodstim60/sushi w_condiments.jpg', 'key': 'i', 'origWidth': 410, 'origHeight': 410, 'width': 410, 'height': 410, 'widthPercent': 0.45, 'rescaleHeight': False, 'trialN': 96, 'loaded': True, 'loadedTime': 5235, 'positionName': 'RIGHT', 'positionCoords': [710.32, 179], 'bid': 0.18}]",81263,1669833887021,salmon,sushi w_condiments,0.3,0.18,-0.12,sushi w_condiments,116,116,116.0,True,i,81900,637,1669833887658,637,,HRV,HRV_0195,2022-11-30 18:46:08
97,"[{'imgObject': {}, 'id': 'Tribe humus pita', 'src': '/static/foodstim60/Tribe humus pita.jpg', 'key': 'u', 'origWidth': 411, 'origHeight': 411, 'width': 411, 'height': 411, 'widthPercent': 0.45, 'rescaleHeight': False, 'trialN': 97, 'loaded': True, 'loadedTime': 4712, 'positionName': 'LEFT', 'positionCoords': [244.68, 178.5], 'bid': 1.61}, {'imgObject': {}, 'id': 'steak', 'src': '/static/foodstim60/steak.jpg', 'key': 'i', 'origWidth': 410, 'origHeight': 410, 'width': 410, 'height': 410, 'widthPercent': 0.45, 'rescaleHeight': False, 'trialN': 97, 'loaded': True, 'loadedTime': 4743, 'positionName': 'RIGHT', 'positionCoords': [710.32, 179], 'bid': 4.22}]",81900,1669833887658,Tribe humus pita,steak,1.61,4.22,2.6099999999999994,steak,91,91,91.0,True,i,82500,600,1669833888258,600,,HRV,HRV_0195,2022-11-30 18:46:08
98,"[{'imgObject': {}, 'id': 'tacos', 'src': '/static/foodstim60/tacos.jpg', 'key': 'u', 'origWidth': 411, 'origHeight': 411, 'width': 411, 'height': 411, 'widthPercent': 0.45, 'rescaleHeight': False, 'trialN': 98, 'loaded': True, 'loadedTime': 5026, 'positionName': 'LEFT', 'positionCoords': [244.68, 178.5], 'bid': 3.79}, {'imgObject': {}, 'id': 'froot loops w milk', 'src': '/static/foodstim60/froot loops w milk.jpg', 'key': 'i', 'origWidth': 410, 'origHeight': 410, 'width': 410, 'height': 410, 'widthPercent': 0.45, 'rescaleHeight': False, 'trialN': 98, 'loaded': True, 'loadedTime': 5126, 'positionName': 'RIGHT', 'positionCoords': [710.32, 179], 'bid': 5.32}]",82500,1669833888258,tacos,froot loops w milk,3.79,5.32,1.5300000000000002,tacos,26,27,27.0,True,u,83046,546,1669833888804,546,,HRV,HRV_0195,2022-11-30 18:46:08
99,"[{'imgObject': {}, 'id': 'mashed potato', 'src': '/static/foodstim60/mashed potato.jpg', 'key': 'u', 'origWidth': 409, 'origHeight': 409, 'width': 409, 'height': 409, 'widthPercent': 0.45, 'rescaleHeight': False, 'trialN': 99, 'loaded': True, 'loadedTime': 5079, 'positionName': 'LEFT', 'positionCoords': [246.68, 179.5], 'bid': 7.59}, {'imgObject': {}, 'id': 'olives', 'src': '/static/foodstim60/olives.jpg', 'key': 'i', 'origWidth': 410, 'origHeight': 410, 'width': 410, 'height': 410, 'widthPercent': 0.45, 'rescaleHeight': False, 'trialN': 99, 'loaded': True, 'loadedTime': 4990, 'positionName': 'RIGHT', 'positionCoords': [710.32, 179], 'bid': 7.6}]",83046,1669833888804,mashed potato,olives,7.59,7.6,0.009999999999999787,mashed potato,80,80,80.0,True,u,83632,586,1669833889390,586,,HRV,HRV_0195,2022-11-30 18:46:08
100,"[{'imgObject': {}, 'id': 'hashbrowns', 'src': '/static/foodstim60/hashbrowns.jpg', 'key': 'u', 'origWidth': 411, 'origHeight': 410, 'width': 411, 'height': 410, 'widthPercent': 0.45, 'rescaleHeight': False, 'trialN': 100, 'loaded': True, 'loadedTime': 5063, 'positionName': 'LEFT', 'positionCoords': [244.68, 179], 'bid': 8.25}, {'imgObject': {}, 'id': 'omelette', 'src': '/static/foodstim60/omelette.jpg', 'key': 'i', 'origWidth': 410, 'origHeight': 409, 'width': 410, 'height': 409, 'widthPercent': 0.45, 'rescaleHeight': False, 'trialN': 100, 'loaded': True, 'loadedTime': 5329, 'positionName': 'RIGHT', 'positionCoords': [710.32, 179.5], 'bid': 6.72}]",83632,1669833889390,hashbrowns,omelette,8.25,6.72,-1.5300000000000002,omelette,11,11,11.0,True,i,84149,517,1669833889907,517,,HRV,HRV_0195,2022-11-30 18:46:08
101,"[{'imgObject': {}, 'id': 'edamame', 'src': '/static/foodstim60/edamame.jpg', 'key': 'u', 'origWidth': 409, 'origHeight': 410, 'width': 409, 'height': 410, 'widthPercent': 0.45, 'rescaleHeight': False, 'trialN': 101, 'loaded': True, 'loadedTime': 5053, 'positionName': 'LEFT', 'positionCoords': [246.68, 179], 'bid': 8.61}, {'imgObject': {}, 'id': 'chickenfingers', 'src': '/static/foodstim60/chickenfingers.jpg', 'key': 'i', 'origWidth': 410, 'origHeight': 410, 'width': 410, 'height': 410, 'widthPercent': 0.45, 'rescaleHeight': False, 'trialN': 101, 'loaded': True, 'loadedTime': 4696, 'positionName': 'RIGHT', 'positionCoords': [710.32, 179], 'bid': 8.48}]",84149,1669833889907,edamame,chickenfingers,8.61,8.48,-0.129999999999999,edamame,17,18,18.0,True,u,84682,533,1669833890440,533,,HRV,HRV_0195,2022-11-30 18:46:08
102,"[{'imgObject': {}, 'id': 'olives', 'src': '/static/foodstim60/olives.jpg', 'key': 'u', 'origWidth': 410, 'origHeight': 410, 'width': 410, 'height': 410, 'widthPercent': 0.45, 'rescaleHeight': False, 'trialN': 102, 'loaded': True, 'loadedTime': 4984, 'positionName': 'LEFT', 'positionCoords': [245.68, 179], 'bid': 7.6}, {'imgObject': {}, 'id': 'orange slices', 'src': '/static/foodstim60/orange slices.jpg', 'key': 'i', 'origWidth': 409, 'origHeight': 410, 'width': 409, 'height': 410, 'widthPercent': 0.45, 'rescaleHeight': False, 'trialN': 102, 'loaded': True, 'loadedTime': 5314, 'positionName': 'RIGHT', 'positionCoords': [710.32, 179], 'bid': 7.69}]",84682,1669833890440,olives,orange slices,7.6,7.69,0.09000000000000075,olives,124,124,124.0,True,u,85315,633,1669833891073,633,,HRV,HRV_0195,2022-11-30 18:46:08
103,"[{'imgObject': {}, 'id': 'granola w milk', 'src': '/static/foodstim60/granola w milk.jpg', 'key': 'u', 'origWidth': 410, 'origHeight': 410, 'width': 410, 'height': 410, 'widthPercent': 0.45, 'rescaleHeight': False, 'trialN': 103, 'loaded': True, 'loadedTime': 5251, 'positionName': 'LEFT', 'positionCoords': [245.68, 179], 'bid': 7.38}, {'imgObject': {}, 'id': 'eggs', 'src': '/static/foodstim60/eggs.jpg', 'key': 'i', 'origWidth': 409, 'origHeight': 409, 'width': 409, 'height': 409, 'widthPercent': 0.45, 'rescaleHeight': False, 'trialN': 103, 'loaded': True, 'loadedTime': 5204, 'positionName': 'RIGHT', 'positionCoords': [710.32, 179.5], 'bid': 5.98}]",85315,1669833891073,granola w milk,eggs,7.38,5.98,-1.3999999999999995,eggs,9,10,10.0,True,i,85835,520,1669833891593,520,,HRV,HRV_0195,2022-11-30 18:46:08
104,"[{'imgObject': {}, 'id': 'orange slices', 'src': '/static/foodstim60/orange slices.jpg', 'key': 'u', 'origWidth': 409, 'origHeight': 410, 'width': 409, 'height': 410, 'widthPercent': 0.45, 'rescaleHeight': False, 'trialN': 104, 'loaded': True, 'loadedTime': 5314, 'positionName': 'LEFT', 'positionCoords': [246.68, 179], 'bid': 7.69}, {'imgObject': {}, 'id': 'corn cob', 'src': '/static/foodstim60/corn cob.jpg', 'key': 'i', 'origWidth': 411, 'origHeight': 411, 'width': 411, 'height': 411, 'widthPercent': 0.45, 'rescaleHeight': False, 'trialN': 104, 'loaded': True, 'loadedTime': 5142, 'positionName': 'RIGHT', 'positionCoords': [710.32, 178.5], 'bid': 9.83}]",85835,1669833891593,orange slices,corn cob,7.69,9.83,2.1399999999999997,orange slices,41,41,41.0,True,u,86382,547,1669833892140,547,,HRV,HRV_0195,2022-11-30 18:46:08
105,"[{'imgObject': {}, 'id': 'burrito', 'src': '/static/foodstim60/burrito.jpg', 'key': 'u', 'origWidth': 410, 'origHeight': 410, 'width': 410, 'height': 410, 'widthPercent': 0.45, 'rescaleHeight': False, 'trialN': 105, 'loaded': True, 'loadedTime': 4863, 'positionName': 'LEFT', 'positionCoords': [245.68, 179], 'bid': 4.75}, {'imgObject': {}, 'id': 'Tribe humus pita', 'src': '/static/foodstim60/Tribe humus pita.jpg', 'key': 'i', 'origWidth': 411, 'origHeight': 411, 'width': 411, 'height': 411, 'widthPercent': 0.45, 'rescaleHeight': False, 'trialN': 105, 'loaded': True, 'loadedTime': 4712, 'positionName': 'RIGHT', 'positionCoords': [710.32, 178.5], 'bid': 1.61}]",86382,1669833892140,burrito,Tribe humus pita,4.75,1.61,-3.1399999999999997,Tribe humus pita,61,61,61.0,True,i,86963,581,1669833892721,581,,HRV,HRV_0195,2022-11-30 18:46:08
106,"[{'imgObject': {}, 'id': 'mashed potato', 'src': '/static/foodstim60/mashed potato.jpg', 'key': 'u', 'origWidth': 409, 'origHeight': 409, 'width': 409, 'height': 409, 'widthPercent': 0.45, 'rescaleHeight': False, 'trialN': 106, 'loaded': True, 'loadedTime': 5079, 'positionName': 'LEFT', 'positionCoords': [246.68, 179.5], 'bid': 7.59}, {'imgObject': {}, 'id': 'edamame', 'src': '/static/foodstim60/edamame.jpg', 'key': 'i', 'origWidth': 409, 'origHeight': 410, 'width': 409, 'height': 410, 'widthPercent': 0.45, 'rescaleHeight': False, 'trialN': 106, 'loaded': True, 'loadedTime': 5049, 'positionName': 'RIGHT', 'positionCoords': [710.32, 179], 'bid': 8.61}]",86963,1669833892721,mashed potato,edamame,7.59,8.61,1.0199999999999996,mashed potato,43,44,44.0,True,u,87515,552,1669833893273,552,,HRV,HRV_0195,2022-11-30 18:46:08
107,"[{'imgObject': {}, 'id': 'corn cob', 'src': '/static/foodstim60/corn cob.jpg', 'key': 'u', 'origWidth': 411, 'origHeight': 411, 'width': 411, 'height': 411, 'widthPercent': 0.45, 'rescaleHeight': False, 'trialN': 107, 'loaded': True, 'loadedTime': 5142, 'positionName': 'LEFT', 'positionCoords': [244.68, 178.5], 'bid': 9.83}, {'imgObject': {}, 'id': 'fruitsalad', 'src': '/static/foodstim60/fruitsalad.jpg', 'key': 'i', 'origWidth': 410, 'origHeight': 410, 'width': 410, 'height': 410, 'widthPercent': 0.45, 'rescaleHeight': False, 'trialN': 107, 'loaded': True, 'loadedTime': 5204, 'positionName': 'RIGHT', 'positionCoords': [710.32, 179], 'bid': 8.17}]",87515,1669833893273,corn cob,fruitsalad,9.83,8.17,-1.6600000000000001,fruitsalad,46,62,62.0,True,i,88088,573,1669833893846,573,,HRV,HRV_0195,2022-11-30 18:46:08
108,"[{'imgObject': {}, 'id': 'bagel plain', 'src': '/static/foodstim60/bagel plain.jpg', 'key': 'u', 'origWidth': 410, 'origHeight': 410, 'width': 410, 'height': 410, 'widthPercent': 0.45, 'rescaleHeight': False, 'trialN': 108, 'loaded': True, 'loadedTime': 4665, 'positionName': 'LEFT', 'positionCoords': [245.68, 179], 'bid': 1.32}, {'imgObject': {}, 'id': 'rigatoni and sauce', 'src': '/static/foodstim60/rigatoni and sauce.jpg', 'key': 'i', 'origWidth': 410, 'origHeight': 411, 'width': 410, 'height': 411, 'widthPercent': 0.45, 'rescaleHeight': False, 'trialN': 108, 'loaded': True, 'loadedTime': 5220, 'positionName': 'RIGHT', 'positionCoords': [710.32, 178.5], 'bid': 1.82}]",88088,1669833893846,bagel plain,rigatoni and sauce,1.32,1.82,0.5,bagel plain,222,222,222.0,True,u,88831,743,1669833894589,743,,HRV,HRV_0195,2022-11-30 18:46:08
109,"[{'imgObject': {}, 'id': 'raisin bran w milk', 'src': '/static/foodstim60/raisin bran w milk.jpg', 'key': 'u', 'origWidth': 411, 'origHeight': 411, 'width': 411, 'height': 411, 'widthPercent': 0.45, 'rescaleHeight': False, 'trialN': 109, 'loaded': True, 'loadedTime': 5267, 'positionName': 'LEFT', 'positionCoords': [244.68, 178.5], 'bid': 5.99}, {'imgObject': {}, 'id': 'cherry tomato', 'src': '/static/foodstim60/cherry tomato.jpg', 'key': 'i', 'origWidth': 410, 'origHeight': 410, 'width': 410, 'height': 410, 'widthPercent': 0.45, 'rescaleHeight': False, 'trialN': 109, 'loaded': True, 'loadedTime': 5282, 'positionName': 'RIGHT', 'positionCoords': [710.32, 179], 'bid': 6.12}]",88831,1669833894589,raisin bran w milk,cherry tomato,5.99,6.12,0.1299999999999999,raisin bran w milk,203,203,203.0,True,u,89546,715,1669833895304,715,,HRV,HRV_0195,2022-11-30 18:46:08
110,"[{'imgObject': {}, 'id': 'popsicles', 'src': '/static/foodstim60/popsicles.jpg', 'key': 'u', 'origWidth': 410, 'origHeight': 410, 'width': 410, 'height': 410, 'widthPercent': 0.45, 'rescaleHeight': False, 'trialN': 110, 'loaded': True, 'loadedTime': 6824, 'positionName': 'LEFT', 'positionCoords': [245.68, 179], 'bid': 8.58}, {'imgObject': {}, 'id': 'granola w milk', 'src': '/static/foodstim60/granola w milk.jpg', 'key': 'i', 'origWidth': 410, 'origHeight': 410, 'width': 410, 'height': 410, 'widthPercent': 0.45, 'rescaleHeight': False, 'trialN': 110, 'loaded': True, 'loadedTime': 5251, 'positionName': 'RIGHT', 'positionCoords': [710.32, 179], 'bid': 7.38}]",89546,1669833895304,popsicles,granola w milk,8.58,7.38,-1.2000000000000002,popsicles,457,457,457.0,True,u,90531,985,1669833896289,985,,HRV,HRV_0195,2022-11-30 18:46:08
111,"[{'imgObject': {}, 'id': 'tacos', 'src': '/static/foodstim60/tacos.jpg', 'key': 'u', 'origWidth': 411, 'origHeight': 411, 'width': 411, 'height': 411, 'widthPercent': 0.45, 'rescaleHeight': False, 'trialN': 111, 'loaded': True, 'loadedTime': 5024, 'positionName': 'LEFT', 'positionCoords': [244.68, 178.5], 'bid': 3.79}, {'imgObject': {}, 'id': 'apple slices', 'src': '/static/foodstim60/apple slices.jpg', 'key': 'i', 'origWidth': 409, 'origHeight': 410, 'width': 409, 'height': 410, 'widthPercent': 0.45, 'rescaleHeight': False, 'trialN': 111, 'loaded': True, 'loadedTime': 5095, 'positionName': 'RIGHT', 'positionCoords': [710.32, 179], 'bid': 3.34}]",90531,1669833896289,tacos,apple slices,3.79,3.34,-0.4500000000000002,tacos,15,16,16.0,True,u,91058,527,1669833896816,527,,HRV,HRV_0195,2022-11-30 18:46:08
112,"[{'imgObject': {}, 'id': 'Grapes', 'src': '/static/foodstim60/Grapes.jpg', 'key': 'u', 'origWidth': 411, 'origHeight': 411, 'width': 411, 'height': 411, 'widthPercent': 0.45, 'rescaleHeight': False, 'trialN': 112, 'loaded': True, 'loadedTime': 5019, 'positionName': 'LEFT', 'positionCoords': [244.68, 178.5], 'bid': 3.97}, {'imgObject': {}, 'id': 'hotdog w must', 'src': '/static/foodstim60/hotdog w must.jpg', 'key': 'i', 'origWidth': 409, 'origHeight': 409, 'width': 409, 'height': 409, 'widthPercent': 0.45, 'rescaleHeight': False, 'trialN': 112, 'loaded': True, 'loadedTime': 4974, 'positionName': 'RIGHT', 'positionCoords': [710.32, 179.5], 'bid': 4.5600000000000005}]",91058,1669833896816,Grapes,hotdog w must,3.97,4.5600000000000005,0.5900000000000003,hotdog w must,54,54,54.0,True,i,91632,574,1669833897390,574,,HRV,HRV_0195,2022-11-30 18:46:08
113,"[{'imgObject': {}, 'id': 'raisin bran w milk', 'src': '/static/foodstim60/raisin bran w milk.jpg', 'key': 'u', 'origWidth': 411, 'origHeight': 411, 'width': 411, 'height': 411, 'widthPercent': 0.45, 'rescaleHeight': False, 'trialN': 113, 'loaded': True, 'loadedTime': 5267, 'positionName': 'LEFT', 'positionCoords': [244.68, 178.5], 'bid': 5.99}, {'imgObject': {}, 'id': 'burrito', 'src': '/static/foodstim60/burrito.jpg', 'key': 'i', 'origWidth': 410, 'origHeight': 410, 'width': 410, 'height': 410, 'widthPercent': 0.45, 'rescaleHeight': False, 'trialN': 113, 'loaded': True, 'loadedTime': 4865, 'positionName': 'RIGHT', 'positionCoords': [710.32, 179], 'bid': 4.75}]",91632,1669833897390,raisin bran w milk,burrito,5.99,4.75,-1.2400000000000002,raisin bran w milk,110,110,110.0,True,u,92248,616,1669833898006,616,,HRV,HRV_0195,2022-11-30 18:46:08
114,"[{'imgObject': {}, 'id': 'apple slices', 'src': '/static/foodstim60/apple slices.jpg', 'key': 'u', 'origWidth': 409, 'origHeight': 410, 'width': 409, 'height': 410, 'widthPercent': 0.45, 'rescaleHeight': False, 'trialN': 114, 'loaded': True, 'loadedTime': 5095, 'positionName': 'LEFT', 'positionCoords': [246.68, 179], 'bid': 3.34}, {'imgObject': {}, 'id': 'banana', 'src': '/static/foodstim60/banana.jpg', 'key': 'i', 'origWidth': 410, 'origHeight': 410, 'width': 410, 'height': 410, 'widthPercent': 0.45, 'rescaleHeight': False, 'trialN': 114, 'loaded': True, 'loadedTime': 5044, 'positionName': 'RIGHT', 'positionCoords': [710.32, 179], 'bid': 3.06}]",92248,1669833898006,apple slices,banana,3.34,3.06,-0.2799999999999998,apple slices,188,188,188.0,True,u,92947,699,1669833898705,699,,HRV,HRV_0195,2022-11-30 18:46:08
115,"[{'imgObject': {}, 'id': 'rigatoni', 'src': '/static/foodstim60/rigatoni.jpg', 'key': 'u', 'origWidth': 411, 'origHeight': 411, 'width': 411, 'height': 411, 'widthPercent': 0.45, 'rescaleHeight': False, 'trialN': 115, 'loaded': True, 'loadedTime': 4914, 'positionName': 'LEFT', 'positionCoords': [244.68, 178.5], 'bid': 8.89}, {'imgObject': {}, 'id': 'blueberries', 'src': '/static/foodstim60/blueberries.jpg', 'key': 'i', 'origWidth': 411, 'origHeight': 411, 'width': 411, 'height': 411, 'widthPercent': 0.45, 'rescaleHeight': False, 'trialN': 115, 'loaded': True, 'loadedTime': 5329, 'positionName': 'RIGHT', 'positionCoords': [710.32, 178.5], 'bid': 5.38}]",92947,1669833898705,rigatoni,blueberries,8.89,5.38,-3.5100000000000007,blueberries,49,49,49.0,True,i,93516,569,1669833899274,569,,HRV,HRV_0195,2022-11-30 18:46:08
116,"[{'imgObject': {}, 'id': 'eggsalad', 'src': '/static/foodstim60/eggsalad.jpg', 'key': 'u', 'origWidth': 410, 'origHeight': 409, 'width': 410, 'height': 409, 'widthPercent': 0.45, 'rescaleHeight': False, 'trialN': 116, 'loaded': True, 'loadedTime': 4930, 'positionName': 'LEFT', 'positionCoords': [245.68, 179.5], 'bid': 4.45}, {'imgObject': {}, 'id': 'rigatoni and sauce', 'src': '/static/foodstim60/rigatoni and sauce.jpg', 'key': 'i', 'origWidth': 410, 'origHeight': 411, 'width': 410, 'height': 411, 'widthPercent': 0.45, 'rescaleHeight': False, 'trialN': 116, 'loaded': True, 'loadedTime': 5235, 'positionName': 'RIGHT', 'positionCoords': [710.32, 178.5], 'bid': 1.82}]",93516,1669833899274,eggsalad,rigatoni and sauce,4.45,1.82,-2.63,eggsalad,44,44,44.0,True,u,94080,564,1669833899838,564,,HRV,HRV_0195,2022-11-30 18:46:08
117,"[{'imgObject': {}, 'id': 'luckycharms', 'src': '/static/foodstim60/luckycharms.jpg', 'key': 'u', 'origWidth': 410, 'origHeight': 409, 'width': 410, 'height': 409, 'widthPercent': 0.45, 'rescaleHeight': False, 'trialN': 117, 'loaded': True, 'loadedTime': 5030, 'positionName': 'LEFT', 'positionCoords': [245.68, 179.5], 'bid': 3.5700000000000003}, {'imgObject': {}, 'id': 'mashed potato', 'src': '/static/foodstim60/mashed potato.jpg', 'key': 'i', 'origWidth': 409, 'origHeight': 409, 'width': 409, 'height': 409, 'widthPercent': 0.45, 'rescaleHeight': False, 'trialN': 117, 'loaded': True, 'loadedTime': 5079, 'positionName': 'RIGHT', 'positionCoords': [710.32, 179.5], 'bid': 7.59}]",94080,1669833899838,luckycharms,mashed potato,3.5700000000000003,7.59,4.02,luckycharms,142,142,142.0,True,u,94746,666,1669833900504,666,,HRV,HRV_0195,2022-11-30 18:46:08
118,"[{'imgObject': {}, 'id': 'eggsalad', 'src': '/static/foodstim60/eggsalad.jpg', 'key': 'u', 'origWidth': 410, 'origHeight': 409, 'width': 410, 'height': 409, 'widthPercent': 0.45, 'rescaleHeight': False, 'trialN': 118, 'loaded': True, 'loadedTime': 4930, 'positionName': 'LEFT', 'positionCoords': [245.68, 179.5], 'bid': 4.45}, {'imgObject': {}, 'id': 'burger', 'src': '/static/foodstim60/burger.jpg', 'key': 'i', 'origWidth': 409, 'origHeight': 409, 'width': 409, 'height': 409, 'widthPercent': 0.45, 'rescaleHeight': False, 'trialN': 118, 'loaded': True, 'loadedTime': 5079, 'positionName': 'RIGHT', 'positionCoords': [710.32, 179.5], 'bid': 8.03}]",94746,1669833900504,eggsalad,burger,4.45,8.03,3.579999999999999,burger,173,173,173.0,True,i,95447,701,1669833901205,701,,HRV,HRV_0195,2022-11-30 18:46:08
