success,trial_type,trial_index,time_elapsed,internal_node_id,Block,TrialNumber,TrialTime,trialTimeDiff,FPS_avg,FPS_med,FPS_mode,TrialDur,winResizeTime,rt,block,button_pressed,MotCoh,MotDir,ColCoh,Color,ChoiceKey,Choice,Accuracy,RT,nFrames,FPS,PPD,missTrial,missTrialMsg,onsetDelay,fullScreenExitTime,canvCenter,TrialType,Score,BlockTrial,stimulus,button_labels,exp,subjectId,date
True,fullscreen,0,2294,0.0-0.0,0.0,1.0,,,,,,,,,,,,,,,,,,,,,,,,,,,,,,,,HRV,HRV_0195,2022-11-30 18:56:31
,wl-check-fps,1,7406,0.0-1.0,0.0,2.0,"[5420, 5426, 5439, 5456, 5472, 5489, 5507, 5523, 5539, 5555, 5573, 5588, 5605, 5622, 5639, 5655, 5673, 5689, 5705, 5723, 5738, 5756, 5772, 5789, 5805, 5822, 5838, 5856, 5872, 5889, 5906, 5922, 5939, 5956, 5973, 5989, 6006, 6022, 6039, 6056, 6072, 6089, 6106, 6122, 6139, 6156, 6173, 6189, 6206, 6222, 6238, 6256, 6272, 6289, 6305, 6323, 6338, 6356, 6374, 6388, 6405, 6422, 6439, 6455, 6473, 6489, 6506, 6522, 6539, 6556, 6573, 6590, 6606, 6623, 6639, 6659, 6673, 6689, 6705, 6723, 6739, 6756, 6773, 6789, 6807, 6823, 6840, 6855, 6872, 6888, 6905, 6922, 6939, 6955, 6973, 6989, 7005, 7023, 7038, 7056, 7073, 7089, 7105, 7122, 7139, 7156, 7172, 7189, 7205, 7223, 7240, 7256, 7273, 7289, 7305, 7322, 7339, 7356, 7372, 7388, 7406, 7422, 7438, 7456, 7472, 7490, 7506, 7523, 7538, 7555, 7573, 7589, 7606, 7623, 7638, 7656, 7674, 7690, 7705, 7867, 7876, 7880, 7888, 7906, 7923, 7939, 7955, 7972, 7989, 8005, 8022, 8038, 8056, 8073, 8089, 8105, 8122, 8140, 8155, 8173, 8188, 8205, 8222, 8238, 8255, 8272, 8289, 8305, 8323, 8339, 8356, 8373, 8389, 8405, 8423, 8438, 8456, 8473, 8489, 8505, 8523, 8539, 8556, 8572, 8589, 8606, 8623, 8639, 8656, 8673, 8689, 8706, 8724, 8738, 8756, 8773, 8789, 8806, 8823, 8839, 8856, 8873, 8889, 8906, 8923, 8938, 8956, 8973, 8989, 9005, 9023, 9039, 9055, 9073, 9089, 9106, 9123, 9139, 9155, 9172, 9189, 9205, 9223, 9241, 9255, 9273, 9288, 9305, 9322, 9339, 9356, 9373, 9389, 9406, 9421, 9439, 9456, 9471, 9489, 9505, 9522, 9539, 9556, 9572, 9589, 9605, 9623, 9638, 9656, 9672, 9689, 9705, 9721, 9739, 9755, 9771, 9789, 9805, 9821, 9841, 9855, 9871, 9889, 9905, 9922, 9939, 9956, 9972, 9989, 10006, 10021, 10038, 10056, 10072, 10088, 10105, 10122, 10140, 10156, 10172, 10189, 10205, 10222, 10238, 10255, 10274, 10288, 10306, 10321, 10339, 10355, 10371, 10389, 10405, 10421, 10440, 10455, 10471, 10489, 10506]","[6, 6, 13, 17, 16, 17, 18, 16, 16, 16, 18, 15, 17, 17, 17, 16, 18, 16, 16, 18, 15, 18, 16, 17, 16, 17, 16, 18, 16, 17, 17, 16, 17, 17, 17, 16, 17, 16, 17, 17, 16, 17, 17, 16, 17, 17, 17, 16, 17, 16, 16, 18, 16, 17, 16, 18, 15, 18, 18, 14, 17, 17, 17, 16, 18, 16, 17, 16, 17, 17, 17, 17, 16, 17, 16, 20, 14, 16, 16, 18, 16, 17, 17, 16, 18, 16, 17, 15, 17, 16, 17, 17, 17, 16, 18, 16, 16, 18, 15, 18, 17, 16, 16, 17, 17, 17, 16, 17, 16, 18, 17, 16, 17, 16, 16, 17, 17, 17, 16, 16, 18, 16, 16, 18, 16, 18, 16, 17, 15, 17, 18, 16, 17, 17, 15, 18, 18, 16, 15, 162, 9, 4, 8, 18, 17, 16, 16, 17, 17, 16, 17, 16, 18, 17, 16, 16, 17, 18, 15, 18, 15, 17, 17, 16, 17, 17, 17, 16, 18, 16, 17, 17, 16, 16, 18, 15, 18, 17, 16, 16, 18, 16, 17, 16, 17, 17, 17, 16, 17, 17, 16, 17, 18, 14, 18, 17, 16, 17, 17, 16, 17, 17, 16, 17, 17, 15, 18, 17, 16, 16, 18, 16, 16, 18, 16, 17, 17, 16, 16, 17, 17, 16, 18, 18, 14, 18, 15, 17, 17, 17, 17, 17, 16, 17, 15, 18, 17, 15, 18, 16, 17, 17, 17, 16, 17, 16, 18, 15, 18, 16, 17, 16, 16, 18, 16, 16, 18, 16, 16, 20, 14, 16, 18, 16, 17, 17, 17, 16, 17, 17, 15, 17, 18, 16, 16, 17, 17, 18, 16, 16, 17, 16, 17, 16, 17, 19, 14, 18, 15, 18, 16, 16, 18, 16, 16, 19, 15, 16, 18, 17]",59.0,61.0,59.0,5109.0,[],,,,,,,,,,,,,,,,,,,,,,,,,HRV,HRV_0195,2022-11-30 18:56:31
,wl-html-keyboard-response,2,15772,0.0-2.0-0.0,0.0,3.0,,,,,,,,6357.0,0.0,0,,,,,,,,,,,,,,,,,,,,,,HRV,HRV_0195,2022-11-30 18:56:31
,wl-rdm,3,32937,0.0-3.0-0.0,0.0,4.0,,,,,,,[],,,,0.0,0.0,87.9,0.0,u,0.0,True,805.0,47.0,59.0,40.0,False,too_early too_early too_early ,3000.0,[],"[683, 384]",ColorTask_Demo,,,,,HRV,HRV_0195,2022-11-30 18:56:31
,wl-rdm,4,75469,0.0-3.0-1.0,0.0,5.0,,,,,,,[],,,,0.0,0.0,87.9,1.0,i,1.0,True,2378.0,139.0,59.0,40.0,False,too_early too_early too_early too_early too_early too_early too_early too_early ,2000.0,[],"[683, 384]",ColorTask_Demo,,,,,HRV,HRV_0195,2022-11-30 18:56:31
,wl-html-keyboard-response,5,81701,0.0-3.0-2.0,0.0,6.0,,,,,,,,4229.0,0.0,1,,,,,,,,,,,,,,,,,,,,,,HRV,HRV_0195,2022-11-30 18:56:31
,wl-html-keyboard-response,6,88732,0.0-4.0-0.0,0.0,7.0,,,,,,,,5026.0,0.0,0,,,,,,,,,,,,,,,,,,,,,,HRV,HRV_0195,2022-11-30 18:56:31
,wl-html-keyboard-response,7,95781,0.0-5.0-0.0,0.0,8.0,,,,,,,,5046.0,0.0,0,,,,,,,,,,,,,,,,,,,,,,HRV,HRV_0195,2022-11-30 18:56:31
,wl-rdm,8,97984,0.0-6.0-0.0,0.0,9.0,,,,,,,[],,,,,,73.6,0.0,u,0.0,True,878.0,52.0,59.0,40.0,False,,250.21779019003395,[],"[683, 384]",ColorTask,1.0,1.0,,,HRV,HRV_0195,2022-11-30 18:56:31
,wl-rdm,9,100066,0.0-6.1-0.1,0.0,10.0,,,,,,,[],,,,,,73.6,0.0,u,0.0,True,772.0,47.0,59.0,40.0,False,,218.87095165359582,[],"[683, 384]",ColorTask,2.0,2.0,,,HRV,HRV_0195,2022-11-30 18:56:31
,wl-rdm,10,102866,0.0-6.2-0.2,0.0,11.0,,,,,,,[],,,,,,53.2,0.0,u,0.0,True,1348.0,79.0,59.0,40.0,False,,370.14226763906413,[],"[683, 384]",ColorTask,3.0,3.0,,,HRV,HRV_0195,2022-11-30 18:56:31
,wl-rdm,11,105616,0.0-6.3-0.3,0.0,12.0,,,,,,,[],,,,,,73.6,1.0,u,0.0,False,1473.0,89.0,59.0,40.0,False,,204.41572490836595,[],"[683, 384]",ColorTask,2.0,4.0,,,HRV,HRV_0195,2022-11-30 18:56:31
,wl-rdm,12,106699,0.0-6.4-0.4,0.0,12.0,,,,,,,[],,,,,,50.0,1.0,u,,,39.0,0.0,59.0,40.0,True,too_early ,359.2362311854967,[],"[683, 384]",ColorTask,1.0,5.0,,,HRV,HRV_0195,2022-11-30 18:56:31
,wl-rdm,13,107915,0.0-6.5-0.5,0.0,12.0,,,,,,,[],,,,,,73.6,0.0,u,,,666.0,0.0,59.0,40.0,True,too_early ,269.41061991146233,[],"[683, 384]",ColorTask,0.0,6.0,,,HRV,HRV_0195,2022-11-30 18:56:31
,wl-rdm,14,110382,0.0-6.6-0.6,0.0,13.0,,,,,,,[],,,,,,56.4,0.0,u,0.0,True,1093.0,65.0,59.0,40.0,False,,289.6278134982575,[],"[683, 384]",ColorTask,1.0,7.0,,,HRV,HRV_0195,2022-11-30 18:56:31
,wl-rdm,15,112966,0.0-6.7-0.7,0.0,14.0,,,,,,,[],,,,,,87.9,1.0,u,0.0,False,1226.0,74.0,59.0,40.0,False,,290.28559349310444,[],"[683, 384]",ColorTask,0.0,8.0,,,HRV,HRV_0195,2022-11-30 18:56:31
,wl-rdm,16,114032,0.0-6.8-0.8,0.0,14.0,,,,,,,[],,,,,,53.2,1.0,u,,,210.0,0.0,59.0,40.0,True,too_early ,215.0180389476993,[],"[683, 384]",ColorTask,-1.0,9.0,,,HRV,HRV_0195,2022-11-30 18:56:31
,wl-rdm,17,116132,0.0-6.9-0.9,0.0,15.0,,,,,,,[],,,,,,73.6,0.0,u,0.0,True,791.0,47.0,59.0,40.0,False,,226.43831385024387,[],"[683, 384]",ColorTask,0.0,10.0,,,HRV,HRV_0195,2022-11-30 18:56:31
,wl-rdm,18,117215,0.0-6.10-0.10,0.0,15.0,,,,,,,[],,,,,,73.6,0.0,u,,,166.0,0.0,59.0,40.0,True,too_early ,265.42742458740645,[],"[683, 384]",ColorTask,-1.0,11.0,,,HRV,HRV_0195,2022-11-30 18:56:31
,wl-rdm,19,119399,0.0-6.11-0.11,0.0,16.0,,,,,,,[],,,,,,73.6,1.0,u,0.0,False,763.0,46.0,59.0,40.0,False,,360.43760814510574,[],"[683, 384]",ColorTask,-2.0,12.0,,,HRV,HRV_0195,2022-11-30 18:56:31
,wl-rdm,20,121633,0.0-6.12-0.12,0.0,17.0,,,,,,,[],,,,,,87.9,1.0,u,0.0,False,807.0,49.0,59.0,40.0,False,,345.3783281242894,[],"[683, 384]",ColorTask,-3.0,13.0,,,HRV,HRV_0195,2022-11-30 18:56:31
,wl-rdm,21,123816,0.0-6.13-0.13,0.0,18.0,,,,,,,[],,,,,,87.9,1.0,u,0.0,False,762.0,45.0,59.0,40.0,False,,350.8282148547401,[],"[683, 384]",ColorTask,-4.0,14.0,,,HRV,HRV_0195,2022-11-30 18:56:31
,wl-rdm,22,126266,0.0-6.14-0.14,0.0,19.0,,,,,,,[],,,,,,53.2,0.0,u,0.0,True,1120.0,68.0,59.0,40.0,False,,259.13108785566465,[],"[683, 384]",ColorTask,-3.0,15.0,,,HRV,HRV_0195,2022-11-30 18:56:31
,wl-rdm,23,129030,0.0-6.15-0.15,0.0,20.0,,,,,,,[],,,,,,50.0,1.0,u,0.0,False,1397.0,84.0,59.0,40.0,False,,270.7298062906667,[],"[683, 384]",ColorTask,-4.0,16.0,,,HRV,HRV_0195,2022-11-30 18:56:31
,wl-rdm,24,131866,0.0-6.16-0.16,0.0,21.0,,,,,,,[],,,,,,53.2,0.0,u,0.0,True,1505.0,91.0,59.0,40.0,False,,234.12529068378882,[],"[683, 384]",ColorTask,-3.0,17.0,,,HRV,HRV_0195,2022-11-30 18:56:31
,wl-rdm,25,134098,0.0-6.17-0.17,0.0,22.0,,,,,,,[],,,,,,56.4,0.0,u,0.0,True,919.0,56.0,59.0,40.0,False,,246.7626726993205,[],"[683, 384]",ColorTask,-2.0,18.0,,,HRV,HRV_0195,2022-11-30 18:56:31
,wl-rdm,26,136698,0.0-6.18-0.18,0.0,23.0,,,,,,,[],,,,,,62.5,1.0,u,0.0,False,1228.0,72.0,59.0,40.0,False,,289.3173676683972,[],"[683, 384]",ColorTask,-3.0,19.0,,,HRV,HRV_0195,2022-11-30 18:56:31
,wl-rdm,27,138998,0.0-6.19-0.19,0.0,24.0,,,,,,,[],,,,,,56.4,1.0,u,0.0,False,1022.0,62.0,59.0,40.0,False,,206.0775314436358,[],"[683, 384]",ColorTask,-4.0,20.0,,,HRV,HRV_0195,2022-11-30 18:56:31
,wl-rdm,28,141448,0.0-6.20-0.20,0.0,25.0,,,,,,,[],,,,,,73.6,0.0,u,0.0,True,1161.0,70.0,59.0,40.0,False,,205.41848753416429,[],"[683, 384]",ColorTask,-3.0,21.0,,,HRV,HRV_0195,2022-11-30 18:56:31
,wl-rdm,29,143130,0.0-6.21-0.21,0.0,26.0,,,,,,,[],,,,,,56.4,1.0,u,0.0,False,329.0,20.0,59.0,40.0,False,,300.45119057981776,[],"[683, 384]",ColorTask,-4.0,22.0,,,HRV,HRV_0195,2022-11-30 18:56:31
,wl-rdm,30,145284,0.0-6.22-0.22,0.0,27.0,,,,,,,[],,,,,,53.2,1.0,u,0.0,False,825.0,50.0,59.0,40.0,False,,241.3161125766623,[],"[683, 384]",ColorTask,-5.0,23.0,,,HRV,HRV_0195,2022-11-30 18:56:31
,wl-rdm,31,146431,0.0-6.23-0.23,0.0,27.0,,,,,,,[],,,,,,53.2,0.0,u,,,622.0,0.0,59.0,40.0,True,too_early ,274.46048207102234,[],"[683, 384]",ColorTask,-6.0,24.0,,,HRV,HRV_0195,2022-11-30 18:56:31
,wl-rdm,32,148798,0.0-6.24-0.24,0.0,28.0,,,,,,,[],,,,,,56.4,0.0,u,0.0,True,1053.0,64.0,59.0,40.0,False,,218.49309384437103,[],"[683, 384]",ColorTask,-5.0,25.0,,,HRV,HRV_0195,2022-11-30 18:56:31
,wl-rdm,33,151063,0.0-6.25-0.25,0.0,29.0,,,,,,,[],,,,,,87.9,0.0,u,0.0,True,984.0,59.0,59.0,40.0,False,,208.93534950225694,[],"[683, 384]",ColorTask,-4.0,26.0,,,HRV,HRV_0195,2022-11-30 18:56:31
,wl-rdm,34,153515,0.0-6.26-0.26,0.0,30.0,,,,,,,[],,,,,,56.4,1.0,u,0.0,False,1139.0,69.0,59.0,40.0,False,,229.32213419246463,[],"[683, 384]",ColorTask,-5.0,27.0,,,HRV,HRV_0195,2022-11-30 18:56:31
,wl-rdm,35,156082,0.0-6.27-0.27,0.0,31.0,,,,,,,[],,,,,,62.5,0.0,u,0.0,True,1288.0,78.0,59.0,40.0,False,,208.72704696904984,[],"[683, 384]",ColorTask,-4.0,28.0,,,HRV,HRV_0195,2022-11-30 18:56:31
,wl-rdm,36,159516,0.0-6.28-0.28,0.0,32.0,,,,,,,[],,,,,,50.0,1.0,u,0.0,False,2018.0,121.0,59.0,40.0,False,,346.23878309939573,[],"[683, 384]",ColorTask,-5.0,29.0,,,HRV,HRV_0195,2022-11-30 18:56:31
,wl-rdm,37,162765,0.0-6.29-0.29,0.0,33.0,,,,,,,[],,,,,,56.4,0.0,u,0.0,True,1922.0,115.0,59.0,40.0,False,,237.5248510226175,[],"[683, 384]",ColorTask,-4.0,30.0,,,HRV,HRV_0195,2022-11-30 18:56:31
,wl-rdm,38,165199,0.0-6.30-0.30,0.0,34.0,,,,,,,[],,,,,,53.2,1.0,u,0.0,False,1005.0,61.0,59.0,40.0,False,,357.35755384987874,[],"[683, 384]",ColorTask,-5.0,31.0,,,HRV,HRV_0195,2022-11-30 18:56:31
,wl-rdm,39,168465,0.0-6.31-0.31,0.0,35.0,,,,,,,[],,,,,,50.0,0.0,u,0.0,True,1943.0,117.0,59.0,40.0,False,,263.1969241991511,[],"[683, 384]",ColorTask,-4.0,32.0,,,HRV,HRV_0195,2022-11-30 18:56:31
,wl-rdm,40,171098,0.0-6.32-0.32,0.0,36.0,,,,,,,[],,,,,,53.2,1.0,u,0.0,False,1263.0,76.0,59.0,40.0,False,,294.02557654047246,[],"[683, 384]",ColorTask,-5.0,33.0,,,HRV,HRV_0195,2022-11-30 18:56:31
,wl-rdm,41,173098,0.0-6.33-0.33,0.0,37.0,,,,,,,[],,,,,,53.2,0.0,u,0.0,True,645.0,39.0,59.0,40.0,False,,279.3505768737963,[],"[683, 384]",ColorTask,-4.0,34.0,,,HRV,HRV_0195,2022-11-30 18:56:31
,wl-rdm,42,175297,0.0-6.34-0.34,0.0,38.0,,,,,,,[],,,,,,87.9,1.0,u,0.0,False,899.0,53.0,59.0,40.0,False,,227.0586639783875,[],"[683, 384]",ColorTask,-5.0,35.0,,,HRV,HRV_0195,2022-11-30 18:56:31
,wl-rdm,43,177648,0.0-6.35-0.35,0.0,39.0,,,,,,,[],,,,,,50.0,1.0,u,0.0,False,933.0,56.0,59.0,40.0,False,,360.2087677062963,[],"[683, 384]",ColorTask,-6.0,36.0,,,HRV,HRV_0195,2022-11-30 18:56:31
,wl-rdm,44,180599,0.0-6.36-0.36,0.0,40.0,,,,,,,[],,,,,,73.6,1.0,u,0.0,False,1539.0,93.0,59.0,40.0,False,,318.4779147193307,[],"[683, 384]",ColorTask,-7.0,37.0,,,HRV,HRV_0195,2022-11-30 18:56:31
,wl-rdm,45,182965,0.0-6.37-0.37,0.0,41.0,,,,,,,[],,,,,,87.9,0.0,u,0.0,True,1077.0,65.0,59.0,40.0,False,,220.96311066343983,[],"[683, 384]",ColorTask,-6.0,38.0,,,HRV,HRV_0195,2022-11-30 18:56:31
,wl-rdm,46,184765,0.0-6.38-0.38,0.0,42.0,,,,,,,[],,,,,,73.6,1.0,u,0.0,False,506.0,31.0,59.0,40.0,False,,203.34415108213327,[],"[683, 384]",ColorTask,-7.0,39.0,,,HRV,HRV_0195,2022-11-30 18:56:31
,wl-rdm,47,187114,0.0-6.39-0.39,0.0,43.0,,,,,,,[],,,,,,87.9,0.0,u,0.0,True,959.0,58.0,59.0,40.0,False,,333.3094142125176,[],"[683, 384]",ColorTask,-6.0,40.0,,,HRV,HRV_0195,2022-11-30 18:56:31
,wl-rdm,48,188431,0.0-6.40-0.40,0.0,43.0,,,,,,,[],,,,,,87.9,0.0,u,,,772.0,0.0,59.0,40.0,True,too_early ,324.4901187957967,[],"[683, 384]",ColorTask,-7.0,41.0,,,HRV,HRV_0195,2022-11-30 18:56:31
,wl-rdm,49,190797,0.0-6.41-0.41,0.0,44.0,,,,,,,[],,,,,,62.5,0.0,u,0.0,True,914.0,55.0,59.0,40.0,False,,372.5465155722968,[],"[683, 384]",ColorTask,-6.0,42.0,,,HRV,HRV_0195,2022-11-30 18:56:31
,wl-rdm,50,193881,0.0-6.42-0.42,0.0,45.0,,,,,,,[],,,,,,73.6,0.0,u,0.0,True,1689.0,102.0,59.0,40.0,False,,302.6268209482581,[],"[683, 384]",ColorTask,-5.0,43.0,,,HRV,HRV_0195,2022-11-30 18:56:31
,wl-rdm,51,198198,0.0-6.43-0.43,0.0,45.0,,,,,,,[],,,,,,50.0,0.0,,,,,176.0,59.0,40.0,True,RT_timeout ,224.58383508054314,[],"[683, 384]",ColorTask,-6.0,44.0,,,HRV,HRV_0195,2022-11-30 18:56:31
,wl-rdm,52,200197,0.0-6.44-0.44,0.0,46.0,,,,,,,[],,,,,,62.5,1.0,u,0.0,False,698.0,42.0,59.0,40.0,False,,222.85024545266467,[],"[683, 384]",ColorTask,-7.0,45.0,,,HRV,HRV_0195,2022-11-30 18:56:31
,wl-rdm,53,202563,0.0-6.45-0.45,0.0,47.0,,,,,,,[],,,,,,87.9,0.0,u,0.0,True,1029.0,61.0,59.0,40.0,False,,254.5702956716645,[],"[683, 384]",ColorTask,-6.0,46.0,,,HRV,HRV_0195,2022-11-30 18:56:31
,wl-rdm,54,205131,0.0-6.46-0.46,0.0,48.0,,,,,,,[],,,,,,73.6,0.0,u,0.0,True,1231.0,71.0,59.0,40.0,False,,255.1152933470831,[],"[683, 384]",ColorTask,-5.0,47.0,,,HRV,HRV_0195,2022-11-30 18:56:31
,wl-rdm,55,208414,0.0-6.47-0.47,0.0,49.0,,,,,,,[],,,,,,50.0,1.0,u,0.0,False,1984.0,119.0,59.0,40.0,False,,219.89615100170963,[],"[683, 384]",ColorTask,-6.0,48.0,,,HRV,HRV_0195,2022-11-30 18:56:31
,wl-rdm,56,211396,0.0-6.48-0.48,0.0,50.0,,,,,,,[],,,,,,56.4,1.0,i,1.0,True,1698.0,102.0,59.0,40.0,False,,215.66140415683745,[],"[683, 384]",ColorTask,-5.0,49.0,,,HRV,HRV_0195,2022-11-30 18:56:31
,wl-rdm,57,213582,0.0-6.49-0.49,0.0,51.0,,,,,,,[],,,,,,56.4,0.0,u,0.0,True,720.0,44.0,59.0,40.0,False,,386.6398613186801,[],"[683, 384]",ColorTask,-4.0,50.0,,,HRV,HRV_0195,2022-11-30 18:56:31
,wl-rdm,58,215714,0.0-6.50-0.50,0.0,52.0,,,,,,,[],,,,,,62.5,1.0,i,1.0,True,768.0,46.0,59.0,40.0,False,,282.89260087926107,[],"[683, 384]",ColorTask,-3.0,51.0,,,HRV,HRV_0195,2022-11-30 18:56:31
,wl-rdm,59,217830,0.0-6.51-0.51,0.0,53.0,,,,,,,[],,,,,,53.2,0.0,u,0.0,True,837.0,51.0,59.0,40.0,False,,200.36736726516617,[],"[683, 384]",ColorTask,-2.0,52.0,,,HRV,HRV_0195,2022-11-30 18:56:31
,wl-rdm,60,219997,0.0-6.52-0.52,0.0,54.0,,,,,,,[],,,,,,73.6,1.0,i,1.0,True,763.0,46.0,59.0,40.0,False,,321.62929670391486,[],"[683, 384]",ColorTask,-1.0,53.0,,,HRV,HRV_0195,2022-11-30 18:56:31
,wl-rdm,61,222312,0.0-6.53-0.53,0.0,55.0,,,,,,,[],,,,,,73.6,1.0,u,0.0,False,875.0,51.0,59.0,40.0,False,,356.33362553559573,[],"[683, 384]",ColorTask,-2.0,54.0,,,HRV,HRV_0195,2022-11-30 18:56:31
,wl-rdm,62,224379,0.0-6.54-0.54,0.0,56.0,,,,,,,[],,,,,,87.9,1.0,u,0.0,False,614.0,37.0,59.0,40.0,False,,392.002811013151,[],"[683, 384]",ColorTask,-3.0,55.0,,,HRV,HRV_0195,2022-11-30 18:56:31
,wl-rdm,63,226546,0.0-6.55-0.55,0.0,57.0,,,,,,,[],,,,,,62.5,1.0,u,0.0,False,731.0,44.0,59.0,40.0,False,,355.596382518375,[],"[683, 384]",ColorTask,-4.0,56.0,,,HRV,HRV_0195,2022-11-30 18:56:31
,wl-rdm,64,229162,0.0-6.56-0.56,0.0,58.0,,,,,,,[],,,,,,56.4,1.0,i,1.0,True,1241.0,75.0,59.0,40.0,False,,294.5899625690789,[],"[683, 384]",ColorTask,-3.0,57.0,,,HRV,HRV_0195,2022-11-30 18:56:31
,wl-rdm,65,231331,0.0-6.57-0.57,0.0,59.0,,,,,,,[],,,,,,87.9,0.0,i,1.0,False,861.0,52.0,59.0,40.0,False,,226.51292904801147,[],"[683, 384]",ColorTask,-4.0,58.0,,,HRV,HRV_0195,2022-11-30 18:56:31
,wl-rdm,66,233762,0.0-6.58-0.58,0.0,60.0,,,,,,,[],,,,,,62.5,1.0,i,1.0,True,1151.0,69.0,59.0,40.0,False,,201.5415968803016,[],"[683, 384]",ColorTask,-3.0,59.0,,,HRV,HRV_0195,2022-11-30 18:56:31
,wl-rdm,67,235679,0.0-6.59-0.59,0.0,61.0,,,,,,,[],,,,,,50.0,1.0,i,1.0,True,546.0,33.0,59.0,40.0,False,,286.5902677407813,[],"[683, 384]",ColorTask,-2.0,60.0,,,HRV,HRV_0195,2022-11-30 18:56:31
,wl-rdm,68,237813,0.0-6.60-0.60,0.0,62.0,,,,,,,[],,,,,,73.6,0.0,i,1.0,False,735.0,45.0,59.0,40.0,False,,310.06082889805555,[],"[683, 384]",ColorTask,-3.0,61.0,,,HRV,HRV_0195,2022-11-30 18:56:31
,wl-rdm,69,239846,0.0-6.61-0.61,0.0,63.0,,,,,,,[],,,,,,73.6,1.0,i,1.0,True,755.0,46.0,59.0,40.0,False,,206.6777792247185,[],"[683, 384]",ColorTask,-2.0,62.0,,,HRV,HRV_0195,2022-11-30 18:56:31
,wl-rdm,70,242078,0.0-6.62-0.62,0.0,64.0,,,,,,,[],,,,,,50.0,1.0,i,1.0,True,958.0,58.0,59.0,40.0,False,,213.96992833914368,[],"[683, 384]",ColorTask,-1.0,63.0,,,HRV,HRV_0195,2022-11-30 18:56:31
,wl-rdm,71,244263,0.0-6.63-0.63,0.0,65.0,,,,,,,[],,,,,,53.2,1.0,i,1.0,True,820.0,50.0,59.0,40.0,False,,288.14308612865034,[],"[683, 384]",ColorTask,0.0,64.0,,,HRV,HRV_0195,2022-11-30 18:56:31
,wl-rdm,72,246463,0.0-6.64-0.64,0.0,66.0,,,,,,,[],,,,,,56.4,0.0,i,1.0,False,886.0,54.0,59.0,40.0,False,,242.66128570949923,[],"[683, 384]",ColorTask,-1.0,65.0,,,HRV,HRV_0195,2022-11-30 18:56:31
,wl-rdm,73,249146,0.0-6.65-0.65,0.0,67.0,,,,,,,[],,,,,,62.5,0.0,i,1.0,False,1382.0,83.0,59.0,40.0,False,,222.80077748646264,[],"[683, 384]",ColorTask,-2.0,66.0,,,HRV,HRV_0195,2022-11-30 18:56:31
,wl-rdm,74,251395,0.0-6.66-0.66,0.0,68.0,,,,,,,[],,,,,,87.9,0.0,i,1.0,False,944.0,57.0,59.0,40.0,False,,223.59130880048883,[],"[683, 384]",ColorTask,-3.0,67.0,,,HRV,HRV_0195,2022-11-30 18:56:31
,wl-rdm,75,253595,0.0-6.67-0.67,0.0,69.0,,,,,,,[],,,,,,56.4,1.0,i,1.0,True,765.0,46.0,59.0,40.0,False,,365.85100036666347,[],"[683, 384]",ColorTask,-2.0,68.0,,,HRV,HRV_0195,2022-11-30 18:56:31
,wl-rdm,76,256295,0.0-6.68-0.68,0.0,70.0,,,,,,,[],,,,,,62.5,0.0,i,1.0,False,1260.0,74.0,59.0,40.0,False,,366.84671216894446,[],"[683, 384]",ColorTask,-3.0,69.0,,,HRV,HRV_0195,2022-11-30 18:56:31
,wl-rdm,77,258479,0.0-6.69-0.69,0.0,71.0,,,,,,,[],,,,,,53.2,1.0,i,1.0,True,811.0,48.0,59.0,40.0,False,,301.836178172638,[],"[683, 384]",ColorTask,-2.0,70.0,,,HRV,HRV_0195,2022-11-30 18:56:31
,wl-rdm,78,260562,0.0-6.70-0.70,0.0,72.0,,,,,,,[],,,,,,50.0,1.0,i,1.0,True,672.0,41.0,59.0,40.0,False,,346.3398412761966,[],"[683, 384]",ColorTask,-1.0,71.0,,,HRV,HRV_0195,2022-11-30 18:56:31
,wl-rdm,79,263195,0.0-6.71-0.71,0.0,73.0,,,,,,,[],,,,,,50.0,0.0,i,1.0,False,1216.0,73.0,59.0,40.0,False,,345.224076996028,[],"[683, 384]",ColorTask,-2.0,72.0,,,HRV,HRV_0195,2022-11-30 18:56:31
,wl-rdm,80,265027,0.0-6.72-0.72,0.0,74.0,,,,,,,[],,,,,,62.5,0.0,i,1.0,False,519.0,32.0,59.0,40.0,False,,222.62624197256667,[],"[683, 384]",ColorTask,-3.0,73.0,,,HRV,HRV_0195,2022-11-30 18:56:31
,wl-rdm,81,267079,0.0-6.73-0.73,0.0,75.0,,,,,,,[],,,,,,73.6,0.0,i,1.0,False,729.0,44.0,59.0,40.0,False,,249.60991155136105,[],"[683, 384]",ColorTask,-4.0,74.0,,,HRV,HRV_0195,2022-11-30 18:56:31
,wl-rdm,82,269145,0.0-6.74-0.74,0.0,76.0,,,,,,,[],,,,,,53.2,1.0,i,1.0,True,655.0,40.0,59.0,40.0,False,,315.6938495338084,[],"[683, 384]",ColorTask,-3.0,75.0,,,HRV,HRV_0195,2022-11-30 18:56:31
,wl-rdm,83,271343,0.0-6.75-0.75,0.0,77.0,,,,,,,[],,,,,,73.6,1.0,i,1.0,True,799.0,48.0,59.0,40.0,False,,324.03033073162646,[],"[683, 384]",ColorTask,-2.0,76.0,,,HRV,HRV_0195,2022-11-30 18:56:31
,wl-rdm,84,272976,0.0-6.76-0.76,0.0,78.0,,,,,,,[],,,,,,53.2,0.0,i,1.0,False,231.0,14.0,59.0,40.0,False,,318.80109713675995,[],"[683, 384]",ColorTask,-3.0,77.0,,,HRV,HRV_0195,2022-11-30 18:56:31
,wl-rdm,85,275097,0.0-6.77-0.77,0.0,79.0,,,,,,,[],,,,,,50.0,0.0,i,1.0,False,777.0,47.0,59.0,40.0,False,,272.57038245350327,[],"[683, 384]",ColorTask,-4.0,78.0,,,HRV,HRV_0195,2022-11-30 18:56:31
,wl-rdm,86,276960,0.0-6.78-0.78,0.0,80.0,,,,,,,[],,,,,,73.6,1.0,i,1.0,True,477.0,29.0,59.0,40.0,False,,316.008534455893,[],"[683, 384]",ColorTask,-3.0,79.0,,,HRV,HRV_0195,2022-11-30 18:56:31
,wl-rdm,87,279077,0.0-6.79-0.79,0.0,81.0,,,,,,,[],,,,,,62.5,0.0,i,1.0,False,731.0,44.0,59.0,40.0,False,,314.40050111046924,[],"[683, 384]",ColorTask,-4.0,80.0,,,HRV,HRV_0195,2022-11-30 18:56:31
,wl-rdm,88,281095,0.0-6.80-0.80,0.0,82.0,,,,,,,[],,,,,,87.9,0.0,i,1.0,False,642.0,39.0,59.0,40.0,False,,313.2833001098269,[],"[683, 384]",ColorTask,-5.0,81.0,,,HRV,HRV_0195,2022-11-30 18:56:31
,wl-rdm,89,283111,0.0-6.81-0.81,0.0,83.0,,,,,,,[],,,,,,87.9,1.0,i,1.0,True,714.0,43.0,59.0,40.0,False,,248.89899276301077,[],"[683, 384]",ColorTask,-4.0,82.0,,,HRV,HRV_0195,2022-11-30 18:56:31
,wl-rdm,90,285028,0.0-6.82-0.82,0.0,84.0,,,,,,,[],,,,,,87.9,1.0,i,1.0,True,599.0,36.0,59.0,40.0,False,,245.26481219035475,[],"[683, 384]",ColorTask,-3.0,83.0,,,HRV,HRV_0195,2022-11-30 18:56:31
,wl-rdm,91,287212,0.0-6.83-0.83,0.0,85.0,,,,,,,[],,,,,,53.2,1.0,i,1.0,True,760.0,44.0,59.0,40.0,False,,345.45230607017584,[],"[683, 384]",ColorTask,-2.0,84.0,,,HRV,HRV_0195,2022-11-30 18:56:31
,wl-rdm,92,289544,0.0-6.84-0.84,0.0,86.0,,,,,,,[],,,,,,56.4,1.0,i,1.0,True,919.0,55.0,59.0,40.0,False,,338.6205354829723,[],"[683, 384]",ColorTask,-1.0,85.0,,,HRV,HRV_0195,2022-11-30 18:56:31
,wl-rdm,93,292262,0.0-6.85-0.85,0.0,87.0,,,,,,,[],,,,,,50.0,1.0,i,1.0,True,1339.0,79.0,59.0,40.0,False,,308.0821122938887,[],"[683, 384]",ColorTask,0.0,86.0,,,HRV,HRV_0195,2022-11-30 18:56:31
,wl-rdm,94,294627,0.0-6.86-0.86,0.0,88.0,,,,,,,[],,,,,,53.2,0.0,i,1.0,False,1004.0,61.0,59.0,40.0,False,,276.90213454759436,[],"[683, 384]",ColorTask,-1.0,87.0,,,HRV,HRV_0195,2022-11-30 18:56:31
,wl-rdm,95,296677,0.0-6.87-0.87,0.0,89.0,,,,,,,[],,,,,,62.5,0.0,i,1.0,False,704.0,43.0,59.0,40.0,False,,252.54736107520182,[],"[683, 384]",ColorTask,-2.0,88.0,,,HRV,HRV_0195,2022-11-30 18:56:31
,wl-rdm,96,298661,0.0-6.88-0.88,0.0,90.0,,,,,,,[],,,,,,56.4,0.0,i,1.0,False,673.0,41.0,59.0,40.0,False,,231.01891146676826,[],"[683, 384]",ColorTask,-3.0,89.0,,,HRV,HRV_0195,2022-11-30 18:56:31
,wl-rdm,97,300778,0.0-6.89-0.89,0.0,91.0,,,,,,,[],,,,,,56.4,1.0,i,1.0,True,681.0,41.0,59.0,40.0,False,,357.3236161307087,[],"[683, 384]",ColorTask,-2.0,90.0,,,HRV,HRV_0195,2022-11-30 18:56:31
,wl-rdm,98,302744,0.0-6.90-0.90,0.0,92.0,,,,,,,[],,,,,,50.0,0.0,i,1.0,False,656.0,40.0,59.0,40.0,False,,228.08714704744378,[],"[683, 384]",ColorTask,-3.0,91.0,,,HRV,HRV_0195,2022-11-30 18:56:31
,wl-rdm,99,304860,0.0-6.91-0.91,0.0,93.0,,,,,,,[],,,,,,62.5,1.0,i,1.0,True,693.0,42.0,59.0,40.0,False,,335.67149806986697,[],"[683, 384]",ColorTask,-2.0,92.0,,,HRV,HRV_0195,2022-11-30 18:56:31
,wl-rdm,100,307028,0.0-6.92-0.92,0.0,94.0,,,,,,,[],,,,,,87.9,0.0,i,1.0,False,732.0,37.0,59.0,40.0,False,,356.223612992742,[],"[683, 384]",ColorTask,-3.0,93.0,,,HRV,HRV_0195,2022-11-30 18:56:31
,wl-rdm,101,308995,0.0-6.93-0.93,0.0,95.0,,,,,,,[],,,,,,50.0,0.0,i,1.0,False,599.0,36.0,59.0,40.0,False,,314.1509342161748,[],"[683, 384]",ColorTask,-4.0,94.0,,,HRV,HRV_0195,2022-11-30 18:56:31
,wl-rdm,102,310911,0.0-6.94-0.94,0.0,96.0,,,,,,,[],,,,,,50.0,0.0,i,1.0,False,538.0,32.0,59.0,40.0,False,,301.6482943720659,[],"[683, 384]",ColorTask,-5.0,95.0,,,HRV,HRV_0195,2022-11-30 18:56:31
,wl-rdm,103,313044,0.0-6.95-0.95,0.0,97.0,,,,,,,[],,,,,,50.0,0.0,i,1.0,False,802.0,48.0,59.0,40.0,False,,261.4811230975295,[],"[683, 384]",ColorTask,-6.0,96.0,,,HRV,HRV_0195,2022-11-30 18:56:31
,wl-rdm,104,315211,0.0-6.96-0.96,0.0,98.0,,,,,,,[],,,,,,62.5,1.0,i,1.0,True,826.0,50.0,59.0,40.0,False,,275.3856133743272,[],"[683, 384]",ColorTask,-5.0,97.0,,,HRV,HRV_0195,2022-11-30 18:56:31
,wl-rdm,105,317194,0.0-6.97-0.97,0.0,99.0,,,,,,,[],,,,,,50.0,0.0,i,1.0,False,660.0,40.0,59.0,40.0,False,,266.52141905433297,[],"[683, 384]",ColorTask,-6.0,98.0,,,HRV,HRV_0195,2022-11-30 18:56:31
,wl-rdm,106,319944,0.0-6.98-0.98,0.0,100.0,,,,,,,[],,,,,,56.4,0.0,i,1.0,False,1290.0,78.0,59.0,40.0,False,,373.84014487882786,[],"[683, 384]",ColorTask,-7.0,99.0,,,HRV,HRV_0195,2022-11-30 18:56:31
,wl-rdm,107,322044,0.0-6.99-0.99,0.0,101.0,,,,,,,[],,,,,,50.0,1.0,i,1.0,True,692.0,42.0,59.0,40.0,False,,333.183326764689,[],"[683, 384]",ColorTask,-6.0,100.0,,,HRV,HRV_0195,2022-11-30 18:56:31
,wl-rdm,108,323810,0.0-6.100-0.100,0.0,102.0,,,,,,,[],,,,,,53.2,1.0,i,1.0,True,446.0,27.0,59.0,40.0,False,,241.35931912379735,[],"[683, 384]",ColorTask,-5.0,101.0,,,HRV,HRV_0195,2022-11-30 18:56:31
,wl-rdm,109,325610,0.0-6.101-0.101,0.0,103.0,,,,,,,[],,,,,,62.5,1.0,i,1.0,True,435.0,27.0,59.0,40.0,False,,273.4555857815935,[],"[683, 384]",ColorTask,-4.0,102.0,,,HRV,HRV_0195,2022-11-30 18:56:31
,wl-rdm,110,327809,0.0-6.102-0.102,0.0,104.0,,,,,,,[],,,,,,62.5,0.0,i,1.0,False,803.0,49.0,59.0,40.0,False,,312.78078938224576,[],"[683, 384]",ColorTask,-5.0,103.0,,,HRV,HRV_0195,2022-11-30 18:56:31
,wl-rdm,111,329960,0.0-6.103-0.103,0.0,105.0,,,,,,,[],,,,,,50.0,0.0,i,1.0,False,862.0,52.0,59.0,40.0,False,,213.48258578585938,[],"[683, 384]",ColorTask,-6.0,104.0,,,HRV,HRV_0195,2022-11-30 18:56:31
,wl-rdm,112,332342,0.0-6.104-0.104,0.0,106.0,,,,,,,[],,,,,,53.2,0.0,i,1.0,False,949.0,56.0,59.0,40.0,False,,364.739407815116,[],"[683, 384]",ColorTask,-7.0,105.0,,,HRV,HRV_0195,2022-11-30 18:56:31
,wl-rdm,113,334542,0.0-6.105-0.105,0.0,107.0,,,,,,,[],,,,,,87.9,1.0,i,1.0,True,791.0,45.0,59.0,40.0,False,,324.90289422118747,[],"[683, 384]",ColorTask,-6.0,106.0,,,HRV,HRV_0195,2022-11-30 18:56:31
,wl-rdm,114,336642,0.0-6.106-0.106,0.0,108.0,,,,,,,[],,,,,,73.6,0.0,i,1.0,False,793.0,48.0,59.0,40.0,False,,217.71366936068398,[],"[683, 384]",ColorTask,-7.0,107.0,,,HRV,HRV_0195,2022-11-30 18:56:31
,wl-rdm,115,338776,0.0-6.107-0.107,0.0,109.0,,,,,,,[],,,,,,53.2,0.0,i,1.0,False,773.0,47.0,59.0,40.0,False,,277.5254642531102,[],"[683, 384]",ColorTask,-8.0,108.0,,,HRV,HRV_0195,2022-11-30 18:56:31
,wl-rdm,116,341243,0.0-6.108-0.108,0.0,110.0,,,,,,,[],,,,,,62.5,1.0,i,1.0,True,1113.0,67.0,59.0,40.0,False,,300.089617264157,[],"[683, 384]",ColorTask,-7.0,109.0,,,HRV,HRV_0195,2022-11-30 18:56:31
,wl-rdm,117,343074,0.0-6.109-0.109,0.0,111.0,,,,,,,[],,,,,,62.5,0.0,i,1.0,False,560.0,34.0,59.0,40.0,False,,200.78587905536884,[],"[683, 384]",ColorTask,-8.0,110.0,,,HRV,HRV_0195,2022-11-30 18:56:31
,wl-rdm,118,345042,0.0-6.110-0.110,0.0,112.0,,,,,,,[],,,,,,56.4,0.0,i,1.0,False,671.0,41.0,59.0,40.0,False,,206.67691167262413,[],"[683, 384]",ColorTask,-9.0,111.0,,,HRV,HRV_0195,2022-11-30 18:56:31
,wl-rdm,119,346825,0.0-6.111-0.111,0.0,113.0,,,,,,,[],,,,,,56.4,1.0,i,1.0,True,383.0,23.0,59.0,40.0,False,,329.809812063097,[],"[683, 384]",ColorTask,-8.0,112.0,,,HRV,HRV_0195,2022-11-30 18:56:31
,wl-rdm,120,347891,0.0-6.112-0.112,0.0,113.0,,,,,,,[],,,,,,53.2,1.0,i,,,194.0,0.0,59.0,40.0,True,too_early ,353.5830613682731,[],"[683, 384]",ColorTask,-9.0,113.0,,,HRV,HRV_0195,2022-11-30 18:56:31
,wl-rdm,121,350173,0.0-6.113-0.113,0.0,114.0,,,,,,,[],,,,,,87.9,0.0,i,1.0,False,1016.0,61.0,59.0,40.0,False,,201.5381233004916,[],"[683, 384]",ColorTask,-10.0,114.0,,,HRV,HRV_0195,2022-11-30 18:56:31
,wl-rdm,122,352241,0.0-6.114-0.114,0.0,115.0,,,,,,,[],,,,,,87.9,1.0,i,1.0,True,763.0,46.0,59.0,40.0,False,,235.30762611227823,[],"[683, 384]",ColorTask,-9.0,115.0,,,HRV,HRV_0195,2022-11-30 18:56:31
,wl-rdm,123,354457,0.0-6.115-0.115,0.0,116.0,,,,,,,[],,,,,,53.2,1.0,i,1.0,True,789.0,48.0,59.0,40.0,False,,337.5668439433508,[],"[683, 384]",ColorTask,-8.0,116.0,,,HRV,HRV_0195,2022-11-30 18:56:31
,wl-html-keyboard-response,124,361654,0.0-7.0-0.0,1.0,117.0,,,,,,,,5191.0,1.0,0,,,,,,,,,,,,,,,,,,,,,,HRV,HRV_0195,2022-11-30 18:56:31
,wl-rdm,125,363708,0.0-8.0-0.0,1.0,118.0,,,,,,,[],,,,,,87.9,0.0,u,0.0,True,646.0,39.0,59.0,40.0,False,,350.81875308062035,[],"[683, 384]",ColorTask,-7.0,1.0,,,HRV,HRV_0195,2022-11-30 18:56:31
,wl-rdm,126,365874,0.0-8.1-0.1,1.0,119.0,,,,,,,[],,,,,,87.9,1.0,u,0.0,False,885.0,53.0,59.0,40.0,False,,209.6326343093796,[],"[683, 384]",ColorTask,-8.0,2.0,,,HRV,HRV_0195,2022-11-30 18:56:31
,wl-rdm,127,368408,0.0-8.2-0.2,1.0,120.0,,,,,,,[],,,,,,73.6,0.0,u,0.0,True,1192.0,72.0,59.0,40.0,False,,269.9849026749582,[],"[683, 384]",ColorTask,-7.0,3.0,,,HRV,HRV_0195,2022-11-30 18:56:31
,wl-rdm,128,370508,0.0-8.3-0.3,1.0,121.0,,,,,,,[],,,,,,87.9,1.0,u,0.0,False,708.0,43.0,59.0,40.0,False,,309.57526367520103,[],"[683, 384]",ColorTask,-8.0,4.0,,,HRV,HRV_0195,2022-11-30 18:56:31
,wl-rdm,129,372610,0.0-8.4-0.4,1.0,122.0,,,,,,,[],,,,,,73.6,1.0,u,0.0,False,722.0,44.0,59.0,40.0,False,,285.83161660870036,[],"[683, 384]",ColorTask,-9.0,5.0,,,HRV,HRV_0195,2022-11-30 18:56:31
,wl-rdm,130,374856,0.0-8.5-0.5,1.0,123.0,,,,,,,[],,,,,,53.2,0.0,u,0.0,True,965.0,58.0,59.0,40.0,False,,215.82102809612437,[],"[683, 384]",ColorTask,-8.0,6.0,,,HRV,HRV_0195,2022-11-30 18:56:31
,wl-rdm,131,377174,0.0-8.6-0.6,1.0,124.0,,,,,,,[],,,,,,87.9,1.0,u,0.0,False,947.0,58.0,59.0,40.0,False,,289.21892880170026,[],"[683, 384]",ColorTask,-9.0,7.0,,,HRV,HRV_0195,2022-11-30 18:56:31
,wl-rdm,132,379276,0.0-8.7-0.7,1.0,125.0,,,,,,,[],,,,,,62.5,1.0,u,0.0,False,712.0,43.0,59.0,40.0,False,,332.70186590563605,[],"[683, 384]",ColorTask,-10.0,8.0,,,HRV,HRV_0195,2022-11-30 18:56:31
,wl-rdm,133,381490,0.0-8.8-0.8,1.0,126.0,,,,,,,[],,,,,,56.4,0.0,u,0.0,True,744.0,45.0,59.0,40.0,False,,392.8601379248705,[],"[683, 384]",ColorTask,-9.0,9.0,,,HRV,HRV_0195,2022-11-30 18:56:31
,wl-rdm,134,383590,0.0-8.9-0.9,1.0,127.0,,,,,,,[],,,,,,73.6,0.0,u,0.0,True,796.0,48.0,59.0,40.0,False,,219.35131916849633,[],"[683, 384]",ColorTask,-8.0,10.0,,,HRV,HRV_0195,2022-11-30 18:56:31
,wl-rdm,135,385606,0.0-8.10-0.10,1.0,128.0,,,,,,,[],,,,,,56.4,1.0,u,0.0,False,697.0,42.0,59.0,40.0,False,,237.18978076099958,[],"[683, 384]",ColorTask,-9.0,11.0,,,HRV,HRV_0195,2022-11-30 18:56:31
,wl-rdm,136,387773,0.0-8.11-0.11,1.0,129.0,,,,,,,[],,,,,,73.6,1.0,u,0.0,False,866.0,50.0,59.0,40.0,False,,234.70470618759072,[],"[683, 384]",ColorTask,-10.0,12.0,,,HRV,HRV_0195,2022-11-30 18:56:31
,wl-rdm,137,389857,0.0-8.12-0.12,1.0,130.0,,,,,,,[],,,,,,50.0,1.0,u,0.0,False,722.0,44.0,59.0,40.0,False,,283.9429600875656,[],"[683, 384]",ColorTask,-11.0,13.0,,,HRV,HRV_0195,2022-11-30 18:56:31
,wl-rdm,138,392039,0.0-8.13-0.13,1.0,131.0,,,,,,,[],,,,,,87.9,0.0,i,1.0,False,719.0,43.0,59.0,40.0,False,,379.1179582404467,[],"[683, 384]",ColorTask,-12.0,14.0,,,HRV,HRV_0195,2022-11-30 18:56:31
,wl-rdm,139,394190,0.0-8.14-0.14,1.0,132.0,,,,,,,[],,,,,,73.6,0.0,u,0.0,True,787.0,38.0,59.0,40.0,False,,267.24556629975024,[],"[683, 384]",ColorTask,-11.0,15.0,,,HRV,HRV_0195,2022-11-30 18:56:31
,wl-rdm,140,396340,0.0-8.15-0.15,1.0,133.0,,,,,,,[],,,,,,73.6,1.0,i,1.0,True,721.0,44.0,59.0,40.0,False,,334.53195330447056,[],"[683, 384]",ColorTask,-10.0,16.0,,,HRV,HRV_0195,2022-11-30 18:56:31
,wl-rdm,141,398490,0.0-8.16-0.16,1.0,134.0,,,,,,,[],,,,,,53.2,0.0,i,1.0,False,679.0,41.0,59.0,40.0,False,,388.0933312845706,[],"[683, 384]",ColorTask,-11.0,17.0,,,HRV,HRV_0195,2022-11-30 18:56:31
,wl-rdm,142,400606,0.0-8.17-0.17,1.0,135.0,,,,,,,[],,,,,,50.0,1.0,u,0.0,False,681.0,41.0,59.0,40.0,False,,351.2515569006032,[],"[683, 384]",ColorTask,-12.0,18.0,,,HRV,HRV_0195,2022-11-30 18:56:31
,wl-rdm,143,402539,0.0-8.18-0.18,1.0,136.0,,,,,,,[],,,,,,56.4,1.0,u,0.0,False,661.0,39.0,59.0,40.0,False,,236.9681110358294,[],"[683, 384]",ColorTask,-13.0,19.0,,,HRV,HRV_0195,2022-11-30 18:56:31
,wl-rdm,144,404423,0.0-8.19-0.19,1.0,137.0,,,,,,,[],,,,,,50.0,0.0,u,0.0,True,409.0,25.0,59.0,40.0,False,,390.60413540116735,[],"[683, 384]",ColorTask,-12.0,20.0,,,HRV,HRV_0195,2022-11-30 18:56:31
,wl-rdm,145,406505,0.0-8.20-0.20,1.0,138.0,,,,,,,[],,,,,,73.6,1.0,u,0.0,False,639.0,39.0,59.0,40.0,False,,360.6014323627709,[],"[683, 384]",ColorTask,-13.0,21.0,,,HRV,HRV_0195,2022-11-30 18:56:31
,wl-rdm,146,408638,0.0-8.21-0.21,1.0,139.0,,,,,,,[],,,,,,56.4,1.0,u,0.0,False,830.0,50.0,59.0,40.0,False,,229.63597268118414,[],"[683, 384]",ColorTask,-14.0,22.0,,,HRV,HRV_0195,2022-11-30 18:56:31
,wl-rdm,147,410738,0.0-8.22-0.22,1.0,140.0,,,,,,,[],,,,,,87.9,0.0,u,0.0,True,770.0,47.0,59.0,40.0,False,,239.20450766222768,[],"[683, 384]",ColorTask,-13.0,23.0,,,HRV,HRV_0195,2022-11-30 18:56:31
,wl-rdm,148,413106,0.0-8.23-0.23,1.0,141.0,,,,,,,[],,,,,,56.4,1.0,u,0.0,False,921.0,56.0,59.0,40.0,False,,372.12416236243826,[],"[683, 384]",ColorTask,-14.0,24.0,,,HRV,HRV_0195,2022-11-30 18:56:31
,wl-rdm,149,415556,0.0-8.24-0.24,1.0,142.0,,,,,,,[],,,,,,73.6,1.0,u,0.0,False,1018.0,61.0,59.0,40.0,False,,352.02962641668523,[],"[683, 384]",ColorTask,-15.0,25.0,,,HRV,HRV_0195,2022-11-30 18:56:31
,wl-rdm,150,417721,0.0-8.25-0.25,1.0,143.0,,,,,,,[],,,,,,87.9,1.0,u,0.0,False,835.0,51.0,59.0,40.0,False,,240.16988139197846,[],"[683, 384]",ColorTask,-16.0,26.0,,,HRV,HRV_0195,2022-11-30 18:56:31
,wl-rdm,151,419838,0.0-8.26-0.26,1.0,144.0,,,,,,,[],,,,,,62.5,0.0,u,0.0,True,812.0,49.0,59.0,40.0,False,,222.40834341871,[],"[683, 384]",ColorTask,-15.0,27.0,,,HRV,HRV_0195,2022-11-30 18:56:31
,wl-rdm,152,421990,0.0-8.27-0.27,1.0,145.0,,,,,,,[],,,,,,87.9,1.0,u,0.0,False,746.0,45.0,59.0,40.0,False,,348.0240574867048,[],"[683, 384]",ColorTask,-16.0,28.0,,,HRV,HRV_0195,2022-11-30 18:56:31
,wl-rdm,153,424139,0.0-8.28-0.28,1.0,146.0,,,,,,,[],,,,,,50.0,0.0,u,0.0,True,690.0,42.0,59.0,40.0,False,,376.50627484960216,[],"[683, 384]",ColorTask,-15.0,29.0,,,HRV,HRV_0195,2022-11-30 18:56:31
,wl-rdm,154,426206,0.0-8.29-0.29,1.0,147.0,,,,,,,[],,,,,,56.4,1.0,u,0.0,False,771.0,47.0,59.0,40.0,False,,212.15048477818686,[],"[683, 384]",ColorTask,-16.0,30.0,,,HRV,HRV_0195,2022-11-30 18:56:31
,wl-rdm,155,428489,0.0-8.30-0.30,1.0,148.0,,,,,,,[],,,,,,62.5,1.0,u,0.0,False,838.0,51.0,59.0,40.0,False,,362.4874027639447,[],"[683, 384]",ColorTask,-17.0,31.0,,,HRV,HRV_0195,2022-11-30 18:56:31
,wl-rdm,156,430489,0.0-8.31-0.31,1.0,149.0,,,,,,,[],,,,,,73.6,0.0,u,0.0,True,697.0,42.0,59.0,40.0,False,,229.5971619706814,[],"[683, 384]",ColorTask,-16.0,32.0,,,HRV,HRV_0195,2022-11-30 18:56:31
,wl-rdm,157,432589,0.0-8.32-0.32,1.0,150.0,,,,,,,[],,,,,,53.2,1.0,u,0.0,False,636.0,39.0,59.0,40.0,False,,383.0636364857721,[],"[683, 384]",ColorTask,-17.0,33.0,,,HRV,HRV_0195,2022-11-30 18:56:31
,wl-rdm,158,434723,0.0-8.33-0.33,1.0,151.0,,,,,,,[],,,,,,87.9,1.0,u,0.0,False,813.0,49.0,59.0,40.0,False,,257.63169179532844,[],"[683, 384]",ColorTask,-18.0,34.0,,,HRV,HRV_0195,2022-11-30 18:56:31
,wl-rdm,159,436755,0.0-8.34-0.34,1.0,152.0,,,,,,,[],,,,,,53.2,1.0,u,0.0,False,758.0,46.0,59.0,40.0,False,,205.8619818151033,[],"[683, 384]",ColorTask,-19.0,35.0,,,HRV,HRV_0195,2022-11-30 18:56:31
,wl-rdm,160,439088,0.0-8.35-0.35,1.0,153.0,,,,,,,[],,,,,,62.5,1.0,u,0.0,False,955.0,58.0,59.0,40.0,False,,283.4293296256993,[],"[683, 384]",ColorTask,-20.0,36.0,,,HRV,HRV_0195,2022-11-30 18:56:31
,wl-rdm,161,441439,0.0-8.36-0.36,1.0,154.0,,,,,,,[],,,,,,87.9,0.0,u,0.0,True,1021.0,62.0,59.0,40.0,False,,266.48207144743316,[],"[683, 384]",ColorTask,-19.0,37.0,,,HRV,HRV_0195,2022-11-30 18:56:31
,wl-rdm,162,444355,0.0-8.37-0.37,1.0,155.0,,,,,,,[],,,,,,50.0,0.0,u,0.0,True,1441.0,86.0,59.0,40.0,False,,386.7491387699173,[],"[683, 384]",ColorTask,-18.0,38.0,,,HRV,HRV_0195,2022-11-30 18:56:31
,wl-rdm,163,447460,0.0-8.38-0.38,1.0,156.0,,,,,,,[],,,,,,50.0,0.0,i,1.0,False,1736.0,105.0,59.0,40.0,False,,287.16017842307787,[],"[683, 384]",ColorTask,-19.0,39.0,,,HRV,HRV_0195,2022-11-30 18:56:31
,wl-rdm,164,449888,0.0-8.39-0.39,1.0,157.0,,,,,,,[],,,,,,50.0,1.0,u,0.0,False,979.0,59.0,59.0,40.0,False,,399.9325466031248,[],"[683, 384]",ColorTask,-20.0,40.0,,,HRV,HRV_0195,2022-11-30 18:56:31
,wl-rdm,165,452605,0.0-8.40-0.40,1.0,158.0,,,,,,,[],,,,,,87.9,0.0,u,0.0,True,1407.0,83.0,59.0,40.0,False,,223.71188085299792,[],"[683, 384]",ColorTask,-19.0,41.0,,,HRV,HRV_0195,2022-11-30 18:56:31
,wl-rdm,166,454872,0.0-8.41-0.41,1.0,159.0,,,,,,,[],,,,,,50.0,1.0,u,0.0,False,862.0,51.0,59.0,40.0,False,,341.498565865875,[],"[683, 384]",ColorTask,-20.0,42.0,,,HRV,HRV_0195,2022-11-30 18:56:31
,wl-rdm,167,456888,0.0-8.42-0.42,1.0,160.0,,,,,,,[],,,,,,53.2,0.0,u,0.0,True,713.0,43.0,59.0,40.0,False,,229.2148059528674,[],"[683, 384]",ColorTask,-19.0,43.0,,,HRV,HRV_0195,2022-11-30 18:56:31
,wl-rdm,168,458972,0.0-8.43-0.43,1.0,161.0,,,,,,,[],,,,,,50.0,1.0,u,0.0,False,777.0,47.0,59.0,40.0,False,,218.03632833073357,[],"[683, 384]",ColorTask,-20.0,44.0,,,HRV,HRV_0195,2022-11-30 18:56:31
,wl-rdm,169,460807,0.0-8.44-0.44,1.0,162.0,,,,,,,[],,,,,,87.9,0.0,u,0.0,True,559.0,32.0,59.0,40.0,False,,202.4713974191321,[],"[683, 384]",ColorTask,-19.0,45.0,,,HRV,HRV_0195,2022-11-30 18:56:31
,wl-rdm,170,462654,0.0-8.45-0.45,1.0,163.0,,,,,,,[],,,,,,73.6,1.0,u,0.0,False,440.0,27.0,59.0,40.0,False,,324.5388286467368,[],"[683, 384]",ColorTask,-20.0,46.0,,,HRV,HRV_0195,2022-11-30 18:56:31
,wl-rdm,171,464338,0.0-8.46-0.46,1.0,164.0,,,,,,,[],,,,,,62.5,1.0,u,0.0,False,296.0,18.0,59.0,40.0,False,,303.3643060803885,[],"[683, 384]",ColorTask,-21.0,47.0,,,HRV,HRV_0195,2022-11-30 18:56:31
,wl-rdm,172,466205,0.0-8.47-0.47,1.0,165.0,,,,,,,[],,,,,,56.4,0.0,u,0.0,True,473.0,29.0,59.0,40.0,False,,309.7592243400605,[],"[683, 384]",ColorTask,-20.0,48.0,,,HRV,HRV_0195,2022-11-30 18:56:31
,wl-rdm,173,468304,0.0-8.48-0.48,1.0,166.0,,,,,,,[],,,,,,56.4,1.0,u,0.0,False,625.0,38.0,59.0,40.0,False,,390.09168511789755,[],"[683, 384]",ColorTask,-21.0,49.0,,,HRV,HRV_0195,2022-11-30 18:56:31
,wl-rdm,174,470387,0.0-8.49-0.49,1.0,167.0,,,,,,,[],,,,,,56.4,0.0,u,0.0,True,716.0,42.0,59.0,40.0,False,,298.25589481510644,[],"[683, 384]",ColorTask,-20.0,50.0,,,HRV,HRV_0195,2022-11-30 18:56:31
,wl-rdm,175,472621,0.0-8.50-0.50,1.0,168.0,,,,,,,[],,,,,,87.9,1.0,u,0.0,False,830.0,50.0,59.0,40.0,False,,350.6346796846123,[],"[683, 384]",ColorTask,-21.0,51.0,,,HRV,HRV_0195,2022-11-30 18:56:31
,wl-rdm,176,474871,0.0-8.51-0.51,1.0,169.0,,,,,,,[],,,,,,62.5,1.0,u,0.0,False,840.0,50.0,59.0,40.0,False,,317.8078878259242,[],"[683, 384]",ColorTask,-22.0,52.0,,,HRV,HRV_0195,2022-11-30 18:56:31
,wl-rdm,177,478071,0.0-8.52-0.52,1.0,170.0,,,,,,,[],,,,,,73.6,0.0,u,0.0,True,1895.0,114.0,59.0,40.0,False,,227.0179503526906,[],"[683, 384]",ColorTask,-21.0,53.0,,,HRV,HRV_0195,2022-11-30 18:56:31
,wl-rdm,178,481371,0.0-8.53-0.53,1.0,171.0,,,,,,,[],,,,,,56.4,1.0,i,1.0,True,1938.0,115.0,59.0,40.0,False,,286.0072592853677,[],"[683, 384]",ColorTask,-20.0,54.0,,,HRV,HRV_0195,2022-11-30 18:56:31
,wl-rdm,179,483370,0.0-8.54-0.54,1.0,172.0,,,,,,,[],,,,,,73.6,0.0,i,1.0,False,538.0,33.0,59.0,40.0,False,,381.4610253876558,[],"[683, 384]",ColorTask,-21.0,55.0,,,HRV,HRV_0195,2022-11-30 18:56:31
,wl-rdm,180,485452,0.0-8.55-0.55,1.0,173.0,,,,,,,[],,,,,,73.6,0.0,i,1.0,False,676.0,41.0,59.0,40.0,False,,332.78987522606576,[],"[683, 384]",ColorTask,-22.0,56.0,,,HRV,HRV_0195,2022-11-30 18:56:31
,wl-rdm,181,489768,0.0-8.56-0.56,1.0,173.0,,,,,,,[],,,,,,73.6,1.0,,,,,176.0,59.0,40.0,True,RT_timeout ,216.65167836464875,[],"[683, 384]",ColorTask,-23.0,57.0,,,HRV,HRV_0195,2022-11-30 18:56:31
,wl-rdm,182,491420,0.0-8.57-0.57,1.0,174.0,,,,,,,[],,,,,,62.5,1.0,u,0.0,False,229.0,14.0,59.0,40.0,False,,339.99093173583196,[],"[683, 384]",ColorTask,-24.0,58.0,,,HRV,HRV_0195,2022-11-30 18:56:31
,wl-rdm,183,495303,0.0-8.58-0.58,1.0,175.0,,,,,,,[],,,,,,56.4,0.0,u,0.0,True,2559.0,154.0,59.0,40.0,False,,248.9007926037752,[],"[683, 384]",ColorTask,-23.0,59.0,,,HRV,HRV_0195,2022-11-30 18:56:31
,wl-rdm,184,498619,0.0-8.59-0.59,1.0,176.0,,,,,,,[],,,,,,56.4,0.0,u,0.0,True,1954.0,118.0,59.0,40.0,False,,281.8924668422224,[],"[683, 384]",ColorTask,-22.0,60.0,,,HRV,HRV_0195,2022-11-30 18:56:31
,wl-rdm,185,501118,0.0-8.60-0.60,1.0,177.0,,,,,,,[],,,,,,56.4,0.0,u,0.0,True,1081.0,65.0,59.0,40.0,False,,347.926385237215,[],"[683, 384]",ColorTask,-21.0,61.0,,,HRV,HRV_0195,2022-11-30 18:56:31
,wl-rdm,186,502951,0.0-8.61-0.61,1.0,178.0,,,,,,,[],,,,,,62.5,0.0,u,0.0,True,454.0,27.0,59.0,40.0,False,,307.0214608355886,[],"[683, 384]",ColorTask,-20.0,62.0,,,HRV,HRV_0195,2022-11-30 18:56:31
,wl-rdm,187,505086,0.0-8.62-0.62,1.0,179.0,,,,,,,[],,,,,,50.0,0.0,u,0.0,True,822.0,50.0,59.0,40.0,False,,218.15105919122593,[],"[683, 384]",ColorTask,-19.0,63.0,,,HRV,HRV_0195,2022-11-30 18:56:31
,wl-rdm,188,507051,0.0-8.63-0.63,1.0,180.0,,,,,,,[],,,,,,53.2,0.0,u,0.0,True,643.0,39.0,59.0,40.0,False,,245.02064512524535,[],"[683, 384]",ColorTask,-18.0,64.0,,,HRV,HRV_0195,2022-11-30 18:56:31
,wl-rdm,189,508868,0.0-8.64-0.64,1.0,181.0,,,,,,,[],,,,,,87.9,0.0,u,0.0,True,407.0,25.0,59.0,40.0,False,,322.51525212882075,[],"[683, 384]",ColorTask,-17.0,65.0,,,HRV,HRV_0195,2022-11-30 18:56:31
,wl-rdm,190,510934,0.0-8.65-0.65,1.0,182.0,,,,,,,[],,,,,,56.4,0.0,u,0.0,True,607.0,37.0,59.0,40.0,False,,376.1677862693608,[],"[683, 384]",ColorTask,-16.0,66.0,,,HRV,HRV_0195,2022-11-30 18:56:31
,wl-rdm,191,512718,0.0-8.66-0.66,1.0,183.0,,,,,,,[],,,,,,62.5,0.0,u,0.0,True,464.0,28.0,59.0,40.0,False,,241.12244750060762,[],"[683, 384]",ColorTask,-15.0,67.0,,,HRV,HRV_0195,2022-11-30 18:56:31
,wl-rdm,192,514652,0.0-8.67-0.67,1.0,184.0,,,,,,,[],,,,,,62.5,1.0,u,0.0,False,642.0,38.0,59.0,40.0,False,,210.44066470718082,[],"[683, 384]",ColorTask,-16.0,68.0,,,HRV,HRV_0195,2022-11-30 18:56:31
,wl-rdm,193,516402,0.0-8.68-0.68,1.0,185.0,,,,,,,[],,,,,,73.6,0.0,u,0.0,True,321.0,20.0,59.0,40.0,False,,361.69864144352186,[],"[683, 384]",ColorTask,-15.0,69.0,,,HRV,HRV_0195,2022-11-30 18:56:31
,wl-rdm,194,518285,0.0-8.69-0.69,1.0,186.0,,,,,,,[],,,,,,53.2,0.0,u,0.0,True,489.0,30.0,59.0,40.0,False,,310.0527160601316,[],"[683, 384]",ColorTask,-14.0,70.0,,,HRV,HRV_0195,2022-11-30 18:56:31
,wl-rdm,195,519984,0.0-8.70-0.70,1.0,187.0,,,,,,,[],,,,,,53.2,1.0,u,0.0,False,374.0,23.0,59.0,40.0,False,,234.259973776837,[],"[683, 384]",ColorTask,-15.0,71.0,,,HRV,HRV_0195,2022-11-30 18:56:31
,wl-rdm,196,521902,0.0-8.71-0.71,1.0,188.0,,,,,,,[],,,,,,62.5,0.0,u,0.0,True,609.0,37.0,59.0,40.0,False,,227.0578218150614,[],"[683, 384]",ColorTask,-14.0,72.0,,,HRV,HRV_0195,2022-11-30 18:56:31
,wl-rdm,197,524250,0.0-8.72-0.72,1.0,189.0,,,,,,,[],,,,,,50.0,1.0,u,0.0,False,970.0,58.0,59.0,40.0,False,,314.085608262437,[],"[683, 384]",ColorTask,-15.0,73.0,,,HRV,HRV_0195,2022-11-30 18:56:31
,wl-rdm,198,525868,0.0-8.73-0.73,1.0,190.0,,,,,,,[],,,,,,50.0,0.0,u,0.0,True,193.0,12.0,59.0,40.0,False,,358.8271499273063,[],"[683, 384]",ColorTask,-14.0,74.0,,,HRV,HRV_0195,2022-11-30 18:56:31
,wl-rdm,199,527619,0.0-8.74-0.74,1.0,191.0,,,,,,,[],,,,,,56.4,0.0,u,0.0,True,372.0,23.0,59.0,40.0,False,,286.0605128305192,[],"[683, 384]",ColorTask,-13.0,75.0,,,HRV,HRV_0195,2022-11-30 18:56:31
,wl-rdm,200,529585,0.0-8.75-0.75,1.0,192.0,,,,,,,[],,,,,,53.2,1.0,u,0.0,False,623.0,37.0,59.0,40.0,False,,251.54944359686718,[],"[683, 384]",ColorTask,-14.0,76.0,,,HRV,HRV_0195,2022-11-30 18:56:31
,wl-rdm,201,531169,0.0-8.76-0.76,1.0,193.0,,,,,,,[],,,,,,56.4,0.0,u,0.0,True,114.0,7.0,59.0,40.0,False,,397.4576683999618,[],"[683, 384]",ColorTask,-13.0,77.0,,,HRV,HRV_0195,2022-11-30 18:56:31
,wl-rdm,202,533285,0.0-8.77-0.77,1.0,194.0,,,,,,,[],,,,,,53.2,0.0,u,0.0,True,783.0,40.0,59.0,40.0,False,,251.94889245376845,[],"[683, 384]",ColorTask,-12.0,78.0,,,HRV,HRV_0195,2022-11-30 18:56:31
,wl-rdm,203,536301,0.0-8.78-0.78,1.0,195.0,,,,,,,[],,,,,,62.5,0.0,u,0.0,True,1603.0,97.0,59.0,40.0,False,,345.34495612069327,[],"[683, 384]",ColorTask,-11.0,79.0,,,HRV,HRV_0195,2022-11-30 18:56:31
,wl-rdm,204,539118,0.0-8.79-0.79,1.0,196.0,,,,,,,[],,,,,,62.5,1.0,i,1.0,True,1506.0,90.0,59.0,40.0,False,,226.30950275491534,[],"[683, 384]",ColorTask,-10.0,80.0,,,HRV,HRV_0195,2022-11-30 18:56:31
,wl-rdm,205,541334,0.0-8.80-0.80,1.0,197.0,,,,,,,[],,,,,,73.6,1.0,i,1.0,True,858.0,52.0,59.0,40.0,False,,273.01336367585606,[],"[683, 384]",ColorTask,-9.0,81.0,,,HRV,HRV_0195,2022-11-30 18:56:31
,wl-rdm,206,543068,0.0-8.81-0.81,1.0,198.0,,,,,,,[],,,,,,62.5,0.0,u,0.0,True,264.0,16.0,59.0,40.0,False,,392.045930289878,[],"[683, 384]",ColorTask,-8.0,82.0,,,HRV,HRV_0195,2022-11-30 18:56:31
,wl-rdm,207,545101,0.0-8.82-0.82,1.0,199.0,,,,,,,[],,,,,,50.0,0.0,i,1.0,False,671.0,41.0,59.0,40.0,False,,280.22959586929903,[],"[683, 384]",ColorTask,-9.0,83.0,,,HRV,HRV_0195,2022-11-30 18:56:31
,wl-rdm,208,546668,0.0-8.83-0.83,1.0,200.0,,,,,,,[],,,,,,62.5,1.0,i,1.0,True,255.0,16.0,59.0,40.0,False,,220.24442915123484,[],"[683, 384]",ColorTask,-8.0,84.0,,,HRV,HRV_0195,2022-11-30 18:56:31
,wl-rdm,209,548351,0.0-8.84-0.84,1.0,201.0,,,,,,,[],,,,,,50.0,1.0,u,0.0,False,356.0,22.0,59.0,40.0,False,,253.229803694713,[],"[683, 384]",ColorTask,-9.0,85.0,,,HRV,HRV_0195,2022-11-30 18:56:31
,wl-rdm,210,550354,0.0-8.85-0.85,1.0,202.0,,,,,,,[],,,,,,62.5,0.0,i,1.0,False,655.0,40.0,59.0,40.0,False,,266.18622413817667,[],"[683, 384]",ColorTask,-10.0,86.0,,,HRV,HRV_0195,2022-11-30 18:56:31
,wl-rdm,211,552584,0.0-8.86-0.86,1.0,203.0,,,,,,,[],,,,,,53.2,1.0,u,0.0,False,846.0,51.0,59.0,40.0,False,,302.7929021233743,[],"[683, 384]",ColorTask,-11.0,87.0,,,HRV,HRV_0195,2022-11-30 18:56:31
,wl-rdm,212,555466,0.0-8.87-0.87,1.0,204.0,,,,,,,[],,,,,,50.0,1.0,u,0.0,False,1421.0,86.0,59.0,40.0,False,,367.00979288955574,[],"[683, 384]",ColorTask,-12.0,88.0,,,HRV,HRV_0195,2022-11-30 18:56:31
,wl-rdm,213,557720,0.0-8.88-0.88,1.0,205.0,,,,,,,[],,,,,,62.5,0.0,u,0.0,True,794.0,49.0,59.0,40.0,False,,352.9314171262564,[],"[683, 384]",ColorTask,-11.0,89.0,,,HRV,HRV_0195,2022-11-30 18:56:31
,wl-rdm,214,559600,0.0-8.89-0.89,1.0,206.0,,,,,,,[],,,,,,87.9,1.0,u,0.0,False,615.0,37.0,59.0,40.0,False,,213.74558191831028,[],"[683, 384]",ColorTask,-12.0,90.0,,,HRV,HRV_0195,2022-11-30 18:56:31
,wl-rdm,215,561599,0.0-8.90-0.90,1.0,207.0,,,,,,,[],,,,,,50.0,1.0,u,0.0,False,683.0,37.0,59.0,40.0,False,,256.68384119285196,[],"[683, 384]",ColorTask,-13.0,91.0,,,HRV,HRV_0195,2022-11-30 18:56:31
,wl-rdm,216,563150,0.0-8.91-0.91,1.0,208.0,,,,,,,[],,,,,,73.6,1.0,u,0.0,False,267.0,17.0,59.0,40.0,False,,201.59079651488497,[],"[683, 384]",ColorTask,-14.0,92.0,,,HRV,HRV_0195,2022-11-30 18:56:31
,wl-rdm,217,564867,0.0-8.92-0.92,1.0,209.0,,,,,,,[],,,,,,53.2,1.0,u,0.0,False,389.0,24.0,59.0,40.0,False,,235.05806978869532,[],"[683, 384]",ColorTask,-15.0,93.0,,,HRV,HRV_0195,2022-11-30 18:56:31
,wl-rdm,218,566633,0.0-8.93-0.93,1.0,210.0,,,,,,,[],,,,,,73.6,1.0,u,0.0,False,459.0,28.0,59.0,40.0,False,,230.29594461214577,[],"[683, 384]",ColorTask,-16.0,94.0,,,HRV,HRV_0195,2022-11-30 18:56:31
,wl-rdm,219,569000,0.0-8.94-0.94,1.0,211.0,,,,,,,[],,,,,,87.9,0.0,u,0.0,True,1061.0,64.0,59.0,40.0,False,,230.09962912636544,[],"[683, 384]",ColorTask,-15.0,95.0,,,HRV,HRV_0195,2022-11-30 18:56:31
,wl-rdm,220,570983,0.0-8.95-0.95,1.0,212.0,,,,,,,[],,,,,,56.4,1.0,u,0.0,False,575.0,34.0,59.0,40.0,False,,325.23833529863236,[],"[683, 384]",ColorTask,-16.0,96.0,,,HRV,HRV_0195,2022-11-30 18:56:31
,wl-rdm,221,575315,0.0-8.96-0.96,1.0,212.0,,,,,,,[],,,,,,87.9,1.0,u,,,3171.0,176.0,59.0,40.0,True,RT_timeout ,218.72733045693667,[],"[683, 384]",ColorTask,-17.0,97.0,,,HRV,HRV_0195,2022-11-30 18:56:31
,wl-rdm,222,579615,0.0-8.97-0.97,1.0,212.0,,,,,,,[],,,,,,50.0,0.0,,,,,176.0,59.0,40.0,True,RT_timeout ,202.92698003461135,[],"[683, 384]",ColorTask,-18.0,98.0,,,HRV,HRV_0195,2022-11-30 18:56:31
,wl-rdm,223,583948,0.0-8.98-0.98,1.0,212.0,,,,,,,[],,,,,,50.0,0.0,,,,,176.0,59.0,40.0,True,RT_timeout ,219.63195375170866,[],"[683, 384]",ColorTask,-19.0,99.0,,,HRV,HRV_0195,2022-11-30 18:56:31
,wl-rdm,224,585482,0.0-8.99-0.99,1.0,213.0,,,,,,,[],,,,,,56.4,1.0,u,0.0,False,209.0,13.0,59.0,40.0,False,,235.34232595423623,[],"[683, 384]",ColorTask,-20.0,100.0,,,HRV,HRV_0195,2022-11-30 18:56:31
,wl-rdm,225,587231,0.0-8.100-0.100,1.0,214.0,,,,,,,[],,,,,,62.5,0.0,u,0.0,True,399.0,25.0,59.0,40.0,False,,252.46510800587063,[],"[683, 384]",ColorTask,-19.0,101.0,,,HRV,HRV_0195,2022-11-30 18:56:31
,wl-rdm,226,589048,0.0-8.101-0.101,1.0,215.0,,,,,,,[],,,,,,53.2,1.0,u,0.0,False,436.0,27.0,59.0,40.0,False,,296.6601118079692,[],"[683, 384]",ColorTask,-20.0,102.0,,,HRV,HRV_0195,2022-11-30 18:56:31
,wl-rdm,227,590782,0.0-8.102-0.102,1.0,216.0,,,,,,,[],,,,,,53.2,0.0,u,0.0,True,379.0,23.0,59.0,40.0,False,,282.0052634903955,[],"[683, 384]",ColorTask,-19.0,103.0,,,HRV,HRV_0195,2022-11-30 18:56:31
,wl-rdm,228,592499,0.0-8.103-0.103,1.0,217.0,,,,,,,[],,,,,,50.0,0.0,u,0.0,True,372.0,23.0,59.0,40.0,False,,266.2803441923866,[],"[683, 384]",ColorTask,-18.0,104.0,,,HRV,HRV_0195,2022-11-30 18:56:31
,wl-rdm,229,594198,0.0-8.104-0.104,1.0,218.0,,,,,,,[],,,,,,53.2,0.0,u,0.0,True,314.0,19.0,59.0,40.0,False,,312.9373596779892,[],"[683, 384]",ColorTask,-17.0,105.0,,,HRV,HRV_0195,2022-11-30 18:56:31
,wl-rdm,230,596032,0.0-8.105-0.105,1.0,219.0,,,,,,,[],,,,,,53.2,1.0,u,0.0,False,554.0,34.0,59.0,40.0,False,,200.42374524498524,[],"[683, 384]",ColorTask,-18.0,106.0,,,HRV,HRV_0195,2022-11-30 18:56:31
,wl-rdm,231,597831,0.0-8.106-0.106,1.0,220.0,,,,,,,[],,,,,,53.2,0.0,u,0.0,True,371.0,23.0,59.0,40.0,False,,347.7293962377027,[],"[683, 384]",ColorTask,-17.0,107.0,,,HRV,HRV_0195,2022-11-30 18:56:31
,wl-rdm,232,600199,0.0-8.107-0.107,1.0,221.0,,,,,,,[],,,,,,87.9,0.0,u,0.0,True,929.0,56.0,59.0,40.0,False,,374.8717981783953,[],"[683, 384]",ColorTask,-16.0,108.0,,,HRV,HRV_0195,2022-11-30 18:56:31
,wl-rdm,233,602259,0.0-8.108-0.108,1.0,222.0,,,,,,,[],,,,,,53.2,1.0,u,0.0,False,606.0,37.0,59.0,40.0,False,,380.13816214135795,[],"[683, 384]",ColorTask,-17.0,109.0,,,HRV,HRV_0195,2022-11-30 18:56:31
,wl-rdm,234,604381,0.0-8.109-0.109,1.0,223.0,,,,,,,[],,,,,,73.6,0.0,u,0.0,True,729.0,44.0,59.0,40.0,False,,333.9210891207323,[],"[683, 384]",ColorTask,-16.0,110.0,,,HRV,HRV_0195,2022-11-30 18:56:31
,wl-rdm,235,605998,0.0-8.110-0.110,1.0,224.0,,,,,,,[],,,,,,87.9,1.0,u,0.0,False,153.0,10.0,59.0,40.0,False,,378.1408313605593,[],"[683, 384]",ColorTask,-17.0,111.0,,,HRV,HRV_0195,2022-11-30 18:56:31
,wl-rdm,236,607998,0.0-8.111-0.111,1.0,225.0,,,,,,,[],,,,,,50.0,0.0,u,0.0,True,607.0,37.0,59.0,40.0,False,,308.45776746884394,[],"[683, 384]",ColorTask,-16.0,112.0,,,HRV,HRV_0195,2022-11-30 18:56:31
,wl-html-button-response,237,610895,0.0-9.0-0.0,,,,,,,,,,2894.0,,0,,,,,,,,,,,,,,,,,,,,<h3>End of this session. Thank you!</h3><br>,['Close window'],HRV,HRV_0195,2022-11-30 18:56:31
