success,trial_type,trial_index,time_elapsed,internal_node_id,Block,TrialNumber,TrialTime,trialTimeDiff,FPS_avg,FPS_med,FPS_mode,TrialDur,winResizeTime,rt,block,button_pressed,MotCoh,MotDir,ColCoh,Color,ChoiceKey,Choice,Accuracy,RT,nFrames,FPS,PPD,missTrial,missTrialMsg,onsetDelay,fullScreenExitTime,canvCenter,TrialType,Score,BlockTrial,stimulus,button_labels,exp,subjectId,date
True,fullscreen,0,7342,0.0-0.0,0.0,1.0,,,,,,,,,,,,,,,,,,,,,,,,,,,,,,,,HRV,HRV_0166,2022-11-30 19:05:00
,wl-check-fps,1,12327,0.0-1.0,0.0,2.0,"[7820.2, 7824, 7836.2, 7850.9, 7866.6, 7883.5, 7900.3, 7917.5, 7933.5, 7949.8, 7966.5, 7983.4, 8000.1, 8016.8, 8033.1, 8049.7, 8066.7, 8083.1, 8099.7, 8116.3, 8133, 8149.7, 8166.2, 8183.1, 8199.7, 8216.3, 8233, 8249.5, 8266.2, 8282.9, 8299.6, 8316.1, 8333.1, 8349.6, 8366.3, 8382.9, 8399.3, 8416.3, 8432.7, 8449.6, 8466.2, 8483, 8499.5, 8515.8, 8532.6, 8549.2, 8565.9, 8582.8, 8599.4, 8616, 8632.5, 8649.2, 8665.7, 8682.7, 8699.1, 8716.1, 8732.5, 8749.3, 8765.7, 8782.3, 8799.2, 8815.6, 8832.5, 8848.9, 8865.8, 8882.3, 8899.1, 8915.7, 8932.1, 8948.9, 8965.5, 8982.4, 8998.9, 9015.4, 9032.3, 9048.7, 9065.4, 9082.2, 9098.9, 9115.6, 9132.2, 9148.9, 9165.5, 9182.1, 9198.5, 9215.2, 9231.9, 9248.5, 9265.1, 9282, 9298.7, 9315.1, 9332, 9348.4, 9365.1, 9381.8, 9398.6, 9415.3, 9432, 9448.3, 9464.9, 9481.8, 9498.3, 9515.1, 9531.8, 9548.4, 9565.1, 9581.5, 9598.1, 9614.9, 9631.8, 9648.1, 9665.3, 9681.5, 9698.8, 9715.1, 9731.4, 9748, 9764.7, 9781.3, 9798.3, 9814.8, 9831.5, 9848.2, 9864.7, 9881.4, 9898, 9914.6, 9931.4, 9948.1, 9964.7, 9981.1, 9997.8, 10014.4, 10031.1, 10048, 10064.3, 10081.3, 10097.9, 10114.5, 10131.1, 10147.6, 10164.3, 10181, 10198.1, 10214.4, 10230.8, 10247.8, 10264.4, 10281.1, 10297.5, 10314.3, 10330.8, 10347.5, 10364.1, 10380.9, 10397.7, 10414, 10430.6, 10447.4, 10464, 10480.6, 10497.6, 10513.9, 10530.7, 10547.3, 10563.8, 10580.8, 10597.1, 10614.2, 10630.7, 10647.3, 10664, 10680.5, 10697.4, 10713.6, 10730.3, 10747.1, 10763.8, 10780.6, 10797.1, 10813.6, 10830.2, 10847.2, 10863.6, 10880.4, 10896.8, 10913.8, 10930.4, 10946.9, 10963.5, 10980.2, 10996.8, 11013.5, 11030.3, 11046.9, 11063.9, 11080.1, 11096.7, 11113.3, 11129.9, 11146.8, 11163.3, 11180.2, 11196.9, 11213.2, 11230.1, 11246.7, 11263.2, 11279.8, 11296.8, 11313.1, 11330, 11346.7, 11363, 11379.9, 11396.5, 11413.1, 11429.6, 11446.6, 11463.6, 11480.4, 11496.6, 11513.3, 11529.6, 11546.5, 11563.2, 11579.6, 11596.4, 11613.1, 11629.9, 11646.2, 11662.8, 11679.7, 11696.3, 11713.1, 11729.5, 11746.5, 11763, 11779.7, 11796.1, 11812.9, 11829.5, 11846.4, 11863.2, 11879.5, 11896.3, 11912.6, 11929.2, 11946.2, 11962.5, 11979.7, 11996, 12013, 12029.4, 12046.1, 12062.4, 12079.1, 12095.9, 12112.4, 12129, 12146.1, 12162.8, 12179.2, 12195.5, 12212.4, 12229, 12245.8, 12262.6, 12279.1, 12295.8, 12312.2, 12328.9, 12345.4, 12362.3, 12378.7, 12395.5, 12412.4, 12429.1, 12445.4, 12462, 12478.9, 12495.4, 12512.1, 12528.7, 12545.5, 12562.2, 12578.7, 12595.2, 12612.1, 12628.8, 12645.2, 12662.1, 12678.8, 12695.4, 12712, 12728.4, 12745.5, 12761.7, 12778.4]","[7, 3.8, 12.2, 14.7, 15.7, 16.9, 16.8, 17.2, 16, 16.3, 16.7, 16.9, 16.7, 16.7, 16.3, 16.6, 17, 16.4, 16.6, 16.6, 16.7, 16.7, 16.5, 16.9, 16.6, 16.6, 16.7, 16.5, 16.7, 16.7, 16.7, 16.5, 17, 16.5, 16.7, 16.6, 16.4, 17, 16.4, 16.9, 16.6, 16.8, 16.5, 16.3, 16.8, 16.6, 16.7, 16.9, 16.6, 16.6, 16.5, 16.7, 16.5, 17, 16.4, 17, 16.4, 16.8, 16.4, 16.6, 16.9, 16.4, 16.9, 16.4, 16.9, 16.5, 16.8, 16.6, 16.4, 16.8, 16.6, 16.9, 16.5, 16.5, 16.9, 16.4, 16.7, 16.8, 16.7, 16.7, 16.6, 16.7, 16.6, 16.6, 16.4, 16.7, 16.7, 16.6, 16.6, 16.9, 16.7, 16.4, 16.9, 16.4, 16.7, 16.7, 16.8, 16.7, 16.7, 16.3, 16.6, 16.9, 16.5, 16.8, 16.7, 16.6, 16.7, 16.4, 16.6, 16.8, 16.9, 16.3, 17.2, 16.2, 17.3, 16.3, 16.3, 16.6, 16.7, 16.6, 17, 16.5, 16.7, 16.7, 16.5, 16.7, 16.6, 16.6, 16.8, 16.7, 16.6, 16.4, 16.7, 16.6, 16.7, 16.9, 16.3, 17, 16.6, 16.6, 16.6, 16.5, 16.7, 16.7, 17.1, 16.3, 16.4, 17, 16.6, 16.7, 16.4, 16.8, 16.5, 16.7, 16.6, 16.8, 16.8, 16.3, 16.6, 16.8, 16.6, 16.6, 17, 16.3, 16.8, 16.6, 16.5, 17, 16.3, 17.1, 16.5, 16.6, 16.7, 16.5, 16.9, 16.2, 16.7, 16.8, 16.7, 16.8, 16.5, 16.5, 16.6, 17, 16.4, 16.8, 16.4, 17, 16.6, 16.5, 16.6, 16.7, 16.6, 16.7, 16.8, 16.6, 17, 16.2, 16.6, 16.6, 16.6, 16.9, 16.5, 16.9, 16.7, 16.3, 16.9, 16.6, 16.5, 16.6, 17, 16.3, 16.9, 16.7, 16.3, 16.9, 16.6, 16.6, 16.5, 17, 17, 16.8, 16.2, 16.7, 16.3, 16.9, 16.7, 16.4, 16.8, 16.7, 16.8, 16.3, 16.6, 16.9, 16.6, 16.8, 16.4, 17, 16.5, 16.7, 16.4, 16.8, 16.6, 16.9, 16.8, 16.3, 16.8, 16.3, 16.6, 17, 16.3, 17.2, 16.3, 17, 16.4, 16.7, 16.3, 16.7, 16.8, 16.5, 16.6, 17.1, 16.7, 16.4, 16.3, 16.9, 16.6, 16.8, 16.8, 16.5, 16.7, 16.4, 16.7, 16.5, 16.9, 16.4, 16.8, 16.9, 16.7, 16.3, 16.6, 16.9, 16.5, 16.7, 16.6, 16.8, 16.7, 16.5, 16.5, 16.9, 16.7, 16.4, 16.9, 16.7, 16.6, 16.6, 16.4, 17.1, 16.2, 16.7]",60.0,60.0,60.0,4981.8,[],,,,,,,,,,,,,,,,,,,,,,,,,HRV,HRV_0166,2022-11-30 19:05:00
,wl-html-keyboard-response,2,39276,0.0-2.0-0.0,0.0,3.0,,,,,,,,24931.700000047684,0.0,0,,,,,,,,,,,,,,,,,,,,,,HRV,HRV_0166,2022-11-30 19:05:00
,wl-rdm,3,46926,0.0-3.0-0.0,0.0,4.0,,,,,,,[],,,,0.0,0.0,87.9,0.0,u,0.0,True,2061.2000000476837,124.0,60.0,40.0,False,,3000.0,[],"[683, 384]",ColorTask_Demo,,,,,HRV,HRV_0166,2022-11-30 19:05:00
,wl-rdm,4,52819,0.0-3.0-1.0,0.0,5.0,,,,,,,[],,,,0.0,0.0,87.9,1.0,i,1.0,True,1804.4000000953674,109.0,60.0,40.0,False,,2000.0,[],"[683, 384]",ColorTask_Demo,,,,,HRV,HRV_0166,2022-11-30 19:05:00
,wl-html-keyboard-response,5,67242,0.0-3.0-2.0,0.0,6.0,,,,,,,,12416.600000143051,0.0,1,,,,,,,,,,,,,,,,,,,,,,HRV,HRV_0166,2022-11-30 19:05:00
,wl-html-keyboard-response,6,89985,0.0-4.0-0.0,0.0,7.0,,,,,,,,20739.299999952316,0.0,0,,,,,,,,,,,,,,,,,,,,,,HRV,HRV_0166,2022-11-30 19:05:00
,wl-html-keyboard-response,7,115497,0.0-5.0-0.0,0.0,8.0,,,,,,,,23503.700000047684,0.0,0,,,,,,,,,,,,,,,,,,,,,,HRV,HRV_0166,2022-11-30 19:05:00
,wl-rdm,8,119187,0.0-6.0-0.0,0.0,9.0,,,,,,,[],,,,,,53.2,0.0,i,1.0,False,2230.7000002861023,134.0,60.0,40.0,False,,394.7633947079151,[],"[683, 384]",ColorTask,-1.0,1.0,,,HRV,HRV_0166,2022-11-30 19:05:00
,wl-rdm,9,121634,0.0-6.1-0.1,0.0,10.0,,,,,,,[],,,,,,73.6,1.0,i,1.0,True,1158.7999999523163,70.0,60.0,40.0,False,,202.64287799745998,[],"[683, 384]",ColorTask,0.0,2.0,,,HRV,HRV_0166,2022-11-30 19:05:00
,wl-rdm,10,123832,0.0-6.2-0.2,0.0,11.0,,,,,,,[],,,,,,62.5,1.0,i,1.0,True,869.2999999523163,53.0,60.0,40.0,False,,235.24372262172312,[],"[683, 384]",ColorTask,1.0,3.0,,,HRV,HRV_0166,2022-11-30 19:05:00
,wl-rdm,11,127129,0.0-6.3-0.3,0.0,12.0,,,,,,,[],,,,,,62.5,0.0,i,1.0,False,1819.5,110.0,60.0,40.0,False,,393.09184637788377,[],"[683, 384]",ColorTask,0.0,4.0,,,HRV,HRV_0166,2022-11-30 19:05:00
,wl-rdm,12,129410,0.0-6.4-0.4,0.0,13.0,,,,,,,[],,,,,,87.9,1.0,i,1.0,True,987.0,60.0,60.0,40.0,False,,206.55359919643126,[],"[683, 384]",ColorTask,1.0,5.0,,,HRV,HRV_0166,2022-11-30 19:05:00
,wl-rdm,13,132123,0.0-6.5-0.5,0.0,14.0,,,,,,,[],,,,,,53.2,1.0,i,1.0,True,1391.0,84.0,60.0,40.0,False,,246.16018647596024,[],"[683, 384]",ColorTask,2.0,6.0,,,HRV,HRV_0166,2022-11-30 19:05:00
,wl-rdm,14,134305,0.0-6.6-0.6,0.0,15.0,,,,,,,[],,,,,,73.6,1.0,i,1.0,True,824.7000000476837,50.0,60.0,40.0,False,,273.5457465081459,[],"[683, 384]",ColorTask,3.0,7.0,,,HRV,HRV_0166,2022-11-30 19:05:00
,wl-rdm,15,136868,0.0-6.7-0.7,0.0,16.0,,,,,,,[],,,,,,50.0,1.0,i,1.0,True,1196.1000001430511,72.0,60.0,40.0,False,,285.8396221878701,[],"[683, 384]",ColorTask,4.0,8.0,,,HRV,HRV_0166,2022-11-30 19:05:00
,wl-rdm,16,139732,0.0-6.8-0.8,0.0,17.0,,,,,,,[],,,,,,56.4,0.0,u,0.0,True,1477.7000002861023,89.0,60.0,40.0,False,,305.6596819522999,[],"[683, 384]",ColorTask,5.0,9.0,,,HRV,HRV_0166,2022-11-30 19:05:00
,wl-rdm,17,142446,0.0-6.9-0.9,0.0,18.0,,,,,,,[],,,,,,50.0,1.0,i,1.0,True,1323.3000001907349,80.0,60.0,40.0,False,,301.35749711565677,[],"[683, 384]",ColorTask,6.0,10.0,,,HRV,HRV_0166,2022-11-30 19:05:00
,wl-rdm,18,145194,0.0-6.10-0.10,0.0,19.0,,,,,,,[],,,,,,53.2,1.0,i,1.0,True,1384.2000002861023,84.0,60.0,40.0,False,,270.4019607150863,[],"[683, 384]",ColorTask,7.0,11.0,,,HRV,HRV_0166,2022-11-30 19:05:00
,wl-rdm,19,147891,0.0-6.11-0.11,0.0,20.0,,,,,,,[],,,,,,53.2,1.0,i,1.0,True,1300.8000001907349,79.0,60.0,40.0,False,,305.13460275723503,[],"[683, 384]",ColorTask,8.0,12.0,,,HRV,HRV_0166,2022-11-30 19:05:00
,wl-rdm,20,150938,0.0-6.12-0.12,0.0,21.0,,,,,,,[],,,,,,62.5,0.0,i,1.0,False,1697.2000000476837,102.0,60.0,40.0,False,,269.61417320183284,[],"[683, 384]",ColorTask,7.0,13.0,,,HRV,HRV_0166,2022-11-30 19:05:00
,wl-rdm,21,153902,0.0-6.13-0.13,0.0,22.0,,,,,,,[],,,,,,56.4,0.0,u,0.0,True,1650.5999999046326,100.0,60.0,40.0,False,,230.57052703625737,[],"[683, 384]",ColorTask,8.0,14.0,,,HRV,HRV_0166,2022-11-30 19:05:00
,wl-rdm,22,156150,0.0-6.14-0.14,0.0,23.0,,,,,,,[],,,,,,62.5,1.0,i,1.0,True,891.4000000953674,54.0,60.0,40.0,False,,271.8849504053744,[],"[683, 384]",ColorTask,9.0,15.0,,,HRV,HRV_0166,2022-11-30 19:05:00
,wl-rdm,23,159597,0.0-6.15-0.15,0.0,24.0,,,,,,,[],,,,,,53.2,1.0,i,1.0,True,2119.899999856949,128.0,60.0,40.0,False,,247.74476428474605,[],"[683, 384]",ColorTask,10.0,16.0,,,HRV,HRV_0166,2022-11-30 19:05:00
,wl-rdm,24,161894,0.0-6.16-0.16,0.0,25.0,,,,,,,[],,,,,,87.9,0.0,u,0.0,True,857.5999999046326,52.0,60.0,40.0,False,,353.3928922445025,[],"[683, 384]",ColorTask,11.0,17.0,,,HRV,HRV_0166,2022-11-30 19:05:00
,wl-rdm,25,164408,0.0-6.17-0.17,0.0,26.0,,,,,,,[],,,,,,53.2,0.0,u,0.0,True,1126.2000000476837,68.0,60.0,40.0,False,,308.1339671471673,[],"[683, 384]",ColorTask,12.0,18.0,,,HRV,HRV_0166,2022-11-30 19:05:00
,wl-rdm,26,167223,0.0-6.18-0.18,0.0,27.0,,,,,,,[],,,,,,53.2,0.0,i,1.0,False,1429.6000001430511,86.0,60.0,40.0,False,,311.6598176790659,[],"[683, 384]",ColorTask,11.0,19.0,,,HRV,HRV_0166,2022-11-30 19:05:00
,wl-rdm,27,169953,0.0-6.19-0.19,0.0,28.0,,,,,,,[],,,,,,73.6,1.0,i,1.0,True,1263.5000002384186,76.0,60.0,40.0,False,,385.59660604557985,[],"[683, 384]",ColorTask,12.0,20.0,,,HRV,HRV_0166,2022-11-30 19:05:00
,wl-rdm,28,172534,0.0-6.20-0.20,0.0,29.0,,,,,,,[],,,,,,50.0,0.0,i,1.0,False,1139.2000000476837,69.0,60.0,40.0,False,,361.741089039138,[],"[683, 384]",ColorTask,11.0,21.0,,,HRV,HRV_0166,2022-11-30 19:05:00
,wl-rdm,29,175381,0.0-6.21-0.21,0.0,30.0,,,,,,,[],,,,,,50.0,0.0,i,1.0,False,1555.4000000953674,94.0,60.0,40.0,False,,216.14176567544234,[],"[683, 384]",ColorTask,10.0,22.0,,,HRV,HRV_0166,2022-11-30 19:05:00
,wl-rdm,30,177562,0.0-6.22-0.22,0.0,31.0,,,,,,,[],,,,,,62.5,1.0,i,1.0,True,889.5,54.0,60.0,40.0,False,,200.62162776016973,[],"[683, 384]",ColorTask,11.0,23.0,,,HRV,HRV_0166,2022-11-30 19:05:00
,wl-rdm,31,180526,0.0-6.23-0.23,0.0,32.0,,,,,,,[],,,,,,56.4,0.0,i,1.0,False,1496.7999997138977,90.0,60.0,40.0,False,,397.4633387141318,[],"[683, 384]",ColorTask,10.0,24.0,,,HRV,HRV_0166,2022-11-30 19:05:00
,wl-rdm,32,182774,0.0-6.24-0.24,0.0,33.0,,,,,,,[],,,,,,87.9,0.0,u,0.0,True,796.6000001430511,48.0,60.0,40.0,False,,371.3267423128669,[],"[683, 384]",ColorTask,11.0,25.0,,,HRV,HRV_0166,2022-11-30 19:05:00
,wl-rdm,33,185787,0.0-6.25-0.25,0.0,34.0,,,,,,,[],,,,,,56.4,1.0,i,1.0,True,1721.1999998092651,104.0,60.0,40.0,False,,215.59231185190328,[],"[683, 384]",ColorTask,12.0,26.0,,,HRV,HRV_0166,2022-11-30 19:05:00
,wl-rdm,34,188651,0.0-6.26-0.26,0.0,35.0,,,,,,,[],,,,,,53.2,0.0,u,0.0,True,1507.8000001907349,91.0,60.0,40.0,False,,274.1418161008782,[],"[683, 384]",ColorTask,13.0,27.0,,,HRV,HRV_0166,2022-11-30 19:05:00
,wl-rdm,35,191598,0.0-6.27-0.27,0.0,36.0,,,,,,,[],,,,,,56.4,1.0,i,1.0,True,1536.6000001430511,93.0,60.0,40.0,False,,325.0015472173535,[],"[683, 384]",ColorTask,14.0,28.0,,,HRV,HRV_0166,2022-11-30 19:05:00
,wl-rdm,36,194612,0.0-6.28-0.28,0.0,37.0,,,,,,,[],,,,,,62.5,1.0,i,1.0,True,1706.4999997615814,103.0,60.0,40.0,False,,218.52654556919123,[],"[683, 384]",ColorTask,15.0,29.0,,,HRV,HRV_0166,2022-11-30 19:05:00
,wl-rdm,37,197143,0.0-6.29-0.29,0.0,38.0,,,,,,,[],,,,,,56.4,1.0,i,1.0,True,1119.9999997615814,68.0,60.0,40.0,False,,316.36033347041575,[],"[683, 384]",ColorTask,16.0,30.0,,,HRV,HRV_0166,2022-11-30 19:05:00
,wl-rdm,38,200356,0.0-6.30-0.30,0.0,39.0,,,,,,,[],,,,,,53.2,0.0,i,1.0,False,1869.2999999523163,113.0,60.0,40.0,False,,251.5405047677259,[],"[683, 384]",ColorTask,15.0,31.0,,,HRV,HRV_0166,2022-11-30 19:05:00
,wl-rdm,39,202854,0.0-6.31-0.31,0.0,40.0,,,,,,,[],,,,,,73.6,0.0,u,0.0,True,1089.6000001430511,66.0,60.0,40.0,False,,324.0174538837192,[],"[683, 384]",ColorTask,16.0,32.0,,,HRV,HRV_0166,2022-11-30 19:05:00
,wl-rdm,40,205051,0.0-6.32-0.32,0.0,41.0,,,,,,,[],,,,,,87.9,1.0,i,1.0,True,789.0999999046326,48.0,60.0,40.0,False,,316.6823275659202,[],"[683, 384]",ColorTask,17.0,33.0,,,HRV,HRV_0166,2022-11-30 19:05:00
,wl-rdm,41,207150,0.0-6.33-0.33,0.0,42.0,,,,,,,[],,,,,,87.9,1.0,i,1.0,True,773.7000000476837,47.0,60.0,40.0,False,,240.41856378850946,[],"[683, 384]",ColorTask,18.0,34.0,,,HRV,HRV_0166,2022-11-30 19:05:00
,wl-rdm,42,209247,0.0-6.34-0.34,0.0,43.0,,,,,,,[],,,,,,87.9,0.0,u,0.0,True,767.8999998569489,47.0,60.0,40.0,False,,249.44115501982358,[],"[683, 384]",ColorTask,19.0,35.0,,,HRV,HRV_0166,2022-11-30 19:05:00
,wl-rdm,43,211445,0.0-6.35-0.35,0.0,44.0,,,,,,,[],,,,,,73.6,0.0,u,0.0,True,897.9000000953674,54.0,60.0,40.0,False,,220.86605244083196,[],"[683, 384]",ColorTask,20.0,36.0,,,HRV,HRV_0166,2022-11-30 19:05:00
,wl-rdm,44,214509,0.0-6.36-0.36,0.0,45.0,,,,,,,[],,,,,,56.4,0.0,u,0.0,True,1698.6999998092651,102.0,60.0,40.0,False,,297.1998121665995,[],"[683, 384]",ColorTask,21.0,37.0,,,HRV,HRV_0166,2022-11-30 19:05:00
,wl-rdm,45,217323,0.0-6.37-0.37,0.0,46.0,,,,,,,[],,,,,,50.0,0.0,i,1.0,False,1511.6999998092651,91.0,60.0,40.0,False,,230.90584516000277,[],"[683, 384]",ColorTask,20.0,38.0,,,HRV,HRV_0166,2022-11-30 19:05:00
,wl-rdm,46,219470,0.0-6.38-0.38,0.0,47.0,,,,,,,[],,,,,,73.6,0.0,u,0.0,True,855.7000000476837,52.0,60.0,40.0,False,,202.35737974462344,[],"[683, 384]",ColorTask,21.0,39.0,,,HRV,HRV_0166,2022-11-30 19:05:00
,wl-rdm,47,222268,0.0-6.39-0.39,0.0,48.0,,,,,,,[],,,,,,50.0,1.0,u,0.0,False,1407.5999999046326,85.0,60.0,40.0,False,,311.1394357789703,[],"[683, 384]",ColorTask,20.0,40.0,,,HRV,HRV_0166,2022-11-30 19:05:00
,wl-rdm,48,224266,0.0-6.40-0.40,0.0,49.0,,,,,,,[],,,,,,87.9,1.0,i,1.0,True,701.2000000476837,43.0,60.0,40.0,False,,214.00540227542757,[],"[683, 384]",ColorTask,21.0,41.0,,,HRV,HRV_0166,2022-11-30 19:05:00
,wl-rdm,49,226814,0.0-6.41-0.41,0.0,50.0,,,,,,,[],,,,,,62.5,0.0,u,0.0,True,1228.5999999046326,74.0,60.0,40.0,False,,236.92918598151283,[],"[683, 384]",ColorTask,22.0,42.0,,,HRV,HRV_0166,2022-11-30 19:05:00
,wl-rdm,50,229644,0.0-6.42-0.42,0.0,51.0,,,,,,,[],,,,,,56.4,1.0,i,1.0,True,1456.5,88.0,60.0,40.0,False,,294.0380304461356,[],"[683, 384]",ColorTask,23.0,43.0,,,HRV,HRV_0166,2022-11-30 19:05:00
,wl-rdm,51,231842,0.0-6.43-0.43,0.0,52.0,,,,,,,[],,,,,,73.6,1.0,u,0.0,False,817.7999999523163,50.0,60.0,40.0,False,,290.6644064662331,[],"[683, 384]",ColorTask,22.0,44.0,,,HRV,HRV_0166,2022-11-30 19:05:00
,wl-rdm,52,235788,0.0-6.44-0.44,0.0,53.0,,,,,,,[],,,,,,50.0,1.0,i,1.0,True,2652.399999856949,160.0,60.0,40.0,False,,203.191004580822,[],"[683, 384]",ColorTask,23.0,45.0,,,HRV,HRV_0166,2022-11-30 19:05:00
,wl-rdm,53,237919,0.0-6.45-0.45,0.0,54.0,,,,,,,[],,,,,,73.6,1.0,i,1.0,True,834.5999999046326,51.0,60.0,40.0,False,,204.66461438308372,[],"[683, 384]",ColorTask,24.0,46.0,,,HRV,HRV_0166,2022-11-30 19:05:00
,wl-rdm,54,240850,0.0-6.46-0.46,0.0,55.0,,,,,,,[],,,,,,53.2,1.0,i,1.0,True,1550.7000000476837,94.0,60.0,40.0,False,,291.8458172622559,[],"[683, 384]",ColorTask,25.0,47.0,,,HRV,HRV_0166,2022-11-30 19:05:00
,wl-rdm,55,243014,0.0-6.47-0.47,0.0,56.0,,,,,,,[],,,,,,73.6,0.0,u,0.0,True,724.8999998569489,44.0,60.0,40.0,False,,352.4049992470242,[],"[683, 384]",ColorTask,26.0,48.0,,,HRV,HRV_0166,2022-11-30 19:05:00
,wl-rdm,56,245045,0.0-6.48-0.48,0.0,57.0,,,,,,,[],,,,,,87.9,0.0,u,0.0,True,718.1999998092651,44.0,60.0,40.0,False,,223.1089825364559,[],"[683, 384]",ColorTask,27.0,49.0,,,HRV,HRV_0166,2022-11-30 19:05:00
,wl-rdm,57,247393,0.0-6.49-0.49,0.0,58.0,,,,,,,[],,,,,,73.6,0.0,u,0.0,True,955.8999998569489,58.0,60.0,40.0,False,,315.6646866978393,[],"[683, 384]",ColorTask,28.0,50.0,,,HRV,HRV_0166,2022-11-30 19:05:00
,wl-rdm,58,250856,0.0-6.50-0.50,0.0,59.0,,,,,,,[],,,,,,50.0,0.0,u,0.0,True,1976.8999998569489,119.0,60.0,40.0,False,,399.90789665570907,[],"[683, 384]",ColorTask,29.0,51.0,,,HRV,HRV_0166,2022-11-30 19:05:00
,wl-rdm,59,254103,0.0-6.51-0.51,0.0,60.0,,,,,,,[],,,,,,50.0,0.0,u,0.0,True,1881.6000001430511,113.0,60.0,40.0,False,,289.1392964913698,[],"[683, 384]",ColorTask,30.0,52.0,,,HRV,HRV_0166,2022-11-30 19:05:00
,wl-rdm,60,256334,0.0-6.52-0.52,0.0,61.0,,,,,,,[],,,,,,73.6,1.0,i,1.0,True,848.3000001907349,51.0,60.0,40.0,False,,300.6191836442831,[],"[683, 384]",ColorTask,31.0,53.0,,,HRV,HRV_0166,2022-11-30 19:05:00
,wl-rdm,61,259231,0.0-6.53-0.53,0.0,62.0,,,,,,,[],,,,,,53.2,0.0,u,0.0,True,1561.8999998569489,94.0,60.0,40.0,False,,257.9740160576343,[],"[683, 384]",ColorTask,32.0,54.0,,,HRV,HRV_0166,2022-11-30 19:05:00
,wl-rdm,62,261263,0.0-6.54-0.54,0.0,63.0,,,,,,,[],,,,,,87.9,0.0,u,0.0,True,739.0,45.0,60.0,40.0,False,,201.10638174249866,[],"[683, 384]",ColorTask,33.0,55.0,,,HRV,HRV_0166,2022-11-30 19:05:00
,wl-rdm,63,263310,0.0-6.55-0.55,0.0,64.0,,,,,,,[],,,,,,87.9,0.0,u,0.0,True,637.7999997138977,39.0,60.0,40.0,False,,322.8064659806562,[],"[683, 384]",ColorTask,34.0,56.0,,,HRV,HRV_0166,2022-11-30 19:05:00
,wl-rdm,64,265392,0.0-6.56-0.56,0.0,65.0,,,,,,,[],,,,,,87.9,0.0,u,0.0,True,793.7000000476837,48.0,60.0,40.0,False,,202.95989354479664,[],"[683, 384]",ColorTask,35.0,57.0,,,HRV,HRV_0166,2022-11-30 19:05:00
,wl-rdm,65,268456,0.0-6.57-0.57,0.0,66.0,,,,,,,[],,,,,,56.4,1.0,i,1.0,True,1620.5999999046326,98.0,60.0,40.0,False,,364.39530703412794,[],"[683, 384]",ColorTask,36.0,58.0,,,HRV,HRV_0166,2022-11-30 19:05:00
,wl-rdm,66,271053,0.0-6.58-0.58,0.0,67.0,,,,,,,[],,,,,,62.5,1.0,i,1.0,True,1237.3999998569489,75.0,60.0,40.0,False,,272.1415750617625,[],"[683, 384]",ColorTask,37.0,59.0,,,HRV,HRV_0166,2022-11-30 19:05:00
,wl-rdm,67,273850,0.0-6.59-0.59,0.0,68.0,,,,,,,[],,,,,,56.4,0.0,u,0.0,True,1402.2000000476837,85.0,60.0,40.0,False,,315.15932192116964,[],"[683, 384]",ColorTask,38.0,60.0,,,HRV,HRV_0166,2022-11-30 19:05:00
,wl-rdm,68,277081,0.0-6.60-0.60,0.0,69.0,,,,,,,[],,,,,,50.0,0.0,i,1.0,False,1821.5999999046326,110.0,60.0,40.0,False,,317.8974664077733,[],"[683, 384]",ColorTask,37.0,61.0,,,HRV,HRV_0166,2022-11-30 19:05:00
,wl-rdm,69,279662,0.0-6.61-0.61,0.0,70.0,,,,,,,[],,,,,,50.0,0.0,i,1.0,False,1273.0,77.0,60.0,40.0,False,,224.86542061458988,[],"[683, 384]",ColorTask,36.0,62.0,,,HRV,HRV_0166,2022-11-30 19:05:00
,wl-rdm,70,281859,0.0-6.62-0.62,0.0,71.0,,,,,,,[],,,,,,87.9,1.0,i,1.0,True,854.2000000476837,52.0,60.0,40.0,False,,263.42755376481256,[],"[683, 384]",ColorTask,37.0,63.0,,,HRV,HRV_0166,2022-11-30 19:05:00
,wl-rdm,71,284989,0.0-6.63-0.63,0.0,72.0,,,,,,,[],,,,,,62.5,0.0,u,0.0,True,1828.0,110.0,60.0,40.0,False,,217.9588639825337,[],"[683, 384]",ColorTask,38.0,64.0,,,HRV,HRV_0166,2022-11-30 19:05:00
,wl-rdm,72,287120,0.0-6.64-0.64,0.0,73.0,,,,,,,[],,,,,,87.9,0.0,u,0.0,True,835.8000001907349,51.0,60.0,40.0,False,,208.37983912060537,[],"[683, 384]",ColorTask,39.0,65.0,,,HRV,HRV_0166,2022-11-30 19:05:00
,wl-rdm,73,289701,0.0-6.65-0.65,0.0,74.0,,,,,,,[],,,,,,53.2,0.0,u,0.0,True,1256.7000000476837,76.0,60.0,40.0,False,,237.7190327139338,[],"[683, 384]",ColorTask,40.0,66.0,,,HRV,HRV_0166,2022-11-30 19:05:00
,wl-rdm,74,291765,0.0-6.66-0.66,0.0,75.0,,,,,,,[],,,,,,87.9,0.0,u,0.0,True,678.6000001430511,41.0,60.0,40.0,False,,307.65082185141364,[],"[683, 384]",ColorTask,41.0,67.0,,,HRV,HRV_0166,2022-11-30 19:05:00
,wl-rdm,75,295645,0.0-6.67-0.67,0.0,76.0,,,,,,,[],,,,,,56.4,1.0,i,1.0,True,2530.899999856949,152.0,60.0,40.0,False,,278.5021562852467,[],"[683, 384]",ColorTask,42.0,68.0,,,HRV,HRV_0166,2022-11-30 19:05:00
,wl-rdm,76,298725,0.0-6.68-0.68,0.0,77.0,,,,,,,[],,,,,,56.4,0.0,u,0.0,True,1746.8999998569489,105.0,60.0,40.0,False,,261.3047660501442,[],"[683, 384]",ColorTask,43.0,69.0,,,HRV,HRV_0166,2022-11-30 19:05:00
,wl-rdm,77,302255,0.0-6.69-0.69,0.0,78.0,,,,,,,[],,,,,,50.0,1.0,u,0.0,False,2166.7999999523163,131.0,60.0,40.0,False,,277.77160401612457,[],"[683, 384]",ColorTask,42.0,70.0,,,HRV,HRV_0166,2022-11-30 19:05:00
,wl-rdm,78,304536,0.0-6.70-0.70,0.0,79.0,,,,,,,[],,,,,,87.9,1.0,i,1.0,True,978.2000000476837,59.0,60.0,40.0,False,,220.89592827456892,[],"[683, 384]",ColorTask,43.0,71.0,,,HRV,HRV_0166,2022-11-30 19:05:00
,wl-rdm,79,306684,0.0-6.71-0.71,0.0,80.0,,,,,,,[],,,,,,87.9,1.0,i,1.0,True,768.5999999046326,47.0,60.0,40.0,False,,296.3586122224886,[],"[683, 384]",ColorTask,44.0,72.0,,,HRV,HRV_0166,2022-11-30 19:05:00
,wl-rdm,80,308915,0.0-6.72-0.72,0.0,81.0,,,,,,,[],,,,,,62.5,1.0,i,1.0,True,904.0,55.0,60.0,40.0,False,,242.7303055833336,[],"[683, 384]",ColorTask,45.0,73.0,,,HRV,HRV_0166,2022-11-30 19:05:00
,wl-rdm,81,312195,0.0-6.73-0.73,0.0,82.0,,,,,,,[],,,,,,50.0,1.0,i,1.0,True,1850.7999999523163,112.0,60.0,40.0,False,,343.7605328105471,[],"[683, 384]",ColorTask,46.0,74.0,,,HRV,HRV_0166,2022-11-30 19:05:00
,wl-rdm,82,315192,0.0-6.74-0.74,0.0,83.0,,,,,,,[],,,,,,56.4,1.0,i,1.0,True,1694.0,102.0,60.0,40.0,False,,227.38420685429276,[],"[683, 384]",ColorTask,47.0,75.0,,,HRV,HRV_0166,2022-11-30 19:05:00
,wl-rdm,83,317906,0.0-6.75-0.75,0.0,84.0,,,,,,,[],,,,,,56.4,1.0,i,1.0,True,1361.0,82.0,60.0,40.0,False,,276.54973654470336,[],"[683, 384]",ColorTask,48.0,76.0,,,HRV,HRV_0166,2022-11-30 19:05:00
,wl-rdm,84,320337,0.0-6.76-0.76,0.0,85.0,,,,,,,[],,,,,,73.6,0.0,u,0.0,True,1112.5000002384186,67.0,60.0,40.0,False,,236.4411279345263,[],"[683, 384]",ColorTask,49.0,77.0,,,HRV,HRV_0166,2022-11-30 19:05:00
,wl-rdm,85,323368,0.0-6.77-0.77,0.0,86.0,,,,,,,[],,,,,,53.2,1.0,i,1.0,True,1536.9000000953674,93.0,60.0,40.0,False,,399.64144997515643,[],"[683, 384]",ColorTask,50.0,78.0,,,HRV,HRV_0166,2022-11-30 19:05:00
,wl-rdm,86,326115,0.0-6.78-0.78,0.0,87.0,,,,,,,[],,,,,,62.5,0.0,u,0.0,True,1364.3000001907349,82.0,60.0,40.0,False,,310.8426268183973,[],"[683, 384]",ColorTask,51.0,79.0,,,HRV,HRV_0166,2022-11-30 19:05:00
,wl-rdm,87,328912,0.0-6.79-0.79,0.0,88.0,,,,,,,[],,,,,,62.5,0.0,u,0.0,True,1470.8999998569489,89.0,60.0,40.0,False,,243.4509899997614,[],"[683, 384]",ColorTask,52.0,80.0,,,HRV,HRV_0166,2022-11-30 19:05:00
,wl-rdm,88,331692,0.0-6.80-0.80,0.0,89.0,,,,,,,[],,,,,,53.2,1.0,i,1.0,True,1499.4999997615814,90.0,60.0,40.0,False,,215.84718416849626,[],"[683, 384]",ColorTask,53.0,81.0,,,HRV,HRV_0166,2022-11-30 19:05:00
,wl-rdm,89,335106,0.0-6.81-0.81,0.0,90.0,,,,,,,[],,,,,,50.0,1.0,i,1.0,True,1984.7999999523163,120.0,60.0,40.0,False,,334.996333843245,[],"[683, 384]",ColorTask,54.0,82.0,,,HRV,HRV_0166,2022-11-30 19:05:00
,wl-rdm,90,337736,0.0-6.82-0.82,0.0,91.0,,,,,,,[],,,,,,56.4,0.0,u,0.0,True,1328.8999998569489,80.0,60.0,40.0,False,,231.42258898719106,[],"[683, 384]",ColorTask,55.0,83.0,,,HRV,HRV_0166,2022-11-30 19:05:00
,wl-rdm,91,339984,0.0-6.83-0.83,0.0,92.0,,,,,,,[],,,,,,73.6,1.0,i,1.0,True,902.0999999046326,55.0,60.0,40.0,False,,263.31861291550126,[],"[683, 384]",ColorTask,56.0,84.0,,,HRV,HRV_0166,2022-11-30 19:05:00
,wl-rdm,92,342099,0.0-6.84-0.84,0.0,93.0,,,,,,,[],,,,,,73.6,1.0,i,1.0,True,752.6000001430511,46.0,60.0,40.0,False,,276.7747482043953,[],"[683, 384]",ColorTask,57.0,85.0,,,HRV,HRV_0166,2022-11-30 19:05:00
,wl-rdm,93,344463,0.0-6.85-0.85,0.0,94.0,,,,,,,[],,,,,,56.4,0.0,u,0.0,True,984.8999998569489,60.0,60.0,40.0,False,,297.6830250303393,[],"[683, 384]",ColorTask,58.0,86.0,,,HRV,HRV_0166,2022-11-30 19:05:00
,wl-rdm,94,346927,0.0-6.86-0.86,0.0,95.0,,,,,,,[],,,,,,62.5,1.0,i,1.0,True,1122.2000000476837,68.0,60.0,40.0,False,,259.3020874401662,[],"[683, 384]",ColorTask,59.0,87.0,,,HRV,HRV_0166,2022-11-30 19:05:00
,wl-rdm,95,349591,0.0-6.87-0.87,0.0,96.0,,,,,,,[],,,,,,62.5,1.0,i,1.0,True,1222.7999999523163,74.0,60.0,40.0,False,,357.58096734334754,[],"[683, 384]",ColorTask,60.0,88.0,,,HRV,HRV_0166,2022-11-30 19:05:00
,wl-rdm,96,351673,0.0-6.88-0.88,0.0,97.0,,,,,,,[],,,,,,73.6,0.0,u,0.0,True,769.7999999523163,47.0,60.0,40.0,False,,231.44311818222533,[],"[683, 384]",ColorTask,61.0,89.0,,,HRV,HRV_0166,2022-11-30 19:05:00
,wl-rdm,97,354220,0.0-6.89-0.89,0.0,98.0,,,,,,,[],,,,,,73.6,0.0,u,0.0,True,1112.2999999523163,67.0,60.0,40.0,False,,353.01143850705023,[],"[683, 384]",ColorTask,62.0,90.0,,,HRV,HRV_0166,2022-11-30 19:05:00
,wl-rdm,98,356834,0.0-6.90-0.90,0.0,99.0,,,,,,,[],,,,,,53.2,0.0,u,0.0,True,1239.7999997138977,75.0,60.0,40.0,False,,285.0255523724133,[],"[683, 384]",ColorTask,63.0,91.0,,,HRV,HRV_0166,2022-11-30 19:05:00
,wl-rdm,99,359065,0.0-6.91-0.91,0.0,100.0,,,,,,,[],,,,,,73.6,1.0,i,1.0,True,951.0999999046326,57.0,60.0,40.0,False,,212.73810681743646,[],"[683, 384]",ColorTask,64.0,92.0,,,HRV,HRV_0166,2022-11-30 19:05:00
,wl-rdm,100,361596,0.0-6.92-0.92,0.0,101.0,,,,,,,[],,,,,,62.5,0.0,u,0.0,True,1173.5999999046326,71.0,60.0,40.0,False,,282.5048815314543,[],"[683, 384]",ColorTask,65.0,93.0,,,HRV,HRV_0166,2022-11-30 19:05:00
,wl-rdm,101,364293,0.0-6.93-0.93,0.0,102.0,,,,,,,[],,,,,,53.2,1.0,u,0.0,False,1410.4999997615814,85.0,60.0,40.0,False,,201.33933656164464,[],"[683, 384]",ColorTask,64.0,94.0,,,HRV,HRV_0166,2022-11-30 19:05:00
,wl-rdm,102,367140,0.0-6.94-0.94,0.0,103.0,,,,,,,[],,,,,,53.2,1.0,i,1.0,True,1560.9000000953674,94.0,60.0,40.0,False,,211.7018510773508,[],"[683, 384]",ColorTask,65.0,95.0,,,HRV,HRV_0166,2022-11-30 19:05:00
,wl-rdm,103,370554,0.0-6.95-0.95,0.0,104.0,,,,,,,[],,,,,,53.2,0.0,i,1.0,False,2116.5,128.0,60.0,40.0,False,,213.2055812460673,[],"[683, 384]",ColorTask,64.0,96.0,,,HRV,HRV_0166,2022-11-30 19:05:00
,wl-rdm,104,373801,0.0-6.96-0.96,0.0,105.0,,,,,,,[],,,,,,50.0,0.0,i,1.0,False,1962.0999999046326,118.0,60.0,40.0,False,,200.60794576126025,[],"[683, 384]",ColorTask,63.0,97.0,,,HRV,HRV_0166,2022-11-30 19:05:00
,wl-rdm,105,376298,0.0-6.97-0.97,0.0,106.0,,,,,,,[],,,,,,73.6,0.0,u,0.0,True,1027.2999999523163,62.0,60.0,40.0,False,,395.4751940300937,[],"[683, 384]",ColorTask,64.0,98.0,,,HRV,HRV_0166,2022-11-30 19:05:00
,wl-rdm,106,379378,0.0-6.98-0.98,0.0,107.0,,,,,,,[],,,,,,62.5,1.0,i,1.0,True,1667.0,101.0,60.0,40.0,False,,322.7789191859182,[],"[683, 384]",ColorTask,65.0,99.0,,,HRV,HRV_0166,2022-11-30 19:05:00
,wl-rdm,107,382542,0.0-6.99-0.99,0.0,108.0,,,,,,,[],,,,,,50.0,1.0,i,1.0,True,1733.8000001907349,105.0,60.0,40.0,False,,345.7999976842601,[],"[683, 384]",ColorTask,66.0,100.0,,,HRV,HRV_0166,2022-11-30 19:05:00
,wl-rdm,108,385739,0.0-6.100-0.100,0.0,109.0,,,,,,,[],,,,,,50.0,1.0,u,0.0,False,1903.6999998092651,115.0,60.0,40.0,False,,201.35262281529367,[],"[683, 384]",ColorTask,65.0,101.0,,,HRV,HRV_0166,2022-11-30 19:05:00
,wl-rdm,109,389169,0.0-6.101-0.101,0.0,110.0,,,,,,,[],,,,,,56.4,0.0,i,1.0,False,2138.5999999046326,129.0,60.0,40.0,False,,214.7060294992961,[],"[683, 384]",ColorTask,64.0,102.0,,,HRV,HRV_0166,2022-11-30 19:05:00
,wl-rdm,110,391550,0.0-6.102-0.102,0.0,111.0,,,,,,,[],,,,,,87.9,1.0,i,1.0,True,971.7999999523163,59.0,60.0,40.0,False,,324.7729841316344,[],"[683, 384]",ColorTask,65.0,103.0,,,HRV,HRV_0166,2022-11-30 19:05:00
,wl-rdm,111,393564,0.0-6.103-0.103,0.0,112.0,,,,,,,[],,,,,,87.9,1.0,i,1.0,True,652.0999999046326,40.0,60.0,40.0,False,,271.7679123986384,[],"[683, 384]",ColorTask,66.0,104.0,,,HRV,HRV_0166,2022-11-30 19:05:00
,wl-rdm,112,395712,0.0-6.104-0.104,0.0,113.0,,,,,,,[],,,,,,62.5,0.0,u,0.0,True,862.5999999046326,52.0,60.0,40.0,False,,214.05295695257175,[],"[683, 384]",ColorTask,67.0,105.0,,,HRV,HRV_0166,2022-11-30 19:05:00
,wl-rdm,113,398043,0.0-6.105-0.105,0.0,114.0,,,,,,,[],,,,,,62.5,0.0,u,0.0,True,957.2000000476837,58.0,60.0,40.0,False,,294.36201237058975,[],"[683, 384]",ColorTask,68.0,106.0,,,HRV,HRV_0166,2022-11-30 19:05:00
,wl-rdm,114,401223,0.0-6.106-0.106,0.0,115.0,,,,,,,[],,,,,,50.0,0.0,i,1.0,False,1845.9000000953674,111.0,60.0,40.0,False,,252.78163382950171,[],"[683, 384]",ColorTask,67.0,107.0,,,HRV,HRV_0166,2022-11-30 19:05:00
,wl-rdm,115,403837,0.0-6.107-0.107,0.0,116.0,,,,,,,[],,,,,,56.4,1.0,i,1.0,True,1194.5,72.0,60.0,40.0,False,,334.2774408822114,[],"[683, 384]",ColorTask,68.0,108.0,,,HRV,HRV_0166,2022-11-30 19:05:00
,wl-html-keyboard-response,116,422048,0.0-7.0-0.0,1.0,117.0,,,,,,,,16204.700000047684,1.0,0,,,,,,,,,,,,,,,,,,,,,,HRV,HRV_0166,2022-11-30 19:05:00
,wl-rdm,117,424450,0.0-8.0-0.0,1.0,118.0,,,,,,,[],,,,,,87.9,1.0,i,1.0,True,1014.1000001430511,61.0,60.0,40.0,False,,321.37477531850055,[],"[683, 384]",ColorTask,69.0,1.0,,,HRV,HRV_0166,2022-11-30 19:05:00
,wl-rdm,118,426648,0.0-8.1-0.1,1.0,119.0,,,,,,,[],,,,,,87.9,0.0,u,0.0,True,796.2999999523163,48.0,60.0,40.0,False,,317.9799414197912,[],"[683, 384]",ColorTask,70.0,2.0,,,HRV,HRV_0166,2022-11-30 19:05:00
,wl-rdm,119,429062,0.0-8.2-0.2,1.0,120.0,,,,,,,[],,,,,,62.5,0.0,u,0.0,True,1113.0,67.0,60.0,40.0,False,,229.34993666307068,[],"[683, 384]",ColorTask,71.0,3.0,,,HRV,HRV_0166,2022-11-30 19:05:00
,wl-rdm,120,431876,0.0-8.3-0.3,1.0,121.0,,,,,,,[],,,,,,50.0,0.0,i,1.0,False,1527.3999998569489,92.0,60.0,40.0,False,,213.733798104126,[],"[683, 384]",ColorTask,70.0,4.0,,,HRV,HRV_0166,2022-11-30 19:05:00
,wl-rdm,121,434123,0.0-8.4-0.4,1.0,122.0,,,,,,,[],,,,,,73.6,0.0,u,0.0,True,772.0,47.0,60.0,40.0,False,,390.4440132617226,[],"[683, 384]",ColorTask,71.0,5.0,,,HRV,HRV_0166,2022-11-30 19:05:00
,wl-rdm,122,437054,0.0-8.5-0.5,1.0,123.0,,,,,,,[],,,,,,53.2,1.0,u,0.0,False,1490.4000000953674,90.0,60.0,40.0,False,,363.6640544621397,[],"[683, 384]",ColorTask,70.0,6.0,,,HRV,HRV_0166,2022-11-30 19:05:00
,wl-rdm,123,439085,0.0-8.6-0.6,1.0,124.0,,,,,,,[],,,,,,87.9,0.0,u,0.0,True,688.3999998569489,42.0,60.0,40.0,False,,262.90666355123386,[],"[683, 384]",ColorTask,71.0,7.0,,,HRV,HRV_0166,2022-11-30 19:05:00
,wl-rdm,124,441466,0.0-8.7-0.7,1.0,125.0,,,,,,,[],,,,,,56.4,1.0,i,1.0,True,981.4000000953674,59.0,60.0,40.0,False,,320.4449153210904,[],"[683, 384]",ColorTask,72.0,8.0,,,HRV,HRV_0166,2022-11-30 19:05:00
,wl-rdm,125,443647,0.0-8.8-0.8,1.0,126.0,,,,,,,[],,,,,,62.5,1.0,i,1.0,True,746.4000000953674,45.0,60.0,40.0,False,,363.81655548064765,[],"[683, 384]",ColorTask,73.0,9.0,,,HRV,HRV_0166,2022-11-30 19:05:00
,wl-rdm,126,446695,0.0-8.9-0.9,1.0,127.0,,,,,,,[],,,,,,50.0,0.0,i,1.0,False,1721.2999999523163,104.0,60.0,40.0,False,,239.13335516097968,[],"[683, 384]",ColorTask,72.0,10.0,,,HRV,HRV_0166,2022-11-30 19:05:00
,wl-rdm,127,449841,0.0-8.10-0.10,1.0,128.0,,,,,,,[],,,,,,62.5,0.0,u,0.0,True,1702.5999999046326,103.0,60.0,40.0,False,,360.11060177507795,[],"[683, 384]",ColorTask,73.0,11.0,,,HRV,HRV_0166,2022-11-30 19:05:00
,wl-rdm,128,453304,0.0-8.11-0.11,1.0,129.0,,,,,,,[],,,,,,56.4,0.0,u,0.0,True,1985.2000000476837,120.0,60.0,40.0,False,,390.98596746614703,[],"[683, 384]",ColorTask,74.0,12.0,,,HRV,HRV_0166,2022-11-30 19:05:00
,wl-rdm,129,456551,0.0-8.12-0.12,1.0,130.0,,,,,,,[],,,,,,62.5,0.0,u,0.0,True,1909.4000000953674,115.0,60.0,40.0,False,,251.39736310577254,[],"[683, 384]",ColorTask,75.0,13.0,,,HRV,HRV_0166,2022-11-30 19:05:00
,wl-rdm,130,458732,0.0-8.13-0.13,1.0,131.0,,,,,,,[],,,,,,87.9,1.0,i,1.0,True,854.3999998569489,52.0,60.0,40.0,False,,247.2359890524487,[],"[683, 384]",ColorTask,76.0,14.0,,,HRV,HRV_0166,2022-11-30 19:05:00
,wl-rdm,131,462197,0.0-8.14-0.14,1.0,132.0,,,,,,,[],,,,,,56.4,0.0,u,0.0,True,2104.100000143051,127.0,60.0,40.0,False,,278.38226462682815,[],"[683, 384]",ColorTask,77.0,15.0,,,HRV,HRV_0166,2022-11-30 19:05:00
,wl-rdm,132,465011,0.0-8.15-0.15,1.0,133.0,,,,,,,[],,,,,,62.5,0.0,u,0.0,True,1334.6999998092651,81.0,60.0,40.0,False,,397.22793890023047,[],"[683, 384]",ColorTask,78.0,16.0,,,HRV,HRV_0166,2022-11-30 19:05:00
,wl-rdm,133,468690,0.0-8.16-0.16,1.0,134.0,,,,,,,[],,,,,,53.2,0.0,u,0.0,True,2389.4000000953674,144.0,60.0,40.0,False,,203.9211060978697,[],"[683, 384]",ColorTask,79.0,17.0,,,HRV,HRV_0166,2022-11-30 19:05:00
,wl-rdm,134,471621,0.0-8.17-0.17,1.0,135.0,,,,,,,[],,,,,,56.4,0.0,u,0.0,True,1543.7999999523163,93.0,60.0,40.0,False,,303.6319736027853,[],"[683, 384]",ColorTask,80.0,18.0,,,HRV,HRV_0166,2022-11-30 19:05:00
,wl-rdm,135,475350,0.0-8.18-0.18,1.0,136.0,,,,,,,[],,,,,,50.0,0.0,u,0.0,True,2274.5,137.0,60.0,40.0,False,,374.4454103816283,[],"[683, 384]",ColorTask,81.0,19.0,,,HRV,HRV_0166,2022-11-30 19:05:00
,wl-rdm,136,478164,0.0-8.19-0.19,1.0,137.0,,,,,,,[],,,,,,53.2,1.0,i,1.0,True,1451.0999999046326,88.0,60.0,40.0,False,,278.3590607443773,[],"[683, 384]",ColorTask,82.0,20.0,,,HRV,HRV_0166,2022-11-30 19:05:00
,wl-rdm,137,481944,0.0-8.20-0.20,1.0,138.0,,,,,,,[],,,,,,50.0,1.0,i,1.0,True,2454.4000000953674,148.0,60.0,40.0,False,,249.39548659188728,[],"[683, 384]",ColorTask,83.0,21.0,,,HRV,HRV_0166,2022-11-30 19:05:00
,wl-rdm,138,484108,0.0-8.21-0.21,1.0,139.0,,,,,,,[],,,,,,87.9,0.0,u,0.0,True,827.3000001907349,50.0,60.0,40.0,False,,262.21068886423393,[],"[683, 384]",ColorTask,84.0,22.0,,,HRV,HRV_0166,2022-11-30 19:05:00
,wl-rdm,139,486473,0.0-8.22-0.22,1.0,140.0,,,,,,,[],,,,,,50.0,1.0,i,1.0,True,1018.2000000476837,62.0,60.0,40.0,False,,250.7003983539448,[],"[683, 384]",ColorTask,85.0,23.0,,,HRV,HRV_0166,2022-11-30 19:05:00
,wl-rdm,140,489403,0.0-8.23-0.23,1.0,141.0,,,,,,,[],,,,,,50.0,0.0,i,1.0,False,1601.7999999523163,97.0,60.0,40.0,False,,240.6019861507465,[],"[683, 384]",ColorTask,84.0,24.0,,,HRV,HRV_0166,2022-11-30 19:05:00
,wl-rdm,141,492300,0.0-8.24-0.24,1.0,142.0,,,,,,,[],,,,,,56.4,0.0,u,0.0,True,1507.0999999046326,91.0,60.0,40.0,False,,299.6319757643611,[],"[683, 384]",ColorTask,85.0,25.0,,,HRV,HRV_0166,2022-11-30 19:05:00
,wl-rdm,142,495347,0.0-8.25-0.25,1.0,143.0,,,,,,,[],,,,,,50.0,0.0,i,1.0,False,1675.3000001907349,101.0,60.0,40.0,False,,286.37478372246824,[],"[683, 384]",ColorTask,84.0,26.0,,,HRV,HRV_0166,2022-11-30 19:05:00
,wl-rdm,143,498011,0.0-8.26-0.26,1.0,144.0,,,,,,,[],,,,,,87.9,0.0,u,0.0,True,1267.2999999523163,77.0,60.0,40.0,False,,315.1347932160464,[],"[683, 384]",ColorTask,85.0,27.0,,,HRV,HRV_0166,2022-11-30 19:05:00
,wl-rdm,144,499993,0.0-8.27-0.27,1.0,145.0,,,,,,,[],,,,,,87.9,0.0,u,0.0,True,657.9999997615814,40.0,60.0,40.0,False,,233.71908733461953,[],"[683, 384]",ColorTask,86.0,28.0,,,HRV,HRV_0166,2022-11-30 19:05:00
,wl-rdm,145,502107,0.0-8.28-0.28,1.0,146.0,,,,,,,[],,,,,,56.4,0.0,u,0.0,True,791.2999999523163,48.0,60.0,40.0,False,,238.39304866302083,[],"[683, 384]",ColorTask,87.0,29.0,,,HRV,HRV_0166,2022-11-30 19:05:00
,wl-rdm,146,504155,0.0-8.29-0.29,1.0,147.0,,,,,,,[],,,,,,87.9,0.0,u,0.0,True,624.0,38.0,60.0,40.0,False,,348.33042721198234,[],"[683, 384]",ColorTask,88.0,30.0,,,HRV,HRV_0166,2022-11-30 19:05:00
,wl-rdm,147,507619,0.0-8.30-0.30,1.0,148.0,,,,,,,[],,,,,,50.0,0.0,u,0.0,True,2178.0999999046326,131.0,60.0,40.0,False,,206.8646632045977,[],"[683, 384]",ColorTask,89.0,31.0,,,HRV,HRV_0166,2022-11-30 19:05:00
,wl-rdm,148,509899,0.0-8.31-0.31,1.0,149.0,,,,,,,[],,,,,,73.6,1.0,i,1.0,True,897.6999998092651,54.0,60.0,40.0,False,,307.55759370120165,[],"[683, 384]",ColorTask,90.0,32.0,,,HRV,HRV_0166,2022-11-30 19:05:00
,wl-rdm,149,512597,0.0-8.32-0.32,1.0,150.0,,,,,,,[],,,,,,50.0,1.0,i,1.0,True,1338.0999999046326,81.0,60.0,40.0,False,,270.40556133965504,[],"[683, 384]",ColorTask,91.0,33.0,,,HRV,HRV_0166,2022-11-30 19:05:00
,wl-rdm,150,514661,0.0-8.33-0.33,1.0,151.0,,,,,,,[],,,,,,87.9,1.0,i,1.0,True,703.8999998569489,43.0,60.0,40.0,False,,270.6550872560763,[],"[683, 384]",ColorTask,92.0,34.0,,,HRV,HRV_0166,2022-11-30 19:05:00
,wl-rdm,151,516559,0.0-8.34-0.34,1.0,152.0,,,,,,,[],,,,,,73.6,1.0,i,1.0,True,609.9999997615814,37.0,60.0,40.0,False,,208.20530182035424,[],"[683, 384]",ColorTask,93.0,35.0,,,HRV,HRV_0166,2022-11-30 19:05:00
,wl-rdm,152,518624,0.0-8.35-0.35,1.0,153.0,,,,,,,[],,,,,,87.9,0.0,u,0.0,True,743.6999998092651,45.0,60.0,40.0,False,,244.85453854783535,[],"[683, 384]",ColorTask,94.0,36.0,,,HRV,HRV_0166,2022-11-30 19:05:00
,wl-rdm,153,520922,0.0-8.36-0.36,1.0,154.0,,,,,,,[],,,,,,62.5,1.0,i,1.0,True,985.9000000953674,60.0,60.0,40.0,False,,229.2904951757941,[],"[683, 384]",ColorTask,95.0,37.0,,,HRV,HRV_0166,2022-11-30 19:05:00
,wl-rdm,154,524785,0.0-8.37-0.37,1.0,155.0,,,,,,,[],,,,,,50.0,0.0,i,1.0,False,2563.2999999523163,154.0,60.0,40.0,False,,219.85977964683596,[],"[683, 384]",ColorTask,94.0,38.0,,,HRV,HRV_0166,2022-11-30 19:05:00
,wl-rdm,155,527865,0.0-8.38-0.38,1.0,156.0,,,,,,,[],,,,,,50.0,1.0,i,1.0,True,1619.0,98.0,60.0,40.0,False,,366.469668564863,[],"[683, 384]",ColorTask,95.0,39.0,,,HRV,HRV_0166,2022-11-30 19:05:00
,wl-rdm,156,530279,0.0-8.39-0.39,1.0,157.0,,,,,,,[],,,,,,73.6,0.0,u,0.0,True,1011.7999999523163,61.0,60.0,40.0,False,,322.78606903585865,[],"[683, 384]",ColorTask,96.0,40.0,,,HRV,HRV_0166,2022-11-30 19:05:00
,wl-rdm,157,533326,0.0-8.40-0.40,1.0,158.0,,,,,,,[],,,,,,53.2,1.0,i,1.0,True,1635.5000002384186,99.0,60.0,40.0,False,,317.28287894039045,[],"[683, 384]",ColorTask,97.0,41.0,,,HRV,HRV_0166,2022-11-30 19:05:00
,wl-rdm,158,536357,0.0-8.41-0.41,1.0,159.0,,,,,,,[],,,,,,56.4,0.0,u,0.0,True,1623.1000001430511,98.0,60.0,40.0,False,,322.53536150941403,[],"[683, 384]",ColorTask,98.0,42.0,,,HRV,HRV_0166,2022-11-30 19:05:00
,wl-rdm,159,538455,0.0-8.42-0.42,1.0,160.0,,,,,,,[],,,,,,62.5,1.0,i,1.0,True,807.5999999046326,49.0,60.0,40.0,False,,202.87632542895096,[],"[683, 384]",ColorTask,99.0,43.0,,,HRV,HRV_0166,2022-11-30 19:05:00
,wl-rdm,160,540669,0.0-8.43-0.43,1.0,161.0,,,,,,,[],,,,,,73.6,0.0,u,0.0,True,807.5999999046326,49.0,60.0,40.0,False,,322.76834020950764,[],"[683, 384]",ColorTask,100.0,44.0,,,HRV,HRV_0166,2022-11-30 19:05:00
,wl-rdm,161,544199,0.0-8.44-0.44,1.0,162.0,,,,,,,[],,,,,,53.2,0.0,u,0.0,True,2167.5999999046326,131.0,60.0,40.0,False,,277.2051676116655,[],"[683, 384]",ColorTask,101.0,45.0,,,HRV,HRV_0166,2022-11-30 19:05:00
,wl-rdm,162,547962,0.0-8.45-0.45,1.0,163.0,,,,,,,[],,,,,,62.5,1.0,u,0.0,False,2354.7000000476837,142.0,60.0,40.0,False,,328.03710821525056,[],"[683, 384]",ColorTask,100.0,46.0,,,HRV,HRV_0166,2022-11-30 19:05:00
,wl-rdm,163,551159,0.0-8.46-0.46,1.0,164.0,,,,,,,[],,,,,,62.5,1.0,i,1.0,True,1779.3000001907349,107.0,60.0,40.0,False,,334.2304210975615,[],"[683, 384]",ColorTask,101.0,47.0,,,HRV,HRV_0166,2022-11-30 19:05:00
,wl-rdm,164,553156,0.0-8.47-0.47,1.0,165.0,,,,,,,[],,,,,,87.9,1.0,i,1.0,True,673.2000002861023,41.0,60.0,40.0,False,,239.12243107013109,[],"[683, 384]",ColorTask,102.0,48.0,,,HRV,HRV_0166,2022-11-30 19:05:00
,wl-rdm,165,555771,0.0-8.48-0.48,1.0,166.0,,,,,,,[],,,,,,53.2,1.0,i,1.0,True,1155.9000000953674,70.0,60.0,40.0,False,,367.78800878663776,[],"[683, 384]",ColorTask,103.0,49.0,,,HRV,HRV_0166,2022-11-30 19:05:00
,wl-rdm,166,558934,0.0-8.49-0.49,1.0,167.0,,,,,,,[],,,,,,53.2,0.0,i,1.0,False,1724.2000000476837,104.0,60.0,40.0,False,,354.37282357730606,[],"[683, 384]",ColorTask,102.0,50.0,,,HRV,HRV_0166,2022-11-30 19:05:00
,wl-rdm,167,561482,0.0-8.50-0.50,1.0,168.0,,,,,,,[],,,,,,62.5,0.0,u,0.0,True,1134.0999999046326,69.0,60.0,40.0,False,,319.5894714249268,[],"[683, 384]",ColorTask,103.0,51.0,,,HRV,HRV_0166,2022-11-30 19:05:00
,wl-rdm,168,564579,0.0-8.51-0.51,1.0,169.0,,,,,,,[],,,,,,50.0,0.0,u,0.0,True,1710.5999999046326,103.0,60.0,40.0,False,,304.6230351587327,[],"[683, 384]",ColorTask,104.0,52.0,,,HRV,HRV_0166,2022-11-30 19:05:00
,wl-rdm,169,567842,0.0-8.52-0.52,1.0,170.0,,,,,,,[],,,,,,62.5,1.0,i,1.0,True,1978.7999999523163,119.0,60.0,40.0,False,,204.6530138917693,[],"[683, 384]",ColorTask,105.0,53.0,,,HRV,HRV_0166,2022-11-30 19:05:00
,wl-rdm,170,571588,0.0-8.53-0.53,1.0,171.0,,,,,,,[],,,,,,53.2,0.0,u,0.0,True,2271.7999999523163,137.0,60.0,40.0,False,,385.5121851833883,[],"[683, 384]",ColorTask,106.0,54.0,,,HRV,HRV_0166,2022-11-30 19:05:00
,wl-rdm,171,573803,0.0-8.54-0.54,1.0,172.0,,,,,,,[],,,,,,73.6,0.0,u,0.0,True,839.3999998569489,51.0,60.0,40.0,False,,298.81004166081834,[],"[683, 384]",ColorTask,107.0,55.0,,,HRV,HRV_0166,2022-11-30 19:05:00
,wl-rdm,172,576700,0.0-8.55-0.55,1.0,173.0,,,,,,,[],,,,,,53.2,0.0,u,0.0,True,1523.9000000953674,92.0,60.0,40.0,False,,290.11229741833006,[],"[683, 384]",ColorTask,108.0,56.0,,,HRV,HRV_0166,2022-11-30 19:05:00
,wl-rdm,173,578948,0.0-8.56-0.56,1.0,174.0,,,,,,,[],,,,,,73.6,1.0,i,1.0,True,919.7999999523163,56.0,60.0,40.0,False,,242.28359157380788,[],"[683, 384]",ColorTask,109.0,57.0,,,HRV,HRV_0166,2022-11-30 19:05:00
,wl-rdm,174,581895,0.0-8.57-0.57,1.0,175.0,,,,,,,[],,,,,,53.2,1.0,i,1.0,True,1484.6999998092651,90.0,60.0,40.0,False,,378.2355912662694,[],"[683, 384]",ColorTask,110.0,58.0,,,HRV,HRV_0166,2022-11-30 19:05:00
,wl-rdm,175,584393,0.0-8.58-0.58,1.0,176.0,,,,,,,[],,,,,,73.6,0.0,u,0.0,True,1197.2999999523163,72.0,60.0,40.0,False,,230.16971762586348,[],"[683, 384]",ColorTask,111.0,59.0,,,HRV,HRV_0166,2022-11-30 19:05:00
,wl-rdm,176,588056,0.0-8.59-0.59,1.0,177.0,,,,,,,[],,,,,,50.0,1.0,i,1.0,True,2350.5999999046326,142.0,60.0,40.0,False,,218.3705556103152,[],"[683, 384]",ColorTask,112.0,60.0,,,HRV,HRV_0166,2022-11-30 19:05:00
,wl-rdm,177,590087,0.0-8.60-0.60,1.0,178.0,,,,,,,[],,,,,,87.9,1.0,i,1.0,True,735.7999999523163,45.0,60.0,40.0,False,,200.1348893478545,[],"[683, 384]",ColorTask,113.0,61.0,,,HRV,HRV_0166,2022-11-30 19:05:00
,wl-rdm,178,592817,0.0-8.61-0.61,1.0,179.0,,,,,,,[],,,,,,73.6,1.0,i,1.0,True,1267.6999998092651,77.0,60.0,40.0,False,,376.76020318852534,[],"[683, 384]",ColorTask,114.0,62.0,,,HRV,HRV_0166,2022-11-30 19:05:00
,wl-rdm,179,596181,0.0-8.62-0.62,1.0,180.0,,,,,,,[],,,,,,53.2,1.0,i,1.0,True,2027.9000000953674,122.0,60.0,40.0,False,,263.99864159026174,[],"[683, 384]",ColorTask,115.0,63.0,,,HRV,HRV_0166,2022-11-30 19:05:00
,wl-rdm,180,599261,0.0-8.63-0.63,1.0,181.0,,,,,,,[],,,,,,56.4,0.0,u,0.0,True,1600.8999998569489,97.0,60.0,40.0,False,,388.0800794862572,[],"[683, 384]",ColorTask,116.0,64.0,,,HRV,HRV_0166,2022-11-30 19:05:00
,wl-rdm,181,601492,0.0-8.64-0.64,1.0,182.0,,,,,,,[],,,,,,87.9,0.0,u,0.0,True,792.0,48.0,60.0,40.0,False,,350.12552891362657,[],"[683, 384]",ColorTask,117.0,65.0,,,HRV,HRV_0166,2022-11-30 19:05:00
,wl-rdm,182,604123,0.0-8.65-0.65,1.0,183.0,,,,,,,[],,,,,,73.6,1.0,i,1.0,True,1247.3999998569489,75.0,60.0,40.0,False,,302.9045184828723,[],"[683, 384]",ColorTask,118.0,66.0,,,HRV,HRV_0166,2022-11-30 19:05:00
,wl-rdm,183,607519,0.0-8.66-0.66,1.0,184.0,,,,,,,[],,,,,,53.2,1.0,i,1.0,True,2052.0,124.0,60.0,40.0,False,,266.3639583836077,[],"[683, 384]",ColorTask,119.0,67.0,,,HRV,HRV_0166,2022-11-30 19:05:00
,wl-rdm,184,609767,0.0-8.67-0.67,1.0,185.0,,,,,,,[],,,,,,56.4,1.0,i,1.0,True,891.2000000476837,54.0,60.0,40.0,False,,267.8661033425604,[],"[683, 384]",ColorTask,120.0,68.0,,,HRV,HRV_0166,2022-11-30 19:05:00
,wl-rdm,185,612149,0.0-8.68-0.68,1.0,186.0,,,,,,,[],,,,,,73.6,0.0,u,0.0,True,1092.3000001907349,66.0,60.0,40.0,False,,215.6395130177923,[],"[683, 384]",ColorTask,121.0,69.0,,,HRV,HRV_0166,2022-11-30 19:05:00
,wl-rdm,186,614629,0.0-8.69-0.69,1.0,187.0,,,,,,,[],,,,,,53.2,0.0,u,0.0,True,1157.400000333786,70.0,60.0,40.0,False,,248.50600208604862,[],"[683, 384]",ColorTask,122.0,70.0,,,HRV,HRV_0166,2022-11-30 19:05:00
,wl-rdm,187,617293,0.0-8.70-0.70,1.0,188.0,,,,,,,[],,,,,,73.6,1.0,i,1.0,True,1252.6000001430511,76.0,60.0,40.0,False,,324.4123491220271,[],"[683, 384]",ColorTask,123.0,71.0,,,HRV,HRV_0166,2022-11-30 19:05:00
,wl-rdm,188,619891,0.0-8.71-0.71,1.0,189.0,,,,,,,[],,,,,,56.4,1.0,i,1.0,True,1205.0,73.0,60.0,40.0,False,,313.51165365007984,[],"[683, 384]",ColorTask,124.0,72.0,,,HRV,HRV_0166,2022-11-30 19:05:00
,wl-rdm,189,622188,0.0-8.72-0.72,1.0,190.0,,,,,,,[],,,,,,73.6,1.0,i,1.0,True,818.5,50.0,60.0,40.0,False,,397.61157328559517,[],"[683, 384]",ColorTask,125.0,73.0,,,HRV,HRV_0166,2022-11-30 19:05:00
,wl-rdm,190,626234,0.0-8.73-0.73,1.0,191.0,,,,,,,[],,,,,,50.0,1.0,i,1.0,True,2729.9000000953674,164.0,60.0,40.0,False,,243.26086222233502,[],"[683, 384]",ColorTask,126.0,74.0,,,HRV,HRV_0166,2022-11-30 19:05:00
,wl-rdm,191,629032,0.0-8.74-0.74,1.0,192.0,,,,,,,[],,,,,,50.0,1.0,i,1.0,True,1426.7000000476837,86.0,60.0,40.0,False,,284.8270787109158,[],"[683, 384]",ColorTask,127.0,75.0,,,HRV,HRV_0166,2022-11-30 19:05:00
,wl-rdm,192,631379,0.0-8.75-0.75,1.0,193.0,,,,,,,[],,,,,,62.5,1.0,i,1.0,True,967.7999999523163,59.0,60.0,40.0,False,,287.39717375825705,[],"[683, 384]",ColorTask,128.0,76.0,,,HRV,HRV_0166,2022-11-30 19:05:00
,wl-rdm,193,633610,0.0-8.76-0.76,1.0,194.0,,,,,,,[],,,,,,56.4,1.0,i,1.0,True,773.5,47.0,60.0,40.0,False,,370.97265016778726,[],"[683, 384]",ColorTask,129.0,77.0,,,HRV,HRV_0166,2022-11-30 19:05:00
,wl-rdm,194,636341,0.0-8.77-0.77,1.0,195.0,,,,,,,[],,,,,,56.4,1.0,i,1.0,True,1441.7999997138977,87.0,60.0,40.0,False,,213.77447438573986,[],"[683, 384]",ColorTask,130.0,78.0,,,HRV,HRV_0166,2022-11-30 19:05:00
,wl-rdm,195,638539,0.0-8.78-0.78,1.0,196.0,,,,,,,[],,,,,,87.9,1.0,i,1.0,True,863.8999998569489,52.0,60.0,40.0,False,,250.19138719877685,[],"[683, 384]",ColorTask,131.0,79.0,,,HRV,HRV_0166,2022-11-30 19:05:00
,wl-rdm,196,641735,0.0-8.79-0.79,1.0,197.0,,,,,,,[],,,,,,50.0,1.0,i,1.0,True,1850.6000001430511,112.0,60.0,40.0,False,,265.6602360179677,[],"[683, 384]",ColorTask,132.0,80.0,,,HRV,HRV_0166,2022-11-30 19:05:00
,wl-rdm,197,644932,0.0-8.80-0.80,1.0,198.0,,,,,,,[],,,,,,50.0,1.0,i,1.0,True,1758.7999999523163,106.0,60.0,40.0,False,,364.1400441815998,[],"[683, 384]",ColorTask,133.0,81.0,,,HRV,HRV_0166,2022-11-30 19:05:00
,wl-rdm,198,647580,0.0-8.81-0.81,1.0,199.0,,,,,,,[],,,,,,62.5,1.0,i,1.0,True,1312.5999999046326,79.0,60.0,40.0,False,,254.3755782216359,[],"[683, 384]",ColorTask,134.0,82.0,,,HRV,HRV_0166,2022-11-30 19:05:00
,wl-rdm,199,649861,0.0-8.82-0.82,1.0,200.0,,,,,,,[],,,,,,87.9,0.0,u,0.0,True,978.5999999046326,59.0,60.0,40.0,False,,223.11763271189704,[],"[683, 384]",ColorTask,135.0,83.0,,,HRV,HRV_0166,2022-11-30 19:05:00
,wl-rdm,200,652575,0.0-8.83-0.83,1.0,201.0,,,,,,,[],,,,,,62.5,1.0,i,1.0,True,1325.7999999523163,80.0,60.0,40.0,False,,308.87668577981384,[],"[683, 384]",ColorTask,136.0,84.0,,,HRV,HRV_0166,2022-11-30 19:05:00
,wl-rdm,201,656188,0.0-8.84-0.84,1.0,202.0,,,,,,,[],,,,,,53.2,1.0,i,1.0,True,2169.7999999523163,131.0,60.0,40.0,False,,359.4572380364766,[],"[683, 384]",ColorTask,137.0,85.0,,,HRV,HRV_0166,2022-11-30 19:05:00
,wl-rdm,202,658952,0.0-8.85-0.85,1.0,203.0,,,,,,,[],,,,,,56.4,1.0,i,1.0,True,1445.0,87.0,60.0,40.0,False,,242.2446259507457,[],"[683, 384]",ColorTask,138.0,86.0,,,HRV,HRV_0166,2022-11-30 19:05:00
,wl-rdm,203,662016,0.0-8.86-0.86,1.0,204.0,,,,,,,[],,,,,,62.5,0.0,u,0.0,True,1738.7000000476837,105.0,60.0,40.0,False,,248.00784000117065,[],"[683, 384]",ColorTask,139.0,87.0,,,HRV,HRV_0166,2022-11-30 19:05:00
,wl-rdm,204,664196,0.0-8.87-0.87,1.0,205.0,,,,,,,[],,,,,,87.9,1.0,i,1.0,True,864.0999999046326,52.0,60.0,40.0,False,,242.46168288286154,[],"[683, 384]",ColorTask,140.0,88.0,,,HRV,HRV_0166,2022-11-30 19:05:00
,wl-rdm,205,666811,0.0-8.88-0.88,1.0,206.0,,,,,,,[],,,,,,62.5,0.0,u,0.0,True,1238.8999998569489,75.0,60.0,40.0,False,,292.10267035013743,[],"[683, 384]",ColorTask,141.0,89.0,,,HRV,HRV_0166,2022-11-30 19:05:00
,wl-rdm,206,669807,0.0-8.89-0.89,1.0,207.0,,,,,,,[],,,,,,73.6,1.0,i,1.0,True,1600.6999998092651,97.0,60.0,40.0,False,,312.6194903105176,[],"[683, 384]",ColorTask,142.0,90.0,,,HRV,HRV_0166,2022-11-30 19:05:00
,wl-rdm,207,673288,0.0-8.90-0.90,1.0,208.0,,,,,,,[],,,,,,56.4,1.0,i,1.0,True,2038.4999997615814,123.0,60.0,40.0,False,,365.8336887185975,[],"[683, 384]",ColorTask,143.0,91.0,,,HRV,HRV_0166,2022-11-30 19:05:00
,wl-rdm,208,675468,0.0-8.91-0.91,1.0,209.0,,,,,,,[],,,,,,87.9,1.0,i,1.0,True,825.400000333786,50.0,60.0,40.0,False,,271.13021151234454,[],"[683, 384]",ColorTask,144.0,92.0,,,HRV,HRV_0166,2022-11-30 19:05:00
,wl-rdm,209,679781,0.0-8.92-0.92,1.0,210.0,,,,,,,[],,,,,,53.2,0.0,u,0.0,True,2925.4999997615814,176.0,60.0,40.0,False,,302.41364717932214,[],"[683, 384]",ColorTask,145.0,93.0,,,HRV,HRV_0166,2022-11-30 19:05:00
,wl-rdm,210,682329,0.0-8.93-0.93,1.0,211.0,,,,,,,[],,,,,,53.2,0.0,u,0.0,True,1201.2000000476837,73.0,60.0,40.0,False,,263.55051377271343,[],"[683, 384]",ColorTask,146.0,94.0,,,HRV,HRV_0166,2022-11-30 19:05:00
,wl-rdm,211,684527,0.0-8.94-0.94,1.0,212.0,,,,,,,[],,,,,,73.6,0.0,u,0.0,True,834.7999997138977,51.0,60.0,40.0,False,,276.0040108883951,[],"[683, 384]",ColorTask,147.0,95.0,,,HRV,HRV_0166,2022-11-30 19:05:00
,wl-rdm,212,687024,0.0-8.95-0.95,1.0,213.0,,,,,,,[],,,,,,53.2,0.0,u,0.0,True,1193.4000000953674,72.0,60.0,40.0,False,,225.20162805516384,[],"[683, 384]",ColorTask,148.0,96.0,,,HRV,HRV_0166,2022-11-30 19:05:00
,wl-rdm,213,689288,0.0-8.96-0.96,1.0,214.0,,,,,,,[],,,,,,62.5,0.0,u,0.0,True,935.5,57.0,60.0,40.0,False,,237.1247569192733,[],"[683, 384]",ColorTask,149.0,97.0,,,HRV,HRV_0166,2022-11-30 19:05:00
,wl-rdm,214,691753,0.0-8.97-0.97,1.0,215.0,,,,,,,[],,,,,,62.5,0.0,u,0.0,True,1111.2000000476837,67.0,60.0,40.0,False,,276.41717241544774,[],"[683, 384]",ColorTask,150.0,98.0,,,HRV,HRV_0166,2022-11-30 19:05:00
,wl-rdm,215,694633,0.0-8.98-0.98,1.0,216.0,,,,,,,[],,,,,,53.2,1.0,u,0.0,False,1495.8000001907349,90.0,60.0,40.0,False,,307.9882614936291,[],"[683, 384]",ColorTask,149.0,99.0,,,HRV,HRV_0166,2022-11-30 19:05:00
,wl-rdm,216,697563,0.0-8.99-0.99,1.0,217.0,,,,,,,[],,,,,,56.4,0.0,i,1.0,False,1629.6999998092651,98.0,60.0,40.0,False,,223.71512058773556,[],"[683, 384]",ColorTask,148.0,100.0,,,HRV,HRV_0166,2022-11-30 19:05:00
,wl-rdm,217,701476,0.0-8.100-0.100,1.0,218.0,,,,,,,[],,,,,,56.4,1.0,i,1.0,True,2441.2999999523163,147.0,60.0,40.0,False,,386.362052926099,[],"[683, 384]",ColorTask,149.0,101.0,,,HRV,HRV_0166,2022-11-30 19:05:00
,wl-rdm,218,704590,0.0-8.101-0.101,1.0,219.0,,,,,,,[],,,,,,56.4,1.0,i,1.0,True,1709.7999999523163,103.0,60.0,40.0,False,,321.13897104134696,[],"[683, 384]",ColorTask,150.0,102.0,,,HRV,HRV_0166,2022-11-30 19:05:00
,wl-rdm,219,706738,0.0-8.102-0.102,1.0,220.0,,,,,,,[],,,,,,73.6,1.0,i,1.0,True,669.8000001907349,41.0,60.0,40.0,False,,396.5505892317369,[],"[683, 384]",ColorTask,151.0,103.0,,,HRV,HRV_0166,2022-11-30 19:05:00
,wl-rdm,220,708985,0.0-8.103-0.103,1.0,221.0,,,,,,,[],,,,,,73.6,0.0,u,0.0,True,914.9000000953674,55.0,60.0,40.0,False,,256.3418500150045,[],"[683, 384]",ColorTask,152.0,104.0,,,HRV,HRV_0166,2022-11-30 19:05:00
,wl-rdm,221,711050,0.0-8.104-0.104,1.0,222.0,,,,,,,[],,,,,,56.4,0.0,u,0.0,True,781.1000001430511,47.0,60.0,40.0,False,,207.77841185570296,[],"[683, 384]",ColorTask,153.0,105.0,,,HRV,HRV_0166,2022-11-30 19:05:00
,wl-rdm,222,712998,0.0-8.105-0.105,1.0,223.0,,,,,,,[],,,,,,73.6,0.0,u,0.0,True,627.5,38.0,60.0,40.0,False,,244.37557546668648,[],"[683, 384]",ColorTask,154.0,106.0,,,HRV,HRV_0166,2022-11-30 19:05:00
,wl-rdm,223,715213,0.0-8.106-0.106,1.0,224.0,,,,,,,[],,,,,,50.0,0.0,i,1.0,False,825.7999999523163,50.0,60.0,40.0,False,,316.48418315642823,[],"[683, 384]",ColorTask,153.0,107.0,,,HRV,HRV_0166,2022-11-30 19:05:00
,wl-rdm,224,717610,0.0-8.107-0.107,1.0,225.0,,,,,,,[],,,,,,87.9,1.0,i,1.0,True,1015.400000333786,61.0,60.0,40.0,False,,302.9975712704818,[],"[683, 384]",ColorTask,154.0,108.0,,,HRV,HRV_0166,2022-11-30 19:05:00
,wl-html-button-response,225,724848,0.0-9.0-0.0,,,,,,,,,,7234.399999856949,,0,,,,,,,,,,,,,,,,,,,,<h3>End of this session. Thank you!</h3><br>,['Close window'],HRV,HRV_0166,2022-11-30 19:05:00
