trialN,stimuli,trialStartTime,trialStartTime_UNIX,stimulus1,stimulus2,stimulus1Bid,stimulus2Bid,delta,selected,rt,rt_UNIX,rt_perfnow,receivedResponse,rsp,trialEndTime,trialDuration,trialEndTime_UNIX,trialDuration_UNIX,exp,subjectId,date
0,"[{'imgObject': {}, 'id': 'olives', 'src': '/static/foodstim60/olives.jpg', 'key': 'u', 'origWidth': 410, 'origHeight': 410, 'width': 410, 'height': 410, 'widthPercent': 0.45, 'rescaleHeight': False, 'trialN': 0, 'loaded': True, 'loadedTime': 2398.0999999046326, 'positionName': 'LEFT', 'positionCoords': [245.68, 179], 'bid': 5.95}, {'imgObject': {}, 'id': 'yogurt no spoon', 'src': '/static/foodstim60/yogurt no spoon.jpg', 'key': 'i', 'origWidth': 411, 'origHeight': 410, 'width': 411, 'height': 410, 'widthPercent': 0.45, 'rescaleHeight': False, 'trialN': 0, 'loaded': True, 'loadedTime': 2454.5, 'positionName': 'RIGHT', 'positionCoords': [710.32, 179], 'bid': 6.33}]",3061.699999809265,1669832906328,olives,yogurt no spoon,5.95,6.33,0.3799999999999999,olives,2313.800000190735,2315,2315.2000000476837,True,u,5883.099999904633,2821.4000000953674,1669832909149,2821,HRV,HRV_0166,2022-11-30 18:36:06
1,"[{'imgObject': {}, 'id': 'fried eggs', 'src': '/static/foodstim60/fried eggs.jpg', 'key': 'u', 'origWidth': 410, 'origHeight': 410, 'width': 410, 'height': 410, 'widthPercent': 0.45, 'rescaleHeight': False, 'trialN': 1, 'loaded': True, 'loadedTime': 2487.5999999046326, 'positionName': 'LEFT', 'positionCoords': [245.68, 179], 'bid': 0.18}, {'imgObject': {}, 'id': 'chicken nuggets2', 'src': '/static/foodstim60/chicken nuggets2.jpg', 'key': 'i', 'origWidth': 410, 'origHeight': 409, 'width': 410, 'height': 409, 'widthPercent': 0.45, 'rescaleHeight': False, 'trialN': 1, 'loaded': True, 'loadedTime': 2519.899999856949, 'positionName': 'RIGHT', 'positionCoords': [710.32, 179.5], 'bid': 0.92}]",5883.399999856949,1669832909150,fried eggs,chicken nuggets2,0.18,0.92,0.74,chicken nuggets2,2707.2999999523163,2708,2708.0,True,i,9102.5,3219.100000143051,1669832912369,3219,HRV,HRV_0166,2022-11-30 18:36:06
2,"[{'imgObject': {}, 'id': 'sushi w_condiments', 'src': '/static/foodstim60/sushi w_condiments.jpg', 'key': 'u', 'origWidth': 410, 'origHeight': 410, 'width': 410, 'height': 410, 'widthPercent': 0.45, 'rescaleHeight': False, 'trialN': 2, 'loaded': True, 'loadedTime': 2548.199999809265, 'positionName': 'LEFT', 'positionCoords': [245.68, 179], 'bid': 3.62}, {'imgObject': {}, 'id': 'turkeysandwich', 'src': '/static/foodstim60/turkeysandwich.jpg', 'key': 'i', 'origWidth': 409, 'origHeight': 409, 'width': 409, 'height': 409, 'widthPercent': 0.45, 'rescaleHeight': False, 'trialN': 2, 'loaded': True, 'loadedTime': 2525.199999809265, 'positionName': 'RIGHT', 'positionCoords': [710.32, 179.5], 'bid': 1.72}]",9103.0,1669832912369,sushi w_condiments,turkeysandwich,3.62,1.72,-1.9000000000000001,sushi w_condiments,1795.8999998569489,1797,1796.3999998569489,True,u,11417.0,2314.0,1669832914683,2314,HRV,HRV_0166,2022-11-30 18:36:06
3,"[{'imgObject': {}, 'id': 'blackbeanswithrice', 'src': '/static/foodstim60/blackbeanswithrice.jpg', 'key': 'u', 'origWidth': 410, 'origHeight': 410, 'width': 410, 'height': 410, 'widthPercent': 0.45, 'rescaleHeight': False, 'trialN': 3, 'loaded': True, 'loadedTime': 2549.7999999523163, 'positionName': 'LEFT', 'positionCoords': [245.68, 179], 'bid': 8.38}, {'imgObject': {}, 'id': 'hashbrowns', 'src': '/static/foodstim60/hashbrowns.jpg', 'key': 'i', 'origWidth': 411, 'origHeight': 410, 'width': 411, 'height': 410, 'widthPercent': 0.45, 'rescaleHeight': False, 'trialN': 3, 'loaded': True, 'loadedTime': 2592.5, 'positionName': 'RIGHT', 'positionCoords': [710.32, 179], 'bid': 4.69}]",11417.5,1669832914684,blackbeanswithrice,hashbrowns,8.38,4.69,-3.6900000000000004,blackbeanswithrice,1752.7999999523163,1753,1753.0999999046326,True,u,13683.599999904633,2266.0999999046326,1669832916950,2266,HRV,HRV_0166,2022-11-30 18:36:06
4,"[{'imgObject': {}, 'id': 'eggsalad', 'src': '/static/foodstim60/eggsalad.jpg', 'key': 'u', 'origWidth': 410, 'origHeight': 409, 'width': 410, 'height': 409, 'widthPercent': 0.45, 'rescaleHeight': False, 'trialN': 4, 'loaded': True, 'loadedTime': 2598.5999999046326, 'positionName': 'LEFT', 'positionCoords': [245.68, 179.5], 'bid': 5.3}, {'imgObject': {}, 'id': 'tacos', 'src': '/static/foodstim60/tacos.jpg', 'key': 'i', 'origWidth': 411, 'origHeight': 411, 'width': 411, 'height': 411, 'widthPercent': 0.45, 'rescaleHeight': False, 'trialN': 4, 'loaded': True, 'loadedTime': 2612.0999999046326, 'positionName': 'RIGHT', 'positionCoords': [710.32, 178.5], 'bid': 5.24}]",13684.099999904633,1669832916950,eggsalad,tacos,5.3,5.24,-0.05999999999999961,tacos,3047.0999999046326,3048,3047.5,True,i,17241.5,3557.4000000953674,1669832920508,3558,HRV,HRV_0166,2022-11-30 18:36:06
5,"[{'imgObject': {}, 'id': 'mac & cheese', 'src': '/static/foodstim60/mac & cheese.jpg', 'key': 'u', 'origWidth': 410, 'origHeight': 410, 'width': 410, 'height': 410, 'widthPercent': 0.45, 'rescaleHeight': False, 'trialN': 5, 'loaded': True, 'loadedTime': 2616, 'positionName': 'LEFT', 'positionCoords': [245.68, 179], 'bid': 4.95}, {'imgObject': {}, 'id': 'rigatoni and sauce', 'src': '/static/foodstim60/rigatoni and sauce.jpg', 'key': 'i', 'origWidth': 410, 'origHeight': 411, 'width': 410, 'height': 411, 'widthPercent': 0.45, 'rescaleHeight': False, 'trialN': 5, 'loaded': True, 'loadedTime': 2628.5999999046326, 'positionName': 'RIGHT', 'positionCoords': [710.32, 178.5], 'bid': 5.08}]",17242.199999809265,1669832920508,mac & cheese,rigatoni and sauce,4.95,5.08,0.1299999999999999,rigatoni and sauce,2000.6000001430511,2001,2001.0,True,i,19764.799999952316,2522.600000143051,1669832923031,2523,HRV,HRV_0166,2022-11-30 18:36:06
6,"[{'imgObject': {}, 'id': 'yogurt no spoon', 'src': '/static/foodstim60/yogurt no spoon.jpg', 'key': 'u', 'origWidth': 411, 'origHeight': 410, 'width': 411, 'height': 410, 'widthPercent': 0.45, 'rescaleHeight': False, 'trialN': 6, 'loaded': True, 'loadedTime': 2452.5999999046326, 'positionName': 'LEFT', 'positionCoords': [244.68, 179], 'bid': 6.33}, {'imgObject': {}, 'id': 'banana', 'src': '/static/foodstim60/banana.jpg', 'key': 'i', 'origWidth': 410, 'origHeight': 410, 'width': 410, 'height': 410, 'widthPercent': 0.45, 'rescaleHeight': False, 'trialN': 6, 'loaded': True, 'loadedTime': 2632.899999856949, 'positionName': 'RIGHT', 'positionCoords': [710.32, 179], 'bid': 9.75}]",19765.199999809265,1669832923031,yogurt no spoon,banana,6.33,9.75,3.42,banana,1712.3000001907349,1713,1712.7000000476837,True,i,21989.099999904633,2223.9000000953674,1669832925255,2224,HRV,HRV_0166,2022-11-30 18:36:06
7,"[{'imgObject': {}, 'id': 'turkey sandwich', 'src': '/static/foodstim60/turkey sandwich.jpg', 'key': 'u', 'origWidth': 409, 'origHeight': 409, 'width': 409, 'height': 409, 'widthPercent': 0.45, 'rescaleHeight': False, 'trialN': 7, 'loaded': True, 'loadedTime': 2636.7999999523163, 'positionName': 'LEFT', 'positionCoords': [246.68, 179.5], 'bid': 1.64}, {'imgObject': {}, 'id': 'froot loops w milk', 'src': '/static/foodstim60/froot loops w milk.jpg', 'key': 'i', 'origWidth': 410, 'origHeight': 410, 'width': 410, 'height': 410, 'widthPercent': 0.45, 'rescaleHeight': False, 'trialN': 7, 'loaded': True, 'loadedTime': 2649.2999999523163, 'positionName': 'RIGHT', 'positionCoords': [710.32, 179], 'bid': 1.01}]",21989.39999985695,1669832925256,turkey sandwich,froot loops w milk,1.64,1.01,-0.6299999999999999,froot loops w milk,2018.0,2018,2018.6000001430511,True,i,24521.199999809265,2531.7999999523163,1669832927787,2531,HRV,HRV_0166,2022-11-30 18:36:06
8,"[{'imgObject': {}, 'id': 'grilled chicken strips', 'src': '/static/foodstim60/grilled chicken strips.jpg', 'key': 'u', 'origWidth': 410, 'origHeight': 411, 'width': 410, 'height': 411, 'widthPercent': 0.45, 'rescaleHeight': False, 'trialN': 8, 'loaded': True, 'loadedTime': 2661.199999809265, 'positionName': 'LEFT', 'positionCoords': [245.68, 178.5], 'bid': 0.85}, {'imgObject': {}, 'id': 'burger', 'src': '/static/foodstim60/burger.jpg', 'key': 'i', 'origWidth': 409, 'origHeight': 409, 'width': 409, 'height': 409, 'widthPercent': 0.45, 'rescaleHeight': False, 'trialN': 8, 'loaded': True, 'loadedTime': 2670.5999999046326, 'positionName': 'RIGHT', 'positionCoords': [710.32, 179.5], 'bid': 0.41}]",24521.599999904633,1669832927788,grilled chicken strips,burger,0.85,0.41,-0.44,grilled chicken strips,2597.5999999046326,2598,2598.2999999523163,True,u,27633.89999985695,3112.2999999523163,1669832930900,3112,HRV,HRV_0166,2022-11-30 18:36:06
9,"[{'imgObject': {}, 'id': 'baked potato', 'src': '/static/foodstim60/baked potato.jpg', 'key': 'u', 'origWidth': 409, 'origHeight': 410, 'width': 409, 'height': 410, 'widthPercent': 0.45, 'rescaleHeight': False, 'trialN': 9, 'loaded': True, 'loadedTime': 2688.0999999046326, 'positionName': 'LEFT', 'positionCoords': [246.68, 179], 'bid': 6.93}, {'imgObject': {}, 'id': 'corn cob', 'src': '/static/foodstim60/corn cob.jpg', 'key': 'i', 'origWidth': 411, 'origHeight': 411, 'width': 411, 'height': 411, 'widthPercent': 0.45, 'rescaleHeight': False, 'trialN': 9, 'loaded': True, 'loadedTime': 2696.399999856949, 'positionName': 'RIGHT', 'positionCoords': [710.32, 178.5], 'bid': 8.55}]",27634.299999952316,1669832930900,baked potato,corn cob,6.93,8.55,1.620000000000001,corn cob,1792.5,1793,1793.0,True,i,29945.599999904633,2311.2999999523163,1669832933212,2312,HRV,HRV_0166,2022-11-30 18:36:06
10,"[{'imgObject': {}, 'id': 'olives', 'src': '/static/foodstim60/olives.jpg', 'key': 'u', 'origWidth': 410, 'origHeight': 410, 'width': 410, 'height': 410, 'widthPercent': 0.45, 'rescaleHeight': False, 'trialN': 10, 'loaded': True, 'loadedTime': 2394.399999856949, 'positionName': 'LEFT', 'positionCoords': [245.68, 179], 'bid': 5.95}, {'imgObject': {}, 'id': 'veggieswithdip', 'src': '/static/foodstim60/veggieswithdip.jpg', 'key': 'i', 'origWidth': 409, 'origHeight': 409, 'width': 409, 'height': 409, 'widthPercent': 0.45, 'rescaleHeight': False, 'trialN': 10, 'loaded': True, 'loadedTime': 2698.699999809265, 'positionName': 'RIGHT', 'positionCoords': [710.32, 179.5], 'bid': 6.08}]",29946.199999809265,1669832933212,olives,veggieswithdip,5.95,6.08,0.1299999999999999,veggieswithdip,2586.0,2587,2586.7000000476837,True,i,33046.09999990463,3099.9000000953674,1669832936312,3100,HRV,HRV_0166,2022-11-30 18:36:06
11,"[{'imgObject': {}, 'id': 'banana', 'src': '/static/foodstim60/banana.jpg', 'key': 'u', 'origWidth': 410, 'origHeight': 410, 'width': 410, 'height': 410, 'widthPercent': 0.45, 'rescaleHeight': False, 'trialN': 11, 'loaded': True, 'loadedTime': 2632, 'positionName': 'LEFT', 'positionCoords': [245.68, 179], 'bid': 9.75}, {'imgObject': {}, 'id': 'Grapes', 'src': '/static/foodstim60/Grapes.jpg', 'key': 'i', 'origWidth': 411, 'origHeight': 411, 'width': 411, 'height': 411, 'widthPercent': 0.45, 'rescaleHeight': False, 'trialN': 11, 'loaded': True, 'loadedTime': 2721, 'positionName': 'RIGHT', 'positionCoords': [710.32, 178.5], 'bid': 6.8100000000000005}]",33046.39999985695,1669832936313,banana,Grapes,9.75,6.8100000000000005,-2.9399999999999995,banana,1563.0,1563,1563.5,True,u,35128.89999985695,2082.5,1669832938395,2082,HRV,HRV_0166,2022-11-30 18:36:06
12,"[{'imgObject': {}, 'id': 'shreddedwheatwithmilk', 'src': '/static/foodstim60/shreddedwheatwithmilk.jpg', 'key': 'u', 'origWidth': 410, 'origHeight': 410, 'width': 410, 'height': 410, 'widthPercent': 0.45, 'rescaleHeight': False, 'trialN': 12, 'loaded': True, 'loadedTime': 2721.699999809265, 'positionName': 'LEFT', 'positionCoords': [245.68, 179], 'bid': 6.88}, {'imgObject': {}, 'id': 'cherries', 'src': '/static/foodstim60/cherries.jpg', 'key': 'i', 'origWidth': 410, 'origHeight': 411, 'width': 410, 'height': 411, 'widthPercent': 0.45, 'rescaleHeight': False, 'trialN': 12, 'loaded': True, 'loadedTime': 2733.899999856949, 'positionName': 'RIGHT', 'positionCoords': [710.32, 178.5], 'bid': 6.7700000000000005}]",35129.299999952316,1669832938395,shreddedwheatwithmilk,cherries,6.88,6.7700000000000005,-0.10999999999999943,cherries,1522.0,1523,1522.2999999523163,True,i,37159.59999990463,2030.2999999523163,1669832940426,2031,HRV,HRV_0166,2022-11-30 18:36:06
13,"[{'imgObject': {}, 'id': 'burger', 'src': '/static/foodstim60/burger.jpg', 'key': 'u', 'origWidth': 409, 'origHeight': 409, 'width': 409, 'height': 409, 'widthPercent': 0.45, 'rescaleHeight': False, 'trialN': 13, 'loaded': True, 'loadedTime': 2675.699999809265, 'positionName': 'LEFT', 'positionCoords': [246.68, 179.5], 'bid': 0.41}, {'imgObject': {}, 'id': 'cocktailshrimp', 'src': '/static/foodstim60/cocktailshrimp.jpg', 'key': 'i', 'origWidth': 410, 'origHeight': 410, 'width': 410, 'height': 410, 'widthPercent': 0.45, 'rescaleHeight': False, 'trialN': 13, 'loaded': True, 'loadedTime': 2739.899999856949, 'positionName': 'RIGHT', 'positionCoords': [710.32, 179], 'bid': 0.51}]",37160.09999990463,1669832940426,burger,cocktailshrimp,0.41,0.51,0.10000000000000003,cocktailshrimp,2210.0999999046326,2211,2210.5,True,i,39886.799999952316,2726.7000000476837,1669832943153,2727,HRV,HRV_0166,2022-11-30 18:36:06
14,"[{'imgObject': {}, 'id': 'strawberries', 'src': '/static/foodstim60/strawberries.jpg', 'key': 'u', 'origWidth': 410, 'origHeight': 410, 'width': 410, 'height': 410, 'widthPercent': 0.45, 'rescaleHeight': False, 'trialN': 14, 'loaded': True, 'loadedTime': 2767, 'positionName': 'LEFT', 'positionCoords': [245.68, 179], 'bid': 6.36}, {'imgObject': {}, 'id': 'luckycharms', 'src': '/static/foodstim60/luckycharms.jpg', 'key': 'i', 'origWidth': 410, 'origHeight': 409, 'width': 410, 'height': 409, 'widthPercent': 0.45, 'rescaleHeight': False, 'trialN': 14, 'loaded': True, 'loadedTime': 2767.5, 'positionName': 'RIGHT', 'positionCoords': [710.32, 179.5], 'bid': 1.92}]",39887.299999952316,1669832943153,strawberries,luckycharms,6.36,1.92,-4.44,strawberries,1618.0999999046326,1619,1618.5999999046326,True,u,42020.199999809265,2132.899999856949,1669832945286,2133,HRV,HRV_0166,2022-11-30 18:36:06
15,"[{'imgObject': {}, 'id': 'Tribe humus pita', 'src': '/static/foodstim60/Tribe humus pita.jpg', 'key': 'u', 'origWidth': 411, 'origHeight': 411, 'width': 411, 'height': 411, 'widthPercent': 0.45, 'rescaleHeight': False, 'trialN': 15, 'loaded': True, 'loadedTime': 2798.399999856949, 'positionName': 'LEFT', 'positionCoords': [244.68, 178.5], 'bid': 6.12}, {'imgObject': {}, 'id': 'raspberries', 'src': '/static/foodstim60/raspberries.jpg', 'key': 'i', 'origWidth': 411, 'origHeight': 411, 'width': 411, 'height': 411, 'widthPercent': 0.45, 'rescaleHeight': False, 'trialN': 15, 'loaded': True, 'loadedTime': 2802.5, 'positionName': 'RIGHT', 'positionCoords': [710.32, 178.5], 'bid': 6.390000000000001}]",42020.799999952316,1669832945287,Tribe humus pita,raspberries,6.12,6.390000000000001,0.27000000000000046,raspberries,1671.7999999523163,1672,1672.0999999046326,True,i,44201.199999809265,2180.399999856949,1669832947467,2180,HRV,HRV_0166,2022-11-30 18:36:06
16,"[{'imgObject': {}, 'id': 'salmon', 'src': '/static/foodstim60/salmon.jpg', 'key': 'u', 'origWidth': 410, 'origHeight': 409, 'width': 410, 'height': 409, 'widthPercent': 0.45, 'rescaleHeight': False, 'trialN': 16, 'loaded': True, 'loadedTime': 2815.899999856949, 'positionName': 'LEFT', 'positionCoords': [245.68, 179.5], 'bid': 0.8200000000000001}, {'imgObject': {}, 'id': 'chickenfingers', 'src': '/static/foodstim60/chickenfingers.jpg', 'key': 'i', 'origWidth': 410, 'origHeight': 410, 'width': 410, 'height': 410, 'widthPercent': 0.45, 'rescaleHeight': False, 'trialN': 16, 'loaded': True, 'loadedTime': 2808, 'positionName': 'RIGHT', 'positionCoords': [710.32, 179], 'bid': 0.38}]",44201.59999990463,1669832947468,salmon,chickenfingers,0.8200000000000001,0.38,-0.44000000000000006,salmon,2717.9000000953674,2718,2718.2000000476837,True,u,47434.89999985695,3233.2999999523163,1669832950701,3233,HRV,HRV_0166,2022-11-30 18:36:06
17,"[{'imgObject': {}, 'id': 'mashed potato', 'src': '/static/foodstim60/mashed potato.jpg', 'key': 'u', 'origWidth': 409, 'origHeight': 409, 'width': 409, 'height': 409, 'widthPercent': 0.45, 'rescaleHeight': False, 'trialN': 17, 'loaded': True, 'loadedTime': 2827.199999809265, 'positionName': 'LEFT', 'positionCoords': [246.68, 179.5], 'bid': 6.15}, {'imgObject': {}, 'id': 'baked potato', 'src': '/static/foodstim60/baked potato.jpg', 'key': 'i', 'origWidth': 409, 'origHeight': 410, 'width': 409, 'height': 410, 'widthPercent': 0.45, 'rescaleHeight': False, 'trialN': 17, 'loaded': True, 'loadedTime': 2686.5999999046326, 'positionName': 'RIGHT', 'positionCoords': [710.32, 179], 'bid': 6.93}]",47435.39999985695,1669832950701,mashed potato,baked potato,6.15,6.93,0.7799999999999994,baked potato,2140.600000143051,2141,2141.0,True,i,50082.09999990463,2646.7000000476837,1669832953351,2650,HRV,HRV_0166,2022-11-30 18:36:06
18,"[{'imgObject': {}, 'id': 'cheerios', 'src': '/static/foodstim60/cheerios.jpg', 'key': 'u', 'origWidth': 409, 'origHeight': 410, 'width': 409, 'height': 410, 'widthPercent': 0.45, 'rescaleHeight': False, 'trialN': 18, 'loaded': True, 'loadedTime': 2830.7999999523163, 'positionName': 'LEFT', 'positionCoords': [246.68, 179], 'bid': 4.61}, {'imgObject': {}, 'id': 'grilled chicken strips', 'src': '/static/foodstim60/grilled chicken strips.jpg', 'key': 'i', 'origWidth': 410, 'origHeight': 411, 'width': 410, 'height': 411, 'widthPercent': 0.45, 'rescaleHeight': False, 'trialN': 18, 'loaded': True, 'loadedTime': 2661.399999856949, 'positionName': 'RIGHT', 'positionCoords': [710.32, 178.5], 'bid': 0.85}]",50082.39999985695,1669832953351,cheerios,grilled chicken strips,4.61,0.85,-3.7600000000000002,cheerios,1364.0,1365,1364.7999999523163,True,u,51963.0,1880.6000001430511,1669832955232,1881,HRV,HRV_0166,2022-11-30 18:36:06
19,"[{'imgObject': {}, 'id': 'salmon', 'src': '/static/foodstim60/salmon.jpg', 'key': 'u', 'origWidth': 410, 'origHeight': 409, 'width': 410, 'height': 409, 'widthPercent': 0.45, 'rescaleHeight': False, 'trialN': 19, 'loaded': True, 'loadedTime': 2818.5999999046326, 'positionName': 'LEFT', 'positionCoords': [245.68, 179.5], 'bid': 0.8200000000000001}, {'imgObject': {}, 'id': 'lox', 'src': '/static/foodstim60/lox.jpg', 'key': 'i', 'origWidth': 410, 'origHeight': 411, 'width': 410, 'height': 411, 'widthPercent': 0.45, 'rescaleHeight': False, 'trialN': 19, 'loaded': True, 'loadedTime': 2840.199999809265, 'positionName': 'RIGHT', 'positionCoords': [710.32, 178.5], 'bid': 0.76}]",51963.39999985695,1669832955232,salmon,lox,0.8200000000000001,0.76,-0.06000000000000005,lox,2697.9000000953674,2698,2698.4000000953674,True,i,55172.39999985695,3209.0,1669832958441,3209,HRV,HRV_0166,2022-11-30 18:36:06
20,"[{'imgObject': {}, 'id': 'banana', 'src': '/static/foodstim60/banana.jpg', 'key': 'u', 'origWidth': 410, 'origHeight': 410, 'width': 410, 'height': 410, 'widthPercent': 0.45, 'rescaleHeight': False, 'trialN': 20, 'loaded': True, 'loadedTime': 2631.399999856949, 'positionName': 'LEFT', 'positionCoords': [245.68, 179], 'bid': 9.75}, {'imgObject': {}, 'id': 'blueberries', 'src': '/static/foodstim60/blueberries.jpg', 'key': 'i', 'origWidth': 411, 'origHeight': 411, 'width': 411, 'height': 411, 'widthPercent': 0.45, 'rescaleHeight': False, 'trialN': 20, 'loaded': True, 'loadedTime': 2840.2999999523163, 'positionName': 'RIGHT', 'positionCoords': [710.32, 178.5], 'bid': 8.86}]",55172.799999952316,1669832958441,banana,blueberries,9.75,8.86,-0.8900000000000006,banana,1316.2000000476837,1317,1316.5,True,u,57004.699999809265,1831.8999998569489,1669832960273,1832,HRV,HRV_0166,2022-11-30 18:36:06
21,"[{'imgObject': {}, 'id': 'mac & cheese', 'src': '/static/foodstim60/mac & cheese.jpg', 'key': 'u', 'origWidth': 410, 'origHeight': 410, 'width': 410, 'height': 410, 'widthPercent': 0.45, 'rescaleHeight': False, 'trialN': 21, 'loaded': True, 'loadedTime': 2617.5, 'positionName': 'LEFT', 'positionCoords': [245.68, 179], 'bid': 4.95}, {'imgObject': {}, 'id': 'tacos', 'src': '/static/foodstim60/tacos.jpg', 'key': 'i', 'origWidth': 411, 'origHeight': 411, 'width': 411, 'height': 411, 'widthPercent': 0.45, 'rescaleHeight': False, 'trialN': 21, 'loaded': True, 'loadedTime': 2610.2999999523163, 'positionName': 'RIGHT', 'positionCoords': [710.32, 178.5], 'bid': 5.24}]",57005.0,1669832960274,mac & cheese,tacos,4.95,5.24,0.29000000000000004,tacos,1918.8999998569489,1919,1919.3999998569489,True,i,59438.799999952316,2433.7999999523163,1669832962707,2433,HRV,HRV_0166,2022-11-30 18:36:06
22,"[{'imgObject': {}, 'id': 'lox', 'src': '/static/foodstim60/lox.jpg', 'key': 'u', 'origWidth': 410, 'origHeight': 411, 'width': 410, 'height': 411, 'widthPercent': 0.45, 'rescaleHeight': False, 'trialN': 22, 'loaded': True, 'loadedTime': 2840.0999999046326, 'positionName': 'LEFT', 'positionCoords': [245.68, 178.5], 'bid': 0.76}, {'imgObject': {}, 'id': 'olives', 'src': '/static/foodstim60/olives.jpg', 'key': 'i', 'origWidth': 410, 'origHeight': 410, 'width': 410, 'height': 410, 'widthPercent': 0.45, 'rescaleHeight': False, 'trialN': 22, 'loaded': True, 'loadedTime': 2320.199999809265, 'positionName': 'RIGHT', 'positionCoords': [710.32, 179], 'bid': 5.95}]",59439.39999985695,1669832962708,lox,olives,0.76,5.95,5.19,olives,1040.6000001430511,1041,1041.1000001430511,True,i,60985.199999809265,1545.7999999523163,1669832964254,1546,HRV,HRV_0166,2022-11-30 18:36:06
23,"[{'imgObject': {}, 'id': 'orange slices', 'src': '/static/foodstim60/orange slices.jpg', 'key': 'u', 'origWidth': 409, 'origHeight': 410, 'width': 409, 'height': 410, 'widthPercent': 0.45, 'rescaleHeight': False, 'trialN': 23, 'loaded': True, 'loadedTime': 2866, 'positionName': 'LEFT', 'positionCoords': [246.68, 179], 'bid': 5.57}, {'imgObject': {}, 'id': 'bagel plain', 'src': '/static/foodstim60/bagel plain.jpg', 'key': 'i', 'origWidth': 410, 'origHeight': 410, 'width': 410, 'height': 410, 'widthPercent': 0.45, 'rescaleHeight': False, 'trialN': 23, 'loaded': True, 'loadedTime': 2866.5, 'positionName': 'RIGHT', 'positionCoords': [710.32, 179], 'bid': 4.04}]",60985.799999952316,1669832964254,orange slices,bagel plain,5.57,4.04,-1.5300000000000002,orange slices,2020.2999999523163,2021,2020.5999999046326,True,u,63513.699999809265,2527.899999856949,1669832966782,2528,HRV,HRV_0166,2022-11-30 18:36:06
24,"[{'imgObject': {}, 'id': 'eggs', 'src': '/static/foodstim60/eggs.jpg', 'key': 'u', 'origWidth': 409, 'origHeight': 409, 'width': 409, 'height': 409, 'widthPercent': 0.45, 'rescaleHeight': False, 'trialN': 24, 'loaded': True, 'loadedTime': 2896.699999809265, 'positionName': 'LEFT', 'positionCoords': [246.68, 179.5], 'bid': 0}, {'imgObject': {}, 'id': 'cocktailshrimp', 'src': '/static/foodstim60/cocktailshrimp.jpg', 'key': 'i', 'origWidth': 410, 'origHeight': 410, 'width': 410, 'height': 410, 'widthPercent': 0.45, 'rescaleHeight': False, 'trialN': 24, 'loaded': True, 'loadedTime': 2763.399999856949, 'positionName': 'RIGHT', 'positionCoords': [710.32, 179], 'bid': 0.51}]",63514.0,1669832966783,eggs,cocktailshrimp,0.0,0.51,0.51,cocktailshrimp,2054.0999999046326,2054,2054.5,True,i,66082.79999995232,2568.7999999523163,1669832969351,2568,HRV,HRV_0166,2022-11-30 18:36:06
25,"[{'imgObject': {}, 'id': 'eggs', 'src': '/static/foodstim60/eggs.jpg', 'key': 'u', 'origWidth': 409, 'origHeight': 409, 'width': 409, 'height': 409, 'widthPercent': 0.45, 'rescaleHeight': False, 'trialN': 25, 'loaded': True, 'loadedTime': 2895.199999809265, 'positionName': 'LEFT', 'positionCoords': [246.68, 179.5], 'bid': 0}, {'imgObject': {}, 'id': 'tacos', 'src': '/static/foodstim60/tacos.jpg', 'key': 'i', 'origWidth': 411, 'origHeight': 411, 'width': 411, 'height': 411, 'widthPercent': 0.45, 'rescaleHeight': False, 'trialN': 25, 'loaded': True, 'loadedTime': 2612.399999856949, 'positionName': 'RIGHT', 'positionCoords': [710.32, 178.5], 'bid': 5.24}]",66083.19999980927,1669832969352,eggs,tacos,0.0,5.24,5.24,tacos,1332.8000001907349,1333,1333.2000000476837,True,i,67928.69999980927,1845.5,1669832971197,1845,HRV,HRV_0166,2022-11-30 18:36:06
26,"[{'imgObject': {}, 'id': 'chickenfingers', 'src': '/static/foodstim60/chickenfingers.jpg', 'key': 'u', 'origWidth': 410, 'origHeight': 410, 'width': 410, 'height': 410, 'widthPercent': 0.45, 'rescaleHeight': False, 'trialN': 26, 'loaded': True, 'loadedTime': 2814.699999809265, 'positionName': 'LEFT', 'positionCoords': [245.68, 179], 'bid': 0.38}, {'imgObject': {}, 'id': 'orange slices', 'src': '/static/foodstim60/orange slices.jpg', 'key': 'i', 'origWidth': 409, 'origHeight': 410, 'width': 409, 'height': 410, 'widthPercent': 0.45, 'rescaleHeight': False, 'trialN': 26, 'loaded': True, 'loadedTime': 2864.399999856949, 'positionName': 'RIGHT', 'positionCoords': [710.32, 179], 'bid': 5.57}]",67929.09999990463,1669832971198,chickenfingers,orange slices,0.38,5.57,5.19,orange slices,1479.0999999046326,1479,1479.2999999523163,True,i,69922.69999980927,1993.5999999046326,1669832973191,1993,HRV,HRV_0166,2022-11-30 18:36:06
27,"[{'imgObject': {}, 'id': 'corn cob', 'src': '/static/foodstim60/corn cob.jpg', 'key': 'u', 'origWidth': 411, 'origHeight': 411, 'width': 411, 'height': 411, 'widthPercent': 0.45, 'rescaleHeight': False, 'trialN': 27, 'loaded': True, 'loadedTime': 2695.899999856949, 'positionName': 'LEFT', 'positionCoords': [244.68, 178.5], 'bid': 8.55}, {'imgObject': {}, 'id': 'bagel and cc', 'src': '/static/foodstim60/bagel and cc.jpg', 'key': 'i', 'origWidth': 410, 'origHeight': 410, 'width': 410, 'height': 410, 'widthPercent': 0.45, 'rescaleHeight': False, 'trialN': 27, 'loaded': True, 'loadedTime': 2898.399999856949, 'positionName': 'RIGHT', 'positionCoords': [710.32, 179], 'bid': 4.86}]",69923.09999990463,1669832973192,corn cob,bagel and cc,8.55,4.86,-3.6900000000000004,corn cob,1271.2000000476837,1271,1271.7000000476837,True,u,71705.59999990463,1782.5,1669832974974,1782,HRV,HRV_0166,2022-11-30 18:36:06
28,"[{'imgObject': {}, 'id': 'strawberries', 'src': '/static/foodstim60/strawberries.jpg', 'key': 'u', 'origWidth': 410, 'origHeight': 410, 'width': 410, 'height': 410, 'widthPercent': 0.45, 'rescaleHeight': False, 'trialN': 28, 'loaded': True, 'loadedTime': 2766.7999999523163, 'positionName': 'LEFT', 'positionCoords': [245.68, 179], 'bid': 6.36}, {'imgObject': {}, 'id': 'veggieswithdip', 'src': '/static/foodstim60/veggieswithdip.jpg', 'key': 'i', 'origWidth': 409, 'origHeight': 409, 'width': 409, 'height': 409, 'widthPercent': 0.45, 'rescaleHeight': False, 'trialN': 28, 'loaded': True, 'loadedTime': 2702.399999856949, 'positionName': 'RIGHT', 'positionCoords': [710.32, 179.5], 'bid': 6.08}]",71706.09999990463,1669832974975,strawberries,veggieswithdip,6.36,6.08,-0.28000000000000025,strawberries,1630.9000000953674,1631,1631.4000000953674,True,u,73854.59999990463,2148.5,1669832977123,2148,HRV,HRV_0166,2022-11-30 18:36:06
29,"[{'imgObject': {}, 'id': 'chickenfingers', 'src': '/static/foodstim60/chickenfingers.jpg', 'key': 'u', 'origWidth': 410, 'origHeight': 410, 'width': 410, 'height': 410, 'widthPercent': 0.45, 'rescaleHeight': False, 'trialN': 29, 'loaded': True, 'loadedTime': 2809.2999999523163, 'positionName': 'LEFT', 'positionCoords': [245.68, 179], 'bid': 0.38}, {'imgObject': {}, 'id': 'steak', 'src': '/static/foodstim60/steak.jpg', 'key': 'i', 'origWidth': 410, 'origHeight': 410, 'width': 410, 'height': 410, 'widthPercent': 0.45, 'rescaleHeight': False, 'trialN': 29, 'loaded': True, 'loadedTime': 2900.399999856949, 'positionName': 'RIGHT', 'positionCoords': [710.32, 179], 'bid': 0.25}]",73855.0,1669832977123,chickenfingers,steak,0.38,0.25,-0.13,chickenfingers,1849.8999998569489,1851,1850.6999998092651,True,u,76217.59999990463,2362.5999999046326,1669832979486,2363,HRV,HRV_0166,2022-11-30 18:36:06
30,"[{'imgObject': {}, 'id': 'grilled chicken strips', 'src': '/static/foodstim60/grilled chicken strips.jpg', 'key': 'u', 'origWidth': 410, 'origHeight': 411, 'width': 410, 'height': 411, 'widthPercent': 0.45, 'rescaleHeight': False, 'trialN': 30, 'loaded': True, 'loadedTime': 2661, 'positionName': 'LEFT', 'positionCoords': [245.68, 178.5], 'bid': 0.85}, {'imgObject': {}, 'id': 'chicken nuggets2', 'src': '/static/foodstim60/chicken nuggets2.jpg', 'key': 'i', 'origWidth': 410, 'origHeight': 409, 'width': 410, 'height': 409, 'widthPercent': 0.45, 'rescaleHeight': False, 'trialN': 30, 'loaded': True, 'loadedTime': 2522.5999999046326, 'positionName': 'RIGHT', 'positionCoords': [710.32, 179.5], 'bid': 0.92}]",76218.19999980927,1669832979487,grilled chicken strips,chicken nuggets2,0.85,0.92,0.07000000000000006,grilled chicken strips,1906.4000000953674,1907,1907.0,True,u,78633.19999980927,2415.0,1669832981902,2415,HRV,HRV_0166,2022-11-30 18:36:06
31,"[{'imgObject': {}, 'id': 'pear', 'src': '/static/foodstim60/pear.jpg', 'key': 'u', 'origWidth': 411, 'origHeight': 410, 'width': 411, 'height': 410, 'widthPercent': 0.45, 'rescaleHeight': False, 'trialN': 31, 'loaded': True, 'loadedTime': 2901.2999999523163, 'positionName': 'LEFT', 'positionCoords': [244.68, 179], 'bid': 2.8000000000000003}, {'imgObject': {}, 'id': 'bagel plain', 'src': '/static/foodstim60/bagel plain.jpg', 'key': 'i', 'origWidth': 410, 'origHeight': 410, 'width': 410, 'height': 410, 'widthPercent': 0.45, 'rescaleHeight': False, 'trialN': 31, 'loaded': True, 'loadedTime': 2894, 'positionName': 'RIGHT', 'positionCoords': [710.32, 179], 'bid': 4.04}]",78633.59999990463,1669832981902,pear,bagel plain,2.8000000000000003,4.04,1.2399999999999998,bagel plain,1949.7999999523163,1950,1950.2000000476837,True,i,81099.0,2465.4000000953674,1669832984367,2465,HRV,HRV_0166,2022-11-30 18:36:06
32,"[{'imgObject': {}, 'id': 'fruitsalad', 'src': '/static/foodstim60/fruitsalad.jpg', 'key': 'u', 'origWidth': 410, 'origHeight': 410, 'width': 410, 'height': 410, 'widthPercent': 0.45, 'rescaleHeight': False, 'trialN': 32, 'loaded': True, 'loadedTime': 2953.0999999046326, 'positionName': 'LEFT', 'positionCoords': [245.68, 179], 'bid': 7.56}, {'imgObject': {}, 'id': 'yogurt no spoon', 'src': '/static/foodstim60/yogurt no spoon.jpg', 'key': 'i', 'origWidth': 411, 'origHeight': 410, 'width': 411, 'height': 410, 'widthPercent': 0.45, 'rescaleHeight': False, 'trialN': 32, 'loaded': True, 'loadedTime': 2454.5999999046326, 'positionName': 'RIGHT', 'positionCoords': [710.32, 179], 'bid': 6.33}]",81099.19999980927,1669832984368,fruitsalad,yogurt no spoon,7.56,6.33,-1.2299999999999995,fruitsalad,1666.4000000953674,1667,1666.8000001907349,True,u,83269.5,2170.300000190735,1669832986538,2170,HRV,HRV_0166,2022-11-30 18:36:06
33,"[{'imgObject': {}, 'id': 'eggs', 'src': '/static/foodstim60/eggs.jpg', 'key': 'u', 'origWidth': 409, 'origHeight': 409, 'width': 409, 'height': 409, 'widthPercent': 0.45, 'rescaleHeight': False, 'trialN': 33, 'loaded': True, 'loadedTime': 2896.5, 'positionName': 'LEFT', 'positionCoords': [246.68, 179.5], 'bid': 0}, {'imgObject': {}, 'id': 'fried eggs', 'src': '/static/foodstim60/fried eggs.jpg', 'key': 'i', 'origWidth': 410, 'origHeight': 410, 'width': 410, 'height': 410, 'widthPercent': 0.45, 'rescaleHeight': False, 'trialN': 33, 'loaded': True, 'loadedTime': 2487.7999999523163, 'positionName': 'RIGHT', 'positionCoords': [710.32, 179], 'bid': 0.18}]",83269.79999995232,1669832986538,eggs,fried eggs,0.0,0.18,0.18,fried eggs,2406.5,2407,2406.899999856949,True,i,86190.59999990463,2920.7999999523163,1669832989459,2921,HRV,HRV_0166,2022-11-30 18:36:06
34,"[{'imgObject': {}, 'id': 'Grapes', 'src': '/static/foodstim60/Grapes.jpg', 'key': 'u', 'origWidth': 411, 'origHeight': 411, 'width': 411, 'height': 411, 'widthPercent': 0.45, 'rescaleHeight': False, 'trialN': 34, 'loaded': True, 'loadedTime': 2716.199999809265, 'positionName': 'LEFT', 'positionCoords': [244.68, 178.5], 'bid': 6.8100000000000005}, {'imgObject': {}, 'id': 'cherry tomato', 'src': '/static/foodstim60/cherry tomato.jpg', 'key': 'i', 'origWidth': 410, 'origHeight': 410, 'width': 410, 'height': 410, 'widthPercent': 0.45, 'rescaleHeight': False, 'trialN': 34, 'loaded': True, 'loadedTime': 2923.0999999046326, 'positionName': 'RIGHT', 'positionCoords': [710.32, 179], 'bid': 8.08}]",86190.69999980927,1669832989459,Grapes,cherry tomato,6.8100000000000005,8.08,1.2699999999999996,cherry tomato,2140.5,2141,2140.9000000953674,True,i,88838.69999980927,2648.0,1669832992107,2648,HRV,HRV_0166,2022-11-30 18:36:06
35,"[{'imgObject': {}, 'id': 'mac & cheese', 'src': '/static/foodstim60/mac & cheese.jpg', 'key': 'u', 'origWidth': 410, 'origHeight': 410, 'width': 410, 'height': 410, 'widthPercent': 0.45, 'rescaleHeight': False, 'trialN': 35, 'loaded': True, 'loadedTime': 2612.7999999523163, 'positionName': 'LEFT', 'positionCoords': [245.68, 179], 'bid': 4.95}, {'imgObject': {}, 'id': 'blueberries', 'src': '/static/foodstim60/blueberries.jpg', 'key': 'i', 'origWidth': 411, 'origHeight': 411, 'width': 411, 'height': 411, 'widthPercent': 0.45, 'rescaleHeight': False, 'trialN': 35, 'loaded': True, 'loadedTime': 2863.399999856949, 'positionName': 'RIGHT', 'positionCoords': [710.32, 178.5], 'bid': 8.86}]",88839.09999990463,1669832992108,mac & cheese,blueberries,4.95,8.86,3.9099999999999993,blueberries,1143.4000000953674,1143,1143.7000000476837,True,i,90491.19999980927,1652.0999999046326,1669832993760,1652,HRV,HRV_0166,2022-11-30 18:36:06
36,"[{'imgObject': {}, 'id': 'blueberries', 'src': '/static/foodstim60/blueberries.jpg', 'key': 'u', 'origWidth': 411, 'origHeight': 411, 'width': 411, 'height': 411, 'widthPercent': 0.45, 'rescaleHeight': False, 'trialN': 36, 'loaded': True, 'loadedTime': 2841.399999856949, 'positionName': 'LEFT', 'positionCoords': [244.68, 178.5], 'bid': 8.86}, {'imgObject': {}, 'id': 'sweetpotato', 'src': '/static/foodstim60/sweetpotato.jpg', 'key': 'i', 'origWidth': 410, 'origHeight': 410, 'width': 410, 'height': 410, 'widthPercent': 0.45, 'rescaleHeight': False, 'trialN': 36, 'loaded': True, 'loadedTime': 2931.899999856949, 'positionName': 'RIGHT', 'positionCoords': [710.32, 179], 'bid': 7.0200000000000005}]",90491.59999990463,1669832993760,blueberries,sweetpotato,8.86,7.0200000000000005,-1.839999999999999,blueberries,1235.5,1236,1236.0,True,u,92234.79999995232,1743.2000000476837,1669832995503,1743,HRV,HRV_0166,2022-11-30 18:36:06
37,"[{'imgObject': {}, 'id': 'turkeysandwich', 'src': '/static/foodstim60/turkeysandwich.jpg', 'key': 'u', 'origWidth': 409, 'origHeight': 409, 'width': 409, 'height': 409, 'widthPercent': 0.45, 'rescaleHeight': False, 'trialN': 37, 'loaded': True, 'loadedTime': 2532.699999809265, 'positionName': 'LEFT', 'positionCoords': [246.68, 179.5], 'bid': 1.72}, {'imgObject': {}, 'id': 'froot loops w milk', 'src': '/static/foodstim60/froot loops w milk.jpg', 'key': 'i', 'origWidth': 410, 'origHeight': 410, 'width': 410, 'height': 410, 'widthPercent': 0.45, 'rescaleHeight': False, 'trialN': 37, 'loaded': True, 'loadedTime': 2655.199999809265, 'positionName': 'RIGHT', 'positionCoords': [710.32, 179], 'bid': 1.01}]",92235.09999990463,1669832995504,turkeysandwich,froot loops w milk,1.72,1.01,-0.71,froot loops w milk,2511.0,2511,2511.5999999046326,True,i,95262.79999995232,3027.7000000476837,1669832998531,3027,HRV,HRV_0166,2022-11-30 18:36:06
38,"[{'imgObject': {}, 'id': 'cocktailshrimp', 'src': '/static/foodstim60/cocktailshrimp.jpg', 'key': 'u', 'origWidth': 410, 'origHeight': 410, 'width': 410, 'height': 410, 'widthPercent': 0.45, 'rescaleHeight': False, 'trialN': 38, 'loaded': True, 'loadedTime': 2739.5, 'positionName': 'LEFT', 'positionCoords': [245.68, 179], 'bid': 0.51}, {'imgObject': {}, 'id': 'seaweed', 'src': '/static/foodstim60/seaweed.jpg', 'key': 'i', 'origWidth': 410, 'origHeight': 410, 'width': 410, 'height': 410, 'widthPercent': 0.45, 'rescaleHeight': False, 'trialN': 38, 'loaded': True, 'loadedTime': 2955.0999999046326, 'positionName': 'RIGHT', 'positionCoords': [710.32, 179], 'bid': 2.36}]",95263.19999980927,1669832998532,cocktailshrimp,seaweed,0.51,2.36,1.8499999999999999,seaweed,1875.8000001907349,1876,1876.3000001907349,True,i,97645.59999990463,2382.4000000953674,1669833000914,2382,HRV,HRV_0166,2022-11-30 18:36:06
39,"[{'imgObject': {}, 'id': 'popsicles', 'src': '/static/foodstim60/popsicles.jpg', 'key': 'u', 'origWidth': 410, 'origHeight': 410, 'width': 410, 'height': 410, 'widthPercent': 0.45, 'rescaleHeight': False, 'trialN': 39, 'loaded': True, 'loadedTime': 3060.399999856949, 'positionName': 'LEFT', 'positionCoords': [245.68, 179], 'bid': 2.97}, {'imgObject': {}, 'id': 'salad w chicken', 'src': '/static/foodstim60/salad w chicken.jpg', 'key': 'i', 'origWidth': 411, 'origHeight': 411, 'width': 411, 'height': 411, 'widthPercent': 0.45, 'rescaleHeight': False, 'trialN': 39, 'loaded': True, 'loadedTime': 2955.2999999523163, 'positionName': 'RIGHT', 'positionCoords': [710.32, 178.5], 'bid': 2.97}]",97645.89999985695,1669833000914,popsicles,salad w chicken,2.97,2.97,0.0,popsicles,1555.2999999523163,1556,1555.7000000476837,True,u,99712.59999990463,2066.7000000476837,1669833002981,2067,HRV,HRV_0166,2022-11-30 18:36:06
40,"[{'imgObject': {}, 'id': 'avocado', 'src': '/static/foodstim60/avocado.jpg', 'key': 'u', 'origWidth': 409, 'origHeight': 409, 'width': 409, 'height': 409, 'widthPercent': 0.45, 'rescaleHeight': False, 'trialN': 40, 'loaded': True, 'loadedTime': 2962.399999856949, 'positionName': 'LEFT', 'positionCoords': [246.68, 179.5], 'bid': 6.15}, {'imgObject': {}, 'id': 'froot loops w milk', 'src': '/static/foodstim60/froot loops w milk.jpg', 'key': 'i', 'origWidth': 410, 'origHeight': 410, 'width': 410, 'height': 410, 'widthPercent': 0.45, 'rescaleHeight': False, 'trialN': 40, 'loaded': True, 'loadedTime': 2654.899999856949, 'positionName': 'RIGHT', 'positionCoords': [710.32, 179], 'bid': 1.01}]",99712.89999985695,1669833002981,avocado,froot loops w milk,6.15,1.01,-5.140000000000001,avocado,1638.6000001430511,1639,1639.0,True,u,101860.09999990463,2147.2000000476837,1669833005129,2148,HRV,HRV_0166,2022-11-30 18:36:06
41,"[{'imgObject': {}, 'id': 'burrito', 'src': '/static/foodstim60/burrito.jpg', 'key': 'u', 'origWidth': 410, 'origHeight': 410, 'width': 410, 'height': 410, 'widthPercent': 0.45, 'rescaleHeight': False, 'trialN': 41, 'loaded': True, 'loadedTime': 2986.199999809265, 'positionName': 'LEFT', 'positionCoords': [245.68, 179], 'bid': 5.54}, {'imgObject': {}, 'id': 'apple slices', 'src': '/static/foodstim60/apple slices.jpg', 'key': 'i', 'origWidth': 409, 'origHeight': 410, 'width': 409, 'height': 410, 'widthPercent': 0.45, 'rescaleHeight': False, 'trialN': 41, 'loaded': True, 'loadedTime': 2984.2999999523163, 'positionName': 'RIGHT', 'positionCoords': [710.32, 179], 'bid': 3.74}]",101860.5,1669833005129,burrito,apple slices,5.54,3.74,-1.7999999999999998,apple slices,2277.899999856949,2278,2278.199999809265,True,i,104659.59999990463,2799.0999999046326,1669833007928,2799,HRV,HRV_0166,2022-11-30 18:36:06
42,"[{'imgObject': {}, 'id': 'shreddedwheatwithmilk', 'src': '/static/foodstim60/shreddedwheatwithmilk.jpg', 'key': 'u', 'origWidth': 410, 'origHeight': 410, 'width': 410, 'height': 410, 'widthPercent': 0.45, 'rescaleHeight': False, 'trialN': 42, 'loaded': True, 'loadedTime': 2726.2999999523163, 'positionName': 'LEFT', 'positionCoords': [245.68, 179], 'bid': 6.88}, {'imgObject': {}, 'id': 'Tribe humus pita', 'src': '/static/foodstim60/Tribe humus pita.jpg', 'key': 'i', 'origWidth': 411, 'origHeight': 411, 'width': 411, 'height': 411, 'widthPercent': 0.45, 'rescaleHeight': False, 'trialN': 42, 'loaded': True, 'loadedTime': 2798, 'positionName': 'RIGHT', 'positionCoords': [710.32, 178.5], 'bid': 6.12}]",104660.0,1669833007928,shreddedwheatwithmilk,Tribe humus pita,6.88,6.12,-0.7599999999999998,shreddedwheatwithmilk,2390.0999999046326,2391,2390.5,True,u,107572.0,2912.0,1669833010841,2913,HRV,HRV_0166,2022-11-30 18:36:06
43,"[{'imgObject': {}, 'id': 'turkeysandwich', 'src': '/static/foodstim60/turkeysandwich.jpg', 'key': 'u', 'origWidth': 409, 'origHeight': 409, 'width': 409, 'height': 409, 'widthPercent': 0.45, 'rescaleHeight': False, 'trialN': 43, 'loaded': True, 'loadedTime': 2535.2999999523163, 'positionName': 'LEFT', 'positionCoords': [246.68, 179.5], 'bid': 1.72}, {'imgObject': {}, 'id': 'rigatoni and sauce', 'src': '/static/foodstim60/rigatoni and sauce.jpg', 'key': 'i', 'origWidth': 410, 'origHeight': 411, 'width': 410, 'height': 411, 'widthPercent': 0.45, 'rescaleHeight': False, 'trialN': 43, 'loaded': True, 'loadedTime': 2624.7999999523163, 'positionName': 'RIGHT', 'positionCoords': [710.32, 178.5], 'bid': 5.08}]",107572.29999995232,1669833010841,turkeysandwich,rigatoni and sauce,1.72,5.08,3.3600000000000003,rigatoni and sauce,1223.7999999523163,1224,1224.0999999046326,True,i,109310.69999980927,1738.3999998569489,1669833012579,1738,HRV,HRV_0166,2022-11-30 18:36:06
44,"[{'imgObject': {}, 'id': 'apple slices', 'src': '/static/foodstim60/apple slices.jpg', 'key': 'u', 'origWidth': 409, 'origHeight': 410, 'width': 409, 'height': 410, 'widthPercent': 0.45, 'rescaleHeight': False, 'trialN': 44, 'loaded': True, 'loadedTime': 2984.199999809265, 'positionName': 'LEFT', 'positionCoords': [246.68, 179], 'bid': 3.74}, {'imgObject': {}, 'id': 'sweetpotato', 'src': '/static/foodstim60/sweetpotato.jpg', 'key': 'i', 'origWidth': 410, 'origHeight': 410, 'width': 410, 'height': 410, 'widthPercent': 0.45, 'rescaleHeight': False, 'trialN': 44, 'loaded': True, 'loadedTime': 2930.399999856949, 'positionName': 'RIGHT', 'positionCoords': [710.32, 179], 'bid': 7.0200000000000005}]",109311.09999990463,1669833012580,apple slices,sweetpotato,3.74,7.0200000000000005,3.2800000000000002,sweetpotato,2138.7000000476837,2138,2139.2999999523163,True,i,111972.0,2660.9000000953674,1669833015240,2660,HRV,HRV_0166,2022-11-30 18:36:06
45,"[{'imgObject': {}, 'id': 'grilled chicken strips', 'src': '/static/foodstim60/grilled chicken strips.jpg', 'key': 'u', 'origWidth': 410, 'origHeight': 411, 'width': 410, 'height': 411, 'widthPercent': 0.45, 'rescaleHeight': False, 'trialN': 45, 'loaded': True, 'loadedTime': 2662.0999999046326, 'positionName': 'LEFT', 'positionCoords': [245.68, 178.5], 'bid': 0.85}, {'imgObject': {}, 'id': 'eggs', 'src': '/static/foodstim60/eggs.jpg', 'key': 'i', 'origWidth': 409, 'origHeight': 409, 'width': 409, 'height': 409, 'widthPercent': 0.45, 'rescaleHeight': False, 'trialN': 45, 'loaded': True, 'loadedTime': 2896.399999856949, 'positionName': 'RIGHT', 'positionCoords': [710.32, 179.5], 'bid': 0}]",111972.19999980927,1669833015240,grilled chicken strips,eggs,0.85,0.0,-0.85,eggs,2168.5,2169,2168.9000000953674,True,i,114649.39999985695,2677.2000000476837,1669833017917,2677,HRV,HRV_0166,2022-11-30 18:36:06
46,"[{'imgObject': {}, 'id': 'hotdog w must', 'src': '/static/foodstim60/hotdog w must.jpg', 'key': 'u', 'origWidth': 409, 'origHeight': 409, 'width': 409, 'height': 409, 'widthPercent': 0.45, 'rescaleHeight': False, 'trialN': 46, 'loaded': True, 'loadedTime': 2988.699999809265, 'positionName': 'LEFT', 'positionCoords': [246.68, 179.5], 'bid': 0.47}, {'imgObject': {}, 'id': 'kiwi', 'src': '/static/foodstim60/kiwi.jpg', 'key': 'i', 'origWidth': 410, 'origHeight': 410, 'width': 410, 'height': 410, 'widthPercent': 0.45, 'rescaleHeight': False, 'trialN': 46, 'loaded': True, 'loadedTime': 3011.5, 'positionName': 'RIGHT', 'positionCoords': [710.32, 179], 'bid': 5.76}]",114649.69999980927,1669833017917,hotdog w must,kiwi,0.47,5.76,5.29,kiwi,1259.4000000953674,1260,1259.8000001907349,True,i,116417.29999995232,1767.6000001430511,1669833019685,1768,HRV,HRV_0166,2022-11-30 18:36:06
47,"[{'imgObject': {}, 'id': 'salad w chicken', 'src': '/static/foodstim60/salad w chicken.jpg', 'key': 'u', 'origWidth': 411, 'origHeight': 411, 'width': 411, 'height': 411, 'widthPercent': 0.45, 'rescaleHeight': False, 'trialN': 47, 'loaded': True, 'loadedTime': 2957.5999999046326, 'positionName': 'LEFT', 'positionCoords': [244.68, 178.5], 'bid': 2.97}, {'imgObject': {}, 'id': 'salmon', 'src': '/static/foodstim60/salmon.jpg', 'key': 'i', 'origWidth': 410, 'origHeight': 409, 'width': 410, 'height': 409, 'widthPercent': 0.45, 'rescaleHeight': False, 'trialN': 47, 'loaded': True, 'loadedTime': 2817.5999999046326, 'positionName': 'RIGHT', 'positionCoords': [710.32, 179.5], 'bid': 0.8200000000000001}]",116417.69999980927,1669833019685,salad w chicken,salmon,2.97,0.8200000000000001,-2.1500000000000004,salad w chicken,1722.2000000476837,1723,1722.6000001430511,True,u,118660.29999995232,2242.600000143051,1669833021928,2243,HRV,HRV_0166,2022-11-30 18:36:06
48,"[{'imgObject': {}, 'id': 'veggieswithdip', 'src': '/static/foodstim60/veggieswithdip.jpg', 'key': 'u', 'origWidth': 409, 'origHeight': 409, 'width': 409, 'height': 409, 'widthPercent': 0.45, 'rescaleHeight': False, 'trialN': 48, 'loaded': True, 'loadedTime': 2710.899999856949, 'positionName': 'LEFT', 'positionCoords': [246.68, 179.5], 'bid': 6.08}, {'imgObject': {}, 'id': 'fruitsalad', 'src': '/static/foodstim60/fruitsalad.jpg', 'key': 'i', 'origWidth': 410, 'origHeight': 410, 'width': 410, 'height': 410, 'widthPercent': 0.45, 'rescaleHeight': False, 'trialN': 48, 'loaded': True, 'loadedTime': 2953, 'positionName': 'RIGHT', 'positionCoords': [710.32, 179], 'bid': 7.56}]",118660.89999985695,1669833021929,veggieswithdip,fruitsalad,6.08,7.56,1.4799999999999995,fruitsalad,2330.0,2330,2330.600000143051,True,i,121504.69999980927,2843.7999999523163,1669833024772,2843,HRV,HRV_0166,2022-11-30 18:36:06
49,"[{'imgObject': {}, 'id': 'kiwi', 'src': '/static/foodstim60/kiwi.jpg', 'key': 'u', 'origWidth': 410, 'origHeight': 410, 'width': 410, 'height': 410, 'widthPercent': 0.45, 'rescaleHeight': False, 'trialN': 49, 'loaded': True, 'loadedTime': 3011.399999856949, 'positionName': 'LEFT', 'positionCoords': [245.68, 179], 'bid': 5.76}, {'imgObject': {}, 'id': 'orange slices', 'src': '/static/foodstim60/orange slices.jpg', 'key': 'i', 'origWidth': 409, 'origHeight': 410, 'width': 409, 'height': 410, 'widthPercent': 0.45, 'rescaleHeight': False, 'trialN': 49, 'loaded': True, 'loadedTime': 2865.7999999523163, 'positionName': 'RIGHT', 'positionCoords': [710.32, 179], 'bid': 5.57}]",121505.0,1669833024773,kiwi,orange slices,5.76,5.57,-0.1899999999999995,kiwi,1901.6999998092651,1902,1902.3999998569489,True,u,123924.0,2419.0,1669833027192,2419,HRV,HRV_0166,2022-11-30 18:36:06
50,"[{'imgObject': {}, 'id': 'steak', 'src': '/static/foodstim60/steak.jpg', 'key': 'u', 'origWidth': 410, 'origHeight': 410, 'width': 410, 'height': 410, 'widthPercent': 0.45, 'rescaleHeight': False, 'trialN': 50, 'loaded': True, 'loadedTime': 2901.199999809265, 'positionName': 'LEFT', 'positionCoords': [245.68, 179], 'bid': 0.25}, {'imgObject': {}, 'id': 'eggs', 'src': '/static/foodstim60/eggs.jpg', 'key': 'i', 'origWidth': 409, 'origHeight': 409, 'width': 409, 'height': 409, 'widthPercent': 0.45, 'rescaleHeight': False, 'trialN': 50, 'loaded': True, 'loadedTime': 2896.7999999523163, 'positionName': 'RIGHT', 'positionCoords': [710.32, 179.5], 'bid': 0}]",123924.59999990463,1669833027192,steak,eggs,0.25,0.0,-0.25,eggs,2357.7000000476837,2358,2358.0,True,i,126800.59999990463,2876.0,1669833030068,2876,HRV,HRV_0166,2022-11-30 18:36:06
51,"[{'imgObject': {}, 'id': 'mashed potato', 'src': '/static/foodstim60/mashed potato.jpg', 'key': 'u', 'origWidth': 409, 'origHeight': 409, 'width': 409, 'height': 409, 'widthPercent': 0.45, 'rescaleHeight': False, 'trialN': 51, 'loaded': True, 'loadedTime': 2827.5, 'positionName': 'LEFT', 'positionCoords': [246.68, 179.5], 'bid': 6.15}, {'imgObject': {}, 'id': 'blackbeanswithrice', 'src': '/static/foodstim60/blackbeanswithrice.jpg', 'key': 'i', 'origWidth': 410, 'origHeight': 410, 'width': 410, 'height': 410, 'widthPercent': 0.45, 'rescaleHeight': False, 'trialN': 51, 'loaded': True, 'loadedTime': 2569.399999856949, 'positionName': 'RIGHT', 'positionCoords': [710.32, 179], 'bid': 8.38}]",126800.89999985695,1669833030069,mashed potato,blackbeanswithrice,6.15,8.38,2.2300000000000004,blackbeanswithrice,1458.1000001430511,1458,1458.5,True,i,128768.09999990463,1967.2000000476837,1669833032036,1967,HRV,HRV_0166,2022-11-30 18:36:06
52,"[{'imgObject': {}, 'id': 'cherries', 'src': '/static/foodstim60/cherries.jpg', 'key': 'u', 'origWidth': 410, 'origHeight': 411, 'width': 410, 'height': 411, 'widthPercent': 0.45, 'rescaleHeight': False, 'trialN': 52, 'loaded': True, 'loadedTime': 2733.899999856949, 'positionName': 'LEFT', 'positionCoords': [245.68, 178.5], 'bid': 6.7700000000000005}, {'imgObject': {}, 'id': 'fruitsalad', 'src': '/static/foodstim60/fruitsalad.jpg', 'key': 'i', 'origWidth': 410, 'origHeight': 410, 'width': 410, 'height': 410, 'widthPercent': 0.45, 'rescaleHeight': False, 'trialN': 52, 'loaded': True, 'loadedTime': 2951.199999809265, 'positionName': 'RIGHT', 'positionCoords': [710.32, 179], 'bid': 7.56}]",128768.5,1669833032036,cherries,fruitsalad,6.7700000000000005,7.56,0.7899999999999991,fruitsalad,2355.699999809265,2356,2356.199999809265,True,i,131629.59999990463,2861.0999999046326,1669833034897,2861,HRV,HRV_0166,2022-11-30 18:36:06
53,"[{'imgObject': {}, 'id': 'seaweed', 'src': '/static/foodstim60/seaweed.jpg', 'key': 'u', 'origWidth': 410, 'origHeight': 410, 'width': 410, 'height': 410, 'widthPercent': 0.45, 'rescaleHeight': False, 'trialN': 53, 'loaded': True, 'loadedTime': 2954.899999856949, 'positionName': 'LEFT', 'positionCoords': [245.68, 179], 'bid': 2.36}, {'imgObject': {}, 'id': 'fried eggs', 'src': '/static/foodstim60/fried eggs.jpg', 'key': 'i', 'origWidth': 410, 'origHeight': 410, 'width': 410, 'height': 410, 'widthPercent': 0.45, 'rescaleHeight': False, 'trialN': 53, 'loaded': True, 'loadedTime': 2487.899999856949, 'positionName': 'RIGHT', 'positionCoords': [710.32, 179], 'bid': 0.18}]",131630.09999990463,1669833034898,seaweed,fried eggs,2.36,0.18,-2.1799999999999997,seaweed,1852.7000000476837,1853,1853.2000000476837,True,u,133995.89999985695,2365.7999999523163,1669833037264,2366,HRV,HRV_0166,2022-11-30 18:36:06
54,"[{'imgObject': {}, 'id': 'popsicles', 'src': '/static/foodstim60/popsicles.jpg', 'key': 'u', 'origWidth': 410, 'origHeight': 410, 'width': 410, 'height': 410, 'widthPercent': 0.45, 'rescaleHeight': False, 'trialN': 54, 'loaded': True, 'loadedTime': 3060.199999809265, 'positionName': 'LEFT', 'positionCoords': [245.68, 179], 'bid': 2.97}, {'imgObject': {}, 'id': 'cherries', 'src': '/static/foodstim60/cherries.jpg', 'key': 'i', 'origWidth': 410, 'origHeight': 411, 'width': 410, 'height': 411, 'widthPercent': 0.45, 'rescaleHeight': False, 'trialN': 54, 'loaded': True, 'loadedTime': 2726.7999999523163, 'positionName': 'RIGHT', 'positionCoords': [710.32, 178.5], 'bid': 6.7700000000000005}]",133996.5,1669833037264,popsicles,cherries,2.97,6.7700000000000005,3.8000000000000003,cherries,1599.1999998092651,1600,1599.5,True,i,136110.59999990463,2114.0999999046326,1669833039378,2114,HRV,HRV_0166,2022-11-30 18:36:06
55,"[{'imgObject': {}, 'id': 'fried eggs', 'src': '/static/foodstim60/fried eggs.jpg', 'key': 'u', 'origWidth': 410, 'origHeight': 410, 'width': 410, 'height': 410, 'widthPercent': 0.45, 'rescaleHeight': False, 'trialN': 55, 'loaded': True, 'loadedTime': 2488.0999999046326, 'positionName': 'LEFT', 'positionCoords': [245.68, 179], 'bid': 0.18}, {'imgObject': {}, 'id': 'eggsalad', 'src': '/static/foodstim60/eggsalad.jpg', 'key': 'i', 'origWidth': 410, 'origHeight': 409, 'width': 410, 'height': 409, 'widthPercent': 0.45, 'rescaleHeight': False, 'trialN': 55, 'loaded': True, 'loadedTime': 2610.0999999046326, 'positionName': 'RIGHT', 'positionCoords': [710.32, 179.5], 'bid': 5.3}]",136111.0,1669833039379,fried eggs,eggsalad,0.18,5.3,5.12,eggsalad,1285.0999999046326,1285,1285.3999998569489,True,i,137905.39999985695,1794.3999998569489,1669833041173,1794,HRV,HRV_0166,2022-11-30 18:36:06
56,"[{'imgObject': {}, 'id': 'pear', 'src': '/static/foodstim60/pear.jpg', 'key': 'u', 'origWidth': 411, 'origHeight': 410, 'width': 411, 'height': 410, 'widthPercent': 0.45, 'rescaleHeight': False, 'trialN': 56, 'loaded': True, 'loadedTime': 2906, 'positionName': 'LEFT', 'positionCoords': [244.68, 179], 'bid': 2.8000000000000003}, {'imgObject': {}, 'id': 'seaweed', 'src': '/static/foodstim60/seaweed.jpg', 'key': 'i', 'origWidth': 410, 'origHeight': 410, 'width': 410, 'height': 410, 'widthPercent': 0.45, 'rescaleHeight': False, 'trialN': 56, 'loaded': True, 'loadedTime': 2955.199999809265, 'positionName': 'RIGHT', 'positionCoords': [710.32, 179], 'bid': 2.36}]",137905.5,1669833041173,pear,seaweed,2.8000000000000003,2.36,-0.4400000000000004,pear,2774.5999999046326,2775,2775.0,True,u,141187.39999985695,3281.899999856949,1669833044455,3282,HRV,HRV_0166,2022-11-30 18:36:06
57,"[{'imgObject': {}, 'id': 'kiwi', 'src': '/static/foodstim60/kiwi.jpg', 'key': 'u', 'origWidth': 410, 'origHeight': 410, 'width': 410, 'height': 410, 'widthPercent': 0.45, 'rescaleHeight': False, 'trialN': 57, 'loaded': True, 'loadedTime': 3011.5999999046326, 'positionName': 'LEFT', 'positionCoords': [245.68, 179], 'bid': 5.76}, {'imgObject': {}, 'id': 'rigatoni and sauce', 'src': '/static/foodstim60/rigatoni and sauce.jpg', 'key': 'i', 'origWidth': 410, 'origHeight': 411, 'width': 410, 'height': 411, 'widthPercent': 0.45, 'rescaleHeight': False, 'trialN': 57, 'loaded': True, 'loadedTime': 2626.7999999523163, 'positionName': 'RIGHT', 'positionCoords': [710.32, 178.5], 'bid': 5.08}]",141187.89999985695,1669833044456,kiwi,rigatoni and sauce,5.76,5.08,-0.6799999999999997,kiwi,2179.4000000953674,2180,2180.100000143051,True,u,143876.19999980927,2688.2999999523163,1669833047144,2688,HRV,HRV_0166,2022-11-30 18:36:06
58,"[{'imgObject': {}, 'id': 'luckycharms', 'src': '/static/foodstim60/luckycharms.jpg', 'key': 'u', 'origWidth': 410, 'origHeight': 409, 'width': 410, 'height': 409, 'widthPercent': 0.45, 'rescaleHeight': False, 'trialN': 58, 'loaded': True, 'loadedTime': 2795.5, 'positionName': 'LEFT', 'positionCoords': [245.68, 179.5], 'bid': 1.92}, {'imgObject': {}, 'id': 'edamame', 'src': '/static/foodstim60/edamame.jpg', 'key': 'i', 'origWidth': 409, 'origHeight': 410, 'width': 409, 'height': 410, 'widthPercent': 0.45, 'rescaleHeight': False, 'trialN': 58, 'loaded': True, 'loadedTime': 3013.5, 'positionName': 'RIGHT', 'positionCoords': [710.32, 179], 'bid': 3.69}]",143876.59999990463,1669833047144,luckycharms,edamame,1.92,3.69,1.77,edamame,2501.7000000476837,2503,2502.2000000476837,True,i,146891.29999995232,3014.7000000476837,1669833050159,3015,HRV,HRV_0166,2022-11-30 18:36:06
59,"[{'imgObject': {}, 'id': 'Grapes', 'src': '/static/foodstim60/Grapes.jpg', 'key': 'u', 'origWidth': 411, 'origHeight': 411, 'width': 411, 'height': 411, 'widthPercent': 0.45, 'rescaleHeight': False, 'trialN': 59, 'loaded': True, 'loadedTime': 2718.5999999046326, 'positionName': 'LEFT', 'positionCoords': [244.68, 178.5], 'bid': 6.8100000000000005}, {'imgObject': {}, 'id': 'cherries', 'src': '/static/foodstim60/cherries.jpg', 'key': 'i', 'origWidth': 410, 'origHeight': 411, 'width': 410, 'height': 411, 'widthPercent': 0.45, 'rescaleHeight': False, 'trialN': 59, 'loaded': True, 'loadedTime': 2733.2999999523163, 'positionName': 'RIGHT', 'positionCoords': [710.32, 178.5], 'bid': 6.7700000000000005}]",146891.59999990463,1669833050159,Grapes,cherries,6.8100000000000005,6.7700000000000005,-0.040000000000000036,cherries,2851.5,2852,2852.2000000476837,True,i,150258.79999995232,3367.2000000476837,1669833053527,3368,HRV,HRV_0166,2022-11-30 18:36:06
60,"[{'imgObject': {}, 'id': 'yogurt no spoon', 'src': '/static/foodstim60/yogurt no spoon.jpg', 'key': 'u', 'origWidth': 411, 'origHeight': 410, 'width': 411, 'height': 410, 'widthPercent': 0.45, 'rescaleHeight': False, 'trialN': 60, 'loaded': True, 'loadedTime': 2454.2999999523163, 'positionName': 'LEFT', 'positionCoords': [244.68, 179], 'bid': 6.33}, {'imgObject': {}, 'id': 'raspberries', 'src': '/static/foodstim60/raspberries.jpg', 'key': 'i', 'origWidth': 411, 'origHeight': 411, 'width': 411, 'height': 411, 'widthPercent': 0.45, 'rescaleHeight': False, 'trialN': 60, 'loaded': True, 'loadedTime': 2800, 'positionName': 'RIGHT', 'positionCoords': [710.32, 178.5], 'bid': 6.390000000000001}]",150259.09999990463,1669833053527,yogurt no spoon,raspberries,6.33,6.390000000000001,0.0600000000000005,raspberries,1994.2000000476837,1994,1994.5999999046326,True,i,152761.29999995232,2502.2000000476837,1669833056029,2502,HRV,HRV_0166,2022-11-30 18:36:06
61,"[{'imgObject': {}, 'id': 'burger', 'src': '/static/foodstim60/burger.jpg', 'key': 'u', 'origWidth': 409, 'origHeight': 409, 'width': 409, 'height': 409, 'widthPercent': 0.45, 'rescaleHeight': False, 'trialN': 61, 'loaded': True, 'loadedTime': 2667.899999856949, 'positionName': 'LEFT', 'positionCoords': [246.68, 179.5], 'bid': 0.41}, {'imgObject': {}, 'id': 'ice cream sundae 002', 'src': '/static/foodstim60/ice cream sundae 002.jpg', 'key': 'i', 'origWidth': 409, 'origHeight': 409, 'width': 409, 'height': 409, 'widthPercent': 0.45, 'rescaleHeight': False, 'trialN': 61, 'loaded': True, 'loadedTime': 3013.7999999523163, 'positionName': 'RIGHT', 'positionCoords': [710.32, 179.5], 'bid': 5.73}]",152761.79999995232,1669833056030,burger,ice cream sundae 002,0.41,5.73,5.32,ice cream sundae 002,1607.2999999523163,1607,1607.7000000476837,True,i,154890.5,2128.7000000476837,1669833058158,2128,HRV,HRV_0166,2022-11-30 18:36:06
62,"[{'imgObject': {}, 'id': 'corn cob', 'src': '/static/foodstim60/corn cob.jpg', 'key': 'u', 'origWidth': 411, 'origHeight': 411, 'width': 411, 'height': 411, 'widthPercent': 0.45, 'rescaleHeight': False, 'trialN': 62, 'loaded': True, 'loadedTime': 2696.699999809265, 'positionName': 'LEFT', 'positionCoords': [244.68, 178.5], 'bid': 8.55}, {'imgObject': {}, 'id': 'avocado', 'src': '/static/foodstim60/avocado.jpg', 'key': 'i', 'origWidth': 409, 'origHeight': 409, 'width': 409, 'height': 409, 'widthPercent': 0.45, 'rescaleHeight': False, 'trialN': 62, 'loaded': True, 'loadedTime': 2982, 'positionName': 'RIGHT', 'positionCoords': [710.32, 179.5], 'bid': 6.15}]",154890.89999985695,1669833058159,corn cob,avocado,8.55,6.15,-2.4000000000000004,corn cob,2177.2999999523163,2177,2177.7000000476837,True,u,157588.19999980927,2697.2999999523163,1669833060856,2697,HRV,HRV_0166,2022-11-30 18:36:06
63,"[{'imgObject': {}, 'id': 'turkeysandwich', 'src': '/static/foodstim60/turkeysandwich.jpg', 'key': 'u', 'origWidth': 409, 'origHeight': 409, 'width': 409, 'height': 409, 'widthPercent': 0.45, 'rescaleHeight': False, 'trialN': 63, 'loaded': True, 'loadedTime': 2531.699999809265, 'positionName': 'LEFT', 'positionCoords': [246.68, 179.5], 'bid': 1.72}, {'imgObject': {}, 'id': 'luckycharms', 'src': '/static/foodstim60/luckycharms.jpg', 'key': 'i', 'origWidth': 410, 'origHeight': 409, 'width': 410, 'height': 409, 'widthPercent': 0.45, 'rescaleHeight': False, 'trialN': 63, 'loaded': True, 'loadedTime': 2768.699999809265, 'positionName': 'RIGHT', 'positionCoords': [710.32, 179.5], 'bid': 1.92}]",157588.5,1669833060856,turkeysandwich,luckycharms,1.72,1.92,0.19999999999999996,luckycharms,1730.8999998569489,1732,1731.1999998092651,True,i,159833.59999990463,2245.0999999046326,1669833063101,2245,HRV,HRV_0166,2022-11-30 18:36:06
64,"[{'imgObject': {}, 'id': 'cheerios', 'src': '/static/foodstim60/cheerios.jpg', 'key': 'u', 'origWidth': 409, 'origHeight': 410, 'width': 409, 'height': 410, 'widthPercent': 0.45, 'rescaleHeight': False, 'trialN': 64, 'loaded': True, 'loadedTime': 2830.5999999046326, 'positionName': 'LEFT', 'positionCoords': [246.68, 179], 'bid': 4.61}, {'imgObject': {}, 'id': 'eggsalad', 'src': '/static/foodstim60/eggsalad.jpg', 'key': 'i', 'origWidth': 410, 'origHeight': 409, 'width': 410, 'height': 409, 'widthPercent': 0.45, 'rescaleHeight': False, 'trialN': 64, 'loaded': True, 'loadedTime': 2594.5, 'positionName': 'RIGHT', 'positionCoords': [710.32, 179.5], 'bid': 5.3}]",159834.09999990463,1669833063102,cheerios,eggsalad,4.61,5.3,0.6899999999999995,eggsalad,2463.7000000476837,2464,2464.2000000476837,True,i,162814.69999980927,2980.5999999046326,1669833066082,2980,HRV,HRV_0166,2022-11-30 18:36:06
65,"[{'imgObject': {}, 'id': 'seaweed', 'src': '/static/foodstim60/seaweed.jpg', 'key': 'u', 'origWidth': 410, 'origHeight': 410, 'width': 410, 'height': 410, 'widthPercent': 0.45, 'rescaleHeight': False, 'trialN': 65, 'loaded': True, 'loadedTime': 2953.2999999523163, 'positionName': 'LEFT', 'positionCoords': [245.68, 179], 'bid': 2.36}, {'imgObject': {}, 'id': 'popsicles', 'src': '/static/foodstim60/popsicles.jpg', 'key': 'i', 'origWidth': 410, 'origHeight': 410, 'width': 410, 'height': 410, 'widthPercent': 0.45, 'rescaleHeight': False, 'trialN': 65, 'loaded': True, 'loadedTime': 3060.5, 'positionName': 'RIGHT', 'positionCoords': [710.32, 179], 'bid': 2.97}]",162815.09999990463,1669833066083,seaweed,popsicles,2.36,2.97,0.6100000000000003,seaweed,1877.5,1878,1877.9000000953674,True,u,165198.69999980927,2383.5999999046326,1669833068466,2383,HRV,HRV_0166,2022-11-30 18:36:06
66,"[{'imgObject': {}, 'id': 'baked potato', 'src': '/static/foodstim60/baked potato.jpg', 'key': 'u', 'origWidth': 409, 'origHeight': 410, 'width': 409, 'height': 410, 'widthPercent': 0.45, 'rescaleHeight': False, 'trialN': 66, 'loaded': True, 'loadedTime': 2688.2999999523163, 'positionName': 'LEFT', 'positionCoords': [246.68, 179], 'bid': 6.93}, {'imgObject': {}, 'id': 'granola w milk', 'src': '/static/foodstim60/granola w milk.jpg', 'key': 'i', 'origWidth': 410, 'origHeight': 410, 'width': 410, 'height': 410, 'widthPercent': 0.45, 'rescaleHeight': False, 'trialN': 66, 'loaded': True, 'loadedTime': 3018.399999856949, 'positionName': 'RIGHT', 'positionCoords': [710.32, 179], 'bid': 5.7700000000000005}]",165199.09999990463,1669833068467,baked potato,granola w milk,6.93,5.7700000000000005,-1.1599999999999993,baked potato,2541.7000000476837,2542,2542.0999999046326,True,u,168260.0,3060.9000000953674,1669833071528,3061,HRV,HRV_0166,2022-11-30 18:36:06
67,"[{'imgObject': {}, 'id': 'popsicles', 'src': '/static/foodstim60/popsicles.jpg', 'key': 'u', 'origWidth': 410, 'origHeight': 410, 'width': 410, 'height': 410, 'widthPercent': 0.45, 'rescaleHeight': False, 'trialN': 67, 'loaded': True, 'loadedTime': 3060.2999999523163, 'positionName': 'LEFT', 'positionCoords': [245.68, 179], 'bid': 2.97}, {'imgObject': {}, 'id': 'lox', 'src': '/static/foodstim60/lox.jpg', 'key': 'i', 'origWidth': 410, 'origHeight': 411, 'width': 410, 'height': 411, 'widthPercent': 0.45, 'rescaleHeight': False, 'trialN': 67, 'loaded': True, 'loadedTime': 2839.2999999523163, 'positionName': 'RIGHT', 'positionCoords': [710.32, 178.5], 'bid': 0.76}]",168260.39999985695,1669833071528,popsicles,lox,2.97,0.76,-2.21,popsicles,2725.7999999523163,2726,2726.2000000476837,True,u,171505.5,3245.100000143051,1669833074774,3246,HRV,HRV_0166,2022-11-30 18:36:06
68,"[{'imgObject': {}, 'id': 'cheerios', 'src': '/static/foodstim60/cheerios.jpg', 'key': 'u', 'origWidth': 409, 'origHeight': 410, 'width': 409, 'height': 410, 'widthPercent': 0.45, 'rescaleHeight': False, 'trialN': 68, 'loaded': True, 'loadedTime': 2836, 'positionName': 'LEFT', 'positionCoords': [246.68, 179], 'bid': 4.61}, {'imgObject': {}, 'id': 'rigatoni', 'src': '/static/foodstim60/rigatoni.jpg', 'key': 'i', 'origWidth': 411, 'origHeight': 411, 'width': 411, 'height': 411, 'widthPercent': 0.45, 'rescaleHeight': False, 'trialN': 68, 'loaded': True, 'loadedTime': 3021, 'positionName': 'RIGHT', 'positionCoords': [710.32, 178.5], 'bid': 4.3500000000000005}]",171505.89999985695,1669833074774,cheerios,rigatoni,4.61,4.3500000000000005,-0.2599999999999998,rigatoni,2854.5,2855,2854.7999999523163,True,i,174868.69999980927,3362.7999999523163,1669833078137,3363,HRV,HRV_0166,2022-11-30 18:36:06
69,"[{'imgObject': {}, 'id': 'popsicles', 'src': '/static/foodstim60/popsicles.jpg', 'key': 'u', 'origWidth': 410, 'origHeight': 410, 'width': 410, 'height': 410, 'widthPercent': 0.45, 'rescaleHeight': False, 'trialN': 69, 'loaded': True, 'loadedTime': 3059.0999999046326, 'positionName': 'LEFT', 'positionCoords': [245.68, 179], 'bid': 2.97}, {'imgObject': {}, 'id': 'chickenfingers', 'src': '/static/foodstim60/chickenfingers.jpg', 'key': 'i', 'origWidth': 410, 'origHeight': 410, 'width': 410, 'height': 410, 'widthPercent': 0.45, 'rescaleHeight': False, 'trialN': 69, 'loaded': True, 'loadedTime': 2804.899999856949, 'positionName': 'RIGHT', 'positionCoords': [710.32, 179], 'bid': 0.38}]",174869.0,1669833078137,popsicles,chickenfingers,2.97,0.38,-2.5900000000000003,popsicles,2188.699999809265,2190,2189.199999809265,True,u,177566.89999985695,2697.899999856949,1669833080835,2698,HRV,HRV_0166,2022-11-30 18:36:06
70,"[{'imgObject': {}, 'id': 'fruitsalad', 'src': '/static/foodstim60/fruitsalad.jpg', 'key': 'u', 'origWidth': 410, 'origHeight': 410, 'width': 410, 'height': 410, 'widthPercent': 0.45, 'rescaleHeight': False, 'trialN': 70, 'loaded': True, 'loadedTime': 2952.699999809265, 'positionName': 'LEFT', 'positionCoords': [245.68, 179], 'bid': 7.56}, {'imgObject': {}, 'id': 'rigatoni', 'src': '/static/foodstim60/rigatoni.jpg', 'key': 'i', 'origWidth': 411, 'origHeight': 411, 'width': 411, 'height': 411, 'widthPercent': 0.45, 'rescaleHeight': False, 'trialN': 70, 'loaded': True, 'loadedTime': 3020.899999856949, 'positionName': 'RIGHT', 'positionCoords': [710.32, 178.5], 'bid': 4.3500000000000005}]",177567.29999995232,1669833080836,fruitsalad,rigatoni,7.56,4.3500000000000005,-3.209999999999999,fruitsalad,1857.8999998569489,1858,1858.3999998569489,True,u,179934.79999995232,2367.5,1669833083203,2367,HRV,HRV_0166,2022-11-30 18:36:06
71,"[{'imgObject': {}, 'id': 'raspberries', 'src': '/static/foodstim60/raspberries.jpg', 'key': 'u', 'origWidth': 411, 'origHeight': 411, 'width': 411, 'height': 411, 'widthPercent': 0.45, 'rescaleHeight': False, 'trialN': 71, 'loaded': True, 'loadedTime': 2804.5999999046326, 'positionName': 'LEFT', 'positionCoords': [244.68, 178.5], 'bid': 6.390000000000001}, {'imgObject': {}, 'id': 'eggsalad', 'src': '/static/foodstim60/eggsalad.jpg', 'key': 'i', 'origWidth': 410, 'origHeight': 409, 'width': 410, 'height': 409, 'widthPercent': 0.45, 'rescaleHeight': False, 'trialN': 71, 'loaded': True, 'loadedTime': 2599.699999809265, 'positionName': 'RIGHT', 'positionCoords': [710.32, 179.5], 'bid': 5.3}]",179935.29999995232,1669833083204,raspberries,eggsalad,6.390000000000001,5.3,-1.0900000000000007,raspberries,1984.5,1985,1985.0,True,u,182436.19999980927,2500.899999856949,1669833085705,2501,HRV,HRV_0166,2022-11-30 18:36:06
72,"[{'imgObject': {}, 'id': 'bagel and cc', 'src': '/static/foodstim60/bagel and cc.jpg', 'key': 'u', 'origWidth': 410, 'origHeight': 410, 'width': 410, 'height': 410, 'widthPercent': 0.45, 'rescaleHeight': False, 'trialN': 72, 'loaded': True, 'loadedTime': 2898.2999999523163, 'positionName': 'LEFT', 'positionCoords': [245.68, 179], 'bid': 4.86}, {'imgObject': {}, 'id': 'orange slices', 'src': '/static/foodstim60/orange slices.jpg', 'key': 'i', 'origWidth': 409, 'origHeight': 410, 'width': 409, 'height': 410, 'widthPercent': 0.45, 'rescaleHeight': False, 'trialN': 72, 'loaded': True, 'loadedTime': 2866.2999999523163, 'positionName': 'RIGHT', 'positionCoords': [710.32, 179], 'bid': 5.57}]",182436.5,1669833085705,bagel and cc,orange slices,4.86,5.57,0.71,orange slices,2543.2999999523163,2544,2543.5999999046326,True,i,185492.0,3055.5,1669833088760,3055,HRV,HRV_0166,2022-11-30 18:36:06
73,"[{'imgObject': {}, 'id': 'froot loops w milk', 'src': '/static/foodstim60/froot loops w milk.jpg', 'key': 'u', 'origWidth': 410, 'origHeight': 410, 'width': 410, 'height': 410, 'widthPercent': 0.45, 'rescaleHeight': False, 'trialN': 73, 'loaded': True, 'loadedTime': 2647.699999809265, 'positionName': 'LEFT', 'positionCoords': [245.68, 179], 'bid': 1.01}, {'imgObject': {}, 'id': 'bagel and cc', 'src': '/static/foodstim60/bagel and cc.jpg', 'key': 'i', 'origWidth': 410, 'origHeight': 410, 'width': 410, 'height': 410, 'widthPercent': 0.45, 'rescaleHeight': False, 'trialN': 73, 'loaded': True, 'loadedTime': 2898.199999809265, 'positionName': 'RIGHT', 'positionCoords': [710.32, 179], 'bid': 4.86}]",185492.5,1669833088761,froot loops w milk,bagel and cc,1.01,4.86,3.8500000000000005,bagel and cc,1918.0999999046326,1919,1918.5999999046326,True,i,187921.39999985695,2428.899999856949,1669833091190,2429,HRV,HRV_0166,2022-11-30 18:36:06
74,"[{'imgObject': {}, 'id': 'ice cream sundae 002', 'src': '/static/foodstim60/ice cream sundae 002.jpg', 'key': 'u', 'origWidth': 409, 'origHeight': 409, 'width': 409, 'height': 409, 'widthPercent': 0.45, 'rescaleHeight': False, 'trialN': 74, 'loaded': True, 'loadedTime': 3015.899999856949, 'positionName': 'LEFT', 'positionCoords': [246.68, 179.5], 'bid': 5.73}, {'imgObject': {}, 'id': 'kiwi', 'src': '/static/foodstim60/kiwi.jpg', 'key': 'i', 'origWidth': 410, 'origHeight': 410, 'width': 410, 'height': 410, 'widthPercent': 0.45, 'rescaleHeight': False, 'trialN': 74, 'loaded': True, 'loadedTime': 3009.899999856949, 'positionName': 'RIGHT', 'positionCoords': [710.32, 179], 'bid': 5.76}]",187921.69999980927,1669833091190,ice cream sundae 002,kiwi,5.73,5.76,0.02999999999999936,kiwi,1411.2000000476837,1412,1411.7000000476837,True,i,189839.0,1917.3000001907349,1669833093107,1917,HRV,HRV_0166,2022-11-30 18:36:06
75,"[{'imgObject': {}, 'id': 'lox', 'src': '/static/foodstim60/lox.jpg', 'key': 'u', 'origWidth': 410, 'origHeight': 411, 'width': 410, 'height': 411, 'widthPercent': 0.45, 'rescaleHeight': False, 'trialN': 75, 'loaded': True, 'loadedTime': 2839.7999999523163, 'positionName': 'LEFT', 'positionCoords': [245.68, 178.5], 'bid': 0.76}, {'imgObject': {}, 'id': 'bagel plain', 'src': '/static/foodstim60/bagel plain.jpg', 'key': 'i', 'origWidth': 410, 'origHeight': 410, 'width': 410, 'height': 410, 'widthPercent': 0.45, 'rescaleHeight': False, 'trialN': 75, 'loaded': True, 'loadedTime': 2895, 'positionName': 'RIGHT', 'positionCoords': [710.32, 179], 'bid': 4.04}]",189839.69999980927,1669833093108,lox,bagel plain,0.76,4.04,3.2800000000000002,bagel plain,1767.6000001430511,1768,1767.9000000953674,True,i,192121.5,2281.800000190735,1669833095390,2282,HRV,HRV_0166,2022-11-30 18:36:06
76,"[{'imgObject': {}, 'id': 'salmon', 'src': '/static/foodstim60/salmon.jpg', 'key': 'u', 'origWidth': 410, 'origHeight': 409, 'width': 410, 'height': 409, 'widthPercent': 0.45, 'rescaleHeight': False, 'trialN': 76, 'loaded': True, 'loadedTime': 2818.5, 'positionName': 'LEFT', 'positionCoords': [245.68, 179.5], 'bid': 0.8200000000000001}, {'imgObject': {}, 'id': 'chicken nuggets2', 'src': '/static/foodstim60/chicken nuggets2.jpg', 'key': 'i', 'origWidth': 410, 'origHeight': 409, 'width': 410, 'height': 409, 'widthPercent': 0.45, 'rescaleHeight': False, 'trialN': 76, 'loaded': True, 'loadedTime': 2516.0999999046326, 'positionName': 'RIGHT', 'positionCoords': [710.32, 179.5], 'bid': 0.92}]",192122.09999990463,1669833095391,salmon,chicken nuggets2,0.8200000000000001,0.92,0.09999999999999998,salmon,1960.0,1960,1960.5,True,u,194600.79999995232,2478.7000000476837,1669833097869,2478,HRV,HRV_0166,2022-11-30 18:36:06
77,"[{'imgObject': {}, 'id': 'sweetpotato', 'src': '/static/foodstim60/sweetpotato.jpg', 'key': 'u', 'origWidth': 410, 'origHeight': 410, 'width': 410, 'height': 410, 'widthPercent': 0.45, 'rescaleHeight': False, 'trialN': 77, 'loaded': True, 'loadedTime': 2932, 'positionName': 'LEFT', 'positionCoords': [245.68, 179], 'bid': 7.0200000000000005}, {'imgObject': {}, 'id': 'avocado', 'src': '/static/foodstim60/avocado.jpg', 'key': 'i', 'origWidth': 409, 'origHeight': 409, 'width': 409, 'height': 409, 'widthPercent': 0.45, 'rescaleHeight': False, 'trialN': 77, 'loaded': True, 'loadedTime': 2959.699999809265, 'positionName': 'RIGHT', 'positionCoords': [710.32, 179.5], 'bid': 6.15}]",194601.09999990463,1669833097870,sweetpotato,avocado,7.0200000000000005,6.15,-0.8700000000000001,sweetpotato,2522.2999999523163,2522,2522.5999999046326,True,u,197645.5,3044.4000000953674,1669833100914,3044,HRV,HRV_0166,2022-11-30 18:36:06
78,"[{'imgObject': {}, 'id': 'salmon', 'src': '/static/foodstim60/salmon.jpg', 'key': 'u', 'origWidth': 410, 'origHeight': 409, 'width': 410, 'height': 409, 'widthPercent': 0.45, 'rescaleHeight': False, 'trialN': 78, 'loaded': True, 'loadedTime': 2817.399999856949, 'positionName': 'LEFT', 'positionCoords': [245.68, 179.5], 'bid': 0.8200000000000001}, {'imgObject': {}, 'id': 'veggieswithdip', 'src': '/static/foodstim60/veggieswithdip.jpg', 'key': 'i', 'origWidth': 409, 'origHeight': 409, 'width': 409, 'height': 409, 'widthPercent': 0.45, 'rescaleHeight': False, 'trialN': 78, 'loaded': True, 'loadedTime': 2700.199999809265, 'positionName': 'RIGHT', 'positionCoords': [710.32, 179.5], 'bid': 6.08}]",197645.89999985695,1669833100914,salmon,veggieswithdip,0.8200000000000001,6.08,5.26,veggieswithdip,1073.7999999523163,1075,1074.2000000476837,True,i,199226.79999995232,1580.9000000953674,1669833102495,1581,HRV,HRV_0166,2022-11-30 18:36:06
79,"[{'imgObject': {}, 'id': 'tacos', 'src': '/static/foodstim60/tacos.jpg', 'key': 'u', 'origWidth': 411, 'origHeight': 411, 'width': 411, 'height': 411, 'widthPercent': 0.45, 'rescaleHeight': False, 'trialN': 79, 'loaded': True, 'loadedTime': 2612, 'positionName': 'LEFT', 'positionCoords': [244.68, 178.5], 'bid': 5.24}, {'imgObject': {}, 'id': 'rigatoni', 'src': '/static/foodstim60/rigatoni.jpg', 'key': 'i', 'origWidth': 411, 'origHeight': 411, 'width': 411, 'height': 411, 'widthPercent': 0.45, 'rescaleHeight': False, 'trialN': 79, 'loaded': True, 'loadedTime': 3021.0999999046326, 'positionName': 'RIGHT', 'positionCoords': [710.32, 178.5], 'bid': 4.3500000000000005}]",199227.19999980927,1669833102496,tacos,rigatoni,5.24,4.3500000000000005,-0.8899999999999997,tacos,2078.5,2079,2079.2000000476837,True,u,201827.89999985695,2600.7000000476837,1669833105096,2600,HRV,HRV_0166,2022-11-30 18:36:06
80,"[{'imgObject': {}, 'id': 'edamame', 'src': '/static/foodstim60/edamame.jpg', 'key': 'u', 'origWidth': 409, 'origHeight': 410, 'width': 409, 'height': 410, 'widthPercent': 0.45, 'rescaleHeight': False, 'trialN': 80, 'loaded': True, 'loadedTime': 3013.2999999523163, 'positionName': 'LEFT', 'positionCoords': [246.68, 179], 'bid': 3.69}, {'imgObject': {}, 'id': 'cocktailshrimp', 'src': '/static/foodstim60/cocktailshrimp.jpg', 'key': 'i', 'origWidth': 410, 'origHeight': 410, 'width': 410, 'height': 410, 'widthPercent': 0.45, 'rescaleHeight': False, 'trialN': 80, 'loaded': True, 'loadedTime': 2765.199999809265, 'positionName': 'RIGHT', 'positionCoords': [710.32, 179], 'bid': 0.51}]",201828.5,1669833105097,edamame,cocktailshrimp,3.69,0.51,-3.1799999999999997,edamame,1528.0,1528,1528.3999998569489,True,u,203875.5,2047.0,1669833107144,2047,HRV,HRV_0166,2022-11-30 18:36:06
81,"[{'imgObject': {}, 'id': 'edamame', 'src': '/static/foodstim60/edamame.jpg', 'key': 'u', 'origWidth': 409, 'origHeight': 410, 'width': 409, 'height': 410, 'widthPercent': 0.45, 'rescaleHeight': False, 'trialN': 81, 'loaded': True, 'loadedTime': 3013.699999809265, 'positionName': 'LEFT', 'positionCoords': [246.68, 179], 'bid': 3.69}, {'imgObject': {}, 'id': 'sushi w_condiments', 'src': '/static/foodstim60/sushi w_condiments.jpg', 'key': 'i', 'origWidth': 410, 'origHeight': 410, 'width': 410, 'height': 410, 'widthPercent': 0.45, 'rescaleHeight': False, 'trialN': 81, 'loaded': True, 'loadedTime': 2538, 'positionName': 'RIGHT', 'positionCoords': [710.32, 179], 'bid': 3.62}]",203875.69999980927,1669833107144,edamame,sushi w_condiments,3.69,3.62,-0.06999999999999984,edamame,1721.9000000953674,1722,1722.3000001907349,True,u,206109.19999980927,2233.5,1669833109378,2234,HRV,HRV_0166,2022-11-30 18:36:06
82,"[{'imgObject': {}, 'id': 'veggieswithdip', 'src': '/static/foodstim60/veggieswithdip.jpg', 'key': 'u', 'origWidth': 409, 'origHeight': 409, 'width': 409, 'height': 409, 'widthPercent': 0.45, 'rescaleHeight': False, 'trialN': 82, 'loaded': True, 'loadedTime': 2707.699999809265, 'positionName': 'LEFT', 'positionCoords': [246.68, 179.5], 'bid': 6.08}, {'imgObject': {}, 'id': 'rigatoni and sauce', 'src': '/static/foodstim60/rigatoni and sauce.jpg', 'key': 'i', 'origWidth': 410, 'origHeight': 411, 'width': 410, 'height': 411, 'widthPercent': 0.45, 'rescaleHeight': False, 'trialN': 82, 'loaded': True, 'loadedTime': 2619.5, 'positionName': 'RIGHT', 'positionCoords': [710.32, 178.5], 'bid': 5.08}]",206109.5,1669833109378,veggieswithdip,rigatoni and sauce,6.08,5.08,-1.0,veggieswithdip,1513.6999998092651,1514,1514.0,True,u,208139.89999985695,2030.3999998569489,1669833111408,2030,HRV,HRV_0166,2022-11-30 18:36:06
83,"[{'imgObject': {}, 'id': 'sushi w_condiments', 'src': '/static/foodstim60/sushi w_condiments.jpg', 'key': 'u', 'origWidth': 410, 'origHeight': 410, 'width': 410, 'height': 410, 'widthPercent': 0.45, 'rescaleHeight': False, 'trialN': 83, 'loaded': True, 'loadedTime': 2535.7999999523163, 'positionName': 'LEFT', 'positionCoords': [245.68, 179], 'bid': 3.62}, {'imgObject': {}, 'id': 'apple slices', 'src': '/static/foodstim60/apple slices.jpg', 'key': 'i', 'origWidth': 409, 'origHeight': 410, 'width': 409, 'height': 410, 'widthPercent': 0.45, 'rescaleHeight': False, 'trialN': 83, 'loaded': True, 'loadedTime': 2982.5999999046326, 'positionName': 'RIGHT', 'positionCoords': [710.32, 179], 'bid': 3.74}]",208140.29999995232,1669833111409,sushi w_condiments,apple slices,3.62,3.74,0.1200000000000001,apple slices,1290.8999998569489,1291,1291.3999998569489,True,i,209936.5,1796.2000000476837,1669833113205,1796,HRV,HRV_0166,2022-11-30 18:36:06
84,"[{'imgObject': {}, 'id': 'sweetpotato', 'src': '/static/foodstim60/sweetpotato.jpg', 'key': 'u', 'origWidth': 410, 'origHeight': 410, 'width': 410, 'height': 410, 'widthPercent': 0.45, 'rescaleHeight': False, 'trialN': 84, 'loaded': True, 'loadedTime': 2932.399999856949, 'positionName': 'LEFT', 'positionCoords': [245.68, 179], 'bid': 7.0200000000000005}, {'imgObject': {}, 'id': 'roastedpotatoes', 'src': '/static/foodstim60/roastedpotatoes.jpg', 'key': 'i', 'origWidth': 409, 'origHeight': 410, 'width': 409, 'height': 410, 'widthPercent': 0.45, 'rescaleHeight': False, 'trialN': 84, 'loaded': True, 'loadedTime': 3022.5999999046326, 'positionName': 'RIGHT', 'positionCoords': [710.32, 179], 'bid': 5.87}]",209936.89999985695,1669833113205,sweetpotato,roastedpotatoes,7.0200000000000005,5.87,-1.1500000000000004,sweetpotato,1396.9000000953674,1398,1397.2999999523163,True,u,211849.59999990463,1912.7000000476837,1669833115118,1913,HRV,HRV_0166,2022-11-30 18:36:06
85,"[{'imgObject': {}, 'id': 'mango', 'src': '/static/foodstim60/mango.jpg', 'key': 'u', 'origWidth': 411, 'origHeight': 411, 'width': 411, 'height': 411, 'widthPercent': 0.45, 'rescaleHeight': False, 'trialN': 85, 'loaded': True, 'loadedTime': 3048, 'positionName': 'LEFT', 'positionCoords': [244.68, 178.5], 'bid': 7.21}, {'imgObject': {}, 'id': 'olives', 'src': '/static/foodstim60/olives.jpg', 'key': 'i', 'origWidth': 410, 'origHeight': 410, 'width': 410, 'height': 410, 'widthPercent': 0.45, 'rescaleHeight': False, 'trialN': 85, 'loaded': True, 'loadedTime': 2395, 'positionName': 'RIGHT', 'positionCoords': [710.32, 179], 'bid': 5.95}]",211850.09999990463,1669833115119,mango,olives,7.21,5.95,-1.2599999999999998,olives,2782.2000000476837,2782,2782.5,True,i,215149.39999985695,3299.2999999523163,1669833118418,3299,HRV,HRV_0166,2022-11-30 18:36:06
86,"[{'imgObject': {}, 'id': 'raspberries', 'src': '/static/foodstim60/raspberries.jpg', 'key': 'u', 'origWidth': 411, 'origHeight': 411, 'width': 411, 'height': 411, 'widthPercent': 0.45, 'rescaleHeight': False, 'trialN': 86, 'loaded': True, 'loadedTime': 2804.7999999523163, 'positionName': 'LEFT', 'positionCoords': [244.68, 178.5], 'bid': 6.390000000000001}, {'imgObject': {}, 'id': 'blackbeanswithrice', 'src': '/static/foodstim60/blackbeanswithrice.jpg', 'key': 'i', 'origWidth': 410, 'origHeight': 410, 'width': 410, 'height': 410, 'widthPercent': 0.45, 'rescaleHeight': False, 'trialN': 86, 'loaded': True, 'loadedTime': 2548.399999856949, 'positionName': 'RIGHT', 'positionCoords': [710.32, 179], 'bid': 8.38}]",215149.79999995232,1669833118418,raspberries,blackbeanswithrice,6.390000000000001,8.38,1.9900000000000002,blackbeanswithrice,2313.7000000476837,2314,2314.0,True,i,217976.79999995232,2827.0,1669833121245,2827,HRV,HRV_0166,2022-11-30 18:36:06
87,"[{'imgObject': {}, 'id': 'eggsalad', 'src': '/static/foodstim60/eggsalad.jpg', 'key': 'u', 'origWidth': 410, 'origHeight': 409, 'width': 410, 'height': 409, 'widthPercent': 0.45, 'rescaleHeight': False, 'trialN': 87, 'loaded': True, 'loadedTime': 2597.5999999046326, 'positionName': 'LEFT', 'positionCoords': [245.68, 179.5], 'bid': 5.3}, {'imgObject': {}, 'id': 'edamame', 'src': '/static/foodstim60/edamame.jpg', 'key': 'i', 'origWidth': 409, 'origHeight': 410, 'width': 409, 'height': 410, 'widthPercent': 0.45, 'rescaleHeight': False, 'trialN': 87, 'loaded': True, 'loadedTime': 3013.699999809265, 'positionName': 'RIGHT', 'positionCoords': [710.32, 179], 'bid': 3.69}]",217977.29999995232,1669833121246,eggsalad,edamame,5.3,3.69,-1.6099999999999999,eggsalad,2353.2000000476837,2353,2353.7000000476837,True,u,220841.59999990463,2864.2999999523163,1669833124110,2864,HRV,HRV_0166,2022-11-30 18:36:06
88,"[{'imgObject': {}, 'id': 'luckycharms', 'src': '/static/foodstim60/luckycharms.jpg', 'key': 'u', 'origWidth': 410, 'origHeight': 409, 'width': 410, 'height': 409, 'widthPercent': 0.45, 'rescaleHeight': False, 'trialN': 88, 'loaded': True, 'loadedTime': 2791, 'positionName': 'LEFT', 'positionCoords': [245.68, 179.5], 'bid': 1.92}, {'imgObject': {}, 'id': 'eggs', 'src': '/static/foodstim60/eggs.jpg', 'key': 'i', 'origWidth': 409, 'origHeight': 409, 'width': 409, 'height': 409, 'widthPercent': 0.45, 'rescaleHeight': False, 'trialN': 88, 'loaded': True, 'loadedTime': 2896.699999809265, 'positionName': 'RIGHT', 'positionCoords': [710.32, 179.5], 'bid': 0}]",220842.19999980927,1669833124111,luckycharms,eggs,1.92,0.0,-1.92,luckycharms,1804.2000000476837,1804,1804.6000001430511,True,u,223154.09999990463,2311.9000000953674,1669833126423,2312,HRV,HRV_0166,2022-11-30 18:36:06
89,"[{'imgObject': {}, 'id': 'cherry tomato', 'src': '/static/foodstim60/cherry tomato.jpg', 'key': 'u', 'origWidth': 410, 'origHeight': 410, 'width': 410, 'height': 410, 'widthPercent': 0.45, 'rescaleHeight': False, 'trialN': 89, 'loaded': True, 'loadedTime': 2923.2999999523163, 'positionName': 'LEFT', 'positionCoords': [245.68, 179], 'bid': 8.08}, {'imgObject': {}, 'id': 'strawberries', 'src': '/static/foodstim60/strawberries.jpg', 'key': 'i', 'origWidth': 410, 'origHeight': 410, 'width': 410, 'height': 410, 'widthPercent': 0.45, 'rescaleHeight': False, 'trialN': 89, 'loaded': True, 'loadedTime': 2767.2999999523163, 'positionName': 'RIGHT', 'positionCoords': [710.32, 179], 'bid': 6.36}]",223154.39999985695,1669833126423,cherry tomato,strawberries,8.08,6.36,-1.7199999999999998,cherry tomato,2503.4000000953674,2504,2504.2999999523163,True,u,226169.79999995232,3015.4000000953674,1669833129438,3015,HRV,HRV_0166,2022-11-30 18:36:06
90,"[{'imgObject': {}, 'id': 'mango', 'src': '/static/foodstim60/mango.jpg', 'key': 'u', 'origWidth': 411, 'origHeight': 411, 'width': 411, 'height': 411, 'widthPercent': 0.45, 'rescaleHeight': False, 'trialN': 90, 'loaded': True, 'loadedTime': 3024.699999809265, 'positionName': 'LEFT', 'positionCoords': [244.68, 178.5], 'bid': 7.21}, {'imgObject': {}, 'id': 'cantaloupe', 'src': '/static/foodstim60/cantaloupe.jpg', 'key': 'i', 'origWidth': 409, 'origHeight': 409, 'width': 409, 'height': 409, 'widthPercent': 0.45, 'rescaleHeight': False, 'trialN': 90, 'loaded': True, 'loadedTime': 3052.899999856949, 'positionName': 'RIGHT', 'positionCoords': [710.32, 179.5], 'bid': 6.2}]",231630.89999985695,1669833134899,mango,cantaloupe,7.21,6.2,-1.0099999999999998,mango,1843.2999999523163,1844,1843.9000000953674,True,u,233996.29999995232,2365.4000000953674,1669833137265,2366,HRV,HRV_0166,2022-11-30 18:36:06
91,"[{'imgObject': {}, 'id': 'corn cob', 'src': '/static/foodstim60/corn cob.jpg', 'key': 'u', 'origWidth': 411, 'origHeight': 411, 'width': 411, 'height': 411, 'widthPercent': 0.45, 'rescaleHeight': False, 'trialN': 91, 'loaded': True, 'loadedTime': 2696.399999856949, 'positionName': 'LEFT', 'positionCoords': [244.68, 178.5], 'bid': 8.55}, {'imgObject': {}, 'id': 'blackbeanswithrice', 'src': '/static/foodstim60/blackbeanswithrice.jpg', 'key': 'i', 'origWidth': 410, 'origHeight': 410, 'width': 410, 'height': 410, 'widthPercent': 0.45, 'rescaleHeight': False, 'trialN': 91, 'loaded': True, 'loadedTime': 2550.0999999046326, 'positionName': 'RIGHT', 'positionCoords': [710.32, 179], 'bid': 8.38}]",233996.59999990463,1669833137265,corn cob,blackbeanswithrice,8.55,8.38,-0.16999999999999993,corn cob,1861.0999999046326,1862,1861.5,True,u,236367.09999990463,2370.5,1669833139636,2371,HRV,HRV_0166,2022-11-30 18:36:06
92,"[{'imgObject': {}, 'id': 'raisin bran w milk', 'src': '/static/foodstim60/raisin bran w milk.jpg', 'key': 'u', 'origWidth': 411, 'origHeight': 411, 'width': 411, 'height': 411, 'widthPercent': 0.45, 'rescaleHeight': False, 'trialN': 92, 'loaded': True, 'loadedTime': 3054.5999999046326, 'positionName': 'LEFT', 'positionCoords': [244.68, 178.5], 'bid': 6.75}, {'imgObject': {}, 'id': 'pear', 'src': '/static/foodstim60/pear.jpg', 'key': 'i', 'origWidth': 411, 'origHeight': 410, 'width': 411, 'height': 410, 'widthPercent': 0.45, 'rescaleHeight': False, 'trialN': 92, 'loaded': True, 'loadedTime': 2915.5999999046326, 'positionName': 'RIGHT', 'positionCoords': [710.32, 179], 'bid': 2.8000000000000003}]",236367.59999990463,1669833139636,raisin bran w milk,pear,6.75,2.8000000000000003,-3.9499999999999997,pear,2548.0,2548,2548.4000000953674,True,i,239428.19999980927,3060.5999999046326,1669833142697,3061,HRV,HRV_0166,2022-11-30 18:36:06
93,"[{'imgObject': {}, 'id': 'fruitsalad', 'src': '/static/foodstim60/fruitsalad.jpg', 'key': 'u', 'origWidth': 410, 'origHeight': 410, 'width': 410, 'height': 410, 'widthPercent': 0.45, 'rescaleHeight': False, 'trialN': 93, 'loaded': True, 'loadedTime': 2952.899999856949, 'positionName': 'LEFT', 'positionCoords': [245.68, 179], 'bid': 7.56}, {'imgObject': {}, 'id': 'cherry tomato', 'src': '/static/foodstim60/cherry tomato.jpg', 'key': 'i', 'origWidth': 410, 'origHeight': 410, 'width': 410, 'height': 410, 'widthPercent': 0.45, 'rescaleHeight': False, 'trialN': 93, 'loaded': True, 'loadedTime': 2919.699999809265, 'positionName': 'RIGHT', 'positionCoords': [710.32, 179], 'bid': 8.08}]",239429.0,1669833142697,fruitsalad,cherry tomato,7.56,8.08,0.5200000000000005,fruitsalad,1933.1999998092651,1934,1933.5999999046326,True,u,241884.69999980927,2455.699999809265,1669833145153,2456,HRV,HRV_0166,2022-11-30 18:36:06
94,"[{'imgObject': {}, 'id': 'roastedpotatoes', 'src': '/static/foodstim60/roastedpotatoes.jpg', 'key': 'u', 'origWidth': 409, 'origHeight': 410, 'width': 409, 'height': 410, 'widthPercent': 0.45, 'rescaleHeight': False, 'trialN': 94, 'loaded': True, 'loadedTime': 3021.199999809265, 'positionName': 'LEFT', 'positionCoords': [246.68, 179], 'bid': 5.87}, {'imgObject': {}, 'id': 'omelette', 'src': '/static/foodstim60/omelette.jpg', 'key': 'i', 'origWidth': 410, 'origHeight': 409, 'width': 410, 'height': 409, 'widthPercent': 0.45, 'rescaleHeight': False, 'trialN': 94, 'loaded': True, 'loadedTime': 3056.0999999046326, 'positionName': 'RIGHT', 'positionCoords': [710.32, 179.5], 'bid': 0.53}]",241884.89999985695,1669833145153,roastedpotatoes,omelette,5.87,0.53,-5.34,roastedpotatoes,1526.6000001430511,1527,1527.0,True,u,243917.69999980927,2032.7999999523163,1669833147186,2033,HRV,HRV_0166,2022-11-30 18:36:06
95,"[{'imgObject': {}, 'id': 'Grapes', 'src': '/static/foodstim60/Grapes.jpg', 'key': 'u', 'origWidth': 411, 'origHeight': 411, 'width': 411, 'height': 411, 'widthPercent': 0.45, 'rescaleHeight': False, 'trialN': 95, 'loaded': True, 'loadedTime': 2719.7999999523163, 'positionName': 'LEFT', 'positionCoords': [244.68, 178.5], 'bid': 6.8100000000000005}, {'imgObject': {}, 'id': 'salad w chicken', 'src': '/static/foodstim60/salad w chicken.jpg', 'key': 'i', 'origWidth': 411, 'origHeight': 411, 'width': 411, 'height': 411, 'widthPercent': 0.45, 'rescaleHeight': False, 'trialN': 95, 'loaded': True, 'loadedTime': 2957.0999999046326, 'positionName': 'RIGHT', 'positionCoords': [710.32, 178.5], 'bid': 2.97}]",243918.19999980927,1669833147187,Grapes,salad w chicken,6.8100000000000005,2.97,-3.8400000000000003,Grapes,1097.5,1097,1097.9000000953674,True,u,245518.79999995232,1600.6000001430511,1669833148787,1600,HRV,HRV_0166,2022-11-30 18:36:06
96,"[{'imgObject': {}, 'id': 'turkey sandwich', 'src': '/static/foodstim60/turkey sandwich.jpg', 'key': 'u', 'origWidth': 409, 'origHeight': 409, 'width': 409, 'height': 409, 'widthPercent': 0.45, 'rescaleHeight': False, 'trialN': 96, 'loaded': True, 'loadedTime': 2643.5999999046326, 'positionName': 'LEFT', 'positionCoords': [246.68, 179.5], 'bid': 1.64}, {'imgObject': {}, 'id': 'chickenfingers', 'src': '/static/foodstim60/chickenfingers.jpg', 'key': 'i', 'origWidth': 410, 'origHeight': 410, 'width': 410, 'height': 410, 'widthPercent': 0.45, 'rescaleHeight': False, 'trialN': 96, 'loaded': True, 'loadedTime': 2813.5999999046326, 'positionName': 'RIGHT', 'positionCoords': [710.32, 179], 'bid': 0.38}]",245519.19999980927,1669833148788,turkey sandwich,chickenfingers,1.64,0.38,-1.2599999999999998,turkey sandwich,1702.7000000476837,1703,1703.1000001430511,True,u,247725.89999985695,2206.7000000476837,1669833150994,2206,HRV,HRV_0166,2022-11-30 18:36:06
97,"[{'imgObject': {}, 'id': 'edamame', 'src': '/static/foodstim60/edamame.jpg', 'key': 'u', 'origWidth': 409, 'origHeight': 410, 'width': 409, 'height': 410, 'widthPercent': 0.45, 'rescaleHeight': False, 'trialN': 97, 'loaded': True, 'loadedTime': 3011.699999809265, 'positionName': 'LEFT', 'positionCoords': [246.68, 179], 'bid': 3.69}, {'imgObject': {}, 'id': 'baked potato', 'src': '/static/foodstim60/baked potato.jpg', 'key': 'i', 'origWidth': 409, 'origHeight': 410, 'width': 409, 'height': 410, 'widthPercent': 0.45, 'rescaleHeight': False, 'trialN': 97, 'loaded': True, 'loadedTime': 2693.699999809265, 'positionName': 'RIGHT', 'positionCoords': [710.32, 179], 'bid': 6.93}]",247726.29999995232,1669833150995,edamame,baked potato,3.69,6.93,3.2399999999999998,baked potato,2159.2000000476837,2159,2159.5999999046326,True,i,250403.69999980927,2677.399999856949,1669833153672,2677,HRV,HRV_0166,2022-11-30 18:36:06
98,"[{'imgObject': {}, 'id': 'hashbrowns', 'src': '/static/foodstim60/hashbrowns.jpg', 'key': 'u', 'origWidth': 411, 'origHeight': 410, 'width': 411, 'height': 410, 'widthPercent': 0.45, 'rescaleHeight': False, 'trialN': 98, 'loaded': True, 'loadedTime': 2592.0999999046326, 'positionName': 'LEFT', 'positionCoords': [244.68, 179], 'bid': 4.69}, {'imgObject': {}, 'id': 'chicken nuggets2', 'src': '/static/foodstim60/chicken nuggets2.jpg', 'key': 'i', 'origWidth': 410, 'origHeight': 409, 'width': 410, 'height': 409, 'widthPercent': 0.45, 'rescaleHeight': False, 'trialN': 98, 'loaded': True, 'loadedTime': 2521.199999809265, 'positionName': 'RIGHT', 'positionCoords': [710.32, 179.5], 'bid': 0.92}]",250404.19999980927,1669833153673,hashbrowns,chicken nuggets2,4.69,0.92,-3.7700000000000005,hashbrowns,1694.1000001430511,1694,1694.6000001430511,True,u,252612.59999990463,2208.4000000953674,1669833155881,2208,HRV,HRV_0166,2022-11-30 18:36:06
99,"[{'imgObject': {}, 'id': 'olives', 'src': '/static/foodstim60/olives.jpg', 'key': 'u', 'origWidth': 410, 'origHeight': 410, 'width': 410, 'height': 410, 'widthPercent': 0.45, 'rescaleHeight': False, 'trialN': 99, 'loaded': True, 'loadedTime': 2397.199999809265, 'positionName': 'LEFT', 'positionCoords': [245.68, 179], 'bid': 5.95}, {'imgObject': {}, 'id': 'granola w milk', 'src': '/static/foodstim60/granola w milk.jpg', 'key': 'i', 'origWidth': 410, 'origHeight': 410, 'width': 410, 'height': 410, 'widthPercent': 0.45, 'rescaleHeight': False, 'trialN': 99, 'loaded': True, 'loadedTime': 3018.5999999046326, 'positionName': 'RIGHT', 'positionCoords': [710.32, 179], 'bid': 5.7700000000000005}]",252613.09999990463,1669833155882,olives,granola w milk,5.95,5.7700000000000005,-0.17999999999999972,olives,1867.9000000953674,1868,1868.2000000476837,True,u,255004.09999990463,2391.0,1669833158273,2391,HRV,HRV_0166,2022-11-30 18:36:06
100,"[{'imgObject': {}, 'id': 'cheerios', 'src': '/static/foodstim60/cheerios.jpg', 'key': 'u', 'origWidth': 409, 'origHeight': 410, 'width': 409, 'height': 410, 'widthPercent': 0.45, 'rescaleHeight': False, 'trialN': 100, 'loaded': True, 'loadedTime': 2836.2999999523163, 'positionName': 'LEFT', 'positionCoords': [246.68, 179], 'bid': 4.61}, {'imgObject': {}, 'id': 'bagel and cc', 'src': '/static/foodstim60/bagel and cc.jpg', 'key': 'i', 'origWidth': 410, 'origHeight': 410, 'width': 410, 'height': 410, 'widthPercent': 0.45, 'rescaleHeight': False, 'trialN': 100, 'loaded': True, 'loadedTime': 2898.5, 'positionName': 'RIGHT', 'positionCoords': [710.32, 179], 'bid': 4.86}]",255004.5,1669833158273,cheerios,bagel and cc,4.61,4.86,0.25,bagel and cc,2890.5,2891,2890.899999856949,True,i,258409.39999985695,3404.899999856949,1669833161678,3405,HRV,HRV_0166,2022-11-30 18:36:06
101,"[{'imgObject': {}, 'id': 'baked potato', 'src': '/static/foodstim60/baked potato.jpg', 'key': 'u', 'origWidth': 409, 'origHeight': 410, 'width': 409, 'height': 410, 'widthPercent': 0.45, 'rescaleHeight': False, 'trialN': 101, 'loaded': True, 'loadedTime': 2694.0999999046326, 'positionName': 'LEFT', 'positionCoords': [246.68, 179], 'bid': 6.93}, {'imgObject': {}, 'id': 'shreddedwheatwithmilk', 'src': '/static/foodstim60/shreddedwheatwithmilk.jpg', 'key': 'i', 'origWidth': 410, 'origHeight': 410, 'width': 410, 'height': 410, 'widthPercent': 0.45, 'rescaleHeight': False, 'trialN': 101, 'loaded': True, 'loadedTime': 2725.7999999523163, 'positionName': 'RIGHT', 'positionCoords': [710.32, 179], 'bid': 6.88}]",258409.69999980927,1669833161678,baked potato,shreddedwheatwithmilk,6.93,6.88,-0.04999999999999982,baked potato,2511.5,2512,2512.0,True,u,261439.0,3029.300000190735,1669833164707,3029,HRV,HRV_0166,2022-11-30 18:36:06
102,"[{'imgObject': {}, 'id': 'burrito', 'src': '/static/foodstim60/burrito.jpg', 'key': 'u', 'origWidth': 410, 'origHeight': 410, 'width': 410, 'height': 410, 'widthPercent': 0.45, 'rescaleHeight': False, 'trialN': 102, 'loaded': True, 'loadedTime': 2985.699999809265, 'positionName': 'LEFT', 'positionCoords': [245.68, 179], 'bid': 5.54}, {'imgObject': {}, 'id': 'hashbrowns', 'src': '/static/foodstim60/hashbrowns.jpg', 'key': 'i', 'origWidth': 411, 'origHeight': 410, 'width': 411, 'height': 410, 'widthPercent': 0.45, 'rescaleHeight': False, 'trialN': 102, 'loaded': True, 'loadedTime': 2592.5, 'positionName': 'RIGHT', 'positionCoords': [710.32, 179], 'bid': 4.69}]",261439.5,1669833164708,burrito,hashbrowns,5.54,4.69,-0.8499999999999996,burrito,1883.0,1883,1883.2999999523163,True,u,263833.89999985695,2394.399999856949,1669833167102,2394,HRV,HRV_0166,2022-11-30 18:36:06
103,"[{'imgObject': {}, 'id': 'rigatoni and sauce', 'src': '/static/foodstim60/rigatoni and sauce.jpg', 'key': 'u', 'origWidth': 410, 'origHeight': 411, 'width': 410, 'height': 411, 'widthPercent': 0.45, 'rescaleHeight': False, 'trialN': 103, 'loaded': True, 'loadedTime': 2625.399999856949, 'positionName': 'LEFT', 'positionCoords': [245.68, 178.5], 'bid': 5.08}, {'imgObject': {}, 'id': 'eggsalad', 'src': '/static/foodstim60/eggsalad.jpg', 'key': 'i', 'origWidth': 410, 'origHeight': 409, 'width': 410, 'height': 409, 'widthPercent': 0.45, 'rescaleHeight': False, 'trialN': 103, 'loaded': True, 'loadedTime': 2599.199999809265, 'positionName': 'RIGHT', 'positionCoords': [710.32, 179.5], 'bid': 5.3}]",263834.39999985695,1669833167103,rigatoni and sauce,eggsalad,5.08,5.3,0.21999999999999975,rigatoni and sauce,2319.5,2320,2319.7999999523163,True,u,266663.89999985695,2829.5,1669833169932,2829,HRV,HRV_0166,2022-11-30 18:36:06
104,"[{'imgObject': {}, 'id': 'banana', 'src': '/static/foodstim60/banana.jpg', 'key': 'u', 'origWidth': 410, 'origHeight': 410, 'width': 410, 'height': 410, 'widthPercent': 0.45, 'rescaleHeight': False, 'trialN': 104, 'loaded': True, 'loadedTime': 2629.5999999046326, 'positionName': 'LEFT', 'positionCoords': [245.68, 179], 'bid': 9.75}, {'imgObject': {}, 'id': 'mango', 'src': '/static/foodstim60/mango.jpg', 'key': 'i', 'origWidth': 411, 'origHeight': 411, 'width': 411, 'height': 411, 'widthPercent': 0.45, 'rescaleHeight': False, 'trialN': 104, 'loaded': True, 'loadedTime': 3023.5999999046326, 'positionName': 'RIGHT', 'positionCoords': [710.32, 178.5], 'bid': 7.21}]",266664.09999990463,1669833169933,banana,mango,9.75,7.21,-2.54,banana,1669.5999999046326,1670,1670.2000000476837,True,u,268846.89999985695,2182.7999999523163,1669833172115,2182,HRV,HRV_0166,2022-11-30 18:36:06
105,"[{'imgObject': {}, 'id': 'bagel plain', 'src': '/static/foodstim60/bagel plain.jpg', 'key': 'u', 'origWidth': 410, 'origHeight': 410, 'width': 410, 'height': 410, 'widthPercent': 0.45, 'rescaleHeight': False, 'trialN': 105, 'loaded': True, 'loadedTime': 2894.5999999046326, 'positionName': 'LEFT', 'positionCoords': [245.68, 179], 'bid': 4.04}, {'imgObject': {}, 'id': 'edamame', 'src': '/static/foodstim60/edamame.jpg', 'key': 'i', 'origWidth': 409, 'origHeight': 410, 'width': 409, 'height': 410, 'widthPercent': 0.45, 'rescaleHeight': False, 'trialN': 105, 'loaded': True, 'loadedTime': 3013.5999999046326, 'positionName': 'RIGHT', 'positionCoords': [710.32, 179], 'bid': 3.69}]",268847.19999980927,1669833172116,bagel plain,edamame,4.04,3.69,-0.3500000000000001,bagel plain,2622.800000190735,2623,2623.300000190735,True,u,271989.69999980927,3142.5,1669833175258,3142,HRV,HRV_0166,2022-11-30 18:36:06
106,"[{'imgObject': {}, 'id': 'salad w chicken', 'src': '/static/foodstim60/salad w chicken.jpg', 'key': 'u', 'origWidth': 411, 'origHeight': 411, 'width': 411, 'height': 411, 'widthPercent': 0.45, 'rescaleHeight': False, 'trialN': 106, 'loaded': True, 'loadedTime': 2957.7999999523163, 'positionName': 'LEFT', 'positionCoords': [244.68, 178.5], 'bid': 2.97}, {'imgObject': {}, 'id': 'turkey sandwich', 'src': '/static/foodstim60/turkey sandwich.jpg', 'key': 'i', 'origWidth': 409, 'origHeight': 409, 'width': 409, 'height': 409, 'widthPercent': 0.45, 'rescaleHeight': False, 'trialN': 106, 'loaded': True, 'loadedTime': 2633, 'positionName': 'RIGHT', 'positionCoords': [710.32, 179.5], 'bid': 1.64}]",271990.19999980927,1669833175259,salad w chicken,turkey sandwich,2.97,1.64,-1.3300000000000003,turkey sandwich,1643.3000001907349,1643,1643.7000000476837,True,i,274157.69999980927,2167.5,1669833177426,2167,HRV,HRV_0166,2022-11-30 18:36:06
107,"[{'imgObject': {}, 'id': 'salad w chicken', 'src': '/static/foodstim60/salad w chicken.jpg', 'key': 'u', 'origWidth': 411, 'origHeight': 411, 'width': 411, 'height': 411, 'widthPercent': 0.45, 'rescaleHeight': False, 'trialN': 107, 'loaded': True, 'loadedTime': 2958.2999999523163, 'positionName': 'LEFT', 'positionCoords': [244.68, 178.5], 'bid': 2.97}, {'imgObject': {}, 'id': 'burger', 'src': '/static/foodstim60/burger.jpg', 'key': 'i', 'origWidth': 409, 'origHeight': 409, 'width': 409, 'height': 409, 'widthPercent': 0.45, 'rescaleHeight': False, 'trialN': 107, 'loaded': True, 'loadedTime': 2671.5999999046326, 'positionName': 'RIGHT', 'positionCoords': [710.32, 179.5], 'bid': 0.41}]",274158.2999999523,1669833177427,salad w chicken,burger,2.97,0.41,-2.56,salad w chicken,1105.2999999523163,1105,1105.5999999046326,True,u,275771.89999985695,1613.5999999046326,1669833179040,1613,HRV,HRV_0166,2022-11-30 18:36:06
