trialN,stimuli,trialStartTime,trialStartTime_UNIX,stimulus1,stimulus2,stimulus1Bid,stimulus2Bid,delta,selected,rt,rt_UNIX,rt_perfnow,receivedResponse,rsp,trialEndTime,trialDuration,trialEndTime_UNIX,trialDuration_UNIX,exp,subjectId,date
0,"[{'imgObject': {}, 'id': 'eggsalad', 'src': '/static/foodstim60/eggsalad.jpg', 'key': 'u', 'origWidth': 410, 'origHeight': 409, 'width': 410, 'height': 409, 'widthPercent': 0.45, 'rescaleHeight': False, 'trialN': 0, 'loaded': True, 'loadedTime': 4899.100000023842, 'positionName': 'LEFT', 'positionCoords': [511.6, 335.5], 'bid': 1.66}, {'imgObject': {}, 'id': 'Grapes', 'src': '/static/foodstim60/Grapes.jpg', 'key': 'i', 'origWidth': 411, 'origHeight': 411, 'width': 411, 'height': 411, 'widthPercent': 0.45, 'rescaleHeight': False, 'trialN': 0, 'loaded': True, 'loadedTime': 4952, 'positionName': 'RIGHT', 'positionCoords': [998.4, 334.5], 'bid': 2.28}]",6171.0,1669837474330,eggsalad,Grapes,1.66,2.28,0.6199999999999999,eggsalad,1253.800000011921,1274,1273.9000000059605,True,u,7946.600000023842,1775.6000000238419,1669837476106,1776,HRV,HRV_0257,2022-11-30 19:49:58
1,"[{'imgObject': {}, 'id': 'veggieswithdip', 'src': '/static/foodstim60/veggieswithdip.jpg', 'key': 'u', 'origWidth': 409, 'origHeight': 409, 'width': 409, 'height': 409, 'widthPercent': 0.45, 'rescaleHeight': False, 'trialN': 1, 'loaded': True, 'loadedTime': 4955.700000017881, 'positionName': 'LEFT', 'positionCoords': [512.6, 335.5], 'bid': 6.2}, {'imgObject': {}, 'id': 'turkey sandwich', 'src': '/static/foodstim60/turkey sandwich.jpg', 'key': 'i', 'origWidth': 409, 'origHeight': 409, 'width': 409, 'height': 409, 'widthPercent': 0.45, 'rescaleHeight': False, 'trialN': 1, 'loaded': True, 'loadedTime': 4963.200000017881, 'positionName': 'RIGHT', 'positionCoords': [998.4, 335.5], 'bid': 5.94}]",7946.800000011921,1669837476106,veggieswithdip,turkey sandwich,6.2,5.94,-0.2599999999999998,turkey sandwich,1095.0,1097,1096.800000011921,True,i,9546.700000017881,1599.9000000059605,1669837477706,1600,HRV,HRV_0257,2022-11-30 19:49:58
2,"[{'imgObject': {}, 'id': 'chickenfingers', 'src': '/static/foodstim60/chickenfingers.jpg', 'key': 'u', 'origWidth': 410, 'origHeight': 410, 'width': 410, 'height': 410, 'widthPercent': 0.45, 'rescaleHeight': False, 'trialN': 2, 'loaded': True, 'loadedTime': 4965.600000023842, 'positionName': 'LEFT', 'positionCoords': [511.6, 335], 'bid': 6.15}, {'imgObject': {}, 'id': 'veggieswithdip', 'src': '/static/foodstim60/veggieswithdip.jpg', 'key': 'i', 'origWidth': 409, 'origHeight': 409, 'width': 409, 'height': 409, 'widthPercent': 0.45, 'rescaleHeight': False, 'trialN': 2, 'loaded': True, 'loadedTime': 4957, 'positionName': 'RIGHT', 'positionCoords': [998.4, 335.5], 'bid': 6.2}]",9547.5,1669837477707,chickenfingers,veggieswithdip,6.15,6.2,0.04999999999999982,chickenfingers,750.8000000119209,751,751.5,True,u,10802.5,1255.0,1669837478962,1255,HRV,HRV_0257,2022-11-30 19:49:58
3,"[{'imgObject': {}, 'id': 'fruitsalad', 'src': '/static/foodstim60/fruitsalad.jpg', 'key': 'u', 'origWidth': 410, 'origHeight': 410, 'width': 410, 'height': 410, 'widthPercent': 0.45, 'rescaleHeight': False, 'trialN': 3, 'loaded': True, 'loadedTime': 4969, 'positionName': 'LEFT', 'positionCoords': [511.6, 335], 'bid': 2.46}, {'imgObject': {}, 'id': 'tacos', 'src': '/static/foodstim60/tacos.jpg', 'key': 'i', 'origWidth': 411, 'origHeight': 411, 'width': 411, 'height': 411, 'widthPercent': 0.45, 'rescaleHeight': False, 'trialN': 3, 'loaded': True, 'loadedTime': 4985.9000000059605, 'positionName': 'RIGHT', 'positionCoords': [998.4, 334.5], 'bid': 7.95}]",10802.600000023842,1669837478962,fruitsalad,tacos,2.46,7.95,5.49,tacos,900.6999999880791,901,901.5,True,i,12210.600000023842,1408.0,1669837480370,1408,HRV,HRV_0257,2022-11-30 19:49:58
4,"[{'imgObject': {}, 'id': 'popsicles', 'src': '/static/foodstim60/popsicles.jpg', 'key': 'u', 'origWidth': 410, 'origHeight': 410, 'width': 410, 'height': 410, 'widthPercent': 0.45, 'rescaleHeight': False, 'trialN': 4, 'loaded': True, 'loadedTime': 5308.100000023842, 'positionName': 'LEFT', 'positionCoords': [511.6, 335], 'bid': 9.84}, {'imgObject': {}, 'id': 'turkey sandwich', 'src': '/static/foodstim60/turkey sandwich.jpg', 'key': 'i', 'origWidth': 409, 'origHeight': 409, 'width': 409, 'height': 409, 'widthPercent': 0.45, 'rescaleHeight': False, 'trialN': 4, 'loaded': True, 'loadedTime': 4962.100000023842, 'positionName': 'RIGHT', 'positionCoords': [998.4, 335.5], 'bid': 5.94}]",12211.100000023842,1669837480370,popsicles,turkey sandwich,9.84,5.94,-3.8999999999999995,popsicles,692.5,695,694.5999999940395,True,u,13410.600000023842,1199.5,1669837481570,1200,HRV,HRV_0257,2022-11-30 19:49:58
5,"[{'imgObject': {}, 'id': 'salad w chicken', 'src': '/static/foodstim60/salad w chicken.jpg', 'key': 'u', 'origWidth': 411, 'origHeight': 411, 'width': 411, 'height': 411, 'widthPercent': 0.45, 'rescaleHeight': False, 'trialN': 5, 'loaded': True, 'loadedTime': 4994.600000023842, 'positionName': 'LEFT', 'positionCoords': [510.6, 334.5], 'bid': 5.62}, {'imgObject': {}, 'id': 'avocado', 'src': '/static/foodstim60/avocado.jpg', 'key': 'i', 'origWidth': 409, 'origHeight': 409, 'width': 409, 'height': 409, 'widthPercent': 0.45, 'rescaleHeight': False, 'trialN': 5, 'loaded': True, 'loadedTime': 5035.300000011921, 'positionName': 'RIGHT', 'positionCoords': [998.4, 335.5], 'bid': 4.68}]",13411.0,1669837481570,salad w chicken,avocado,5.62,4.68,-0.9400000000000004,salad w chicken,932.1000000238419,934,934.0,True,u,14850.5,1439.5,1669837483010,1440,HRV,HRV_0257,2022-11-30 19:49:58
6,"[{'imgObject': {}, 'id': 'blackbeanswithrice', 'src': '/static/foodstim60/blackbeanswithrice.jpg', 'key': 'u', 'origWidth': 410, 'origHeight': 410, 'width': 410, 'height': 410, 'widthPercent': 0.45, 'rescaleHeight': False, 'trialN': 6, 'loaded': True, 'loadedTime': 5065.9000000059605, 'positionName': 'LEFT', 'positionCoords': [511.6, 335], 'bid': 0.95}, {'imgObject': {}, 'id': 'edamame', 'src': '/static/foodstim60/edamame.jpg', 'key': 'i', 'origWidth': 409, 'origHeight': 410, 'width': 409, 'height': 410, 'widthPercent': 0.45, 'rescaleHeight': False, 'trialN': 6, 'loaded': True, 'loadedTime': 5124, 'positionName': 'RIGHT', 'positionCoords': [998.4, 335], 'bid': 0.81}]",14850.800000011921,1669837483010,blackbeanswithrice,edamame,0.95,0.81,-0.1399999999999999,edamame,690.5999999940395,691,691.0,True,i,16042.800000011921,1192.0,1669837484202,1192,HRV,HRV_0257,2022-11-30 19:49:58
7,"[{'imgObject': {}, 'id': 'banana', 'src': '/static/foodstim60/banana.jpg', 'key': 'u', 'origWidth': 410, 'origHeight': 410, 'width': 410, 'height': 410, 'widthPercent': 0.45, 'rescaleHeight': False, 'trialN': 7, 'loaded': True, 'loadedTime': 5194.4000000059605, 'positionName': 'LEFT', 'positionCoords': [511.6, 335], 'bid': 1.69}, {'imgObject': {}, 'id': 'hashbrowns', 'src': '/static/foodstim60/hashbrowns.jpg', 'key': 'i', 'origWidth': 411, 'origHeight': 410, 'width': 411, 'height': 410, 'widthPercent': 0.45, 'rescaleHeight': False, 'trialN': 7, 'loaded': True, 'loadedTime': 5209.700000017881, 'positionName': 'RIGHT', 'positionCoords': [998.4, 335], 'bid': 2.3000000000000003}]",16043.40000000596,1669837484203,banana,hashbrowns,1.69,2.3000000000000003,0.6100000000000003,banana,1156.7000000178814,1157,1157.2000000178814,True,u,17706.600000023842,1663.2000000178814,1669837485866,1663,HRV,HRV_0257,2022-11-30 19:49:58
8,"[{'imgObject': {}, 'id': 'cantaloupe', 'src': '/static/foodstim60/cantaloupe.jpg', 'key': 'u', 'origWidth': 409, 'origHeight': 409, 'width': 409, 'height': 409, 'widthPercent': 0.45, 'rescaleHeight': False, 'trialN': 8, 'loaded': True, 'loadedTime': 5216.300000011921, 'positionName': 'LEFT', 'positionCoords': [512.6, 335.5], 'bid': 2.34}, {'imgObject': {}, 'id': 'hashbrowns', 'src': '/static/foodstim60/hashbrowns.jpg', 'key': 'i', 'origWidth': 411, 'origHeight': 410, 'width': 411, 'height': 410, 'widthPercent': 0.45, 'rescaleHeight': False, 'trialN': 8, 'loaded': True, 'loadedTime': 5208, 'positionName': 'RIGHT', 'positionCoords': [998.4, 335], 'bid': 2.3000000000000003}]",17706.80000001192,1669837485866,cantaloupe,hashbrowns,2.34,2.3000000000000003,-0.03999999999999959,hashbrowns,1105.4000000059605,1107,1106.9000000059605,True,i,19314.80000001192,1608.0,1669837487474,1608,HRV,HRV_0257,2022-11-30 19:49:58
9,"[{'imgObject': {}, 'id': 'sushi w_condiments', 'src': '/static/foodstim60/sushi w_condiments.jpg', 'key': 'u', 'origWidth': 410, 'origHeight': 410, 'width': 410, 'height': 410, 'widthPercent': 0.45, 'rescaleHeight': False, 'trialN': 9, 'loaded': True, 'loadedTime': 5138.600000023842, 'positionName': 'LEFT', 'positionCoords': [511.6, 335], 'bid': 0.27}, {'imgObject': {}, 'id': 'mango', 'src': '/static/foodstim60/mango.jpg', 'key': 'i', 'origWidth': 411, 'origHeight': 411, 'width': 411, 'height': 411, 'widthPercent': 0.45, 'rescaleHeight': False, 'trialN': 9, 'loaded': True, 'loadedTime': 5165.700000017881, 'positionName': 'RIGHT', 'positionCoords': [998.4, 334.5], 'bid': 1.97}]",19315.20000001788,1669837487475,sushi w_condiments,mango,0.27,1.97,1.7,mango,847.1999999880791,860,860.7999999821186,True,i,20682.5,1367.2999999821186,1669837488842,1367,HRV,HRV_0257,2022-11-30 19:49:58
10,"[{'imgObject': {}, 'id': 'hotdog w must', 'src': '/static/foodstim60/hotdog w must.jpg', 'key': 'u', 'origWidth': 409, 'origHeight': 409, 'width': 409, 'height': 409, 'widthPercent': 0.45, 'rescaleHeight': False, 'trialN': 10, 'loaded': True, 'loadedTime': 5193.700000017881, 'positionName': 'LEFT', 'positionCoords': [512.6, 335.5], 'bid': 4.6000000000000005}, {'imgObject': {}, 'id': 'shreddedwheatwithmilk', 'src': '/static/foodstim60/shreddedwheatwithmilk.jpg', 'key': 'i', 'origWidth': 410, 'origHeight': 410, 'width': 410, 'height': 410, 'widthPercent': 0.45, 'rescaleHeight': False, 'trialN': 10, 'loaded': True, 'loadedTime': 5232.200000017881, 'positionName': 'RIGHT', 'positionCoords': [998.4, 335], 'bid': 1.36}]",20682.80000001192,1669837488842,hotdog w must,shreddedwheatwithmilk,4.6000000000000005,1.36,-3.24,hotdog w must,973.6999999880791,976,975.5999999940395,True,u,22162.70000001788,1479.9000000059605,1669837490322,1480,HRV,HRV_0257,2022-11-30 19:49:58
11,"[{'imgObject': {}, 'id': 'hashbrowns', 'src': '/static/foodstim60/hashbrowns.jpg', 'key': 'u', 'origWidth': 411, 'origHeight': 410, 'width': 411, 'height': 410, 'widthPercent': 0.45, 'rescaleHeight': False, 'trialN': 11, 'loaded': True, 'loadedTime': 5201.100000023842, 'positionName': 'LEFT', 'positionCoords': [510.6, 335], 'bid': 2.3000000000000003}, {'imgObject': {}, 'id': 'mashed potato', 'src': '/static/foodstim60/mashed potato.jpg', 'key': 'i', 'origWidth': 409, 'origHeight': 409, 'width': 409, 'height': 409, 'widthPercent': 0.45, 'rescaleHeight': False, 'trialN': 11, 'loaded': True, 'loadedTime': 5221.300000011921, 'positionName': 'RIGHT', 'positionCoords': [998.4, 335.5], 'bid': 2.32}]",22163.0,1669837490322,hashbrowns,mashed potato,2.3000000000000003,2.32,0.019999999999999574,mashed potato,1051.800000011921,1055,1054.2000000178814,True,i,23722.80000001192,1559.800000011921,1669837491882,1560,HRV,HRV_0257,2022-11-30 19:49:58
12,"[{'imgObject': {}, 'id': 'bagel and cc', 'src': '/static/foodstim60/bagel and cc.jpg', 'key': 'u', 'origWidth': 410, 'origHeight': 410, 'width': 410, 'height': 410, 'widthPercent': 0.45, 'rescaleHeight': False, 'trialN': 12, 'loaded': True, 'loadedTime': 5255.9000000059605, 'positionName': 'LEFT', 'positionCoords': [511.6, 335], 'bid': 4.38}, {'imgObject': {}, 'id': 'burger', 'src': '/static/foodstim60/burger.jpg', 'key': 'i', 'origWidth': 409, 'origHeight': 409, 'width': 409, 'height': 409, 'widthPercent': 0.45, 'rescaleHeight': False, 'trialN': 12, 'loaded': True, 'loadedTime': 5251.9000000059605, 'positionName': 'RIGHT', 'positionCoords': [998.4, 335.5], 'bid': 5.4}]",23723.30000001192,1669837491883,bagel and cc,burger,4.38,5.4,1.0200000000000005,burger,1167.5,1169,1169.0,True,i,25394.600000023842,1671.300000011921,1669837493554,1671,HRV,HRV_0257,2022-11-30 19:49:58
13,"[{'imgObject': {}, 'id': 'cherries', 'src': '/static/foodstim60/cherries.jpg', 'key': 'u', 'origWidth': 410, 'origHeight': 411, 'width': 410, 'height': 411, 'widthPercent': 0.45, 'rescaleHeight': False, 'trialN': 13, 'loaded': True, 'loadedTime': 5281.300000011921, 'positionName': 'LEFT', 'positionCoords': [511.6, 334.5], 'bid': 1.35}, {'imgObject': {}, 'id': 'seaweed', 'src': '/static/foodstim60/seaweed.jpg', 'key': 'i', 'origWidth': 410, 'origHeight': 410, 'width': 410, 'height': 410, 'widthPercent': 0.45, 'rescaleHeight': False, 'trialN': 13, 'loaded': True, 'loadedTime': 5259, 'positionName': 'RIGHT', 'positionCoords': [998.4, 335], 'bid': 1.43}]",25394.80000001192,1669837493554,cherries,seaweed,1.35,1.43,0.07999999999999985,cherries,1119.5999999940395,1120,1120.199999988079,True,u,27032.5,1637.699999988079,1669837495192,1638,HRV,HRV_0257,2022-11-30 19:49:58
14,"[{'imgObject': {}, 'id': 'banana', 'src': '/static/foodstim60/banana.jpg', 'key': 'u', 'origWidth': 410, 'origHeight': 410, 'width': 410, 'height': 410, 'widthPercent': 0.45, 'rescaleHeight': False, 'trialN': 14, 'loaded': True, 'loadedTime': 5199.9000000059605, 'positionName': 'LEFT', 'positionCoords': [511.6, 335], 'bid': 1.69}, {'imgObject': {}, 'id': 'roastedpotatoes', 'src': '/static/foodstim60/roastedpotatoes.jpg', 'key': 'i', 'origWidth': 409, 'origHeight': 410, 'width': 409, 'height': 410, 'widthPercent': 0.45, 'rescaleHeight': False, 'trialN': 14, 'loaded': True, 'loadedTime': 5380.300000011921, 'positionName': 'RIGHT', 'positionCoords': [998.4, 335], 'bid': 5.51}]",27032.600000023842,1669837495192,banana,roastedpotatoes,1.69,5.51,3.82,roastedpotatoes,993.3999999761581,995,994.7999999821186,True,i,28530.600000023842,1498.0,1669837496690,1498,HRV,HRV_0257,2022-11-30 19:49:58
15,"[{'imgObject': {}, 'id': 'baked potato', 'src': '/static/foodstim60/baked potato.jpg', 'key': 'u', 'origWidth': 409, 'origHeight': 410, 'width': 409, 'height': 410, 'widthPercent': 0.45, 'rescaleHeight': False, 'trialN': 15, 'loaded': True, 'loadedTime': 5432.700000017881, 'positionName': 'LEFT', 'positionCoords': [512.6, 335], 'bid': 5.6000000000000005}, {'imgObject': {}, 'id': 'roastedpotatoes', 'src': '/static/foodstim60/roastedpotatoes.jpg', 'key': 'i', 'origWidth': 409, 'origHeight': 410, 'width': 409, 'height': 410, 'widthPercent': 0.45, 'rescaleHeight': False, 'trialN': 15, 'loaded': True, 'loadedTime': 5381.5, 'positionName': 'RIGHT', 'positionCoords': [998.4, 335], 'bid': 5.51}]",28530.80000001192,1669837496690,baked potato,roastedpotatoes,5.6000000000000005,5.51,-0.09000000000000075,roastedpotatoes,1108.199999988079,1109,1109.0999999940395,True,i,30146.600000023842,1615.800000011921,1669837498306,1616,HRV,HRV_0257,2022-11-30 19:49:58
16,"[{'imgObject': {}, 'id': 'popsicles', 'src': '/static/foodstim60/popsicles.jpg', 'key': 'u', 'origWidth': 410, 'origHeight': 410, 'width': 410, 'height': 410, 'widthPercent': 0.45, 'rescaleHeight': False, 'trialN': 16, 'loaded': True, 'loadedTime': 5306.4000000059605, 'positionName': 'LEFT', 'positionCoords': [511.6, 335], 'bid': 9.84}, {'imgObject': {}, 'id': 'eggs', 'src': '/static/foodstim60/eggs.jpg', 'key': 'i', 'origWidth': 409, 'origHeight': 409, 'width': 409, 'height': 409, 'widthPercent': 0.45, 'rescaleHeight': False, 'trialN': 16, 'loaded': True, 'loadedTime': 5475.100000023842, 'positionName': 'RIGHT', 'positionCoords': [998.4, 335.5], 'bid': 2.8000000000000003}]",30146.90000000596,1669837498306,popsicles,eggs,9.84,2.8000000000000003,-7.039999999999999,popsicles,754.7000000178814,756,755.3000000119209,True,u,31402.40000000596,1255.5,1669837499562,1256,HRV,HRV_0257,2022-11-30 19:49:58
17,"[{'imgObject': {}, 'id': 'banana', 'src': '/static/foodstim60/banana.jpg', 'key': 'u', 'origWidth': 410, 'origHeight': 410, 'width': 410, 'height': 410, 'widthPercent': 0.45, 'rescaleHeight': False, 'trialN': 17, 'loaded': True, 'loadedTime': 5196.600000023842, 'positionName': 'LEFT', 'positionCoords': [511.6, 335], 'bid': 1.69}, {'imgObject': {}, 'id': 'edamame', 'src': '/static/foodstim60/edamame.jpg', 'key': 'i', 'origWidth': 409, 'origHeight': 410, 'width': 409, 'height': 410, 'widthPercent': 0.45, 'rescaleHeight': False, 'trialN': 17, 'loaded': True, 'loadedTime': 5106, 'positionName': 'RIGHT', 'positionCoords': [998.4, 335], 'bid': 0.81}]",31402.600000023842,1669837499562,banana,edamame,1.69,0.81,-0.8799999999999999,banana,850.5999999940395,852,852.1999999880791,True,u,32762.5,1359.8999999761581,1669837500922,1360,HRV,HRV_0257,2022-11-30 19:49:58
18,"[{'imgObject': {}, 'id': 'salmon', 'src': '/static/foodstim60/salmon.jpg', 'key': 'u', 'origWidth': 410, 'origHeight': 409, 'width': 410, 'height': 409, 'widthPercent': 0.45, 'rescaleHeight': False, 'trialN': 18, 'loaded': True, 'loadedTime': 5477.9000000059605, 'positionName': 'LEFT', 'positionCoords': [511.6, 335.5], 'bid': 1.63}, {'imgObject': {}, 'id': 'rigatoni and sauce', 'src': '/static/foodstim60/rigatoni and sauce.jpg', 'key': 'i', 'origWidth': 410, 'origHeight': 411, 'width': 410, 'height': 411, 'widthPercent': 0.45, 'rescaleHeight': False, 'trialN': 18, 'loaded': True, 'loadedTime': 5484.200000017881, 'positionName': 'RIGHT', 'positionCoords': [998.4, 334.5], 'bid': 2.21}]",32762.600000023842,1669837500922,salmon,rigatoni and sauce,1.63,2.21,0.5800000000000001,rigatoni and sauce,936.5,938,937.5999999940395,True,i,34202.40000000596,1439.7999999821186,1669837502362,1440,HRV,HRV_0257,2022-11-30 19:49:58
19,"[{'imgObject': {}, 'id': 'pear', 'src': '/static/foodstim60/pear.jpg', 'key': 'u', 'origWidth': 411, 'origHeight': 410, 'width': 411, 'height': 410, 'widthPercent': 0.45, 'rescaleHeight': False, 'trialN': 19, 'loaded': True, 'loadedTime': 5483.300000011921, 'positionName': 'LEFT', 'positionCoords': [510.6, 335], 'bid': 3.14}, {'imgObject': {}, 'id': 'yogurt no spoon', 'src': '/static/foodstim60/yogurt no spoon.jpg', 'key': 'i', 'origWidth': 411, 'origHeight': 410, 'width': 411, 'height': 410, 'widthPercent': 0.45, 'rescaleHeight': False, 'trialN': 19, 'loaded': True, 'loadedTime': 5491.300000011921, 'positionName': 'RIGHT', 'positionCoords': [998.4, 335], 'bid': 3.09}]",34202.5,1669837502362,pear,yogurt no spoon,3.14,3.09,-0.050000000000000266,yogurt no spoon,1274.9000000059605,1275,1275.4000000059605,True,i,35978.90000000596,1776.4000000059605,1669837504138,1776,HRV,HRV_0257,2022-11-30 19:49:58
20,"[{'imgObject': {}, 'id': 'granola w milk', 'src': '/static/foodstim60/granola w milk.jpg', 'key': 'u', 'origWidth': 410, 'origHeight': 410, 'width': 410, 'height': 410, 'widthPercent': 0.45, 'rescaleHeight': False, 'trialN': 20, 'loaded': True, 'loadedTime': 5497.600000023842, 'positionName': 'LEFT', 'positionCoords': [511.6, 335], 'bid': 0.91}, {'imgObject': {}, 'id': 'edamame', 'src': '/static/foodstim60/edamame.jpg', 'key': 'i', 'origWidth': 409, 'origHeight': 410, 'width': 409, 'height': 410, 'widthPercent': 0.45, 'rescaleHeight': False, 'trialN': 20, 'loaded': True, 'loadedTime': 5124.4000000059605, 'positionName': 'RIGHT', 'positionCoords': [998.4, 335], 'bid': 0.81}]",35979.20000001788,1669837504139,granola w milk,edamame,0.91,0.81,-0.09999999999999998,granola w milk,1078.9000000059605,1084,1084.0,True,u,37570.5,1591.2999999821186,1669837505730,1591,HRV,HRV_0257,2022-11-30 19:49:58
21,"[{'imgObject': {}, 'id': 'chicken nuggets2', 'src': '/static/foodstim60/chicken nuggets2.jpg', 'key': 'u', 'origWidth': 410, 'origHeight': 409, 'width': 410, 'height': 409, 'widthPercent': 0.45, 'rescaleHeight': False, 'trialN': 21, 'loaded': True, 'loadedTime': 5521.200000017881, 'positionName': 'LEFT', 'positionCoords': [511.6, 335.5], 'bid': 6.6000000000000005}, {'imgObject': {}, 'id': 'burrito', 'src': '/static/foodstim60/burrito.jpg', 'key': 'i', 'origWidth': 410, 'origHeight': 410, 'width': 410, 'height': 410, 'widthPercent': 0.45, 'rescaleHeight': False, 'trialN': 21, 'loaded': True, 'loadedTime': 5541.300000011921, 'positionName': 'RIGHT', 'positionCoords': [998.4, 335], 'bid': 7.21}]",37570.5,1669837505730,chicken nuggets2,burrito,6.6000000000000005,7.21,0.6099999999999994,chicken nuggets2,759.1000000238419,760,759.7000000178814,True,u,38834.60000002384,1264.1000000238419,1669837506994,1264,HRV,HRV_0257,2022-11-30 19:49:58
22,"[{'imgObject': {}, 'id': 'lox', 'src': '/static/foodstim60/lox.jpg', 'key': 'u', 'origWidth': 410, 'origHeight': 411, 'width': 410, 'height': 411, 'widthPercent': 0.45, 'rescaleHeight': False, 'trialN': 22, 'loaded': True, 'loadedTime': 5574.300000011921, 'positionName': 'LEFT', 'positionCoords': [511.6, 334.5], 'bid': 1.23}, {'imgObject': {}, 'id': 'cantaloupe', 'src': '/static/foodstim60/cantaloupe.jpg', 'key': 'i', 'origWidth': 409, 'origHeight': 409, 'width': 409, 'height': 409, 'widthPercent': 0.45, 'rescaleHeight': False, 'trialN': 22, 'loaded': True, 'loadedTime': 5211, 'positionName': 'RIGHT', 'positionCoords': [998.4, 335.5], 'bid': 2.34}]",38835.0,1669837506994,lox,cantaloupe,1.23,2.34,1.1099999999999999,cantaloupe,1284.2000000178814,1286,1286.0,True,i,40626.70000001788,1791.7000000178814,1669837508786,1792,HRV,HRV_0257,2022-11-30 19:49:58
23,"[{'imgObject': {}, 'id': 'grilled chicken strips', 'src': '/static/foodstim60/grilled chicken strips.jpg', 'key': 'u', 'origWidth': 410, 'origHeight': 411, 'width': 410, 'height': 411, 'widthPercent': 0.45, 'rescaleHeight': False, 'trialN': 23, 'loaded': True, 'loadedTime': 5575.100000023842, 'positionName': 'LEFT', 'positionCoords': [511.6, 334.5], 'bid': 5.8100000000000005}, {'imgObject': {}, 'id': 'luckycharms', 'src': '/static/foodstim60/luckycharms.jpg', 'key': 'i', 'origWidth': 410, 'origHeight': 409, 'width': 410, 'height': 409, 'widthPercent': 0.45, 'rescaleHeight': False, 'trialN': 23, 'loaded': True, 'loadedTime': 5649.600000023842, 'positionName': 'RIGHT', 'positionCoords': [998.4, 335.5], 'bid': 9.68}]",40627.0,1669837508786,grilled chicken strips,luckycharms,5.8100000000000005,9.68,3.869999999999999,luckycharms,973.2000000178814,975,974.1000000238419,True,i,42106.70000001788,1479.7000000178814,1669837510266,1480,HRV,HRV_0257,2022-11-30 19:49:58
24,"[{'imgObject': {}, 'id': 'pear', 'src': '/static/foodstim60/pear.jpg', 'key': 'u', 'origWidth': 411, 'origHeight': 410, 'width': 411, 'height': 410, 'widthPercent': 0.45, 'rescaleHeight': False, 'trialN': 24, 'loaded': True, 'loadedTime': 5479.100000023842, 'positionName': 'LEFT', 'positionCoords': [510.6, 335], 'bid': 3.14}, {'imgObject': {}, 'id': 'grilled chicken strips', 'src': '/static/foodstim60/grilled chicken strips.jpg', 'key': 'i', 'origWidth': 410, 'origHeight': 411, 'width': 410, 'height': 411, 'widthPercent': 0.45, 'rescaleHeight': False, 'trialN': 24, 'loaded': True, 'loadedTime': 5649.200000017881, 'positionName': 'RIGHT', 'positionCoords': [998.4, 334.5], 'bid': 5.8100000000000005}]",42107.10000002384,1669837510266,pear,grilled chicken strips,3.14,5.8100000000000005,2.6700000000000004,grilled chicken strips,917.0,919,918.6999999880791,True,i,43530.70000001788,1423.5999999940395,1669837511690,1424,HRV,HRV_0257,2022-11-30 19:49:58
25,"[{'imgObject': {}, 'id': 'cheerios', 'src': '/static/foodstim60/cheerios.jpg', 'key': 'u', 'origWidth': 409, 'origHeight': 410, 'width': 409, 'height': 410, 'widthPercent': 0.45, 'rescaleHeight': False, 'trialN': 25, 'loaded': True, 'loadedTime': 5694.600000023842, 'positionName': 'LEFT', 'positionCoords': [512.6, 335], 'bid': 2.53}, {'imgObject': {}, 'id': 'bagel and cc', 'src': '/static/foodstim60/bagel and cc.jpg', 'key': 'i', 'origWidth': 410, 'origHeight': 410, 'width': 410, 'height': 410, 'widthPercent': 0.45, 'rescaleHeight': False, 'trialN': 25, 'loaded': True, 'loadedTime': 5255.300000011921, 'positionName': 'RIGHT', 'positionCoords': [998.4, 335], 'bid': 4.38}]",43531.20000001788,1669837511691,cheerios,bagel and cc,2.53,4.38,1.85,bagel and cc,961.5999999940395,962,962.7999999821186,True,i,44994.80000001192,1463.5999999940395,1669837513154,1463,HRV,HRV_0257,2022-11-30 19:49:58
26,"[{'imgObject': {}, 'id': 'cherries', 'src': '/static/foodstim60/cherries.jpg', 'key': 'u', 'origWidth': 410, 'origHeight': 411, 'width': 410, 'height': 411, 'widthPercent': 0.45, 'rescaleHeight': False, 'trialN': 26, 'loaded': True, 'loadedTime': 5274.9000000059605, 'positionName': 'LEFT', 'positionCoords': [511.6, 334.5], 'bid': 1.35}, {'imgObject': {}, 'id': 'shreddedwheatwithmilk', 'src': '/static/foodstim60/shreddedwheatwithmilk.jpg', 'key': 'i', 'origWidth': 410, 'origHeight': 410, 'width': 410, 'height': 410, 'widthPercent': 0.45, 'rescaleHeight': False, 'trialN': 26, 'loaded': True, 'loadedTime': 5233.800000011921, 'positionName': 'RIGHT', 'positionCoords': [998.4, 335], 'bid': 1.36}]",44995.30000001192,1669837513155,cherries,shreddedwheatwithmilk,1.35,1.36,0.010000000000000009,shreddedwheatwithmilk,1471.800000011921,1473,1473.5,True,i,46970.60000002384,1975.300000011921,1669837515130,1975,HRV,HRV_0257,2022-11-30 19:49:58
27,"[{'imgObject': {}, 'id': 'cocktailshrimp', 'src': '/static/foodstim60/cocktailshrimp.jpg', 'key': 'u', 'origWidth': 410, 'origHeight': 410, 'width': 410, 'height': 410, 'widthPercent': 0.45, 'rescaleHeight': False, 'trialN': 27, 'loaded': True, 'loadedTime': 5702.100000023842, 'positionName': 'LEFT', 'positionCoords': [511.6, 335], 'bid': 2.35}, {'imgObject': {}, 'id': 'rigatoni', 'src': '/static/foodstim60/rigatoni.jpg', 'key': 'i', 'origWidth': 411, 'origHeight': 411, 'width': 411, 'height': 411, 'widthPercent': 0.45, 'rescaleHeight': False, 'trialN': 27, 'loaded': True, 'loadedTime': 5708.4000000059605, 'positionName': 'RIGHT', 'positionCoords': [998.4, 334.5], 'bid': 2.08}]",46970.70000001788,1669837515130,cocktailshrimp,rigatoni,2.35,2.08,-0.27,rigatoni,985.9000000059605,987,987.2999999821186,True,i,48458.40000000596,1487.699999988079,1669837516618,1488,HRV,HRV_0257,2022-11-30 19:49:58
28,"[{'imgObject': {}, 'id': 'popsicles', 'src': '/static/foodstim60/popsicles.jpg', 'key': 'u', 'origWidth': 410, 'origHeight': 410, 'width': 410, 'height': 410, 'widthPercent': 0.45, 'rescaleHeight': False, 'trialN': 28, 'loaded': True, 'loadedTime': 5308.4000000059605, 'positionName': 'LEFT', 'positionCoords': [511.6, 335], 'bid': 9.84}, {'imgObject': {}, 'id': 'froot loops w milk', 'src': '/static/foodstim60/froot loops w milk.jpg', 'key': 'i', 'origWidth': 410, 'origHeight': 410, 'width': 410, 'height': 410, 'widthPercent': 0.45, 'rescaleHeight': False, 'trialN': 28, 'loaded': True, 'loadedTime': 5752, 'positionName': 'RIGHT', 'positionCoords': [998.4, 335], 'bid': 9.52}]",48458.60000002384,1669837516618,popsicles,froot loops w milk,9.84,9.52,-0.3200000000000003,popsicles,686.0,687,687.2999999821186,True,u,49650.70000001788,1192.0999999940395,1669837517810,1192,HRV,HRV_0257,2022-11-30 19:49:58
29,"[{'imgObject': {}, 'id': 'blackbeanswithrice', 'src': '/static/foodstim60/blackbeanswithrice.jpg', 'key': 'u', 'origWidth': 410, 'origHeight': 410, 'width': 410, 'height': 410, 'widthPercent': 0.45, 'rescaleHeight': False, 'trialN': 29, 'loaded': True, 'loadedTime': 5038.100000023842, 'positionName': 'LEFT', 'positionCoords': [511.6, 335], 'bid': 0.95}, {'imgObject': {}, 'id': 'mango', 'src': '/static/foodstim60/mango.jpg', 'key': 'i', 'origWidth': 411, 'origHeight': 411, 'width': 411, 'height': 411, 'widthPercent': 0.45, 'rescaleHeight': False, 'trialN': 29, 'loaded': True, 'loadedTime': 5175.600000023842, 'positionName': 'RIGHT', 'positionCoords': [998.4, 334.5], 'bid': 1.97}]",49651.10000002384,1669837517810,blackbeanswithrice,mango,0.95,1.97,1.02,mango,1105.699999988079,1108,1107.0999999940395,True,i,51258.70000001788,1607.5999999940395,1669837519418,1608,HRV,HRV_0257,2022-11-30 19:49:58
30,"[{'imgObject': {}, 'id': 'raisin bran w milk', 'src': '/static/foodstim60/raisin bran w milk.jpg', 'key': 'u', 'origWidth': 411, 'origHeight': 411, 'width': 411, 'height': 411, 'widthPercent': 0.45, 'rescaleHeight': False, 'trialN': 30, 'loaded': True, 'loadedTime': 5753.700000017881, 'positionName': 'LEFT', 'positionCoords': [510.6, 334.5], 'bid': 0.43}, {'imgObject': {}, 'id': 'rigatoni and sauce', 'src': '/static/foodstim60/rigatoni and sauce.jpg', 'key': 'i', 'origWidth': 410, 'origHeight': 411, 'width': 410, 'height': 411, 'widthPercent': 0.45, 'rescaleHeight': False, 'trialN': 30, 'loaded': True, 'loadedTime': 5487.300000011921, 'positionName': 'RIGHT', 'positionCoords': [998.4, 334.5], 'bid': 2.21}]",51259.0,1669837519418,raisin bran w milk,rigatoni and sauce,0.43,2.21,1.78,rigatoni and sauce,1074.800000011921,1077,1076.2000000178814,True,i,52842.80000001192,1583.800000011921,1669837521002,1584,HRV,HRV_0257,2022-11-30 19:49:58
31,"[{'imgObject': {}, 'id': 'granola w milk', 'src': '/static/foodstim60/granola w milk.jpg', 'key': 'u', 'origWidth': 410, 'origHeight': 410, 'width': 410, 'height': 410, 'widthPercent': 0.45, 'rescaleHeight': False, 'trialN': 31, 'loaded': True, 'loadedTime': 5503.4000000059605, 'positionName': 'LEFT', 'positionCoords': [511.6, 335], 'bid': 0.91}, {'imgObject': {}, 'id': 'kiwi', 'src': '/static/foodstim60/kiwi.jpg', 'key': 'i', 'origWidth': 410, 'origHeight': 410, 'width': 410, 'height': 410, 'widthPercent': 0.45, 'rescaleHeight': False, 'trialN': 31, 'loaded': True, 'loadedTime': 5758.600000023842, 'positionName': 'RIGHT', 'positionCoords': [998.4, 335], 'bid': 1.56}]",52843.0,1669837521002,granola w milk,kiwi,0.91,1.56,0.65,granola w milk,1107.800000011921,1109,1108.4000000059605,True,u,54458.60000002384,1615.6000000238419,1669837522618,1616,HRV,HRV_0257,2022-11-30 19:49:58
32,"[{'imgObject': {}, 'id': 'roastedpotatoes', 'src': '/static/foodstim60/roastedpotatoes.jpg', 'key': 'u', 'origWidth': 409, 'origHeight': 410, 'width': 409, 'height': 410, 'widthPercent': 0.45, 'rescaleHeight': False, 'trialN': 32, 'loaded': True, 'loadedTime': 5381.300000011921, 'positionName': 'LEFT', 'positionCoords': [512.6, 335], 'bid': 5.51}, {'imgObject': {}, 'id': 'popsicles', 'src': '/static/foodstim60/popsicles.jpg', 'key': 'i', 'origWidth': 410, 'origHeight': 410, 'width': 410, 'height': 410, 'widthPercent': 0.45, 'rescaleHeight': False, 'trialN': 32, 'loaded': True, 'loadedTime': 5309, 'positionName': 'RIGHT', 'positionCoords': [998.4, 335], 'bid': 9.84}]",54458.80000001192,1669837522618,roastedpotatoes,popsicles,5.51,9.84,4.33,roastedpotatoes,843.4000000059605,846,845.5,True,u,55810.60000002384,1351.800000011921,1669837523970,1352,HRV,HRV_0257,2022-11-30 19:49:58
33,"[{'imgObject': {}, 'id': 'sweetpotato', 'src': '/static/foodstim60/sweetpotato.jpg', 'key': 'u', 'origWidth': 410, 'origHeight': 410, 'width': 410, 'height': 410, 'widthPercent': 0.45, 'rescaleHeight': False, 'trialN': 33, 'loaded': True, 'loadedTime': 5781.9000000059605, 'positionName': 'LEFT', 'positionCoords': [511.6, 335], 'bid': 5.62}, {'imgObject': {}, 'id': 'blueberries', 'src': '/static/foodstim60/blueberries.jpg', 'key': 'i', 'origWidth': 411, 'origHeight': 411, 'width': 411, 'height': 411, 'widthPercent': 0.45, 'rescaleHeight': False, 'trialN': 33, 'loaded': True, 'loadedTime': 5758.9000000059605, 'positionName': 'RIGHT', 'positionCoords': [998.4, 334.5], 'bid': 2.98}]",55810.80000001192,1669837523970,sweetpotato,blueberries,5.62,2.98,-2.64,sweetpotato,1261.0,1263,1262.300000011921,True,u,57578.70000001788,1767.9000000059605,1669837525738,1768,HRV,HRV_0257,2022-11-30 19:49:58
34,"[{'imgObject': {}, 'id': 'burrito', 'src': '/static/foodstim60/burrito.jpg', 'key': 'u', 'origWidth': 410, 'origHeight': 410, 'width': 410, 'height': 410, 'widthPercent': 0.45, 'rescaleHeight': False, 'trialN': 34, 'loaded': True, 'loadedTime': 5541.700000017881, 'positionName': 'LEFT', 'positionCoords': [511.6, 335], 'bid': 7.21}, {'imgObject': {}, 'id': 'roastedpotatoes', 'src': '/static/foodstim60/roastedpotatoes.jpg', 'key': 'i', 'origWidth': 409, 'origHeight': 410, 'width': 409, 'height': 410, 'widthPercent': 0.45, 'rescaleHeight': False, 'trialN': 34, 'loaded': True, 'loadedTime': 5377, 'positionName': 'RIGHT', 'positionCoords': [998.4, 335], 'bid': 5.51}]",57579.0,1669837525738,burrito,roastedpotatoes,7.21,5.51,-1.7000000000000002,burrito,1704.1000000238419,1706,1705.6000000238419,True,u,59786.80000001192,2207.800000011921,1669837527946,2208,HRV,HRV_0257,2022-11-30 19:49:58
35,"[{'imgObject': {}, 'id': 'cocktailshrimp', 'src': '/static/foodstim60/cocktailshrimp.jpg', 'key': 'u', 'origWidth': 410, 'origHeight': 410, 'width': 410, 'height': 410, 'widthPercent': 0.45, 'rescaleHeight': False, 'trialN': 35, 'loaded': True, 'loadedTime': 5703.100000023842, 'positionName': 'LEFT', 'positionCoords': [511.6, 335], 'bid': 2.35}, {'imgObject': {}, 'id': 'turkeysandwich', 'src': '/static/foodstim60/turkeysandwich.jpg', 'key': 'i', 'origWidth': 409, 'origHeight': 409, 'width': 409, 'height': 409, 'widthPercent': 0.45, 'rescaleHeight': False, 'trialN': 35, 'loaded': True, 'loadedTime': 5819.600000023842, 'positionName': 'RIGHT', 'positionCoords': [998.4, 335.5], 'bid': 7.05}]",59787.0,1669837527946,cocktailshrimp,turkeysandwich,2.35,7.05,4.699999999999999,turkeysandwich,817.6000000238419,819,818.7000000178814,True,i,61106.5,1319.5,1669837529266,1320,HRV,HRV_0257,2022-11-30 19:49:58
36,"[{'imgObject': {}, 'id': 'strawberries', 'src': '/static/foodstim60/strawberries.jpg', 'key': 'u', 'origWidth': 410, 'origHeight': 410, 'width': 410, 'height': 410, 'widthPercent': 0.45, 'rescaleHeight': False, 'trialN': 36, 'loaded': True, 'loadedTime': 5820.100000023842, 'positionName': 'LEFT', 'positionCoords': [511.6, 335], 'bid': 2.42}, {'imgObject': {}, 'id': 'fruitsalad', 'src': '/static/foodstim60/fruitsalad.jpg', 'key': 'i', 'origWidth': 410, 'origHeight': 410, 'width': 410, 'height': 410, 'widthPercent': 0.45, 'rescaleHeight': False, 'trialN': 36, 'loaded': True, 'loadedTime': 4972.100000023842, 'positionName': 'RIGHT', 'positionCoords': [998.4, 335], 'bid': 2.46}]",61106.60000002384,1669837529266,strawberries,fruitsalad,2.42,2.46,0.040000000000000036,strawberries,1528.7999999821186,1530,1530.199999988079,True,u,63138.40000000596,2031.7999999821186,1669837531298,2032,HRV,HRV_0257,2022-11-30 19:49:58
37,"[{'imgObject': {}, 'id': 'olives', 'src': '/static/foodstim60/olives.jpg', 'key': 'u', 'origWidth': 410, 'origHeight': 410, 'width': 410, 'height': 410, 'widthPercent': 0.45, 'rescaleHeight': False, 'trialN': 37, 'loaded': True, 'loadedTime': 5935.300000011921, 'positionName': 'LEFT', 'positionCoords': [511.6, 335], 'bid': 0.17}, {'imgObject': {}, 'id': 'seaweed', 'src': '/static/foodstim60/seaweed.jpg', 'key': 'i', 'origWidth': 410, 'origHeight': 410, 'width': 410, 'height': 410, 'widthPercent': 0.45, 'rescaleHeight': False, 'trialN': 37, 'loaded': True, 'loadedTime': 5261.5, 'positionName': 'RIGHT', 'positionCoords': [998.4, 335], 'bid': 1.43}]",63138.60000002384,1669837531298,olives,seaweed,0.17,1.43,1.26,olives,1456.7999999821186,1459,1458.5,True,u,65098.40000000596,1959.7999999821186,1669837533258,1960,HRV,HRV_0257,2022-11-30 19:49:58
38,"[{'imgObject': {}, 'id': 'sweetpotato', 'src': '/static/foodstim60/sweetpotato.jpg', 'key': 'u', 'origWidth': 410, 'origHeight': 410, 'width': 410, 'height': 410, 'widthPercent': 0.45, 'rescaleHeight': False, 'trialN': 38, 'loaded': True, 'loadedTime': 5782.200000017881, 'positionName': 'LEFT', 'positionCoords': [511.6, 335], 'bid': 5.62}, {'imgObject': {}, 'id': 'Tribe humus pita', 'src': '/static/foodstim60/Tribe humus pita.jpg', 'key': 'i', 'origWidth': 411, 'origHeight': 411, 'width': 411, 'height': 411, 'widthPercent': 0.45, 'rescaleHeight': False, 'trialN': 38, 'loaded': True, 'loadedTime': 5940.100000023842, 'positionName': 'RIGHT', 'positionCoords': [998.4, 334.5], 'bid': 4.61}]",65098.60000002384,1669837533258,sweetpotato,Tribe humus pita,5.62,4.61,-1.0099999999999998,Tribe humus pita,1612.199999988079,1614,1614.199999988079,True,i,67218.80000001192,2120.199999988079,1669837535378,2120,HRV,HRV_0257,2022-11-30 19:49:58
39,"[{'imgObject': {}, 'id': 'bagel plain', 'src': '/static/foodstim60/bagel plain.jpg', 'key': 'u', 'origWidth': 410, 'origHeight': 410, 'width': 410, 'height': 410, 'widthPercent': 0.45, 'rescaleHeight': False, 'trialN': 39, 'loaded': True, 'loadedTime': 5990.9000000059605, 'positionName': 'LEFT', 'positionCoords': [511.6, 335], 'bid': 4.5200000000000005}, {'imgObject': {}, 'id': 'turkeysandwich', 'src': '/static/foodstim60/turkeysandwich.jpg', 'key': 'i', 'origWidth': 409, 'origHeight': 409, 'width': 409, 'height': 409, 'widthPercent': 0.45, 'rescaleHeight': False, 'trialN': 39, 'loaded': True, 'loadedTime': 5819.800000011921, 'positionName': 'RIGHT', 'positionCoords': [998.4, 335.5], 'bid': 7.05}]",67219.20000001788,1669837535379,bagel plain,turkeysandwich,4.5200000000000005,7.05,2.5299999999999994,turkeysandwich,1008.5,1010,1009.9000000059605,True,i,68730.70000001788,1511.5,1669837536890,1511,HRV,HRV_0257,2022-11-30 19:49:58
40,"[{'imgObject': {}, 'id': 'burrito', 'src': '/static/foodstim60/burrito.jpg', 'key': 'u', 'origWidth': 410, 'origHeight': 410, 'width': 410, 'height': 410, 'widthPercent': 0.45, 'rescaleHeight': False, 'trialN': 40, 'loaded': True, 'loadedTime': 5541.4000000059605, 'positionName': 'LEFT', 'positionCoords': [511.6, 335], 'bid': 7.21}, {'imgObject': {}, 'id': 'steak', 'src': '/static/foodstim60/steak.jpg', 'key': 'i', 'origWidth': 410, 'origHeight': 410, 'width': 410, 'height': 410, 'widthPercent': 0.45, 'rescaleHeight': False, 'trialN': 40, 'loaded': True, 'loadedTime': 6035.600000023842, 'positionName': 'RIGHT', 'positionCoords': [998.4, 335], 'bid': 7.38}]",68730.80000001192,1669837536890,burrito,steak,7.21,7.38,0.16999999999999993,steak,1244.5999999940395,1247,1246.800000011921,True,i,70482.80000001192,1752.0,1669837538642,1752,HRV,HRV_0257,2022-11-30 19:49:58
41,"[{'imgObject': {}, 'id': 'lox', 'src': '/static/foodstim60/lox.jpg', 'key': 'u', 'origWidth': 410, 'origHeight': 411, 'width': 410, 'height': 411, 'widthPercent': 0.45, 'rescaleHeight': False, 'trialN': 41, 'loaded': True, 'loadedTime': 5574.600000023842, 'positionName': 'LEFT', 'positionCoords': [511.6, 334.5], 'bid': 1.23}, {'imgObject': {}, 'id': 'blackbeanswithrice', 'src': '/static/foodstim60/blackbeanswithrice.jpg', 'key': 'i', 'origWidth': 410, 'origHeight': 410, 'width': 410, 'height': 410, 'widthPercent': 0.45, 'rescaleHeight': False, 'trialN': 41, 'loaded': True, 'loadedTime': 5065.600000023842, 'positionName': 'RIGHT', 'positionCoords': [998.4, 335], 'bid': 0.95}]",70483.10000002384,1669837538642,lox,blackbeanswithrice,1.23,0.95,-0.28,blackbeanswithrice,1461.8999999761581,1463,1462.5,True,i,72450.70000001788,1967.5999999940395,1669837540610,1968,HRV,HRV_0257,2022-11-30 19:49:58
42,"[{'imgObject': {}, 'id': 'turkeysandwich', 'src': '/static/foodstim60/turkeysandwich.jpg', 'key': 'u', 'origWidth': 409, 'origHeight': 409, 'width': 409, 'height': 409, 'widthPercent': 0.45, 'rescaleHeight': False, 'trialN': 42, 'loaded': True, 'loadedTime': 5819.9000000059605, 'positionName': 'LEFT', 'positionCoords': [512.6, 335.5], 'bid': 7.05}, {'imgObject': {}, 'id': 'chicken nuggets2', 'src': '/static/foodstim60/chicken nuggets2.jpg', 'key': 'i', 'origWidth': 410, 'origHeight': 409, 'width': 410, 'height': 409, 'widthPercent': 0.45, 'rescaleHeight': False, 'trialN': 42, 'loaded': True, 'loadedTime': 5505.4000000059605, 'positionName': 'RIGHT', 'positionCoords': [998.4, 335.5], 'bid': 6.6000000000000005}]",72451.0,1669837540610,turkeysandwich,chicken nuggets2,7.05,6.6000000000000005,-0.4499999999999993,chicken nuggets2,1327.2000000178814,1330,1329.300000011921,True,i,74282.60000002384,1831.6000000238419,1669837542442,1832,HRV,HRV_0257,2022-11-30 19:49:58
43,"[{'imgObject': {}, 'id': 'raisin bran w milk', 'src': '/static/foodstim60/raisin bran w milk.jpg', 'key': 'u', 'origWidth': 411, 'origHeight': 411, 'width': 411, 'height': 411, 'widthPercent': 0.45, 'rescaleHeight': False, 'trialN': 43, 'loaded': True, 'loadedTime': 5753.9000000059605, 'positionName': 'LEFT', 'positionCoords': [510.6, 334.5], 'bid': 0.43}, {'imgObject': {}, 'id': 'eggsalad', 'src': '/static/foodstim60/eggsalad.jpg', 'key': 'i', 'origWidth': 410, 'origHeight': 409, 'width': 410, 'height': 409, 'widthPercent': 0.45, 'rescaleHeight': False, 'trialN': 43, 'loaded': True, 'loadedTime': 4923.9000000059605, 'positionName': 'RIGHT', 'positionCoords': [998.4, 335.5], 'bid': 1.66}]",74282.70000001788,1669837542442,raisin bran w milk,eggsalad,0.43,1.66,1.23,eggsalad,1719.2999999821186,1723,1722.4000000059605,True,i,76506.80000001192,2224.0999999940395,1669837544666,2224,HRV,HRV_0257,2022-11-30 19:49:58
44,"[{'imgObject': {}, 'id': 'ice cream sundae 002', 'src': '/static/foodstim60/ice cream sundae 002.jpg', 'key': 'u', 'origWidth': 409, 'origHeight': 409, 'width': 409, 'height': 409, 'widthPercent': 0.45, 'rescaleHeight': False, 'trialN': 44, 'loaded': True, 'loadedTime': 6043.9000000059605, 'positionName': 'LEFT', 'positionCoords': [512.6, 335.5], 'bid': 3.71}, {'imgObject': {}, 'id': 'blackbeanswithrice', 'src': '/static/foodstim60/blackbeanswithrice.jpg', 'key': 'i', 'origWidth': 410, 'origHeight': 410, 'width': 410, 'height': 410, 'widthPercent': 0.45, 'rescaleHeight': False, 'trialN': 44, 'loaded': True, 'loadedTime': 5066.200000017881, 'positionName': 'RIGHT', 'positionCoords': [998.4, 335], 'bid': 0.95}]",76507.0,1669837544666,ice cream sundae 002,blackbeanswithrice,3.71,0.95,-2.76,ice cream sundae 002,992.0,994,993.1000000238419,True,u,78002.40000000596,1495.4000000059605,1669837546162,1496,HRV,HRV_0257,2022-11-30 19:49:58
45,"[{'imgObject': {}, 'id': 'orange slices', 'src': '/static/foodstim60/orange slices.jpg', 'key': 'u', 'origWidth': 409, 'origHeight': 410, 'width': 409, 'height': 410, 'widthPercent': 0.45, 'rescaleHeight': False, 'trialN': 45, 'loaded': True, 'loadedTime': 6048.700000017881, 'positionName': 'LEFT', 'positionCoords': [512.6, 335], 'bid': 2.87}, {'imgObject': {}, 'id': 'apple slices', 'src': '/static/foodstim60/apple slices.jpg', 'key': 'i', 'origWidth': 409, 'origHeight': 410, 'width': 409, 'height': 410, 'widthPercent': 0.45, 'rescaleHeight': False, 'trialN': 45, 'loaded': True, 'loadedTime': 6068.700000017881, 'positionName': 'RIGHT', 'positionCoords': [998.4, 335], 'bid': 2.7}]",78002.5,1669837546162,orange slices,apple slices,2.87,2.7,-0.16999999999999993,apple slices,1399.4000000059605,1401,1400.7000000178814,True,i,79906.5,1904.0,1669837548066,1904,HRV,HRV_0257,2022-11-30 19:49:58
46,"[{'imgObject': {}, 'id': 'chickenfingers', 'src': '/static/foodstim60/chickenfingers.jpg', 'key': 'u', 'origWidth': 410, 'origHeight': 410, 'width': 410, 'height': 410, 'widthPercent': 0.45, 'rescaleHeight': False, 'trialN': 46, 'loaded': True, 'loadedTime': 4966.700000017881, 'positionName': 'LEFT', 'positionCoords': [511.6, 335], 'bid': 6.15}, {'imgObject': {}, 'id': 'grilled chicken strips', 'src': '/static/foodstim60/grilled chicken strips.jpg', 'key': 'i', 'origWidth': 410, 'origHeight': 411, 'width': 410, 'height': 411, 'widthPercent': 0.45, 'rescaleHeight': False, 'trialN': 46, 'loaded': True, 'loadedTime': 5620, 'positionName': 'RIGHT', 'positionCoords': [998.4, 334.5], 'bid': 5.8100000000000005}]",79906.70000001788,1669837548066,chickenfingers,grilled chicken strips,6.15,5.8100000000000005,-0.33999999999999986,chickenfingers,1835.199999988079,1837,1836.5999999940395,True,u,82251.30000001192,2344.5999999940395,1669837550411,2345,HRV,HRV_0257,2022-11-30 19:49:58
47,"[{'imgObject': {}, 'id': 'raspberries', 'src': '/static/foodstim60/raspberries.jpg', 'key': 'u', 'origWidth': 411, 'origHeight': 411, 'width': 411, 'height': 411, 'widthPercent': 0.45, 'rescaleHeight': False, 'trialN': 47, 'loaded': True, 'loadedTime': 6071.200000017881, 'positionName': 'LEFT', 'positionCoords': [510.6, 334.5], 'bid': 3.48}, {'imgObject': {}, 'id': 'eggs', 'src': '/static/foodstim60/eggs.jpg', 'key': 'i', 'origWidth': 409, 'origHeight': 409, 'width': 409, 'height': 409, 'widthPercent': 0.45, 'rescaleHeight': False, 'trialN': 47, 'loaded': True, 'loadedTime': 5466.300000011921, 'positionName': 'RIGHT', 'positionCoords': [998.4, 335.5], 'bid': 2.8000000000000003}]",82251.30000001192,1669837550411,raspberries,eggs,3.48,2.8000000000000003,-0.6799999999999997,eggs,1589.199999988079,1590,1590.0,True,i,84346.40000000596,2095.0999999940395,1669837552506,2095,HRV,HRV_0257,2022-11-30 19:49:58
48,"[{'imgObject': {}, 'id': 'yogurt no spoon', 'src': '/static/foodstim60/yogurt no spoon.jpg', 'key': 'u', 'origWidth': 411, 'origHeight': 410, 'width': 411, 'height': 410, 'widthPercent': 0.45, 'rescaleHeight': False, 'trialN': 48, 'loaded': True, 'loadedTime': 5492.4000000059605, 'positionName': 'LEFT', 'positionCoords': [510.6, 335], 'bid': 3.09}, {'imgObject': {}, 'id': 'cantaloupe', 'src': '/static/foodstim60/cantaloupe.jpg', 'key': 'i', 'origWidth': 409, 'origHeight': 409, 'width': 409, 'height': 409, 'widthPercent': 0.45, 'rescaleHeight': False, 'trialN': 48, 'loaded': True, 'loadedTime': 5209.800000011921, 'positionName': 'RIGHT', 'positionCoords': [998.4, 335.5], 'bid': 2.34}]",84346.60000002384,1669837552506,yogurt no spoon,cantaloupe,3.09,2.34,-0.75,yogurt no spoon,1176.8999999761581,1178,1178.2999999821186,True,u,86026.40000000596,1679.7999999821186,1669837554186,1680,HRV,HRV_0257,2022-11-30 19:49:58
49,"[{'imgObject': {}, 'id': 'banana', 'src': '/static/foodstim60/banana.jpg', 'key': 'u', 'origWidth': 410, 'origHeight': 410, 'width': 410, 'height': 410, 'widthPercent': 0.45, 'rescaleHeight': False, 'trialN': 49, 'loaded': True, 'loadedTime': 5196.100000023842, 'positionName': 'LEFT', 'positionCoords': [511.6, 335], 'bid': 1.69}, {'imgObject': {}, 'id': 'salmon', 'src': '/static/foodstim60/salmon.jpg', 'key': 'i', 'origWidth': 410, 'origHeight': 409, 'width': 410, 'height': 409, 'widthPercent': 0.45, 'rescaleHeight': False, 'trialN': 49, 'loaded': True, 'loadedTime': 5476.5, 'positionName': 'RIGHT', 'positionCoords': [998.4, 335.5], 'bid': 1.63}]",86026.60000002384,1669837554186,banana,salmon,1.69,1.63,-0.06000000000000005,salmon,849.5999999940395,852,852.0,True,i,87386.40000000596,1359.7999999821186,1669837555546,1360,HRV,HRV_0257,2022-11-30 19:49:58
50,"[{'imgObject': {}, 'id': 'Tribe humus pita', 'src': '/static/foodstim60/Tribe humus pita.jpg', 'key': 'u', 'origWidth': 411, 'origHeight': 411, 'width': 411, 'height': 411, 'widthPercent': 0.45, 'rescaleHeight': False, 'trialN': 50, 'loaded': True, 'loadedTime': 5985.300000011921, 'positionName': 'LEFT', 'positionCoords': [510.6, 334.5], 'bid': 4.61}, {'imgObject': {}, 'id': 'avocado', 'src': '/static/foodstim60/avocado.jpg', 'key': 'i', 'origWidth': 409, 'origHeight': 409, 'width': 409, 'height': 409, 'widthPercent': 0.45, 'rescaleHeight': False, 'trialN': 50, 'loaded': True, 'loadedTime': 5035.600000023842, 'positionName': 'RIGHT', 'positionCoords': [998.4, 335.5], 'bid': 4.68}]",87386.5,1669837555546,Tribe humus pita,avocado,4.61,4.68,0.0699999999999994,Tribe humus pita,1066.800000011921,1069,1068.7000000178814,True,u,88962.80000001192,1576.300000011921,1669837557122,1576,HRV,HRV_0257,2022-11-30 19:49:58
51,"[{'imgObject': {}, 'id': 'steak', 'src': '/static/foodstim60/steak.jpg', 'key': 'u', 'origWidth': 410, 'origHeight': 410, 'width': 410, 'height': 410, 'widthPercent': 0.45, 'rescaleHeight': False, 'trialN': 51, 'loaded': True, 'loadedTime': 6036.100000023842, 'positionName': 'LEFT', 'positionCoords': [511.6, 335], 'bid': 7.38}, {'imgObject': {}, 'id': 'baked potato', 'src': '/static/foodstim60/baked potato.jpg', 'key': 'i', 'origWidth': 409, 'origHeight': 410, 'width': 409, 'height': 410, 'widthPercent': 0.45, 'rescaleHeight': False, 'trialN': 51, 'loaded': True, 'loadedTime': 5432.600000023842, 'positionName': 'RIGHT', 'positionCoords': [998.4, 335], 'bid': 5.6000000000000005}]",88963.10000002384,1669837557123,steak,baked potato,7.38,5.6000000000000005,-1.7799999999999994,steak,1039.0999999940395,1041,1041.0,True,u,90506.80000001192,1543.699999988079,1669837558666,1543,HRV,HRV_0257,2022-11-30 19:49:58
52,"[{'imgObject': {}, 'id': 'steak', 'src': '/static/foodstim60/steak.jpg', 'key': 'u', 'origWidth': 410, 'origHeight': 410, 'width': 410, 'height': 410, 'widthPercent': 0.45, 'rescaleHeight': False, 'trialN': 52, 'loaded': True, 'loadedTime': 6031.800000011921, 'positionName': 'LEFT', 'positionCoords': [511.6, 335], 'bid': 7.38}, {'imgObject': {}, 'id': 'corn cob', 'src': '/static/foodstim60/corn cob.jpg', 'key': 'i', 'origWidth': 411, 'origHeight': 411, 'width': 411, 'height': 411, 'widthPercent': 0.45, 'rescaleHeight': False, 'trialN': 52, 'loaded': True, 'loadedTime': 6073.300000011921, 'positionName': 'RIGHT', 'positionCoords': [998.4, 334.5], 'bid': 2.43}]",90507.10000002384,1669837558666,steak,corn cob,7.38,2.43,-4.949999999999999,steak,1080.0,1082,1081.0,True,u,92090.70000001788,1583.5999999940395,1669837560250,1584,HRV,HRV_0257,2022-11-30 19:49:58
53,"[{'imgObject': {}, 'id': 'tacos', 'src': '/static/foodstim60/tacos.jpg', 'key': 'u', 'origWidth': 411, 'origHeight': 411, 'width': 411, 'height': 411, 'widthPercent': 0.45, 'rescaleHeight': False, 'trialN': 53, 'loaded': True, 'loadedTime': 4985.700000017881, 'positionName': 'LEFT', 'positionCoords': [510.6, 334.5], 'bid': 7.95}, {'imgObject': {}, 'id': 'sweetpotato', 'src': '/static/foodstim60/sweetpotato.jpg', 'key': 'i', 'origWidth': 410, 'origHeight': 410, 'width': 410, 'height': 410, 'widthPercent': 0.45, 'rescaleHeight': False, 'trialN': 53, 'loaded': True, 'loadedTime': 5782, 'positionName': 'RIGHT', 'positionCoords': [998.4, 335], 'bid': 5.62}]",92091.10000002384,1669837560250,tacos,sweetpotato,7.95,5.62,-2.33,tacos,972.6999999880791,975,974.5,True,u,93572.10000002384,1481.0,1669837561732,1482,HRV,HRV_0257,2022-11-30 19:49:58
54,"[{'imgObject': {}, 'id': 'luckycharms', 'src': '/static/foodstim60/luckycharms.jpg', 'key': 'u', 'origWidth': 410, 'origHeight': 409, 'width': 410, 'height': 409, 'widthPercent': 0.45, 'rescaleHeight': False, 'trialN': 54, 'loaded': True, 'loadedTime': 5650.700000017881, 'positionName': 'LEFT', 'positionCoords': [511.6, 335.5], 'bid': 9.68}, {'imgObject': {}, 'id': 'apple slices', 'src': '/static/foodstim60/apple slices.jpg', 'key': 'i', 'origWidth': 409, 'origHeight': 410, 'width': 409, 'height': 410, 'widthPercent': 0.45, 'rescaleHeight': False, 'trialN': 54, 'loaded': True, 'loadedTime': 6069.200000017881, 'positionName': 'RIGHT', 'positionCoords': [998.4, 335], 'bid': 2.7}]",93572.30000001192,1669837561732,luckycharms,apple slices,9.68,2.7,-6.9799999999999995,luckycharms,814.0,814,814.6999999880791,True,u,94890.5,1318.199999988079,1669837563050,1318,HRV,HRV_0257,2022-11-30 19:49:58
55,"[{'imgObject': {}, 'id': 'blueberries', 'src': '/static/foodstim60/blueberries.jpg', 'key': 'u', 'origWidth': 411, 'origHeight': 411, 'width': 411, 'height': 411, 'widthPercent': 0.45, 'rescaleHeight': False, 'trialN': 55, 'loaded': True, 'loadedTime': 5780.300000011921, 'positionName': 'LEFT', 'positionCoords': [510.6, 334.5], 'bid': 2.98}, {'imgObject': {}, 'id': 'corn cob', 'src': '/static/foodstim60/corn cob.jpg', 'key': 'i', 'origWidth': 411, 'origHeight': 411, 'width': 411, 'height': 411, 'widthPercent': 0.45, 'rescaleHeight': False, 'trialN': 55, 'loaded': True, 'loadedTime': 6073.100000023842, 'positionName': 'RIGHT', 'positionCoords': [998.4, 334.5], 'bid': 2.43}]",94890.80000001192,1669837563050,blueberries,corn cob,2.98,2.43,-0.5499999999999998,blueberries,1083.0999999940395,1084,1083.5999999940395,True,u,96474.70000001788,1583.9000000059605,1669837564634,1584,HRV,HRV_0257,2022-11-30 19:49:58
56,"[{'imgObject': {}, 'id': 'steak', 'src': '/static/foodstim60/steak.jpg', 'key': 'u', 'origWidth': 410, 'origHeight': 410, 'width': 410, 'height': 410, 'widthPercent': 0.45, 'rescaleHeight': False, 'trialN': 56, 'loaded': True, 'loadedTime': 6036.200000017881, 'positionName': 'LEFT', 'positionCoords': [511.6, 335], 'bid': 7.38}, {'imgObject': {}, 'id': 'Tribe humus pita', 'src': '/static/foodstim60/Tribe humus pita.jpg', 'key': 'i', 'origWidth': 411, 'origHeight': 411, 'width': 411, 'height': 411, 'widthPercent': 0.45, 'rescaleHeight': False, 'trialN': 56, 'loaded': True, 'loadedTime': 5941, 'positionName': 'RIGHT', 'positionCoords': [998.4, 334.5], 'bid': 4.61}]",96475.0,1669837564634,steak,Tribe humus pita,7.38,4.61,-2.7699999999999996,steak,892.8000000119209,895,894.1000000238419,True,u,97874.5,1399.5,1669837566034,1400,HRV,HRV_0257,2022-11-30 19:49:58
57,"[{'imgObject': {}, 'id': 'blackbeanswithrice', 'src': '/static/foodstim60/blackbeanswithrice.jpg', 'key': 'u', 'origWidth': 410, 'origHeight': 410, 'width': 410, 'height': 410, 'widthPercent': 0.45, 'rescaleHeight': False, 'trialN': 57, 'loaded': True, 'loadedTime': 5102.200000017881, 'positionName': 'LEFT', 'positionCoords': [511.6, 335], 'bid': 0.95}, {'imgObject': {}, 'id': 'mashed potato', 'src': '/static/foodstim60/mashed potato.jpg', 'key': 'i', 'origWidth': 409, 'origHeight': 409, 'width': 409, 'height': 409, 'widthPercent': 0.45, 'rescaleHeight': False, 'trialN': 57, 'loaded': True, 'loadedTime': 5221, 'positionName': 'RIGHT', 'positionCoords': [998.4, 335.5], 'bid': 2.32}]",97874.60000002384,1669837566034,blackbeanswithrice,mashed potato,0.95,2.32,1.3699999999999999,mashed potato,1038.699999988079,1039,1039.5,True,i,99418.80000001192,1544.199999988079,1669837567578,1544,HRV,HRV_0257,2022-11-30 19:49:58
58,"[{'imgObject': {}, 'id': 'lox', 'src': '/static/foodstim60/lox.jpg', 'key': 'u', 'origWidth': 410, 'origHeight': 411, 'width': 410, 'height': 411, 'widthPercent': 0.45, 'rescaleHeight': False, 'trialN': 58, 'loaded': True, 'loadedTime': 5573.100000023842, 'positionName': 'LEFT', 'positionCoords': [511.6, 334.5], 'bid': 1.23}, {'imgObject': {}, 'id': 'granola w milk', 'src': '/static/foodstim60/granola w milk.jpg', 'key': 'i', 'origWidth': 410, 'origHeight': 410, 'width': 410, 'height': 410, 'widthPercent': 0.45, 'rescaleHeight': False, 'trialN': 58, 'loaded': True, 'loadedTime': 5504.200000017881, 'positionName': 'RIGHT', 'positionCoords': [998.4, 335], 'bid': 0.91}]",99419.10000002384,1669837567578,lox,granola w milk,1.23,0.91,-0.31999999999999995,granola w milk,1671.8999999761581,1673,1672.5999999940395,True,i,101594.80000001192,2175.699999988079,1669837569754,2176,HRV,HRV_0257,2022-11-30 19:49:58
59,"[{'imgObject': {}, 'id': 'eggs', 'src': '/static/foodstim60/eggs.jpg', 'key': 'u', 'origWidth': 409, 'origHeight': 409, 'width': 409, 'height': 409, 'widthPercent': 0.45, 'rescaleHeight': False, 'trialN': 59, 'loaded': True, 'loadedTime': 5465, 'positionName': 'LEFT', 'positionCoords': [512.6, 335.5], 'bid': 2.8000000000000003}, {'imgObject': {}, 'id': 'hotdog w must', 'src': '/static/foodstim60/hotdog w must.jpg', 'key': 'i', 'origWidth': 409, 'origHeight': 409, 'width': 409, 'height': 409, 'widthPercent': 0.45, 'rescaleHeight': False, 'trialN': 59, 'loaded': True, 'loadedTime': 5194.200000017881, 'positionName': 'RIGHT', 'positionCoords': [998.4, 335.5], 'bid': 4.6000000000000005}]",101595.20000001788,1669837569755,eggs,hotdog w must,2.8000000000000003,4.6000000000000005,1.8000000000000003,hotdog w must,1091.4000000059605,1091,1091.7999999821186,True,i,103194.60000002384,1599.4000000059605,1669837571354,1599,HRV,HRV_0257,2022-11-30 19:49:58
60,"[{'imgObject': {}, 'id': 'Grapes', 'src': '/static/foodstim60/Grapes.jpg', 'key': 'u', 'origWidth': 411, 'origHeight': 411, 'width': 411, 'height': 411, 'widthPercent': 0.45, 'rescaleHeight': False, 'trialN': 60, 'loaded': True, 'loadedTime': 4935.9000000059605, 'positionName': 'LEFT', 'positionCoords': [510.6, 334.5], 'bid': 2.28}, {'imgObject': {}, 'id': 'rigatoni and sauce', 'src': '/static/foodstim60/rigatoni and sauce.jpg', 'key': 'i', 'origWidth': 410, 'origHeight': 411, 'width': 410, 'height': 411, 'widthPercent': 0.45, 'rescaleHeight': False, 'trialN': 60, 'loaded': True, 'loadedTime': 5485.800000011921, 'positionName': 'RIGHT', 'positionCoords': [998.4, 334.5], 'bid': 2.21}]",103194.90000000596,1669837571354,Grapes,rigatoni and sauce,2.28,2.21,-0.06999999999999984,rigatoni and sauce,1002.5999999940395,1005,1004.8000000119209,True,i,104706.70000001788,1511.800000011921,1669837572866,1512,HRV,HRV_0257,2022-11-30 19:49:58
61,"[{'imgObject': {}, 'id': 'bagel plain', 'src': '/static/foodstim60/bagel plain.jpg', 'key': 'u', 'origWidth': 410, 'origHeight': 410, 'width': 410, 'height': 410, 'widthPercent': 0.45, 'rescaleHeight': False, 'trialN': 61, 'loaded': True, 'loadedTime': 5987.5, 'positionName': 'LEFT', 'positionCoords': [511.6, 335], 'bid': 4.5200000000000005}, {'imgObject': {}, 'id': 'ice cream sundae 002', 'src': '/static/foodstim60/ice cream sundae 002.jpg', 'key': 'i', 'origWidth': 409, 'origHeight': 409, 'width': 409, 'height': 409, 'widthPercent': 0.45, 'rescaleHeight': False, 'trialN': 61, 'loaded': True, 'loadedTime': 6043.800000011921, 'positionName': 'RIGHT', 'positionCoords': [998.4, 335.5], 'bid': 3.71}]",104707.10000002384,1669837572866,bagel plain,ice cream sundae 002,4.5200000000000005,3.71,-0.8100000000000005,bagel plain,1362.7999999821186,1364,1364.0,True,u,106578.40000000596,1871.2999999821186,1669837574738,1872,HRV,HRV_0257,2022-11-30 19:49:58
62,"[{'imgObject': {}, 'id': 'cheerios', 'src': '/static/foodstim60/cheerios.jpg', 'key': 'u', 'origWidth': 409, 'origHeight': 410, 'width': 409, 'height': 410, 'widthPercent': 0.45, 'rescaleHeight': False, 'trialN': 62, 'loaded': True, 'loadedTime': 5694.5, 'positionName': 'LEFT', 'positionCoords': [512.6, 335], 'bid': 2.53}, {'imgObject': {}, 'id': 'salmon', 'src': '/static/foodstim60/salmon.jpg', 'key': 'i', 'origWidth': 410, 'origHeight': 409, 'width': 410, 'height': 409, 'widthPercent': 0.45, 'rescaleHeight': False, 'trialN': 62, 'loaded': True, 'loadedTime': 5476.700000017881, 'positionName': 'RIGHT', 'positionCoords': [998.4, 335.5], 'bid': 1.63}]",106578.60000002384,1669837574738,cheerios,salmon,2.53,1.63,-0.8999999999999999,cheerios,1249.199999988079,1251,1251.0999999940395,True,u,108330.80000001192,1752.199999988079,1669837576490,1752,HRV,HRV_0257,2022-11-30 19:49:58
63,"[{'imgObject': {}, 'id': 'rigatoni', 'src': '/static/foodstim60/rigatoni.jpg', 'key': 'u', 'origWidth': 411, 'origHeight': 411, 'width': 411, 'height': 411, 'widthPercent': 0.45, 'rescaleHeight': False, 'trialN': 63, 'loaded': True, 'loadedTime': 5708.300000011921, 'positionName': 'LEFT', 'positionCoords': [510.6, 334.5], 'bid': 2.08}, {'imgObject': {}, 'id': 'mango', 'src': '/static/foodstim60/mango.jpg', 'key': 'i', 'origWidth': 411, 'origHeight': 411, 'width': 411, 'height': 411, 'widthPercent': 0.45, 'rescaleHeight': False, 'trialN': 63, 'loaded': True, 'loadedTime': 5175.700000017881, 'positionName': 'RIGHT', 'positionCoords': [998.4, 334.5], 'bid': 1.97}]",108331.10000002384,1669837576490,rigatoni,mango,2.08,1.97,-0.1100000000000001,mango,2354.399999976158,2358,2357.0999999940395,True,i,111194.5,2863.399999976158,1669837579354,2864,HRV,HRV_0257,2022-11-30 19:49:58
64,"[{'imgObject': {}, 'id': 'kiwi', 'src': '/static/foodstim60/kiwi.jpg', 'key': 'u', 'origWidth': 410, 'origHeight': 410, 'width': 410, 'height': 410, 'widthPercent': 0.45, 'rescaleHeight': False, 'trialN': 64, 'loaded': True, 'loadedTime': 5758.5, 'positionName': 'LEFT', 'positionCoords': [511.6, 335], 'bid': 1.56}, {'imgObject': {}, 'id': 'shreddedwheatwithmilk', 'src': '/static/foodstim60/shreddedwheatwithmilk.jpg', 'key': 'i', 'origWidth': 410, 'origHeight': 410, 'width': 410, 'height': 410, 'widthPercent': 0.45, 'rescaleHeight': False, 'trialN': 64, 'loaded': True, 'loadedTime': 5233.5, 'positionName': 'RIGHT', 'positionCoords': [998.4, 335], 'bid': 1.36}]",111194.80000001192,1669837579354,kiwi,shreddedwheatwithmilk,1.56,1.36,-0.19999999999999996,shreddedwheatwithmilk,937.5,940,939.5999999940395,True,i,112642.60000002384,1447.800000011921,1669837580802,1448,HRV,HRV_0257,2022-11-30 19:49:58
65,"[{'imgObject': {}, 'id': 'cheerios', 'src': '/static/foodstim60/cheerios.jpg', 'key': 'u', 'origWidth': 409, 'origHeight': 410, 'width': 409, 'height': 410, 'widthPercent': 0.45, 'rescaleHeight': False, 'trialN': 65, 'loaded': True, 'loadedTime': 5651.700000017881, 'positionName': 'LEFT', 'positionCoords': [512.6, 335], 'bid': 2.53}, {'imgObject': {}, 'id': 'corn cob', 'src': '/static/foodstim60/corn cob.jpg', 'key': 'i', 'origWidth': 411, 'origHeight': 411, 'width': 411, 'height': 411, 'widthPercent': 0.45, 'rescaleHeight': False, 'trialN': 65, 'loaded': True, 'loadedTime': 6073.300000011921, 'positionName': 'RIGHT', 'positionCoords': [998.4, 334.5], 'bid': 2.43}]",112642.90000000596,1669837580802,cheerios,corn cob,2.53,2.43,-0.09999999999999964,cheerios,1036.300000011921,1037,1037.0999999940395,True,u,114186.60000002384,1543.7000000178814,1669837582346,1544,HRV,HRV_0257,2022-11-30 19:49:58
66,"[{'imgObject': {}, 'id': 'hotdog w must', 'src': '/static/foodstim60/hotdog w must.jpg', 'key': 'u', 'origWidth': 409, 'origHeight': 409, 'width': 409, 'height': 409, 'widthPercent': 0.45, 'rescaleHeight': False, 'trialN': 66, 'loaded': True, 'loadedTime': 5176.200000017881, 'positionName': 'LEFT', 'positionCoords': [512.6, 335.5], 'bid': 4.6000000000000005}, {'imgObject': {}, 'id': 'burrito', 'src': '/static/foodstim60/burrito.jpg', 'key': 'i', 'origWidth': 410, 'origHeight': 410, 'width': 410, 'height': 410, 'widthPercent': 0.45, 'rescaleHeight': False, 'trialN': 66, 'loaded': True, 'loadedTime': 5539.9000000059605, 'positionName': 'RIGHT', 'positionCoords': [998.4, 335], 'bid': 7.21}]",114187.70000001788,1669837582347,hotdog w must,burrito,4.6000000000000005,7.21,2.6099999999999994,burrito,1109.199999988079,1110,1110.0999999940395,True,i,115802.90000000596,1615.199999988079,1669837583962,1615,HRV,HRV_0257,2022-11-30 19:49:58
67,"[{'imgObject': {}, 'id': 'fried eggs', 'src': '/static/foodstim60/fried eggs.jpg', 'key': 'u', 'origWidth': 410, 'origHeight': 410, 'width': 410, 'height': 410, 'widthPercent': 0.45, 'rescaleHeight': False, 'trialN': 67, 'loaded': True, 'loadedTime': 6144.9000000059605, 'positionName': 'LEFT', 'positionCoords': [511.6, 335], 'bid': 3.34}, {'imgObject': {}, 'id': 'edamame', 'src': '/static/foodstim60/edamame.jpg', 'key': 'i', 'origWidth': 409, 'origHeight': 410, 'width': 409, 'height': 410, 'widthPercent': 0.45, 'rescaleHeight': False, 'trialN': 67, 'loaded': True, 'loadedTime': 5107.300000011921, 'positionName': 'RIGHT', 'positionCoords': [998.4, 335], 'bid': 0.81}]",115803.40000000596,1669837583963,fried eggs,edamame,3.34,0.81,-2.53,fried eggs,989.5,990,990.5999999940395,True,u,117298.5,1495.0999999940395,1669837585458,1495,HRV,HRV_0257,2022-11-30 19:49:58
68,"[{'imgObject': {}, 'id': 'burrito', 'src': '/static/foodstim60/burrito.jpg', 'key': 'u', 'origWidth': 410, 'origHeight': 410, 'width': 410, 'height': 410, 'widthPercent': 0.45, 'rescaleHeight': False, 'trialN': 68, 'loaded': True, 'loadedTime': 5572.700000017881, 'positionName': 'LEFT', 'positionCoords': [511.6, 335], 'bid': 7.21}, {'imgObject': {}, 'id': 'strawberries', 'src': '/static/foodstim60/strawberries.jpg', 'key': 'i', 'origWidth': 410, 'origHeight': 410, 'width': 410, 'height': 410, 'widthPercent': 0.45, 'rescaleHeight': False, 'trialN': 68, 'loaded': True, 'loadedTime': 5865.4000000059605, 'positionName': 'RIGHT', 'positionCoords': [998.4, 335], 'bid': 2.42}]",117298.90000000596,1669837585458,burrito,strawberries,7.21,2.42,-4.79,burrito,772.8000000119209,774,773.8000000119209,True,u,118578.40000000596,1279.5,1669837586738,1280,HRV,HRV_0257,2022-11-30 19:49:58
69,"[{'imgObject': {}, 'id': 'bagel plain', 'src': '/static/foodstim60/bagel plain.jpg', 'key': 'u', 'origWidth': 410, 'origHeight': 410, 'width': 410, 'height': 410, 'widthPercent': 0.45, 'rescaleHeight': False, 'trialN': 69, 'loaded': True, 'loadedTime': 6031.700000017881, 'positionName': 'LEFT', 'positionCoords': [511.6, 335], 'bid': 4.5200000000000005}, {'imgObject': {}, 'id': 'roastedpotatoes', 'src': '/static/foodstim60/roastedpotatoes.jpg', 'key': 'i', 'origWidth': 409, 'origHeight': 410, 'width': 409, 'height': 410, 'widthPercent': 0.45, 'rescaleHeight': False, 'trialN': 69, 'loaded': True, 'loadedTime': 5382.100000023842, 'positionName': 'RIGHT', 'positionCoords': [998.4, 335], 'bid': 5.51}]",118578.5,1669837586738,bagel plain,roastedpotatoes,4.5200000000000005,5.51,0.9899999999999993,roastedpotatoes,1123.2000000178814,1124,1124.1000000238419,True,i,120210.40000000596,1631.9000000059605,1669837588370,1632,HRV,HRV_0257,2022-11-30 19:49:58
70,"[{'imgObject': {}, 'id': 'rigatoni and sauce', 'src': '/static/foodstim60/rigatoni and sauce.jpg', 'key': 'u', 'origWidth': 410, 'origHeight': 411, 'width': 410, 'height': 411, 'widthPercent': 0.45, 'rescaleHeight': False, 'trialN': 70, 'loaded': True, 'loadedTime': 5486.100000023842, 'positionName': 'LEFT', 'positionCoords': [511.6, 334.5], 'bid': 2.21}, {'imgObject': {}, 'id': 'grilled chicken strips', 'src': '/static/foodstim60/grilled chicken strips.jpg', 'key': 'i', 'origWidth': 410, 'origHeight': 411, 'width': 410, 'height': 411, 'widthPercent': 0.45, 'rescaleHeight': False, 'trialN': 70, 'loaded': True, 'loadedTime': 5649.5, 'positionName': 'RIGHT', 'positionCoords': [998.4, 334.5], 'bid': 5.8100000000000005}]",120210.70000001788,1669837588370,rigatoni and sauce,grilled chicken strips,2.21,5.8100000000000005,3.6000000000000005,grilled chicken strips,985.5999999940395,987,986.9000000059605,True,i,121707.20000001788,1496.5,1669837589867,1497,HRV,HRV_0257,2022-11-30 19:49:58
71,"[{'imgObject': {}, 'id': 'raisin bran w milk', 'src': '/static/foodstim60/raisin bran w milk.jpg', 'key': 'u', 'origWidth': 411, 'origHeight': 411, 'width': 411, 'height': 411, 'widthPercent': 0.45, 'rescaleHeight': False, 'trialN': 71, 'loaded': True, 'loadedTime': 5753.9000000059605, 'positionName': 'LEFT', 'positionCoords': [510.6, 334.5], 'bid': 0.43}, {'imgObject': {}, 'id': 'pear', 'src': '/static/foodstim60/pear.jpg', 'key': 'i', 'origWidth': 411, 'origHeight': 410, 'width': 411, 'height': 410, 'widthPercent': 0.45, 'rescaleHeight': False, 'trialN': 71, 'loaded': True, 'loadedTime': 5481.700000017881, 'positionName': 'RIGHT', 'positionCoords': [998.4, 335], 'bid': 3.14}]",121712.10000002384,1669837589871,raisin bran w milk,pear,0.43,3.14,2.71,pear,1004.6999999880791,1007,1006.1999999880791,True,i,123226.5,1514.3999999761581,1669837591386,1515,HRV,HRV_0257,2022-11-30 19:49:58
72,"[{'imgObject': {}, 'id': 'turkeysandwich', 'src': '/static/foodstim60/turkeysandwich.jpg', 'key': 'u', 'origWidth': 409, 'origHeight': 409, 'width': 409, 'height': 409, 'widthPercent': 0.45, 'rescaleHeight': False, 'trialN': 72, 'loaded': True, 'loadedTime': 5819.600000023842, 'positionName': 'LEFT', 'positionCoords': [512.6, 335.5], 'bid': 7.05}, {'imgObject': {}, 'id': 'steak', 'src': '/static/foodstim60/steak.jpg', 'key': 'i', 'origWidth': 410, 'origHeight': 410, 'width': 410, 'height': 410, 'widthPercent': 0.45, 'rescaleHeight': False, 'trialN': 72, 'loaded': True, 'loadedTime': 6035.700000017881, 'positionName': 'RIGHT', 'positionCoords': [998.4, 335], 'bid': 7.38}]",123226.70000001788,1669837591386,turkeysandwich,steak,7.05,7.38,0.33000000000000007,steak,1154.699999988079,1165,1164.5,True,i,124898.80000001192,1672.0999999940395,1669837593058,1672,HRV,HRV_0257,2022-11-30 19:49:58
73,"[{'imgObject': {}, 'id': 'edamame', 'src': '/static/foodstim60/edamame.jpg', 'key': 'u', 'origWidth': 409, 'origHeight': 410, 'width': 409, 'height': 410, 'widthPercent': 0.45, 'rescaleHeight': False, 'trialN': 73, 'loaded': True, 'loadedTime': 5107.200000017881, 'positionName': 'LEFT', 'positionCoords': [512.6, 335], 'bid': 0.81}, {'imgObject': {}, 'id': 'Grapes', 'src': '/static/foodstim60/Grapes.jpg', 'key': 'i', 'origWidth': 411, 'origHeight': 411, 'width': 411, 'height': 411, 'widthPercent': 0.45, 'rescaleHeight': False, 'trialN': 73, 'loaded': True, 'loadedTime': 4937.300000011921, 'positionName': 'RIGHT', 'positionCoords': [998.4, 334.5], 'bid': 2.28}]",124899.20000001788,1669837593059,edamame,Grapes,0.81,2.28,1.4699999999999998,Grapes,1302.7999999821186,1303,1303.5999999940395,True,i,126706.80000001192,1807.5999999940395,1669837594866,1807,HRV,HRV_0257,2022-11-30 19:49:58
74,"[{'imgObject': {}, 'id': 'banana', 'src': '/static/foodstim60/banana.jpg', 'key': 'u', 'origWidth': 410, 'origHeight': 410, 'width': 410, 'height': 410, 'widthPercent': 0.45, 'rescaleHeight': False, 'trialN': 74, 'loaded': True, 'loadedTime': 5197.300000011921, 'positionName': 'LEFT', 'positionCoords': [511.6, 335], 'bid': 1.69}, {'imgObject': {}, 'id': 'eggs', 'src': '/static/foodstim60/eggs.jpg', 'key': 'i', 'origWidth': 409, 'origHeight': 409, 'width': 409, 'height': 409, 'widthPercent': 0.45, 'rescaleHeight': False, 'trialN': 74, 'loaded': True, 'loadedTime': 5466.5, 'positionName': 'RIGHT', 'positionCoords': [998.4, 335.5], 'bid': 2.8000000000000003}]",126707.20000001788,1669837594867,banana,eggs,1.69,2.8000000000000003,1.1100000000000003,eggs,1119.5999999940395,1120,1120.199999988079,True,i,128330.60000002384,1623.4000000059605,1669837596490,1623,HRV,HRV_0257,2022-11-30 19:49:58
75,"[{'imgObject': {}, 'id': 'ice cream sundae 002', 'src': '/static/foodstim60/ice cream sundae 002.jpg', 'key': 'u', 'origWidth': 409, 'origHeight': 409, 'width': 409, 'height': 409, 'widthPercent': 0.45, 'rescaleHeight': False, 'trialN': 75, 'loaded': True, 'loadedTime': 6036.5, 'positionName': 'LEFT', 'positionCoords': [512.6, 335.5], 'bid': 3.71}, {'imgObject': {}, 'id': 'bagel and cc', 'src': '/static/foodstim60/bagel and cc.jpg', 'key': 'i', 'origWidth': 410, 'origHeight': 410, 'width': 410, 'height': 410, 'widthPercent': 0.45, 'rescaleHeight': False, 'trialN': 75, 'loaded': True, 'loadedTime': 5257.4000000059605, 'positionName': 'RIGHT', 'positionCoords': [998.4, 335], 'bid': 4.38}]",128330.80000001192,1669837596490,ice cream sundae 002,bagel and cc,3.71,4.38,0.6699999999999999,bagel and cc,1204.699999988079,1206,1205.800000011921,True,i,130042.60000002384,1711.800000011921,1669837598202,1712,HRV,HRV_0257,2022-11-30 19:49:58
76,"[{'imgObject': {}, 'id': 'froot loops w milk', 'src': '/static/foodstim60/froot loops w milk.jpg', 'key': 'u', 'origWidth': 410, 'origHeight': 410, 'width': 410, 'height': 410, 'widthPercent': 0.45, 'rescaleHeight': False, 'trialN': 76, 'loaded': True, 'loadedTime': 5748.100000023842, 'positionName': 'LEFT', 'positionCoords': [511.6, 335], 'bid': 9.52}, {'imgObject': {}, 'id': 'cheerios', 'src': '/static/foodstim60/cheerios.jpg', 'key': 'i', 'origWidth': 409, 'origHeight': 410, 'width': 409, 'height': 410, 'widthPercent': 0.45, 'rescaleHeight': False, 'trialN': 76, 'loaded': True, 'loadedTime': 5653.5, 'positionName': 'RIGHT', 'positionCoords': [998.4, 335], 'bid': 2.53}]",130042.80000001192,1669837598202,froot loops w milk,cheerios,9.52,2.53,-6.99,froot loops w milk,722.9000000059605,724,723.6999999880791,True,u,131274.80000001192,1232.0,1669837599434,1232,HRV,HRV_0257,2022-11-30 19:49:58
77,"[{'imgObject': {}, 'id': 'orange slices', 'src': '/static/foodstim60/orange slices.jpg', 'key': 'u', 'origWidth': 409, 'origHeight': 410, 'width': 409, 'height': 410, 'widthPercent': 0.45, 'rescaleHeight': False, 'trialN': 77, 'loaded': True, 'loadedTime': 6060, 'positionName': 'LEFT', 'positionCoords': [512.6, 335], 'bid': 2.87}, {'imgObject': {}, 'id': 'baked potato', 'src': '/static/foodstim60/baked potato.jpg', 'key': 'i', 'origWidth': 409, 'origHeight': 410, 'width': 409, 'height': 410, 'widthPercent': 0.45, 'rescaleHeight': False, 'trialN': 77, 'loaded': True, 'loadedTime': 5432.9000000059605, 'positionName': 'RIGHT', 'positionCoords': [998.4, 335], 'bid': 5.6000000000000005}]",131275.10000002384,1669837599435,orange slices,baked potato,2.87,5.6000000000000005,2.7300000000000004,baked potato,797.7999999821186,798,798.6999999880791,True,i,132580.90000000596,1305.7999999821186,1669837600740,1305,HRV,HRV_0257,2022-11-30 19:49:58
78,"[{'imgObject': {}, 'id': 'eggs', 'src': '/static/foodstim60/eggs.jpg', 'key': 'u', 'origWidth': 409, 'origHeight': 409, 'width': 409, 'height': 409, 'widthPercent': 0.45, 'rescaleHeight': False, 'trialN': 78, 'loaded': True, 'loadedTime': 5466.700000017881, 'positionName': 'LEFT', 'positionCoords': [512.6, 335.5], 'bid': 2.8000000000000003}, {'imgObject': {}, 'id': 'blueberries', 'src': '/static/foodstim60/blueberries.jpg', 'key': 'i', 'origWidth': 411, 'origHeight': 411, 'width': 411, 'height': 411, 'widthPercent': 0.45, 'rescaleHeight': False, 'trialN': 78, 'loaded': True, 'loadedTime': 5779.100000023842, 'positionName': 'RIGHT', 'positionCoords': [998.4, 334.5], 'bid': 2.98}]",132581.10000002384,1669837600740,eggs,blueberries,2.8000000000000003,2.98,0.17999999999999972,eggs,946.1999999880791,948,947.0999999940395,True,u,134034.5,1453.3999999761581,1669837602194,1454,HRV,HRV_0257,2022-11-30 19:49:58
79,"[{'imgObject': {}, 'id': 'chickenfingers', 'src': '/static/foodstim60/chickenfingers.jpg', 'key': 'u', 'origWidth': 410, 'origHeight': 410, 'width': 410, 'height': 410, 'widthPercent': 0.45, 'rescaleHeight': False, 'trialN': 79, 'loaded': True, 'loadedTime': 4963.300000011921, 'positionName': 'LEFT', 'positionCoords': [511.6, 335], 'bid': 6.15}, {'imgObject': {}, 'id': 'tacos', 'src': '/static/foodstim60/tacos.jpg', 'key': 'i', 'origWidth': 411, 'origHeight': 411, 'width': 411, 'height': 411, 'widthPercent': 0.45, 'rescaleHeight': False, 'trialN': 79, 'loaded': True, 'loadedTime': 4981.700000017881, 'positionName': 'RIGHT', 'positionCoords': [998.4, 334.5], 'bid': 7.95}]",134034.5,1669837602194,chickenfingers,tacos,6.15,7.95,1.7999999999999998,tacos,1315.7000000178814,1316,1316.2000000178814,True,i,135858.70000001788,1824.2000000178814,1669837604018,1824,HRV,HRV_0257,2022-11-30 19:49:58
80,"[{'imgObject': {}, 'id': 'salad w chicken', 'src': '/static/foodstim60/salad w chicken.jpg', 'key': 'u', 'origWidth': 411, 'origHeight': 411, 'width': 411, 'height': 411, 'widthPercent': 0.45, 'rescaleHeight': False, 'trialN': 80, 'loaded': True, 'loadedTime': 4994.9000000059605, 'positionName': 'LEFT', 'positionCoords': [510.6, 334.5], 'bid': 5.62}, {'imgObject': {}, 'id': 'yogurt no spoon', 'src': '/static/foodstim60/yogurt no spoon.jpg', 'key': 'i', 'origWidth': 411, 'origHeight': 410, 'width': 411, 'height': 410, 'widthPercent': 0.45, 'rescaleHeight': False, 'trialN': 80, 'loaded': True, 'loadedTime': 5489.700000017881, 'positionName': 'RIGHT', 'positionCoords': [998.4, 335], 'bid': 3.09}]",135858.80000001192,1669837604018,salad w chicken,yogurt no spoon,5.62,3.09,-2.5300000000000002,salad w chicken,1001.1999999880791,1002,1001.5999999940395,True,u,137362.40000000596,1503.5999999940395,1669837605522,1504,HRV,HRV_0257,2022-11-30 19:49:58
81,"[{'imgObject': {}, 'id': 'chickenfingers', 'src': '/static/foodstim60/chickenfingers.jpg', 'key': 'u', 'origWidth': 410, 'origHeight': 410, 'width': 410, 'height': 410, 'widthPercent': 0.45, 'rescaleHeight': False, 'trialN': 81, 'loaded': True, 'loadedTime': 4965.700000017881, 'positionName': 'LEFT', 'positionCoords': [511.6, 335], 'bid': 6.15}, {'imgObject': {}, 'id': 'Tribe humus pita', 'src': '/static/foodstim60/Tribe humus pita.jpg', 'key': 'i', 'origWidth': 411, 'origHeight': 411, 'width': 411, 'height': 411, 'widthPercent': 0.45, 'rescaleHeight': False, 'trialN': 81, 'loaded': True, 'loadedTime': 5985.200000017881, 'positionName': 'RIGHT', 'positionCoords': [998.4, 334.5], 'bid': 4.61}]",137362.70000001788,1669837605522,chickenfingers,Tribe humus pita,6.15,4.61,-1.54,chickenfingers,816.9000000059605,817,817.4000000059605,True,u,138682.40000000596,1319.699999988079,1669837606842,1320,HRV,HRV_0257,2022-11-30 19:49:58
82,"[{'imgObject': {}, 'id': 'luckycharms', 'src': '/static/foodstim60/luckycharms.jpg', 'key': 'u', 'origWidth': 410, 'origHeight': 409, 'width': 410, 'height': 409, 'widthPercent': 0.45, 'rescaleHeight': False, 'trialN': 82, 'loaded': True, 'loadedTime': 5650.800000011921, 'positionName': 'LEFT', 'positionCoords': [511.6, 335.5], 'bid': 9.68}, {'imgObject': {}, 'id': 'popsicles', 'src': '/static/foodstim60/popsicles.jpg', 'key': 'i', 'origWidth': 410, 'origHeight': 410, 'width': 410, 'height': 410, 'widthPercent': 0.45, 'rescaleHeight': False, 'trialN': 82, 'loaded': True, 'loadedTime': 5299.4000000059605, 'positionName': 'RIGHT', 'positionCoords': [998.4, 335], 'bid': 9.84}]",138682.5,1669837606842,luckycharms,popsicles,9.68,9.84,0.16000000000000014,luckycharms,699.5,701,701.1000000238419,True,u,139890.60000002384,1208.1000000238419,1669837608050,1208,HRV,HRV_0257,2022-11-30 19:49:58
83,"[{'imgObject': {}, 'id': 'veggieswithdip', 'src': '/static/foodstim60/veggieswithdip.jpg', 'key': 'u', 'origWidth': 409, 'origHeight': 409, 'width': 409, 'height': 409, 'widthPercent': 0.45, 'rescaleHeight': False, 'trialN': 83, 'loaded': True, 'loadedTime': 4958.700000017881, 'positionName': 'LEFT', 'positionCoords': [512.6, 335.5], 'bid': 6.2}, {'imgObject': {}, 'id': 'ice cream sundae 002', 'src': '/static/foodstim60/ice cream sundae 002.jpg', 'key': 'i', 'origWidth': 409, 'origHeight': 409, 'width': 409, 'height': 409, 'widthPercent': 0.45, 'rescaleHeight': False, 'trialN': 83, 'loaded': True, 'loadedTime': 6037.5, 'positionName': 'RIGHT', 'positionCoords': [998.4, 335.5], 'bid': 3.71}]",139890.70000001788,1669837608050,veggieswithdip,ice cream sundae 002,6.2,3.71,-2.49,veggieswithdip,920.4000000059605,922,922.0,True,u,141314.40000000596,1423.699999988079,1669837609474,1424,HRV,HRV_0257,2022-11-30 19:49:58
84,"[{'imgObject': {}, 'id': 'hotdog w must', 'src': '/static/foodstim60/hotdog w must.jpg', 'key': 'u', 'origWidth': 409, 'origHeight': 409, 'width': 409, 'height': 409, 'widthPercent': 0.45, 'rescaleHeight': False, 'trialN': 84, 'loaded': True, 'loadedTime': 5184.9000000059605, 'positionName': 'LEFT', 'positionCoords': [512.6, 335.5], 'bid': 4.6000000000000005}, {'imgObject': {}, 'id': 'bagel plain', 'src': '/static/foodstim60/bagel plain.jpg', 'key': 'i', 'origWidth': 410, 'origHeight': 410, 'width': 410, 'height': 410, 'widthPercent': 0.45, 'rescaleHeight': False, 'trialN': 84, 'loaded': True, 'loadedTime': 6031.5, 'positionName': 'RIGHT', 'positionCoords': [998.4, 335], 'bid': 4.5200000000000005}]",141314.5,1669837609474,hotdog w must,bagel plain,4.6000000000000005,4.5200000000000005,-0.08000000000000007,hotdog w must,932.6000000238419,933,933.6000000238419,True,u,142754.40000000596,1439.9000000059605,1669837610914,1440,HRV,HRV_0257,2022-11-30 19:49:58
85,"[{'imgObject': {}, 'id': 'omelette', 'src': '/static/foodstim60/omelette.jpg', 'key': 'u', 'origWidth': 410, 'origHeight': 409, 'width': 410, 'height': 409, 'widthPercent': 0.45, 'rescaleHeight': False, 'trialN': 85, 'loaded': True, 'loadedTime': 6146.800000011921, 'positionName': 'LEFT', 'positionCoords': [511.6, 335.5], 'bid': 5.2}, {'imgObject': {}, 'id': 'burger', 'src': '/static/foodstim60/burger.jpg', 'key': 'i', 'origWidth': 409, 'origHeight': 409, 'width': 409, 'height': 409, 'widthPercent': 0.45, 'rescaleHeight': False, 'trialN': 85, 'loaded': True, 'loadedTime': 5249.600000023842, 'positionName': 'RIGHT', 'positionCoords': [998.4, 335.5], 'bid': 5.4}]",142754.60000002384,1669837610914,omelette,burger,5.2,5.4,0.20000000000000018,burger,1479.5,1480,1480.0999999940395,True,i,144738.40000000596,1983.7999999821186,1669837612898,1984,HRV,HRV_0257,2022-11-30 19:49:58
86,"[{'imgObject': {}, 'id': 'raspberries', 'src': '/static/foodstim60/raspberries.jpg', 'key': 'u', 'origWidth': 411, 'origHeight': 411, 'width': 411, 'height': 411, 'widthPercent': 0.45, 'rescaleHeight': False, 'trialN': 86, 'loaded': True, 'loadedTime': 6070.9000000059605, 'positionName': 'LEFT', 'positionCoords': [510.6, 334.5], 'bid': 3.48}, {'imgObject': {}, 'id': 'granola w milk', 'src': '/static/foodstim60/granola w milk.jpg', 'key': 'i', 'origWidth': 410, 'origHeight': 410, 'width': 410, 'height': 410, 'widthPercent': 0.45, 'rescaleHeight': False, 'trialN': 86, 'loaded': True, 'loadedTime': 5497.9000000059605, 'positionName': 'RIGHT', 'positionCoords': [998.4, 335], 'bid': 0.91}]",144738.60000002384,1669837612898,raspberries,granola w milk,3.48,0.91,-2.57,raspberries,998.1999999880791,999,999.1999999880791,True,u,146242.70000001788,1504.0999999940395,1669837614402,1504,HRV,HRV_0257,2022-11-30 19:49:58
87,"[{'imgObject': {}, 'id': 'rigatoni', 'src': '/static/foodstim60/rigatoni.jpg', 'key': 'u', 'origWidth': 411, 'origHeight': 411, 'width': 411, 'height': 411, 'widthPercent': 0.45, 'rescaleHeight': False, 'trialN': 87, 'loaded': True, 'loadedTime': 5703.300000011921, 'positionName': 'LEFT', 'positionCoords': [510.6, 334.5], 'bid': 2.08}, {'imgObject': {}, 'id': 'Grapes', 'src': '/static/foodstim60/Grapes.jpg', 'key': 'i', 'origWidth': 411, 'origHeight': 411, 'width': 411, 'height': 411, 'widthPercent': 0.45, 'rescaleHeight': False, 'trialN': 87, 'loaded': True, 'loadedTime': 4952.100000023842, 'positionName': 'RIGHT', 'positionCoords': [998.4, 334.5], 'bid': 2.28}]",146243.20000001788,1669837614403,rigatoni,Grapes,2.08,2.28,0.19999999999999973,rigatoni,1097.0999999940395,1098,1098.5,True,u,147842.40000000596,1599.199999988079,1669837616002,1599,HRV,HRV_0257,2022-11-30 19:49:58
88,"[{'imgObject': {}, 'id': 'luckycharms', 'src': '/static/foodstim60/luckycharms.jpg', 'key': 'u', 'origWidth': 410, 'origHeight': 409, 'width': 410, 'height': 409, 'widthPercent': 0.45, 'rescaleHeight': False, 'trialN': 88, 'loaded': True, 'loadedTime': 5650.9000000059605, 'positionName': 'LEFT', 'positionCoords': [511.6, 335.5], 'bid': 9.68}, {'imgObject': {}, 'id': 'tacos', 'src': '/static/foodstim60/tacos.jpg', 'key': 'i', 'origWidth': 411, 'origHeight': 411, 'width': 411, 'height': 411, 'widthPercent': 0.45, 'rescaleHeight': False, 'trialN': 88, 'loaded': True, 'loadedTime': 4985.200000017881, 'positionName': 'RIGHT', 'positionCoords': [998.4, 334.5], 'bid': 7.95}]",147842.60000002384,1669837616002,luckycharms,tacos,9.68,7.95,-1.7299999999999995,luckycharms,1159.5,1160,1160.0,True,u,149506.70000001788,1664.0999999940395,1669837617666,1664,HRV,HRV_0257,2022-11-30 19:49:58
89,"[{'imgObject': {}, 'id': 'burger', 'src': '/static/foodstim60/burger.jpg', 'key': 'u', 'origWidth': 409, 'origHeight': 409, 'width': 409, 'height': 409, 'widthPercent': 0.45, 'rescaleHeight': False, 'trialN': 89, 'loaded': True, 'loadedTime': 5251.5, 'positionName': 'LEFT', 'positionCoords': [512.6, 335.5], 'bid': 5.4}, {'imgObject': {}, 'id': 'avocado', 'src': '/static/foodstim60/avocado.jpg', 'key': 'i', 'origWidth': 409, 'origHeight': 409, 'width': 409, 'height': 409, 'widthPercent': 0.45, 'rescaleHeight': False, 'trialN': 89, 'loaded': True, 'loadedTime': 5027.700000017881, 'positionName': 'RIGHT', 'positionCoords': [998.4, 335.5], 'bid': 4.68}]",149506.90000000596,1669837617666,burger,avocado,5.4,4.68,-0.7200000000000006,burger,920.9000000059605,922,921.5999999940395,True,u,150930.70000001788,1423.800000011921,1669837619090,1424,HRV,HRV_0257,2022-11-30 19:49:58
90,"[{'imgObject': {}, 'id': 'mac & cheese', 'src': '/static/foodstim60/mac & cheese.jpg', 'key': 'u', 'origWidth': 410, 'origHeight': 410, 'width': 410, 'height': 410, 'widthPercent': 0.45, 'rescaleHeight': False, 'trialN': 90, 'loaded': True, 'loadedTime': 6150.4000000059605, 'positionName': 'LEFT', 'positionCoords': [511.6, 335], 'bid': 1.81}, {'imgObject': {}, 'id': 'banana', 'src': '/static/foodstim60/banana.jpg', 'key': 'i', 'origWidth': 410, 'origHeight': 410, 'width': 410, 'height': 410, 'widthPercent': 0.45, 'rescaleHeight': False, 'trialN': 90, 'loaded': True, 'loadedTime': 5199.5, 'positionName': 'RIGHT', 'positionCoords': [998.4, 335], 'bid': 1.69}]",182059.5,1669837650219,mac & cheese,banana,1.81,1.69,-0.1200000000000001,mac & cheese,1112.7000000178814,1114,1114.0,True,u,183674.40000000596,1614.9000000059605,1669837651834,1615,HRV,HRV_0257,2022-11-30 19:49:58
91,"[{'imgObject': {}, 'id': 'turkeysandwich', 'src': '/static/foodstim60/turkeysandwich.jpg', 'key': 'u', 'origWidth': 409, 'origHeight': 409, 'width': 409, 'height': 409, 'widthPercent': 0.45, 'rescaleHeight': False, 'trialN': 91, 'loaded': True, 'loadedTime': 5818.300000011921, 'positionName': 'LEFT', 'positionCoords': [512.6, 335.5], 'bid': 7.05}, {'imgObject': {}, 'id': 'burger', 'src': '/static/foodstim60/burger.jpg', 'key': 'i', 'origWidth': 409, 'origHeight': 409, 'width': 409, 'height': 409, 'widthPercent': 0.45, 'rescaleHeight': False, 'trialN': 91, 'loaded': True, 'loadedTime': 5253.100000023842, 'positionName': 'RIGHT', 'positionCoords': [998.4, 335.5], 'bid': 5.4}]",183674.5,1669837651834,turkeysandwich,burger,7.05,5.4,-1.6499999999999995,turkeysandwich,925.6000000238419,926,926.1000000238419,True,u,185106.70000001788,1432.2000000178814,1669837653266,1432,HRV,HRV_0257,2022-11-30 19:49:58
92,"[{'imgObject': {}, 'id': 'Tribe humus pita', 'src': '/static/foodstim60/Tribe humus pita.jpg', 'key': 'u', 'origWidth': 411, 'origHeight': 411, 'width': 411, 'height': 411, 'widthPercent': 0.45, 'rescaleHeight': False, 'trialN': 92, 'loaded': True, 'loadedTime': 5979.600000023842, 'positionName': 'LEFT', 'positionCoords': [510.6, 334.5], 'bid': 4.61}, {'imgObject': {}, 'id': 'seaweed', 'src': '/static/foodstim60/seaweed.jpg', 'key': 'i', 'origWidth': 410, 'origHeight': 410, 'width': 410, 'height': 410, 'widthPercent': 0.45, 'rescaleHeight': False, 'trialN': 92, 'loaded': True, 'loadedTime': 5273.4000000059605, 'positionName': 'RIGHT', 'positionCoords': [998.4, 335], 'bid': 1.43}]",185106.90000000596,1669837653266,Tribe humus pita,seaweed,4.61,1.43,-3.1800000000000006,Tribe humus pita,893.8000000119209,895,894.3000000119209,True,u,186506.5,1399.5999999940395,1669837654666,1400,HRV,HRV_0257,2022-11-30 19:49:58
93,"[{'imgObject': {}, 'id': 'lox', 'src': '/static/foodstim60/lox.jpg', 'key': 'u', 'origWidth': 410, 'origHeight': 411, 'width': 410, 'height': 411, 'widthPercent': 0.45, 'rescaleHeight': False, 'trialN': 93, 'loaded': True, 'loadedTime': 5574.5, 'positionName': 'LEFT', 'positionCoords': [511.6, 334.5], 'bid': 1.23}, {'imgObject': {}, 'id': 'sushi w_condiments', 'src': '/static/foodstim60/sushi w_condiments.jpg', 'key': 'i', 'origWidth': 410, 'origHeight': 410, 'width': 410, 'height': 410, 'widthPercent': 0.45, 'rescaleHeight': False, 'trialN': 93, 'loaded': True, 'loadedTime': 5137.200000017881, 'positionName': 'RIGHT', 'positionCoords': [998.4, 335], 'bid': 0.27}]",186506.60000002384,1669837654666,lox,sushi w_condiments,1.23,0.27,-0.96,sushi w_condiments,803.3999999761581,805,805.0,True,i,187818.40000000596,1311.7999999821186,1669837655978,1312,HRV,HRV_0257,2022-11-30 19:49:58
94,"[{'imgObject': {}, 'id': 'corn cob', 'src': '/static/foodstim60/corn cob.jpg', 'key': 'u', 'origWidth': 411, 'origHeight': 411, 'width': 411, 'height': 411, 'widthPercent': 0.45, 'rescaleHeight': False, 'trialN': 94, 'loaded': True, 'loadedTime': 6071.800000011921, 'positionName': 'LEFT', 'positionCoords': [510.6, 334.5], 'bid': 2.43}, {'imgObject': {}, 'id': 'raspberries', 'src': '/static/foodstim60/raspberries.jpg', 'key': 'i', 'origWidth': 411, 'origHeight': 411, 'width': 411, 'height': 411, 'widthPercent': 0.45, 'rescaleHeight': False, 'trialN': 94, 'loaded': True, 'loadedTime': 6069.200000017881, 'positionName': 'RIGHT', 'positionCoords': [998.4, 334.5], 'bid': 3.48}]",187818.60000002384,1669837655978,corn cob,raspberries,2.43,3.48,1.0499999999999998,raspberries,1133.5,1135,1134.7999999821186,True,i,189458.80000001192,1640.199999988079,1669837657618,1640,HRV,HRV_0257,2022-11-30 19:49:58
95,"[{'imgObject': {}, 'id': 'lox', 'src': '/static/foodstim60/lox.jpg', 'key': 'u', 'origWidth': 410, 'origHeight': 411, 'width': 410, 'height': 411, 'widthPercent': 0.45, 'rescaleHeight': False, 'trialN': 95, 'loaded': True, 'loadedTime': 5574.800000011921, 'positionName': 'LEFT', 'positionCoords': [511.6, 334.5], 'bid': 1.23}, {'imgObject': {}, 'id': 'rigatoni', 'src': '/static/foodstim60/rigatoni.jpg', 'key': 'i', 'origWidth': 411, 'origHeight': 411, 'width': 411, 'height': 411, 'widthPercent': 0.45, 'rescaleHeight': False, 'trialN': 95, 'loaded': True, 'loadedTime': 5746.9000000059605, 'positionName': 'RIGHT', 'positionCoords': [998.4, 334.5], 'bid': 2.08}]",189459.10000002384,1669837657618,lox,rigatoni,1.23,2.08,0.8500000000000001,rigatoni,900.0,902,901.5999999940395,True,i,190866.40000000596,1407.2999999821186,1669837659026,1408,HRV,HRV_0257,2022-11-30 19:49:58
96,"[{'imgObject': {}, 'id': 'bagel and cc', 'src': '/static/foodstim60/bagel and cc.jpg', 'key': 'u', 'origWidth': 410, 'origHeight': 410, 'width': 410, 'height': 410, 'widthPercent': 0.45, 'rescaleHeight': False, 'trialN': 96, 'loaded': True, 'loadedTime': 5256.700000017881, 'positionName': 'LEFT', 'positionCoords': [511.6, 335], 'bid': 4.38}, {'imgObject': {}, 'id': 'lox', 'src': '/static/foodstim60/lox.jpg', 'key': 'i', 'origWidth': 410, 'origHeight': 411, 'width': 410, 'height': 411, 'widthPercent': 0.45, 'rescaleHeight': False, 'trialN': 96, 'loaded': True, 'loadedTime': 5575, 'positionName': 'RIGHT', 'positionCoords': [998.4, 334.5], 'bid': 1.23}]",190866.5,1669837659026,bagel and cc,lox,4.38,1.23,-3.15,bagel and cc,866.5,867,867.5,True,u,192234.80000001192,1368.300000011921,1669837660394,1368,HRV,HRV_0257,2022-11-30 19:49:58
97,"[{'imgObject': {}, 'id': 'baked potato', 'src': '/static/foodstim60/baked potato.jpg', 'key': 'u', 'origWidth': 409, 'origHeight': 410, 'width': 409, 'height': 410, 'widthPercent': 0.45, 'rescaleHeight': False, 'trialN': 97, 'loaded': True, 'loadedTime': 5431.4000000059605, 'positionName': 'LEFT', 'positionCoords': [512.6, 335], 'bid': 5.6000000000000005}, {'imgObject': {}, 'id': 'mac & cheese', 'src': '/static/foodstim60/mac & cheese.jpg', 'key': 'i', 'origWidth': 410, 'origHeight': 410, 'width': 410, 'height': 410, 'widthPercent': 0.45, 'rescaleHeight': False, 'trialN': 97, 'loaded': True, 'loadedTime': 6149, 'positionName': 'RIGHT', 'positionCoords': [998.4, 335], 'bid': 1.81}]",192235.10000002384,1669837660394,baked potato,mac & cheese,5.6000000000000005,1.81,-3.7900000000000005,baked potato,867.6999999880791,870,869.0999999940395,True,u,193610.5,1375.3999999761581,1669837661770,1376,HRV,HRV_0257,2022-11-30 19:49:58
98,"[{'imgObject': {}, 'id': 'cherries', 'src': '/static/foodstim60/cherries.jpg', 'key': 'u', 'origWidth': 410, 'origHeight': 411, 'width': 410, 'height': 411, 'widthPercent': 0.45, 'rescaleHeight': False, 'trialN': 98, 'loaded': True, 'loadedTime': 5289.700000017881, 'positionName': 'LEFT', 'positionCoords': [511.6, 334.5], 'bid': 1.35}, {'imgObject': {}, 'id': 'bagel plain', 'src': '/static/foodstim60/bagel plain.jpg', 'key': 'i', 'origWidth': 410, 'origHeight': 410, 'width': 410, 'height': 410, 'widthPercent': 0.45, 'rescaleHeight': False, 'trialN': 98, 'loaded': True, 'loadedTime': 6029.5, 'positionName': 'RIGHT', 'positionCoords': [998.4, 335], 'bid': 4.5200000000000005}]",193610.5,1669837661770,cherries,bagel plain,1.35,4.5200000000000005,3.1700000000000004,bagel plain,914.0,916,915.6000000238419,True,i,195026.80000001192,1416.300000011921,1669837663186,1416,HRV,HRV_0257,2022-11-30 19:49:58
99,"[{'imgObject': {}, 'id': 'salad w chicken', 'src': '/static/foodstim60/salad w chicken.jpg', 'key': 'u', 'origWidth': 411, 'origHeight': 411, 'width': 411, 'height': 411, 'widthPercent': 0.45, 'rescaleHeight': False, 'trialN': 99, 'loaded': True, 'loadedTime': 5020.600000023842, 'positionName': 'LEFT', 'positionCoords': [510.6, 334.5], 'bid': 5.62}, {'imgObject': {}, 'id': 'rigatoni', 'src': '/static/foodstim60/rigatoni.jpg', 'key': 'i', 'origWidth': 411, 'origHeight': 411, 'width': 411, 'height': 411, 'widthPercent': 0.45, 'rescaleHeight': False, 'trialN': 99, 'loaded': True, 'loadedTime': 5747.300000011921, 'positionName': 'RIGHT', 'positionCoords': [998.4, 334.5], 'bid': 2.08}]",195027.10000002384,1669837663186,salad w chicken,rigatoni,5.62,2.08,-3.54,salad w chicken,914.3999999761581,916,915.5999999940395,True,u,196450.80000001192,1423.699999988079,1669837664610,1424,HRV,HRV_0257,2022-11-30 19:49:58
100,"[{'imgObject': {}, 'id': 'eggsalad', 'src': '/static/foodstim60/eggsalad.jpg', 'key': 'u', 'origWidth': 410, 'origHeight': 409, 'width': 410, 'height': 409, 'widthPercent': 0.45, 'rescaleHeight': False, 'trialN': 100, 'loaded': True, 'loadedTime': 4891.600000023842, 'positionName': 'LEFT', 'positionCoords': [511.6, 335.5], 'bid': 1.66}, {'imgObject': {}, 'id': 'mac & cheese', 'src': '/static/foodstim60/mac & cheese.jpg', 'key': 'i', 'origWidth': 410, 'origHeight': 410, 'width': 410, 'height': 410, 'widthPercent': 0.45, 'rescaleHeight': False, 'trialN': 100, 'loaded': True, 'loadedTime': 6150.700000017881, 'positionName': 'RIGHT', 'positionCoords': [998.4, 335], 'bid': 1.81}]",196451.20000001788,1669837664611,eggsalad,mac & cheese,1.66,1.81,0.15000000000000013,eggsalad,1688.5,1690,1689.9000000059605,True,u,198642.5,2191.2999999821186,1669837666802,2191,HRV,HRV_0257,2022-11-30 19:49:58
101,"[{'imgObject': {}, 'id': 'apple slices', 'src': '/static/foodstim60/apple slices.jpg', 'key': 'u', 'origWidth': 409, 'origHeight': 410, 'width': 409, 'height': 410, 'widthPercent': 0.45, 'rescaleHeight': False, 'trialN': 101, 'loaded': True, 'loadedTime': 6067.200000017881, 'positionName': 'LEFT', 'positionCoords': [512.6, 335], 'bid': 2.7}, {'imgObject': {}, 'id': 'fried eggs', 'src': '/static/foodstim60/fried eggs.jpg', 'key': 'i', 'origWidth': 410, 'origHeight': 410, 'width': 410, 'height': 410, 'widthPercent': 0.45, 'rescaleHeight': False, 'trialN': 101, 'loaded': True, 'loadedTime': 6144.800000011921, 'positionName': 'RIGHT', 'positionCoords': [998.4, 335], 'bid': 3.34}]",198642.70000001788,1669837666802,apple slices,fried eggs,2.7,3.34,0.6399999999999997,fried eggs,1061.0,1061,1061.4000000059605,True,i,200210.90000000596,1568.199999988079,1669837668370,1568,HRV,HRV_0257,2022-11-30 19:49:58
102,"[{'imgObject': {}, 'id': 'cherry tomato', 'src': '/static/foodstim60/cherry tomato.jpg', 'key': 'u', 'origWidth': 410, 'origHeight': 410, 'width': 410, 'height': 410, 'widthPercent': 0.45, 'rescaleHeight': False, 'trialN': 102, 'loaded': True, 'loadedTime': 6148.4000000059605, 'positionName': 'LEFT', 'positionCoords': [511.6, 335], 'bid': 0.35}, {'imgObject': {}, 'id': 'yogurt no spoon', 'src': '/static/foodstim60/yogurt no spoon.jpg', 'key': 'i', 'origWidth': 411, 'origHeight': 410, 'width': 411, 'height': 410, 'widthPercent': 0.45, 'rescaleHeight': False, 'trialN': 102, 'loaded': True, 'loadedTime': 5489.200000017881, 'positionName': 'RIGHT', 'positionCoords': [998.4, 335], 'bid': 3.09}]",200211.20000001788,1669837668371,cherry tomato,yogurt no spoon,0.35,3.09,2.7399999999999998,yogurt no spoon,918.0,919,919.5,True,i,201634.80000001192,1423.5999999940395,1669837669794,1423,HRV,HRV_0257,2022-11-30 19:49:58
103,"[{'imgObject': {}, 'id': 'grilled chicken strips', 'src': '/static/foodstim60/grilled chicken strips.jpg', 'key': 'u', 'origWidth': 410, 'origHeight': 411, 'width': 410, 'height': 411, 'widthPercent': 0.45, 'rescaleHeight': False, 'trialN': 103, 'loaded': True, 'loadedTime': 5620.200000017881, 'positionName': 'LEFT', 'positionCoords': [511.6, 334.5], 'bid': 5.8100000000000005}, {'imgObject': {}, 'id': 'burrito', 'src': '/static/foodstim60/burrito.jpg', 'key': 'i', 'origWidth': 410, 'origHeight': 410, 'width': 410, 'height': 410, 'widthPercent': 0.45, 'rescaleHeight': False, 'trialN': 103, 'loaded': True, 'loadedTime': 5541.700000017881, 'positionName': 'RIGHT', 'positionCoords': [998.4, 335], 'bid': 7.21}]",201635.20000001788,1669837669795,grilled chicken strips,burrito,5.8100000000000005,7.21,1.3999999999999995,burrito,1068.0999999940395,1068,1068.9000000059605,True,i,203210.60000002384,1575.4000000059605,1669837671370,1575,HRV,HRV_0257,2022-11-30 19:49:58
104,"[{'imgObject': {}, 'id': 'granola w milk', 'src': '/static/foodstim60/granola w milk.jpg', 'key': 'u', 'origWidth': 410, 'origHeight': 410, 'width': 410, 'height': 410, 'widthPercent': 0.45, 'rescaleHeight': False, 'trialN': 104, 'loaded': True, 'loadedTime': 5492.9000000059605, 'positionName': 'LEFT', 'positionCoords': [511.6, 335], 'bid': 0.91}, {'imgObject': {}, 'id': 'hashbrowns', 'src': '/static/foodstim60/hashbrowns.jpg', 'key': 'i', 'origWidth': 411, 'origHeight': 410, 'width': 411, 'height': 410, 'widthPercent': 0.45, 'rescaleHeight': False, 'trialN': 104, 'loaded': True, 'loadedTime': 5208.9000000059605, 'positionName': 'RIGHT', 'positionCoords': [998.4, 335], 'bid': 2.3000000000000003}]",203210.80000001192,1669837671370,granola w milk,hashbrowns,0.91,2.3000000000000003,1.3900000000000001,hashbrowns,1022.1999999880791,1025,1024.9000000059605,True,i,204738.40000000596,1527.5999999940395,1669837672898,1528,HRV,HRV_0257,2022-11-30 19:49:58
105,"[{'imgObject': {}, 'id': 'mac & cheese', 'src': '/static/foodstim60/mac & cheese.jpg', 'key': 'u', 'origWidth': 410, 'origHeight': 410, 'width': 410, 'height': 410, 'widthPercent': 0.45, 'rescaleHeight': False, 'trialN': 105, 'loaded': True, 'loadedTime': 6150.300000011921, 'positionName': 'LEFT', 'positionCoords': [511.6, 335], 'bid': 1.81}, {'imgObject': {}, 'id': 'olives', 'src': '/static/foodstim60/olives.jpg', 'key': 'i', 'origWidth': 410, 'origHeight': 410, 'width': 410, 'height': 410, 'widthPercent': 0.45, 'rescaleHeight': False, 'trialN': 105, 'loaded': True, 'loadedTime': 5935.300000011921, 'positionName': 'RIGHT', 'positionCoords': [998.4, 335], 'bid': 0.17}]",204738.5,1669837672898,mac & cheese,olives,1.81,0.17,-1.6400000000000001,mac & cheese,906.7000000178814,907,907.2000000178814,True,u,206146.5,1408.0,1669837674306,1408,HRV,HRV_0257,2022-11-30 19:49:58
106,"[{'imgObject': {}, 'id': 'kiwi', 'src': '/static/foodstim60/kiwi.jpg', 'key': 'u', 'origWidth': 410, 'origHeight': 410, 'width': 410, 'height': 410, 'widthPercent': 0.45, 'rescaleHeight': False, 'trialN': 106, 'loaded': True, 'loadedTime': 5754.800000011921, 'positionName': 'LEFT', 'positionCoords': [511.6, 335], 'bid': 1.56}, {'imgObject': {}, 'id': 'avocado', 'src': '/static/foodstim60/avocado.jpg', 'key': 'i', 'origWidth': 409, 'origHeight': 409, 'width': 409, 'height': 409, 'widthPercent': 0.45, 'rescaleHeight': False, 'trialN': 106, 'loaded': True, 'loadedTime': 5023.300000011921, 'positionName': 'RIGHT', 'positionCoords': [998.4, 335.5], 'bid': 4.68}]",206146.5,1669837674306,kiwi,avocado,1.56,4.68,3.1199999999999997,avocado,953.3000000119209,955,954.7000000178814,True,i,207602.5,1456.0,1669837675762,1456,HRV,HRV_0257,2022-11-30 19:49:58
107,"[{'imgObject': {}, 'id': 'roastedpotatoes', 'src': '/static/foodstim60/roastedpotatoes.jpg', 'key': 'u', 'origWidth': 409, 'origHeight': 410, 'width': 409, 'height': 410, 'widthPercent': 0.45, 'rescaleHeight': False, 'trialN': 107, 'loaded': True, 'loadedTime': 5380.100000023842, 'positionName': 'LEFT', 'positionCoords': [512.6, 335], 'bid': 5.51}, {'imgObject': {}, 'id': 'sweetpotato', 'src': '/static/foodstim60/sweetpotato.jpg', 'key': 'i', 'origWidth': 410, 'origHeight': 410, 'width': 410, 'height': 410, 'widthPercent': 0.45, 'rescaleHeight': False, 'trialN': 107, 'loaded': True, 'loadedTime': 5782.100000023842, 'positionName': 'RIGHT', 'positionCoords': [998.4, 335], 'bid': 5.62}]",207602.60000002384,1669837675762,roastedpotatoes,sweetpotato,5.51,5.62,0.11000000000000032,roastedpotatoes,878.2999999821186,879,878.6999999880791,True,u,208986.60000002384,1384.0,1669837677146,1384,HRV,HRV_0257,2022-11-30 19:49:58
108,"[{'imgObject': {}, 'id': 'corn cob', 'src': '/static/foodstim60/corn cob.jpg', 'key': 'u', 'origWidth': 411, 'origHeight': 411, 'width': 411, 'height': 411, 'widthPercent': 0.45, 'rescaleHeight': False, 'trialN': 108, 'loaded': True, 'loadedTime': 6073.4000000059605, 'positionName': 'LEFT', 'positionCoords': [510.6, 334.5], 'bid': 2.43}, {'imgObject': {}, 'id': 'seaweed', 'src': '/static/foodstim60/seaweed.jpg', 'key': 'i', 'origWidth': 410, 'origHeight': 410, 'width': 410, 'height': 410, 'widthPercent': 0.45, 'rescaleHeight': False, 'trialN': 108, 'loaded': True, 'loadedTime': 5274.100000023842, 'positionName': 'RIGHT', 'positionCoords': [998.4, 335], 'bid': 1.43}]",208986.90000000596,1669837677146,corn cob,seaweed,2.43,1.43,-1.0000000000000002,corn cob,826.0999999940395,829,829.0,True,u,210322.70000001788,1335.800000011921,1669837678482,1336,HRV,HRV_0257,2022-11-30 19:49:58
