success,trial_type,trial_index,time_elapsed,internal_node_id,Block,TrialNumber,TrialTime,trialTimeDiff,FPS_avg,FPS_med,FPS_mode,TrialDur,winResizeTime,rt,block,button_pressed,MotCoh,MotDir,ColCoh,Color,ChoiceKey,Choice,Accuracy,RT,nFrames,FPS,PPD,missTrial,missTrialMsg,onsetDelay,fullScreenExitTime,canvCenter,TrialType,Score,BlockTrial,stimulus,button_labels,exp,subjectId,date
True,fullscreen,0,2396,0.0-0.0,0.0,1.0,,,,,,,,,,,,,,,,,,,,,,,,,,,,,,,,HRV,HRV_0257,2022-11-30 20:01:24
,wl-check-fps,1,7369,0.0-1.0,0.0,2.0,"[3063.7, 3064.3, 3076.7, 3095.2, 3111.6, 3128.4, 3147.1, 3159.8, 3176.9, 3193.4, 3211.6, 3226.3, 3242.9, 3260.5, 3276.7, 3293.3, 3309.9, 3326.9, 3343.3, 3359.8, 3376.4, 3393, 3409.9, 3426.3, 3443, 3459.6, 3476.3, 3492.8, 3509.4, 3526.2, 3542.7, 3559.8, 3576, 3595, 3613, 3625.8, 3646.6, 3661.2, 3676, 3692.7, 3709.9, 3725.8, 3742, 3758.8, 3775.4, 3792, 3808.8, 3826.1, 3842.4, 3858.9, 3875.3, 3891.6, 3908.3, 3925.9, 3946, 3958.1, 3975.2, 3991.8, 4009.5, 4024.9, 4042.4, 4060.6, 4076.5, 4091.3, 4107.4, 4124, 4140.7, 4159.1, 4174.6, 4190.6, 4207.1, 4223.6, 4240.3, 4257, 4274.8, 4290.1, 4306.8, 4325.3, 4339.9, 4356.5, 4373.2, 4389.7, 4406.5, 4423, 4439.7, 4456.3, 4472.9, 4489.5, 4506.1, 4522.7, 4539.7, 4556.2, 4572.6, 4589.3, 4605.9, 4622.5, 4639.2, 4656.3, 4673.3, 4689.9, 4706.3, 4723, 4739.6, 4756.1, 4772.7, 4789.3, 4805.8, 4822.7, 4839.6, 4855.6, 4872.4, 4888.9, 4905.8, 4922.4, 4938.8, 4955.5, 4972, 4988.9, 5005.3, 5021.9, 5038.7, 5055.3, 5071.8, 5088.6, 5106, 5121.8, 5138.3, 5155.8, 5171.8, 5188.4, 5204.4, 5220.9, 5237.9, 5254.1, 5270.8, 5287.8, 5303.9, 5321.1, 5337.4, 5355.9, 5372.6, 5387.5, 5404.4, 5420.7, 5437, 5453.6, 5470.2, 5486.8, 5503.4, 5520, 5536.7, 5562.3, 5569.9, 5586.5, 5604, 5619.8, 5636.3, 5653.6, 5669.7, 5686.4, 5702.9, 5720.2, 5736.3, 5752.9, 5770.2, 5786.6, 5803.4, 5820.3, 5837.5, 5853.3, 5870.1, 5886.5, 5902.8, 5919.7, 5936.3, 5952.8, 5970, 5986.1, 6003, 6019.5, 6036.1, 6053, 6069.2, 6085.9, 6102.6, 6119.6, 6135.7, 6152.6, 6169.3, 6185.7, 6202.3, 6218.8, 6243.7, 6253.8, 6276.8, 6285.5, 6301.9, 6318.4, 6336.4, 6352.9, 6368.3, 6385, 6402, 6418.4, 6435, 6451.9, 6469.5, 6484.5, 6501.2, 6518, 6550.4, 6552.4, 6568.9, 6584.7, 6601.2, 6618.4, 6634.6, 6653.1, 6669.7, 6687.9, 6701.3, 6718.3, 6735.6, 6751.1, 6766.8, 6788.1, 6799.9, 6816.5, 6833.1, 6849.7, 6866.4, 6883.9, 6901.6, 6916.2, 6933, 6949.9, 6966.3, 6982.8, 6999.3, 7016, 7032.5, 7049.2, 7066.6, 7082.5, 7099.1, 7116.3, 7133.1, 7149.6, 7166.1, 7183, 7199.7, 7215.9, 7232.5, 7249.8, 7266.3, 7282.5, 7301.7, 7316.6, 7332.7, 7348.9, 7366.1, 7382.4, 7399.7, 7415.5, 7432.4, 7448.8, 7465.5, 7484.3, 7498.8, 7515.2, 7531.9, 7548.2, 7564.6, 7581.1, 7601.4, 7614.5, 7631, 7647.5, 7664.2, 7680.9, 7698.3, 7714.1, 7730.7, 7747.2, 7763.9, 7780.6, 7797.2, 7813.8, 7830.3, 7847, 7863.6, 7888.6, 7908.2, 7913.9, 7930.2, 7946.9, 7963.5, 7980.8, 7996.6, 8013.4]","[4.7, 0.6, 12.4, 18.5, 16.4, 16.8, 18.7, 12.7, 17.1, 16.5, 18.2, 14.7, 16.6, 17.6, 16.2, 16.6, 16.6, 17, 16.4, 16.5, 16.6, 16.6, 16.9, 16.4, 16.7, 16.6, 16.7, 16.5, 16.6, 16.8, 16.5, 17.1, 16.2, 19, 18, 12.8, 20.8, 14.6, 14.8, 16.7, 17.2, 15.9, 16.2, 16.8, 16.6, 16.6, 16.8, 17.3, 16.3, 16.5, 16.4, 16.3, 16.7, 17.6, 20.1, 12.1, 17.1, 16.6, 17.7, 15.4, 17.5, 18.2, 15.9, 14.8, 16.1, 16.6, 16.7, 18.4, 15.5, 16, 16.5, 16.5, 16.7, 16.7, 17.8, 15.3, 16.7, 18.5, 14.6, 16.6, 16.7, 16.5, 16.8, 16.5, 16.7, 16.6, 16.6, 16.6, 16.6, 16.6, 17, 16.5, 16.4, 16.7, 16.6, 16.6, 16.7, 17.1, 17, 16.6, 16.4, 16.7, 16.6, 16.5, 16.6, 16.6, 16.5, 16.9, 16.9, 16, 16.8, 16.5, 16.9, 16.6, 16.4, 16.7, 16.5, 16.9, 16.4, 16.6, 16.8, 16.6, 16.5, 16.8, 17.4, 15.8, 16.5, 17.5, 16, 16.6, 16, 16.5, 17, 16.2, 16.7, 17, 16.1, 17.2, 16.3, 18.5, 16.7, 14.9, 16.9, 16.3, 16.3, 16.6, 16.6, 16.6, 16.6, 16.6, 16.7, 25.6, 7.6, 16.6, 17.5, 15.8, 16.5, 17.3, 16.1, 16.7, 16.5, 17.3, 16.1, 16.6, 17.3, 16.4, 16.8, 16.9, 17.2, 15.8, 16.8, 16.4, 16.3, 16.9, 16.6, 16.5, 17.2, 16.1, 16.9, 16.5, 16.6, 16.9, 16.2, 16.7, 16.7, 17, 16.1, 16.9, 16.7, 16.4, 16.6, 16.5, 24.9, 10.1, 23, 8.7, 16.4, 16.5, 18, 16.5, 15.4, 16.7, 17, 16.4, 16.6, 16.9, 17.6, 15, 16.7, 16.8, 32.4, 2, 16.5, 15.8, 16.5, 17.2, 16.2, 18.5, 16.6, 18.2, 13.4, 17, 17.3, 15.5, 15.7, 21.3, 11.8, 16.6, 16.6, 16.6, 16.7, 17.5, 17.7, 14.6, 16.8, 16.9, 16.4, 16.5, 16.5, 16.7, 16.5, 16.7, 17.4, 15.9, 16.6, 17.2, 16.8, 16.5, 16.5, 16.9, 16.7, 16.2, 16.6, 17.3, 16.5, 16.2, 19.2, 14.9, 16.1, 16.2, 17.2, 16.3, 17.3, 15.8, 16.9, 16.4, 16.7, 18.8, 14.5, 16.4, 16.7, 16.3, 16.4, 16.5, 20.3, 13.1, 16.5, 16.5, 16.7, 16.7, 17.4, 15.8, 16.6, 16.5, 16.7, 16.7, 16.6, 16.6, 16.5, 16.7, 16.6, 25, 19.6, 5.7, 16.3, 16.7, 16.6, 17.3, 15.8, 16.8]",61.0,60.0,60.0,4970.8,[],,,,,,,,,,,,,,,,,,,,,,,,,HRV,HRV_0257,2022-11-30 20:01:24
,wl-html-keyboard-response,2,29261,0.0-2.0-0.0,0.0,3.0,,,,,,,,19870.40000000596,0.0,0,,,,,,,,,,,,,,,,,,,,,,HRV,HRV_0257,2022-11-30 20:01:24
,wl-rdm,3,36391,0.0-3.0-0.0,0.0,4.0,,,,,,,[],,,,0.0,0.0,87.9,0.0,u,0.0,True,1530.5000000298023,92.0,60.0,40.0,False,,3000.0,[],"[960, 540]",ColorTask_Demo,,,,,HRV,HRV_0257,2022-11-30 20:01:24
,wl-rdm,4,41272,0.0-3.0-1.0,0.0,5.0,,,,,,,[],,,,0.0,0.0,87.9,1.0,i,1.0,True,800.8000000119209,49.0,60.0,40.0,False,,2000.0,[],"[960, 540]",ColorTask_Demo,,,,,HRV,HRV_0257,2022-11-30 20:01:24
,wl-html-keyboard-response,5,48004,0.0-3.0-2.0,0.0,6.0,,,,,,,,4721.600000023842,0.0,1,,,,,,,,,,,,,,,,,,,,,,HRV,HRV_0257,2022-11-30 20:01:24
,wl-html-keyboard-response,6,70364,0.0-4.0-0.0,0.0,7.0,,,,,,,,20350.5,0.0,0,,,,,,,,,,,,,,,,,,,,,,HRV,HRV_0257,2022-11-30 20:01:24
,wl-html-keyboard-response,7,99252,0.0-5.0-0.0,0.0,8.0,,,,,,,,26881.5,0.0,0,,,,,,,,,,,,,,,,,,,,,,HRV,HRV_0257,2022-11-30 20:01:24
,wl-rdm,8,101845,0.0-6.0-0.0,0.0,9.0,,,,,,,[],,,,,,87.9,0.0,u,0.0,True,1159.800000011921,70.0,60.0,40.0,False,,351.30280453125016,[],"[960, 540]",ColorTask,1.0,1.0,,,HRV,HRV_0257,2022-11-30 20:01:24
,wl-rdm,9,104487,0.0-6.1-0.1,0.0,10.0,,,,,,,[],,,,,,50.0,1.0,i,1.0,True,1307.9000000059605,79.0,60.0,40.0,False,,250.06482113546002,[],"[960, 540]",ColorTask,2.0,2.0,,,HRV,HRV_0257,2022-11-30 20:01:24
,wl-rdm,10,107013,0.0-6.2-0.2,0.0,11.0,,,,,,,[],,,,,,56.4,1.0,u,0.0,False,1194.5,72.0,60.0,40.0,False,,263.1371024670969,[],"[960, 540]",ColorTask,1.0,3.0,,,HRV,HRV_0257,2022-11-30 20:01:24
,wl-rdm,11,109409,0.0-6.3-0.3,0.0,12.0,,,,,,,[],,,,,,73.6,1.0,i,1.0,True,1100.300000011921,67.0,60.0,40.0,False,,206.531945874534,[],"[960, 540]",ColorTask,2.0,4.0,,,HRV,HRV_0257,2022-11-30 20:01:24
,wl-rdm,12,111819,0.0-6.4-0.4,0.0,13.0,,,,,,,[],,,,,,73.6,0.0,u,0.0,True,1015.5999999642372,62.0,60.0,40.0,False,,327.67253830829833,[],"[960, 540]",ColorTask,3.0,5.0,,,HRV,HRV_0257,2022-11-30 20:01:24
,wl-rdm,13,114144,0.0-6.5-0.5,0.0,14.0,,,,,,,[],,,,,,53.2,0.0,u,0.0,True,1014.4999999701977,60.0,60.0,40.0,False,,229.35409099282435,[],"[960, 540]",ColorTask,4.0,6.0,,,HRV,HRV_0257,2022-11-30 20:01:24
,wl-rdm,14,116604,0.0-6.6-0.6,0.0,15.0,,,,,,,[],,,,,,73.6,0.0,u,0.0,True,1128.7000000178814,68.0,60.0,40.0,False,,262.0370942648351,[],"[960, 540]",ColorTask,5.0,7.0,,,HRV,HRV_0257,2022-11-30 20:01:24
,wl-rdm,15,119016,0.0-6.7-0.7,0.0,16.0,,,,,,,[],,,,,,53.2,1.0,i,1.0,True,973.7999999821186,59.0,60.0,40.0,False,,357.99857360705244,[],"[960, 540]",ColorTask,6.0,8.0,,,HRV,HRV_0257,2022-11-30 20:01:24
,wl-rdm,16,121424,0.0-6.8-0.8,0.0,17.0,,,,,,,[],,,,,,50.0,0.0,u,0.0,True,1000.9000000059605,61.0,60.0,40.0,False,,324.1578847639579,[],"[960, 540]",ColorTask,7.0,9.0,,,HRV,HRV_0257,2022-11-30 20:01:24
,wl-rdm,17,123722,0.0-6.9-0.9,0.0,18.0,,,,,,,[],,,,,,87.9,0.0,u,0.0,True,950.6000000238419,58.0,60.0,40.0,False,,261.2008170961656,[],"[960, 540]",ColorTask,8.0,10.0,,,HRV,HRV_0257,2022-11-30 20:01:24
,wl-rdm,18,125946,0.0-6.10-0.10,0.0,19.0,,,,,,,[],,,,,,87.9,1.0,i,1.0,True,843.9000000059605,51.0,60.0,40.0,False,,286.7482249421979,[],"[960, 540]",ColorTask,9.0,11.0,,,HRV,HRV_0257,2022-11-30 20:01:24
,wl-rdm,19,128272,0.0-6.11-0.11,0.0,20.0,,,,,,,[],,,,,,53.2,1.0,i,1.0,True,987.5,60.0,60.0,40.0,False,,255.4090665397637,[],"[960, 540]",ColorTask,10.0,12.0,,,HRV,HRV_0257,2022-11-30 20:01:24
,wl-rdm,20,130500,0.0-6.12-0.12,0.0,21.0,,,,,,,[],,,,,,56.4,1.0,i,1.0,True,935.1999999880791,56.0,60.0,40.0,False,,203.3238012253947,[],"[960, 540]",ColorTask,11.0,13.0,,,HRV,HRV_0257,2022-11-30 20:01:24
,wl-rdm,21,132743,0.0-6.13-0.13,0.0,22.0,,,,,,,[],,,,,,87.9,1.0,i,1.0,True,906.0999999940395,55.0,60.0,40.0,False,,254.6446675637057,[],"[960, 540]",ColorTask,12.0,14.0,,,HRV,HRV_0257,2022-11-30 20:01:24
,wl-rdm,22,135120,0.0-6.14-0.14,0.0,23.0,,,,,,,[],,,,,,53.2,0.0,i,1.0,False,989.1999999880791,60.0,60.0,40.0,False,,309.000851305003,[],"[960, 540]",ColorTask,11.0,15.0,,,HRV,HRV_0257,2022-11-30 20:01:24
,wl-rdm,23,137481,0.0-6.15-0.15,0.0,24.0,,,,,,,[],,,,,,62.5,0.0,u,0.0,True,979.2999999821186,59.0,60.0,40.0,False,,327.3111057750779,[],"[960, 540]",ColorTask,12.0,16.0,,,HRV,HRV_0257,2022-11-30 20:01:24
,wl-rdm,24,139990,0.0-6.16-0.16,0.0,25.0,,,,,,,[],,,,,,62.5,0.0,u,0.0,True,1127.699999988079,68.0,60.0,40.0,False,,305.89384022307786,[],"[960, 540]",ColorTask,13.0,17.0,,,HRV,HRV_0257,2022-11-30 20:01:24
,wl-rdm,25,142450,0.0-6.17-0.17,0.0,26.0,,,,,,,[],,,,,,73.6,1.0,i,1.0,True,1044.5999999940395,63.0,60.0,40.0,False,,348.8567267381019,[],"[960, 540]",ColorTask,14.0,18.0,,,HRV,HRV_0257,2022-11-30 20:01:24
,wl-rdm,26,144527,0.0-6.18-0.18,0.0,27.0,,,,,,,[],,,,,,87.9,1.0,i,1.0,True,765.6999999880791,47.0,60.0,40.0,False,,227.71052369611868,[],"[960, 540]",ColorTask,15.0,19.0,,,HRV,HRV_0257,2022-11-30 20:01:24
,wl-rdm,27,146771,0.0-6.19-0.19,0.0,28.0,,,,,,,[],,,,,,56.4,0.0,u,0.0,True,833.9000000357628,50.0,60.0,40.0,False,,341.6256679869505,[],"[960, 540]",ColorTask,16.0,20.0,,,HRV,HRV_0257,2022-11-30 20:01:24
,wl-rdm,28,149049,0.0-6.20-0.20,0.0,29.0,,,,,,,[],,,,,,56.4,1.0,i,1.0,True,898.7000000178814,55.0,60.0,40.0,False,,292.5294461085145,[],"[960, 540]",ColorTask,17.0,21.0,,,HRV,HRV_0257,2022-11-30 20:01:24
,wl-rdm,29,151243,0.0-6.21-0.21,0.0,30.0,,,,,,,[],,,,,,73.6,1.0,i,1.0,True,802.9000000059605,48.0,60.0,40.0,False,,309.88044513530633,[],"[960, 540]",ColorTask,18.0,22.0,,,HRV,HRV_0257,2022-11-30 20:01:24
,wl-rdm,30,153155,0.0-6.22-0.22,0.0,31.0,,,,,,,[],,,,,,73.6,0.0,u,0.0,True,613.3000000119209,37.0,60.0,40.0,False,,218.9174801332511,[],"[960, 540]",ColorTask,19.0,23.0,,,HRV,HRV_0257,2022-11-30 20:01:24
,wl-rdm,31,155298,0.0-6.23-0.23,0.0,32.0,,,,,,,[],,,,,,50.0,0.0,i,1.0,False,744.0999999940395,44.0,60.0,40.0,False,,332.97551602998396,[],"[960, 540]",ColorTask,18.0,24.0,,,HRV,HRV_0257,2022-11-30 20:01:24
,wl-rdm,32,157379,0.0-6.24-0.24,0.0,33.0,,,,,,,[],,,,,,56.4,0.0,i,1.0,False,762.5999999940395,46.0,60.0,40.0,False,,280.7880223424903,[],"[960, 540]",ColorTask,17.0,25.0,,,HRV,HRV_0257,2022-11-30 20:01:24
,wl-rdm,33,159420,0.0-6.25-0.25,0.0,34.0,,,,,,,[],,,,,,87.9,0.0,u,0.0,True,755.8999999761581,47.0,60.0,40.0,False,,210.6535905011843,[],"[960, 540]",ColorTask,18.0,26.0,,,HRV,HRV_0257,2022-11-30 20:01:24
,wl-rdm,34,161549,0.0-6.26-0.26,0.0,35.0,,,,,,,[],,,,,,56.4,0.0,u,0.0,True,842.5,51.0,60.0,40.0,False,,200.15901684118526,[],"[960, 540]",ColorTask,19.0,27.0,,,HRV,HRV_0257,2022-11-30 20:01:24
,wl-rdm,35,163776,0.0-6.27-0.27,0.0,36.0,,,,,,,[],,,,,,53.2,1.0,i,1.0,True,865.2999999821186,52.0,60.0,40.0,False,,294.1597886169542,[],"[960, 540]",ColorTask,20.0,28.0,,,HRV,HRV_0257,2022-11-30 20:01:24
,wl-rdm,36,165837,0.0-6.28-0.28,0.0,37.0,,,,,,,[],,,,,,87.9,1.0,i,1.0,True,731.2999999821186,44.0,60.0,40.0,False,,256.1192666361193,[],"[960, 540]",ColorTask,21.0,29.0,,,HRV,HRV_0257,2022-11-30 20:01:24
,wl-rdm,37,168181,0.0-6.29-0.29,0.0,38.0,,,,,,,[],,,,,,62.5,0.0,u,0.0,True,925.1999999880791,56.0,60.0,40.0,False,,348.4444892963227,[],"[960, 540]",ColorTask,22.0,30.0,,,HRV,HRV_0257,2022-11-30 20:01:24
,wl-rdm,38,170361,0.0-6.30-0.30,0.0,39.0,,,,,,,[],,,,,,50.0,0.0,u,0.0,True,711.2000000476837,43.0,60.0,40.0,False,,386.63428503505185,[],"[960, 540]",ColorTask,23.0,31.0,,,HRV,HRV_0257,2022-11-30 20:01:24
,wl-rdm,39,172534,0.0-6.31-0.31,0.0,40.0,,,,,,,[],,,,,,53.2,0.0,i,1.0,False,769.8000000119209,47.0,60.0,40.0,False,,330.99395616471963,[],"[960, 540]",ColorTask,22.0,32.0,,,HRV,HRV_0257,2022-11-30 20:01:24
,wl-rdm,40,174766,0.0-6.32-0.32,0.0,41.0,,,,,,,[],,,,,,56.4,0.0,u,0.0,True,849.6000000238419,51.0,60.0,40.0,False,,309.54596395705636,[],"[960, 540]",ColorTask,23.0,33.0,,,HRV,HRV_0257,2022-11-30 20:01:24
,wl-rdm,41,177005,0.0-6.33-0.33,0.0,42.0,,,,,,,[],,,,,,87.9,0.0,u,0.0,True,799.8000000119209,48.0,60.0,40.0,False,,348.48174982321876,[],"[960, 540]",ColorTask,24.0,34.0,,,HRV,HRV_0257,2022-11-30 20:01:24
,wl-rdm,42,179016,0.0-6.34-0.34,0.0,43.0,,,,,,,[],,,,,,73.6,1.0,i,1.0,True,691.4000000357628,42.0,60.0,40.0,False,,247.85870160487244,[],"[960, 540]",ColorTask,25.0,35.0,,,HRV,HRV_0257,2022-11-30 20:01:24
,wl-rdm,43,181526,0.0-6.35-0.35,0.0,44.0,,,,,,,[],,,,,,62.5,0.0,u,0.0,True,1129.2000000178814,67.0,60.0,40.0,False,,304.7669732839907,[],"[960, 540]",ColorTask,26.0,36.0,,,HRV,HRV_0257,2022-11-30 20:01:24
,wl-rdm,44,183704,0.0-6.36-0.36,0.0,45.0,,,,,,,[],,,,,,62.5,1.0,i,1.0,True,758.2999999821186,46.0,60.0,40.0,False,,346.65320385266773,[],"[960, 540]",ColorTask,27.0,37.0,,,HRV,HRV_0257,2022-11-30 20:01:24
,wl-rdm,45,185898,0.0-6.37-0.37,0.0,46.0,,,,,,,[],,,,,,53.2,0.0,i,1.0,False,909.6999999880791,55.0,60.0,40.0,False,,214.04283295879503,[],"[960, 540]",ColorTask,26.0,38.0,,,HRV,HRV_0257,2022-11-30 20:01:24
,wl-rdm,46,188175,0.0-6.38-0.38,0.0,47.0,,,,,,,[],,,,,,62.5,1.0,i,1.0,True,904.4999999701977,55.0,60.0,40.0,False,,288.7130491811327,[],"[960, 540]",ColorTask,27.0,39.0,,,HRV,HRV_0257,2022-11-30 20:01:24
,wl-rdm,47,190458,0.0-6.39-0.39,0.0,48.0,,,,,,,[],,,,,,50.0,1.0,i,1.0,True,965.5999999940395,58.0,60.0,40.0,False,,231.31552905248049,[],"[960, 540]",ColorTask,28.0,40.0,,,HRV,HRV_0257,2022-11-30 20:01:24
,wl-rdm,48,192679,0.0-6.40-0.40,0.0,49.0,,,,,,,[],,,,,,50.0,0.0,i,1.0,False,904.8000000119209,55.0,60.0,40.0,False,,239.11659134848833,[],"[960, 540]",ColorTask,27.0,41.0,,,HRV,HRV_0257,2022-11-30 20:01:24
,wl-rdm,49,194891,0.0-6.41-0.41,0.0,50.0,,,,,,,[],,,,,,87.9,1.0,i,1.0,True,758.6999999880791,46.0,60.0,40.0,False,,374.9639096329461,[],"[960, 540]",ColorTask,28.0,42.0,,,HRV,HRV_0257,2022-11-30 20:01:24
,wl-rdm,50,196819,0.0-6.42-0.42,0.0,51.0,,,,,,,[],,,,,,87.9,0.0,u,0.0,True,638.1999999880791,39.0,60.0,40.0,False,,215.51721124188907,[],"[960, 540]",ColorTask,29.0,43.0,,,HRV,HRV_0257,2022-11-30 20:01:24
,wl-rdm,51,198962,0.0-6.43-0.43,0.0,52.0,,,,,,,[],,,,,,62.5,0.0,i,1.0,False,864.4000000059605,52.0,60.0,40.0,False,,216.42863351592055,[],"[960, 540]",ColorTask,28.0,44.0,,,HRV,HRV_0257,2022-11-30 20:01:24
,wl-rdm,52,201207,0.0-6.44-0.44,0.0,53.0,,,,,,,[],,,,,,56.4,1.0,i,1.0,True,875.1999999880791,53.0,60.0,40.0,False,,289.3399369344033,[],"[960, 540]",ColorTask,29.0,45.0,,,HRV,HRV_0257,2022-11-30 20:01:24
,wl-rdm,53,203384,0.0-6.45-0.45,0.0,54.0,,,,,,,[],,,,,,53.2,0.0,i,1.0,False,886.0,53.0,60.0,40.0,False,,200.26828625565662,[],"[960, 540]",ColorTask,28.0,46.0,,,HRV,HRV_0257,2022-11-30 20:01:24
,wl-rdm,54,205345,0.0-6.46-0.46,0.0,55.0,,,,,,,[],,,,,,87.9,1.0,i,1.0,True,664.8999999761581,40.0,60.0,40.0,False,,224.45024720587807,[],"[960, 540]",ColorTask,29.0,47.0,,,HRV,HRV_0257,2022-11-30 20:01:24
,wl-rdm,55,207224,0.0-6.47-0.47,0.0,56.0,,,,,,,[],,,,,,73.6,1.0,i,1.0,True,569.1999999880791,35.0,60.0,40.0,False,,231.48479479606618,[],"[960, 540]",ColorTask,30.0,48.0,,,HRV,HRV_0257,2022-11-30 20:01:24
,wl-rdm,56,209201,0.0-6.48-0.48,0.0,57.0,,,,,,,[],,,,,,62.5,1.0,i,1.0,True,626.4999999701977,37.0,60.0,40.0,False,,269.84981423417753,[],"[960, 540]",ColorTask,31.0,49.0,,,HRV,HRV_0257,2022-11-30 20:01:24
,wl-rdm,57,211163,0.0-6.49-0.49,0.0,58.0,,,,,,,[],,,,,,62.5,0.0,u,0.0,True,615.4000000059605,38.0,60.0,40.0,False,,265.6190462765019,[],"[960, 540]",ColorTask,32.0,50.0,,,HRV,HRV_0257,2022-11-30 20:01:24
,wl-rdm,58,214439,0.0-6.50-0.50,0.0,59.0,,,,,,,[],,,,,,73.6,0.0,u,0.0,True,1932.699999988079,116.0,60.0,40.0,False,,259.7776249241839,[],"[960, 540]",ColorTask,33.0,51.0,,,HRV,HRV_0257,2022-11-30 20:01:24
,wl-rdm,59,216615,0.0-6.51-0.51,0.0,60.0,,,,,,,[],,,,,,53.2,0.0,i,1.0,False,852.0,52.0,60.0,40.0,False,,240.69548899638542,[],"[960, 540]",ColorTask,32.0,52.0,,,HRV,HRV_0257,2022-11-30 20:01:24
,wl-rdm,60,218976,0.0-6.52-0.52,0.0,61.0,,,,,,,[],,,,,,87.9,0.0,u,0.0,True,949.7000000178814,58.0,60.0,40.0,False,,325.5692702064332,[],"[960, 540]",ColorTask,33.0,53.0,,,HRV,HRV_0257,2022-11-30 20:01:24
,wl-rdm,61,222016,0.0-6.53-0.53,0.0,62.0,,,,,,,[],,,,,,73.6,0.0,u,0.0,True,1713.699999988079,104.0,60.0,40.0,False,,247.1892583343393,[],"[960, 540]",ColorTask,34.0,54.0,,,HRV,HRV_0257,2022-11-30 20:01:24
,wl-rdm,62,224527,0.0-6.54-0.54,0.0,63.0,,,,,,,[],,,,,,50.0,1.0,i,1.0,True,1075.4000000059605,65.0,60.0,40.0,False,,357.89707530149633,[],"[960, 540]",ColorTask,35.0,55.0,,,HRV,HRV_0257,2022-11-30 20:01:24
,wl-rdm,63,226808,0.0-6.55-0.55,0.0,64.0,,,,,,,[],,,,,,87.9,0.0,u,0.0,True,897.9000000059605,54.0,60.0,40.0,False,,305.88034257957077,[],"[960, 540]",ColorTask,36.0,56.0,,,HRV,HRV_0257,2022-11-30 20:01:24
,wl-rdm,64,229249,0.0-6.56-0.56,0.0,65.0,,,,,,,[],,,,,,50.0,1.0,i,1.0,True,994.1000000238419,60.0,60.0,40.0,False,,384.0129402507414,[],"[960, 540]",ColorTask,37.0,57.0,,,HRV,HRV_0257,2022-11-30 20:01:24
,wl-rdm,65,231741,0.0-6.57-0.57,0.0,66.0,,,,,,,[],,,,,,53.2,0.0,i,1.0,False,1065.7999999821186,63.0,60.0,40.0,False,,362.52473298396706,[],"[960, 540]",ColorTask,36.0,58.0,,,HRV,HRV_0257,2022-11-30 20:01:24
,wl-rdm,66,234266,0.0-6.58-0.58,0.0,67.0,,,,,,,[],,,,,,73.6,0.0,u,0.0,True,1082.0999999940395,66.0,60.0,40.0,False,,351.89139885602276,[],"[960, 540]",ColorTask,37.0,59.0,,,HRV,HRV_0257,2022-11-30 20:01:24
,wl-rdm,67,237557,0.0-6.59-0.59,0.0,68.0,,,,,,,[],,,,,,62.5,0.0,u,0.0,True,1972.0,119.0,60.0,40.0,False,,221.69523985658986,[],"[960, 540]",ColorTask,38.0,60.0,,,HRV,HRV_0257,2022-11-30 20:01:24
,wl-rdm,68,240300,0.0-6.60-0.60,0.0,69.0,,,,,,,[],,,,,,56.4,0.0,i,1.0,False,1399.7999999821186,85.0,60.0,40.0,False,,261.0296683652764,[],"[960, 540]",ColorTask,37.0,61.0,,,HRV,HRV_0257,2022-11-30 20:01:24
,wl-rdm,69,242478,0.0-6.61-0.61,0.0,70.0,,,,,,,[],,,,,,73.6,1.0,i,1.0,True,771.2999999821186,47.0,60.0,40.0,False,,339.7470253923915,[],"[960, 540]",ColorTask,38.0,62.0,,,HRV,HRV_0257,2022-11-30 20:01:24
,wl-rdm,70,245239,0.0-6.62-0.62,0.0,71.0,,,,,,,[],,,,,,62.5,0.0,u,0.0,True,1367.7000000178814,83.0,60.0,40.0,False,,329.8452660510601,[],"[960, 540]",ColorTask,39.0,63.0,,,HRV,HRV_0257,2022-11-30 20:01:24
,wl-rdm,71,248510,0.0-6.63-0.63,0.0,72.0,,,,,,,[],,,,,,53.2,0.0,i,1.0,False,1824.8999999761581,109.0,60.0,40.0,False,,371.9317077734007,[],"[960, 540]",ColorTask,38.0,64.0,,,HRV,HRV_0257,2022-11-30 20:01:24
,wl-rdm,72,250772,0.0-6.64-0.64,0.0,73.0,,,,,,,[],,,,,,73.6,0.0,u,0.0,True,973.1999999880791,59.0,60.0,40.0,False,,222.16247527419316,[],"[960, 540]",ColorTask,39.0,65.0,,,HRV,HRV_0257,2022-11-30 20:01:24
,wl-rdm,73,253248,0.0-6.65-0.65,0.0,74.0,,,,,,,[],,,,,,62.5,0.0,u,0.0,True,935.9000000059605,57.0,60.0,40.0,False,,375.0144550655861,[],"[960, 540]",ColorTask,40.0,66.0,,,HRV,HRV_0257,2022-11-30 20:01:24
,wl-rdm,74,255409,0.0-6.66-0.66,0.0,75.0,,,,,,,[],,,,,,87.9,0.0,u,0.0,True,754.0000000298023,47.0,60.0,40.0,False,,318.09531604229056,[],"[960, 540]",ColorTask,41.0,67.0,,,HRV,HRV_0257,2022-11-30 20:01:24
,wl-rdm,75,257536,0.0-6.67-0.67,0.0,76.0,,,,,,,[],,,,,,73.6,1.0,i,1.0,True,836.1000000238419,51.0,60.0,40.0,False,,205.826742454799,[],"[960, 540]",ColorTask,42.0,68.0,,,HRV,HRV_0257,2022-11-30 20:01:24
,wl-rdm,76,259614,0.0-6.68-0.68,0.0,77.0,,,,,,,[],,,,,,87.9,0.0,u,0.0,True,668.5,41.0,60.0,40.0,False,,318.270628162614,[],"[960, 540]",ColorTask,43.0,69.0,,,HRV,HRV_0257,2022-11-30 20:01:24
,wl-rdm,77,263338,0.0-6.69-0.69,0.0,78.0,,,,,,,[],,,,,,50.0,0.0,i,1.0,False,2381.5999999940395,144.0,60.0,40.0,False,,260.0165709346991,[],"[960, 540]",ColorTask,42.0,70.0,,,HRV,HRV_0257,2022-11-30 20:01:24
,wl-rdm,78,265466,0.0-6.70-0.70,0.0,79.0,,,,,,,[],,,,,,53.2,1.0,i,1.0,True,781.8000000119209,47.0,60.0,40.0,False,,278.33016098021426,[],"[960, 540]",ColorTask,43.0,71.0,,,HRV,HRV_0257,2022-11-30 20:01:24
,wl-rdm,79,267592,0.0-6.71-0.71,0.0,80.0,,,,,,,[],,,,,,62.5,1.0,i,1.0,True,673.0000000298023,41.0,60.0,40.0,False,,379.2003847255312,[],"[960, 540]",ColorTask,44.0,72.0,,,HRV,HRV_0257,2022-11-30 20:01:24
,wl-rdm,80,270085,0.0-6.72-0.72,0.0,81.0,,,,,,,[],,,,,,53.2,1.0,i,1.0,True,1161.1000000238419,70.0,60.0,40.0,False,,253.8565734533292,[],"[960, 540]",ColorTask,45.0,73.0,,,HRV,HRV_0257,2022-11-30 20:01:24
,wl-rdm,81,272711,0.0-6.73-0.73,0.0,82.0,,,,,,,[],,,,,,50.0,1.0,u,0.0,False,1158.0999999940395,70.0,60.0,40.0,False,,390.9485394410067,[],"[960, 540]",ColorTask,44.0,74.0,,,HRV,HRV_0257,2022-11-30 20:01:24
,wl-rdm,82,274822,0.0-6.74-0.74,0.0,83.0,,,,,,,[],,,,,,62.5,1.0,i,1.0,True,720.4000000059605,44.0,60.0,40.0,False,,304.7988344283541,[],"[960, 540]",ColorTask,45.0,75.0,,,HRV,HRV_0257,2022-11-30 20:01:24
,wl-rdm,83,276902,0.0-6.75-0.75,0.0,84.0,,,,,,,[],,,,,,50.0,0.0,i,1.0,False,639.6999999880791,39.0,60.0,40.0,False,,365.69219029479666,[],"[960, 540]",ColorTask,44.0,76.0,,,HRV,HRV_0257,2022-11-30 20:01:24
,wl-rdm,84,279228,0.0-6.76-0.76,0.0,85.0,,,,,,,[],,,,,,73.6,1.0,i,1.0,True,877.6999999880791,53.0,60.0,40.0,False,,329.2806675324797,[],"[960, 540]",ColorTask,45.0,77.0,,,HRV,HRV_0257,2022-11-30 20:01:24
,wl-rdm,85,281653,0.0-6.77-0.77,0.0,86.0,,,,,,,[],,,,,,62.5,1.0,i,1.0,True,967.0999999940395,58.0,60.0,40.0,False,,359.6544621354914,[],"[960, 540]",ColorTask,46.0,78.0,,,HRV,HRV_0257,2022-11-30 20:01:24
,wl-rdm,86,283830,0.0-6.78-0.78,0.0,87.0,,,,,,,[],,,,,,53.2,1.0,i,1.0,True,875.0,53.0,60.0,40.0,False,,229.89005410622755,[],"[960, 540]",ColorTask,47.0,79.0,,,HRV,HRV_0257,2022-11-30 20:01:24
,wl-rdm,87,286274,0.0-6.79-0.79,0.0,88.0,,,,,,,[],,,,,,53.2,1.0,i,1.0,True,1140.199999988079,69.0,60.0,40.0,False,,236.50334254797073,[],"[960, 540]",ColorTask,48.0,80.0,,,HRV,HRV_0257,2022-11-30 20:01:24
,wl-rdm,88,288634,0.0-6.80-0.80,0.0,89.0,,,,,,,[],,,,,,56.4,0.0,i,1.0,False,1026.9000000059605,62.0,60.0,40.0,False,,248.05219890162,[],"[960, 540]",ColorTask,47.0,81.0,,,HRV,HRV_0257,2022-11-30 20:01:24
,wl-rdm,89,290615,0.0-6.81-0.81,0.0,90.0,,,,,,,[],,,,,,87.9,1.0,i,1.0,True,683.6999999880791,41.0,60.0,40.0,False,,223.27019642099714,[],"[960, 540]",ColorTask,48.0,82.0,,,HRV,HRV_0257,2022-11-30 20:01:24
,wl-rdm,90,293079,0.0-6.82-0.82,0.0,91.0,,,,,,,[],,,,,,50.0,1.0,i,1.0,True,1078.8999999761581,65.0,60.0,40.0,False,,322.80949584321854,[],"[960, 540]",ColorTask,49.0,83.0,,,HRV,HRV_0257,2022-11-30 20:01:24
,wl-rdm,91,295384,0.0-6.83-0.83,0.0,92.0,,,,,,,[],,,,,,50.0,0.0,i,1.0,False,986.7999999821186,59.0,60.0,40.0,False,,230.20194893295502,[],"[960, 540]",ColorTask,48.0,84.0,,,HRV,HRV_0257,2022-11-30 20:01:24
,wl-rdm,92,297643,0.0-6.84-0.84,0.0,93.0,,,,,,,[],,,,,,56.4,1.0,i,1.0,True,869.9000000059605,51.0,60.0,40.0,False,,277.4556265469479,[],"[960, 540]",ColorTask,49.0,85.0,,,HRV,HRV_0257,2022-11-30 20:01:24
,wl-rdm,93,299854,0.0-6.85-0.85,0.0,94.0,,,,,,,[],,,,,,56.4,1.0,i,1.0,True,925.8999999761581,56.0,60.0,40.0,False,,202.02183507571192,[],"[960, 540]",ColorTask,50.0,86.0,,,HRV,HRV_0257,2022-11-30 20:01:24
,wl-rdm,94,301898,0.0-6.86-0.86,0.0,95.0,,,,,,,[],,,,,,73.6,1.0,i,1.0,True,709.3000000119209,42.0,60.0,40.0,False,,260.1203151128997,[],"[960, 540]",ColorTask,51.0,87.0,,,HRV,HRV_0257,2022-11-30 20:01:24
,wl-rdm,95,303893,0.0-6.87-0.87,0.0,96.0,,,,,,,[],,,,,,62.5,1.0,i,1.0,True,640.5,39.0,60.0,40.0,False,,271.97118197996303,[],"[960, 540]",ColorTask,52.0,88.0,,,HRV,HRV_0257,2022-11-30 20:01:24
,wl-rdm,96,306071,0.0-6.88-0.88,0.0,97.0,,,,,,,[],,,,,,62.5,1.0,i,1.0,True,895.2000000178814,54.0,60.0,40.0,False,,210.82415255758093,[],"[960, 540]",ColorTask,53.0,89.0,,,HRV,HRV_0257,2022-11-30 20:01:24
,wl-rdm,97,308248,0.0-6.89-0.89,0.0,98.0,,,,,,,[],,,,,,56.4,0.0,u,0.0,True,823.0999999940395,49.0,60.0,40.0,False,,279.00191394377987,[],"[960, 540]",ColorTask,54.0,90.0,,,HRV,HRV_0257,2022-11-30 20:01:24
,wl-rdm,98,310408,0.0-6.90-0.90,0.0,99.0,,,,,,,[],,,,,,73.6,0.0,u,0.0,True,791.9000000059605,48.0,60.0,40.0,False,,290.64889601615323,[],"[960, 540]",ColorTask,55.0,91.0,,,HRV,HRV_0257,2022-11-30 20:01:24
,wl-rdm,99,312370,0.0-6.91-0.91,0.0,100.0,,,,,,,[],,,,,,87.9,1.0,i,1.0,True,604.2000000178814,36.0,60.0,40.0,False,,295.1533292928346,[],"[960, 540]",ColorTask,56.0,92.0,,,HRV,HRV_0257,2022-11-30 20:01:24
,wl-rdm,100,314398,0.0-6.92-0.92,0.0,101.0,,,,,,,[],,,,,,50.0,1.0,i,1.0,True,694.2000000178814,42.0,60.0,40.0,False,,266.0346463979488,[],"[960, 540]",ColorTask,57.0,93.0,,,HRV,HRV_0257,2022-11-30 20:01:24
,wl-rdm,101,316941,0.0-6.93-0.93,0.0,102.0,,,,,,,[],,,,,,56.4,0.0,i,1.0,False,1081.4000000059605,65.0,60.0,40.0,False,,386.1516376296677,[],"[960, 540]",ColorTask,56.0,94.0,,,HRV,HRV_0257,2022-11-30 20:01:24
,wl-rdm,102,319018,0.0-6.94-0.94,0.0,103.0,,,,,,,[],,,,,,56.4,1.0,i,1.0,True,754.7999999821186,46.0,60.0,40.0,False,,237.85508295277765,[],"[960, 540]",ColorTask,57.0,95.0,,,HRV,HRV_0257,2022-11-30 20:01:24
,wl-rdm,103,321097,0.0-6.95-0.95,0.0,104.0,,,,,,,[],,,,,,50.0,0.0,i,1.0,False,757.4000000059605,45.0,60.0,40.0,False,,242.77595717256406,[],"[960, 540]",ColorTask,56.0,96.0,,,HRV,HRV_0257,2022-11-30 20:01:24
,wl-rdm,104,323505,0.0-6.96-0.96,0.0,105.0,,,,,,,[],,,,,,53.2,0.0,i,1.0,False,1029.0,61.0,60.0,40.0,False,,309.33138055133645,[],"[960, 540]",ColorTask,55.0,97.0,,,HRV,HRV_0257,2022-11-30 20:01:24
,wl-rdm,105,325750,0.0-6.97-0.97,0.0,106.0,,,,,,,[],,,,,,50.0,0.0,i,1.0,False,924.1999999880791,57.0,60.0,40.0,False,,234.5983248761857,[],"[960, 540]",ColorTask,54.0,98.0,,,HRV,HRV_0257,2022-11-30 20:01:24
,wl-rdm,106,328676,0.0-6.98-0.98,0.0,107.0,,,,,,,[],,,,,,50.0,1.0,i,1.0,True,1486.5999999940395,90.0,60.0,40.0,False,,353.3692306311426,[],"[960, 540]",ColorTask,55.0,99.0,,,HRV,HRV_0257,2022-11-30 20:01:24
,wl-rdm,107,330854,0.0-6.99-0.99,0.0,108.0,,,,,,,[],,,,,,56.4,1.0,i,1.0,True,838.5999999940395,51.0,60.0,40.0,False,,275.9155155114262,[],"[960, 540]",ColorTask,56.0,100.0,,,HRV,HRV_0257,2022-11-30 20:01:24
,wl-rdm,108,333231,0.0-6.100-0.100,0.0,109.0,,,,,,,[],,,,,,73.6,0.0,u,0.0,True,985.8000000417233,60.0,60.0,40.0,False,,301.4923015209982,[],"[960, 540]",ColorTask,57.0,101.0,,,HRV,HRV_0257,2022-11-30 20:01:24
,wl-rdm,109,335406,0.0-6.101-0.101,0.0,110.0,,,,,,,[],,,,,,53.2,1.0,i,1.0,True,845.5000000298023,52.0,60.0,40.0,False,,253.73198483411684,[],"[960, 540]",ColorTask,58.0,102.0,,,HRV,HRV_0257,2022-11-30 20:01:24
,wl-rdm,110,337501,0.0-6.102-0.102,0.0,111.0,,,,,,,[],,,,,,87.9,1.0,i,1.0,True,620.7999999821186,38.0,60.0,40.0,False,,399.67435844172047,[],"[960, 540]",ColorTask,59.0,103.0,,,HRV,HRV_0257,2022-11-30 20:01:24
,wl-rdm,111,339728,0.0-6.103-0.103,0.0,112.0,,,,,,,[],,,,,,62.5,1.0,i,1.0,True,833.5999999940395,51.0,60.0,40.0,False,,306.4002642531936,[],"[960, 540]",ColorTask,60.0,104.0,,,HRV,HRV_0257,2022-11-30 20:01:24
,wl-rdm,112,341822,0.0-6.104-0.104,0.0,113.0,,,,,,,[],,,,,,53.2,1.0,i,1.0,True,645.0,39.0,60.0,40.0,False,,367.70645824530345,[],"[960, 540]",ColorTask,61.0,105.0,,,HRV,HRV_0257,2022-11-30 20:01:24
,wl-rdm,113,344083,0.0-6.105-0.105,0.0,114.0,,,,,,,[],,,,,,56.4,0.0,u,0.0,True,816.8000000417233,49.0,60.0,40.0,False,,349.5719988987361,[],"[960, 540]",ColorTask,62.0,106.0,,,HRV,HRV_0257,2022-11-30 20:01:24
,wl-rdm,114,346443,0.0-6.106-0.106,0.0,115.0,,,,,,,[],,,,,,56.4,1.0,i,1.0,True,926.1999999880791,54.0,60.0,40.0,False,,357.63334783545145,[],"[960, 540]",ColorTask,63.0,107.0,,,HRV,HRV_0257,2022-11-30 20:01:24
,wl-rdm,115,348605,0.0-6.107-0.107,0.0,116.0,,,,,,,[],,,,,,50.0,1.0,i,1.0,True,788.0999999940395,49.0,60.0,40.0,False,,269.214097438867,[],"[960, 540]",ColorTask,64.0,108.0,,,HRV,HRV_0257,2022-11-30 20:01:24
,wl-html-keyboard-response,116,424964,0.0-7.0-0.0,1.0,117.0,,,,,,,,74343.59999999404,1.0,0,,,,,,,,,,,,,,,,,,,,,,HRV,HRV_0257,2022-11-30 20:01:24
,wl-rdm,117,427556,0.0-8.0-0.0,1.0,118.0,,,,,,,[],,,,,,53.2,0.0,i,1.0,False,1116.9000000059605,68.0,60.0,40.0,False,,393.3434350881745,[],"[960, 540]",ColorTask,63.0,1.0,,,HRV,HRV_0257,2022-11-30 20:01:24
,wl-rdm,118,429867,0.0-8.1-0.1,1.0,119.0,,,,,,,[],,,,,,56.4,0.0,u,0.0,True,1019.8999999761581,58.0,60.0,40.0,False,,229.7248758001823,[],"[960, 540]",ColorTask,64.0,2.0,,,HRV,HRV_0257,2022-11-30 20:01:24
,wl-rdm,119,433073,0.0-8.2-0.2,1.0,120.0,,,,,,,[],,,,,,53.2,0.0,i,1.0,False,1826.2999999821186,107.0,60.0,40.0,False,,310.4162836835082,[],"[960, 540]",ColorTask,63.0,3.0,,,HRV,HRV_0257,2022-11-30 20:01:24
,wl-rdm,120,435400,0.0-8.3-0.3,1.0,121.0,,,,,,,[],,,,,,56.4,1.0,i,1.0,True,972.9000000059605,59.0,60.0,40.0,False,,267.6684779653541,[],"[960, 540]",ColorTask,64.0,4.0,,,HRV,HRV_0257,2022-11-30 20:01:24
,wl-rdm,121,437863,0.0-8.4-0.4,1.0,122.0,,,,,,,[],,,,,,56.4,1.0,i,1.0,True,1012.4000000059605,60.0,60.0,40.0,False,,393.1029217749892,[],"[960, 540]",ColorTask,65.0,5.0,,,HRV,HRV_0257,2022-11-30 20:01:24
,wl-rdm,122,440256,0.0-8.5-0.5,1.0,123.0,,,,,,,[],,,,,,62.5,0.0,u,0.0,True,933.6999999880791,56.0,60.0,40.0,False,,368.51803737632537,[],"[960, 540]",ColorTask,66.0,6.0,,,HRV,HRV_0257,2022-11-30 20:01:24
,wl-rdm,123,442283,0.0-8.6-0.6,1.0,124.0,,,,,,,[],,,,,,87.9,1.0,i,1.0,True,683.2999999821186,42.0,60.0,40.0,False,,270.7609667406118,[],"[960, 540]",ColorTask,67.0,7.0,,,HRV,HRV_0257,2022-11-30 20:01:24
,wl-rdm,124,444459,0.0-8.7-0.7,1.0,125.0,,,,,,,[],,,,,,62.5,1.0,i,1.0,True,704.8999999761581,43.0,60.0,40.0,False,,398.3908606971537,[],"[960, 540]",ColorTask,68.0,8.0,,,HRV,HRV_0257,2022-11-30 20:01:24
,wl-rdm,125,446514,0.0-8.8-0.8,1.0,126.0,,,,,,,[],,,,,,87.9,0.0,u,0.0,True,646.0,39.0,60.0,40.0,False,,325.4075540230628,[],"[960, 540]",ColorTask,69.0,9.0,,,HRV,HRV_0257,2022-11-30 20:01:24
,wl-rdm,126,448715,0.0-8.9-0.9,1.0,127.0,,,,,,,[],,,,,,62.5,0.0,i,1.0,False,905.2999999821186,55.0,60.0,40.0,False,,210.3281386840699,[],"[960, 540]",ColorTask,68.0,10.0,,,HRV,HRV_0257,2022-11-30 20:01:24
,wl-rdm,127,450777,0.0-8.10-0.10,1.0,128.0,,,,,,,[],,,,,,50.0,1.0,i,1.0,True,736.3000000119209,45.0,60.0,40.0,False,,238.6173746696708,[],"[960, 540]",ColorTask,69.0,11.0,,,HRV,HRV_0257,2022-11-30 20:01:24
,wl-rdm,128,453552,0.0-8.11-0.11,1.0,129.0,,,,,,,[],,,,,,50.0,0.0,i,1.0,False,1482.199999988079,89.0,60.0,40.0,False,,226.61087711766615,[],"[960, 540]",ColorTask,68.0,12.0,,,HRV,HRV_0257,2022-11-30 20:01:24
,wl-rdm,129,455878,0.0-8.12-0.12,1.0,130.0,,,,,,,[],,,,,,62.5,0.0,u,0.0,True,895.0,54.0,60.0,40.0,False,,359.4038973736316,[],"[960, 540]",ColorTask,69.0,13.0,,,HRV,HRV_0257,2022-11-30 20:01:24
,wl-rdm,130,457957,0.0-8.13-0.13,1.0,131.0,,,,,,,[],,,,,,56.4,0.0,i,1.0,False,705.9000000059605,43.0,60.0,40.0,False,,283.1213405675595,[],"[960, 540]",ColorTask,68.0,14.0,,,HRV,HRV_0257,2022-11-30 20:01:24
,wl-rdm,131,461081,0.0-8.14-0.14,1.0,132.0,,,,,,,[],,,,,,62.5,0.0,u,0.0,True,1776.4000000059605,107.0,60.0,40.0,False,,271.52635609180436,[],"[960, 540]",ColorTask,69.0,15.0,,,HRV,HRV_0257,2022-11-30 20:01:24
,wl-rdm,132,464091,0.0-8.15-0.15,1.0,133.0,,,,,,,[],,,,,,62.5,0.0,u,0.0,True,1646.2999999821186,100.0,60.0,40.0,False,,268.287575549626,[],"[960, 540]",ColorTask,70.0,16.0,,,HRV,HRV_0257,2022-11-30 20:01:24
,wl-rdm,133,466781,0.0-8.16-0.16,1.0,134.0,,,,,,,[],,,,,,56.4,1.0,u,0.0,False,1301.699999988079,79.0,60.0,40.0,False,,303.30521836472917,[],"[960, 540]",ColorTask,69.0,17.0,,,HRV,HRV_0257,2022-11-30 20:01:24
,wl-rdm,134,468810,0.0-8.17-0.17,1.0,135.0,,,,,,,[],,,,,,87.9,1.0,i,1.0,True,726.8999999761581,44.0,60.0,40.0,False,,222.588569748111,[],"[960, 540]",ColorTask,70.0,18.0,,,HRV,HRV_0257,2022-11-30 20:01:24
,wl-rdm,135,470705,0.0-8.18-0.18,1.0,136.0,,,,,,,[],,,,,,87.9,1.0,i,1.0,True,546.3999999761581,33.0,60.0,40.0,False,,280.9310860321924,[],"[960, 540]",ColorTask,71.0,19.0,,,HRV,HRV_0257,2022-11-30 20:01:24
,wl-rdm,136,472715,0.0-8.19-0.19,1.0,137.0,,,,,,,[],,,,,,62.5,0.0,u,0.0,True,695.7999999821186,39.0,60.0,40.0,False,,260.6996347683637,[],"[960, 540]",ColorTask,72.0,20.0,,,HRV,HRV_0257,2022-11-30 20:01:24
,wl-rdm,137,474643,0.0-8.20-0.20,1.0,138.0,,,,,,,[],,,,,,73.6,0.0,u,0.0,True,608.0000000298023,37.0,60.0,40.0,False,,247.96751808989688,[],"[960, 540]",ColorTask,73.0,21.0,,,HRV,HRV_0257,2022-11-30 20:01:24
,wl-rdm,138,476804,0.0-8.21-0.21,1.0,139.0,,,,,,,[],,,,,,56.4,0.0,u,0.0,True,769.0,47.0,60.0,40.0,False,,303.98303377911543,[],"[960, 540]",ColorTask,74.0,22.0,,,HRV,HRV_0257,2022-11-30 20:01:24
,wl-rdm,139,478916,0.0-8.22-0.22,1.0,140.0,,,,,,,[],,,,,,50.0,0.0,i,1.0,False,733.8000000119209,43.0,60.0,40.0,False,,287.06049060136735,[],"[960, 540]",ColorTask,73.0,23.0,,,HRV,HRV_0257,2022-11-30 20:01:24
,wl-rdm,140,480960,0.0-8.23-0.23,1.0,141.0,,,,,,,[],,,,,,62.5,1.0,i,1.0,True,708.1000000238419,43.0,60.0,40.0,False,,278.8374907225801,[],"[960, 540]",ColorTask,74.0,24.0,,,HRV,HRV_0257,2022-11-30 20:01:24
,wl-rdm,141,483219,0.0-8.24-0.24,1.0,142.0,,,,,,,[],,,,,,62.5,0.0,u,0.0,True,916.3999999761581,55.0,60.0,40.0,False,,253.45292480286892,[],"[960, 540]",ColorTask,75.0,25.0,,,HRV,HRV_0257,2022-11-30 20:01:24
,wl-rdm,142,485049,0.0-8.25-0.25,1.0,143.0,,,,,,,[],,,,,,87.9,1.0,i,1.0,True,558.9000000357628,34.0,60.0,40.0,False,,213.74201665752406,[],"[960, 540]",ColorTask,76.0,26.0,,,HRV,HRV_0257,2022-11-30 20:01:24
,wl-rdm,143,487042,0.0-8.26-0.26,1.0,144.0,,,,,,,[],,,,,,87.9,0.0,u,0.0,True,518.7000000178814,32.0,60.0,40.0,False,,390.76910126335645,[],"[960, 540]",ColorTask,77.0,27.0,,,HRV,HRV_0257,2022-11-30 20:01:24
,wl-rdm,144,489104,0.0-8.27-0.27,1.0,145.0,,,,,,,[],,,,,,53.2,1.0,i,1.0,True,661.6999999880791,40.0,60.0,40.0,False,,339.3568911542591,[],"[960, 540]",ColorTask,78.0,28.0,,,HRV,HRV_0257,2022-11-30 20:01:24
,wl-rdm,145,491253,0.0-8.28-0.28,1.0,146.0,,,,,,,[],,,,,,56.4,0.0,i,1.0,False,778.0000000298023,47.0,60.0,40.0,False,,298.2384944377443,[],"[960, 540]",ColorTask,77.0,29.0,,,HRV,HRV_0257,2022-11-30 20:01:24
,wl-rdm,146,493375,0.0-8.29-0.29,1.0,147.0,,,,,,,[],,,,,,56.4,1.0,i,1.0,True,656.8000000119209,40.0,60.0,40.0,False,,385.0696784756794,[],"[960, 540]",ColorTask,78.0,30.0,,,HRV,HRV_0257,2022-11-30 20:01:24
,wl-rdm,147,496933,0.0-8.30-0.30,1.0,148.0,,,,,,,[],,,,,,53.2,0.0,u,0.0,True,2125.0000000298023,128.0,60.0,40.0,False,,361.6904934459887,[],"[960, 540]",ColorTask,79.0,31.0,,,HRV,HRV_0257,2022-11-30 20:01:24
,wl-rdm,148,498978,0.0-8.31-0.31,1.0,149.0,,,,,,,[],,,,,,73.6,0.0,u,0.0,True,689.7000000178814,42.0,60.0,40.0,False,,290.8731982388281,[],"[960, 540]",ColorTask,80.0,32.0,,,HRV,HRV_0257,2022-11-30 20:01:24
,wl-rdm,149,501137,0.0-8.32-0.32,1.0,150.0,,,,,,,[],,,,,,50.0,1.0,i,1.0,True,861.0999999940395,52.0,60.0,40.0,False,,201.24473738086442,[],"[960, 540]",ColorTask,81.0,33.0,,,HRV,HRV_0257,2022-11-30 20:01:24
,wl-rdm,150,503298,0.0-8.33-0.33,1.0,151.0,,,,,,,[],,,,,,87.9,0.0,u,0.0,True,804.0999999642372,49.0,60.0,40.0,False,,275.6503219548647,[],"[960, 540]",ColorTask,82.0,34.0,,,HRV,HRV_0257,2022-11-30 20:01:24
,wl-rdm,151,505410,0.0-8.34-0.34,1.0,152.0,,,,,,,[],,,,,,87.9,0.0,u,0.0,True,822.1999999880791,50.0,60.0,40.0,False,,215.0545729148582,[],"[960, 540]",ColorTask,83.0,35.0,,,HRV,HRV_0257,2022-11-30 20:01:24
,wl-rdm,152,508003,0.0-8.35-0.35,1.0,153.0,,,,,,,[],,,,,,56.4,0.0,i,1.0,False,1196.8999999761581,72.0,60.0,40.0,False,,318.1571351943719,[],"[960, 540]",ColorTask,82.0,36.0,,,HRV,HRV_0257,2022-11-30 20:01:24
,wl-rdm,153,510578,0.0-8.36-0.36,1.0,154.0,,,,,,,[],,,,,,50.0,1.0,u,0.0,False,1188.9000000059605,71.0,60.0,40.0,False,,297.58262198486864,[],"[960, 540]",ColorTask,81.0,37.0,,,HRV,HRV_0257,2022-11-30 20:01:24
,wl-rdm,154,512523,0.0-8.37-0.37,1.0,155.0,,,,,,,[],,,,,,73.6,1.0,i,1.0,True,610.7000000178814,37.0,60.0,40.0,False,,258.68091839560304,[],"[960, 540]",ColorTask,82.0,38.0,,,HRV,HRV_0257,2022-11-30 20:01:24
,wl-rdm,155,514567,0.0-8.38-0.38,1.0,156.0,,,,,,,[],,,,,,62.5,1.0,i,1.0,True,668.6999999880791,41.0,60.0,40.0,False,,295.6748440018864,[],"[960, 540]",ColorTask,83.0,39.0,,,HRV,HRV_0257,2022-11-30 20:01:24
,wl-rdm,156,516812,0.0-8.39-0.39,1.0,157.0,,,,,,,[],,,,,,87.9,0.0,u,0.0,True,779.0,47.0,60.0,40.0,False,,392.695995367524,[],"[960, 540]",ColorTask,84.0,40.0,,,HRV,HRV_0257,2022-11-30 20:01:24
,wl-rdm,157,519241,0.0-8.40-0.40,1.0,158.0,,,,,,,[],,,,,,62.5,1.0,i,1.0,True,1027.2999999821186,62.0,60.0,40.0,False,,325.85091784392773,[],"[960, 540]",ColorTask,85.0,41.0,,,HRV,HRV_0257,2022-11-30 20:01:24
,wl-rdm,158,522480,0.0-8.41-0.41,1.0,159.0,,,,,,,[],,,,,,53.2,0.0,u,0.0,True,1906.0999999940395,115.0,60.0,40.0,False,,234.12008191272952,[],"[960, 540]",ColorTask,86.0,42.0,,,HRV,HRV_0257,2022-11-30 20:01:24
,wl-rdm,159,524640,0.0-8.42-0.42,1.0,160.0,,,,,,,[],,,,,,73.6,0.0,u,0.0,True,797.0,48.0,60.0,40.0,False,,298.5064534766331,[],"[960, 540]",ColorTask,87.0,43.0,,,HRV,HRV_0257,2022-11-30 20:01:24
,wl-rdm,160,526653,0.0-8.43-0.43,1.0,161.0,,,,,,,[],,,,,,87.9,0.0,u,0.0,True,698.1999999880791,42.0,60.0,40.0,False,,213.70140853936488,[],"[960, 540]",ColorTask,88.0,44.0,,,HRV,HRV_0257,2022-11-30 20:01:24
,wl-rdm,161,529378,0.0-8.44-0.44,1.0,162.0,,,,,,,[],,,,,,50.0,0.0,i,1.0,False,1437.699999988079,87.0,60.0,40.0,False,,212.37283491240294,[],"[960, 540]",ColorTask,87.0,45.0,,,HRV,HRV_0257,2022-11-30 20:01:24
,wl-rdm,162,531639,0.0-8.45-0.45,1.0,163.0,,,,,,,[],,,,,,73.6,0.0,u,0.0,True,985.0,59.0,60.0,40.0,False,,209.8718516241924,[],"[960, 540]",ColorTask,88.0,46.0,,,HRV,HRV_0257,2022-11-30 20:01:24
,wl-rdm,163,533804,0.0-8.46-0.46,1.0,164.0,,,,,,,[],,,,,,73.6,0.0,u,0.0,True,834.2000000178814,51.0,60.0,40.0,False,,266.12738242761196,[],"[960, 540]",ColorTask,89.0,47.0,,,HRV,HRV_0257,2022-11-30 20:01:24
,wl-rdm,164,535876,0.0-8.47-0.47,1.0,165.0,,,,,,,[],,,,,,73.6,1.0,i,1.0,True,646.5,38.0,60.0,40.0,False,,357.5317488930042,[],"[960, 540]",ColorTask,90.0,48.0,,,HRV,HRV_0257,2022-11-30 20:01:24
,wl-rdm,165,538453,0.0-8.48-0.48,1.0,166.0,,,,,,,[],,,,,,73.6,0.0,u,0.0,True,1168.5999999940395,71.0,60.0,40.0,False,,322.67348107202486,[],"[960, 540]",ColorTask,91.0,49.0,,,HRV,HRV_0257,2022-11-30 20:01:24
,wl-rdm,166,541063,0.0-8.49-0.49,1.0,167.0,,,,,,,[],,,,,,62.5,0.0,i,1.0,False,1312.7999999821186,79.0,60.0,40.0,False,,226.35879995917006,[],"[960, 540]",ColorTask,90.0,50.0,,,HRV,HRV_0257,2022-11-30 20:01:24
,wl-rdm,167,542990,0.0-8.50-0.50,1.0,168.0,,,,,,,[],,,,,,87.9,1.0,i,1.0,True,578.3000000119209,35.0,60.0,40.0,False,,273.66936072360113,[],"[960, 540]",ColorTask,91.0,51.0,,,HRV,HRV_0257,2022-11-30 20:01:24
,wl-rdm,168,546016,0.0-8.51-0.51,1.0,169.0,,,,,,,[],,,,,,53.2,0.0,u,0.0,True,1648.5999999940395,100.0,60.0,40.0,False,,274.42336970680134,[],"[960, 540]",ColorTask,92.0,52.0,,,HRV,HRV_0257,2022-11-30 20:01:24
,wl-rdm,169,548220,0.0-8.52-0.52,1.0,170.0,,,,,,,[],,,,,,73.6,0.0,u,0.0,True,871.9999999701977,52.0,60.0,40.0,False,,280.2160423213636,[],"[960, 540]",ColorTask,93.0,53.0,,,HRV,HRV_0257,2022-11-30 20:01:24
,wl-rdm,170,550054,0.0-8.53-0.53,1.0,171.0,,,,,,,[],,,,,,87.9,1.0,i,1.0,True,481.89999997615814,29.0,60.0,40.0,False,,280.49785114990016,[],"[960, 540]",ColorTask,94.0,54.0,,,HRV,HRV_0257,2022-11-30 20:01:24
,wl-rdm,171,552283,0.0-8.54-0.54,1.0,172.0,,,,,,,[],,,,,,56.4,0.0,u,0.0,True,943.5999999940395,58.0,60.0,40.0,False,,207.78824225472647,[],"[960, 540]",ColorTask,95.0,55.0,,,HRV,HRV_0257,2022-11-30 20:01:24
,wl-rdm,172,555125,0.0-8.55-0.55,1.0,173.0,,,,,,,[],,,,,,53.2,0.0,u,0.0,True,1438.5999999940395,87.0,60.0,40.0,False,,314.93885303425475,[],"[960, 540]",ColorTask,96.0,56.0,,,HRV,HRV_0257,2022-11-30 20:01:24
,wl-rdm,173,557318,0.0-8.56-0.56,1.0,174.0,,,,,,,[],,,,,,62.5,1.0,i,1.0,True,751.4000000059605,46.0,60.0,40.0,False,,353.2876839346957,[],"[960, 540]",ColorTask,97.0,57.0,,,HRV,HRV_0257,2022-11-30 20:01:24
,wl-rdm,174,559281,0.0-8.57-0.57,1.0,175.0,,,,,,,[],,,,,,87.9,0.0,u,0.0,True,650.0000000298023,39.0,60.0,40.0,False,,211.40905904627277,[],"[960, 540]",ColorTask,98.0,58.0,,,HRV,HRV_0257,2022-11-30 20:01:24
,wl-rdm,175,561871,0.0-8.58-0.58,1.0,176.0,,,,,,,[],,,,,,50.0,0.0,i,1.0,False,1270.9000000059605,77.0,60.0,40.0,False,,260.7663866560913,[],"[960, 540]",ColorTask,97.0,59.0,,,HRV,HRV_0257,2022-11-30 20:01:24
,wl-rdm,176,564863,0.0-8.59-0.59,1.0,177.0,,,,,,,[],,,,,,53.2,1.0,i,1.0,True,1644.699999988079,97.0,60.0,40.0,False,,275.1057271817093,[],"[960, 540]",ColorTask,98.0,60.0,,,HRV,HRV_0257,2022-11-30 20:01:24
,wl-rdm,177,567191,0.0-8.60-0.60,1.0,178.0,,,,,,,[],,,,,,50.0,1.0,i,1.0,True,1006.6999999880791,61.0,60.0,40.0,False,,237.10470412769263,[],"[960, 540]",ColorTask,99.0,61.0,,,HRV,HRV_0257,2022-11-30 20:01:24
,wl-rdm,178,569551,0.0-8.61-0.61,1.0,179.0,,,,,,,[],,,,,,50.0,1.0,i,1.0,True,939.9999999701977,57.0,60.0,40.0,False,,339.31187679966786,[],"[960, 540]",ColorTask,100.0,62.0,,,HRV,HRV_0257,2022-11-30 20:01:24
,wl-rdm,179,571590,0.0-8.62-0.62,1.0,180.0,,,,,,,[],,,,,,73.6,1.0,i,1.0,True,572.5,35.0,60.0,40.0,False,,379.57972177045156,[],"[960, 540]",ColorTask,101.0,63.0,,,HRV,HRV_0257,2022-11-30 20:01:24
,wl-rdm,180,573523,0.0-8.63-0.63,1.0,181.0,,,,,,,[],,,,,,87.9,1.0,i,1.0,True,567.9000000059605,33.0,60.0,40.0,False,,307.96596589834695,[],"[960, 540]",ColorTask,102.0,64.0,,,HRV,HRV_0257,2022-11-30 20:01:24
,wl-rdm,181,576234,0.0-8.64-0.64,1.0,182.0,,,,,,,[],,,,,,50.0,0.0,u,0.0,True,1270.0,77.0,60.0,40.0,False,,350.1307932817041,[],"[960, 540]",ColorTask,103.0,65.0,,,HRV,HRV_0257,2022-11-30 20:01:24
,wl-rdm,182,578911,0.0-8.65-0.65,1.0,183.0,,,,,,,[],,,,,,50.0,1.0,i,1.0,True,1226.0,74.0,60.0,40.0,False,,375.77131325410693,[],"[960, 540]",ColorTask,104.0,66.0,,,HRV,HRV_0257,2022-11-30 20:01:24
,wl-rdm,183,581468,0.0-8.66-0.66,1.0,184.0,,,,,,,[],,,,,,53.2,1.0,i,1.0,True,1124.5999999940395,69.0,60.0,40.0,False,,341.55775226729133,[],"[960, 540]",ColorTask,105.0,67.0,,,HRV,HRV_0257,2022-11-30 20:01:24
,wl-rdm,184,583447,0.0-8.67-0.67,1.0,185.0,,,,,,,[],,,,,,87.9,1.0,i,1.0,True,645.5999999940395,39.0,60.0,40.0,False,,253.04532130219613,[],"[960, 540]",ColorTask,106.0,68.0,,,HRV,HRV_0257,2022-11-30 20:01:24
,wl-rdm,185,586261,0.0-8.68-0.68,1.0,186.0,,,,,,,[],,,,,,56.4,1.0,i,1.0,True,1473.300000011921,89.0,60.0,40.0,False,,283.23587414367177,[],"[960, 540]",ColorTask,107.0,69.0,,,HRV,HRV_0257,2022-11-30 20:01:24
,wl-rdm,186,588865,0.0-8.69-0.69,1.0,187.0,,,,,,,[],,,,,,50.0,1.0,u,0.0,False,1187.5,72.0,60.0,40.0,False,,329.0843940958649,[],"[960, 540]",ColorTask,106.0,70.0,,,HRV,HRV_0257,2022-11-30 20:01:24
,wl-rdm,187,590926,0.0-8.70-0.70,1.0,188.0,,,,,,,[],,,,,,50.0,0.0,i,1.0,False,675.3000000119209,41.0,60.0,40.0,False,,304.9932057518461,[],"[960, 540]",ColorTask,105.0,71.0,,,HRV,HRV_0257,2022-11-30 20:01:24
,wl-rdm,188,593038,0.0-8.71-0.71,1.0,189.0,,,,,,,[],,,,,,73.6,1.0,i,1.0,True,702.1999999880791,42.0,60.0,40.0,False,,325.73071790493873,[],"[960, 540]",ColorTask,106.0,72.0,,,HRV,HRV_0257,2022-11-30 20:01:24
,wl-rdm,189,595065,0.0-8.72-0.72,1.0,190.0,,,,,,,[],,,,,,56.4,1.0,i,1.0,True,576.9000000059605,35.0,60.0,40.0,False,,373.2988373447164,[],"[960, 540]",ColorTask,107.0,73.0,,,HRV,HRV_0257,2022-11-30 20:01:24
,wl-rdm,190,597491,0.0-8.73-0.73,1.0,191.0,,,,,,,[],,,,,,53.2,1.0,i,1.0,True,985.0,60.0,60.0,40.0,False,,352.5503678613827,[],"[960, 540]",ColorTask,108.0,74.0,,,HRV,HRV_0257,2022-11-30 20:01:24
,wl-rdm,191,599404,0.0-8.74-0.74,1.0,192.0,,,,,,,[],,,,,,73.6,1.0,i,1.0,True,565.2999999821186,34.0,60.0,40.0,False,,269.7695035953338,[],"[960, 540]",ColorTask,109.0,75.0,,,HRV,HRV_0257,2022-11-30 20:01:24
,wl-rdm,192,601631,0.0-8.75-0.75,1.0,193.0,,,,,,,[],,,,,,73.6,0.0,u,0.0,True,862.5000000298023,53.0,60.0,40.0,False,,272.84876270032987,[],"[960, 540]",ColorTask,110.0,76.0,,,HRV,HRV_0257,2022-11-30 20:01:24
,wl-rdm,193,603807,0.0-8.76-0.76,1.0,194.0,,,,,,,[],,,,,,53.2,1.0,u,0.0,False,726.2999999821186,44.0,60.0,40.0,False,,376.50524309065906,[],"[960, 540]",ColorTask,109.0,77.0,,,HRV,HRV_0257,2022-11-30 20:01:24
,wl-rdm,194,606051,0.0-8.77-0.77,1.0,195.0,,,,,,,[],,,,,,73.6,0.0,u,0.0,True,881.6999999880791,54.0,60.0,40.0,False,,280.7716443227344,[],"[960, 540]",ColorTask,110.0,78.0,,,HRV,HRV_0257,2022-11-30 20:01:24
,wl-rdm,195,607979,0.0-8.78-0.78,1.0,196.0,,,,,,,[],,,,,,87.9,0.0,u,0.0,True,635.5999999940395,39.0,60.0,40.0,False,,215.6451238929427,[],"[960, 540]",ColorTask,111.0,79.0,,,HRV,HRV_0257,2022-11-30 20:01:24
,wl-rdm,196,609991,0.0-8.79-0.79,1.0,197.0,,,,,,,[],,,,,,73.6,1.0,i,1.0,True,643.4000000059605,39.0,60.0,40.0,False,,289.58334286903874,[],"[960, 540]",ColorTask,112.0,80.0,,,HRV,HRV_0257,2022-11-30 20:01:24
,wl-rdm,197,612691,0.0-8.80-0.80,1.0,198.0,,,,,,,[],,,,,,56.4,1.0,i,1.0,True,1363.7999999821186,82.0,60.0,40.0,False,,251.2043569493861,[],"[960, 540]",ColorTask,113.0,81.0,,,HRV,HRV_0257,2022-11-30 20:01:24
,wl-rdm,198,614672,0.0-8.81-0.81,1.0,199.0,,,,,,,[],,,,,,73.6,1.0,i,1.0,True,635.0999999940395,39.0,60.0,40.0,False,,232.49441479677506,[],"[960, 540]",ColorTask,114.0,82.0,,,HRV,HRV_0257,2022-11-30 20:01:24
,wl-rdm,199,617321,0.0-8.82-0.82,1.0,200.0,,,,,,,[],,,,,,53.2,1.0,u,0.0,False,1368.0999999940395,82.0,60.0,40.0,False,,205.79580677064482,[],"[960, 540]",ColorTask,113.0,83.0,,,HRV,HRV_0257,2022-11-30 20:01:24
,wl-rdm,200,619282,0.0-8.83-0.83,1.0,201.0,,,,,,,[],,,,,,50.0,0.0,i,1.0,False,655.7999999821186,40.0,60.0,40.0,False,,217.0855451816389,[],"[960, 540]",ColorTask,112.0,84.0,,,HRV,HRV_0257,2022-11-30 20:01:24
,wl-rdm,201,621827,0.0-8.84-0.84,1.0,202.0,,,,,,,[],,,,,,62.5,1.0,i,1.0,True,1231.199999988079,74.0,60.0,40.0,False,,236.86851263473108,[],"[960, 540]",ColorTask,113.0,85.0,,,HRV,HRV_0257,2022-11-30 20:01:24
,wl-rdm,202,624584,0.0-8.85-0.85,1.0,203.0,,,,,,,[],,,,,,53.2,0.0,u,0.0,True,1392.0999999940395,83.0,60.0,40.0,False,,299.2410782128876,[],"[960, 540]",ColorTask,114.0,86.0,,,HRV,HRV_0257,2022-11-30 20:01:24
,wl-rdm,203,626878,0.0-8.86-0.86,1.0,204.0,,,,,,,[],,,,,,73.6,1.0,i,1.0,True,942.1999999880791,57.0,60.0,40.0,False,,268.48864689279935,[],"[960, 540]",ColorTask,115.0,87.0,,,HRV,HRV_0257,2022-11-30 20:01:24
,wl-rdm,204,630252,0.0-8.87-0.87,1.0,205.0,,,,,,,[],,,,,,50.0,0.0,i,1.0,False,1959.5999999940395,117.0,60.0,40.0,False,,335.267877962491,[],"[960, 540]",ColorTask,114.0,88.0,,,HRV,HRV_0257,2022-11-30 20:01:24
,wl-rdm,205,632613,0.0-8.88-0.88,1.0,206.0,,,,,,,[],,,,,,53.2,0.0,u,0.0,True,971.1999999880791,59.0,60.0,40.0,False,,305.1651408698707,[],"[960, 540]",ColorTask,115.0,89.0,,,HRV,HRV_0257,2022-11-30 20:01:24
,wl-rdm,206,634973,0.0-8.89-0.89,1.0,207.0,,,,,,,[],,,,,,53.2,0.0,u,0.0,True,1015.6999999880791,61.0,60.0,40.0,False,,272.91260657621336,[],"[960, 540]",ColorTask,116.0,90.0,,,HRV,HRV_0257,2022-11-30 20:01:24
,wl-rdm,207,637649,0.0-8.90-0.90,1.0,208.0,,,,,,,[],,,,,,53.2,1.0,i,1.0,True,1395.2000000476837,84.0,60.0,40.0,False,,204.7297131023169,[],"[960, 540]",ColorTask,117.0,91.0,,,HRV,HRV_0257,2022-11-30 20:01:24
,wl-rdm,208,640889,0.0-8.91-0.91,1.0,209.0,,,,,,,[],,,,,,50.0,1.0,i,1.0,True,1830.4000000059605,111.0,60.0,40.0,False,,320.37577291096386,[],"[960, 540]",ColorTask,118.0,92.0,,,HRV,HRV_0257,2022-11-30 20:01:24
,wl-rdm,209,643317,0.0-8.92-0.92,1.0,210.0,,,,,,,[],,,,,,62.5,0.0,u,0.0,True,1059.0,64.0,60.0,40.0,False,,296.32083364582815,[],"[960, 540]",ColorTask,119.0,93.0,,,HRV,HRV_0257,2022-11-30 20:01:24
,wl-rdm,210,645877,0.0-8.93-0.93,1.0,211.0,,,,,,,[],,,,,,56.4,1.0,i,1.0,True,1107.2999999821186,67.0,60.0,40.0,False,,376.9511047452452,[],"[960, 540]",ColorTask,120.0,94.0,,,HRV,HRV_0257,2022-11-30 20:01:24
,wl-rdm,211,647987,0.0-8.94-0.94,1.0,212.0,,,,,,,[],,,,,,62.5,1.0,i,1.0,True,819.0999999940395,50.0,60.0,40.0,False,,228.30395499219028,[],"[960, 540]",ColorTask,121.0,95.0,,,HRV,HRV_0257,2022-11-30 20:01:24
,wl-rdm,212,650982,0.0-8.95-0.95,1.0,213.0,,,,,,,[],,,,,,50.0,1.0,u,0.0,False,1599.1000000238419,96.0,60.0,40.0,False,,318.02515565514585,[],"[960, 540]",ColorTask,120.0,96.0,,,HRV,HRV_0257,2022-11-30 20:01:24
,wl-rdm,213,653322,0.0-8.96-0.96,1.0,214.0,,,,,,,[],,,,,,53.2,1.0,u,0.0,False,1029.5999999940395,62.0,60.0,40.0,False,,223.6659742536393,[],"[960, 540]",ColorTask,119.0,97.0,,,HRV,HRV_0257,2022-11-30 20:01:24
,wl-rdm,214,655549,0.0-8.97-0.97,1.0,215.0,,,,,,,[],,,,,,56.4,0.0,i,1.0,False,783.3000000119209,48.0,60.0,40.0,False,,368.03707288150986,[],"[960, 540]",ColorTask,118.0,98.0,,,HRV,HRV_0257,2022-11-30 20:01:24
,wl-rdm,215,657843,0.0-8.98-0.98,1.0,216.0,,,,,,,[],,,,,,73.6,1.0,i,1.0,True,819.1999999880791,50.0,60.0,40.0,False,,377.55124201374747,[],"[960, 540]",ColorTask,119.0,99.0,,,HRV,HRV_0257,2022-11-30 20:01:24
,wl-rdm,216,660353,0.0-8.99-0.99,1.0,217.0,,,,,,,[],,,,,,56.4,0.0,u,0.0,True,1088.2999999821186,65.0,60.0,40.0,False,,342.5349282643352,[],"[960, 540]",ColorTask,120.0,100.0,,,HRV,HRV_0257,2022-11-30 20:01:24
,wl-rdm,217,662929,0.0-8.100-0.100,1.0,218.0,,,,,,,[],,,,,,50.0,0.0,u,0.0,True,1186.699999988079,72.0,60.0,40.0,False,,303.535422449904,[],"[960, 540]",ColorTask,121.0,101.0,,,HRV,HRV_0257,2022-11-30 20:01:24
,wl-rdm,218,665092,0.0-8.101-0.101,1.0,219.0,,,,,,,[],,,,,,56.4,1.0,i,1.0,True,853.2000000178814,52.0,60.0,40.0,False,,253.34418851298722,[],"[960, 540]",ColorTask,122.0,102.0,,,HRV,HRV_0257,2022-11-30 20:01:24
,wl-rdm,219,667069,0.0-8.102-0.102,1.0,220.0,,,,,,,[],,,,,,87.9,1.0,i,1.0,True,550.5999999940395,34.0,60.0,40.0,False,,337.6796210167694,[],"[960, 540]",ColorTask,123.0,103.0,,,HRV,HRV_0257,2022-11-30 20:01:24
,wl-rdm,220,669030,0.0-8.103-0.103,1.0,221.0,,,,,,,[],,,,,,62.5,1.0,i,1.0,True,575.9999999701977,35.0,60.0,40.0,False,,303.26825334367265,[],"[960, 540]",ColorTask,124.0,104.0,,,HRV,HRV_0257,2022-11-30 20:01:24
,wl-rdm,221,671573,0.0-8.104-0.104,1.0,222.0,,,,,,,[],,,,,,62.5,1.0,i,1.0,True,1064.9000000059605,65.0,60.0,40.0,False,,398.8713972483243,[],"[960, 540]",ColorTask,125.0,105.0,,,HRV,HRV_0257,2022-11-30 20:01:24
,wl-rdm,222,673451,0.0-8.105-0.105,1.0,223.0,,,,,,,[],,,,,,53.2,1.0,i,1.0,True,562.9000000059605,34.0,60.0,40.0,False,,241.2683321365904,[],"[960, 540]",ColorTask,126.0,106.0,,,HRV,HRV_0257,2022-11-30 20:01:24
,wl-rdm,223,675462,0.0-8.106-0.106,1.0,224.0,,,,,,,[],,,,,,87.9,0.0,u,0.0,True,632.1000000238419,38.0,60.0,40.0,False,,304.5471235186216,[],"[960, 540]",ColorTask,127.0,107.0,,,HRV,HRV_0257,2022-11-30 20:01:24
,wl-rdm,224,677490,0.0-8.107-0.107,1.0,225.0,,,,,,,[],,,,,,56.4,0.0,u,0.0,True,659.0,40.0,60.0,40.0,False,,284.5333079453329,[],"[960, 540]",ColorTask,128.0,108.0,,,HRV,HRV_0257,2022-11-30 20:01:24
,wl-html-button-response,225,680706,0.0-9.0-0.0,,,,,,,,,,3211.9000000059605,,0,,,,,,,,,,,,,,,,,,,,<h3>End of this session. Thank you!</h3><br>,['Close window'],HRV,HRV_0257,2022-11-30 20:01:24
