Answer,C_Pay,Question,QuestionNum,jitter,C_Trial,C_QPresent,rsp,C_SWK,C_SWK_rt,C_TrialEnd,C_AnswerPresent,C_WorthPresent,C_Worth,C_Worth_rt,exp,subjectId,date
It sits beside the Finger Lakes ,7,"Why is Oneida Lake, near Syracuse, New York, sometimes called ""the thumb""?",393,0.788,0,2812.5,q,S,5163.4000000059605,9276.699999988079,,,,,HRV,HRV_0257,2022-11-30 19:35:46
The old-fashioned,5,"What whiskey cocktail lends its name to the short glass also called a ""lowball""?",410,1.623,1,9276.799999982119,t,W,6349.600000023842,25404.79999998212,18141.5,22151.59999999404,2,1123.5,HRV,HRV_0257,2022-11-30 19:35:46
Honey,6,"What food, still edible, was found by archaeologists in the tombs of Egyptian pharaohs? ",402,1.759,2,25405.0,t,W,4598.0999999940395,39604.40000000596,32516.40000000596,36530.90000000596,3,806.6999999880791,HRV,HRV_0257,2022-11-30 19:35:46
Cell,2,Robert Hooke coined what scientific term after looking at a piece of cork under a microscope?,81,1.562,3,39604.5,q,S,7148.299999982119,48828.29999998212,,,,,HRV,HRV_0257,2022-11-30 19:35:46
Peanuts ,2,What snack food is an ingredient in the explosive dynamite?  ,408,1.938,4,48828.29999998212,t,W,3886.800000011921,62388.5,55228.5,59238.09999999404,5,702.0,HRV,HRV_0257,2022-11-30 19:35:46
honey,3,Which is the only food that can never go off or go bad?,442,0.616,5,62388.59999999404,t,W,5027.4000000059605,76180.59999999404,69933.5,73942.09999999404,4,1111.800000011921,HRV,HRV_0257,2022-11-30 19:35:46
60 fragments per 100 gram ,4,What amount of insects does the FDA allow in chocolate,453,0.882,6,76180.69999998808,q,S,4368.0,81940.59999999404,,,,,HRV,HRV_0257,2022-11-30 19:35:46
Lhasa Apso,2,"What is called the ""bark lion sentinel dog"" in its native Tibet?  ",200,1.823,7,81940.59999999404,q,S,2875.4000000059605,87156.19999998808,,,,,HRV,HRV_0257,2022-11-30 19:35:46
The dodo,1,"What is believed to have received its name from the Portuguese word for ""simpleton""? ",199,1.279,8,87156.29999998212,t,W,4529.700000017881,100804.19999998808,94197.0,98213.59999999404,2,796.6999999880791,HRV,HRV_0257,2022-11-30 19:35:46
Coca-Cola,6,"""Project Kansas"" was the name for the top secret 1985 attempt to revamp what product?",416,1.318,9,100804.29999998212,,,,110316.59999999404,,,,,HRV,HRV_0257,2022-11-30 19:35:46
Gone with the Wind,2,The first swear word on the big screen was in what movie?,100,1.033,10,110316.59999999404,t,W,3541.4000000059605,122868.40000000596,116372.40000000596,120382.09999999404,3,942.5,HRV,HRV_0257,2022-11-30 19:35:46
Sudan,4,"Though an eleven-year ceasefire held from 1972 to 1983, what African country has been embroiled in a civil war since 1955?",115,1.94,11,122868.40000000596,q,S,3531.699999988079,128854.90000000596,,,,,HRV,HRV_0257,2022-11-30 19:35:46
San Fancisco,3,"""Dear Abby"" first appeared in a newspaper of what city?",2,1.319,12,128854.90000000596,p,K,2990.399999976158,133668.19999998808,,,,,HRV,HRV_0257,2022-11-30 19:35:46
Russia,4,Which country has the most public libraries?  ,339,1.699,13,133668.19999998808,q,S,1770.0999999940395,137644.29999998212,,,,,HRV,HRV_0257,2022-11-30 19:35:46
popscicle,6,What food was invented by an 11 year old in 1905?,450,0.548,14,137644.29999998212,t,W,2540.600000023842,148596.29999998212,142757.79999998212,146766.19999998808,4,771.9000000059605,HRV,HRV_0257,2022-11-30 19:35:46
Butt,3,The adjective callipygian refers to someone who has a beautiful what? ,88,0.817,15,148596.29999998212,t,W,3233.300000011921,160372.29999998212,154340.40000000596,158349.90000000596,4,691.8999999761581,HRV,HRV_0257,2022-11-30 19:35:46
Anaconda,7,Which species of snake gives birth to its young instead of laying eggs?  ,353,0.853,16,160372.29999998212,q,S,4349.200000017881,166084.59999999404,,,,,HRV,HRV_0257,2022-11-30 19:35:46
Steamboat Geyser,2,"Which Yellowstone geyser, with eruptions 100 fee taller than Old Faithful's, is the world's tallest?",359,1.765,17,166084.69999998808,p,K,3408.0999999940395,171764.29999998212,,,,,HRV,HRV_0257,2022-11-30 19:35:46
Broccoli! ,5,Whice vegeteable has more vitamin C than an orange and as much calcium as whole milk?,456,1.284,18,171764.29999998212,t,W,3953.300000011921,184908.5,178228.29999998212,182238.29999998212,3,875.9000000059605,HRV,HRV_0257,2022-11-30 19:35:46
Shark,7,"What animal is thought to be immune to most all diseases, including cancer? ",132,1.768,19,184908.69999998808,t,W,3393.9000000059605,197852.29999998212,190820.40000000596,194841.79999998212,4,733.2000000178814,HRV,HRV_0257,2022-11-30 19:35:46
Matches,5,"Which accidentally invented household items were first marketed as ""friction lights""? ",322,1.117,20,197852.40000000596,q,S,3961.7999999821186,203444.40000000596,,,,,HRV,HRV_0257,2022-11-30 19:35:46
St. Louis Gateway Arch ,5,"Which famous American landmark is officially called ""The Jefferson National Expansion Memorial""? ",341,1.775,21,203444.40000000596,q,S,3679.899999976158,209404.29999998212,,,,,HRV,HRV_0257,2022-11-30 19:35:46
Italy ,5,What country borders both of the world's only two nations with square flags? ,157,1.919,22,209404.29999998212,q,S,2734.300000011921,214580.79999998212,,,,,HRV,HRV_0257,2022-11-30 19:35:46
Sic semper tyrannis ,5,What state motto of Virginia did John Wilkes Booth shout as he jumped from Lincoln's box to the stage of Ford's Theatre? ,262,1.348,23,214580.90000000596,t,W,4314.0,228172.5,221404.59999999404,225417.5,1,893.7999999821186,HRV,HRV_0257,2022-11-30 19:35:46
"the white flesh that houses the seeds, known as the placenta",5,What is the hottest part of a chili?,432,1.985,24,228172.5,q,S,3989.9000000059605,234660.29999998212,,,,,HRV,HRV_0257,2022-11-30 19:35:46
Pressure,6,What is measured in millibars? ,202,1.867,25,234660.29999998212,q,S,1836.7000000178814,238876.19999998808,,,,,HRV,HRV_0257,2022-11-30 19:35:46
Ivory Coast's ,1,"The world's largest church is Our Lady of Peace Basilica in Yamoussoukro, what nation's capital?",111,1.045,26,238876.19999998808,t,W,3112.7000000178814,250836.40000000596,244501.09999999404,248514.40000000596,2,769.5999999940395,HRV,HRV_0257,2022-11-30 19:35:46
Czechoslovakia,7,Shirley Temple Black was the U.S. ambassador to what nation at the time of its 1989 revolution?,83,1.204,27,250836.5,t,W,4092.699999988079,263964.90000000596,257452.5,261466.09999999404,2,782.1999999880791,HRV,HRV_0257,2022-11-30 19:35:46
Kansas City ,4,The first suburban shopping center in the U.S. was established in what city?,99,0.859,28,263964.90000000596,t,W,3866.0,276612.2999999821,270348.90000000596,274361.59999999404,3,883.6999999880791,HRV,HRV_0257,2022-11-30 19:35:46
Pig,1,What is the only type of animal besides a human that can get a sunburn?,212,1.745,29,276612.2999999821,t,W,5149.4000000059605,292060.2999999821,284276.59999999404,288291.0,4,1513.2999999821186,HRV,HRV_0257,2022-11-30 19:35:46
Bright red,6,Vitamin A is largely available in natural food sources with which colour?,448,1.216,30,292060.2999999821,q,S,3545.300000011921,297332.6999999881,,,,,HRV,HRV_0257,2022-11-30 19:35:46
Tea leaves,7,Tasseomancy is a method of fortune telling that primarily uses what? ,418,1.944,31,297332.6999999881,q,S,1785.0,301572.2999999821,,,,,HRV,HRV_0257,2022-11-30 19:35:46
Asparagus,4,what vegetable loses its flavour the quickest?,451,0.586,32,301572.2999999821,t,W,2710.4000000059605,312548.2999999821,306796.40000000596,310808.0,3,600.4000000059605,HRV,HRV_0257,2022-11-30 19:35:46
Model train set,6,HO scale is the world's most popular size of what?,45,1.723,33,312548.2999999821,q,S,4238.5,319020.1999999881,,,,,HRV,HRV_0257,2022-11-30 19:35:46
Arkansas ,6,Where is the only active diamond mine in the U.S.?,320,1.358,34,319020.2999999821,t,W,3119.300000011921,331628.90000000596,324652.7999999821,328661.7999999821,3,1102.300000011921,HRV,HRV_0257,2022-11-30 19:35:46
lobster,4,Which expensive restaurant item used to be fed to pisinors and servants?,449,1.094,35,331628.90000000596,t,W,4154.199999988079,344492.59999999404,338293.0,342302.1999999881,5,592.0,HRV,HRV_0257,2022-11-30 19:35:46
Texas,1,"In what state was the U.S.'s first ""Adopt-a-Highway"" program started?",67,1.068,36,344492.59999999404,q,S,2947.300000011921,349020.1999999881,,,,,HRV,HRV_0257,2022-11-30 19:35:46
All in the Family ,4,"What's the only TV show to top the Nielsen ratings five seasons in a row, from 1972 to 1976?  ",311,0.839,37,349020.1999999881,p,K,4295.5,354660.59999999404,,,,,HRV,HRV_0257,2022-11-30 19:35:46
General Electric ,5,What's the only stock from the original Dow Jones Industrial Average that's still used in computing the index?,310,1.894,38,354660.59999999404,q,S,3991.800000011921,361052.1999999881,,,,,HRV,HRV_0257,2022-11-30 19:35:46
Luxor,1,A causeway lined with hundreds of sphinxes once connected Karnak to what other great Egyptian temple?,8,1.653,39,361052.1999999881,q,S,2771.5999999940395,365988.59999999404,,,,,HRV,HRV_0257,2022-11-30 19:35:46
The Notorious BIG,1,"Who released only a single album during his lifetime, the ominously named Ready to Die? ",373,0.593,40,365988.59999999404,t,W,4223.4000000059605,378460.59999999404,372724.40000000596,376735.90000000596,2,613.6999999880791,HRV,HRV_0257,2022-11-30 19:35:46
Joeys,6,What are infant marsupials called?  ,135,0.708,41,378460.6999999881,q,S,2725.300000011921,382404.59999999404,,,,,HRV,HRV_0257,2022-11-30 19:35:46
An ostrich egg yolk ,7,What grapefruit-sized object has been reckoned to be the largest single cell on earth? ,183,1.487,42,382404.59999999404,t,W,4328.699999988079,395828.40000000596,389244.6999999881,393254.59999999404,4,583.6999999880791,HRV,HRV_0257,2022-11-30 19:35:46
Choking on food,7,"Each year, approximately 125 people die of what? ",417,1.308,43,395828.40000000596,t,W,2947.2999999821186,408108.6999999881,401293.40000000596,405306.90000000596,5,982.7999999821186,HRV,HRV_0257,2022-11-30 19:35:46
India,5,What's the only country outside Africa where lions still live in the wild?  ,307,0.533,44,408108.6999999881,t,W,3400.800000011921,419668.40000000596,414020.7999999821,418030.2999999821,2,593.6000000238419,HRV,HRV_0257,2022-11-30 19:35:46
cheese ,3,What item of food holds the world record for being the most stolen item of food in the world?,444,1.773,45,419668.40000000596,t,W,3889.2999999821186,433156.2999999821,426068.59999999404,430077.7999999821,4,799.8000000119209,HRV,HRV_0257,2022-11-30 19:35:46
A soccer ball,6,What common item is usually made up of twelve pentagons and twenty hexagons?,154,1.303,46,433156.40000000596,q,S,3862.2999999821186,438836.90000000596,,,,,HRV,HRV_0257,2022-11-30 19:35:46
It causes sour foods subsequently consumed to taste sweet. ,5,Why is the Synsepalum dulcificum berry called the miracle fruit?,464,0.547,47,438836.90000000596,q,S,2038.3999999761581,441932.40000000596,,,,,HRV,HRV_0257,2022-11-30 19:35:46
Untethered space walk,3,Challenger Astronaut Bruce McCandless II became Earth's first human to ever do what?,31,1.434,48,441932.40000000596,t,W,3936.7999999821186,455004.2999999821,448381.0,452394.0,3,661.1999999880791,HRV,HRV_0257,2022-11-30 19:35:46
Phosphorus,4,"What element did alchemist Hennig Brand discover in 1669 when, boiling his own urine in the hopes of making gold, he observed glowing fumes?",169,0.517,49,455004.2999999821,t,W,4509.300000011921,467620.40000000596,462028.40000000596,466038.09999999404,3,557.4000000059605,HRV,HRV_0257,2022-11-30 19:35:46
Frog,1,Certain types of which animal can be frozen solid and then continue living once thawed?,30,1.667,50,467620.40000000596,t,W,4527.699999988079,481404.1999999881,474660.2999999821,478673.7999999821,5,550.8000000119209,HRV,HRV_0257,2022-11-30 19:35:46
Lolita by Vladimir Nabokov,3,"""Don't Stand So Close to Me"" by the Police was inspired by what literary work?",3,1.208,51,481404.1999999881,q,S,3894.4000000059605,487020.2999999821,,,,,HRV,HRV_0257,2022-11-30 19:35:46
Roulette,2,What game was created by French mathematician Blaise Pascal when he was experimenting with perpetual motion? ,182,1.066,52,487020.2999999821,p,K,4498.0,493092.1999999881,,,,,HRV,HRV_0257,2022-11-30 19:35:46
James Brown,1,"When asked to define ""cool,"" what two words did James Brown use? ",312,0.834,53,493092.2999999821,t,W,3249.300000011921,504780.90000000596,498860.90000000596,502873.90000000596,4,532.0999999940395,HRV,HRV_0257,2022-11-30 19:35:46
Japan,5,Where is the longest suspension bridge? ,319,1.082,54,504780.90000000596,q,S,3135.0999999940395,509508.59999999404,,,,,HRV,HRV_0257,2022-11-30 19:35:46
Betty Rubble,4,Which core Flintstones cast member was absent from Flintstone vitamins until 1996? ,337,1.241,55,509508.59999999404,t,W,5573.199999988079,524084.40000000596,517596.2999999821,521609.6999999881,2,720.0,HRV,HRV_0257,2022-11-30 19:35:46
potein,1,"What nutrient comes from meat, eggs, and fish?",433,1.295,56,524084.5,t,W,2705.5999999940395,536476.6999999881,529300.6999999881,533313.6999999881,2,1364.9000000059605,HRV,HRV_0257,2022-11-30 19:35:46
Strom Thurmond ,1,Who filibustered for a record twenty-four hours and eighteen minutes -- with a urine pail standing at the ready -- in the hope of preventing the Civil Rights Act of 1957?,366,1.902,57,536476.6999999881,q,S,3694.0,542580.599999994,,,,,HRV,HRV_0257,2022-11-30 19:35:46
Theodore Roosevelt ,4,"What former president coined the phrase ""lunatic fringe"" to refer to the wackos in his own reform movement?",178,1.399,58,542580.599999994,p,K,4513.5999999940395,548996.6999999881,,,,,HRV,HRV_0257,2022-11-30 19:35:46
KISS ,7,"According to the Guinness Book of Records, what was the loudest rock band ever?",13,0.558,59,548996.6999999881,q,S,2839.7000000178814,552900.400000006,,,,,HRV,HRV_0257,2022-11-30 19:35:46
New Jersey's Rutgers,6,Which U.S. state's leading public university is the only one not to be named for the state?  ,357,1.251,60,552900.400000006,q,S,4347.5999999940395,559012.599999994,,,,,HRV,HRV_0257,2022-11-30 19:35:46
Owl,5,"Which animal has tubular shaped eyeballs, which therefore cannot move?  ",325,0.902,61,559012.599999994,q,S,2896.800000011921,563324.599999994,,,,,HRV,HRV_0257,2022-11-30 19:35:46
Plumbing,1,"What common English word derives from the Latin for ""lead"", for the Roman practice of making water pipes out of lead?",153,1.407,62,563324.599999994,t,W,4234.0999999940395,576676.2999999821,570076.5,574086.400000006,3,668.7999999821186,HRV,HRV_0257,2022-11-30 19:35:46
Coca-cola,4,What popular drink was first marketed as a brain tonic?,405,0.569,63,576676.400000006,t,W,3521.5999999940395,588460.2999999821,582708.7999999821,586718.5,4,657.5999999940395,HRV,HRV_0257,2022-11-30 19:35:46
Twenty-fourth ,5,Which Constitutional Amendment deals with poll taxes? ,335,1.337,64,588460.2999999821,q,S,2690.9000000059605,592996.6999999881,,,,,HRV,HRV_0257,2022-11-30 19:35:46
Brazil,4,"The United States has more stars on its flag than any other country, with fifty. What nation is in second place, with twenty-seven?",108,1.634,65,592996.6999999881,p,K,4910.0999999940395,600052.400000006,,,,,HRV,HRV_0257,2022-11-30 19:35:46
