success,trial_type,trial_index,time_elapsed,internal_node_id,Block,TrialNumber,TrialTime,trialTimeDiff,FPS_avg,FPS_med,FPS_mode,TrialDur,winResizeTime,rt,block,button_pressed,MotCoh,MotDir,ColCoh,Color,ChoiceKey,Choice,Accuracy,RT,nFrames,FPS,PPD,missTrial,missTrialMsg,onsetDelay,fullScreenExitTime,canvCenter,TrialType,Score,BlockTrial,stimulus,button_labels,exp,subjectId,date
True,fullscreen,0,1784,0.0-0.0,0.0,1.0,,,,,,,,,,,,,,,,,,,,,,,,,,,,,,,,HRV,HRV_0075,2022-11-30 18:28:59
,wl-check-fps,1,6791,0.0-1.0,0.0,2.0,"[3228.1, 3238.7, 3254.4, 3270.6, 3287.8, 3304.3, 3320.8, 3337.6, 3354.5, 3371.5, 3388, 3404.7, 3421, 3437.8, 3454.8, 3471, 3487.9, 3504.4, 3521.1, 3537.9, 3554.4, 3571, 3587.8, 3604.4, 3621.5, 3638, 3654.5, 3671, 3687.8, 3704.3, 3721, 3737.8, 3754.3, 3771.1, 3787.8, 3804.3, 3821.6, 3837.8, 3854.3, 3871.9, 3887.8, 3904.4, 3921, 3937.7, 3954, 3971, 3987.8, 4004.4, 4020.9, 4037.7, 4054.4, 4071, 4087.7, 4104.3, 4120.9, 4137.8, 4154.3, 4170.9, 4187.7, 4204.2, 4220.8, 4237.7, 4254.4, 4270.9, 4287.9, 4304.2, 4323.2, 4345.3, 4365.9, 4373.3, 4387.9, 4404.6, 4421.7, 4438, 4455, 4472.4, 4488, 4504.6, 4521.4, 4538.4, 4554.4, 4572.1, 4587.9, 4604.4, 4621.5, 4637.9, 4654.7, 4672.5, 4689, 4705, 4721.3, 4738.1, 4754.5, 4772.1, 4788, 4804.4, 4821.5, 4838, 4854.6, 4873.4, 4891.8, 4905.5, 4922.8, 4938.8, 4961.8, 4984.4, 4987.3, 5004.9, 5020.9, 5040.6, 5055.4, 5071.7, 5088.8, 5103.9, 5120.7, 5137.5, 5154.2, 5170.7, 5187.3, 5204.1, 5220.4, 5237.3, 5253.9, 5270.6, 5287.3, 5304, 5320.4, 5337.4, 5354, 5370.7, 5387.4, 5404.1, 5420.5, 5437.3, 5453.9, 5470.4, 5487.3, 5503.9, 5520.8, 5537.3, 5554, 5570.5, 5587.3, 5604.1, 5620.3, 5637.5, 5653.8, 5670.5, 5687.4, 5704, 5721.2, 5737.4, 5753.9, 5770.3, 5787.2, 5803.8, 5820.8, 5838.1, 5853.8, 5870.7, 5887.5, 5903.9, 5920.3, 5937.2, 5954.4, 5970.2, 5987.2, 6003.9, 6020.3, 6037.1, 6054, 6070.6, 6087.4, 6103.8, 6120.6, 6137.2, 6153.8, 6170.4, 6187.1, 6203.9, 6220.3, 6237.3, 6253.8, 6270.3, 6287.2, 6303.7, 6320.4, 6337.2, 6354, 6370.2, 6387.2, 6403.9, 6420.2, 6437.3, 6453.8, 6470.4, 6487.2, 6503.8, 6520.5, 6537.1, 6553.9, 6571.1, 6587.2, 6603.7, 6620.2, 6637.2, 6653.6, 6670.7, 6687.3, 6703.7, 6720.4, 6737.1, 6753.8, 6770.3, 6787.2, 6803.7, 6821.4, 6837.3, 6854.1, 6871.3, 6886.9, 6904, 6920.3, 6937.1, 6953.8, 6970.6, 6987.2, 7003.7, 7020.2, 7037.1, 7053.7, 7070.2, 7087.3, 7103.8, 7120.5, 7137.2, 7153.7, 7170.4, 7187.1, 7203.9, 7220.5, 7237.2, 7253.8, 7270.4, 7287.3, 7303.9, 7320.5, 7337.1, 7353.9, 7370.3, 7387.2, 7403.8, 7420.1, 7437.1, 7454, 7470.4, 7487.4, 7503.8, 7520.7, 7537.2, 7553.9, 7570.4, 7587, 7603.6, 7621.1, 7637.1, 7653.8, 7671.4, 7687.2, 7703.9, 7721.5, 7737, 7753.9, 7770.9, 7787.4, 7804, 7821, 7837.2, 7853.9, 7871.4, 7888.1, 7903.8, 7921, 7937.3, 7954, 7972.3, 7987.1, 8004.1, 8021, 8037.3, 8056.2, 8071.7, 8087.6, 8104.8, 8122.3, 8137.5, 8153.9, 8171.1, 8187.3, 8204.9]","[2.9, 10.6, 15.7, 16.2, 17.2, 16.5, 16.5, 16.8, 16.9, 17, 16.5, 16.7, 16.3, 16.8, 17, 16.2, 16.9, 16.5, 16.7, 16.8, 16.5, 16.6, 16.8, 16.6, 17.1, 16.5, 16.5, 16.5, 16.8, 16.5, 16.7, 16.8, 16.5, 16.8, 16.7, 16.5, 17.3, 16.2, 16.5, 17.6, 15.9, 16.6, 16.6, 16.7, 16.3, 17, 16.8, 16.6, 16.5, 16.8, 16.7, 16.6, 16.7, 16.6, 16.6, 16.9, 16.5, 16.6, 16.8, 16.5, 16.6, 16.9, 16.7, 16.5, 17, 16.3, 19, 22.1, 20.6, 7.4, 14.6, 16.7, 17.1, 16.3, 17, 17.4, 15.6, 16.6, 16.8, 17, 16, 17.7, 15.8, 16.5, 17.1, 16.4, 16.8, 17.8, 16.5, 16, 16.3, 16.8, 16.4, 17.6, 15.9, 16.4, 17.1, 16.5, 16.6, 18.8, 18.4, 13.7, 17.3, 16, 23, 22.6, 2.9, 17.6, 16, 19.7, 14.8, 16.3, 17.1, 15.1, 16.8, 16.8, 16.7, 16.5, 16.6, 16.8, 16.3, 16.9, 16.6, 16.7, 16.7, 16.7, 16.4, 17, 16.6, 16.7, 16.7, 16.7, 16.4, 16.8, 16.6, 16.5, 16.9, 16.6, 16.9, 16.5, 16.7, 16.5, 16.8, 16.8, 16.2, 17.2, 16.3, 16.7, 16.9, 16.6, 17.2, 16.2, 16.5, 16.4, 16.9, 16.6, 17, 17.3, 15.7, 16.9, 16.8, 16.4, 16.4, 16.9, 17.2, 15.8, 17, 16.7, 16.4, 16.8, 16.9, 16.6, 16.8, 16.4, 16.8, 16.6, 16.6, 16.6, 16.7, 16.8, 16.4, 17, 16.5, 16.5, 16.9, 16.5, 16.7, 16.8, 16.8, 16.2, 17, 16.7, 16.3, 17.1, 16.5, 16.6, 16.8, 16.6, 16.7, 16.6, 16.8, 17.2, 16.1, 16.5, 16.5, 17, 16.4, 17.1, 16.6, 16.4, 16.7, 16.7, 16.7, 16.5, 16.9, 16.5, 17.7, 15.9, 16.8, 17.2, 15.6, 17.1, 16.3, 16.8, 16.7, 16.8, 16.6, 16.5, 16.5, 16.9, 16.6, 16.5, 17.1, 16.5, 16.7, 16.7, 16.5, 16.7, 16.7, 16.8, 16.6, 16.7, 16.6, 16.6, 16.9, 16.6, 16.6, 16.6, 16.8, 16.4, 16.9, 16.6, 16.3, 17, 16.9, 16.4, 17, 16.4, 16.9, 16.5, 16.7, 16.5, 16.6, 16.6, 17.5, 16, 16.7, 17.6, 15.8, 16.7, 17.6, 15.5, 16.9, 17, 16.5, 16.6, 17, 16.2, 16.7, 17.5, 16.7, 15.7, 17.2, 16.3, 16.7, 18.3, 14.8, 17, 16.9, 16.3, 18.9, 15.5, 15.9, 17.2, 17.5, 15.2, 16.4, 17.2, 16.2, 17.6]",60.0,59.0,61.0,4997.1,[],,,,,,,,,,,,,,,,,,,,,,,,,HRV,HRV_0075,2022-11-30 18:28:59
,wl-html-keyboard-response,2,16164,0.0-2.0-0.0,0.0,3.0,,,,,,,,7339.799999952316,0.0,0,,,,,,,,,,,,,,,,,,,,,,HRV,HRV_0075,2022-11-30 18:28:59
,wl-rdm,3,29186,0.0-3.0-0.0,0.0,4.0,,,,,,,[],,,,0.0,0.0,87.9,0.0,u,0.0,True,2908.600000143051,173.0,61.0,40.0,False,too_early ,3000.0,[],"[768, 432]",ColorTask_Demo,,,,,HRV,HRV_0075,2022-11-30 18:28:59
,wl-rdm,4,33849,0.0-3.0-1.0,0.0,5.0,,,,,,,[],,,,0.0,0.0,87.9,1.0,i,1.0,True,580.9999997615814,35.0,61.0,40.0,False,,2000.0,[],"[768, 432]",ColorTask_Demo,,,,,HRV,HRV_0075,2022-11-30 18:28:59
,wl-html-keyboard-response,5,43347,0.0-3.0-2.0,0.0,6.0,,,,,,,,7475.300000190735,0.0,1,,,,,,,,,,,,,,,,,,,,,,HRV,HRV_0075,2022-11-30 18:28:59
,wl-html-keyboard-response,6,51105,0.0-4.0-0.0,0.0,7.0,,,,,,,,5744.899999856949,0.0,0,,,,,,,,,,,,,,,,,,,,,,HRV,HRV_0075,2022-11-30 18:28:59
,wl-html-keyboard-response,7,58935,0.0-5.0-0.0,0.0,8.0,,,,,,,,6542.5,0.0,0,,,,,,,,,,,,,,,,,,,,,,HRV,HRV_0075,2022-11-30 18:28:59
,wl-rdm,8,61676,0.0-6.0-0.0,0.0,9.0,,,,,,,[],,,,,,87.9,0.0,u,0.0,True,1444.7000002861023,87.0,61.0,40.0,False,,212.21023317557146,[],"[768, 432]",ColorTask,1.0,1.0,,,HRV,HRV_0075,2022-11-30 18:28:59
,wl-rdm,9,63709,0.0-6.1-0.1,0.0,10.0,,,,,,,[],,,,,,56.4,1.0,i,1.0,True,705.9000000953674,43.0,61.0,40.0,False,,240.86068715845295,[],"[768, 432]",ColorTask,2.0,2.0,,,HRV,HRV_0075,2022-11-30 18:28:59
,wl-rdm,10,65908,0.0-6.2-0.2,0.0,11.0,,,,,,,[],,,,,,56.4,0.0,u,0.0,True,744.2000000476837,45.0,61.0,40.0,False,,378.1626258645178,[],"[768, 432]",ColorTask,3.0,3.0,,,HRV,HRV_0075,2022-11-30 18:28:59
,wl-rdm,11,68175,0.0-6.3-0.3,0.0,12.0,,,,,,,[],,,,,,62.5,1.0,i,1.0,True,799.6000001430511,48.0,61.0,40.0,False,,384.3112433926948,[],"[768, 432]",ColorTask,4.0,4.0,,,HRV,HRV_0075,2022-11-30 18:28:59
,wl-rdm,12,70325,0.0-6.4-0.4,0.0,13.0,,,,,,,[],,,,,,50.0,1.0,u,0.0,False,842.4000000953674,51.0,61.0,40.0,False,,226.77925902247915,[],"[768, 432]",ColorTask,3.0,5.0,,,HRV,HRV_0075,2022-11-30 18:28:59
,wl-rdm,13,72258,0.0-6.5-0.5,0.0,14.0,,,,,,,[],,,,,,73.6,0.0,i,1.0,False,643.1000001430511,39.0,61.0,40.0,False,,208.0795901152102,[],"[768, 432]",ColorTask,2.0,6.0,,,HRV,HRV_0075,2022-11-30 18:28:59
,wl-rdm,14,74990,0.0-6.6-0.6,0.0,15.0,,,,,,,[],,,,,,50.0,1.0,u,0.0,False,1339.5000002384186,81.0,61.0,40.0,False,,307.1567764772685,[],"[768, 432]",ColorTask,1.0,7.0,,,HRV,HRV_0075,2022-11-30 18:28:59
,wl-rdm,15,77157,0.0-6.7-0.7,0.0,16.0,,,,,,,[],,,,,,50.0,0.0,i,1.0,False,723.5,44.0,61.0,40.0,False,,342.5022986776333,[],"[768, 432]",ColorTask,0.0,8.0,,,HRV,HRV_0075,2022-11-30 18:28:59
,wl-rdm,16,79257,0.0-6.8-0.8,0.0,17.0,,,,,,,[],,,,,,53.2,1.0,u,0.0,False,794.5,48.0,61.0,40.0,False,,241.06253684562066,[],"[768, 432]",ColorTask,-1.0,9.0,,,HRV,HRV_0075,2022-11-30 18:28:59
,wl-rdm,17,81240,0.0-6.9-0.9,0.0,18.0,,,,,,,[],,,,,,56.4,1.0,i,1.0,True,540.0,33.0,61.0,40.0,False,,364.50436938739415,[],"[768, 432]",ColorTask,0.0,10.0,,,HRV,HRV_0075,2022-11-30 18:28:59
,wl-rdm,18,83490,0.0-6.10-0.10,0.0,19.0,,,,,,,[],,,,,,87.9,1.0,i,1.0,True,883.5000002384186,53.0,61.0,40.0,False,,284.0253188019818,[],"[768, 432]",ColorTask,1.0,11.0,,,HRV,HRV_0075,2022-11-30 18:28:59
,wl-rdm,19,85507,0.0-6.11-0.11,0.0,20.0,,,,,,,[],,,,,,87.9,0.0,i,1.0,False,630.6000001430511,38.0,61.0,40.0,False,,312.16745837694555,[],"[768, 432]",ColorTask,0.0,12.0,,,HRV,HRV_0075,2022-11-30 18:28:59
,wl-rdm,20,88022,0.0-6.12-0.12,0.0,21.0,,,,,,,[],,,,,,62.5,1.0,i,1.0,True,1091.3000001907349,66.0,61.0,40.0,False,,347.3687275936629,[],"[768, 432]",ColorTask,1.0,13.0,,,HRV,HRV_0075,2022-11-30 18:28:59
,wl-rdm,21,90106,0.0-6.13-0.13,0.0,22.0,,,,,,,[],,,,,,73.6,1.0,i,1.0,True,709.2999999523163,43.0,61.0,40.0,False,,313.18463838821697,[],"[768, 432]",ColorTask,2.0,14.0,,,HRV,HRV_0075,2022-11-30 18:28:59
,wl-rdm,22,92255,0.0-6.14-0.14,0.0,23.0,,,,,,,[],,,,,,87.9,0.0,i,1.0,False,725.1000001430511,44.0,61.0,40.0,False,,345.2008655320783,[],"[768, 432]",ColorTask,1.0,15.0,,,HRV,HRV_0075,2022-11-30 18:28:59
,wl-rdm,23,94338,0.0-6.15-0.15,0.0,24.0,,,,,,,[],,,,,,87.9,1.0,u,0.0,False,678.3999998569489,41.0,61.0,40.0,False,,332.917906216196,[],"[768, 432]",ColorTask,0.0,16.0,,,HRV,HRV_0075,2022-11-30 18:28:59
,wl-rdm,24,96322,0.0-6.16-0.16,0.0,25.0,,,,,,,[],,,,,,73.6,1.0,i,1.0,True,689.1999998092651,42.0,61.0,40.0,False,,209.89678876874194,[],"[768, 432]",ColorTask,1.0,17.0,,,HRV,HRV_0075,2022-11-30 18:28:59
,wl-rdm,25,98454,0.0-6.17-0.17,0.0,26.0,,,,,,,[],,,,,,50.0,0.0,i,1.0,False,692.3999998569489,42.0,61.0,40.0,False,,365.371369187926,[],"[768, 432]",ColorTask,0.0,18.0,,,HRV,HRV_0075,2022-11-30 18:28:59
,wl-rdm,26,100854,0.0-6.18-0.18,0.0,27.0,,,,,,,[],,,,,,56.4,1.0,i,1.0,True,923.2999997138977,56.0,61.0,40.0,False,,389.333434594897,[],"[768, 432]",ColorTask,1.0,19.0,,,HRV,HRV_0075,2022-11-30 18:28:59
,wl-rdm,27,102887,0.0-6.19-0.19,0.0,28.0,,,,,,,[],,,,,,56.4,0.0,u,0.0,True,693.5,42.0,61.0,40.0,False,,262.3995448065837,[],"[768, 432]",ColorTask,2.0,20.0,,,HRV,HRV_0075,2022-11-30 18:28:59
,wl-rdm,28,105038,0.0-6.20-0.20,0.0,29.0,,,,,,,[],,,,,,62.5,1.0,i,1.0,True,743.0,45.0,61.0,40.0,False,,324.78792616833965,[],"[768, 432]",ColorTask,3.0,21.0,,,HRV,HRV_0075,2022-11-30 18:28:59
,wl-rdm,29,107653,0.0-6.21-0.21,0.0,30.0,,,,,,,[],,,,,,62.5,0.0,u,0.0,True,1275.1999998092651,77.0,61.0,40.0,False,,258.68570590672346,[],"[768, 432]",ColorTask,4.0,22.0,,,HRV,HRV_0075,2022-11-30 18:28:59
,wl-rdm,30,109955,0.0-6.22-0.22,0.0,31.0,,,,,,,[],,,,,,73.6,0.0,u,0.0,True,900.8999998569489,54.0,61.0,40.0,False,,323.69918052785766,[],"[768, 432]",ColorTask,5.0,23.0,,,HRV,HRV_0075,2022-11-30 18:28:59
,wl-rdm,31,112621,0.0-6.23-0.23,0.0,32.0,,,,,,,[],,,,,,87.9,0.0,u,0.0,True,1205.9000000953674,73.0,61.0,40.0,False,,374.0731312645904,[],"[768, 432]",ColorTask,6.0,24.0,,,HRV,HRV_0075,2022-11-30 18:28:59
,wl-rdm,32,115071,0.0-6.24-0.24,0.0,33.0,,,,,,,[],,,,,,87.9,0.0,u,0.0,True,1107.7999999523163,67.0,61.0,40.0,False,,266.8204552196676,[],"[768, 432]",ColorTask,7.0,25.0,,,HRV,HRV_0075,2022-11-30 18:28:59
,wl-rdm,33,117121,0.0-6.25-0.25,0.0,34.0,,,,,,,[],,,,,,87.9,0.0,u,0.0,True,673.9000000953674,41.0,61.0,40.0,False,,294.7155492354344,[],"[768, 432]",ColorTask,8.0,26.0,,,HRV,HRV_0075,2022-11-30 18:28:59
,wl-rdm,34,119670,0.0-6.26-0.26,0.0,35.0,,,,,,,[],,,,,,62.5,1.0,i,1.0,True,1224.2000000476837,74.0,61.0,40.0,False,,262.1462423708339,[],"[768, 432]",ColorTask,9.0,27.0,,,HRV,HRV_0075,2022-11-30 18:28:59
,wl-rdm,35,122403,0.0-6.27-0.27,0.0,36.0,,,,,,,[],,,,,,73.6,0.0,u,0.0,True,1305.8000001907349,79.0,61.0,40.0,False,,359.26409992246374,[],"[768, 432]",ColorTask,10.0,28.0,,,HRV,HRV_0075,2022-11-30 18:28:59
,wl-rdm,36,124753,0.0-6.28-0.28,0.0,37.0,,,,,,,[],,,,,,53.2,1.0,u,0.0,False,1006.6000001430511,61.0,61.0,40.0,False,,256.43630827890036,[],"[768, 432]",ColorTask,9.0,29.0,,,HRV,HRV_0075,2022-11-30 18:28:59
,wl-rdm,37,126653,0.0-6.29-0.29,0.0,38.0,,,,,,,[],,,,,,73.6,1.0,i,1.0,True,514.7999999523163,31.0,61.0,40.0,False,,324.63259464117095,[],"[768, 432]",ColorTask,10.0,30.0,,,HRV,HRV_0075,2022-11-30 18:28:59
,wl-rdm,38,128569,0.0-6.30-0.30,0.0,39.0,,,,,,,[],,,,,,56.4,1.0,i,1.0,True,528.9000000953674,32.0,61.0,40.0,False,,300.2794618710609,[],"[768, 432]",ColorTask,11.0,31.0,,,HRV,HRV_0075,2022-11-30 18:28:59
,wl-rdm,39,131469,0.0-6.31-0.31,0.0,40.0,,,,,,,[],,,,,,56.4,0.0,i,1.0,False,1506.5999999046326,91.0,61.0,40.0,False,,304.1648124114389,[],"[768, 432]",ColorTask,10.0,32.0,,,HRV,HRV_0075,2022-11-30 18:28:59
,wl-rdm,40,133685,0.0-6.32-0.32,0.0,41.0,,,,,,,[],,,,,,53.2,1.0,i,1.0,True,862.1000001430511,52.0,61.0,40.0,False,,284.2754721293951,[],"[768, 432]",ColorTask,11.0,33.0,,,HRV,HRV_0075,2022-11-30 18:28:59
,wl-rdm,41,136068,0.0-6.33-0.33,0.0,42.0,,,,,,,[],,,,,,50.0,1.0,i,1.0,True,1062.8000001907349,64.0,61.0,40.0,False,,242.94763649199126,[],"[768, 432]",ColorTask,12.0,34.0,,,HRV,HRV_0075,2022-11-30 18:28:59
,wl-rdm,42,138251,0.0-6.34-0.34,0.0,43.0,,,,,,,[],,,,,,73.6,0.0,u,0.0,True,790.7000000476837,48.0,61.0,40.0,False,,316.00296056987554,[],"[768, 432]",ColorTask,13.0,35.0,,,HRV,HRV_0075,2022-11-30 18:28:59
,wl-rdm,43,140218,0.0-6.35-0.35,0.0,44.0,,,,,,,[],,,,,,50.0,0.0,u,0.0,True,595.8000001907349,36.0,61.0,40.0,False,,297.1039201545702,[],"[768, 432]",ColorTask,14.0,36.0,,,HRV,HRV_0075,2022-11-30 18:28:59
,wl-rdm,44,142618,0.0-6.36-0.36,0.0,45.0,,,,,,,[],,,,,,87.9,1.0,i,1.0,True,1112.7999999523163,67.0,61.0,40.0,False,,213.84794075150796,[],"[768, 432]",ColorTask,15.0,37.0,,,HRV,HRV_0075,2022-11-30 18:28:59
,wl-rdm,45,145134,0.0-6.37-0.37,0.0,46.0,,,,,,,[],,,,,,73.6,1.0,i,1.0,True,1211.0,73.0,61.0,40.0,False,,221.80839182015575,[],"[768, 432]",ColorTask,16.0,38.0,,,HRV,HRV_0075,2022-11-30 18:28:59
,wl-rdm,46,147467,0.0-6.38-0.38,0.0,47.0,,,,,,,[],,,,,,53.2,0.0,i,1.0,False,906.3999998569489,55.0,61.0,40.0,False,,354.9568984181625,[],"[768, 432]",ColorTask,15.0,39.0,,,HRV,HRV_0075,2022-11-30 18:28:59
,wl-rdm,47,149033,0.0-6.39-0.39,0.0,48.0,,,,,,,[],,,,,,73.6,0.0,u,0.0,True,173.70000004768372,11.0,61.0,40.0,False,,299.80110829581076,[],"[768, 432]",ColorTask,16.0,40.0,,,HRV,HRV_0075,2022-11-30 18:28:59
,wl-rdm,48,151166,0.0-6.40-0.40,0.0,49.0,,,,,,,[],,,,,,73.6,0.0,u,0.0,True,656.5,40.0,61.0,40.0,False,,389.1340990330207,[],"[768, 432]",ColorTask,17.0,41.0,,,HRV,HRV_0075,2022-11-30 18:28:59
,wl-rdm,49,153249,0.0-6.41-0.41,0.0,50.0,,,,,,,[],,,,,,53.2,0.0,u,0.0,True,708.0999999046326,43.0,61.0,40.0,False,,288.81324808978593,[],"[768, 432]",ColorTask,18.0,42.0,,,HRV,HRV_0075,2022-11-30 18:28:59
,wl-rdm,50,155282,0.0-6.42-0.42,0.0,51.0,,,,,,,[],,,,,,50.0,1.0,i,1.0,True,644.9000000953674,39.0,61.0,40.0,False,,312.91019742985407,[],"[768, 432]",ColorTask,19.0,43.0,,,HRV,HRV_0075,2022-11-30 18:28:59
,wl-rdm,51,157349,0.0-6.43-0.43,0.0,52.0,,,,,,,[],,,,,,50.0,0.0,u,0.0,True,775.0,47.0,61.0,40.0,False,,210.4064751244401,[],"[768, 432]",ColorTask,20.0,44.0,,,HRV,HRV_0075,2022-11-30 18:28:59
,wl-rdm,52,159867,0.0-6.44-0.44,0.0,53.0,,,,,,,[],,,,,,53.2,0.0,i,1.0,False,1122.4999997615814,68.0,61.0,40.0,False,,302.9976828520891,[],"[768, 432]",ColorTask,19.0,45.0,,,HRV,HRV_0075,2022-11-30 18:28:59
,wl-rdm,53,160932,0.0-6.45-0.45,0.0,53.0,,,,,,,[],,,,,,62.5,1.0,u,,,149.80000019073486,0.0,61.0,40.0,True,too_early ,355.973168025393,[],"[768, 432]",ColorTask,18.0,46.0,,,HRV,HRV_0075,2022-11-30 18:28:59
,wl-rdm,54,162817,0.0-6.46-0.46,0.0,54.0,,,,,,,[],,,,,,87.9,1.0,u,0.0,False,572.5,35.0,61.0,40.0,False,,221.67083126121713,[],"[768, 432]",ColorTask,17.0,47.0,,,HRV,HRV_0075,2022-11-30 18:28:59
,wl-rdm,55,165065,0.0-6.47-0.47,0.0,55.0,,,,,,,[],,,,,,62.5,1.0,i,1.0,True,855.8999998569489,52.0,61.0,40.0,False,,306.5212005959876,[],"[768, 432]",ColorTask,18.0,48.0,,,HRV,HRV_0075,2022-11-30 18:28:59
,wl-rdm,56,167549,0.0-6.48-0.48,0.0,56.0,,,,,,,[],,,,,,53.2,0.0,i,1.0,False,1117.4000000953674,67.0,61.0,40.0,False,,267.0847787158831,[],"[768, 432]",ColorTask,17.0,49.0,,,HRV,HRV_0075,2022-11-30 18:28:59
,wl-rdm,57,169380,0.0-6.49-0.49,0.0,57.0,,,,,,,[],,,,,,50.0,0.0,u,0.0,True,460.40000009536743,28.0,61.0,40.0,False,,286.2167182383847,[],"[768, 432]",ColorTask,18.0,50.0,,,HRV,HRV_0075,2022-11-30 18:28:59
,wl-rdm,58,171213,0.0-6.50-0.50,0.0,58.0,,,,,,,[],,,,,,56.4,1.0,i,1.0,True,542.4000000953674,33.0,61.0,40.0,False,,214.2722347868684,[],"[768, 432]",ColorTask,19.0,51.0,,,HRV,HRV_0075,2022-11-30 18:28:59
,wl-rdm,59,173463,0.0-6.51-0.51,0.0,59.0,,,,,,,[],,,,,,62.5,0.0,i,1.0,False,968.0999999046326,58.0,61.0,40.0,False,,202.5291939154754,[],"[768, 432]",ColorTask,18.0,52.0,,,HRV,HRV_0075,2022-11-30 18:28:59
,wl-rdm,60,176063,0.0-6.52-0.52,0.0,60.0,,,,,,,[],,,,,,56.4,0.0,u,0.0,True,1126.0,68.0,61.0,40.0,False,,393.72043939301705,[],"[768, 432]",ColorTask,19.0,53.0,,,HRV,HRV_0075,2022-11-30 18:28:59
,wl-rdm,61,178729,0.0-6.53-0.53,0.0,61.0,,,,,,,[],,,,,,53.2,0.0,u,0.0,True,1348.6000001430511,81.0,61.0,40.0,False,,248.1634683584594,[],"[768, 432]",ColorTask,20.0,54.0,,,HRV,HRV_0075,2022-11-30 18:28:59
,wl-rdm,62,180896,0.0-6.54-0.54,0.0,62.0,,,,,,,[],,,,,,50.0,0.0,i,1.0,False,778.5,47.0,61.0,40.0,False,,313.5864859928071,[],"[768, 432]",ColorTask,19.0,55.0,,,HRV,HRV_0075,2022-11-30 18:28:59
,wl-rdm,63,182712,0.0-6.55-0.55,0.0,63.0,,,,,,,[],,,,,,62.5,0.0,u,0.0,True,407.39999985694885,25.0,61.0,40.0,False,,320.71750089562704,[],"[768, 432]",ColorTask,20.0,56.0,,,HRV,HRV_0075,2022-11-30 18:28:59
,wl-rdm,64,185228,0.0-6.56-0.56,0.0,64.0,,,,,,,[],,,,,,87.9,0.0,u,0.0,True,1192.4000000953674,72.0,61.0,40.0,False,,244.41850159693794,[],"[768, 432]",ColorTask,21.0,57.0,,,HRV,HRV_0075,2022-11-30 18:28:59
,wl-rdm,65,187345,0.0-6.57-0.57,0.0,65.0,,,,,,,[],,,,,,56.4,1.0,i,1.0,True,755.3000001907349,46.0,61.0,40.0,False,,267.9298384432835,[],"[768, 432]",ColorTask,22.0,58.0,,,HRV,HRV_0075,2022-11-30 18:28:59
,wl-rdm,66,189311,0.0-6.58-0.58,0.0,66.0,,,,,,,[],,,,,,56.4,1.0,i,1.0,True,596.4999997615814,36.0,61.0,40.0,False,,291.0927255278074,[],"[768, 432]",ColorTask,23.0,59.0,,,HRV,HRV_0075,2022-11-30 18:28:59
,wl-rdm,67,191127,0.0-6.59-0.59,0.0,67.0,,,,,,,[],,,,,,53.2,1.0,i,1.0,True,488.60000014305115,30.0,61.0,40.0,False,,250.33084153516253,[],"[768, 432]",ColorTask,24.0,60.0,,,HRV,HRV_0075,2022-11-30 18:28:59
,wl-rdm,68,193144,0.0-6.60-0.60,0.0,68.0,,,,,,,[],,,,,,50.0,1.0,i,1.0,True,638.0999999046326,39.0,61.0,40.0,False,,291.26800695413704,[],"[768, 432]",ColorTask,25.0,61.0,,,HRV,HRV_0075,2022-11-30 18:28:59
,wl-rdm,69,195227,0.0-6.61-0.61,0.0,69.0,,,,,,,[],,,,,,50.0,1.0,i,1.0,True,697.3000001907349,42.0,61.0,40.0,False,,332.82381788156437,[],"[768, 432]",ColorTask,26.0,62.0,,,HRV,HRV_0075,2022-11-30 18:28:59
,wl-rdm,70,197245,0.0-6.62-0.62,0.0,70.0,,,,,,,[],,,,,,56.4,0.0,i,1.0,False,628.3999998569489,38.0,61.0,40.0,False,,318.0313171296624,[],"[768, 432]",ColorTask,25.0,63.0,,,HRV,HRV_0075,2022-11-30 18:28:59
,wl-rdm,71,199093,0.0-6.63-0.63,0.0,71.0,,,,,,,[],,,,,,87.9,1.0,u,0.0,False,473.59999990463257,29.0,61.0,40.0,False,,298.2305455071248,[],"[768, 432]",ColorTask,24.0,64.0,,,HRV,HRV_0075,2022-11-30 18:28:59
,wl-rdm,72,201093,0.0-6.64-0.64,0.0,72.0,,,,,,,[],,,,,,62.5,0.0,i,1.0,False,575.0999999046326,35.0,61.0,40.0,False,,339.38998515711774,[],"[768, 432]",ColorTask,23.0,65.0,,,HRV,HRV_0075,2022-11-30 18:28:59
,wl-rdm,73,203277,0.0-6.65-0.65,0.0,73.0,,,,,,,[],,,,,,62.5,0.0,u,0.0,True,728.4999997615814,44.0,61.0,40.0,False,,378.8955855245596,[],"[768, 432]",ColorTask,24.0,66.0,,,HRV,HRV_0075,2022-11-30 18:28:59
,wl-rdm,74,205609,0.0-6.66-0.66,0.0,74.0,,,,,,,[],,,,,,87.9,1.0,i,1.0,True,956.2000000476837,58.0,61.0,40.0,False,,287.5256938191504,[],"[768, 432]",ColorTask,25.0,67.0,,,HRV,HRV_0075,2022-11-30 18:28:59
,wl-rdm,75,207742,0.0-6.67-0.67,0.0,75.0,,,,,,,[],,,,,,87.9,0.0,u,0.0,True,788.3999998569489,48.0,61.0,40.0,False,,255.8829417596894,[],"[768, 432]",ColorTask,26.0,68.0,,,HRV,HRV_0075,2022-11-30 18:28:59
,wl-rdm,76,209992,0.0-6.68-0.68,0.0,76.0,,,,,,,[],,,,,,50.0,1.0,i,1.0,True,890.5999999046326,54.0,61.0,40.0,False,,275.4170259910653,[],"[768, 432]",ColorTask,27.0,69.0,,,HRV,HRV_0075,2022-11-30 18:28:59
,wl-rdm,77,212108,0.0-6.69-0.69,0.0,77.0,,,,,,,[],,,,,,62.5,1.0,i,1.0,True,829.7999999523163,50.0,61.0,40.0,False,,204.44696746098225,[],"[768, 432]",ColorTask,28.0,70.0,,,HRV,HRV_0075,2022-11-30 18:28:59
,wl-rdm,78,214108,0.0-6.70-0.70,0.0,78.0,,,,,,,[],,,,,,53.2,0.0,i,1.0,False,689.9000000953674,42.0,61.0,40.0,False,,231.6389389736067,[],"[768, 432]",ColorTask,27.0,71.0,,,HRV,HRV_0075,2022-11-30 18:28:59
,wl-rdm,79,215774,0.0-6.71-0.71,0.0,79.0,,,,,,,[],,,,,,50.0,1.0,u,0.0,False,350.40000009536743,21.0,61.0,40.0,False,,234.86699097021915,[],"[768, 432]",ColorTask,26.0,72.0,,,HRV,HRV_0075,2022-11-30 18:28:59
,wl-rdm,80,217825,0.0-6.72-0.72,0.0,80.0,,,,,,,[],,,,,,53.2,1.0,u,0.0,False,748.9000000953674,45.0,61.0,40.0,False,,221.99152089783962,[],"[768, 432]",ColorTask,25.0,73.0,,,HRV,HRV_0075,2022-11-30 18:28:59
,wl-rdm,81,219807,0.0-6.73-0.73,0.0,81.0,,,,,,,[],,,,,,62.5,0.0,i,1.0,False,626.5999999046326,38.0,61.0,40.0,False,,269.1070908056955,[],"[768, 432]",ColorTask,24.0,74.0,,,HRV,HRV_0075,2022-11-30 18:28:59
,wl-rdm,82,221990,0.0-6.74-0.74,0.0,82.0,,,,,,,[],,,,,,62.5,0.0,i,1.0,False,792.2999997138977,47.0,61.0,40.0,False,,310.2595229633705,[],"[768, 432]",ColorTask,23.0,75.0,,,HRV,HRV_0075,2022-11-30 18:28:59
,wl-rdm,83,224207,0.0-6.75-0.75,0.0,83.0,,,,,,,[],,,,,,53.2,0.0,i,1.0,False,824.0,50.0,61.0,40.0,False,,303.12626767970255,[],"[768, 432]",ColorTask,22.0,76.0,,,HRV,HRV_0075,2022-11-30 18:28:59
,wl-rdm,84,226441,0.0-6.76-0.76,0.0,84.0,,,,,,,[],,,,,,73.6,1.0,u,0.0,False,906.8000001907349,55.0,61.0,40.0,False,,252.74629229010412,[],"[768, 432]",ColorTask,21.0,77.0,,,HRV,HRV_0075,2022-11-30 18:28:59
,wl-rdm,85,228939,0.0-6.77-0.77,0.0,85.0,,,,,,,[],,,,,,56.4,0.0,u,0.0,True,1206.1999998092651,73.0,61.0,40.0,False,,207.08352722833774,[],"[768, 432]",ColorTask,22.0,78.0,,,HRV,HRV_0075,2022-11-30 18:28:59
,wl-rdm,86,231339,0.0-6.78-0.78,0.0,86.0,,,,,,,[],,,,,,73.6,0.0,u,0.0,True,975.8000001907349,59.0,61.0,40.0,False,,339.0085085791087,[],"[768, 432]",ColorTask,23.0,79.0,,,HRV,HRV_0075,2022-11-30 18:28:59
,wl-rdm,87,233838,0.0-6.79-0.79,0.0,87.0,,,,,,,[],,,,,,50.0,0.0,u,0.0,True,1207.0999999046326,73.0,61.0,40.0,False,,212.70712162631878,[],"[768, 432]",ColorTask,24.0,80.0,,,HRV,HRV_0075,2022-11-30 18:28:59
,wl-rdm,88,236038,0.0-6.80-0.80,0.0,88.0,,,,,,,[],,,,,,62.5,1.0,u,0.0,False,846.1000001430511,51.0,61.0,40.0,False,,270.16454716755493,[],"[768, 432]",ColorTask,23.0,81.0,,,HRV,HRV_0075,2022-11-30 18:28:59
,wl-rdm,89,237905,0.0-6.81-0.81,0.0,89.0,,,,,,,[],,,,,,50.0,1.0,i,1.0,True,580.2000000476837,35.0,61.0,40.0,False,,214.2098112849917,[],"[768, 432]",ColorTask,24.0,82.0,,,HRV,HRV_0075,2022-11-30 18:28:59
,wl-rdm,90,240321,0.0-6.82-0.82,0.0,90.0,,,,,,,[],,,,,,56.4,0.0,i,1.0,False,942.3000001907349,57.0,61.0,40.0,False,,392.57350971302355,[],"[768, 432]",ColorTask,23.0,83.0,,,HRV,HRV_0075,2022-11-30 18:28:59
,wl-rdm,91,241886,0.0-6.83-0.83,0.0,91.0,,,,,,,[],,,,,,56.4,1.0,u,0.0,False,146.69999980926514,9.0,61.0,40.0,False,,346.3208374375667,[],"[768, 432]",ColorTask,22.0,84.0,,,HRV,HRV_0075,2022-11-30 18:28:59
,wl-rdm,92,243937,0.0-6.84-0.84,0.0,92.0,,,,,,,[],,,,,,53.2,1.0,u,0.0,False,756.2999999523163,46.0,61.0,40.0,False,,215.3510933981508,[],"[768, 432]",ColorTask,21.0,85.0,,,HRV,HRV_0075,2022-11-30 18:28:59
,wl-rdm,93,245020,0.0-6.85-0.85,0.0,92.0,,,,,,,[],,,,,,87.9,1.0,i,,,323.0,0.0,61.0,40.0,True,too_early ,298.7735371493675,[],"[768, 432]",ColorTask,20.0,86.0,,,HRV,HRV_0075,2022-11-30 18:28:59
,wl-rdm,94,246920,0.0-6.86-0.86,0.0,93.0,,,,,,,[],,,,,,73.6,1.0,i,1.0,True,590.0999999046326,36.0,61.0,40.0,False,,234.23600160000515,[],"[768, 432]",ColorTask,21.0,87.0,,,HRV,HRV_0075,2022-11-30 18:28:59
,wl-rdm,95,249036,0.0-6.87-0.87,0.0,94.0,,,,,,,[],,,,,,53.2,1.0,i,1.0,True,671.8000001907349,41.0,61.0,40.0,False,,364.06666400526757,[],"[768, 432]",ColorTask,22.0,88.0,,,HRV,HRV_0075,2022-11-30 18:28:59
,wl-rdm,96,251203,0.0-6.88-0.88,0.0,95.0,,,,,,,[],,,,,,62.5,1.0,i,1.0,True,713.5000002384186,43.0,61.0,40.0,False,,377.54899926279046,[],"[768, 432]",ColorTask,23.0,89.0,,,HRV,HRV_0075,2022-11-30 18:28:59
,wl-rdm,97,253202,0.0-6.89-0.89,0.0,96.0,,,,,,,[],,,,,,73.6,1.0,i,1.0,True,644.2000000476837,39.0,61.0,40.0,False,,277.18406261030407,[],"[768, 432]",ColorTask,24.0,90.0,,,HRV,HRV_0075,2022-11-30 18:28:59
,wl-rdm,98,255219,0.0-6.90-0.90,0.0,97.0,,,,,,,[],,,,,,62.5,0.0,i,1.0,False,594.2999997138977,36.0,61.0,40.0,False,,342.453730790906,[],"[768, 432]",ColorTask,23.0,91.0,,,HRV,HRV_0075,2022-11-30 18:28:59
,wl-rdm,99,257469,0.0-6.91-0.91,0.0,98.0,,,,,,,[],,,,,,56.4,0.0,u,0.0,True,841.3000001907349,51.0,61.0,40.0,False,,338.9471857433382,[],"[768, 432]",ColorTask,24.0,92.0,,,HRV,HRV_0075,2022-11-30 18:28:59
,wl-rdm,100,259653,0.0-6.92-0.92,0.0,99.0,,,,,,,[],,,,,,53.2,1.0,u,0.0,False,856.7000000476837,52.0,61.0,40.0,False,,239.7029518793718,[],"[768, 432]",ColorTask,23.0,93.0,,,HRV,HRV_0075,2022-11-30 18:28:59
,wl-rdm,101,261585,0.0-6.93-0.93,0.0,100.0,,,,,,,[],,,,,,56.4,0.0,i,1.0,False,572.7000002861023,35.0,61.0,40.0,False,,275.044592229326,[],"[768, 432]",ColorTask,22.0,94.0,,,HRV,HRV_0075,2022-11-30 18:28:59
,wl-rdm,102,263535,0.0-6.94-0.94,0.0,101.0,,,,,,,[],,,,,,62.5,0.0,u,0.0,True,591.5999999046326,36.0,61.0,40.0,False,,278.6187277155661,[],"[768, 432]",ColorTask,23.0,95.0,,,HRV,HRV_0075,2022-11-30 18:28:59
,wl-rdm,103,265434,0.0-6.95-0.95,0.0,102.0,,,,,,,[],,,,,,73.6,0.0,u,0.0,True,593.5,36.0,61.0,40.0,False,,218.25685993522205,[],"[768, 432]",ColorTask,24.0,96.0,,,HRV,HRV_0075,2022-11-30 18:28:59
,wl-rdm,104,267734,0.0-6.96-0.96,0.0,103.0,,,,,,,[],,,,,,73.6,0.0,u,0.0,True,890.2999997138977,54.0,61.0,40.0,False,,336.30377282851543,[],"[768, 432]",ColorTask,25.0,97.0,,,HRV,HRV_0075,2022-11-30 18:28:59
,wl-rdm,105,269950,0.0-6.97-0.97,0.0,104.0,,,,,,,[],,,,,,87.9,1.0,i,1.0,True,755.5999999046326,46.0,61.0,40.0,False,,368.577471014111,[],"[768, 432]",ColorTask,26.0,98.0,,,HRV,HRV_0075,2022-11-30 18:28:59
,wl-rdm,106,272085,0.0-6.98-0.98,0.0,105.0,,,,,,,[],,,,,,87.9,1.0,i,1.0,True,722.0,44.0,61.0,40.0,False,,323.03286668483577,[],"[768, 432]",ColorTask,27.0,99.0,,,HRV,HRV_0075,2022-11-30 18:28:59
,wl-rdm,107,274116,0.0-6.99-0.99,0.0,106.0,,,,,,,[],,,,,,50.0,0.0,i,1.0,False,715.3999998569489,43.0,61.0,40.0,False,,247.19538789578178,[],"[768, 432]",ColorTask,26.0,100.0,,,HRV,HRV_0075,2022-11-30 18:28:59
,wl-rdm,108,276250,0.0-6.100-0.100,0.0,107.0,,,,,,,[],,,,,,50.0,0.0,u,0.0,True,757.5999999046326,46.0,61.0,40.0,False,,292.48148680236244,[],"[768, 432]",ColorTask,27.0,101.0,,,HRV,HRV_0075,2022-11-30 18:28:59
,wl-rdm,109,278483,0.0-6.101-0.101,0.0,108.0,,,,,,,[],,,,,,87.9,0.0,u,0.0,True,832.2999999523163,50.0,61.0,40.0,False,,328.2976818459073,[],"[768, 432]",ColorTask,28.0,102.0,,,HRV,HRV_0075,2022-11-30 18:28:59
,wl-rdm,110,280632,0.0-6.102-0.102,0.0,109.0,,,,,,,[],,,,,,53.2,0.0,u,0.0,True,778.0999999046326,47.0,61.0,40.0,False,,296.66674154561474,[],"[768, 432]",ColorTask,29.0,103.0,,,HRV,HRV_0075,2022-11-30 18:28:59
,wl-rdm,111,282815,0.0-6.103-0.103,0.0,110.0,,,,,,,[],,,,,,73.6,1.0,i,1.0,True,772.4999997615814,47.0,61.0,40.0,False,,327.9824713200985,[],"[768, 432]",ColorTask,30.0,104.0,,,HRV,HRV_0075,2022-11-30 18:28:59
,wl-rdm,112,284798,0.0-6.104-0.104,0.0,111.0,,,,,,,[],,,,,,53.2,1.0,i,1.0,True,574.5000002384186,35.0,61.0,40.0,False,,327.6746836146083,[],"[768, 432]",ColorTask,31.0,105.0,,,HRV,HRV_0075,2022-11-30 18:28:59
,wl-rdm,113,286698,0.0-6.105-0.105,0.0,112.0,,,,,,,[],,,,,,73.6,1.0,i,1.0,True,610.6000001430511,37.0,61.0,40.0,False,,205.57496724523412,[],"[768, 432]",ColorTask,32.0,106.0,,,HRV,HRV_0075,2022-11-30 18:28:59
,wl-rdm,114,288580,0.0-6.106-0.106,0.0,113.0,,,,,,,[],,,,,,62.5,1.0,i,1.0,True,589.7000000476837,36.0,61.0,40.0,False,,208.58702575454686,[],"[768, 432]",ColorTask,33.0,107.0,,,HRV,HRV_0075,2022-11-30 18:28:59
,wl-rdm,115,290598,0.0-6.107-0.107,0.0,114.0,,,,,,,[],,,,,,87.9,1.0,i,1.0,True,598.7999999523163,36.0,61.0,40.0,False,,336.5316177327379,[],"[768, 432]",ColorTask,34.0,108.0,,,HRV,HRV_0075,2022-11-30 18:28:59
,wl-rdm,116,292665,0.0-6.108-0.108,0.0,115.0,,,,,,,[],,,,,,53.2,0.0,i,1.0,False,572.7999999523163,35.0,61.0,40.0,False,,385.9686134815231,[],"[768, 432]",ColorTask,33.0,109.0,,,HRV,HRV_0075,2022-11-30 18:28:59
,wl-rdm,117,294698,0.0-6.109-0.109,0.0,116.0,,,,,,,[],,,,,,56.4,1.0,u,0.0,False,711.599999666214,43.0,61.0,40.0,False,,245.10293877812768,[],"[768, 432]",ColorTask,32.0,110.0,,,HRV,HRV_0075,2022-11-30 18:28:59
,wl-html-keyboard-response,118,301899,0.0-7.0-0.0,1.0,117.0,,,,,,,,5177.599999904633,1.0,0,,,,,,,,,,,,,,,,,,,,,,HRV,HRV_0075,2022-11-30 18:28:59
,wl-rdm,119,304039,0.0-8.0-0.0,1.0,118.0,,,,,,,[],,,,,,53.2,1.0,i,1.0,True,721.0,44.0,61.0,40.0,False,,344.26885155821003,[],"[768, 432]",ColorTask,33.0,1.0,,,HRV,HRV_0075,2022-11-30 18:28:59
,wl-rdm,120,306123,0.0-8.1-0.1,1.0,119.0,,,,,,,[],,,,,,53.2,1.0,i,1.0,True,740.7999999523163,45.0,61.0,40.0,False,,263.49851402398986,[],"[768, 432]",ColorTask,34.0,2.0,,,HRV,HRV_0075,2022-11-30 18:28:59
,wl-rdm,121,308006,0.0-8.2-0.2,1.0,120.0,,,,,,,[],,,,,,73.6,1.0,u,0.0,False,577.5999999046326,35.0,61.0,40.0,False,,221.43911110299487,[],"[768, 432]",ColorTask,33.0,3.0,,,HRV,HRV_0075,2022-11-30 18:28:59
,wl-rdm,122,309939,0.0-8.3-0.3,1.0,121.0,,,,,,,[],,,,,,73.6,0.0,i,1.0,False,572.6000001430511,35.0,61.0,40.0,False,,281.0793509771853,[],"[768, 432]",ColorTask,32.0,4.0,,,HRV,HRV_0075,2022-11-30 18:28:59
,wl-rdm,123,311506,0.0-8.4-0.4,1.0,122.0,,,,,,,[],,,,,,87.9,0.0,u,0.0,True,258.19999980926514,16.0,61.0,40.0,False,,230.6492929959738,[],"[768, 432]",ColorTask,33.0,5.0,,,HRV,HRV_0075,2022-11-30 18:28:59
,wl-rdm,124,313656,0.0-8.5-0.5,1.0,123.0,,,,,,,[],,,,,,50.0,0.0,u,0.0,True,793.6000001430511,48.0,61.0,40.0,False,,291.7132139566277,[],"[768, 432]",ColorTask,34.0,6.0,,,HRV,HRV_0075,2022-11-30 18:28:59
,wl-rdm,125,315804,0.0-8.6-0.6,1.0,124.0,,,,,,,[],,,,,,53.2,1.0,u,0.0,False,856.9000000953674,52.0,61.0,40.0,False,,202.73341450427017,[],"[768, 432]",ColorTask,33.0,7.0,,,HRV,HRV_0075,2022-11-30 18:28:59
,wl-rdm,126,317588,0.0-8.7-0.7,1.0,125.0,,,,,,,[],,,,,,56.4,1.0,i,1.0,True,440.2999999523163,27.0,61.0,40.0,False,,255.98332525807254,[],"[768, 432]",ColorTask,34.0,8.0,,,HRV,HRV_0075,2022-11-30 18:28:59
,wl-rdm,127,319705,0.0-8.8-0.8,1.0,126.0,,,,,,,[],,,,,,73.6,0.0,u,0.0,True,833.7999999523163,50.0,61.0,40.0,False,,202.79252812420242,[],"[768, 432]",ColorTask,35.0,9.0,,,HRV,HRV_0075,2022-11-30 18:28:59
,wl-rdm,128,321654,0.0-8.9-0.9,1.0,127.0,,,,,,,[],,,,,,50.0,1.0,i,1.0,True,573.2999999523163,35.0,61.0,40.0,False,,291.3960128133484,[],"[768, 432]",ColorTask,36.0,10.0,,,HRV,HRV_0075,2022-11-30 18:28:59
,wl-rdm,129,323854,0.0-8.10-0.10,1.0,128.0,,,,,,,[],,,,,,50.0,1.0,u,0.0,False,781.2999999523163,47.0,61.0,40.0,False,,345.49766672256465,[],"[768, 432]",ColorTask,35.0,11.0,,,HRV,HRV_0075,2022-11-30 18:28:59
,wl-rdm,130,325670,0.0-8.11-0.11,1.0,129.0,,,,,,,[],,,,,,73.6,0.0,i,1.0,False,374.89999985694885,23.0,61.0,40.0,False,,353.116928872508,[],"[768, 432]",ColorTask,34.0,12.0,,,HRV,HRV_0075,2022-11-30 18:28:59
,wl-rdm,131,327120,0.0-8.12-0.12,1.0,130.0,,,,,,,[],,,,,,62.5,0.0,u,0.0,True,149.09999990463257,9.0,61.0,40.0,False,,230.67222918042194,[],"[768, 432]",ColorTask,35.0,13.0,,,HRV,HRV_0075,2022-11-30 18:28:59
,wl-rdm,132,329219,0.0-8.13-0.13,1.0,131.0,,,,,,,[],,,,,,73.6,0.0,u,0.0,True,756.5000002384186,46.0,61.0,40.0,False,,256.45585944954615,[],"[768, 432]",ColorTask,36.0,14.0,,,HRV,HRV_0075,2022-11-30 18:28:59
,wl-rdm,133,331453,0.0-8.14-0.14,1.0,132.0,,,,,,,[],,,,,,62.5,1.0,i,1.0,True,824.8999998569489,50.0,61.0,40.0,False,,329.75056018527494,[],"[768, 432]",ColorTask,37.0,15.0,,,HRV,HRV_0075,2022-11-30 18:28:59
,wl-rdm,134,333469,0.0-8.15-0.15,1.0,133.0,,,,,,,[],,,,,,87.9,1.0,i,1.0,True,723.9000000953674,44.0,61.0,40.0,False,,202.7706714898316,[],"[768, 432]",ColorTask,38.0,16.0,,,HRV,HRV_0075,2022-11-30 18:28:59
,wl-rdm,135,335636,0.0-8.16-0.16,1.0,134.0,,,,,,,[],,,,,,50.0,1.0,u,0.0,False,832.8000001907349,50.0,61.0,40.0,False,,255.39842513088163,[],"[768, 432]",ColorTask,37.0,17.0,,,HRV,HRV_0075,2022-11-30 18:28:59
,wl-rdm,136,337535,0.0-8.17-0.17,1.0,135.0,,,,,,,[],,,,,,50.0,1.0,i,1.0,True,511.0,31.0,61.0,40.0,False,,306.46103225564144,[],"[768, 432]",ColorTask,38.0,18.0,,,HRV,HRV_0075,2022-11-30 18:28:59
,wl-rdm,137,339435,0.0-8.18-0.18,1.0,136.0,,,,,,,[],,,,,,56.4,0.0,i,1.0,False,542.2000000476837,33.0,61.0,40.0,False,,282.4351065840642,[],"[768, 432]",ColorTask,37.0,19.0,,,HRV,HRV_0075,2022-11-30 18:28:59
,wl-rdm,138,341485,0.0-8.19-0.19,1.0,137.0,,,,,,,[],,,,,,56.4,1.0,i,1.0,True,725.5,44.0,61.0,40.0,False,,251.07800675195747,[],"[768, 432]",ColorTask,38.0,20.0,,,HRV,HRV_0075,2022-11-30 18:28:59
,wl-rdm,139,344169,0.0-8.20-0.20,1.0,138.0,,,,,,,[],,,,,,62.5,0.0,i,1.0,False,1345.2000000476837,81.0,61.0,40.0,False,,260.1023332316045,[],"[768, 432]",ColorTask,37.0,21.0,,,HRV,HRV_0075,2022-11-30 18:28:59
,wl-rdm,140,346168,0.0-8.21-0.21,1.0,139.0,,,,,,,[],,,,,,56.4,1.0,u,0.0,False,605.9999997615814,37.0,61.0,40.0,False,,307.8813342484102,[],"[768, 432]",ColorTask,36.0,22.0,,,HRV,HRV_0075,2022-11-30 18:28:59
,wl-rdm,141,348100,0.0-8.22-0.22,1.0,140.0,,,,,,,[],,,,,,87.9,1.0,i,1.0,True,640.2999999523163,39.0,61.0,40.0,False,,207.01663597941518,[],"[768, 432]",ColorTask,37.0,23.0,,,HRV,HRV_0075,2022-11-30 18:28:59
,wl-rdm,142,350500,0.0-8.23-0.23,1.0,141.0,,,,,,,[],,,,,,73.6,0.0,u,0.0,True,1075.9000000953674,65.0,61.0,40.0,False,,238.75404264902897,[],"[768, 432]",ColorTask,38.0,24.0,,,HRV,HRV_0075,2022-11-30 18:28:59
,wl-rdm,143,352616,0.0-8.24-0.24,1.0,142.0,,,,,,,[],,,,,,50.0,1.0,i,1.0,True,824.6000001430511,50.0,61.0,40.0,False,,211.87819474635648,[],"[768, 432]",ColorTask,39.0,25.0,,,HRV,HRV_0075,2022-11-30 18:28:59
,wl-rdm,144,354666,0.0-8.25-0.25,1.0,143.0,,,,,,,[],,,,,,53.2,0.0,i,1.0,False,675.0,41.0,61.0,40.0,False,,296.21363614753045,[],"[768, 432]",ColorTask,38.0,26.0,,,HRV,HRV_0075,2022-11-30 18:28:59
,wl-rdm,145,356883,0.0-8.26-0.26,1.0,144.0,,,,,,,[],,,,,,53.2,0.0,i,1.0,False,882.1000001430511,53.0,61.0,40.0,False,,259.58610570477254,[],"[768, 432]",ColorTask,37.0,27.0,,,HRV,HRV_0075,2022-11-30 18:28:59
,wl-rdm,146,358766,0.0-8.27-0.27,1.0,145.0,,,,,,,[],,,,,,56.4,0.0,u,0.0,True,523.0,32.0,61.0,40.0,False,,273.49833375033535,[],"[768, 432]",ColorTask,38.0,28.0,,,HRV,HRV_0075,2022-11-30 18:28:59
,wl-rdm,147,361065,0.0-8.28-0.28,1.0,146.0,,,,,,,[],,,,,,73.6,1.0,i,1.0,True,872.7999999523163,53.0,61.0,40.0,False,,339.96436876338726,[],"[768, 432]",ColorTask,39.0,29.0,,,HRV,HRV_0075,2022-11-30 18:28:59
,wl-rdm,148,363035,0.0-8.29-0.29,1.0,147.0,,,,,,,[],,,,,,53.2,0.0,i,1.0,False,543.4000000953674,33.0,61.0,40.0,False,,361.97491413807495,[],"[768, 432]",ColorTask,38.0,30.0,,,HRV,HRV_0075,2022-11-30 18:28:59
,wl-rdm,149,365065,0.0-8.30-0.30,1.0,148.0,,,,,,,[],,,,,,73.6,1.0,u,0.0,False,590.2000000476837,36.0,61.0,40.0,False,,360.6946365163699,[],"[768, 432]",ColorTask,37.0,31.0,,,HRV,HRV_0075,2022-11-30 18:28:59
,wl-rdm,150,367165,0.0-8.31-0.31,1.0,149.0,,,,,,,[],,,,,,53.2,1.0,i,1.0,True,808.5999999046326,49.0,61.0,40.0,False,,212.12791203315456,[],"[768, 432]",ColorTask,38.0,32.0,,,HRV,HRV_0075,2022-11-30 18:28:59
,wl-rdm,151,369414,0.0-8.32-0.32,1.0,150.0,,,,,,,[],,,,,,56.4,1.0,i,1.0,True,893.6000001430511,54.0,61.0,40.0,False,,271.67436677543816,[],"[768, 432]",ColorTask,39.0,33.0,,,HRV,HRV_0075,2022-11-30 18:28:59
,wl-rdm,152,371514,0.0-8.33-0.33,1.0,151.0,,,,,,,[],,,,,,62.5,0.0,i,1.0,False,630.7000000476837,38.0,61.0,40.0,False,,397.4505585496064,[],"[768, 432]",ColorTask,38.0,34.0,,,HRV,HRV_0075,2022-11-30 18:28:59
,wl-rdm,153,373630,0.0-8.34-0.34,1.0,152.0,,,,,,,[],,,,,,56.4,0.0,u,0.0,True,671.6000001430511,41.0,61.0,40.0,False,,352.74274768242185,[],"[768, 432]",ColorTask,39.0,35.0,,,HRV,HRV_0075,2022-11-30 18:28:59
,wl-rdm,154,375647,0.0-8.35-0.35,1.0,153.0,,,,,,,[],,,,,,56.4,1.0,i,1.0,True,666.9000000953674,40.0,61.0,40.0,False,,272.6519045752699,[],"[768, 432]",ColorTask,40.0,36.0,,,HRV,HRV_0075,2022-11-30 18:28:59
,wl-rdm,155,378179,0.0-8.36-0.36,1.0,154.0,,,,,,,[],,,,,,53.2,0.0,u,0.0,True,1155.5999999046326,70.0,61.0,40.0,False,,290.8152647575795,[],"[768, 432]",ColorTask,41.0,37.0,,,HRV,HRV_0075,2022-11-30 18:28:59
,wl-rdm,156,380713,0.0-8.37-0.37,1.0,155.0,,,,,,,[],,,,,,56.4,0.0,i,1.0,False,1228.7999999523163,74.0,61.0,40.0,False,,227.27032546875924,[],"[768, 432]",ColorTask,40.0,38.0,,,HRV,HRV_0075,2022-11-30 18:28:59
,wl-rdm,157,382562,0.0-8.38-0.38,1.0,156.0,,,,,,,[],,,,,,62.5,0.0,u,0.0,True,471.09999990463257,28.0,61.0,40.0,False,,308.81484112814394,[],"[768, 432]",ColorTask,41.0,39.0,,,HRV,HRV_0075,2022-11-30 18:28:59
,wl-rdm,158,384479,0.0-8.39-0.39,1.0,157.0,,,,,,,[],,,,,,56.4,0.0,u,0.0,True,599.7999999523163,36.0,61.0,40.0,False,,241.87200215286376,[],"[768, 432]",ColorTask,42.0,40.0,,,HRV,HRV_0075,2022-11-30 18:28:59
,wl-rdm,159,386495,0.0-8.40-0.40,1.0,158.0,,,,,,,[],,,,,,56.4,1.0,u,0.0,False,683.4000000953674,41.0,61.0,40.0,False,,252.23666207857934,[],"[768, 432]",ColorTask,41.0,41.0,,,HRV,HRV_0075,2022-11-30 18:28:59
,wl-rdm,160,388328,0.0-8.41-0.41,1.0,159.0,,,,,,,[],,,,,,87.9,0.0,i,1.0,False,449.60000014305115,27.0,61.0,40.0,False,,306.2523576150959,[],"[768, 432]",ColorTask,40.0,42.0,,,HRV,HRV_0075,2022-11-30 18:28:59
,wl-rdm,161,390128,0.0-8.42-0.42,1.0,160.0,,,,,,,[],,,,,,73.6,1.0,u,0.0,False,478.9999997615814,29.0,61.0,40.0,False,,243.11957117209823,[],"[768, 432]",ColorTask,39.0,43.0,,,HRV,HRV_0075,2022-11-30 18:28:59
,wl-rdm,162,392029,0.0-8.43-0.43,1.0,161.0,,,,,,,[],,,,,,56.4,1.0,i,1.0,True,547.1000001430511,33.0,61.0,40.0,False,,274.2035673360179,[],"[768, 432]",ColorTask,40.0,44.0,,,HRV,HRV_0075,2022-11-30 18:28:59
,wl-rdm,163,394128,0.0-8.44-0.44,1.0,162.0,,,,,,,[],,,,,,56.4,0.0,i,1.0,False,640.5,39.0,61.0,40.0,False,,397.5210284401412,[],"[768, 432]",ColorTask,39.0,45.0,,,HRV,HRV_0075,2022-11-30 18:28:59
,wl-rdm,164,395211,0.0-8.45-0.45,1.0,162.0,,,,,,,[],,,,,,56.4,1.0,u,,,482.40000009536743,0.0,61.0,40.0,True,too_early ,346.72524989496924,[],"[768, 432]",ColorTask,38.0,46.0,,,HRV,HRV_0075,2022-11-30 18:28:59
,wl-rdm,165,397144,0.0-8.46-0.46,1.0,163.0,,,,,,,[],,,,,,50.0,0.0,u,0.0,True,574.3999998569489,35.0,61.0,40.0,False,,269.9977738603944,[],"[768, 432]",ColorTask,39.0,47.0,,,HRV,HRV_0075,2022-11-30 18:28:59
,wl-rdm,166,399145,0.0-8.47-0.47,1.0,164.0,,,,,,,[],,,,,,62.5,1.0,u,0.0,False,713.2999997138977,43.0,61.0,40.0,False,,203.55813848068166,[],"[768, 432]",ColorTask,38.0,48.0,,,HRV,HRV_0075,2022-11-30 18:28:59
,wl-rdm,167,401061,0.0-8.48-0.48,1.0,165.0,,,,,,,[],,,,,,73.6,1.0,i,1.0,True,533.4000000953674,32.0,61.0,40.0,False,,314.6017784496606,[],"[768, 432]",ColorTask,39.0,49.0,,,HRV,HRV_0075,2022-11-30 18:28:59
,wl-rdm,168,403010,0.0-8.49-0.49,1.0,166.0,,,,,,,[],,,,,,53.2,1.0,i,1.0,True,542.900000333786,33.0,61.0,40.0,False,,340.73593987411516,[],"[768, 432]",ColorTask,40.0,50.0,,,HRV,HRV_0075,2022-11-30 18:28:59
,wl-rdm,169,405094,0.0-8.50-0.50,1.0,167.0,,,,,,,[],,,,,,62.5,1.0,i,1.0,True,656.2999999523163,40.0,61.0,40.0,False,,350.1582545907577,[],"[768, 432]",ColorTask,41.0,51.0,,,HRV,HRV_0075,2022-11-30 18:28:59
,wl-rdm,170,406960,0.0-8.51-0.51,1.0,168.0,,,,,,,[],,,,,,73.6,1.0,i,1.0,True,531.8999998569489,32.0,61.0,40.0,False,,260.03820596732294,[],"[768, 432]",ColorTask,42.0,52.0,,,HRV,HRV_0075,2022-11-30 18:28:59
,wl-rdm,171,408876,0.0-8.52-0.52,1.0,169.0,,,,,,,[],,,,,,87.9,1.0,i,1.0,True,508.30000019073486,31.0,61.0,40.0,False,,319.33042598457234,[],"[768, 432]",ColorTask,43.0,53.0,,,HRV,HRV_0075,2022-11-30 18:28:59
,wl-rdm,172,411076,0.0-8.53-0.53,1.0,170.0,,,,,,,[],,,,,,56.4,0.0,u,0.0,True,890.4000000953674,54.0,61.0,40.0,False,,235.7248198595162,[],"[768, 432]",ColorTask,44.0,54.0,,,HRV,HRV_0075,2022-11-30 18:28:59
,wl-rdm,173,413259,0.0-8.54-0.54,1.0,171.0,,,,,,,[],,,,,,73.6,0.0,u,0.0,True,856.7999999523163,52.0,61.0,40.0,False,,244.84037609146193,[],"[768, 432]",ColorTask,45.0,55.0,,,HRV,HRV_0075,2022-11-30 18:28:59
,wl-rdm,174,415242,0.0-8.55-0.55,1.0,172.0,,,,,,,[],,,,,,62.5,0.0,u,0.0,True,612.2999999523163,37.0,61.0,40.0,False,,283.77753880358944,[],"[768, 432]",ColorTask,46.0,56.0,,,HRV,HRV_0075,2022-11-30 18:28:59
,wl-rdm,175,417592,0.0-8.56-0.56,1.0,173.0,,,,,,,[],,,,,,53.2,1.0,u,0.0,False,994.900000333786,60.0,61.0,40.0,False,,270.45951389744215,[],"[768, 432]",ColorTask,45.0,57.0,,,HRV,HRV_0075,2022-11-30 18:28:59
,wl-rdm,176,419444,0.0-8.57-0.57,1.0,174.0,,,,,,,[],,,,,,62.5,0.0,i,1.0,False,548.5,33.0,61.0,40.0,False,,218.14601000861055,[],"[768, 432]",ColorTask,44.0,58.0,,,HRV,HRV_0075,2022-11-30 18:28:59
,wl-rdm,177,421258,0.0-8.58-0.58,1.0,175.0,,,,,,,[],,,,,,87.9,0.0,u,0.0,True,515.4000000953674,31.0,61.0,40.0,False,,229.02306692012752,[],"[768, 432]",ColorTask,45.0,59.0,,,HRV,HRV_0075,2022-11-30 18:28:59
,wl-rdm,178,423358,0.0-8.59-0.59,1.0,176.0,,,,,,,[],,,,,,62.5,1.0,u,0.0,False,707.2999999523163,43.0,61.0,40.0,False,,317.0765038301828,[],"[768, 432]",ColorTask,44.0,60.0,,,HRV,HRV_0075,2022-11-30 18:28:59
,wl-rdm,179,425124,0.0-8.60-0.60,1.0,177.0,,,,,,,[],,,,,,73.6,0.0,i,1.0,False,389.9999997615814,24.0,61.0,40.0,False,,291.3918230879352,[],"[768, 432]",ColorTask,43.0,61.0,,,HRV,HRV_0075,2022-11-30 18:28:59
,wl-rdm,180,427057,0.0-8.61-0.61,1.0,178.0,,,,,,,[],,,,,,53.2,1.0,u,0.0,False,473.7000000476837,29.0,61.0,40.0,False,,385.8538859991312,[],"[768, 432]",ColorTask,42.0,62.0,,,HRV,HRV_0075,2022-11-30 18:28:59
,wl-rdm,181,428974,0.0-8.62-0.62,1.0,179.0,,,,,,,[],,,,,,62.5,1.0,i,1.0,True,577.0,35.0,61.0,40.0,False,,266.3917229646137,[],"[768, 432]",ColorTask,43.0,63.0,,,HRV,HRV_0075,2022-11-30 18:28:59
,wl-rdm,182,430823,0.0-8.63-0.63,1.0,180.0,,,,,,,[],,,,,,53.2,1.0,i,1.0,True,505.40000009536743,31.0,61.0,40.0,False,,254.5076150125314,[],"[768, 432]",ColorTask,44.0,64.0,,,HRV,HRV_0075,2022-11-30 18:28:59
,wl-rdm,183,433123,0.0-8.64-0.64,1.0,181.0,,,,,,,[],,,,,,62.5,1.0,u,0.0,False,978.4999997615814,59.0,61.0,40.0,False,,237.65468667932703,[],"[768, 432]",ColorTask,43.0,65.0,,,HRV,HRV_0075,2022-11-30 18:28:59
,wl-rdm,184,434939,0.0-8.65-0.65,1.0,182.0,,,,,,,[],,,,,,87.9,0.0,i,1.0,False,424.69999980926514,26.0,61.0,40.0,False,,301.16156140100907,[],"[768, 432]",ColorTask,42.0,66.0,,,HRV,HRV_0075,2022-11-30 18:28:59
,wl-rdm,185,437341,0.0-8.66-0.66,1.0,183.0,,,,,,,[],,,,,,62.5,1.0,i,1.0,True,947.1000001430511,57.0,61.0,40.0,False,,398.6256856096667,[],"[768, 432]",ColorTask,43.0,67.0,,,HRV,HRV_0075,2022-11-30 18:28:59
,wl-rdm,186,439239,0.0-8.67-0.67,1.0,184.0,,,,,,,[],,,,,,53.2,1.0,i,1.0,True,614.7999997138977,37.0,61.0,40.0,False,,232.73931251761744,[],"[768, 432]",ColorTask,44.0,68.0,,,HRV,HRV_0075,2022-11-30 18:28:59
,wl-rdm,187,441255,0.0-8.68-0.68,1.0,185.0,,,,,,,[],,,,,,50.0,1.0,i,1.0,True,572.1000001430511,35.0,61.0,40.0,False,,358.9286500021325,[],"[768, 432]",ColorTask,45.0,69.0,,,HRV,HRV_0075,2022-11-30 18:28:59
,wl-rdm,188,443372,0.0-8.69-0.69,1.0,186.0,,,,,,,[],,,,,,50.0,0.0,i,1.0,False,621.8000001907349,38.0,61.0,40.0,False,,386.87271433370705,[],"[768, 432]",ColorTask,44.0,70.0,,,HRV,HRV_0075,2022-11-30 18:28:59
,wl-rdm,189,445455,0.0-8.70-0.70,1.0,187.0,,,,,,,[],,,,,,62.5,0.0,u,0.0,True,623.0,38.0,61.0,40.0,False,,390.50664052762977,[],"[768, 432]",ColorTask,45.0,71.0,,,HRV,HRV_0075,2022-11-30 18:28:59
,wl-rdm,190,447871,0.0-8.71-0.71,1.0,188.0,,,,,,,[],,,,,,56.4,1.0,u,0.0,False,1042.0,63.0,61.0,40.0,False,,289.77815905514007,[],"[768, 432]",ColorTask,44.0,72.0,,,HRV,HRV_0075,2022-11-30 18:28:59
,wl-rdm,191,450121,0.0-8.72-0.72,1.0,189.0,,,,,,,[],,,,,,87.9,0.0,u,0.0,True,906.2000000476837,55.0,61.0,40.0,False,,278.26032513916687,[],"[768, 432]",ColorTask,45.0,73.0,,,HRV,HRV_0075,2022-11-30 18:28:59
,wl-rdm,192,452237,0.0-8.73-0.73,1.0,190.0,,,,,,,[],,,,,,87.9,0.0,u,0.0,True,709.0,43.0,61.0,40.0,False,,327.36845972913636,[],"[768, 432]",ColorTask,46.0,74.0,,,HRV,HRV_0075,2022-11-30 18:28:59
,wl-rdm,193,454254,0.0-8.74-0.74,1.0,191.0,,,,,,,[],,,,,,87.9,1.0,i,1.0,True,660.2000000476837,40.0,61.0,40.0,False,,281.68650857487233,[],"[768, 432]",ColorTask,47.0,75.0,,,HRV,HRV_0075,2022-11-30 18:28:59
,wl-rdm,194,456470,0.0-8.75-0.75,1.0,192.0,,,,,,,[],,,,,,53.2,0.0,i,1.0,False,821.9000000953674,50.0,61.0,40.0,False,,312.3609229782611,[],"[768, 432]",ColorTask,46.0,76.0,,,HRV,HRV_0075,2022-11-30 18:28:59
,wl-rdm,195,458337,0.0-8.76-0.76,1.0,193.0,,,,,,,[],,,,,,53.2,0.0,u,0.0,True,440.09999990463257,27.0,61.0,40.0,False,,350.24681092753485,[],"[768, 432]",ColorTask,47.0,77.0,,,HRV,HRV_0075,2022-11-30 18:28:59
,wl-rdm,196,460571,0.0-8.77-0.77,1.0,194.0,,,,,,,[],,,,,,56.4,0.0,i,1.0,False,831.4000000953674,50.0,61.0,40.0,False,,327.41687738856814,[],"[768, 432]",ColorTask,46.0,78.0,,,HRV,HRV_0075,2022-11-30 18:28:59
,wl-rdm,197,462573,0.0-8.78-0.78,1.0,195.0,,,,,,,[],,,,,,50.0,1.0,u,0.0,False,574.4999997615814,35.0,61.0,40.0,False,,339.2934301315574,[],"[768, 432]",ColorTask,45.0,79.0,,,HRV,HRV_0075,2022-11-30 18:28:59
,wl-rdm,198,464519,0.0-8.79-0.79,1.0,196.0,,,,,,,[],,,,,,87.9,0.0,i,1.0,False,523.2000000476837,32.0,61.0,40.0,False,,358.971176725609,[],"[768, 432]",ColorTask,44.0,80.0,,,HRV,HRV_0075,2022-11-30 18:28:59
,wl-rdm,199,466269,0.0-8.80-0.80,1.0,197.0,,,,,,,[],,,,,,87.9,0.0,u,0.0,True,423.7000000476837,26.0,61.0,40.0,False,,263.9417037026605,[],"[768, 432]",ColorTask,45.0,81.0,,,HRV,HRV_0075,2022-11-30 18:28:59
,wl-rdm,200,468518,0.0-8.81-0.81,1.0,198.0,,,,,,,[],,,,,,87.9,1.0,i,1.0,True,858.8999998569489,52.0,61.0,40.0,False,,308.0951442827128,[],"[768, 432]",ColorTask,46.0,82.0,,,HRV,HRV_0075,2022-11-30 18:28:59
,wl-rdm,201,470451,0.0-8.82-0.82,1.0,199.0,,,,,,,[],,,,,,73.6,1.0,i,1.0,True,593.3999998569489,36.0,61.0,40.0,False,,258.60864350741093,[],"[768, 432]",ColorTask,47.0,83.0,,,HRV,HRV_0075,2022-11-30 18:28:59
,wl-rdm,202,472318,0.0-8.83-0.83,1.0,200.0,,,,,,,[],,,,,,87.9,1.0,i,1.0,True,531.6999998092651,32.0,61.0,40.0,False,,264.3400409584042,[],"[768, 432]",ColorTask,48.0,84.0,,,HRV,HRV_0075,2022-11-30 18:28:59
,wl-rdm,203,474218,0.0-8.84-0.84,1.0,201.0,,,,,,,[],,,,,,73.6,1.0,i,1.0,True,540.2999997138977,33.0,61.0,40.0,False,,271.19396347106147,[],"[768, 432]",ColorTask,49.0,85.0,,,HRV,HRV_0075,2022-11-30 18:28:59
,wl-rdm,204,476117,0.0-8.85-0.85,1.0,202.0,,,,,,,[],,,,,,87.9,1.0,i,1.0,True,480.0,29.0,61.0,40.0,False,,337.6861167029159,[],"[768, 432]",ColorTask,50.0,86.0,,,HRV,HRV_0075,2022-11-30 18:28:59
,wl-rdm,205,478052,0.0-8.86-0.86,1.0,203.0,,,,,,,[],,,,,,50.0,0.0,i,1.0,False,545.5,33.0,61.0,40.0,False,,304.3265516781336,[],"[768, 432]",ColorTask,49.0,87.0,,,HRV,HRV_0075,2022-11-30 18:28:59
,wl-rdm,206,479917,0.0-8.87-0.87,1.0,204.0,,,,,,,[],,,,,,62.5,1.0,u,0.0,False,575.6999998092651,35.0,61.0,40.0,False,,200.2303308911224,[],"[768, 432]",ColorTask,48.0,88.0,,,HRV,HRV_0075,2022-11-30 18:28:59
,wl-rdm,207,481833,0.0-8.88-0.88,1.0,205.0,,,,,,,[],,,,,,53.2,0.0,i,1.0,False,607.8000001907349,37.0,61.0,40.0,False,,237.4660966140097,[],"[768, 432]",ColorTask,47.0,89.0,,,HRV,HRV_0075,2022-11-30 18:28:59
,wl-rdm,208,484269,0.0-8.89-0.89,1.0,206.0,,,,,,,[],,,,,,50.0,0.0,i,1.0,False,1097.0,66.0,61.0,40.0,False,,277.5644331000427,[],"[768, 432]",ColorTask,46.0,90.0,,,HRV,HRV_0075,2022-11-30 18:28:59
,wl-rdm,209,486183,0.0-8.90-0.90,1.0,207.0,,,,,,,[],,,,,,56.4,1.0,u,0.0,False,581.5000002384186,35.0,61.0,40.0,False,,269.87422117942907,[],"[768, 432]",ColorTask,45.0,91.0,,,HRV,HRV_0075,2022-11-30 18:28:59
,wl-rdm,210,488382,0.0-8.91-0.91,1.0,208.0,,,,,,,[],,,,,,53.2,0.0,i,1.0,False,794.3000001907349,48.0,61.0,40.0,False,,349.7637308599716,[],"[768, 432]",ColorTask,44.0,92.0,,,HRV,HRV_0075,2022-11-30 18:28:59
,wl-rdm,211,490399,0.0-8.92-0.92,1.0,209.0,,,,,,,[],,,,,,50.0,0.0,u,0.0,True,661.4000000953674,40.0,61.0,40.0,False,,281.68832035024053,[],"[768, 432]",ColorTask,45.0,93.0,,,HRV,HRV_0075,2022-11-30 18:28:59
,wl-rdm,212,493015,0.0-8.93-0.93,1.0,210.0,,,,,,,[],,,,,,73.6,0.0,u,0.0,True,1288.3000001907349,78.0,61.0,40.0,False,,247.57927329149538,[],"[768, 432]",ColorTask,46.0,94.0,,,HRV,HRV_0075,2022-11-30 18:28:59
,wl-rdm,213,495515,0.0-8.94-0.94,1.0,211.0,,,,,,,[],,,,,,50.0,0.0,u,0.0,True,1194.5,72.0,61.0,40.0,False,,239.59242084034526,[],"[768, 432]",ColorTask,47.0,95.0,,,HRV,HRV_0075,2022-11-30 18:28:59
,wl-rdm,214,497981,0.0-8.95-0.95,1.0,212.0,,,,,,,[],,,,,,50.0,1.0,u,0.0,False,1026.0,62.0,61.0,40.0,False,,350.80540256541406,[],"[768, 432]",ColorTask,46.0,96.0,,,HRV,HRV_0075,2022-11-30 18:28:59
,wl-rdm,215,499831,0.0-8.96-0.96,1.0,213.0,,,,,,,[],,,,,,62.5,0.0,i,1.0,False,523.0000002384186,32.0,61.0,40.0,False,,245.3069230681407,[],"[768, 432]",ColorTask,45.0,97.0,,,HRV,HRV_0075,2022-11-30 18:28:59
,wl-rdm,216,501764,0.0-8.97-0.97,1.0,214.0,,,,,,,[],,,,,,87.9,0.0,u,0.0,True,514.7999999523163,31.0,61.0,40.0,False,,339.9918078315525,[],"[768, 432]",ColorTask,46.0,98.0,,,HRV,HRV_0075,2022-11-30 18:28:59
,wl-rdm,217,504064,0.0-8.98-0.98,1.0,215.0,,,,,,,[],,,,,,50.0,0.0,i,1.0,False,910.4000000953674,55.0,61.0,40.0,False,,312.3506208763786,[],"[768, 432]",ColorTask,45.0,99.0,,,HRV,HRV_0075,2022-11-30 18:28:59
,wl-rdm,218,505963,0.0-8.99-0.99,1.0,216.0,,,,,,,[],,,,,,73.6,1.0,u,0.0,False,572.6999998092651,35.0,61.0,40.0,False,,239.2121593879234,[],"[768, 432]",ColorTask,44.0,100.0,,,HRV,HRV_0075,2022-11-30 18:28:59
,wl-rdm,219,508013,0.0-8.100-0.100,1.0,217.0,,,,,,,[],,,,,,62.5,1.0,i,1.0,True,770.3000001907349,47.0,61.0,40.0,False,,201.55648272468926,[],"[768, 432]",ColorTask,45.0,101.0,,,HRV,HRV_0075,2022-11-30 18:28:59
,wl-rdm,220,510329,0.0-8.101-0.101,1.0,218.0,,,,,,,[],,,,,,53.2,0.0,u,0.0,True,1026.1000001430511,62.0,61.0,40.0,False,,212.0097033359511,[],"[768, 432]",ColorTask,46.0,102.0,,,HRV,HRV_0075,2022-11-30 18:28:59
,wl-rdm,221,512563,0.0-8.102-0.102,1.0,219.0,,,,,,,[],,,,,,56.4,0.0,i,1.0,False,776.0000002384186,47.0,61.0,40.0,False,,399.5560950738774,[],"[768, 432]",ColorTask,45.0,103.0,,,HRV,HRV_0075,2022-11-30 18:28:59
,wl-rdm,222,514446,0.0-8.103-0.103,1.0,220.0,,,,,,,[],,,,,,73.6,0.0,u,0.0,True,573.0,35.0,61.0,40.0,False,,223.3340844753051,[],"[768, 432]",ColorTask,46.0,104.0,,,HRV,HRV_0075,2022-11-30 18:28:59
,wl-rdm,223,516562,0.0-8.104-0.104,1.0,221.0,,,,,,,[],,,,,,50.0,1.0,i,1.0,True,792.7000000476837,48.0,61.0,40.0,False,,240.7727569247233,[],"[768, 432]",ColorTask,47.0,105.0,,,HRV,HRV_0075,2022-11-30 18:28:59
,wl-rdm,224,518545,0.0-8.105-0.105,1.0,222.0,,,,,,,[],,,,,,87.9,1.0,i,1.0,True,640.0,39.0,61.0,40.0,False,,271.84461527252677,[],"[768, 432]",ColorTask,48.0,106.0,,,HRV,HRV_0075,2022-11-30 18:28:59
,wl-rdm,225,520713,0.0-8.106-0.106,1.0,223.0,,,,,,,[],,,,,,62.5,0.0,u,0.0,True,821.3000001907349,50.0,61.0,40.0,False,,263.363850328052,[],"[768, 432]",ColorTask,49.0,107.0,,,HRV,HRV_0075,2022-11-30 18:28:59
,wl-rdm,226,522711,0.0-8.107-0.107,1.0,224.0,,,,,,,[],,,,,,87.9,1.0,i,1.0,True,706.8999998569489,43.0,61.0,40.0,False,,208.9033319734073,[],"[768, 432]",ColorTask,50.0,108.0,,,HRV,HRV_0075,2022-11-30 18:28:59
,wl-rdm,227,524844,0.0-8.108-0.108,1.0,225.0,,,,,,,[],,,,,,50.0,0.0,u,0.0,True,810.8999998569489,49.0,61.0,40.0,False,,242.9679419630288,[],"[768, 432]",ColorTask,51.0,109.0,,,HRV,HRV_0075,2022-11-30 18:28:59
,wl-html-button-response,228,529230,0.0-9.0-0.0,,,,,,,,,,4375.599999904633,,0,,,,,,,,,,,,,,,,,,,,<h3>End of this session. Thank you!</h3><br>,['Close window'],HRV,HRV_0075,2022-11-30 18:28:59
