trialN,stimuli,trialStartTime,trialStartTime_UNIX,stimulus1,stimulus2,stimulus1Bid,stimulus2Bid,delta,selected,rt,rt_UNIX,rt_perfnow,receivedResponse,rsp,trialEndTime,trialDuration,trialEndTime_UNIX,trialDuration_UNIX,exp,subjectId,date
0,"[{'imgObject': {}, 'id': 'blackbeanswithrice', 'src': '/static/foodstim60/blackbeanswithrice.jpg', 'key': 'u', 'origWidth': 410, 'origHeight': 410, 'width': 410, 'height': 410, 'widthPercent': 0.45, 'rescaleHeight': False, 'trialN': 0, 'loaded': True, 'loadedTime': 3741.399999856949, 'positionName': 'LEFT', 'positionCoords': [327.28, 227], 'bid': 6.17}, {'imgObject': {}, 'id': 'apple slices', 'src': '/static/foodstim60/apple slices.jpg', 'key': 'i', 'origWidth': 409, 'origHeight': 410, 'width': 409, 'height': 410, 'widthPercent': 0.45, 'rescaleHeight': False, 'trialN': 0, 'loaded': True, 'loadedTime': 3750.699999809265, 'positionName': 'RIGHT', 'positionCoords': [798.72, 227], 'bid': 5.62}]",4120.0,1669832116985,blackbeanswithrice,apple slices,6.17,5.62,-0.5499999999999998,apple slices,1774.3999998569489,1776,1776.1999998092651,True,i,6401.399999856949,2281.399999856949,1669832119266,2281,HRV,HRV_0075,2022-11-30 18:20:02
1,"[{'imgObject': {}, 'id': 'shreddedwheatwithmilk', 'src': '/static/foodstim60/shreddedwheatwithmilk.jpg', 'key': 'u', 'origWidth': 410, 'origHeight': 410, 'width': 410, 'height': 410, 'widthPercent': 0.45, 'rescaleHeight': False, 'trialN': 1, 'loaded': True, 'loadedTime': 3758.399999856949, 'positionName': 'LEFT', 'positionCoords': [327.28, 227], 'bid': 9.08}, {'imgObject': {}, 'id': 'burrito', 'src': '/static/foodstim60/burrito.jpg', 'key': 'i', 'origWidth': 410, 'origHeight': 410, 'width': 410, 'height': 410, 'widthPercent': 0.45, 'rescaleHeight': False, 'trialN': 1, 'loaded': True, 'loadedTime': 3771.0999999046326, 'positionName': 'RIGHT', 'positionCoords': [798.72, 227], 'bid': 8.73}]",6402.199999809265,1669832119267,shreddedwheatwithmilk,burrito,9.08,8.73,-0.34999999999999964,burrito,1348.6000001430511,1350,1349.6000001430511,True,i,8265.0,1862.8000001907349,1669832121130,1863,HRV,HRV_0075,2022-11-30 18:20:02
2,"[{'imgObject': {}, 'id': 'burger', 'src': '/static/foodstim60/burger.jpg', 'key': 'u', 'origWidth': 409, 'origHeight': 409, 'width': 409, 'height': 409, 'widthPercent': 0.45, 'rescaleHeight': False, 'trialN': 2, 'loaded': True, 'loadedTime': 3772.5999999046326, 'positionName': 'LEFT', 'positionCoords': [328.28, 227.5], 'bid': 7.16}, {'imgObject': {}, 'id': 'seaweed', 'src': '/static/foodstim60/seaweed.jpg', 'key': 'i', 'origWidth': 410, 'origHeight': 410, 'width': 410, 'height': 410, 'widthPercent': 0.45, 'rescaleHeight': False, 'trialN': 2, 'loaded': True, 'loadedTime': 3788.5, 'positionName': 'RIGHT', 'positionCoords': [798.72, 227], 'bid': 7.76}]",8265.699999809265,1669832121131,burger,seaweed,7.16,7.76,0.5999999999999996,seaweed,1697.3000001907349,1698,1698.1000001430511,True,i,10471.199999809265,2205.5,1669832123336,2205,HRV,HRV_0075,2022-11-30 18:20:02
3,"[{'imgObject': {}, 'id': 'granola w milk', 'src': '/static/foodstim60/granola w milk.jpg', 'key': 'u', 'origWidth': 410, 'origHeight': 410, 'width': 410, 'height': 410, 'widthPercent': 0.45, 'rescaleHeight': False, 'trialN': 3, 'loaded': True, 'loadedTime': 3788.699999809265, 'positionName': 'LEFT', 'positionCoords': [327.28, 227], 'bid': 6.92}, {'imgObject': {}, 'id': 'Grapes', 'src': '/static/foodstim60/Grapes.jpg', 'key': 'i', 'origWidth': 411, 'origHeight': 411, 'width': 411, 'height': 411, 'widthPercent': 0.45, 'rescaleHeight': False, 'trialN': 3, 'loaded': True, 'loadedTime': 3801.5999999046326, 'positionName': 'RIGHT', 'positionCoords': [798.72, 226.5], 'bid': 6.4}]",10471.899999856949,1669832123337,granola w milk,Grapes,6.92,6.4,-0.5199999999999996,Grapes,843.9000000953674,845,844.7000000476837,True,i,11830.0,1358.1000001430511,1669832124695,1358,HRV,HRV_0075,2022-11-30 18:20:02
4,"[{'imgObject': {}, 'id': 'hotdog w must', 'src': '/static/foodstim60/hotdog w must.jpg', 'key': 'u', 'origWidth': 409, 'origHeight': 409, 'width': 409, 'height': 409, 'widthPercent': 0.45, 'rescaleHeight': False, 'trialN': 4, 'loaded': True, 'loadedTime': 3809.699999809265, 'positionName': 'LEFT', 'positionCoords': [328.28, 227.5], 'bid': 6.0600000000000005}, {'imgObject': {}, 'id': 'roastedpotatoes', 'src': '/static/foodstim60/roastedpotatoes.jpg', 'key': 'i', 'origWidth': 409, 'origHeight': 410, 'width': 409, 'height': 410, 'widthPercent': 0.45, 'rescaleHeight': False, 'trialN': 4, 'loaded': True, 'loadedTime': 3815.2999999523163, 'positionName': 'RIGHT', 'positionCoords': [798.72, 227], 'bid': 6.05}]",11830.299999952316,1669832124695,hotdog w must,roastedpotatoes,6.0600000000000005,6.05,-0.010000000000000675,roastedpotatoes,1633.2999999523163,1634,1634.0,True,i,13973.799999952316,2143.5,1669832126839,2144,HRV,HRV_0075,2022-11-30 18:20:02
5,"[{'imgObject': {}, 'id': 'burrito', 'src': '/static/foodstim60/burrito.jpg', 'key': 'u', 'origWidth': 410, 'origHeight': 410, 'width': 410, 'height': 410, 'widthPercent': 0.45, 'rescaleHeight': False, 'trialN': 5, 'loaded': True, 'loadedTime': 3766.5, 'positionName': 'LEFT', 'positionCoords': [327.28, 227], 'bid': 8.73}, {'imgObject': {}, 'id': 'veggieswithdip', 'src': '/static/foodstim60/veggieswithdip.jpg', 'key': 'i', 'origWidth': 409, 'origHeight': 409, 'width': 409, 'height': 409, 'widthPercent': 0.45, 'rescaleHeight': False, 'trialN': 5, 'loaded': True, 'loadedTime': 3818, 'positionName': 'RIGHT', 'positionCoords': [798.72, 227.5], 'bid': 8.46}]",13974.299999952316,1669832126839,burrito,veggieswithdip,8.73,8.46,-0.2699999999999996,veggieswithdip,786.0999999046326,787,786.7999999523163,True,i,15276.199999809265,1301.8999998569489,1669832128141,1302,HRV,HRV_0075,2022-11-30 18:20:02
6,"[{'imgObject': {}, 'id': 'grilled chicken strips', 'src': '/static/foodstim60/grilled chicken strips.jpg', 'key': 'u', 'origWidth': 410, 'origHeight': 411, 'width': 410, 'height': 411, 'widthPercent': 0.45, 'rescaleHeight': False, 'trialN': 6, 'loaded': True, 'loadedTime': 3833.5, 'positionName': 'LEFT', 'positionCoords': [327.28, 226.5], 'bid': 9.86}, {'imgObject': {}, 'id': 'steak', 'src': '/static/foodstim60/steak.jpg', 'key': 'i', 'origWidth': 410, 'origHeight': 410, 'width': 410, 'height': 410, 'widthPercent': 0.45, 'rescaleHeight': False, 'trialN': 6, 'loaded': True, 'loadedTime': 3834, 'positionName': 'RIGHT', 'positionCoords': [798.72, 227], 'bid': 9.84}]",15276.599999904633,1669832128141,grilled chicken strips,steak,9.86,9.84,-0.019999999999999574,steak,1326.7000000476837,1328,1327.4000000953674,True,i,17116.699999809265,1840.0999999046326,1669832129982,1841,HRV,HRV_0075,2022-11-30 18:20:02
7,"[{'imgObject': {}, 'id': 'eggsalad', 'src': '/static/foodstim60/eggsalad.jpg', 'key': 'u', 'origWidth': 410, 'origHeight': 409, 'width': 410, 'height': 409, 'widthPercent': 0.45, 'rescaleHeight': False, 'trialN': 7, 'loaded': True, 'loadedTime': 3842.7999999523163, 'positionName': 'LEFT', 'positionCoords': [327.28, 227.5], 'bid': 9.47}, {'imgObject': {}, 'id': 'turkeysandwich', 'src': '/static/foodstim60/turkeysandwich.jpg', 'key': 'i', 'origWidth': 409, 'origHeight': 409, 'width': 409, 'height': 409, 'widthPercent': 0.45, 'rescaleHeight': False, 'trialN': 7, 'loaded': True, 'loadedTime': 3863.699999809265, 'positionName': 'RIGHT', 'positionCoords': [798.72, 227.5], 'bid': 9.62}]",17117.199999809265,1669832129982,eggsalad,turkeysandwich,9.47,9.62,0.14999999999999858,eggsalad,1389.6000001430511,1391,1390.6000001430511,True,u,19018.0,1900.8000001907349,1669832131883,1901,HRV,HRV_0075,2022-11-30 18:20:02
8,"[{'imgObject': {}, 'id': 'tacos', 'src': '/static/foodstim60/tacos.jpg', 'key': 'u', 'origWidth': 411, 'origHeight': 411, 'width': 411, 'height': 411, 'widthPercent': 0.45, 'rescaleHeight': False, 'trialN': 8, 'loaded': True, 'loadedTime': 3873.699999809265, 'positionName': 'LEFT', 'positionCoords': [326.28, 226.5], 'bid': 6.71}, {'imgObject': {}, 'id': 'eggs', 'src': '/static/foodstim60/eggs.jpg', 'key': 'i', 'origWidth': 409, 'origHeight': 409, 'width': 409, 'height': 409, 'widthPercent': 0.45, 'rescaleHeight': False, 'trialN': 8, 'loaded': True, 'loadedTime': 3880.2999999523163, 'positionName': 'RIGHT', 'positionCoords': [798.72, 227.5], 'bid': 9.75}]",19018.599999904633,1669832131883,tacos,eggs,6.71,9.75,3.04,eggs,787.7000000476837,789,788.5,True,i,20314.299999952316,1295.7000000476837,1669832133179,1296,HRV,HRV_0075,2022-11-30 18:20:02
9,"[{'imgObject': {}, 'id': 'apple slices', 'src': '/static/foodstim60/apple slices.jpg', 'key': 'u', 'origWidth': 409, 'origHeight': 410, 'width': 409, 'height': 410, 'widthPercent': 0.45, 'rescaleHeight': False, 'trialN': 9, 'loaded': True, 'loadedTime': 3750.7999999523163, 'positionName': 'LEFT', 'positionCoords': [328.28, 227], 'bid': 5.62}, {'imgObject': {}, 'id': 'bagel and cc', 'src': '/static/foodstim60/bagel and cc.jpg', 'key': 'i', 'origWidth': 410, 'origHeight': 410, 'width': 410, 'height': 410, 'widthPercent': 0.45, 'rescaleHeight': False, 'trialN': 9, 'loaded': True, 'loadedTime': 3888.5, 'positionName': 'RIGHT', 'positionCoords': [798.72, 227], 'bid': 5.26}]",20315.099999904633,1669832133180,apple slices,bagel and cc,5.62,5.26,-0.3600000000000003,apple slices,1105.2999999523163,1106,1106.0999999046326,True,u,21935.199999809265,1620.0999999046326,1669832134800,1620,HRV,HRV_0075,2022-11-30 18:20:02
10,"[{'imgObject': {}, 'id': 'tacos', 'src': '/static/foodstim60/tacos.jpg', 'key': 'u', 'origWidth': 411, 'origHeight': 411, 'width': 411, 'height': 411, 'widthPercent': 0.45, 'rescaleHeight': False, 'trialN': 10, 'loaded': True, 'loadedTime': 3873.2999999523163, 'positionName': 'LEFT', 'positionCoords': [326.28, 226.5], 'bid': 6.71}, {'imgObject': {}, 'id': 'raisin bran w milk', 'src': '/static/foodstim60/raisin bran w milk.jpg', 'key': 'i', 'origWidth': 411, 'origHeight': 411, 'width': 411, 'height': 411, 'widthPercent': 0.45, 'rescaleHeight': False, 'trialN': 10, 'loaded': True, 'loadedTime': 3889.0999999046326, 'positionName': 'RIGHT', 'positionCoords': [798.72, 226.5], 'bid': 6.91}]",21935.799999952316,1669832134801,tacos,raisin bran w milk,6.71,6.91,0.20000000000000018,tacos,1144.5999999046326,1145,1145.3999998569489,True,u,23582.5,1646.7000000476837,1669832136447,1646,HRV,HRV_0075,2022-11-30 18:20:02
11,"[{'imgObject': {}, 'id': 'edamame', 'src': '/static/foodstim60/edamame.jpg', 'key': 'u', 'origWidth': 409, 'origHeight': 410, 'width': 409, 'height': 410, 'widthPercent': 0.45, 'rescaleHeight': False, 'trialN': 11, 'loaded': True, 'loadedTime': 3899.5, 'positionName': 'LEFT', 'positionCoords': [328.28, 227], 'bid': 6.5600000000000005}, {'imgObject': {}, 'id': 'bagel plain', 'src': '/static/foodstim60/bagel plain.jpg', 'key': 'i', 'origWidth': 410, 'origHeight': 410, 'width': 410, 'height': 410, 'widthPercent': 0.45, 'rescaleHeight': False, 'trialN': 11, 'loaded': True, 'loadedTime': 3910.0999999046326, 'positionName': 'RIGHT', 'positionCoords': [798.72, 227], 'bid': 6.08}]",23583.099999904633,1669832136448,edamame,bagel plain,6.5600000000000005,6.08,-0.4800000000000004,edamame,1049.0999999046326,1050,1049.9000000953674,True,u,25140.0,1556.9000000953674,1669832138005,1557,HRV,HRV_0075,2022-11-30 18:20:02
12,"[{'imgObject': {}, 'id': 'pear', 'src': '/static/foodstim60/pear.jpg', 'key': 'u', 'origWidth': 411, 'origHeight': 410, 'width': 411, 'height': 410, 'widthPercent': 0.45, 'rescaleHeight': False, 'trialN': 12, 'loaded': True, 'loadedTime': 3919, 'positionName': 'LEFT', 'positionCoords': [326.28, 227], 'bid': 5.7}, {'imgObject': {}, 'id': 'roastedpotatoes', 'src': '/static/foodstim60/roastedpotatoes.jpg', 'key': 'i', 'origWidth': 409, 'origHeight': 410, 'width': 409, 'height': 410, 'widthPercent': 0.45, 'rescaleHeight': False, 'trialN': 12, 'loaded': True, 'loadedTime': 3816.0999999046326, 'positionName': 'RIGHT', 'positionCoords': [798.72, 227], 'bid': 6.05}]",25140.89999985695,1669832138006,pear,roastedpotatoes,5.7,6.05,0.34999999999999964,pear,783.6000001430511,784,784.5,True,u,26435.299999952316,1294.4000000953674,1669832139300,1294,HRV,HRV_0075,2022-11-30 18:20:02
13,"[{'imgObject': {}, 'id': 'cherries', 'src': '/static/foodstim60/cherries.jpg', 'key': 'u', 'origWidth': 410, 'origHeight': 411, 'width': 410, 'height': 411, 'widthPercent': 0.45, 'rescaleHeight': False, 'trialN': 13, 'loaded': True, 'loadedTime': 3929.199999809265, 'positionName': 'LEFT', 'positionCoords': [327.28, 226.5], 'bid': 7.76}, {'imgObject': {}, 'id': 'seaweed', 'src': '/static/foodstim60/seaweed.jpg', 'key': 'i', 'origWidth': 410, 'origHeight': 410, 'width': 410, 'height': 410, 'widthPercent': 0.45, 'rescaleHeight': False, 'trialN': 13, 'loaded': True, 'loadedTime': 3787.699999809265, 'positionName': 'RIGHT', 'positionCoords': [798.72, 227], 'bid': 7.76}]",26435.89999985695,1669832139301,cherries,seaweed,7.76,7.76,0.0,cherries,819.1000001430511,820,819.9000000953674,True,u,27765.0,1329.1000001430511,1669832140630,1329,HRV,HRV_0075,2022-11-30 18:20:02
14,"[{'imgObject': {}, 'id': 'fried eggs', 'src': '/static/foodstim60/fried eggs.jpg', 'key': 'u', 'origWidth': 410, 'origHeight': 410, 'width': 410, 'height': 410, 'widthPercent': 0.45, 'rescaleHeight': False, 'trialN': 14, 'loaded': True, 'loadedTime': 3931.199999809265, 'positionName': 'LEFT', 'positionCoords': [327.28, 227], 'bid': 9.97}, {'imgObject': {}, 'id': 'mac & cheese', 'src': '/static/foodstim60/mac & cheese.jpg', 'key': 'i', 'origWidth': 410, 'origHeight': 410, 'width': 410, 'height': 410, 'widthPercent': 0.45, 'rescaleHeight': False, 'trialN': 14, 'loaded': True, 'loadedTime': 3940.7999999523163, 'positionName': 'RIGHT', 'positionCoords': [798.72, 227], 'bid': 9.9}]",27765.5,1669832140630,fried eggs,mac & cheese,9.97,9.9,-0.07000000000000028,fried eggs,1188.5999999046326,1190,1189.5,True,u,29474.799999952316,1709.2999999523163,1669832142340,1710,HRV,HRV_0075,2022-11-30 18:20:02
15,"[{'imgObject': {}, 'id': 'rigatoni and sauce', 'src': '/static/foodstim60/rigatoni and sauce.jpg', 'key': 'u', 'origWidth': 410, 'origHeight': 411, 'width': 410, 'height': 411, 'widthPercent': 0.45, 'rescaleHeight': False, 'trialN': 15, 'loaded': True, 'loadedTime': 3950.699999809265, 'positionName': 'LEFT', 'positionCoords': [327.28, 226.5], 'bid': 7.76}, {'imgObject': {}, 'id': 'tacos', 'src': '/static/foodstim60/tacos.jpg', 'key': 'i', 'origWidth': 411, 'origHeight': 411, 'width': 411, 'height': 411, 'widthPercent': 0.45, 'rescaleHeight': False, 'trialN': 15, 'loaded': True, 'loadedTime': 3873.899999856949, 'positionName': 'RIGHT', 'positionCoords': [798.72, 226.5], 'bid': 6.71}]",29475.299999952316,1669832142340,rigatoni and sauce,tacos,7.76,6.71,-1.0499999999999998,tacos,2655.7000000476837,2656,2656.2999999523163,True,i,32646.5,3171.2000000476837,1669832145511,3171,HRV,HRV_0075,2022-11-30 18:20:02
16,"[{'imgObject': {}, 'id': 'sweetpotato', 'src': '/static/foodstim60/sweetpotato.jpg', 'key': 'u', 'origWidth': 410, 'origHeight': 410, 'width': 410, 'height': 410, 'widthPercent': 0.45, 'rescaleHeight': False, 'trialN': 16, 'loaded': True, 'loadedTime': 3952.5, 'positionName': 'LEFT', 'positionCoords': [327.28, 227], 'bid': 9.86}, {'imgObject': {}, 'id': 'steak', 'src': '/static/foodstim60/steak.jpg', 'key': 'i', 'origWidth': 410, 'origHeight': 410, 'width': 410, 'height': 410, 'widthPercent': 0.45, 'rescaleHeight': False, 'trialN': 16, 'loaded': True, 'loadedTime': 3835.199999809265, 'positionName': 'RIGHT', 'positionCoords': [798.72, 227], 'bid': 9.84}]",32647.0,1669832145512,sweetpotato,steak,9.86,9.84,-0.019999999999999574,steak,1175.5999999046326,1177,1176.6999998092651,True,i,34331.59999990463,1684.5999999046326,1669832147196,1684,HRV,HRV_0075,2022-11-30 18:20:02
17,"[{'imgObject': {}, 'id': 'yogurt no spoon', 'src': '/static/foodstim60/yogurt no spoon.jpg', 'key': 'u', 'origWidth': 411, 'origHeight': 410, 'width': 411, 'height': 410, 'widthPercent': 0.45, 'rescaleHeight': False, 'trialN': 17, 'loaded': True, 'loadedTime': 3961.899999856949, 'positionName': 'LEFT', 'positionCoords': [326.28, 227], 'bid': 9.16}, {'imgObject': {}, 'id': 'baked potato', 'src': '/static/foodstim60/baked potato.jpg', 'key': 'i', 'origWidth': 409, 'origHeight': 410, 'width': 409, 'height': 410, 'widthPercent': 0.45, 'rescaleHeight': False, 'trialN': 17, 'loaded': True, 'loadedTime': 3971.7999999523163, 'positionName': 'RIGHT', 'positionCoords': [798.72, 227], 'bid': 6.4}]",34332.0,1669832147197,yogurt no spoon,baked potato,9.16,6.4,-2.76,yogurt no spoon,1372.0,1373,1372.8999998569489,True,u,36212.699999809265,1880.6999998092651,1669832149078,1881,HRV,HRV_0075,2022-11-30 18:20:02
18,"[{'imgObject': {}, 'id': 'blackbeanswithrice', 'src': '/static/foodstim60/blackbeanswithrice.jpg', 'key': 'u', 'origWidth': 410, 'origHeight': 410, 'width': 410, 'height': 410, 'widthPercent': 0.45, 'rescaleHeight': False, 'trialN': 18, 'loaded': True, 'loadedTime': 3685.899999856949, 'positionName': 'LEFT', 'positionCoords': [327.28, 227], 'bid': 6.17}, {'imgObject': {}, 'id': 'turkey sandwich', 'src': '/static/foodstim60/turkey sandwich.jpg', 'key': 'i', 'origWidth': 409, 'origHeight': 409, 'width': 409, 'height': 409, 'widthPercent': 0.45, 'rescaleHeight': False, 'trialN': 18, 'loaded': True, 'loadedTime': 3974.5999999046326, 'positionName': 'RIGHT', 'positionCoords': [798.72, 227.5], 'bid': 7.44}]",36213.199999809265,1669832149078,blackbeanswithrice,turkey sandwich,6.17,7.44,1.2700000000000005,turkey sandwich,1257.6000001430511,1258,1258.3000001907349,True,i,37981.699999809265,1768.5,1669832150847,1769,HRV,HRV_0075,2022-11-30 18:20:02
19,"[{'imgObject': {}, 'id': 'turkey sandwich', 'src': '/static/foodstim60/turkey sandwich.jpg', 'key': 'u', 'origWidth': 409, 'origHeight': 409, 'width': 409, 'height': 409, 'widthPercent': 0.45, 'rescaleHeight': False, 'trialN': 19, 'loaded': True, 'loadedTime': 3975, 'positionName': 'LEFT', 'positionCoords': [328.28, 227.5], 'bid': 7.44}, {'imgObject': {}, 'id': 'rigatoni and sauce', 'src': '/static/foodstim60/rigatoni and sauce.jpg', 'key': 'i', 'origWidth': 410, 'origHeight': 411, 'width': 410, 'height': 411, 'widthPercent': 0.45, 'rescaleHeight': False, 'trialN': 19, 'loaded': True, 'loadedTime': 3949, 'positionName': 'RIGHT', 'positionCoords': [798.72, 226.5], 'bid': 7.76}]",37982.199999809265,1669832150847,turkey sandwich,rigatoni and sauce,7.44,7.76,0.3199999999999994,turkey sandwich,1613.1000001430511,1614,1614.0,True,u,40111.199999809265,2129.0,1669832152976,2129,HRV,HRV_0075,2022-11-30 18:20:02
20,"[{'imgObject': {}, 'id': 'turkey sandwich', 'src': '/static/foodstim60/turkey sandwich.jpg', 'key': 'u', 'origWidth': 409, 'origHeight': 409, 'width': 409, 'height': 409, 'widthPercent': 0.45, 'rescaleHeight': False, 'trialN': 20, 'loaded': True, 'loadedTime': 3974.2999999523163, 'positionName': 'LEFT', 'positionCoords': [328.28, 227.5], 'bid': 7.44}, {'imgObject': {}, 'id': 'fried eggs', 'src': '/static/foodstim60/fried eggs.jpg', 'key': 'i', 'origWidth': 410, 'origHeight': 410, 'width': 410, 'height': 410, 'widthPercent': 0.45, 'rescaleHeight': False, 'trialN': 20, 'loaded': True, 'loadedTime': 3931, 'positionName': 'RIGHT', 'positionCoords': [798.72, 227], 'bid': 9.97}]",40111.89999985695,1669832152977,turkey sandwich,fried eggs,7.44,9.97,2.5300000000000002,fried eggs,956.2999999523163,957,957.1000001430511,True,i,41580.89999985695,1469.0,1669832154446,1469,HRV,HRV_0075,2022-11-30 18:20:02
21,"[{'imgObject': {}, 'id': 'banana', 'src': '/static/foodstim60/banana.jpg', 'key': 'u', 'origWidth': 410, 'origHeight': 410, 'width': 410, 'height': 410, 'widthPercent': 0.45, 'rescaleHeight': False, 'trialN': 21, 'loaded': True, 'loadedTime': 3983.199999809265, 'positionName': 'LEFT', 'positionCoords': [327.28, 227], 'bid': 5.93}, {'imgObject': {}, 'id': 'omelette', 'src': '/static/foodstim60/omelette.jpg', 'key': 'i', 'origWidth': 410, 'origHeight': 409, 'width': 410, 'height': 409, 'widthPercent': 0.45, 'rescaleHeight': False, 'trialN': 21, 'loaded': True, 'loadedTime': 3991.7999999523163, 'positionName': 'RIGHT', 'positionCoords': [798.72, 227.5], 'bid': 8.22}]",41581.59999990463,1669832154446,banana,omelette,5.93,8.22,2.290000000000001,banana,870.5999999046326,872,871.2000000476837,True,u,42959.89999985695,1378.2999999523163,1669832155825,1379,HRV,HRV_0075,2022-11-30 18:20:02
22,"[{'imgObject': {}, 'id': 'mango', 'src': '/static/foodstim60/mango.jpg', 'key': 'u', 'origWidth': 411, 'origHeight': 411, 'width': 411, 'height': 411, 'widthPercent': 0.45, 'rescaleHeight': False, 'trialN': 22, 'loaded': True, 'loadedTime': 3993, 'positionName': 'LEFT', 'positionCoords': [326.28, 226.5], 'bid': 7.82}, {'imgObject': {}, 'id': 'Tribe humus pita', 'src': '/static/foodstim60/Tribe humus pita.jpg', 'key': 'i', 'origWidth': 411, 'origHeight': 411, 'width': 411, 'height': 411, 'widthPercent': 0.45, 'rescaleHeight': False, 'trialN': 22, 'loaded': True, 'loadedTime': 4002.7999999523163, 'positionName': 'RIGHT', 'positionCoords': [798.72, 226.5], 'bid': 7.81}]",42960.299999952316,1669832155825,mango,Tribe humus pita,7.82,7.81,-0.010000000000000675,mango,1048.0999999046326,1049,1048.7999999523163,True,u,44522.89999985695,1562.5999999046326,1669832157388,1563,HRV,HRV_0075,2022-11-30 18:20:02
23,"[{'imgObject': {}, 'id': 'mashed potato', 'src': '/static/foodstim60/mashed potato.jpg', 'key': 'u', 'origWidth': 409, 'origHeight': 409, 'width': 409, 'height': 409, 'widthPercent': 0.45, 'rescaleHeight': False, 'trialN': 23, 'loaded': True, 'loadedTime': 4002.7999999523163, 'positionName': 'LEFT', 'positionCoords': [328.28, 227.5], 'bid': 5.89}, {'imgObject': {}, 'id': 'hotdog w must', 'src': '/static/foodstim60/hotdog w must.jpg', 'key': 'i', 'origWidth': 409, 'origHeight': 409, 'width': 409, 'height': 409, 'widthPercent': 0.45, 'rescaleHeight': False, 'trialN': 23, 'loaded': True, 'loadedTime': 3809.899999856949, 'positionName': 'RIGHT', 'positionCoords': [798.72, 227.5], 'bid': 6.0600000000000005}]",44523.299999952316,1669832157388,mashed potato,hotdog w must,5.89,6.0600000000000005,0.17000000000000082,mashed potato,1146.2999999523163,1148,1147.2000000476837,True,u,46176.0,1652.7000000476837,1669832159041,1653,HRV,HRV_0075,2022-11-30 18:20:02
24,"[{'imgObject': {}, 'id': 'sushi w_condiments', 'src': '/static/foodstim60/sushi w_condiments.jpg', 'key': 'u', 'origWidth': 410, 'origHeight': 410, 'width': 410, 'height': 410, 'widthPercent': 0.45, 'rescaleHeight': False, 'trialN': 24, 'loaded': True, 'loadedTime': 4012.899999856949, 'positionName': 'LEFT', 'positionCoords': [327.28, 227], 'bid': 5.93}, {'imgObject': {}, 'id': 'hashbrowns', 'src': '/static/foodstim60/hashbrowns.jpg', 'key': 'i', 'origWidth': 411, 'origHeight': 410, 'width': 411, 'height': 410, 'widthPercent': 0.45, 'rescaleHeight': False, 'trialN': 24, 'loaded': True, 'loadedTime': 4015.2999999523163, 'positionName': 'RIGHT', 'positionCoords': [798.72, 227], 'bid': 8.43}]",46176.59999990463,1669832159042,sushi w_condiments,hashbrowns,5.93,8.43,2.5,sushi w_condiments,985.4000000953674,986,986.2999999523163,True,u,47675.299999952316,1498.7000000476837,1669832160540,1498,HRV,HRV_0075,2022-11-30 18:20:02
25,"[{'imgObject': {}, 'id': 'raspberries', 'src': '/static/foodstim60/raspberries.jpg', 'key': 'u', 'origWidth': 411, 'origHeight': 411, 'width': 411, 'height': 411, 'widthPercent': 0.45, 'rescaleHeight': False, 'trialN': 25, 'loaded': True, 'loadedTime': 4026.7999999523163, 'positionName': 'LEFT', 'positionCoords': [326.28, 226.5], 'bid': 8.85}, {'imgObject': {}, 'id': 'salmon', 'src': '/static/foodstim60/salmon.jpg', 'key': 'i', 'origWidth': 410, 'origHeight': 409, 'width': 410, 'height': 409, 'widthPercent': 0.45, 'rescaleHeight': False, 'trialN': 25, 'loaded': True, 'loadedTime': 4027.899999856949, 'positionName': 'RIGHT', 'positionCoords': [798.72, 227.5], 'bid': 9.79}]",47675.59999990463,1669832160541,raspberries,salmon,8.85,9.79,0.9399999999999995,raspberries,719.5999999046326,720,720.4000000953674,True,u,48910.5,1234.9000000953674,1669832161776,1235,HRV,HRV_0075,2022-11-30 18:20:02
26,"[{'imgObject': {}, 'id': 'strawberries', 'src': '/static/foodstim60/strawberries.jpg', 'key': 'u', 'origWidth': 410, 'origHeight': 410, 'width': 410, 'height': 410, 'widthPercent': 0.45, 'rescaleHeight': False, 'trialN': 26, 'loaded': True, 'loadedTime': 4035.699999809265, 'positionName': 'LEFT', 'positionCoords': [327.28, 227], 'bid': 7.08}, {'imgObject': {}, 'id': 'fruitsalad', 'src': '/static/foodstim60/fruitsalad.jpg', 'key': 'i', 'origWidth': 410, 'origHeight': 410, 'width': 410, 'height': 410, 'widthPercent': 0.45, 'rescaleHeight': False, 'trialN': 26, 'loaded': True, 'loadedTime': 4042.399999856949, 'positionName': 'RIGHT', 'positionCoords': [798.72, 227], 'bid': 6.04}]",48911.09999990463,1669832161776,strawberries,fruitsalad,7.08,6.04,-1.04,strawberries,680.7000000476837,682,681.2999999523163,True,u,50101.199999809265,1190.0999999046326,1669832162966,1190,HRV,HRV_0075,2022-11-30 18:20:02
27,"[{'imgObject': {}, 'id': 'apple slices', 'src': '/static/foodstim60/apple slices.jpg', 'key': 'u', 'origWidth': 409, 'origHeight': 410, 'width': 409, 'height': 410, 'widthPercent': 0.45, 'rescaleHeight': False, 'trialN': 27, 'loaded': True, 'loadedTime': 3749.7999999523163, 'positionName': 'LEFT', 'positionCoords': [328.28, 227], 'bid': 5.62}, {'imgObject': {}, 'id': 'edamame', 'src': '/static/foodstim60/edamame.jpg', 'key': 'i', 'origWidth': 409, 'origHeight': 410, 'width': 409, 'height': 410, 'widthPercent': 0.45, 'rescaleHeight': False, 'trialN': 27, 'loaded': True, 'loadedTime': 3898.399999856949, 'positionName': 'RIGHT', 'positionCoords': [798.72, 227], 'bid': 6.5600000000000005}]",50101.59999990463,1669832162967,apple slices,edamame,5.62,6.5600000000000005,0.9400000000000004,edamame,762.5999999046326,764,763.7000000476837,True,i,51367.5,1265.9000000953674,1669832164233,1266,HRV,HRV_0075,2022-11-30 18:20:02
28,"[{'imgObject': {}, 'id': 'bagel plain', 'src': '/static/foodstim60/bagel plain.jpg', 'key': 'u', 'origWidth': 410, 'origHeight': 410, 'width': 410, 'height': 410, 'widthPercent': 0.45, 'rescaleHeight': False, 'trialN': 28, 'loaded': True, 'loadedTime': 3909.5, 'positionName': 'LEFT', 'positionCoords': [327.28, 227], 'bid': 6.08}, {'imgObject': {}, 'id': 'bagel and cc', 'src': '/static/foodstim60/bagel and cc.jpg', 'key': 'i', 'origWidth': 410, 'origHeight': 410, 'width': 410, 'height': 410, 'widthPercent': 0.45, 'rescaleHeight': False, 'trialN': 28, 'loaded': True, 'loadedTime': 3887.5, 'positionName': 'RIGHT', 'positionCoords': [798.72, 227], 'bid': 5.26}]",51367.89999985695,1669832164233,bagel plain,bagel and cc,6.08,5.26,-0.8200000000000003,bagel and cc,2202.4000000953674,2204,2203.4000000953674,True,i,54079.89999985695,2712.0,1669832166945,2712,HRV,HRV_0075,2022-11-30 18:20:02
29,"[{'imgObject': {}, 'id': 'seaweed', 'src': '/static/foodstim60/seaweed.jpg', 'key': 'u', 'origWidth': 410, 'origHeight': 410, 'width': 410, 'height': 410, 'widthPercent': 0.45, 'rescaleHeight': False, 'trialN': 29, 'loaded': True, 'loadedTime': 3788.2999999523163, 'positionName': 'LEFT', 'positionCoords': [327.28, 227], 'bid': 7.76}, {'imgObject': {}, 'id': 'blueberries', 'src': '/static/foodstim60/blueberries.jpg', 'key': 'i', 'origWidth': 411, 'origHeight': 411, 'width': 411, 'height': 411, 'widthPercent': 0.45, 'rescaleHeight': False, 'trialN': 29, 'loaded': True, 'loadedTime': 4051.5, 'positionName': 'RIGHT', 'positionCoords': [798.72, 226.5], 'bid': 6.84}]",54080.09999990463,1669832166945,seaweed,blueberries,7.76,6.84,-0.9199999999999999,blueberries,1015.2999999523163,1016,1016.2000000476837,True,i,55609.39999985695,1529.2999999523163,1669832168475,1530,HRV,HRV_0075,2022-11-30 18:20:02
30,"[{'imgObject': {}, 'id': 'granola w milk', 'src': '/static/foodstim60/granola w milk.jpg', 'key': 'u', 'origWidth': 410, 'origHeight': 410, 'width': 410, 'height': 410, 'widthPercent': 0.45, 'rescaleHeight': False, 'trialN': 30, 'loaded': True, 'loadedTime': 3789.5999999046326, 'positionName': 'LEFT', 'positionCoords': [327.28, 227], 'bid': 6.92}, {'imgObject': {}, 'id': 'cheerios', 'src': '/static/foodstim60/cheerios.jpg', 'key': 'i', 'origWidth': 409, 'origHeight': 410, 'width': 409, 'height': 410, 'widthPercent': 0.45, 'rescaleHeight': False, 'trialN': 30, 'loaded': True, 'loadedTime': 4052.5999999046326, 'positionName': 'RIGHT', 'positionCoords': [798.72, 227], 'bid': 6.04}]",55609.699999809265,1669832168475,granola w milk,cheerios,6.92,6.04,-0.8799999999999999,cheerios,1116.5,1117,1117.3000001907349,True,i,57234.39999985695,1624.7000000476837,1669832170100,1625,HRV,HRV_0075,2022-11-30 18:20:02
31,"[{'imgObject': {}, 'id': 'raisin bran w milk', 'src': '/static/foodstim60/raisin bran w milk.jpg', 'key': 'u', 'origWidth': 411, 'origHeight': 411, 'width': 411, 'height': 411, 'widthPercent': 0.45, 'rescaleHeight': False, 'trialN': 31, 'loaded': True, 'loadedTime': 3890.2999999523163, 'positionName': 'LEFT', 'positionCoords': [326.28, 226.5], 'bid': 6.91}, {'imgObject': {}, 'id': 'steak', 'src': '/static/foodstim60/steak.jpg', 'key': 'i', 'origWidth': 410, 'origHeight': 410, 'width': 410, 'height': 410, 'widthPercent': 0.45, 'rescaleHeight': False, 'trialN': 31, 'loaded': True, 'loadedTime': 3835.699999809265, 'positionName': 'RIGHT', 'positionCoords': [798.72, 227], 'bid': 9.84}]",57234.89999985695,1669832170100,raisin bran w milk,steak,6.91,9.84,2.9299999999999997,raisin bran w milk,883.9000000953674,885,884.7000000476837,True,u,58631.299999952316,1396.4000000953674,1669832171497,1397,HRV,HRV_0075,2022-11-30 18:20:02
32,"[{'imgObject': {}, 'id': 'hashbrowns', 'src': '/static/foodstim60/hashbrowns.jpg', 'key': 'u', 'origWidth': 411, 'origHeight': 410, 'width': 411, 'height': 410, 'widthPercent': 0.45, 'rescaleHeight': False, 'trialN': 32, 'loaded': True, 'loadedTime': 4015.399999856949, 'positionName': 'LEFT', 'positionCoords': [326.28, 227], 'bid': 8.43}, {'imgObject': {}, 'id': 'orange slices', 'src': '/static/foodstim60/orange slices.jpg', 'key': 'i', 'origWidth': 409, 'origHeight': 410, 'width': 409, 'height': 410, 'widthPercent': 0.45, 'rescaleHeight': False, 'trialN': 32, 'loaded': True, 'loadedTime': 4055.699999809265, 'positionName': 'RIGHT', 'positionCoords': [798.72, 227], 'bid': 7.38}]",58631.59999990463,1669832171497,hashbrowns,orange slices,8.43,7.38,-1.0499999999999998,orange slices,784.7999999523163,785,785.4000000953674,True,i,59921.699999809265,1290.0999999046326,1669832172787,1290,HRV,HRV_0075,2022-11-30 18:20:02
33,"[{'imgObject': {}, 'id': 'popsicles', 'src': '/static/foodstim60/popsicles.jpg', 'key': 'u', 'origWidth': 410, 'origHeight': 410, 'width': 410, 'height': 410, 'widthPercent': 0.45, 'rescaleHeight': False, 'trialN': 33, 'loaded': True, 'loadedTime': 4119.699999809265, 'positionName': 'LEFT', 'positionCoords': [327.28, 227], 'bid': 8.97}, {'imgObject': {}, 'id': 'kiwi', 'src': '/static/foodstim60/kiwi.jpg', 'key': 'i', 'origWidth': 410, 'origHeight': 410, 'width': 410, 'height': 410, 'widthPercent': 0.45, 'rescaleHeight': False, 'trialN': 33, 'loaded': True, 'loadedTime': 4058.2999999523163, 'positionName': 'RIGHT', 'positionCoords': [798.72, 227], 'bid': 8.8}]",59922.09999990463,1669832172787,popsicles,kiwi,8.97,8.8,-0.16999999999999993,kiwi,1163.2000000476837,1164,1163.9000000953674,True,i,61601.5,1679.4000000953674,1669832174467,1680,HRV,HRV_0075,2022-11-30 18:20:02
34,"[{'imgObject': {}, 'id': 'cheerios', 'src': '/static/foodstim60/cheerios.jpg', 'key': 'u', 'origWidth': 409, 'origHeight': 410, 'width': 409, 'height': 410, 'widthPercent': 0.45, 'rescaleHeight': False, 'trialN': 34, 'loaded': True, 'loadedTime': 4051.7999999523163, 'positionName': 'LEFT', 'positionCoords': [328.28, 227], 'bid': 6.04}, {'imgObject': {}, 'id': 'veggieswithdip', 'src': '/static/foodstim60/veggieswithdip.jpg', 'key': 'i', 'origWidth': 409, 'origHeight': 409, 'width': 409, 'height': 409, 'widthPercent': 0.45, 'rescaleHeight': False, 'trialN': 34, 'loaded': True, 'loadedTime': 3824.899999856949, 'positionName': 'RIGHT', 'positionCoords': [798.72, 227.5], 'bid': 8.46}]",61602.299999952316,1669832174467,cheerios,veggieswithdip,6.04,8.46,2.420000000000001,veggieswithdip,930.7000000476837,932,931.5,True,i,63049.699999809265,1447.3999998569489,1669832175915,1448,HRV,HRV_0075,2022-11-30 18:20:02
35,"[{'imgObject': {}, 'id': 'popsicles', 'src': '/static/foodstim60/popsicles.jpg', 'key': 'u', 'origWidth': 410, 'origHeight': 410, 'width': 410, 'height': 410, 'widthPercent': 0.45, 'rescaleHeight': False, 'trialN': 35, 'loaded': True, 'loadedTime': 4119.5, 'positionName': 'LEFT', 'positionCoords': [327.28, 227], 'bid': 8.97}, {'imgObject': {}, 'id': 'chicken nuggets2', 'src': '/static/foodstim60/chicken nuggets2.jpg', 'key': 'i', 'origWidth': 410, 'origHeight': 409, 'width': 410, 'height': 409, 'widthPercent': 0.45, 'rescaleHeight': False, 'trialN': 35, 'loaded': True, 'loadedTime': 4068.399999856949, 'positionName': 'RIGHT', 'positionCoords': [798.72, 227.5], 'bid': 8.99}]",63050.0,1669832175915,popsicles,chicken nuggets2,8.97,8.99,0.019999999999999574,chicken nuggets2,1251.7999999523163,1253,1252.5,True,i,64813.0,1763.0,1669832177678,1763,HRV,HRV_0075,2022-11-30 18:20:02
36,"[{'imgObject': {}, 'id': 'chicken nuggets2', 'src': '/static/foodstim60/chicken nuggets2.jpg', 'key': 'u', 'origWidth': 410, 'origHeight': 409, 'width': 410, 'height': 409, 'widthPercent': 0.45, 'rescaleHeight': False, 'trialN': 36, 'loaded': True, 'loadedTime': 4073.7999999523163, 'positionName': 'LEFT', 'positionCoords': [327.28, 227.5], 'bid': 8.99}, {'imgObject': {}, 'id': 'fried eggs', 'src': '/static/foodstim60/fried eggs.jpg', 'key': 'i', 'origWidth': 410, 'origHeight': 410, 'width': 410, 'height': 410, 'widthPercent': 0.45, 'rescaleHeight': False, 'trialN': 36, 'loaded': True, 'loadedTime': 3930.7999999523163, 'positionName': 'RIGHT', 'positionCoords': [798.72, 227], 'bid': 9.97}]",64813.39999985695,1669832177679,chicken nuggets2,fried eggs,8.99,9.97,0.9800000000000004,fried eggs,655.5,656,656.2000000476837,True,i,65982.59999990463,1169.2000000476837,1669832178848,1169,HRV,HRV_0075,2022-11-30 18:20:02
37,"[{'imgObject': {}, 'id': 'granola w milk', 'src': '/static/foodstim60/granola w milk.jpg', 'key': 'u', 'origWidth': 410, 'origHeight': 410, 'width': 410, 'height': 410, 'widthPercent': 0.45, 'rescaleHeight': False, 'trialN': 37, 'loaded': True, 'loadedTime': 3795.899999856949, 'positionName': 'LEFT', 'positionCoords': [327.28, 227], 'bid': 6.92}, {'imgObject': {}, 'id': 'grilled chicken strips', 'src': '/static/foodstim60/grilled chicken strips.jpg', 'key': 'i', 'origWidth': 410, 'origHeight': 411, 'width': 410, 'height': 411, 'widthPercent': 0.45, 'rescaleHeight': False, 'trialN': 37, 'loaded': True, 'loadedTime': 3833.899999856949, 'positionName': 'RIGHT', 'positionCoords': [798.72, 226.5], 'bid': 9.86}]",65983.29999995232,1669832178849,granola w milk,grilled chicken strips,6.92,9.86,2.9399999999999995,grilled chicken strips,707.0999999046326,707,707.7999999523163,True,i,67203.89999985695,1220.5999999046326,1669832180069,1220,HRV,HRV_0075,2022-11-30 18:20:02
38,"[{'imgObject': {}, 'id': 'mashed potato', 'src': '/static/foodstim60/mashed potato.jpg', 'key': 'u', 'origWidth': 409, 'origHeight': 409, 'width': 409, 'height': 409, 'widthPercent': 0.45, 'rescaleHeight': False, 'trialN': 38, 'loaded': True, 'loadedTime': 4004, 'positionName': 'LEFT', 'positionCoords': [328.28, 227.5], 'bid': 5.89}, {'imgObject': {}, 'id': 'tacos', 'src': '/static/foodstim60/tacos.jpg', 'key': 'i', 'origWidth': 411, 'origHeight': 411, 'width': 411, 'height': 411, 'widthPercent': 0.45, 'rescaleHeight': False, 'trialN': 38, 'loaded': True, 'loadedTime': 3873.699999809265, 'positionName': 'RIGHT', 'positionCoords': [798.72, 226.5], 'bid': 6.71}]",67204.5,1669832180070,mashed potato,tacos,5.89,6.71,0.8200000000000003,mashed potato,1288.7999999523163,1289,1289.7999999523163,True,u,69002.09999990463,1797.5999999046326,1669832181867,1797,HRV,HRV_0075,2022-11-30 18:20:02
39,"[{'imgObject': {}, 'id': 'mac & cheese', 'src': '/static/foodstim60/mac & cheese.jpg', 'key': 'u', 'origWidth': 410, 'origHeight': 410, 'width': 410, 'height': 410, 'widthPercent': 0.45, 'rescaleHeight': False, 'trialN': 39, 'loaded': True, 'loadedTime': 3941.5, 'positionName': 'LEFT', 'positionCoords': [327.28, 227], 'bid': 9.9}, {'imgObject': {}, 'id': 'raspberries', 'src': '/static/foodstim60/raspberries.jpg', 'key': 'i', 'origWidth': 411, 'origHeight': 411, 'width': 411, 'height': 411, 'widthPercent': 0.45, 'rescaleHeight': False, 'trialN': 39, 'loaded': True, 'loadedTime': 4017.199999809265, 'positionName': 'RIGHT', 'positionCoords': [798.72, 226.5], 'bid': 8.85}]",69002.69999980927,1669832181868,mac & cheese,raspberries,9.9,8.85,-1.0500000000000007,raspberries,1135.8000001907349,1137,1136.7000000476837,True,i,70654.0,1651.3000001907349,1669832183519,1651,HRV,HRV_0075,2022-11-30 18:20:02
40,"[{'imgObject': {}, 'id': 'olives', 'src': '/static/foodstim60/olives.jpg', 'key': 'u', 'origWidth': 410, 'origHeight': 410, 'width': 410, 'height': 410, 'widthPercent': 0.45, 'rescaleHeight': False, 'trialN': 40, 'loaded': True, 'loadedTime': 4075.199999809265, 'positionName': 'LEFT', 'positionCoords': [327.28, 227], 'bid': 4.73}, {'imgObject': {}, 'id': 'baked potato', 'src': '/static/foodstim60/baked potato.jpg', 'key': 'i', 'origWidth': 409, 'origHeight': 410, 'width': 409, 'height': 410, 'widthPercent': 0.45, 'rescaleHeight': False, 'trialN': 40, 'loaded': True, 'loadedTime': 3970.399999856949, 'positionName': 'RIGHT', 'positionCoords': [798.72, 227], 'bid': 6.4}]",70654.19999980927,1669832183519,olives,baked potato,4.73,6.4,1.67,baked potato,3183.2000000476837,3184,3183.9000000953674,True,i,74354.09999990463,3699.9000000953674,1669832187219,3700,HRV,HRV_0075,2022-11-30 18:20:02
41,"[{'imgObject': {}, 'id': 'steak', 'src': '/static/foodstim60/steak.jpg', 'key': 'u', 'origWidth': 410, 'origHeight': 410, 'width': 410, 'height': 410, 'widthPercent': 0.45, 'rescaleHeight': False, 'trialN': 41, 'loaded': True, 'loadedTime': 3842, 'positionName': 'LEFT', 'positionCoords': [327.28, 227], 'bid': 9.84}, {'imgObject': {}, 'id': 'popsicles', 'src': '/static/foodstim60/popsicles.jpg', 'key': 'i', 'origWidth': 410, 'origHeight': 410, 'width': 410, 'height': 410, 'widthPercent': 0.45, 'rescaleHeight': False, 'trialN': 41, 'loaded': True, 'loadedTime': 4119.399999856949, 'positionName': 'RIGHT', 'positionCoords': [798.72, 227], 'bid': 8.97}]",74354.59999990463,1669832187220,steak,popsicles,9.84,8.97,-0.8699999999999992,steak,1211.0999999046326,1212,1211.9000000953674,True,u,76081.0,1726.4000000953674,1669832188946,1726,HRV,HRV_0075,2022-11-30 18:20:02
42,"[{'imgObject': {}, 'id': 'froot loops w milk', 'src': '/static/foodstim60/froot loops w milk.jpg', 'key': 'u', 'origWidth': 410, 'origHeight': 410, 'width': 410, 'height': 410, 'widthPercent': 0.45, 'rescaleHeight': False, 'trialN': 42, 'loaded': True, 'loadedTime': 4076.7999999523163, 'positionName': 'LEFT', 'positionCoords': [327.28, 227], 'bid': 6.34}, {'imgObject': {}, 'id': 'blackbeanswithrice', 'src': '/static/foodstim60/blackbeanswithrice.jpg', 'key': 'i', 'origWidth': 410, 'origHeight': 410, 'width': 410, 'height': 410, 'widthPercent': 0.45, 'rescaleHeight': False, 'trialN': 42, 'loaded': True, 'loadedTime': 3736.0999999046326, 'positionName': 'RIGHT', 'positionCoords': [798.72, 227], 'bid': 6.17}]",76081.29999995232,1669832188947,froot loops w milk,blackbeanswithrice,6.34,6.17,-0.16999999999999993,blackbeanswithrice,919.3999998569489,920,920.0999999046326,True,i,77509.09999990463,1427.7999999523163,1669832190374,1427,HRV,HRV_0075,2022-11-30 18:20:02
43,"[{'imgObject': {}, 'id': 'eggsalad', 'src': '/static/foodstim60/eggsalad.jpg', 'key': 'u', 'origWidth': 410, 'origHeight': 409, 'width': 410, 'height': 409, 'widthPercent': 0.45, 'rescaleHeight': False, 'trialN': 43, 'loaded': True, 'loadedTime': 3854.7999999523163, 'positionName': 'LEFT', 'positionCoords': [327.28, 227.5], 'bid': 9.47}, {'imgObject': {}, 'id': 'fried eggs', 'src': '/static/foodstim60/fried eggs.jpg', 'key': 'i', 'origWidth': 410, 'origHeight': 410, 'width': 410, 'height': 410, 'widthPercent': 0.45, 'rescaleHeight': False, 'trialN': 43, 'loaded': True, 'loadedTime': 3929.5, 'positionName': 'RIGHT', 'positionCoords': [798.72, 227], 'bid': 9.97}]",77509.59999990463,1669832190375,eggsalad,fried eggs,9.47,9.97,0.5,fried eggs,725.0999999046326,726,726.0999999046326,True,i,78747.69999980927,1238.0999999046326,1669832191613,1238,HRV,HRV_0075,2022-11-30 18:20:02
44,"[{'imgObject': {}, 'id': 'banana', 'src': '/static/foodstim60/banana.jpg', 'key': 'u', 'origWidth': 410, 'origHeight': 410, 'width': 410, 'height': 410, 'widthPercent': 0.45, 'rescaleHeight': False, 'trialN': 44, 'loaded': True, 'loadedTime': 3983.399999856949, 'positionName': 'LEFT', 'positionCoords': [327.28, 227], 'bid': 5.93}, {'imgObject': {}, 'id': 'ice cream sundae 002', 'src': '/static/foodstim60/ice cream sundae 002.jpg', 'key': 'i', 'origWidth': 409, 'origHeight': 409, 'width': 409, 'height': 409, 'widthPercent': 0.45, 'rescaleHeight': False, 'trialN': 44, 'loaded': True, 'loadedTime': 4078.199999809265, 'positionName': 'RIGHT', 'positionCoords': [798.72, 227.5], 'bid': 4.53}]",78748.29999995232,1669832191613,banana,ice cream sundae 002,5.93,4.53,-1.3999999999999995,banana,695.5,697,696.2999999523163,True,u,79962.39999985695,1214.0999999046326,1669832192828,1215,HRV,HRV_0075,2022-11-30 18:20:02
45,"[{'imgObject': {}, 'id': 'olives', 'src': '/static/foodstim60/olives.jpg', 'key': 'u', 'origWidth': 410, 'origHeight': 410, 'width': 410, 'height': 410, 'widthPercent': 0.45, 'rescaleHeight': False, 'trialN': 45, 'loaded': True, 'loadedTime': 4075.0999999046326, 'positionName': 'LEFT', 'positionCoords': [327.28, 227], 'bid': 4.73}, {'imgObject': {}, 'id': 'seaweed', 'src': '/static/foodstim60/seaweed.jpg', 'key': 'i', 'origWidth': 410, 'origHeight': 410, 'width': 410, 'height': 410, 'widthPercent': 0.45, 'rescaleHeight': False, 'trialN': 45, 'loaded': True, 'loadedTime': 3780.199999809265, 'positionName': 'RIGHT', 'positionCoords': [798.72, 227], 'bid': 7.76}]",79962.69999980927,1669832192828,olives,seaweed,4.73,7.76,3.0299999999999994,seaweed,1154.3000001907349,1155,1155.1000001430511,True,i,81625.5,1662.8000001907349,1669832194491,1663,HRV,HRV_0075,2022-11-30 18:20:02
46,"[{'imgObject': {}, 'id': 'cherry tomato', 'src': '/static/foodstim60/cherry tomato.jpg', 'key': 'u', 'origWidth': 410, 'origHeight': 410, 'width': 410, 'height': 410, 'widthPercent': 0.45, 'rescaleHeight': False, 'trialN': 46, 'loaded': True, 'loadedTime': 4088.5, 'positionName': 'LEFT', 'positionCoords': [327.28, 227], 'bid': 7.96}, {'imgObject': {}, 'id': 'eggs', 'src': '/static/foodstim60/eggs.jpg', 'key': 'i', 'origWidth': 409, 'origHeight': 409, 'width': 409, 'height': 409, 'widthPercent': 0.45, 'rescaleHeight': False, 'trialN': 46, 'loaded': True, 'loadedTime': 3880.899999856949, 'positionName': 'RIGHT', 'positionCoords': [798.72, 227.5], 'bid': 9.75}]",81626.0,1669832194491,cherry tomato,eggs,7.96,9.75,1.79,eggs,1121.0,1122,1121.6999998092651,True,i,83256.89999985695,1630.8999998569489,1669832196122,1631,HRV,HRV_0075,2022-11-30 18:20:02
47,"[{'imgObject': {}, 'id': 'cherries', 'src': '/static/foodstim60/cherries.jpg', 'key': 'u', 'origWidth': 410, 'origHeight': 411, 'width': 410, 'height': 411, 'widthPercent': 0.45, 'rescaleHeight': False, 'trialN': 47, 'loaded': True, 'loadedTime': 3928.699999809265, 'positionName': 'LEFT', 'positionCoords': [327.28, 226.5], 'bid': 7.76}, {'imgObject': {}, 'id': 'burrito', 'src': '/static/foodstim60/burrito.jpg', 'key': 'i', 'origWidth': 410, 'origHeight': 410, 'width': 410, 'height': 410, 'widthPercent': 0.45, 'rescaleHeight': False, 'trialN': 47, 'loaded': True, 'loadedTime': 3771.5, 'positionName': 'RIGHT', 'positionCoords': [798.72, 227], 'bid': 8.73}]",83257.09999990463,1669832196122,cherries,burrito,7.76,8.73,0.9700000000000006,burrito,933.0,934,933.7999999523163,True,i,84704.79999995232,1447.7000000476837,1669832197570,1448,HRV,HRV_0075,2022-11-30 18:20:02
48,"[{'imgObject': {}, 'id': 'burrito', 'src': '/static/foodstim60/burrito.jpg', 'key': 'u', 'origWidth': 410, 'origHeight': 410, 'width': 410, 'height': 410, 'widthPercent': 0.45, 'rescaleHeight': False, 'trialN': 48, 'loaded': True, 'loadedTime': 3767.199999809265, 'positionName': 'LEFT', 'positionCoords': [327.28, 227], 'bid': 8.73}, {'imgObject': {}, 'id': 'sweetpotato', 'src': '/static/foodstim60/sweetpotato.jpg', 'key': 'i', 'origWidth': 410, 'origHeight': 410, 'width': 410, 'height': 410, 'widthPercent': 0.45, 'rescaleHeight': False, 'trialN': 48, 'loaded': True, 'loadedTime': 3960.7999999523163, 'positionName': 'RIGHT', 'positionCoords': [798.72, 227], 'bid': 9.86}]",84705.29999995232,1669832197571,burrito,sweetpotato,8.73,9.86,1.129999999999999,sweetpotato,1254.7999999523163,1255,1255.7000000476837,True,i,86471.79999995232,1766.5,1669832199337,1766,HRV,HRV_0075,2022-11-30 18:20:02
49,"[{'imgObject': {}, 'id': 'eggs', 'src': '/static/foodstim60/eggs.jpg', 'key': 'u', 'origWidth': 409, 'origHeight': 409, 'width': 409, 'height': 409, 'widthPercent': 0.45, 'rescaleHeight': False, 'trialN': 49, 'loaded': True, 'loadedTime': 3878.7999999523163, 'positionName': 'LEFT', 'positionCoords': [328.28, 227.5], 'bid': 9.75}, {'imgObject': {}, 'id': 'salmon', 'src': '/static/foodstim60/salmon.jpg', 'key': 'i', 'origWidth': 410, 'origHeight': 409, 'width': 410, 'height': 409, 'widthPercent': 0.45, 'rescaleHeight': False, 'trialN': 49, 'loaded': True, 'loadedTime': 4029.7999999523163, 'positionName': 'RIGHT', 'positionCoords': [798.72, 227.5], 'bid': 9.79}]",86472.39999985695,1669832199338,eggs,salmon,9.75,9.79,0.03999999999999915,eggs,932.2000000476837,933,933.0,True,u,87917.39999985695,1445.0,1669832200783,1445,HRV,HRV_0075,2022-11-30 18:20:02
50,"[{'imgObject': {}, 'id': 'baked potato', 'src': '/static/foodstim60/baked potato.jpg', 'key': 'u', 'origWidth': 409, 'origHeight': 410, 'width': 409, 'height': 410, 'widthPercent': 0.45, 'rescaleHeight': False, 'trialN': 50, 'loaded': True, 'loadedTime': 3971.7999999523163, 'positionName': 'LEFT', 'positionCoords': [328.28, 227], 'bid': 6.4}, {'imgObject': {}, 'id': 'banana', 'src': '/static/foodstim60/banana.jpg', 'key': 'i', 'origWidth': 410, 'origHeight': 410, 'width': 410, 'height': 410, 'widthPercent': 0.45, 'rescaleHeight': False, 'trialN': 50, 'loaded': True, 'loadedTime': 3976.899999856949, 'positionName': 'RIGHT', 'positionCoords': [798.72, 227], 'bid': 5.93}]",87918.0,1669832200783,baked potato,banana,6.4,5.93,-0.47000000000000064,banana,750.2999999523163,751,751.0999999046326,True,i,89189.69999980927,1271.6999998092651,1669832202055,1272,HRV,HRV_0075,2022-11-30 18:20:02
51,"[{'imgObject': {}, 'id': 'bagel plain', 'src': '/static/foodstim60/bagel plain.jpg', 'key': 'u', 'origWidth': 410, 'origHeight': 410, 'width': 410, 'height': 410, 'widthPercent': 0.45, 'rescaleHeight': False, 'trialN': 51, 'loaded': True, 'loadedTime': 3910.399999856949, 'positionName': 'LEFT', 'positionCoords': [327.28, 227], 'bid': 6.08}, {'imgObject': {}, 'id': 'orange slices', 'src': '/static/foodstim60/orange slices.jpg', 'key': 'i', 'origWidth': 409, 'origHeight': 410, 'width': 409, 'height': 410, 'widthPercent': 0.45, 'rescaleHeight': False, 'trialN': 51, 'loaded': True, 'loadedTime': 4055.199999809265, 'positionName': 'RIGHT', 'positionCoords': [798.72, 227], 'bid': 7.38}]",89190.0,1669832202055,bagel plain,orange slices,6.08,7.38,1.2999999999999998,orange slices,670.1999998092651,672,671.6999998092651,True,i,90373.39999985695,1183.3999998569489,1669832203239,1184,HRV,HRV_0075,2022-11-30 18:20:02
52,"[{'imgObject': {}, 'id': 'apple slices', 'src': '/static/foodstim60/apple slices.jpg', 'key': 'u', 'origWidth': 409, 'origHeight': 410, 'width': 409, 'height': 410, 'widthPercent': 0.45, 'rescaleHeight': False, 'trialN': 52, 'loaded': True, 'loadedTime': 3750.899999856949, 'positionName': 'LEFT', 'positionCoords': [328.28, 227], 'bid': 5.62}, {'imgObject': {}, 'id': 'olives', 'src': '/static/foodstim60/olives.jpg', 'key': 'i', 'origWidth': 410, 'origHeight': 410, 'width': 410, 'height': 410, 'widthPercent': 0.45, 'rescaleHeight': False, 'trialN': 52, 'loaded': True, 'loadedTime': 4074, 'positionName': 'RIGHT', 'positionCoords': [798.72, 227], 'bid': 4.73}]",90373.69999980927,1669832203239,apple slices,olives,5.62,4.73,-0.8899999999999997,apple slices,698.5,699,699.3000001907349,True,u,91581.59999990463,1207.9000000953674,1669832204447,1208,HRV,HRV_0075,2022-11-30 18:20:02
53,"[{'imgObject': {}, 'id': 'cocktailshrimp', 'src': '/static/foodstim60/cocktailshrimp.jpg', 'key': 'u', 'origWidth': 410, 'origHeight': 410, 'width': 410, 'height': 410, 'widthPercent': 0.45, 'rescaleHeight': False, 'trialN': 53, 'loaded': True, 'loadedTime': 4089.5, 'positionName': 'LEFT', 'positionCoords': [327.28, 227], 'bid': 10}, {'imgObject': {}, 'id': 'cherries', 'src': '/static/foodstim60/cherries.jpg', 'key': 'i', 'origWidth': 410, 'origHeight': 411, 'width': 410, 'height': 411, 'widthPercent': 0.45, 'rescaleHeight': False, 'trialN': 53, 'loaded': True, 'loadedTime': 3929, 'positionName': 'RIGHT', 'positionCoords': [798.72, 226.5], 'bid': 7.76}]",91582.39999985695,1669832204447,cocktailshrimp,cherries,10.0,7.76,-2.24,cocktailshrimp,1020.4000000953674,1022,1021.4000000953674,True,u,93114.09999990463,1531.7000000476837,1669832205979,1532,HRV,HRV_0075,2022-11-30 18:20:02
54,"[{'imgObject': {}, 'id': 'burrito', 'src': '/static/foodstim60/burrito.jpg', 'key': 'u', 'origWidth': 410, 'origHeight': 410, 'width': 410, 'height': 410, 'widthPercent': 0.45, 'rescaleHeight': False, 'trialN': 54, 'loaded': True, 'loadedTime': 3771.399999856949, 'positionName': 'LEFT', 'positionCoords': [327.28, 227], 'bid': 8.73}, {'imgObject': {}, 'id': 'fruitsalad', 'src': '/static/foodstim60/fruitsalad.jpg', 'key': 'i', 'origWidth': 410, 'origHeight': 410, 'width': 410, 'height': 410, 'widthPercent': 0.45, 'rescaleHeight': False, 'trialN': 54, 'loaded': True, 'loadedTime': 4042.199999809265, 'positionName': 'RIGHT', 'positionCoords': [798.72, 227], 'bid': 6.04}]",93114.5,1669832205980,burrito,fruitsalad,8.73,6.04,-2.6900000000000004,fruitsalad,1027.0999999046326,1028,1027.8999998569489,True,i,94652.69999980927,1538.1999998092651,1669832207518,1538,HRV,HRV_0075,2022-11-30 18:20:02
55,"[{'imgObject': {}, 'id': 'veggieswithdip', 'src': '/static/foodstim60/veggieswithdip.jpg', 'key': 'u', 'origWidth': 409, 'origHeight': 409, 'width': 409, 'height': 409, 'widthPercent': 0.45, 'rescaleHeight': False, 'trialN': 55, 'loaded': True, 'loadedTime': 3825.5999999046326, 'positionName': 'LEFT', 'positionCoords': [328.28, 227.5], 'bid': 8.46}, {'imgObject': {}, 'id': 'grilled chicken strips', 'src': '/static/foodstim60/grilled chicken strips.jpg', 'key': 'i', 'origWidth': 410, 'origHeight': 411, 'width': 410, 'height': 411, 'widthPercent': 0.45, 'rescaleHeight': False, 'trialN': 55, 'loaded': True, 'loadedTime': 3832.899999856949, 'positionName': 'RIGHT', 'positionCoords': [798.72, 226.5], 'bid': 9.86}]",94652.89999985695,1669832207518,veggieswithdip,grilled chicken strips,8.46,9.86,1.3999999999999986,veggieswithdip,884.2000000476837,885,885.0,True,u,96042.19999980927,1389.2999999523163,1669832208907,1389,HRV,HRV_0075,2022-11-30 18:20:02
56,"[{'imgObject': {}, 'id': 'bagel and cc', 'src': '/static/foodstim60/bagel and cc.jpg', 'key': 'u', 'origWidth': 410, 'origHeight': 410, 'width': 410, 'height': 410, 'widthPercent': 0.45, 'rescaleHeight': False, 'trialN': 56, 'loaded': True, 'loadedTime': 3881.199999809265, 'positionName': 'LEFT', 'positionCoords': [327.28, 227], 'bid': 5.26}, {'imgObject': {}, 'id': 'Tribe humus pita', 'src': '/static/foodstim60/Tribe humus pita.jpg', 'key': 'i', 'origWidth': 411, 'origHeight': 411, 'width': 411, 'height': 411, 'widthPercent': 0.45, 'rescaleHeight': False, 'trialN': 56, 'loaded': True, 'loadedTime': 3993.7999999523163, 'positionName': 'RIGHT', 'positionCoords': [798.72, 226.5], 'bid': 7.81}]",96042.69999980927,1669832208908,bagel and cc,Tribe humus pita,5.26,7.81,2.55,bagel and cc,1474.4000000953674,1475,1475.2000000476837,True,u,98031.79999995232,1989.1000001430511,1669832210897,1989,HRV,HRV_0075,2022-11-30 18:20:02
57,"[{'imgObject': {}, 'id': 'olives', 'src': '/static/foodstim60/olives.jpg', 'key': 'u', 'origWidth': 410, 'origHeight': 410, 'width': 410, 'height': 410, 'widthPercent': 0.45, 'rescaleHeight': False, 'trialN': 57, 'loaded': True, 'loadedTime': 4075.399999856949, 'positionName': 'LEFT', 'positionCoords': [327.28, 227], 'bid': 4.73}, {'imgObject': {}, 'id': 'hotdog w must', 'src': '/static/foodstim60/hotdog w must.jpg', 'key': 'i', 'origWidth': 409, 'origHeight': 409, 'width': 409, 'height': 409, 'widthPercent': 0.45, 'rescaleHeight': False, 'trialN': 57, 'loaded': True, 'loadedTime': 3809.5, 'positionName': 'RIGHT', 'positionCoords': [798.72, 227.5], 'bid': 6.0600000000000005}]",98032.5,1669832210898,olives,hotdog w must,4.73,6.0600000000000005,1.33,hotdog w must,1215.8999998569489,1217,1216.8999998569489,True,i,99759.19999980927,1726.6999998092651,1669832212624,1726,HRV,HRV_0075,2022-11-30 18:20:02
58,"[{'imgObject': {}, 'id': 'edamame', 'src': '/static/foodstim60/edamame.jpg', 'key': 'u', 'origWidth': 409, 'origHeight': 410, 'width': 409, 'height': 410, 'widthPercent': 0.45, 'rescaleHeight': False, 'trialN': 58, 'loaded': True, 'loadedTime': 3900.2999999523163, 'positionName': 'LEFT', 'positionCoords': [328.28, 227], 'bid': 6.5600000000000005}, {'imgObject': {}, 'id': 'luckycharms', 'src': '/static/foodstim60/luckycharms.jpg', 'key': 'i', 'origWidth': 410, 'origHeight': 409, 'width': 410, 'height': 409, 'widthPercent': 0.45, 'rescaleHeight': False, 'trialN': 58, 'loaded': True, 'loadedTime': 4093.899999856949, 'positionName': 'RIGHT', 'positionCoords': [798.72, 227.5], 'bid': 6.71}]",99760.0,1669832212625,edamame,luckycharms,6.5600000000000005,6.71,0.14999999999999947,edamame,648.7999999523163,650,649.5999999046326,True,u,100910.59999990463,1150.5999999046326,1669832213776,1151,HRV,HRV_0075,2022-11-30 18:20:02
59,"[{'imgObject': {}, 'id': 'mashed potato', 'src': '/static/foodstim60/mashed potato.jpg', 'key': 'u', 'origWidth': 409, 'origHeight': 409, 'width': 409, 'height': 409, 'widthPercent': 0.45, 'rescaleHeight': False, 'trialN': 59, 'loaded': True, 'loadedTime': 4004.0999999046326, 'positionName': 'LEFT', 'positionCoords': [328.28, 227.5], 'bid': 5.89}, {'imgObject': {}, 'id': 'froot loops w milk', 'src': '/static/foodstim60/froot loops w milk.jpg', 'key': 'i', 'origWidth': 410, 'origHeight': 410, 'width': 410, 'height': 410, 'widthPercent': 0.45, 'rescaleHeight': False, 'trialN': 59, 'loaded': True, 'loadedTime': 4076.7999999523163, 'positionName': 'RIGHT', 'positionCoords': [798.72, 227], 'bid': 6.34}]",100911.0,1669832213776,mashed potato,froot loops w milk,5.89,6.34,0.4500000000000002,mashed potato,797.5999999046326,799,798.5,True,u,102221.39999985695,1310.3999998569489,1669832215087,1311,HRV,HRV_0075,2022-11-30 18:20:02
60,"[{'imgObject': {}, 'id': 'banana', 'src': '/static/foodstim60/banana.jpg', 'key': 'u', 'origWidth': 410, 'origHeight': 410, 'width': 410, 'height': 410, 'widthPercent': 0.45, 'rescaleHeight': False, 'trialN': 60, 'loaded': True, 'loadedTime': 3975.199999809265, 'positionName': 'LEFT', 'positionCoords': [327.28, 227], 'bid': 5.93}, {'imgObject': {}, 'id': 'blueberries', 'src': '/static/foodstim60/blueberries.jpg', 'key': 'i', 'origWidth': 411, 'origHeight': 411, 'width': 411, 'height': 411, 'widthPercent': 0.45, 'rescaleHeight': False, 'trialN': 60, 'loaded': True, 'loadedTime': 4051.5999999046326, 'positionName': 'RIGHT', 'positionCoords': [798.72, 226.5], 'bid': 6.84}]",102222.0,1669832215087,banana,blueberries,5.93,6.84,0.9100000000000001,blueberries,1086.0999999046326,1087,1086.7999999523163,True,i,103825.09999990463,1603.0999999046326,1669832216690,1603,HRV,HRV_0075,2022-11-30 18:20:02
61,"[{'imgObject': {}, 'id': 'Grapes', 'src': '/static/foodstim60/Grapes.jpg', 'key': 'u', 'origWidth': 411, 'origHeight': 411, 'width': 411, 'height': 411, 'widthPercent': 0.45, 'rescaleHeight': False, 'trialN': 61, 'loaded': True, 'loadedTime': 3801.7999999523163, 'positionName': 'LEFT', 'positionCoords': [326.28, 226.5], 'bid': 6.4}, {'imgObject': {}, 'id': 'baked potato', 'src': '/static/foodstim60/baked potato.jpg', 'key': 'i', 'origWidth': 409, 'origHeight': 410, 'width': 409, 'height': 410, 'widthPercent': 0.45, 'rescaleHeight': False, 'trialN': 61, 'loaded': True, 'loadedTime': 3972.0999999046326, 'positionName': 'RIGHT', 'positionCoords': [798.72, 227], 'bid': 6.4}]",103825.5,1669832216690,Grapes,baked potato,6.4,6.4,0.0,Grapes,800.5,802,801.2999999523163,True,u,105135.5,1310.0,1669832218000,1310,HRV,HRV_0075,2022-11-30 18:20:02
62,"[{'imgObject': {}, 'id': 'apple slices', 'src': '/static/foodstim60/apple slices.jpg', 'key': 'u', 'origWidth': 409, 'origHeight': 410, 'width': 409, 'height': 410, 'widthPercent': 0.45, 'rescaleHeight': False, 'trialN': 62, 'loaded': True, 'loadedTime': 3751, 'positionName': 'LEFT', 'positionCoords': [328.28, 227], 'bid': 5.62}, {'imgObject': {}, 'id': 'mango', 'src': '/static/foodstim60/mango.jpg', 'key': 'i', 'origWidth': 411, 'origHeight': 411, 'width': 411, 'height': 411, 'widthPercent': 0.45, 'rescaleHeight': False, 'trialN': 62, 'loaded': True, 'loadedTime': 3993.399999856949, 'positionName': 'RIGHT', 'positionCoords': [798.72, 226.5], 'bid': 7.82}]",105135.79999995232,1669832218001,apple slices,mango,5.62,7.82,2.2,apple slices,911.3999998569489,912,912.0,True,u,106556.0,1420.2000000476837,1669832219421,1420,HRV,HRV_0075,2022-11-30 18:20:02
63,"[{'imgObject': {}, 'id': 'cheerios', 'src': '/static/foodstim60/cheerios.jpg', 'key': 'u', 'origWidth': 409, 'origHeight': 410, 'width': 409, 'height': 410, 'widthPercent': 0.45, 'rescaleHeight': False, 'trialN': 63, 'loaded': True, 'loadedTime': 4053.0999999046326, 'positionName': 'LEFT', 'positionCoords': [328.28, 227], 'bid': 6.04}, {'imgObject': {}, 'id': 'fruitsalad', 'src': '/static/foodstim60/fruitsalad.jpg', 'key': 'i', 'origWidth': 410, 'origHeight': 410, 'width': 410, 'height': 410, 'widthPercent': 0.45, 'rescaleHeight': False, 'trialN': 63, 'loaded': True, 'loadedTime': 4041.899999856949, 'positionName': 'RIGHT', 'positionCoords': [798.72, 227], 'bid': 6.04}]",106556.29999995232,1669832219421,cheerios,fruitsalad,6.04,6.04,0.0,fruitsalad,798.2000000476837,799,799.0999999046326,True,i,107866.5,1310.2000000476837,1669832220731,1310,HRV,HRV_0075,2022-11-30 18:20:02
64,"[{'imgObject': {}, 'id': 'cocktailshrimp', 'src': '/static/foodstim60/cocktailshrimp.jpg', 'key': 'u', 'origWidth': 410, 'origHeight': 410, 'width': 410, 'height': 410, 'widthPercent': 0.45, 'rescaleHeight': False, 'trialN': 64, 'loaded': True, 'loadedTime': 4090, 'positionName': 'LEFT', 'positionCoords': [327.28, 227], 'bid': 10}, {'imgObject': {}, 'id': 'cantaloupe', 'src': '/static/foodstim60/cantaloupe.jpg', 'key': 'i', 'origWidth': 409, 'origHeight': 409, 'width': 409, 'height': 409, 'widthPercent': 0.45, 'rescaleHeight': False, 'trialN': 64, 'loaded': True, 'loadedTime': 4096.199999809265, 'positionName': 'RIGHT', 'positionCoords': [798.72, 227.5], 'bid': 9.01}]",107866.69999980927,1669832220732,cocktailshrimp,cantaloupe,10.0,9.01,-0.9900000000000002,cocktailshrimp,929.7000000476837,930,930.5,True,u,109311.59999990463,1444.9000000953674,1669832222176,1444,HRV,HRV_0075,2022-11-30 18:20:02
65,"[{'imgObject': {}, 'id': 'salad w chicken', 'src': '/static/foodstim60/salad w chicken.jpg', 'key': 'u', 'origWidth': 411, 'origHeight': 411, 'width': 411, 'height': 411, 'widthPercent': 0.45, 'rescaleHeight': False, 'trialN': 65, 'loaded': True, 'loadedTime': 4098, 'positionName': 'LEFT', 'positionCoords': [326.28, 226.5], 'bid': 7.35}, {'imgObject': {}, 'id': 'orange slices', 'src': '/static/foodstim60/orange slices.jpg', 'key': 'i', 'origWidth': 409, 'origHeight': 410, 'width': 409, 'height': 410, 'widthPercent': 0.45, 'rescaleHeight': False, 'trialN': 65, 'loaded': True, 'loadedTime': 4055.5, 'positionName': 'RIGHT', 'positionCoords': [798.72, 227], 'bid': 7.38}]",109311.79999995232,1669832222177,salad w chicken,orange slices,7.35,7.38,0.03000000000000025,orange slices,966.7000000476837,967,967.2999999523163,True,i,110791.39999985695,1479.5999999046326,1669832223656,1479,HRV,HRV_0075,2022-11-30 18:20:02
66,"[{'imgObject': {}, 'id': 'raisin bran w milk', 'src': '/static/foodstim60/raisin bran w milk.jpg', 'key': 'u', 'origWidth': 411, 'origHeight': 411, 'width': 411, 'height': 411, 'widthPercent': 0.45, 'rescaleHeight': False, 'trialN': 66, 'loaded': True, 'loadedTime': 3890.7999999523163, 'positionName': 'LEFT', 'positionCoords': [326.28, 226.5], 'bid': 6.91}, {'imgObject': {}, 'id': 'Tribe humus pita', 'src': '/static/foodstim60/Tribe humus pita.jpg', 'key': 'i', 'origWidth': 411, 'origHeight': 411, 'width': 411, 'height': 411, 'widthPercent': 0.45, 'rescaleHeight': False, 'trialN': 66, 'loaded': True, 'loadedTime': 3995, 'positionName': 'RIGHT', 'positionCoords': [798.72, 226.5], 'bid': 7.81}]",110792.0,1669832223657,raisin bran w milk,Tribe humus pita,6.91,7.81,0.8999999999999995,Tribe humus pita,1039.3999998569489,1040,1040.3999998569489,True,i,112344.89999985695,1552.8999998569489,1669832225210,1553,HRV,HRV_0075,2022-11-30 18:20:02
67,"[{'imgObject': {}, 'id': 'apple slices', 'src': '/static/foodstim60/apple slices.jpg', 'key': 'u', 'origWidth': 409, 'origHeight': 410, 'width': 409, 'height': 410, 'widthPercent': 0.45, 'rescaleHeight': False, 'trialN': 67, 'loaded': True, 'loadedTime': 3756.2999999523163, 'positionName': 'LEFT', 'positionCoords': [328.28, 227], 'bid': 5.62}, {'imgObject': {}, 'id': 'fruitsalad', 'src': '/static/foodstim60/fruitsalad.jpg', 'key': 'i', 'origWidth': 410, 'origHeight': 410, 'width': 410, 'height': 410, 'widthPercent': 0.45, 'rescaleHeight': False, 'trialN': 67, 'loaded': True, 'loadedTime': 4040.7999999523163, 'positionName': 'RIGHT', 'positionCoords': [798.72, 227], 'bid': 6.04}]",112345.39999985695,1669832225210,apple slices,fruitsalad,5.62,6.04,0.41999999999999993,fruitsalad,1365.0,1366,1365.7999999523163,True,i,114224.0,1878.6000001430511,1669832227089,1879,HRV,HRV_0075,2022-11-30 18:20:02
68,"[{'imgObject': {}, 'id': 'omelette', 'src': '/static/foodstim60/omelette.jpg', 'key': 'u', 'origWidth': 410, 'origHeight': 409, 'width': 410, 'height': 409, 'widthPercent': 0.45, 'rescaleHeight': False, 'trialN': 68, 'loaded': True, 'loadedTime': 3983.5, 'positionName': 'LEFT', 'positionCoords': [327.28, 227.5], 'bid': 8.22}, {'imgObject': {}, 'id': 'salad w chicken', 'src': '/static/foodstim60/salad w chicken.jpg', 'key': 'i', 'origWidth': 411, 'origHeight': 411, 'width': 411, 'height': 411, 'widthPercent': 0.45, 'rescaleHeight': False, 'trialN': 68, 'loaded': True, 'loadedTime': 4098.099999904633, 'positionName': 'RIGHT', 'positionCoords': [798.72, 226.5], 'bid': 7.35}]",114224.29999995232,1669832227089,omelette,salad w chicken,8.22,7.35,-0.870000000000001,salad w chicken,751.0999999046326,752,751.7999999523163,True,i,115484.59999990463,1260.2999999523163,1669832228350,1261,HRV,HRV_0075,2022-11-30 18:20:02
69,"[{'imgObject': {}, 'id': 'turkeysandwich', 'src': '/static/foodstim60/turkeysandwich.jpg', 'key': 'u', 'origWidth': 409, 'origHeight': 409, 'width': 409, 'height': 409, 'widthPercent': 0.45, 'rescaleHeight': False, 'trialN': 69, 'loaded': True, 'loadedTime': 3864.0999999046326, 'positionName': 'LEFT', 'positionCoords': [328.28, 227.5], 'bid': 9.62}, {'imgObject': {}, 'id': 'salmon', 'src': '/static/foodstim60/salmon.jpg', 'key': 'i', 'origWidth': 410, 'origHeight': 409, 'width': 410, 'height': 409, 'widthPercent': 0.45, 'rescaleHeight': False, 'trialN': 69, 'loaded': True, 'loadedTime': 4029.5, 'positionName': 'RIGHT', 'positionCoords': [798.72, 227.5], 'bid': 9.79}]",115485.0,1669832228350,turkeysandwich,salmon,9.62,9.79,0.16999999999999993,salmon,960.6999998092651,961,961.3999998569489,True,i,116956.09999990463,1471.0999999046326,1669832229821,1471,HRV,HRV_0075,2022-11-30 18:20:02
70,"[{'imgObject': {}, 'id': 'blackbeanswithrice', 'src': '/static/foodstim60/blackbeanswithrice.jpg', 'key': 'u', 'origWidth': 410, 'origHeight': 410, 'width': 410, 'height': 410, 'widthPercent': 0.45, 'rescaleHeight': False, 'trialN': 70, 'loaded': True, 'loadedTime': 3736.5, 'positionName': 'LEFT', 'positionCoords': [327.28, 227], 'bid': 6.17}, {'imgObject': {}, 'id': 'luckycharms', 'src': '/static/foodstim60/luckycharms.jpg', 'key': 'i', 'origWidth': 410, 'origHeight': 409, 'width': 410, 'height': 409, 'widthPercent': 0.45, 'rescaleHeight': False, 'trialN': 70, 'loaded': True, 'loadedTime': 4094.399999856949, 'positionName': 'RIGHT', 'positionCoords': [798.72, 227.5], 'bid': 6.71}]",116956.5,1669832229821,blackbeanswithrice,luckycharms,6.17,6.71,0.54,blackbeanswithrice,829.3999998569489,831,830.2999999523163,True,u,118298.29999995232,1341.7999999523163,1669832231163,1342,HRV,HRV_0075,2022-11-30 18:20:02
71,"[{'imgObject': {}, 'id': 'baked potato', 'src': '/static/foodstim60/baked potato.jpg', 'key': 'u', 'origWidth': 409, 'origHeight': 410, 'width': 409, 'height': 410, 'widthPercent': 0.45, 'rescaleHeight': False, 'trialN': 71, 'loaded': True, 'loadedTime': 3972.199999809265, 'positionName': 'LEFT', 'positionCoords': [328.28, 227], 'bid': 6.4}, {'imgObject': {}, 'id': 'edamame', 'src': '/static/foodstim60/edamame.jpg', 'key': 'i', 'origWidth': 409, 'origHeight': 410, 'width': 409, 'height': 410, 'widthPercent': 0.45, 'rescaleHeight': False, 'trialN': 71, 'loaded': True, 'loadedTime': 3900, 'positionName': 'RIGHT', 'positionCoords': [798.72, 227], 'bid': 6.5600000000000005}]",118298.59999990463,1669832231164,baked potato,edamame,6.4,6.5600000000000005,0.16000000000000014,edamame,466.5,467,467.2999999523163,True,i,119273.29999995232,974.7000000476837,1669832232138,974,HRV,HRV_0075,2022-11-30 18:20:02
72,"[{'imgObject': {}, 'id': 'salad w chicken', 'src': '/static/foodstim60/salad w chicken.jpg', 'key': 'u', 'origWidth': 411, 'origHeight': 411, 'width': 411, 'height': 411, 'widthPercent': 0.45, 'rescaleHeight': False, 'trialN': 72, 'loaded': True, 'loadedTime': 4098.099999904633, 'positionName': 'LEFT', 'positionCoords': [326.28, 226.5], 'bid': 7.35}, {'imgObject': {}, 'id': 'hotdog w must', 'src': '/static/foodstim60/hotdog w must.jpg', 'key': 'i', 'origWidth': 409, 'origHeight': 409, 'width': 409, 'height': 409, 'widthPercent': 0.45, 'rescaleHeight': False, 'trialN': 72, 'loaded': True, 'loadedTime': 3809.0999999046326, 'positionName': 'RIGHT', 'positionCoords': [798.72, 227.5], 'bid': 6.0600000000000005}]",119273.79999995232,1669832232139,salad w chicken,hotdog w must,7.35,6.0600000000000005,-1.2899999999999991,salad w chicken,998.7999999523163,999,999.7000000476837,True,u,120793.0,1519.2000000476837,1669832233658,1519,HRV,HRV_0075,2022-11-30 18:20:02
73,"[{'imgObject': {}, 'id': 'edamame', 'src': '/static/foodstim60/edamame.jpg', 'key': 'u', 'origWidth': 409, 'origHeight': 410, 'width': 409, 'height': 410, 'widthPercent': 0.45, 'rescaleHeight': False, 'trialN': 73, 'loaded': True, 'loadedTime': 3899.899999856949, 'positionName': 'LEFT', 'positionCoords': [328.28, 227], 'bid': 6.5600000000000005}, {'imgObject': {}, 'id': 'cheerios', 'src': '/static/foodstim60/cheerios.jpg', 'key': 'i', 'origWidth': 409, 'origHeight': 410, 'width': 409, 'height': 410, 'widthPercent': 0.45, 'rescaleHeight': False, 'trialN': 73, 'loaded': True, 'loadedTime': 4053.2999999523163, 'positionName': 'RIGHT', 'positionCoords': [798.72, 227], 'bid': 6.04}]",120793.39999985695,1669832233658,edamame,cheerios,6.5600000000000005,6.04,-0.5200000000000005,edamame,673.1000001430511,674,673.9000000953674,True,u,121983.0,1189.6000001430511,1669832234848,1190,HRV,HRV_0075,2022-11-30 18:20:02
74,"[{'imgObject': {}, 'id': 'sweetpotato', 'src': '/static/foodstim60/sweetpotato.jpg', 'key': 'u', 'origWidth': 410, 'origHeight': 410, 'width': 410, 'height': 410, 'widthPercent': 0.45, 'rescaleHeight': False, 'trialN': 74, 'loaded': True, 'loadedTime': 3960.399999856949, 'positionName': 'LEFT', 'positionCoords': [327.28, 227], 'bid': 9.86}, {'imgObject': {}, 'id': 'lox', 'src': '/static/foodstim60/lox.jpg', 'key': 'i', 'origWidth': 410, 'origHeight': 411, 'width': 410, 'height': 411, 'widthPercent': 0.45, 'rescaleHeight': False, 'trialN': 74, 'loaded': True, 'loadedTime': 4099.5, 'positionName': 'RIGHT', 'positionCoords': [798.72, 226.5], 'bid': 9.88}]",121983.5,1669832234848,sweetpotato,lox,9.86,9.88,0.02000000000000135,lox,1341.3999998569489,1342,1342.0999999046326,True,i,123835.89999985695,1852.3999998569489,1669832236701,1853,HRV,HRV_0075,2022-11-30 18:20:02
75,"[{'imgObject': {}, 'id': 'blueberries', 'src': '/static/foodstim60/blueberries.jpg', 'key': 'u', 'origWidth': 411, 'origHeight': 411, 'width': 411, 'height': 411, 'widthPercent': 0.45, 'rescaleHeight': False, 'trialN': 75, 'loaded': True, 'loadedTime': 4050.399999856949, 'positionName': 'LEFT', 'positionCoords': [326.28, 226.5], 'bid': 6.84}, {'imgObject': {}, 'id': 'tacos', 'src': '/static/foodstim60/tacos.jpg', 'key': 'i', 'origWidth': 411, 'origHeight': 411, 'width': 411, 'height': 411, 'widthPercent': 0.45, 'rescaleHeight': False, 'trialN': 75, 'loaded': True, 'loadedTime': 3865.5, 'positionName': 'RIGHT', 'positionCoords': [798.72, 226.5], 'bid': 6.71}]",123836.29999995232,1669832236701,blueberries,tacos,6.84,6.71,-0.1299999999999999,blueberries,1012.0999999046326,1013,1013.0999999046326,True,u,125369.5,1533.2000000476837,1669832238234,1533,HRV,HRV_0075,2022-11-30 18:20:02
76,"[{'imgObject': {}, 'id': 'kiwi', 'src': '/static/foodstim60/kiwi.jpg', 'key': 'u', 'origWidth': 410, 'origHeight': 410, 'width': 410, 'height': 410, 'widthPercent': 0.45, 'rescaleHeight': False, 'trialN': 76, 'loaded': True, 'loadedTime': 4068.2999999523163, 'positionName': 'LEFT', 'positionCoords': [327.28, 227], 'bid': 8.8}, {'imgObject': {}, 'id': 'yogurt no spoon', 'src': '/static/foodstim60/yogurt no spoon.jpg', 'key': 'i', 'origWidth': 411, 'origHeight': 410, 'width': 411, 'height': 410, 'widthPercent': 0.45, 'rescaleHeight': False, 'trialN': 76, 'loaded': True, 'loadedTime': 3960.899999856949, 'positionName': 'RIGHT', 'positionCoords': [798.72, 227], 'bid': 9.16}]",125369.79999995232,1669832238235,kiwi,yogurt no spoon,8.8,9.16,0.35999999999999943,kiwi,688.0,689,689.0,True,u,126579.39999985695,1209.5999999046326,1669832239444,1209,HRV,HRV_0075,2022-11-30 18:20:02
77,"[{'imgObject': {}, 'id': 'mashed potato', 'src': '/static/foodstim60/mashed potato.jpg', 'key': 'u', 'origWidth': 409, 'origHeight': 409, 'width': 409, 'height': 409, 'widthPercent': 0.45, 'rescaleHeight': False, 'trialN': 77, 'loaded': True, 'loadedTime': 4005.0999999046326, 'positionName': 'LEFT', 'positionCoords': [328.28, 227.5], 'bid': 5.89}, {'imgObject': {}, 'id': 'sushi w_condiments', 'src': '/static/foodstim60/sushi w_condiments.jpg', 'key': 'i', 'origWidth': 410, 'origHeight': 410, 'width': 410, 'height': 410, 'widthPercent': 0.45, 'rescaleHeight': False, 'trialN': 77, 'loaded': True, 'loadedTime': 4011.699999809265, 'positionName': 'RIGHT', 'positionCoords': [798.72, 227], 'bid': 5.93}]",126580.0,1669832239445,mashed potato,sushi w_condiments,5.89,5.93,0.040000000000000036,mashed potato,1218.0999999046326,1219,1218.8999998569489,True,u,128302.5,1722.5,1669832241167,1722,HRV,HRV_0075,2022-11-30 18:20:02
78,"[{'imgObject': {}, 'id': 'granola w milk', 'src': '/static/foodstim60/granola w milk.jpg', 'key': 'u', 'origWidth': 410, 'origHeight': 410, 'width': 410, 'height': 410, 'widthPercent': 0.45, 'rescaleHeight': False, 'trialN': 78, 'loaded': True, 'loadedTime': 3793.699999809265, 'positionName': 'LEFT', 'positionCoords': [327.28, 227], 'bid': 6.92}, {'imgObject': {}, 'id': 'blueberries', 'src': '/static/foodstim60/blueberries.jpg', 'key': 'i', 'origWidth': 411, 'origHeight': 411, 'width': 411, 'height': 411, 'widthPercent': 0.45, 'rescaleHeight': False, 'trialN': 78, 'loaded': True, 'loadedTime': 4051.2999999523163, 'positionName': 'RIGHT', 'positionCoords': [798.72, 226.5], 'bid': 6.84}]",128302.79999995232,1669832241168,granola w milk,blueberries,6.92,6.84,-0.08000000000000007,blueberries,737.0,737,737.7000000476837,True,i,129545.09999990463,1242.2999999523163,1669832242410,1242,HRV,HRV_0075,2022-11-30 18:20:02
79,"[{'imgObject': {}, 'id': 'sushi w_condiments', 'src': '/static/foodstim60/sushi w_condiments.jpg', 'key': 'u', 'origWidth': 410, 'origHeight': 410, 'width': 410, 'height': 410, 'widthPercent': 0.45, 'rescaleHeight': False, 'trialN': 79, 'loaded': True, 'loadedTime': 4012.699999809265, 'positionName': 'LEFT', 'positionCoords': [327.28, 227], 'bid': 5.93}, {'imgObject': {}, 'id': 'olives', 'src': '/static/foodstim60/olives.jpg', 'key': 'i', 'origWidth': 410, 'origHeight': 410, 'width': 410, 'height': 410, 'widthPercent': 0.45, 'rescaleHeight': False, 'trialN': 79, 'loaded': True, 'loadedTime': 4075.2999999523163, 'positionName': 'RIGHT', 'positionCoords': [798.72, 227], 'bid': 4.73}]",129545.39999985695,1669832242410,sushi w_condiments,olives,5.93,4.73,-1.1999999999999993,olives,1188.7999999523163,1190,1189.6000001430511,True,i,131248.69999980927,1703.2999999523163,1669832244114,1704,HRV,HRV_0075,2022-11-30 18:20:02
80,"[{'imgObject': {}, 'id': 'popsicles', 'src': '/static/foodstim60/popsicles.jpg', 'key': 'u', 'origWidth': 410, 'origHeight': 410, 'width': 410, 'height': 410, 'widthPercent': 0.45, 'rescaleHeight': False, 'trialN': 80, 'loaded': True, 'loadedTime': 4118.599999904633, 'positionName': 'LEFT', 'positionCoords': [327.28, 227], 'bid': 8.97}, {'imgObject': {}, 'id': 'omelette', 'src': '/static/foodstim60/omelette.jpg', 'key': 'i', 'origWidth': 410, 'origHeight': 409, 'width': 410, 'height': 409, 'widthPercent': 0.45, 'rescaleHeight': False, 'trialN': 80, 'loaded': True, 'loadedTime': 3984.2999999523163, 'positionName': 'RIGHT', 'positionCoords': [798.72, 227.5], 'bid': 8.22}]",131249.29999995232,1669832244114,popsicles,omelette,8.97,8.22,-0.75,omelette,842.7999999523163,844,843.7000000476837,True,i,132601.5,1352.2000000476837,1669832245466,1352,HRV,HRV_0075,2022-11-30 18:20:02
81,"[{'imgObject': {}, 'id': 'froot loops w milk', 'src': '/static/foodstim60/froot loops w milk.jpg', 'key': 'u', 'origWidth': 410, 'origHeight': 410, 'width': 410, 'height': 410, 'widthPercent': 0.45, 'rescaleHeight': False, 'trialN': 81, 'loaded': True, 'loadedTime': 4076.899999856949, 'positionName': 'LEFT', 'positionCoords': [327.28, 227], 'bid': 6.34}, {'imgObject': {}, 'id': 'blueberries', 'src': '/static/foodstim60/blueberries.jpg', 'key': 'i', 'origWidth': 411, 'origHeight': 411, 'width': 411, 'height': 411, 'widthPercent': 0.45, 'rescaleHeight': False, 'trialN': 81, 'loaded': True, 'loadedTime': 4051.399999856949, 'positionName': 'RIGHT', 'positionCoords': [798.72, 226.5], 'bid': 6.84}]",132601.89999985695,1669832245467,froot loops w milk,blueberries,6.34,6.84,0.5,blueberries,728.7000000476837,729,729.5,True,i,133845.39999985695,1243.5,1669832246710,1243,HRV,HRV_0075,2022-11-30 18:20:02
82,"[{'imgObject': {}, 'id': 'cocktailshrimp', 'src': '/static/foodstim60/cocktailshrimp.jpg', 'key': 'u', 'origWidth': 410, 'origHeight': 410, 'width': 410, 'height': 410, 'widthPercent': 0.45, 'rescaleHeight': False, 'trialN': 82, 'loaded': True, 'loadedTime': 4091.7999999523163, 'positionName': 'LEFT', 'positionCoords': [327.28, 227], 'bid': 10}, {'imgObject': {}, 'id': 'turkeysandwich', 'src': '/static/foodstim60/turkeysandwich.jpg', 'key': 'i', 'origWidth': 409, 'origHeight': 409, 'width': 409, 'height': 409, 'widthPercent': 0.45, 'rescaleHeight': False, 'trialN': 82, 'loaded': True, 'loadedTime': 3855.199999809265, 'positionName': 'RIGHT', 'positionCoords': [798.72, 227.5], 'bid': 9.62}]",133845.59999990463,1669832246711,cocktailshrimp,turkeysandwich,10.0,9.62,-0.3800000000000008,cocktailshrimp,848.0,848,848.7999999523163,True,u,135201.79999995232,1356.2000000476837,1669832248067,1356,HRV,HRV_0075,2022-11-30 18:20:02
83,"[{'imgObject': {}, 'id': 'corn cob', 'src': '/static/foodstim60/corn cob.jpg', 'key': 'u', 'origWidth': 411, 'origHeight': 411, 'width': 411, 'height': 411, 'widthPercent': 0.45, 'rescaleHeight': False, 'trialN': 83, 'loaded': True, 'loadedTime': 4105, 'positionName': 'LEFT', 'positionCoords': [326.28, 226.5], 'bid': 6.26}, {'imgObject': {}, 'id': 'cantaloupe', 'src': '/static/foodstim60/cantaloupe.jpg', 'key': 'i', 'origWidth': 409, 'origHeight': 409, 'width': 409, 'height': 409, 'widthPercent': 0.45, 'rescaleHeight': False, 'trialN': 83, 'loaded': True, 'loadedTime': 4094.699999809265, 'positionName': 'RIGHT', 'positionCoords': [798.72, 227.5], 'bid': 9.01}]",135202.09999990463,1669832248067,corn cob,cantaloupe,6.26,9.01,2.75,corn cob,666.7000000476837,668,667.5999999046326,True,u,136387.09999990463,1185.0,1669832249252,1185,HRV,HRV_0075,2022-11-30 18:20:02
84,"[{'imgObject': {}, 'id': 'granola w milk', 'src': '/static/foodstim60/granola w milk.jpg', 'key': 'u', 'origWidth': 410, 'origHeight': 410, 'width': 410, 'height': 410, 'widthPercent': 0.45, 'rescaleHeight': False, 'trialN': 84, 'loaded': True, 'loadedTime': 3794.699999809265, 'positionName': 'LEFT', 'positionCoords': [327.28, 227], 'bid': 6.92}, {'imgObject': {}, 'id': 'raisin bran w milk', 'src': '/static/foodstim60/raisin bran w milk.jpg', 'key': 'i', 'origWidth': 411, 'origHeight': 411, 'width': 411, 'height': 411, 'widthPercent': 0.45, 'rescaleHeight': False, 'trialN': 84, 'loaded': True, 'loadedTime': 3898.199999809265, 'positionName': 'RIGHT', 'positionCoords': [798.72, 226.5], 'bid': 6.91}]",136387.79999995232,1669832249253,granola w milk,raisin bran w milk,6.92,6.91,-0.009999999999999787,granola w milk,926.5999999046326,927,927.2000000476837,True,u,137831.5,1443.7000000476837,1669832250696,1443,HRV,HRV_0075,2022-11-30 18:20:02
85,"[{'imgObject': {}, 'id': 'luckycharms', 'src': '/static/foodstim60/luckycharms.jpg', 'key': 'u', 'origWidth': 410, 'origHeight': 409, 'width': 410, 'height': 409, 'widthPercent': 0.45, 'rescaleHeight': False, 'trialN': 85, 'loaded': True, 'loadedTime': 4094.199999809265, 'positionName': 'LEFT', 'positionCoords': [327.28, 227.5], 'bid': 6.71}, {'imgObject': {}, 'id': 'Grapes', 'src': '/static/foodstim60/Grapes.jpg', 'key': 'i', 'origWidth': 411, 'origHeight': 411, 'width': 411, 'height': 411, 'widthPercent': 0.45, 'rescaleHeight': False, 'trialN': 85, 'loaded': True, 'loadedTime': 3802.0999999046326, 'positionName': 'RIGHT', 'positionCoords': [798.72, 226.5], 'bid': 6.4}]",137831.69999980927,1669832250697,luckycharms,Grapes,6.71,6.4,-0.3099999999999996,Grapes,637.9000000953674,638,638.5,True,i,138981.5,1149.8000001907349,1669832251846,1149,HRV,HRV_0075,2022-11-30 18:20:02
86,"[{'imgObject': {}, 'id': 'cocktailshrimp', 'src': '/static/foodstim60/cocktailshrimp.jpg', 'key': 'u', 'origWidth': 410, 'origHeight': 410, 'width': 410, 'height': 410, 'widthPercent': 0.45, 'rescaleHeight': False, 'trialN': 86, 'loaded': True, 'loadedTime': 4088.5999999046326, 'positionName': 'LEFT', 'positionCoords': [327.28, 227], 'bid': 10}, {'imgObject': {}, 'id': 'fried eggs', 'src': '/static/foodstim60/fried eggs.jpg', 'key': 'i', 'origWidth': 410, 'origHeight': 410, 'width': 410, 'height': 410, 'widthPercent': 0.45, 'rescaleHeight': False, 'trialN': 86, 'loaded': True, 'loadedTime': 3939, 'positionName': 'RIGHT', 'positionCoords': [798.72, 227], 'bid': 9.97}]",138981.79999995232,1669832251847,cocktailshrimp,fried eggs,10.0,9.97,-0.02999999999999936,fried eggs,686.5999999046326,687,687.2999999523163,True,i,140178.69999980927,1196.8999998569489,1669832253044,1197,HRV,HRV_0075,2022-11-30 18:20:02
87,"[{'imgObject': {}, 'id': 'bagel and cc', 'src': '/static/foodstim60/bagel and cc.jpg', 'key': 'u', 'origWidth': 410, 'origHeight': 410, 'width': 410, 'height': 410, 'widthPercent': 0.45, 'rescaleHeight': False, 'trialN': 87, 'loaded': True, 'loadedTime': 3888.699999809265, 'positionName': 'LEFT', 'positionCoords': [327.28, 227], 'bid': 5.26}, {'imgObject': {}, 'id': 'cheerios', 'src': '/static/foodstim60/cheerios.jpg', 'key': 'i', 'origWidth': 409, 'origHeight': 410, 'width': 409, 'height': 410, 'widthPercent': 0.45, 'rescaleHeight': False, 'trialN': 87, 'loaded': True, 'loadedTime': 4052.899999856949, 'positionName': 'RIGHT', 'positionCoords': [798.72, 227], 'bid': 6.04}]",140179.59999990463,1669832253044,bagel and cc,cheerios,5.26,6.04,0.7800000000000002,cheerios,2183.2000000476837,2185,2184.0,True,i,142878.0,2698.4000000953674,1669832255743,2699,HRV,HRV_0075,2022-11-30 18:20:02
88,"[{'imgObject': {}, 'id': 'avocado', 'src': '/static/foodstim60/avocado.jpg', 'key': 'u', 'origWidth': 409, 'origHeight': 409, 'width': 409, 'height': 409, 'widthPercent': 0.45, 'rescaleHeight': False, 'trialN': 88, 'loaded': True, 'loadedTime': 4106.5, 'positionName': 'LEFT', 'positionCoords': [328.28, 227.5], 'bid': 7.83}, {'imgObject': {}, 'id': 'turkey sandwich', 'src': '/static/foodstim60/turkey sandwich.jpg', 'key': 'i', 'origWidth': 409, 'origHeight': 409, 'width': 409, 'height': 409, 'widthPercent': 0.45, 'rescaleHeight': False, 'trialN': 88, 'loaded': True, 'loadedTime': 3973.7999999523163, 'positionName': 'RIGHT', 'positionCoords': [798.72, 227.5], 'bid': 7.44}]",142878.29999995232,1669832255743,avocado,turkey sandwich,7.83,7.44,-0.3899999999999997,avocado,854.0999999046326,855,854.7999999523163,True,u,144254.09999990463,1375.7999999523163,1669832257119,1376,HRV,HRV_0075,2022-11-30 18:20:02
89,"[{'imgObject': {}, 'id': 'chicken nuggets2', 'src': '/static/foodstim60/chicken nuggets2.jpg', 'key': 'u', 'origWidth': 410, 'origHeight': 409, 'width': 410, 'height': 409, 'widthPercent': 0.45, 'rescaleHeight': False, 'trialN': 89, 'loaded': True, 'loadedTime': 4070.0999999046326, 'positionName': 'LEFT', 'positionCoords': [327.28, 227.5], 'bid': 8.99}, {'imgObject': {}, 'id': 'hashbrowns', 'src': '/static/foodstim60/hashbrowns.jpg', 'key': 'i', 'origWidth': 411, 'origHeight': 410, 'width': 411, 'height': 410, 'widthPercent': 0.45, 'rescaleHeight': False, 'trialN': 89, 'loaded': True, 'loadedTime': 4015.5, 'positionName': 'RIGHT', 'positionCoords': [798.72, 227], 'bid': 8.43}]",144254.5,1669832257119,chicken nuggets2,hashbrowns,8.99,8.43,-0.5600000000000005,chicken nuggets2,706.2999999523163,707,707.0,True,u,145475.09999990463,1220.5999999046326,1669832258340,1221,HRV,HRV_0075,2022-11-30 18:20:02
90,"[{'imgObject': {}, 'id': 'eggsalad', 'src': '/static/foodstim60/eggsalad.jpg', 'key': 'u', 'origWidth': 410, 'origHeight': 409, 'width': 410, 'height': 409, 'widthPercent': 0.45, 'rescaleHeight': False, 'trialN': 90, 'loaded': True, 'loadedTime': 3843.899999856949, 'positionName': 'LEFT', 'positionCoords': [327.28, 227.5], 'bid': 9.47}, {'imgObject': {}, 'id': 'sweetpotato', 'src': '/static/foodstim60/sweetpotato.jpg', 'key': 'i', 'origWidth': 410, 'origHeight': 410, 'width': 410, 'height': 410, 'widthPercent': 0.45, 'rescaleHeight': False, 'trialN': 90, 'loaded': True, 'loadedTime': 3952.699999809265, 'positionName': 'RIGHT', 'positionCoords': [798.72, 227], 'bid': 9.86}]",149755.69999980927,1669832262621,eggsalad,sweetpotato,9.47,9.86,0.3899999999999988,sweetpotato,1531.4000000953674,1532,1532.4000000953674,True,i,151790.09999990463,2034.4000000953674,1669832264655,2034,HRV,HRV_0075,2022-11-30 18:20:02
91,"[{'imgObject': {}, 'id': 'lox', 'src': '/static/foodstim60/lox.jpg', 'key': 'u', 'origWidth': 410, 'origHeight': 411, 'width': 410, 'height': 411, 'widthPercent': 0.45, 'rescaleHeight': False, 'trialN': 91, 'loaded': True, 'loadedTime': 4100.5, 'positionName': 'LEFT', 'positionCoords': [327.28, 226.5], 'bid': 9.88}, {'imgObject': {}, 'id': 'turkeysandwich', 'src': '/static/foodstim60/turkeysandwich.jpg', 'key': 'i', 'origWidth': 409, 'origHeight': 409, 'width': 409, 'height': 409, 'widthPercent': 0.45, 'rescaleHeight': False, 'trialN': 91, 'loaded': True, 'loadedTime': 3865.2999999523163, 'positionName': 'RIGHT', 'positionCoords': [798.72, 227.5], 'bid': 9.62}]",151791.09999990463,1669832264656,lox,turkeysandwich,9.88,9.62,-0.26000000000000156,lox,1047.5,1048,1048.4000000953674,True,u,153343.39999985695,1552.2999999523163,1669832266208,1552,HRV,HRV_0075,2022-11-30 18:20:02
92,"[{'imgObject': {}, 'id': 'grilled chicken strips', 'src': '/static/foodstim60/grilled chicken strips.jpg', 'key': 'u', 'origWidth': 410, 'origHeight': 411, 'width': 410, 'height': 411, 'widthPercent': 0.45, 'rescaleHeight': False, 'trialN': 92, 'loaded': True, 'loadedTime': 3833.199999809265, 'positionName': 'LEFT', 'positionCoords': [327.28, 226.5], 'bid': 9.86}, {'imgObject': {}, 'id': 'cocktailshrimp', 'src': '/static/foodstim60/cocktailshrimp.jpg', 'key': 'i', 'origWidth': 410, 'origHeight': 410, 'width': 410, 'height': 410, 'widthPercent': 0.45, 'rescaleHeight': False, 'trialN': 92, 'loaded': True, 'loadedTime': 4090.7999999523163, 'positionName': 'RIGHT', 'positionCoords': [798.72, 227], 'bid': 10}]",153344.09999990463,1669832266209,grilled chicken strips,cocktailshrimp,9.86,10.0,0.14000000000000057,cocktailshrimp,1014.0,1015,1014.7000000476837,True,i,154871.29999995232,1527.2000000476837,1669832267736,1527,HRV,HRV_0075,2022-11-30 18:20:02
93,"[{'imgObject': {}, 'id': 'steak', 'src': '/static/foodstim60/steak.jpg', 'key': 'u', 'origWidth': 410, 'origHeight': 410, 'width': 410, 'height': 410, 'widthPercent': 0.45, 'rescaleHeight': False, 'trialN': 93, 'loaded': True, 'loadedTime': 3842.5, 'positionName': 'LEFT', 'positionCoords': [327.28, 227], 'bid': 9.84}, {'imgObject': {}, 'id': 'fried eggs', 'src': '/static/foodstim60/fried eggs.jpg', 'key': 'i', 'origWidth': 410, 'origHeight': 410, 'width': 410, 'height': 410, 'widthPercent': 0.45, 'rescaleHeight': False, 'trialN': 93, 'loaded': True, 'loadedTime': 3930.5, 'positionName': 'RIGHT', 'positionCoords': [798.72, 227], 'bid': 9.97}]",154871.59999990463,1669832267736,steak,fried eggs,9.84,9.97,0.13000000000000078,fried eggs,632.5,634,633.2999999523163,True,i,156011.09999990463,1139.5,1669832268876,1140,HRV,HRV_0075,2022-11-30 18:20:02
94,"[{'imgObject': {}, 'id': 'mac & cheese', 'src': '/static/foodstim60/mac & cheese.jpg', 'key': 'u', 'origWidth': 410, 'origHeight': 410, 'width': 410, 'height': 410, 'widthPercent': 0.45, 'rescaleHeight': False, 'trialN': 94, 'loaded': True, 'loadedTime': 3939.5, 'positionName': 'LEFT', 'positionCoords': [327.28, 227], 'bid': 9.9}, {'imgObject': {}, 'id': 'yogurt no spoon', 'src': '/static/foodstim60/yogurt no spoon.jpg', 'key': 'i', 'origWidth': 411, 'origHeight': 410, 'width': 411, 'height': 410, 'widthPercent': 0.45, 'rescaleHeight': False, 'trialN': 94, 'loaded': True, 'loadedTime': 3962.399999856949, 'positionName': 'RIGHT', 'positionCoords': [798.72, 227], 'bid': 9.16}]",156011.29999995232,1669832268876,mac & cheese,yogurt no spoon,9.9,9.16,-0.7400000000000002,yogurt no spoon,1783.7000000476837,1785,1784.5,True,i,158311.39999985695,2300.0999999046326,1669832271176,2300,HRV,HRV_0075,2022-11-30 18:20:02
95,"[{'imgObject': {}, 'id': 'sweetpotato', 'src': '/static/foodstim60/sweetpotato.jpg', 'key': 'u', 'origWidth': 410, 'origHeight': 410, 'width': 410, 'height': 410, 'widthPercent': 0.45, 'rescaleHeight': False, 'trialN': 95, 'loaded': True, 'loadedTime': 3952.7999999523163, 'positionName': 'LEFT', 'positionCoords': [327.28, 227], 'bid': 9.86}, {'imgObject': {}, 'id': 'cantaloupe', 'src': '/static/foodstim60/cantaloupe.jpg', 'key': 'i', 'origWidth': 409, 'origHeight': 409, 'width': 409, 'height': 409, 'widthPercent': 0.45, 'rescaleHeight': False, 'trialN': 95, 'loaded': True, 'loadedTime': 4096.199999809265, 'positionName': 'RIGHT', 'positionCoords': [798.72, 227.5], 'bid': 9.01}]",158311.59999990463,1669832271176,sweetpotato,cantaloupe,9.86,9.01,-0.8499999999999996,cantaloupe,1054.7999999523163,1056,1055.5999999046326,True,i,159879.39999985695,1567.7999999523163,1669832272744,1568,HRV,HRV_0075,2022-11-30 18:20:02
96,"[{'imgObject': {}, 'id': 'bagel plain', 'src': '/static/foodstim60/bagel plain.jpg', 'key': 'u', 'origWidth': 410, 'origHeight': 410, 'width': 410, 'height': 410, 'widthPercent': 0.45, 'rescaleHeight': False, 'trialN': 96, 'loaded': True, 'loadedTime': 3907.7999999523163, 'positionName': 'LEFT', 'positionCoords': [327.28, 227], 'bid': 6.08}, {'imgObject': {}, 'id': 'blackbeanswithrice', 'src': '/static/foodstim60/blackbeanswithrice.jpg', 'key': 'i', 'origWidth': 410, 'origHeight': 410, 'width': 410, 'height': 410, 'widthPercent': 0.45, 'rescaleHeight': False, 'trialN': 96, 'loaded': True, 'loadedTime': 3736.699999809265, 'positionName': 'RIGHT', 'positionCoords': [798.72, 227], 'bid': 6.17}]",159879.59999990463,1669832272745,bagel plain,blackbeanswithrice,6.08,6.17,0.08999999999999986,blackbeanswithrice,919.0,920,920.2999999523163,True,i,161305.29999995232,1425.7000000476837,1669832274170,1425,HRV,HRV_0075,2022-11-30 18:20:02
97,"[{'imgObject': {}, 'id': 'banana', 'src': '/static/foodstim60/banana.jpg', 'key': 'u', 'origWidth': 410, 'origHeight': 410, 'width': 410, 'height': 410, 'widthPercent': 0.45, 'rescaleHeight': False, 'trialN': 97, 'loaded': True, 'loadedTime': 3982.899999856949, 'positionName': 'LEFT', 'positionCoords': [327.28, 227], 'bid': 5.93}, {'imgObject': {}, 'id': 'pear', 'src': '/static/foodstim60/pear.jpg', 'key': 'i', 'origWidth': 411, 'origHeight': 410, 'width': 411, 'height': 410, 'widthPercent': 0.45, 'rescaleHeight': False, 'trialN': 97, 'loaded': True, 'loadedTime': 3910.5, 'positionName': 'RIGHT', 'positionCoords': [798.72, 227], 'bid': 5.7}]",161305.69999980927,1669832274171,banana,pear,5.93,5.7,-0.22999999999999954,banana,696.1000001430511,696,696.8000001907349,True,u,162512.79999995232,1207.1000001430511,1669832275378,1207,HRV,HRV_0075,2022-11-30 18:20:02
98,"[{'imgObject': {}, 'id': 'edamame', 'src': '/static/foodstim60/edamame.jpg', 'key': 'u', 'origWidth': 409, 'origHeight': 410, 'width': 409, 'height': 410, 'widthPercent': 0.45, 'rescaleHeight': False, 'trialN': 98, 'loaded': True, 'loadedTime': 3900.199999809265, 'positionName': 'LEFT', 'positionCoords': [328.28, 227], 'bid': 6.5600000000000005}, {'imgObject': {}, 'id': 'eggsalad', 'src': '/static/foodstim60/eggsalad.jpg', 'key': 'i', 'origWidth': 410, 'origHeight': 409, 'width': 410, 'height': 409, 'widthPercent': 0.45, 'rescaleHeight': False, 'trialN': 98, 'loaded': True, 'loadedTime': 3854.399999856949, 'positionName': 'RIGHT', 'positionCoords': [798.72, 227.5], 'bid': 9.47}]",162513.29999995232,1669832275378,edamame,eggsalad,6.5600000000000005,9.47,2.91,edamame,1018.3999998569489,1020,1019.0999999046326,True,u,164044.09999990463,1530.7999999523163,1669832276909,1531,HRV,HRV_0075,2022-11-30 18:20:02
99,"[{'imgObject': {}, 'id': 'strawberries', 'src': '/static/foodstim60/strawberries.jpg', 'key': 'u', 'origWidth': 410, 'origHeight': 410, 'width': 410, 'height': 410, 'widthPercent': 0.45, 'rescaleHeight': False, 'trialN': 99, 'loaded': True, 'loadedTime': 4039.699999809265, 'positionName': 'LEFT', 'positionCoords': [327.28, 227], 'bid': 7.08}, {'imgObject': {}, 'id': 'sweetpotato', 'src': '/static/foodstim60/sweetpotato.jpg', 'key': 'i', 'origWidth': 410, 'origHeight': 410, 'width': 410, 'height': 410, 'widthPercent': 0.45, 'rescaleHeight': False, 'trialN': 99, 'loaded': True, 'loadedTime': 3951.399999856949, 'positionName': 'RIGHT', 'positionCoords': [798.72, 227], 'bid': 9.86}]",164044.59999990463,1669832276910,strawberries,sweetpotato,7.08,9.86,2.7799999999999994,strawberries,1335.5,1336,1336.4000000953674,True,u,165896.09999990463,1851.5,1669832278761,1851,HRV,HRV_0075,2022-11-30 18:20:02
100,"[{'imgObject': {}, 'id': 'omelette', 'src': '/static/foodstim60/omelette.jpg', 'key': 'u', 'origWidth': 410, 'origHeight': 409, 'width': 410, 'height': 409, 'widthPercent': 0.45, 'rescaleHeight': False, 'trialN': 100, 'loaded': True, 'loadedTime': 3984.699999809265, 'positionName': 'LEFT', 'positionCoords': [327.28, 227.5], 'bid': 8.22}, {'imgObject': {}, 'id': 'hashbrowns', 'src': '/static/foodstim60/hashbrowns.jpg', 'key': 'i', 'origWidth': 411, 'origHeight': 410, 'width': 411, 'height': 410, 'widthPercent': 0.45, 'rescaleHeight': False, 'trialN': 100, 'loaded': True, 'loadedTime': 4014, 'positionName': 'RIGHT', 'positionCoords': [798.72, 227], 'bid': 8.43}]",165896.5,1669832278762,omelette,hashbrowns,8.22,8.43,0.20999999999999908,omelette,852.6999998092651,853,853.6999998092651,True,u,167258.69999980927,1362.1999998092651,1669832280124,1362,HRV,HRV_0075,2022-11-30 18:20:02
101,"[{'imgObject': {}, 'id': 'yogurt no spoon', 'src': '/static/foodstim60/yogurt no spoon.jpg', 'key': 'u', 'origWidth': 411, 'origHeight': 410, 'width': 411, 'height': 410, 'widthPercent': 0.45, 'rescaleHeight': False, 'trialN': 101, 'loaded': True, 'loadedTime': 3970.0999999046326, 'positionName': 'LEFT', 'positionCoords': [326.28, 227], 'bid': 9.16}, {'imgObject': {}, 'id': 'seaweed', 'src': '/static/foodstim60/seaweed.jpg', 'key': 'i', 'origWidth': 410, 'origHeight': 410, 'width': 410, 'height': 410, 'widthPercent': 0.45, 'rescaleHeight': False, 'trialN': 101, 'loaded': True, 'loadedTime': 3781.399999856949, 'positionName': 'RIGHT', 'positionCoords': [798.72, 227], 'bid': 7.76}]",167259.39999985695,1669832280125,yogurt no spoon,seaweed,9.16,7.76,-1.4000000000000004,yogurt no spoon,753.1000001430511,753,753.9000000953674,True,u,168524.39999985695,1265.0,1669832281390,1265,HRV,HRV_0075,2022-11-30 18:20:02
102,"[{'imgObject': {}, 'id': 'chicken nuggets2', 'src': '/static/foodstim60/chicken nuggets2.jpg', 'key': 'u', 'origWidth': 410, 'origHeight': 409, 'width': 410, 'height': 409, 'widthPercent': 0.45, 'rescaleHeight': False, 'trialN': 102, 'loaded': True, 'loadedTime': 4073.5999999046326, 'positionName': 'LEFT', 'positionCoords': [327.28, 227.5], 'bid': 8.99}, {'imgObject': {}, 'id': 'grilled chicken strips', 'src': '/static/foodstim60/grilled chicken strips.jpg', 'key': 'i', 'origWidth': 410, 'origHeight': 411, 'width': 410, 'height': 411, 'widthPercent': 0.45, 'rescaleHeight': False, 'trialN': 102, 'loaded': True, 'loadedTime': 3833.699999809265, 'positionName': 'RIGHT', 'positionCoords': [798.72, 226.5], 'bid': 9.86}]",168524.69999980927,1669832281390,chicken nuggets2,grilled chicken strips,8.99,9.86,0.8699999999999992,chicken nuggets2,719.3000001907349,720,720.1000001430511,True,u,169758.0,1233.3000001907349,1669832282623,1233,HRV,HRV_0075,2022-11-30 18:20:02
103,"[{'imgObject': {}, 'id': 'cherry tomato', 'src': '/static/foodstim60/cherry tomato.jpg', 'key': 'u', 'origWidth': 410, 'origHeight': 410, 'width': 410, 'height': 410, 'widthPercent': 0.45, 'rescaleHeight': False, 'trialN': 103, 'loaded': True, 'loadedTime': 4088.199999809265, 'positionName': 'LEFT', 'positionCoords': [327.28, 227], 'bid': 7.96}, {'imgObject': {}, 'id': 'mango', 'src': '/static/foodstim60/mango.jpg', 'key': 'i', 'origWidth': 411, 'origHeight': 411, 'width': 411, 'height': 411, 'widthPercent': 0.45, 'rescaleHeight': False, 'trialN': 103, 'loaded': True, 'loadedTime': 3993.5999999046326, 'positionName': 'RIGHT', 'positionCoords': [798.72, 226.5], 'bid': 7.82}]",169758.5,1669832282624,cherry tomato,mango,7.96,7.82,-0.13999999999999968,mango,807.0999999046326,807,807.7999999523163,True,i,171071.59999990463,1313.0999999046326,1669832283937,1313,HRV,HRV_0075,2022-11-30 18:20:02
104,"[{'imgObject': {}, 'id': 'rigatoni', 'src': '/static/foodstim60/rigatoni.jpg', 'key': 'u', 'origWidth': 411, 'origHeight': 411, 'width': 411, 'height': 411, 'widthPercent': 0.45, 'rescaleHeight': False, 'trialN': 104, 'loaded': True, 'loadedTime': 4109.899999856949, 'positionName': 'LEFT', 'positionCoords': [326.28, 226.5], 'bid': 9.34}, {'imgObject': {}, 'id': 'Tribe humus pita', 'src': '/static/foodstim60/Tribe humus pita.jpg', 'key': 'i', 'origWidth': 411, 'origHeight': 411, 'width': 411, 'height': 411, 'widthPercent': 0.45, 'rescaleHeight': False, 'trialN': 104, 'loaded': True, 'loadedTime': 4002.5, 'positionName': 'RIGHT', 'positionCoords': [798.72, 226.5], 'bid': 7.81}]",171072.19999980927,1669832283937,rigatoni,Tribe humus pita,9.34,7.81,-1.5300000000000002,Tribe humus pita,761.0,762,761.8000001907349,True,i,172342.69999980927,1270.5,1669832285208,1271,HRV,HRV_0075,2022-11-30 18:20:02
105,"[{'imgObject': {}, 'id': 'burger', 'src': '/static/foodstim60/burger.jpg', 'key': 'u', 'origWidth': 409, 'origHeight': 409, 'width': 409, 'height': 409, 'widthPercent': 0.45, 'rescaleHeight': False, 'trialN': 105, 'loaded': True, 'loadedTime': 3779.7999999523163, 'positionName': 'LEFT', 'positionCoords': [328.28, 227.5], 'bid': 7.16}, {'imgObject': {}, 'id': 'lox', 'src': '/static/foodstim60/lox.jpg', 'key': 'i', 'origWidth': 410, 'origHeight': 411, 'width': 410, 'height': 411, 'widthPercent': 0.45, 'rescaleHeight': False, 'trialN': 105, 'loaded': True, 'loadedTime': 4099.899999856949, 'positionName': 'RIGHT', 'positionCoords': [798.72, 226.5], 'bid': 9.88}]",172343.29999995232,1669832285208,burger,lox,7.16,9.88,2.7200000000000006,lox,873.8999998569489,875,874.5,True,i,173729.5,1386.2000000476837,1669832286595,1387,HRV,HRV_0075,2022-11-30 18:20:02
106,"[{'imgObject': {}, 'id': 'Tribe humus pita', 'src': '/static/foodstim60/Tribe humus pita.jpg', 'key': 'u', 'origWidth': 411, 'origHeight': 411, 'width': 411, 'height': 411, 'widthPercent': 0.45, 'rescaleHeight': False, 'trialN': 106, 'loaded': True, 'loadedTime': 4002.199999809265, 'positionName': 'LEFT', 'positionCoords': [326.28, 226.5], 'bid': 7.81}, {'imgObject': {}, 'id': 'salad w chicken', 'src': '/static/foodstim60/salad w chicken.jpg', 'key': 'i', 'origWidth': 411, 'origHeight': 411, 'width': 411, 'height': 411, 'widthPercent': 0.45, 'rescaleHeight': False, 'trialN': 106, 'loaded': True, 'loadedTime': 4097.899999856949, 'positionName': 'RIGHT', 'positionCoords': [798.72, 226.5], 'bid': 7.35}]",173729.79999995232,1669832286595,Tribe humus pita,salad w chicken,7.81,7.35,-0.45999999999999996,salad w chicken,1034.5999999046326,1035,1035.3999998569489,True,i,175276.29999995232,1546.5,1669832288141,1546,HRV,HRV_0075,2022-11-30 18:20:02
107,"[{'imgObject': {}, 'id': 'grilled chicken strips', 'src': '/static/foodstim60/grilled chicken strips.jpg', 'key': 'u', 'origWidth': 410, 'origHeight': 411, 'width': 410, 'height': 411, 'widthPercent': 0.45, 'rescaleHeight': False, 'trialN': 107, 'loaded': True, 'loadedTime': 3826, 'positionName': 'LEFT', 'positionCoords': [327.28, 226.5], 'bid': 9.86}, {'imgObject': {}, 'id': 'lox', 'src': '/static/foodstim60/lox.jpg', 'key': 'i', 'origWidth': 410, 'origHeight': 411, 'width': 410, 'height': 411, 'widthPercent': 0.45, 'rescaleHeight': False, 'trialN': 107, 'loaded': True, 'loadedTime': 4099.599999904633, 'positionName': 'RIGHT', 'positionCoords': [798.72, 226.5], 'bid': 9.88}]",175276.59999990463,1669832288142,grilled chicken strips,lox,9.86,9.88,0.02000000000000135,lox,818.9000000953674,819,819.7000000476837,True,i,176608.09999990463,1331.5,1669832289473,1331,HRV,HRV_0075,2022-11-30 18:20:02
108,"[{'imgObject': {}, 'id': 'cherry tomato', 'src': '/static/foodstim60/cherry tomato.jpg', 'key': 'u', 'origWidth': 410, 'origHeight': 410, 'width': 410, 'height': 410, 'widthPercent': 0.45, 'rescaleHeight': False, 'trialN': 108, 'loaded': True, 'loadedTime': 4079.7999999523163, 'positionName': 'LEFT', 'positionCoords': [327.28, 227], 'bid': 7.96}, {'imgObject': {}, 'id': 'burger', 'src': '/static/foodstim60/burger.jpg', 'key': 'i', 'origWidth': 409, 'origHeight': 409, 'width': 409, 'height': 409, 'widthPercent': 0.45, 'rescaleHeight': False, 'trialN': 108, 'loaded': True, 'loadedTime': 3779.2999999523163, 'positionName': 'RIGHT', 'positionCoords': [798.72, 227.5], 'bid': 7.16}]",176608.59999990463,1669832289474,cherry tomato,burger,7.96,7.16,-0.7999999999999998,burger,976.7000000476837,977,977.5999999046326,True,i,178104.69999980927,1496.0999999046326,1669832290970,1496,HRV,HRV_0075,2022-11-30 18:20:02
