success,trial_type,trial_index,time_elapsed,internal_node_id,Block,TrialNumber,TrialTime,trialTimeDiff,FPS_avg,FPS_med,FPS_mode,TrialDur,winResizeTime,rt,block,button_pressed,MotCoh,MotDir,ColCoh,Color,ChoiceKey,Choice,Accuracy,RT,nFrames,FPS,PPD,missTrial,missTrialMsg,onsetDelay,fullScreenExitTime,canvCenter,TrialType,Score,BlockTrial,stimulus,button_labels,exp,subjectId,date
True,fullscreen,0,1875,0.0-0.0,0.0,1.0,,,,,,,,,,,,,,,,,,,,,,,,,,,,,,,,HRV,HRV_0164,2022-11-30 18:31:14
,wl-check-fps,1,6869,0.0-1.0,0.0,2.0,"[2343.9, 2351.7, 2370.2, 2385.8, 2401.7, 2418.3, 2435, 2451.7, 2468.6, 2485.7, 2502.6, 2518.5, 2535.7, 2552, 2568.7, 2585, 2601.6, 2618.3, 2634.9, 2651.5, 2668.2, 2684.9, 2701.4, 2718.2, 2735.5, 2751.5, 2768.1, 2784.9, 2801.4, 2818.1, 2835.8, 2851.4, 2868.1, 2884.7, 2901.3, 2918.1, 2934.8, 2951.3, 2968.1, 2985.5, 3001.3, 3018, 3034.7, 3051.3, 3067.9, 3084.8, 3101.3, 3117.9, 3134.6, 3151.2, 3168, 3184.6, 3201.2, 3218, 3234.5, 3251.9, 3268.1, 3284.6, 3301.1, 3317.9, 3334.7, 3351.5, 3367.9, 3384.8, 3401.1, 3419.2, 3434.5, 3451, 3467.8, 3485.8, 3501.6, 3518.7, 3535.4, 3551.6, 3568, 3585.1, 3601.7, 3618.4, 3635.3, 3651.7, 3668.3, 3685.1, 3701.5, 3718.5, 3735.3, 3751.4, 3767.8, 3785.2, 3801.5, 3818.6, 3834.4, 3851.4, 3867.5, 3884.2, 3900.7, 3917.5, 3934.1, 3950.8, 3967.5, 3984.2, 4000.7, 4017.7, 4034.2, 4050.7, 4067.5, 4084.1, 4100.6, 4117.3, 4134.7, 4150.6, 4167.6, 4184.3, 4201.1, 4217.6, 4234, 4250.6, 4267.4, 4284.5, 4300.6, 4317.6, 4333.9, 4350.5, 4367.2, 4384.4, 4400.6, 4417.3, 4434.4, 4450.5, 4467.9, 4483.9, 4500.4, 4517.3, 4533.9, 4550.4, 4567.1, 4583.8, 4600.4, 4617.1, 4633.8, 4650.4, 4667.2, 4683.8, 4700.4, 4717.1, 4733.7, 4750.3, 4767.2, 4784.5, 4800.3, 4817, 4833.6, 4850.3, 4867, 4883.8, 4900.2, 4917.6, 4933.7, 4950.2, 4966.9, 4983.6, 5000.1, 5017, 5033.5, 5050.2, 5066.8, 5083.5, 5100.1, 5116.8, 5134.3, 5150.2, 5167.4, 5183.5, 5200.2, 5217, 5233.4, 5250, 5266.8, 5283.4, 5300, 5317.4, 5333.3, 5350, 5366.7, 5383.2, 5400.1, 5416.7, 5433.3, 5449.9, 5467, 5483.4, 5499.9, 5517.5, 5533.5, 5549.9, 5567.1, 5583.2, 5599.8, 5616.6, 5633.2, 5649.8, 5666.8, 5683.1, 5700.5, 5716.5, 5733, 5749.7, 5766.5, 5783, 5799.6, 5816.6, 5833, 5849.6, 5867, 5883.1, 5899.6, 5916.4, 5932.9, 5949.6, 5966.5, 5983.1, 6000.5, 6017, 6033.5, 6050.4, 6067.5, 6084.5, 6099.6, 6117.4, 6134.3, 6150.6, 6167.3, 6184.4, 6200.3, 6217.5, 6233.9, 6250.1, 6267.3, 6283.8, 6299.8, 6317.4, 6333.9, 6350.6, 6367.4, 6384.3, 6400.2, 6417.3, 6433.6, 6450.1, 6467.3, 6483.9, 6499.5, 6516.6, 6533.9, 6550.5, 6568.6, 6583.8, 6600.1, 6617.1, 6633.3, 6649.8, 6666.4, 6682.9, 6699.2, 6716.7, 6732.5, 6749.2, 6766.2, 6782.5, 6799.2, 6815.9, 6832.5, 6849.1, 6865.8, 6882.6, 6899.1, 6916.5, 6932.4, 6949.2, 6965.7, 6982.4, 6999, 7016.2, 7032.4, 7049.1, 7066, 7082.7, 7099.7, 7117.1, 7133, 7149.6, 7166.7, 7183, 7199.8, 7216.6, 7232.8, 7249.6, 7266.3, 7283, 7299.6, 7316.1]","[1.7, 7.8, 18.5, 15.6, 15.9, 16.6, 16.7, 16.7, 16.9, 17.1, 16.9, 15.9, 17.2, 16.3, 16.7, 16.3, 16.6, 16.7, 16.6, 16.6, 16.7, 16.7, 16.5, 16.8, 17.3, 16, 16.6, 16.8, 16.5, 16.7, 17.7, 15.6, 16.7, 16.6, 16.6, 16.8, 16.7, 16.5, 16.8, 17.4, 15.8, 16.7, 16.7, 16.6, 16.6, 16.9, 16.5, 16.6, 16.7, 16.6, 16.8, 16.6, 16.6, 16.8, 16.5, 17.4, 16.2, 16.5, 16.5, 16.8, 16.8, 16.8, 16.4, 16.9, 16.3, 18.1, 15.3, 16.5, 16.8, 18, 15.8, 17.1, 16.7, 16.2, 16.4, 17.1, 16.6, 16.7, 16.9, 16.4, 16.6, 16.8, 16.4, 17, 16.8, 16.1, 16.4, 17.4, 16.3, 17.1, 15.8, 17, 16.1, 16.7, 16.5, 16.8, 16.6, 16.7, 16.7, 16.7, 16.5, 17, 16.5, 16.5, 16.8, 16.6, 16.5, 16.7, 17.4, 15.9, 17, 16.7, 16.8, 16.5, 16.4, 16.6, 16.8, 17.1, 16.1, 17, 16.3, 16.6, 16.7, 17.2, 16.2, 16.7, 17.1, 16.1, 17.4, 16, 16.5, 16.9, 16.6, 16.5, 16.7, 16.7, 16.6, 16.7, 16.7, 16.6, 16.8, 16.6, 16.6, 16.7, 16.6, 16.6, 16.9, 17.3, 15.8, 16.7, 16.6, 16.7, 16.7, 16.8, 16.4, 17.4, 16.1, 16.5, 16.7, 16.7, 16.5, 16.9, 16.5, 16.7, 16.6, 16.7, 16.6, 16.7, 17.5, 15.9, 17.2, 16.1, 16.7, 16.8, 16.4, 16.6, 16.8, 16.6, 16.6, 17.4, 15.9, 16.7, 16.7, 16.5, 16.9, 16.6, 16.6, 16.6, 17.1, 16.4, 16.5, 17.6, 16, 16.4, 17.2, 16.1, 16.6, 16.8, 16.6, 16.6, 17, 16.3, 17.4, 16, 16.5, 16.7, 16.8, 16.5, 16.6, 17, 16.4, 16.6, 17.4, 16.1, 16.5, 16.8, 16.5, 16.7, 16.9, 16.6, 17.4, 16.5, 16.5, 16.9, 17.1, 17, 15.1, 17.8, 16.9, 16.3, 16.7, 17.1, 15.9, 17.2, 16.4, 16.2, 17.2, 16.5, 16, 17.6, 16.5, 16.7, 16.8, 16.9, 15.9, 17.1, 16.3, 16.5, 17.2, 16.6, 15.6, 17.1, 17.3, 16.6, 18.1, 15.2, 16.3, 17, 16.2, 16.5, 16.6, 16.5, 16.3, 17.5, 15.8, 16.7, 17, 16.3, 16.7, 16.7, 16.6, 16.6, 16.7, 16.8, 16.5, 17.4, 15.9, 16.8, 16.5, 16.7, 16.6, 17.2, 16.2, 16.7, 16.9, 16.7, 17, 17.4, 15.9, 16.6, 17.1, 16.3, 16.8, 16.8, 16.2, 16.8, 16.7, 16.7, 16.6, 16.5]",60.0,60.0,60.0,4990.9,[],,,,,,,,,,,,,,,,,,,,,,,,,HRV,HRV_0164,2022-11-30 18:31:14
,wl-html-keyboard-response,2,32396,0.0-2.0-0.0,0.0,3.0,,,,,,,,23516.099999904633,0.0,0,,,,,,,,,,,,,,,,,,,,,,HRV,HRV_0164,2022-11-30 18:31:14
,wl-rdm,3,39968,0.0-3.0-0.0,0.0,4.0,,,,,,,[],,,,0.0,0.0,87.9,0.0,u,0.0,True,1963.0,118.0,60.0,40.0,False,,3000.0,[],"[683, 384]",ColorTask_Demo,,,,,HRV,HRV_0164,2022-11-30 18:31:14
,wl-rdm,4,44781,0.0-3.0-1.0,0.0,5.0,,,,,,,[],,,,0.0,0.0,87.9,1.0,i,1.0,True,711.2999999523163,43.0,60.0,40.0,False,,2000.0,[],"[683, 384]",ColorTask_Demo,,,,,HRV,HRV_0164,2022-11-30 18:31:14
,wl-html-keyboard-response,5,51811,0.0-3.0-2.0,0.0,6.0,,,,,,,,5018.099999904633,0.0,1,,,,,,,,,,,,,,,,,,,,,,HRV,HRV_0164,2022-11-30 18:31:14
,wl-html-keyboard-response,6,65747,0.0-4.0-0.0,0.0,7.0,,,,,,,,11930.799999952316,0.0,0,,,,,,,,,,,,,,,,,,,,,,HRV,HRV_0164,2022-11-30 18:31:14
,wl-html-keyboard-response,7,86132,0.0-5.0-0.0,0.0,8.0,,,,,,,,18374.5,0.0,0,,,,,,,,,,,,,,,,,,,,,,HRV,HRV_0164,2022-11-30 18:31:14
,wl-rdm,8,88291,0.0-6.0-0.0,0.0,9.0,,,,,,,[],,,,,,73.6,1.0,i,1.0,True,822.4000000953674,50.0,60.0,40.0,False,,250.81248357406457,[],"[683, 384]",ColorTask,1.0,1.0,,,HRV,HRV_0164,2022-11-30 18:31:14
,wl-rdm,9,90871,0.0-6.1-0.1,0.0,10.0,,,,,,,[],,,,,,50.0,1.0,i,1.0,True,1219.0,74.0,60.0,40.0,False,,271.2337087856507,[],"[683, 384]",ColorTask,2.0,2.0,,,HRV,HRV_0164,2022-11-30 18:31:14
,wl-rdm,10,93252,0.0-6.2-0.2,0.0,11.0,,,,,,,[],,,,,,56.4,0.0,u,0.0,True,989.7000000476837,60.0,60.0,40.0,False,,304.45680812816136,[],"[683, 384]",ColorTask,3.0,3.0,,,HRV,HRV_0164,2022-11-30 18:31:14
,wl-rdm,11,95568,0.0-6.3-0.3,0.0,12.0,,,,,,,[],,,,,,56.4,1.0,i,1.0,True,981.3000001907349,59.0,60.0,40.0,False,,282.3505095291185,[],"[683, 384]",ColorTask,4.0,4.0,,,HRV,HRV_0164,2022-11-30 18:31:14
,wl-rdm,12,97766,0.0-6.4-0.4,0.0,13.0,,,,,,,[],,,,,,50.0,1.0,u,0.0,False,878.0,53.0,60.0,40.0,False,,235.33094026106195,[],"[683, 384]",ColorTask,3.0,5.0,,,HRV,HRV_0164,2022-11-30 18:31:14
,wl-rdm,13,100016,0.0-6.5-0.5,0.0,14.0,,,,,,,[],,,,,,53.2,1.0,i,1.0,True,904.3000001907349,55.0,60.0,40.0,False,,266.47562578944036,[],"[683, 384]",ColorTask,4.0,6.0,,,HRV,HRV_0164,2022-11-30 18:31:14
,wl-rdm,14,102548,0.0-6.6-0.6,0.0,15.0,,,,,,,[],,,,,,62.5,0.0,u,0.0,True,1127.5,68.0,60.0,40.0,False,,325.2693203334458,[],"[683, 384]",ColorTask,5.0,7.0,,,HRV,HRV_0164,2022-11-30 18:31:14
,wl-rdm,15,104680,0.0-6.7-0.7,0.0,16.0,,,,,,,[],,,,,,62.5,1.0,i,1.0,True,802.6000001430511,49.0,60.0,40.0,False,,237.1776871044129,[],"[683, 384]",ColorTask,6.0,8.0,,,HRV,HRV_0164,2022-11-30 18:31:14
,wl-rdm,16,107145,0.0-6.8-0.8,0.0,17.0,,,,,,,[],,,,,,53.2,0.0,i,1.0,False,1163.0,70.0,60.0,40.0,False,,223.97011995797598,[],"[683, 384]",ColorTask,5.0,9.0,,,HRV,HRV_0164,2022-11-30 18:31:14
,wl-rdm,17,109444,0.0-6.9-0.9,0.0,18.0,,,,,,,[],,,,,,73.6,0.0,u,0.0,True,938.5999999046326,57.0,60.0,40.0,False,,269.788415548812,[],"[683, 384]",ColorTask,6.0,10.0,,,HRV,HRV_0164,2022-11-30 18:31:14
,wl-rdm,18,111842,0.0-6.10-0.10,0.0,19.0,,,,,,,[],,,,,,53.2,0.0,i,1.0,False,967.8999998569489,58.0,60.0,40.0,False,,352.9471691278079,[],"[683, 384]",ColorTask,5.0,11.0,,,HRV,HRV_0164,2022-11-30 18:31:14
,wl-rdm,19,114010,0.0-6.11-0.11,0.0,20.0,,,,,,,[],,,,,,62.5,1.0,i,1.0,True,725.8999998569489,44.0,60.0,40.0,False,,378.8567849657053,[],"[683, 384]",ColorTask,6.0,12.0,,,HRV,HRV_0164,2022-11-30 18:31:14
,wl-rdm,20,116074,0.0-6.12-0.12,0.0,21.0,,,,,,,[],,,,,,73.6,0.0,u,0.0,True,721.8999998569489,44.0,60.0,40.0,False,,253.19490667037272,[],"[683, 384]",ColorTask,7.0,13.0,,,HRV,HRV_0164,2022-11-30 18:31:14
,wl-rdm,21,118223,0.0-6.13-0.13,0.0,22.0,,,,,,,[],,,,,,50.0,1.0,i,1.0,True,875.1000001430511,53.0,60.0,40.0,False,,205.74805416461078,[],"[683, 384]",ColorTask,8.0,14.0,,,HRV,HRV_0164,2022-11-30 18:31:14
,wl-rdm,22,120471,0.0-6.14-0.14,0.0,23.0,,,,,,,[],,,,,,62.5,0.0,u,0.0,True,784.6999998092651,48.0,60.0,40.0,False,,383.91090078065895,[],"[683, 384]",ColorTask,9.0,15.0,,,HRV,HRV_0164,2022-11-30 18:31:14
,wl-rdm,23,123319,0.0-6.15-0.15,0.0,24.0,,,,,,,[],,,,,,50.0,0.0,u,0.0,True,1538.4000000953674,93.0,60.0,40.0,False,,224.89945010962194,[],"[683, 384]",ColorTask,10.0,16.0,,,HRV,HRV_0164,2022-11-30 18:31:14
,wl-rdm,24,125300,0.0-6.16-0.16,0.0,25.0,,,,,,,[],,,,,,73.6,1.0,i,1.0,True,621.5000002384186,38.0,60.0,40.0,False,,277.6208947368035,[],"[683, 384]",ColorTask,11.0,17.0,,,HRV,HRV_0164,2022-11-30 18:31:14
,wl-rdm,25,128600,0.0-6.17-0.17,0.0,26.0,,,,,,,[],,,,,,53.2,0.0,u,0.0,True,1821.9000000953674,110.0,60.0,40.0,False,,399.28761477994965,[],"[683, 384]",ColorTask,12.0,18.0,,,HRV,HRV_0164,2022-11-30 18:31:14
,wl-rdm,26,131348,0.0-6.18-0.18,0.0,27.0,,,,,,,[],,,,,,62.5,1.0,i,1.0,True,1354.6000001430511,82.0,60.0,40.0,False,,325.5839746091372,[],"[683, 384]",ColorTask,13.0,19.0,,,HRV,HRV_0164,2022-11-30 18:31:14
,wl-rdm,27,134064,0.0-6.19-0.19,0.0,28.0,,,,,,,[],,,,,,50.0,1.0,u,0.0,False,1385.6999998092651,84.0,60.0,40.0,False,,249.83476027864563,[],"[683, 384]",ColorTask,12.0,20.0,,,HRV,HRV_0164,2022-11-30 18:31:14
,wl-rdm,28,137312,0.0-6.20-0.20,0.0,29.0,,,,,,,[],,,,,,50.0,1.0,u,0.0,False,1806.6000001430511,109.0,60.0,40.0,False,,369.986677623664,[],"[683, 384]",ColorTask,11.0,21.0,,,HRV,HRV_0164,2022-11-30 18:31:14
,wl-rdm,29,139543,0.0-6.21-0.21,0.0,30.0,,,,,,,[],,,,,,87.9,1.0,i,1.0,True,845.5999999046326,51.0,60.0,40.0,False,,307.94708243312965,[],"[683, 384]",ColorTask,12.0,22.0,,,HRV,HRV_0164,2022-11-30 18:31:14
,wl-rdm,30,141759,0.0-6.22-0.22,0.0,31.0,,,,,,,[],,,,,,73.6,1.0,i,1.0,True,844.1999998092651,51.0,60.0,40.0,False,,303.14754153621584,[],"[683, 384]",ColorTask,13.0,23.0,,,HRV,HRV_0164,2022-11-30 18:31:14
,wl-rdm,31,145408,0.0-6.23-0.23,0.0,32.0,,,,,,,[],,,,,,56.4,1.0,u,0.0,False,2337.899999856949,141.0,60.0,40.0,False,,222.18443641839957,[],"[683, 384]",ColorTask,12.0,24.0,,,HRV,HRV_0164,2022-11-30 18:31:14
,wl-rdm,32,148090,0.0-6.24-0.24,0.0,33.0,,,,,,,[],,,,,,56.4,0.0,u,0.0,True,1319.5,80.0,60.0,40.0,False,,270.38528417922277,[],"[683, 384]",ColorTask,13.0,25.0,,,HRV,HRV_0164,2022-11-30 18:31:14
,wl-rdm,33,150737,0.0-6.25-0.25,0.0,34.0,,,,,,,[],,,,,,87.9,0.0,u,0.0,True,1174.1000001430511,71.0,60.0,40.0,False,,377.95246855303867,[],"[683, 384]",ColorTask,14.0,26.0,,,HRV,HRV_0164,2022-11-30 18:31:14
,wl-rdm,34,152802,0.0-6.26-0.26,0.0,35.0,,,,,,,[],,,,,,53.2,0.0,u,0.0,True,762.7000000476837,46.0,60.0,40.0,False,,230.3226901219729,[],"[683, 384]",ColorTask,15.0,27.0,,,HRV,HRV_0164,2022-11-30 18:31:14
,wl-rdm,35,155483,0.0-6.27-0.27,0.0,36.0,,,,,,,[],,,,,,56.4,1.0,i,1.0,True,1383.0,83.0,60.0,40.0,False,,219.6899798084184,[],"[683, 384]",ColorTask,16.0,28.0,,,HRV,HRV_0164,2022-11-30 18:31:14
,wl-rdm,36,157582,0.0-6.28-0.28,0.0,37.0,,,,,,,[],,,,,,73.6,0.0,u,0.0,True,657.0,40.0,60.0,40.0,False,,365.07267724637074,[],"[683, 384]",ColorTask,17.0,29.0,,,HRV,HRV_0164,2022-11-30 18:31:14
,wl-rdm,37,160082,0.0-6.29-0.29,0.0,38.0,,,,,,,[],,,,,,53.2,1.0,i,1.0,True,1072.8999998569489,65.0,60.0,40.0,False,,360.2469491199035,[],"[683, 384]",ColorTask,18.0,30.0,,,HRV,HRV_0164,2022-11-30 18:31:14
,wl-rdm,38,163401,0.0-6.30-0.30,0.0,39.0,,,,,,,[],,,,,,50.0,0.0,u,0.0,True,2025.0,122.0,60.0,40.0,False,,221.5820379532944,[],"[683, 384]",ColorTask,19.0,31.0,,,HRV,HRV_0164,2022-11-30 18:31:14
,wl-rdm,39,166160,0.0-6.31-0.31,0.0,40.0,,,,,,,[],,,,,,73.6,0.0,u,0.0,True,1460.8000001907349,88.0,60.0,40.0,False,,210.40939565306192,[],"[683, 384]",ColorTask,20.0,32.0,,,HRV,HRV_0164,2022-11-30 18:31:14
,wl-rdm,40,168977,0.0-6.32-0.32,0.0,41.0,,,,,,,[],,,,,,62.5,0.0,u,0.0,True,1495.2000000476837,90.0,60.0,40.0,False,,264.2327485836206,[],"[683, 384]",ColorTask,21.0,33.0,,,HRV,HRV_0164,2022-11-30 18:31:14
,wl-rdm,41,170926,0.0-6.33-0.33,0.0,42.0,,,,,,,[],,,,,,87.9,1.0,i,1.0,True,580.7000000476837,35.0,60.0,40.0,False,,314.7171533771649,[],"[683, 384]",ColorTask,22.0,34.0,,,HRV,HRV_0164,2022-11-30 18:31:14
,wl-rdm,42,173858,0.0-6.34-0.34,0.0,43.0,,,,,,,[],,,,,,50.0,0.0,i,1.0,False,1636.2000000476837,99.0,60.0,40.0,False,,228.44389347064032,[],"[683, 384]",ColorTask,21.0,35.0,,,HRV,HRV_0164,2022-11-30 18:31:14
,wl-rdm,43,176073,0.0-6.35-0.35,0.0,44.0,,,,,,,[],,,,,,73.6,1.0,i,1.0,True,882.2999999523163,53.0,60.0,40.0,False,,263.7048677417464,[],"[683, 384]",ColorTask,22.0,36.0,,,HRV,HRV_0164,2022-11-30 18:31:14
,wl-rdm,44,178804,0.0-6.36-0.36,0.0,45.0,,,,,,,[],,,,,,73.6,1.0,i,1.0,True,1355.8999998569489,82.0,60.0,40.0,False,,291.691354751542,[],"[683, 384]",ColorTask,23.0,37.0,,,HRV,HRV_0164,2022-11-30 18:31:14
,wl-rdm,45,181020,0.0-6.37-0.37,0.0,46.0,,,,,,,[],,,,,,87.9,1.0,i,1.0,True,774.1999998092651,47.0,60.0,40.0,False,,370.8015620851203,[],"[683, 384]",ColorTask,24.0,38.0,,,HRV,HRV_0164,2022-11-30 18:31:14
,wl-rdm,46,184685,0.0-6.38-0.38,0.0,47.0,,,,,,,[],,,,,,50.0,0.0,u,0.0,True,2270.300000190735,137.0,60.0,40.0,False,,332.5525734668471,[],"[683, 384]",ColorTask,25.0,39.0,,,HRV,HRV_0164,2022-11-30 18:31:14
,wl-rdm,47,186850,0.0-6.39-0.39,0.0,48.0,,,,,,,[],,,,,,87.9,0.0,u,0.0,True,839.2000000476837,51.0,60.0,40.0,False,,247.4206516478369,[],"[683, 384]",ColorTask,26.0,40.0,,,HRV,HRV_0164,2022-11-30 18:31:14
,wl-rdm,48,188932,0.0-6.40-0.40,0.0,49.0,,,,,,,[],,,,,,73.6,0.0,u,0.0,True,760.7999999523163,46.0,60.0,40.0,False,,254.47450196160497,[],"[683, 384]",ColorTask,27.0,41.0,,,HRV,HRV_0164,2022-11-30 18:31:14
,wl-rdm,49,192381,0.0-6.41-0.41,0.0,50.0,,,,,,,[],,,,,,53.2,0.0,i,1.0,False,2055.0,124.0,60.0,40.0,False,,319.263615232402,[],"[683, 384]",ColorTask,26.0,42.0,,,HRV,HRV_0164,2022-11-30 18:31:14
,wl-rdm,50,196111,0.0-6.42-0.42,0.0,51.0,,,,,,,[],,,,,,50.0,0.0,i,1.0,False,2355.0,142.0,60.0,40.0,False,,298.5720881788722,[],"[683, 384]",ColorTask,25.0,43.0,,,HRV,HRV_0164,2022-11-30 18:31:14
,wl-rdm,51,200459,0.0-6.43-0.43,0.0,51.0,,,,,,,[],,,,,,56.4,1.0,,,,,179.0,60.0,40.0,True,RT_timeout ,240.98450591104654,[],"[683, 384]",ColorTask,24.0,44.0,,,HRV,HRV_0164,2022-11-30 18:31:14
,wl-rdm,52,202874,0.0-6.44-0.44,0.0,52.0,,,,,,,[],,,,,,53.2,0.0,i,1.0,False,1123.3000001907349,68.0,60.0,40.0,False,,214.92877812287787,[],"[683, 384]",ColorTask,23.0,45.0,,,HRV,HRV_0164,2022-11-30 18:31:14
,wl-rdm,53,205938,0.0-6.45-0.45,0.0,53.0,,,,,,,[],,,,,,50.0,1.0,u,0.0,False,1653.2999999523163,100.0,60.0,40.0,False,,322.7470687081164,[],"[683, 384]",ColorTask,22.0,46.0,,,HRV,HRV_0164,2022-11-30 18:31:14
,wl-rdm,54,208387,0.0-6.46-0.46,0.0,54.0,,,,,,,[],,,,,,73.6,1.0,i,1.0,True,1056.6000001430511,64.0,60.0,40.0,False,,331.22511909439197,[],"[683, 384]",ColorTask,23.0,47.0,,,HRV,HRV_0164,2022-11-30 18:31:14
,wl-rdm,55,212119,0.0-6.47-0.47,0.0,55.0,,,,,,,[],,,,,,53.2,0.0,u,0.0,True,2425.5,146.0,60.0,40.0,False,,216.42621611136627,[],"[683, 384]",ColorTask,24.0,48.0,,,HRV,HRV_0164,2022-11-30 18:31:14
,wl-rdm,56,214318,0.0-6.48-0.48,0.0,56.0,,,,,,,[],,,,,,87.9,0.0,u,0.0,True,840.2999999523163,51.0,60.0,40.0,False,,290.3908245300428,[],"[683, 384]",ColorTask,25.0,49.0,,,HRV,HRV_0164,2022-11-30 18:31:14
,wl-rdm,57,217698,0.0-6.49-0.49,0.0,57.0,,,,,,,[],,,,,,56.4,0.0,u,0.0,True,2021.9000000953674,122.0,60.0,40.0,False,,263.3970454959592,[],"[683, 384]",ColorTask,26.0,50.0,,,HRV,HRV_0164,2022-11-30 18:31:14
,wl-rdm,58,219814,0.0-6.50-0.50,0.0,58.0,,,,,,,[],,,,,,73.6,1.0,i,1.0,True,818.6000001430511,50.0,60.0,40.0,False,,207.26151691455655,[],"[683, 384]",ColorTask,27.0,51.0,,,HRV,HRV_0164,2022-11-30 18:31:14
,wl-rdm,59,222029,0.0-6.51-0.51,0.0,59.0,,,,,,,[],,,,,,56.4,1.0,i,1.0,True,853.3000001907349,52.0,60.0,40.0,False,,281.61144529723686,[],"[683, 384]",ColorTask,28.0,52.0,,,HRV,HRV_0164,2022-11-30 18:31:14
,wl-rdm,60,226310,0.0-6.52-0.52,0.0,60.0,,,,,,,[],,,,,,53.2,1.0,i,1.0,True,2978.2000000476837,179.0,60.0,40.0,False,,218.69936066908173,[],"[683, 384]",ColorTask,29.0,53.0,,,HRV,HRV_0164,2022-11-30 18:31:14
,wl-rdm,61,228559,0.0-6.53-0.53,0.0,61.0,,,,,,,[],,,,,,87.9,0.0,u,0.0,True,839.7999999523163,51.0,60.0,40.0,False,,328.06920009211825,[],"[683, 384]",ColorTask,30.0,54.0,,,HRV,HRV_0164,2022-11-30 18:31:14
,wl-rdm,62,232058,0.0-6.54-0.54,0.0,62.0,,,,,,,[],,,,,,53.2,1.0,i,1.0,True,2058.7999999523163,124.0,60.0,40.0,False,,360.8789968187154,[],"[683, 384]",ColorTask,31.0,55.0,,,HRV,HRV_0164,2022-11-30 18:31:14
,wl-rdm,63,235771,0.0-6.55-0.55,0.0,63.0,,,,,,,[],,,,,,62.5,1.0,u,0.0,False,2409.9000000953674,145.0,60.0,40.0,False,,217.85657774777283,[],"[683, 384]",ColorTask,30.0,56.0,,,HRV,HRV_0164,2022-11-30 18:31:14
,wl-rdm,64,239987,0.0-6.56-0.56,0.0,64.0,,,,,,,[],,,,,,53.2,1.0,i,1.0,True,2913.4000000953674,175.0,60.0,40.0,False,,245.49460419398218,[],"[683, 384]",ColorTask,31.0,57.0,,,HRV,HRV_0164,2022-11-30 18:31:14
,wl-rdm,65,242202,0.0-6.57-0.57,0.0,65.0,,,,,,,[],,,,,,87.9,1.0,i,1.0,True,745.2999999523163,45.0,60.0,40.0,False,,385.9920956419812,[],"[683, 384]",ColorTask,32.0,58.0,,,HRV,HRV_0164,2022-11-30 18:31:14
,wl-rdm,66,244550,0.0-6.58-0.58,0.0,66.0,,,,,,,[],,,,,,62.5,0.0,u,0.0,True,891.3000001907349,54.0,60.0,40.0,False,,377.3092863801919,[],"[683, 384]",ColorTask,33.0,59.0,,,HRV,HRV_0164,2022-11-30 18:31:14
,wl-rdm,67,247549,0.0-6.59-0.59,0.0,67.0,,,,,,,[],,,,,,56.4,0.0,u,0.0,True,1670.4000000953674,101.0,60.0,40.0,False,,241.6803555183667,[],"[683, 384]",ColorTask,34.0,60.0,,,HRV,HRV_0164,2022-11-30 18:31:14
,wl-rdm,68,249620,0.0-6.60-0.60,0.0,68.0,,,,,,,[],,,,,,87.9,1.0,i,1.0,True,611.0,37.0,60.0,40.0,False,,381.39872678022107,[],"[683, 384]",ColorTask,35.0,61.0,,,HRV,HRV_0164,2022-11-30 18:31:14
,wl-rdm,69,251880,0.0-6.61-0.61,0.0,69.0,,,,,,,[],,,,,,62.5,1.0,i,1.0,True,953.2999997138977,58.0,60.0,40.0,False,,202.8417266877324,[],"[683, 384]",ColorTask,36.0,62.0,,,HRV,HRV_0164,2022-11-30 18:31:14
,wl-rdm,70,253828,0.0-6.62-0.62,0.0,70.0,,,,,,,[],,,,,,87.9,1.0,i,1.0,True,627.7000000476837,38.0,60.0,40.0,False,,241.97586043794902,[],"[683, 384]",ColorTask,37.0,63.0,,,HRV,HRV_0164,2022-11-30 18:31:14
,wl-rdm,71,256393,0.0-6.63-0.63,0.0,71.0,,,,,,,[],,,,,,73.6,1.0,i,1.0,True,1144.2000000476837,69.0,60.0,40.0,False,,348.29696306991525,[],"[683, 384]",ColorTask,38.0,64.0,,,HRV,HRV_0164,2022-11-30 18:31:14
,wl-rdm,72,258260,0.0-6.64-0.64,0.0,72.0,,,,,,,[],,,,,,87.9,1.0,i,1.0,True,571.2999997138977,35.0,60.0,40.0,False,,206.1746408677285,[],"[683, 384]",ColorTask,39.0,65.0,,,HRV,HRV_0164,2022-11-30 18:31:14
,wl-rdm,73,260741,0.0-6.65-0.65,0.0,73.0,,,,,,,[],,,,,,53.2,0.0,u,0.0,True,1045.7000000476837,63.0,60.0,40.0,False,,364.59119364639594,[],"[683, 384]",ColorTask,40.0,66.0,,,HRV,HRV_0164,2022-11-30 18:31:14
,wl-rdm,74,262973,0.0-6.66-0.66,0.0,74.0,,,,,,,[],,,,,,56.4,0.0,u,0.0,True,931.0999999046326,56.0,60.0,40.0,False,,225.89565082576192,[],"[683, 384]",ColorTask,41.0,67.0,,,HRV,HRV_0164,2022-11-30 18:31:14
,wl-rdm,75,267321,0.0-6.67-0.67,0.0,74.0,,,,,,,[],,,,,,56.4,1.0,i,,,3115.0,179.0,60.0,40.0,True,RT_timeout ,243.1592144418642,[],"[683, 384]",ColorTask,40.0,68.0,,,HRV,HRV_0164,2022-11-30 18:31:14
,wl-rdm,76,269353,0.0-6.68-0.68,0.0,75.0,,,,,,,[],,,,,,87.9,1.0,i,1.0,True,653.5999999046326,40.0,60.0,40.0,False,,291.02593380997047,[],"[683, 384]",ColorTask,41.0,69.0,,,HRV,HRV_0164,2022-11-30 18:31:14
,wl-rdm,77,271869,0.0-6.69-0.69,0.0,76.0,,,,,,,[],,,,,,53.2,0.0,u,0.0,True,1197.2999999523163,72.0,60.0,40.0,False,,256.17285729977647,[],"[683, 384]",ColorTask,42.0,70.0,,,HRV,HRV_0164,2022-11-30 18:31:14
,wl-rdm,78,275134,0.0-6.70-0.70,0.0,77.0,,,,,,,[],,,,,,50.0,0.0,u,0.0,True,1802.1000001430511,109.0,60.0,40.0,False,,377.53174008559733,[],"[683, 384]",ColorTask,43.0,71.0,,,HRV,HRV_0164,2022-11-30 18:31:14
,wl-rdm,79,277465,0.0-6.71-0.71,0.0,78.0,,,,,,,[],,,,,,62.5,0.0,u,0.0,True,928.7000000476837,56.0,60.0,40.0,False,,335.6873485906925,[],"[683, 384]",ColorTask,44.0,72.0,,,HRV,HRV_0164,2022-11-30 18:31:14
,wl-rdm,80,280629,0.0-6.72-0.72,0.0,79.0,,,,,,,[],,,,,,73.6,0.0,u,0.0,True,1824.3000001907349,110.0,60.0,40.0,False,,256.5316416156653,[],"[683, 384]",ColorTask,45.0,73.0,,,HRV,HRV_0164,2022-11-30 18:31:14
,wl-rdm,81,282678,0.0-6.73-0.73,0.0,80.0,,,,,,,[],,,,,,56.4,1.0,i,1.0,True,684.5,42.0,60.0,40.0,False,,274.23134811293534,[],"[683, 384]",ColorTask,46.0,74.0,,,HRV,HRV_0164,2022-11-30 18:31:14
,wl-rdm,82,284627,0.0-6.74-0.74,0.0,81.0,,,,,,,[],,,,,,87.9,0.0,u,0.0,True,638.0,39.0,60.0,40.0,False,,227.51133441973408,[],"[683, 384]",ColorTask,47.0,75.0,,,HRV,HRV_0164,2022-11-30 18:31:14
,wl-rdm,83,287177,0.0-6.75-0.75,0.0,82.0,,,,,,,[],,,,,,62.5,1.0,u,0.0,False,1152.2000002861023,70.0,60.0,40.0,False,,330.9266371990527,[],"[683, 384]",ColorTask,46.0,76.0,,,HRV,HRV_0164,2022-11-30 18:31:14
,wl-rdm,84,290673,0.0-6.76-0.76,0.0,83.0,,,,,,,[],,,,,,56.4,0.0,u,0.0,True,2192.0,132.0,60.0,40.0,False,,222.77750357954213,[],"[683, 384]",ColorTask,47.0,77.0,,,HRV,HRV_0164,2022-11-30 18:31:14
,wl-rdm,85,294156,0.0-6.77-0.77,0.0,84.0,,,,,,,[],,,,,,50.0,0.0,u,0.0,True,2074.0,125.0,60.0,40.0,False,,339.7514482889203,[],"[683, 384]",ColorTask,48.0,78.0,,,HRV,HRV_0164,2022-11-30 18:31:14
,wl-rdm,86,297220,0.0-6.78-0.78,0.0,85.0,,,,,,,[],,,,,,50.0,1.0,i,1.0,True,1642.7999999523163,99.0,60.0,40.0,False,,335.3981074850186,[],"[683, 384]",ColorTask,49.0,79.0,,,HRV,HRV_0164,2022-11-30 18:31:14
,wl-rdm,87,300934,0.0-6.79-0.79,0.0,86.0,,,,,,,[],,,,,,50.0,1.0,u,0.0,False,2297.199999809265,138.0,60.0,40.0,False,,341.2386792383147,[],"[683, 384]",ColorTask,48.0,80.0,,,HRV,HRV_0164,2022-11-30 18:31:14
,wl-rdm,88,303366,0.0-6.80-0.80,0.0,87.0,,,,,,,[],,,,,,73.6,0.0,u,0.0,True,995.3999998569489,60.0,60.0,40.0,False,,358.72012610443426,[],"[683, 384]",ColorTask,49.0,81.0,,,HRV,HRV_0164,2022-11-30 18:31:14
,wl-rdm,89,306798,0.0-6.81-0.81,0.0,88.0,,,,,,,[],,,,,,62.5,1.0,i,1.0,True,2135.7000000476837,129.0,60.0,40.0,False,,205.99874809747027,[],"[683, 384]",ColorTask,50.0,82.0,,,HRV,HRV_0164,2022-11-30 18:31:14
,wl-rdm,90,308764,0.0-6.82-0.82,0.0,89.0,,,,,,,[],,,,,,87.9,0.0,u,0.0,True,663.2999999523163,40.0,60.0,40.0,False,,221.84046225568912,[],"[683, 384]",ColorTask,51.0,83.0,,,HRV,HRV_0164,2022-11-30 18:31:14
,wl-rdm,91,310746,0.0-6.83-0.83,0.0,90.0,,,,,,,[],,,,,,87.9,1.0,i,1.0,True,596.1999998092651,36.0,60.0,40.0,False,,307.4953755546168,[],"[683, 384]",ColorTask,52.0,84.0,,,HRV,HRV_0164,2022-11-30 18:31:14
,wl-rdm,92,314111,0.0-6.84-0.84,0.0,91.0,,,,,,,[],,,,,,56.4,1.0,i,1.0,True,1938.8000001907349,117.0,60.0,40.0,False,,342.4819399617953,[],"[683, 384]",ColorTask,53.0,85.0,,,HRV,HRV_0164,2022-11-30 18:31:14
,wl-rdm,93,316409,0.0-6.85-0.85,0.0,92.0,,,,,,,[],,,,,,62.5,1.0,i,1.0,True,869.5,53.0,60.0,40.0,False,,336.6458058332164,[],"[683, 384]",ColorTask,54.0,86.0,,,HRV,HRV_0164,2022-11-30 18:31:14
,wl-rdm,94,318458,0.0-6.86-0.86,0.0,93.0,,,,,,,[],,,,,,62.5,0.0,u,0.0,True,697.7999999523163,42.0,60.0,40.0,False,,280.5113850964052,[],"[683, 384]",ColorTask,55.0,87.0,,,HRV,HRV_0164,2022-11-30 18:31:14
,wl-rdm,95,321325,0.0-6.87-0.87,0.0,94.0,,,,,,,[],,,,,,50.0,0.0,i,1.0,False,1431.400000333786,86.0,60.0,40.0,False,,362.0359992552443,[],"[683, 384]",ColorTask,54.0,88.0,,,HRV,HRV_0164,2022-11-30 18:31:14
,wl-rdm,96,324305,0.0-6.88-0.88,0.0,95.0,,,,,,,[],,,,,,56.4,0.0,u,0.0,True,1618.2000000476837,98.0,60.0,40.0,False,,286.63634607703284,[],"[683, 384]",ColorTask,55.0,89.0,,,HRV,HRV_0164,2022-11-30 18:31:14
,wl-rdm,97,326953,0.0-6.89-0.89,0.0,96.0,,,,,,,[],,,,,,62.5,0.0,u,0.0,True,1271.6999998092651,77.0,60.0,40.0,False,,283.8466638772097,[],"[683, 384]",ColorTask,56.0,90.0,,,HRV,HRV_0164,2022-11-30 18:31:14
,wl-rdm,98,329518,0.0-6.90-0.90,0.0,97.0,,,,,,,[],,,,,,73.6,1.0,i,1.0,True,1186.2000000476837,72.0,60.0,40.0,False,,292.2320592395257,[],"[683, 384]",ColorTask,57.0,91.0,,,HRV,HRV_0164,2022-11-30 18:31:14
,wl-rdm,99,331484,0.0-6.91-0.91,0.0,98.0,,,,,,,[],,,,,,87.9,0.0,u,0.0,True,662.1000001430511,40.0,60.0,40.0,False,,228.53076417132135,[],"[683, 384]",ColorTask,58.0,92.0,,,HRV,HRV_0164,2022-11-30 18:31:14
,wl-rdm,100,335165,0.0-6.92-0.92,0.0,99.0,,,,,,,[],,,,,,56.4,1.0,i,1.0,True,2369.5000002384186,143.0,60.0,40.0,False,,240.68015344849383,[],"[683, 384]",ColorTask,59.0,93.0,,,HRV,HRV_0164,2022-11-30 18:31:14
,wl-rdm,101,338131,0.0-6.93-0.93,0.0,100.0,,,,,,,[],,,,,,53.2,1.0,i,1.0,True,1686.9000000953674,102.0,60.0,40.0,False,,200.28036433935418,[],"[683, 384]",ColorTask,60.0,94.0,,,HRV,HRV_0164,2022-11-30 18:31:14
,wl-rdm,102,342095,0.0-6.94-0.94,0.0,101.0,,,,,,,[],,,,,,53.2,1.0,u,0.0,False,2553.4000000953674,154.0,60.0,40.0,False,,318.49965458897793,[],"[683, 384]",ColorTask,59.0,95.0,,,HRV,HRV_0164,2022-11-30 18:31:14
,wl-rdm,103,346392,0.0-6.95-0.95,0.0,102.0,,,,,,,[],,,,,,56.4,1.0,u,0.0,False,2863.100000143051,172.0,60.0,40.0,False,,360.1925786811799,[],"[683, 384]",ColorTask,58.0,96.0,,,HRV,HRV_0164,2022-11-30 18:31:14
,wl-rdm,104,349141,0.0-6.96-0.96,0.0,103.0,,,,,,,[],,,,,,50.0,1.0,i,1.0,True,1453.5,88.0,60.0,40.0,False,,214.80521540902004,[],"[683, 384]",ColorTask,59.0,97.0,,,HRV,HRV_0164,2022-11-30 18:31:14
,wl-rdm,105,351473,0.0-6.97-0.97,0.0,104.0,,,,,,,[],,,,,,56.4,0.0,u,0.0,True,920.4000000953674,56.0,60.0,40.0,False,,336.6820053986438,[],"[683, 384]",ColorTask,60.0,98.0,,,HRV,HRV_0164,2022-11-30 18:31:14
,wl-rdm,106,353855,0.0-6.98-0.98,0.0,105.0,,,,,,,[],,,,,,73.6,0.0,u,0.0,True,903.2999999523163,55.0,60.0,40.0,False,,393.41749959361874,[],"[683, 384]",ColorTask,61.0,99.0,,,HRV,HRV_0164,2022-11-30 18:31:14
,wl-rdm,107,356953,0.0-6.99-0.99,0.0,106.0,,,,,,,[],,,,,,62.5,1.0,i,1.0,True,1728.7999999523163,104.0,60.0,40.0,False,,285.4914025433358,[],"[683, 384]",ColorTask,62.0,100.0,,,HRV,HRV_0164,2022-11-30 18:31:14
,wl-rdm,108,359352,0.0-6.100-0.100,0.0,107.0,,,,,,,[],,,,,,73.6,0.0,u,0.0,True,1067.4999997615814,65.0,60.0,40.0,False,,260.50536943405024,[],"[683, 384]",ColorTask,63.0,101.0,,,HRV,HRV_0164,2022-11-30 18:31:14
,wl-rdm,109,361884,0.0-6.101-0.101,0.0,108.0,,,,,,,[],,,,,,62.5,0.0,u,0.0,True,1140.7000000476837,69.0,60.0,40.0,False,,308.2525522900594,[],"[683, 384]",ColorTask,64.0,102.0,,,HRV,HRV_0164,2022-11-30 18:31:14
,wl-rdm,110,364232,0.0-6.102-0.102,0.0,109.0,,,,,,,[],,,,,,53.2,1.0,i,1.0,True,939.7999999523163,57.0,60.0,40.0,False,,318.9524153077068,[],"[683, 384]",ColorTask,65.0,103.0,,,HRV,HRV_0164,2022-11-30 18:31:14
,wl-rdm,111,366149,0.0-6.103-0.103,0.0,110.0,,,,,,,[],,,,,,87.9,0.0,u,0.0,True,511.59999990463257,31.0,60.0,40.0,False,,331.2455387788532,[],"[683, 384]",ColorTask,66.0,104.0,,,HRV,HRV_0164,2022-11-30 18:31:14
,wl-rdm,112,369713,0.0-6.104-0.104,0.0,111.0,,,,,,,[],,,,,,56.4,0.0,i,1.0,False,2122.7999999523163,128.0,60.0,40.0,False,,354.057360252541,[],"[683, 384]",ColorTask,65.0,105.0,,,HRV,HRV_0164,2022-11-30 18:31:14
,wl-rdm,113,373461,0.0-6.105-0.105,0.0,112.0,,,,,,,[],,,,,,53.2,1.0,u,0.0,False,2388.199999809265,144.0,60.0,40.0,False,,272.3332427931817,[],"[683, 384]",ColorTask,64.0,106.0,,,HRV,HRV_0164,2022-11-30 18:31:14
,wl-rdm,114,377125,0.0-6.106-0.106,0.0,113.0,,,,,,,[],,,,,,50.0,0.0,u,0.0,True,2363.7000000476837,142.0,60.0,40.0,False,,229.68932921562828,[],"[683, 384]",ColorTask,65.0,107.0,,,HRV,HRV_0164,2022-11-30 18:31:14
,wl-rdm,115,379207,0.0-6.107-0.107,0.0,114.0,,,,,,,[],,,,,,87.9,0.0,u,0.0,True,625.5999999046326,38.0,60.0,40.0,False,,377.6381319960414,[],"[683, 384]",ColorTask,66.0,108.0,,,HRV,HRV_0164,2022-11-30 18:31:14
,wl-rdm,116,382240,0.0-6.108-0.108,0.0,115.0,,,,,,,[],,,,,,56.4,1.0,i,1.0,True,1574.0999999046326,95.0,60.0,40.0,False,,383.07175726858014,[],"[683, 384]",ColorTask,67.0,109.0,,,HRV,HRV_0164,2022-11-30 18:31:14
,wl-rdm,117,384205,0.0-6.109-0.109,0.0,116.0,,,,,,,[],,,,,,62.5,0.0,u,0.0,True,638.9999997615814,39.0,60.0,40.0,False,,257.736442630485,[],"[683, 384]",ColorTask,68.0,110.0,,,HRV,HRV_0164,2022-11-30 18:31:14
,wl-html-keyboard-response,118,400517,0.0-7.0-0.0,1.0,117.0,,,,,,,,14295.700000047684,1.0,0,,,,,,,,,,,,,,,,,,,,,,HRV,HRV_0164,2022-11-30 18:31:14
,wl-rdm,119,403161,0.0-8.0-0.0,1.0,118.0,,,,,,,[],,,,,,53.2,0.0,u,0.0,True,1326.9999997615814,80.0,60.0,40.0,False,,225.80125630090964,[],"[683, 384]",ColorTask,69.0,1.0,,,HRV,HRV_0164,2022-11-30 18:31:14
,wl-rdm,120,405394,0.0-8.1-0.1,1.0,119.0,,,,,,,[],,,,,,50.0,1.0,i,1.0,True,840.2000000476837,51.0,60.0,40.0,False,,311.0276313126245,[],"[683, 384]",ColorTask,70.0,2.0,,,HRV,HRV_0164,2022-11-30 18:31:14
,wl-rdm,121,408908,0.0-8.2-0.2,1.0,120.0,,,,,,,[],,,,,,50.0,1.0,i,1.0,True,2176.0,131.0,60.0,40.0,False,,255.4031362301729,[],"[683, 384]",ColorTask,71.0,3.0,,,HRV,HRV_0164,2022-11-30 18:31:14
,wl-rdm,122,411322,0.0-8.3-0.3,1.0,121.0,,,,,,,[],,,,,,56.4,0.0,u,0.0,True,993.7000000476837,60.0,60.0,40.0,False,,341.3555470529499,[],"[683, 384]",ColorTask,72.0,4.0,,,HRV,HRV_0164,2022-11-30 18:31:14
,wl-rdm,123,414720,0.0-8.4-0.4,1.0,122.0,,,,,,,[],,,,,,56.4,0.0,u,0.0,True,1918.6000001430511,116.0,60.0,40.0,False,,395.66066336744757,[],"[683, 384]",ColorTask,73.0,5.0,,,HRV,HRV_0164,2022-11-30 18:31:14
,wl-rdm,124,417586,0.0-8.5-0.5,1.0,123.0,,,,,,,[],,,,,,50.0,1.0,u,0.0,False,1564.3999998569489,94.0,60.0,40.0,False,,231.4337007773339,[],"[683, 384]",ColorTask,72.0,6.0,,,HRV,HRV_0164,2022-11-30 18:31:14
,wl-rdm,125,420535,0.0-8.6-0.6,1.0,124.0,,,,,,,[],,,,,,50.0,0.0,u,0.0,True,1559.9000000953674,94.0,60.0,40.0,False,,327.35062530234194,[],"[683, 384]",ColorTask,73.0,7.0,,,HRV,HRV_0164,2022-11-30 18:31:14
,wl-rdm,126,423066,0.0-8.7-0.7,1.0,125.0,,,,,,,[],,,,,,62.5,0.0,u,0.0,True,1161.8000001907349,70.0,60.0,40.0,False,,288.8623307871054,[],"[683, 384]",ColorTask,74.0,8.0,,,HRV,HRV_0164,2022-11-30 18:31:14
,wl-rdm,127,426881,0.0-8.8-0.8,1.0,126.0,,,,,,,[],,,,,,53.2,1.0,u,0.0,False,2429.7999999523163,146.0,60.0,40.0,False,,318.4779006847641,[],"[683, 384]",ColorTask,73.0,9.0,,,HRV,HRV_0164,2022-11-30 18:31:14
,wl-rdm,128,429213,0.0-8.9-0.9,1.0,127.0,,,,,,,[],,,,,,87.9,0.0,u,0.0,True,1047.2000000476837,63.0,60.0,40.0,False,,218.84844011200536,[],"[683, 384]",ColorTask,74.0,10.0,,,HRV,HRV_0164,2022-11-30 18:31:14
,wl-rdm,129,431279,0.0-8.10-0.10,1.0,128.0,,,,,,,[],,,,,,87.9,1.0,i,1.0,True,643.4999997615814,39.0,60.0,40.0,False,,341.4093904319474,[],"[683, 384]",ColorTask,75.0,11.0,,,HRV,HRV_0164,2022-11-30 18:31:14
,wl-rdm,130,433561,0.0-8.11-0.11,1.0,129.0,,,,,,,[],,,,,,50.0,0.0,u,0.0,True,947.6999998092651,57.0,60.0,40.0,False,,269.1427310559993,[],"[683, 384]",ColorTask,76.0,12.0,,,HRV,HRV_0164,2022-11-30 18:31:14
,wl-rdm,131,437192,0.0-8.12-0.12,1.0,130.0,,,,,,,[],,,,,,50.0,0.0,u,0.0,True,2304.2999997138977,139.0,60.0,40.0,False,,249.82331840462356,[],"[683, 384]",ColorTask,77.0,13.0,,,HRV,HRV_0164,2022-11-30 18:31:14
,wl-rdm,132,439257,0.0-8.13-0.13,1.0,131.0,,,,,,,[],,,,,,73.6,1.0,i,1.0,True,632.3999996185303,38.0,60.0,40.0,False,,364.7608716545405,[],"[683, 384]",ColorTask,78.0,14.0,,,HRV,HRV_0164,2022-11-30 18:31:14
,wl-rdm,133,442841,0.0-8.14-0.14,1.0,132.0,,,,,,,[],,,,,,62.5,1.0,i,1.0,True,2173.0,131.0,60.0,40.0,False,,325.72420264648065,[],"[683, 384]",ColorTask,79.0,15.0,,,HRV,HRV_0164,2022-11-30 18:31:14
,wl-rdm,134,445055,0.0-8.15-0.15,1.0,133.0,,,,,,,[],,,,,,73.6,0.0,u,0.0,True,842.599999666214,51.0,60.0,40.0,False,,290.36114226449274,[],"[683, 384]",ColorTask,80.0,16.0,,,HRV,HRV_0164,2022-11-30 18:31:14
,wl-rdm,135,447003,0.0-8.16-0.16,1.0,134.0,,,,,,,[],,,,,,87.9,1.0,i,1.0,True,544.5000002384186,33.0,60.0,40.0,False,,346.36404464665344,[],"[683, 384]",ColorTask,81.0,17.0,,,HRV,HRV_0164,2022-11-30 18:31:14
,wl-rdm,136,448968,0.0-8.17-0.17,1.0,135.0,,,,,,,[],,,,,,56.4,0.0,u,0.0,True,533.5999999046326,32.0,60.0,40.0,False,,364.3956524093155,[],"[683, 384]",ColorTask,82.0,18.0,,,HRV,HRV_0164,2022-11-30 18:31:14
,wl-rdm,137,450834,0.0-8.18-0.18,1.0,136.0,,,,,,,[],,,,,,87.9,1.0,i,1.0,True,525.9000000953674,32.0,60.0,40.0,False,,251.74536620092007,[],"[683, 384]",ColorTask,83.0,19.0,,,HRV,HRV_0164,2022-11-30 18:31:14
,wl-rdm,138,452767,0.0-8.19-0.19,1.0,137.0,,,,,,,[],,,,,,73.6,1.0,i,1.0,True,657.5999999046326,40.0,60.0,40.0,False,,206.69398835755683,[],"[683, 384]",ColorTask,84.0,20.0,,,HRV,HRV_0164,2022-11-30 18:31:14
,wl-rdm,139,454731,0.0-8.20-0.20,1.0,138.0,,,,,,,[],,,,,,73.6,1.0,i,1.0,True,667.900000333786,41.0,60.0,40.0,False,,211.84529085594602,[],"[683, 384]",ColorTask,85.0,21.0,,,HRV,HRV_0164,2022-11-30 18:31:14
,wl-rdm,140,456814,0.0-8.21-0.21,1.0,139.0,,,,,,,[],,,,,,56.4,0.0,u,0.0,True,726.8000001907349,44.0,60.0,40.0,False,,274.50341488640055,[],"[683, 384]",ColorTask,86.0,22.0,,,HRV,HRV_0164,2022-11-30 18:31:14
,wl-rdm,141,459562,0.0-8.22-0.22,1.0,140.0,,,,,,,[],,,,,,56.4,0.0,u,0.0,True,1335.8999998569489,81.0,60.0,40.0,False,,324.8962325883296,[],"[683, 384]",ColorTask,87.0,23.0,,,HRV,HRV_0164,2022-11-30 18:31:14
,wl-rdm,142,463094,0.0-8.23-0.23,1.0,141.0,,,,,,,[],,,,,,53.2,1.0,u,0.0,False,2221.4999997615814,134.0,60.0,40.0,False,,225.29282334455223,[],"[683, 384]",ColorTask,86.0,24.0,,,HRV,HRV_0164,2022-11-30 18:31:14
,wl-rdm,143,465293,0.0-8.24-0.24,1.0,142.0,,,,,,,[],,,,,,87.9,0.0,u,0.0,True,755.5,46.0,60.0,40.0,False,,373.49530420326874,[],"[683, 384]",ColorTask,87.0,25.0,,,HRV,HRV_0164,2022-11-30 18:31:14
,wl-rdm,144,468307,0.0-8.25-0.25,1.0,143.0,,,,,,,[],,,,,,62.5,0.0,u,0.0,True,1623.0999999046326,98.0,60.0,40.0,False,,307.6855826117413,[],"[683, 384]",ColorTask,88.0,26.0,,,HRV,HRV_0164,2022-11-30 18:31:14
,wl-rdm,145,470473,0.0-8.26-0.26,1.0,144.0,,,,,,,[],,,,,,73.6,0.0,u,0.0,True,841.0,51.0,60.0,40.0,False,,241.8466862924446,[],"[683, 384]",ColorTask,89.0,27.0,,,HRV,HRV_0164,2022-11-30 18:31:14
,wl-rdm,146,473788,0.0-8.27-0.27,1.0,145.0,,,,,,,[],,,,,,50.0,1.0,i,1.0,True,2018.9999997615814,122.0,60.0,40.0,False,,203.24009682140485,[],"[683, 384]",ColorTask,90.0,28.0,,,HRV,HRV_0164,2022-11-30 18:31:14
,wl-rdm,147,478135,0.0-8.28-0.28,1.0,145.0,,,,,,,[],,,,,,62.5,0.0,i,,,3253.5,179.0,60.0,40.0,True,RT_timeout ,239.25473096175034,[],"[683, 384]",ColorTask,89.0,29.0,,,HRV,HRV_0164,2022-11-30 18:31:14
,wl-rdm,148,480352,0.0-8.29-0.29,1.0,146.0,,,,,,,[],,,,,,87.9,0.0,u,0.0,True,789.7999999523163,48.0,60.0,40.0,False,,340.0511011423999,[],"[683, 384]",ColorTask,90.0,30.0,,,HRV,HRV_0164,2022-11-30 18:31:14
,wl-rdm,149,483217,0.0-8.30-0.30,1.0,147.0,,,,,,,[],,,,,,62.5,0.0,u,0.0,True,1517.400000333786,92.0,60.0,40.0,False,,254.02621488862877,[],"[683, 384]",ColorTask,91.0,31.0,,,HRV,HRV_0164,2022-11-30 18:31:14
,wl-rdm,150,487198,0.0-8.31-0.31,1.0,148.0,,,,,,,[],,,,,,62.5,0.0,u,0.0,True,2520.7000002861023,152.0,60.0,40.0,False,,399.06151199562385,[],"[683, 384]",ColorTask,92.0,32.0,,,HRV,HRV_0164,2022-11-30 18:31:14
,wl-rdm,151,489464,0.0-8.32-0.32,1.0,149.0,,,,,,,[],,,,,,56.4,1.0,i,1.0,True,992.3000001907349,60.0,60.0,40.0,False,,214.29459041251286,[],"[683, 384]",ColorTask,93.0,33.0,,,HRV,HRV_0164,2022-11-30 18:31:14
,wl-rdm,152,491630,0.0-8.33-0.33,1.0,150.0,,,,,,,[],,,,,,73.6,0.0,u,0.0,True,816.7000000476837,49.0,60.0,40.0,False,,266.42550206788496,[],"[683, 384]",ColorTask,94.0,34.0,,,HRV,HRV_0164,2022-11-30 18:31:14
,wl-rdm,153,493511,0.0-8.34-0.34,1.0,151.0,,,,,,,[],,,,,,87.9,1.0,i,1.0,True,557.2999997138977,34.0,60.0,40.0,False,,220.14787953310918,[],"[683, 384]",ColorTask,95.0,35.0,,,HRV,HRV_0164,2022-11-30 18:31:14
,wl-rdm,154,495642,0.0-8.35-0.35,1.0,152.0,,,,,,,[],,,,,,73.6,1.0,i,1.0,True,842.599999666214,51.0,60.0,40.0,False,,218.48100075613368,[],"[683, 384]",ColorTask,96.0,36.0,,,HRV,HRV_0164,2022-11-30 18:31:14
,wl-rdm,155,499141,0.0-8.36-0.36,1.0,153.0,,,,,,,[],,,,,,50.0,0.0,u,0.0,True,2064.399999856949,124.0,60.0,40.0,False,,354.2000315730751,[],"[683, 384]",ColorTask,97.0,37.0,,,HRV,HRV_0164,2022-11-30 18:31:14
,wl-rdm,156,502373,0.0-8.37-0.37,1.0,154.0,,,,,,,[],,,,,,50.0,0.0,i,1.0,False,1835.6000001430511,111.0,60.0,40.0,False,,322.307642265952,[],"[683, 384]",ColorTask,96.0,38.0,,,HRV,HRV_0164,2022-11-30 18:31:14
,wl-rdm,157,504970,0.0-8.38-0.38,1.0,155.0,,,,,,,[],,,,,,53.2,1.0,i,1.0,True,1102.0999999046326,67.0,60.0,40.0,False,,385.37583517781366,[],"[683, 384]",ColorTask,97.0,39.0,,,HRV,HRV_0164,2022-11-30 18:31:14
,wl-rdm,158,507552,0.0-8.39-0.39,1.0,156.0,,,,,,,[],,,,,,73.6,0.0,u,0.0,True,1158.7999999523163,70.0,60.0,40.0,False,,337.20008058801994,[],"[683, 384]",ColorTask,98.0,40.0,,,HRV,HRV_0164,2022-11-30 18:31:14
,wl-rdm,159,511034,0.0-8.40-0.40,1.0,157.0,,,,,,,[],,,,,,53.2,0.0,u,0.0,True,2138.399999856949,129.0,60.0,40.0,False,,268.62776917720345,[],"[683, 384]",ColorTask,99.0,41.0,,,HRV,HRV_0164,2022-11-30 18:31:14
,wl-rdm,160,513265,0.0-8.41-0.41,1.0,158.0,,,,,,,[],,,,,,87.9,0.0,u,0.0,True,827.0,50.0,60.0,40.0,False,,313.41786579389253,[],"[683, 384]",ColorTask,100.0,42.0,,,HRV,HRV_0164,2022-11-30 18:31:14
,wl-rdm,161,515182,0.0-8.42-0.42,1.0,159.0,,,,,,,[],,,,,,56.4,1.0,i,1.0,True,528.7999999523163,32.0,60.0,40.0,False,,324.35044793217594,[],"[683, 384]",ColorTask,101.0,43.0,,,HRV,HRV_0164,2022-11-30 18:31:14
,wl-rdm,162,517764,0.0-8.43-0.43,1.0,160.0,,,,,,,[],,,,,,62.5,1.0,i,1.0,True,1231.9999997615814,74.0,60.0,40.0,False,,285.11552025500936,[],"[683, 384]",ColorTask,102.0,44.0,,,HRV,HRV_0164,2022-11-30 18:31:14
,wl-rdm,163,519945,0.0-8.44-0.44,1.0,161.0,,,,,,,[],,,,,,62.5,1.0,i,1.0,True,888.4000000953674,54.0,60.0,40.0,False,,208.72885638099638,[],"[683, 384]",ColorTask,103.0,45.0,,,HRV,HRV_0164,2022-11-30 18:31:14
,wl-rdm,164,523310,0.0-8.45-0.45,1.0,162.0,,,,,,,[],,,,,,56.4,1.0,i,1.0,True,1914.0000002384186,115.0,60.0,40.0,False,,371.9475296536182,[],"[683, 384]",ColorTask,104.0,46.0,,,HRV,HRV_0164,2022-11-30 18:31:14
,wl-rdm,165,526309,0.0-8.46-0.46,1.0,163.0,,,,,,,[],,,,,,53.2,0.0,u,0.0,True,1637.6000001430511,99.0,60.0,40.0,False,,296.7509015421743,[],"[683, 384]",ColorTask,105.0,47.0,,,HRV,HRV_0164,2022-11-30 18:31:14
,wl-rdm,166,528841,0.0-8.47-0.47,1.0,164.0,,,,,,,[],,,,,,50.0,1.0,i,1.0,True,1123.4000000953674,68.0,60.0,40.0,False,,327.08459370384105,[],"[683, 384]",ColorTask,106.0,48.0,,,HRV,HRV_0164,2022-11-30 18:31:14
,wl-rdm,167,531572,0.0-8.48-0.48,1.0,165.0,,,,,,,[],,,,,,53.2,0.0,u,0.0,True,1344.2000002861023,81.0,60.0,40.0,False,,311.96926706038636,[],"[683, 384]",ColorTask,107.0,49.0,,,HRV,HRV_0164,2022-11-30 18:31:14
,wl-rdm,168,534039,0.0-8.49-0.49,1.0,166.0,,,,,,,[],,,,,,73.6,0.0,u,0.0,True,1037.3999998569489,63.0,60.0,40.0,False,,345.4724332793344,[],"[683, 384]",ColorTask,108.0,50.0,,,HRV,HRV_0164,2022-11-30 18:31:14
,wl-rdm,169,536636,0.0-8.50-0.50,1.0,167.0,,,,,,,[],,,,,,53.2,1.0,i,1.0,True,1307.5999999046326,79.0,60.0,40.0,False,,209.8845439775929,[],"[683, 384]",ColorTask,109.0,51.0,,,HRV,HRV_0164,2022-11-30 18:31:14
,wl-rdm,170,539085,0.0-8.51-0.51,1.0,168.0,,,,,,,[],,,,,,56.4,1.0,i,1.0,True,1029.3999998569489,62.0,60.0,40.0,False,,339.9747465620228,[],"[683, 384]",ColorTask,110.0,52.0,,,HRV,HRV_0164,2022-11-30 18:31:14
,wl-rdm,171,541284,0.0-8.52-0.52,1.0,169.0,,,,,,,[],,,,,,87.9,0.0,u,0.0,True,794.7999999523163,48.0,60.0,40.0,False,,317.69718273922365,[],"[683, 384]",ColorTask,111.0,53.0,,,HRV,HRV_0164,2022-11-30 18:31:14
,wl-rdm,172,544248,0.0-8.53-0.53,1.0,170.0,,,,,,,[],,,,,,56.4,0.0,u,0.0,True,1597.4999997615814,96.0,60.0,40.0,False,,315.75025982391475,[],"[683, 384]",ColorTask,112.0,54.0,,,HRV,HRV_0164,2022-11-30 18:31:14
,wl-rdm,173,547563,0.0-8.54-0.54,1.0,171.0,,,,,,,[],,,,,,53.2,0.0,i,1.0,False,1947.5999999046326,117.0,60.0,40.0,False,,294.27164426471893,[],"[683, 384]",ColorTask,111.0,55.0,,,HRV,HRV_0164,2022-11-30 18:31:14
,wl-rdm,174,549796,0.0-8.55-0.55,1.0,172.0,,,,,,,[],,,,,,56.4,1.0,i,1.0,True,891.4000000953674,54.0,60.0,40.0,False,,252.06022862572385,[],"[683, 384]",ColorTask,112.0,56.0,,,HRV,HRV_0164,2022-11-30 18:31:14
,wl-rdm,175,551944,0.0-8.56-0.56,1.0,173.0,,,,,,,[],,,,,,73.6,1.0,i,1.0,True,799.6000001430511,48.0,60.0,40.0,False,,272.2895853793184,[],"[683, 384]",ColorTask,113.0,57.0,,,HRV,HRV_0164,2022-11-30 18:31:14
,wl-rdm,176,553976,0.0-8.57-0.57,1.0,174.0,,,,,,,[],,,,,,87.9,1.0,i,1.0,True,647.2999997138977,39.0,60.0,40.0,False,,311.3565431173254,[],"[683, 384]",ColorTask,114.0,58.0,,,HRV,HRV_0164,2022-11-30 18:31:14
,wl-rdm,177,556475,0.0-8.58-0.58,1.0,175.0,,,,,,,[],,,,,,62.5,0.0,u,0.0,True,1063.2999999523163,64.0,60.0,40.0,False,,380.34921535247247,[],"[683, 384]",ColorTask,115.0,59.0,,,HRV,HRV_0164,2022-11-30 18:31:14
,wl-rdm,178,558840,0.0-8.59-0.59,1.0,176.0,,,,,,,[],,,,,,53.2,0.0,i,1.0,False,955.1000001430511,58.0,60.0,40.0,False,,330.0736296294607,[],"[683, 384]",ColorTask,114.0,60.0,,,HRV,HRV_0164,2022-11-30 18:31:14
,wl-rdm,179,561924,0.0-8.60-0.60,1.0,177.0,,,,,,,[],,,,,,62.5,0.0,u,0.0,True,1633.0,99.0,60.0,40.0,False,,359.90835834907614,[],"[683, 384]",ColorTask,115.0,61.0,,,HRV,HRV_0164,2022-11-30 18:31:14
,wl-rdm,180,565205,0.0-8.61-0.61,1.0,178.0,,,,,,,[],,,,,,73.6,1.0,i,1.0,True,1901.6000001430511,115.0,60.0,40.0,False,,303.82060290177054,[],"[683, 384]",ColorTask,116.0,62.0,,,HRV,HRV_0164,2022-11-30 18:31:14
,wl-rdm,181,567553,0.0-8.62-0.62,1.0,179.0,,,,,,,[],,,,,,50.0,0.0,u,0.0,True,1076.1000001430511,65.0,60.0,40.0,False,,207.96960603377457,[],"[683, 384]",ColorTask,117.0,63.0,,,HRV,HRV_0164,2022-11-30 18:31:14
,wl-rdm,182,570017,0.0-8.63-0.63,1.0,180.0,,,,,,,[],,,,,,62.5,1.0,i,1.0,True,1093.6000001430511,66.0,60.0,40.0,False,,298.80179799273344,[],"[683, 384]",ColorTask,118.0,64.0,,,HRV,HRV_0164,2022-11-30 18:31:14
,wl-rdm,183,572299,0.0-8.64-0.64,1.0,181.0,,,,,,,[],,,,,,62.5,0.0,u,0.0,True,888.2000000476837,54.0,60.0,40.0,False,,304.5502816696745,[],"[683, 384]",ColorTask,119.0,65.0,,,HRV,HRV_0164,2022-11-30 18:31:14
,wl-rdm,184,574782,0.0-8.65-0.65,1.0,182.0,,,,,,,[],,,,,,53.2,1.0,i,1.0,True,1086.9000000953674,65.0,60.0,40.0,False,,317.7736378196139,[],"[683, 384]",ColorTask,120.0,66.0,,,HRV,HRV_0164,2022-11-30 18:31:14
,wl-rdm,185,578780,0.0-8.66-0.66,1.0,183.0,,,,,,,[],,,,,,50.0,0.0,u,0.0,True,2622.4000000953674,158.0,60.0,40.0,False,,290.25561054857747,[],"[683, 384]",ColorTask,121.0,67.0,,,HRV,HRV_0164,2022-11-30 18:31:14
,wl-rdm,186,582461,0.0-8.67-0.67,1.0,184.0,,,,,,,[],,,,,,56.4,1.0,i,1.0,True,2361.5999999046326,142.0,60.0,40.0,False,,259.6919348383182,[],"[683, 384]",ColorTask,122.0,68.0,,,HRV,HRV_0164,2022-11-30 18:31:14
,wl-rdm,187,584742,0.0-8.68-0.68,1.0,185.0,,,,,,,[],,,,,,87.9,1.0,i,1.0,True,865.0000002384186,52.0,60.0,40.0,False,,341.79543568938425,[],"[683, 384]",ColorTask,123.0,69.0,,,HRV,HRV_0164,2022-11-30 18:31:14
,wl-rdm,188,588107,0.0-8.69-0.69,1.0,186.0,,,,,,,[],,,,,,53.2,1.0,u,0.0,False,2037.5,123.0,60.0,40.0,False,,239.46905698479645,[],"[683, 384]",ColorTask,122.0,70.0,,,HRV,HRV_0164,2022-11-30 18:31:14
,wl-rdm,189,591954,0.0-8.70-0.70,1.0,187.0,,,,,,,[],,,,,,53.2,1.0,i,1.0,True,2571.2999999523163,155.0,60.0,40.0,False,,212.3093913139602,[],"[683, 384]",ColorTask,123.0,71.0,,,HRV,HRV_0164,2022-11-30 18:31:14
,wl-rdm,190,594154,0.0-8.71-0.71,1.0,188.0,,,,,,,[],,,,,,87.9,0.0,u,0.0,True,769.7999999523163,47.0,60.0,40.0,False,,333.83763175817563,[],"[683, 384]",ColorTask,124.0,72.0,,,HRV,HRV_0164,2022-11-30 18:31:14
,wl-rdm,191,597769,0.0-8.72-0.72,1.0,189.0,,,,,,,[],,,,,,53.2,1.0,u,0.0,False,2321.4999997615814,140.0,60.0,40.0,False,,208.9217299783109,[],"[683, 384]",ColorTask,123.0,73.0,,,HRV,HRV_0164,2022-11-30 18:31:14
,wl-rdm,192,600016,0.0-8.73-0.73,1.0,190.0,,,,,,,[],,,,,,87.9,0.0,u,0.0,True,854.8999998569489,52.0,60.0,40.0,False,,304.6861338302426,[],"[683, 384]",ColorTask,124.0,74.0,,,HRV,HRV_0164,2022-11-30 18:31:14
,wl-rdm,193,603531,0.0-8.74-0.74,1.0,191.0,,,,,,,[],,,,,,50.0,1.0,u,0.0,False,2035.1000001430511,123.0,60.0,40.0,False,,380.4175810801081,[],"[683, 384]",ColorTask,123.0,75.0,,,HRV,HRV_0164,2022-11-30 18:31:14
,wl-rdm,194,606013,0.0-8.75-0.75,1.0,192.0,,,,,,,[],,,,,,50.0,0.0,u,0.0,True,1178.7999999523163,71.0,60.0,40.0,False,,230.71352536251595,[],"[683, 384]",ColorTask,124.0,76.0,,,HRV,HRV_0164,2022-11-30 18:31:14
,wl-rdm,195,608013,0.0-8.76-0.76,1.0,193.0,,,,,,,[],,,,,,87.9,1.0,i,1.0,True,629.2999999523163,38.0,60.0,40.0,False,,302.745715401663,[],"[683, 384]",ColorTask,125.0,77.0,,,HRV,HRV_0164,2022-11-30 18:31:14
,wl-rdm,196,610410,0.0-8.77-0.77,1.0,194.0,,,,,,,[],,,,,,53.2,0.0,u,0.0,True,1098.5,66.0,60.0,40.0,False,,222.3882779456422,[],"[683, 384]",ColorTask,126.0,78.0,,,HRV,HRV_0164,2022-11-30 18:31:14
,wl-rdm,197,612559,0.0-8.78-0.78,1.0,195.0,,,,,,,[],,,,,,73.6,0.0,u,0.0,True,796.9999997615814,48.0,60.0,40.0,False,,278.49818647300674,[],"[683, 384]",ColorTask,127.0,79.0,,,HRV,HRV_0164,2022-11-30 18:31:14
,wl-rdm,198,614542,0.0-8.79-0.79,1.0,196.0,,,,,,,[],,,,,,73.6,1.0,i,1.0,True,634.7000000476837,39.0,60.0,40.0,False,,276.99462067688967,[],"[683, 384]",ColorTask,128.0,80.0,,,HRV,HRV_0164,2022-11-30 18:31:14
,wl-rdm,199,617023,0.0-8.80-0.80,1.0,197.0,,,,,,,[],,,,,,56.4,0.0,u,0.0,True,1177.5,71.0,60.0,40.0,False,,217.73404349866115,[],"[683, 384]",ColorTask,129.0,81.0,,,HRV,HRV_0164,2022-11-30 18:31:14
,wl-rdm,200,618840,0.0-8.81-0.81,1.0,198.0,,,,,,,[],,,,,,87.9,0.0,u,0.0,True,547.1999998092651,33.0,60.0,40.0,False,,205.98129088879958,[],"[683, 384]",ColorTask,130.0,82.0,,,HRV,HRV_0164,2022-11-30 18:31:14
,wl-rdm,201,621803,0.0-8.82-0.82,1.0,199.0,,,,,,,[],,,,,,56.4,1.0,i,1.0,True,1644.2000000476837,99.0,60.0,40.0,False,,241.4369229635743,[],"[683, 384]",ColorTask,131.0,83.0,,,HRV,HRV_0164,2022-11-30 18:31:14
,wl-rdm,202,624436,0.0-8.83-0.83,1.0,200.0,,,,,,,[],,,,,,62.5,1.0,i,1.0,True,1309.1999998092651,79.0,60.0,40.0,False,,233.40799874148746,[],"[683, 384]",ColorTask,132.0,84.0,,,HRV,HRV_0164,2022-11-30 18:31:14
,wl-rdm,203,627284,0.0-8.84-0.84,1.0,201.0,,,,,,,[],,,,,,53.2,1.0,i,1.0,True,1414.4000000953674,85.0,60.0,40.0,False,,350.02478110422885,[],"[683, 384]",ColorTask,133.0,85.0,,,HRV,HRV_0164,2022-11-30 18:31:14
,wl-rdm,204,629484,0.0-8.85-0.85,1.0,202.0,,,,,,,[],,,,,,73.6,0.0,u,0.0,True,854.5999999046326,52.0,60.0,40.0,False,,278.5761448423768,[],"[683, 384]",ColorTask,134.0,86.0,,,HRV,HRV_0164,2022-11-30 18:31:14
,wl-rdm,205,632032,0.0-8.86-0.86,1.0,203.0,,,,,,,[],,,,,,56.4,1.0,i,1.0,True,1133.7000000476837,68.0,60.0,40.0,False,,348.97847031354075,[],"[683, 384]",ColorTask,135.0,87.0,,,HRV,HRV_0164,2022-11-30 18:31:14
,wl-rdm,206,633964,0.0-8.87-0.87,1.0,204.0,,,,,,,[],,,,,,87.9,1.0,i,1.0,True,494.69999980926514,30.0,60.0,40.0,False,,378.3739902854878,[],"[683, 384]",ColorTask,136.0,88.0,,,HRV,HRV_0164,2022-11-30 18:31:14
,wl-rdm,207,636030,0.0-8.88-0.88,1.0,205.0,,,,,,,[],,,,,,73.6,0.0,u,0.0,True,713.5,43.0,60.0,40.0,False,,283.196312539772,[],"[683, 384]",ColorTask,137.0,89.0,,,HRV,HRV_0164,2022-11-30 18:31:14
,wl-rdm,208,639295,0.0-8.89-0.89,1.0,206.0,,,,,,,[],,,,,,50.0,1.0,u,0.0,False,1852.4000000953674,112.0,60.0,40.0,False,,340.72384403831063,[],"[683, 384]",ColorTask,136.0,90.0,,,HRV,HRV_0164,2022-11-30 18:31:14
,wl-rdm,209,642377,0.0-8.90-0.90,1.0,207.0,,,,,,,[],,,,,,50.0,1.0,u,0.0,False,1736.0,105.0,60.0,40.0,False,,253.72779648726856,[],"[683, 384]",ColorTask,135.0,91.0,,,HRV,HRV_0164,2022-11-30 18:31:14
,wl-rdm,210,645642,0.0-8.91-0.91,1.0,208.0,,,,,,,[],,,,,,53.2,0.0,u,0.0,True,1985.1000001430511,120.0,60.0,40.0,False,,202.44427081095154,[],"[683, 384]",ColorTask,136.0,92.0,,,HRV,HRV_0164,2022-11-30 18:31:14
,wl-rdm,211,647741,0.0-8.92-0.92,1.0,209.0,,,,,,,[],,,,,,87.9,0.0,u,0.0,True,781.9000000953674,47.0,60.0,40.0,False,,251.1259467695804,[],"[683, 384]",ColorTask,137.0,93.0,,,HRV,HRV_0164,2022-11-30 18:31:14
,wl-rdm,212,651654,0.0-8.93-0.93,1.0,210.0,,,,,,,[],,,,,,62.5,1.0,i,1.0,True,2510.399999856949,151.0,60.0,40.0,False,,333.1574042368925,[],"[683, 384]",ColorTask,138.0,94.0,,,HRV,HRV_0164,2022-11-30 18:31:14
,wl-rdm,213,654337,0.0-8.94-0.94,1.0,211.0,,,,,,,[],,,,,,73.6,1.0,i,1.0,True,1321.6000001430511,80.0,60.0,40.0,False,,289.38579804962944,[],"[683, 384]",ColorTask,139.0,95.0,,,HRV,HRV_0164,2022-11-30 18:31:14
,wl-rdm,214,656835,0.0-8.95-0.95,1.0,212.0,,,,,,,[],,,,,,62.5,1.0,i,1.0,True,1193.5,72.0,60.0,40.0,False,,231.78363052770212,[],"[683, 384]",ColorTask,140.0,96.0,,,HRV,HRV_0164,2022-11-30 18:31:14
,wl-rdm,215,659267,0.0-8.96-0.96,1.0,213.0,,,,,,,[],,,,,,73.6,1.0,i,1.0,True,1149.0,69.0,60.0,40.0,False,,202.03749148980094,[],"[683, 384]",ColorTask,141.0,97.0,,,HRV,HRV_0164,2022-11-30 18:31:14
,wl-rdm,216,661433,0.0-8.97-0.97,1.0,214.0,,,,,,,[],,,,,,62.5,0.0,u,0.0,True,771.4999997615814,47.0,60.0,40.0,False,,314.35855483365975,[],"[683, 384]",ColorTask,142.0,98.0,,,HRV,HRV_0164,2022-11-30 18:31:14
,wl-rdm,217,664014,0.0-8.98-0.98,1.0,215.0,,,,,,,[],,,,,,56.4,1.0,i,1.0,True,1273.1000001430511,77.0,60.0,40.0,False,,223.84895892718566,[],"[683, 384]",ColorTask,143.0,99.0,,,HRV,HRV_0164,2022-11-30 18:31:14
,wl-rdm,218,666147,0.0-8.99-0.99,1.0,216.0,,,,,,,[],,,,,,56.4,0.0,u,0.0,True,737.0000002384186,45.0,60.0,40.0,False,,315.2793314455447,[],"[683, 384]",ColorTask,144.0,100.0,,,HRV,HRV_0164,2022-11-30 18:31:14
,wl-rdm,219,668628,0.0-8.100-0.100,1.0,217.0,,,,,,,[],,,,,,62.5,1.0,u,0.0,False,1003.2000000476837,61.0,60.0,40.0,False,,388.9248339438181,[],"[683, 384]",ColorTask,143.0,101.0,,,HRV,HRV_0164,2022-11-30 18:31:14
,wl-rdm,220,672027,0.0-8.101-0.101,1.0,218.0,,,,,,,[],,,,,,62.5,1.0,i,1.0,True,1977.5,119.0,60.0,40.0,False,,337.958529672685,[],"[683, 384]",ColorTask,144.0,102.0,,,HRV,HRV_0164,2022-11-30 18:31:14
,wl-rdm,221,675741,0.0-8.102-0.102,1.0,219.0,,,,,,,[],,,,,,50.0,1.0,u,0.0,False,2332.7999999523163,141.0,60.0,40.0,False,,291.44521532746836,[],"[683, 384]",ColorTask,143.0,103.0,,,HRV,HRV_0164,2022-11-30 18:31:14
,wl-rdm,222,679405,0.0-8.103-0.103,1.0,220.0,,,,,,,[],,,,,,53.2,0.0,u,0.0,True,2226.0,134.0,60.0,40.0,False,,363.15116929595143,[],"[683, 384]",ColorTask,144.0,104.0,,,HRV,HRV_0164,2022-11-30 18:31:14
,wl-rdm,223,681904,0.0-8.104-0.104,1.0,221.0,,,,,,,[],,,,,,50.0,0.0,u,0.0,True,1177.2999999523163,71.0,60.0,40.0,False,,234.23512716702865,[],"[683, 384]",ColorTask,145.0,105.0,,,HRV,HRV_0164,2022-11-30 18:31:14
,wl-rdm,224,684571,0.0-8.105-0.105,1.0,222.0,,,,,,,[],,,,,,73.6,0.0,u,0.0,True,1332.8999998569489,80.0,60.0,40.0,False,,252.7855698021807,[],"[683, 384]",ColorTask,146.0,106.0,,,HRV,HRV_0164,2022-11-30 18:31:14
,wl-rdm,225,686752,0.0-8.106-0.106,1.0,223.0,,,,,,,[],,,,,,62.5,0.0,u,0.0,True,896.0,54.0,60.0,40.0,False,,200.15828594737488,[],"[683, 384]",ColorTask,147.0,107.0,,,HRV,HRV_0164,2022-11-30 18:31:14
,wl-rdm,226,688700,0.0-8.107-0.107,1.0,224.0,,,,,,,[],,,,,,87.9,1.0,i,1.0,True,625.5000002384186,38.0,60.0,40.0,False,,235.16273178706751,[],"[683, 384]",ColorTask,148.0,108.0,,,HRV,HRV_0164,2022-11-30 18:31:14
,wl-rdm,227,692964,0.0-8.108-0.108,1.0,225.0,,,,,,,[],,,,,,56.4,0.0,u,0.0,True,2844.4000000953674,171.0,60.0,40.0,False,,362.014162788876,[],"[683, 384]",ColorTask,149.0,109.0,,,HRV,HRV_0164,2022-11-30 18:31:14
,wl-html-button-response,228,695149,0.0-9.0-0.0,,,,,,,,,,2176.0999999046326,,0,,,,,,,,,,,,,,,,,,,,<h3>End of this session. Thank you!</h3><br>,['Close window'],HRV,HRV_0164,2022-11-30 18:31:14
