trialN,stimuli,question,trialStartTime,trialStartTime_UNIX,stimulus1,rt,receivedResponse,rating,trialEndTime,trialDuration,stimulus1Loaded,exp,subjectId,date
0,"[{'imgObject': {}, 'id': 'blueberries', 'src': '/static/foodstim60/blueberries.jpg', 'key': 'NaN', 'origWidth': 411, 'origHeight': 411, 'width': 411, 'height': 411, 'widthPercent': 0.8, 'rescaleHeight': True, 'trialN': 0, 'loaded': True, 'loadedTime': 2595, 'positionName': 'CENTER', 'positionCoords': [477.5, 178.5]}]",Rate how much you want to eat this food from 0 (least) to 10 (most).,3326.399999856949,1669830884548,blueberries,3203.7999999523163,True,6.7700000000000005,6530.199999809265,3203.7999999523163,True,HRV,HRV_0164,2022-11-30 17:56:48
1,"[{'imgObject': {}, 'id': 'eggs', 'src': '/static/foodstim60/eggs.jpg', 'key': 'NaN', 'origWidth': 409, 'origHeight': 409, 'width': 409, 'height': 409, 'widthPercent': 0.8, 'rescaleHeight': True, 'trialN': 1, 'loaded': True, 'loadedTime': 2582.5, 'positionName': 'CENTER', 'positionCoords': [478.5, 179.5]}]",Rate how much you want to eat this food from 0 (least) to 10 (most).,6533.599999904633,1669830887755,eggs,1678.2999999523163,True,5.7,8211.899999856949,1678.2999999523163,True,HRV,HRV_0164,2022-11-30 17:56:48
2,"[{'imgObject': {}, 'id': 'corn cob', 'src': '/static/foodstim60/corn cob.jpg', 'key': 'NaN', 'origWidth': 411, 'origHeight': 411, 'width': 411, 'height': 411, 'widthPercent': 0.8, 'rescaleHeight': True, 'trialN': 2, 'loaded': True, 'loadedTime': 2589.699999809265, 'positionName': 'CENTER', 'positionCoords': [477.5, 178.5]}]",Rate how much you want to eat this food from 0 (least) to 10 (most).,8215.099999904633,1669830889437,corn cob,1895.0999999046326,True,0.1,10110.199999809265,1895.0999999046326,True,HRV,HRV_0164,2022-11-30 17:56:48
3,"[{'imgObject': {}, 'id': 'edamame', 'src': '/static/foodstim60/edamame.jpg', 'key': 'NaN', 'origWidth': 409, 'origHeight': 410, 'width': 409, 'height': 410, 'widthPercent': 0.8, 'rescaleHeight': True, 'trialN': 3, 'loaded': True, 'loadedTime': 2604, 'positionName': 'CENTER', 'positionCoords': [478.5, 179]}]",Rate how much you want to eat this food from 0 (least) to 10 (most).,10113.899999856949,1669830891336,edamame,1655.5,True,0.0,11769.399999856949,1655.5,True,HRV,HRV_0164,2022-11-30 17:56:48
4,"[{'imgObject': {}, 'id': 'salmon', 'src': '/static/foodstim60/salmon.jpg', 'key': 'NaN', 'origWidth': 410, 'origHeight': 409, 'width': 410, 'height': 409, 'widthPercent': 0.8, 'rescaleHeight': True, 'trialN': 4, 'loaded': True, 'loadedTime': 2684.7999999523163, 'positionName': 'CENTER', 'positionCoords': [478, 179.5]}]",Rate how much you want to eat this food from 0 (least) to 10 (most).,11773.099999904633,1669830892995,salmon,1991.7000000476837,True,7.84,13764.799999952316,1991.7000000476837,True,HRV,HRV_0164,2022-11-30 17:56:48
5,"[{'imgObject': {}, 'id': 'popsicles', 'src': '/static/foodstim60/popsicles.jpg', 'key': 'NaN', 'origWidth': 410, 'origHeight': 410, 'width': 410, 'height': 410, 'widthPercent': 0.8, 'rescaleHeight': True, 'trialN': 5, 'loaded': True, 'loadedTime': 2696.0999999046326, 'positionName': 'CENTER', 'positionCoords': [478, 179]}]",Rate how much you want to eat this food from 0 (least) to 10 (most).,13767.799999952316,1669830894990,popsicles,1887.5,True,1.3900000000000001,15655.299999952316,1887.5,True,HRV,HRV_0164,2022-11-30 17:56:48
6,"[{'imgObject': {}, 'id': 'cheerios', 'src': '/static/foodstim60/cheerios.jpg', 'key': 'NaN', 'origWidth': 409, 'origHeight': 410, 'width': 409, 'height': 410, 'widthPercent': 0.8, 'rescaleHeight': True, 'trialN': 6, 'loaded': True, 'loadedTime': 2682.699999809265, 'positionName': 'CENTER', 'positionCoords': [478.5, 179]}]",Rate how much you want to eat this food from 0 (least) to 10 (most).,15658.299999952316,1669830896880,cheerios,1826.5,True,3.5300000000000002,17484.799999952316,1826.5,True,HRV,HRV_0164,2022-11-30 17:56:48
7,"[{'imgObject': {}, 'id': 'salad w chicken', 'src': '/static/foodstim60/salad w chicken.jpg', 'key': 'NaN', 'origWidth': 411, 'origHeight': 411, 'width': 411, 'height': 411, 'widthPercent': 0.8, 'rescaleHeight': True, 'trialN': 7, 'loaded': True, 'loadedTime': 2686.2999999523163, 'positionName': 'CENTER', 'positionCoords': [477.5, 178.5]}]",Rate how much you want to eat this food from 0 (least) to 10 (most).,17487.39999985695,1669830898709,salad w chicken,1872.7999999523163,True,5.39,19360.199999809265,1872.7999999523163,True,HRV,HRV_0164,2022-11-30 17:56:48
8,"[{'imgObject': {}, 'id': 'turkey sandwich', 'src': '/static/foodstim60/turkey sandwich.jpg', 'key': 'NaN', 'origWidth': 409, 'origHeight': 409, 'width': 409, 'height': 409, 'widthPercent': 0.8, 'rescaleHeight': True, 'trialN': 8, 'loaded': True, 'loadedTime': 2691.399999856949, 'positionName': 'CENTER', 'positionCoords': [478.5, 179.5]}]",Rate how much you want to eat this food from 0 (least) to 10 (most).,19363.099999904633,1669830900585,turkey sandwich,2090.5,True,5.3,21453.599999904633,2090.5,True,HRV,HRV_0164,2022-11-30 17:56:48
9,"[{'imgObject': {}, 'id': 'mac & cheese', 'src': '/static/foodstim60/mac & cheese.jpg', 'key': 'NaN', 'origWidth': 410, 'origHeight': 410, 'width': 410, 'height': 410, 'widthPercent': 0.8, 'rescaleHeight': True, 'trialN': 9, 'loaded': True, 'loadedTime': 2645.699999809265, 'positionName': 'CENTER', 'positionCoords': [478, 179]}]",Rate how much you want to eat this food from 0 (least) to 10 (most).,21457.199999809265,1669830902679,mac & cheese,1895.0,True,3.02,23352.199999809265,1895.0,True,HRV,HRV_0164,2022-11-30 17:56:48
10,"[{'imgObject': {}, 'id': 'hashbrowns', 'src': '/static/foodstim60/hashbrowns.jpg', 'key': 'NaN', 'origWidth': 411, 'origHeight': 410, 'width': 411, 'height': 410, 'widthPercent': 0.8, 'rescaleHeight': True, 'trialN': 10, 'loaded': True, 'loadedTime': 2741.0999999046326, 'positionName': 'CENTER', 'positionCoords': [477.5, 179]}]",Rate how much you want to eat this food from 0 (least) to 10 (most).,23355.799999952316,1669830904577,hashbrowns,3289.5999999046326,True,1.83,26645.39999985695,3289.5999999046326,True,HRV,HRV_0164,2022-11-30 17:56:48
11,"[{'imgObject': {}, 'id': 'hotdog w must', 'src': '/static/foodstim60/hotdog w must.jpg', 'key': 'NaN', 'origWidth': 409, 'origHeight': 409, 'width': 409, 'height': 409, 'widthPercent': 0.8, 'rescaleHeight': True, 'trialN': 11, 'loaded': True, 'loadedTime': 2742.5, 'positionName': 'CENTER', 'positionCoords': [478.5, 179.5]}]",Rate how much you want to eat this food from 0 (least) to 10 (most).,26651.0,1669830907873,hotdog w must,1727.1999998092651,True,0.37,28378.199999809265,1727.1999998092651,True,HRV,HRV_0164,2022-11-30 17:56:48
12,"[{'imgObject': {}, 'id': 'kiwi', 'src': '/static/foodstim60/kiwi.jpg', 'key': 'NaN', 'origWidth': 410, 'origHeight': 410, 'width': 410, 'height': 410, 'widthPercent': 0.8, 'rescaleHeight': True, 'trialN': 12, 'loaded': True, 'loadedTime': 2753.699999809265, 'positionName': 'CENTER', 'positionCoords': [478, 179]}]",Rate how much you want to eat this food from 0 (least) to 10 (most).,28381.89999985695,1669830909604,kiwi,1993.0,True,8.39,30374.89999985695,1993.0,True,HRV,HRV_0164,2022-11-30 17:56:48
13,"[{'imgObject': {}, 'id': 'strawberries', 'src': '/static/foodstim60/strawberries.jpg', 'key': 'NaN', 'origWidth': 410, 'origHeight': 410, 'width': 410, 'height': 410, 'widthPercent': 0.8, 'rescaleHeight': True, 'trialN': 13, 'loaded': True, 'loadedTime': 2755.0999999046326, 'positionName': 'CENTER', 'positionCoords': [478, 179]}]",Rate how much you want to eat this food from 0 (least) to 10 (most).,30379.299999952316,1669830911601,strawberries,1450.0,True,9.620000000000001,31829.299999952316,1450.0,True,HRV,HRV_0164,2022-11-30 17:56:48
14,"[{'imgObject': {}, 'id': 'raisin bran w milk', 'src': '/static/foodstim60/raisin bran w milk.jpg', 'key': 'NaN', 'origWidth': 411, 'origHeight': 411, 'width': 411, 'height': 411, 'widthPercent': 0.8, 'rescaleHeight': True, 'trialN': 14, 'loaded': True, 'loadedTime': 2744.199999809265, 'positionName': 'CENTER', 'positionCoords': [477.5, 178.5]}]",Rate how much you want to eat this food from 0 (least) to 10 (most).,31833.599999904633,1669830913055,raisin bran w milk,2733.7000000476837,True,0.16,34567.299999952316,2733.7000000476837,True,HRV,HRV_0164,2022-11-30 17:56:48
15,"[{'imgObject': {}, 'id': 'shreddedwheatwithmilk', 'src': '/static/foodstim60/shreddedwheatwithmilk.jpg', 'key': 'NaN', 'origWidth': 410, 'origHeight': 410, 'width': 410, 'height': 410, 'widthPercent': 0.8, 'rescaleHeight': True, 'trialN': 15, 'loaded': True, 'loadedTime': 2819.399999856949, 'positionName': 'CENTER', 'positionCoords': [478, 179]}]",Rate how much you want to eat this food from 0 (least) to 10 (most).,34572.5,1669830915794,shreddedwheatwithmilk,1862.3999998569489,True,1.9100000000000001,36434.89999985695,1862.3999998569489,True,HRV,HRV_0164,2022-11-30 17:56:48
16,"[{'imgObject': {}, 'id': 'roastedpotatoes', 'src': '/static/foodstim60/roastedpotatoes.jpg', 'key': 'NaN', 'origWidth': 409, 'origHeight': 410, 'width': 409, 'height': 410, 'widthPercent': 0.8, 'rescaleHeight': True, 'trialN': 16, 'loaded': True, 'loadedTime': 2829.5999999046326, 'positionName': 'CENTER', 'positionCoords': [478.5, 179]}]",Rate how much you want to eat this food from 0 (least) to 10 (most).,36437.89999985695,1669830917660,roastedpotatoes,1535.2999999523163,True,3.66,37973.199999809265,1535.2999999523163,True,HRV,HRV_0164,2022-11-30 17:56:48
17,"[{'imgObject': {}, 'id': 'burrito', 'src': '/static/foodstim60/burrito.jpg', 'key': 'NaN', 'origWidth': 410, 'origHeight': 410, 'width': 410, 'height': 410, 'widthPercent': 0.8, 'rescaleHeight': True, 'trialN': 17, 'loaded': True, 'loadedTime': 2825, 'positionName': 'CENTER', 'positionCoords': [478, 179]}]",Rate how much you want to eat this food from 0 (least) to 10 (most).,37977.699999809265,1669830919199,burrito,2299.2000000476837,True,2.36,40276.89999985695,2299.2000000476837,True,HRV,HRV_0164,2022-11-30 17:56:48
18,"[{'imgObject': {}, 'id': 'ice cream sundae 002', 'src': '/static/foodstim60/ice cream sundae 002.jpg', 'key': 'NaN', 'origWidth': 409, 'origHeight': 409, 'width': 409, 'height': 409, 'widthPercent': 0.8, 'rescaleHeight': True, 'trialN': 18, 'loaded': True, 'loadedTime': 2793.199999809265, 'positionName': 'CENTER', 'positionCoords': [478.5, 179.5]}]",Rate how much you want to eat this food from 0 (least) to 10 (most).,40281.89999985695,1669830921504,ice cream sundae 002,3401.4000000953674,True,1.55,43683.299999952316,3401.4000000953674,True,HRV,HRV_0164,2022-11-30 17:56:48
19,"[{'imgObject': {}, 'id': 'sweetpotato', 'src': '/static/foodstim60/sweetpotato.jpg', 'key': 'NaN', 'origWidth': 410, 'origHeight': 410, 'width': 410, 'height': 410, 'widthPercent': 0.8, 'rescaleHeight': True, 'trialN': 19, 'loaded': True, 'loadedTime': 2841.399999856949, 'positionName': 'CENTER', 'positionCoords': [478, 179]}]",Rate how much you want to eat this food from 0 (least) to 10 (most).,43688.5,1669830924910,sweetpotato,1929.8999998569489,True,7.67,45618.39999985695,1929.8999998569489,True,HRV,HRV_0164,2022-11-30 17:56:48
20,"[{'imgObject': {}, 'id': 'bagel plain', 'src': '/static/foodstim60/bagel plain.jpg', 'key': 'NaN', 'origWidth': 410, 'origHeight': 410, 'width': 410, 'height': 410, 'widthPercent': 0.8, 'rescaleHeight': True, 'trialN': 20, 'loaded': True, 'loadedTime': 2845.399999856949, 'positionName': 'CENTER', 'positionCoords': [478, 179]}]",Rate how much you want to eat this food from 0 (least) to 10 (most).,45621.5,1669830926843,bagel plain,1789.6999998092651,True,0.51,47411.199999809265,1789.6999998092651,True,HRV,HRV_0164,2022-11-30 17:56:48
21,"[{'imgObject': {}, 'id': 'orange slices', 'src': '/static/foodstim60/orange slices.jpg', 'key': 'NaN', 'origWidth': 409, 'origHeight': 410, 'width': 409, 'height': 410, 'widthPercent': 0.8, 'rescaleHeight': True, 'trialN': 21, 'loaded': True, 'loadedTime': 2850.699999809265, 'positionName': 'CENTER', 'positionCoords': [478.5, 179]}]",Rate how much you want to eat this food from 0 (least) to 10 (most).,47414.299999952316,1669830928636,orange slices,1332.7999999523163,True,6.2,48747.09999990463,1332.7999999523163,True,HRV,HRV_0164,2022-11-30 17:56:48
22,"[{'imgObject': {}, 'id': 'sushi w_condiments', 'src': '/static/foodstim60/sushi w_condiments.jpg', 'key': 'NaN', 'origWidth': 410, 'origHeight': 410, 'width': 410, 'height': 410, 'widthPercent': 0.8, 'rescaleHeight': True, 'trialN': 22, 'loaded': True, 'loadedTime': 2880.699999809265, 'positionName': 'CENTER', 'positionCoords': [478, 179]}]",Rate how much you want to eat this food from 0 (least) to 10 (most).,48748.199999809265,1669830929970,sushi w_condiments,1693.7000000476837,True,9.49,50441.89999985695,1693.7000000476837,True,HRV,HRV_0164,2022-11-30 17:56:48
23,"[{'imgObject': {}, 'id': 'tacos', 'src': '/static/foodstim60/tacos.jpg', 'key': 'NaN', 'origWidth': 411, 'origHeight': 411, 'width': 411, 'height': 411, 'widthPercent': 0.8, 'rescaleHeight': True, 'trialN': 23, 'loaded': True, 'loadedTime': 2862.7999999523163, 'positionName': 'CENTER', 'positionCoords': [477.5, 178.5]}]",Rate how much you want to eat this food from 0 (least) to 10 (most).,50445.89999985695,1669830931668,tacos,2246.100000143051,True,3.12,52692.0,2246.100000143051,True,HRV,HRV_0164,2022-11-30 17:56:48
24,"[{'imgObject': {}, 'id': 'Tribe humus pita', 'src': '/static/foodstim60/Tribe humus pita.jpg', 'key': 'NaN', 'origWidth': 411, 'origHeight': 411, 'width': 411, 'height': 411, 'widthPercent': 0.8, 'rescaleHeight': True, 'trialN': 24, 'loaded': True, 'loadedTime': 2925, 'positionName': 'CENTER', 'positionCoords': [477.5, 178.5]}]",Rate how much you want to eat this food from 0 (least) to 10 (most).,52693.5,1669830933915,Tribe humus pita,2663.0,True,4.79,55356.5,2663.0,True,HRV,HRV_0164,2022-11-30 17:56:48
25,"[{'imgObject': {}, 'id': 'yogurt no spoon', 'src': '/static/foodstim60/yogurt no spoon.jpg', 'key': 'NaN', 'origWidth': 411, 'origHeight': 410, 'width': 411, 'height': 410, 'widthPercent': 0.8, 'rescaleHeight': True, 'trialN': 25, 'loaded': True, 'loadedTime': 2915.5, 'positionName': 'CENTER', 'positionCoords': [477.5, 179]}]",Rate how much you want to eat this food from 0 (least) to 10 (most).,55361.39999985695,1669830936583,yogurt no spoon,2987.7999999523163,True,5.0200000000000005,58349.199999809265,2987.7999999523163,True,HRV,HRV_0164,2022-11-30 17:56:48
26,"[{'imgObject': {}, 'id': 'banana', 'src': '/static/foodstim60/banana.jpg', 'key': 'NaN', 'origWidth': 410, 'origHeight': 410, 'width': 410, 'height': 410, 'widthPercent': 0.8, 'rescaleHeight': True, 'trialN': 26, 'loaded': True, 'loadedTime': 2883.899999856949, 'positionName': 'CENTER', 'positionCoords': [478, 179]}]",Rate how much you want to eat this food from 0 (least) to 10 (most).,58353.299999952316,1669830939575,banana,1712.5,True,3.84,60065.799999952316,1712.5,True,HRV,HRV_0164,2022-11-30 17:56:48
27,"[{'imgObject': {}, 'id': 'chickenfingers', 'src': '/static/foodstim60/chickenfingers.jpg', 'key': 'NaN', 'origWidth': 410, 'origHeight': 410, 'width': 410, 'height': 410, 'widthPercent': 0.8, 'rescaleHeight': True, 'trialN': 27, 'loaded': True, 'loadedTime': 2888.399999856949, 'positionName': 'CENTER', 'positionCoords': [478, 179]}]",Rate how much you want to eat this food from 0 (least) to 10 (most).,60067.09999990463,1669830941289,chickenfingers,2602.2999999523163,True,4.34,62669.39999985695,2602.2999999523163,True,HRV,HRV_0164,2022-11-30 17:56:48
28,"[{'imgObject': {}, 'id': 'Grapes', 'src': '/static/foodstim60/Grapes.jpg', 'key': 'NaN', 'origWidth': 411, 'origHeight': 411, 'width': 411, 'height': 411, 'widthPercent': 0.8, 'rescaleHeight': True, 'trialN': 28, 'loaded': True, 'loadedTime': 2917.699999809265, 'positionName': 'CENTER', 'positionCoords': [477.5, 178.5]}]",Rate how much you want to eat this food from 0 (least) to 10 (most).,62676.0,1669830943898,Grapes,1328.3999998569489,True,6.140000000000001,64004.39999985695,1328.3999998569489,True,HRV,HRV_0164,2022-11-30 17:56:48
29,"[{'imgObject': {}, 'id': 'baked potato', 'src': '/static/foodstim60/baked potato.jpg', 'key': 'NaN', 'origWidth': 409, 'origHeight': 410, 'width': 409, 'height': 410, 'widthPercent': 0.8, 'rescaleHeight': True, 'trialN': 29, 'loaded': True, 'loadedTime': 2922.399999856949, 'positionName': 'CENTER', 'positionCoords': [478.5, 179]}]",Rate how much you want to eat this food from 0 (least) to 10 (most).,64008.39999985695,1669830945230,baked potato,3192.0,True,1.06,67200.39999985695,3192.0,True,HRV,HRV_0164,2022-11-30 17:56:48
30,"[{'imgObject': {}, 'id': 'raspberries', 'src': '/static/foodstim60/raspberries.jpg', 'key': 'NaN', 'origWidth': 411, 'origHeight': 411, 'width': 411, 'height': 411, 'widthPercent': 0.8, 'rescaleHeight': True, 'trialN': 30, 'loaded': True, 'loadedTime': 2944, 'positionName': 'CENTER', 'positionCoords': [477.5, 178.5]}]",Rate how much you want to eat this food from 0 (least) to 10 (most).,67204.89999985695,1669830948427,raspberries,2200.7000000476837,True,9.4,69405.59999990463,2200.7000000476837,True,HRV,HRV_0164,2022-11-30 17:56:48
31,"[{'imgObject': {}, 'id': 'granola w milk', 'src': '/static/foodstim60/granola w milk.jpg', 'key': 'NaN', 'origWidth': 410, 'origHeight': 410, 'width': 410, 'height': 410, 'widthPercent': 0.8, 'rescaleHeight': True, 'trialN': 31, 'loaded': True, 'loadedTime': 2930.699999809265, 'positionName': 'CENTER', 'positionCoords': [478, 179]}]",Rate how much you want to eat this food from 0 (least) to 10 (most).,69410.19999980927,1669830950632,granola w milk,1722.6000001430511,True,0.18,71132.79999995232,1722.6000001430511,True,HRV,HRV_0164,2022-11-30 17:56:48
32,"[{'imgObject': {}, 'id': 'cherries', 'src': '/static/foodstim60/cherries.jpg', 'key': 'NaN', 'origWidth': 410, 'origHeight': 411, 'width': 410, 'height': 411, 'widthPercent': 0.8, 'rescaleHeight': True, 'trialN': 32, 'loaded': True, 'loadedTime': 2974.699999809265, 'positionName': 'CENTER', 'positionCoords': [478, 178.5]}]",Rate how much you want to eat this food from 0 (least) to 10 (most).,71135.69999980927,1669830952357,cherries,1458.0,True,9.58,72593.69999980927,1458.0,True,HRV,HRV_0164,2022-11-30 17:56:48
33,"[{'imgObject': {}, 'id': 'apple slices', 'src': '/static/foodstim60/apple slices.jpg', 'key': 'NaN', 'origWidth': 409, 'origHeight': 410, 'width': 409, 'height': 410, 'widthPercent': 0.8, 'rescaleHeight': True, 'trialN': 33, 'loaded': True, 'loadedTime': 2986.5999999046326, 'positionName': 'CENTER', 'positionCoords': [478.5, 179]}]",Rate how much you want to eat this food from 0 (least) to 10 (most).,72597.0,1669830953819,apple slices,2674.0999999046326,True,4.57,75271.09999990463,2674.0999999046326,True,HRV,HRV_0164,2022-11-30 17:56:48
34,"[{'imgObject': {}, 'id': 'froot loops w milk', 'src': '/static/foodstim60/froot loops w milk.jpg', 'key': 'NaN', 'origWidth': 410, 'origHeight': 410, 'width': 410, 'height': 410, 'widthPercent': 0.8, 'rescaleHeight': True, 'trialN': 34, 'loaded': True, 'loadedTime': 3030.0999999046326, 'positionName': 'CENTER', 'positionCoords': [478, 179]}]",Rate how much you want to eat this food from 0 (least) to 10 (most).,75272.29999995232,1669830956494,froot loops w milk,1693.8999998569489,True,1.0,76966.19999980927,1693.8999998569489,True,HRV,HRV_0164,2022-11-30 17:56:48
35,"[{'imgObject': {}, 'id': 'lox', 'src': '/static/foodstim60/lox.jpg', 'key': 'NaN', 'origWidth': 410, 'origHeight': 411, 'width': 410, 'height': 411, 'widthPercent': 0.8, 'rescaleHeight': True, 'trialN': 35, 'loaded': True, 'loadedTime': 2976.0999999046326, 'positionName': 'CENTER', 'positionCoords': [478, 178.5]}]",Rate how much you want to eat this food from 0 (least) to 10 (most).,76968.09999990463,1669830958190,lox,2196.0,True,7.47,79164.09999990463,2196.0,True,HRV,HRV_0164,2022-11-30 17:56:48
36,"[{'imgObject': {}, 'id': 'rigatoni', 'src': '/static/foodstim60/rigatoni.jpg', 'key': 'NaN', 'origWidth': 411, 'origHeight': 411, 'width': 411, 'height': 411, 'widthPercent': 0.8, 'rescaleHeight': True, 'trialN': 36, 'loaded': True, 'loadedTime': 3025.899999856949, 'positionName': 'CENTER', 'positionCoords': [477.5, 178.5]}]",Rate how much you want to eat this food from 0 (least) to 10 (most).,79165.29999995232,1669830960387,rigatoni,1656.7999999523163,True,1.1300000000000001,80822.09999990463,1656.7999999523163,True,HRV,HRV_0164,2022-11-30 17:56:48
37,"[{'imgObject': {}, 'id': 'blackbeanswithrice', 'src': '/static/foodstim60/blackbeanswithrice.jpg', 'key': 'NaN', 'origWidth': 410, 'origHeight': 410, 'width': 410, 'height': 410, 'widthPercent': 0.8, 'rescaleHeight': True, 'trialN': 37, 'loaded': True, 'loadedTime': 3037.7999999523163, 'positionName': 'CENTER', 'positionCoords': [478, 179]}]",Rate how much you want to eat this food from 0 (least) to 10 (most).,80823.89999985695,1669830962046,blackbeanswithrice,2482.600000143051,True,0.31,83306.5,2482.600000143051,True,HRV,HRV_0164,2022-11-30 17:56:48
38,"[{'imgObject': {}, 'id': 'veggieswithdip', 'src': '/static/foodstim60/veggieswithdip.jpg', 'key': 'NaN', 'origWidth': 409, 'origHeight': 409, 'width': 409, 'height': 409, 'widthPercent': 0.8, 'rescaleHeight': True, 'trialN': 38, 'loaded': True, 'loadedTime': 3031.699999809265, 'positionName': 'CENTER', 'positionCoords': [478.5, 179.5]}]",Rate how much you want to eat this food from 0 (least) to 10 (most).,83310.79999995232,1669830964533,veggieswithdip,1675.2999999523163,True,1.76,84986.09999990463,1675.2999999523163,True,HRV,HRV_0164,2022-11-30 17:56:48
39,"[{'imgObject': {}, 'id': 'fried eggs', 'src': '/static/foodstim60/fried eggs.jpg', 'key': 'NaN', 'origWidth': 410, 'origHeight': 410, 'width': 410, 'height': 410, 'widthPercent': 0.8, 'rescaleHeight': True, 'trialN': 39, 'loaded': True, 'loadedTime': 3034.5, 'positionName': 'CENTER', 'positionCoords': [478, 179]}]",Rate how much you want to eat this food from 0 (least) to 10 (most).,84990.29999995232,1669830966212,fried eggs,1527.0999999046326,True,3.6,86517.39999985695,1527.0999999046326,True,HRV,HRV_0164,2022-11-30 17:56:48
40,"[{'imgObject': {}, 'id': 'mango', 'src': '/static/foodstim60/mango.jpg', 'key': 'NaN', 'origWidth': 411, 'origHeight': 411, 'width': 411, 'height': 411, 'widthPercent': 0.8, 'rescaleHeight': True, 'trialN': 40, 'loaded': True, 'loadedTime': 3095.7999999523163, 'positionName': 'CENTER', 'positionCoords': [477.5, 178.5]}]",Rate how much you want to eat this food from 0 (least) to 10 (most).,86521.39999985695,1669830967743,mango,2253.100000143051,True,4.73,88774.5,2253.100000143051,True,HRV,HRV_0164,2022-11-30 17:56:48
41,"[{'imgObject': {}, 'id': 'avocado', 'src': '/static/foodstim60/avocado.jpg', 'key': 'NaN', 'origWidth': 409, 'origHeight': 409, 'width': 409, 'height': 409, 'widthPercent': 0.8, 'rescaleHeight': True, 'trialN': 41, 'loaded': True, 'loadedTime': 3058.399999856949, 'positionName': 'CENTER', 'positionCoords': [478.5, 179.5]}]",Rate how much you want to eat this food from 0 (least) to 10 (most).,88776.19999980927,1669830969998,avocado,1054.6000001430511,True,6.62,89830.79999995232,1054.6000001430511,True,HRV,HRV_0164,2022-11-30 17:56:48
42,"[{'imgObject': {}, 'id': 'omelette', 'src': '/static/foodstim60/omelette.jpg', 'key': 'NaN', 'origWidth': 410, 'origHeight': 409, 'width': 410, 'height': 409, 'widthPercent': 0.8, 'rescaleHeight': True, 'trialN': 42, 'loaded': True, 'loadedTime': 3133.399999856949, 'positionName': 'CENTER', 'positionCoords': [478, 179.5]}]",Rate how much you want to eat this food from 0 (least) to 10 (most).,89832.5,1669830971054,omelette,1094.8999998569489,True,3.74,90927.39999985695,1094.8999998569489,True,HRV,HRV_0164,2022-11-30 17:56:48
43,"[{'imgObject': {}, 'id': 'pear', 'src': '/static/foodstim60/pear.jpg', 'key': 'NaN', 'origWidth': 411, 'origHeight': 410, 'width': 411, 'height': 410, 'widthPercent': 0.8, 'rescaleHeight': True, 'trialN': 43, 'loaded': True, 'loadedTime': 3091.899999856949, 'positionName': 'CENTER', 'positionCoords': [477.5, 179]}]",Rate how much you want to eat this food from 0 (least) to 10 (most).,90929.0,1669830972151,pear,2632.0,True,4.51,93561.0,2632.0,True,HRV,HRV_0164,2022-11-30 17:56:48
44,"[{'imgObject': {}, 'id': 'mashed potato', 'src': '/static/foodstim60/mashed potato.jpg', 'key': 'NaN', 'origWidth': 409, 'origHeight': 409, 'width': 409, 'height': 409, 'widthPercent': 0.8, 'rescaleHeight': True, 'trialN': 44, 'loaded': True, 'loadedTime': 3093.7999999523163, 'positionName': 'CENTER', 'positionCoords': [478.5, 179.5]}]",Rate how much you want to eat this food from 0 (least) to 10 (most).,93565.79999995232,1669830974788,mashed potato,2261.5999999046326,True,1.35,95827.39999985695,2261.5999999046326,True,HRV,HRV_0164,2022-11-30 17:56:48
45,"[{'imgObject': {}, 'id': 'rigatoni and sauce', 'src': '/static/foodstim60/rigatoni and sauce.jpg', 'key': 'NaN', 'origWidth': 410, 'origHeight': 411, 'width': 410, 'height': 411, 'widthPercent': 0.8, 'rescaleHeight': True, 'trialN': 45, 'loaded': True, 'loadedTime': 3136.699999809265, 'positionName': 'CENTER', 'positionCoords': [478, 178.5]}]",Rate how much you want to eat this food from 0 (least) to 10 (most).,95833.19999980927,1669830977055,rigatoni and sauce,1808.5,True,2.17,97641.69999980927,1808.5,True,HRV,HRV_0164,2022-11-30 17:56:48
46,"[{'imgObject': {}, 'id': 'steak', 'src': '/static/foodstim60/steak.jpg', 'key': 'NaN', 'origWidth': 410, 'origHeight': 410, 'width': 410, 'height': 410, 'widthPercent': 0.8, 'rescaleHeight': True, 'trialN': 46, 'loaded': True, 'loadedTime': 3139.699999809265, 'positionName': 'CENTER', 'positionCoords': [478, 179]}]",Rate how much you want to eat this food from 0 (least) to 10 (most).,97646.89999985695,1669830978869,steak,1793.0,True,4.6000000000000005,99439.89999985695,1793.0,True,HRV,HRV_0164,2022-11-30 17:56:48
47,"[{'imgObject': {}, 'id': 'chicken nuggets2', 'src': '/static/foodstim60/chicken nuggets2.jpg', 'key': 'NaN', 'origWidth': 410, 'origHeight': 409, 'width': 410, 'height': 409, 'widthPercent': 0.8, 'rescaleHeight': True, 'trialN': 47, 'loaded': True, 'loadedTime': 3154.199999809265, 'positionName': 'CENTER', 'positionCoords': [478, 179.5]}]",Rate how much you want to eat this food from 0 (least) to 10 (most).,99441.39999985695,1669830980663,chicken nuggets2,1446.2999999523163,True,5.4,100887.69999980927,1446.2999999523163,True,HRV,HRV_0164,2022-11-30 17:56:48
48,"[{'imgObject': {}, 'id': 'olives', 'src': '/static/foodstim60/olives.jpg', 'key': 'NaN', 'origWidth': 410, 'origHeight': 410, 'width': 410, 'height': 410, 'widthPercent': 0.8, 'rescaleHeight': True, 'trialN': 48, 'loaded': True, 'loadedTime': 3148.5, 'positionName': 'CENTER', 'positionCoords': [478, 179]}]",Rate how much you want to eat this food from 0 (least) to 10 (most).,100888.79999995232,1669830982111,olives,1492.7000000476837,True,1.74,102381.5,1492.7000000476837,True,HRV,HRV_0164,2022-11-30 17:56:48
49,"[{'imgObject': {}, 'id': 'fruitsalad', 'src': '/static/foodstim60/fruitsalad.jpg', 'key': 'NaN', 'origWidth': 410, 'origHeight': 410, 'width': 410, 'height': 410, 'widthPercent': 0.8, 'rescaleHeight': True, 'trialN': 49, 'loaded': True, 'loadedTime': 3152.5, 'positionName': 'CENTER', 'positionCoords': [478, 179]}]",Rate how much you want to eat this food from 0 (least) to 10 (most).,102384.5,1669830983606,fruitsalad,1669.5999999046326,True,6.34,104054.09999990463,1669.5999999046326,True,HRV,HRV_0164,2022-11-30 17:56:48
50,"[{'imgObject': {}, 'id': 'turkeysandwich', 'src': '/static/foodstim60/turkeysandwich.jpg', 'key': 'NaN', 'origWidth': 409, 'origHeight': 409, 'width': 409, 'height': 409, 'widthPercent': 0.8, 'rescaleHeight': True, 'trialN': 50, 'loaded': True, 'loadedTime': 3212.199999809265, 'positionName': 'CENTER', 'positionCoords': [478.5, 179.5]}]",Rate how much you want to eat this food from 0 (least) to 10 (most).,104057.0,1669830985279,turkeysandwich,2735.5,True,1.8900000000000001,106792.5,2735.5,True,HRV,HRV_0164,2022-11-30 17:56:48
51,"[{'imgObject': {}, 'id': 'burger', 'src': '/static/foodstim60/burger.jpg', 'key': 'NaN', 'origWidth': 409, 'origHeight': 409, 'width': 409, 'height': 409, 'widthPercent': 0.8, 'rescaleHeight': True, 'trialN': 51, 'loaded': True, 'loadedTime': 3229.399999856949, 'positionName': 'CENTER', 'positionCoords': [478.5, 179.5]}]",Rate how much you want to eat this food from 0 (least) to 10 (most).,106796.39999985695,1669830988018,burger,1892.2999999523163,True,3.4,108688.69999980927,1892.2999999523163,True,HRV,HRV_0164,2022-11-30 17:56:48
52,"[{'imgObject': {}, 'id': 'grilled chicken strips', 'src': '/static/foodstim60/grilled chicken strips.jpg', 'key': 'NaN', 'origWidth': 410, 'origHeight': 411, 'width': 410, 'height': 411, 'widthPercent': 0.8, 'rescaleHeight': True, 'trialN': 52, 'loaded': True, 'loadedTime': 3187.0999999046326, 'positionName': 'CENTER', 'positionCoords': [478, 178.5]}]",Rate how much you want to eat this food from 0 (least) to 10 (most).,108690.79999995232,1669830989913,grilled chicken strips,1514.3999998569489,True,5.3500000000000005,110205.19999980927,1514.3999998569489,True,HRV,HRV_0164,2022-11-30 17:56:48
53,"[{'imgObject': {}, 'id': 'cherry tomato', 'src': '/static/foodstim60/cherry tomato.jpg', 'key': 'NaN', 'origWidth': 410, 'origHeight': 410, 'width': 410, 'height': 410, 'widthPercent': 0.8, 'rescaleHeight': True, 'trialN': 53, 'loaded': True, 'loadedTime': 3235.399999856949, 'positionName': 'CENTER', 'positionCoords': [478, 179]}]",Rate how much you want to eat this food from 0 (least) to 10 (most).,110208.19999980927,1669830991430,cherry tomato,1406.3000001907349,True,7.1000000000000005,111614.5,1406.3000001907349,True,HRV,HRV_0164,2022-11-30 17:56:48
54,"[{'imgObject': {}, 'id': 'bagel and cc', 'src': '/static/foodstim60/bagel and cc.jpg', 'key': 'NaN', 'origWidth': 410, 'origHeight': 410, 'width': 410, 'height': 410, 'widthPercent': 0.8, 'rescaleHeight': True, 'trialN': 54, 'loaded': True, 'loadedTime': 3236.7999999523163, 'positionName': 'CENTER', 'positionCoords': [478, 179]}]",Rate how much you want to eat this food from 0 (least) to 10 (most).,111617.69999980927,1669830992839,bagel and cc,3117.4000000953674,True,0.43,114735.09999990463,3117.4000000953674,True,HRV,HRV_0164,2022-11-30 17:56:48
55,"[{'imgObject': {}, 'id': 'eggsalad', 'src': '/static/foodstim60/eggsalad.jpg', 'key': 'NaN', 'origWidth': 410, 'origHeight': 409, 'width': 410, 'height': 409, 'widthPercent': 0.8, 'rescaleHeight': True, 'trialN': 55, 'loaded': True, 'loadedTime': 3233.7999999523163, 'positionName': 'CENTER', 'positionCoords': [478, 179.5]}]",Rate how much you want to eat this food from 0 (least) to 10 (most).,114738.69999980927,1669830995960,eggsalad,3701.300000190735,True,4.39,118440.0,3701.300000190735,True,HRV,HRV_0164,2022-11-30 17:56:48
56,"[{'imgObject': {}, 'id': 'cantaloupe', 'src': '/static/foodstim60/cantaloupe.jpg', 'key': 'NaN', 'origWidth': 409, 'origHeight': 409, 'width': 409, 'height': 409, 'widthPercent': 0.8, 'rescaleHeight': True, 'trialN': 56, 'loaded': True, 'loadedTime': 3250.399999856949, 'positionName': 'CENTER', 'positionCoords': [478.5, 179.5]}]",Rate how much you want to eat this food from 0 (least) to 10 (most).,118443.39999985695,1669830999665,cantaloupe,1804.9000000953674,True,4.5600000000000005,120248.29999995232,1804.9000000953674,True,HRV,HRV_0164,2022-11-30 17:56:48
57,"[{'imgObject': {}, 'id': 'seaweed', 'src': '/static/foodstim60/seaweed.jpg', 'key': 'NaN', 'origWidth': 410, 'origHeight': 410, 'width': 410, 'height': 410, 'widthPercent': 0.8, 'rescaleHeight': True, 'trialN': 57, 'loaded': True, 'loadedTime': 3325.699999809265, 'positionName': 'CENTER', 'positionCoords': [478, 179]}]",Rate how much you want to eat this food from 0 (least) to 10 (most).,120252.19999980927,1669831001474,seaweed,2329.2000000476837,True,9.5,122581.39999985695,2329.2000000476837,True,HRV,HRV_0164,2022-11-30 17:56:48
58,"[{'imgObject': {}, 'id': 'luckycharms', 'src': '/static/foodstim60/luckycharms.jpg', 'key': 'NaN', 'origWidth': 410, 'origHeight': 409, 'width': 410, 'height': 409, 'widthPercent': 0.8, 'rescaleHeight': True, 'trialN': 58, 'loaded': True, 'loadedTime': 3308.699999809265, 'positionName': 'CENTER', 'positionCoords': [478, 179.5]}]",Rate how much you want to eat this food from 0 (least) to 10 (most).,122587.29999995232,1669831003809,luckycharms,1906.2000000476837,True,0.44,124493.5,1906.2000000476837,True,HRV,HRV_0164,2022-11-30 17:56:48
59,"[{'imgObject': {}, 'id': 'cocktailshrimp', 'src': '/static/foodstim60/cocktailshrimp.jpg', 'key': 'NaN', 'origWidth': 410, 'origHeight': 410, 'width': 410, 'height': 410, 'widthPercent': 0.8, 'rescaleHeight': True, 'trialN': 59, 'loaded': True, 'loadedTime': 3318.5999999046326, 'positionName': 'CENTER', 'positionCoords': [478, 179]}]",Rate how much you want to eat this food from 0 (least) to 10 (most).,124497.79999995232,1669831005720,cocktailshrimp,2134.0999999046326,True,9.620000000000001,126631.89999985695,2134.0999999046326,True,HRV,HRV_0164,2022-11-30 17:56:48
