trialN,stimuli,trialStartTime,trialStartTime_UNIX,stimulus1,stimulus2,stimulus1Bid,stimulus2Bid,delta,selected,rt,rt_UNIX,rt_perfnow,receivedResponse,rsp,trialEndTime,trialDuration,trialEndTime_UNIX,trialDuration_UNIX,exp,subjectId,date
0,"[{'imgObject': {}, 'id': 'fruitsalad', 'src': '/static/foodstim60/fruitsalad.jpg', 'key': 'u', 'origWidth': 410, 'origHeight': 410, 'width': 410, 'height': 410, 'widthPercent': 0.45, 'rescaleHeight': False, 'trialN': 0, 'loaded': True, 'loadedTime': 2287.5999999046326, 'positionName': 'LEFT', 'positionCoords': [245.68, 179], 'bid': 5.79}, {'imgObject': {}, 'id': 'Grapes', 'src': '/static/foodstim60/Grapes.jpg', 'key': 'i', 'origWidth': 411, 'origHeight': 411, 'width': 411, 'height': 411, 'widthPercent': 0.45, 'rescaleHeight': False, 'trialN': 0, 'loaded': True, 'loadedTime': 2344.5999999046326, 'positionName': 'RIGHT', 'positionCoords': [710.32, 178.5], 'bid': 6.47}]",2847.2000000476837,1669831185680,fruitsalad,Grapes,5.79,6.47,0.6799999999999997,fruitsalad,1580,1582,1582.0,True,u,4937.0,2089.7999999523163,1669831187770,2090,HRV,HRV_0164,2022-11-30 18:05:28
1,"[{'imgObject': {}, 'id': 'corn cob', 'src': '/static/foodstim60/corn cob.jpg', 'key': 'u', 'origWidth': 411, 'origHeight': 411, 'width': 411, 'height': 411, 'widthPercent': 0.45, 'rescaleHeight': False, 'trialN': 1, 'loaded': True, 'loadedTime': 2350.2999999523163, 'positionName': 'LEFT', 'positionCoords': [244.68, 178.5], 'bid': 0.37}, {'imgObject': {}, 'id': 'hashbrowns', 'src': '/static/foodstim60/hashbrowns.jpg', 'key': 'i', 'origWidth': 411, 'origHeight': 410, 'width': 411, 'height': 410, 'widthPercent': 0.45, 'rescaleHeight': False, 'trialN': 1, 'loaded': True, 'loadedTime': 2355.9000000953674, 'positionName': 'RIGHT', 'positionCoords': [710.32, 179], 'bid': 2.56}]",4937.900000095367,1669831187771,corn cob,hashbrowns,0.37,2.56,2.19,hashbrowns,1400.1999998092651,1401,1401.2999999523163,True,i,6840.099999904633,1902.1999998092651,1669831189673,1902,HRV,HRV_0164,2022-11-30 18:05:28
2,"[{'imgObject': {}, 'id': 'hotdog w must', 'src': '/static/foodstim60/hotdog w must.jpg', 'key': 'u', 'origWidth': 409, 'origHeight': 409, 'width': 409, 'height': 409, 'widthPercent': 0.45, 'rescaleHeight': False, 'trialN': 2, 'loaded': True, 'loadedTime': 2360.7000000476837, 'positionName': 'LEFT', 'positionCoords': [246.68, 179.5], 'bid': 0.75}, {'imgObject': {}, 'id': 'cheerios', 'src': '/static/foodstim60/cheerios.jpg', 'key': 'i', 'origWidth': 409, 'origHeight': 410, 'width': 409, 'height': 410, 'widthPercent': 0.45, 'rescaleHeight': False, 'trialN': 2, 'loaded': True, 'loadedTime': 2366.9000000953674, 'positionName': 'RIGHT', 'positionCoords': [710.32, 179], 'bid': 3.0500000000000003}]",6840.5,1669831189673,hotdog w must,cheerios,0.75,3.0500000000000003,2.3000000000000003,cheerios,1355.7999999523163,1357,1356.5,True,i,8705.0,1864.5,1669831191538,1865,HRV,HRV_0164,2022-11-30 18:05:28
3,"[{'imgObject': {}, 'id': 'mango', 'src': '/static/foodstim60/mango.jpg', 'key': 'u', 'origWidth': 411, 'origHeight': 411, 'width': 411, 'height': 411, 'widthPercent': 0.45, 'rescaleHeight': False, 'trialN': 3, 'loaded': True, 'loadedTime': 2394.5, 'positionName': 'LEFT', 'positionCoords': [244.68, 178.5], 'bid': 5.05}, {'imgObject': {}, 'id': 'bagel and cc', 'src': '/static/foodstim60/bagel and cc.jpg', 'key': 'i', 'origWidth': 410, 'origHeight': 410, 'width': 410, 'height': 410, 'widthPercent': 0.45, 'rescaleHeight': False, 'trialN': 3, 'loaded': True, 'loadedTime': 2410.5999999046326, 'positionName': 'RIGHT', 'positionCoords': [710.32, 179], 'bid': 0.4}]",8705.599999904633,1669831191538,mango,bagel and cc,5.05,0.4,-4.6499999999999995,mango,982.8000001907349,984,983.6000001430511,True,u,10192.5,1486.9000000953674,1669831193025,1487,HRV,HRV_0164,2022-11-30 18:05:28
4,"[{'imgObject': {}, 'id': 'cocktailshrimp', 'src': '/static/foodstim60/cocktailshrimp.jpg', 'key': 'u', 'origWidth': 410, 'origHeight': 410, 'width': 410, 'height': 410, 'widthPercent': 0.45, 'rescaleHeight': False, 'trialN': 4, 'loaded': True, 'loadedTime': 2424.2999999523163, 'positionName': 'LEFT', 'positionCoords': [245.68, 179], 'bid': 9.09}, {'imgObject': {}, 'id': 'fruitsalad', 'src': '/static/foodstim60/fruitsalad.jpg', 'key': 'i', 'origWidth': 410, 'origHeight': 410, 'width': 410, 'height': 410, 'widthPercent': 0.45, 'rescaleHeight': False, 'trialN': 4, 'loaded': True, 'loadedTime': 2290.4000000953674, 'positionName': 'RIGHT', 'positionCoords': [710.32, 179], 'bid': 5.79}]",10193.299999952316,1669831193026,cocktailshrimp,fruitsalad,9.09,5.79,-3.3,cocktailshrimp,834.4000000953674,836,835.4000000953674,True,u,11536.799999952316,1343.5,1669831194370,1344,HRV,HRV_0164,2022-11-30 18:05:28
5,"[{'imgObject': {}, 'id': 'popsicles', 'src': '/static/foodstim60/popsicles.jpg', 'key': 'u', 'origWidth': 410, 'origHeight': 410, 'width': 410, 'height': 410, 'widthPercent': 0.45, 'rescaleHeight': False, 'trialN': 5, 'loaded': True, 'loadedTime': 2568, 'positionName': 'LEFT', 'positionCoords': [245.68, 179], 'bid': 2.14}, {'imgObject': {}, 'id': 'ice cream sundae 002', 'src': '/static/foodstim60/ice cream sundae 002.jpg', 'key': 'i', 'origWidth': 409, 'origHeight': 409, 'width': 409, 'height': 409, 'widthPercent': 0.45, 'rescaleHeight': False, 'trialN': 5, 'loaded': True, 'loadedTime': 2462.4000000953674, 'positionName': 'RIGHT', 'positionCoords': [710.32, 179.5], 'bid': 2.18}]",11537.599999904633,1669831194370,popsicles,ice cream sundae 002,2.14,2.18,0.040000000000000036,ice cream sundae 002,2008.8000001907349,2010,2009.4000000953674,True,i,14050.299999952316,2512.7000000476837,1669831196883,2513,HRV,HRV_0164,2022-11-30 18:05:28
6,"[{'imgObject': {}, 'id': 'banana', 'src': '/static/foodstim60/banana.jpg', 'key': 'u', 'origWidth': 410, 'origHeight': 410, 'width': 410, 'height': 410, 'widthPercent': 0.45, 'rescaleHeight': False, 'trialN': 6, 'loaded': True, 'loadedTime': 2490.2000000476837, 'positionName': 'LEFT', 'positionCoords': [245.68, 179], 'bid': 4.25}, {'imgObject': {}, 'id': 'cantaloupe', 'src': '/static/foodstim60/cantaloupe.jpg', 'key': 'i', 'origWidth': 409, 'origHeight': 409, 'width': 409, 'height': 409, 'widthPercent': 0.45, 'rescaleHeight': False, 'trialN': 6, 'loaded': True, 'loadedTime': 2510.5, 'positionName': 'RIGHT', 'positionCoords': [710.32, 179.5], 'bid': 4}]",14051.099999904633,1669831196884,banana,cantaloupe,4.25,4.0,-0.25,cantaloupe,1177.2000000476837,1178,1178.0,True,i,15736.5,1685.4000000953674,1669831198569,1685,HRV,HRV_0164,2022-11-30 18:05:28
7,"[{'imgObject': {}, 'id': 'baked potato', 'src': '/static/foodstim60/baked potato.jpg', 'key': 'u', 'origWidth': 409, 'origHeight': 410, 'width': 409, 'height': 410, 'widthPercent': 0.45, 'rescaleHeight': False, 'trialN': 7, 'loaded': True, 'loadedTime': 2519.5999999046326, 'positionName': 'LEFT', 'positionCoords': [246.68, 179], 'bid': 1.98}, {'imgObject': {}, 'id': 'rigatoni and sauce', 'src': '/static/foodstim60/rigatoni and sauce.jpg', 'key': 'i', 'origWidth': 410, 'origHeight': 411, 'width': 410, 'height': 411, 'widthPercent': 0.45, 'rescaleHeight': False, 'trialN': 7, 'loaded': True, 'loadedTime': 2554.5999999046326, 'positionName': 'RIGHT', 'positionCoords': [710.32, 178.5], 'bid': 1.67}]",15737.299999952316,1669831198570,baked potato,rigatoni and sauce,1.98,1.67,-0.31000000000000005,rigatoni and sauce,1244.6000001430511,1246,1245.4000000953674,True,i,17488.299999952316,1751.0,1669831200321,1751,HRV,HRV_0164,2022-11-30 18:05:28
8,"[{'imgObject': {}, 'id': 'eggs', 'src': '/static/foodstim60/eggs.jpg', 'key': 'u', 'origWidth': 409, 'origHeight': 409, 'width': 409, 'height': 409, 'widthPercent': 0.45, 'rescaleHeight': False, 'trialN': 8, 'loaded': True, 'loadedTime': 2556.5, 'positionName': 'LEFT', 'positionCoords': [246.68, 179.5], 'bid': 5.64}, {'imgObject': {}, 'id': 'sweetpotato', 'src': '/static/foodstim60/sweetpotato.jpg', 'key': 'i', 'origWidth': 410, 'origHeight': 410, 'width': 410, 'height': 410, 'widthPercent': 0.45, 'rescaleHeight': False, 'trialN': 8, 'loaded': True, 'loadedTime': 2581, 'positionName': 'RIGHT', 'positionCoords': [710.32, 179], 'bid': 7.86}]",17488.599999904633,1669831200321,eggs,sweetpotato,5.64,7.86,2.2200000000000006,sweetpotato,1123.8000001907349,1125,1124.7000000476837,True,i,19120.400000095367,1631.8000001907349,1669831201953,1632,HRV,HRV_0164,2022-11-30 18:05:28
9,"[{'imgObject': {}, 'id': 'luckycharms', 'src': '/static/foodstim60/luckycharms.jpg', 'key': 'u', 'origWidth': 410, 'origHeight': 409, 'width': 410, 'height': 409, 'widthPercent': 0.45, 'rescaleHeight': False, 'trialN': 9, 'loaded': True, 'loadedTime': 2581.2999999523163, 'positionName': 'LEFT', 'positionCoords': [245.68, 179.5], 'bid': 0.25}, {'imgObject': {}, 'id': 'bagel and cc', 'src': '/static/foodstim60/bagel and cc.jpg', 'key': 'i', 'origWidth': 410, 'origHeight': 410, 'width': 410, 'height': 410, 'widthPercent': 0.45, 'rescaleHeight': False, 'trialN': 9, 'loaded': True, 'loadedTime': 2407.5, 'positionName': 'RIGHT', 'positionCoords': [710.32, 179], 'bid': 0.4}]",19121.0,1669831201954,luckycharms,bagel and cc,0.25,0.4,0.15000000000000002,bagel and cc,2074.4000000953674,2075,2074.7999999523163,True,i,21697.700000047684,2576.7000000476837,1669831204530,2576,HRV,HRV_0164,2022-11-30 18:05:28
10,"[{'imgObject': {}, 'id': 'cheerios', 'src': '/static/foodstim60/cheerios.jpg', 'key': 'u', 'origWidth': 409, 'origHeight': 410, 'width': 409, 'height': 410, 'widthPercent': 0.45, 'rescaleHeight': False, 'trialN': 10, 'loaded': True, 'loadedTime': 2367.2999999523163, 'positionName': 'LEFT', 'positionCoords': [246.68, 179], 'bid': 3.0500000000000003}, {'imgObject': {}, 'id': 'orange slices', 'src': '/static/foodstim60/orange slices.jpg', 'key': 'i', 'origWidth': 409, 'origHeight': 410, 'width': 409, 'height': 410, 'widthPercent': 0.45, 'rescaleHeight': False, 'trialN': 10, 'loaded': True, 'loadedTime': 2589.0999999046326, 'positionName': 'RIGHT', 'positionCoords': [710.32, 179], 'bid': 4.79}]",21698.5,1669831204531,cheerios,orange slices,3.0500000000000003,4.79,1.7399999999999998,orange slices,853.7999999523163,855,854.7999999523163,True,i,23057.5,1359.0,1669831205890,1359,HRV,HRV_0164,2022-11-30 18:05:28
11,"[{'imgObject': {}, 'id': 'avocado', 'src': '/static/foodstim60/avocado.jpg', 'key': 'u', 'origWidth': 409, 'origHeight': 409, 'width': 409, 'height': 409, 'widthPercent': 0.45, 'rescaleHeight': False, 'trialN': 11, 'loaded': True, 'loadedTime': 2593, 'positionName': 'LEFT', 'positionCoords': [246.68, 179.5], 'bid': 6.47}, {'imgObject': {}, 'id': 'raspberries', 'src': '/static/foodstim60/raspberries.jpg', 'key': 'i', 'origWidth': 411, 'origHeight': 411, 'width': 411, 'height': 411, 'widthPercent': 0.45, 'rescaleHeight': False, 'trialN': 11, 'loaded': True, 'loadedTime': 2607, 'positionName': 'RIGHT', 'positionCoords': [710.32, 178.5], 'bid': 9.27}]",23058.200000047684,1669831205891,avocado,raspberries,6.47,9.27,2.8,raspberries,1107.2000000476837,1108,1108.0999999046326,True,i,24673.200000047684,1615.0,1669831207506,1615,HRV,HRV_0164,2022-11-30 18:05:28
12,"[{'imgObject': {}, 'id': 'Tribe humus pita', 'src': '/static/foodstim60/Tribe humus pita.jpg', 'key': 'u', 'origWidth': 411, 'origHeight': 411, 'width': 411, 'height': 411, 'widthPercent': 0.45, 'rescaleHeight': False, 'trialN': 12, 'loaded': True, 'loadedTime': 2621.5, 'positionName': 'LEFT', 'positionCoords': [244.68, 178.5], 'bid': 5.58}, {'imgObject': {}, 'id': 'cantaloupe', 'src': '/static/foodstim60/cantaloupe.jpg', 'key': 'i', 'origWidth': 409, 'origHeight': 409, 'width': 409, 'height': 409, 'widthPercent': 0.45, 'rescaleHeight': False, 'trialN': 12, 'loaded': True, 'loadedTime': 2514.2000000476837, 'positionName': 'RIGHT', 'positionCoords': [710.32, 179.5], 'bid': 4}]",24673.799999952316,1669831207507,Tribe humus pita,cantaloupe,5.58,4.0,-1.58,cantaloupe,1261.7999999523163,1262,1262.7000000476837,True,i,26440.299999952316,1766.5,1669831209273,1766,HRV,HRV_0164,2022-11-30 18:05:28
13,"[{'imgObject': {}, 'id': 'yogurt no spoon', 'src': '/static/foodstim60/yogurt no spoon.jpg', 'key': 'u', 'origWidth': 411, 'origHeight': 410, 'width': 411, 'height': 410, 'widthPercent': 0.45, 'rescaleHeight': False, 'trialN': 13, 'loaded': True, 'loadedTime': 2625.2999999523163, 'positionName': 'LEFT', 'positionCoords': [244.68, 179], 'bid': 5.17}, {'imgObject': {}, 'id': 'edamame', 'src': '/static/foodstim60/edamame.jpg', 'key': 'i', 'origWidth': 409, 'origHeight': 410, 'width': 409, 'height': 410, 'widthPercent': 0.45, 'rescaleHeight': False, 'trialN': 13, 'loaded': True, 'loadedTime': 2656.2999999523163, 'positionName': 'RIGHT', 'positionCoords': [710.32, 179], 'bid': 0.43}]",26440.700000047684,1669831209273,yogurt no spoon,edamame,5.17,0.43,-4.74,yogurt no spoon,1104.0999999046326,1105,1104.7000000476837,True,u,28049.5,1608.7999999523163,1669831210882,1609,HRV,HRV_0164,2022-11-30 18:05:28
14,"[{'imgObject': {}, 'id': 'chicken nuggets2', 'src': '/static/foodstim60/chicken nuggets2.jpg', 'key': 'u', 'origWidth': 410, 'origHeight': 409, 'width': 410, 'height': 409, 'widthPercent': 0.45, 'rescaleHeight': False, 'trialN': 14, 'loaded': True, 'loadedTime': 2661.5, 'positionName': 'LEFT', 'positionCoords': [245.68, 179.5], 'bid': 5.74}, {'imgObject': {}, 'id': 'sushi w_condiments', 'src': '/static/foodstim60/sushi w_condiments.jpg', 'key': 'i', 'origWidth': 410, 'origHeight': 410, 'width': 410, 'height': 410, 'widthPercent': 0.45, 'rescaleHeight': False, 'trialN': 14, 'loaded': True, 'loadedTime': 2675.0999999046326, 'positionName': 'RIGHT', 'positionCoords': [710.32, 179], 'bid': 8.83}]",28049.799999952316,1669831210883,chicken nuggets2,sushi w_condiments,5.74,8.83,3.09,sushi w_condiments,1134.5,1135,1134.9000000953674,True,i,29688.200000047684,1638.4000000953674,1669831212521,1638,HRV,HRV_0164,2022-11-30 18:05:28
15,"[{'imgObject': {}, 'id': 'roastedpotatoes', 'src': '/static/foodstim60/roastedpotatoes.jpg', 'key': 'u', 'origWidth': 409, 'origHeight': 410, 'width': 409, 'height': 410, 'widthPercent': 0.45, 'rescaleHeight': False, 'trialN': 15, 'loaded': True, 'loadedTime': 2685.5, 'positionName': 'LEFT', 'positionCoords': [246.68, 179], 'bid': 4.32}, {'imgObject': {}, 'id': 'turkey sandwich', 'src': '/static/foodstim60/turkey sandwich.jpg', 'key': 'i', 'origWidth': 409, 'origHeight': 409, 'width': 409, 'height': 409, 'widthPercent': 0.45, 'rescaleHeight': False, 'trialN': 15, 'loaded': True, 'loadedTime': 2688.7000000476837, 'positionName': 'RIGHT', 'positionCoords': [710.32, 179.5], 'bid': 4.88}]",29688.799999952316,1669831212522,roastedpotatoes,turkey sandwich,4.32,4.88,0.5599999999999996,roastedpotatoes,1662.2999999523163,1662,1662.7000000476837,True,u,31856.799999952316,2168.0,1669831214690,2168,HRV,HRV_0164,2022-11-30 18:05:28
16,"[{'imgObject': {}, 'id': 'cocktailshrimp', 'src': '/static/foodstim60/cocktailshrimp.jpg', 'key': 'u', 'origWidth': 410, 'origHeight': 410, 'width': 410, 'height': 410, 'widthPercent': 0.45, 'rescaleHeight': False, 'trialN': 16, 'loaded': True, 'loadedTime': 2415.2999999523163, 'positionName': 'LEFT', 'positionCoords': [245.68, 179], 'bid': 9.09}, {'imgObject': {}, 'id': 'steak', 'src': '/static/foodstim60/steak.jpg', 'key': 'i', 'origWidth': 410, 'origHeight': 410, 'width': 410, 'height': 410, 'widthPercent': 0.45, 'rescaleHeight': False, 'trialN': 16, 'loaded': True, 'loadedTime': 2701, 'positionName': 'RIGHT', 'positionCoords': [710.32, 179], 'bid': 5.61}]",31857.299999952316,1669831214690,cocktailshrimp,steak,9.09,5.61,-3.4799999999999995,cocktailshrimp,1519.7000000476837,1521,1520.6000001430511,True,u,33880.5,2023.2000000476837,1669831216713,2023,HRV,HRV_0164,2022-11-30 18:05:28
17,"[{'imgObject': {}, 'id': 'raspberries', 'src': '/static/foodstim60/raspberries.jpg', 'key': 'u', 'origWidth': 411, 'origHeight': 411, 'width': 411, 'height': 411, 'widthPercent': 0.45, 'rescaleHeight': False, 'trialN': 17, 'loaded': True, 'loadedTime': 2600, 'positionName': 'LEFT', 'positionCoords': [244.68, 178.5], 'bid': 9.27}, {'imgObject': {}, 'id': 'kiwi', 'src': '/static/foodstim60/kiwi.jpg', 'key': 'i', 'origWidth': 410, 'origHeight': 410, 'width': 410, 'height': 410, 'widthPercent': 0.45, 'rescaleHeight': False, 'trialN': 17, 'loaded': True, 'loadedTime': 2704.5999999046326, 'positionName': 'RIGHT', 'positionCoords': [710.32, 179], 'bid': 9.2}]",33881.09999990463,1669831216714,raspberries,kiwi,9.27,9.2,-0.07000000000000028,raspberries,1850,1851,1850.9000000953674,True,u,36232.59999990463,2351.5,1669831219065,2351,HRV,HRV_0164,2022-11-30 18:05:28
18,"[{'imgObject': {}, 'id': 'froot loops w milk', 'src': '/static/foodstim60/froot loops w milk.jpg', 'key': 'u', 'origWidth': 410, 'origHeight': 410, 'width': 410, 'height': 410, 'widthPercent': 0.45, 'rescaleHeight': False, 'trialN': 18, 'loaded': True, 'loadedTime': 2711.5, 'positionName': 'LEFT', 'positionCoords': [245.68, 179], 'bid': 1.44}, {'imgObject': {}, 'id': 'bagel plain', 'src': '/static/foodstim60/bagel plain.jpg', 'key': 'i', 'origWidth': 410, 'origHeight': 410, 'width': 410, 'height': 410, 'widthPercent': 0.45, 'rescaleHeight': False, 'trialN': 18, 'loaded': True, 'loadedTime': 2715.0999999046326, 'positionName': 'RIGHT', 'positionCoords': [710.32, 179], 'bid': 0.16}]",36233.200000047684,1669831219066,froot loops w milk,bagel plain,1.44,0.16,-1.28,froot loops w milk,2973.399999856949,2974,2974.399999856949,True,u,39713.0,3479.7999999523163,1669831222546,3480,HRV,HRV_0164,2022-11-30 18:05:28
19,"[{'imgObject': {}, 'id': 'cherries', 'src': '/static/foodstim60/cherries.jpg', 'key': 'u', 'origWidth': 410, 'origHeight': 411, 'width': 410, 'height': 411, 'widthPercent': 0.45, 'rescaleHeight': False, 'trialN': 19, 'loaded': True, 'loadedTime': 2723.2000000476837, 'positionName': 'LEFT', 'positionCoords': [245.68, 178.5], 'bid': 9.18}, {'imgObject': {}, 'id': 'mac & cheese', 'src': '/static/foodstim60/mac & cheese.jpg', 'key': 'i', 'origWidth': 410, 'origHeight': 410, 'width': 410, 'height': 410, 'widthPercent': 0.45, 'rescaleHeight': False, 'trialN': 19, 'loaded': True, 'loadedTime': 2726.5, 'positionName': 'RIGHT', 'positionCoords': [710.32, 179], 'bid': 3.16}]",39713.799999952316,1669831222547,cherries,mac & cheese,9.18,3.16,-6.02,cherries,1092.2999999523163,1093,1093.2999999523163,True,u,41313.200000047684,1599.4000000953674,1669831224146,1599,HRV,HRV_0164,2022-11-30 18:05:28
20,"[{'imgObject': {}, 'id': 'blueberries', 'src': '/static/foodstim60/blueberries.jpg', 'key': 'u', 'origWidth': 411, 'origHeight': 411, 'width': 411, 'height': 411, 'widthPercent': 0.45, 'rescaleHeight': False, 'trialN': 20, 'loaded': True, 'loadedTime': 2732.7999999523163, 'positionName': 'LEFT', 'positionCoords': [244.68, 178.5], 'bid': 8.01}, {'imgObject': {}, 'id': 'strawberries', 'src': '/static/foodstim60/strawberries.jpg', 'key': 'i', 'origWidth': 410, 'origHeight': 410, 'width': 410, 'height': 410, 'widthPercent': 0.45, 'rescaleHeight': False, 'trialN': 20, 'loaded': True, 'loadedTime': 2739.4000000953674, 'positionName': 'RIGHT', 'positionCoords': [710.32, 179], 'bid': 9.53}]",41313.700000047684,1669831224146,blueberries,strawberries,8.01,9.53,1.5199999999999996,strawberries,1106,1107,1106.7999999523163,True,i,42928.59999990463,1614.8999998569489,1669831225761,1615,HRV,HRV_0164,2022-11-30 18:05:28
21,"[{'imgObject': {}, 'id': 'mashed potato', 'src': '/static/foodstim60/mashed potato.jpg', 'key': 'u', 'origWidth': 409, 'origHeight': 409, 'width': 409, 'height': 409, 'widthPercent': 0.45, 'rescaleHeight': False, 'trialN': 21, 'loaded': True, 'loadedTime': 2743.2000000476837, 'positionName': 'LEFT', 'positionCoords': [246.68, 179.5], 'bid': 1.58}, {'imgObject': {}, 'id': 'veggieswithdip', 'src': '/static/foodstim60/veggieswithdip.jpg', 'key': 'i', 'origWidth': 409, 'origHeight': 409, 'width': 409, 'height': 409, 'widthPercent': 0.45, 'rescaleHeight': False, 'trialN': 21, 'loaded': True, 'loadedTime': 2750, 'positionName': 'RIGHT', 'positionCoords': [710.32, 179.5], 'bid': 1.67}]",42929.200000047684,1669831225762,mashed potato,veggieswithdip,1.58,1.67,0.08999999999999986,mashed potato,1692.2000000476837,1693,1693.0999999046326,True,u,45129.09999990463,2199.899999856949,1669831227962,2200,HRV,HRV_0164,2022-11-30 18:05:28
22,"[{'imgObject': {}, 'id': 'shreddedwheatwithmilk', 'src': '/static/foodstim60/shreddedwheatwithmilk.jpg', 'key': 'u', 'origWidth': 410, 'origHeight': 410, 'width': 410, 'height': 410, 'widthPercent': 0.45, 'rescaleHeight': False, 'trialN': 22, 'loaded': True, 'loadedTime': 2753.5, 'positionName': 'LEFT', 'positionCoords': [245.68, 179], 'bid': 2.33}, {'imgObject': {}, 'id': 'ice cream sundae 002', 'src': '/static/foodstim60/ice cream sundae 002.jpg', 'key': 'i', 'origWidth': 409, 'origHeight': 409, 'width': 409, 'height': 409, 'widthPercent': 0.45, 'rescaleHeight': False, 'trialN': 22, 'loaded': True, 'loadedTime': 2434.9000000953674, 'positionName': 'RIGHT', 'positionCoords': [710.32, 179.5], 'bid': 2.18}]",45129.59999990463,1669831227962,shreddedwheatwithmilk,ice cream sundae 002,2.33,2.18,-0.1499999999999999,ice cream sundae 002,1914.8000001907349,1916,1915.9000000953674,True,i,47552.40000009537,2422.800000190735,1669831230385,2423,HRV,HRV_0164,2022-11-30 18:05:28
23,"[{'imgObject': {}, 'id': 'roastedpotatoes', 'src': '/static/foodstim60/roastedpotatoes.jpg', 'key': 'u', 'origWidth': 409, 'origHeight': 410, 'width': 409, 'height': 410, 'widthPercent': 0.45, 'rescaleHeight': False, 'trialN': 23, 'loaded': True, 'loadedTime': 2688.2000000476837, 'positionName': 'LEFT', 'positionCoords': [246.68, 179], 'bid': 4.32}, {'imgObject': {}, 'id': 'orange slices', 'src': '/static/foodstim60/orange slices.jpg', 'key': 'i', 'origWidth': 409, 'origHeight': 410, 'width': 409, 'height': 410, 'widthPercent': 0.45, 'rescaleHeight': False, 'trialN': 23, 'loaded': True, 'loadedTime': 2590.2999999523163, 'positionName': 'RIGHT', 'positionCoords': [710.32, 179], 'bid': 4.79}]",47552.90000009537,1669831230386,roastedpotatoes,orange slices,4.32,4.79,0.46999999999999975,roastedpotatoes,1831.8999998569489,1833,1833.6999998092651,True,u,49888.299999952316,2335.399999856949,1669831232721,2335,HRV,HRV_0164,2022-11-30 18:05:28
24,"[{'imgObject': {}, 'id': 'orange slices', 'src': '/static/foodstim60/orange slices.jpg', 'key': 'u', 'origWidth': 409, 'origHeight': 410, 'width': 409, 'height': 410, 'widthPercent': 0.45, 'rescaleHeight': False, 'trialN': 24, 'loaded': True, 'loadedTime': 2589.2999999523163, 'positionName': 'LEFT', 'positionCoords': [246.68, 179], 'bid': 4.79}, {'imgObject': {}, 'id': 'omelette', 'src': '/static/foodstim60/omelette.jpg', 'key': 'i', 'origWidth': 410, 'origHeight': 409, 'width': 410, 'height': 409, 'widthPercent': 0.45, 'rescaleHeight': False, 'trialN': 24, 'loaded': True, 'loadedTime': 2757.7000000476837, 'positionName': 'RIGHT', 'positionCoords': [710.32, 179.5], 'bid': 3.62}]",49888.90000009537,1669831232722,orange slices,omelette,4.79,3.62,-1.17,orange slices,2081.5999999046326,2082,2082.5,True,u,52473.09999990463,2584.199999809265,1669831235306,2584,HRV,HRV_0164,2022-11-30 18:05:28
25,"[{'imgObject': {}, 'id': 'Grapes', 'src': '/static/foodstim60/Grapes.jpg', 'key': 'u', 'origWidth': 411, 'origHeight': 411, 'width': 411, 'height': 411, 'widthPercent': 0.45, 'rescaleHeight': False, 'trialN': 25, 'loaded': True, 'loadedTime': 2340.7000000476837, 'positionName': 'LEFT', 'positionCoords': [244.68, 178.5], 'bid': 6.47}, {'imgObject': {}, 'id': 'kiwi', 'src': '/static/foodstim60/kiwi.jpg', 'key': 'i', 'origWidth': 410, 'origHeight': 410, 'width': 410, 'height': 410, 'widthPercent': 0.45, 'rescaleHeight': False, 'trialN': 25, 'loaded': True, 'loadedTime': 2704.7999999523163, 'positionName': 'RIGHT', 'positionCoords': [710.32, 179], 'bid': 9.2}]",52473.700000047684,1669831235306,Grapes,kiwi,6.47,9.2,2.7299999999999995,kiwi,1073,1074,1073.7000000476837,True,i,54049.799999952316,1576.0999999046326,1669831236883,1577,HRV,HRV_0164,2022-11-30 18:05:28
26,"[{'imgObject': {}, 'id': 'corn cob', 'src': '/static/foodstim60/corn cob.jpg', 'key': 'u', 'origWidth': 411, 'origHeight': 411, 'width': 411, 'height': 411, 'widthPercent': 0.45, 'rescaleHeight': False, 'trialN': 26, 'loaded': True, 'loadedTime': 2351.5999999046326, 'positionName': 'LEFT', 'positionCoords': [244.68, 178.5], 'bid': 0.37}, {'imgObject': {}, 'id': 'luckycharms', 'src': '/static/foodstim60/luckycharms.jpg', 'key': 'i', 'origWidth': 410, 'origHeight': 409, 'width': 410, 'height': 409, 'widthPercent': 0.45, 'rescaleHeight': False, 'trialN': 26, 'loaded': True, 'loadedTime': 2583.2000000476837, 'positionName': 'RIGHT', 'positionCoords': [710.32, 179.5], 'bid': 0.25}]",54050.0,1669831236883,corn cob,luckycharms,0.37,0.25,-0.12,luckycharms,1095.0999999046326,1096,1096.0999999046326,True,i,55648.799999952316,1598.7999999523163,1669831238482,1599,HRV,HRV_0164,2022-11-30 18:05:28
27,"[{'imgObject': {}, 'id': 'blueberries', 'src': '/static/foodstim60/blueberries.jpg', 'key': 'u', 'origWidth': 411, 'origHeight': 411, 'width': 411, 'height': 411, 'widthPercent': 0.45, 'rescaleHeight': False, 'trialN': 27, 'loaded': True, 'loadedTime': 2733.5, 'positionName': 'LEFT', 'positionCoords': [244.68, 178.5], 'bid': 8.01}, {'imgObject': {}, 'id': 'yogurt no spoon', 'src': '/static/foodstim60/yogurt no spoon.jpg', 'key': 'i', 'origWidth': 411, 'origHeight': 410, 'width': 411, 'height': 410, 'widthPercent': 0.45, 'rescaleHeight': False, 'trialN': 27, 'loaded': True, 'loadedTime': 2642, 'positionName': 'RIGHT', 'positionCoords': [710.32, 179], 'bid': 5.17}]",55649.40000009537,1669831238482,blueberries,yogurt no spoon,8.01,5.17,-2.84,blueberries,840.7999999523163,842,841.7999999523163,True,u,56992.799999952316,1343.3999998569489,1669831239826,1344,HRV,HRV_0164,2022-11-30 18:05:28
28,"[{'imgObject': {}, 'id': 'bagel and cc', 'src': '/static/foodstim60/bagel and cc.jpg', 'key': 'u', 'origWidth': 410, 'origHeight': 410, 'width': 410, 'height': 410, 'widthPercent': 0.45, 'rescaleHeight': False, 'trialN': 28, 'loaded': True, 'loadedTime': 2399, 'positionName': 'LEFT', 'positionCoords': [245.68, 179], 'bid': 0.4}, {'imgObject': {}, 'id': 'edamame', 'src': '/static/foodstim60/edamame.jpg', 'key': 'i', 'origWidth': 409, 'origHeight': 410, 'width': 409, 'height': 410, 'widthPercent': 0.45, 'rescaleHeight': False, 'trialN': 28, 'loaded': True, 'loadedTime': 2656.9000000953674, 'positionName': 'RIGHT', 'positionCoords': [710.32, 179], 'bid': 0.43}]",56993.299999952316,1669831239826,bagel and cc,edamame,0.4,0.43,0.02999999999999997,bagel and cc,2099.7999999523163,2101,2101.100000143051,True,u,59600.700000047684,2607.4000000953674,1669831242433,2607,HRV,HRV_0164,2022-11-30 18:05:28
29,"[{'imgObject': {}, 'id': 'burrito', 'src': '/static/foodstim60/burrito.jpg', 'key': 'u', 'origWidth': 410, 'origHeight': 410, 'width': 410, 'height': 410, 'widthPercent': 0.45, 'rescaleHeight': False, 'trialN': 29, 'loaded': True, 'loadedTime': 2760.2999999523163, 'positionName': 'LEFT', 'positionCoords': [245.68, 179], 'bid': 2.67}, {'imgObject': {}, 'id': 'cheerios', 'src': '/static/foodstim60/cheerios.jpg', 'key': 'i', 'origWidth': 409, 'origHeight': 410, 'width': 409, 'height': 410, 'widthPercent': 0.45, 'rescaleHeight': False, 'trialN': 29, 'loaded': True, 'loadedTime': 2363.2999999523163, 'positionName': 'RIGHT', 'positionCoords': [710.32, 179], 'bid': 3.0500000000000003}]",59601.09999990463,1669831242434,burrito,cheerios,2.67,3.0500000000000003,0.38000000000000034,cheerios,2056.5,2057,2057.5,True,i,62161.700000047684,2560.600000143051,1669831244994,2560,HRV,HRV_0164,2022-11-30 18:05:28
30,"[{'imgObject': {}, 'id': 'raisin bran w milk', 'src': '/static/foodstim60/raisin bran w milk.jpg', 'key': 'u', 'origWidth': 411, 'origHeight': 411, 'width': 411, 'height': 411, 'widthPercent': 0.45, 'rescaleHeight': False, 'trialN': 30, 'loaded': True, 'loadedTime': 2765.7000000476837, 'positionName': 'LEFT', 'positionCoords': [244.68, 178.5], 'bid': 0.1}, {'imgObject': {}, 'id': 'banana', 'src': '/static/foodstim60/banana.jpg', 'key': 'i', 'origWidth': 410, 'origHeight': 410, 'width': 410, 'height': 410, 'widthPercent': 0.45, 'rescaleHeight': False, 'trialN': 30, 'loaded': True, 'loadedTime': 2466.5, 'positionName': 'RIGHT', 'positionCoords': [710.32, 179], 'bid': 4.25}]",62162.0,1669831244995,raisin bran w milk,banana,0.1,4.25,4.15,banana,965.9000000953674,967,967.0999999046326,True,i,63632.700000047684,1470.7000000476837,1669831246466,1471,HRV,HRV_0164,2022-11-30 18:05:28
31,"[{'imgObject': {}, 'id': 'sushi w_condiments', 'src': '/static/foodstim60/sushi w_condiments.jpg', 'key': 'u', 'origWidth': 410, 'origHeight': 410, 'width': 410, 'height': 410, 'widthPercent': 0.45, 'rescaleHeight': False, 'trialN': 31, 'loaded': True, 'loadedTime': 2671.5999999046326, 'positionName': 'LEFT', 'positionCoords': [245.68, 179], 'bid': 8.83}, {'imgObject': {}, 'id': 'cheerios', 'src': '/static/foodstim60/cheerios.jpg', 'key': 'i', 'origWidth': 409, 'origHeight': 410, 'width': 409, 'height': 410, 'widthPercent': 0.45, 'rescaleHeight': False, 'trialN': 31, 'loaded': True, 'loadedTime': 2368.2000000476837, 'positionName': 'RIGHT', 'positionCoords': [710.32, 179], 'bid': 3.0500000000000003}]",63633.299999952316,1669831246466,sushi w_condiments,cheerios,8.83,3.0500000000000003,-5.779999999999999,sushi w_condiments,891.6000001430511,893,892.6000001430511,True,u,65032.5,1399.2000000476837,1669831247865,1399,HRV,HRV_0164,2022-11-30 18:05:28
32,"[{'imgObject': {}, 'id': 'fried eggs', 'src': '/static/foodstim60/fried eggs.jpg', 'key': 'u', 'origWidth': 410, 'origHeight': 410, 'width': 410, 'height': 410, 'widthPercent': 0.45, 'rescaleHeight': False, 'trialN': 32, 'loaded': True, 'loadedTime': 2771.4000000953674, 'positionName': 'LEFT', 'positionCoords': [245.68, 179], 'bid': 2.3000000000000003}, {'imgObject': {}, 'id': 'hotdog w must', 'src': '/static/foodstim60/hotdog w must.jpg', 'key': 'i', 'origWidth': 409, 'origHeight': 409, 'width': 409, 'height': 409, 'widthPercent': 0.45, 'rescaleHeight': False, 'trialN': 32, 'loaded': True, 'loadedTime': 2359, 'positionName': 'RIGHT', 'positionCoords': [710.32, 179.5], 'bid': 0.75}]",65033.0,1669831247866,fried eggs,hotdog w must,2.3000000000000003,0.75,-1.5500000000000003,fried eggs,1050.2000000476837,1051,1050.7000000476837,True,u,66584.5,1551.5,1669831249417,1551,HRV,HRV_0164,2022-11-30 18:05:28
33,"[{'imgObject': {}, 'id': 'bagel and cc', 'src': '/static/foodstim60/bagel and cc.jpg', 'key': 'u', 'origWidth': 410, 'origHeight': 410, 'width': 410, 'height': 410, 'widthPercent': 0.45, 'rescaleHeight': False, 'trialN': 33, 'loaded': True, 'loadedTime': 2410.7999999523163, 'positionName': 'LEFT', 'positionCoords': [245.68, 179], 'bid': 0.4}, {'imgObject': {}, 'id': 'raisin bran w milk', 'src': '/static/foodstim60/raisin bran w milk.jpg', 'key': 'i', 'origWidth': 411, 'origHeight': 411, 'width': 411, 'height': 411, 'widthPercent': 0.45, 'rescaleHeight': False, 'trialN': 33, 'loaded': True, 'loadedTime': 2761.5, 'positionName': 'RIGHT', 'positionCoords': [710.32, 178.5], 'bid': 0.1}]",66585.09999990463,1669831249418,bagel and cc,raisin bran w milk,0.4,0.1,-0.30000000000000004,bagel and cc,2275.800000190735,2277,2276.7000000476837,True,u,69369.20000004768,2784.100000143051,1669831252202,2784,HRV,HRV_0164,2022-11-30 18:05:28
34,"[{'imgObject': {}, 'id': 'Tribe humus pita', 'src': '/static/foodstim60/Tribe humus pita.jpg', 'key': 'u', 'origWidth': 411, 'origHeight': 411, 'width': 411, 'height': 411, 'widthPercent': 0.45, 'rescaleHeight': False, 'trialN': 34, 'loaded': True, 'loadedTime': 2621.7000000476837, 'positionName': 'LEFT', 'positionCoords': [244.68, 178.5], 'bid': 5.58}, {'imgObject': {}, 'id': 'steak', 'src': '/static/foodstim60/steak.jpg', 'key': 'i', 'origWidth': 410, 'origHeight': 410, 'width': 410, 'height': 410, 'widthPercent': 0.45, 'rescaleHeight': False, 'trialN': 34, 'loaded': True, 'loadedTime': 2696.2999999523163, 'positionName': 'RIGHT', 'positionCoords': [710.32, 179], 'bid': 5.61}]",69369.70000004768,1669831252202,Tribe humus pita,steak,5.58,5.61,0.03000000000000025,steak,1095.7000000476837,1096,1096.5999999046326,True,i,70968.29999995232,1598.5999999046326,1669831253801,1599,HRV,HRV_0164,2022-11-30 18:05:28
35,"[{'imgObject': {}, 'id': 'salmon', 'src': '/static/foodstim60/salmon.jpg', 'key': 'u', 'origWidth': 410, 'origHeight': 409, 'width': 410, 'height': 409, 'widthPercent': 0.45, 'rescaleHeight': False, 'trialN': 35, 'loaded': True, 'loadedTime': 2774.5999999046326, 'positionName': 'LEFT', 'positionCoords': [245.68, 179.5], 'bid': 7.43}, {'imgObject': {}, 'id': 'cherry tomato', 'src': '/static/foodstim60/cherry tomato.jpg', 'key': 'i', 'origWidth': 410, 'origHeight': 410, 'width': 410, 'height': 410, 'widthPercent': 0.45, 'rescaleHeight': False, 'trialN': 35, 'loaded': True, 'loadedTime': 2789.7000000476837, 'positionName': 'RIGHT', 'positionCoords': [710.32, 179], 'bid': 7.07}]",70968.79999995232,1669831253801,salmon,cherry tomato,7.43,7.07,-0.35999999999999943,salmon,2625.4000000953674,2626,2626.4000000953674,True,u,74096.29999995232,3127.5,1669831256928,3127,HRV,HRV_0164,2022-11-30 18:05:28
36,"[{'imgObject': {}, 'id': 'blackbeanswithrice', 'src': '/static/foodstim60/blackbeanswithrice.jpg', 'key': 'u', 'origWidth': 410, 'origHeight': 410, 'width': 410, 'height': 410, 'widthPercent': 0.45, 'rescaleHeight': False, 'trialN': 36, 'loaded': True, 'loadedTime': 2793.7999999523163, 'positionName': 'LEFT', 'positionCoords': [245.68, 179], 'bid': 0.25}, {'imgObject': {}, 'id': 'rigatoni and sauce', 'src': '/static/foodstim60/rigatoni and sauce.jpg', 'key': 'i', 'origWidth': 410, 'origHeight': 411, 'width': 410, 'height': 411, 'widthPercent': 0.45, 'rescaleHeight': False, 'trialN': 36, 'loaded': True, 'loadedTime': 2555.7999999523163, 'positionName': 'RIGHT', 'positionCoords': [710.32, 178.5], 'bid': 1.67}]",74096.79999995232,1669831256929,blackbeanswithrice,rigatoni and sauce,0.25,1.67,1.42,rigatoni and sauce,931.9000000953674,937,936.6000001430511,True,i,75536.59999990463,1439.7999999523163,1669831258369,1440,HRV,HRV_0164,2022-11-30 18:05:28
37,"[{'imgObject': {}, 'id': 'cherries', 'src': '/static/foodstim60/cherries.jpg', 'key': 'u', 'origWidth': 410, 'origHeight': 411, 'width': 410, 'height': 411, 'widthPercent': 0.45, 'rescaleHeight': False, 'trialN': 37, 'loaded': True, 'loadedTime': 2717.5999999046326, 'positionName': 'LEFT', 'positionCoords': [245.68, 178.5], 'bid': 9.18}, {'imgObject': {}, 'id': 'eggs', 'src': '/static/foodstim60/eggs.jpg', 'key': 'i', 'origWidth': 409, 'origHeight': 409, 'width': 409, 'height': 409, 'widthPercent': 0.45, 'rescaleHeight': False, 'trialN': 37, 'loaded': True, 'loadedTime': 2559.7999999523163, 'positionName': 'RIGHT', 'positionCoords': [710.32, 179.5], 'bid': 5.64}]",75537.20000004768,1669831258369,cherries,eggs,9.18,5.64,-3.54,cherries,1189.2999999523163,1191,1190.5999999046326,True,u,77232.70000004768,1695.5,1669831260065,1696,HRV,HRV_0164,2022-11-30 18:05:28
38,"[{'imgObject': {}, 'id': 'ice cream sundae 002', 'src': '/static/foodstim60/ice cream sundae 002.jpg', 'key': 'u', 'origWidth': 409, 'origHeight': 409, 'width': 409, 'height': 409, 'widthPercent': 0.45, 'rescaleHeight': False, 'trialN': 38, 'loaded': True, 'loadedTime': 2441.0999999046326, 'positionName': 'LEFT', 'positionCoords': [246.68, 179.5], 'bid': 2.18}, {'imgObject': {}, 'id': 'granola w milk', 'src': '/static/foodstim60/granola w milk.jpg', 'key': 'i', 'origWidth': 410, 'origHeight': 410, 'width': 410, 'height': 410, 'widthPercent': 0.45, 'rescaleHeight': False, 'trialN': 38, 'loaded': True, 'loadedTime': 2799.2999999523163, 'positionName': 'RIGHT', 'positionCoords': [710.32, 179], 'bid': 0.16}]",77232.90000009537,1669831260065,ice cream sundae 002,granola w milk,2.18,0.16,-2.02,ice cream sundae 002,1064.7999999523163,1066,1065.7999999523163,True,u,78800.5,1567.5999999046326,1669831261633,1568,HRV,HRV_0164,2022-11-30 18:05:28
39,"[{'imgObject': {}, 'id': 'mango', 'src': '/static/foodstim60/mango.jpg', 'key': 'u', 'origWidth': 411, 'origHeight': 411, 'width': 411, 'height': 411, 'widthPercent': 0.45, 'rescaleHeight': False, 'trialN': 39, 'loaded': True, 'loadedTime': 2389.5, 'positionName': 'LEFT', 'positionCoords': [244.68, 178.5], 'bid': 5.05}, {'imgObject': {}, 'id': 'eggsalad', 'src': '/static/foodstim60/eggsalad.jpg', 'key': 'i', 'origWidth': 410, 'origHeight': 409, 'width': 410, 'height': 409, 'widthPercent': 0.45, 'rescaleHeight': False, 'trialN': 39, 'loaded': True, 'loadedTime': 2801.9000000953674, 'positionName': 'RIGHT', 'positionCoords': [710.32, 179.5], 'bid': 3.33}]",78801.0,1669831261633,mango,eggsalad,5.05,3.33,-1.7199999999999998,mango,1482.4000000953674,1483,1482.7999999523163,True,u,80784.70000004768,1983.7000000476837,1669831263617,1984,HRV,HRV_0164,2022-11-30 18:05:28
40,"[{'imgObject': {}, 'id': 'avocado', 'src': '/static/foodstim60/avocado.jpg', 'key': 'u', 'origWidth': 409, 'origHeight': 409, 'width': 409, 'height': 409, 'widthPercent': 0.45, 'rescaleHeight': False, 'trialN': 40, 'loaded': True, 'loadedTime': 2595.7999999523163, 'positionName': 'LEFT', 'positionCoords': [246.68, 179.5], 'bid': 6.47}, {'imgObject': {}, 'id': 'ice cream sundae 002', 'src': '/static/foodstim60/ice cream sundae 002.jpg', 'key': 'i', 'origWidth': 409, 'origHeight': 409, 'width': 409, 'height': 409, 'widthPercent': 0.45, 'rescaleHeight': False, 'trialN': 40, 'loaded': True, 'loadedTime': 2438.0999999046326, 'positionName': 'RIGHT', 'positionCoords': [710.32, 179.5], 'bid': 2.18}]",80785.5,1669831263618,avocado,ice cream sundae 002,6.47,2.18,-4.289999999999999,avocado,971.0999999046326,971,971.7000000476837,True,u,82265.0,1479.5,1669831265097,1479,HRV,HRV_0164,2022-11-30 18:05:28
41,"[{'imgObject': {}, 'id': 'rigatoni', 'src': '/static/foodstim60/rigatoni.jpg', 'key': 'u', 'origWidth': 411, 'origHeight': 411, 'width': 411, 'height': 411, 'widthPercent': 0.45, 'rescaleHeight': False, 'trialN': 41, 'loaded': True, 'loadedTime': 2803.2000000476837, 'positionName': 'LEFT', 'positionCoords': [244.68, 178.5], 'bid': 0.78}, {'imgObject': {}, 'id': 'blackbeanswithrice', 'src': '/static/foodstim60/blackbeanswithrice.jpg', 'key': 'i', 'origWidth': 410, 'origHeight': 410, 'width': 410, 'height': 410, 'widthPercent': 0.45, 'rescaleHeight': False, 'trialN': 41, 'loaded': True, 'loadedTime': 2794.4000000953674, 'positionName': 'RIGHT', 'positionCoords': [710.32, 179], 'bid': 0.25}]",82265.59999990463,1669831265098,rigatoni,blackbeanswithrice,0.78,0.25,-0.53,rigatoni,1615.5,1616,1616.4000000953674,True,u,84384.40000009537,2118.800000190735,1669831267217,2119,HRV,HRV_0164,2022-11-30 18:05:28
42,"[{'imgObject': {}, 'id': 'chicken nuggets2', 'src': '/static/foodstim60/chicken nuggets2.jpg', 'key': 'u', 'origWidth': 410, 'origHeight': 409, 'width': 410, 'height': 409, 'widthPercent': 0.45, 'rescaleHeight': False, 'trialN': 42, 'loaded': True, 'loadedTime': 2657.5999999046326, 'positionName': 'LEFT', 'positionCoords': [245.68, 179.5], 'bid': 5.74}, {'imgObject': {}, 'id': 'yogurt no spoon', 'src': '/static/foodstim60/yogurt no spoon.jpg', 'key': 'i', 'origWidth': 411, 'origHeight': 410, 'width': 411, 'height': 410, 'widthPercent': 0.45, 'rescaleHeight': False, 'trialN': 42, 'loaded': True, 'loadedTime': 2636.5, 'positionName': 'RIGHT', 'positionCoords': [710.32, 179], 'bid': 5.17}]",84385.0,1669831267217,chicken nuggets2,yogurt no spoon,5.74,5.17,-0.5700000000000003,yogurt no spoon,1479.7000000476837,1481,1480.7000000476837,True,i,86369.0,1984.0,1669831269201,1984,HRV,HRV_0164,2022-11-30 18:05:28
43,"[{'imgObject': {}, 'id': 'salad w chicken', 'src': '/static/foodstim60/salad w chicken.jpg', 'key': 'u', 'origWidth': 411, 'origHeight': 411, 'width': 411, 'height': 411, 'widthPercent': 0.45, 'rescaleHeight': False, 'trialN': 43, 'loaded': True, 'loadedTime': 2805.0999999046326, 'positionName': 'LEFT', 'positionCoords': [244.68, 178.5], 'bid': 5.68}, {'imgObject': {}, 'id': 'eggs', 'src': '/static/foodstim60/eggs.jpg', 'key': 'i', 'origWidth': 409, 'origHeight': 409, 'width': 409, 'height': 409, 'widthPercent': 0.45, 'rescaleHeight': False, 'trialN': 43, 'loaded': True, 'loadedTime': 2559.2000000476837, 'positionName': 'RIGHT', 'positionCoords': [710.32, 179.5], 'bid': 5.64}]",86369.29999995232,1669831269202,salad w chicken,eggs,5.68,5.64,-0.040000000000000036,salad w chicken,1750.2999999523163,1751,1751.2999999523163,True,u,88625.09999990463,2255.7999999523163,1669831271457,2255,HRV,HRV_0164,2022-11-30 18:05:28
44,"[{'imgObject': {}, 'id': 'burger', 'src': '/static/foodstim60/burger.jpg', 'key': 'u', 'origWidth': 409, 'origHeight': 409, 'width': 409, 'height': 409, 'widthPercent': 0.45, 'rescaleHeight': False, 'trialN': 44, 'loaded': True, 'loadedTime': 2805.5999999046326, 'positionName': 'LEFT', 'positionCoords': [246.68, 179.5], 'bid': 5.67}, {'imgObject': {}, 'id': 'lox', 'src': '/static/foodstim60/lox.jpg', 'key': 'i', 'origWidth': 410, 'origHeight': 411, 'width': 410, 'height': 411, 'widthPercent': 0.45, 'rescaleHeight': False, 'trialN': 44, 'loaded': True, 'loadedTime': 2813.2000000476837, 'positionName': 'RIGHT', 'positionCoords': [710.32, 178.5], 'bid': 7.86}]",88625.59999990463,1669831271458,burger,lox,5.67,7.86,2.1900000000000004,lox,1034.6000001430511,1035,1035.3000001907349,True,i,90168.70000004768,1543.1000001430511,1669831273001,1543,HRV,HRV_0164,2022-11-30 18:05:28
45,"[{'imgObject': {}, 'id': 'veggieswithdip', 'src': '/static/foodstim60/veggieswithdip.jpg', 'key': 'u', 'origWidth': 409, 'origHeight': 409, 'width': 409, 'height': 409, 'widthPercent': 0.45, 'rescaleHeight': False, 'trialN': 45, 'loaded': True, 'loadedTime': 2750.2000000476837, 'positionName': 'LEFT', 'positionCoords': [246.68, 179.5], 'bid': 1.67}, {'imgObject': {}, 'id': 'fruitsalad', 'src': '/static/foodstim60/fruitsalad.jpg', 'key': 'i', 'origWidth': 410, 'origHeight': 410, 'width': 410, 'height': 410, 'widthPercent': 0.45, 'rescaleHeight': False, 'trialN': 45, 'loaded': True, 'loadedTime': 2286.7999999523163, 'positionName': 'RIGHT', 'positionCoords': [710.32, 179], 'bid': 5.79}]",90169.20000004768,1669831273001,veggieswithdip,fruitsalad,1.67,5.79,4.12,fruitsalad,991.7000000476837,993,992.7999999523163,True,i,91665.40000009537,1496.2000000476837,1669831274498,1497,HRV,HRV_0164,2022-11-30 18:05:28
46,"[{'imgObject': {}, 'id': 'fruitsalad', 'src': '/static/foodstim60/fruitsalad.jpg', 'key': 'u', 'origWidth': 410, 'origHeight': 410, 'width': 410, 'height': 410, 'widthPercent': 0.45, 'rescaleHeight': False, 'trialN': 46, 'loaded': True, 'loadedTime': 2258.0999999046326, 'positionName': 'LEFT', 'positionCoords': [245.68, 179], 'bid': 5.79}, {'imgObject': {}, 'id': 'seaweed', 'src': '/static/foodstim60/seaweed.jpg', 'key': 'i', 'origWidth': 410, 'origHeight': 410, 'width': 410, 'height': 410, 'widthPercent': 0.45, 'rescaleHeight': False, 'trialN': 46, 'loaded': True, 'loadedTime': 2816, 'positionName': 'RIGHT', 'positionCoords': [710.32, 179], 'bid': 9.8}]",91665.79999995232,1669831274498,fruitsalad,seaweed,5.79,9.8,4.010000000000001,seaweed,1137.9000000953674,1139,1138.9000000953674,True,i,93312.40000009537,1646.6000001430511,1669831276145,1647,HRV,HRV_0164,2022-11-30 18:05:28
47,"[{'imgObject': {}, 'id': 'roastedpotatoes', 'src': '/static/foodstim60/roastedpotatoes.jpg', 'key': 'u', 'origWidth': 409, 'origHeight': 410, 'width': 409, 'height': 410, 'widthPercent': 0.45, 'rescaleHeight': False, 'trialN': 47, 'loaded': True, 'loadedTime': 2684.9000000953674, 'positionName': 'LEFT', 'positionCoords': [246.68, 179], 'bid': 4.32}, {'imgObject': {}, 'id': 'granola w milk', 'src': '/static/foodstim60/granola w milk.jpg', 'key': 'i', 'origWidth': 410, 'origHeight': 410, 'width': 410, 'height': 410, 'widthPercent': 0.45, 'rescaleHeight': False, 'trialN': 47, 'loaded': True, 'loadedTime': 2798.5999999046326, 'positionName': 'RIGHT', 'positionCoords': [710.32, 179], 'bid': 0.16}]",93313.09999990463,1669831276145,roastedpotatoes,granola w milk,4.32,0.16,-4.16,roastedpotatoes,1169,1170,1170.2000000476837,True,u,94985.5,1672.4000000953674,1669831277818,1673,HRV,HRV_0164,2022-11-30 18:05:28
48,"[{'imgObject': {}, 'id': 'fried eggs', 'src': '/static/foodstim60/fried eggs.jpg', 'key': 'u', 'origWidth': 410, 'origHeight': 410, 'width': 410, 'height': 410, 'widthPercent': 0.45, 'rescaleHeight': False, 'trialN': 48, 'loaded': True, 'loadedTime': 2767, 'positionName': 'LEFT', 'positionCoords': [245.68, 179], 'bid': 2.3000000000000003}, {'imgObject': {}, 'id': 'shreddedwheatwithmilk', 'src': '/static/foodstim60/shreddedwheatwithmilk.jpg', 'key': 'i', 'origWidth': 410, 'origHeight': 410, 'width': 410, 'height': 410, 'widthPercent': 0.45, 'rescaleHeight': False, 'trialN': 48, 'loaded': True, 'loadedTime': 2753.7000000476837, 'positionName': 'RIGHT', 'positionCoords': [710.32, 179], 'bid': 2.33}]",94986.0,1669831277818,fried eggs,shreddedwheatwithmilk,2.3000000000000003,2.33,0.029999999999999805,fried eggs,997.7999999523163,999,998.7999999523163,True,u,96488.90000009537,1502.9000000953674,1669831279321,1503,HRV,HRV_0164,2022-11-30 18:05:28
49,"[{'imgObject': {}, 'id': 'salmon', 'src': '/static/foodstim60/salmon.jpg', 'key': 'u', 'origWidth': 410, 'origHeight': 409, 'width': 410, 'height': 409, 'widthPercent': 0.45, 'rescaleHeight': False, 'trialN': 49, 'loaded': True, 'loadedTime': 2782.7999999523163, 'positionName': 'LEFT', 'positionCoords': [245.68, 179.5], 'bid': 7.43}, {'imgObject': {}, 'id': 'turkey sandwich', 'src': '/static/foodstim60/turkey sandwich.jpg', 'key': 'i', 'origWidth': 409, 'origHeight': 409, 'width': 409, 'height': 409, 'widthPercent': 0.45, 'rescaleHeight': False, 'trialN': 49, 'loaded': True, 'loadedTime': 2693.0999999046326, 'positionName': 'RIGHT', 'positionCoords': [710.32, 179.5], 'bid': 4.88}]",96489.40000009537,1669831279322,salmon,turkey sandwich,7.43,4.88,-2.55,salmon,990.3999998569489,991,991.5,True,u,97985.0,1495.5999999046326,1669831280817,1495,HRV,HRV_0164,2022-11-30 18:05:28
50,"[{'imgObject': {}, 'id': 'blueberries', 'src': '/static/foodstim60/blueberries.jpg', 'key': 'u', 'origWidth': 411, 'origHeight': 411, 'width': 411, 'height': 411, 'widthPercent': 0.45, 'rescaleHeight': False, 'trialN': 50, 'loaded': True, 'loadedTime': 2730.2999999523163, 'positionName': 'LEFT', 'positionCoords': [244.68, 178.5], 'bid': 8.01}, {'imgObject': {}, 'id': 'cocktailshrimp', 'src': '/static/foodstim60/cocktailshrimp.jpg', 'key': 'i', 'origWidth': 410, 'origHeight': 410, 'width': 410, 'height': 410, 'widthPercent': 0.45, 'rescaleHeight': False, 'trialN': 50, 'loaded': True, 'loadedTime': 2412.7999999523163, 'positionName': 'RIGHT', 'positionCoords': [710.32, 179], 'bid': 9.09}]",97985.59999990463,1669831280818,blueberries,cocktailshrimp,8.01,9.09,1.08,cocktailshrimp,1054.4000000953674,1056,1055.7000000476837,True,i,99544.70000004768,1559.1000001430511,1669831282377,1559,HRV,HRV_0164,2022-11-30 18:05:28
51,"[{'imgObject': {}, 'id': 'orange slices', 'src': '/static/foodstim60/orange slices.jpg', 'key': 'u', 'origWidth': 409, 'origHeight': 410, 'width': 409, 'height': 410, 'widthPercent': 0.45, 'rescaleHeight': False, 'trialN': 51, 'loaded': True, 'loadedTime': 2586.9000000953674, 'positionName': 'LEFT', 'positionCoords': [246.68, 179], 'bid': 4.79}, {'imgObject': {}, 'id': 'chickenfingers', 'src': '/static/foodstim60/chickenfingers.jpg', 'key': 'i', 'origWidth': 410, 'origHeight': 410, 'width': 410, 'height': 410, 'widthPercent': 0.45, 'rescaleHeight': False, 'trialN': 51, 'loaded': True, 'loadedTime': 2818.2000000476837, 'positionName': 'RIGHT', 'positionCoords': [710.32, 179], 'bid': 5.01}]",99544.79999995232,1669831282377,orange slices,chickenfingers,4.79,5.01,0.21999999999999975,orange slices,1494.7999999523163,1496,1496.2000000476837,True,u,101545.09999990463,2000.2999999523163,1669831284377,2000,HRV,HRV_0164,2022-11-30 18:05:28
52,"[{'imgObject': {}, 'id': 'apple slices', 'src': '/static/foodstim60/apple slices.jpg', 'key': 'u', 'origWidth': 409, 'origHeight': 410, 'width': 409, 'height': 410, 'widthPercent': 0.45, 'rescaleHeight': False, 'trialN': 52, 'loaded': True, 'loadedTime': 2826.2999999523163, 'positionName': 'LEFT', 'positionCoords': [246.68, 179], 'bid': 4.01}, {'imgObject': {}, 'id': 'chickenfingers', 'src': '/static/foodstim60/chickenfingers.jpg', 'key': 'i', 'origWidth': 410, 'origHeight': 410, 'width': 410, 'height': 410, 'widthPercent': 0.45, 'rescaleHeight': False, 'trialN': 52, 'loaded': True, 'loadedTime': 2821.5, 'positionName': 'RIGHT', 'positionCoords': [710.32, 179], 'bid': 5.01}]",101545.20000004768,1669831284377,apple slices,chickenfingers,4.01,5.01,1.0,apple slices,1074.3999998569489,1076,1075.5,True,u,103129.0,1583.7999999523163,1669831285961,1584,HRV,HRV_0164,2022-11-30 18:05:28
53,"[{'imgObject': {}, 'id': 'grilled chicken strips', 'src': '/static/foodstim60/grilled chicken strips.jpg', 'key': 'u', 'origWidth': 410, 'origHeight': 411, 'width': 410, 'height': 411, 'widthPercent': 0.45, 'rescaleHeight': False, 'trialN': 53, 'loaded': True, 'loadedTime': 2833, 'positionName': 'LEFT', 'positionCoords': [245.68, 178.5], 'bid': 5.95}, {'imgObject': {}, 'id': 'cherries', 'src': '/static/foodstim60/cherries.jpg', 'key': 'i', 'origWidth': 410, 'origHeight': 411, 'width': 410, 'height': 411, 'widthPercent': 0.45, 'rescaleHeight': False, 'trialN': 53, 'loaded': True, 'loadedTime': 2721.7999999523163, 'positionName': 'RIGHT', 'positionCoords': [710.32, 178.5], 'bid': 9.18}]",103129.5,1669831285962,grilled chicken strips,cherries,5.95,9.18,3.2299999999999995,cherries,2682.7999999523163,2684,2683.9000000953674,True,i,106320.79999995232,3191.2999999523163,1669831289153,3191,HRV,HRV_0164,2022-11-30 18:05:28
54,"[{'imgObject': {}, 'id': 'cherry tomato', 'src': '/static/foodstim60/cherry tomato.jpg', 'key': 'u', 'origWidth': 410, 'origHeight': 410, 'width': 410, 'height': 410, 'widthPercent': 0.45, 'rescaleHeight': False, 'trialN': 54, 'loaded': True, 'loadedTime': 2788.5, 'positionName': 'LEFT', 'positionCoords': [245.68, 179], 'bid': 7.07}, {'imgObject': {}, 'id': 'orange slices', 'src': '/static/foodstim60/orange slices.jpg', 'key': 'i', 'origWidth': 409, 'origHeight': 410, 'width': 409, 'height': 410, 'widthPercent': 0.45, 'rescaleHeight': False, 'trialN': 54, 'loaded': True, 'loadedTime': 2588.5, 'positionName': 'RIGHT', 'positionCoords': [710.32, 179], 'bid': 4.79}]",106321.40000009537,1669831289154,cherry tomato,orange slices,7.07,4.79,-2.2800000000000002,cherry tomato,2054.2999999523163,2055,2055.199999809265,True,u,108881.20000004768,2559.7999999523163,1669831291713,2559,HRV,HRV_0164,2022-11-30 18:05:28
55,"[{'imgObject': {}, 'id': 'blackbeanswithrice', 'src': '/static/foodstim60/blackbeanswithrice.jpg', 'key': 'u', 'origWidth': 410, 'origHeight': 410, 'width': 410, 'height': 410, 'widthPercent': 0.45, 'rescaleHeight': False, 'trialN': 55, 'loaded': True, 'loadedTime': 2790.2000000476837, 'positionName': 'LEFT', 'positionCoords': [245.68, 179], 'bid': 0.25}, {'imgObject': {}, 'id': 'granola w milk', 'src': '/static/foodstim60/granola w milk.jpg', 'key': 'i', 'origWidth': 410, 'origHeight': 410, 'width': 410, 'height': 410, 'widthPercent': 0.45, 'rescaleHeight': False, 'trialN': 55, 'loaded': True, 'loadedTime': 2798.9000000953674, 'positionName': 'RIGHT', 'positionCoords': [710.32, 179], 'bid': 0.16}]",108881.70000004768,1669831291714,blackbeanswithrice,granola w milk,0.25,0.16,-0.09,granola w milk,2910.5999999046326,2911,2911.5,True,i,112296.29999995232,3414.5999999046326,1669831295128,3414,HRV,HRV_0164,2022-11-30 18:05:28
56,"[{'imgObject': {}, 'id': 'popsicles', 'src': '/static/foodstim60/popsicles.jpg', 'key': 'u', 'origWidth': 410, 'origHeight': 410, 'width': 410, 'height': 410, 'widthPercent': 0.45, 'rescaleHeight': False, 'trialN': 56, 'loaded': True, 'loadedTime': 2569, 'positionName': 'LEFT', 'positionCoords': [245.68, 179], 'bid': 2.14}, {'imgObject': {}, 'id': 'bagel plain', 'src': '/static/foodstim60/bagel plain.jpg', 'key': 'i', 'origWidth': 410, 'origHeight': 410, 'width': 410, 'height': 410, 'widthPercent': 0.45, 'rescaleHeight': False, 'trialN': 56, 'loaded': True, 'loadedTime': 2716, 'positionName': 'RIGHT', 'positionCoords': [710.32, 179], 'bid': 0.16}]",112296.40000009537,1669831295129,popsicles,bagel plain,2.14,0.16,-1.9800000000000002,bagel plain,2927.5,2928,2928.5,True,i,115729.20000004768,3432.7999999523163,1669831298561,3432,HRV,HRV_0164,2022-11-30 18:05:28
57,"[{'imgObject': {}, 'id': 'tacos', 'src': '/static/foodstim60/tacos.jpg', 'key': 'u', 'origWidth': 411, 'origHeight': 411, 'width': 411, 'height': 411, 'widthPercent': 0.45, 'rescaleHeight': False, 'trialN': 57, 'loaded': True, 'loadedTime': 2835.5, 'positionName': 'LEFT', 'positionCoords': [244.68, 178.5], 'bid': 2.84}, {'imgObject': {}, 'id': 'cheerios', 'src': '/static/foodstim60/cheerios.jpg', 'key': 'i', 'origWidth': 409, 'origHeight': 410, 'width': 409, 'height': 410, 'widthPercent': 0.45, 'rescaleHeight': False, 'trialN': 57, 'loaded': True, 'loadedTime': 2365.0999999046326, 'positionName': 'RIGHT', 'positionCoords': [710.32, 179], 'bid': 3.0500000000000003}]",115729.70000004768,1669831298562,tacos,cheerios,2.84,3.0500000000000003,0.2100000000000004,cheerios,2973,2974,2973.899999856949,True,i,119209.09999990463,3479.399999856949,1669831302041,3479,HRV,HRV_0164,2022-11-30 18:05:28
58,"[{'imgObject': {}, 'id': 'pear', 'src': '/static/foodstim60/pear.jpg', 'key': 'u', 'origWidth': 411, 'origHeight': 410, 'width': 411, 'height': 410, 'widthPercent': 0.45, 'rescaleHeight': False, 'trialN': 58, 'loaded': True, 'loadedTime': 2838.7000000476837, 'positionName': 'LEFT', 'positionCoords': [244.68, 179], 'bid': 4.3100000000000005}, {'imgObject': {}, 'id': 'mac & cheese', 'src': '/static/foodstim60/mac & cheese.jpg', 'key': 'i', 'origWidth': 410, 'origHeight': 410, 'width': 410, 'height': 410, 'widthPercent': 0.45, 'rescaleHeight': False, 'trialN': 58, 'loaded': True, 'loadedTime': 2727.5, 'positionName': 'RIGHT', 'positionCoords': [710.32, 179], 'bid': 3.16}]",119210.0,1669831302042,pear,mac & cheese,4.3100000000000005,3.16,-1.1500000000000004,pear,1318.2000000476837,1319,1319.0999999046326,True,u,121032.79999995232,1822.7999999523163,1669831303865,1823,HRV,HRV_0164,2022-11-30 18:05:28
59,"[{'imgObject': {}, 'id': 'tacos', 'src': '/static/foodstim60/tacos.jpg', 'key': 'u', 'origWidth': 411, 'origHeight': 411, 'width': 411, 'height': 411, 'widthPercent': 0.45, 'rescaleHeight': False, 'trialN': 59, 'loaded': True, 'loadedTime': 2835.5, 'positionName': 'LEFT', 'positionCoords': [244.68, 178.5], 'bid': 2.84}, {'imgObject': {}, 'id': 'hashbrowns', 'src': '/static/foodstim60/hashbrowns.jpg', 'key': 'i', 'origWidth': 411, 'origHeight': 410, 'width': 411, 'height': 410, 'widthPercent': 0.45, 'rescaleHeight': False, 'trialN': 59, 'loaded': True, 'loadedTime': 2356.2000000476837, 'positionName': 'RIGHT', 'positionCoords': [710.32, 179], 'bid': 2.56}]",121033.40000009537,1669831303866,tacos,hashbrowns,2.84,2.56,-0.2799999999999998,hashbrowns,899.0999999046326,900,900.1999998092651,True,i,122440.90000009537,1407.5,1669831305273,1407,HRV,HRV_0164,2022-11-30 18:05:28
60,"[{'imgObject': {}, 'id': 'raisin bran w milk', 'src': '/static/foodstim60/raisin bran w milk.jpg', 'key': 'u', 'origWidth': 411, 'origHeight': 411, 'width': 411, 'height': 411, 'widthPercent': 0.45, 'rescaleHeight': False, 'trialN': 60, 'loaded': True, 'loadedTime': 2766.7999999523163, 'positionName': 'LEFT', 'positionCoords': [244.68, 178.5], 'bid': 0.1}, {'imgObject': {}, 'id': 'baked potato', 'src': '/static/foodstim60/baked potato.jpg', 'key': 'i', 'origWidth': 409, 'origHeight': 410, 'width': 409, 'height': 410, 'widthPercent': 0.45, 'rescaleHeight': False, 'trialN': 60, 'loaded': True, 'loadedTime': 2526.7000000476837, 'positionName': 'RIGHT', 'positionCoords': [710.32, 179], 'bid': 1.98}]",122441.5,1669831305274,raisin bran w milk,baked potato,0.1,1.98,1.88,baked potato,1237.2999999523163,1238,1238.2999999523163,True,i,124184.79999995232,1743.2999999523163,1669831307017,1743,HRV,HRV_0164,2022-11-30 18:05:28
61,"[{'imgObject': {}, 'id': 'bagel plain', 'src': '/static/foodstim60/bagel plain.jpg', 'key': 'u', 'origWidth': 410, 'origHeight': 410, 'width': 410, 'height': 410, 'widthPercent': 0.45, 'rescaleHeight': False, 'trialN': 61, 'loaded': True, 'loadedTime': 2714.2999999523163, 'positionName': 'LEFT', 'positionCoords': [245.68, 179], 'bid': 0.16}, {'imgObject': {}, 'id': 'raisin bran w milk', 'src': '/static/foodstim60/raisin bran w milk.jpg', 'key': 'i', 'origWidth': 411, 'origHeight': 411, 'width': 411, 'height': 411, 'widthPercent': 0.45, 'rescaleHeight': False, 'trialN': 61, 'loaded': True, 'loadedTime': 2766.4000000953674, 'positionName': 'RIGHT', 'positionCoords': [710.32, 178.5], 'bid': 0.1}]",124185.40000009537,1669831307018,bagel plain,raisin bran w milk,0.16,0.1,-0.06,bagel plain,1010.8999998569489,1012,1012.0999999046326,True,u,125705.20000004768,1519.7999999523163,1669831308537,1519,HRV,HRV_0164,2022-11-30 18:05:28
62,"[{'imgObject': {}, 'id': 'banana', 'src': '/static/foodstim60/banana.jpg', 'key': 'u', 'origWidth': 410, 'origHeight': 410, 'width': 410, 'height': 410, 'widthPercent': 0.45, 'rescaleHeight': False, 'trialN': 62, 'loaded': True, 'loadedTime': 2463.5999999046326, 'positionName': 'LEFT', 'positionCoords': [245.68, 179], 'bid': 4.25}, {'imgObject': {}, 'id': 'olives', 'src': '/static/foodstim60/olives.jpg', 'key': 'i', 'origWidth': 410, 'origHeight': 410, 'width': 410, 'height': 410, 'widthPercent': 0.45, 'rescaleHeight': False, 'trialN': 62, 'loaded': True, 'loadedTime': 2842.2999999523163, 'positionName': 'RIGHT', 'positionCoords': [710.32, 179], 'bid': 3.06}]",125705.90000009537,1669831308538,banana,olives,4.25,3.06,-1.19,banana,1148.0999999046326,1150,1149.3999998569489,True,u,127360.40000009537,1654.5,1669831310193,1655,HRV,HRV_0164,2022-11-30 18:05:28
63,"[{'imgObject': {}, 'id': 'chicken nuggets2', 'src': '/static/foodstim60/chicken nuggets2.jpg', 'key': 'u', 'origWidth': 410, 'origHeight': 409, 'width': 410, 'height': 409, 'widthPercent': 0.45, 'rescaleHeight': False, 'trialN': 63, 'loaded': True, 'loadedTime': 2660.2000000476837, 'positionName': 'LEFT', 'positionCoords': [245.68, 179.5], 'bid': 5.74}, {'imgObject': {}, 'id': 'strawberries', 'src': '/static/foodstim60/strawberries.jpg', 'key': 'i', 'origWidth': 410, 'origHeight': 410, 'width': 410, 'height': 410, 'widthPercent': 0.45, 'rescaleHeight': False, 'trialN': 63, 'loaded': True, 'loadedTime': 2738.9000000953674, 'positionName': 'RIGHT', 'positionCoords': [710.32, 179], 'bid': 9.53}]",127360.90000009537,1669831310193,chicken nuggets2,strawberries,5.74,9.53,3.789999999999999,strawberries,1183.5,1185,1184.5,True,i,129048.40000009537,1687.5,1669831311881,1688,HRV,HRV_0164,2022-11-30 18:05:28
64,"[{'imgObject': {}, 'id': 'eggs', 'src': '/static/foodstim60/eggs.jpg', 'key': 'u', 'origWidth': 409, 'origHeight': 409, 'width': 409, 'height': 409, 'widthPercent': 0.45, 'rescaleHeight': False, 'trialN': 64, 'loaded': True, 'loadedTime': 2558.0999999046326, 'positionName': 'LEFT', 'positionCoords': [246.68, 179.5], 'bid': 5.64}, {'imgObject': {}, 'id': 'turkeysandwich', 'src': '/static/foodstim60/turkeysandwich.jpg', 'key': 'i', 'origWidth': 409, 'origHeight': 409, 'width': 409, 'height': 409, 'widthPercent': 0.45, 'rescaleHeight': False, 'trialN': 64, 'loaded': True, 'loadedTime': 2843, 'positionName': 'RIGHT', 'positionCoords': [710.32, 179.5], 'bid': 1.38}]",129049.0,1669831311881,eggs,turkeysandwich,5.64,1.38,-4.26,eggs,1297,1297,1297.2999999523163,True,u,130848.90000009537,1799.9000000953674,1669831313682,1801,HRV,HRV_0164,2022-11-30 18:05:28
65,"[{'imgObject': {}, 'id': 'apple slices', 'src': '/static/foodstim60/apple slices.jpg', 'key': 'u', 'origWidth': 409, 'origHeight': 410, 'width': 409, 'height': 410, 'widthPercent': 0.45, 'rescaleHeight': False, 'trialN': 65, 'loaded': True, 'loadedTime': 2824.2000000476837, 'positionName': 'LEFT', 'positionCoords': [246.68, 179], 'bid': 4.01}, {'imgObject': {}, 'id': 'cantaloupe', 'src': '/static/foodstim60/cantaloupe.jpg', 'key': 'i', 'origWidth': 409, 'origHeight': 409, 'width': 409, 'height': 409, 'widthPercent': 0.45, 'rescaleHeight': False, 'trialN': 65, 'loaded': True, 'loadedTime': 2510.7000000476837, 'positionName': 'RIGHT', 'positionCoords': [710.32, 179.5], 'bid': 4}]",130849.40000009537,1669831313682,apple slices,cantaloupe,4.01,4.0,-0.009999999999999787,cantaloupe,1476.2999999523163,1477,1477.0999999046326,True,i,132832.79999995232,1983.3999998569489,1669831315666,1984,HRV,HRV_0164,2022-11-30 18:05:28
66,"[{'imgObject': {}, 'id': 'shreddedwheatwithmilk', 'src': '/static/foodstim60/shreddedwheatwithmilk.jpg', 'key': 'u', 'origWidth': 410, 'origHeight': 410, 'width': 410, 'height': 410, 'widthPercent': 0.45, 'rescaleHeight': False, 'trialN': 66, 'loaded': True, 'loadedTime': 2752.5999999046326, 'positionName': 'LEFT', 'positionCoords': [245.68, 179], 'bid': 2.33}, {'imgObject': {}, 'id': 'rigatoni', 'src': '/static/foodstim60/rigatoni.jpg', 'key': 'i', 'origWidth': 411, 'origHeight': 411, 'width': 411, 'height': 411, 'widthPercent': 0.45, 'rescaleHeight': False, 'trialN': 66, 'loaded': True, 'loadedTime': 2803.4000000953674, 'positionName': 'RIGHT', 'positionCoords': [710.32, 178.5], 'bid': 0.78}]",132833.29999995232,1669831315666,shreddedwheatwithmilk,rigatoni,2.33,0.78,-1.55,rigatoni,1249.9000000953674,1251,1250.5,True,i,134585.40000009537,1752.1000001430511,1669831317418,1752,HRV,HRV_0164,2022-11-30 18:05:28
67,"[{'imgObject': {}, 'id': 'sweetpotato', 'src': '/static/foodstim60/sweetpotato.jpg', 'key': 'u', 'origWidth': 410, 'origHeight': 410, 'width': 410, 'height': 410, 'widthPercent': 0.45, 'rescaleHeight': False, 'trialN': 67, 'loaded': True, 'loadedTime': 2579.2999999523163, 'positionName': 'LEFT', 'positionCoords': [245.68, 179], 'bid': 7.86}, {'imgObject': {}, 'id': 'hashbrowns', 'src': '/static/foodstim60/hashbrowns.jpg', 'key': 'i', 'origWidth': 411, 'origHeight': 410, 'width': 411, 'height': 410, 'widthPercent': 0.45, 'rescaleHeight': False, 'trialN': 67, 'loaded': True, 'loadedTime': 2358, 'positionName': 'RIGHT', 'positionCoords': [710.32, 179], 'bid': 2.56}]",134585.5,1669831317418,sweetpotato,hashbrowns,7.86,2.56,-5.300000000000001,sweetpotato,1136.5,1138,1137.4000000953674,True,u,136224.90000009537,1639.4000000953674,1669831319058,1640,HRV,HRV_0164,2022-11-30 18:05:28
68,"[{'imgObject': {}, 'id': 'Tribe humus pita', 'src': '/static/foodstim60/Tribe humus pita.jpg', 'key': 'u', 'origWidth': 411, 'origHeight': 411, 'width': 411, 'height': 411, 'widthPercent': 0.45, 'rescaleHeight': False, 'trialN': 68, 'loaded': True, 'loadedTime': 2622.7000000476837, 'positionName': 'LEFT', 'positionCoords': [244.68, 178.5], 'bid': 5.58}, {'imgObject': {}, 'id': 'mango', 'src': '/static/foodstim60/mango.jpg', 'key': 'i', 'origWidth': 411, 'origHeight': 411, 'width': 411, 'height': 411, 'widthPercent': 0.45, 'rescaleHeight': False, 'trialN': 68, 'loaded': True, 'loadedTime': 2395.2999999523163, 'positionName': 'RIGHT', 'positionCoords': [710.32, 178.5], 'bid': 5.05}]",136225.5,1669831319058,Tribe humus pita,mango,5.58,5.05,-0.5300000000000002,mango,1078.4000000953674,1079,1078.7000000476837,True,i,137808.5,1583.0,1669831320641,1583,HRV,HRV_0164,2022-11-30 18:05:28
69,"[{'imgObject': {}, 'id': 'popsicles', 'src': '/static/foodstim60/popsicles.jpg', 'key': 'u', 'origWidth': 410, 'origHeight': 410, 'width': 410, 'height': 410, 'widthPercent': 0.45, 'rescaleHeight': False, 'trialN': 69, 'loaded': True, 'loadedTime': 2575.2999999523163, 'positionName': 'LEFT', 'positionCoords': [245.68, 179], 'bid': 2.14}, {'imgObject': {}, 'id': 'tacos', 'src': '/static/foodstim60/tacos.jpg', 'key': 'i', 'origWidth': 411, 'origHeight': 411, 'width': 411, 'height': 411, 'widthPercent': 0.45, 'rescaleHeight': False, 'trialN': 69, 'loaded': True, 'loadedTime': 2835.9000000953674, 'positionName': 'RIGHT', 'positionCoords': [710.32, 178.5], 'bid': 2.84}]",137808.79999995232,1669831320641,popsicles,tacos,2.14,2.84,0.6999999999999997,tacos,1554.2000000476837,1556,1555.1000001430511,True,i,139865.90000009537,2057.100000143051,1669831322699,2058,HRV,HRV_0164,2022-11-30 18:05:28
70,"[{'imgObject': {}, 'id': 'bagel plain', 'src': '/static/foodstim60/bagel plain.jpg', 'key': 'u', 'origWidth': 410, 'origHeight': 410, 'width': 410, 'height': 410, 'widthPercent': 0.45, 'rescaleHeight': False, 'trialN': 70, 'loaded': True, 'loadedTime': 2712.5999999046326, 'positionName': 'LEFT', 'positionCoords': [245.68, 179], 'bid': 0.16}, {'imgObject': {}, 'id': 'blackbeanswithrice', 'src': '/static/foodstim60/blackbeanswithrice.jpg', 'key': 'i', 'origWidth': 410, 'origHeight': 410, 'width': 410, 'height': 410, 'widthPercent': 0.45, 'rescaleHeight': False, 'trialN': 70, 'loaded': True, 'loadedTime': 2793.7000000476837, 'positionName': 'RIGHT', 'positionCoords': [710.32, 179], 'bid': 0.25}]",139866.09999990463,1669831322699,bagel plain,blackbeanswithrice,0.16,0.25,0.09,bagel plain,2165.9000000953674,2166,2166.300000190735,True,u,142536.5,2670.4000000953674,1669831325369,2670,HRV,HRV_0164,2022-11-30 18:05:28
71,"[{'imgObject': {}, 'id': 'apple slices', 'src': '/static/foodstim60/apple slices.jpg', 'key': 'u', 'origWidth': 409, 'origHeight': 410, 'width': 409, 'height': 410, 'widthPercent': 0.45, 'rescaleHeight': False, 'trialN': 71, 'loaded': True, 'loadedTime': 2830.0999999046326, 'positionName': 'LEFT', 'positionCoords': [246.68, 179], 'bid': 4.01}, {'imgObject': {}, 'id': 'seaweed', 'src': '/static/foodstim60/seaweed.jpg', 'key': 'i', 'origWidth': 410, 'origHeight': 410, 'width': 410, 'height': 410, 'widthPercent': 0.45, 'rescaleHeight': False, 'trialN': 71, 'loaded': True, 'loadedTime': 2816.5999999046326, 'positionName': 'RIGHT', 'positionCoords': [710.32, 179], 'bid': 9.8}]",142536.79999995232,1669831325370,apple slices,seaweed,4.01,9.8,5.790000000000001,seaweed,707.5,708,708.2000000476837,True,i,143752.90000009537,1216.1000001430511,1669831326586,1216,HRV,HRV_0164,2022-11-30 18:05:28
72,"[{'imgObject': {}, 'id': 'salad w chicken', 'src': '/static/foodstim60/salad w chicken.jpg', 'key': 'u', 'origWidth': 411, 'origHeight': 411, 'width': 411, 'height': 411, 'widthPercent': 0.45, 'rescaleHeight': False, 'trialN': 72, 'loaded': True, 'loadedTime': 2803.5, 'positionName': 'LEFT', 'positionCoords': [244.68, 178.5], 'bid': 5.68}, {'imgObject': {}, 'id': 'mango', 'src': '/static/foodstim60/mango.jpg', 'key': 'i', 'origWidth': 411, 'origHeight': 411, 'width': 411, 'height': 411, 'widthPercent': 0.45, 'rescaleHeight': False, 'trialN': 72, 'loaded': True, 'loadedTime': 2393.5, 'positionName': 'RIGHT', 'positionCoords': [710.32, 178.5], 'bid': 5.05}]",143753.5,1669831326586,salad w chicken,mango,5.68,5.05,-0.6299999999999999,mango,1111.7999999523163,1113,1112.7000000476837,True,i,145368.5,1615.0,1669831328201,1615,HRV,HRV_0164,2022-11-30 18:05:28
73,"[{'imgObject': {}, 'id': 'mashed potato', 'src': '/static/foodstim60/mashed potato.jpg', 'key': 'u', 'origWidth': 409, 'origHeight': 409, 'width': 409, 'height': 409, 'widthPercent': 0.45, 'rescaleHeight': False, 'trialN': 73, 'loaded': True, 'loadedTime': 2741.5999999046326, 'positionName': 'LEFT', 'positionCoords': [246.68, 179.5], 'bid': 1.58}, {'imgObject': {}, 'id': 'granola w milk', 'src': '/static/foodstim60/granola w milk.jpg', 'key': 'i', 'origWidth': 410, 'origHeight': 410, 'width': 410, 'height': 410, 'widthPercent': 0.45, 'rescaleHeight': False, 'trialN': 73, 'loaded': True, 'loadedTime': 2797.0999999046326, 'positionName': 'RIGHT', 'positionCoords': [710.32, 179], 'bid': 0.16}]",145369.09999990463,1669831328202,mashed potato,granola w milk,1.58,0.16,-1.4200000000000002,mashed potato,1311.9000000953674,1313,1313.2000000476837,True,u,147185.09999990463,1816.0,1669831330018,1816,HRV,HRV_0164,2022-11-30 18:05:28
74,"[{'imgObject': {}, 'id': 'rigatoni', 'src': '/static/foodstim60/rigatoni.jpg', 'key': 'u', 'origWidth': 411, 'origHeight': 411, 'width': 411, 'height': 411, 'widthPercent': 0.45, 'rescaleHeight': False, 'trialN': 74, 'loaded': True, 'loadedTime': 2803.2999999523163, 'positionName': 'LEFT', 'positionCoords': [244.68, 178.5], 'bid': 0.78}, {'imgObject': {}, 'id': 'froot loops w milk', 'src': '/static/foodstim60/froot loops w milk.jpg', 'key': 'i', 'origWidth': 410, 'origHeight': 410, 'width': 410, 'height': 410, 'widthPercent': 0.45, 'rescaleHeight': False, 'trialN': 74, 'loaded': True, 'loadedTime': 2710.7000000476837, 'positionName': 'RIGHT', 'positionCoords': [710.32, 179], 'bid': 1.44}]",147185.5,1669831330018,rigatoni,froot loops w milk,0.78,1.44,0.6599999999999999,rigatoni,658.2000000476837,659,659.2000000476837,True,u,148345.59999990463,1160.0999999046326,1669831331178,1160,HRV,HRV_0164,2022-11-30 18:05:28
75,"[{'imgObject': {}, 'id': 'bagel and cc', 'src': '/static/foodstim60/bagel and cc.jpg', 'key': 'u', 'origWidth': 410, 'origHeight': 410, 'width': 410, 'height': 410, 'widthPercent': 0.45, 'rescaleHeight': False, 'trialN': 75, 'loaded': True, 'loadedTime': 2401.5999999046326, 'positionName': 'LEFT', 'positionCoords': [245.68, 179], 'bid': 0.4}, {'imgObject': {}, 'id': 'popsicles', 'src': '/static/foodstim60/popsicles.jpg', 'key': 'i', 'origWidth': 410, 'origHeight': 410, 'width': 410, 'height': 410, 'widthPercent': 0.45, 'rescaleHeight': False, 'trialN': 75, 'loaded': True, 'loadedTime': 2575.7999999523163, 'positionName': 'RIGHT', 'positionCoords': [710.32, 179], 'bid': 2.14}]",148345.90000009537,1669831331179,bagel and cc,popsicles,0.4,2.14,1.7400000000000002,bagel and cc,801.7999999523163,802,802.6999998092651,True,u,149656.70000004768,1310.7999999523163,1669831332489,1310,HRV,HRV_0164,2022-11-30 18:05:28
76,"[{'imgObject': {}, 'id': 'tacos', 'src': '/static/foodstim60/tacos.jpg', 'key': 'u', 'origWidth': 411, 'origHeight': 411, 'width': 411, 'height': 411, 'widthPercent': 0.45, 'rescaleHeight': False, 'trialN': 76, 'loaded': True, 'loadedTime': 2836.0999999046326, 'positionName': 'LEFT', 'positionCoords': [244.68, 178.5], 'bid': 2.84}, {'imgObject': {}, 'id': 'blueberries', 'src': '/static/foodstim60/blueberries.jpg', 'key': 'i', 'origWidth': 411, 'origHeight': 411, 'width': 411, 'height': 411, 'widthPercent': 0.45, 'rescaleHeight': False, 'trialN': 76, 'loaded': True, 'loadedTime': 2733.7999999523163, 'positionName': 'RIGHT', 'positionCoords': [710.32, 178.5], 'bid': 8.01}]",149657.29999995232,1669831332490,tacos,blueberries,2.84,8.01,5.17,blueberries,767.7000000476837,769,768.6000001430511,True,i,150928.20000004768,1270.9000000953674,1669831333761,1271,HRV,HRV_0164,2022-11-30 18:05:28
77,"[{'imgObject': {}, 'id': 'cherries', 'src': '/static/foodstim60/cherries.jpg', 'key': 'u', 'origWidth': 410, 'origHeight': 411, 'width': 410, 'height': 411, 'widthPercent': 0.45, 'rescaleHeight': False, 'trialN': 77, 'loaded': True, 'loadedTime': 2724, 'positionName': 'LEFT', 'positionCoords': [245.68, 178.5], 'bid': 9.18}, {'imgObject': {}, 'id': 'sushi w_condiments', 'src': '/static/foodstim60/sushi w_condiments.jpg', 'key': 'i', 'origWidth': 410, 'origHeight': 410, 'width': 410, 'height': 410, 'widthPercent': 0.45, 'rescaleHeight': False, 'trialN': 77, 'loaded': True, 'loadedTime': 2675.2999999523163, 'positionName': 'RIGHT', 'positionCoords': [710.32, 179], 'bid': 8.83}]",150928.79999995232,1669831333761,cherries,sushi w_condiments,9.18,8.83,-0.34999999999999964,cherries,760.6000001430511,762,761.4000000953674,True,u,152192.59999990463,1263.7999999523163,1669831335025,1264,HRV,HRV_0164,2022-11-30 18:05:28
78,"[{'imgObject': {}, 'id': 'edamame', 'src': '/static/foodstim60/edamame.jpg', 'key': 'u', 'origWidth': 409, 'origHeight': 410, 'width': 409, 'height': 410, 'widthPercent': 0.45, 'rescaleHeight': False, 'trialN': 78, 'loaded': True, 'loadedTime': 2650.4000000953674, 'positionName': 'LEFT', 'positionCoords': [246.68, 179], 'bid': 0.43}, {'imgObject': {}, 'id': 'bagel plain', 'src': '/static/foodstim60/bagel plain.jpg', 'key': 'i', 'origWidth': 410, 'origHeight': 410, 'width': 410, 'height': 410, 'widthPercent': 0.45, 'rescaleHeight': False, 'trialN': 78, 'loaded': True, 'loadedTime': 2715.9000000953674, 'positionName': 'RIGHT', 'positionCoords': [710.32, 179], 'bid': 0.16}]",152192.79999995232,1669831335026,edamame,bagel plain,0.43,0.16,-0.27,bagel plain,1591.1000001430511,1592,1592.0,True,i,154288.90000009537,2096.100000143051,1669831337122,2096,HRV,HRV_0164,2022-11-30 18:05:28
79,"[{'imgObject': {}, 'id': 'tacos', 'src': '/static/foodstim60/tacos.jpg', 'key': 'u', 'origWidth': 411, 'origHeight': 411, 'width': 411, 'height': 411, 'widthPercent': 0.45, 'rescaleHeight': False, 'trialN': 79, 'loaded': True, 'loadedTime': 2835.2999999523163, 'positionName': 'LEFT', 'positionCoords': [244.68, 178.5], 'bid': 2.84}, {'imgObject': {}, 'id': 'edamame', 'src': '/static/foodstim60/edamame.jpg', 'key': 'i', 'origWidth': 409, 'origHeight': 410, 'width': 409, 'height': 410, 'widthPercent': 0.45, 'rescaleHeight': False, 'trialN': 79, 'loaded': True, 'loadedTime': 2650.0999999046326, 'positionName': 'RIGHT', 'positionCoords': [710.32, 179], 'bid': 0.43}]",154289.59999990463,1669831337122,tacos,edamame,2.84,0.43,-2.4099999999999997,tacos,1509.9000000953674,1511,1510.8000001907349,True,u,156304.70000004768,2015.1000001430511,1669831339137,2015,HRV,HRV_0164,2022-11-30 18:05:28
80,"[{'imgObject': {}, 'id': 'salmon', 'src': '/static/foodstim60/salmon.jpg', 'key': 'u', 'origWidth': 410, 'origHeight': 409, 'width': 410, 'height': 409, 'widthPercent': 0.45, 'rescaleHeight': False, 'trialN': 80, 'loaded': True, 'loadedTime': 2784.5, 'positionName': 'LEFT', 'positionCoords': [245.68, 179.5], 'bid': 7.43}, {'imgObject': {}, 'id': 'seaweed', 'src': '/static/foodstim60/seaweed.jpg', 'key': 'i', 'origWidth': 410, 'origHeight': 410, 'width': 410, 'height': 410, 'widthPercent': 0.45, 'rescaleHeight': False, 'trialN': 80, 'loaded': True, 'loadedTime': 2816.2999999523163, 'positionName': 'RIGHT', 'positionCoords': [710.32, 179], 'bid': 9.8}]",156305.20000004768,1669831339138,salmon,seaweed,7.43,9.8,2.370000000000001,seaweed,906.5,907,907.3999998569489,True,i,157713.0,1407.7999999523163,1669831340546,1408,HRV,HRV_0164,2022-11-30 18:05:28
81,"[{'imgObject': {}, 'id': 'lox', 'src': '/static/foodstim60/lox.jpg', 'key': 'u', 'origWidth': 410, 'origHeight': 411, 'width': 410, 'height': 411, 'widthPercent': 0.45, 'rescaleHeight': False, 'trialN': 81, 'loaded': True, 'loadedTime': 2813.7000000476837, 'positionName': 'LEFT', 'positionCoords': [245.68, 178.5], 'bid': 7.86}, {'imgObject': {}, 'id': 'mango', 'src': '/static/foodstim60/mango.jpg', 'key': 'i', 'origWidth': 411, 'origHeight': 411, 'width': 411, 'height': 411, 'widthPercent': 0.45, 'rescaleHeight': False, 'trialN': 81, 'loaded': True, 'loadedTime': 2398.0999999046326, 'positionName': 'RIGHT', 'positionCoords': [710.32, 178.5], 'bid': 5.05}]",157713.5,1669831340546,lox,mango,7.86,5.05,-2.8100000000000005,lox,994.5,996,995.5,True,u,159217.20000004768,1503.7000000476837,1669831342050,1504,HRV,HRV_0164,2022-11-30 18:05:28
82,"[{'imgObject': {}, 'id': 'cantaloupe', 'src': '/static/foodstim60/cantaloupe.jpg', 'key': 'u', 'origWidth': 409, 'origHeight': 409, 'width': 409, 'height': 409, 'widthPercent': 0.45, 'rescaleHeight': False, 'trialN': 82, 'loaded': True, 'loadedTime': 2512.0999999046326, 'positionName': 'LEFT', 'positionCoords': [246.68, 179.5], 'bid': 4}, {'imgObject': {}, 'id': 'strawberries', 'src': '/static/foodstim60/strawberries.jpg', 'key': 'i', 'origWidth': 410, 'origHeight': 410, 'width': 410, 'height': 410, 'widthPercent': 0.45, 'rescaleHeight': False, 'trialN': 82, 'loaded': True, 'loadedTime': 2741, 'positionName': 'RIGHT', 'positionCoords': [710.32, 179], 'bid': 9.53}]",159217.79999995232,1669831342051,cantaloupe,strawberries,4.0,9.53,5.529999999999999,strawberries,1170.7000000476837,1171,1171.6000001430511,True,i,160896.5,1678.7000000476837,1669831343729,1678,HRV,HRV_0164,2022-11-30 18:05:28
83,"[{'imgObject': {}, 'id': 'hotdog w must', 'src': '/static/foodstim60/hotdog w must.jpg', 'key': 'u', 'origWidth': 409, 'origHeight': 409, 'width': 409, 'height': 409, 'widthPercent': 0.45, 'rescaleHeight': False, 'trialN': 83, 'loaded': True, 'loadedTime': 2361.2000000476837, 'positionName': 'LEFT', 'positionCoords': [246.68, 179.5], 'bid': 0.75}, {'imgObject': {}, 'id': 'granola w milk', 'src': '/static/foodstim60/granola w milk.jpg', 'key': 'i', 'origWidth': 410, 'origHeight': 410, 'width': 410, 'height': 410, 'widthPercent': 0.45, 'rescaleHeight': False, 'trialN': 83, 'loaded': True, 'loadedTime': 2796.0999999046326, 'positionName': 'RIGHT', 'positionCoords': [710.32, 179], 'bid': 0.16}]",160897.09999990463,1669831343730,hotdog w must,granola w milk,0.75,0.16,-0.59,hotdog w must,792.1000001430511,792,792.7000000476837,True,u,162193.0,1295.9000000953674,1669831345026,1296,HRV,HRV_0164,2022-11-30 18:05:28
84,"[{'imgObject': {}, 'id': 'chickenfingers', 'src': '/static/foodstim60/chickenfingers.jpg', 'key': 'u', 'origWidth': 410, 'origHeight': 410, 'width': 410, 'height': 410, 'widthPercent': 0.45, 'rescaleHeight': False, 'trialN': 84, 'loaded': True, 'loadedTime': 2820.2999999523163, 'positionName': 'LEFT', 'positionCoords': [245.68, 179], 'bid': 5.01}, {'imgObject': {}, 'id': 'corn cob', 'src': '/static/foodstim60/corn cob.jpg', 'key': 'i', 'origWidth': 411, 'origHeight': 411, 'width': 411, 'height': 411, 'widthPercent': 0.45, 'rescaleHeight': False, 'trialN': 84, 'loaded': True, 'loadedTime': 2349.2000000476837, 'positionName': 'RIGHT', 'positionCoords': [710.32, 178.5], 'bid': 0.37}]",162193.59999990463,1669831345026,chickenfingers,corn cob,5.01,0.37,-4.64,chickenfingers,1455.6000001430511,1457,1456.5,True,u,164153.20000004768,1959.6000001430511,1669831346986,1960,HRV,HRV_0164,2022-11-30 18:05:28
85,"[{'imgObject': {}, 'id': 'kiwi', 'src': '/static/foodstim60/kiwi.jpg', 'key': 'u', 'origWidth': 410, 'origHeight': 410, 'width': 410, 'height': 410, 'widthPercent': 0.45, 'rescaleHeight': False, 'trialN': 85, 'loaded': True, 'loadedTime': 2701.0999999046326, 'positionName': 'LEFT', 'positionCoords': [245.68, 179], 'bid': 9.2}, {'imgObject': {}, 'id': 'strawberries', 'src': '/static/foodstim60/strawberries.jpg', 'key': 'i', 'origWidth': 410, 'origHeight': 410, 'width': 410, 'height': 410, 'widthPercent': 0.45, 'rescaleHeight': False, 'trialN': 85, 'loaded': True, 'loadedTime': 2735.2000000476837, 'positionName': 'RIGHT', 'positionCoords': [710.32, 179], 'bid': 9.53}]",164153.70000004768,1669831346986,kiwi,strawberries,9.2,9.53,0.33000000000000007,strawberries,1312.7000000476837,1314,1313.2000000476837,True,i,165968.59999990463,1814.8999998569489,1669831348801,1815,HRV,HRV_0164,2022-11-30 18:05:28
86,"[{'imgObject': {}, 'id': 'pear', 'src': '/static/foodstim60/pear.jpg', 'key': 'u', 'origWidth': 411, 'origHeight': 410, 'width': 411, 'height': 410, 'widthPercent': 0.45, 'rescaleHeight': False, 'trialN': 86, 'loaded': True, 'loadedTime': 2837.5999999046326, 'positionName': 'LEFT', 'positionCoords': [244.68, 179], 'bid': 4.3100000000000005}, {'imgObject': {}, 'id': 'Grapes', 'src': '/static/foodstim60/Grapes.jpg', 'key': 'i', 'origWidth': 411, 'origHeight': 411, 'width': 411, 'height': 411, 'widthPercent': 0.45, 'rescaleHeight': False, 'trialN': 86, 'loaded': True, 'loadedTime': 2343.2999999523163, 'positionName': 'RIGHT', 'positionCoords': [710.32, 178.5], 'bid': 6.47}]",165969.09999990463,1669831348802,pear,Grapes,4.3100000000000005,6.47,2.1599999999999993,Grapes,1124.3000001907349,1125,1125.4000000953674,True,i,167601.59999990463,1632.5,1669831350434,1632,HRV,HRV_0164,2022-11-30 18:05:28
87,"[{'imgObject': {}, 'id': 'turkey sandwich', 'src': '/static/foodstim60/turkey sandwich.jpg', 'key': 'u', 'origWidth': 409, 'origHeight': 409, 'width': 409, 'height': 409, 'widthPercent': 0.45, 'rescaleHeight': False, 'trialN': 87, 'loaded': True, 'loadedTime': 2692.5999999046326, 'positionName': 'LEFT', 'positionCoords': [246.68, 179.5], 'bid': 4.88}, {'imgObject': {}, 'id': 'cantaloupe', 'src': '/static/foodstim60/cantaloupe.jpg', 'key': 'i', 'origWidth': 409, 'origHeight': 409, 'width': 409, 'height': 409, 'widthPercent': 0.45, 'rescaleHeight': False, 'trialN': 87, 'loaded': True, 'loadedTime': 2496.0999999046326, 'positionName': 'RIGHT', 'positionCoords': [710.32, 179.5], 'bid': 4}]",167601.79999995232,1669831350435,turkey sandwich,cantaloupe,4.88,4.0,-0.8799999999999999,cantaloupe,1428.7000000476837,1429,1430.0,True,i,169537.0,1935.2000000476837,1669831352370,1935,HRV,HRV_0164,2022-11-30 18:05:28
88,"[{'imgObject': {}, 'id': 'yogurt no spoon', 'src': '/static/foodstim60/yogurt no spoon.jpg', 'key': 'u', 'origWidth': 411, 'origHeight': 410, 'width': 411, 'height': 410, 'widthPercent': 0.45, 'rescaleHeight': False, 'trialN': 88, 'loaded': True, 'loadedTime': 2636.2999999523163, 'positionName': 'LEFT', 'positionCoords': [244.68, 179], 'bid': 5.17}, {'imgObject': {}, 'id': 'mango', 'src': '/static/foodstim60/mango.jpg', 'key': 'i', 'origWidth': 411, 'origHeight': 411, 'width': 411, 'height': 411, 'widthPercent': 0.45, 'rescaleHeight': False, 'trialN': 88, 'loaded': True, 'loadedTime': 2396.5999999046326, 'positionName': 'RIGHT', 'positionCoords': [710.32, 178.5], 'bid': 5.05}]",169537.59999990463,1669831352370,yogurt no spoon,mango,5.17,5.05,-0.1200000000000001,yogurt no spoon,1357.5,1359,1358.5,True,u,171402.0,1864.4000000953674,1669831354235,1865,HRV,HRV_0164,2022-11-30 18:05:28
89,"[{'imgObject': {}, 'id': 'grilled chicken strips', 'src': '/static/foodstim60/grilled chicken strips.jpg', 'key': 'u', 'origWidth': 410, 'origHeight': 411, 'width': 410, 'height': 411, 'widthPercent': 0.45, 'rescaleHeight': False, 'trialN': 89, 'loaded': True, 'loadedTime': 2832.4000000953674, 'positionName': 'LEFT', 'positionCoords': [245.68, 178.5], 'bid': 5.95}, {'imgObject': {}, 'id': 'banana', 'src': '/static/foodstim60/banana.jpg', 'key': 'i', 'origWidth': 410, 'origHeight': 410, 'width': 410, 'height': 410, 'widthPercent': 0.45, 'rescaleHeight': False, 'trialN': 89, 'loaded': True, 'loadedTime': 2465.2999999523163, 'positionName': 'RIGHT', 'positionCoords': [710.32, 179], 'bid': 4.25}]",171402.70000004768,1669831354235,grilled chicken strips,banana,5.95,4.25,-1.7000000000000002,grilled chicken strips,1377.5999999046326,1379,1378.2000000476837,True,u,173281.29999995232,1878.5999999046326,1669831356114,1879,HRV,HRV_0164,2022-11-30 18:05:28
90,"[{'imgObject': {}, 'id': 'granola w milk', 'src': '/static/foodstim60/granola w milk.jpg', 'key': 'u', 'origWidth': 410, 'origHeight': 410, 'width': 410, 'height': 410, 'widthPercent': 0.45, 'rescaleHeight': False, 'trialN': 90, 'loaded': True, 'loadedTime': 2799.0999999046326, 'positionName': 'LEFT', 'positionCoords': [245.68, 179], 'bid': 0.16}, {'imgObject': {}, 'id': 'raisin bran w milk', 'src': '/static/foodstim60/raisin bran w milk.jpg', 'key': 'i', 'origWidth': 411, 'origHeight': 411, 'width': 411, 'height': 411, 'widthPercent': 0.45, 'rescaleHeight': False, 'trialN': 90, 'loaded': True, 'loadedTime': 2765.9000000953674, 'positionName': 'RIGHT', 'positionCoords': [710.32, 178.5], 'bid': 0.1}]",175608.59999990463,1669831358441,granola w milk,raisin bran w milk,0.16,0.1,-0.06,NaN,NaN,NaN,,False,NaN,179625.70000004768,4017.100000143051,1669831362458,4017,HRV,HRV_0164,2022-11-30 18:05:28
91,"[{'imgObject': {}, 'id': 'cheerios', 'src': '/static/foodstim60/cheerios.jpg', 'key': 'u', 'origWidth': 409, 'origHeight': 410, 'width': 409, 'height': 410, 'widthPercent': 0.45, 'rescaleHeight': False, 'trialN': 91, 'loaded': True, 'loadedTime': 2366.2000000476837, 'positionName': 'LEFT', 'positionCoords': [246.68, 179], 'bid': 3.0500000000000003}, {'imgObject': {}, 'id': 'ice cream sundae 002', 'src': '/static/foodstim60/ice cream sundae 002.jpg', 'key': 'i', 'origWidth': 409, 'origHeight': 409, 'width': 409, 'height': 409, 'widthPercent': 0.45, 'rescaleHeight': False, 'trialN': 91, 'loaded': True, 'loadedTime': 2440.7000000476837, 'positionName': 'RIGHT', 'positionCoords': [710.32, 179.5], 'bid': 2.18}]",179626.09999990463,1669831362459,cheerios,ice cream sundae 002,3.0500000000000003,2.18,-0.8700000000000001,cheerios,2222.2000000476837,2223,2223.100000143051,True,u,182353.20000004768,2727.100000143051,1669831365186,2727,HRV,HRV_0164,2022-11-30 18:05:28
92,"[{'imgObject': {}, 'id': 'orange slices', 'src': '/static/foodstim60/orange slices.jpg', 'key': 'u', 'origWidth': 409, 'origHeight': 410, 'width': 409, 'height': 410, 'widthPercent': 0.45, 'rescaleHeight': False, 'trialN': 92, 'loaded': True, 'loadedTime': 2591.7999999523163, 'positionName': 'LEFT', 'positionCoords': [246.68, 179], 'bid': 4.79}, {'imgObject': {}, 'id': 'blackbeanswithrice', 'src': '/static/foodstim60/blackbeanswithrice.jpg', 'key': 'i', 'origWidth': 410, 'origHeight': 410, 'width': 410, 'height': 410, 'widthPercent': 0.45, 'rescaleHeight': False, 'trialN': 92, 'loaded': True, 'loadedTime': 2794.2000000476837, 'positionName': 'RIGHT', 'positionCoords': [710.32, 179], 'bid': 0.25}]",182353.70000004768,1669831365186,orange slices,blackbeanswithrice,4.79,0.25,-4.54,orange slices,1762.7999999523163,1764,1763.2000000476837,True,u,184625.40000009537,2271.7000000476837,1669831367458,2272,HRV,HRV_0164,2022-11-30 18:05:28
93,"[{'imgObject': {}, 'id': 'eggs', 'src': '/static/foodstim60/eggs.jpg', 'key': 'u', 'origWidth': 409, 'origHeight': 409, 'width': 409, 'height': 409, 'widthPercent': 0.45, 'rescaleHeight': False, 'trialN': 93, 'loaded': True, 'loadedTime': 2558.7000000476837, 'positionName': 'LEFT', 'positionCoords': [246.68, 179.5], 'bid': 5.64}, {'imgObject': {}, 'id': 'burger', 'src': '/static/foodstim60/burger.jpg', 'key': 'i', 'origWidth': 409, 'origHeight': 409, 'width': 409, 'height': 409, 'widthPercent': 0.45, 'rescaleHeight': False, 'trialN': 93, 'loaded': True, 'loadedTime': 2811.2999999523163, 'positionName': 'RIGHT', 'positionCoords': [710.32, 179.5], 'bid': 5.67}]",184625.90000009537,1669831367459,eggs,burger,5.64,5.67,0.03000000000000025,burger,2414.7999999523163,2416,2416.199999809265,True,i,187545.0,2919.0999999046326,1669831370378,2919,HRV,HRV_0164,2022-11-30 18:05:28
94,"[{'imgObject': {}, 'id': 'chickenfingers', 'src': '/static/foodstim60/chickenfingers.jpg', 'key': 'u', 'origWidth': 410, 'origHeight': 410, 'width': 410, 'height': 410, 'widthPercent': 0.45, 'rescaleHeight': False, 'trialN': 94, 'loaded': True, 'loadedTime': 2823.9000000953674, 'positionName': 'LEFT', 'positionCoords': [245.68, 179], 'bid': 5.01}, {'imgObject': {}, 'id': 'turkey sandwich', 'src': '/static/foodstim60/turkey sandwich.jpg', 'key': 'i', 'origWidth': 409, 'origHeight': 409, 'width': 409, 'height': 409, 'widthPercent': 0.45, 'rescaleHeight': False, 'trialN': 94, 'loaded': True, 'loadedTime': 2690.7000000476837, 'positionName': 'RIGHT', 'positionCoords': [710.32, 179.5], 'bid': 4.88}]",187545.59999990463,1669831370378,chickenfingers,turkey sandwich,5.01,4.88,-0.1299999999999999,chickenfingers,1460.2000000476837,1461,1460.8000001907349,True,u,189513.20000004768,1967.6000001430511,1669831372346,1968,HRV,HRV_0164,2022-11-30 18:05:28
95,"[{'imgObject': {}, 'id': 'kiwi', 'src': '/static/foodstim60/kiwi.jpg', 'key': 'u', 'origWidth': 410, 'origHeight': 410, 'width': 410, 'height': 410, 'widthPercent': 0.45, 'rescaleHeight': False, 'trialN': 95, 'loaded': True, 'loadedTime': 2705.2999999523163, 'positionName': 'LEFT', 'positionCoords': [245.68, 179], 'bid': 9.2}, {'imgObject': {}, 'id': 'eggsalad', 'src': '/static/foodstim60/eggsalad.jpg', 'key': 'i', 'origWidth': 410, 'origHeight': 409, 'width': 410, 'height': 409, 'widthPercent': 0.45, 'rescaleHeight': False, 'trialN': 95, 'loaded': True, 'loadedTime': 2801.0999999046326, 'positionName': 'RIGHT', 'positionCoords': [710.32, 179.5], 'bid': 3.33}]",189513.79999995232,1669831372346,kiwi,eggsalad,9.2,3.33,-5.869999999999999,kiwi,723.7000000476837,726,725.5,True,u,190745.09999990463,1231.2999999523163,1669831373578,1232,HRV,HRV_0164,2022-11-30 18:05:28
96,"[{'imgObject': {}, 'id': 'burrito', 'src': '/static/foodstim60/burrito.jpg', 'key': 'u', 'origWidth': 410, 'origHeight': 410, 'width': 410, 'height': 410, 'widthPercent': 0.45, 'rescaleHeight': False, 'trialN': 96, 'loaded': True, 'loadedTime': 2758.7000000476837, 'positionName': 'LEFT', 'positionCoords': [245.68, 179], 'bid': 2.67}, {'imgObject': {}, 'id': 'pear', 'src': '/static/foodstim60/pear.jpg', 'key': 'i', 'origWidth': 411, 'origHeight': 410, 'width': 411, 'height': 410, 'widthPercent': 0.45, 'rescaleHeight': False, 'trialN': 96, 'loaded': True, 'loadedTime': 2838.9000000953674, 'positionName': 'RIGHT', 'positionCoords': [710.32, 179], 'bid': 4.3100000000000005}]",190745.59999990463,1669831373578,burrito,pear,2.67,4.3100000000000005,1.6400000000000006,pear,1420.3000001907349,1422,1421.6000001430511,True,i,192673.20000004768,1927.6000001430511,1669831375506,1928,HRV,HRV_0164,2022-11-30 18:05:28
97,"[{'imgObject': {}, 'id': 'lox', 'src': '/static/foodstim60/lox.jpg', 'key': 'u', 'origWidth': 410, 'origHeight': 411, 'width': 410, 'height': 411, 'widthPercent': 0.45, 'rescaleHeight': False, 'trialN': 97, 'loaded': True, 'loadedTime': 2811.7999999523163, 'positionName': 'LEFT', 'positionCoords': [245.68, 178.5], 'bid': 7.86}, {'imgObject': {}, 'id': 'salmon', 'src': '/static/foodstim60/salmon.jpg', 'key': 'i', 'origWidth': 410, 'origHeight': 409, 'width': 410, 'height': 409, 'widthPercent': 0.45, 'rescaleHeight': False, 'trialN': 97, 'loaded': True, 'loadedTime': 2773.2000000476837, 'positionName': 'RIGHT', 'positionCoords': [710.32, 179.5], 'bid': 7.43}]",192673.70000004768,1669831375506,lox,salmon,7.86,7.43,-0.4300000000000006,lox,806.3999998569489,807,807.0999999046326,True,u,193985.09999990463,1311.3999998569489,1669831376818,1312,HRV,HRV_0164,2022-11-30 18:05:28
98,"[{'imgObject': {}, 'id': 'popsicles', 'src': '/static/foodstim60/popsicles.jpg', 'key': 'u', 'origWidth': 410, 'origHeight': 410, 'width': 410, 'height': 410, 'widthPercent': 0.45, 'rescaleHeight': False, 'trialN': 98, 'loaded': True, 'loadedTime': 2574, 'positionName': 'LEFT', 'positionCoords': [245.68, 179], 'bid': 2.14}, {'imgObject': {}, 'id': 'Grapes', 'src': '/static/foodstim60/Grapes.jpg', 'key': 'i', 'origWidth': 411, 'origHeight': 411, 'width': 411, 'height': 411, 'widthPercent': 0.45, 'rescaleHeight': False, 'trialN': 98, 'loaded': True, 'loadedTime': 2343.9000000953674, 'positionName': 'RIGHT', 'positionCoords': [710.32, 178.5], 'bid': 6.47}]",193985.40000009537,1669831376818,popsicles,Grapes,2.14,6.47,4.33,Grapes,866.2999999523163,867,867.1999998092651,True,i,195352.90000009537,1367.5,1669831378185,1367,HRV,HRV_0164,2022-11-30 18:05:28
99,"[{'imgObject': {}, 'id': 'ice cream sundae 002', 'src': '/static/foodstim60/ice cream sundae 002.jpg', 'key': 'u', 'origWidth': 409, 'origHeight': 409, 'width': 409, 'height': 409, 'widthPercent': 0.45, 'rescaleHeight': False, 'trialN': 99, 'loaded': True, 'loadedTime': 2461.9000000953674, 'positionName': 'LEFT', 'positionCoords': [246.68, 179.5], 'bid': 2.18}, {'imgObject': {}, 'id': 'edamame', 'src': '/static/foodstim60/edamame.jpg', 'key': 'i', 'origWidth': 409, 'origHeight': 410, 'width': 409, 'height': 410, 'widthPercent': 0.45, 'rescaleHeight': False, 'trialN': 99, 'loaded': True, 'loadedTime': 2657.4000000953674, 'positionName': 'RIGHT', 'positionCoords': [710.32, 179], 'bid': 0.43}]",195353.40000009537,1669831378186,ice cream sundae 002,edamame,2.18,0.43,-1.7500000000000002,ice cream sundae 002,876.1999998092651,878,877.7999999523163,True,u,196737.70000004768,1384.2999999523163,1669831379570,1384,HRV,HRV_0164,2022-11-30 18:05:28
100,"[{'imgObject': {}, 'id': 'luckycharms', 'src': '/static/foodstim60/luckycharms.jpg', 'key': 'u', 'origWidth': 410, 'origHeight': 409, 'width': 410, 'height': 409, 'widthPercent': 0.45, 'rescaleHeight': False, 'trialN': 100, 'loaded': True, 'loadedTime': 2586.2999999523163, 'positionName': 'LEFT', 'positionCoords': [245.68, 179.5], 'bid': 0.25}, {'imgObject': {}, 'id': 'turkey sandwich', 'src': '/static/foodstim60/turkey sandwich.jpg', 'key': 'i', 'origWidth': 409, 'origHeight': 409, 'width': 409, 'height': 409, 'widthPercent': 0.45, 'rescaleHeight': False, 'trialN': 100, 'loaded': True, 'loadedTime': 2691.4000000953674, 'positionName': 'RIGHT', 'positionCoords': [710.32, 179.5], 'bid': 4.88}]",196738.29999995232,1669831379571,luckycharms,turkey sandwich,0.25,4.88,4.63,turkey sandwich,1032.9000000953674,1034,1034.0,True,i,198273.29999995232,1535.0,1669831381106,1535,HRV,HRV_0164,2022-11-30 18:05:28
101,"[{'imgObject': {}, 'id': 'sweetpotato', 'src': '/static/foodstim60/sweetpotato.jpg', 'key': 'u', 'origWidth': 410, 'origHeight': 410, 'width': 410, 'height': 410, 'widthPercent': 0.45, 'rescaleHeight': False, 'trialN': 101, 'loaded': True, 'loadedTime': 2577.7000000476837, 'positionName': 'LEFT', 'positionCoords': [245.68, 179], 'bid': 7.86}, {'imgObject': {}, 'id': 'cherry tomato', 'src': '/static/foodstim60/cherry tomato.jpg', 'key': 'i', 'origWidth': 410, 'origHeight': 410, 'width': 410, 'height': 410, 'widthPercent': 0.45, 'rescaleHeight': False, 'trialN': 101, 'loaded': True, 'loadedTime': 2789.5999999046326, 'positionName': 'RIGHT', 'positionCoords': [710.32, 179], 'bid': 7.07}]",198273.70000004768,1669831381106,sweetpotato,cherry tomato,7.86,7.07,-0.79,sweetpotato,2237.2999999523163,2238,2238.2999999523163,True,u,201016.79999995232,2743.0999999046326,1669831383849,2743,HRV,HRV_0164,2022-11-30 18:05:28
102,"[{'imgObject': {}, 'id': 'shreddedwheatwithmilk', 'src': '/static/foodstim60/shreddedwheatwithmilk.jpg', 'key': 'u', 'origWidth': 410, 'origHeight': 410, 'width': 410, 'height': 410, 'widthPercent': 0.45, 'rescaleHeight': False, 'trialN': 102, 'loaded': True, 'loadedTime': 2754.7999999523163, 'positionName': 'LEFT', 'positionCoords': [245.68, 179], 'bid': 2.33}, {'imgObject': {}, 'id': 'luckycharms', 'src': '/static/foodstim60/luckycharms.jpg', 'key': 'i', 'origWidth': 410, 'origHeight': 409, 'width': 410, 'height': 409, 'widthPercent': 0.45, 'rescaleHeight': False, 'trialN': 102, 'loaded': True, 'loadedTime': 2583.5, 'positionName': 'RIGHT', 'positionCoords': [710.32, 179.5], 'bid': 0.25}]",201017.29999995232,1669831383850,shreddedwheatwithmilk,luckycharms,2.33,0.25,-2.08,shreddedwheatwithmilk,1210,1211,1211.1000001430511,True,u,202736.59999990463,1719.2999999523163,1669831385569,1719,HRV,HRV_0164,2022-11-30 18:05:28
103,"[{'imgObject': {}, 'id': 'olives', 'src': '/static/foodstim60/olives.jpg', 'key': 'u', 'origWidth': 410, 'origHeight': 410, 'width': 410, 'height': 410, 'widthPercent': 0.45, 'rescaleHeight': False, 'trialN': 103, 'loaded': True, 'loadedTime': 2839.7000000476837, 'positionName': 'LEFT', 'positionCoords': [245.68, 179], 'bid': 3.06}, {'imgObject': {}, 'id': 'mac & cheese', 'src': '/static/foodstim60/mac & cheese.jpg', 'key': 'i', 'origWidth': 410, 'origHeight': 410, 'width': 410, 'height': 410, 'widthPercent': 0.45, 'rescaleHeight': False, 'trialN': 103, 'loaded': True, 'loadedTime': 2728, 'positionName': 'RIGHT', 'positionCoords': [710.32, 179], 'bid': 3.16}]",202737.20000004768,1669831385570,olives,mac & cheese,3.06,3.16,0.10000000000000009,olives,1493.0999999046326,1494,1494.0,True,u,204736.09999990463,1998.8999998569489,1669831387569,1999,HRV,HRV_0164,2022-11-30 18:05:28
104,"[{'imgObject': {}, 'id': 'eggsalad', 'src': '/static/foodstim60/eggsalad.jpg', 'key': 'u', 'origWidth': 410, 'origHeight': 409, 'width': 410, 'height': 409, 'widthPercent': 0.45, 'rescaleHeight': False, 'trialN': 104, 'loaded': True, 'loadedTime': 2801.2999999523163, 'positionName': 'LEFT', 'positionCoords': [245.68, 179.5], 'bid': 3.33}, {'imgObject': {}, 'id': 'roastedpotatoes', 'src': '/static/foodstim60/roastedpotatoes.jpg', 'key': 'i', 'origWidth': 409, 'origHeight': 410, 'width': 409, 'height': 410, 'widthPercent': 0.45, 'rescaleHeight': False, 'trialN': 104, 'loaded': True, 'loadedTime': 2687.5, 'positionName': 'RIGHT', 'positionCoords': [710.32, 179], 'bid': 4.32}]",204736.29999995232,1669831387569,eggsalad,roastedpotatoes,3.33,4.32,0.9900000000000002,roastedpotatoes,1762.2000000476837,1764,1763.7000000476837,True,i,207000.5,2264.2000000476837,1669831389833,2264,HRV,HRV_0164,2022-11-30 18:05:28
105,"[{'imgObject': {}, 'id': 'luckycharms', 'src': '/static/foodstim60/luckycharms.jpg', 'key': 'u', 'origWidth': 410, 'origHeight': 409, 'width': 410, 'height': 409, 'widthPercent': 0.45, 'rescaleHeight': False, 'trialN': 105, 'loaded': True, 'loadedTime': 2584.7999999523163, 'positionName': 'LEFT', 'positionCoords': [245.68, 179.5], 'bid': 0.25}, {'imgObject': {}, 'id': 'turkeysandwich', 'src': '/static/foodstim60/turkeysandwich.jpg', 'key': 'i', 'origWidth': 409, 'origHeight': 409, 'width': 409, 'height': 409, 'widthPercent': 0.45, 'rescaleHeight': False, 'trialN': 105, 'loaded': True, 'loadedTime': 2845.2000000476837, 'positionName': 'RIGHT', 'positionCoords': [710.32, 179.5], 'bid': 1.38}]",207001.20000004768,1669831389834,luckycharms,turkeysandwich,0.25,1.38,1.13,turkeysandwich,1172.5,1177,1176.8999998569489,True,i,208680.79999995232,1679.5999999046326,1669831391513,1679,HRV,HRV_0164,2022-11-30 18:05:28
106,"[{'imgObject': {}, 'id': 'edamame', 'src': '/static/foodstim60/edamame.jpg', 'key': 'u', 'origWidth': 409, 'origHeight': 410, 'width': 409, 'height': 410, 'widthPercent': 0.45, 'rescaleHeight': False, 'trialN': 106, 'loaded': True, 'loadedTime': 2648.9000000953674, 'positionName': 'LEFT', 'positionCoords': [246.68, 179], 'bid': 0.43}, {'imgObject': {}, 'id': 'corn cob', 'src': '/static/foodstim60/corn cob.jpg', 'key': 'i', 'origWidth': 411, 'origHeight': 411, 'width': 411, 'height': 411, 'widthPercent': 0.45, 'rescaleHeight': False, 'trialN': 106, 'loaded': True, 'loadedTime': 2346.7000000476837, 'positionName': 'RIGHT', 'positionCoords': [710.32, 178.5], 'bid': 0.37}]",208681.29999995232,1669831391514,edamame,corn cob,0.43,0.37,-0.06,edamame,712.9000000953674,714,713.7000000476837,True,u,209896.59999990463,1215.2999999523163,1669831392729,1215,HRV,HRV_0164,2022-11-30 18:05:28
107,"[{'imgObject': {}, 'id': 'omelette', 'src': '/static/foodstim60/omelette.jpg', 'key': 'u', 'origWidth': 410, 'origHeight': 409, 'width': 410, 'height': 409, 'widthPercent': 0.45, 'rescaleHeight': False, 'trialN': 107, 'loaded': True, 'loadedTime': 2755.2999999523163, 'positionName': 'LEFT', 'positionCoords': [245.68, 179.5], 'bid': 3.62}, {'imgObject': {}, 'id': 'yogurt no spoon', 'src': '/static/foodstim60/yogurt no spoon.jpg', 'key': 'i', 'origWidth': 411, 'origHeight': 410, 'width': 411, 'height': 410, 'widthPercent': 0.45, 'rescaleHeight': False, 'trialN': 107, 'loaded': True, 'loadedTime': 2638.5, 'positionName': 'RIGHT', 'positionCoords': [710.32, 179], 'bid': 5.17}]",209897.20000004768,1669831392730,omelette,yogurt no spoon,3.62,5.17,1.5499999999999998,yogurt no spoon,2068.399999856949,2069,2069.2999999523163,True,i,212474.20000004768,2577.0,1669831395307,2577,HRV,HRV_0164,2022-11-30 18:05:28
108,"[{'imgObject': {}, 'id': 'rigatoni', 'src': '/static/foodstim60/rigatoni.jpg', 'key': 'u', 'origWidth': 411, 'origHeight': 411, 'width': 411, 'height': 411, 'widthPercent': 0.45, 'rescaleHeight': False, 'trialN': 108, 'loaded': True, 'loadedTime': 2803.4000000953674, 'positionName': 'LEFT', 'positionCoords': [244.68, 178.5], 'bid': 0.78}, {'imgObject': {}, 'id': 'steak', 'src': '/static/foodstim60/steak.jpg', 'key': 'i', 'origWidth': 410, 'origHeight': 410, 'width': 410, 'height': 410, 'widthPercent': 0.45, 'rescaleHeight': False, 'trialN': 108, 'loaded': True, 'loadedTime': 2700.5, 'positionName': 'RIGHT', 'positionCoords': [710.32, 179], 'bid': 5.61}]",212474.5,1669831395307,rigatoni,steak,0.78,5.61,4.83,steak,1345.0999999046326,1346,1346.0,True,i,214328.5,1854.0,1669831397161,1854,HRV,HRV_0164,2022-11-30 18:05:28
