success,trial_type,trial_index,time_elapsed,internal_node_id,Block,TrialNumber,TrialTime,trialTimeDiff,FPS_avg,FPS_med,FPS_mode,TrialDur,winResizeTime,rt,block,button_pressed,MotCoh,MotDir,ColCoh,Color,ChoiceKey,Choice,Accuracy,RT,nFrames,FPS,PPD,missTrial,missTrialMsg,onsetDelay,fullScreenExitTime,canvCenter,TrialType,Score,BlockTrial,stimulus,button_labels,exp,subjectId,date
True,fullscreen,0,3479,0.0-0.0,0.0,1.0,,,,,,,,,,,,,,,,,,,,,,,,,,,,,,,,HRV,HRV_0224,2022-11-30 19:13:08
,wl-check-fps,1,8478,0.0-1.0,0.0,2.0,"[3997.7, 3998.9, 4015.3, 4031.3, 4048.2, 4064.2, 4081.2, 4098.1, 4113.6, 4130.3, 4147, 4172, 4187.2, 4203.4, 4214.3, 4230.9, 4247.5, 4264.2, 4280.9, 4297.6, 4314.3, 4330.9, 4347.8, 4364.4, 4381.1, 4397.7, 4414.3, 4430.9, 4447.9, 4464.3, 4481, 4497.6, 4514.3, 4531.1, 4547.9, 4564.5, 4581.2, 4597.8, 4614.5, 4631.4, 4648, 4664.5, 4681.2, 4698, 4714.7, 4731.3, 4748.1, 4764.7, 4781.6, 4798, 4814.7, 4831.4, 4848.2, 4864.9, 4881.4, 4898.2, 4914.7, 4931.6, 4948.3, 4964.8, 4981.7, 4998.3, 5015, 5031.8, 5048.4, 5064.9, 5081.7, 5098.4, 5115.1, 5131.6, 5148.5, 5165.2, 5181.8, 5198.5, 5215.3, 5231.9, 5248.6, 5265.3, 5281.9, 5298.7, 5315.3, 5331.9, 5348.7, 5365.3, 5382.2, 5398.6, 5415.5, 5432.1, 5448.8, 5465.6, 5482.1, 5498.8, 5515.4, 5532.1, 5548.8, 5565.4, 5582.1, 5598.9, 5615.5, 5632.1, 5648.9, 5665.6, 5682.4, 5698.9, 5715.8, 5732.2, 5749.9, 5766.3, 5782.8, 5800, 5816.2, 5832.8, 5849.9, 5866.5, 5883.1, 5900.1, 5916.4, 5932.7, 5949.6, 5966.2, 5982.8, 5999.5, 6016.3, 6032.8, 6049.6, 6066.4, 6083, 6099.9, 6116.6, 6133, 6149.8, 6166.7, 6182.9, 6199.9, 6216.6, 6233.2, 6249.7, 6266.6, 6283, 6299.8, 6316.9, 6333.3, 6349.7, 6366.7, 6383.3, 6399.7, 6416.8, 6433.3, 6449.9, 6466.8, 6483.1, 6499.9, 6516.9, 6533.6, 6549.8, 6566.5, 6583.2, 6599.8, 6617, 6633.3, 6649.9, 6667.2, 6683.2, 6700, 6717.3, 6733.4, 6750.2, 6767.1, 6783.7, 6800.1, 6817.4, 6833.6, 6850.4, 6867.4, 6883.5, 6900.1, 6917.2, 6933.8, 6950.3, 6967.8, 6983.6, 7000.5, 7017.8, 7033.9, 7050.4, 7067.8, 7083.7, 7100.3, 7117.9, 7133.9, 7150.4, 7167.8, 7183.9, 7200.6, 7217.9, 7234.1, 7250.6, 7267.9, 7283.9, 7300.6, 7318, 7334.2, 7350.7, 7368, 7384.2, 7400.9, 7418.1, 7434.1, 7450.7, 7467.9, 7484.2, 7501, 7518.1, 7534.2, 7551.1, 7568.2, 7584.1, 7600.8, 7617.8, 7638.5, 7655.5, 7667.8, 7688.5, 7705.6, 7718.2, 7734.3, 7755.3, 7772.2, 7789, 7801.4, 7818.3, 7834.5, 7855.6, 7872.4, 7889.1, 7901.4, 7918, 7938.9, 7956, 7972.5, 7989.2, 8005.8, 8022.5, 8039.5, 8055.9, 8072.6, 8089.3, 8106.1, 8122.6, 8139.3, 8151.5, 8168.3, 8185.2, 8201.6, 8222.4, 8239.4, 8256.1, 8272.8, 8289.5, 8306.1, 8322.2, 8334.9, 8351.7, 8368.7, 8385.6, 8401.8, 8418.7, 8435.1, 8451.8, 8468.6, 8485.4, 8502, 8518.7, 8535.5, 8552.2, 8568.9, 8585.5, 8602.2, 8618.9, 8635.6, 8652.3, 8669, 8685.7, 8702.4, 8719, 8735.7, 8752.3, 8769, 8785.3, 8802.1, 8818.8, 8835.5, 8852.2, 8869, 8885.9, 8902.6, 8919.1, 8936, 8952.7, 8969.3]","[2.8, 1.2, 16.4, 16, 16.9, 16, 17, 16.9, 15.5, 16.7, 16.7, 25, 15.2, 16.2, 10.9, 16.6, 16.6, 16.7, 16.7, 16.7, 16.7, 16.6, 16.9, 16.6, 16.7, 16.6, 16.6, 16.6, 17, 16.4, 16.7, 16.6, 16.7, 16.8, 16.8, 16.6, 16.7, 16.6, 16.7, 16.9, 16.6, 16.5, 16.7, 16.8, 16.7, 16.6, 16.8, 16.6, 16.9, 16.4, 16.7, 16.7, 16.8, 16.7, 16.5, 16.8, 16.5, 16.9, 16.7, 16.5, 16.9, 16.6, 16.7, 16.8, 16.6, 16.5, 16.8, 16.7, 16.7, 16.5, 16.9, 16.7, 16.6, 16.7, 16.8, 16.6, 16.7, 16.7, 16.6, 16.8, 16.6, 16.6, 16.8, 16.6, 16.9, 16.4, 16.9, 16.6, 16.7, 16.8, 16.5, 16.7, 16.6, 16.7, 16.7, 16.6, 16.7, 16.8, 16.6, 16.6, 16.8, 16.7, 16.8, 16.5, 16.9, 16.4, 17.7, 16.4, 16.5, 17.2, 16.2, 16.6, 17.1, 16.6, 16.6, 17, 16.3, 16.3, 16.9, 16.6, 16.6, 16.7, 16.8, 16.5, 16.8, 16.8, 16.6, 16.9, 16.7, 16.4, 16.8, 16.9, 16.2, 17, 16.7, 16.6, 16.5, 16.9, 16.4, 16.8, 17.1, 16.4, 16.4, 17, 16.6, 16.4, 17.1, 16.5, 16.6, 16.9, 16.3, 16.8, 17, 16.7, 16.2, 16.7, 16.7, 16.6, 17.2, 16.3, 16.6, 17.3, 16, 16.8, 17.3, 16.1, 16.8, 16.9, 16.6, 16.4, 17.3, 16.2, 16.8, 17, 16.1, 16.6, 17.1, 16.6, 16.5, 17.5, 15.8, 16.9, 17.3, 16.1, 16.5, 17.4, 15.9, 16.6, 17.6, 16, 16.5, 17.4, 16.1, 16.7, 17.3, 16.2, 16.5, 17.3, 16, 16.7, 17.4, 16.2, 16.5, 17.3, 16.2, 16.7, 17.2, 16, 16.6, 17.2, 16.3, 16.8, 17.1, 16.1, 16.9, 17.1, 15.9, 16.7, 17, 20.7, 17, 12.3, 20.7, 17.1, 12.6, 16.1, 21, 16.9, 16.8, 12.4, 16.9, 16.2, 21.1, 16.8, 16.7, 12.3, 16.6, 20.9, 17.1, 16.5, 16.7, 16.6, 16.7, 17, 16.4, 16.7, 16.7, 16.8, 16.5, 16.7, 12.2, 16.8, 16.9, 16.4, 20.8, 17, 16.7, 16.7, 16.7, 16.6, 16.1, 12.7, 16.8, 17, 16.9, 16.2, 16.9, 16.4, 16.7, 16.8, 16.8, 16.6, 16.7, 16.8, 16.7, 16.7, 16.6, 16.7, 16.7, 16.7, 16.7, 16.7, 16.7, 16.7, 16.6, 16.7, 16.6, 16.7, 16.3, 16.8, 16.7, 16.7, 16.7, 16.8, 16.9, 16.7, 16.5, 16.9, 16.7, 16.6]",60.0,60.0,60.0,4993.7,[],,,,,,,,,,,,,,,,,,,,,,,,,HRV,HRV_0224,2022-11-30 19:13:08
,wl-html-keyboard-response,2,31269,0.0-2.0-0.0,0.0,3.0,,,,,,,,20779.099999904633,0.0,0,,,,,,,,,,,,,,,,,,,,,,HRV,HRV_0224,2022-11-30 19:13:08
,wl-rdm,3,37885,0.0-3.0-0.0,0.0,4.0,,,,,,,[],,,,0.0,0.0,87.9,0.0,u,0.0,True,1021.9999997615814,62.0,60.0,40.0,False,,3000.0,[],"[960, 540]",ColorTask_Demo,,,,,HRV,HRV_0224,2022-11-30 19:13:08
,wl-rdm,4,43557,0.0-3.0-1.0,0.0,5.0,,,,,,,[],,,,0.0,0.0,87.9,1.0,i,1.0,True,1618.5,97.0,60.0,40.0,False,,2000.0,[],"[960, 540]",ColorTask_Demo,,,,,HRV,HRV_0224,2022-11-30 19:13:08
,wl-html-keyboard-response,5,49613,0.0-3.0-2.0,0.0,6.0,,,,,,,,4042.5,0.0,1,,,,,,,,,,,,,,,,,,,,,,HRV,HRV_0224,2022-11-30 19:13:08
,wl-html-keyboard-response,6,58790,0.0-4.0-0.0,0.0,7.0,,,,,,,,7165.399999856949,0.0,0,,,,,,,,,,,,,,,,,,,,,,HRV,HRV_0224,2022-11-30 19:13:08
,wl-html-keyboard-response,7,75245,0.0-5.0-0.0,0.0,8.0,,,,,,,,14445.700000047684,0.0,0,,,,,,,,,,,,,,,,,,,,,,HRV,HRV_0224,2022-11-30 19:13:08
,wl-rdm,8,77341,0.0-6.0-0.0,0.0,9.0,,,,,,,[],,,,,,87.9,1.0,i,1.0,True,790.7000000476837,48.0,60.0,40.0,False,,244.61081089861688,[],"[960, 540]",ColorTask,1.0,1.0,,,HRV,HRV_0224,2022-11-30 19:13:08
,wl-rdm,9,79577,0.0-6.1-0.1,0.0,10.0,,,,,,,[],,,,,,53.2,0.0,i,1.0,False,927.5999999046326,56.0,60.0,40.0,False,,235.8504892994695,[],"[960, 540]",ColorTask,0.0,2.0,,,HRV,HRV_0224,2022-11-30 19:13:08
,wl-rdm,10,81962,0.0-6.2-0.2,0.0,11.0,,,,,,,[],,,,,,50.0,1.0,u,0.0,False,1086.4000000953674,65.0,60.0,40.0,False,,220.74822664757394,[],"[960, 540]",ColorTask,-1.0,3.0,,,HRV,HRV_0224,2022-11-30 19:13:08
,wl-rdm,11,84081,0.0-6.3-0.3,0.0,12.0,,,,,,,[],,,,,,62.5,1.0,i,1.0,True,803.5,49.0,60.0,40.0,False,,241.58905196338372,[],"[960, 540]",ColorTask,0.0,4.0,,,HRV,HRV_0224,2022-11-30 19:13:08
,wl-rdm,12,86066,0.0-6.4-0.4,0.0,13.0,,,,,,,[],,,,,,50.0,1.0,i,1.0,True,686.8999998569489,42.0,60.0,40.0,False,,200.92133961169228,[],"[960, 540]",ColorTask,1.0,5.0,,,HRV,HRV_0224,2022-11-30 19:13:08
,wl-rdm,13,88085,0.0-6.5-0.5,0.0,14.0,,,,,,,[],,,,,,87.9,0.0,u,0.0,True,731.8999998569489,44.0,60.0,40.0,False,,204.82333966632143,[],"[960, 540]",ColorTask,2.0,6.0,,,HRV,HRV_0224,2022-11-30 19:13:08
,wl-rdm,14,90288,0.0-6.6-0.6,0.0,15.0,,,,,,,[],,,,,,53.2,1.0,i,1.0,True,820.5999999046326,50.0,60.0,40.0,False,,301.40740470748034,[],"[960, 540]",ColorTask,3.0,7.0,,,HRV,HRV_0224,2022-11-30 19:13:08
,wl-rdm,15,92323,0.0-6.7-0.7,0.0,16.0,,,,,,,[],,,,,,62.5,1.0,i,1.0,True,668.2000000476837,40.0,60.0,40.0,False,,284.33857166699124,[],"[960, 540]",ColorTask,4.0,8.0,,,HRV,HRV_0224,2022-11-30 19:13:08
,wl-rdm,16,94308,0.0-6.8-0.8,0.0,17.0,,,,,,,[],,,,,,87.9,1.0,i,1.0,True,690.9000000953674,42.0,60.0,40.0,False,,229.47460081496567,[],"[960, 540]",ColorTask,5.0,9.0,,,HRV,HRV_0224,2022-11-30 19:13:08
,wl-rdm,17,96444,0.0-6.9-0.9,0.0,18.0,,,,,,,[],,,,,,56.4,1.0,i,1.0,True,758.1000001430511,46.0,60.0,40.0,False,,307.95712840839406,[],"[960, 540]",ColorTask,6.0,10.0,,,HRV,HRV_0224,2022-11-30 19:13:08
,wl-rdm,18,98512,0.0-6.10-0.10,0.0,19.0,,,,,,,[],,,,,,62.5,1.0,i,1.0,True,644.0,39.0,60.0,40.0,False,,356.8865922542485,[],"[960, 540]",ColorTask,7.0,11.0,,,HRV,HRV_0224,2022-11-30 19:13:08
,wl-rdm,19,100898,0.0-6.11-0.11,0.0,20.0,,,,,,,[],,,,,,62.5,0.0,u,0.0,True,959.7000002861023,58.0,60.0,40.0,False,,364.8929871233445,[],"[960, 540]",ColorTask,8.0,12.0,,,HRV,HRV_0224,2022-11-30 19:13:08
,wl-rdm,20,103067,0.0-6.12-0.12,0.0,21.0,,,,,,,[],,,,,,50.0,0.0,i,1.0,False,853.7999999523163,52.0,60.0,40.0,False,,247.77337562031468,[],"[960, 540]",ColorTask,7.0,13.0,,,HRV,HRV_0224,2022-11-30 19:13:08
,wl-rdm,21,105202,0.0-6.13-0.13,0.0,22.0,,,,,,,[],,,,,,73.6,1.0,i,1.0,True,737.2999999523163,45.0,60.0,40.0,False,,321.87980644429604,[],"[960, 540]",ColorTask,8.0,14.0,,,HRV,HRV_0224,2022-11-30 19:13:08
,wl-rdm,22,107522,0.0-6.14-0.14,0.0,23.0,,,,,,,[],,,,,,50.0,0.0,i,1.0,False,970.3000001907349,59.0,60.0,40.0,False,,273.44822062476567,[],"[960, 540]",ColorTask,7.0,15.0,,,HRV,HRV_0224,2022-11-30 19:13:08
,wl-rdm,23,110056,0.0-6.15-0.15,0.0,24.0,,,,,,,[],,,,,,53.2,0.0,u,0.0,True,1212.4000000953674,73.0,60.0,40.0,False,,245.16889208687644,[],"[960, 540]",ColorTask,8.0,16.0,,,HRV,HRV_0224,2022-11-30 19:13:08
,wl-rdm,24,112110,0.0-6.16-0.16,0.0,25.0,,,,,,,[],,,,,,73.6,0.0,u,0.0,True,757.7999999523163,46.0,60.0,40.0,False,,204.10932078850811,[],"[960, 540]",ColorTask,9.0,17.0,,,HRV,HRV_0224,2022-11-30 19:13:08
,wl-rdm,25,114077,0.0-6.17-0.17,0.0,26.0,,,,,,,[],,,,,,73.6,1.0,i,1.0,True,680.7999997138977,41.0,60.0,40.0,False,,223.2319672828578,[],"[960, 540]",ColorTask,10.0,18.0,,,HRV,HRV_0224,2022-11-30 19:13:08
,wl-rdm,26,116080,0.0-6.18-0.18,0.0,27.0,,,,,,,[],,,,,,73.6,0.0,u,0.0,True,663.3999998569489,40.0,60.0,40.0,False,,255.90635822381455,[],"[960, 540]",ColorTask,11.0,19.0,,,HRV,HRV_0224,2022-11-30 19:13:08
,wl-rdm,27,118114,0.0-6.19-0.19,0.0,28.0,,,,,,,[],,,,,,73.6,1.0,i,1.0,True,668.7000000476837,40.0,60.0,40.0,False,,289.9362117287685,[],"[960, 540]",ColorTask,12.0,20.0,,,HRV,HRV_0224,2022-11-30 19:13:08
,wl-rdm,28,120233,0.0-6.20-0.20,0.0,29.0,,,,,,,[],,,,,,53.2,1.0,i,1.0,True,794.8999998569489,48.0,60.0,40.0,False,,235.77577795629378,[],"[960, 540]",ColorTask,13.0,21.0,,,HRV,HRV_0224,2022-11-30 19:13:08
,wl-rdm,29,122086,0.0-6.21-0.21,0.0,30.0,,,,,,,[],,,,,,87.9,1.0,i,1.0,True,539.8999998569489,33.0,60.0,40.0,False,,253.33133128389238,[],"[960, 540]",ColorTask,14.0,22.0,,,HRV,HRV_0224,2022-11-30 19:13:08
,wl-rdm,30,124303,0.0-6.22-0.22,0.0,31.0,,,,,,,[],,,,,,56.4,1.0,i,1.0,True,878.1999998092651,53.0,60.0,40.0,False,,267.29460552062216,[],"[960, 540]",ColorTask,15.0,23.0,,,HRV,HRV_0224,2022-11-30 19:13:08
,wl-rdm,31,126205,0.0-6.23-0.23,0.0,32.0,,,,,,,[],,,,,,87.9,0.0,u,0.0,True,523.5999999046326,32.0,60.0,40.0,False,,289.94858939676584,[],"[960, 540]",ColorTask,16.0,24.0,,,HRV,HRV_0224,2022-11-30 19:13:08
,wl-rdm,32,128092,0.0-6.24-0.24,0.0,33.0,,,,,,,[],,,,,,53.2,1.0,i,1.0,True,558.4000000953674,34.0,60.0,40.0,False,,251.94726861367783,[],"[960, 540]",ColorTask,17.0,25.0,,,HRV,HRV_0224,2022-11-30 19:13:08
,wl-rdm,33,130194,0.0-6.25-0.25,0.0,34.0,,,,,,,[],,,,,,62.5,0.0,i,1.0,False,726.0999999046326,44.0,60.0,40.0,False,,307.74688267302565,[],"[960, 540]",ColorTask,16.0,26.0,,,HRV,HRV_0224,2022-11-30 19:13:08
,wl-rdm,34,132213,0.0-6.26-0.26,0.0,35.0,,,,,,,[],,,,,,53.2,0.0,i,1.0,False,690.5999999046326,42.0,60.0,40.0,False,,258.79506367366054,[],"[960, 540]",ColorTask,15.0,27.0,,,HRV,HRV_0224,2022-11-30 19:13:08
,wl-rdm,35,134515,0.0-6.27-0.27,0.0,36.0,,,,,,,[],,,,,,73.6,0.0,u,0.0,True,875.3999998569489,53.0,60.0,40.0,False,,365.8436505869692,[],"[960, 540]",ColorTask,16.0,28.0,,,HRV,HRV_0224,2022-11-30 19:13:08
,wl-rdm,36,136784,0.0-6.28-0.28,0.0,37.0,,,,,,,[],,,,,,56.4,0.0,u,0.0,True,845.7000000476837,51.0,60.0,40.0,False,,352.8351991714011,[],"[960, 540]",ColorTask,17.0,29.0,,,HRV,HRV_0224,2022-11-30 19:13:08
,wl-rdm,37,138836,0.0-6.29-0.29,0.0,38.0,,,,,,,[],,,,,,62.5,0.0,u,0.0,True,668.0,40.0,60.0,40.0,False,,311.5807314750914,[],"[960, 540]",ColorTask,18.0,30.0,,,HRV,HRV_0224,2022-11-30 19:13:08
,wl-rdm,38,140871,0.0-6.30-0.30,0.0,39.0,,,,,,,[],,,,,,62.5,0.0,u,0.0,True,712.1000001430511,43.0,60.0,40.0,False,,259.7853190413303,[],"[960, 540]",ColorTask,19.0,31.0,,,HRV,HRV_0224,2022-11-30 19:13:08
,wl-rdm,39,143141,0.0-6.31-0.31,0.0,40.0,,,,,,,[],,,,,,50.0,1.0,u,0.0,False,885.2999999523163,53.0,60.0,40.0,False,,303.59538855170047,[],"[960, 540]",ColorTask,18.0,32.0,,,HRV,HRV_0224,2022-11-30 19:13:08
,wl-rdm,40,145326,0.0-6.32-0.32,0.0,41.0,,,,,,,[],,,,,,53.2,0.0,u,0.0,True,874.0000002384186,53.0,60.0,40.0,False,,240.7087605235419,[],"[960, 540]",ColorTask,19.0,33.0,,,HRV,HRV_0224,2022-11-30 19:13:08
,wl-rdm,41,147494,0.0-6.33-0.33,0.0,42.0,,,,,,,[],,,,,,62.5,0.0,u,0.0,True,747.5,45.0,60.0,40.0,False,,351.0370239934856,[],"[960, 540]",ColorTask,20.0,34.0,,,HRV,HRV_0224,2022-11-30 19:13:08
,wl-rdm,42,149564,0.0-6.34-0.34,0.0,43.0,,,,,,,[],,,,,,56.4,0.0,u,0.0,True,775.2000000476837,47.0,60.0,40.0,False,,228.7631856024959,[],"[960, 540]",ColorTask,21.0,35.0,,,HRV,HRV_0224,2022-11-30 19:13:08
,wl-rdm,43,151515,0.0-6.35-0.35,0.0,44.0,,,,,,,[],,,,,,87.9,0.0,u,0.0,True,624.3000001907349,38.0,60.0,40.0,False,,255.3849200718763,[],"[960, 540]",ColorTask,22.0,36.0,,,HRV,HRV_0224,2022-11-30 19:13:08
,wl-rdm,44,153700,0.0-6.36-0.36,0.0,45.0,,,,,,,[],,,,,,53.2,1.0,i,1.0,True,850.5999999046326,51.0,60.0,40.0,False,,260.77053755337124,[],"[960, 540]",ColorTask,23.0,37.0,,,HRV,HRV_0224,2022-11-30 19:13:08
,wl-rdm,45,155769,0.0-6.37-0.37,0.0,46.0,,,,,,,[],,,,,,56.4,1.0,i,1.0,True,777.2999999523163,47.0,60.0,40.0,False,,230.69743139427135,[],"[960, 540]",ColorTask,24.0,38.0,,,HRV,HRV_0224,2022-11-30 19:13:08
,wl-rdm,46,157722,0.0-6.38-0.38,0.0,47.0,,,,,,,[],,,,,,87.9,1.0,i,1.0,True,594.1000001430511,36.0,60.0,40.0,False,,294.9813305200812,[],"[960, 540]",ColorTask,25.0,39.0,,,HRV,HRV_0224,2022-11-30 19:13:08
,wl-rdm,47,159824,0.0-6.39-0.39,0.0,48.0,,,,,,,[],,,,,,73.6,0.0,u,0.0,True,787.2999999523163,48.0,60.0,40.0,False,,241.04615357434406,[],"[960, 540]",ColorTask,26.0,40.0,,,HRV,HRV_0224,2022-11-30 19:13:08
,wl-rdm,48,161826,0.0-6.40-0.40,0.0,49.0,,,,,,,[],,,,,,56.4,1.0,u,0.0,False,536.3999998569489,33.0,60.0,40.0,False,,397.5471942350388,[],"[960, 540]",ColorTask,25.0,41.0,,,HRV,HRV_0224,2022-11-30 19:13:08
,wl-rdm,49,163744,0.0-6.41-0.41,0.0,50.0,,,,,,,[],,,,,,73.6,0.0,u,0.0,True,471.0000002384186,29.0,60.0,40.0,False,,367.5914417994521,[],"[960, 540]",ColorTask,26.0,42.0,,,HRV,HRV_0224,2022-11-30 19:13:08
,wl-rdm,50,165696,0.0-6.42-0.42,0.0,51.0,,,,,,,[],,,,,,62.5,1.0,i,1.0,True,628.2999999523163,38.0,60.0,40.0,False,,266.29389919301764,[],"[960, 540]",ColorTask,27.0,43.0,,,HRV,HRV_0224,2022-11-30 19:13:08
,wl-rdm,51,167631,0.0-6.43-0.43,0.0,52.0,,,,,,,[],,,,,,53.2,1.0,i,1.0,True,629.3999998569489,38.0,60.0,40.0,False,,221.53959276313654,[],"[960, 540]",ColorTask,28.0,44.0,,,HRV,HRV_0224,2022-11-30 19:13:08
,wl-rdm,52,169783,0.0-6.44-0.44,0.0,53.0,,,,,,,[],,,,,,53.2,0.0,u,0.0,True,795.1000001430511,48.0,60.0,40.0,False,,290.77605384667436,[],"[960, 540]",ColorTask,29.0,45.0,,,HRV,HRV_0224,2022-11-30 19:13:08
,wl-rdm,53,171785,0.0-6.45-0.45,0.0,54.0,,,,,,,[],,,,,,50.0,1.0,u,0.0,False,710.2999999523163,43.0,60.0,40.0,False,,222.63347494909596,[],"[960, 540]",ColorTask,28.0,46.0,,,HRV,HRV_0224,2022-11-30 19:13:08
,wl-rdm,54,173787,0.0-6.46-0.46,0.0,55.0,,,,,,,[],,,,,,87.9,1.0,i,1.0,True,568.4000000953674,34.0,60.0,40.0,False,,363.5208220759958,[],"[960, 540]",ColorTask,29.0,47.0,,,HRV,HRV_0224,2022-11-30 19:13:08
,wl-rdm,55,175956,0.0-6.47-0.47,0.0,56.0,,,,,,,[],,,,,,53.2,0.0,u,0.0,True,840.7999999523163,51.0,60.0,40.0,False,,267.0711202861256,[],"[960, 540]",ColorTask,30.0,48.0,,,HRV,HRV_0224,2022-11-30 19:13:08
,wl-rdm,56,178091,0.0-6.48-0.48,0.0,57.0,,,,,,,[],,,,,,62.5,1.0,i,1.0,True,751.6000001430511,45.0,60.0,40.0,False,,302.94921718080104,[],"[960, 540]",ColorTask,31.0,49.0,,,HRV,HRV_0224,2022-11-30 19:13:08
,wl-rdm,57,180159,0.0-6.49-0.49,0.0,58.0,,,,,,,[],,,,,,87.9,1.0,i,1.0,True,704.5,43.0,60.0,40.0,False,,277.1636957840661,[],"[960, 540]",ColorTask,32.0,50.0,,,HRV,HRV_0224,2022-11-30 19:13:08
,wl-rdm,58,182229,0.0-6.50-0.50,0.0,59.0,,,,,,,[],,,,,,73.6,1.0,i,1.0,True,690.9000000953674,42.0,60.0,40.0,False,,307.7139673619455,[],"[960, 540]",ColorTask,33.0,51.0,,,HRV,HRV_0224,2022-11-30 19:13:08
,wl-rdm,59,184314,0.0-6.51-0.51,0.0,60.0,,,,,,,[],,,,,,56.4,0.0,u,0.0,True,793.2999997138977,48.0,60.0,40.0,False,,230.38923552342493,[],"[960, 540]",ColorTask,34.0,52.0,,,HRV,HRV_0224,2022-11-30 19:13:08
,wl-rdm,60,186283,0.0-6.52-0.52,0.0,61.0,,,,,,,[],,,,,,87.9,0.0,u,0.0,True,665.6999998092651,40.0,60.0,40.0,False,,235.83261343861025,[],"[960, 540]",ColorTask,35.0,53.0,,,HRV,HRV_0224,2022-11-30 19:13:08
,wl-rdm,61,188419,0.0-6.53-0.53,0.0,62.0,,,,,,,[],,,,,,50.0,1.0,i,1.0,True,734.9000000953674,44.0,60.0,40.0,False,,327.2975717662028,[],"[960, 540]",ColorTask,36.0,54.0,,,HRV,HRV_0224,2022-11-30 19:13:08
,wl-rdm,62,190487,0.0-6.54-0.54,0.0,63.0,,,,,,,[],,,,,,62.5,1.0,i,1.0,True,638.4000000953674,39.0,60.0,40.0,False,,353.0267586039555,[],"[960, 540]",ColorTask,37.0,55.0,,,HRV,HRV_0224,2022-11-30 19:13:08
,wl-rdm,63,192539,0.0-6.55-0.55,0.0,64.0,,,,,,,[],,,,,,73.6,0.0,u,0.0,True,734.8000001907349,44.0,60.0,40.0,False,,242.1851998019515,[],"[960, 540]",ColorTask,38.0,56.0,,,HRV,HRV_0224,2022-11-30 19:13:08
,wl-rdm,64,194941,0.0-6.56-0.56,0.0,65.0,,,,,,,[],,,,,,56.4,0.0,u,0.0,True,964.1000001430511,58.0,60.0,40.0,False,,378.19107858755694,[],"[960, 540]",ColorTask,39.0,57.0,,,HRV,HRV_0224,2022-11-30 19:13:08
,wl-rdm,65,197294,0.0-6.57-0.57,0.0,66.0,,,,,,,[],,,,,,62.5,0.0,u,0.0,True,913.5000002384186,55.0,60.0,40.0,False,,370.5423909832655,[],"[960, 540]",ColorTask,40.0,58.0,,,HRV,HRV_0224,2022-11-30 19:13:08
,wl-rdm,66,199413,0.0-6.58-0.58,0.0,67.0,,,,,,,[],,,,,,53.2,0.0,i,1.0,False,767.9000000953674,46.0,60.0,40.0,False,,282.9994954511685,[],"[960, 540]",ColorTask,39.0,59.0,,,HRV,HRV_0224,2022-11-30 19:13:08
,wl-rdm,67,201465,0.0-6.59-0.59,0.0,68.0,,,,,,,[],,,,,,73.6,0.0,u,0.0,True,619.5999999046326,38.0,60.0,40.0,False,,366.89434972434134,[],"[960, 540]",ColorTask,40.0,60.0,,,HRV,HRV_0224,2022-11-30 19:13:08
,wl-rdm,68,203734,0.0-6.60-0.60,0.0,69.0,,,,,,,[],,,,,,56.4,1.0,u,0.0,False,947.2999999523163,57.0,60.0,40.0,False,,258.2424899230584,[],"[960, 540]",ColorTask,39.0,61.0,,,HRV,HRV_0224,2022-11-30 19:13:08
,wl-rdm,69,205836,0.0-6.61-0.61,0.0,70.0,,,,,,,[],,,,,,56.4,1.0,i,1.0,True,636.3999998569489,38.0,60.0,40.0,False,,391.5305556635168,[],"[960, 540]",ColorTask,40.0,62.0,,,HRV,HRV_0224,2022-11-30 19:13:08
,wl-rdm,70,208238,0.0-6.62-0.62,0.0,71.0,,,,,,,[],,,,,,73.6,1.0,i,1.0,True,963.1999998092651,58.0,60.0,40.0,False,,370.57428545788736,[],"[960, 540]",ColorTask,41.0,63.0,,,HRV,HRV_0224,2022-11-30 19:13:08
,wl-rdm,71,210841,0.0-6.63-0.63,0.0,72.0,,,,,,,[],,,,,,53.2,1.0,i,1.0,True,1278.6000001430511,77.0,60.0,40.0,False,,240.93477225780111,[],"[960, 540]",ColorTask,42.0,64.0,,,HRV,HRV_0224,2022-11-30 19:13:08
,wl-rdm,72,213360,0.0-6.64-0.64,0.0,73.0,,,,,,,[],,,,,,53.2,0.0,i,1.0,False,1077.4999997615814,65.0,60.0,40.0,False,,370.9619235360048,[],"[960, 540]",ColorTask,41.0,65.0,,,HRV,HRV_0224,2022-11-30 19:13:08
,wl-rdm,73,215846,0.0-6.65-0.65,0.0,74.0,,,,,,,[],,,,,,53.2,1.0,i,1.0,True,1064.0,64.0,60.0,40.0,False,,350.62916724986985,[],"[960, 540]",ColorTask,42.0,66.0,,,HRV,HRV_0224,2022-11-30 19:13:08
,wl-rdm,74,217815,0.0-6.66-0.66,0.0,75.0,,,,,,,[],,,,,,87.9,0.0,u,0.0,True,679.2000002861023,41.0,60.0,40.0,False,,217.2378548512089,[],"[960, 540]",ColorTask,43.0,67.0,,,HRV,HRV_0224,2022-11-30 19:13:08
,wl-rdm,75,220050,0.0-6.67-0.67,0.0,76.0,,,,,,,[],,,,,,62.5,0.0,u,0.0,True,909.5999999046326,55.0,60.0,40.0,False,,265.1620377862437,[],"[960, 540]",ColorTask,44.0,68.0,,,HRV,HRV_0224,2022-11-30 19:13:08
,wl-rdm,76,222052,0.0-6.68-0.68,0.0,77.0,,,,,,,[],,,,,,87.9,0.0,u,0.0,True,718.0999999046326,43.0,60.0,40.0,False,,207.2598346476149,[],"[960, 540]",ColorTask,45.0,69.0,,,HRV,HRV_0224,2022-11-30 19:13:08
,wl-rdm,77,224371,0.0-6.69-0.69,0.0,78.0,,,,,,,[],,,,,,50.0,1.0,u,0.0,False,1035.1000001430511,62.0,60.0,40.0,False,,206.80268869446562,[],"[960, 540]",ColorTask,44.0,70.0,,,HRV,HRV_0224,2022-11-30 19:13:08
,wl-rdm,78,226740,0.0-6.70-0.70,0.0,79.0,,,,,,,[],,,,,,62.5,1.0,i,1.0,True,907.5,55.0,60.0,40.0,False,,392.2129370088326,[],"[960, 540]",ColorTask,45.0,71.0,,,HRV,HRV_0224,2022-11-30 19:13:08
,wl-rdm,79,228858,0.0-6.71-0.71,0.0,80.0,,,,,,,[],,,,,,53.2,0.0,i,1.0,False,825.8999998569489,50.0,60.0,40.0,False,,200.63840393206095,[],"[960, 540]",ColorTask,44.0,72.0,,,HRV,HRV_0224,2022-11-30 19:13:08
,wl-rdm,80,231011,0.0-6.72-0.72,0.0,81.0,,,,,,,[],,,,,,50.0,0.0,u,0.0,True,841.5999999046326,51.0,60.0,40.0,False,,248.1032898721304,[],"[960, 540]",ColorTask,45.0,73.0,,,HRV,HRV_0224,2022-11-30 19:13:08
,wl-rdm,81,233011,0.0-6.73-0.73,0.0,82.0,,,,,,,[],,,,,,87.9,1.0,i,1.0,True,706.8999998569489,43.0,60.0,40.0,False,,212.0281382241094,[],"[960, 540]",ColorTask,46.0,74.0,,,HRV,HRV_0224,2022-11-30 19:13:08
,wl-rdm,82,235148,0.0-6.74-0.74,0.0,83.0,,,,,,,[],,,,,,62.5,1.0,i,1.0,True,734.3999998569489,44.0,60.0,40.0,False,,347.29936265981866,[],"[960, 540]",ColorTask,47.0,75.0,,,HRV,HRV_0224,2022-11-30 19:13:08
,wl-rdm,83,237217,0.0-6.75-0.75,0.0,84.0,,,,,,,[],,,,,,56.4,0.0,u,0.0,True,786.5999999046326,48.0,60.0,40.0,False,,202.67658107259842,[],"[960, 540]",ColorTask,48.0,76.0,,,HRV,HRV_0224,2022-11-30 19:13:08
,wl-rdm,84,239352,0.0-6.76-0.76,0.0,85.0,,,,,,,[],,,,,,56.4,1.0,u,0.0,False,777.4000000953674,47.0,60.0,40.0,False,,294.25964064857993,[],"[960, 540]",ColorTask,47.0,77.0,,,HRV,HRV_0224,2022-11-30 19:13:08
,wl-rdm,85,241371,0.0-6.77-0.77,0.0,86.0,,,,,,,[],,,,,,50.0,0.0,i,1.0,False,685.9000000953674,41.0,60.0,40.0,False,,255.72020956868107,[],"[960, 540]",ColorTask,46.0,78.0,,,HRV,HRV_0224,2022-11-30 19:13:08
,wl-rdm,86,243323,0.0-6.78-0.78,0.0,87.0,,,,,,,[],,,,,,56.4,1.0,i,1.0,True,641.0,39.0,60.0,40.0,False,,247.1917689991652,[],"[960, 540]",ColorTask,47.0,79.0,,,HRV,HRV_0224,2022-11-30 19:13:08
,wl-rdm,87,245308,0.0-6.79-0.79,0.0,88.0,,,,,,,[],,,,,,73.6,1.0,i,1.0,True,617.8999996185303,37.0,60.0,40.0,False,,286.10260274839396,[],"[960, 540]",ColorTask,48.0,80.0,,,HRV,HRV_0224,2022-11-30 19:13:08
,wl-rdm,88,247460,0.0-6.80-0.80,0.0,89.0,,,,,,,[],,,,,,50.0,0.0,i,1.0,False,806.8999998569489,49.0,60.0,40.0,False,,280.7049166519672,[],"[960, 540]",ColorTask,47.0,81.0,,,HRV,HRV_0224,2022-11-30 19:13:08
,wl-rdm,89,249496,0.0-6.81-0.81,0.0,90.0,,,,,,,[],,,,,,73.6,0.0,u,0.0,True,703.5,43.0,60.0,40.0,False,,256.34364522735336,[],"[960, 540]",ColorTask,48.0,82.0,,,HRV,HRV_0224,2022-11-30 19:13:08
,wl-rdm,90,251648,0.0-6.82-0.82,0.0,91.0,,,,,,,[],,,,,,73.6,1.0,i,1.0,True,827.6999998092651,50.0,60.0,40.0,False,,263.25662312844094,[],"[960, 540]",ColorTask,49.0,83.0,,,HRV,HRV_0224,2022-11-30 19:13:08
,wl-rdm,91,254000,0.0-6.83-0.83,0.0,92.0,,,,,,,[],,,,,,56.4,0.0,i,1.0,False,1077.5,65.0,60.0,40.0,False,,207.08549528362994,[],"[960, 540]",ColorTask,48.0,84.0,,,HRV,HRV_0224,2022-11-30 19:13:08
,wl-rdm,92,256419,0.0-6.84-0.84,0.0,93.0,,,,,,,[],,,,,,56.4,0.0,u,0.0,True,1118.5,67.0,60.0,40.0,False,,229.34956000783515,[],"[960, 540]",ColorTask,49.0,85.0,,,HRV,HRV_0224,2022-11-30 19:13:08
,wl-rdm,93,258638,0.0-6.85-0.85,0.0,94.0,,,,,,,[],,,,,,50.0,0.0,u,0.0,True,846.0999999046326,51.0,60.0,40.0,False,,308.40791710678684,[],"[960, 540]",ColorTask,50.0,86.0,,,HRV,HRV_0224,2022-11-30 19:13:08
,wl-rdm,94,260707,0.0-6.86-0.86,0.0,95.0,,,,,,,[],,,,,,87.9,0.0,u,0.0,True,657.0999999046326,40.0,60.0,40.0,False,,347.5738182697951,[],"[960, 540]",ColorTask,51.0,87.0,,,HRV,HRV_0224,2022-11-30 19:13:08
,wl-rdm,95,262792,0.0-6.87-0.87,0.0,96.0,,,,,,,[],,,,,,62.5,0.0,u,0.0,True,802.8000001907349,49.0,60.0,40.0,False,,209.4952743925108,[],"[960, 540]",ColorTask,52.0,88.0,,,HRV,HRV_0224,2022-11-30 19:13:08
,wl-rdm,96,264811,0.0-6.88-0.88,0.0,97.0,,,,,,,[],,,,,,50.0,0.0,i,1.0,False,707.7999999523163,43.0,60.0,40.0,False,,244.10979306659647,[],"[960, 540]",ColorTask,51.0,89.0,,,HRV,HRV_0224,2022-11-30 19:13:08
,wl-rdm,97,267280,0.0-6.89-0.89,0.0,98.0,,,,,,,[],,,,,,62.5,0.0,u,0.0,True,1153.9999997615814,70.0,60.0,40.0,False,,245.29366748897021,[],"[960, 540]",ColorTask,52.0,90.0,,,HRV,HRV_0224,2022-11-30 19:13:08
,wl-rdm,98,269482,0.0-6.90-0.90,0.0,99.0,,,,,,,[],,,,,,50.0,1.0,i,1.0,True,925.5999999046326,56.0,60.0,40.0,False,,206.24977433158094,[],"[960, 540]",ColorTask,53.0,91.0,,,HRV,HRV_0224,2022-11-30 19:13:08
,wl-rdm,99,271851,0.0-6.91-0.91,0.0,100.0,,,,,,,[],,,,,,53.2,1.0,i,1.0,True,975.0,59.0,60.0,40.0,False,,310.9353829353588,[],"[960, 540]",ColorTask,54.0,92.0,,,HRV,HRV_0224,2022-11-30 19:13:08
,wl-rdm,100,273787,0.0-6.92-0.92,0.0,101.0,,,,,,,[],,,,,,50.0,1.0,i,1.0,True,617.8999998569489,37.0,60.0,40.0,False,,241.0972524636592,[],"[960, 540]",ColorTask,55.0,93.0,,,HRV,HRV_0224,2022-11-30 19:13:08
,wl-rdm,101,275772,0.0-6.93-0.93,0.0,102.0,,,,,,,[],,,,,,87.9,0.0,u,0.0,True,667.6000001430511,40.0,60.0,40.0,False,,244.81592617901558,[],"[960, 540]",ColorTask,56.0,94.0,,,HRV,HRV_0224,2022-11-30 19:13:08
,wl-rdm,102,277974,0.0-6.94-0.94,0.0,103.0,,,,,,,[],,,,,,50.0,0.0,u,0.0,True,906.2999999523163,55.0,60.0,40.0,False,,225.95089848306287,[],"[960, 540]",ColorTask,57.0,95.0,,,HRV,HRV_0224,2022-11-30 19:13:08
,wl-rdm,103,280477,0.0-6.95-0.95,0.0,104.0,,,,,,,[],,,,,,56.4,0.0,u,0.0,True,1047.9000000953674,63.0,60.0,40.0,False,,393.200472788511,[],"[960, 540]",ColorTask,58.0,96.0,,,HRV,HRV_0224,2022-11-30 19:13:08
,wl-rdm,104,282729,0.0-6.96-0.96,0.0,105.0,,,,,,,[],,,,,,56.4,0.0,u,0.0,True,786.5999999046326,48.0,60.0,40.0,False,,389.7668091724064,[],"[960, 540]",ColorTask,59.0,97.0,,,HRV,HRV_0224,2022-11-30 19:13:08
,wl-rdm,105,284848,0.0-6.97-0.97,0.0,106.0,,,,,,,[],,,,,,73.6,0.0,u,0.0,True,670.6000001430511,41.0,60.0,40.0,False,,374.27639726927225,[],"[960, 540]",ColorTask,60.0,98.0,,,HRV,HRV_0224,2022-11-30 19:13:08
,wl-rdm,106,286783,0.0-6.98-0.98,0.0,107.0,,,,,,,[],,,,,,87.9,0.0,u,0.0,True,621.0,38.0,60.0,40.0,False,,241.72520389258415,[],"[960, 540]",ColorTask,61.0,99.0,,,HRV,HRV_0224,2022-11-30 19:13:08
,wl-rdm,107,289041,0.0-6.99-0.99,0.0,108.0,,,,,,,[],,,,,,50.0,1.0,u,0.0,False,908.5,55.0,60.0,40.0,False,,269.5748065828723,[],"[960, 540]",ColorTask,60.0,100.0,,,HRV,HRV_0224,2022-11-30 19:13:08
,wl-rdm,108,291037,0.0-6.100-0.100,0.0,109.0,,,,,,,[],,,,,,73.6,1.0,i,1.0,True,713.5,43.0,60.0,40.0,False,,224.746531179085,[],"[960, 540]",ColorTask,61.0,101.0,,,HRV,HRV_0224,2022-11-30 19:13:08
,wl-rdm,109,293540,0.0-6.101-0.101,0.0,110.0,,,,,,,[],,,,,,56.4,1.0,i,1.0,True,1132.1999998092651,68.0,60.0,40.0,False,,315.28041743538387,[],"[960, 540]",ColorTask,62.0,102.0,,,HRV,HRV_0224,2022-11-30 19:13:08
,wl-rdm,110,295342,0.0-6.102-0.102,0.0,111.0,,,,,,,[],,,,,,87.9,1.0,i,1.0,True,513.9000000953674,31.0,60.0,40.0,False,,208.59401512266913,[],"[960, 540]",ColorTask,63.0,103.0,,,HRV,HRV_0224,2022-11-30 19:13:08
,wl-rdm,111,297528,0.0-6.103-0.103,0.0,112.0,,,,,,,[],,,,,,62.5,1.0,i,1.0,True,911.9999997615814,55.0,60.0,40.0,False,,210.84957974359367,[],"[960, 540]",ColorTask,64.0,104.0,,,HRV,HRV_0224,2022-11-30 19:13:08
,wl-rdm,112,299446,0.0-6.104-0.104,0.0,113.0,,,,,,,[],,,,,,87.9,1.0,i,1.0,True,573.4000000953674,35.0,60.0,40.0,False,,276.6458775373332,[],"[960, 540]",ColorTask,65.0,105.0,,,HRV,HRV_0224,2022-11-30 19:13:08
,wl-rdm,113,301298,0.0-6.105-0.105,0.0,114.0,,,,,,,[],,,,,,53.2,1.0,i,1.0,True,561.2999999523163,34.0,60.0,40.0,False,,222.8850619274977,[],"[960, 540]",ColorTask,66.0,106.0,,,HRV,HRV_0224,2022-11-30 19:13:08
,wl-rdm,114,303200,0.0-6.106-0.106,0.0,115.0,,,,,,,[],,,,,,50.0,0.0,i,1.0,False,628.0999999046326,38.0,60.0,40.0,False,,204.44305379505565,[],"[960, 540]",ColorTask,65.0,107.0,,,HRV,HRV_0224,2022-11-30 19:13:08
,wl-rdm,115,305018,0.0-6.107-0.107,0.0,116.0,,,,,,,[],,,,,,73.6,1.0,i,1.0,True,521.400000333786,32.0,60.0,40.0,False,,215.9680083648065,[],"[960, 540]",ColorTask,66.0,108.0,,,HRV,HRV_0224,2022-11-30 19:13:08
,wl-html-keyboard-response,116,313246,0.0-7.0-0.0,1.0,117.0,,,,,,,,6211.600000143051,1.0,0,,,,,,,,,,,,,,,,,,,,,,HRV,HRV_0224,2022-11-30 19:13:08
,wl-rdm,117,315596,0.0-8.0-0.0,1.0,118.0,,,,,,,[],,,,,,56.4,0.0,i,1.0,False,952.8999998569489,57.0,60.0,40.0,False,,317.21771269244164,[],"[960, 540]",ColorTask,65.0,1.0,,,HRV,HRV_0224,2022-11-30 19:13:08
,wl-rdm,118,317930,0.0-8.1-0.1,1.0,119.0,,,,,,,[],,,,,,50.0,0.0,i,1.0,False,991.6000001430511,60.0,60.0,40.0,False,,271.21563649959137,[],"[960, 540]",ColorTask,64.0,2.0,,,HRV,HRV_0224,2022-11-30 19:13:08
,wl-rdm,119,319866,0.0-8.2-0.2,1.0,120.0,,,,,,,[],,,,,,73.6,0.0,u,0.0,True,653.2000000476837,40.0,60.0,40.0,False,,215.04954340599522,[],"[960, 540]",ColorTask,65.0,3.0,,,HRV,HRV_0224,2022-11-30 19:13:08
,wl-rdm,120,321818,0.0-8.3-0.3,1.0,121.0,,,,,,,[],,,,,,50.0,0.0,u,0.0,True,651.7999999523163,39.0,60.0,40.0,False,,219.54861929132198,[],"[960, 540]",ColorTask,66.0,4.0,,,HRV,HRV_0224,2022-11-30 19:13:08
,wl-rdm,121,323854,0.0-8.4-0.4,1.0,122.0,,,,,,,[],,,,,,50.0,1.0,i,1.0,True,755.9000000953674,46.0,60.0,40.0,False,,207.90365582772722,[],"[960, 540]",ColorTask,67.0,5.0,,,HRV,HRV_0224,2022-11-30 19:13:08
,wl-rdm,122,326123,0.0-8.5-0.5,1.0,123.0,,,,,,,[],,,,,,62.5,1.0,i,1.0,True,918.2999999523163,55.0,60.0,40.0,False,,271.5683416605267,[],"[960, 540]",ColorTask,68.0,6.0,,,HRV,HRV_0224,2022-11-30 19:13:08
,wl-rdm,123,328090,0.0-8.6-0.6,1.0,124.0,,,,,,,[],,,,,,87.9,1.0,i,1.0,True,641.7000000476837,39.0,60.0,40.0,False,,258.8318064563548,[],"[960, 540]",ColorTask,69.0,7.0,,,HRV,HRV_0224,2022-11-30 19:13:08
,wl-rdm,124,330260,0.0-8.7-0.7,1.0,125.0,,,,,,,[],,,,,,73.6,0.0,u,0.0,True,867.9000000953674,52.0,60.0,40.0,False,,229.71895539148895,[],"[960, 540]",ColorTask,70.0,8.0,,,HRV,HRV_0224,2022-11-30 19:13:08
,wl-rdm,125,332312,0.0-8.8-0.8,1.0,126.0,,,,,,,[],,,,,,53.2,0.0,u,0.0,True,720.5999999046326,44.0,60.0,40.0,False,,253.4321245997284,[],"[960, 540]",ColorTask,71.0,9.0,,,HRV,HRV_0224,2022-11-30 19:13:08
,wl-rdm,126,334381,0.0-8.9-0.9,1.0,127.0,,,,,,,[],,,,,,56.4,1.0,i,1.0,True,739.6000001430511,45.0,60.0,40.0,False,,262.2828712589435,[],"[960, 540]",ColorTask,72.0,10.0,,,HRV,HRV_0224,2022-11-30 19:13:08
,wl-rdm,127,336300,0.0-8.10-0.10,1.0,128.0,,,,,,,[],,,,,,73.6,1.0,i,1.0,True,634.3999998569489,38.0,60.0,40.0,False,,213.7962866527089,[],"[960, 540]",ColorTask,73.0,11.0,,,HRV,HRV_0224,2022-11-30 19:13:08
,wl-rdm,128,338318,0.0-8.11-0.11,1.0,129.0,,,,,,,[],,,,,,56.4,0.0,u,0.0,True,722.0,44.0,60.0,40.0,False,,220.01108769283948,[],"[960, 540]",ColorTask,74.0,12.0,,,HRV,HRV_0224,2022-11-30 19:13:08
,wl-rdm,129,340454,0.0-8.12-0.12,1.0,130.0,,,,,,,[],,,,,,50.0,0.0,u,0.0,True,747.1000001430511,45.0,60.0,40.0,False,,332.5107269222909,[],"[960, 540]",ColorTask,75.0,13.0,,,HRV,HRV_0224,2022-11-30 19:13:08
,wl-rdm,130,342389,0.0-8.13-0.13,1.0,131.0,,,,,,,[],,,,,,73.6,1.0,i,1.0,True,640.6000001430511,39.0,60.0,40.0,False,,217.34199567505692,[],"[960, 540]",ColorTask,76.0,14.0,,,HRV,HRV_0224,2022-11-30 19:13:08
,wl-rdm,131,344591,0.0-8.14-0.14,1.0,132.0,,,,,,,[],,,,,,62.5,1.0,i,1.0,True,845.5,51.0,60.0,40.0,False,,283.7520236356618,[],"[960, 540]",ColorTask,77.0,15.0,,,HRV,HRV_0224,2022-11-30 19:13:08
,wl-rdm,132,346709,0.0-8.15-0.15,1.0,133.0,,,,,,,[],,,,,,62.5,0.0,u,0.0,True,788.9000000953674,48.0,60.0,40.0,False,,255.4704055821752,[],"[960, 540]",ColorTask,78.0,16.0,,,HRV,HRV_0224,2022-11-30 19:13:08
,wl-rdm,133,348728,0.0-8.16-0.16,1.0,134.0,,,,,,,[],,,,,,62.5,0.0,u,0.0,True,586.7999999523163,36.0,60.0,40.0,False,,358.55130793055434,[],"[960, 540]",ColorTask,79.0,17.0,,,HRV,HRV_0224,2022-11-30 19:13:08
,wl-rdm,134,350780,0.0-8.17-0.17,1.0,135.0,,,,,,,[],,,,,,73.6,0.0,u,0.0,True,701.0000002384186,42.0,60.0,40.0,False,,273.62923952700135,[],"[960, 540]",ColorTask,80.0,18.0,,,HRV,HRV_0224,2022-11-30 19:13:08
,wl-rdm,135,352966,0.0-8.18-0.18,1.0,136.0,,,,,,,[],,,,,,53.2,1.0,i,1.0,True,723.7999999523163,44.0,60.0,40.0,False,,384.0881925944716,[],"[960, 540]",ColorTask,81.0,19.0,,,HRV,HRV_0224,2022-11-30 19:13:08
,wl-rdm,136,355067,0.0-8.19-0.19,1.0,137.0,,,,,,,[],,,,,,53.2,1.0,i,1.0,True,823.8999998569489,50.0,60.0,40.0,False,,212.07981960307092,[],"[960, 540]",ColorTask,82.0,20.0,,,HRV,HRV_0224,2022-11-30 19:13:08
,wl-rdm,137,356886,0.0-8.20-0.20,1.0,138.0,,,,,,,[],,,,,,87.9,0.0,u,0.0,True,504.40000009536743,31.0,60.0,40.0,False,,233.7500075305564,[],"[960, 540]",ColorTask,83.0,21.0,,,HRV,HRV_0224,2022-11-30 19:13:08
,wl-rdm,138,358805,0.0-8.21-0.21,1.0,139.0,,,,,,,[],,,,,,87.9,0.0,u,0.0,True,547.0000002384186,33.0,60.0,40.0,False,,309.2649456192664,[],"[960, 540]",ColorTask,84.0,22.0,,,HRV,HRV_0224,2022-11-30 19:13:08
,wl-rdm,139,360540,0.0-8.22-0.22,1.0,140.0,,,,,,,[],,,,,,62.5,0.0,u,0.0,True,456.89999985694885,28.0,60.0,40.0,False,,214.52414170161498,[],"[960, 540]",ColorTask,85.0,23.0,,,HRV,HRV_0224,2022-11-30 19:13:08
,wl-rdm,140,362809,0.0-8.23-0.23,1.0,141.0,,,,,,,[],,,,,,62.5,0.0,u,0.0,True,870.1000001430511,53.0,60.0,40.0,False,,321.6999934749166,[],"[960, 540]",ColorTask,86.0,24.0,,,HRV,HRV_0224,2022-11-30 19:13:08
,wl-rdm,141,364744,0.0-8.24-0.24,1.0,142.0,,,,,,,[],,,,,,73.6,0.0,u,0.0,True,468.19999980926514,30.0,60.0,40.0,False,,372.19611470929044,[],"[960, 540]",ColorTask,87.0,25.0,,,HRV,HRV_0224,2022-11-30 19:13:08
,wl-rdm,142,366746,0.0-8.25-0.25,1.0,143.0,,,,,,,[],,,,,,50.0,1.0,u,0.0,False,641.7000000476837,39.0,60.0,40.0,False,,299.8684836422734,[],"[960, 540]",ColorTask,86.0,26.0,,,HRV,HRV_0224,2022-11-30 19:13:08
,wl-rdm,143,369098,0.0-8.26-0.26,1.0,144.0,,,,,,,[],,,,,,56.4,0.0,u,0.0,True,934.8999998569489,56.0,60.0,40.0,False,,335.42043097374244,[],"[960, 540]",ColorTask,87.0,27.0,,,HRV,HRV_0224,2022-11-30 19:13:08
,wl-rdm,144,371184,0.0-8.27-0.27,1.0,145.0,,,,,,,[],,,,,,53.2,1.0,u,0.0,False,670.2000000476837,41.0,60.0,40.0,False,,341.45795149611206,[],"[960, 540]",ColorTask,86.0,28.0,,,HRV,HRV_0224,2022-11-30 19:13:08
,wl-rdm,145,373870,0.0-8.28-0.28,1.0,146.0,,,,,,,[],,,,,,56.4,0.0,u,0.0,True,1322.0999999046326,80.0,60.0,40.0,False,,291.0189434467032,[],"[960, 540]",ColorTask,87.0,29.0,,,HRV,HRV_0224,2022-11-30 19:13:08
,wl-rdm,146,375905,0.0-8.29-0.29,1.0,147.0,,,,,,,[],,,,,,73.6,1.0,i,1.0,True,710.0999999046326,43.0,60.0,40.0,False,,259.0232433149932,[],"[960, 540]",ColorTask,88.0,30.0,,,HRV,HRV_0224,2022-11-30 19:13:08
,wl-rdm,147,378358,0.0-8.30-0.30,1.0,148.0,,,,,,,[],,,,,,62.5,1.0,i,1.0,True,1005.4999997615814,61.0,60.0,40.0,False,,374.84520192932865,[],"[960, 540]",ColorTask,89.0,31.0,,,HRV,HRV_0224,2022-11-30 19:13:08
,wl-rdm,148,380510,0.0-8.31-0.31,1.0,149.0,,,,,,,[],,,,,,50.0,0.0,u,0.0,True,812.6999998092651,49.0,60.0,40.0,False,,270.1186705039112,[],"[960, 540]",ColorTask,90.0,32.0,,,HRV,HRV_0224,2022-11-30 19:13:08
,wl-rdm,149,382545,0.0-8.32-0.32,1.0,150.0,,,,,,,[],,,,,,87.9,0.0,u,0.0,True,576.0999999046326,35.0,60.0,40.0,False,,394.6617786221598,[],"[960, 540]",ColorTask,91.0,33.0,,,HRV,HRV_0224,2022-11-30 19:13:08
,wl-rdm,150,384547,0.0-8.33-0.33,1.0,151.0,,,,,,,[],,,,,,50.0,0.0,u,0.0,True,535.0,32.0,60.0,40.0,False,,394.76409460267985,[],"[960, 540]",ColorTask,92.0,34.0,,,HRV,HRV_0224,2022-11-30 19:13:08
,wl-rdm,151,386917,0.0-8.34-0.34,1.0,152.0,,,,,,,[],,,,,,56.4,0.0,u,0.0,True,1001.2000002861023,60.0,60.0,40.0,False,,296.9346162456799,[],"[960, 540]",ColorTask,93.0,35.0,,,HRV,HRV_0224,2022-11-30 19:13:08
,wl-rdm,152,388918,0.0-8.35-0.35,1.0,153.0,,,,,,,[],,,,,,53.2,0.0,i,1.0,False,729.2999999523163,44.0,60.0,40.0,False,,205.72163577088853,[],"[960, 540]",ColorTask,92.0,36.0,,,HRV,HRV_0224,2022-11-30 19:13:08
,wl-rdm,153,390820,0.0-8.36-0.36,1.0,154.0,,,,,,,[],,,,,,62.5,1.0,i,1.0,True,589.7000002861023,36.0,60.0,40.0,False,,238.5225283824314,[],"[960, 540]",ColorTask,93.0,37.0,,,HRV,HRV_0224,2022-11-30 19:13:08
,wl-rdm,154,392872,0.0-8.37-0.37,1.0,155.0,,,,,,,[],,,,,,56.4,1.0,i,1.0,True,720.0999999046326,44.0,60.0,40.0,False,,257.0121871307171,[],"[960, 540]",ColorTask,94.0,38.0,,,HRV,HRV_0224,2022-11-30 19:13:08
,wl-rdm,155,394857,0.0-8.38-0.38,1.0,156.0,,,,,,,[],,,,,,87.9,0.0,u,0.0,True,676.0000002384186,41.0,60.0,40.0,False,,243.54297442027706,[],"[960, 540]",ColorTask,95.0,39.0,,,HRV,HRV_0224,2022-11-30 19:13:08
,wl-rdm,156,396793,0.0-8.39-0.39,1.0,157.0,,,,,,,[],,,,,,53.2,0.0,u,0.0,True,619.5000002384186,38.0,60.0,40.0,False,,244.16314138000996,[],"[960, 540]",ColorTask,96.0,40.0,,,HRV,HRV_0224,2022-11-30 19:13:08
,wl-rdm,157,398594,0.0-8.40-0.40,1.0,158.0,,,,,,,[],,,,,,87.9,0.0,u,0.0,True,508.69999980926514,31.0,60.0,40.0,False,,227.43344884398553,[],"[960, 540]",ColorTask,97.0,41.0,,,HRV,HRV_0224,2022-11-30 19:13:08
,wl-rdm,158,400897,0.0-8.41-0.41,1.0,159.0,,,,,,,[],,,,,,56.4,0.0,u,0.0,True,1026.8999998569489,62.0,60.0,40.0,False,,216.540947166952,[],"[960, 540]",ColorTask,98.0,42.0,,,HRV,HRV_0224,2022-11-30 19:13:08
,wl-rdm,159,403099,0.0-8.42-0.42,1.0,160.0,,,,,,,[],,,,,,56.4,0.0,u,0.0,True,835.0,50.0,60.0,40.0,False,,285.2596978022753,[],"[960, 540]",ColorTask,99.0,43.0,,,HRV,HRV_0224,2022-11-30 19:13:08
,wl-rdm,160,404951,0.0-8.43-0.43,1.0,161.0,,,,,,,[],,,,,,73.6,0.0,u,0.0,True,554.3999998569489,34.0,60.0,40.0,False,,225.6237227519727,[],"[960, 540]",ColorTask,100.0,44.0,,,HRV,HRV_0224,2022-11-30 19:13:08
,wl-rdm,161,406936,0.0-8.44-0.44,1.0,162.0,,,,,,,[],,,,,,56.4,1.0,u,0.0,False,693.7000000476837,42.0,60.0,40.0,False,,224.29130637049448,[],"[960, 540]",ColorTask,99.0,45.0,,,HRV,HRV_0224,2022-11-30 19:13:08
,wl-rdm,162,408904,0.0-8.45-0.45,1.0,163.0,,,,,,,[],,,,,,53.2,0.0,i,1.0,False,676.0000002384186,41.0,60.0,40.0,False,,216.91709575384974,[],"[960, 540]",ColorTask,98.0,46.0,,,HRV,HRV_0224,2022-11-30 19:13:08
,wl-rdm,163,410890,0.0-8.46-0.46,1.0,164.0,,,,,,,[],,,,,,73.6,0.0,i,1.0,False,607.2999999523163,37.0,60.0,40.0,False,,305.76103896295984,[],"[960, 540]",ColorTask,97.0,47.0,,,HRV,HRV_0224,2022-11-30 19:13:08
,wl-rdm,164,413109,0.0-8.47-0.47,1.0,165.0,,,,,,,[],,,,,,53.2,1.0,i,1.0,True,897.0999999046326,54.0,60.0,40.0,False,,257.9420011798604,[],"[960, 540]",ColorTask,98.0,48.0,,,HRV,HRV_0224,2022-11-30 19:13:08
,wl-rdm,165,415228,0.0-8.48-0.48,1.0,166.0,,,,,,,[],,,,,,53.2,0.0,i,1.0,False,740.3000001907349,45.0,60.0,40.0,False,,312.0699155057922,[],"[960, 540]",ColorTask,97.0,49.0,,,HRV,HRV_0224,2022-11-30 19:13:08
,wl-rdm,166,417197,0.0-8.49-0.49,1.0,167.0,,,,,,,[],,,,,,87.9,1.0,i,1.0,True,639.6000001430511,39.0,60.0,40.0,False,,257.67898312980776,[],"[960, 540]",ColorTask,98.0,50.0,,,HRV,HRV_0224,2022-11-30 19:13:08
,wl-rdm,167,419113,0.0-8.50-0.50,1.0,168.0,,,,,,,[],,,,,,73.6,1.0,i,1.0,True,649.8999998569489,39.0,60.0,40.0,False,,209.24644309875848,[],"[960, 540]",ColorTask,99.0,51.0,,,HRV,HRV_0224,2022-11-30 19:13:08
,wl-rdm,168,421967,0.0-8.51-0.51,1.0,169.0,,,,,,,[],,,,,,53.2,1.0,i,1.0,True,1521.5,92.0,60.0,40.0,False,,254.22857448510334,[],"[960, 540]",ColorTask,100.0,52.0,,,HRV,HRV_0224,2022-11-30 19:13:08
,wl-rdm,169,424402,0.0-8.52-0.52,1.0,170.0,,,,,,,[],,,,,,50.0,1.0,u,0.0,False,1069.5,64.0,60.0,40.0,False,,286.72138932356063,[],"[960, 540]",ColorTask,99.0,53.0,,,HRV,HRV_0224,2022-11-30 19:13:08
,wl-rdm,170,426456,0.0-8.53-0.53,1.0,171.0,,,,,,,[],,,,,,53.2,1.0,i,1.0,True,703.6000001430511,43.0,60.0,40.0,False,,275.9466703635819,[],"[960, 540]",ColorTask,100.0,54.0,,,HRV,HRV_0224,2022-11-30 19:13:08
,wl-rdm,171,428391,0.0-8.54-0.54,1.0,172.0,,,,,,,[],,,,,,87.9,1.0,i,1.0,True,520.9000000953674,32.0,60.0,40.0,False,,332.38972087647767,[],"[960, 540]",ColorTask,101.0,55.0,,,HRV,HRV_0224,2022-11-30 19:13:08
,wl-rdm,172,430343,0.0-8.55-0.55,1.0,173.0,,,,,,,[],,,,,,73.6,0.0,u,0.0,True,595.5999999046326,36.0,60.0,40.0,False,,288.91667694467213,[],"[960, 540]",ColorTask,102.0,56.0,,,HRV,HRV_0224,2022-11-30 19:13:08
,wl-rdm,173,432678,0.0-8.56-0.56,1.0,174.0,,,,,,,[],,,,,,50.0,1.0,u,0.0,False,978.9000000953674,59.0,60.0,40.0,False,,293.49442779932133,[],"[960, 540]",ColorTask,101.0,57.0,,,HRV,HRV_0224,2022-11-30 19:13:08
,wl-rdm,174,435281,0.0-8.57-0.57,1.0,175.0,,,,,,,[],,,,,,53.2,0.0,i,1.0,False,1203.7000000476837,73.0,60.0,40.0,False,,325.31112995683156,[],"[960, 540]",ColorTask,100.0,58.0,,,HRV,HRV_0224,2022-11-30 19:13:08
,wl-rdm,175,437600,0.0-8.58-0.58,1.0,176.0,,,,,,,[],,,,,,56.4,0.0,u,0.0,True,1027.5,62.0,60.0,40.0,False,,221.5791548747889,[],"[960, 540]",ColorTask,101.0,59.0,,,HRV,HRV_0224,2022-11-30 19:13:08
,wl-rdm,176,440118,0.0-8.59-0.59,1.0,177.0,,,,,,,[],,,,,,50.0,1.0,u,0.0,False,1163.6000001430511,70.0,60.0,40.0,False,,271.6185532146218,[],"[960, 540]",ColorTask,100.0,60.0,,,HRV,HRV_0224,2022-11-30 19:13:08
,wl-rdm,177,442704,0.0-8.60-0.60,1.0,178.0,,,,,,,[],,,,,,53.2,1.0,u,0.0,False,1292.7999997138977,78.0,60.0,40.0,False,,228.67217498362174,[],"[960, 540]",ColorTask,99.0,61.0,,,HRV,HRV_0224,2022-11-30 19:13:08
,wl-rdm,178,445057,0.0-8.61-0.61,1.0,179.0,,,,,,,[],,,,,,56.4,1.0,i,1.0,True,1010.5000002384186,61.0,60.0,40.0,False,,283.1309697895506,[],"[960, 540]",ColorTask,100.0,62.0,,,HRV,HRV_0224,2022-11-30 19:13:08
,wl-rdm,179,447593,0.0-8.62-0.62,1.0,180.0,,,,,,,[],,,,,,50.0,0.0,i,1.0,False,1093.0999999046326,66.0,60.0,40.0,False,,373.94617715076555,[],"[960, 540]",ColorTask,99.0,63.0,,,HRV,HRV_0224,2022-11-30 19:13:08
,wl-rdm,180,450179,0.0-8.63-0.63,1.0,181.0,,,,,,,[],,,,,,62.5,0.0,i,1.0,False,1201.5999999046326,72.0,60.0,40.0,False,,307.3942503230086,[],"[960, 540]",ColorTask,98.0,64.0,,,HRV,HRV_0224,2022-11-30 19:13:08
,wl-rdm,181,452247,0.0-8.64-0.64,1.0,182.0,,,,,,,[],,,,,,87.9,1.0,i,1.0,True,654.7000002861023,40.0,60.0,40.0,False,,334.8285689058075,[],"[960, 540]",ColorTask,99.0,65.0,,,HRV,HRV_0224,2022-11-30 19:13:08
,wl-rdm,182,454333,0.0-8.65-0.65,1.0,183.0,,,,,,,[],,,,,,56.4,1.0,i,1.0,True,639.3000001907349,39.0,60.0,40.0,False,,373.87858830958066,[],"[960, 540]",ColorTask,100.0,66.0,,,HRV,HRV_0224,2022-11-30 19:13:08
,wl-rdm,183,456836,0.0-8.66-0.66,1.0,184.0,,,,,,,[],,,,,,62.5,1.0,i,1.0,True,1115.0999999046326,67.0,60.0,40.0,False,,326.82607501193615,[],"[960, 540]",ColorTask,101.0,67.0,,,HRV,HRV_0224,2022-11-30 19:13:08
,wl-rdm,184,459005,0.0-8.67-0.67,1.0,185.0,,,,,,,[],,,,,,62.5,0.0,u,0.0,True,864.9000000953674,52.0,60.0,40.0,False,,228.1179003308682,[],"[960, 540]",ColorTask,102.0,68.0,,,HRV,HRV_0224,2022-11-30 19:13:08
,wl-rdm,185,461124,0.0-8.68-0.68,1.0,186.0,,,,,,,[],,,,,,73.6,1.0,i,1.0,True,834.8999998569489,50.0,60.0,40.0,False,,214.955556826252,[],"[960, 540]",ColorTask,103.0,69.0,,,HRV,HRV_0224,2022-11-30 19:13:08
,wl-rdm,186,463192,0.0-8.69-0.69,1.0,187.0,,,,,,,[],,,,,,87.9,0.0,u,0.0,True,669.9000000953674,41.0,60.0,40.0,False,,326.81246044671695,[],"[960, 540]",ColorTask,104.0,70.0,,,HRV,HRV_0224,2022-11-30 19:13:08
,wl-rdm,187,465444,0.0-8.70-0.70,1.0,188.0,,,,,,,[],,,,,,73.6,1.0,i,1.0,True,898.0999999046326,54.0,60.0,40.0,False,,297.8463847071334,[],"[960, 540]",ColorTask,105.0,71.0,,,HRV,HRV_0224,2022-11-30 19:13:08
,wl-rdm,188,467630,0.0-8.71-0.71,1.0,189.0,,,,,,,[],,,,,,73.6,1.0,i,1.0,True,889.2999999523163,54.0,60.0,40.0,False,,217.54034445378883,[],"[960, 540]",ColorTask,106.0,72.0,,,HRV,HRV_0224,2022-11-30 19:13:08
,wl-rdm,189,469748,0.0-8.72-0.72,1.0,190.0,,,,,,,[],,,,,,87.9,0.0,u,0.0,True,706.0,43.0,60.0,40.0,False,,349.5407849441897,[],"[960, 540]",ColorTask,107.0,73.0,,,HRV,HRV_0224,2022-11-30 19:13:08
,wl-rdm,190,471717,0.0-8.73-0.73,1.0,191.0,,,,,,,[],,,,,,73.6,1.0,i,1.0,True,629.4000000953674,38.0,60.0,40.0,False,,280.86439022365505,[],"[960, 540]",ColorTask,108.0,74.0,,,HRV,HRV_0224,2022-11-30 19:13:08
,wl-rdm,191,473552,0.0-8.74-0.74,1.0,192.0,,,,,,,[],,,,,,87.9,1.0,i,1.0,True,559.9000000953674,34.0,60.0,40.0,False,,210.6088098224898,[],"[960, 540]",ColorTask,109.0,75.0,,,HRV,HRV_0224,2022-11-30 19:13:08
,wl-rdm,192,475704,0.0-8.75-0.75,1.0,193.0,,,,,,,[],,,,,,62.5,0.0,u,0.0,True,736.2000000476837,45.0,60.0,40.0,False,,340.4515852319923,[],"[960, 540]",ColorTask,110.0,76.0,,,HRV,HRV_0224,2022-11-30 19:13:08
,wl-rdm,193,477757,0.0-8.76-0.76,1.0,194.0,,,,,,,[],,,,,,87.9,1.0,i,1.0,True,613.2000002861023,37.0,60.0,40.0,False,,375.9660523641889,[],"[960, 540]",ColorTask,111.0,77.0,,,HRV,HRV_0224,2022-11-30 19:13:08
,wl-rdm,194,479775,0.0-8.77-0.77,1.0,195.0,,,,,,,[],,,,,,50.0,1.0,u,0.0,False,744.4000000953674,45.0,60.0,40.0,False,,210.73494798863044,[],"[960, 540]",ColorTask,110.0,78.0,,,HRV,HRV_0224,2022-11-30 19:13:08
,wl-rdm,195,482078,0.0-8.78-0.78,1.0,196.0,,,,,,,[],,,,,,50.0,0.0,u,0.0,True,1022.2999999523163,62.0,60.0,40.0,False,,207.98097795413187,[],"[960, 540]",ColorTask,111.0,79.0,,,HRV,HRV_0224,2022-11-30 19:13:08
,wl-rdm,196,484280,0.0-8.79-0.79,1.0,197.0,,,,,,,[],,,,,,53.2,0.0,i,1.0,False,760.7999999523163,46.0,60.0,40.0,False,,383.8592369301026,[],"[960, 540]",ColorTask,110.0,80.0,,,HRV,HRV_0224,2022-11-30 19:13:08
,wl-rdm,197,486365,0.0-8.80-0.80,1.0,198.0,,,,,,,[],,,,,,50.0,1.0,u,0.0,False,781.0,47.0,60.0,40.0,False,,244.01299857096842,[],"[960, 540]",ColorTask,109.0,81.0,,,HRV,HRV_0224,2022-11-30 19:13:08
,wl-rdm,198,488567,0.0-8.81-0.81,1.0,199.0,,,,,,,[],,,,,,62.5,1.0,i,1.0,True,844.4999997615814,51.0,60.0,40.0,False,,297.9017460914956,[],"[960, 540]",ColorTask,110.0,82.0,,,HRV,HRV_0224,2022-11-30 19:13:08
,wl-rdm,199,490820,0.0-8.82-0.82,1.0,200.0,,,,,,,[],,,,,,73.6,1.0,i,1.0,True,958.4000000953674,58.0,60.0,40.0,False,,203.83513333511237,[],"[960, 540]",ColorTask,111.0,83.0,,,HRV,HRV_0224,2022-11-30 19:13:08
,wl-rdm,200,493071,0.0-8.83-0.83,1.0,201.0,,,,,,,[],,,,,,56.4,1.0,i,1.0,True,927.1000001430511,56.0,60.0,40.0,False,,265.20064445069426,[],"[960, 540]",ColorTask,112.0,84.0,,,HRV,HRV_0224,2022-11-30 19:13:08
,wl-rdm,201,495257,0.0-8.84-0.84,1.0,202.0,,,,,,,[],,,,,,53.2,0.0,u,0.0,True,909.1000001430511,55.0,60.0,40.0,False,,215.29338216506017,[],"[960, 540]",ColorTask,113.0,85.0,,,HRV,HRV_0224,2022-11-30 19:13:08
,wl-rdm,202,497243,0.0-8.85-0.85,1.0,203.0,,,,,,,[],,,,,,73.6,0.0,u,0.0,True,567.900000333786,34.0,60.0,40.0,False,,339.68152825059894,[],"[960, 540]",ColorTask,114.0,86.0,,,HRV,HRV_0224,2022-11-30 19:13:08
,wl-rdm,203,499178,0.0-8.86-0.86,1.0,204.0,,,,,,,[],,,,,,87.9,1.0,i,1.0,True,634.5,38.0,60.0,40.0,False,,226.44970225178815,[],"[960, 540]",ColorTask,115.0,87.0,,,HRV,HRV_0224,2022-11-30 19:13:08
,wl-rdm,204,501497,0.0-8.87-0.87,1.0,205.0,,,,,,,[],,,,,,62.5,1.0,i,1.0,True,1010.5,61.0,60.0,40.0,False,,242.91625436289326,[],"[960, 540]",ColorTask,116.0,88.0,,,HRV,HRV_0224,2022-11-30 19:13:08
,wl-rdm,205,503399,0.0-8.88-0.88,1.0,206.0,,,,,,,[],,,,,,87.9,0.0,u,0.0,True,619.6999998092651,38.0,60.0,40.0,False,,203.02665208053443,[],"[960, 540]",ColorTask,117.0,89.0,,,HRV,HRV_0224,2022-11-30 19:13:08
,wl-rdm,206,505618,0.0-8.89-0.89,1.0,207.0,,,,,,,[],,,,,,50.0,1.0,u,0.0,False,842.1000001430511,51.0,60.0,40.0,False,,312.1071621162133,[],"[960, 540]",ColorTask,116.0,90.0,,,HRV,HRV_0224,2022-11-30 19:13:08
,wl-rdm,207,508103,0.0-8.90-0.90,1.0,208.0,,,,,,,[],,,,,,56.4,1.0,u,0.0,False,1045.5,63.0,60.0,40.0,False,,368.9145042290927,[],"[960, 540]",ColorTask,115.0,91.0,,,HRV,HRV_0224,2022-11-30 19:13:08
,wl-rdm,208,510372,0.0-8.91-0.91,1.0,209.0,,,,,,,[],,,,,,56.4,0.0,u,0.0,True,974.7999999523163,59.0,60.0,40.0,False,,200.43745865053862,[],"[960, 540]",ColorTask,116.0,92.0,,,HRV,HRV_0224,2022-11-30 19:13:08
,wl-rdm,209,512541,0.0-8.92-0.92,1.0,210.0,,,,,,,[],,,,,,53.2,1.0,i,1.0,True,822.3999998569489,50.0,60.0,40.0,False,,274.98212410501253,[],"[960, 540]",ColorTask,117.0,93.0,,,HRV,HRV_0224,2022-11-30 19:13:08
,wl-rdm,210,514643,0.0-8.93-0.93,1.0,211.0,,,,,,,[],,,,,,87.9,0.0,u,0.0,True,651.0,39.0,60.0,40.0,False,,379.6712415208391,[],"[960, 540]",ColorTask,118.0,94.0,,,HRV,HRV_0224,2022-11-30 19:13:08
,wl-rdm,211,516879,0.0-8.94-0.94,1.0,212.0,,,,,,,[],,,,,,62.5,0.0,u,0.0,True,920.2999999523163,56.0,60.0,40.0,False,,244.60504056601147,[],"[960, 540]",ColorTask,119.0,95.0,,,HRV,HRV_0224,2022-11-30 19:13:08
,wl-rdm,212,518947,0.0-8.95-0.95,1.0,213.0,,,,,,,[],,,,,,73.6,0.0,u,0.0,True,740.4000000953674,45.0,60.0,40.0,False,,252.42583125785225,[],"[960, 540]",ColorTask,120.0,96.0,,,HRV,HRV_0224,2022-11-30 19:13:08
,wl-rdm,213,520983,0.0-8.96-0.96,1.0,214.0,,,,,,,[],,,,,,62.5,1.0,i,1.0,True,761.4000000953674,46.0,60.0,40.0,False,,204.57254725704655,[],"[960, 540]",ColorTask,121.0,97.0,,,HRV,HRV_0224,2022-11-30 19:13:08
,wl-rdm,214,523369,0.0-8.97-0.97,1.0,215.0,,,,,,,[],,,,,,56.4,1.0,i,1.0,True,1018.5,62.0,60.0,40.0,False,,278.3486950684864,[],"[960, 540]",ColorTask,122.0,98.0,,,HRV,HRV_0224,2022-11-30 19:13:08
,wl-rdm,215,525638,0.0-8.98-0.98,1.0,216.0,,,,,,,[],,,,,,56.4,1.0,i,1.0,True,955.3000001907349,58.0,60.0,40.0,False,,235.1745248808709,[],"[960, 540]",ColorTask,123.0,99.0,,,HRV,HRV_0224,2022-11-30 19:13:08
,wl-rdm,216,527707,0.0-8.99-0.99,1.0,217.0,,,,,,,[],,,,,,50.0,1.0,u,0.0,False,734.6000001430511,44.0,60.0,40.0,False,,252.57084101070677,[],"[960, 540]",ColorTask,122.0,100.0,,,HRV,HRV_0224,2022-11-30 19:13:08
,wl-rdm,217,529992,0.0-8.100-0.100,1.0,218.0,,,,,,,[],,,,,,50.0,0.0,i,1.0,False,994.2000000476837,60.0,60.0,40.0,False,,218.24730852775724,[],"[960, 540]",ColorTask,121.0,101.0,,,HRV,HRV_0224,2022-11-30 19:13:08
,wl-rdm,218,531961,0.0-8.101-0.101,1.0,219.0,,,,,,,[],,,,,,87.9,1.0,i,1.0,True,576.3000001907349,35.0,60.0,40.0,False,,330.8428839125867,[],"[960, 540]",ColorTask,122.0,102.0,,,HRV,HRV_0224,2022-11-30 19:13:08
,wl-rdm,219,534147,0.0-8.102-0.102,1.0,220.0,,,,,,,[],,,,,,53.2,0.0,u,0.0,True,801.5,48.0,60.0,40.0,False,,309.4282832121314,[],"[960, 540]",ColorTask,123.0,103.0,,,HRV,HRV_0224,2022-11-30 19:13:08
,wl-rdm,220,536666,0.0-8.103-0.103,1.0,221.0,,,,,,,[],,,,,,53.2,1.0,i,1.0,True,1076.2999999523163,65.0,60.0,40.0,False,,367.89959925126357,[],"[960, 540]",ColorTask,124.0,104.0,,,HRV,HRV_0224,2022-11-30 19:13:08
,wl-rdm,221,538901,0.0-8.104-0.104,1.0,222.0,,,,,,,[],,,,,,62.5,0.0,u,0.0,True,830.2000000476837,50.0,60.0,40.0,False,,346.98364697610583,[],"[960, 540]",ColorTask,125.0,105.0,,,HRV,HRV_0224,2022-11-30 19:13:08
,wl-rdm,222,540820,0.0-8.105-0.105,1.0,223.0,,,,,,,[],,,,,,50.0,0.0,i,1.0,False,647.9000000953674,39.0,60.0,40.0,False,,209.84190872336288,[],"[960, 540]",ColorTask,124.0,106.0,,,HRV,HRV_0224,2022-11-30 19:13:08
,wl-rdm,223,542738,0.0-8.106-0.106,1.0,224.0,,,,,,,[],,,,,,62.5,1.0,i,1.0,True,484.19999980926514,29.0,60.0,40.0,False,,365.48611177785966,[],"[960, 540]",ColorTask,125.0,107.0,,,HRV,HRV_0224,2022-11-30 19:13:08
,wl-rdm,224,544607,0.0-8.107-0.107,1.0,225.0,,,,,,,[],,,,,,87.9,1.0,i,1.0,True,461.69999980926514,28.0,60.0,40.0,False,,339.76667328937725,[],"[960, 540]",ColorTask,126.0,108.0,,,HRV,HRV_0224,2022-11-30 19:13:08
,wl-html-button-response,225,547125,0.0-9.0-0.0,,,,,,,,,,2511.4000000953674,,0,,,,,,,,,,,,,,,,,,,,<h3>End of this session. Thank you!</h3><br>,['Close window'],HRV,HRV_0224,2022-11-30 19:13:08
