trialN,stimuli,trialStartTime,trialStartTime_UNIX,stimulus1,stimulus2,stimulus1Bid,stimulus2Bid,delta,selected,rt,rt_UNIX,rt_perfnow,receivedResponse,rsp,trialEndTime,trialDuration,trialEndTime_UNIX,trialDuration_UNIX,exp,subjectId,date
0,"[{'imgObject': {}, 'id': 'lox', 'src': '/static/foodstim60/lox.jpg', 'key': 'u', 'origWidth': 410, 'origHeight': 411, 'width': 410, 'height': 411, 'widthPercent': 0.45, 'rescaleHeight': False, 'trialN': 0, 'loaded': True, 'loadedTime': 3669.5, 'positionName': 'LEFT', 'positionCoords': [511.6, 334.5], 'bid': 0}, {'imgObject': {}, 'id': 'salad w chicken', 'src': '/static/foodstim60/salad w chicken.jpg', 'key': 'i', 'origWidth': 411, 'origHeight': 411, 'width': 411, 'height': 411, 'widthPercent': 0.45, 'rescaleHeight': False, 'trialN': 0, 'loaded': True, 'loadedTime': 3701.399999856949, 'positionName': 'RIGHT', 'positionCoords': [998.4, 334.5], 'bid': 0}]",4372.5,1669833952954,lox,salad w chicken,0.0,0.0,0.0,lox,1017.7000000476837,1018,1018.2999999523163,True,u,5905.0,1532.5,1669833954486,1532,HRV,HRV_0224,2022-11-30 18:50:34
1,"[{'imgObject': {}, 'id': 'turkey sandwich', 'src': '/static/foodstim60/turkey sandwich.jpg', 'key': 'u', 'origWidth': 409, 'origHeight': 409, 'width': 409, 'height': 409, 'widthPercent': 0.45, 'rescaleHeight': False, 'trialN': 1, 'loaded': True, 'loadedTime': 3704.2000000476837, 'positionName': 'LEFT', 'positionCoords': [512.6, 335.5], 'bid': 8.05}, {'imgObject': {}, 'id': 'blackbeanswithrice', 'src': '/static/foodstim60/blackbeanswithrice.jpg', 'key': 'i', 'origWidth': 410, 'origHeight': 410, 'width': 410, 'height': 410, 'widthPercent': 0.45, 'rescaleHeight': False, 'trialN': 1, 'loaded': True, 'loadedTime': 3712.7000000476837, 'positionName': 'RIGHT', 'positionCoords': [998.4, 335], 'bid': 0.15}]",5905.5,1669833954487,turkey sandwich,blackbeanswithrice,8.05,0.15,-7.9,turkey sandwich,844.7999999523163,845,845.0,True,u,7262.799999952316,1357.2999999523163,1669833955844,1357,HRV,HRV_0224,2022-11-30 18:50:34
2,"[{'imgObject': {}, 'id': 'corn cob', 'src': '/static/foodstim60/corn cob.jpg', 'key': 'u', 'origWidth': 411, 'origHeight': 411, 'width': 411, 'height': 411, 'widthPercent': 0.45, 'rescaleHeight': False, 'trialN': 2, 'loaded': True, 'loadedTime': 3714.5, 'positionName': 'LEFT', 'positionCoords': [510.6, 334.5], 'bid': 6.69}, {'imgObject': {}, 'id': 'ice cream sundae 002', 'src': '/static/foodstim60/ice cream sundae 002.jpg', 'key': 'i', 'origWidth': 409, 'origHeight': 409, 'width': 409, 'height': 409, 'widthPercent': 0.45, 'rescaleHeight': False, 'trialN': 2, 'loaded': True, 'loadedTime': 3718.0999999046326, 'positionName': 'RIGHT', 'positionCoords': [998.4, 335.5], 'bid': 5.07}]",7263.0,1669833955844,corn cob,ice cream sundae 002,6.69,5.07,-1.62,corn cob,1151.0999999046326,1152,1151.2999999523163,True,u,8929.700000047684,1666.7000000476837,1669833957511,1667,HRV,HRV_0224,2022-11-30 18:50:34
3,"[{'imgObject': {}, 'id': 'burger', 'src': '/static/foodstim60/burger.jpg', 'key': 'u', 'origWidth': 409, 'origHeight': 409, 'width': 409, 'height': 409, 'widthPercent': 0.45, 'rescaleHeight': False, 'trialN': 3, 'loaded': True, 'loadedTime': 3719.399999856949, 'positionName': 'LEFT', 'positionCoords': [512.6, 335.5], 'bid': 7.59}, {'imgObject': {}, 'id': 'popsicles', 'src': '/static/foodstim60/popsicles.jpg', 'key': 'i', 'origWidth': 410, 'origHeight': 410, 'width': 410, 'height': 410, 'widthPercent': 0.45, 'rescaleHeight': False, 'trialN': 3, 'loaded': True, 'loadedTime': 4368.299999952316, 'positionName': 'RIGHT', 'positionCoords': [998.4, 335], 'bid': 8.85}]",8929.899999856949,1669833957511,burger,popsicles,7.59,8.85,1.2599999999999998,popsicles,948.2000000476837,949,948.4000000953674,True,i,10392.299999952316,1462.4000000953674,1669833958974,1463,HRV,HRV_0224,2022-11-30 18:50:34
4,"[{'imgObject': {}, 'id': 'froot loops w milk', 'src': '/static/foodstim60/froot loops w milk.jpg', 'key': 'u', 'origWidth': 410, 'origHeight': 410, 'width': 410, 'height': 410, 'widthPercent': 0.45, 'rescaleHeight': False, 'trialN': 4, 'loaded': True, 'loadedTime': 3724.2000000476837, 'positionName': 'LEFT', 'positionCoords': [511.6, 335], 'bid': 5.97}, {'imgObject': {}, 'id': 'rigatoni', 'src': '/static/foodstim60/rigatoni.jpg', 'key': 'i', 'origWidth': 411, 'origHeight': 411, 'width': 411, 'height': 411, 'widthPercent': 0.45, 'rescaleHeight': False, 'trialN': 4, 'loaded': True, 'loadedTime': 3727.7000000476837, 'positionName': 'RIGHT', 'positionCoords': [998.4, 334.5], 'bid': 6.16}]",10392.399999856949,1669833958974,froot loops w milk,rigatoni,5.97,6.16,0.1900000000000004,froot loops w milk,1125.9000000953674,1126,1126.0,True,u,12028.700000047684,1636.3000001907349,1669833960610,1636,HRV,HRV_0224,2022-11-30 18:50:34
5,"[{'imgObject': {}, 'id': 'roastedpotatoes', 'src': '/static/foodstim60/roastedpotatoes.jpg', 'key': 'u', 'origWidth': 409, 'origHeight': 410, 'width': 409, 'height': 410, 'widthPercent': 0.45, 'rescaleHeight': False, 'trialN': 5, 'loaded': True, 'loadedTime': 3728.899999856949, 'positionName': 'LEFT', 'positionCoords': [512.6, 335], 'bid': 7.42}, {'imgObject': {}, 'id': 'chicken nuggets2', 'src': '/static/foodstim60/chicken nuggets2.jpg', 'key': 'i', 'origWidth': 410, 'origHeight': 409, 'width': 410, 'height': 409, 'widthPercent': 0.45, 'rescaleHeight': False, 'trialN': 5, 'loaded': True, 'loadedTime': 3754.5, 'positionName': 'RIGHT', 'positionCoords': [998.4, 335.5], 'bid': 7.7}]",12029.0,1669833960610,roastedpotatoes,chicken nuggets2,7.42,7.7,0.28000000000000025,chicken nuggets2,1665.2000000476837,1666,1665.3999998569489,True,i,14211.299999952316,2182.2999999523163,1669833962792,2182,HRV,HRV_0224,2022-11-30 18:50:34
6,"[{'imgObject': {}, 'id': 'raisin bran w milk', 'src': '/static/foodstim60/raisin bran w milk.jpg', 'key': 'u', 'origWidth': 411, 'origHeight': 411, 'width': 411, 'height': 411, 'widthPercent': 0.45, 'rescaleHeight': False, 'trialN': 6, 'loaded': True, 'loadedTime': 3754.5999999046326, 'positionName': 'LEFT', 'positionCoords': [510.6, 334.5], 'bid': 4.95}, {'imgObject': {}, 'id': 'hashbrowns', 'src': '/static/foodstim60/hashbrowns.jpg', 'key': 'i', 'origWidth': 411, 'origHeight': 410, 'width': 411, 'height': 410, 'widthPercent': 0.45, 'rescaleHeight': False, 'trialN': 6, 'loaded': True, 'loadedTime': 3802.2000000476837, 'positionName': 'RIGHT', 'positionCoords': [998.4, 335], 'bid': 0.08}]",14211.5,1669833962793,raisin bran w milk,hashbrowns,4.95,0.08,-4.87,raisin bran w milk,1450.7000000476837,1451,1451.0,True,u,16181.200000047684,1969.7000000476837,1669833964762,1969,HRV,HRV_0224,2022-11-30 18:50:34
7,"[{'imgObject': {}, 'id': 'sweetpotato', 'src': '/static/foodstim60/sweetpotato.jpg', 'key': 'u', 'origWidth': 410, 'origHeight': 410, 'width': 410, 'height': 410, 'widthPercent': 0.45, 'rescaleHeight': False, 'trialN': 7, 'loaded': True, 'loadedTime': 3803.7000000476837, 'positionName': 'LEFT', 'positionCoords': [511.6, 335], 'bid': 0.16}, {'imgObject': {}, 'id': 'baked potato', 'src': '/static/foodstim60/baked potato.jpg', 'key': 'i', 'origWidth': 409, 'origHeight': 410, 'width': 409, 'height': 410, 'widthPercent': 0.45, 'rescaleHeight': False, 'trialN': 7, 'loaded': True, 'loadedTime': 3813.5999999046326, 'positionName': 'RIGHT', 'positionCoords': [998.4, 335], 'bid': 1.76}]",16181.399999856949,1669833964763,sweetpotato,baked potato,0.16,1.76,1.6,baked potato,904.8000001907349,905,905.1000001430511,True,i,17601.299999952316,1419.9000000953674,1669833966182,1419,HRV,HRV_0224,2022-11-30 18:50:34
8,"[{'imgObject': {}, 'id': 'Tribe humus pita', 'src': '/static/foodstim60/Tribe humus pita.jpg', 'key': 'u', 'origWidth': 411, 'origHeight': 411, 'width': 411, 'height': 411, 'widthPercent': 0.45, 'rescaleHeight': False, 'trialN': 8, 'loaded': True, 'loadedTime': 3813.7000000476837, 'positionName': 'LEFT', 'positionCoords': [510.6, 334.5], 'bid': 6.53}, {'imgObject': {}, 'id': 'corn cob', 'src': '/static/foodstim60/corn cob.jpg', 'key': 'i', 'origWidth': 411, 'origHeight': 411, 'width': 411, 'height': 411, 'widthPercent': 0.45, 'rescaleHeight': False, 'trialN': 8, 'loaded': True, 'loadedTime': 3715.399999856949, 'positionName': 'RIGHT', 'positionCoords': [998.4, 334.5], 'bid': 6.69}]",17601.5,1669833966183,Tribe humus pita,corn cob,6.53,6.69,0.16000000000000014,Tribe humus pita,1012.5999999046326,1013,1013.0,True,u,19120.5,1519.0,1669833967702,1519,HRV,HRV_0224,2022-11-30 18:50:34
9,"[{'imgObject': {}, 'id': 'strawberries', 'src': '/static/foodstim60/strawberries.jpg', 'key': 'u', 'origWidth': 410, 'origHeight': 410, 'width': 410, 'height': 410, 'widthPercent': 0.45, 'rescaleHeight': False, 'trialN': 9, 'loaded': True, 'loadedTime': 3822.399999856949, 'positionName': 'LEFT', 'positionCoords': [511.6, 335], 'bid': 0.04}, {'imgObject': {}, 'id': 'raspberries', 'src': '/static/foodstim60/raspberries.jpg', 'key': 'i', 'origWidth': 411, 'origHeight': 411, 'width': 411, 'height': 411, 'widthPercent': 0.45, 'rescaleHeight': False, 'trialN': 9, 'loaded': True, 'loadedTime': 3855.2999999523163, 'positionName': 'RIGHT', 'positionCoords': [998.4, 334.5], 'bid': 0.03}]",19121.0,1669833967702,strawberries,raspberries,0.04,0.03,-0.010000000000000002,strawberries,1429.0999999046326,1430,1429.2999999523163,True,u,21064.299999952316,1943.2999999523163,1669833969645,1943,HRV,HRV_0224,2022-11-30 18:50:34
10,"[{'imgObject': {}, 'id': 'popsicles', 'src': '/static/foodstim60/popsicles.jpg', 'key': 'u', 'origWidth': 410, 'origHeight': 410, 'width': 410, 'height': 410, 'widthPercent': 0.45, 'rescaleHeight': False, 'trialN': 10, 'loaded': True, 'loadedTime': 4368.399999856949, 'positionName': 'LEFT', 'positionCoords': [511.6, 335], 'bid': 8.85}, {'imgObject': {}, 'id': 'Grapes', 'src': '/static/foodstim60/Grapes.jpg', 'key': 'i', 'origWidth': 411, 'origHeight': 411, 'width': 411, 'height': 411, 'widthPercent': 0.45, 'rescaleHeight': False, 'trialN': 10, 'loaded': True, 'loadedTime': 3872.5, 'positionName': 'RIGHT', 'positionCoords': [998.4, 334.5], 'bid': 6.84}]",21064.599999904633,1669833969646,popsicles,Grapes,8.85,6.84,-2.01,popsicles,781.7000000476837,782,782.0,True,u,22351.299999952316,1286.7000000476837,1669833970932,1286,HRV,HRV_0224,2022-11-30 18:50:34
11,"[{'imgObject': {}, 'id': 'popsicles', 'src': '/static/foodstim60/popsicles.jpg', 'key': 'u', 'origWidth': 410, 'origHeight': 410, 'width': 410, 'height': 410, 'widthPercent': 0.45, 'rescaleHeight': False, 'trialN': 11, 'loaded': True, 'loadedTime': 4368.399999856949, 'positionName': 'LEFT', 'positionCoords': [511.6, 335], 'bid': 8.85}, {'imgObject': {}, 'id': 'steak', 'src': '/static/foodstim60/steak.jpg', 'key': 'i', 'origWidth': 410, 'origHeight': 410, 'width': 410, 'height': 410, 'widthPercent': 0.45, 'rescaleHeight': False, 'trialN': 11, 'loaded': True, 'loadedTime': 3894.5, 'positionName': 'RIGHT', 'positionCoords': [998.4, 335], 'bid': 9.92}]",22351.39999985695,1669833970933,popsicles,steak,8.85,9.92,1.0700000000000003,steak,742.7000000476837,743,743.0,True,i,23610.700000047684,1259.3000001907349,1669833972192,1259,HRV,HRV_0224,2022-11-30 18:50:34
12,"[{'imgObject': {}, 'id': 'hashbrowns', 'src': '/static/foodstim60/hashbrowns.jpg', 'key': 'u', 'origWidth': 411, 'origHeight': 410, 'width': 411, 'height': 410, 'widthPercent': 0.45, 'rescaleHeight': False, 'trialN': 12, 'loaded': True, 'loadedTime': 3802.7999999523163, 'positionName': 'LEFT', 'positionCoords': [510.6, 335], 'bid': 0.08}, {'imgObject': {}, 'id': 'hotdog w must', 'src': '/static/foodstim60/hotdog w must.jpg', 'key': 'i', 'origWidth': 409, 'origHeight': 409, 'width': 409, 'height': 409, 'widthPercent': 0.45, 'rescaleHeight': False, 'trialN': 12, 'loaded': True, 'loadedTime': 3927.2000000476837, 'positionName': 'RIGHT', 'positionCoords': [998.4, 335.5], 'bid': 7.140000000000001}]",23611.0,1669833972192,hashbrowns,hotdog w must,0.08,7.140000000000001,7.0600000000000005,hotdog w must,835.0999999046326,835,835.2999999523163,True,i,24956.299999952316,1345.2999999523163,1669833973538,1346,HRV,HRV_0224,2022-11-30 18:50:34
13,"[{'imgObject': {}, 'id': 'veggieswithdip', 'src': '/static/foodstim60/veggieswithdip.jpg', 'key': 'u', 'origWidth': 409, 'origHeight': 409, 'width': 409, 'height': 409, 'widthPercent': 0.45, 'rescaleHeight': False, 'trialN': 13, 'loaded': True, 'loadedTime': 3928.899999856949, 'positionName': 'LEFT', 'positionCoords': [512.6, 335.5], 'bid': 0}, {'imgObject': {}, 'id': 'lox', 'src': '/static/foodstim60/lox.jpg', 'key': 'i', 'origWidth': 410, 'origHeight': 411, 'width': 410, 'height': 411, 'widthPercent': 0.45, 'rescaleHeight': False, 'trialN': 13, 'loaded': True, 'loadedTime': 3606.7999999523163, 'positionName': 'RIGHT', 'positionCoords': [998.4, 334.5], 'bid': 0}]",24956.599999904633,1669833973538,veggieswithdip,lox,0.0,0.0,0.0,lox,921.5,922,921.7999999523163,True,i,26391.700000047684,1435.1000001430511,1669833974973,1435,HRV,HRV_0224,2022-11-30 18:50:34
14,"[{'imgObject': {}, 'id': 'shreddedwheatwithmilk', 'src': '/static/foodstim60/shreddedwheatwithmilk.jpg', 'key': 'u', 'origWidth': 410, 'origHeight': 410, 'width': 410, 'height': 410, 'widthPercent': 0.45, 'rescaleHeight': False, 'trialN': 14, 'loaded': True, 'loadedTime': 3961, 'positionName': 'LEFT', 'positionCoords': [511.6, 335], 'bid': 0.03}, {'imgObject': {}, 'id': 'strawberries', 'src': '/static/foodstim60/strawberries.jpg', 'key': 'i', 'origWidth': 410, 'origHeight': 410, 'width': 410, 'height': 410, 'widthPercent': 0.45, 'rescaleHeight': False, 'trialN': 14, 'loaded': True, 'loadedTime': 3838.5, 'positionName': 'RIGHT', 'positionCoords': [998.4, 335], 'bid': 0.04}]",26391.799999952316,1669833974973,shreddedwheatwithmilk,strawberries,0.03,0.04,0.010000000000000002,strawberries,1582.2000000476837,1582,1582.4000000953674,True,i,28485.200000047684,2093.4000000953674,1669833977066,2093,HRV,HRV_0224,2022-11-30 18:50:34
15,"[{'imgObject': {}, 'id': 'froot loops w milk', 'src': '/static/foodstim60/froot loops w milk.jpg', 'key': 'u', 'origWidth': 410, 'origHeight': 410, 'width': 410, 'height': 410, 'widthPercent': 0.45, 'rescaleHeight': False, 'trialN': 15, 'loaded': True, 'loadedTime': 3725.5, 'positionName': 'LEFT', 'positionCoords': [511.6, 335], 'bid': 5.97}, {'imgObject': {}, 'id': 'raisin bran w milk', 'src': '/static/foodstim60/raisin bran w milk.jpg', 'key': 'i', 'origWidth': 411, 'origHeight': 411, 'width': 411, 'height': 411, 'widthPercent': 0.45, 'rescaleHeight': False, 'trialN': 15, 'loaded': True, 'loadedTime': 3777.2000000476837, 'positionName': 'RIGHT', 'positionCoords': [998.4, 334.5], 'bid': 4.95}]",28485.299999952316,1669833977067,froot loops w milk,raisin bran w milk,5.97,4.95,-1.0199999999999996,froot loops w milk,976.9000000953674,977,977.7000000476837,True,u,29966.5,1481.2000000476837,1669833978548,1481,HRV,HRV_0224,2022-11-30 18:50:34
16,"[{'imgObject': {}, 'id': 'cantaloupe', 'src': '/static/foodstim60/cantaloupe.jpg', 'key': 'u', 'origWidth': 409, 'origHeight': 409, 'width': 409, 'height': 409, 'widthPercent': 0.45, 'rescaleHeight': False, 'trialN': 16, 'loaded': True, 'loadedTime': 3979.5999999046326, 'positionName': 'LEFT', 'positionCoords': [512.6, 335.5], 'bid': 0.12}, {'imgObject': {}, 'id': 'yogurt no spoon', 'src': '/static/foodstim60/yogurt no spoon.jpg', 'key': 'i', 'origWidth': 411, 'origHeight': 410, 'width': 411, 'height': 410, 'widthPercent': 0.45, 'rescaleHeight': False, 'trialN': 16, 'loaded': True, 'loadedTime': 4020.0999999046326, 'positionName': 'RIGHT', 'positionCoords': [998.4, 335], 'bid': 0.04}]",29966.599999904633,1669833978548,cantaloupe,yogurt no spoon,0.12,0.04,-0.07999999999999999,cantaloupe,1535.6000001430511,1536,1535.7999999523163,True,u,32013.5,2046.9000000953674,1669833980595,2047,HRV,HRV_0224,2022-11-30 18:50:34
17,"[{'imgObject': {}, 'id': 'Tribe humus pita', 'src': '/static/foodstim60/Tribe humus pita.jpg', 'key': 'u', 'origWidth': 411, 'origHeight': 411, 'width': 411, 'height': 411, 'widthPercent': 0.45, 'rescaleHeight': False, 'trialN': 17, 'loaded': True, 'loadedTime': 3815.7000000476837, 'positionName': 'LEFT', 'positionCoords': [510.6, 334.5], 'bid': 6.53}, {'imgObject': {}, 'id': 'mashed potato', 'src': '/static/foodstim60/mashed potato.jpg', 'key': 'i', 'origWidth': 409, 'origHeight': 409, 'width': 409, 'height': 409, 'widthPercent': 0.45, 'rescaleHeight': False, 'trialN': 17, 'loaded': True, 'loadedTime': 4023.2000000476837, 'positionName': 'RIGHT', 'positionCoords': [998.4, 335.5], 'bid': 6.22}]",32013.700000047684,1669833980595,Tribe humus pita,mashed potato,6.53,6.22,-0.3100000000000005,Tribe humus pita,832.5999999046326,833,832.6999998092651,True,u,33353.09999990463,1339.3999998569489,1669833981934,1339,HRV,HRV_0224,2022-11-30 18:50:34
18,"[{'imgObject': {}, 'id': 'cocktailshrimp', 'src': '/static/foodstim60/cocktailshrimp.jpg', 'key': 'u', 'origWidth': 410, 'origHeight': 410, 'width': 410, 'height': 410, 'widthPercent': 0.45, 'rescaleHeight': False, 'trialN': 18, 'loaded': True, 'loadedTime': 4042.2999999523163, 'positionName': 'LEFT', 'positionCoords': [511.6, 335], 'bid': 0.05}, {'imgObject': {}, 'id': 'corn cob', 'src': '/static/foodstim60/corn cob.jpg', 'key': 'i', 'origWidth': 411, 'origHeight': 411, 'width': 411, 'height': 411, 'widthPercent': 0.45, 'rescaleHeight': False, 'trialN': 18, 'loaded': True, 'loadedTime': 3715.7999999523163, 'positionName': 'RIGHT', 'positionCoords': [998.4, 334.5], 'bid': 6.69}]",33353.200000047684,1669833981934,cocktailshrimp,corn cob,0.05,6.69,6.640000000000001,corn cob,1020.8999998569489,1022,1021.1999998092651,True,i,34885.0,1531.7999999523163,1669833983466,1532,HRV,HRV_0224,2022-11-30 18:50:34
19,"[{'imgObject': {}, 'id': 'seaweed', 'src': '/static/foodstim60/seaweed.jpg', 'key': 'u', 'origWidth': 410, 'origHeight': 410, 'width': 410, 'height': 410, 'widthPercent': 0.45, 'rescaleHeight': False, 'trialN': 19, 'loaded': True, 'loadedTime': 4044.899999856949, 'positionName': 'LEFT', 'positionCoords': [511.6, 335], 'bid': 0.06}, {'imgObject': {}, 'id': 'cherry tomato', 'src': '/static/foodstim60/cherry tomato.jpg', 'key': 'i', 'origWidth': 410, 'origHeight': 410, 'width': 410, 'height': 410, 'widthPercent': 0.45, 'rescaleHeight': False, 'trialN': 19, 'loaded': True, 'loadedTime': 4080.399999856949, 'positionName': 'RIGHT', 'positionCoords': [998.4, 335], 'bid': 3.17}]",34885.299999952316,1669833983466,seaweed,cherry tomato,0.06,3.17,3.11,cherry tomato,936.7999999523163,938,937.0999999046326,True,i,36336.39999985695,1451.0999999046326,1669833984918,1452,HRV,HRV_0224,2022-11-30 18:50:34
20,"[{'imgObject': {}, 'id': 'orange slices', 'src': '/static/foodstim60/orange slices.jpg', 'key': 'u', 'origWidth': 409, 'origHeight': 410, 'width': 409, 'height': 410, 'widthPercent': 0.45, 'rescaleHeight': False, 'trialN': 20, 'loaded': True, 'loadedTime': 4091.899999856949, 'positionName': 'LEFT', 'positionCoords': [512.6, 335], 'bid': 9.92}, {'imgObject': {}, 'id': 'burrito', 'src': '/static/foodstim60/burrito.jpg', 'key': 'i', 'origWidth': 410, 'origHeight': 410, 'width': 410, 'height': 410, 'widthPercent': 0.45, 'rescaleHeight': False, 'trialN': 20, 'loaded': True, 'loadedTime': 4093.5, 'positionName': 'RIGHT', 'positionCoords': [998.4, 335], 'bid': 4.98}]",36336.5,1669833984918,orange slices,burrito,9.92,4.98,-4.9399999999999995,orange slices,1109.5999999046326,1110,1110.0,True,u,37954.799999952316,1618.2999999523163,1669833986536,1618,HRV,HRV_0224,2022-11-30 18:50:34
21,"[{'imgObject': {}, 'id': 'popsicles', 'src': '/static/foodstim60/popsicles.jpg', 'key': 'u', 'origWidth': 410, 'origHeight': 410, 'width': 410, 'height': 410, 'widthPercent': 0.45, 'rescaleHeight': False, 'trialN': 21, 'loaded': True, 'loadedTime': 4368.5, 'positionName': 'LEFT', 'positionCoords': [511.6, 335], 'bid': 8.85}, {'imgObject': {}, 'id': 'cherry tomato', 'src': '/static/foodstim60/cherry tomato.jpg', 'key': 'i', 'origWidth': 410, 'origHeight': 410, 'width': 410, 'height': 410, 'widthPercent': 0.45, 'rescaleHeight': False, 'trialN': 21, 'loaded': True, 'loadedTime': 4065.2999999523163, 'positionName': 'RIGHT', 'positionCoords': [998.4, 335], 'bid': 3.17}]",37955.0,1669833986536,popsicles,cherry tomato,8.85,3.17,-5.68,popsicles,843.0999999046326,843,843.2999999523163,True,u,39315.799999952316,1360.7999999523163,1669833987897,1361,HRV,HRV_0224,2022-11-30 18:50:34
22,"[{'imgObject': {}, 'id': 'steak', 'src': '/static/foodstim60/steak.jpg', 'key': 'u', 'origWidth': 410, 'origHeight': 410, 'width': 410, 'height': 410, 'widthPercent': 0.45, 'rescaleHeight': False, 'trialN': 22, 'loaded': True, 'loadedTime': 3892.899999856949, 'positionName': 'LEFT', 'positionCoords': [511.6, 335], 'bid': 9.92}, {'imgObject': {}, 'id': 'chicken nuggets2', 'src': '/static/foodstim60/chicken nuggets2.jpg', 'key': 'i', 'origWidth': 410, 'origHeight': 409, 'width': 410, 'height': 409, 'widthPercent': 0.45, 'rescaleHeight': False, 'trialN': 22, 'loaded': True, 'loadedTime': 3731.2999999523163, 'positionName': 'RIGHT', 'positionCoords': [998.4, 335.5], 'bid': 7.7}]",39316.0,1669833987897,steak,chicken nuggets2,9.92,7.7,-2.2199999999999998,steak,874.2999999523163,875,874.7000000476837,True,u,40698.5,1382.5,1669833989280,1383,HRV,HRV_0224,2022-11-30 18:50:34
23,"[{'imgObject': {}, 'id': 'banana', 'src': '/static/foodstim60/banana.jpg', 'key': 'u', 'origWidth': 410, 'origHeight': 410, 'width': 410, 'height': 410, 'widthPercent': 0.45, 'rescaleHeight': False, 'trialN': 23, 'loaded': True, 'loadedTime': 4097.099999904633, 'positionName': 'LEFT', 'positionCoords': [511.6, 335], 'bid': 7.32}, {'imgObject': {}, 'id': 'burger', 'src': '/static/foodstim60/burger.jpg', 'key': 'i', 'origWidth': 409, 'origHeight': 409, 'width': 409, 'height': 409, 'widthPercent': 0.45, 'rescaleHeight': False, 'trialN': 23, 'loaded': True, 'loadedTime': 3719.7000000476837, 'positionName': 'RIGHT', 'positionCoords': [998.4, 335.5], 'bid': 7.59}]",40698.59999990463,1669833989280,banana,burger,7.32,7.59,0.2699999999999996,banana,1483.4000000953674,1483,1483.7000000476837,True,u,42691.89999985695,1993.2999999523163,1669833991273,1993,HRV,HRV_0224,2022-11-30 18:50:34
24,"[{'imgObject': {}, 'id': 'turkeysandwich', 'src': '/static/foodstim60/turkeysandwich.jpg', 'key': 'u', 'origWidth': 409, 'origHeight': 409, 'width': 409, 'height': 409, 'widthPercent': 0.45, 'rescaleHeight': False, 'trialN': 24, 'loaded': True, 'loadedTime': 4097.399999856949, 'positionName': 'LEFT', 'positionCoords': [512.6, 335.5], 'bid': 8.11}, {'imgObject': {}, 'id': 'orange slices', 'src': '/static/foodstim60/orange slices.jpg', 'key': 'i', 'origWidth': 409, 'origHeight': 410, 'width': 409, 'height': 410, 'widthPercent': 0.45, 'rescaleHeight': False, 'trialN': 24, 'loaded': True, 'loadedTime': 4080.5, 'positionName': 'RIGHT', 'positionCoords': [998.4, 335], 'bid': 9.92}]",42692.299999952316,1669833991274,turkeysandwich,orange slices,8.11,9.92,1.8100000000000005,orange slices,602.0,602,602.2000000476837,True,i,43798.89999985695,1106.5999999046326,1669833992380,1106,HRV,HRV_0224,2022-11-30 18:50:34
25,"[{'imgObject': {}, 'id': 'baked potato', 'src': '/static/foodstim60/baked potato.jpg', 'key': 'u', 'origWidth': 409, 'origHeight': 410, 'width': 409, 'height': 410, 'widthPercent': 0.45, 'rescaleHeight': False, 'trialN': 25, 'loaded': True, 'loadedTime': 3811.5999999046326, 'positionName': 'LEFT', 'positionCoords': [512.6, 335], 'bid': 1.76}, {'imgObject': {}, 'id': 'blackbeanswithrice', 'src': '/static/foodstim60/blackbeanswithrice.jpg', 'key': 'i', 'origWidth': 410, 'origHeight': 410, 'width': 410, 'height': 410, 'widthPercent': 0.45, 'rescaleHeight': False, 'trialN': 25, 'loaded': True, 'loadedTime': 3714.2000000476837, 'positionName': 'RIGHT', 'positionCoords': [998.4, 335], 'bid': 0.15}]",43799.0,1669833992380,baked potato,blackbeanswithrice,1.76,0.15,-1.61,baked potato,1159.0,1160,1159.3999998569489,True,u,45465.299999952316,1666.2999999523163,1669833994046,1666,HRV,HRV_0224,2022-11-30 18:50:34
26,"[{'imgObject': {}, 'id': 'luckycharms', 'src': '/static/foodstim60/luckycharms.jpg', 'key': 'u', 'origWidth': 410, 'origHeight': 409, 'width': 410, 'height': 409, 'widthPercent': 0.45, 'rescaleHeight': False, 'trialN': 26, 'loaded': True, 'loadedTime': 4105.099999904633, 'positionName': 'LEFT', 'positionCoords': [511.6, 335.5], 'bid': 6.01}, {'imgObject': {}, 'id': 'omelette', 'src': '/static/foodstim60/omelette.jpg', 'key': 'i', 'origWidth': 410, 'origHeight': 409, 'width': 410, 'height': 409, 'widthPercent': 0.45, 'rescaleHeight': False, 'trialN': 26, 'loaded': True, 'loadedTime': 4133.200000047684, 'positionName': 'RIGHT', 'positionCoords': [998.4, 335.5], 'bid': 5.73}]",45465.39999985695,1669833994047,luckycharms,omelette,6.01,5.73,-0.27999999999999936,omelette,1292.7000000476837,1293,1293.0,True,i,47276.0,1810.6000001430511,1669833995857,1810,HRV,HRV_0224,2022-11-30 18:50:34
27,"[{'imgObject': {}, 'id': 'bagel plain', 'src': '/static/foodstim60/bagel plain.jpg', 'key': 'u', 'origWidth': 410, 'origHeight': 410, 'width': 410, 'height': 410, 'widthPercent': 0.45, 'rescaleHeight': False, 'trialN': 27, 'loaded': True, 'loadedTime': 4134.099999904633, 'positionName': 'LEFT', 'positionCoords': [511.6, 335], 'bid': 2.03}, {'imgObject': {}, 'id': 'fruitsalad', 'src': '/static/foodstim60/fruitsalad.jpg', 'key': 'i', 'origWidth': 410, 'origHeight': 410, 'width': 410, 'height': 410, 'widthPercent': 0.45, 'rescaleHeight': False, 'trialN': 27, 'loaded': True, 'loadedTime': 4170.299999952316, 'positionName': 'RIGHT', 'positionCoords': [998.4, 335], 'bid': 0.06}]",47276.09999990463,1669833995858,bagel plain,fruitsalad,2.03,0.06,-1.9699999999999998,bagel plain,914.0,914,914.2000000476837,True,u,48695.39999985695,1419.2999999523163,1669833997277,1419,HRV,HRV_0224,2022-11-30 18:50:34
28,"[{'imgObject': {}, 'id': 'burrito', 'src': '/static/foodstim60/burrito.jpg', 'key': 'u', 'origWidth': 410, 'origHeight': 410, 'width': 410, 'height': 410, 'widthPercent': 0.45, 'rescaleHeight': False, 'trialN': 28, 'loaded': True, 'loadedTime': 4095.5, 'positionName': 'LEFT', 'positionCoords': [511.6, 335], 'bid': 4.98}, {'imgObject': {}, 'id': 'mac & cheese', 'src': '/static/foodstim60/mac & cheese.jpg', 'key': 'i', 'origWidth': 410, 'origHeight': 410, 'width': 410, 'height': 410, 'widthPercent': 0.45, 'rescaleHeight': False, 'trialN': 28, 'loaded': True, 'loadedTime': 4182.899999856949, 'positionName': 'RIGHT', 'positionCoords': [998.4, 335], 'bid': 0.09}]",48695.5,1669833997277,burrito,mac & cheese,4.98,0.09,-4.890000000000001,burrito,870.7000000476837,871,871.0999999046326,True,u,50083.59999990463,1388.0999999046326,1669833998665,1388,HRV,HRV_0224,2022-11-30 18:50:34
29,"[{'imgObject': {}, 'id': 'grilled chicken strips', 'src': '/static/foodstim60/grilled chicken strips.jpg', 'key': 'u', 'origWidth': 410, 'origHeight': 411, 'width': 410, 'height': 411, 'widthPercent': 0.45, 'rescaleHeight': False, 'trialN': 29, 'loaded': True, 'loadedTime': 4188.5, 'positionName': 'LEFT', 'positionCoords': [511.6, 334.5], 'bid': 6.8100000000000005}, {'imgObject': {}, 'id': 'Grapes', 'src': '/static/foodstim60/Grapes.jpg', 'key': 'i', 'origWidth': 411, 'origHeight': 411, 'width': 411, 'height': 411, 'widthPercent': 0.45, 'rescaleHeight': False, 'trialN': 29, 'loaded': True, 'loadedTime': 3871.899999856949, 'positionName': 'RIGHT', 'positionCoords': [998.4, 334.5], 'bid': 6.84}]",50083.799999952316,1669833998665,grilled chicken strips,Grapes,6.8100000000000005,6.84,0.02999999999999936,grilled chicken strips,890.5999999046326,891,891.0999999046326,True,u,51486.700000047684,1402.9000000953674,1669834000068,1403,HRV,HRV_0224,2022-11-30 18:50:34
30,"[{'imgObject': {}, 'id': 'bagel and cc', 'src': '/static/foodstim60/bagel and cc.jpg', 'key': 'u', 'origWidth': 410, 'origHeight': 410, 'width': 410, 'height': 410, 'widthPercent': 0.45, 'rescaleHeight': False, 'trialN': 30, 'loaded': True, 'loadedTime': 4190.5, 'positionName': 'LEFT', 'positionCoords': [511.6, 335], 'bid': 1.98}, {'imgObject': {}, 'id': 'bagel plain', 'src': '/static/foodstim60/bagel plain.jpg', 'key': 'i', 'origWidth': 410, 'origHeight': 410, 'width': 410, 'height': 410, 'widthPercent': 0.45, 'rescaleHeight': False, 'trialN': 30, 'loaded': True, 'loadedTime': 4170, 'positionName': 'RIGHT', 'positionCoords': [998.4, 335], 'bid': 2.03}]",51486.799999952316,1669834000068,bagel and cc,bagel plain,1.98,2.03,0.04999999999999982,bagel and cc,1287.2999999523163,1288,1287.5999999046326,True,u,53291.59999990463,1804.7999999523163,1669834001873,1805,HRV,HRV_0224,2022-11-30 18:50:34
31,"[{'imgObject': {}, 'id': 'granola w milk', 'src': '/static/foodstim60/granola w milk.jpg', 'key': 'u', 'origWidth': 410, 'origHeight': 410, 'width': 410, 'height': 410, 'widthPercent': 0.45, 'rescaleHeight': False, 'trialN': 31, 'loaded': True, 'loadedTime': 4196.399999856949, 'positionName': 'LEFT', 'positionCoords': [511.6, 335], 'bid': 5.08}, {'imgObject': {}, 'id': 'bagel plain', 'src': '/static/foodstim60/bagel plain.jpg', 'key': 'i', 'origWidth': 410, 'origHeight': 410, 'width': 410, 'height': 410, 'widthPercent': 0.45, 'rescaleHeight': False, 'trialN': 31, 'loaded': True, 'loadedTime': 4162.899999856949, 'positionName': 'RIGHT', 'positionCoords': [998.4, 335], 'bid': 2.03}]",53291.799999952316,1669834001873,granola w milk,bagel plain,5.08,2.03,-3.0500000000000003,granola w milk,1874.5999999046326,1875,1874.9000000953674,True,u,55673.39999985695,2381.5999999046326,1669834004255,2382,HRV,HRV_0224,2022-11-30 18:50:34
32,"[{'imgObject': {}, 'id': 'edamame', 'src': '/static/foodstim60/edamame.jpg', 'key': 'u', 'origWidth': 409, 'origHeight': 410, 'width': 409, 'height': 410, 'widthPercent': 0.45, 'rescaleHeight': False, 'trialN': 32, 'loaded': True, 'loadedTime': 4201.599999904633, 'positionName': 'LEFT', 'positionCoords': [512.6, 335], 'bid': 0.12}, {'imgObject': {}, 'id': 'shreddedwheatwithmilk', 'src': '/static/foodstim60/shreddedwheatwithmilk.jpg', 'key': 'i', 'origWidth': 410, 'origHeight': 410, 'width': 410, 'height': 410, 'widthPercent': 0.45, 'rescaleHeight': False, 'trialN': 32, 'loaded': True, 'loadedTime': 3961.0999999046326, 'positionName': 'RIGHT', 'positionCoords': [998.4, 335], 'bid': 0.03}]",55673.5,1669834004255,edamame,shreddedwheatwithmilk,0.12,0.03,-0.09,shreddedwheatwithmilk,1644.5,1645,1644.7999999523163,True,i,57824.59999990463,2151.0999999046326,1669834006406,2151,HRV,HRV_0224,2022-11-30 18:50:34
33,"[{'imgObject': {}, 'id': 'luckycharms', 'src': '/static/foodstim60/luckycharms.jpg', 'key': 'u', 'origWidth': 410, 'origHeight': 409, 'width': 410, 'height': 409, 'widthPercent': 0.45, 'rescaleHeight': False, 'trialN': 33, 'loaded': True, 'loadedTime': 4102.299999952316, 'positionName': 'LEFT', 'positionCoords': [511.6, 335.5], 'bid': 6.01}, {'imgObject': {}, 'id': 'bagel and cc', 'src': '/static/foodstim60/bagel and cc.jpg', 'key': 'i', 'origWidth': 410, 'origHeight': 410, 'width': 410, 'height': 410, 'widthPercent': 0.45, 'rescaleHeight': False, 'trialN': 33, 'loaded': True, 'loadedTime': 4196.399999856949, 'positionName': 'RIGHT', 'positionCoords': [998.4, 335], 'bid': 1.98}]",57824.700000047684,1669834006406,luckycharms,bagel and cc,6.01,1.98,-4.029999999999999,luckycharms,1165.5,1166,1165.6999998092651,True,u,59496.799999952316,1672.0999999046326,1669834008078,1672,HRV,HRV_0224,2022-11-30 18:50:34
34,"[{'imgObject': {}, 'id': 'blueberries', 'src': '/static/foodstim60/blueberries.jpg', 'key': 'u', 'origWidth': 411, 'origHeight': 411, 'width': 411, 'height': 411, 'widthPercent': 0.45, 'rescaleHeight': False, 'trialN': 34, 'loaded': True, 'loadedTime': 4213, 'positionName': 'LEFT', 'positionCoords': [510.6, 334.5], 'bid': 0.12}, {'imgObject': {}, 'id': 'kiwi', 'src': '/static/foodstim60/kiwi.jpg', 'key': 'i', 'origWidth': 410, 'origHeight': 410, 'width': 410, 'height': 410, 'widthPercent': 0.45, 'rescaleHeight': False, 'trialN': 34, 'loaded': True, 'loadedTime': 4236.299999952316, 'positionName': 'RIGHT', 'positionCoords': [998.4, 335], 'bid': 0.01}]",59497.09999990463,1669834008078,blueberries,kiwi,0.12,0.01,-0.11,blueberries,1148.9000000953674,1150,1149.2000000476837,True,u,61155.39999985695,1658.2999999523163,1669834009737,1659,HRV,HRV_0224,2022-11-30 18:50:34
35,"[{'imgObject': {}, 'id': 'edamame', 'src': '/static/foodstim60/edamame.jpg', 'key': 'u', 'origWidth': 409, 'origHeight': 410, 'width': 409, 'height': 410, 'widthPercent': 0.45, 'rescaleHeight': False, 'trialN': 35, 'loaded': True, 'loadedTime': 4201.899999856949, 'positionName': 'LEFT', 'positionCoords': [512.6, 335], 'bid': 0.12}, {'imgObject': {}, 'id': 'mango', 'src': '/static/foodstim60/mango.jpg', 'key': 'i', 'origWidth': 411, 'origHeight': 411, 'width': 411, 'height': 411, 'widthPercent': 0.45, 'rescaleHeight': False, 'trialN': 35, 'loaded': True, 'loadedTime': 4252.599999904633, 'positionName': 'RIGHT', 'positionCoords': [998.4, 334.5], 'bid': 7.98}]",61155.59999990463,1669834009737,edamame,mango,0.12,7.98,7.86,mango,762.5,763,762.6000001430511,True,i,62429.09999990463,1273.5,1669834011010,1273,HRV,HRV_0224,2022-11-30 18:50:34
36,"[{'imgObject': {}, 'id': 'chickenfingers', 'src': '/static/foodstim60/chickenfingers.jpg', 'key': 'u', 'origWidth': 410, 'origHeight': 410, 'width': 410, 'height': 410, 'widthPercent': 0.45, 'rescaleHeight': False, 'trialN': 36, 'loaded': True, 'loadedTime': 4255.299999952316, 'positionName': 'LEFT', 'positionCoords': [511.6, 335], 'bid': 8.59}, {'imgObject': {}, 'id': 'rigatoni and sauce', 'src': '/static/foodstim60/rigatoni and sauce.jpg', 'key': 'i', 'origWidth': 410, 'origHeight': 411, 'width': 410, 'height': 411, 'widthPercent': 0.45, 'rescaleHeight': False, 'trialN': 36, 'loaded': True, 'loadedTime': 4273.799999952316, 'positionName': 'RIGHT', 'positionCoords': [998.4, 334.5], 'bid': 7.77}]",62429.39999985695,1669834011011,chickenfingers,rigatoni and sauce,8.59,7.77,-0.8200000000000003,rigatoni and sauce,744.7000000476837,745,744.9000000953674,True,i,63691.39999985695,1262.0,1669834012273,1262,HRV,HRV_0224,2022-11-30 18:50:34
37,"[{'imgObject': {}, 'id': 'cheerios', 'src': '/static/foodstim60/cheerios.jpg', 'key': 'u', 'origWidth': 409, 'origHeight': 410, 'width': 409, 'height': 410, 'widthPercent': 0.45, 'rescaleHeight': False, 'trialN': 37, 'loaded': True, 'loadedTime': 4276.200000047684, 'positionName': 'LEFT', 'positionCoords': [512.6, 335], 'bid': 5.07}, {'imgObject': {}, 'id': 'salmon', 'src': '/static/foodstim60/salmon.jpg', 'key': 'i', 'origWidth': 410, 'origHeight': 409, 'width': 410, 'height': 409, 'widthPercent': 0.45, 'rescaleHeight': False, 'trialN': 37, 'loaded': True, 'loadedTime': 4276.700000047684, 'positionName': 'RIGHT', 'positionCoords': [998.4, 335.5], 'bid': 0}]",63691.59999990463,1669834012273,cheerios,salmon,5.07,0.0,-5.07,cheerios,1346.4000000953674,1347,1346.7000000476837,True,u,65552.79999995232,1861.2000000476837,1669834014134,1861,HRV,HRV_0224,2022-11-30 18:50:34
38,"[{'imgObject': {}, 'id': 'turkeysandwich', 'src': '/static/foodstim60/turkeysandwich.jpg', 'key': 'u', 'origWidth': 409, 'origHeight': 409, 'width': 409, 'height': 409, 'widthPercent': 0.45, 'rescaleHeight': False, 'trialN': 38, 'loaded': True, 'loadedTime': 4098.700000047684, 'positionName': 'LEFT', 'positionCoords': [512.6, 335.5], 'bid': 8.11}, {'imgObject': {}, 'id': 'fried eggs', 'src': '/static/foodstim60/fried eggs.jpg', 'key': 'i', 'origWidth': 410, 'origHeight': 410, 'width': 410, 'height': 410, 'widthPercent': 0.45, 'rescaleHeight': False, 'trialN': 38, 'loaded': True, 'loadedTime': 4295.200000047684, 'positionName': 'RIGHT', 'positionCoords': [998.4, 335], 'bid': 8.16}]",65553.0,1669834014134,turkeysandwich,fried eggs,8.11,8.16,0.05000000000000071,turkeysandwich,1165.2000000476837,1166,1165.3999998569489,True,u,67233.89999985695,1680.8999998569489,1669834015815,1681,HRV,HRV_0224,2022-11-30 18:50:34
39,"[{'imgObject': {}, 'id': 'omelette', 'src': '/static/foodstim60/omelette.jpg', 'key': 'u', 'origWidth': 410, 'origHeight': 409, 'width': 410, 'height': 409, 'widthPercent': 0.45, 'rescaleHeight': False, 'trialN': 39, 'loaded': True, 'loadedTime': 4133.399999856949, 'positionName': 'LEFT', 'positionCoords': [511.6, 335.5], 'bid': 5.73}, {'imgObject': {}, 'id': 'veggieswithdip', 'src': '/static/foodstim60/veggieswithdip.jpg', 'key': 'i', 'origWidth': 409, 'origHeight': 409, 'width': 409, 'height': 409, 'widthPercent': 0.45, 'rescaleHeight': False, 'trialN': 39, 'loaded': True, 'loadedTime': 3929.0999999046326, 'positionName': 'RIGHT', 'positionCoords': [998.4, 335.5], 'bid': 0}]",67234.29999995232,1669834015816,omelette,veggieswithdip,5.73,0.0,-5.73,omelette,827.7999999523163,828,828.0999999046326,True,u,68576.5,1342.2000000476837,1669834017158,1342,HRV,HRV_0224,2022-11-30 18:50:34
40,"[{'imgObject': {}, 'id': 'blueberries', 'src': '/static/foodstim60/blueberries.jpg', 'key': 'u', 'origWidth': 411, 'origHeight': 411, 'width': 411, 'height': 411, 'widthPercent': 0.45, 'rescaleHeight': False, 'trialN': 40, 'loaded': True, 'loadedTime': 4209.700000047684, 'positionName': 'LEFT', 'positionCoords': [510.6, 334.5], 'bid': 0.12}, {'imgObject': {}, 'id': 'sushi w_condiments', 'src': '/static/foodstim60/sushi w_condiments.jpg', 'key': 'i', 'origWidth': 410, 'origHeight': 410, 'width': 410, 'height': 410, 'widthPercent': 0.45, 'rescaleHeight': False, 'trialN': 40, 'loaded': True, 'loadedTime': 4318.700000047684, 'positionName': 'RIGHT', 'positionCoords': [998.4, 335], 'bid': 0.11}]",68576.70000004768,1669834017158,blueberries,sushi w_condiments,0.12,0.11,-0.009999999999999995,blueberries,949.2999999523163,950,949.5999999046326,True,u,70044.70000004768,1468.0,1669834018626,1468,HRV,HRV_0224,2022-11-30 18:50:34
41,"[{'imgObject': {}, 'id': 'cocktailshrimp', 'src': '/static/foodstim60/cocktailshrimp.jpg', 'key': 'u', 'origWidth': 410, 'origHeight': 410, 'width': 410, 'height': 410, 'widthPercent': 0.45, 'rescaleHeight': False, 'trialN': 41, 'loaded': True, 'loadedTime': 4044, 'positionName': 'LEFT', 'positionCoords': [511.6, 335], 'bid': 0.05}, {'imgObject': {}, 'id': 'seaweed', 'src': '/static/foodstim60/seaweed.jpg', 'key': 'i', 'origWidth': 410, 'origHeight': 410, 'width': 410, 'height': 410, 'widthPercent': 0.45, 'rescaleHeight': False, 'trialN': 41, 'loaded': True, 'loadedTime': 4062.899999856949, 'positionName': 'RIGHT', 'positionCoords': [998.4, 335], 'bid': 0.06}]",70044.89999985695,1669834018626,cocktailshrimp,seaweed,0.05,0.06,0.009999999999999995,cocktailshrimp,1977.2000000476837,1978,1977.4000000953674,True,u,72525.5,2480.600000143051,1669834021107,2481,HRV,HRV_0224,2022-11-30 18:50:34
42,"[{'imgObject': {}, 'id': 'granola w milk', 'src': '/static/foodstim60/granola w milk.jpg', 'key': 'u', 'origWidth': 410, 'origHeight': 410, 'width': 410, 'height': 410, 'widthPercent': 0.45, 'rescaleHeight': False, 'trialN': 42, 'loaded': True, 'loadedTime': 4197.299999952316, 'positionName': 'LEFT', 'positionCoords': [511.6, 335], 'bid': 5.08}, {'imgObject': {}, 'id': 'cheerios', 'src': '/static/foodstim60/cheerios.jpg', 'key': 'i', 'origWidth': 409, 'origHeight': 410, 'width': 409, 'height': 410, 'widthPercent': 0.45, 'rescaleHeight': False, 'trialN': 42, 'loaded': True, 'loadedTime': 4276, 'positionName': 'RIGHT', 'positionCoords': [998.4, 335], 'bid': 5.07}]",72525.5,1669834021107,granola w milk,cheerios,5.08,5.07,-0.009999999999999787,cheerios,1720.5,1721,1720.7000000476837,True,i,74759.09999990463,2233.5999999046326,1669834023341,2234,HRV,HRV_0224,2022-11-30 18:50:34
43,"[{'imgObject': {}, 'id': 'mango', 'src': '/static/foodstim60/mango.jpg', 'key': 'u', 'origWidth': 411, 'origHeight': 411, 'width': 411, 'height': 411, 'widthPercent': 0.45, 'rescaleHeight': False, 'trialN': 43, 'loaded': True, 'loadedTime': 4252.099999904633, 'positionName': 'LEFT', 'positionCoords': [510.6, 334.5], 'bid': 7.98}, {'imgObject': {}, 'id': 'turkey sandwich', 'src': '/static/foodstim60/turkey sandwich.jpg', 'key': 'i', 'origWidth': 409, 'origHeight': 409, 'width': 409, 'height': 409, 'widthPercent': 0.45, 'rescaleHeight': False, 'trialN': 43, 'loaded': True, 'loadedTime': 3708.399999856949, 'positionName': 'RIGHT', 'positionCoords': [998.4, 335.5], 'bid': 8.05}]",74759.29999995232,1669834023341,mango,turkey sandwich,7.98,8.05,0.07000000000000028,mango,1094.9000000953674,1095,1095.2999999523163,True,u,76359.5,1600.2000000476837,1669834024941,1600,HRV,HRV_0224,2022-11-30 18:50:34
44,"[{'imgObject': {}, 'id': 'froot loops w milk', 'src': '/static/foodstim60/froot loops w milk.jpg', 'key': 'u', 'origWidth': 410, 'origHeight': 410, 'width': 410, 'height': 410, 'widthPercent': 0.45, 'rescaleHeight': False, 'trialN': 44, 'loaded': True, 'loadedTime': 3725, 'positionName': 'LEFT', 'positionCoords': [511.6, 335], 'bid': 5.97}, {'imgObject': {}, 'id': 'baked potato', 'src': '/static/foodstim60/baked potato.jpg', 'key': 'i', 'origWidth': 409, 'origHeight': 410, 'width': 409, 'height': 410, 'widthPercent': 0.45, 'rescaleHeight': False, 'trialN': 44, 'loaded': True, 'loadedTime': 3813.7000000476837, 'positionName': 'RIGHT', 'positionCoords': [998.4, 335], 'bid': 1.76}]",76359.59999990463,1669834024941,froot loops w milk,baked potato,5.97,1.76,-4.21,froot loops w milk,1054.5,1055,1054.7999999523163,True,u,77918.0,1558.4000000953674,1669834026499,1558,HRV,HRV_0224,2022-11-30 18:50:34
45,"[{'imgObject': {}, 'id': 'edamame', 'src': '/static/foodstim60/edamame.jpg', 'key': 'u', 'origWidth': 409, 'origHeight': 410, 'width': 409, 'height': 410, 'widthPercent': 0.45, 'rescaleHeight': False, 'trialN': 45, 'loaded': True, 'loadedTime': 4202.200000047684, 'positionName': 'LEFT', 'positionCoords': [512.6, 335], 'bid': 0.12}, {'imgObject': {}, 'id': 'olives', 'src': '/static/foodstim60/olives.jpg', 'key': 'i', 'origWidth': 410, 'origHeight': 410, 'width': 410, 'height': 410, 'widthPercent': 0.45, 'rescaleHeight': False, 'trialN': 45, 'loaded': True, 'loadedTime': 4319.099999904633, 'positionName': 'RIGHT', 'positionCoords': [998.4, 335], 'bid': 0.11}]",77918.09999990463,1669834026499,edamame,olives,0.12,0.11,-0.009999999999999995,olives,1735.9000000953674,1737,1736.1000001430511,True,i,80162.59999990463,2244.5,1669834028744,2245,HRV,HRV_0224,2022-11-30 18:50:34
46,"[{'imgObject': {}, 'id': 'steak', 'src': '/static/foodstim60/steak.jpg', 'key': 'u', 'origWidth': 410, 'origHeight': 410, 'width': 410, 'height': 410, 'widthPercent': 0.45, 'rescaleHeight': False, 'trialN': 46, 'loaded': True, 'loadedTime': 3893.7999999523163, 'positionName': 'LEFT', 'positionCoords': [511.6, 335], 'bid': 9.92}, {'imgObject': {}, 'id': 'hotdog w must', 'src': '/static/foodstim60/hotdog w must.jpg', 'key': 'i', 'origWidth': 409, 'origHeight': 409, 'width': 409, 'height': 409, 'widthPercent': 0.45, 'rescaleHeight': False, 'trialN': 46, 'loaded': True, 'loadedTime': 3910.7000000476837, 'positionName': 'RIGHT', 'positionCoords': [998.4, 335.5], 'bid': 7.140000000000001}]",80162.79999995232,1669834028744,steak,hotdog w must,9.92,7.140000000000001,-2.7799999999999994,steak,867.2999999523163,868,868.0,True,u,81534.70000004768,1371.9000000953674,1669834030116,1372,HRV,HRV_0224,2022-11-30 18:50:34
47,"[{'imgObject': {}, 'id': 'rigatoni and sauce', 'src': '/static/foodstim60/rigatoni and sauce.jpg', 'key': 'u', 'origWidth': 410, 'origHeight': 411, 'width': 410, 'height': 411, 'widthPercent': 0.45, 'rescaleHeight': False, 'trialN': 47, 'loaded': True, 'loadedTime': 4273.700000047684, 'positionName': 'LEFT', 'positionCoords': [511.6, 334.5], 'bid': 7.77}, {'imgObject': {}, 'id': 'froot loops w milk', 'src': '/static/foodstim60/froot loops w milk.jpg', 'key': 'i', 'origWidth': 410, 'origHeight': 410, 'width': 410, 'height': 410, 'widthPercent': 0.45, 'rescaleHeight': False, 'trialN': 47, 'loaded': True, 'loadedTime': 3721.2999999523163, 'positionName': 'RIGHT', 'positionCoords': [998.4, 335], 'bid': 5.97}]",81534.79999995232,1669834030116,rigatoni and sauce,froot loops w milk,7.77,5.97,-1.7999999999999998,rigatoni and sauce,823.2000000476837,824,823.4000000953674,True,u,82871.5,1336.7000000476837,1669834031453,1337,HRV,HRV_0224,2022-11-30 18:50:34
48,"[{'imgObject': {}, 'id': 'chicken nuggets2', 'src': '/static/foodstim60/chicken nuggets2.jpg', 'key': 'u', 'origWidth': 410, 'origHeight': 409, 'width': 410, 'height': 409, 'widthPercent': 0.45, 'rescaleHeight': False, 'trialN': 48, 'loaded': True, 'loadedTime': 3732.7000000476837, 'positionName': 'LEFT', 'positionCoords': [511.6, 335.5], 'bid': 7.7}, {'imgObject': {}, 'id': 'sushi w_condiments', 'src': '/static/foodstim60/sushi w_condiments.jpg', 'key': 'i', 'origWidth': 410, 'origHeight': 410, 'width': 410, 'height': 410, 'widthPercent': 0.45, 'rescaleHeight': False, 'trialN': 48, 'loaded': True, 'loadedTime': 4317.899999856949, 'positionName': 'RIGHT', 'positionCoords': [998.4, 335], 'bid': 0.11}]",82871.59999990463,1669834031453,chicken nuggets2,sushi w_condiments,7.7,0.11,-7.59,chicken nuggets2,846.5,847,846.6000001430511,True,u,84234.09999990463,1362.5,1669834032815,1362,HRV,HRV_0224,2022-11-30 18:50:34
49,"[{'imgObject': {}, 'id': 'rigatoni', 'src': '/static/foodstim60/rigatoni.jpg', 'key': 'u', 'origWidth': 411, 'origHeight': 411, 'width': 411, 'height': 411, 'widthPercent': 0.45, 'rescaleHeight': False, 'trialN': 49, 'loaded': True, 'loadedTime': 3727.7999999523163, 'positionName': 'LEFT', 'positionCoords': [510.6, 334.5], 'bid': 6.16}, {'imgObject': {}, 'id': 'mango', 'src': '/static/foodstim60/mango.jpg', 'key': 'i', 'origWidth': 411, 'origHeight': 411, 'width': 411, 'height': 411, 'widthPercent': 0.45, 'rescaleHeight': False, 'trialN': 49, 'loaded': True, 'loadedTime': 4236.5, 'positionName': 'RIGHT', 'positionCoords': [998.4, 334.5], 'bid': 7.98}]",84234.39999985695,1669834032816,rigatoni,mango,6.16,7.98,1.8200000000000003,mango,891.6000001430511,892,891.8000001907349,True,i,85634.20000004768,1399.8000001907349,1669834034216,1400,HRV,HRV_0224,2022-11-30 18:50:34
50,"[{'imgObject': {}, 'id': 'fruitsalad', 'src': '/static/foodstim60/fruitsalad.jpg', 'key': 'u', 'origWidth': 410, 'origHeight': 410, 'width': 410, 'height': 410, 'widthPercent': 0.45, 'rescaleHeight': False, 'trialN': 50, 'loaded': True, 'loadedTime': 4172.5, 'positionName': 'LEFT', 'positionCoords': [511.6, 335], 'bid': 0.06}, {'imgObject': {}, 'id': 'salmon', 'src': '/static/foodstim60/salmon.jpg', 'key': 'i', 'origWidth': 410, 'origHeight': 409, 'width': 410, 'height': 409, 'widthPercent': 0.45, 'rescaleHeight': False, 'trialN': 50, 'loaded': True, 'loadedTime': 4294.099999904633, 'positionName': 'RIGHT', 'positionCoords': [998.4, 335.5], 'bid': 0}]",85634.29999995232,1669834034216,fruitsalad,salmon,0.06,0.0,-0.06,fruitsalad,1691.7000000476837,1692,1691.9000000953674,True,u,87834.59999990463,2200.2999999523163,1669834036416,2200,HRV,HRV_0224,2022-11-30 18:50:34
51,"[{'imgObject': {}, 'id': 'chickenfingers', 'src': '/static/foodstim60/chickenfingers.jpg', 'key': 'u', 'origWidth': 410, 'origHeight': 410, 'width': 410, 'height': 410, 'widthPercent': 0.45, 'rescaleHeight': False, 'trialN': 51, 'loaded': True, 'loadedTime': 4253, 'positionName': 'LEFT', 'positionCoords': [511.6, 335], 'bid': 8.59}, {'imgObject': {}, 'id': 'corn cob', 'src': '/static/foodstim60/corn cob.jpg', 'key': 'i', 'origWidth': 411, 'origHeight': 411, 'width': 411, 'height': 411, 'widthPercent': 0.45, 'rescaleHeight': False, 'trialN': 51, 'loaded': True, 'loadedTime': 3716.2000000476837, 'positionName': 'RIGHT', 'positionCoords': [998.4, 334.5], 'bid': 6.69}]",87834.70000004768,1669834036416,chickenfingers,corn cob,8.59,6.69,-1.8999999999999995,chickenfingers,1203.3999998569489,1204,1204.1999998092651,True,u,89551.09999990463,1716.3999998569489,1669834038133,1717,HRV,HRV_0224,2022-11-30 18:50:34
52,"[{'imgObject': {}, 'id': 'blackbeanswithrice', 'src': '/static/foodstim60/blackbeanswithrice.jpg', 'key': 'u', 'origWidth': 410, 'origHeight': 410, 'width': 410, 'height': 410, 'widthPercent': 0.45, 'rescaleHeight': False, 'trialN': 52, 'loaded': True, 'loadedTime': 3711.899999856949, 'positionName': 'LEFT', 'positionCoords': [511.6, 335], 'bid': 0.15}, {'imgObject': {}, 'id': 'avocado', 'src': '/static/foodstim60/avocado.jpg', 'key': 'i', 'origWidth': 409, 'origHeight': 409, 'width': 409, 'height': 409, 'widthPercent': 0.45, 'rescaleHeight': False, 'trialN': 52, 'loaded': True, 'loadedTime': 4321.799999952316, 'positionName': 'RIGHT', 'positionCoords': [998.4, 335.5], 'bid': 0.11}]",89551.39999985695,1669834038133,blackbeanswithrice,avocado,0.15,0.11,-0.039999999999999994,blackbeanswithrice,1398.6000001430511,1399,1398.8000001907349,True,u,91468.29999995232,1916.9000000953674,1669834040050,1917,HRV,HRV_0224,2022-11-30 18:50:34
53,"[{'imgObject': {}, 'id': 'Grapes', 'src': '/static/foodstim60/Grapes.jpg', 'key': 'u', 'origWidth': 411, 'origHeight': 411, 'width': 411, 'height': 411, 'widthPercent': 0.45, 'rescaleHeight': False, 'trialN': 53, 'loaded': True, 'loadedTime': 3892.5999999046326, 'positionName': 'LEFT', 'positionCoords': [510.6, 334.5], 'bid': 6.84}, {'imgObject': {}, 'id': 'turkey sandwich', 'src': '/static/foodstim60/turkey sandwich.jpg', 'key': 'i', 'origWidth': 409, 'origHeight': 409, 'width': 409, 'height': 409, 'widthPercent': 0.45, 'rescaleHeight': False, 'trialN': 53, 'loaded': True, 'loadedTime': 3709.2999999523163, 'positionName': 'RIGHT', 'positionCoords': [998.4, 335.5], 'bid': 8.05}]",91468.5,1669834040050,Grapes,turkey sandwich,6.84,8.05,1.2100000000000009,turkey sandwich,753.5,754,753.7999999523163,True,i,92739.09999990463,1270.5999999046326,1669834041320,1270,HRV,HRV_0224,2022-11-30 18:50:34
54,"[{'imgObject': {}, 'id': 'raspberries', 'src': '/static/foodstim60/raspberries.jpg', 'key': 'u', 'origWidth': 411, 'origHeight': 411, 'width': 411, 'height': 411, 'widthPercent': 0.45, 'rescaleHeight': False, 'trialN': 54, 'loaded': True, 'loadedTime': 3857.5999999046326, 'positionName': 'LEFT', 'positionCoords': [510.6, 334.5], 'bid': 0.03}, {'imgObject': {}, 'id': 'blackbeanswithrice', 'src': '/static/foodstim60/blackbeanswithrice.jpg', 'key': 'i', 'origWidth': 410, 'origHeight': 410, 'width': 410, 'height': 410, 'widthPercent': 0.45, 'rescaleHeight': False, 'trialN': 54, 'loaded': True, 'loadedTime': 3710.7000000476837, 'positionName': 'RIGHT', 'positionCoords': [998.4, 335], 'bid': 0.15}]",92739.20000004768,1669834041320,raspberries,blackbeanswithrice,0.03,0.15,0.12,raspberries,1019.0,1020,1019.1999998092651,True,u,94270.29999995232,1531.0999999046326,1669834042852,1532,HRV,HRV_0224,2022-11-30 18:50:34
55,"[{'imgObject': {}, 'id': 'roastedpotatoes', 'src': '/static/foodstim60/roastedpotatoes.jpg', 'key': 'u', 'origWidth': 409, 'origHeight': 410, 'width': 409, 'height': 410, 'widthPercent': 0.45, 'rescaleHeight': False, 'trialN': 55, 'loaded': True, 'loadedTime': 3729, 'positionName': 'LEFT', 'positionCoords': [512.6, 335], 'bid': 7.42}, {'imgObject': {}, 'id': 'avocado', 'src': '/static/foodstim60/avocado.jpg', 'key': 'i', 'origWidth': 409, 'origHeight': 409, 'width': 409, 'height': 409, 'widthPercent': 0.45, 'rescaleHeight': False, 'trialN': 55, 'loaded': True, 'loadedTime': 4321.599999904633, 'positionName': 'RIGHT', 'positionCoords': [998.4, 335.5], 'bid': 0.11}]",94270.39999985695,1669834042852,roastedpotatoes,avocado,7.42,0.11,-7.31,roastedpotatoes,935.6000001430511,936,936.0,True,u,95722.89999985695,1452.5,1669834044304,1452,HRV,HRV_0224,2022-11-30 18:50:34
56,"[{'imgObject': {}, 'id': 'turkey sandwich', 'src': '/static/foodstim60/turkey sandwich.jpg', 'key': 'u', 'origWidth': 409, 'origHeight': 409, 'width': 409, 'height': 409, 'widthPercent': 0.45, 'rescaleHeight': False, 'trialN': 56, 'loaded': True, 'loadedTime': 3701.899999856949, 'positionName': 'LEFT', 'positionCoords': [512.6, 335.5], 'bid': 8.05}, {'imgObject': {}, 'id': 'steak', 'src': '/static/foodstim60/steak.jpg', 'key': 'i', 'origWidth': 410, 'origHeight': 410, 'width': 410, 'height': 410, 'widthPercent': 0.45, 'rescaleHeight': False, 'trialN': 56, 'loaded': True, 'loadedTime': 3906.5999999046326, 'positionName': 'RIGHT', 'positionCoords': [998.4, 335], 'bid': 9.92}]",95723.09999990463,1669834044304,turkey sandwich,steak,8.05,9.92,1.8699999999999992,steak,930.9000000953674,932,931.2000000476837,True,i,97160.89999985695,1437.7999999523163,1669834045742,1438,HRV,HRV_0224,2022-11-30 18:50:34
57,"[{'imgObject': {}, 'id': 'apple slices', 'src': '/static/foodstim60/apple slices.jpg', 'key': 'u', 'origWidth': 409, 'origHeight': 410, 'width': 409, 'height': 410, 'widthPercent': 0.45, 'rescaleHeight': False, 'trialN': 57, 'loaded': True, 'loadedTime': 4323, 'positionName': 'LEFT', 'positionCoords': [512.6, 335], 'bid': 8.68}, {'imgObject': {}, 'id': 'pear', 'src': '/static/foodstim60/pear.jpg', 'key': 'i', 'origWidth': 411, 'origHeight': 410, 'width': 411, 'height': 410, 'widthPercent': 0.45, 'rescaleHeight': False, 'trialN': 57, 'loaded': True, 'loadedTime': 4343.099999904633, 'positionName': 'RIGHT', 'positionCoords': [998.4, 335], 'bid': 7.83}]",97161.09999990463,1669834045742,apple slices,pear,8.68,7.83,-0.8499999999999996,apple slices,1621.1000001430511,1622,1621.4000000953674,True,u,99299.29999995232,2138.2000000476837,1669834047881,2139,HRV,HRV_0224,2022-11-30 18:50:34
58,"[{'imgObject': {}, 'id': 'ice cream sundae 002', 'src': '/static/foodstim60/ice cream sundae 002.jpg', 'key': 'u', 'origWidth': 409, 'origHeight': 409, 'width': 409, 'height': 409, 'widthPercent': 0.45, 'rescaleHeight': False, 'trialN': 58, 'loaded': True, 'loadedTime': 3717.0999999046326, 'positionName': 'LEFT', 'positionCoords': [512.6, 335.5], 'bid': 5.07}, {'imgObject': {}, 'id': 'olives', 'src': '/static/foodstim60/olives.jpg', 'key': 'i', 'origWidth': 410, 'origHeight': 410, 'width': 410, 'height': 410, 'widthPercent': 0.45, 'rescaleHeight': False, 'trialN': 58, 'loaded': True, 'loadedTime': 4319.899999856949, 'positionName': 'RIGHT', 'positionCoords': [998.4, 335], 'bid': 0.11}]",99299.39999985695,1669834047881,ice cream sundae 002,olives,5.07,0.11,-4.96,ice cream sundae 002,1106.8000001907349,1107,1107.1000001430511,True,u,100916.59999990463,1617.2000000476837,1669834049498,1617,HRV,HRV_0224,2022-11-30 18:50:34
59,"[{'imgObject': {}, 'id': 'Tribe humus pita', 'src': '/static/foodstim60/Tribe humus pita.jpg', 'key': 'u', 'origWidth': 411, 'origHeight': 411, 'width': 411, 'height': 411, 'widthPercent': 0.45, 'rescaleHeight': False, 'trialN': 59, 'loaded': True, 'loadedTime': 3815.2999999523163, 'positionName': 'LEFT', 'positionCoords': [510.6, 334.5], 'bid': 6.53}, {'imgObject': {}, 'id': 'burrito', 'src': '/static/foodstim60/burrito.jpg', 'key': 'i', 'origWidth': 410, 'origHeight': 410, 'width': 410, 'height': 410, 'widthPercent': 0.45, 'rescaleHeight': False, 'trialN': 59, 'loaded': True, 'loadedTime': 4094.2000000476837, 'positionName': 'RIGHT', 'positionCoords': [998.4, 335], 'bid': 4.98}]",100916.79999995232,1669834049498,Tribe humus pita,burrito,6.53,4.98,-1.5499999999999998,Tribe humus pita,1281.2000000476837,1282,1281.5,True,u,102713.79999995232,1797.0,1669834051295,1797,HRV,HRV_0224,2022-11-30 18:50:34
60,"[{'imgObject': {}, 'id': 'olives', 'src': '/static/foodstim60/olives.jpg', 'key': 'u', 'origWidth': 410, 'origHeight': 410, 'width': 410, 'height': 410, 'widthPercent': 0.45, 'rescaleHeight': False, 'trialN': 60, 'loaded': True, 'loadedTime': 4319.799999952316, 'positionName': 'LEFT', 'positionCoords': [511.6, 335], 'bid': 0.11}, {'imgObject': {}, 'id': 'avocado', 'src': '/static/foodstim60/avocado.jpg', 'key': 'i', 'origWidth': 409, 'origHeight': 409, 'width': 409, 'height': 409, 'widthPercent': 0.45, 'rescaleHeight': False, 'trialN': 60, 'loaded': True, 'loadedTime': 4321.700000047684, 'positionName': 'RIGHT', 'positionCoords': [998.4, 335.5], 'bid': 0.11}]",102714.0,1669834051295,olives,avocado,0.11,0.11,0.0,olives,1444.0,1445,1444.2000000476837,True,u,104667.29999995232,1953.2999999523163,1669834053249,1954,HRV,HRV_0224,2022-11-30 18:50:34
61,"[{'imgObject': {}, 'id': 'grilled chicken strips', 'src': '/static/foodstim60/grilled chicken strips.jpg', 'key': 'u', 'origWidth': 410, 'origHeight': 411, 'width': 410, 'height': 411, 'widthPercent': 0.45, 'rescaleHeight': False, 'trialN': 61, 'loaded': True, 'loadedTime': 4185.200000047684, 'positionName': 'LEFT', 'positionCoords': [511.6, 334.5], 'bid': 6.8100000000000005}, {'imgObject': {}, 'id': 'mango', 'src': '/static/foodstim60/mango.jpg', 'key': 'i', 'origWidth': 411, 'origHeight': 411, 'width': 411, 'height': 411, 'widthPercent': 0.45, 'rescaleHeight': False, 'trialN': 61, 'loaded': True, 'loadedTime': 4252.5, 'positionName': 'RIGHT', 'positionCoords': [998.4, 334.5], 'bid': 7.98}]",104667.5,1669834053249,grilled chicken strips,mango,6.8100000000000005,7.98,1.17,grilled chicken strips,938.7000000476837,939,938.8999998569489,True,u,106114.09999990463,1446.5999999046326,1669834054695,1446,HRV,HRV_0224,2022-11-30 18:50:34
62,"[{'imgObject': {}, 'id': 'kiwi', 'src': '/static/foodstim60/kiwi.jpg', 'key': 'u', 'origWidth': 410, 'origHeight': 410, 'width': 410, 'height': 410, 'widthPercent': 0.45, 'rescaleHeight': False, 'trialN': 62, 'loaded': True, 'loadedTime': 4236.200000047684, 'positionName': 'LEFT', 'positionCoords': [511.6, 335], 'bid': 0.01}, {'imgObject': {}, 'id': 'fruitsalad', 'src': '/static/foodstim60/fruitsalad.jpg', 'key': 'i', 'origWidth': 410, 'origHeight': 410, 'width': 410, 'height': 410, 'widthPercent': 0.45, 'rescaleHeight': False, 'trialN': 62, 'loaded': True, 'loadedTime': 4173.299999952316, 'positionName': 'RIGHT', 'positionCoords': [998.4, 335], 'bid': 0.06}]",106114.29999995232,1669834054696,kiwi,fruitsalad,0.01,0.06,0.049999999999999996,fruitsalad,1347.7000000476837,1348,1348.0,True,i,107976.59999990463,1862.2999999523163,1669834056558,1862,HRV,HRV_0224,2022-11-30 18:50:34
63,"[{'imgObject': {}, 'id': 'froot loops w milk', 'src': '/static/foodstim60/froot loops w milk.jpg', 'key': 'u', 'origWidth': 410, 'origHeight': 410, 'width': 410, 'height': 410, 'widthPercent': 0.45, 'rescaleHeight': False, 'trialN': 63, 'loaded': True, 'loadedTime': 3724.899999856949, 'positionName': 'LEFT', 'positionCoords': [511.6, 335], 'bid': 5.97}, {'imgObject': {}, 'id': 'lox', 'src': '/static/foodstim60/lox.jpg', 'key': 'i', 'origWidth': 410, 'origHeight': 411, 'width': 410, 'height': 411, 'widthPercent': 0.45, 'rescaleHeight': False, 'trialN': 63, 'loaded': True, 'loadedTime': 3657, 'positionName': 'RIGHT', 'positionCoords': [998.4, 334.5], 'bid': 0}]",107976.79999995232,1669834056558,froot loops w milk,lox,5.97,0.0,-5.97,froot loops w milk,765.2999999523163,766,765.5,True,u,109249.09999990463,1272.2999999523163,1669834057830,1272,HRV,HRV_0224,2022-11-30 18:50:34
64,"[{'imgObject': {}, 'id': 'blueberries', 'src': '/static/foodstim60/blueberries.jpg', 'key': 'u', 'origWidth': 411, 'origHeight': 411, 'width': 411, 'height': 411, 'widthPercent': 0.45, 'rescaleHeight': False, 'trialN': 64, 'loaded': True, 'loadedTime': 4213, 'positionName': 'LEFT', 'positionCoords': [510.6, 334.5], 'bid': 0.12}, {'imgObject': {}, 'id': 'cantaloupe', 'src': '/static/foodstim60/cantaloupe.jpg', 'key': 'i', 'origWidth': 409, 'origHeight': 409, 'width': 409, 'height': 409, 'widthPercent': 0.45, 'rescaleHeight': False, 'trialN': 64, 'loaded': True, 'loadedTime': 3979.899999856949, 'positionName': 'RIGHT', 'positionCoords': [998.4, 335.5], 'bid': 0.12}]",109249.20000004768,1669834057830,blueberries,cantaloupe,0.12,0.12,0.0,cantaloupe,1228.8999998569489,1230,1229.0999999046326,True,i,110995.29999995232,1746.0999999046326,1669834059577,1747,HRV,HRV_0224,2022-11-30 18:50:34
65,"[{'imgObject': {}, 'id': 'eggs', 'src': '/static/foodstim60/eggs.jpg', 'key': 'u', 'origWidth': 409, 'origHeight': 409, 'width': 409, 'height': 409, 'widthPercent': 0.45, 'rescaleHeight': False, 'trialN': 65, 'loaded': True, 'loadedTime': 4343.799999952316, 'positionName': 'LEFT', 'positionCoords': [512.6, 335.5], 'bid': 7.31}, {'imgObject': {}, 'id': 'Grapes', 'src': '/static/foodstim60/Grapes.jpg', 'key': 'i', 'origWidth': 411, 'origHeight': 411, 'width': 411, 'height': 411, 'widthPercent': 0.45, 'rescaleHeight': False, 'trialN': 65, 'loaded': True, 'loadedTime': 3858.5999999046326, 'positionName': 'RIGHT', 'positionCoords': [998.4, 334.5], 'bid': 6.84}]",110995.5,1669834059577,eggs,Grapes,7.31,6.84,-0.46999999999999975,eggs,866.5,867,867.0,True,u,112380.89999985695,1385.3999998569489,1669834060962,1385,HRV,HRV_0224,2022-11-30 18:50:34
66,"[{'imgObject': {}, 'id': 'cherry tomato', 'src': '/static/foodstim60/cherry tomato.jpg', 'key': 'u', 'origWidth': 410, 'origHeight': 410, 'width': 410, 'height': 410, 'widthPercent': 0.45, 'rescaleHeight': False, 'trialN': 66, 'loaded': True, 'loadedTime': 4064.399999856949, 'positionName': 'LEFT', 'positionCoords': [511.6, 335], 'bid': 3.17}, {'imgObject': {}, 'id': 'raisin bran w milk', 'src': '/static/foodstim60/raisin bran w milk.jpg', 'key': 'i', 'origWidth': 411, 'origHeight': 411, 'width': 411, 'height': 411, 'widthPercent': 0.45, 'rescaleHeight': False, 'trialN': 66, 'loaded': True, 'loadedTime': 3756.0999999046326, 'positionName': 'RIGHT', 'positionCoords': [998.4, 334.5], 'bid': 4.95}]",112381.0,1669834060962,cherry tomato,raisin bran w milk,3.17,4.95,1.7800000000000002,cherry tomato,857.0,857,857.2000000476837,True,u,113756.09999990463,1375.0999999046326,1669834062337,1375,HRV,HRV_0224,2022-11-30 18:50:34
67,"[{'imgObject': {}, 'id': 'yogurt no spoon', 'src': '/static/foodstim60/yogurt no spoon.jpg', 'key': 'u', 'origWidth': 411, 'origHeight': 410, 'width': 411, 'height': 410, 'widthPercent': 0.45, 'rescaleHeight': False, 'trialN': 67, 'loaded': True, 'loadedTime': 3998.5999999046326, 'positionName': 'LEFT', 'positionCoords': [510.6, 335], 'bid': 0.04}, {'imgObject': {}, 'id': 'Tribe humus pita', 'src': '/static/foodstim60/Tribe humus pita.jpg', 'key': 'i', 'origWidth': 411, 'origHeight': 411, 'width': 411, 'height': 411, 'widthPercent': 0.45, 'rescaleHeight': False, 'trialN': 67, 'loaded': True, 'loadedTime': 3816.399999856949, 'positionName': 'RIGHT', 'positionCoords': [998.4, 334.5], 'bid': 6.53}]",113756.20000004768,1669834062337,yogurt no spoon,Tribe humus pita,0.04,6.53,6.49,Tribe humus pita,993.8999998569489,995,994.0999999046326,True,i,115263.5,1507.2999999523163,1669834063845,1508,HRV,HRV_0224,2022-11-30 18:50:34
68,"[{'imgObject': {}, 'id': 'yogurt no spoon', 'src': '/static/foodstim60/yogurt no spoon.jpg', 'key': 'u', 'origWidth': 411, 'origHeight': 410, 'width': 411, 'height': 410, 'widthPercent': 0.45, 'rescaleHeight': False, 'trialN': 68, 'loaded': True, 'loadedTime': 3998.5999999046326, 'positionName': 'LEFT', 'positionCoords': [510.6, 335], 'bid': 0.04}, {'imgObject': {}, 'id': 'fruitsalad', 'src': '/static/foodstim60/fruitsalad.jpg', 'key': 'i', 'origWidth': 410, 'origHeight': 410, 'width': 410, 'height': 410, 'widthPercent': 0.45, 'rescaleHeight': False, 'trialN': 68, 'loaded': True, 'loadedTime': 4178.899999856949, 'positionName': 'RIGHT', 'positionCoords': [998.4, 335], 'bid': 0.06}]",115263.70000004768,1669834063845,yogurt no spoon,fruitsalad,0.04,0.06,0.019999999999999997,fruitsalad,950.2999999523163,951,950.5999999046326,True,i,116732.09999990463,1468.3999998569489,1669834065313,1468,HRV,HRV_0224,2022-11-30 18:50:34
69,"[{'imgObject': {}, 'id': 'shreddedwheatwithmilk', 'src': '/static/foodstim60/shreddedwheatwithmilk.jpg', 'key': 'u', 'origWidth': 410, 'origHeight': 410, 'width': 410, 'height': 410, 'widthPercent': 0.45, 'rescaleHeight': False, 'trialN': 69, 'loaded': True, 'loadedTime': 3946.2000000476837, 'positionName': 'LEFT', 'positionCoords': [511.6, 335], 'bid': 0.03}, {'imgObject': {}, 'id': 'kiwi', 'src': '/static/foodstim60/kiwi.jpg', 'key': 'i', 'origWidth': 410, 'origHeight': 410, 'width': 410, 'height': 410, 'widthPercent': 0.45, 'rescaleHeight': False, 'trialN': 69, 'loaded': True, 'loadedTime': 4236.200000047684, 'positionName': 'RIGHT', 'positionCoords': [998.4, 335], 'bid': 0.01}]",116732.29999995232,1669834065314,shreddedwheatwithmilk,kiwi,0.03,0.01,-0.019999999999999997,shreddedwheatwithmilk,937.7000000476837,938,938.0,True,u,118175.79999995232,1443.5,1669834066757,1443,HRV,HRV_0224,2022-11-30 18:50:34
70,"[{'imgObject': {}, 'id': 'apple slices', 'src': '/static/foodstim60/apple slices.jpg', 'key': 'u', 'origWidth': 409, 'origHeight': 410, 'width': 409, 'height': 410, 'widthPercent': 0.45, 'rescaleHeight': False, 'trialN': 70, 'loaded': True, 'loadedTime': 4322.899999856949, 'positionName': 'LEFT', 'positionCoords': [512.6, 335], 'bid': 8.68}, {'imgObject': {}, 'id': 'grilled chicken strips', 'src': '/static/foodstim60/grilled chicken strips.jpg', 'key': 'i', 'origWidth': 410, 'origHeight': 411, 'width': 410, 'height': 411, 'widthPercent': 0.45, 'rescaleHeight': False, 'trialN': 70, 'loaded': True, 'loadedTime': 4187.899999856949, 'positionName': 'RIGHT', 'positionCoords': [998.4, 334.5], 'bid': 6.8100000000000005}]",118175.79999995232,1669834066757,apple slices,grilled chicken strips,8.68,6.8100000000000005,-1.8699999999999992,apple slices,1094.2000000476837,1095,1094.4000000953674,True,u,119781.5,1605.7000000476837,1669834068363,1606,HRV,HRV_0224,2022-11-30 18:50:34
71,"[{'imgObject': {}, 'id': 'mango', 'src': '/static/foodstim60/mango.jpg', 'key': 'u', 'origWidth': 411, 'origHeight': 411, 'width': 411, 'height': 411, 'widthPercent': 0.45, 'rescaleHeight': False, 'trialN': 71, 'loaded': True, 'loadedTime': 4237.5, 'positionName': 'LEFT', 'positionCoords': [510.6, 334.5], 'bid': 7.98}, {'imgObject': {}, 'id': 'rigatoni and sauce', 'src': '/static/foodstim60/rigatoni and sauce.jpg', 'key': 'i', 'origWidth': 410, 'origHeight': 411, 'width': 410, 'height': 411, 'widthPercent': 0.45, 'rescaleHeight': False, 'trialN': 71, 'loaded': True, 'loadedTime': 4273.599999904633, 'positionName': 'RIGHT', 'positionCoords': [998.4, 334.5], 'bid': 7.77}]",119781.59999990463,1669834068363,mango,rigatoni and sauce,7.98,7.77,-0.21000000000000085,mango,960.7000000476837,961,961.1000001430511,True,u,121253.0,1471.4000000953674,1669834069834,1471,HRV,HRV_0224,2022-11-30 18:50:34
72,"[{'imgObject': {}, 'id': 'cherries', 'src': '/static/foodstim60/cherries.jpg', 'key': 'u', 'origWidth': 410, 'origHeight': 411, 'width': 410, 'height': 411, 'widthPercent': 0.45, 'rescaleHeight': False, 'trialN': 72, 'loaded': True, 'loadedTime': 4344.700000047684, 'positionName': 'LEFT', 'positionCoords': [511.6, 334.5], 'bid': 0.11}, {'imgObject': {}, 'id': 'salad w chicken', 'src': '/static/foodstim60/salad w chicken.jpg', 'key': 'i', 'origWidth': 411, 'origHeight': 411, 'width': 411, 'height': 411, 'widthPercent': 0.45, 'rescaleHeight': False, 'trialN': 72, 'loaded': True, 'loadedTime': 3701.5999999046326, 'positionName': 'RIGHT', 'positionCoords': [998.4, 334.5], 'bid': 0}]",121253.09999990463,1669834069834,cherries,salad w chicken,0.11,0.0,-0.11,salad w chicken,1080.9000000953674,1081,1081.1000001430511,True,i,122848.39999985695,1595.2999999523163,1669834071430,1596,HRV,HRV_0224,2022-11-30 18:50:34
73,"[{'imgObject': {}, 'id': 'chicken nuggets2', 'src': '/static/foodstim60/chicken nuggets2.jpg', 'key': 'u', 'origWidth': 410, 'origHeight': 409, 'width': 410, 'height': 409, 'widthPercent': 0.45, 'rescaleHeight': False, 'trialN': 73, 'loaded': True, 'loadedTime': 3753.2999999523163, 'positionName': 'LEFT', 'positionCoords': [511.6, 335.5], 'bid': 7.7}, {'imgObject': {}, 'id': 'omelette', 'src': '/static/foodstim60/omelette.jpg', 'key': 'i', 'origWidth': 410, 'origHeight': 409, 'width': 410, 'height': 409, 'widthPercent': 0.45, 'rescaleHeight': False, 'trialN': 73, 'loaded': True, 'loadedTime': 4132.399999856949, 'positionName': 'RIGHT', 'positionCoords': [998.4, 335.5], 'bid': 5.73}]",122848.59999990463,1669834071430,chicken nuggets2,omelette,7.7,5.73,-1.9699999999999998,chicken nuggets2,1109.2999999523163,1109,1109.5,True,u,124473.09999990463,1624.5,1669834073054,1624,HRV,HRV_0224,2022-11-30 18:50:34
74,"[{'imgObject': {}, 'id': 'pear', 'src': '/static/foodstim60/pear.jpg', 'key': 'u', 'origWidth': 411, 'origHeight': 410, 'width': 411, 'height': 410, 'widthPercent': 0.45, 'rescaleHeight': False, 'trialN': 74, 'loaded': True, 'loadedTime': 4343, 'positionName': 'LEFT', 'positionCoords': [510.6, 335], 'bid': 7.83}, {'imgObject': {}, 'id': 'turkey sandwich', 'src': '/static/foodstim60/turkey sandwich.jpg', 'key': 'i', 'origWidth': 409, 'origHeight': 409, 'width': 409, 'height': 409, 'widthPercent': 0.45, 'rescaleHeight': False, 'trialN': 74, 'loaded': True, 'loadedTime': 3705.7999999523163, 'positionName': 'RIGHT', 'positionCoords': [998.4, 335.5], 'bid': 8.05}]",124473.20000004768,1669834073054,pear,turkey sandwich,7.83,8.05,0.22000000000000064,turkey sandwich,900.8999998569489,902,901.2999999523163,True,i,125881.79999995232,1408.5999999046326,1669834074463,1409,HRV,HRV_0224,2022-11-30 18:50:34
75,"[{'imgObject': {}, 'id': 'eggs', 'src': '/static/foodstim60/eggs.jpg', 'key': 'u', 'origWidth': 409, 'origHeight': 409, 'width': 409, 'height': 409, 'widthPercent': 0.45, 'rescaleHeight': False, 'trialN': 75, 'loaded': True, 'loadedTime': 4343.099999904633, 'positionName': 'LEFT', 'positionCoords': [512.6, 335.5], 'bid': 7.31}, {'imgObject': {}, 'id': 'hotdog w must', 'src': '/static/foodstim60/hotdog w must.jpg', 'key': 'i', 'origWidth': 409, 'origHeight': 409, 'width': 409, 'height': 409, 'widthPercent': 0.45, 'rescaleHeight': False, 'trialN': 75, 'loaded': True, 'loadedTime': 3927.7000000476837, 'positionName': 'RIGHT', 'positionCoords': [998.4, 335.5], 'bid': 7.140000000000001}]",125881.89999985695,1669834074463,eggs,hotdog w must,7.31,7.140000000000001,-0.16999999999999904,eggs,1052.2000000476837,1053,1052.4000000953674,True,u,127451.29999995232,1569.4000000953674,1669834076033,1570,HRV,HRV_0224,2022-11-30 18:50:34
76,"[{'imgObject': {}, 'id': 'eggsalad', 'src': '/static/foodstim60/eggsalad.jpg', 'key': 'u', 'origWidth': 410, 'origHeight': 409, 'width': 410, 'height': 409, 'widthPercent': 0.45, 'rescaleHeight': False, 'trialN': 76, 'loaded': True, 'loadedTime': 4345.799999952316, 'positionName': 'LEFT', 'positionCoords': [511.6, 335.5], 'bid': 6.53}, {'imgObject': {}, 'id': 'mashed potato', 'src': '/static/foodstim60/mashed potato.jpg', 'key': 'i', 'origWidth': 409, 'origHeight': 409, 'width': 409, 'height': 409, 'widthPercent': 0.45, 'rescaleHeight': False, 'trialN': 76, 'loaded': True, 'loadedTime': 4022.5999999046326, 'positionName': 'RIGHT', 'positionCoords': [998.4, 335.5], 'bid': 6.22}]",127451.5,1669834076033,eggsalad,mashed potato,6.53,6.22,-0.3100000000000005,eggsalad,1410.7000000476837,1411,1411.0,True,u,129365.59999990463,1914.0999999046326,1669834077947,1914,HRV,HRV_0224,2022-11-30 18:50:34
77,"[{'imgObject': {}, 'id': 'sweetpotato', 'src': '/static/foodstim60/sweetpotato.jpg', 'key': 'u', 'origWidth': 410, 'origHeight': 410, 'width': 410, 'height': 410, 'widthPercent': 0.45, 'rescaleHeight': False, 'trialN': 77, 'loaded': True, 'loadedTime': 3805.7999999523163, 'positionName': 'LEFT', 'positionCoords': [511.6, 335], 'bid': 0.16}, {'imgObject': {}, 'id': 'edamame', 'src': '/static/foodstim60/edamame.jpg', 'key': 'i', 'origWidth': 409, 'origHeight': 410, 'width': 409, 'height': 410, 'widthPercent': 0.45, 'rescaleHeight': False, 'trialN': 77, 'loaded': True, 'loadedTime': 4199.5, 'positionName': 'RIGHT', 'positionCoords': [998.4, 335], 'bid': 0.12}]",129365.79999995232,1669834077947,sweetpotato,edamame,0.16,0.12,-0.04000000000000001,edamame,1368.2000000476837,1369,1368.5,True,i,131247.79999995232,1882.0,1669834079829,1882,HRV,HRV_0224,2022-11-30 18:50:34
78,"[{'imgObject': {}, 'id': 'burrito', 'src': '/static/foodstim60/burrito.jpg', 'key': 'u', 'origWidth': 410, 'origHeight': 410, 'width': 410, 'height': 410, 'widthPercent': 0.45, 'rescaleHeight': False, 'trialN': 78, 'loaded': True, 'loadedTime': 4094.2999999523163, 'positionName': 'LEFT', 'positionCoords': [511.6, 335], 'bid': 4.98}, {'imgObject': {}, 'id': 'luckycharms', 'src': '/static/foodstim60/luckycharms.jpg', 'key': 'i', 'origWidth': 410, 'origHeight': 409, 'width': 410, 'height': 409, 'widthPercent': 0.45, 'rescaleHeight': False, 'trialN': 78, 'loaded': True, 'loadedTime': 4104.599999904633, 'positionName': 'RIGHT', 'positionCoords': [998.4, 335.5], 'bid': 6.01}]",131248.09999990463,1669834079829,burrito,luckycharms,4.98,6.01,1.0299999999999994,burrito,998.1000001430511,999,998.4000000953674,True,u,132756.29999995232,1508.2000000476837,1669834081338,1509,HRV,HRV_0224,2022-11-30 18:50:34
79,"[{'imgObject': {}, 'id': 'blackbeanswithrice', 'src': '/static/foodstim60/blackbeanswithrice.jpg', 'key': 'u', 'origWidth': 410, 'origHeight': 410, 'width': 410, 'height': 410, 'widthPercent': 0.45, 'rescaleHeight': False, 'trialN': 79, 'loaded': True, 'loadedTime': 3713.7000000476837, 'positionName': 'LEFT', 'positionCoords': [511.6, 335], 'bid': 0.15}, {'imgObject': {}, 'id': 'granola w milk', 'src': '/static/foodstim60/granola w milk.jpg', 'key': 'i', 'origWidth': 410, 'origHeight': 410, 'width': 410, 'height': 410, 'widthPercent': 0.45, 'rescaleHeight': False, 'trialN': 79, 'loaded': True, 'loadedTime': 4198.5, 'positionName': 'RIGHT', 'positionCoords': [998.4, 335], 'bid': 5.08}]",132756.5,1669834081338,blackbeanswithrice,granola w milk,0.15,5.08,4.93,granola w milk,801.5,802,801.7999999523163,True,i,134066.20000004768,1309.7000000476837,1669834082647,1309,HRV,HRV_0224,2022-11-30 18:50:34
80,"[{'imgObject': {}, 'id': 'veggieswithdip', 'src': '/static/foodstim60/veggieswithdip.jpg', 'key': 'u', 'origWidth': 409, 'origHeight': 409, 'width': 409, 'height': 409, 'widthPercent': 0.45, 'rescaleHeight': False, 'trialN': 80, 'loaded': True, 'loadedTime': 3927.7999999523163, 'positionName': 'LEFT', 'positionCoords': [512.6, 335.5], 'bid': 0}, {'imgObject': {}, 'id': 'salmon', 'src': '/static/foodstim60/salmon.jpg', 'key': 'i', 'origWidth': 410, 'origHeight': 409, 'width': 410, 'height': 409, 'widthPercent': 0.45, 'rescaleHeight': False, 'trialN': 80, 'loaded': True, 'loadedTime': 4290.899999856949, 'positionName': 'RIGHT', 'positionCoords': [998.4, 335.5], 'bid': 0}]",134066.39999985695,1669834082648,veggieswithdip,salmon,0.0,0.0,0.0,veggieswithdip,1147.6000001430511,1147,1147.8000001907349,True,u,135718.89999985695,1652.5,1669834084300,1652,HRV,HRV_0224,2022-11-30 18:50:34
81,"[{'imgObject': {}, 'id': 'eggsalad', 'src': '/static/foodstim60/eggsalad.jpg', 'key': 'u', 'origWidth': 410, 'origHeight': 409, 'width': 410, 'height': 409, 'widthPercent': 0.45, 'rescaleHeight': False, 'trialN': 81, 'loaded': True, 'loadedTime': 4346, 'positionName': 'LEFT', 'positionCoords': [511.6, 335.5], 'bid': 6.53}, {'imgObject': {}, 'id': 'strawberries', 'src': '/static/foodstim60/strawberries.jpg', 'key': 'i', 'origWidth': 410, 'origHeight': 410, 'width': 410, 'height': 410, 'widthPercent': 0.45, 'rescaleHeight': False, 'trialN': 81, 'loaded': True, 'loadedTime': 3822, 'positionName': 'RIGHT', 'positionCoords': [998.4, 335], 'bid': 0.04}]",135719.09999990463,1669834084300,eggsalad,strawberries,6.53,0.04,-6.49,eggsalad,1351.1000001430511,1352,1351.6000001430511,True,u,137581.09999990463,1862.0,1669834086162,1862,HRV,HRV_0224,2022-11-30 18:50:34
82,"[{'imgObject': {}, 'id': 'pear', 'src': '/static/foodstim60/pear.jpg', 'key': 'u', 'origWidth': 411, 'origHeight': 410, 'width': 411, 'height': 410, 'widthPercent': 0.45, 'rescaleHeight': False, 'trialN': 82, 'loaded': True, 'loadedTime': 4343.099999904633, 'positionName': 'LEFT', 'positionCoords': [510.6, 335], 'bid': 7.83}, {'imgObject': {}, 'id': 'rigatoni and sauce', 'src': '/static/foodstim60/rigatoni and sauce.jpg', 'key': 'i', 'origWidth': 410, 'origHeight': 411, 'width': 410, 'height': 411, 'widthPercent': 0.45, 'rescaleHeight': False, 'trialN': 82, 'loaded': True, 'loadedTime': 4270.5, 'positionName': 'RIGHT', 'positionCoords': [998.4, 334.5], 'bid': 7.77}]",137581.29999995232,1669834086163,pear,rigatoni and sauce,7.83,7.77,-0.0600000000000005,rigatoni and sauce,1016.7000000476837,1017,1017.0,True,i,139102.89999985695,1521.5999999046326,1669834087684,1521,HRV,HRV_0224,2022-11-30 18:50:34
83,"[{'imgObject': {}, 'id': 'olives', 'src': '/static/foodstim60/olives.jpg', 'key': 'u', 'origWidth': 410, 'origHeight': 410, 'width': 410, 'height': 410, 'widthPercent': 0.45, 'rescaleHeight': False, 'trialN': 83, 'loaded': True, 'loadedTime': 4319.700000047684, 'positionName': 'LEFT', 'positionCoords': [511.6, 335], 'bid': 0.11}, {'imgObject': {}, 'id': 'hashbrowns', 'src': '/static/foodstim60/hashbrowns.jpg', 'key': 'i', 'origWidth': 411, 'origHeight': 410, 'width': 411, 'height': 410, 'widthPercent': 0.45, 'rescaleHeight': False, 'trialN': 83, 'loaded': True, 'loadedTime': 3802.2999999523163, 'positionName': 'RIGHT', 'positionCoords': [998.4, 335], 'bid': 0.08}]",139103.09999990463,1669834087684,olives,hashbrowns,0.11,0.08,-0.03,hashbrowns,1702.9000000953674,1704,1703.2000000476837,True,i,141309.79999995232,2206.7000000476837,1669834089891,2207,HRV,HRV_0224,2022-11-30 18:50:34
84,"[{'imgObject': {}, 'id': 'cocktailshrimp', 'src': '/static/foodstim60/cocktailshrimp.jpg', 'key': 'u', 'origWidth': 410, 'origHeight': 410, 'width': 410, 'height': 410, 'widthPercent': 0.45, 'rescaleHeight': False, 'trialN': 84, 'loaded': True, 'loadedTime': 4042.5999999046326, 'positionName': 'LEFT', 'positionCoords': [511.6, 335], 'bid': 0.05}, {'imgObject': {}, 'id': 'lox', 'src': '/static/foodstim60/lox.jpg', 'key': 'i', 'origWidth': 410, 'origHeight': 411, 'width': 410, 'height': 411, 'widthPercent': 0.45, 'rescaleHeight': False, 'trialN': 84, 'loaded': True, 'loadedTime': 3656.7000000476837, 'positionName': 'RIGHT', 'positionCoords': [998.4, 334.5], 'bid': 0}]",141310.0,1669834089891,cocktailshrimp,lox,0.05,0.0,-0.05,cocktailshrimp,1232.5,1233,1232.8999998569489,True,u,143046.89999985695,1736.8999998569489,1669834091628,1737,HRV,HRV_0224,2022-11-30 18:50:34
85,"[{'imgObject': {}, 'id': 'turkeysandwich', 'src': '/static/foodstim60/turkeysandwich.jpg', 'key': 'u', 'origWidth': 409, 'origHeight': 409, 'width': 409, 'height': 409, 'widthPercent': 0.45, 'rescaleHeight': False, 'trialN': 85, 'loaded': True, 'loadedTime': 4098.399999856949, 'positionName': 'LEFT', 'positionCoords': [512.6, 335.5], 'bid': 8.11}, {'imgObject': {}, 'id': 'sweetpotato', 'src': '/static/foodstim60/sweetpotato.jpg', 'key': 'i', 'origWidth': 410, 'origHeight': 410, 'width': 410, 'height': 410, 'widthPercent': 0.45, 'rescaleHeight': False, 'trialN': 85, 'loaded': True, 'loadedTime': 3806.2999999523163, 'positionName': 'RIGHT', 'positionCoords': [998.4, 335], 'bid': 0.16}]",143047.09999990463,1669834091628,turkeysandwich,sweetpotato,8.11,0.16,-7.949999999999999,turkeysandwich,814.9000000953674,816,815.2000000476837,True,u,144373.09999990463,1326.0,1669834092954,1326,HRV,HRV_0224,2022-11-30 18:50:34
86,"[{'imgObject': {}, 'id': 'eggsalad', 'src': '/static/foodstim60/eggsalad.jpg', 'key': 'u', 'origWidth': 410, 'origHeight': 409, 'width': 410, 'height': 409, 'widthPercent': 0.45, 'rescaleHeight': False, 'trialN': 86, 'loaded': True, 'loadedTime': 4346.299999952316, 'positionName': 'LEFT', 'positionCoords': [511.6, 335.5], 'bid': 6.53}, {'imgObject': {}, 'id': 'raisin bran w milk', 'src': '/static/foodstim60/raisin bran w milk.jpg', 'key': 'i', 'origWidth': 411, 'origHeight': 411, 'width': 411, 'height': 411, 'widthPercent': 0.45, 'rescaleHeight': False, 'trialN': 86, 'loaded': True, 'loadedTime': 3775.0999999046326, 'positionName': 'RIGHT', 'positionCoords': [998.4, 334.5], 'bid': 4.95}]",144373.20000004768,1669834092954,eggsalad,raisin bran w milk,6.53,4.95,-1.58,eggsalad,952.7999999523163,953,953.0999999046326,True,u,145840.89999985695,1467.6999998092651,1669834094422,1468,HRV,HRV_0224,2022-11-30 18:50:34
87,"[{'imgObject': {}, 'id': 'fried eggs', 'src': '/static/foodstim60/fried eggs.jpg', 'key': 'u', 'origWidth': 410, 'origHeight': 410, 'width': 410, 'height': 410, 'widthPercent': 0.45, 'rescaleHeight': False, 'trialN': 87, 'loaded': True, 'loadedTime': 4295.299999952316, 'positionName': 'LEFT', 'positionCoords': [511.6, 335], 'bid': 8.16}, {'imgObject': {}, 'id': 'apple slices', 'src': '/static/foodstim60/apple slices.jpg', 'key': 'i', 'origWidth': 409, 'origHeight': 410, 'width': 409, 'height': 410, 'widthPercent': 0.45, 'rescaleHeight': False, 'trialN': 87, 'loaded': True, 'loadedTime': 4322.200000047684, 'positionName': 'RIGHT', 'positionCoords': [998.4, 335], 'bid': 8.68}]",145841.09999990463,1669834094422,fried eggs,apple slices,8.16,8.68,0.5199999999999996,apple slices,1108.9000000953674,1110,1109.2000000476837,True,i,147463.89999985695,1622.7999999523163,1669834096045,1623,HRV,HRV_0224,2022-11-30 18:50:34
88,"[{'imgObject': {}, 'id': 'tacos', 'src': '/static/foodstim60/tacos.jpg', 'key': 'u', 'origWidth': 411, 'origHeight': 411, 'width': 411, 'height': 411, 'widthPercent': 0.45, 'rescaleHeight': False, 'trialN': 88, 'loaded': True, 'loadedTime': 4348, 'positionName': 'LEFT', 'positionCoords': [510.6, 334.5], 'bid': 10}, {'imgObject': {}, 'id': 'ice cream sundae 002', 'src': '/static/foodstim60/ice cream sundae 002.jpg', 'key': 'i', 'origWidth': 409, 'origHeight': 409, 'width': 409, 'height': 409, 'widthPercent': 0.45, 'rescaleHeight': False, 'trialN': 88, 'loaded': True, 'loadedTime': 3718.399999856949, 'positionName': 'RIGHT', 'positionCoords': [998.4, 335.5], 'bid': 5.07}]",147464.09999990463,1669834096045,tacos,ice cream sundae 002,10.0,5.07,-4.93,tacos,885.9000000953674,886,886.1000001430511,True,u,148866.79999995232,1402.7000000476837,1669834097448,1403,HRV,HRV_0224,2022-11-30 18:50:34
89,"[{'imgObject': {}, 'id': 'apple slices', 'src': '/static/foodstim60/apple slices.jpg', 'key': 'u', 'origWidth': 409, 'origHeight': 410, 'width': 409, 'height': 410, 'widthPercent': 0.45, 'rescaleHeight': False, 'trialN': 89, 'loaded': True, 'loadedTime': 4322.899999856949, 'positionName': 'LEFT', 'positionCoords': [512.6, 335], 'bid': 8.68}, {'imgObject': {}, 'id': 'roastedpotatoes', 'src': '/static/foodstim60/roastedpotatoes.jpg', 'key': 'i', 'origWidth': 409, 'origHeight': 410, 'width': 409, 'height': 410, 'widthPercent': 0.45, 'rescaleHeight': False, 'trialN': 89, 'loaded': True, 'loadedTime': 3729.0999999046326, 'positionName': 'RIGHT', 'positionCoords': [998.4, 335], 'bid': 7.42}]",148866.89999985695,1669834097448,apple slices,roastedpotatoes,8.68,7.42,-1.2599999999999998,roastedpotatoes,651.0,651,651.3000001907349,True,i,150033.20000004768,1166.3000001907349,1669834098614,1166,HRV,HRV_0224,2022-11-30 18:50:34
90,"[{'imgObject': {}, 'id': 'blueberries', 'src': '/static/foodstim60/blueberries.jpg', 'key': 'u', 'origWidth': 411, 'origHeight': 411, 'width': 411, 'height': 411, 'widthPercent': 0.45, 'rescaleHeight': False, 'trialN': 90, 'loaded': True, 'loadedTime': 4235.099999904633, 'positionName': 'LEFT', 'positionCoords': [510.6, 334.5], 'bid': 0.12}, {'imgObject': {}, 'id': 'pear', 'src': '/static/foodstim60/pear.jpg', 'key': 'i', 'origWidth': 411, 'origHeight': 410, 'width': 411, 'height': 410, 'widthPercent': 0.45, 'rescaleHeight': False, 'trialN': 90, 'loaded': True, 'loadedTime': 4342.099999904633, 'positionName': 'RIGHT', 'positionCoords': [998.4, 335], 'bid': 7.83}]",153361.0,1669834101942,blueberries,pear,0.12,7.83,7.71,pear,1301.0,1302,1301.2999999523163,True,i,155170.09999990463,1809.0999999046326,1669834103751,1809,HRV,HRV_0224,2022-11-30 18:50:34
91,"[{'imgObject': {}, 'id': 'granola w milk', 'src': '/static/foodstim60/granola w milk.jpg', 'key': 'u', 'origWidth': 410, 'origHeight': 410, 'width': 410, 'height': 410, 'widthPercent': 0.45, 'rescaleHeight': False, 'trialN': 91, 'loaded': True, 'loadedTime': 4197.099999904633, 'positionName': 'LEFT', 'positionCoords': [511.6, 335], 'bid': 5.08}, {'imgObject': {}, 'id': 'ice cream sundae 002', 'src': '/static/foodstim60/ice cream sundae 002.jpg', 'key': 'i', 'origWidth': 409, 'origHeight': 409, 'width': 409, 'height': 409, 'widthPercent': 0.45, 'rescaleHeight': False, 'trialN': 91, 'loaded': True, 'loadedTime': 3718.2999999523163, 'positionName': 'RIGHT', 'positionCoords': [998.4, 335.5], 'bid': 5.07}]",155170.29999995232,1669834103752,granola w milk,ice cream sundae 002,5.08,5.07,-0.009999999999999787,ice cream sundae 002,715.7000000476837,716,716.0,True,i,156402.39999985695,1232.0999999046326,1669834104984,1232,HRV,HRV_0224,2022-11-30 18:50:34
92,"[{'imgObject': {}, 'id': 'kiwi', 'src': '/static/foodstim60/kiwi.jpg', 'key': 'u', 'origWidth': 410, 'origHeight': 410, 'width': 410, 'height': 410, 'widthPercent': 0.45, 'rescaleHeight': False, 'trialN': 92, 'loaded': True, 'loadedTime': 4236.399999856949, 'positionName': 'LEFT', 'positionCoords': [511.6, 335], 'bid': 0.01}, {'imgObject': {}, 'id': 'olives', 'src': '/static/foodstim60/olives.jpg', 'key': 'i', 'origWidth': 410, 'origHeight': 410, 'width': 410, 'height': 410, 'widthPercent': 0.45, 'rescaleHeight': False, 'trialN': 92, 'loaded': True, 'loadedTime': 4319.799999952316, 'positionName': 'RIGHT', 'positionCoords': [998.4, 335], 'bid': 0.11}]",156402.59999990463,1669834104984,kiwi,olives,0.01,0.11,0.1,olives,987.5,988,988.0,True,i,157897.20000004768,1494.6000001430511,1669834106478,1494,HRV,HRV_0224,2022-11-30 18:50:34
93,"[{'imgObject': {}, 'id': 'avocado', 'src': '/static/foodstim60/avocado.jpg', 'key': 'u', 'origWidth': 409, 'origHeight': 409, 'width': 409, 'height': 409, 'widthPercent': 0.45, 'rescaleHeight': False, 'trialN': 93, 'loaded': True, 'loadedTime': 4320, 'positionName': 'LEFT', 'positionCoords': [512.6, 335.5], 'bid': 0.11}, {'imgObject': {}, 'id': 'shreddedwheatwithmilk', 'src': '/static/foodstim60/shreddedwheatwithmilk.jpg', 'key': 'i', 'origWidth': 410, 'origHeight': 410, 'width': 410, 'height': 410, 'widthPercent': 0.45, 'rescaleHeight': False, 'trialN': 93, 'loaded': True, 'loadedTime': 3960.899999856949, 'positionName': 'RIGHT', 'positionCoords': [998.4, 335], 'bid': 0.03}]",157897.29999995232,1669834106479,avocado,shreddedwheatwithmilk,0.11,0.03,-0.08,shreddedwheatwithmilk,772.7000000476837,773,773.0,True,i,159174.09999990463,1276.7999999523163,1669834107755,1276,HRV,HRV_0224,2022-11-30 18:50:34
94,"[{'imgObject': {}, 'id': 'corn cob', 'src': '/static/foodstim60/corn cob.jpg', 'key': 'u', 'origWidth': 411, 'origHeight': 411, 'width': 411, 'height': 411, 'widthPercent': 0.45, 'rescaleHeight': False, 'trialN': 94, 'loaded': True, 'loadedTime': 3716.7999999523163, 'positionName': 'LEFT', 'positionCoords': [510.6, 334.5], 'bid': 6.69}, {'imgObject': {}, 'id': 'eggsalad', 'src': '/static/foodstim60/eggsalad.jpg', 'key': 'i', 'origWidth': 410, 'origHeight': 409, 'width': 410, 'height': 409, 'widthPercent': 0.45, 'rescaleHeight': False, 'trialN': 94, 'loaded': True, 'loadedTime': 4344.899999856949, 'positionName': 'RIGHT', 'positionCoords': [998.4, 335.5], 'bid': 6.53}]",159174.29999995232,1669834107756,corn cob,eggsalad,6.69,6.53,-0.16000000000000014,eggsalad,1407.5999999046326,1407,1407.7999999523163,True,i,161089.0,1914.7000000476837,1669834109670,1914,HRV,HRV_0224,2022-11-30 18:50:34
95,"[{'imgObject': {}, 'id': 'cheerios', 'src': '/static/foodstim60/cheerios.jpg', 'key': 'u', 'origWidth': 409, 'origHeight': 410, 'width': 409, 'height': 410, 'widthPercent': 0.45, 'rescaleHeight': False, 'trialN': 95, 'loaded': True, 'loadedTime': 4273.899999856949, 'positionName': 'LEFT', 'positionCoords': [512.6, 335], 'bid': 5.07}, {'imgObject': {}, 'id': 'bagel and cc', 'src': '/static/foodstim60/bagel and cc.jpg', 'key': 'i', 'origWidth': 410, 'origHeight': 410, 'width': 410, 'height': 410, 'widthPercent': 0.45, 'rescaleHeight': False, 'trialN': 95, 'loaded': True, 'loadedTime': 4193.700000047684, 'positionName': 'RIGHT', 'positionCoords': [998.4, 335], 'bid': 1.98}]",161089.09999990463,1669834109670,cheerios,bagel and cc,5.07,1.98,-3.0900000000000003,cheerios,1205.1000001430511,1206,1205.5,True,u,162799.0,1709.9000000953674,1669834111380,1710,HRV,HRV_0224,2022-11-30 18:50:34
96,"[{'imgObject': {}, 'id': 'apple slices', 'src': '/static/foodstim60/apple slices.jpg', 'key': 'u', 'origWidth': 409, 'origHeight': 410, 'width': 409, 'height': 410, 'widthPercent': 0.45, 'rescaleHeight': False, 'trialN': 96, 'loaded': True, 'loadedTime': 4341.700000047684, 'positionName': 'LEFT', 'positionCoords': [512.6, 335], 'bid': 8.68}, {'imgObject': {}, 'id': 'bagel plain', 'src': '/static/foodstim60/bagel plain.jpg', 'key': 'i', 'origWidth': 410, 'origHeight': 410, 'width': 410, 'height': 410, 'widthPercent': 0.45, 'rescaleHeight': False, 'trialN': 96, 'loaded': True, 'loadedTime': 4133.399999856949, 'positionName': 'RIGHT', 'positionCoords': [998.4, 335], 'bid': 2.03}]",162799.09999990463,1669834111380,apple slices,bagel plain,8.68,2.03,-6.65,apple slices,839.0,840,839.2999999523163,True,u,164154.29999995232,1355.2000000476837,1669834112736,1356,HRV,HRV_0224,2022-11-30 18:50:34
97,"[{'imgObject': {}, 'id': 'sweetpotato', 'src': '/static/foodstim60/sweetpotato.jpg', 'key': 'u', 'origWidth': 410, 'origHeight': 410, 'width': 410, 'height': 410, 'widthPercent': 0.45, 'rescaleHeight': False, 'trialN': 97, 'loaded': True, 'loadedTime': 3806, 'positionName': 'LEFT', 'positionCoords': [511.6, 335], 'bid': 0.16}, {'imgObject': {}, 'id': 'cherries', 'src': '/static/foodstim60/cherries.jpg', 'key': 'i', 'origWidth': 410, 'origHeight': 411, 'width': 410, 'height': 411, 'widthPercent': 0.45, 'rescaleHeight': False, 'trialN': 97, 'loaded': True, 'loadedTime': 4344.700000047684, 'positionName': 'RIGHT', 'positionCoords': [998.4, 334.5], 'bid': 0.11}]",164154.59999990463,1669834112736,sweetpotato,cherries,0.16,0.11,-0.05,cherries,891.4000000953674,892,891.7000000476837,True,i,165551.39999985695,1396.7999999523163,1669834114133,1397,HRV,HRV_0224,2022-11-30 18:50:34
98,"[{'imgObject': {}, 'id': 'yogurt no spoon', 'src': '/static/foodstim60/yogurt no spoon.jpg', 'key': 'u', 'origWidth': 411, 'origHeight': 410, 'width': 411, 'height': 410, 'widthPercent': 0.45, 'rescaleHeight': False, 'trialN': 98, 'loaded': True, 'loadedTime': 4021.5999999046326, 'positionName': 'LEFT', 'positionCoords': [510.6, 335], 'bid': 0.04}, {'imgObject': {}, 'id': 'baked potato', 'src': '/static/foodstim60/baked potato.jpg', 'key': 'i', 'origWidth': 409, 'origHeight': 410, 'width': 409, 'height': 410, 'widthPercent': 0.45, 'rescaleHeight': False, 'trialN': 98, 'loaded': True, 'loadedTime': 3807.0999999046326, 'positionName': 'RIGHT', 'positionCoords': [998.4, 335], 'bid': 1.76}]",165551.5,1669834114133,yogurt no spoon,baked potato,0.04,1.76,1.72,baked potato,958.5,959,958.7999999523163,True,i,167016.79999995232,1465.2999999523163,1669834115598,1465,HRV,HRV_0224,2022-11-30 18:50:34
99,"[{'imgObject': {}, 'id': 'cherry tomato', 'src': '/static/foodstim60/cherry tomato.jpg', 'key': 'u', 'origWidth': 410, 'origHeight': 410, 'width': 410, 'height': 410, 'widthPercent': 0.45, 'rescaleHeight': False, 'trialN': 99, 'loaded': True, 'loadedTime': 4078.5999999046326, 'positionName': 'LEFT', 'positionCoords': [511.6, 335], 'bid': 3.17}, {'imgObject': {}, 'id': 'bagel and cc', 'src': '/static/foodstim60/bagel and cc.jpg', 'key': 'i', 'origWidth': 410, 'origHeight': 410, 'width': 410, 'height': 410, 'widthPercent': 0.45, 'rescaleHeight': False, 'trialN': 99, 'loaded': True, 'loadedTime': 4196.299999952316, 'positionName': 'RIGHT', 'positionCoords': [998.4, 335], 'bid': 1.98}]",167017.0,1669834115598,cherry tomato,bagel and cc,3.17,1.98,-1.19,bagel and cc,748.8999998569489,749,749.2000000476837,True,i,168278.0,1261.0,1669834116859,1261,HRV,HRV_0224,2022-11-30 18:50:34
100,"[{'imgObject': {}, 'id': 'Grapes', 'src': '/static/foodstim60/Grapes.jpg', 'key': 'u', 'origWidth': 411, 'origHeight': 411, 'width': 411, 'height': 411, 'widthPercent': 0.45, 'rescaleHeight': False, 'trialN': 100, 'loaded': True, 'loadedTime': 3872.2999999523163, 'positionName': 'LEFT', 'positionCoords': [510.6, 334.5], 'bid': 6.84}, {'imgObject': {}, 'id': 'chicken nuggets2', 'src': '/static/foodstim60/chicken nuggets2.jpg', 'key': 'i', 'origWidth': 410, 'origHeight': 409, 'width': 410, 'height': 409, 'widthPercent': 0.45, 'rescaleHeight': False, 'trialN': 100, 'loaded': True, 'loadedTime': 3732.7999999523163, 'positionName': 'RIGHT', 'positionCoords': [998.4, 335.5], 'bid': 7.7}]",168278.09999990463,1669834116859,Grapes,chicken nuggets2,6.84,7.7,0.8600000000000003,chicken nuggets2,1119.9000000953674,1120,1120.1000001430511,True,i,169909.70000004768,1631.6000001430511,1669834118491,1632,HRV,HRV_0224,2022-11-30 18:50:34
101,"[{'imgObject': {}, 'id': 'rigatoni', 'src': '/static/foodstim60/rigatoni.jpg', 'key': 'u', 'origWidth': 411, 'origHeight': 411, 'width': 411, 'height': 411, 'widthPercent': 0.45, 'rescaleHeight': False, 'trialN': 101, 'loaded': True, 'loadedTime': 3727.5, 'positionName': 'LEFT', 'positionCoords': [510.6, 334.5], 'bid': 6.16}, {'imgObject': {}, 'id': 'luckycharms', 'src': '/static/foodstim60/luckycharms.jpg', 'key': 'i', 'origWidth': 410, 'origHeight': 409, 'width': 410, 'height': 409, 'widthPercent': 0.45, 'rescaleHeight': False, 'trialN': 101, 'loaded': True, 'loadedTime': 4105, 'positionName': 'RIGHT', 'positionCoords': [998.4, 335.5], 'bid': 6.01}]",169910.0,1669834118491,rigatoni,luckycharms,6.16,6.01,-0.15000000000000036,rigatoni,952.0,952,952.2999999523163,True,u,171373.29999995232,1463.2999999523163,1669834119954,1463,HRV,HRV_0224,2022-11-30 18:50:34
102,"[{'imgObject': {}, 'id': 'omelette', 'src': '/static/foodstim60/omelette.jpg', 'key': 'u', 'origWidth': 410, 'origHeight': 409, 'width': 410, 'height': 409, 'widthPercent': 0.45, 'rescaleHeight': False, 'trialN': 102, 'loaded': True, 'loadedTime': 4133.299999952316, 'positionName': 'LEFT', 'positionCoords': [511.6, 335.5], 'bid': 5.73}, {'imgObject': {}, 'id': 'sweetpotato', 'src': '/static/foodstim60/sweetpotato.jpg', 'key': 'i', 'origWidth': 410, 'origHeight': 410, 'width': 410, 'height': 410, 'widthPercent': 0.45, 'rescaleHeight': False, 'trialN': 102, 'loaded': True, 'loadedTime': 3804.7999999523163, 'positionName': 'RIGHT', 'positionCoords': [998.4, 335], 'bid': 0.16}]",171373.39999985695,1669834119954,omelette,sweetpotato,5.73,0.16,-5.57,omelette,856.6000001430511,857,856.8000001907349,True,u,172747.20000004768,1373.8000001907349,1669834121328,1374,HRV,HRV_0224,2022-11-30 18:50:34
103,"[{'imgObject': {}, 'id': 'seaweed', 'src': '/static/foodstim60/seaweed.jpg', 'key': 'u', 'origWidth': 410, 'origHeight': 410, 'width': 410, 'height': 410, 'widthPercent': 0.45, 'rescaleHeight': False, 'trialN': 103, 'loaded': True, 'loadedTime': 4062.7999999523163, 'positionName': 'LEFT', 'positionCoords': [511.6, 335], 'bid': 0.06}, {'imgObject': {}, 'id': 'Grapes', 'src': '/static/foodstim60/Grapes.jpg', 'key': 'i', 'origWidth': 411, 'origHeight': 411, 'width': 411, 'height': 411, 'widthPercent': 0.45, 'rescaleHeight': False, 'trialN': 103, 'loaded': True, 'loadedTime': 3872.399999856949, 'positionName': 'RIGHT', 'positionCoords': [998.4, 334.5], 'bid': 6.84}]",172747.5,1669834121329,seaweed,Grapes,0.06,6.84,6.78,Grapes,826.5,826,826.7000000476837,True,i,174090.5,1343.0,1669834122672,1343,HRV,HRV_0224,2022-11-30 18:50:34
104,"[{'imgObject': {}, 'id': 'omelette', 'src': '/static/foodstim60/omelette.jpg', 'key': 'u', 'origWidth': 410, 'origHeight': 409, 'width': 410, 'height': 409, 'widthPercent': 0.45, 'rescaleHeight': False, 'trialN': 104, 'loaded': True, 'loadedTime': 4133.299999952316, 'positionName': 'LEFT', 'positionCoords': [511.6, 335.5], 'bid': 5.73}, {'imgObject': {}, 'id': 'froot loops w milk', 'src': '/static/foodstim60/froot loops w milk.jpg', 'key': 'i', 'origWidth': 410, 'origHeight': 410, 'width': 410, 'height': 410, 'widthPercent': 0.45, 'rescaleHeight': False, 'trialN': 104, 'loaded': True, 'loadedTime': 3723.0999999046326, 'positionName': 'RIGHT', 'positionCoords': [998.4, 335], 'bid': 5.97}]",174090.59999990463,1669834122672,omelette,froot loops w milk,5.73,5.97,0.23999999999999932,omelette,1291.5,1292,1291.7999999523163,True,u,175899.70000004768,1809.1000001430511,1669834124481,1809,HRV,HRV_0224,2022-11-30 18:50:34
105,"[{'imgObject': {}, 'id': 'hashbrowns', 'src': '/static/foodstim60/hashbrowns.jpg', 'key': 'u', 'origWidth': 411, 'origHeight': 410, 'width': 411, 'height': 410, 'widthPercent': 0.45, 'rescaleHeight': False, 'trialN': 105, 'loaded': True, 'loadedTime': 3801.5999999046326, 'positionName': 'LEFT', 'positionCoords': [510.6, 335], 'bid': 0.08}, {'imgObject': {}, 'id': 'mac & cheese', 'src': '/static/foodstim60/mac & cheese.jpg', 'key': 'i', 'origWidth': 410, 'origHeight': 410, 'width': 410, 'height': 410, 'widthPercent': 0.45, 'rescaleHeight': False, 'trialN': 105, 'loaded': True, 'loadedTime': 4179.5, 'positionName': 'RIGHT', 'positionCoords': [998.4, 335], 'bid': 0.09}]",175899.89999985695,1669834124481,hashbrowns,mac & cheese,0.08,0.09,0.009999999999999995,hashbrowns,866.0,866,866.3000001907349,True,u,177273.29999995232,1373.4000000953674,1669834125854,1373,HRV,HRV_0224,2022-11-30 18:50:34
106,"[{'imgObject': {}, 'id': 'rigatoni', 'src': '/static/foodstim60/rigatoni.jpg', 'key': 'u', 'origWidth': 411, 'origHeight': 411, 'width': 411, 'height': 411, 'widthPercent': 0.45, 'rescaleHeight': False, 'trialN': 106, 'loaded': True, 'loadedTime': 3727.899999856949, 'positionName': 'LEFT', 'positionCoords': [510.6, 334.5], 'bid': 6.16}, {'imgObject': {}, 'id': 'shreddedwheatwithmilk', 'src': '/static/foodstim60/shreddedwheatwithmilk.jpg', 'key': 'i', 'origWidth': 410, 'origHeight': 410, 'width': 410, 'height': 410, 'widthPercent': 0.45, 'rescaleHeight': False, 'trialN': 106, 'loaded': True, 'loadedTime': 3960.2999999523163, 'positionName': 'RIGHT', 'positionCoords': [998.4, 335], 'bid': 0.03}]",177273.39999985695,1669834125854,rigatoni,shreddedwheatwithmilk,6.16,0.03,-6.13,rigatoni,844.5,845,844.8000001907349,True,u,178628.20000004768,1354.8000001907349,1669834127209,1355,HRV,HRV_0224,2022-11-30 18:50:34
107,"[{'imgObject': {}, 'id': 'eggs', 'src': '/static/foodstim60/eggs.jpg', 'key': 'u', 'origWidth': 409, 'origHeight': 409, 'width': 409, 'height': 409, 'widthPercent': 0.45, 'rescaleHeight': False, 'trialN': 107, 'loaded': True, 'loadedTime': 4343.799999952316, 'positionName': 'LEFT', 'positionCoords': [512.6, 335.5], 'bid': 7.31}, {'imgObject': {}, 'id': 'mac & cheese', 'src': '/static/foodstim60/mac & cheese.jpg', 'key': 'i', 'origWidth': 410, 'origHeight': 410, 'width': 410, 'height': 410, 'widthPercent': 0.45, 'rescaleHeight': False, 'trialN': 107, 'loaded': True, 'loadedTime': 4184, 'positionName': 'RIGHT', 'positionCoords': [998.4, 335], 'bid': 0.09}]",178628.39999985695,1669834127210,eggs,mac & cheese,7.31,0.09,-7.22,eggs,969.5,969,969.8000001907349,True,u,180103.59999990463,1475.2000000476837,1669834128685,1475,HRV,HRV_0224,2022-11-30 18:50:34
108,"[{'imgObject': {}, 'id': 'burger', 'src': '/static/foodstim60/burger.jpg', 'key': 'u', 'origWidth': 409, 'origHeight': 409, 'width': 409, 'height': 409, 'widthPercent': 0.45, 'rescaleHeight': False, 'trialN': 108, 'loaded': True, 'loadedTime': 3718.5, 'positionName': 'LEFT', 'positionCoords': [512.6, 335.5], 'bid': 7.59}, {'imgObject': {}, 'id': 'cherries', 'src': '/static/foodstim60/cherries.jpg', 'key': 'i', 'origWidth': 410, 'origHeight': 411, 'width': 410, 'height': 411, 'widthPercent': 0.45, 'rescaleHeight': False, 'trialN': 108, 'loaded': True, 'loadedTime': 4344, 'positionName': 'RIGHT', 'positionCoords': [998.4, 334.5], 'bid': 0.11}]",180103.70000004768,1669834128685,burger,cherries,7.59,0.11,-7.4799999999999995,burger,870.3999998569489,871,870.7999999523163,True,u,181491.70000004768,1388.0,1669834130073,1388,HRV,HRV_0224,2022-11-30 18:50:34
