success,trial_type,trial_index,time_elapsed,internal_node_id,Block,TrialNumber,TrialTime,trialTimeDiff,FPS_avg,FPS_med,FPS_mode,TrialDur,winResizeTime,rt,block,button_pressed,MotCoh,MotDir,ColCoh,Color,ChoiceKey,Choice,Accuracy,RT,nFrames,FPS,PPD,missTrial,missTrialMsg,onsetDelay,fullScreenExitTime,canvCenter,TrialType,Score,BlockTrial,stimulus,button_labels,exp,subjectId,date
True,fullscreen,0,2316,0.0-0.0,0.0,1.0,,,,,,,,,,,,,,,,,,,,,,,,,,,,,,,,HRV,HRV_0307,2022-11-30 22:46:34
,wl-check-fps,1,7317,0.0-1.0,0.0,2.0,"[2679.4, 2692.9, 2709.7, 2726.3, 2743.1, 2759.7, 2776.3, 2793, 2809.7, 2826.3, 2843.2, 2859.6, 2876.4, 2893, 2909.6, 2926.4, 2943, 2959.7, 2976.4, 2993, 3009.7, 3026.4, 3043, 3059.8, 3076.4, 3093.1, 3109.8, 3126.4, 3143.1, 3159.9, 3176.5, 3193.1, 3209.9, 3226.5, 3243.1, 3259.9, 3276.5, 3293.1, 3309.9, 3326.4, 3343.2, 3359.8, 3376.5, 3393.3, 3409.9, 3426.5, 3443.2, 3459.9, 3476.5, 3493.3, 3509.9, 3526.6, 3543.2, 3559.9, 3576.6, 3593.2, 3609.9, 3626.6, 3643.3, 3659.9, 3676.6, 3693.3, 3710.1, 3726.7, 3743.5, 3760.1, 3776.6, 3793.3, 3810, 3826.7, 3843.4, 3860, 3876.7, 3893.3, 3910, 3926.7, 3943.4, 3960.1, 3976.7, 3993.5, 4010.1, 4026.8, 4043.5, 4060.2, 4076.8, 4093.4, 4110.1, 4126.8, 4143.4, 4160.1, 4176.9, 4193.5, 4210.2, 4226.8, 4243.5, 4260.1, 4276.9, 4293.6, 4310.2, 4326.9, 4343.5, 4360.3, 4376.9, 4393.5, 4410.2, 4426.9, 4443.5, 4460.3, 4476.9, 4493.6, 4510.3, 4526.9, 4543.6, 4560.3, 4577, 4593.6, 4610.4, 4627, 4643.6, 4660.4, 4677, 4693.7, 4710.4, 4727, 4743.7, 4760.5, 4777.1, 4793.7, 4810.4, 4827.1, 4843.7, 4860.4, 4877.1, 4893.8, 4910.4, 4927, 4943.8, 4960.4, 4977.1, 4993.8, 5010.4, 5027.1, 5043.9, 5060.5, 5077.2, 5093.9, 5110.5, 5127.2, 5143.8, 5160.5, 5177.2, 5193.8, 5210.6, 5227.2, 5243.8, 5260.6, 5277.2, 5293.9, 5310.5, 5327.2, 5343.9, 5360.6, 5377.3, 5393.9, 5410.6, 5427.2, 5443.9, 5460.6, 5477.3, 5493.9, 5510.7, 5527.3, 5543.9, 5560.7, 5577.4, 5594, 5610.8, 5627.4, 5644.1, 5660.8, 5677.4, 5694.1, 5710.7, 5727.4, 5744.1, 5760.8, 5777.5, 5794.1, 5810.8, 5827.4, 5844.1, 5860.8, 5877.4, 5894.2, 5910.8, 5927.5, 5944.2, 5961, 5977.5, 5994.3, 6010.9, 6027.5, 6044.2, 6060.9, 6077.6, 6094.3, 6110.9, 6127.6, 6144.2, 6160.9, 6177.5, 6194.2, 6210.9, 6227.5, 6244.2, 6260.9, 6277.5, 6294.3, 6310.9, 6327.6, 6344.4, 6361, 6378.1, 6394.4, 6411, 6427.7, 6444.4, 6461, 6477.7, 6494.4, 6511.1, 6527.8, 6544.4, 6561, 6577.7, 6594.3, 6611, 6627.7, 6644.4, 6661.1, 6677.8, 6694.4, 6711.2, 6727.8, 6744.5, 6761.1, 6777.8, 6794.5, 6811.2, 6827.9, 6844.5, 6861.2, 6877.8, 6894.5, 6911.2, 6927.9, 6944.5, 6961.2, 6977.8, 6994.5, 7011.1, 7027.9, 7044.5, 7061.2, 7077.9, 7094.6, 7111.3, 7128, 7144.5, 7161.3, 7177.9, 7194.6, 7211.4, 7227.9, 7244.6, 7261.3, 7278, 7294.7, 7311.4, 7327.9, 7344.6, 7361.4, 7378, 7394.7, 7411.4, 7428, 7444.7, 7461.3, 7478.1, 7494.7, 7511.4, 7528.1, 7544.7, 7561.5, 7578.1, 7594.8, 7611.4, 7628.1, 7644.8, 7661.5]","[0.8, 13.5, 16.8, 16.6, 16.8, 16.6, 16.6, 16.7, 16.7, 16.6, 16.9, 16.4, 16.8, 16.6, 16.6, 16.8, 16.6, 16.7, 16.7, 16.6, 16.7, 16.7, 16.6, 16.8, 16.6, 16.7, 16.7, 16.6, 16.7, 16.8, 16.6, 16.6, 16.8, 16.6, 16.6, 16.8, 16.6, 16.6, 16.8, 16.5, 16.8, 16.6, 16.7, 16.8, 16.6, 16.6, 16.7, 16.7, 16.6, 16.8, 16.6, 16.7, 16.6, 16.7, 16.7, 16.6, 16.7, 16.7, 16.7, 16.6, 16.7, 16.7, 16.8, 16.6, 16.8, 16.6, 16.5, 16.7, 16.7, 16.7, 16.7, 16.6, 16.7, 16.6, 16.7, 16.7, 16.7, 16.7, 16.6, 16.8, 16.6, 16.7, 16.7, 16.7, 16.6, 16.6, 16.7, 16.7, 16.6, 16.7, 16.8, 16.6, 16.7, 16.6, 16.7, 16.6, 16.8, 16.7, 16.6, 16.7, 16.6, 16.8, 16.6, 16.6, 16.7, 16.7, 16.6, 16.8, 16.6, 16.7, 16.7, 16.6, 16.7, 16.7, 16.7, 16.6, 16.8, 16.6, 16.6, 16.8, 16.6, 16.7, 16.7, 16.6, 16.7, 16.8, 16.6, 16.6, 16.7, 16.7, 16.6, 16.7, 16.7, 16.7, 16.6, 16.6, 16.8, 16.6, 16.7, 16.7, 16.6, 16.7, 16.8, 16.6, 16.7, 16.7, 16.6, 16.7, 16.6, 16.7, 16.7, 16.6, 16.8, 16.6, 16.6, 16.8, 16.6, 16.7, 16.6, 16.7, 16.7, 16.7, 16.7, 16.6, 16.7, 16.6, 16.7, 16.7, 16.7, 16.6, 16.8, 16.6, 16.6, 16.8, 16.7, 16.6, 16.8, 16.6, 16.7, 16.7, 16.6, 16.7, 16.6, 16.7, 16.7, 16.7, 16.7, 16.6, 16.7, 16.6, 16.7, 16.7, 16.6, 16.8, 16.6, 16.7, 16.7, 16.8, 16.5, 16.8, 16.6, 16.6, 16.7, 16.7, 16.7, 16.7, 16.6, 16.7, 16.6, 16.7, 16.6, 16.7, 16.7, 16.6, 16.7, 16.7, 16.6, 16.8, 16.6, 16.7, 16.8, 16.6, 17.1, 16.3, 16.6, 16.7, 16.7, 16.6, 16.7, 16.7, 16.7, 16.7, 16.6, 16.6, 16.7, 16.6, 16.7, 16.7, 16.7, 16.7, 16.7, 16.6, 16.8, 16.6, 16.7, 16.6, 16.7, 16.7, 16.7, 16.7, 16.6, 16.7, 16.6, 16.7, 16.7, 16.7, 16.6, 16.7, 16.6, 16.7, 16.6, 16.8, 16.6, 16.7, 16.7, 16.7, 16.7, 16.7, 16.5, 16.8, 16.6, 16.7, 16.8, 16.5, 16.7, 16.7, 16.7, 16.7, 16.7, 16.5, 16.7, 16.8, 16.6, 16.7, 16.7, 16.6, 16.7, 16.6, 16.8, 16.6, 16.7, 16.7, 16.6, 16.8, 16.6, 16.7, 16.6, 16.7, 16.7, 16.7]",60.0,60.0,60.0,4999.6,[],,,,,,,,,,,,,,,,,,,,,,,,,HRV,HRV_0307,2022-11-30 22:46:34
,wl-html-keyboard-response,2,30328,0.0-2.0-0.0,0.0,3.0,,,,,,,,21001.10000000056,0.0,0,,,,,,,,,,,,,,,,,,,,,,HRV,HRV_0307,2022-11-30 22:46:34
,wl-rdm,3,39012,0.0-3.0-0.0,0.0,4.0,,,,,,,[],,,,0.0,0.0,87.9,0.0,u,0.0,True,3124.7000000001863,188.0,60.0,40.0,False,,3000.0,[],"[800, 450]",ColorTask_Demo,,,,,HRV,HRV_0307,2022-11-30 22:46:34
,wl-rdm,4,43180,0.0-3.0-1.0,0.0,5.0,,,,,,,[],,,,0.0,0.0,87.9,1.0,i,1.0,True,102.30000000074506,7.0,60.0,40.0,False,,2000.0,[],"[800, 450]",ColorTask_Demo,,,,,HRV,HRV_0307,2022-11-30 22:46:34
,wl-html-keyboard-response,5,47993,0.0-3.0-2.0,0.0,6.0,,,,,,,,2803.0999999996275,0.0,1,,,,,,,,,,,,,,,,,,,,,,HRV,HRV_0307,2022-11-30 22:46:34
,wl-html-keyboard-response,6,60801,0.0-4.0-0.0,0.0,7.0,,,,,,,,10798.099999999627,0.0,0,,,,,,,,,,,,,,,,,,,,,,HRV,HRV_0307,2022-11-30 22:46:34
,wl-html-keyboard-response,7,82584,0.0-5.0-0.0,0.0,8.0,,,,,,,,19774.299999999814,0.0,0,,,,,,,,,,,,,,,,,,,,,,HRV,HRV_0307,2022-11-30 22:46:34
,wl-rdm,8,86145,0.0-6.0-0.0,0.0,9.0,,,,,,,[],,,,,,73.6,0.0,u,0.0,True,2112.899999999441,127.0,60.0,40.0,False,,389.5385516524558,[],"[800, 450]",ColorTask,1.0,1.0,,,HRV,HRV_0307,2022-11-30 22:46:34
,wl-rdm,9,88929,0.0-6.1-0.1,0.0,10.0,,,,,,,[],,,,,,53.2,1.0,i,1.0,True,1488.2999999998137,90.0,60.0,40.0,False,,215.32130443161188,[],"[800, 450]",ColorTask,2.0,2.0,,,HRV,HRV_0307,2022-11-30 22:46:34
,wl-rdm,10,91447,0.0-6.2-0.2,0.0,11.0,,,,,,,[],,,,,,62.5,1.0,i,1.0,True,1206.8999999994412,73.0,60.0,40.0,False,,248.91587985271912,[],"[800, 450]",ColorTask,3.0,3.0,,,HRV,HRV_0307,2022-11-30 22:46:34
,wl-rdm,11,93881,0.0-6.3-0.3,0.0,12.0,,,,,,,[],,,,,,56.4,1.0,i,1.0,True,1121.1000000005588,68.0,60.0,40.0,False,,239.99083043683726,[],"[800, 450]",ColorTask,4.0,4.0,,,HRV,HRV_0307,2022-11-30 22:46:34
,wl-rdm,12,96282,0.0-6.4-0.4,0.0,13.0,,,,,,,[],,,,,,56.4,0.0,u,0.0,True,961.5,58.0,60.0,40.0,False,,369.4516942386466,[],"[800, 450]",ColorTask,5.0,5.0,,,HRV,HRV_0307,2022-11-30 22:46:34
,wl-rdm,13,98316,0.0-6.5-0.5,0.0,14.0,,,,,,,[],,,,,,87.9,0.0,u,0.0,True,701.4000000003725,43.0,60.0,40.0,False,,266.2692513942935,[],"[800, 450]",ColorTask,6.0,6.0,,,HRV,HRV_0307,2022-11-30 22:46:34
,wl-rdm,14,100667,0.0-6.6-0.6,0.0,15.0,,,,,,,[],,,,,,50.0,1.0,i,1.0,True,1027.300000000745,62.0,60.0,40.0,False,,259.10744041204856,[],"[800, 450]",ColorTask,7.0,7.0,,,HRV,HRV_0307,2022-11-30 22:46:34
,wl-rdm,15,103718,0.0-6.7-0.7,0.0,16.0,,,,,,,[],,,,,,53.2,0.0,u,0.0,True,1774.7999999998137,107.0,60.0,40.0,False,,211.5298530080994,[],"[800, 450]",ColorTask,8.0,8.0,,,HRV,HRV_0307,2022-11-30 22:46:34
,wl-rdm,16,107303,0.0-6.8-0.8,0.0,17.0,,,,,,,[],,,,,,53.2,0.0,u,0.0,True,2248.7000000001863,135.0,60.0,40.0,False,,278.5589414037237,[],"[800, 450]",ColorTask,9.0,9.0,,,HRV,HRV_0307,2022-11-30 22:46:34
,wl-rdm,17,109554,0.0-6.9-0.9,0.0,18.0,,,,,,,[],,,,,,50.0,1.0,i,1.0,True,945.2000000001863,57.0,60.0,40.0,False,,241.23364772460545,[],"[800, 450]",ColorTask,10.0,10.0,,,HRV,HRV_0307,2022-11-30 22:46:34
,wl-rdm,18,113005,0.0-6.10-0.10,0.0,19.0,,,,,,,[],,,,,,53.2,0.0,u,0.0,True,2101.4000000003725,127.0,60.0,40.0,False,,269.5080329284026,[],"[800, 450]",ColorTask,11.0,11.0,,,HRV,HRV_0307,2022-11-30 22:46:34
,wl-rdm,19,115156,0.0-6.11-0.11,0.0,20.0,,,,,,,[],,,,,,87.9,0.0,u,0.0,True,768.7999999998137,47.0,60.0,40.0,False,,316.7120240776281,[],"[800, 450]",ColorTask,12.0,12.0,,,HRV,HRV_0307,2022-11-30 22:46:34
,wl-rdm,20,117340,0.0-6.12-0.12,0.0,21.0,,,,,,,[],,,,,,56.4,0.0,i,1.0,False,901.9000000003725,55.0,60.0,40.0,False,,212.63795178641016,[],"[800, 450]",ColorTask,11.0,13.0,,,HRV,HRV_0307,2022-11-30 22:46:34
,wl-rdm,21,119341,0.0-6.13-0.13,0.0,22.0,,,,,,,[],,,,,,73.6,1.0,i,1.0,True,700.9000000003725,43.0,60.0,40.0,False,,226.1394654351988,[],"[800, 450]",ColorTask,12.0,14.0,,,HRV,HRV_0307,2022-11-30 22:46:34
,wl-rdm,22,122459,0.0-6.14-0.14,0.0,23.0,,,,,,,[],,,,,,50.0,0.0,u,0.0,True,1753.5,106.0,60.0,40.0,False,,289.05336729096877,[],"[800, 450]",ColorTask,13.0,15.0,,,HRV,HRV_0307,2022-11-30 22:46:34
,wl-rdm,23,125743,0.0-6.15-0.15,0.0,24.0,,,,,,,[],,,,,,50.0,0.0,u,0.0,True,1940.7000000001863,117.0,60.0,40.0,False,,274.6049320333928,[],"[800, 450]",ColorTask,14.0,16.0,,,HRV,HRV_0307,2022-11-30 22:46:34
,wl-rdm,24,129861,0.0-6.16-0.16,0.0,25.0,,,,,,,[],,,,,,62.5,0.0,u,0.0,True,2717.100000000559,163.0,60.0,40.0,False,,341.41701216389066,[],"[800, 450]",ColorTask,15.0,17.0,,,HRV,HRV_0307,2022-11-30 22:46:34
,wl-rdm,25,132296,0.0-6.17-0.17,0.0,26.0,,,,,,,[],,,,,,87.9,1.0,i,1.0,True,1097.7000000001863,66.0,60.0,40.0,False,,269.40939002341344,[],"[800, 450]",ColorTask,16.0,18.0,,,HRV,HRV_0307,2022-11-30 22:46:34
,wl-rdm,26,135013,0.0-6.18-0.18,0.0,27.0,,,,,,,[],,,,,,53.2,0.0,i,1.0,False,1401.0,85.0,60.0,40.0,False,,237.85097750482677,[],"[800, 450]",ColorTask,15.0,19.0,,,HRV,HRV_0307,2022-11-30 22:46:34
,wl-rdm,27,138481,0.0-6.19-0.19,0.0,28.0,,,,,,,[],,,,,,56.4,1.0,u,0.0,False,2105.399999999441,127.0,60.0,40.0,False,,292.51930169430784,[],"[800, 450]",ColorTask,14.0,20.0,,,HRV,HRV_0307,2022-11-30 22:46:34
,wl-rdm,28,142549,0.0-6.20-0.20,0.0,29.0,,,,,,,[],,,,,,50.0,0.0,i,1.0,False,2618.4000000003725,158.0,60.0,40.0,False,,371.7447288883286,[],"[800, 450]",ColorTask,13.0,21.0,,,HRV,HRV_0307,2022-11-30 22:46:34
,wl-rdm,29,145300,0.0-6.21-0.21,0.0,30.0,,,,,,,[],,,,,,73.6,1.0,i,1.0,True,1476.4000000003725,89.0,60.0,40.0,False,,201.73710045306515,[],"[800, 450]",ColorTask,14.0,22.0,,,HRV,HRV_0307,2022-11-30 22:46:34
,wl-rdm,30,147618,0.0-6.22-0.22,0.0,31.0,,,,,,,[],,,,,,73.6,0.0,u,0.0,True,1045.4000000003725,63.0,60.0,40.0,False,,202.56502743645086,[],"[800, 450]",ColorTask,15.0,23.0,,,HRV,HRV_0307,2022-11-30 22:46:34
,wl-rdm,31,151903,0.0-6.23-0.23,0.0,31.0,,,,,,,[],,,,,,56.4,0.0,,,,,179.0,60.0,40.0,True,RT_timeout ,211.16758503422346,[],"[800, 450]",ColorTask,14.0,24.0,,,HRV,HRV_0307,2022-11-30 22:46:34
,wl-rdm,32,155154,0.0-6.24-0.24,0.0,32.0,,,,,,,[],,,,,,62.5,0.0,u,0.0,True,1962.5999999996275,118.0,60.0,40.0,False,,221.59119891154083,[],"[800, 450]",ColorTask,15.0,25.0,,,HRV,HRV_0307,2022-11-30 22:46:34
,wl-rdm,33,158038,0.0-6.25-0.25,0.0,33.0,,,,,,,[],,,,,,53.2,0.0,u,0.0,True,1565.7999999998137,94.0,60.0,40.0,False,,252.49060000226578,[],"[800, 450]",ColorTask,16.0,26.0,,,HRV,HRV_0307,2022-11-30 22:46:34
,wl-rdm,34,160806,0.0-6.26-0.26,0.0,34.0,,,,,,,[],,,,,,56.4,0.0,u,0.0,True,1499.4000000003725,90.0,60.0,40.0,False,,201.92282075294145,[],"[800, 450]",ColorTask,17.0,27.0,,,HRV,HRV_0307,2022-11-30 22:46:34
,wl-rdm,35,162990,0.0-6.27-0.27,0.0,35.0,,,,,,,[],,,,,,87.9,1.0,i,1.0,True,891.0999999996275,54.0,60.0,40.0,False,,224.94596541114115,[],"[800, 450]",ColorTask,18.0,28.0,,,HRV,HRV_0307,2022-11-30 22:46:34
,wl-rdm,36,165358,0.0-6.28-0.28,0.0,36.0,,,,,,,[],,,,,,73.6,1.0,i,1.0,True,1084.0999999996275,66.0,60.0,40.0,False,,202.80185904237507,[],"[800, 450]",ColorTask,19.0,29.0,,,HRV,HRV_0307,2022-11-30 22:46:34
,wl-rdm,37,167575,0.0-6.29-0.29,0.0,37.0,,,,,,,[],,,,,,73.6,1.0,i,1.0,True,831.4000000003725,50.0,60.0,40.0,False,,323.1376219520199,[],"[800, 450]",ColorTask,20.0,30.0,,,HRV,HRV_0307,2022-11-30 22:46:34
,wl-rdm,38,169793,0.0-6.30-0.30,0.0,38.0,,,,,,,[],,,,,,56.4,1.0,i,1.0,True,829.7999999998137,50.0,60.0,40.0,False,,320.8981711840617,[],"[800, 450]",ColorTask,21.0,31.0,,,HRV,HRV_0307,2022-11-30 22:46:34
,wl-rdm,39,172677,0.0-6.31-0.31,0.0,39.0,,,,,,,[],,,,,,56.4,1.0,i,1.0,True,1467.7999999998137,89.0,60.0,40.0,False,,337.9345970142142,[],"[800, 450]",ColorTask,22.0,32.0,,,HRV,HRV_0307,2022-11-30 22:46:34
,wl-rdm,40,176962,0.0-6.32-0.32,0.0,40.0,,,,,,,[],,,,,,56.4,1.0,i,1.0,True,2979.7000000001863,179.0,60.0,40.0,False,,247.96189958420786,[],"[800, 450]",ColorTask,23.0,33.0,,,HRV,HRV_0307,2022-11-30 22:46:34
,wl-rdm,41,180230,0.0-6.33-0.33,0.0,41.0,,,,,,,[],,,,,,53.2,1.0,i,1.0,True,1916.4000000003725,115.0,60.0,40.0,False,,287.2151034686766,[],"[800, 450]",ColorTask,24.0,34.0,,,HRV,HRV_0307,2022-11-30 22:46:34
,wl-rdm,42,183614,0.0-6.34-0.34,0.0,42.0,,,,,,,[],,,,,,50.0,1.0,u,0.0,False,2074.699999999255,125.0,60.0,40.0,False,,245.24362476333263,[],"[800, 450]",ColorTask,23.0,35.0,,,HRV,HRV_0307,2022-11-30 22:46:34
,wl-rdm,43,186832,0.0-6.35-0.35,0.0,43.0,,,,,,,[],,,,,,56.4,1.0,i,1.0,True,1847.3999999994412,111.0,60.0,40.0,False,,314.9585235736114,[],"[800, 450]",ColorTask,24.0,36.0,,,HRV,HRV_0307,2022-11-30 22:46:34
,wl-rdm,44,190367,0.0-6.36-0.36,0.0,44.0,,,,,,,[],,,,,,56.4,1.0,i,1.0,True,2191.0999999996275,132.0,60.0,40.0,False,,271.28969032111945,[],"[800, 450]",ColorTask,25.0,37.0,,,HRV,HRV_0307,2022-11-30 22:46:34
,wl-rdm,45,193101,0.0-6.37-0.37,0.0,45.0,,,,,,,[],,,,,,56.4,0.0,u,0.0,True,1283.5999999996275,77.0,60.0,40.0,False,,386.04106087045994,[],"[800, 450]",ColorTask,26.0,38.0,,,HRV,HRV_0307,2022-11-30 22:46:34
,wl-rdm,46,195352,0.0-6.38-0.38,0.0,46.0,,,,,,,[],,,,,,87.9,1.0,i,1.0,True,930.5999999996275,56.0,60.0,40.0,False,,254.82309368374783,[],"[800, 450]",ColorTask,27.0,39.0,,,HRV,HRV_0307,2022-11-30 22:46:34
,wl-rdm,47,198370,0.0-6.39-0.39,0.0,47.0,,,,,,,[],,,,,,73.6,1.0,i,1.0,True,1571.199999999255,95.0,60.0,40.0,False,,370.45658449625734,[],"[800, 450]",ColorTask,28.0,40.0,,,HRV,HRV_0307,2022-11-30 22:46:34
,wl-rdm,48,200571,0.0-6.40-0.40,0.0,48.0,,,,,,,[],,,,,,87.9,0.0,u,0.0,True,770.2999999998137,47.0,60.0,40.0,False,,363.64810989373274,[],"[800, 450]",ColorTask,29.0,41.0,,,HRV,HRV_0307,2022-11-30 22:46:34
,wl-rdm,49,203188,0.0-6.41-0.41,0.0,49.0,,,,,,,[],,,,,,62.5,0.0,u,0.0,True,1209.7999999998137,73.0,60.0,40.0,False,,346.97067005150353,[],"[800, 450]",ColorTask,30.0,42.0,,,HRV,HRV_0307,2022-11-30 22:46:34
,wl-rdm,50,207023,0.0-6.42-0.42,0.0,50.0,,,,,,,[],,,,,,50.0,0.0,i,1.0,False,2525.0,152.0,60.0,40.0,False,,227.8655910266415,[],"[800, 450]",ColorTask,29.0,43.0,,,HRV,HRV_0307,2022-11-30 22:46:34
,wl-rdm,51,209958,0.0-6.43-0.43,0.0,51.0,,,,,,,[],,,,,,73.6,1.0,i,1.0,True,1583.5,95.0,60.0,40.0,False,,284.74044570600813,[],"[800, 450]",ColorTask,30.0,44.0,,,HRV,HRV_0307,2022-11-30 22:46:34
,wl-rdm,52,212258,0.0-6.44-0.44,0.0,52.0,,,,,,,[],,,,,,73.6,1.0,i,1.0,True,895.3000000007451,54.0,60.0,40.0,False,,345.9049996974912,[],"[800, 450]",ColorTask,31.0,45.0,,,HRV,HRV_0307,2022-11-30 22:46:34
,wl-rdm,53,214826,0.0-6.45-0.45,0.0,53.0,,,,,,,[],,,,,,50.0,0.0,u,0.0,True,1237.5,75.0,60.0,40.0,False,,255.47163388536097,[],"[800, 450]",ColorTask,32.0,46.0,,,HRV,HRV_0307,2022-11-30 22:46:34
,wl-rdm,54,218527,0.0-6.46-0.46,0.0,54.0,,,,,,,[],,,,,,62.5,1.0,i,1.0,True,2398.5999999996275,144.0,60.0,40.0,False,,241.43605838355094,[],"[800, 450]",ColorTask,33.0,47.0,,,HRV,HRV_0307,2022-11-30 22:46:34
,wl-rdm,55,221128,0.0-6.47-0.47,0.0,55.0,,,,,,,[],,,,,,62.5,1.0,i,1.0,True,1306.0,79.0,60.0,40.0,False,,231.83542027428396,[],"[800, 450]",ColorTask,34.0,48.0,,,HRV,HRV_0307,2022-11-30 22:46:34
,wl-rdm,56,225363,0.0-6.48-0.48,0.0,56.0,,,,,,,[],,,,,,53.2,1.0,i,1.0,True,2920.5999999996275,176.0,60.0,40.0,False,,248.68755811201476,[],"[800, 450]",ColorTask,35.0,49.0,,,HRV,HRV_0307,2022-11-30 22:46:34
,wl-rdm,57,227514,0.0-6.49-0.49,0.0,57.0,,,,,,,[],,,,,,87.9,0.0,u,0.0,True,828.6999999992549,50.0,60.0,40.0,False,,262.73935533171414,[],"[800, 450]",ColorTask,36.0,50.0,,,HRV,HRV_0307,2022-11-30 22:46:34
,wl-rdm,58,231265,0.0-6.50-0.50,0.0,58.0,,,,,,,[],,,,,,50.0,1.0,i,1.0,True,2313.2999999998137,139.0,60.0,40.0,False,,376.0064882787845,[],"[800, 450]",ColorTask,37.0,51.0,,,HRV,HRV_0307,2022-11-30 22:46:34
,wl-rdm,59,233599,0.0-6.51-0.51,0.0,59.0,,,,,,,[],,,,,,73.6,0.0,u,0.0,True,981.2000000001863,59.0,60.0,40.0,False,,285.9320395253906,[],"[800, 450]",ColorTask,38.0,52.0,,,HRV,HRV_0307,2022-11-30 22:46:34
,wl-rdm,60,235683,0.0-6.52-0.52,0.0,60.0,,,,,,,[],,,,,,87.9,1.0,i,1.0,True,752.7999999998137,46.0,60.0,40.0,False,,250.54764045363686,[],"[800, 450]",ColorTask,39.0,53.0,,,HRV,HRV_0307,2022-11-30 22:46:34
,wl-rdm,61,237800,0.0-6.53-0.53,0.0,61.0,,,,,,,[],,,,,,73.6,0.0,u,0.0,True,846.2999999998137,51.0,60.0,40.0,False,,207.24910706226078,[],"[800, 450]",ColorTask,40.0,54.0,,,HRV,HRV_0307,2022-11-30 22:46:34
,wl-rdm,62,239885,0.0-6.54-0.54,0.0,62.0,,,,,,,[],,,,,,87.9,1.0,i,1.0,True,725.5,44.0,60.0,40.0,False,,294.7162942654659,[],"[800, 450]",ColorTask,41.0,55.0,,,HRV,HRV_0307,2022-11-30 22:46:34
,wl-rdm,63,243519,0.0-6.55-0.55,0.0,63.0,,,,,,,[],,,,,,50.0,1.0,u,0.0,False,2348.100000000559,141.0,60.0,40.0,False,,221.20883228804234,[],"[800, 450]",ColorTask,40.0,56.0,,,HRV,HRV_0307,2022-11-30 22:46:34
,wl-rdm,64,246987,0.0-6.56-0.56,0.0,64.0,,,,,,,[],,,,,,50.0,1.0,u,0.0,False,2094.4000000003725,126.0,60.0,40.0,False,,300.47048257442094,[],"[800, 450]",ColorTask,39.0,57.0,,,HRV,HRV_0307,2022-11-30 22:46:34
,wl-rdm,65,248955,0.0-6.57-0.57,0.0,65.0,,,,,,,[],,,,,,87.9,1.0,i,1.0,True,660.8999999994412,40.0,60.0,40.0,False,,235.63973981952827,[],"[800, 450]",ColorTask,40.0,58.0,,,HRV,HRV_0307,2022-11-30 22:46:34
,wl-rdm,66,251455,0.0-6.58-0.58,0.0,66.0,,,,,,,[],,,,,,56.4,1.0,u,0.0,False,1039.4000000003725,63.0,60.0,40.0,False,,389.1804041234912,[],"[800, 450]",ColorTask,39.0,59.0,,,HRV,HRV_0307,2022-11-30 22:46:34
,wl-rdm,67,255040,0.0-6.59-0.59,0.0,67.0,,,,,,,[],,,,,,62.5,1.0,i,1.0,True,2213.899999999441,133.0,60.0,40.0,False,,303.6037881360502,[],"[800, 450]",ColorTask,40.0,60.0,,,HRV,HRV_0307,2022-11-30 22:46:34
,wl-rdm,68,258625,0.0-6.60-0.60,0.0,68.0,,,,,,,[],,,,,,50.0,0.0,u,0.0,True,2213.699999999255,133.0,60.0,40.0,False,,310.5641742480008,[],"[800, 450]",ColorTask,41.0,61.0,,,HRV,HRV_0307,2022-11-30 22:46:34
,wl-rdm,69,260692,0.0-6.61-0.61,0.0,69.0,,,,,,,[],,,,,,87.9,0.0,u,0.0,True,751.5,46.0,60.0,40.0,False,,235.19893652675222,[],"[800, 450]",ColorTask,42.0,62.0,,,HRV,HRV_0307,2022-11-30 22:46:34
,wl-rdm,70,262743,0.0-6.62-0.62,0.0,70.0,,,,,,,[],,,,,,87.9,0.0,u,0.0,True,723.2000000001863,44.0,60.0,40.0,False,,258.0703796334655,[],"[800, 450]",ColorTask,43.0,63.0,,,HRV,HRV_0307,2022-11-30 22:46:34
,wl-rdm,71,265194,0.0-6.63-0.63,0.0,71.0,,,,,,,[],,,,,,62.5,0.0,u,0.0,True,1070.5,65.0,60.0,40.0,False,,309.831380540271,[],"[800, 450]",ColorTask,44.0,64.0,,,HRV,HRV_0307,2022-11-30 22:46:34
,wl-rdm,72,267245,0.0-6.64-0.64,0.0,72.0,,,,,,,[],,,,,,73.6,0.0,u,0.0,True,617.7000000001863,38.0,60.0,40.0,False,,365.94300756892846,[],"[800, 450]",ColorTask,45.0,65.0,,,HRV,HRV_0307,2022-11-30 22:46:34
,wl-rdm,73,269362,0.0-6.65-0.65,0.0,73.0,,,,,,,[],,,,,,87.9,0.0,u,0.0,True,670.7000000001863,41.0,60.0,40.0,False,,381.44721024021476,[],"[800, 450]",ColorTask,46.0,66.0,,,HRV,HRV_0307,2022-11-30 22:46:34
,wl-rdm,74,272013,0.0-6.66-0.66,0.0,74.0,,,,,,,[],,,,,,50.0,0.0,u,0.0,True,1350.9000000003725,82.0,60.0,40.0,False,,231.95476669117423,[],"[800, 450]",ColorTask,47.0,67.0,,,HRV,HRV_0307,2022-11-30 22:46:34
,wl-rdm,75,274164,0.0-6.67-0.67,0.0,75.0,,,,,,,[],,,,,,87.9,0.0,u,0.0,True,843.0,51.0,60.0,40.0,False,,243.70087778685854,[],"[800, 450]",ColorTask,48.0,68.0,,,HRV,HRV_0307,2022-11-30 22:46:34
,wl-rdm,76,276731,0.0-6.68-0.68,0.0,76.0,,,,,,,[],,,,,,62.5,0.0,u,0.0,True,1210.2000000001863,73.0,60.0,40.0,False,,290.63201199660296,[],"[800, 450]",ColorTask,49.0,69.0,,,HRV,HRV_0307,2022-11-30 22:46:34
,wl-rdm,77,279682,0.0-6.69-0.69,0.0,77.0,,,,,,,[],,,,,,53.2,0.0,u,0.0,True,1653.3999999994412,100.0,60.0,40.0,False,,222.34686884077595,[],"[800, 450]",ColorTask,50.0,70.0,,,HRV,HRV_0307,2022-11-30 22:46:34
,wl-rdm,78,282133,0.0-6.70-0.70,0.0,78.0,,,,,,,[],,,,,,87.9,0.0,u,0.0,True,1124.7999999998137,68.0,60.0,40.0,False,,250.56232249506508,[],"[800, 450]",ColorTask,51.0,71.0,,,HRV,HRV_0307,2022-11-30 22:46:34
,wl-rdm,79,286001,0.0-6.71-0.71,0.0,79.0,,,,,,,[],,,,,,53.2,1.0,i,1.0,True,2512.7000000001863,151.0,60.0,40.0,False,,283.7715189714995,[],"[800, 450]",ColorTask,52.0,72.0,,,HRV,HRV_0307,2022-11-30 22:46:34
,wl-rdm,80,288953,0.0-6.72-0.72,0.0,80.0,,,,,,,[],,,,,,56.4,0.0,u,0.0,True,1546.5999999996275,93.0,60.0,40.0,False,,349.04959109748654,[],"[800, 450]",ColorTask,53.0,73.0,,,HRV,HRV_0307,2022-11-30 22:46:34
,wl-rdm,81,291121,0.0-6.73-0.73,0.0,81.0,,,,,,,[],,,,,,87.9,1.0,i,1.0,True,730.5999999996275,44.0,60.0,40.0,False,,373.34930726298796,[],"[800, 450]",ColorTask,54.0,74.0,,,HRV,HRV_0307,2022-11-30 22:46:34
,wl-rdm,82,293572,0.0-6.74-0.74,0.0,82.0,,,,,,,[],,,,,,53.2,0.0,u,0.0,True,1044.0,63.0,60.0,40.0,False,,337.05925571947324,[],"[800, 450]",ColorTask,55.0,75.0,,,HRV,HRV_0307,2022-11-30 22:46:34
,wl-rdm,83,296890,0.0-6.75-0.75,0.0,83.0,,,,,,,[],,,,,,50.0,0.0,i,1.0,False,1863.0999999996275,112.0,60.0,40.0,False,,388.510069045553,[],"[800, 450]",ColorTask,54.0,76.0,,,HRV,HRV_0307,2022-11-30 22:46:34
,wl-rdm,84,300825,0.0-6.76-0.76,0.0,84.0,,,,,,,[],,,,,,53.2,1.0,i,1.0,True,2506.7000000001863,151.0,60.0,40.0,False,,359.67041387872405,[],"[800, 450]",ColorTask,55.0,77.0,,,HRV,HRV_0307,2022-11-30 22:46:34
,wl-rdm,85,303542,0.0-6.77-0.77,0.0,85.0,,,,,,,[],,,,,,62.5,0.0,u,0.0,True,1333.4999999990687,80.0,60.0,40.0,False,,333.3271822522127,[],"[800, 450]",ColorTask,56.0,78.0,,,HRV,HRV_0307,2022-11-30 22:46:34
,wl-rdm,86,306593,0.0-6.78-0.78,0.0,86.0,,,,,,,[],,,,,,53.2,1.0,i,1.0,True,1596.7000000001863,96.0,60.0,40.0,False,,390.79570935362904,[],"[800, 450]",ColorTask,57.0,79.0,,,HRV,HRV_0307,2022-11-30 22:46:34
,wl-rdm,87,308727,0.0-6.79-0.79,0.0,87.0,,,,,,,[],,,,,,73.6,0.0,u,0.0,True,798.4000000003725,48.0,60.0,40.0,False,,269.97432651054385,[],"[800, 450]",ColorTask,58.0,80.0,,,HRV,HRV_0307,2022-11-30 22:46:34
,wl-rdm,88,310762,0.0-6.80-0.80,0.0,88.0,,,,,,,[],,,,,,73.6,0.0,u,0.0,True,738.4000000003725,45.0,60.0,40.0,False,,220.18675383058758,[],"[800, 450]",ColorTask,59.0,81.0,,,HRV,HRV_0307,2022-11-30 22:46:34
,wl-rdm,89,313963,0.0-6.81-0.81,0.0,89.0,,,,,,,[],,,,,,56.4,1.0,i,1.0,True,1795.9000000003725,108.0,60.0,40.0,False,,344.96252064117084,[],"[800, 450]",ColorTask,60.0,82.0,,,HRV,HRV_0307,2022-11-30 22:46:34
,wl-rdm,90,316380,0.0-6.82-0.82,0.0,90.0,,,,,,,[],,,,,,56.4,0.0,u,0.0,True,1093.7000000001863,66.0,60.0,40.0,False,,263.9304444887209,[],"[800, 450]",ColorTask,61.0,83.0,,,HRV,HRV_0307,2022-11-30 22:46:34
,wl-rdm,91,319148,0.0-6.83-0.83,0.0,91.0,,,,,,,[],,,,,,50.0,1.0,i,1.0,True,1444.2999999998137,87.0,60.0,40.0,False,,266.09934277829154,[],"[800, 450]",ColorTask,62.0,84.0,,,HRV,HRV_0307,2022-11-30 22:46:34
,wl-rdm,92,322716,0.0-6.84-0.84,0.0,92.0,,,,,,,[],,,,,,62.5,1.0,i,1.0,True,2261.2000000001863,136.0,60.0,40.0,False,,244.4420640160048,[],"[800, 450]",ColorTask,63.0,85.0,,,HRV,HRV_0307,2022-11-30 22:46:34
,wl-rdm,93,325734,0.0-6.85-0.85,0.0,93.0,,,,,,,[],,,,,,50.0,0.0,u,0.0,True,1609.5999999996275,97.0,60.0,40.0,False,,344.8282600239214,[],"[800, 450]",ColorTask,64.0,86.0,,,HRV,HRV_0307,2022-11-30 22:46:34
,wl-rdm,94,328968,0.0-6.86-0.86,0.0,94.0,,,,,,,[],,,,,,62.5,1.0,i,1.0,True,1856.9000000003725,112.0,60.0,40.0,False,,309.7364835932043,[],"[800, 450]",ColorTask,65.0,87.0,,,HRV,HRV_0307,2022-11-30 22:46:34
,wl-rdm,95,331369,0.0-6.87-0.87,0.0,95.0,,,,,,,[],,,,,,53.2,0.0,i,1.0,False,1113.6000000005588,67.0,60.0,40.0,False,,221.25692527396785,[],"[800, 450]",ColorTask,64.0,88.0,,,HRV,HRV_0307,2022-11-30 22:46:34
,wl-rdm,96,333453,0.0-6.88-0.88,0.0,96.0,,,,,,,[],,,,,,73.6,1.0,i,1.0,True,726.0999999996275,44.0,60.0,40.0,False,,299.56212689862963,[],"[800, 450]",ColorTask,65.0,89.0,,,HRV,HRV_0307,2022-11-30 22:46:34
,wl-rdm,97,335721,0.0-6.89-0.89,0.0,97.0,,,,,,,[],,,,,,73.6,0.0,u,0.0,True,805.9000000003725,49.0,60.0,40.0,False,,384.2922131720322,[],"[800, 450]",ColorTask,66.0,90.0,,,HRV,HRV_0307,2022-11-30 22:46:34
,wl-rdm,98,339722,0.0-6.90-0.90,0.0,98.0,,,,,,,[],,,,,,50.0,1.0,i,1.0,True,2630.7999999998137,158.0,60.0,40.0,False,,286.590198799082,[],"[800, 450]",ColorTask,67.0,91.0,,,HRV,HRV_0307,2022-11-30 22:46:34
,wl-rdm,99,343424,0.0-6.91-0.91,0.0,99.0,,,,,,,[],,,,,,62.5,0.0,u,0.0,True,2399.2000000001863,144.0,60.0,40.0,False,,241.53407210888605,[],"[800, 450]",ColorTask,68.0,92.0,,,HRV,HRV_0307,2022-11-30 22:46:34
,wl-rdm,100,346925,0.0-6.92-0.92,0.0,100.0,,,,,,,[],,,,,,53.2,1.0,u,0.0,False,2093.5999999996275,126.0,60.0,40.0,False,,343.0141461033986,[],"[800, 450]",ColorTask,67.0,93.0,,,HRV,HRV_0307,2022-11-30 22:46:34
,wl-rdm,101,349058,0.0-6.93-0.93,0.0,101.0,,,,,,,[],,,,,,73.6,1.0,i,1.0,True,820.4000000003725,50.0,60.0,40.0,False,,237.3663335876933,[],"[800, 450]",ColorTask,68.0,94.0,,,HRV,HRV_0307,2022-11-30 22:46:34
,wl-rdm,102,352676,0.0-6.94-0.94,0.0,102.0,,,,,,,[],,,,,,56.4,0.0,i,1.0,False,2343.899999999441,141.0,60.0,40.0,False,,207.34642672735768,[],"[800, 450]",ColorTask,67.0,95.0,,,HRV,HRV_0307,2022-11-30 22:46:34
,wl-rdm,103,355244,0.0-6.95-0.95,0.0,103.0,,,,,,,[],,,,,,62.5,1.0,i,1.0,True,1152.2999999998137,70.0,60.0,40.0,False,,348.6700021796091,[],"[800, 450]",ColorTask,68.0,96.0,,,HRV,HRV_0307,2022-11-30 22:46:34
,wl-rdm,104,357328,0.0-6.96-0.96,0.0,104.0,,,,,,,[],,,,,,87.9,1.0,i,1.0,True,814.0,49.0,60.0,40.0,False,,208.8128212636562,[],"[800, 450]",ColorTask,69.0,97.0,,,HRV,HRV_0307,2022-11-30 22:46:34
,wl-rdm,105,359595,0.0-6.97-0.97,0.0,105.0,,,,,,,[],,,,,,62.5,1.0,i,1.0,True,902.9000000003725,55.0,60.0,40.0,False,,290.160628633775,[],"[800, 450]",ColorTask,70.0,98.0,,,HRV,HRV_0307,2022-11-30 22:46:34
,wl-rdm,106,362664,0.0-6.98-0.98,0.0,106.0,,,,,,,[],,,,,,53.2,0.0,i,1.0,False,1765.199999999255,106.0,60.0,40.0,False,,241.76391115506073,[],"[800, 450]",ColorTask,69.0,99.0,,,HRV,HRV_0307,2022-11-30 22:46:34
,wl-rdm,107,366248,0.0-6.99-0.99,0.0,107.0,,,,,,,[],,,,,,56.4,0.0,u,0.0,True,2190.2999999998137,132.0,60.0,40.0,False,,323.17541140081676,[],"[800, 450]",ColorTask,70.0,100.0,,,HRV,HRV_0307,2022-11-30 22:46:34
,wl-rdm,108,368966,0.0-6.100-0.100,0.0,108.0,,,,,,,[],,,,,,73.6,0.0,i,1.0,False,1358.7000000001863,82.0,60.0,40.0,False,,286.4788699642313,[],"[800, 450]",ColorTask,69.0,101.0,,,HRV,HRV_0307,2022-11-30 22:46:34
,wl-rdm,109,371350,0.0-6.101-0.101,0.0,109.0,,,,,,,[],,,,,,62.5,0.0,u,0.0,True,1066.2999999998137,64.0,60.0,40.0,False,,253.41150093455042,[],"[800, 450]",ColorTask,70.0,102.0,,,HRV,HRV_0307,2022-11-30 22:46:34
,wl-rdm,110,374151,0.0-6.102-0.102,0.0,110.0,,,,,,,[],,,,,,62.5,0.0,u,0.0,True,1474.0999999996275,89.0,60.0,40.0,False,,257.4344199460867,[],"[800, 450]",ColorTask,71.0,103.0,,,HRV,HRV_0307,2022-11-30 22:46:34
,wl-rdm,111,378502,0.0-6.103-0.103,0.0,111.0,,,,,,,[],,,,,,53.2,1.0,u,0.0,False,2992.2000000001863,179.0,60.0,40.0,False,,284.3230804954812,[],"[800, 450]",ColorTask,70.0,104.0,,,HRV,HRV_0307,2022-11-30 22:46:34
,wl-rdm,112,382587,0.0-6.104-0.104,0.0,112.0,,,,,,,[],,,,,,53.2,1.0,i,1.0,True,2778.0,167.0,60.0,40.0,False,,247.8815924747099,[],"[800, 450]",ColorTask,71.0,105.0,,,HRV,HRV_0307,2022-11-30 22:46:34
,wl-rdm,113,386672,0.0-6.105-0.105,0.0,113.0,,,,,,,[],,,,,,50.0,1.0,i,1.0,True,2698.0,162.0,60.0,40.0,False,,318.8200542787966,[],"[800, 450]",ColorTask,72.0,106.0,,,HRV,HRV_0307,2022-11-30 22:46:34
,wl-rdm,114,388990,0.0-6.106-0.106,0.0,114.0,,,,,,,[],,,,,,62.5,1.0,i,1.0,True,1034.2999999998137,63.0,60.0,40.0,False,,203.76380850225274,[],"[800, 450]",ColorTask,73.0,107.0,,,HRV,HRV_0307,2022-11-30 22:46:34
,wl-rdm,115,392358,0.0-6.107-0.107,0.0,115.0,,,,,,,[],,,,,,56.4,0.0,u,0.0,True,1984.7000000001863,120.0,60.0,40.0,False,,309.3674484424321,[],"[800, 450]",ColorTask,74.0,108.0,,,HRV,HRV_0307,2022-11-30 22:46:34
,wl-rdm,116,394442,0.0-6.108-0.108,0.0,116.0,,,,,,,[],,,,,,87.9,1.0,i,1.0,True,787.7999999998137,48.0,60.0,40.0,False,,227.05502587546977,[],"[800, 450]",ColorTask,75.0,109.0,,,HRV,HRV_0307,2022-11-30 22:46:34
,wl-html-keyboard-response,117,652484,0.0-7.0-0.0,1.0,116.0,,,,,,,,256021.70000000112,1.0,0,,,,,,,,,,,,True,undefinedblurEvent ,,,,,,,,,HRV,HRV_0307,2022-11-30 22:46:34
,wl-rdm,118,655655,0.0-8.0-0.0,1.0,117.0,,,,,,,[],,,,,,53.2,1.0,u,0.0,False,1833.2999999988824,110.0,60.0,40.0,False,,293.8801700150244,[],"[800, 450]",ColorTask,74.0,1.0,,,HRV,HRV_0307,2022-11-30 22:46:34
,wl-rdm,119,658973,0.0-8.1-0.1,1.0,118.0,,,,,,,[],,,,,,50.0,1.0,i,1.0,True,2044.300000000745,123.0,60.0,40.0,False,,216.321361780335,[],"[800, 450]",ColorTask,75.0,2.0,,,HRV,HRV_0307,2022-11-30 22:46:34
,wl-rdm,120,660857,0.0-8.2-0.2,1.0,119.0,,,,,,,[],,,,,,73.6,1.0,i,1.0,True,598.0,36.0,60.0,40.0,False,,218.83975943153735,[],"[800, 450]",ColorTask,76.0,3.0,,,HRV,HRV_0307,2022-11-30 22:46:34
,wl-rdm,121,662957,0.0-8.3-0.3,1.0,120.0,,,,,,,[],,,,,,87.9,1.0,i,1.0,True,659.7000000011176,40.0,60.0,40.0,False,,375.7722969117039,[],"[800, 450]",ColorTask,77.0,4.0,,,HRV,HRV_0307,2022-11-30 22:46:34
,wl-rdm,122,665092,0.0-8.4-0.4,1.0,121.0,,,,,,,[],,,,,,73.6,1.0,i,1.0,True,770.2000000011176,47.0,60.0,40.0,False,,293.03282396647603,[],"[800, 450]",ColorTask,78.0,5.0,,,HRV,HRV_0307,2022-11-30 22:46:34
,wl-rdm,123,667159,0.0-8.5-0.5,1.0,122.0,,,,,,,[],,,,,,56.4,0.0,u,0.0,True,774.8000000007451,47.0,60.0,40.0,False,,218.17126386266204,[],"[800, 450]",ColorTask,79.0,6.0,,,HRV,HRV_0307,2022-11-30 22:46:34
,wl-rdm,124,669176,0.0-8.6-0.6,1.0,123.0,,,,,,,[],,,,,,87.9,1.0,i,1.0,True,573.4000000003725,35.0,60.0,40.0,False,,370.9700991461359,[],"[800, 450]",ColorTask,80.0,7.0,,,HRV,HRV_0307,2022-11-30 22:46:34
,wl-rdm,125,672061,0.0-8.7-0.7,1.0,124.0,,,,,,,[],,,,,,50.0,0.0,u,0.0,True,1494.2999999988824,90.0,60.0,40.0,False,,323.69511775631753,[],"[800, 450]",ColorTask,81.0,8.0,,,HRV,HRV_0307,2022-11-30 22:46:34
,wl-rdm,126,674095,0.0-8.8-0.8,1.0,125.0,,,,,,,[],,,,,,87.9,1.0,i,1.0,True,633.8999999985099,39.0,60.0,40.0,False,,322.05447125245513,[],"[800, 450]",ColorTask,82.0,9.0,,,HRV,HRV_0307,2022-11-30 22:46:34
,wl-rdm,127,675996,0.0-8.9-0.9,1.0,126.0,,,,,,,[],,,,,,87.9,1.0,i,1.0,True,587.0000000018626,36.0,60.0,40.0,False,,242.1434641554328,[],"[800, 450]",ColorTask,83.0,10.0,,,HRV,HRV_0307,2022-11-30 22:46:34
,wl-rdm,128,678113,0.0-8.10-0.10,1.0,127.0,,,,,,,[],,,,,,56.4,0.0,u,0.0,True,806.9000000003725,49.0,60.0,40.0,False,,224.42003802061328,[],"[800, 450]",ColorTask,84.0,11.0,,,HRV,HRV_0307,2022-11-30 22:46:34
,wl-rdm,129,680464,0.0-8.11-0.11,1.0,128.0,,,,,,,[],,,,,,62.5,1.0,i,1.0,True,1040.7000000011176,63.0,60.0,40.0,False,,248.93977961722945,[],"[800, 450]",ColorTask,85.0,12.0,,,HRV,HRV_0307,2022-11-30 22:46:34
,wl-rdm,130,682431,0.0-8.12-0.12,1.0,129.0,,,,,,,[],,,,,,87.9,0.0,u,0.0,True,649.4000000003725,39.0,60.0,40.0,False,,251.53054433009265,[],"[800, 450]",ColorTask,86.0,13.0,,,HRV,HRV_0307,2022-11-30 22:46:34
,wl-rdm,131,684866,0.0-8.13-0.13,1.0,130.0,,,,,,,[],,,,,,53.2,0.0,u,0.0,True,1139.2000000029802,69.0,60.0,40.0,False,,231.29016161498936,[],"[800, 450]",ColorTask,87.0,14.0,,,HRV,HRV_0307,2022-11-30 22:46:34
,wl-rdm,132,686966,0.0-8.14-0.14,1.0,131.0,,,,,,,[],,,,,,87.9,0.0,u,0.0,True,725.5,44.0,60.0,40.0,False,,301.6617405932516,[],"[800, 450]",ColorTask,88.0,15.0,,,HRV,HRV_0307,2022-11-30 22:46:34
,wl-rdm,133,689117,0.0-8.15-0.15,1.0,132.0,,,,,,,[],,,,,,56.4,0.0,i,1.0,False,876.8000000007451,53.0,60.0,40.0,False,,202.81316976624777,[],"[800, 450]",ColorTask,87.0,16.0,,,HRV,HRV_0307,2022-11-30 22:46:34
,wl-rdm,134,691368,0.0-8.16-0.16,1.0,133.0,,,,,,,[],,,,,,50.0,0.0,i,1.0,False,957.4000000003725,58.0,60.0,40.0,False,,220.0705465373165,[],"[800, 450]",ColorTask,86.0,17.0,,,HRV,HRV_0307,2022-11-30 22:46:34
,wl-rdm,135,693619,0.0-8.17-0.17,1.0,134.0,,,,,,,[],,,,,,73.6,1.0,i,1.0,True,812.6999999992549,49.0,60.0,40.0,False,,377.3551864751102,[],"[800, 450]",ColorTask,87.0,18.0,,,HRV,HRV_0307,2022-11-30 22:46:34
,wl-rdm,136,696503,0.0-8.18-0.18,1.0,135.0,,,,,,,[],,,,,,56.4,0.0,u,0.0,True,1608.300000000745,97.0,60.0,40.0,False,,209.22385069909382,[],"[800, 450]",ColorTask,88.0,19.0,,,HRV,HRV_0307,2022-11-30 22:46:34
,wl-rdm,137,698587,0.0-8.19-0.19,1.0,136.0,,,,,,,[],,,,,,73.6,1.0,i,1.0,True,762.0,46.0,60.0,40.0,False,,270.6806369284702,[],"[800, 450]",ColorTask,89.0,20.0,,,HRV,HRV_0307,2022-11-30 22:46:34
,wl-rdm,138,702489,0.0-8.20-0.20,1.0,137.0,,,,,,,[],,,,,,53.2,0.0,u,0.0,True,2574.0,155.0,60.0,40.0,False,,264.14337203687637,[],"[800, 450]",ColorTask,90.0,21.0,,,HRV,HRV_0307,2022-11-30 22:46:34
,wl-rdm,139,705023,0.0-8.21-0.21,1.0,138.0,,,,,,,[],,,,,,50.0,1.0,i,1.0,True,1150.7999999988824,70.0,60.0,40.0,False,,313.40729773405803,[],"[800, 450]",ColorTask,91.0,22.0,,,HRV,HRV_0307,2022-11-30 22:46:34
,wl-rdm,140,707090,0.0-8.22-0.22,1.0,139.0,,,,,,,[],,,,,,73.6,1.0,i,1.0,True,671.5000000018626,41.0,60.0,40.0,False,,324.7177103958178,[],"[800, 450]",ColorTask,92.0,23.0,,,HRV,HRV_0307,2022-11-30 22:46:34
,wl-rdm,141,709725,0.0-8.23-0.23,1.0,140.0,,,,,,,[],,,,,,53.2,0.0,u,0.0,True,1286.0,78.0,60.0,40.0,False,,275.80223114310394,[],"[800, 450]",ColorTask,93.0,24.0,,,HRV,HRV_0307,2022-11-30 22:46:34
,wl-rdm,142,711775,0.0-8.24-0.24,1.0,141.0,,,,,,,[],,,,,,62.5,1.0,i,1.0,True,758.5999999996275,46.0,60.0,40.0,False,,207.02927308303643,[],"[800, 450]",ColorTask,94.0,25.0,,,HRV,HRV_0307,2022-11-30 22:46:34
,wl-rdm,143,714393,0.0-8.25-0.25,1.0,142.0,,,,,,,[],,,,,,53.2,1.0,i,1.0,True,1281.0,77.0,60.0,40.0,False,,280.42308394617544,[],"[800, 450]",ColorTask,95.0,26.0,,,HRV,HRV_0307,2022-11-30 22:46:34
,wl-rdm,144,716860,0.0-8.26-0.26,1.0,143.0,,,,,,,[],,,,,,53.2,1.0,i,1.0,True,1111.0999999996275,67.0,60.0,40.0,False,,287.8537031691951,[],"[800, 450]",ColorTask,96.0,27.0,,,HRV,HRV_0307,2022-11-30 22:46:34
,wl-rdm,145,720312,0.0-8.27-0.27,1.0,144.0,,,,,,,[],,,,,,53.2,1.0,u,0.0,False,2141.2000000011176,129.0,60.0,40.0,False,,234.31365422692343,[],"[800, 450]",ColorTask,95.0,28.0,,,HRV,HRV_0307,2022-11-30 22:46:34
,wl-rdm,146,722979,0.0-8.28-0.28,1.0,145.0,,,,,,,[],,,,,,50.0,0.0,u,0.0,True,1320.699999999255,80.0,60.0,40.0,False,,274.8447769154426,[],"[800, 450]",ColorTask,96.0,29.0,,,HRV,HRV_0307,2022-11-30 22:46:34
,wl-rdm,147,726447,0.0-8.29-0.29,1.0,146.0,,,,,,,[],,,,,,50.0,1.0,i,1.0,True,2183.0,131.0,60.0,40.0,False,,220.4929172663777,[],"[800, 450]",ColorTask,97.0,30.0,,,HRV,HRV_0307,2022-11-30 22:46:34
,wl-rdm,148,728798,0.0-8.30-0.30,1.0,147.0,,,,,,,[],,,,,,50.0,1.0,u,0.0,False,1051.5,64.0,60.0,40.0,False,,221.3832863914876,[],"[800, 450]",ColorTask,96.0,31.0,,,HRV,HRV_0307,2022-11-30 22:46:34
,wl-rdm,149,731016,0.0-8.31-0.31,1.0,148.0,,,,,,,[],,,,,,62.5,1.0,i,1.0,True,874.3000000007451,53.0,60.0,40.0,False,,266.9752374298643,[],"[800, 450]",ColorTask,97.0,32.0,,,HRV,HRV_0307,2022-11-30 22:46:34
,wl-rdm,150,733950,0.0-8.32-0.32,1.0,149.0,,,,,,,[],,,,,,50.0,0.0,i,1.0,False,1626.0999999996275,98.0,60.0,40.0,False,,238.03265184327347,[],"[800, 450]",ColorTask,96.0,33.0,,,HRV,HRV_0307,2022-11-30 22:46:34
,wl-rdm,151,736651,0.0-8.33-0.33,1.0,150.0,,,,,,,[],,,,,,50.0,1.0,i,1.0,True,1278.800000000745,77.0,60.0,40.0,False,,350.6253847483207,[],"[800, 450]",ColorTask,97.0,34.0,,,HRV,HRV_0307,2022-11-30 22:46:34
,wl-rdm,152,739402,0.0-8.34-0.34,1.0,151.0,,,,,,,[],,,,,,62.5,0.0,u,0.0,True,1322.300000000745,80.0,60.0,40.0,False,,356.0970355314446,[],"[800, 450]",ColorTask,98.0,35.0,,,HRV,HRV_0307,2022-11-30 22:46:34
,wl-rdm,153,742687,0.0-8.35-0.35,1.0,152.0,,,,,,,[],,,,,,56.4,0.0,u,0.0,True,1850.4000000003725,111.0,60.0,40.0,False,,373.7681534670144,[],"[800, 450]",ColorTask,99.0,36.0,,,HRV,HRV_0307,2022-11-30 22:46:34
,wl-rdm,154,745571,0.0-8.36-0.36,1.0,153.0,,,,,,,[],,,,,,62.5,1.0,i,1.0,True,1545.800000000745,93.0,60.0,40.0,False,,269.0817907993948,[],"[800, 450]",ColorTask,100.0,37.0,,,HRV,HRV_0307,2022-11-30 22:46:34
,wl-rdm,155,747772,0.0-8.37-0.37,1.0,154.0,,,,,,,[],,,,,,87.9,1.0,i,1.0,True,786.7999999988824,48.0,60.0,40.0,False,,334.2683132290199,[],"[800, 450]",ColorTask,101.0,38.0,,,HRV,HRV_0307,2022-11-30 22:46:34
,wl-rdm,156,750073,0.0-8.38-0.38,1.0,155.0,,,,,,,[],,,,,,56.4,1.0,i,1.0,True,1014.9000000003725,61.0,60.0,40.0,False,,230.44403948596775,[],"[800, 450]",ColorTask,102.0,39.0,,,HRV,HRV_0307,2022-11-30 22:46:34
,wl-rdm,157,752224,0.0-8.39-0.39,1.0,156.0,,,,,,,[],,,,,,87.9,0.0,u,0.0,True,765.6999999992549,46.0,60.0,40.0,False,,320.8085917255107,[],"[800, 450]",ColorTask,103.0,40.0,,,HRV,HRV_0307,2022-11-30 22:46:34
,wl-rdm,158,754241,0.0-8.40-0.40,1.0,157.0,,,,,,,[],,,,,,87.9,0.0,u,0.0,True,706.0,43.0,60.0,40.0,False,,236.54386402408275,[],"[800, 450]",ColorTask,104.0,41.0,,,HRV,HRV_0307,2022-11-30 22:46:34
,wl-rdm,159,756759,0.0-8.41-0.41,1.0,158.0,,,,,,,[],,,,,,56.4,1.0,i,1.0,True,1167.0,70.0,60.0,40.0,False,,293.9807546233866,[],"[800, 450]",ColorTask,105.0,42.0,,,HRV,HRV_0307,2022-11-30 22:46:34
,wl-rdm,160,759276,0.0-8.42-0.42,1.0,159.0,,,,,,,[],,,,,,53.2,0.0,u,0.0,True,1244.5999999996275,75.0,60.0,40.0,False,,205.18052969627817,[],"[800, 450]",ColorTask,106.0,43.0,,,HRV,HRV_0307,2022-11-30 22:46:34
,wl-rdm,161,761344,0.0-8.43-0.43,1.0,160.0,,,,,,,[],,,,,,87.9,1.0,i,1.0,True,724.7000000011176,44.0,60.0,40.0,False,,269.7670267910586,[],"[800, 450]",ColorTask,107.0,44.0,,,HRV,HRV_0307,2022-11-30 22:46:34
,wl-rdm,162,763444,0.0-8.44-0.44,1.0,161.0,,,,,,,[],,,,,,73.6,0.0,u,0.0,True,794.4000000003725,48.0,60.0,40.0,False,,234.31944738864098,[],"[800, 450]",ColorTask,108.0,45.0,,,HRV,HRV_0307,2022-11-30 22:46:34
,wl-rdm,163,767362,0.0-8.45-0.45,1.0,162.0,,,,,,,[],,,,,,53.2,1.0,i,1.0,True,2555.7000000011176,154.0,60.0,40.0,False,,297.5913573037458,[],"[800, 450]",ColorTask,109.0,46.0,,,HRV,HRV_0307,2022-11-30 22:46:34
,wl-rdm,164,770130,0.0-8.46-0.46,1.0,163.0,,,,,,,[],,,,,,62.5,1.0,i,1.0,True,1472.199999999255,89.0,60.0,40.0,False,,221.01220681951565,[],"[800, 450]",ColorTask,110.0,47.0,,,HRV,HRV_0307,2022-11-30 22:46:34
,wl-rdm,165,772265,0.0-8.47-0.47,1.0,164.0,,,,,,,[],,,,,,87.9,1.0,i,1.0,True,740.5999999996275,45.0,60.0,40.0,False,,321.76593877812155,[],"[800, 450]",ColorTask,111.0,48.0,,,HRV,HRV_0307,2022-11-30 22:46:34
,wl-rdm,166,775833,0.0-8.48-0.48,1.0,165.0,,,,,,,[],,,,,,50.0,1.0,i,1.0,True,2265.699999999255,136.0,60.0,40.0,False,,235.6172978896505,[],"[800, 450]",ColorTask,112.0,49.0,,,HRV,HRV_0307,2022-11-30 22:46:34
,wl-rdm,167,779801,0.0-8.49-0.49,1.0,166.0,,,,,,,[],,,,,,50.0,0.0,i,1.0,False,2549.7999999988824,153.0,60.0,40.0,False,,343.22909167175044,[],"[800, 450]",ColorTask,111.0,50.0,,,HRV,HRV_0307,2022-11-30 22:46:34
,wl-rdm,168,782268,0.0-8.50-0.50,1.0,167.0,,,,,,,[],,,,,,62.5,0.0,u,0.0,True,1153.5999999996275,70.0,60.0,40.0,False,,247.39223945254926,[],"[800, 450]",ColorTask,112.0,51.0,,,HRV,HRV_0307,2022-11-30 22:46:34
,wl-rdm,169,784302,0.0-8.51-0.51,1.0,168.0,,,,,,,[],,,,,,87.9,1.0,i,1.0,True,658.2000000011176,40.0,60.0,40.0,False,,285.6819455302276,[],"[800, 450]",ColorTask,113.0,52.0,,,HRV,HRV_0307,2022-11-30 22:46:34
,wl-rdm,170,787170,0.0-8.52-0.52,1.0,169.0,,,,,,,[],,,,,,62.5,1.0,i,1.0,True,1555.9000000003725,94.0,60.0,40.0,False,,236.67335635867855,[],"[800, 450]",ColorTask,114.0,53.0,,,HRV,HRV_0307,2022-11-30 22:46:34
,wl-rdm,171,790705,0.0-8.53-0.53,1.0,170.0,,,,,,,[],,,,,,56.4,1.0,i,1.0,True,2224.199999999255,134.0,60.0,40.0,False,,240.74759738214522,[],"[800, 450]",ColorTask,115.0,54.0,,,HRV,HRV_0307,2022-11-30 22:46:34
,wl-rdm,172,793523,0.0-8.54-0.54,1.0,171.0,,,,,,,[],,,,,,50.0,1.0,i,1.0,True,1538.9000000003725,93.0,60.0,40.0,False,,204.18860409054986,[],"[800, 450]",ColorTask,116.0,55.0,,,HRV,HRV_0307,2022-11-30 22:46:34
,wl-rdm,173,796957,0.0-8.55-0.55,1.0,172.0,,,,,,,[],,,,,,56.4,1.0,i,1.0,True,2153.5,130.0,60.0,40.0,False,,206.86655088514397,[],"[800, 450]",ColorTask,117.0,56.0,,,HRV,HRV_0307,2022-11-30 22:46:34
,wl-rdm,174,799741,0.0-8.56-0.56,1.0,173.0,,,,,,,[],,,,,,53.2,0.0,i,1.0,False,1502.5,91.0,60.0,40.0,False,,215.2866860995527,[],"[800, 450]",ColorTask,116.0,57.0,,,HRV,HRV_0307,2022-11-30 22:46:34
,wl-rdm,175,801792,0.0-8.57-0.57,1.0,174.0,,,,,,,[],,,,,,53.2,1.0,i,1.0,True,748.7999999988824,45.0,60.0,40.0,False,,238.61219866242428,[],"[800, 450]",ColorTask,117.0,58.0,,,HRV,HRV_0307,2022-11-30 22:46:34
,wl-rdm,176,804160,0.0-8.58-0.58,1.0,175.0,,,,,,,[],,,,,,62.5,0.0,u,0.0,True,1024.7999999988824,62.0,60.0,40.0,False,,280.4741739076906,[],"[800, 450]",ColorTask,118.0,59.0,,,HRV,HRV_0307,2022-11-30 22:46:34
,wl-rdm,177,807544,0.0-8.59-0.59,1.0,176.0,,,,,,,[],,,,,,62.5,0.0,u,0.0,True,2091.699999999255,126.0,60.0,40.0,False,,224.75276686370384,[],"[800, 450]",ColorTask,119.0,60.0,,,HRV,HRV_0307,2022-11-30 22:46:34
,wl-rdm,178,810495,0.0-8.60-0.60,1.0,177.0,,,,,,,[],,,,,,56.4,0.0,i,1.0,False,1675.4000000003725,101.0,60.0,40.0,False,,203.45861860610913,[],"[800, 450]",ColorTask,118.0,61.0,,,HRV,HRV_0307,2022-11-30 22:46:34
,wl-rdm,179,812463,0.0-8.61-0.61,1.0,178.0,,,,,,,[],,,,,,73.6,1.0,i,1.0,True,684.2999999988824,42.0,60.0,40.0,False,,213.90785596245792,[],"[800, 450]",ColorTask,119.0,62.0,,,HRV,HRV_0307,2022-11-30 22:46:34
,wl-rdm,180,814780,0.0-8.62-0.62,1.0,179.0,,,,,,,[],,,,,,53.2,1.0,i,1.0,True,904.1999999992549,54.0,60.0,40.0,False,,330.0172514589815,[],"[800, 450]",ColorTask,120.0,63.0,,,HRV,HRV_0307,2022-11-30 22:46:34
,wl-rdm,181,816848,0.0-8.63-0.63,1.0,180.0,,,,,,,[],,,,,,53.2,1.0,i,1.0,True,758.2999999988824,46.0,60.0,40.0,False,,244.6172260108197,[],"[800, 450]",ColorTask,121.0,64.0,,,HRV,HRV_0307,2022-11-30 22:46:34
,wl-rdm,182,819615,0.0-8.64-0.64,1.0,181.0,,,,,,,[],,,,,,56.4,1.0,i,1.0,True,1434.5,87.0,60.0,40.0,False,,262.6303683291949,[],"[800, 450]",ColorTask,122.0,65.0,,,HRV,HRV_0307,2022-11-30 22:46:34
,wl-rdm,183,822016,0.0-8.65-0.65,1.0,182.0,,,,,,,[],,,,,,62.5,0.0,u,0.0,True,1065.7999999988824,64.0,60.0,40.0,False,,268.0533710503138,[],"[800, 450]",ColorTask,123.0,66.0,,,HRV,HRV_0307,2022-11-30 22:46:34
,wl-rdm,184,824717,0.0-8.66-0.66,1.0,183.0,,,,,,,[],,,,,,56.4,0.0,i,1.0,False,1410.7999999988824,85.0,60.0,40.0,False,,226.03537630418356,[],"[800, 450]",ColorTask,122.0,67.0,,,HRV,HRV_0307,2022-11-30 22:46:34
,wl-rdm,185,826651,0.0-8.67-0.67,1.0,184.0,,,,,,,[],,,,,,73.6,1.0,i,1.0,True,645.7999999988824,39.0,60.0,40.0,False,,228.73915601237914,[],"[800, 450]",ColorTask,123.0,68.0,,,HRV,HRV_0307,2022-11-30 22:46:34
,wl-rdm,186,829369,0.0-8.68-0.68,1.0,185.0,,,,,,,[],,,,,,62.5,0.0,u,0.0,True,1398.3999999985099,84.0,60.0,40.0,False,,257.6384216941995,[],"[800, 450]",ColorTask,124.0,69.0,,,HRV,HRV_0307,2022-11-30 22:46:34
,wl-rdm,187,831436,0.0-8.69-0.69,1.0,186.0,,,,,,,[],,,,,,87.9,0.0,u,0.0,True,787.0,48.0,60.0,40.0,False,,213.3532725422357,[],"[800, 450]",ColorTask,125.0,70.0,,,HRV,HRV_0307,2022-11-30 22:46:34
,wl-rdm,188,834871,0.0-8.70-0.70,1.0,187.0,,,,,,,[],,,,,,50.0,1.0,u,0.0,False,2000.5999999996275,120.0,60.0,40.0,False,,368.0278786652044,[],"[800, 450]",ColorTask,124.0,71.0,,,HRV,HRV_0307,2022-11-30 22:46:34
,wl-rdm,189,837755,0.0-8.71-0.71,1.0,188.0,,,,,,,[],,,,,,56.4,1.0,i,1.0,True,1446.0,87.0,60.0,40.0,False,,368.7009028622867,[],"[800, 450]",ColorTask,125.0,72.0,,,HRV,HRV_0307,2022-11-30 22:46:34
,wl-rdm,190,839839,0.0-8.72-0.72,1.0,189.0,,,,,,,[],,,,,,62.5,0.0,u,0.0,True,799.8000000007451,48.0,60.0,40.0,False,,223.07662587886708,[],"[800, 450]",ColorTask,126.0,73.0,,,HRV,HRV_0307,2022-11-30 22:46:34
,wl-rdm,191,842607,0.0-8.73-0.73,1.0,190.0,,,,,,,[],,,,,,73.6,0.0,u,0.0,True,1409.2999999988824,85.0,60.0,40.0,False,,286.5669279032914,[],"[800, 450]",ColorTask,127.0,74.0,,,HRV,HRV_0307,2022-11-30 22:46:34
,wl-rdm,192,846191,0.0-8.74-0.74,1.0,191.0,,,,,,,[],,,,,,50.0,0.0,i,1.0,False,2266.5999999996275,136.0,60.0,40.0,False,,251.0830883801842,[],"[800, 450]",ColorTask,126.0,75.0,,,HRV,HRV_0307,2022-11-30 22:46:34
,wl-rdm,193,850076,0.0-8.75-0.75,1.0,192.0,,,,,,,[],,,,,,50.0,1.0,i,1.0,True,2453.7999999988824,148.0,60.0,40.0,False,,355.22473299918823,[],"[800, 450]",ColorTask,127.0,76.0,,,HRV,HRV_0307,2022-11-30 22:46:34
,wl-rdm,194,852177,0.0-8.76-0.76,1.0,193.0,,,,,,,[],,,,,,87.9,0.0,u,0.0,True,664.5,40.0,60.0,40.0,False,,369.57359426897096,[],"[800, 450]",ColorTask,128.0,77.0,,,HRV,HRV_0307,2022-11-30 22:46:34
,wl-rdm,195,854461,0.0-8.77-0.77,1.0,194.0,,,,,,,[],,,,,,87.9,0.0,u,0.0,True,827.5,50.0,60.0,40.0,False,,396.6786202494154,[],"[800, 450]",ColorTask,129.0,78.0,,,HRV,HRV_0307,2022-11-30 22:46:34
,wl-rdm,196,857362,0.0-8.78-0.78,1.0,195.0,,,,,,,[],,,,,,53.2,0.0,i,1.0,False,1605.6000000014901,97.0,60.0,40.0,False,,229.3756313935038,[],"[800, 450]",ColorTask,128.0,79.0,,,HRV,HRV_0307,2022-11-30 22:46:34
,wl-rdm,197,860080,0.0-8.79-0.79,1.0,196.0,,,,,,,[],,,,,,73.6,0.0,u,0.0,True,1332.5,80.0,60.0,40.0,False,,324.835366773539,[],"[800, 450]",ColorTask,129.0,80.0,,,HRV,HRV_0307,2022-11-30 22:46:34
,wl-rdm,198,862547,0.0-8.80-0.80,1.0,197.0,,,,,,,[],,,,,,73.6,0.0,u,0.0,True,1170.9000000003725,71.0,60.0,40.0,False,,231.4489767543829,[],"[800, 450]",ColorTask,130.0,81.0,,,HRV,HRV_0307,2022-11-30 22:46:34
,wl-rdm,199,864665,0.0-8.81-0.81,1.0,198.0,,,,,,,[],,,,,,73.6,0.0,u,0.0,True,740.2999999988824,45.0,60.0,40.0,False,,305.11910291480535,[],"[800, 450]",ColorTask,131.0,82.0,,,HRV,HRV_0307,2022-11-30 22:46:34
,wl-rdm,200,866582,0.0-8.82-0.82,1.0,199.0,,,,,,,[],,,,,,73.6,1.0,i,1.0,True,609.3000000007451,37.0,60.0,40.0,False,,239.78640817244877,[],"[800, 450]",ColorTask,132.0,83.0,,,HRV,HRV_0307,2022-11-30 22:46:34
,wl-rdm,201,870584,0.0-8.83-0.83,1.0,200.0,,,,,,,[],,,,,,56.4,1.0,u,0.0,False,2575.2000000011176,155.0,60.0,40.0,False,,357.9817740277432,[],"[800, 450]",ColorTask,131.0,84.0,,,HRV,HRV_0307,2022-11-30 22:46:34
,wl-rdm,202,873202,0.0-8.84-0.84,1.0,201.0,,,,,,,[],,,,,,62.5,1.0,i,1.0,True,1306.4000000003725,79.0,60.0,40.0,False,,241.33364493101493,[],"[800, 450]",ColorTask,132.0,85.0,,,HRV,HRV_0307,2022-11-30 22:46:34
,wl-rdm,203,875336,0.0-8.85-0.85,1.0,202.0,,,,,,,[],,,,,,56.4,0.0,u,0.0,True,808.2999999988824,49.0,60.0,40.0,False,,252.61810345685737,[],"[800, 450]",ColorTask,133.0,86.0,,,HRV,HRV_0307,2022-11-30 22:46:34
,wl-rdm,204,877386,0.0-8.86-0.86,1.0,203.0,,,,,,,[],,,,,,73.6,1.0,i,1.0,True,646.7000000011176,39.0,60.0,40.0,False,,335.6409903109885,[],"[800, 450]",ColorTask,134.0,87.0,,,HRV,HRV_0307,2022-11-30 22:46:34
,wl-rdm,205,880654,0.0-8.87-0.87,1.0,204.0,,,,,,,[],,,,,,50.0,0.0,u,0.0,True,1810.0,109.0,60.0,40.0,False,,390.7712825644177,[],"[800, 450]",ColorTask,135.0,88.0,,,HRV,HRV_0307,2022-11-30 22:46:34
,wl-rdm,206,882822,0.0-8.88-0.88,1.0,205.0,,,,,,,[],,,,,,87.9,0.0,u,0.0,True,793.2000000011176,48.0,60.0,40.0,False,,315.1078863086341,[],"[800, 450]",ColorTask,136.0,89.0,,,HRV,HRV_0307,2022-11-30 22:46:34
,wl-rdm,207,885006,0.0-8.89-0.89,1.0,206.0,,,,,,,[],,,,,,62.5,1.0,i,1.0,True,859.9000000003725,52.0,60.0,40.0,False,,253.94325768356555,[],"[800, 450]",ColorTask,137.0,90.0,,,HRV,HRV_0307,2022-11-30 22:46:34
,wl-rdm,208,887273,0.0-8.90-0.90,1.0,207.0,,,,,,,[],,,,,,87.9,1.0,i,1.0,True,956.6999999992549,58.0,60.0,40.0,False,,234.35007800202177,[],"[800, 450]",ColorTask,138.0,91.0,,,HRV,HRV_0307,2022-11-30 22:46:34
,wl-rdm,209,889958,0.0-8.91-0.91,1.0,208.0,,,,,,,[],,,,,,53.2,0.0,u,0.0,True,1260.300000000745,76.0,60.0,40.0,False,,356.46800371212817,[],"[800, 450]",ColorTask,139.0,92.0,,,HRV,HRV_0307,2022-11-30 22:46:34
,wl-rdm,210,892725,0.0-8.92-0.92,1.0,209.0,,,,,,,[],,,,,,50.0,0.0,i,1.0,False,1410.6000000014901,85.0,60.0,40.0,False,,289.85394479967727,[],"[800, 450]",ColorTask,138.0,93.0,,,HRV,HRV_0307,2022-11-30 22:46:34
,wl-rdm,211,895893,0.0-8.93-0.93,1.0,210.0,,,,,,,[],,,,,,53.2,0.0,u,0.0,True,1836.300000000745,111.0,60.0,40.0,False,,250.57552614469398,[],"[800, 450]",ColorTask,139.0,94.0,,,HRV,HRV_0307,2022-11-30 22:46:34
,wl-rdm,212,898577,0.0-8.94-0.94,1.0,211.0,,,,,,,[],,,,,,56.4,0.0,u,0.0,True,1289.9000000003725,78.0,60.0,40.0,False,,329.4617448504714,[],"[800, 450]",ColorTask,140.0,95.0,,,HRV,HRV_0307,2022-11-30 22:46:34
,wl-rdm,213,901078,0.0-8.95-0.95,1.0,212.0,,,,,,,[],,,,,,53.2,0.0,u,0.0,True,1201.300000000745,73.0,60.0,40.0,False,,225.26474415825803,[],"[800, 450]",ColorTask,141.0,96.0,,,HRV,HRV_0307,2022-11-30 22:46:34
,wl-rdm,214,903212,0.0-8.96-0.96,1.0,213.0,,,,,,,[],,,,,,73.6,0.0,u,0.0,True,794.5,48.0,60.0,40.0,False,,271.9747664341838,[],"[800, 450]",ColorTask,142.0,97.0,,,HRV,HRV_0307,2022-11-30 22:46:34
,wl-rdm,215,905746,0.0-8.97-0.97,1.0,214.0,,,,,,,[],,,,,,73.6,0.0,u,0.0,True,1155.0999999996275,70.0,60.0,40.0,False,,312.2634504024895,[],"[800, 450]",ColorTask,143.0,98.0,,,HRV,HRV_0307,2022-11-30 22:46:34
,wl-rdm,216,908548,0.0-8.98-0.98,1.0,215.0,,,,,,,[],,,,,,73.6,0.0,u,0.0,True,1362.0999999996275,82.0,60.0,40.0,False,,369.38147907316267,[],"[800, 450]",ColorTask,144.0,99.0,,,HRV,HRV_0307,2022-11-30 22:46:34
,wl-rdm,217,910665,0.0-8.99-0.99,1.0,216.0,,,,,,,[],,,,,,62.5,0.0,u,0.0,True,757.0000000018626,46.0,60.0,40.0,False,,292.17555473413904,[],"[800, 450]",ColorTask,145.0,100.0,,,HRV,HRV_0307,2022-11-30 22:46:34
,wl-rdm,218,913182,0.0-8.100-0.100,1.0,217.0,,,,,,,[],,,,,,62.5,0.0,u,0.0,True,1159.2999999988824,70.0,60.0,40.0,False,,291.7875827322348,[],"[800, 450]",ColorTask,146.0,101.0,,,HRV,HRV_0307,2022-11-30 22:46:34
,wl-rdm,219,915267,0.0-8.101-0.101,1.0,218.0,,,,,,,[],,,,,,87.9,0.0,u,0.0,True,638.0999999996275,39.0,60.0,40.0,False,,382.3016776602552,[],"[800, 450]",ColorTask,147.0,102.0,,,HRV,HRV_0307,2022-11-30 22:46:34
,wl-rdm,220,917484,0.0-8.102-0.102,1.0,219.0,,,,,,,[],,,,,,56.4,1.0,i,1.0,True,786.7000000011176,48.0,60.0,40.0,False,,356.937318501489,[],"[800, 450]",ColorTask,148.0,103.0,,,HRV,HRV_0307,2022-11-30 22:46:34
,wl-rdm,221,920235,0.0-8.103-0.103,1.0,220.0,,,,,,,[],,,,,,53.2,1.0,i,1.0,True,1288.0,78.0,60.0,40.0,False,,395.0224883926145,[],"[800, 450]",ColorTask,149.0,104.0,,,HRV,HRV_0307,2022-11-30 22:46:34
,wl-rdm,222,923119,0.0-8.104-0.104,1.0,221.0,,,,,,,[],,,,,,50.0,0.0,u,0.0,True,1541.8999999985099,93.0,60.0,40.0,False,,279.8796465468438,[],"[800, 450]",ColorTask,150.0,105.0,,,HRV,HRV_0307,2022-11-30 22:46:34
,wl-rdm,223,925487,0.0-8.105-0.105,1.0,222.0,,,,,,,[],,,,,,73.6,0.0,u,0.0,True,949.9000000003725,57.0,60.0,40.0,False,,364.3279248662692,[],"[800, 450]",ColorTask,151.0,106.0,,,HRV,HRV_0307,2022-11-30 22:46:34
,wl-rdm,224,927788,0.0-8.106-0.106,1.0,223.0,,,,,,,[],,,,,,62.5,1.0,i,1.0,True,861.5999999996275,52.0,60.0,40.0,False,,381.2848704102401,[],"[800, 450]",ColorTask,152.0,107.0,,,HRV,HRV_0307,2022-11-30 22:46:34
,wl-rdm,225,930239,0.0-8.107-0.107,1.0,224.0,,,,,,,[],,,,,,56.4,1.0,i,1.0,True,1025.5,62.0,60.0,40.0,False,,356.52593820632495,[],"[800, 450]",ColorTask,153.0,108.0,,,HRV,HRV_0307,2022-11-30 22:46:34
,wl-html-button-response,226,932649,0.0-9.0-0.0,,,,,,,,,,2407.7999999988824,,0,,,,,,,,,,,,,,,,,,,,<h3>End of this session. Thank you!</h3><br>,['Close window'],HRV,HRV_0307,2022-11-30 22:46:34
