trialN,stimuli,question,trialStartTime,trialStartTime_UNIX,stimulus1,rt,receivedResponse,rating,trialEndTime,trialDuration,stimulus1Loaded,exp,subjectId,date
0,"[{'imgObject': {}, 'id': 'shreddedwheatwithmilk', 'src': '/static/foodstim60/shreddedwheatwithmilk.jpg', 'key': 'NaN', 'origWidth': 410, 'origHeight': 410, 'width': 410, 'height': 410, 'widthPercent': 0.8, 'rescaleHeight': True, 'trialN': 0, 'loaded': True, 'loadedTime': 1910.7000000001863, 'positionName': 'CENTER', 'positionCoords': [595, 245]}]",Rate how much you want to eat this food from 0 (least) to 10 (most).,2019.1000000005588,1669846926889,shreddedwheatwithmilk,5466.0,True,7.67,7485.100000000559,5466.0,True,HRV,HRV_0307,2022-11-30 22:23:41
1,"[{'imgObject': {}, 'id': 'chickenfingers', 'src': '/static/foodstim60/chickenfingers.jpg', 'key': 'NaN', 'origWidth': 410, 'origHeight': 410, 'width': 410, 'height': 410, 'widthPercent': 0.8, 'rescaleHeight': True, 'trialN': 1, 'loaded': True, 'loadedTime': 1913.1000000005588, 'positionName': 'CENTER', 'positionCoords': [595, 245]}]",Rate how much you want to eat this food from 0 (least) to 10 (most).,7486.9000000003725,1669846932357,chickenfingers,1930.2000000001863,True,6.66,9417.100000000559,1930.2000000001863,True,HRV,HRV_0307,2022-11-30 22:23:41
2,"[{'imgObject': {}, 'id': 'edamame', 'src': '/static/foodstim60/edamame.jpg', 'key': 'NaN', 'origWidth': 409, 'origHeight': 410, 'width': 409, 'height': 410, 'widthPercent': 0.8, 'rescaleHeight': True, 'trialN': 2, 'loaded': True, 'loadedTime': 1913.7999999998137, 'positionName': 'CENTER', 'positionCoords': [595.5, 245]}]",Rate how much you want to eat this food from 0 (least) to 10 (most).,9417.799999999814,1669846934288,edamame,1289.300000000745,True,2.5500000000000003,10707.100000000559,1289.300000000745,True,HRV,HRV_0307,2022-11-30 22:23:41
3,"[{'imgObject': {}, 'id': 'eggsalad', 'src': '/static/foodstim60/eggsalad.jpg', 'key': 'NaN', 'origWidth': 410, 'origHeight': 409, 'width': 410, 'height': 409, 'widthPercent': 0.8, 'rescaleHeight': True, 'trialN': 3, 'loaded': True, 'loadedTime': 1914.5, 'positionName': 'CENTER', 'positionCoords': [595, 245.5]}]",Rate how much you want to eat this food from 0 (least) to 10 (most).,10707.799999999814,1669846935578,eggsalad,2147.300000000745,True,6.33,12855.100000000559,2147.300000000745,True,HRV,HRV_0307,2022-11-30 22:23:41
4,"[{'imgObject': {}, 'id': 'pear', 'src': '/static/foodstim60/pear.jpg', 'key': 'NaN', 'origWidth': 411, 'origHeight': 410, 'width': 411, 'height': 410, 'widthPercent': 0.8, 'rescaleHeight': True, 'trialN': 4, 'loaded': True, 'loadedTime': 1921.7999999998137, 'positionName': 'CENTER', 'positionCoords': [594.5, 245]}]",Rate how much you want to eat this food from 0 (least) to 10 (most).,12855.799999999814,1669846937725,pear,1251.300000000745,True,2.29,14107.100000000559,1251.300000000745,True,HRV,HRV_0307,2022-11-30 22:23:41
5,"[{'imgObject': {}, 'id': 'granola w milk', 'src': '/static/foodstim60/granola w milk.jpg', 'key': 'NaN', 'origWidth': 410, 'origHeight': 410, 'width': 410, 'height': 410, 'widthPercent': 0.8, 'rescaleHeight': True, 'trialN': 5, 'loaded': True, 'loadedTime': 1922.5, 'positionName': 'CENTER', 'positionCoords': [595, 245]}]",Rate how much you want to eat this food from 0 (least) to 10 (most).,14107.799999999814,1669846938977,granola w milk,2371.300000000745,True,6.98,16479.10000000056,2371.300000000745,True,HRV,HRV_0307,2022-11-30 22:23:41
6,"[{'imgObject': {}, 'id': 'sweetpotato', 'src': '/static/foodstim60/sweetpotato.jpg', 'key': 'NaN', 'origWidth': 410, 'origHeight': 410, 'width': 410, 'height': 410, 'widthPercent': 0.8, 'rescaleHeight': True, 'trialN': 6, 'loaded': True, 'loadedTime': 1923.2000000001863, 'positionName': 'CENTER', 'positionCoords': [595, 245]}]",Rate how much you want to eat this food from 0 (least) to 10 (most).,16479.799999999814,1669846941349,sweetpotato,1685.4000000003725,True,6.88,18165.200000000186,1685.4000000003725,True,HRV,HRV_0307,2022-11-30 22:23:41
7,"[{'imgObject': {}, 'id': 'sushi w_condiments', 'src': '/static/foodstim60/sushi w_condiments.jpg', 'key': 'NaN', 'origWidth': 410, 'origHeight': 410, 'width': 410, 'height': 410, 'widthPercent': 0.8, 'rescaleHeight': True, 'trialN': 7, 'loaded': True, 'loadedTime': 1923.7000000001863, 'positionName': 'CENTER', 'positionCoords': [595, 245]}]",Rate how much you want to eat this food from 0 (least) to 10 (most).,18166.0,1669846943035,sushi w_condiments,1727.2000000001863,True,9.71,19893.200000000186,1727.2000000001863,True,HRV,HRV_0307,2022-11-30 22:23:41
8,"[{'imgObject': {}, 'id': 'olives', 'src': '/static/foodstim60/olives.jpg', 'key': 'NaN', 'origWidth': 410, 'origHeight': 410, 'width': 410, 'height': 410, 'widthPercent': 0.8, 'rescaleHeight': True, 'trialN': 8, 'loaded': True, 'loadedTime': 1930.7999999998137, 'positionName': 'CENTER', 'positionCoords': [595, 245]}]",Rate how much you want to eat this food from 0 (least) to 10 (most).,19894.0,1669846944763,olives,1313.1000000005588,True,0.97,21207.10000000056,1313.1000000005588,True,HRV,HRV_0307,2022-11-30 22:23:41
9,"[{'imgObject': {}, 'id': 'rigatoni and sauce', 'src': '/static/foodstim60/rigatoni and sauce.jpg', 'key': 'NaN', 'origWidth': 410, 'origHeight': 411, 'width': 410, 'height': 411, 'widthPercent': 0.8, 'rescaleHeight': True, 'trialN': 9, 'loaded': True, 'loadedTime': 1935.1000000005588, 'positionName': 'CENTER', 'positionCoords': [595, 244.5]}]",Rate how much you want to eat this food from 0 (least) to 10 (most).,21207.799999999814,1669846946077,rigatoni and sauce,1177.300000000745,True,4.96,22385.10000000056,1177.300000000745,True,HRV,HRV_0307,2022-11-30 22:23:41
10,"[{'imgObject': {}, 'id': 'salad w chicken', 'src': '/static/foodstim60/salad w chicken.jpg', 'key': 'NaN', 'origWidth': 411, 'origHeight': 411, 'width': 411, 'height': 411, 'widthPercent': 0.8, 'rescaleHeight': True, 'trialN': 10, 'loaded': True, 'loadedTime': 1936.2000000001863, 'positionName': 'CENTER', 'positionCoords': [594.5, 244.5]}]",Rate how much you want to eat this food from 0 (least) to 10 (most).,22385.900000000373,1669846947255,salad w chicken,49.200000000186265,True,4.97,22435.10000000056,49.200000000186265,True,HRV,HRV_0307,2022-11-30 22:23:41
11,"[{'imgObject': {}, 'id': 'banana', 'src': '/static/foodstim60/banana.jpg', 'key': 'NaN', 'origWidth': 410, 'origHeight': 410, 'width': 410, 'height': 410, 'widthPercent': 0.8, 'rescaleHeight': True, 'trialN': 11, 'loaded': True, 'loadedTime': 1936.7999999998137, 'positionName': 'CENTER', 'positionCoords': [595, 245]}]",Rate how much you want to eat this food from 0 (least) to 10 (most).,22435.799999999814,1669846947305,banana,1427.300000000745,True,8.44,23863.10000000056,1427.300000000745,True,HRV,HRV_0307,2022-11-30 22:23:41
12,"[{'imgObject': {}, 'id': 'kiwi', 'src': '/static/foodstim60/kiwi.jpg', 'key': 'NaN', 'origWidth': 410, 'origHeight': 410, 'width': 410, 'height': 410, 'widthPercent': 0.8, 'rescaleHeight': True, 'trialN': 12, 'loaded': True, 'loadedTime': 1937.7000000001863, 'positionName': 'CENTER', 'positionCoords': [595, 245]}]",Rate how much you want to eat this food from 0 (least) to 10 (most).,23863.900000000373,1669846948733,kiwi,1195.2000000001863,True,7.38,25059.10000000056,1195.2000000001863,True,HRV,HRV_0307,2022-11-30 22:23:41
13,"[{'imgObject': {}, 'id': 'roastedpotatoes', 'src': '/static/foodstim60/roastedpotatoes.jpg', 'key': 'NaN', 'origWidth': 409, 'origHeight': 410, 'width': 409, 'height': 410, 'widthPercent': 0.8, 'rescaleHeight': True, 'trialN': 13, 'loaded': True, 'loadedTime': 1938.2999999998137, 'positionName': 'CENTER', 'positionCoords': [595.5, 245]}]",Rate how much you want to eat this food from 0 (least) to 10 (most).,25060.10000000056,1669846949930,roastedpotatoes,1507.0999999996275,True,6.63,26567.200000000186,1507.0999999996275,True,HRV,HRV_0307,2022-11-30 22:23:41
14,"[{'imgObject': {}, 'id': 'seaweed', 'src': '/static/foodstim60/seaweed.jpg', 'key': 'NaN', 'origWidth': 410, 'origHeight': 410, 'width': 410, 'height': 410, 'widthPercent': 0.8, 'rescaleHeight': True, 'trialN': 14, 'loaded': True, 'loadedTime': 1938.9000000003725, 'positionName': 'CENTER', 'positionCoords': [595, 245]}]",Rate how much you want to eat this food from 0 (least) to 10 (most).,26568.0,1669846951437,seaweed,1335.2000000001863,True,8.06,27903.200000000186,1335.2000000001863,True,HRV,HRV_0307,2022-11-30 22:23:41
15,"[{'imgObject': {}, 'id': 'salmon', 'src': '/static/foodstim60/salmon.jpg', 'key': 'NaN', 'origWidth': 410, 'origHeight': 409, 'width': 410, 'height': 409, 'widthPercent': 0.8, 'rescaleHeight': True, 'trialN': 15, 'loaded': True, 'loadedTime': 1942.4000000003725, 'positionName': 'CENTER', 'positionCoords': [595, 245.5]}]",Rate how much you want to eat this food from 0 (least) to 10 (most).,27904.0,1669846952773,salmon,1509.2999999998137,True,8.53,29413.299999999814,1509.2999999998137,True,HRV,HRV_0307,2022-11-30 22:23:41
16,"[{'imgObject': {}, 'id': 'lox', 'src': '/static/foodstim60/lox.jpg', 'key': 'NaN', 'origWidth': 410, 'origHeight': 411, 'width': 410, 'height': 411, 'widthPercent': 0.8, 'rescaleHeight': True, 'trialN': 16, 'loaded': True, 'loadedTime': 1943.5, 'positionName': 'CENTER', 'positionCoords': [595, 244.5]}]",Rate how much you want to eat this food from 0 (least) to 10 (most).,29414.10000000056,1669846954284,lox,1379.0999999996275,True,7.33,30793.200000000186,1379.0999999996275,True,HRV,HRV_0307,2022-11-30 22:23:41
17,"[{'imgObject': {}, 'id': 'rigatoni', 'src': '/static/foodstim60/rigatoni.jpg', 'key': 'NaN', 'origWidth': 411, 'origHeight': 411, 'width': 411, 'height': 411, 'widthPercent': 0.8, 'rescaleHeight': True, 'trialN': 17, 'loaded': True, 'loadedTime': 1944, 'positionName': 'CENTER', 'positionCoords': [594.5, 244.5]}]",Rate how much you want to eat this food from 0 (least) to 10 (most).,30794.0,1669846955663,rigatoni,1325.2000000001863,True,1.85,32119.200000000186,1325.2000000001863,True,HRV,HRV_0307,2022-11-30 22:23:41
18,"[{'imgObject': {}, 'id': 'mango', 'src': '/static/foodstim60/mango.jpg', 'key': 'NaN', 'origWidth': 411, 'origHeight': 411, 'width': 411, 'height': 411, 'widthPercent': 0.8, 'rescaleHeight': True, 'trialN': 18, 'loaded': True, 'loadedTime': 1952.6000000005588, 'positionName': 'CENTER', 'positionCoords': [594.5, 244.5]}]",Rate how much you want to eat this food from 0 (least) to 10 (most).,32119.799999999814,1669846956989,mango,3023.4000000003725,True,6.38,35143.200000000186,3023.4000000003725,True,HRV,HRV_0307,2022-11-30 22:23:41
19,"[{'imgObject': {}, 'id': 'burger', 'src': '/static/foodstim60/burger.jpg', 'key': 'NaN', 'origWidth': 409, 'origHeight': 409, 'width': 409, 'height': 409, 'widthPercent': 0.8, 'rescaleHeight': True, 'trialN': 19, 'loaded': True, 'loadedTime': 1953.2999999998137, 'positionName': 'CENTER', 'positionCoords': [595.5, 245.5]}]",Rate how much you want to eat this food from 0 (least) to 10 (most).,35143.799999999814,1669846960013,burger,1101.5,True,7.87,36245.299999999814,1101.5,True,HRV,HRV_0307,2022-11-30 22:23:41
20,"[{'imgObject': {}, 'id': 'burrito', 'src': '/static/foodstim60/burrito.jpg', 'key': 'NaN', 'origWidth': 410, 'origHeight': 410, 'width': 410, 'height': 410, 'widthPercent': 0.8, 'rescaleHeight': True, 'trialN': 20, 'loaded': True, 'loadedTime': 1955.6000000005588, 'positionName': 'CENTER', 'positionCoords': [595, 245]}]",Rate how much you want to eat this food from 0 (least) to 10 (most).,36246.0,1669846961115,burrito,1159.2999999998137,True,8.52,37405.299999999814,1159.2999999998137,True,HRV,HRV_0307,2022-11-30 22:23:41
21,"[{'imgObject': {}, 'id': 'yogurt no spoon', 'src': '/static/foodstim60/yogurt no spoon.jpg', 'key': 'NaN', 'origWidth': 411, 'origHeight': 410, 'width': 411, 'height': 410, 'widthPercent': 0.8, 'rescaleHeight': True, 'trialN': 21, 'loaded': True, 'loadedTime': 1956, 'positionName': 'CENTER', 'positionCoords': [594.5, 245]}]",Rate how much you want to eat this food from 0 (least) to 10 (most).,37406.0,1669846962275,yogurt no spoon,1907.2000000001863,True,8.73,39313.200000000186,1907.2000000001863,True,HRV,HRV_0307,2022-11-30 22:23:41
22,"[{'imgObject': {}, 'id': 'ice cream sundae 002', 'src': '/static/foodstim60/ice cream sundae 002.jpg', 'key': 'NaN', 'origWidth': 409, 'origHeight': 409, 'width': 409, 'height': 409, 'widthPercent': 0.8, 'rescaleHeight': True, 'trialN': 22, 'loaded': True, 'loadedTime': 1959.2999999998137, 'positionName': 'CENTER', 'positionCoords': [595.5, 245.5]}]",Rate how much you want to eat this food from 0 (least) to 10 (most).,39313.799999999814,1669846964183,ice cream sundae 002,1281.4000000003725,True,8.82,40595.200000000186,1281.4000000003725,True,HRV,HRV_0307,2022-11-30 22:23:41
23,"[{'imgObject': {}, 'id': 'cheerios', 'src': '/static/foodstim60/cheerios.jpg', 'key': 'NaN', 'origWidth': 409, 'origHeight': 410, 'width': 409, 'height': 410, 'widthPercent': 0.8, 'rescaleHeight': True, 'trialN': 23, 'loaded': True, 'loadedTime': 1959.9000000003725, 'positionName': 'CENTER', 'positionCoords': [595.5, 245]}]",Rate how much you want to eat this food from 0 (least) to 10 (most).,40595.90000000037,1669846965465,cheerios,1457.3999999994412,True,5.1000000000000005,42053.299999999814,1457.3999999994412,True,HRV,HRV_0307,2022-11-30 22:23:41
24,"[{'imgObject': {}, 'id': 'orange slices', 'src': '/static/foodstim60/orange slices.jpg', 'key': 'NaN', 'origWidth': 409, 'origHeight': 410, 'width': 409, 'height': 410, 'widthPercent': 0.8, 'rescaleHeight': True, 'trialN': 24, 'loaded': True, 'loadedTime': 1960.4000000003725, 'positionName': 'CENTER', 'positionCoords': [595.5, 245]}]",Rate how much you want to eat this food from 0 (least) to 10 (most).,42054.0,1669846966923,orange slices,1421.2000000001863,True,7.75,43475.200000000186,1421.2000000001863,True,HRV,HRV_0307,2022-11-30 22:23:41
25,"[{'imgObject': {}, 'id': 'turkey sandwich', 'src': '/static/foodstim60/turkey sandwich.jpg', 'key': 'NaN', 'origWidth': 409, 'origHeight': 409, 'width': 409, 'height': 409, 'widthPercent': 0.8, 'rescaleHeight': True, 'trialN': 25, 'loaded': True, 'loadedTime': 1961, 'positionName': 'CENTER', 'positionCoords': [595.5, 245.5]}]",Rate how much you want to eat this food from 0 (least) to 10 (most).,43475.799999999814,1669846968345,turkey sandwich,1689.5,True,8.02,45165.299999999814,1689.5,True,HRV,HRV_0307,2022-11-30 22:23:41
26,"[{'imgObject': {}, 'id': 'mashed potato', 'src': '/static/foodstim60/mashed potato.jpg', 'key': 'NaN', 'origWidth': 409, 'origHeight': 409, 'width': 409, 'height': 409, 'widthPercent': 0.8, 'rescaleHeight': True, 'trialN': 26, 'loaded': True, 'loadedTime': 1966.2999999998137, 'positionName': 'CENTER', 'positionCoords': [595.5, 245.5]}]",Rate how much you want to eat this food from 0 (least) to 10 (most).,45166.10000000056,1669846970036,mashed potato,2311.199999999255,True,3.66,47477.299999999814,2311.199999999255,True,HRV,HRV_0307,2022-11-30 22:23:41
27,"[{'imgObject': {}, 'id': 'Tribe humus pita', 'src': '/static/foodstim60/Tribe humus pita.jpg', 'key': 'NaN', 'origWidth': 411, 'origHeight': 411, 'width': 411, 'height': 411, 'widthPercent': 0.8, 'rescaleHeight': True, 'trialN': 27, 'loaded': True, 'loadedTime': 1967.1000000005588, 'positionName': 'CENTER', 'positionCoords': [594.5, 244.5]}]",Rate how much you want to eat this food from 0 (least) to 10 (most).,47478.10000000056,1669846972348,Tribe humus pita,1723.199999999255,True,9.92,49201.299999999814,1723.199999999255,True,HRV,HRV_0307,2022-11-30 22:23:41
28,"[{'imgObject': {}, 'id': 'baked potato', 'src': '/static/foodstim60/baked potato.jpg', 'key': 'NaN', 'origWidth': 409, 'origHeight': 410, 'width': 409, 'height': 410, 'widthPercent': 0.8, 'rescaleHeight': True, 'trialN': 28, 'loaded': True, 'loadedTime': 1967.7999999998137, 'positionName': 'CENTER', 'positionCoords': [595.5, 245]}]",Rate how much you want to eat this food from 0 (least) to 10 (most).,49202.0,1669846974072,baked potato,1649.2000000001863,True,5.1000000000000005,50851.200000000186,1649.2000000001863,True,HRV,HRV_0307,2022-11-30 22:23:41
29,"[{'imgObject': {}, 'id': 'fried eggs', 'src': '/static/foodstim60/fried eggs.jpg', 'key': 'NaN', 'origWidth': 410, 'origHeight': 410, 'width': 410, 'height': 410, 'widthPercent': 0.8, 'rescaleHeight': True, 'trialN': 29, 'loaded': True, 'loadedTime': 1969.5, 'positionName': 'CENTER', 'positionCoords': [595, 245]}]",Rate how much you want to eat this food from 0 (least) to 10 (most).,50852.10000000056,1669846975722,fried eggs,1961.2999999998137,True,5.45,52813.40000000037,1961.2999999998137,True,HRV,HRV_0307,2022-11-30 22:23:41
30,"[{'imgObject': {}, 'id': 'cocktailshrimp', 'src': '/static/foodstim60/cocktailshrimp.jpg', 'key': 'NaN', 'origWidth': 410, 'origHeight': 410, 'width': 410, 'height': 410, 'widthPercent': 0.8, 'rescaleHeight': True, 'trialN': 30, 'loaded': True, 'loadedTime': 1974.6000000005588, 'positionName': 'CENTER', 'positionCoords': [595, 245]}]",Rate how much you want to eat this food from 0 (least) to 10 (most).,52814.299999999814,1669846977684,cocktailshrimp,1961.0,True,4.5200000000000005,54775.299999999814,1961.0,True,HRV,HRV_0307,2022-11-30 22:23:41
31,"[{'imgObject': {}, 'id': 'corn cob', 'src': '/static/foodstim60/corn cob.jpg', 'key': 'NaN', 'origWidth': 411, 'origHeight': 411, 'width': 411, 'height': 411, 'widthPercent': 0.8, 'rescaleHeight': True, 'trialN': 31, 'loaded': True, 'loadedTime': 1975.4000000003725, 'positionName': 'CENTER', 'positionCoords': [594.5, 244.5]}]",Rate how much you want to eat this food from 0 (least) to 10 (most).,54775.90000000037,1669846979645,corn cob,1563.3999999994412,True,5.03,56339.299999999814,1563.3999999994412,True,HRV,HRV_0307,2022-11-30 22:23:41
32,"[{'imgObject': {}, 'id': 'veggieswithdip', 'src': '/static/foodstim60/veggieswithdip.jpg', 'key': 'NaN', 'origWidth': 409, 'origHeight': 409, 'width': 409, 'height': 409, 'widthPercent': 0.8, 'rescaleHeight': True, 'trialN': 32, 'loaded': True, 'loadedTime': 1975.7999999998137, 'positionName': 'CENTER', 'positionCoords': [595.5, 245.5]}]",Rate how much you want to eat this food from 0 (least) to 10 (most).,56340.0,1669846981209,veggieswithdip,1159.2000000001863,True,5.03,57499.200000000186,1159.2000000001863,True,HRV,HRV_0307,2022-11-30 22:23:41
33,"[{'imgObject': {}, 'id': 'froot loops w milk', 'src': '/static/foodstim60/froot loops w milk.jpg', 'key': 'NaN', 'origWidth': 410, 'origHeight': 410, 'width': 410, 'height': 410, 'widthPercent': 0.8, 'rescaleHeight': True, 'trialN': 33, 'loaded': True, 'loadedTime': 1981.2999999998137, 'positionName': 'CENTER', 'positionCoords': [595, 245]}]",Rate how much you want to eat this food from 0 (least) to 10 (most).,57499.90000000037,1669846982369,froot loops w milk,1611.3999999994412,True,7.95,59111.299999999814,1611.3999999994412,True,HRV,HRV_0307,2022-11-30 22:23:41
34,"[{'imgObject': {}, 'id': 'cherry tomato', 'src': '/static/foodstim60/cherry tomato.jpg', 'key': 'NaN', 'origWidth': 410, 'origHeight': 410, 'width': 410, 'height': 410, 'widthPercent': 0.8, 'rescaleHeight': True, 'trialN': 34, 'loaded': True, 'loadedTime': 1977.2000000001863, 'positionName': 'CENTER', 'positionCoords': [595, 245]}]",Rate how much you want to eat this food from 0 (least) to 10 (most).,59112.0,1669846983981,cherry tomato,1277.4000000003725,True,1.52,60389.40000000037,1277.4000000003725,True,HRV,HRV_0307,2022-11-30 22:23:41
35,"[{'imgObject': {}, 'id': 'blackbeanswithrice', 'src': '/static/foodstim60/blackbeanswithrice.jpg', 'key': 'NaN', 'origWidth': 410, 'origHeight': 410, 'width': 410, 'height': 410, 'widthPercent': 0.8, 'rescaleHeight': True, 'trialN': 35, 'loaded': True, 'loadedTime': 1982, 'positionName': 'CENTER', 'positionCoords': [595, 245]}]",Rate how much you want to eat this food from 0 (least) to 10 (most).,60390.10000000056,1669846985260,blackbeanswithrice,1053.199999999255,True,2.13,61443.299999999814,1053.199999999255,True,HRV,HRV_0307,2022-11-30 22:23:41
36,"[{'imgObject': {}, 'id': 'hotdog w must', 'src': '/static/foodstim60/hotdog w must.jpg', 'key': 'NaN', 'origWidth': 409, 'origHeight': 409, 'width': 409, 'height': 409, 'widthPercent': 0.8, 'rescaleHeight': True, 'trialN': 36, 'loaded': True, 'loadedTime': 1982.4000000003725, 'positionName': 'CENTER', 'positionCoords': [595.5, 245.5]}]",Rate how much you want to eat this food from 0 (least) to 10 (most).,61443.90000000037,1669846986313,hotdog w must,1093.3999999994412,True,3.77,62537.299999999814,1093.3999999994412,True,HRV,HRV_0307,2022-11-30 22:23:41
37,"[{'imgObject': {}, 'id': 'luckycharms', 'src': '/static/foodstim60/luckycharms.jpg', 'key': 'NaN', 'origWidth': 410, 'origHeight': 409, 'width': 410, 'height': 409, 'widthPercent': 0.8, 'rescaleHeight': True, 'trialN': 37, 'loaded': True, 'loadedTime': 1982.9000000003725, 'positionName': 'CENTER', 'positionCoords': [595, 245.5]}]",Rate how much you want to eat this food from 0 (least) to 10 (most).,62538.200000000186,1669846987408,luckycharms,1297.0999999996275,True,8.42,63835.299999999814,1297.0999999996275,True,HRV,HRV_0307,2022-11-30 22:23:41
38,"[{'imgObject': {}, 'id': 'blueberries', 'src': '/static/foodstim60/blueberries.jpg', 'key': 'NaN', 'origWidth': 411, 'origHeight': 411, 'width': 411, 'height': 411, 'widthPercent': 0.8, 'rescaleHeight': True, 'trialN': 38, 'loaded': True, 'loadedTime': 1986.2000000001863, 'positionName': 'CENTER', 'positionCoords': [594.5, 244.5]}]",Rate how much you want to eat this food from 0 (least) to 10 (most).,63836.10000000056,1669846988705,blueberries,1967.199999999255,True,8.26,65803.29999999981,1967.199999999255,True,HRV,HRV_0307,2022-11-30 22:23:41
39,"[{'imgObject': {}, 'id': 'tacos', 'src': '/static/foodstim60/tacos.jpg', 'key': 'NaN', 'origWidth': 411, 'origHeight': 411, 'width': 411, 'height': 411, 'widthPercent': 0.8, 'rescaleHeight': True, 'trialN': 39, 'loaded': True, 'loadedTime': 1987.4000000003725, 'positionName': 'CENTER', 'positionCoords': [594.5, 244.5]}]",Rate how much you want to eat this food from 0 (least) to 10 (most).,65804.10000000056,1669846990673,tacos,1535.199999999255,True,8.27,67339.29999999981,1535.199999999255,True,HRV,HRV_0307,2022-11-30 22:23:41
40,"[{'imgObject': {}, 'id': 'avocado', 'src': '/static/foodstim60/avocado.jpg', 'key': 'NaN', 'origWidth': 409, 'origHeight': 409, 'width': 409, 'height': 409, 'widthPercent': 0.8, 'rescaleHeight': True, 'trialN': 40, 'loaded': True, 'loadedTime': 1988.6000000005588, 'positionName': 'CENTER', 'positionCoords': [595.5, 245.5]}]",Rate how much you want to eat this food from 0 (least) to 10 (most).,67340.0,1669846992209,avocado,2117.2000000001863,True,3.92,69457.20000000019,2117.2000000001863,True,HRV,HRV_0307,2022-11-30 22:23:41
41,"[{'imgObject': {}, 'id': 'turkeysandwich', 'src': '/static/foodstim60/turkeysandwich.jpg', 'key': 'NaN', 'origWidth': 409, 'origHeight': 409, 'width': 409, 'height': 409, 'widthPercent': 0.8, 'rescaleHeight': True, 'trialN': 41, 'loaded': True, 'loadedTime': 1989.2000000001863, 'positionName': 'CENTER', 'positionCoords': [595.5, 245.5]}]",Rate how much you want to eat this food from 0 (least) to 10 (most).,69458.0,1669846994327,turkeysandwich,1563.5,True,7.13,71021.5,1563.5,True,HRV,HRV_0307,2022-11-30 22:23:41
42,"[{'imgObject': {}, 'id': 'popsicles', 'src': '/static/foodstim60/popsicles.jpg', 'key': 'NaN', 'origWidth': 410, 'origHeight': 410, 'width': 410, 'height': 410, 'widthPercent': 0.8, 'rescaleHeight': True, 'trialN': 42, 'loaded': True, 'loadedTime': 1993.2000000001863, 'positionName': 'CENTER', 'positionCoords': [595, 245]}]",Rate how much you want to eat this food from 0 (least) to 10 (most).,71022.29999999981,1669846995892,popsicles,1316.9000000003725,True,8.42,72339.20000000019,1316.9000000003725,True,HRV,HRV_0307,2022-11-30 22:23:41
43,"[{'imgObject': {}, 'id': 'cantaloupe', 'src': '/static/foodstim60/cantaloupe.jpg', 'key': 'NaN', 'origWidth': 409, 'origHeight': 409, 'width': 409, 'height': 409, 'widthPercent': 0.8, 'rescaleHeight': True, 'trialN': 43, 'loaded': True, 'loadedTime': 1993.7000000001863, 'positionName': 'CENTER', 'positionCoords': [595.5, 245.5]}]",Rate how much you want to eat this food from 0 (least) to 10 (most).,72340.10000000056,1669846997210,cantaloupe,1505.2999999998137,True,4.0600000000000005,73845.40000000037,1505.2999999998137,True,HRV,HRV_0307,2022-11-30 22:23:41
44,"[{'imgObject': {}, 'id': 'Grapes', 'src': '/static/foodstim60/Grapes.jpg', 'key': 'NaN', 'origWidth': 411, 'origHeight': 411, 'width': 411, 'height': 411, 'widthPercent': 0.8, 'rescaleHeight': True, 'trialN': 44, 'loaded': True, 'loadedTime': 1994.1000000005588, 'positionName': 'CENTER', 'positionCoords': [594.5, 244.5]}]",Rate how much you want to eat this food from 0 (least) to 10 (most).,73846.29999999981,1669846998716,Grapes,1119.1000000005588,True,6.2700000000000005,74965.40000000037,1119.1000000005588,True,HRV,HRV_0307,2022-11-30 22:23:41
45,"[{'imgObject': {}, 'id': 'raspberries', 'src': '/static/foodstim60/raspberries.jpg', 'key': 'NaN', 'origWidth': 411, 'origHeight': 411, 'width': 411, 'height': 411, 'widthPercent': 0.8, 'rescaleHeight': True, 'trialN': 45, 'loaded': True, 'loadedTime': 1994.9000000003725, 'positionName': 'CENTER', 'positionCoords': [594.5, 244.5]}]",Rate how much you want to eat this food from 0 (least) to 10 (most).,74966.29999999981,1669846999836,raspberries,1215.1000000005588,True,7.46,76181.40000000037,1215.1000000005588,True,HRV,HRV_0307,2022-11-30 22:23:41
46,"[{'imgObject': {}, 'id': 'raisin bran w milk', 'src': '/static/foodstim60/raisin bran w milk.jpg', 'key': 'NaN', 'origWidth': 411, 'origHeight': 411, 'width': 411, 'height': 411, 'widthPercent': 0.8, 'rescaleHeight': True, 'trialN': 46, 'loaded': True, 'loadedTime': 1999.6000000005588, 'positionName': 'CENTER', 'positionCoords': [594.5, 244.5]}]",Rate how much you want to eat this food from 0 (least) to 10 (most).,76182.10000000056,1669847001052,raisin bran w milk,1925.0999999996275,True,7.8100000000000005,78107.20000000019,1925.0999999996275,True,HRV,HRV_0307,2022-11-30 22:23:41
47,"[{'imgObject': {}, 'id': 'grilled chicken strips', 'src': '/static/foodstim60/grilled chicken strips.jpg', 'key': 'NaN', 'origWidth': 410, 'origHeight': 411, 'width': 410, 'height': 411, 'widthPercent': 0.8, 'rescaleHeight': True, 'trialN': 47, 'loaded': True, 'loadedTime': 2001, 'positionName': 'CENTER', 'positionCoords': [595, 244.5]}]",Rate how much you want to eat this food from 0 (least) to 10 (most).,78107.79999999981,1669847002977,grilled chicken strips,1565.5,True,7.11,79673.29999999981,1565.5,True,HRV,HRV_0307,2022-11-30 22:23:41
48,"[{'imgObject': {}, 'id': 'mac & cheese', 'src': '/static/foodstim60/mac & cheese.jpg', 'key': 'NaN', 'origWidth': 410, 'origHeight': 410, 'width': 410, 'height': 410, 'widthPercent': 0.8, 'rescaleHeight': True, 'trialN': 48, 'loaded': True, 'loadedTime': 2002.6000000005588, 'positionName': 'CENTER', 'positionCoords': [595, 245]}]",Rate how much you want to eat this food from 0 (least) to 10 (most).,79673.90000000037,1669847004543,mac & cheese,1775.3999999994412,True,9.16,81449.29999999981,1775.3999999994412,True,HRV,HRV_0307,2022-11-30 22:23:41
49,"[{'imgObject': {}, 'id': 'bagel and cc', 'src': '/static/foodstim60/bagel and cc.jpg', 'key': 'NaN', 'origWidth': 410, 'origHeight': 410, 'width': 410, 'height': 410, 'widthPercent': 0.8, 'rescaleHeight': True, 'trialN': 49, 'loaded': True, 'loadedTime': 2003.2999999998137, 'positionName': 'CENTER', 'positionCoords': [595, 245]}]",Rate how much you want to eat this food from 0 (least) to 10 (most).,81450.0,1669847006319,bagel and cc,1471.2999999998137,True,5.03,82921.29999999981,1471.2999999998137,True,HRV,HRV_0307,2022-11-30 22:23:41
50,"[{'imgObject': {}, 'id': 'hashbrowns', 'src': '/static/foodstim60/hashbrowns.jpg', 'key': 'NaN', 'origWidth': 411, 'origHeight': 410, 'width': 411, 'height': 410, 'widthPercent': 0.8, 'rescaleHeight': True, 'trialN': 50, 'loaded': True, 'loadedTime': 2006.7999999998137, 'positionName': 'CENTER', 'positionCoords': [594.5, 245]}]",Rate how much you want to eat this food from 0 (least) to 10 (most).,82922.10000000056,1669847007792,hashbrowns,1601.2999999998137,True,3.36,84523.40000000037,1601.2999999998137,True,HRV,HRV_0307,2022-11-30 22:23:41
51,"[{'imgObject': {}, 'id': 'bagel plain', 'src': '/static/foodstim60/bagel plain.jpg', 'key': 'NaN', 'origWidth': 410, 'origHeight': 410, 'width': 410, 'height': 410, 'widthPercent': 0.8, 'rescaleHeight': True, 'trialN': 51, 'loaded': True, 'loadedTime': 2007.4000000003725, 'positionName': 'CENTER', 'positionCoords': [595, 245]}]",Rate how much you want to eat this food from 0 (least) to 10 (most).,84524.10000000056,1669847009394,bagel plain,1083.2999999998137,True,1.87,85607.40000000037,1083.2999999998137,True,HRV,HRV_0307,2022-11-30 22:23:41
52,"[{'imgObject': {}, 'id': 'eggs', 'src': '/static/foodstim60/eggs.jpg', 'key': 'NaN', 'origWidth': 409, 'origHeight': 409, 'width': 409, 'height': 409, 'widthPercent': 0.8, 'rescaleHeight': True, 'trialN': 52, 'loaded': True, 'loadedTime': 2007.7999999998137, 'positionName': 'CENTER', 'positionCoords': [595.5, 245.5]}]",Rate how much you want to eat this food from 0 (least) to 10 (most).,85608.40000000037,1669847010478,eggs,1463.0,True,5.16,87071.40000000037,1463.0,True,HRV,HRV_0307,2022-11-30 22:23:41
53,"[{'imgObject': {}, 'id': 'chicken nuggets2', 'src': '/static/foodstim60/chicken nuggets2.jpg', 'key': 'NaN', 'origWidth': 410, 'origHeight': 409, 'width': 410, 'height': 409, 'widthPercent': 0.8, 'rescaleHeight': True, 'trialN': 53, 'loaded': True, 'loadedTime': 2008.5, 'positionName': 'CENTER', 'positionCoords': [595, 245.5]}]",Rate how much you want to eat this food from 0 (least) to 10 (most).,87072.10000000056,1669847011942,chicken nuggets2,1259.199999999255,True,6.33,88331.29999999981,1259.199999999255,True,HRV,HRV_0307,2022-11-30 22:23:41
54,"[{'imgObject': {}, 'id': 'fruitsalad', 'src': '/static/foodstim60/fruitsalad.jpg', 'key': 'NaN', 'origWidth': 410, 'origHeight': 410, 'width': 410, 'height': 410, 'widthPercent': 0.8, 'rescaleHeight': True, 'trialN': 54, 'loaded': True, 'loadedTime': 2013.2000000001863, 'positionName': 'CENTER', 'positionCoords': [595, 245]}]",Rate how much you want to eat this food from 0 (least) to 10 (most).,88332.10000000056,1669847013202,fruitsalad,1285.2999999998137,True,7.47,89617.40000000037,1285.2999999998137,True,HRV,HRV_0307,2022-11-30 22:23:41
55,"[{'imgObject': {}, 'id': 'strawberries', 'src': '/static/foodstim60/strawberries.jpg', 'key': 'NaN', 'origWidth': 410, 'origHeight': 410, 'width': 410, 'height': 410, 'widthPercent': 0.8, 'rescaleHeight': True, 'trialN': 55, 'loaded': True, 'loadedTime': 2013.7999999998137, 'positionName': 'CENTER', 'positionCoords': [595, 245]}]",Rate how much you want to eat this food from 0 (least) to 10 (most).,89618.0,1669847014488,strawberries,1341.2999999998137,True,5.12,90959.29999999981,1341.2999999998137,True,HRV,HRV_0307,2022-11-30 22:23:41
56,"[{'imgObject': {}, 'id': 'apple slices', 'src': '/static/foodstim60/apple slices.jpg', 'key': 'NaN', 'origWidth': 409, 'origHeight': 410, 'width': 409, 'height': 410, 'widthPercent': 0.8, 'rescaleHeight': True, 'trialN': 56, 'loaded': True, 'loadedTime': 2014.2999999998137, 'positionName': 'CENTER', 'positionCoords': [595.5, 245]}]",Rate how much you want to eat this food from 0 (least) to 10 (most).,90960.10000000056,1669847015830,apple slices,1247.199999999255,True,2.42,92207.29999999981,1247.199999999255,True,HRV,HRV_0307,2022-11-30 22:23:41
57,"[{'imgObject': {}, 'id': 'steak', 'src': '/static/foodstim60/steak.jpg', 'key': 'NaN', 'origWidth': 410, 'origHeight': 410, 'width': 410, 'height': 410, 'widthPercent': 0.8, 'rescaleHeight': True, 'trialN': 57, 'loaded': True, 'loadedTime': 2014.7000000001863, 'positionName': 'CENTER', 'positionCoords': [595, 245]}]",Rate how much you want to eat this food from 0 (least) to 10 (most).,92208.0,1669847017078,steak,1295.4000000003725,True,4.97,93503.40000000037,1295.4000000003725,True,HRV,HRV_0307,2022-11-30 22:23:41
58,"[{'imgObject': {}, 'id': 'cherries', 'src': '/static/foodstim60/cherries.jpg', 'key': 'NaN', 'origWidth': 410, 'origHeight': 411, 'width': 410, 'height': 411, 'widthPercent': 0.8, 'rescaleHeight': True, 'trialN': 58, 'loaded': True, 'loadedTime': 2018.2999999998137, 'positionName': 'CENTER', 'positionCoords': [595, 244.5]}]",Rate how much you want to eat this food from 0 (least) to 10 (most).,93504.10000000056,1669847018374,cherries,1451.199999999255,True,8.81,94955.29999999981,1451.199999999255,True,HRV,HRV_0307,2022-11-30 22:23:41
59,"[{'imgObject': {}, 'id': 'omelette', 'src': '/static/foodstim60/omelette.jpg', 'key': 'NaN', 'origWidth': 410, 'origHeight': 409, 'width': 410, 'height': 409, 'widthPercent': 0.8, 'rescaleHeight': True, 'trialN': 59, 'loaded': True, 'loadedTime': 2018.7999999998137, 'positionName': 'CENTER', 'positionCoords': [595, 245.5]}]",Rate how much you want to eat this food from 0 (least) to 10 (most).,94956.10000000056,1669847019826,omelette,1407.2999999998137,True,5.0200000000000005,96363.40000000037,1407.2999999998137,True,HRV,HRV_0307,2022-11-30 22:23:41
