trialN,stimuli,trialStartTime,trialStartTime_UNIX,stimulus1,stimulus2,stimulus1Bid,stimulus2Bid,delta,selected,rt,rt_UNIX,rt_perfnow,receivedResponse,rsp,trialEndTime,trialDuration,trialEndTime_UNIX,trialDuration_UNIX,exp,subjectId,date
0,"[{'imgObject': {}, 'id': 'seaweed', 'src': '/static/foodstim60/seaweed.jpg', 'key': 'u', 'origWidth': 410, 'origHeight': 410, 'width': 410, 'height': 410, 'widthPercent': 0.45, 'rescaleHeight': False, 'trialN': 0, 'loaded': True, 'loadedTime': 1707.199999999255, 'positionName': 'LEFT', 'positionCoords': [358, 245], 'bid': 8.06}, {'imgObject': {}, 'id': 'chickenfingers', 'src': '/static/foodstim60/chickenfingers.jpg', 'key': 'i', 'origWidth': 410, 'origHeight': 410, 'width': 410, 'height': 410, 'widthPercent': 0.45, 'rescaleHeight': False, 'trialN': 0, 'loaded': True, 'loadedTime': 1713.5999999996275, 'positionName': 'RIGHT', 'positionCoords': [832, 245], 'bid': 6.66}]",1866.8999999994412,1669847106847,seaweed,chickenfingers,8.06,6.66,-1.4000000000000004,chickenfingers,2348.4000000003725,2349,2348.7000000001863,True,i,4732.399999999441,2865.5,1669847109713,2866,HRV,HRV_0307,2022-11-30 22:30:58
1,"[{'imgObject': {}, 'id': 'eggsalad', 'src': '/static/foodstim60/eggsalad.jpg', 'key': 'u', 'origWidth': 410, 'origHeight': 409, 'width': 410, 'height': 409, 'widthPercent': 0.45, 'rescaleHeight': False, 'trialN': 1, 'loaded': True, 'loadedTime': 1715.199999999255, 'positionName': 'LEFT', 'positionCoords': [358, 245.5], 'bid': 6.33}, {'imgObject': {}, 'id': 'cantaloupe', 'src': '/static/foodstim60/cantaloupe.jpg', 'key': 'i', 'origWidth': 409, 'origHeight': 409, 'width': 409, 'height': 409, 'widthPercent': 0.45, 'rescaleHeight': False, 'trialN': 1, 'loaded': True, 'loadedTime': 1716.7999999998137, 'positionName': 'RIGHT', 'positionCoords': [832, 245.5], 'bid': 4.0600000000000005}]",4732.5999999996275,1669847109713,eggsalad,cantaloupe,6.33,4.0600000000000005,-2.2699999999999996,cantaloupe,2298.7000000001863,2299,2298.9000000003725,True,i,7550.0999999996275,2817.5,1669847112530,2817,HRV,HRV_0307,2022-11-30 22:30:58
2,"[{'imgObject': {}, 'id': 'lox', 'src': '/static/foodstim60/lox.jpg', 'key': 'u', 'origWidth': 410, 'origHeight': 411, 'width': 410, 'height': 411, 'widthPercent': 0.45, 'rescaleHeight': False, 'trialN': 2, 'loaded': True, 'loadedTime': 1717.699999999255, 'positionName': 'LEFT', 'positionCoords': [358, 244.5], 'bid': 7.33}, {'imgObject': {}, 'id': 'kiwi', 'src': '/static/foodstim60/kiwi.jpg', 'key': 'i', 'origWidth': 410, 'origHeight': 410, 'width': 410, 'height': 410, 'widthPercent': 0.45, 'rescaleHeight': False, 'trialN': 2, 'loaded': True, 'loadedTime': 1719.2999999998137, 'positionName': 'RIGHT', 'positionCoords': [832, 245], 'bid': 7.38}]",7550.199999999255,1669847112530,lox,kiwi,7.33,7.38,0.04999999999999982,kiwi,1601.1000000005588,1602,1601.2000000001863,True,i,9660.899999999441,2110.7000000001863,1669847114641,2111,HRV,HRV_0307,2022-11-30 22:30:58
3,"[{'imgObject': {}, 'id': 'fruitsalad', 'src': '/static/foodstim60/fruitsalad.jpg', 'key': 'u', 'origWidth': 410, 'origHeight': 410, 'width': 410, 'height': 410, 'widthPercent': 0.45, 'rescaleHeight': False, 'trialN': 3, 'loaded': True, 'loadedTime': 1724.199999999255, 'positionName': 'LEFT', 'positionCoords': [358, 245], 'bid': 7.47}, {'imgObject': {}, 'id': 'yogurt no spoon', 'src': '/static/foodstim60/yogurt no spoon.jpg', 'key': 'i', 'origWidth': 411, 'origHeight': 410, 'width': 411, 'height': 410, 'widthPercent': 0.45, 'rescaleHeight': False, 'trialN': 3, 'loaded': True, 'loadedTime': 1733.8999999994412, 'positionName': 'RIGHT', 'positionCoords': [832, 245], 'bid': 8.73}]",9661.0,1669847114641,fruitsalad,yogurt no spoon,7.47,8.73,1.2600000000000007,fruitsalad,2202.5999999996275,2203,2202.7999999998137,True,u,12369.399999999441,2708.399999999441,1669847117350,2709,HRV,HRV_0307,2022-11-30 22:30:58
4,"[{'imgObject': {}, 'id': 'mango', 'src': '/static/foodstim60/mango.jpg', 'key': 'u', 'origWidth': 411, 'origHeight': 411, 'width': 411, 'height': 411, 'widthPercent': 0.45, 'rescaleHeight': False, 'trialN': 4, 'loaded': True, 'loadedTime': 1743.5, 'positionName': 'LEFT', 'positionCoords': [357, 244.5], 'bid': 6.38}, {'imgObject': {}, 'id': 'fruitsalad', 'src': '/static/foodstim60/fruitsalad.jpg', 'key': 'i', 'origWidth': 410, 'origHeight': 410, 'width': 410, 'height': 410, 'widthPercent': 0.45, 'rescaleHeight': False, 'trialN': 4, 'loaded': True, 'loadedTime': 1724.3999999994412, 'positionName': 'RIGHT', 'positionCoords': [832, 245], 'bid': 7.47}]",12369.699999999255,1669847117350,mango,fruitsalad,6.38,7.47,1.0899999999999999,fruitsalad,1301.6000000005588,1302,1301.9000000003725,True,i,14190.899999999441,1821.2000000001863,1669847119171,1821,HRV,HRV_0307,2022-11-30 22:30:58
5,"[{'imgObject': {}, 'id': 'steak', 'src': '/static/foodstim60/steak.jpg', 'key': 'u', 'origWidth': 410, 'origHeight': 410, 'width': 410, 'height': 410, 'widthPercent': 0.45, 'rescaleHeight': False, 'trialN': 5, 'loaded': True, 'loadedTime': 1744.5, 'positionName': 'LEFT', 'positionCoords': [358, 245], 'bid': 4.97}, {'imgObject': {}, 'id': 'seaweed', 'src': '/static/foodstim60/seaweed.jpg', 'key': 'i', 'origWidth': 410, 'origHeight': 410, 'width': 410, 'height': 410, 'widthPercent': 0.45, 'rescaleHeight': False, 'trialN': 5, 'loaded': True, 'loadedTime': 1708.0999999996275, 'positionName': 'RIGHT', 'positionCoords': [832, 245], 'bid': 8.06}]",14191.099999999627,1669847119171,steak,seaweed,4.97,8.06,3.0900000000000007,seaweed,1032.2000000001863,1033,1032.5,True,i,15730.699999999255,1539.5999999996275,1669847120711,1540,HRV,HRV_0307,2022-11-30 22:30:58
6,"[{'imgObject': {}, 'id': 'corn cob', 'src': '/static/foodstim60/corn cob.jpg', 'key': 'u', 'origWidth': 411, 'origHeight': 411, 'width': 411, 'height': 411, 'widthPercent': 0.45, 'rescaleHeight': False, 'trialN': 6, 'loaded': True, 'loadedTime': 1745.699999999255, 'positionName': 'LEFT', 'positionCoords': [357, 244.5], 'bid': 5.03}, {'imgObject': {}, 'id': 'popsicles', 'src': '/static/foodstim60/popsicles.jpg', 'key': 'i', 'origWidth': 410, 'origHeight': 410, 'width': 410, 'height': 410, 'widthPercent': 0.45, 'rescaleHeight': False, 'trialN': 6, 'loaded': True, 'loadedTime': 1866.0999999996275, 'positionName': 'RIGHT', 'positionCoords': [832, 245], 'bid': 8.42}]",15730.799999999814,1669847120711,corn cob,popsicles,5.03,8.42,3.3899999999999997,NaN,NaN,NaN,,False,NaN,19752.799999999814,4022.0,1669847124733,4022,HRV,HRV_0307,2022-11-30 22:30:58
7,"[{'imgObject': {}, 'id': 'luckycharms', 'src': '/static/foodstim60/luckycharms.jpg', 'key': 'u', 'origWidth': 410, 'origHeight': 409, 'width': 410, 'height': 409, 'widthPercent': 0.45, 'rescaleHeight': False, 'trialN': 7, 'loaded': True, 'loadedTime': 1747.0999999996275, 'positionName': 'LEFT', 'positionCoords': [358, 245.5], 'bid': 8.42}, {'imgObject': {}, 'id': 'shreddedwheatwithmilk', 'src': '/static/foodstim60/shreddedwheatwithmilk.jpg', 'key': 'i', 'origWidth': 410, 'origHeight': 410, 'width': 410, 'height': 410, 'widthPercent': 0.45, 'rescaleHeight': False, 'trialN': 7, 'loaded': True, 'loadedTime': 1747.699999999255, 'positionName': 'RIGHT', 'positionCoords': [832, 245], 'bid': 7.67}]",19753.0,1669847124733,luckycharms,shreddedwheatwithmilk,8.42,7.67,-0.75,shreddedwheatwithmilk,1662.2999999998137,1663,1662.5,True,i,21934.599999999627,2181.5999999996275,1669847126915,2182,HRV,HRV_0307,2022-11-30 22:30:58
8,"[{'imgObject': {}, 'id': 'salmon', 'src': '/static/foodstim60/salmon.jpg', 'key': 'u', 'origWidth': 410, 'origHeight': 409, 'width': 410, 'height': 409, 'widthPercent': 0.45, 'rescaleHeight': False, 'trialN': 8, 'loaded': True, 'loadedTime': 1756.0999999996275, 'positionName': 'LEFT', 'positionCoords': [358, 245.5], 'bid': 8.53}, {'imgObject': {}, 'id': 'cherries', 'src': '/static/foodstim60/cherries.jpg', 'key': 'i', 'origWidth': 410, 'origHeight': 411, 'width': 410, 'height': 411, 'widthPercent': 0.45, 'rescaleHeight': False, 'trialN': 8, 'loaded': True, 'loadedTime': 1758.5, 'positionName': 'RIGHT', 'positionCoords': [832, 244.5], 'bid': 8.81}]",21934.799999999814,1669847126915,salmon,cherries,8.53,8.81,0.28000000000000114,cherries,1512.8999999994412,1513,1513.0999999996275,True,i,23953.39999999944,2018.5999999996275,1669847128934,2019,HRV,HRV_0307,2022-11-30 22:30:58
9,"[{'imgObject': {}, 'id': 'omelette', 'src': '/static/foodstim60/omelette.jpg', 'key': 'u', 'origWidth': 410, 'origHeight': 409, 'width': 410, 'height': 409, 'widthPercent': 0.45, 'rescaleHeight': False, 'trialN': 9, 'loaded': True, 'loadedTime': 1760.5, 'positionName': 'LEFT', 'positionCoords': [358, 245.5], 'bid': 5.0200000000000005}, {'imgObject': {}, 'id': 'steak', 'src': '/static/foodstim60/steak.jpg', 'key': 'i', 'origWidth': 410, 'origHeight': 410, 'width': 410, 'height': 410, 'widthPercent': 0.45, 'rescaleHeight': False, 'trialN': 9, 'loaded': True, 'loadedTime': 1744.3999999994412, 'positionName': 'RIGHT', 'positionCoords': [832, 245], 'bid': 4.97}]",23953.599999999627,1669847128934,omelette,steak,5.0200000000000005,4.97,-0.05000000000000071,steak,1661.7000000001863,1662,1662.0,True,i,26125.0,2171.4000000003725,1669847131105,2171,HRV,HRV_0307,2022-11-30 22:30:58
10,"[{'imgObject': {}, 'id': 'chicken nuggets2', 'src': '/static/foodstim60/chicken nuggets2.jpg', 'key': 'u', 'origWidth': 410, 'origHeight': 409, 'width': 410, 'height': 409, 'widthPercent': 0.45, 'rescaleHeight': False, 'trialN': 10, 'loaded': True, 'loadedTime': 1761.7999999998137, 'positionName': 'LEFT', 'positionCoords': [358, 245.5], 'bid': 6.33}, {'imgObject': {}, 'id': 'mango', 'src': '/static/foodstim60/mango.jpg', 'key': 'i', 'origWidth': 411, 'origHeight': 411, 'width': 411, 'height': 411, 'widthPercent': 0.45, 'rescaleHeight': False, 'trialN': 10, 'loaded': True, 'loadedTime': 1743.5999999996275, 'positionName': 'RIGHT', 'positionCoords': [832, 244.5], 'bid': 6.38}]",26125.199999999255,1669847131105,chicken nuggets2,mango,6.33,6.38,0.04999999999999982,chicken nuggets2,2162.100000000559,2163,2162.300000000745,True,u,28792.599999999627,2667.4000000003725,1669847133773,2668,HRV,HRV_0307,2022-11-30 22:30:58
11,"[{'imgObject': {}, 'id': 'burrito', 'src': '/static/foodstim60/burrito.jpg', 'key': 'u', 'origWidth': 410, 'origHeight': 410, 'width': 410, 'height': 410, 'widthPercent': 0.45, 'rescaleHeight': False, 'trialN': 11, 'loaded': True, 'loadedTime': 1763.0999999996275, 'positionName': 'LEFT', 'positionCoords': [358, 245], 'bid': 8.52}, {'imgObject': {}, 'id': 'sushi w_condiments', 'src': '/static/foodstim60/sushi w_condiments.jpg', 'key': 'i', 'origWidth': 410, 'origHeight': 410, 'width': 410, 'height': 410, 'widthPercent': 0.45, 'rescaleHeight': False, 'trialN': 11, 'loaded': True, 'loadedTime': 1763.7999999998137, 'positionName': 'RIGHT', 'positionCoords': [832, 245], 'bid': 9.71}]",28792.799999999814,1669847133773,burrito,sushi w_condiments,8.52,9.71,1.1900000000000013,sushi w_condiments,1038.5,1039,1038.7000000001863,True,i,30345.39999999944,1552.5999999996275,1669847135326,1553,HRV,HRV_0307,2022-11-30 22:30:58
12,"[{'imgObject': {}, 'id': 'olives', 'src': '/static/foodstim60/olives.jpg', 'key': 'u', 'origWidth': 410, 'origHeight': 410, 'width': 410, 'height': 410, 'widthPercent': 0.45, 'rescaleHeight': False, 'trialN': 12, 'loaded': True, 'loadedTime': 1764.7999999998137, 'positionName': 'LEFT', 'positionCoords': [358, 245], 'bid': 0.97}, {'imgObject': {}, 'id': 'rigatoni', 'src': '/static/foodstim60/rigatoni.jpg', 'key': 'i', 'origWidth': 411, 'origHeight': 411, 'width': 411, 'height': 411, 'widthPercent': 0.45, 'rescaleHeight': False, 'trialN': 12, 'loaded': True, 'loadedTime': 1766.0999999996275, 'positionName': 'RIGHT', 'positionCoords': [832, 244.5], 'bid': 1.85}]",30345.5,1669847135326,olives,rigatoni,0.97,1.85,0.8800000000000001,rigatoni,981.7999999998137,982,982.0,True,i,31845.599999999627,1500.0999999996275,1669847136826,1500,HRV,HRV_0307,2022-11-30 22:30:58
13,"[{'imgObject': {}, 'id': 'salad w chicken', 'src': '/static/foodstim60/salad w chicken.jpg', 'key': 'u', 'origWidth': 411, 'origHeight': 411, 'width': 411, 'height': 411, 'widthPercent': 0.45, 'rescaleHeight': False, 'trialN': 13, 'loaded': True, 'loadedTime': 1766.2999999998137, 'positionName': 'LEFT', 'positionCoords': [357, 244.5], 'bid': 4.97}, {'imgObject': {}, 'id': 'olives', 'src': '/static/foodstim60/olives.jpg', 'key': 'i', 'origWidth': 410, 'origHeight': 410, 'width': 410, 'height': 410, 'widthPercent': 0.45, 'rescaleHeight': False, 'trialN': 13, 'loaded': True, 'loadedTime': 1765.2999999998137, 'positionName': 'RIGHT', 'positionCoords': [832, 245], 'bid': 0.97}]",31845.799999999814,1669847136826,salad w chicken,olives,4.97,0.97,-4.0,salad w chicken,1009.5,1010,1009.7000000001863,True,u,33374.39999999944,1528.5999999996275,1669847138355,1529,HRV,HRV_0307,2022-11-30 22:30:58
14,"[{'imgObject': {}, 'id': 'hotdog w must', 'src': '/static/foodstim60/hotdog w must.jpg', 'key': 'u', 'origWidth': 409, 'origHeight': 409, 'width': 409, 'height': 409, 'widthPercent': 0.45, 'rescaleHeight': False, 'trialN': 14, 'loaded': True, 'loadedTime': 1768.3999999994412, 'positionName': 'LEFT', 'positionCoords': [359, 245.5], 'bid': 3.77}, {'imgObject': {}, 'id': 'avocado', 'src': '/static/foodstim60/avocado.jpg', 'key': 'i', 'origWidth': 409, 'origHeight': 409, 'width': 409, 'height': 409, 'widthPercent': 0.45, 'rescaleHeight': False, 'trialN': 14, 'loaded': True, 'loadedTime': 1769.699999999255, 'positionName': 'RIGHT', 'positionCoords': [832, 245.5], 'bid': 3.92}]",33374.5,1669847138355,hotdog w must,avocado,3.77,3.92,0.1499999999999999,avocado,2473.2999999998137,2473,2473.5,True,i,36360.59999999963,2986.0999999996275,1669847141341,2986,HRV,HRV_0307,2022-11-30 22:30:58
15,"[{'imgObject': {}, 'id': 'mashed potato', 'src': '/static/foodstim60/mashed potato.jpg', 'key': 'u', 'origWidth': 409, 'origHeight': 409, 'width': 409, 'height': 409, 'widthPercent': 0.45, 'rescaleHeight': False, 'trialN': 15, 'loaded': True, 'loadedTime': 1770.7999999998137, 'positionName': 'LEFT', 'positionCoords': [359, 245.5], 'bid': 3.66}, {'imgObject': {}, 'id': 'avocado', 'src': '/static/foodstim60/avocado.jpg', 'key': 'i', 'origWidth': 409, 'origHeight': 409, 'width': 409, 'height': 409, 'widthPercent': 0.45, 'rescaleHeight': False, 'trialN': 15, 'loaded': True, 'loadedTime': 1770, 'positionName': 'RIGHT', 'positionCoords': [832, 245.5], 'bid': 3.92}]",36360.699999999255,1669847141341,mashed potato,avocado,3.66,3.92,0.2599999999999998,avocado,1222.5,1223,1222.800000000745,True,i,38093.699999999255,1733.0,1669847143074,1733,HRV,HRV_0307,2022-11-30 22:30:58
16,"[{'imgObject': {}, 'id': 'burger', 'src': '/static/foodstim60/burger.jpg', 'key': 'u', 'origWidth': 409, 'origHeight': 409, 'width': 409, 'height': 409, 'widthPercent': 0.45, 'rescaleHeight': False, 'trialN': 16, 'loaded': True, 'loadedTime': 1780.0999999996275, 'positionName': 'LEFT', 'positionCoords': [359, 245.5], 'bid': 7.87}, {'imgObject': {}, 'id': 'cocktailshrimp', 'src': '/static/foodstim60/cocktailshrimp.jpg', 'key': 'i', 'origWidth': 410, 'origHeight': 410, 'width': 410, 'height': 410, 'widthPercent': 0.45, 'rescaleHeight': False, 'trialN': 16, 'loaded': True, 'loadedTime': 1781, 'positionName': 'RIGHT', 'positionCoords': [832, 245], 'bid': 4.5200000000000005}]",38093.799999999814,1669847143074,burger,cocktailshrimp,7.87,4.5200000000000005,-3.3499999999999996,burger,1329.3999999994412,1330,1329.7000000001863,True,u,39928.89999999944,1835.0999999996275,1669847144909,1835,HRV,HRV_0307,2022-11-30 22:30:58
17,"[{'imgObject': {}, 'id': 'tacos', 'src': '/static/foodstim60/tacos.jpg', 'key': 'u', 'origWidth': 411, 'origHeight': 411, 'width': 411, 'height': 411, 'widthPercent': 0.45, 'rescaleHeight': False, 'trialN': 17, 'loaded': True, 'loadedTime': 1789.199999999255, 'positionName': 'LEFT', 'positionCoords': [357, 244.5], 'bid': 8.27}, {'imgObject': {}, 'id': 'veggieswithdip', 'src': '/static/foodstim60/veggieswithdip.jpg', 'key': 'i', 'origWidth': 409, 'origHeight': 409, 'width': 409, 'height': 409, 'widthPercent': 0.45, 'rescaleHeight': False, 'trialN': 17, 'loaded': True, 'loadedTime': 1793.3999999994412, 'positionName': 'RIGHT', 'positionCoords': [832, 245.5], 'bid': 5.03}]",39929.0,1669847144909,tacos,veggieswithdip,8.27,5.03,-3.2399999999999993,tacos,1078.2999999998137,1079,1078.5,True,u,41516.89999999944,1587.8999999994412,1669847146497,1588,HRV,HRV_0307,2022-11-30 22:30:58
18,"[{'imgObject': {}, 'id': 'sweetpotato', 'src': '/static/foodstim60/sweetpotato.jpg', 'key': 'u', 'origWidth': 410, 'origHeight': 410, 'width': 410, 'height': 410, 'widthPercent': 0.45, 'rescaleHeight': False, 'trialN': 18, 'loaded': True, 'loadedTime': 1794.2999999998137, 'positionName': 'LEFT', 'positionCoords': [358, 245], 'bid': 6.88}, {'imgObject': {}, 'id': 'rigatoni', 'src': '/static/foodstim60/rigatoni.jpg', 'key': 'i', 'origWidth': 411, 'origHeight': 411, 'width': 411, 'height': 411, 'widthPercent': 0.45, 'rescaleHeight': False, 'trialN': 18, 'loaded': True, 'loadedTime': 1766.0999999996275, 'positionName': 'RIGHT', 'positionCoords': [832, 244.5], 'bid': 1.85}]",41517.0,1669847146497,sweetpotato,rigatoni,6.88,1.85,-5.029999999999999,sweetpotato,946.2999999998137,947,946.5,True,u,42969.5,1452.5,1669847147950,1453,HRV,HRV_0307,2022-11-30 22:30:58
19,"[{'imgObject': {}, 'id': 'salad w chicken', 'src': '/static/foodstim60/salad w chicken.jpg', 'key': 'u', 'origWidth': 411, 'origHeight': 411, 'width': 411, 'height': 411, 'widthPercent': 0.45, 'rescaleHeight': False, 'trialN': 19, 'loaded': True, 'loadedTime': 1766.7999999998137, 'positionName': 'LEFT', 'positionCoords': [357, 244.5], 'bid': 4.97}, {'imgObject': {}, 'id': 'rigatoni and sauce', 'src': '/static/foodstim60/rigatoni and sauce.jpg', 'key': 'i', 'origWidth': 410, 'origHeight': 411, 'width': 410, 'height': 411, 'widthPercent': 0.45, 'rescaleHeight': False, 'trialN': 19, 'loaded': True, 'loadedTime': 1800.5999999996275, 'positionName': 'RIGHT', 'positionCoords': [832, 244.5], 'bid': 4.96}]",42969.59999999963,1669847147950,salad w chicken,rigatoni and sauce,4.97,4.96,-0.009999999999999787,salad w chicken,1077.7000000001863,1078,1077.9000000003725,True,u,44564.299999999814,1594.7000000001863,1669847149545,1595,HRV,HRV_0307,2022-11-30 22:30:58
20,"[{'imgObject': {}, 'id': 'grilled chicken strips', 'src': '/static/foodstim60/grilled chicken strips.jpg', 'key': 'u', 'origWidth': 410, 'origHeight': 411, 'width': 410, 'height': 411, 'widthPercent': 0.45, 'rescaleHeight': False, 'trialN': 20, 'loaded': True, 'loadedTime': 1801.699999999255, 'positionName': 'LEFT', 'positionCoords': [358, 244.5], 'bid': 7.11}, {'imgObject': {}, 'id': 'turkeysandwich', 'src': '/static/foodstim60/turkeysandwich.jpg', 'key': 'i', 'origWidth': 409, 'origHeight': 409, 'width': 409, 'height': 409, 'widthPercent': 0.45, 'rescaleHeight': False, 'trialN': 20, 'loaded': True, 'loadedTime': 1805.699999999255, 'positionName': 'RIGHT', 'positionCoords': [832, 245.5], 'bid': 7.13}]",44564.39999999944,1669847149545,grilled chicken strips,turkeysandwich,7.11,7.13,0.019999999999999574,grilled chicken strips,3011.2999999998137,3012,3011.600000000559,True,u,48086.0,3521.600000000559,1669847153067,3522,HRV,HRV_0307,2022-11-30 22:30:58
21,"[{'imgObject': {}, 'id': 'roastedpotatoes', 'src': '/static/foodstim60/roastedpotatoes.jpg', 'key': 'u', 'origWidth': 409, 'origHeight': 410, 'width': 409, 'height': 410, 'widthPercent': 0.45, 'rescaleHeight': False, 'trialN': 21, 'loaded': True, 'loadedTime': 1809.8999999994412, 'positionName': 'LEFT', 'positionCoords': [359, 245], 'bid': 6.63}, {'imgObject': {}, 'id': 'bagel and cc', 'src': '/static/foodstim60/bagel and cc.jpg', 'key': 'i', 'origWidth': 410, 'origHeight': 410, 'width': 410, 'height': 410, 'widthPercent': 0.45, 'rescaleHeight': False, 'trialN': 21, 'loaded': True, 'loadedTime': 1814, 'positionName': 'RIGHT', 'positionCoords': [832, 245], 'bid': 5.03}]",48086.09999999963,1669847153067,roastedpotatoes,bagel and cc,6.63,5.03,-1.5999999999999996,NaN,NaN,NaN,,False,NaN,52107.59999999963,4021.5,1669847157088,4021,HRV,HRV_0307,2022-11-30 22:30:58
22,"[{'imgObject': {}, 'id': 'hashbrowns', 'src': '/static/foodstim60/hashbrowns.jpg', 'key': 'u', 'origWidth': 411, 'origHeight': 410, 'width': 411, 'height': 410, 'widthPercent': 0.45, 'rescaleHeight': False, 'trialN': 22, 'loaded': True, 'loadedTime': 1814.699999999255, 'positionName': 'LEFT', 'positionCoords': [357, 245], 'bid': 3.36}, {'imgObject': {}, 'id': 'veggieswithdip', 'src': '/static/foodstim60/veggieswithdip.jpg', 'key': 'i', 'origWidth': 409, 'origHeight': 409, 'width': 409, 'height': 409, 'widthPercent': 0.45, 'rescaleHeight': False, 'trialN': 22, 'loaded': True, 'loadedTime': 1793.5, 'positionName': 'RIGHT', 'positionCoords': [832, 245.5], 'bid': 5.03}]",52107.699999999255,1669847157088,hashbrowns,veggieswithdip,3.36,5.03,1.6700000000000004,veggieswithdip,1779.9000000003725,1780,1780.1000000005588,True,i,54402.59999999963,2294.9000000003725,1669847159383,2295,HRV,HRV_0307,2022-11-30 22:30:58
23,"[{'imgObject': {}, 'id': 'turkeysandwich', 'src': '/static/foodstim60/turkeysandwich.jpg', 'key': 'u', 'origWidth': 409, 'origHeight': 409, 'width': 409, 'height': 409, 'widthPercent': 0.45, 'rescaleHeight': False, 'trialN': 23, 'loaded': True, 'loadedTime': 1805.699999999255, 'positionName': 'LEFT', 'positionCoords': [359, 245.5], 'bid': 7.13}, {'imgObject': {}, 'id': 'mango', 'src': '/static/foodstim60/mango.jpg', 'key': 'i', 'origWidth': 411, 'origHeight': 411, 'width': 411, 'height': 411, 'widthPercent': 0.45, 'rescaleHeight': False, 'trialN': 23, 'loaded': True, 'loadedTime': 1743.199999999255, 'positionName': 'RIGHT', 'positionCoords': [832, 244.5], 'bid': 6.38}]",54402.799999999814,1669847159383,turkeysandwich,mango,7.13,6.38,-0.75,turkeysandwich,2276.5999999996275,2277,2276.7999999998137,True,u,57192.0,2789.2000000001863,1669847162173,2790,HRV,HRV_0307,2022-11-30 22:30:58
24,"[{'imgObject': {}, 'id': 'lox', 'src': '/static/foodstim60/lox.jpg', 'key': 'u', 'origWidth': 410, 'origHeight': 411, 'width': 410, 'height': 411, 'widthPercent': 0.45, 'rescaleHeight': False, 'trialN': 24, 'loaded': True, 'loadedTime': 1717.2999999998137, 'positionName': 'LEFT', 'positionCoords': [358, 244.5], 'bid': 7.33}, {'imgObject': {}, 'id': 'Grapes', 'src': '/static/foodstim60/Grapes.jpg', 'key': 'i', 'origWidth': 411, 'origHeight': 411, 'width': 411, 'height': 411, 'widthPercent': 0.45, 'rescaleHeight': False, 'trialN': 24, 'loaded': True, 'loadedTime': 1819.7999999998137, 'positionName': 'RIGHT', 'positionCoords': [832, 244.5], 'bid': 6.2700000000000005}]",57192.09999999963,1669847162173,lox,Grapes,7.33,6.2700000000000005,-1.0599999999999996,lox,1783.5,1783,1783.7000000001863,True,u,59485.59999999963,2293.5,1669847164466,2293,HRV,HRV_0307,2022-11-30 22:30:58
25,"[{'imgObject': {}, 'id': 'bagel and cc', 'src': '/static/foodstim60/bagel and cc.jpg', 'key': 'u', 'origWidth': 410, 'origHeight': 410, 'width': 410, 'height': 410, 'widthPercent': 0.45, 'rescaleHeight': False, 'trialN': 25, 'loaded': True, 'loadedTime': 1813.7999999998137, 'positionName': 'LEFT', 'positionCoords': [358, 245], 'bid': 5.03}, {'imgObject': {}, 'id': 'pear', 'src': '/static/foodstim60/pear.jpg', 'key': 'i', 'origWidth': 411, 'origHeight': 410, 'width': 411, 'height': 410, 'widthPercent': 0.45, 'rescaleHeight': False, 'trialN': 25, 'loaded': True, 'loadedTime': 1824, 'positionName': 'RIGHT', 'positionCoords': [832, 245], 'bid': 2.29}]",59485.699999999255,1669847164466,bagel and cc,pear,5.03,2.29,-2.74,bagel and cc,1097.7000000001863,1098,1097.9000000003725,True,u,61097.59999999963,1611.9000000003725,1669847166078,1612,HRV,HRV_0307,2022-11-30 22:30:58
26,"[{'imgObject': {}, 'id': 'ice cream sundae 002', 'src': '/static/foodstim60/ice cream sundae 002.jpg', 'key': 'u', 'origWidth': 409, 'origHeight': 409, 'width': 409, 'height': 409, 'widthPercent': 0.45, 'rescaleHeight': False, 'trialN': 26, 'loaded': True, 'loadedTime': 1825, 'positionName': 'LEFT', 'positionCoords': [359, 245.5], 'bid': 8.82}, {'imgObject': {}, 'id': 'luckycharms', 'src': '/static/foodstim60/luckycharms.jpg', 'key': 'i', 'origWidth': 410, 'origHeight': 409, 'width': 410, 'height': 409, 'widthPercent': 0.45, 'rescaleHeight': False, 'trialN': 26, 'loaded': True, 'loadedTime': 1747, 'positionName': 'RIGHT', 'positionCoords': [832, 245.5], 'bid': 8.42}]",61097.799999999814,1669847166078,ice cream sundae 002,luckycharms,8.82,8.42,-0.40000000000000036,ice cream sundae 002,1573.5999999996275,1574,1573.7999999998137,True,u,63182.59999999963,2084.7999999998137,1669847168163,2085,HRV,HRV_0307,2022-11-30 22:30:58
27,"[{'imgObject': {}, 'id': 'apple slices', 'src': '/static/foodstim60/apple slices.jpg', 'key': 'u', 'origWidth': 409, 'origHeight': 410, 'width': 409, 'height': 410, 'widthPercent': 0.45, 'rescaleHeight': False, 'trialN': 27, 'loaded': True, 'loadedTime': 1825.5999999996275, 'positionName': 'LEFT', 'positionCoords': [359, 245], 'bid': 2.42}, {'imgObject': {}, 'id': 'lox', 'src': '/static/foodstim60/lox.jpg', 'key': 'i', 'origWidth': 410, 'origHeight': 411, 'width': 410, 'height': 411, 'widthPercent': 0.45, 'rescaleHeight': False, 'trialN': 27, 'loaded': True, 'loadedTime': 1717.5, 'positionName': 'RIGHT', 'positionCoords': [832, 244.5], 'bid': 7.33}]",63182.59999999963,1669847168163,apple slices,lox,2.42,7.33,4.91,lox,1272.9000000003725,1273,1273.2000000001863,True,i,64970.09999999963,1787.5,1669847169951,1788,HRV,HRV_0307,2022-11-30 22:30:58
28,"[{'imgObject': {}, 'id': 'sushi w_condiments', 'src': '/static/foodstim60/sushi w_condiments.jpg', 'key': 'u', 'origWidth': 410, 'origHeight': 410, 'width': 410, 'height': 410, 'widthPercent': 0.45, 'rescaleHeight': False, 'trialN': 28, 'loaded': True, 'loadedTime': 1764.0999999996275, 'positionName': 'LEFT', 'positionCoords': [358, 245], 'bid': 9.71}, {'imgObject': {}, 'id': 'chicken nuggets2', 'src': '/static/foodstim60/chicken nuggets2.jpg', 'key': 'i', 'origWidth': 410, 'origHeight': 409, 'width': 410, 'height': 409, 'widthPercent': 0.45, 'rescaleHeight': False, 'trialN': 28, 'loaded': True, 'loadedTime': 1762, 'positionName': 'RIGHT', 'positionCoords': [832, 245.5], 'bid': 6.33}]",64970.299999999814,1669847169951,sushi w_condiments,chicken nuggets2,9.71,6.33,-3.380000000000001,sushi w_condiments,957.0999999996275,957,957.2999999998137,True,u,66438.19999999925,1467.8999999994412,1669847171419,1468,HRV,HRV_0307,2022-11-30 22:30:58
29,"[{'imgObject': {}, 'id': 'orange slices', 'src': '/static/foodstim60/orange slices.jpg', 'key': 'u', 'origWidth': 409, 'origHeight': 410, 'width': 409, 'height': 410, 'widthPercent': 0.45, 'rescaleHeight': False, 'trialN': 29, 'loaded': True, 'loadedTime': 1829.5, 'positionName': 'LEFT', 'positionCoords': [359, 245], 'bid': 7.75}, {'imgObject': {}, 'id': 'ice cream sundae 002', 'src': '/static/foodstim60/ice cream sundae 002.jpg', 'key': 'i', 'origWidth': 409, 'origHeight': 409, 'width': 409, 'height': 409, 'widthPercent': 0.45, 'rescaleHeight': False, 'trialN': 29, 'loaded': True, 'loadedTime': 1824.8999999994412, 'positionName': 'RIGHT', 'positionCoords': [832, 245.5], 'bid': 8.82}]",66438.29999999981,1669847171419,orange slices,ice cream sundae 002,7.75,8.82,1.0700000000000003,orange slices,1113,1113,1113.2999999998137,True,u,68058.69999999925,1620.3999999994412,1669847173039,1620,HRV,HRV_0307,2022-11-30 22:30:58
30,"[{'imgObject': {}, 'id': 'strawberries', 'src': '/static/foodstim60/strawberries.jpg', 'key': 'u', 'origWidth': 410, 'origHeight': 410, 'width': 410, 'height': 410, 'widthPercent': 0.45, 'rescaleHeight': False, 'trialN': 30, 'loaded': True, 'loadedTime': 1829.5999999996275, 'positionName': 'LEFT', 'positionCoords': [358, 245], 'bid': 5.12}, {'imgObject': {}, 'id': 'granola w milk', 'src': '/static/foodstim60/granola w milk.jpg', 'key': 'i', 'origWidth': 410, 'origHeight': 410, 'width': 410, 'height': 410, 'widthPercent': 0.45, 'rescaleHeight': False, 'trialN': 30, 'loaded': True, 'loadedTime': 1834.199999999255, 'positionName': 'RIGHT', 'positionCoords': [832, 245], 'bid': 6.98}]",68058.79999999981,1669847173039,strawberries,granola w milk,5.12,6.98,1.8600000000000003,granola w milk,1964.8999999994412,1965,1965.0999999996275,True,i,70541.39999999944,2482.5999999996275,1669847175522,2483,HRV,HRV_0307,2022-11-30 22:30:58
31,"[{'imgObject': {}, 'id': 'raisin bran w milk', 'src': '/static/foodstim60/raisin bran w milk.jpg', 'key': 'u', 'origWidth': 411, 'origHeight': 411, 'width': 411, 'height': 411, 'widthPercent': 0.45, 'rescaleHeight': False, 'trialN': 31, 'loaded': True, 'loadedTime': 1835.3999999994412, 'positionName': 'LEFT', 'positionCoords': [357, 244.5], 'bid': 7.81}, {'imgObject': {}, 'id': 'shreddedwheatwithmilk', 'src': '/static/foodstim60/shreddedwheatwithmilk.jpg', 'key': 'i', 'origWidth': 410, 'origHeight': 410, 'width': 410, 'height': 410, 'widthPercent': 0.45, 'rescaleHeight': False, 'trialN': 31, 'loaded': True, 'loadedTime': 1748.0999999996275, 'positionName': 'RIGHT', 'positionCoords': [832, 245], 'bid': 7.67}]",70541.59999999963,1669847175522,raisin bran w milk,shreddedwheatwithmilk,7.81,7.67,-0.13999999999999968,raisin bran w milk,1297.7999999998137,1298,1298.0,True,u,72356.29999999981,1814.7000000001863,1669847177337,1815,HRV,HRV_0307,2022-11-30 22:30:58
32,"[{'imgObject': {}, 'id': 'fried eggs', 'src': '/static/foodstim60/fried eggs.jpg', 'key': 'u', 'origWidth': 410, 'origHeight': 410, 'width': 410, 'height': 410, 'widthPercent': 0.45, 'rescaleHeight': False, 'trialN': 32, 'loaded': True, 'loadedTime': 1840.2999999998137, 'positionName': 'LEFT', 'positionCoords': [358, 245], 'bid': 5.45}, {'imgObject': {}, 'id': 'chickenfingers', 'src': '/static/foodstim60/chickenfingers.jpg', 'key': 'i', 'origWidth': 410, 'origHeight': 410, 'width': 410, 'height': 410, 'widthPercent': 0.45, 'rescaleHeight': False, 'trialN': 32, 'loaded': True, 'loadedTime': 1713.7999999998137, 'positionName': 'RIGHT', 'positionCoords': [832, 245], 'bid': 6.66}]",72356.39999999944,1669847177337,fried eggs,chickenfingers,5.45,6.66,1.21,chickenfingers,1427,1427,1427.2000000001863,True,i,74289.89999999944,1933.5,1669847179271,1934,HRV,HRV_0307,2022-11-30 22:30:58
33,"[{'imgObject': {}, 'id': 'cheerios', 'src': '/static/foodstim60/cheerios.jpg', 'key': 'u', 'origWidth': 409, 'origHeight': 410, 'width': 409, 'height': 410, 'widthPercent': 0.45, 'rescaleHeight': False, 'trialN': 33, 'loaded': True, 'loadedTime': 1841.699999999255, 'positionName': 'LEFT', 'positionCoords': [359, 245], 'bid': 5.1000000000000005}, {'imgObject': {}, 'id': 'strawberries', 'src': '/static/foodstim60/strawberries.jpg', 'key': 'i', 'origWidth': 410, 'origHeight': 410, 'width': 410, 'height': 410, 'widthPercent': 0.45, 'rescaleHeight': False, 'trialN': 33, 'loaded': True, 'loadedTime': 1833.5, 'positionName': 'RIGHT', 'positionCoords': [832, 245], 'bid': 5.12}]",74290.09999999963,1669847179271,cheerios,strawberries,5.1000000000000005,5.12,0.019999999999999574,strawberries,1541.2999999998137,1541,1541.5999999996275,True,i,76341.5,2051.4000000003725,1669847181322,2051,HRV,HRV_0307,2022-11-30 22:30:58
34,"[{'imgObject': {}, 'id': 'ice cream sundae 002', 'src': '/static/foodstim60/ice cream sundae 002.jpg', 'key': 'u', 'origWidth': 409, 'origHeight': 409, 'width': 409, 'height': 409, 'widthPercent': 0.45, 'rescaleHeight': False, 'trialN': 34, 'loaded': True, 'loadedTime': 1825, 'positionName': 'LEFT', 'positionCoords': [359, 245.5], 'bid': 8.82}, {'imgObject': {}, 'id': 'sushi w_condiments', 'src': '/static/foodstim60/sushi w_condiments.jpg', 'key': 'i', 'origWidth': 410, 'origHeight': 410, 'width': 410, 'height': 410, 'widthPercent': 0.45, 'rescaleHeight': False, 'trialN': 34, 'loaded': True, 'loadedTime': 1763.7999999998137, 'positionName': 'RIGHT', 'positionCoords': [832, 245], 'bid': 9.71}]",76341.59999999963,1669847181322,ice cream sundae 002,sushi w_condiments,8.82,9.71,0.8900000000000006,sushi w_condiments,713.7999999998137,714,714.0999999996275,True,i,77569.0,1227.4000000003725,1669847182550,1228,HRV,HRV_0307,2022-11-30 22:30:58
35,"[{'imgObject': {}, 'id': 'rigatoni', 'src': '/static/foodstim60/rigatoni.jpg', 'key': 'u', 'origWidth': 411, 'origHeight': 411, 'width': 411, 'height': 411, 'widthPercent': 0.45, 'rescaleHeight': False, 'trialN': 35, 'loaded': True, 'loadedTime': 1765.8999999994412, 'positionName': 'LEFT', 'positionCoords': [357, 244.5], 'bid': 1.85}, {'imgObject': {}, 'id': 'cantaloupe', 'src': '/static/foodstim60/cantaloupe.jpg', 'key': 'i', 'origWidth': 409, 'origHeight': 409, 'width': 409, 'height': 409, 'widthPercent': 0.45, 'rescaleHeight': False, 'trialN': 35, 'loaded': True, 'loadedTime': 1716.2999999998137, 'positionName': 'RIGHT', 'positionCoords': [832, 245.5], 'bid': 4.0600000000000005}]",77569.09999999963,1669847182550,rigatoni,cantaloupe,1.85,4.0600000000000005,2.2100000000000004,rigatoni,1918.2999999998137,1918,1918.5,True,u,80002.89999999944,2433.7999999998137,1669847184984,2434,HRV,HRV_0307,2022-11-30 22:30:58
36,"[{'imgObject': {}, 'id': 'mashed potato', 'src': '/static/foodstim60/mashed potato.jpg', 'key': 'u', 'origWidth': 409, 'origHeight': 409, 'width': 409, 'height': 409, 'widthPercent': 0.45, 'rescaleHeight': False, 'trialN': 36, 'loaded': True, 'loadedTime': 1771.199999999255, 'positionName': 'LEFT', 'positionCoords': [359, 245.5], 'bid': 3.66}, {'imgObject': {}, 'id': 'hashbrowns', 'src': '/static/foodstim60/hashbrowns.jpg', 'key': 'i', 'origWidth': 411, 'origHeight': 410, 'width': 411, 'height': 410, 'widthPercent': 0.45, 'rescaleHeight': False, 'trialN': 36, 'loaded': True, 'loadedTime': 1819.0999999996275, 'positionName': 'RIGHT', 'positionCoords': [832, 245], 'bid': 3.36}]",80003.09999999963,1669847184984,mashed potato,hashbrowns,3.66,3.36,-0.30000000000000027,hashbrowns,3012.5999999996275,3013,3012.7999999998137,True,i,83530.69999999925,3527.5999999996275,1669847188511,3527,HRV,HRV_0307,2022-11-30 22:30:58
37,"[{'imgObject': {}, 'id': 'bagel plain', 'src': '/static/foodstim60/bagel plain.jpg', 'key': 'u', 'origWidth': 410, 'origHeight': 410, 'width': 410, 'height': 410, 'widthPercent': 0.45, 'rescaleHeight': False, 'trialN': 37, 'loaded': True, 'loadedTime': 1842, 'positionName': 'LEFT', 'positionCoords': [358, 245], 'bid': 1.87}, {'imgObject': {}, 'id': 'rigatoni', 'src': '/static/foodstim60/rigatoni.jpg', 'key': 'i', 'origWidth': 411, 'origHeight': 411, 'width': 411, 'height': 411, 'widthPercent': 0.45, 'rescaleHeight': False, 'trialN': 37, 'loaded': True, 'loadedTime': 1765.3999999994412, 'positionName': 'RIGHT', 'positionCoords': [832, 244.5], 'bid': 1.85}]",83530.69999999925,1669847188511,bagel plain,rigatoni,1.87,1.85,-0.020000000000000018,rigatoni,892.7000000001863,893,892.9000000003725,True,i,84931.39999999944,1400.7000000001863,1669847189912,1401,HRV,HRV_0307,2022-11-30 22:30:58
38,"[{'imgObject': {}, 'id': 'blueberries', 'src': '/static/foodstim60/blueberries.jpg', 'key': 'u', 'origWidth': 411, 'origHeight': 411, 'width': 411, 'height': 411, 'widthPercent': 0.45, 'rescaleHeight': False, 'trialN': 38, 'loaded': True, 'loadedTime': 1847.7999999998137, 'positionName': 'LEFT', 'positionCoords': [357, 244.5], 'bid': 8.26}, {'imgObject': {}, 'id': 'orange slices', 'src': '/static/foodstim60/orange slices.jpg', 'key': 'i', 'origWidth': 409, 'origHeight': 410, 'width': 409, 'height': 410, 'widthPercent': 0.45, 'rescaleHeight': False, 'trialN': 38, 'loaded': True, 'loadedTime': 1829.5999999996275, 'positionName': 'RIGHT', 'positionCoords': [832, 245], 'bid': 7.75}]",84931.59999999963,1669847189912,blueberries,orange slices,8.26,7.75,-0.5099999999999998,orange slices,2699.9000000003725,2700,2700.0999999996275,True,i,88141.59999999963,3210.0,1669847193122,3210,HRV,HRV_0307,2022-11-30 22:30:58
39,"[{'imgObject': {}, 'id': 'eggs', 'src': '/static/foodstim60/eggs.jpg', 'key': 'u', 'origWidth': 409, 'origHeight': 409, 'width': 409, 'height': 409, 'widthPercent': 0.45, 'rescaleHeight': False, 'trialN': 39, 'loaded': True, 'loadedTime': 1848.699999999255, 'positionName': 'LEFT', 'positionCoords': [359, 245.5], 'bid': 5.16}, {'imgObject': {}, 'id': 'yogurt no spoon', 'src': '/static/foodstim60/yogurt no spoon.jpg', 'key': 'i', 'origWidth': 411, 'origHeight': 410, 'width': 411, 'height': 410, 'widthPercent': 0.45, 'rescaleHeight': False, 'trialN': 39, 'loaded': True, 'loadedTime': 1734.699999999255, 'positionName': 'RIGHT', 'positionCoords': [832, 245], 'bid': 8.73}]",88141.69999999925,1669847193122,eggs,yogurt no spoon,5.16,8.73,3.5700000000000003,yogurt no spoon,1177.7000000001863,1178,1177.9000000003725,True,i,89829.0,1687.300000000745,1669847194810,1688,HRV,HRV_0307,2022-11-30 22:30:58
40,"[{'imgObject': {}, 'id': 'burrito', 'src': '/static/foodstim60/burrito.jpg', 'key': 'u', 'origWidth': 410, 'origHeight': 410, 'width': 410, 'height': 410, 'widthPercent': 0.45, 'rescaleHeight': False, 'trialN': 40, 'loaded': True, 'loadedTime': 1762.7999999998137, 'positionName': 'LEFT', 'positionCoords': [358, 245], 'bid': 8.52}, {'imgObject': {}, 'id': 'kiwi', 'src': '/static/foodstim60/kiwi.jpg', 'key': 'i', 'origWidth': 410, 'origHeight': 410, 'width': 410, 'height': 410, 'widthPercent': 0.45, 'rescaleHeight': False, 'trialN': 40, 'loaded': True, 'loadedTime': 1718.199999999255, 'positionName': 'RIGHT', 'positionCoords': [832, 245], 'bid': 7.38}]",89829.19999999925,1669847194810,burrito,kiwi,8.52,7.38,-1.1399999999999997,burrito,1346.300000000745,1346,1346.5,True,u,91691.09999999963,1861.9000000003725,1669847196672,1862,HRV,HRV_0307,2022-11-30 22:30:58
41,"[{'imgObject': {}, 'id': 'hotdog w must', 'src': '/static/foodstim60/hotdog w must.jpg', 'key': 'u', 'origWidth': 409, 'origHeight': 409, 'width': 409, 'height': 409, 'widthPercent': 0.45, 'rescaleHeight': False, 'trialN': 41, 'loaded': True, 'loadedTime': 1768.2999999998137, 'positionName': 'LEFT', 'positionCoords': [359, 245.5], 'bid': 3.77}, {'imgObject': {}, 'id': 'hashbrowns', 'src': '/static/foodstim60/hashbrowns.jpg', 'key': 'i', 'origWidth': 411, 'origHeight': 410, 'width': 411, 'height': 410, 'widthPercent': 0.45, 'rescaleHeight': False, 'trialN': 41, 'loaded': True, 'loadedTime': 1818.7999999998137, 'positionName': 'RIGHT', 'positionCoords': [832, 245], 'bid': 3.36}]",91691.29999999981,1669847196672,hotdog w must,hashbrowns,3.77,3.36,-0.41000000000000014,hotdog w must,2116.5,2117,2116.7000000001863,True,u,94314.39999999944,2623.0999999996275,1669847199295,2623,HRV,HRV_0307,2022-11-30 22:30:58
42,"[{'imgObject': {}, 'id': 'blueberries', 'src': '/static/foodstim60/blueberries.jpg', 'key': 'u', 'origWidth': 411, 'origHeight': 411, 'width': 411, 'height': 411, 'widthPercent': 0.45, 'rescaleHeight': False, 'trialN': 42, 'loaded': True, 'loadedTime': 1844.2999999998137, 'positionName': 'LEFT', 'positionCoords': [357, 244.5], 'bid': 8.26}, {'imgObject': {}, 'id': 'mac & cheese', 'src': '/static/foodstim60/mac & cheese.jpg', 'key': 'i', 'origWidth': 410, 'origHeight': 410, 'width': 410, 'height': 410, 'widthPercent': 0.45, 'rescaleHeight': False, 'trialN': 42, 'loaded': True, 'loadedTime': 1849.0999999996275, 'positionName': 'RIGHT', 'positionCoords': [832, 245], 'bid': 9.16}]",94314.59999999963,1669847199295,blueberries,mac & cheese,8.26,9.16,0.9000000000000004,mac & cheese,1796.9000000003725,1797,1797.2000000001863,True,i,96628.09999999963,2313.5,1669847201609,2314,HRV,HRV_0307,2022-11-30 22:30:58
43,"[{'imgObject': {}, 'id': 'steak', 'src': '/static/foodstim60/steak.jpg', 'key': 'u', 'origWidth': 410, 'origHeight': 410, 'width': 410, 'height': 410, 'widthPercent': 0.45, 'rescaleHeight': False, 'trialN': 43, 'loaded': True, 'loadedTime': 1744.5, 'positionName': 'LEFT', 'positionCoords': [358, 245], 'bid': 4.97}, {'imgObject': {}, 'id': 'cherry tomato', 'src': '/static/foodstim60/cherry tomato.jpg', 'key': 'i', 'origWidth': 410, 'origHeight': 410, 'width': 410, 'height': 410, 'widthPercent': 0.45, 'rescaleHeight': False, 'trialN': 43, 'loaded': True, 'loadedTime': 1855.699999999255, 'positionName': 'RIGHT', 'positionCoords': [832, 245], 'bid': 1.52}]",96628.19999999925,1669847201609,steak,cherry tomato,4.97,1.52,-3.4499999999999997,steak,891.3000000007451,891,891.5,True,u,98035.69999999925,1407.5,1669847203016,1407,HRV,HRV_0307,2022-11-30 22:30:58
44,"[{'imgObject': {}, 'id': 'seaweed', 'src': '/static/foodstim60/seaweed.jpg', 'key': 'u', 'origWidth': 410, 'origHeight': 410, 'width': 410, 'height': 410, 'widthPercent': 0.45, 'rescaleHeight': False, 'trialN': 44, 'loaded': True, 'loadedTime': 1709.199999999255, 'positionName': 'LEFT', 'positionCoords': [358, 245], 'bid': 8.06}, {'imgObject': {}, 'id': 'blueberries', 'src': '/static/foodstim60/blueberries.jpg', 'key': 'i', 'origWidth': 411, 'origHeight': 411, 'width': 411, 'height': 411, 'widthPercent': 0.45, 'rescaleHeight': False, 'trialN': 44, 'loaded': True, 'loadedTime': 1847.8999999994412, 'positionName': 'RIGHT', 'positionCoords': [832, 244.5], 'bid': 8.26}]",98035.69999999925,1669847203016,seaweed,blueberries,8.06,8.26,0.1999999999999993,blueberries,1251.9000000003725,1252,1252.1000000005588,True,i,99796.59999999963,1760.9000000003725,1669847204777,1761,HRV,HRV_0307,2022-11-30 22:30:58
45,"[{'imgObject': {}, 'id': 'cocktailshrimp', 'src': '/static/foodstim60/cocktailshrimp.jpg', 'key': 'u', 'origWidth': 410, 'origHeight': 410, 'width': 410, 'height': 410, 'widthPercent': 0.45, 'rescaleHeight': False, 'trialN': 45, 'loaded': True, 'loadedTime': 1781.0999999996275, 'positionName': 'LEFT', 'positionCoords': [358, 245], 'bid': 4.5200000000000005}, {'imgObject': {}, 'id': 'corn cob', 'src': '/static/foodstim60/corn cob.jpg', 'key': 'i', 'origWidth': 411, 'origHeight': 411, 'width': 411, 'height': 411, 'widthPercent': 0.45, 'rescaleHeight': False, 'trialN': 45, 'loaded': True, 'loadedTime': 1745.8999999994412, 'positionName': 'RIGHT', 'positionCoords': [832, 244.5], 'bid': 5.03}]",99796.79999999981,1669847204777,cocktailshrimp,corn cob,4.5200000000000005,5.03,0.5099999999999998,cocktailshrimp,1642.5999999996275,1643,1642.8999999994412,True,u,101953.09999999963,2156.2999999998137,1669847206934,2157,HRV,HRV_0307,2022-11-30 22:30:58
46,"[{'imgObject': {}, 'id': 'salmon', 'src': '/static/foodstim60/salmon.jpg', 'key': 'u', 'origWidth': 410, 'origHeight': 409, 'width': 410, 'height': 409, 'widthPercent': 0.45, 'rescaleHeight': False, 'trialN': 46, 'loaded': True, 'loadedTime': 1750.3999999994412, 'positionName': 'LEFT', 'positionCoords': [358, 245.5], 'bid': 8.53}, {'imgObject': {}, 'id': 'burger', 'src': '/static/foodstim60/burger.jpg', 'key': 'i', 'origWidth': 409, 'origHeight': 409, 'width': 409, 'height': 409, 'widthPercent': 0.45, 'rescaleHeight': False, 'trialN': 46, 'loaded': True, 'loadedTime': 1779.199999999255, 'positionName': 'RIGHT', 'positionCoords': [832, 245.5], 'bid': 7.87}]",101953.29999999981,1669847206934,salmon,burger,8.53,7.87,-0.6599999999999993,salmon,1374.2000000001863,1374,1374.5,True,u,103837.09999999963,1883.7999999998137,1669847208817,1883,HRV,HRV_0307,2022-11-30 22:30:58
47,"[{'imgObject': {}, 'id': 'orange slices', 'src': '/static/foodstim60/orange slices.jpg', 'key': 'u', 'origWidth': 409, 'origHeight': 410, 'width': 409, 'height': 410, 'widthPercent': 0.45, 'rescaleHeight': False, 'trialN': 47, 'loaded': True, 'loadedTime': 1829.3999999994412, 'positionName': 'LEFT', 'positionCoords': [359, 245], 'bid': 7.75}, {'imgObject': {}, 'id': 'burger', 'src': '/static/foodstim60/burger.jpg', 'key': 'i', 'origWidth': 409, 'origHeight': 409, 'width': 409, 'height': 409, 'widthPercent': 0.45, 'rescaleHeight': False, 'trialN': 47, 'loaded': True, 'loadedTime': 1780.199999999255, 'positionName': 'RIGHT', 'positionCoords': [832, 245.5], 'bid': 7.87}]",103837.29999999981,1669847208818,orange slices,burger,7.75,7.87,0.1200000000000001,burger,3154.5,3154,3154.5999999996275,True,i,107497.39999999944,3660.0999999996275,1669847212478,3660,HRV,HRV_0307,2022-11-30 22:30:58
48,"[{'imgObject': {}, 'id': 'bagel plain', 'src': '/static/foodstim60/bagel plain.jpg', 'key': 'u', 'origWidth': 410, 'origHeight': 410, 'width': 410, 'height': 410, 'widthPercent': 0.45, 'rescaleHeight': False, 'trialN': 48, 'loaded': True, 'loadedTime': 1842.3999999994412, 'positionName': 'LEFT', 'positionCoords': [358, 245], 'bid': 1.87}, {'imgObject': {}, 'id': 'mashed potato', 'src': '/static/foodstim60/mashed potato.jpg', 'key': 'i', 'origWidth': 409, 'origHeight': 409, 'width': 409, 'height': 409, 'widthPercent': 0.45, 'rescaleHeight': False, 'trialN': 48, 'loaded': True, 'loadedTime': 1771.0999999996275, 'positionName': 'RIGHT', 'positionCoords': [832, 245.5], 'bid': 3.66}]",107497.5,1669847212478,bagel plain,mashed potato,1.87,3.66,1.79,mashed potato,1469.8999999994412,1470,1470.199999999255,True,i,109472.69999999925,1975.199999999255,1669847214453,1975,HRV,HRV_0307,2022-11-30 22:30:58
49,"[{'imgObject': {}, 'id': 'bagel plain', 'src': '/static/foodstim60/bagel plain.jpg', 'key': 'u', 'origWidth': 410, 'origHeight': 410, 'width': 410, 'height': 410, 'widthPercent': 0.45, 'rescaleHeight': False, 'trialN': 49, 'loaded': True, 'loadedTime': 1842.5, 'positionName': 'LEFT', 'positionCoords': [358, 245], 'bid': 1.87}, {'imgObject': {}, 'id': 'cherry tomato', 'src': '/static/foodstim60/cherry tomato.jpg', 'key': 'i', 'origWidth': 410, 'origHeight': 410, 'width': 410, 'height': 410, 'widthPercent': 0.45, 'rescaleHeight': False, 'trialN': 49, 'loaded': True, 'loadedTime': 1855.5, 'positionName': 'RIGHT', 'positionCoords': [832, 245], 'bid': 1.52}]",109472.79999999981,1669847214453,bagel plain,cherry tomato,1.87,1.52,-0.3500000000000001,cherry tomato,2574.7999999998137,2575,2575.0,True,i,112562.29999999981,3089.5,1669847217543,3090,HRV,HRV_0307,2022-11-30 22:30:58
50,"[{'imgObject': {}, 'id': 'apple slices', 'src': '/static/foodstim60/apple slices.jpg', 'key': 'u', 'origWidth': 409, 'origHeight': 410, 'width': 409, 'height': 410, 'widthPercent': 0.45, 'rescaleHeight': False, 'trialN': 50, 'loaded': True, 'loadedTime': 1828.7999999998137, 'positionName': 'LEFT', 'positionCoords': [359, 245], 'bid': 2.42}, {'imgObject': {}, 'id': 'olives', 'src': '/static/foodstim60/olives.jpg', 'key': 'i', 'origWidth': 410, 'origHeight': 410, 'width': 410, 'height': 410, 'widthPercent': 0.45, 'rescaleHeight': False, 'trialN': 50, 'loaded': True, 'loadedTime': 1764.8999999994412, 'positionName': 'RIGHT', 'positionCoords': [832, 245], 'bid': 0.97}]",112562.5,1669847217543,apple slices,olives,2.42,0.97,-1.45,apple slices,1397,1397,1397.2999999998137,True,u,114472.39999999944,1909.8999999994412,1669847219453,1910,HRV,HRV_0307,2022-11-30 22:30:58
51,"[{'imgObject': {}, 'id': 'salad w chicken', 'src': '/static/foodstim60/salad w chicken.jpg', 'key': 'u', 'origWidth': 411, 'origHeight': 411, 'width': 411, 'height': 411, 'widthPercent': 0.45, 'rescaleHeight': False, 'trialN': 51, 'loaded': True, 'loadedTime': 1767.0999999996275, 'positionName': 'LEFT', 'positionCoords': [357, 244.5], 'bid': 4.97}, {'imgObject': {}, 'id': 'pear', 'src': '/static/foodstim60/pear.jpg', 'key': 'i', 'origWidth': 411, 'origHeight': 410, 'width': 411, 'height': 410, 'widthPercent': 0.45, 'rescaleHeight': False, 'trialN': 51, 'loaded': True, 'loadedTime': 1824.0999999996275, 'positionName': 'RIGHT', 'positionCoords': [832, 245], 'bid': 2.29}]",114472.5,1669847219453,salad w chicken,pear,4.97,2.29,-2.6799999999999997,salad w chicken,807.0999999996275,807,807.2999999998137,True,u,115796.09999999963,1323.5999999996275,1669847220776,1323,HRV,HRV_0307,2022-11-30 22:30:58
52,"[{'imgObject': {}, 'id': 'edamame', 'src': '/static/foodstim60/edamame.jpg', 'key': 'u', 'origWidth': 409, 'origHeight': 410, 'width': 409, 'height': 410, 'widthPercent': 0.45, 'rescaleHeight': False, 'trialN': 52, 'loaded': True, 'loadedTime': 1856.5, 'positionName': 'LEFT', 'positionCoords': [359, 245], 'bid': 2.5500000000000003}, {'imgObject': {}, 'id': 'pear', 'src': '/static/foodstim60/pear.jpg', 'key': 'i', 'origWidth': 411, 'origHeight': 410, 'width': 411, 'height': 410, 'widthPercent': 0.45, 'rescaleHeight': False, 'trialN': 52, 'loaded': True, 'loadedTime': 1820.0999999996275, 'positionName': 'RIGHT', 'positionCoords': [832, 245], 'bid': 2.29}]",115796.29999999981,1669847220777,edamame,pear,2.5500000000000003,2.29,-0.26000000000000023,edamame,2579.5999999996275,2579,2579.7999999998137,True,u,118883.0,3086.7000000001863,1669847223863,3086,HRV,HRV_0307,2022-11-30 22:30:58
53,"[{'imgObject': {}, 'id': 'veggieswithdip', 'src': '/static/foodstim60/veggieswithdip.jpg', 'key': 'u', 'origWidth': 409, 'origHeight': 409, 'width': 409, 'height': 409, 'widthPercent': 0.45, 'rescaleHeight': False, 'trialN': 53, 'loaded': True, 'loadedTime': 1793.5, 'positionName': 'LEFT', 'positionCoords': [359, 245.5], 'bid': 5.03}, {'imgObject': {}, 'id': 'corn cob', 'src': '/static/foodstim60/corn cob.jpg', 'key': 'i', 'origWidth': 411, 'origHeight': 411, 'width': 411, 'height': 411, 'widthPercent': 0.45, 'rescaleHeight': False, 'trialN': 53, 'loaded': True, 'loadedTime': 1745.3999999994412, 'positionName': 'RIGHT', 'positionCoords': [832, 244.5], 'bid': 5.03}]",118883.09999999963,1669847223863,veggieswithdip,corn cob,5.03,5.03,0.0,veggieswithdip,932.5,933,932.7999999998137,True,u,120320.5,1437.4000000003725,1669847225301,1438,HRV,HRV_0307,2022-11-30 22:30:58
54,"[{'imgObject': {}, 'id': 'banana', 'src': '/static/foodstim60/banana.jpg', 'key': 'u', 'origWidth': 410, 'origHeight': 410, 'width': 410, 'height': 410, 'widthPercent': 0.45, 'rescaleHeight': False, 'trialN': 54, 'loaded': True, 'loadedTime': 1857.2999999998137, 'positionName': 'LEFT', 'positionCoords': [358, 245], 'bid': 8.44}, {'imgObject': {}, 'id': 'mac & cheese', 'src': '/static/foodstim60/mac & cheese.jpg', 'key': 'i', 'origWidth': 410, 'origHeight': 410, 'width': 410, 'height': 410, 'widthPercent': 0.45, 'rescaleHeight': False, 'trialN': 54, 'loaded': True, 'loadedTime': 1849.7999999998137, 'positionName': 'RIGHT', 'positionCoords': [832, 245], 'bid': 9.16}]",120320.59999999963,1669847225301,banana,mac & cheese,8.44,9.16,0.7200000000000006,mac & cheese,1078.9000000003725,1079,1079.2000000001863,True,i,121919.29999999981,1598.7000000001863,1669847226899,1598,HRV,HRV_0307,2022-11-30 22:30:58
55,"[{'imgObject': {}, 'id': 'veggieswithdip', 'src': '/static/foodstim60/veggieswithdip.jpg', 'key': 'u', 'origWidth': 409, 'origHeight': 409, 'width': 409, 'height': 409, 'widthPercent': 0.45, 'rescaleHeight': False, 'trialN': 55, 'loaded': True, 'loadedTime': 1793.5999999996275, 'positionName': 'LEFT', 'positionCoords': [359, 245.5], 'bid': 5.03}, {'imgObject': {}, 'id': 'steak', 'src': '/static/foodstim60/steak.jpg', 'key': 'i', 'origWidth': 410, 'origHeight': 410, 'width': 410, 'height': 410, 'widthPercent': 0.45, 'rescaleHeight': False, 'trialN': 55, 'loaded': True, 'loadedTime': 1744.5999999996275, 'positionName': 'RIGHT', 'positionCoords': [832, 245], 'bid': 4.97}]",121919.29999999981,1669847226900,veggieswithdip,steak,5.03,4.97,-0.0600000000000005,steak,1960.3999999994412,1960,1960.5999999996275,True,i,124390.0,2470.7000000001863,1669847229370,2470,HRV,HRV_0307,2022-11-30 22:30:58
56,"[{'imgObject': {}, 'id': 'grilled chicken strips', 'src': '/static/foodstim60/grilled chicken strips.jpg', 'key': 'u', 'origWidth': 410, 'origHeight': 411, 'width': 410, 'height': 411, 'widthPercent': 0.45, 'rescaleHeight': False, 'trialN': 56, 'loaded': True, 'loadedTime': 1801, 'positionName': 'LEFT', 'positionCoords': [358, 244.5], 'bid': 7.11}, {'imgObject': {}, 'id': 'blackbeanswithrice', 'src': '/static/foodstim60/blackbeanswithrice.jpg', 'key': 'i', 'origWidth': 410, 'origHeight': 410, 'width': 410, 'height': 410, 'widthPercent': 0.45, 'rescaleHeight': False, 'trialN': 56, 'loaded': True, 'loadedTime': 1858.0999999996275, 'positionName': 'RIGHT', 'positionCoords': [832, 245], 'bid': 2.13}]",124390.19999999925,1669847229370,grilled chicken strips,blackbeanswithrice,7.11,2.13,-4.98,grilled chicken strips,1025.300000000745,1026,1025.5,True,u,125925.69999999925,1535.5,1669847230906,1536,HRV,HRV_0307,2022-11-30 22:30:58
57,"[{'imgObject': {}, 'id': 'blueberries', 'src': '/static/foodstim60/blueberries.jpg', 'key': 'u', 'origWidth': 411, 'origHeight': 411, 'width': 411, 'height': 411, 'widthPercent': 0.45, 'rescaleHeight': False, 'trialN': 57, 'loaded': True, 'loadedTime': 1848, 'positionName': 'LEFT', 'positionCoords': [357, 244.5], 'bid': 8.26}, {'imgObject': {}, 'id': 'turkey sandwich', 'src': '/static/foodstim60/turkey sandwich.jpg', 'key': 'i', 'origWidth': 409, 'origHeight': 409, 'width': 409, 'height': 409, 'widthPercent': 0.45, 'rescaleHeight': False, 'trialN': 57, 'loaded': True, 'loadedTime': 1858.699999999255, 'positionName': 'RIGHT', 'positionCoords': [832, 245.5], 'bid': 8.02}]",125925.79999999981,1669847230906,blueberries,turkey sandwich,8.26,8.02,-0.2400000000000002,blueberries,1977.7999999998137,1978,1978.0,True,u,128409.69999999925,2483.899999999441,1669847233390,2484,HRV,HRV_0307,2022-11-30 22:30:58
58,"[{'imgObject': {}, 'id': 'mango', 'src': '/static/foodstim60/mango.jpg', 'key': 'u', 'origWidth': 411, 'origHeight': 411, 'width': 411, 'height': 411, 'widthPercent': 0.45, 'rescaleHeight': False, 'trialN': 58, 'loaded': True, 'loadedTime': 1743.5999999996275, 'positionName': 'LEFT', 'positionCoords': [357, 244.5], 'bid': 6.38}, {'imgObject': {}, 'id': 'Tribe humus pita', 'src': '/static/foodstim60/Tribe humus pita.jpg', 'key': 'i', 'origWidth': 411, 'origHeight': 411, 'width': 411, 'height': 411, 'widthPercent': 0.45, 'rescaleHeight': False, 'trialN': 58, 'loaded': True, 'loadedTime': 1863, 'positionName': 'RIGHT', 'positionCoords': [832, 244.5], 'bid': 9.92}]",128409.89999999944,1669847233390,mango,Tribe humus pita,6.38,9.92,3.54,Tribe humus pita,822.1000000005588,822,822.2000000001863,True,i,129750.0,1340.1000000005588,1669847234730,1340,HRV,HRV_0307,2022-11-30 22:30:58
59,"[{'imgObject': {}, 'id': 'Grapes', 'src': '/static/foodstim60/Grapes.jpg', 'key': 'u', 'origWidth': 411, 'origHeight': 411, 'width': 411, 'height': 411, 'widthPercent': 0.45, 'rescaleHeight': False, 'trialN': 59, 'loaded': True, 'loadedTime': 1820, 'positionName': 'LEFT', 'positionCoords': [357, 244.5], 'bid': 6.2700000000000005}, {'imgObject': {}, 'id': 'avocado', 'src': '/static/foodstim60/avocado.jpg', 'key': 'i', 'origWidth': 409, 'origHeight': 409, 'width': 409, 'height': 409, 'widthPercent': 0.45, 'rescaleHeight': False, 'trialN': 59, 'loaded': True, 'loadedTime': 1769.5999999996275, 'positionName': 'RIGHT', 'positionCoords': [832, 245.5], 'bid': 3.92}]",129750.19999999925,1669847234730,Grapes,avocado,6.2700000000000005,3.92,-2.3500000000000005,Grapes,1921.4000000003725,1922,1921.6000000005588,True,u,132181.0,2430.800000000745,1669847237161,2431,HRV,HRV_0307,2022-11-30 22:30:58
60,"[{'imgObject': {}, 'id': 'lox', 'src': '/static/foodstim60/lox.jpg', 'key': 'u', 'origWidth': 410, 'origHeight': 411, 'width': 410, 'height': 411, 'widthPercent': 0.45, 'rescaleHeight': False, 'trialN': 60, 'loaded': True, 'loadedTime': 1717.7999999998137, 'positionName': 'LEFT', 'positionCoords': [358, 244.5], 'bid': 7.33}, {'imgObject': {}, 'id': 'raspberries', 'src': '/static/foodstim60/raspberries.jpg', 'key': 'i', 'origWidth': 411, 'origHeight': 411, 'width': 411, 'height': 411, 'widthPercent': 0.45, 'rescaleHeight': False, 'trialN': 60, 'loaded': True, 'loadedTime': 1863.199999999255, 'positionName': 'RIGHT', 'positionCoords': [832, 244.5], 'bid': 7.46}]",132181.09999999963,1669847237161,lox,raspberries,7.33,7.46,0.1299999999999999,raspberries,1074.5,1075,1074.7000000001863,True,i,133766.7999999998,1585.7000000001863,1669847238747,1586,HRV,HRV_0307,2022-11-30 22:30:58
61,"[{'imgObject': {}, 'id': 'raisin bran w milk', 'src': '/static/foodstim60/raisin bran w milk.jpg', 'key': 'u', 'origWidth': 411, 'origHeight': 411, 'width': 411, 'height': 411, 'widthPercent': 0.45, 'rescaleHeight': False, 'trialN': 61, 'loaded': True, 'loadedTime': 1835.5, 'positionName': 'LEFT', 'positionCoords': [357, 244.5], 'bid': 7.81}, {'imgObject': {}, 'id': 'mac & cheese', 'src': '/static/foodstim60/mac & cheese.jpg', 'key': 'i', 'origWidth': 410, 'origHeight': 410, 'width': 410, 'height': 410, 'widthPercent': 0.45, 'rescaleHeight': False, 'trialN': 61, 'loaded': True, 'loadedTime': 1849.699999999255, 'positionName': 'RIGHT', 'positionCoords': [832, 245], 'bid': 9.16}]",133767.0,1669847238747,raisin bran w milk,mac & cheese,7.81,9.16,1.3500000000000005,mac & cheese,1096.5999999996275,1097,1096.699999999255,True,i,135381.59999999963,1614.5999999996275,1669847240362,1615,HRV,HRV_0307,2022-11-30 22:30:58
62,"[{'imgObject': {}, 'id': 'banana', 'src': '/static/foodstim60/banana.jpg', 'key': 'u', 'origWidth': 410, 'origHeight': 410, 'width': 410, 'height': 410, 'widthPercent': 0.45, 'rescaleHeight': False, 'trialN': 62, 'loaded': True, 'loadedTime': 1857.5, 'positionName': 'LEFT', 'positionCoords': [358, 245], 'bid': 8.44}, {'imgObject': {}, 'id': 'popsicles', 'src': '/static/foodstim60/popsicles.jpg', 'key': 'i', 'origWidth': 410, 'origHeight': 410, 'width': 410, 'height': 410, 'widthPercent': 0.45, 'rescaleHeight': False, 'trialN': 62, 'loaded': True, 'loadedTime': 1866.5999999996275, 'positionName': 'RIGHT', 'positionCoords': [832, 245], 'bid': 8.42}]",135381.69999999925,1669847240362,banana,popsicles,8.44,8.42,-0.019999999999999574,banana,1417.9000000003725,1418,1418.0,True,u,137306.59999999963,1924.9000000003725,1669847242287,1925,HRV,HRV_0307,2022-11-30 22:30:58
63,"[{'imgObject': {}, 'id': 'chicken nuggets2', 'src': '/static/foodstim60/chicken nuggets2.jpg', 'key': 'u', 'origWidth': 410, 'origHeight': 409, 'width': 410, 'height': 409, 'widthPercent': 0.45, 'rescaleHeight': False, 'trialN': 63, 'loaded': True, 'loadedTime': 1761.8999999994412, 'positionName': 'LEFT', 'positionCoords': [358, 245.5], 'bid': 6.33}, {'imgObject': {}, 'id': 'roastedpotatoes', 'src': '/static/foodstim60/roastedpotatoes.jpg', 'key': 'i', 'origWidth': 409, 'origHeight': 410, 'width': 409, 'height': 410, 'widthPercent': 0.45, 'rescaleHeight': False, 'trialN': 63, 'loaded': True, 'loadedTime': 1810, 'positionName': 'RIGHT', 'positionCoords': [832, 245], 'bid': 6.63}]",137306.69999999925,1669847242287,chicken nuggets2,roastedpotatoes,6.33,6.63,0.2999999999999998,chicken nuggets2,1220.9000000003725,1221,1221.0,True,u,139033.69999999925,1727.0,1669847244014,1727,HRV,HRV_0307,2022-11-30 22:30:58
64,"[{'imgObject': {}, 'id': 'pear', 'src': '/static/foodstim60/pear.jpg', 'key': 'u', 'origWidth': 411, 'origHeight': 410, 'width': 411, 'height': 410, 'widthPercent': 0.45, 'rescaleHeight': False, 'trialN': 64, 'loaded': True, 'loadedTime': 1820.5999999996275, 'positionName': 'LEFT', 'positionCoords': [357, 245], 'bid': 2.29}, {'imgObject': {}, 'id': 'blackbeanswithrice', 'src': '/static/foodstim60/blackbeanswithrice.jpg', 'key': 'i', 'origWidth': 410, 'origHeight': 410, 'width': 410, 'height': 410, 'widthPercent': 0.45, 'rescaleHeight': False, 'trialN': 64, 'loaded': True, 'loadedTime': 1858, 'positionName': 'RIGHT', 'positionCoords': [832, 245], 'bid': 2.13}]",139033.7999999998,1669847244014,pear,blackbeanswithrice,2.29,2.13,-0.16000000000000014,pear,1782.0999999996275,1782,1782.2999999998137,True,u,141325.09999999963,2291.2999999998137,1669847246305,2291,HRV,HRV_0307,2022-11-30 22:30:58
65,"[{'imgObject': {}, 'id': 'froot loops w milk', 'src': '/static/foodstim60/froot loops w milk.jpg', 'key': 'u', 'origWidth': 410, 'origHeight': 410, 'width': 410, 'height': 410, 'widthPercent': 0.45, 'rescaleHeight': False, 'trialN': 65, 'loaded': True, 'loadedTime': 1863.7999999998137, 'positionName': 'LEFT', 'positionCoords': [358, 245], 'bid': 7.95}, {'imgObject': {}, 'id': 'Tribe humus pita', 'src': '/static/foodstim60/Tribe humus pita.jpg', 'key': 'i', 'origWidth': 411, 'origHeight': 411, 'width': 411, 'height': 411, 'widthPercent': 0.45, 'rescaleHeight': False, 'trialN': 65, 'loaded': True, 'loadedTime': 1859.7999999998137, 'positionName': 'RIGHT', 'positionCoords': [832, 244.5], 'bid': 9.92}]",141325.2999999998,1669847246306,froot loops w milk,Tribe humus pita,7.95,9.92,1.9699999999999998,Tribe humus pita,1074.2999999998137,1074,1074.5999999996275,True,i,142907.09999999963,1581.7999999998137,1669847247887,1581,HRV,HRV_0307,2022-11-30 22:30:58
66,"[{'imgObject': {}, 'id': 'ice cream sundae 002', 'src': '/static/foodstim60/ice cream sundae 002.jpg', 'key': 'u', 'origWidth': 409, 'origHeight': 409, 'width': 409, 'height': 409, 'widthPercent': 0.45, 'rescaleHeight': False, 'trialN': 66, 'loaded': True, 'loadedTime': 1824.8999999994412, 'positionName': 'LEFT', 'positionCoords': [359, 245.5], 'bid': 8.82}, {'imgObject': {}, 'id': 'seaweed', 'src': '/static/foodstim60/seaweed.jpg', 'key': 'i', 'origWidth': 410, 'origHeight': 410, 'width': 410, 'height': 410, 'widthPercent': 0.45, 'rescaleHeight': False, 'trialN': 66, 'loaded': True, 'loadedTime': 1708.199999999255, 'positionName': 'RIGHT', 'positionCoords': [832, 245], 'bid': 8.06}]",142907.2999999998,1669847247888,ice cream sundae 002,seaweed,8.82,8.06,-0.7599999999999998,ice cream sundae 002,1612.2999999998137,1612,1612.5999999996275,True,u,145026.59999999963,2119.2999999998137,1669847250007,2119,HRV,HRV_0307,2022-11-30 22:30:58
67,"[{'imgObject': {}, 'id': 'steak', 'src': '/static/foodstim60/steak.jpg', 'key': 'u', 'origWidth': 410, 'origHeight': 410, 'width': 410, 'height': 410, 'widthPercent': 0.45, 'rescaleHeight': False, 'trialN': 67, 'loaded': True, 'loadedTime': 1744.7999999998137, 'positionName': 'LEFT', 'positionCoords': [358, 245], 'bid': 4.97}, {'imgObject': {}, 'id': 'cheerios', 'src': '/static/foodstim60/cheerios.jpg', 'key': 'i', 'origWidth': 409, 'origHeight': 410, 'width': 409, 'height': 410, 'widthPercent': 0.45, 'rescaleHeight': False, 'trialN': 67, 'loaded': True, 'loadedTime': 1841.5, 'positionName': 'RIGHT', 'positionCoords': [832, 245], 'bid': 5.1000000000000005}]",145026.69999999925,1669847250007,steak,cheerios,4.97,5.1000000000000005,0.13000000000000078,steak,892.9000000003725,893,893.2000000001863,True,u,146436.09999999963,1409.4000000003725,1669847251416,1409,HRV,HRV_0307,2022-11-30 22:30:58
68,"[{'imgObject': {}, 'id': 'cherries', 'src': '/static/foodstim60/cherries.jpg', 'key': 'u', 'origWidth': 410, 'origHeight': 411, 'width': 410, 'height': 411, 'widthPercent': 0.45, 'rescaleHeight': False, 'trialN': 68, 'loaded': True, 'loadedTime': 1759.0999999996275, 'positionName': 'LEFT', 'positionCoords': [358, 244.5], 'bid': 8.81}, {'imgObject': {}, 'id': 'yogurt no spoon', 'src': '/static/foodstim60/yogurt no spoon.jpg', 'key': 'i', 'origWidth': 411, 'origHeight': 410, 'width': 411, 'height': 410, 'widthPercent': 0.45, 'rescaleHeight': False, 'trialN': 68, 'loaded': True, 'loadedTime': 1734.7999999998137, 'positionName': 'RIGHT', 'positionCoords': [832, 245], 'bid': 8.73}]",146436.19999999925,1669847251416,cherries,yogurt no spoon,8.81,8.73,-0.08000000000000007,cherries,819.5,820,819.7000000001863,True,u,147766.89999999944,1330.7000000001863,1669847252747,1331,HRV,HRV_0307,2022-11-30 22:30:58
69,"[{'imgObject': {}, 'id': 'fried eggs', 'src': '/static/foodstim60/fried eggs.jpg', 'key': 'u', 'origWidth': 410, 'origHeight': 410, 'width': 410, 'height': 410, 'widthPercent': 0.45, 'rescaleHeight': False, 'trialN': 69, 'loaded': True, 'loadedTime': 1840.7999999998137, 'positionName': 'LEFT', 'positionCoords': [358, 245], 'bid': 5.45}, {'imgObject': {}, 'id': 'turkeysandwich', 'src': '/static/foodstim60/turkeysandwich.jpg', 'key': 'i', 'origWidth': 409, 'origHeight': 409, 'width': 409, 'height': 409, 'widthPercent': 0.45, 'rescaleHeight': False, 'trialN': 69, 'loaded': True, 'loadedTime': 1805.199999999255, 'positionName': 'RIGHT', 'positionCoords': [832, 245.5], 'bid': 7.13}]",147767.09999999963,1669847252747,fried eggs,turkeysandwich,5.45,7.13,1.6799999999999997,turkeysandwich,1456.7000000001863,1457,1456.7999999998137,True,i,149737.2999999998,1970.2000000001863,1669847254718,1971,HRV,HRV_0307,2022-11-30 22:30:58
70,"[{'imgObject': {}, 'id': 'turkey sandwich', 'src': '/static/foodstim60/turkey sandwich.jpg', 'key': 'u', 'origWidth': 409, 'origHeight': 409, 'width': 409, 'height': 409, 'widthPercent': 0.45, 'rescaleHeight': False, 'trialN': 70, 'loaded': True, 'loadedTime': 1859, 'positionName': 'LEFT', 'positionCoords': [359, 245.5], 'bid': 8.02}, {'imgObject': {}, 'id': 'cherries', 'src': '/static/foodstim60/cherries.jpg', 'key': 'i', 'origWidth': 410, 'origHeight': 411, 'width': 410, 'height': 411, 'widthPercent': 0.45, 'rescaleHeight': False, 'trialN': 70, 'loaded': True, 'loadedTime': 1759.0999999996275, 'positionName': 'RIGHT', 'positionCoords': [832, 244.5], 'bid': 8.81}]",149737.5,1669847254718,turkey sandwich,cherries,8.02,8.81,0.7900000000000009,cherries,1478.5,1478,1478.699999999255,True,i,151734.59999999963,1997.0999999996275,1669847256715,1997,HRV,HRV_0307,2022-11-30 22:30:58
71,"[{'imgObject': {}, 'id': 'cheerios', 'src': '/static/foodstim60/cheerios.jpg', 'key': 'u', 'origWidth': 409, 'origHeight': 410, 'width': 409, 'height': 410, 'widthPercent': 0.45, 'rescaleHeight': False, 'trialN': 71, 'loaded': True, 'loadedTime': 1841.5, 'positionName': 'LEFT', 'positionCoords': [359, 245], 'bid': 5.1000000000000005}, {'imgObject': {}, 'id': 'edamame', 'src': '/static/foodstim60/edamame.jpg', 'key': 'i', 'origWidth': 409, 'origHeight': 410, 'width': 409, 'height': 410, 'widthPercent': 0.45, 'rescaleHeight': False, 'trialN': 71, 'loaded': True, 'loadedTime': 1856.5, 'positionName': 'RIGHT', 'positionCoords': [832, 245], 'bid': 2.5500000000000003}]",151734.7999999998,1669847256715,cheerios,edamame,5.1000000000000005,2.5500000000000003,-2.5500000000000003,cheerios,2464.7999999998137,2465,2465.0999999996275,True,u,154712.59999999963,2977.7999999998137,1669847259693,2978,HRV,HRV_0307,2022-11-30 22:30:58
72,"[{'imgObject': {}, 'id': 'eggs', 'src': '/static/foodstim60/eggs.jpg', 'key': 'u', 'origWidth': 409, 'origHeight': 409, 'width': 409, 'height': 409, 'widthPercent': 0.45, 'rescaleHeight': False, 'trialN': 72, 'loaded': True, 'loadedTime': 1848.7999999998137, 'positionName': 'LEFT', 'positionCoords': [359, 245.5], 'bid': 5.16}, {'imgObject': {}, 'id': 'mashed potato', 'src': '/static/foodstim60/mashed potato.jpg', 'key': 'i', 'origWidth': 409, 'origHeight': 409, 'width': 409, 'height': 409, 'widthPercent': 0.45, 'rescaleHeight': False, 'trialN': 72, 'loaded': True, 'loadedTime': 1770.0999999996275, 'positionName': 'RIGHT', 'positionCoords': [832, 245.5], 'bid': 3.66}]",154712.69999999925,1669847259693,eggs,mashed potato,5.16,3.66,-1.5,eggs,1694.9000000003725,1695,1695.2000000001863,True,u,156910.39999999944,2197.7000000001863,1669847261891,2198,HRV,HRV_0307,2022-11-30 22:30:58
73,"[{'imgObject': {}, 'id': 'grilled chicken strips', 'src': '/static/foodstim60/grilled chicken strips.jpg', 'key': 'u', 'origWidth': 410, 'origHeight': 411, 'width': 410, 'height': 411, 'widthPercent': 0.45, 'rescaleHeight': False, 'trialN': 73, 'loaded': True, 'loadedTime': 1801.7999999998137, 'positionName': 'LEFT', 'positionCoords': [358, 244.5], 'bid': 7.11}, {'imgObject': {}, 'id': 'chicken nuggets2', 'src': '/static/foodstim60/chicken nuggets2.jpg', 'key': 'i', 'origWidth': 410, 'origHeight': 409, 'width': 410, 'height': 409, 'widthPercent': 0.45, 'rescaleHeight': False, 'trialN': 73, 'loaded': True, 'loadedTime': 1761.699999999255, 'positionName': 'RIGHT', 'positionCoords': [832, 245.5], 'bid': 6.33}]",156910.5,1669847261891,grilled chicken strips,chicken nuggets2,7.11,6.33,-0.7800000000000002,chicken nuggets2,1393.0999999996275,1393,1393.3999999994412,True,i,158822.59999999963,1912.0999999996275,1669847263803,1912,HRV,HRV_0307,2022-11-30 22:30:58
74,"[{'imgObject': {}, 'id': 'bagel and cc', 'src': '/static/foodstim60/bagel and cc.jpg', 'key': 'u', 'origWidth': 410, 'origHeight': 410, 'width': 410, 'height': 410, 'widthPercent': 0.45, 'rescaleHeight': False, 'trialN': 74, 'loaded': True, 'loadedTime': 1813.699999999255, 'positionName': 'LEFT', 'positionCoords': [358, 245], 'bid': 5.03}, {'imgObject': {}, 'id': 'baked potato', 'src': '/static/foodstim60/baked potato.jpg', 'key': 'i', 'origWidth': 409, 'origHeight': 410, 'width': 409, 'height': 410, 'widthPercent': 0.45, 'rescaleHeight': False, 'trialN': 74, 'loaded': True, 'loadedTime': 1865.5, 'positionName': 'RIGHT', 'positionCoords': [832, 245], 'bid': 5.1000000000000005}]",158822.7999999998,1669847263803,bagel and cc,baked potato,5.03,5.1000000000000005,0.07000000000000028,bagel and cc,1968.8999999994412,1969,1969.0999999996275,True,u,161304.89999999944,2482.0999999996275,1669847266285,2482,HRV,HRV_0307,2022-11-30 22:30:58
75,"[{'imgObject': {}, 'id': 'yogurt no spoon', 'src': '/static/foodstim60/yogurt no spoon.jpg', 'key': 'u', 'origWidth': 411, 'origHeight': 410, 'width': 411, 'height': 410, 'widthPercent': 0.45, 'rescaleHeight': False, 'trialN': 75, 'loaded': True, 'loadedTime': 1734.8999999994412, 'positionName': 'LEFT', 'positionCoords': [357, 245], 'bid': 8.73}, {'imgObject': {}, 'id': 'burrito', 'src': '/static/foodstim60/burrito.jpg', 'key': 'i', 'origWidth': 410, 'origHeight': 410, 'width': 410, 'height': 410, 'widthPercent': 0.45, 'rescaleHeight': False, 'trialN': 75, 'loaded': True, 'loadedTime': 1762.699999999255, 'positionName': 'RIGHT', 'positionCoords': [832, 245], 'bid': 8.52}]",161305.09999999963,1669847266285,yogurt no spoon,burrito,8.73,8.52,-0.21000000000000085,burrito,1918.9000000003725,1919,1919.0,True,i,163733.2999999998,2428.2000000001863,1669847268714,2429,HRV,HRV_0307,2022-11-30 22:30:58
76,"[{'imgObject': {}, 'id': 'veggieswithdip', 'src': '/static/foodstim60/veggieswithdip.jpg', 'key': 'u', 'origWidth': 409, 'origHeight': 409, 'width': 409, 'height': 409, 'widthPercent': 0.45, 'rescaleHeight': False, 'trialN': 76, 'loaded': True, 'loadedTime': 1793.2999999998137, 'positionName': 'LEFT', 'positionCoords': [359, 245.5], 'bid': 5.03}, {'imgObject': {}, 'id': 'cantaloupe', 'src': '/static/foodstim60/cantaloupe.jpg', 'key': 'i', 'origWidth': 409, 'origHeight': 409, 'width': 409, 'height': 409, 'widthPercent': 0.45, 'rescaleHeight': False, 'trialN': 76, 'loaded': True, 'loadedTime': 1716.3999999994412, 'positionName': 'RIGHT', 'positionCoords': [832, 245.5], 'bid': 4.0600000000000005}]",163733.5,1669847268714,veggieswithdip,cantaloupe,5.03,4.0600000000000005,-0.9699999999999998,veggieswithdip,1322.199999999255,1322,1322.3999999994412,True,u,165562.59999999963,1829.0999999996275,1669847270543,1829,HRV,HRV_0307,2022-11-30 22:30:58
77,"[{'imgObject': {}, 'id': 'hashbrowns', 'src': '/static/foodstim60/hashbrowns.jpg', 'key': 'u', 'origWidth': 411, 'origHeight': 410, 'width': 411, 'height': 410, 'widthPercent': 0.45, 'rescaleHeight': False, 'trialN': 77, 'loaded': True, 'loadedTime': 1818.8999999994412, 'positionName': 'LEFT', 'positionCoords': [357, 245], 'bid': 3.36}, {'imgObject': {}, 'id': 'rigatoni', 'src': '/static/foodstim60/rigatoni.jpg', 'key': 'i', 'origWidth': 411, 'origHeight': 411, 'width': 411, 'height': 411, 'widthPercent': 0.45, 'rescaleHeight': False, 'trialN': 77, 'loaded': True, 'loadedTime': 1765.8999999994412, 'positionName': 'RIGHT', 'positionCoords': [832, 244.5], 'bid': 1.85}]",165562.7999999998,1669847270543,hashbrowns,rigatoni,3.36,1.85,-1.5099999999999998,hashbrowns,1156.7999999998137,1157,1157.0,True,u,167225.69999999925,1662.8999999994412,1669847272206,1663,HRV,HRV_0307,2022-11-30 22:30:58
78,"[{'imgObject': {}, 'id': 'chickenfingers', 'src': '/static/foodstim60/chickenfingers.jpg', 'key': 'u', 'origWidth': 410, 'origHeight': 410, 'width': 410, 'height': 410, 'widthPercent': 0.45, 'rescaleHeight': False, 'trialN': 78, 'loaded': True, 'loadedTime': 1713.3999999994412, 'positionName': 'LEFT', 'positionCoords': [358, 245], 'bid': 6.66}, {'imgObject': {}, 'id': 'roastedpotatoes', 'src': '/static/foodstim60/roastedpotatoes.jpg', 'key': 'i', 'origWidth': 409, 'origHeight': 410, 'width': 409, 'height': 410, 'widthPercent': 0.45, 'rescaleHeight': False, 'trialN': 78, 'loaded': True, 'loadedTime': 1809.3999999994412, 'positionName': 'RIGHT', 'positionCoords': [832, 245], 'bid': 6.63}]",167225.69999999925,1669847272206,chickenfingers,roastedpotatoes,6.66,6.63,-0.03000000000000025,chickenfingers,1141.9000000003725,1142,1142.2000000001863,True,u,168873.69999999925,1648.0,1669847273854,1648,HRV,HRV_0307,2022-11-30 22:30:58
79,"[{'imgObject': {}, 'id': 'apple slices', 'src': '/static/foodstim60/apple slices.jpg', 'key': 'u', 'origWidth': 409, 'origHeight': 410, 'width': 409, 'height': 410, 'widthPercent': 0.45, 'rescaleHeight': False, 'trialN': 79, 'loaded': True, 'loadedTime': 1825.5999999996275, 'positionName': 'LEFT', 'positionCoords': [359, 245], 'bid': 2.42}, {'imgObject': {}, 'id': 'baked potato', 'src': '/static/foodstim60/baked potato.jpg', 'key': 'i', 'origWidth': 409, 'origHeight': 410, 'width': 409, 'height': 410, 'widthPercent': 0.45, 'rescaleHeight': False, 'trialN': 79, 'loaded': True, 'loadedTime': 1864.699999999255, 'positionName': 'RIGHT', 'positionCoords': [832, 245], 'bid': 5.1000000000000005}]",168873.7999999998,1669847273854,apple slices,baked potato,2.42,5.1000000000000005,2.6800000000000006,apple slices,2261.899999999441,2262,2262.0999999996275,True,u,171648.69999999925,2774.899999999441,1669847276629,2775,HRV,HRV_0307,2022-11-30 22:30:58
80,"[{'imgObject': {}, 'id': 'mac & cheese', 'src': '/static/foodstim60/mac & cheese.jpg', 'key': 'u', 'origWidth': 410, 'origHeight': 410, 'width': 410, 'height': 410, 'widthPercent': 0.45, 'rescaleHeight': False, 'trialN': 80, 'loaded': True, 'loadedTime': 1849.8999999994412, 'positionName': 'LEFT', 'positionCoords': [358, 245], 'bid': 9.16}, {'imgObject': {}, 'id': 'ice cream sundae 002', 'src': '/static/foodstim60/ice cream sundae 002.jpg', 'key': 'i', 'origWidth': 409, 'origHeight': 409, 'width': 409, 'height': 409, 'widthPercent': 0.45, 'rescaleHeight': False, 'trialN': 80, 'loaded': True, 'loadedTime': 1824.2999999998137, 'positionName': 'RIGHT', 'positionCoords': [832, 245.5], 'bid': 8.82}]",171648.7999999998,1669847276629,mac & cheese,ice cream sundae 002,9.16,8.82,-0.33999999999999986,mac & cheese,750.7999999998137,751,751.0,True,u,172905.59999999963,1256.7999999998137,1669847277886,1257,HRV,HRV_0307,2022-11-30 22:30:58
81,"[{'imgObject': {}, 'id': 'apple slices', 'src': '/static/foodstim60/apple slices.jpg', 'key': 'u', 'origWidth': 409, 'origHeight': 410, 'width': 409, 'height': 410, 'widthPercent': 0.45, 'rescaleHeight': False, 'trialN': 81, 'loaded': True, 'loadedTime': 1828.5999999996275, 'positionName': 'LEFT', 'positionCoords': [359, 245], 'bid': 2.42}, {'imgObject': {}, 'id': 'blackbeanswithrice', 'src': '/static/foodstim60/blackbeanswithrice.jpg', 'key': 'i', 'origWidth': 410, 'origHeight': 410, 'width': 410, 'height': 410, 'widthPercent': 0.45, 'rescaleHeight': False, 'trialN': 81, 'loaded': True, 'loadedTime': 1858.199999999255, 'positionName': 'RIGHT', 'positionCoords': [832, 245], 'bid': 2.13}]",172905.7999999998,1669847277886,apple slices,blackbeanswithrice,2.42,2.13,-0.29000000000000004,apple slices,1094.0999999996275,1095,1094.2999999998137,True,u,174518.59999999963,1612.7999999998137,1669847279499,1613,HRV,HRV_0307,2022-11-30 22:30:58
82,"[{'imgObject': {}, 'id': 'cherry tomato', 'src': '/static/foodstim60/cherry tomato.jpg', 'key': 'u', 'origWidth': 410, 'origHeight': 410, 'width': 410, 'height': 410, 'widthPercent': 0.45, 'rescaleHeight': False, 'trialN': 82, 'loaded': True, 'loadedTime': 1850.699999999255, 'positionName': 'LEFT', 'positionCoords': [358, 245], 'bid': 1.52}, {'imgObject': {}, 'id': 'edamame', 'src': '/static/foodstim60/edamame.jpg', 'key': 'i', 'origWidth': 409, 'origHeight': 410, 'width': 409, 'height': 410, 'widthPercent': 0.45, 'rescaleHeight': False, 'trialN': 82, 'loaded': True, 'loadedTime': 1855.8999999994412, 'positionName': 'RIGHT', 'positionCoords': [832, 245], 'bid': 2.5500000000000003}]",174518.7999999998,1669847279499,cherry tomato,edamame,1.52,2.5500000000000003,1.0300000000000002,edamame,1216.8999999994412,1218,1217.0999999996275,True,i,176249.39999999944,1730.5999999996275,1669847281230,1731,HRV,HRV_0307,2022-11-30 22:30:58
83,"[{'imgObject': {}, 'id': 'olives', 'src': '/static/foodstim60/olives.jpg', 'key': 'u', 'origWidth': 410, 'origHeight': 410, 'width': 410, 'height': 410, 'widthPercent': 0.45, 'rescaleHeight': False, 'trialN': 83, 'loaded': True, 'loadedTime': 1764.2999999998137, 'positionName': 'LEFT', 'positionCoords': [358, 245], 'bid': 0.97}, {'imgObject': {}, 'id': 'roastedpotatoes', 'src': '/static/foodstim60/roastedpotatoes.jpg', 'key': 'i', 'origWidth': 409, 'origHeight': 410, 'width': 409, 'height': 410, 'widthPercent': 0.45, 'rescaleHeight': False, 'trialN': 83, 'loaded': True, 'loadedTime': 1810.2999999998137, 'positionName': 'RIGHT', 'positionCoords': [832, 245], 'bid': 6.63}]",176249.5,1669847281230,olives,roastedpotatoes,0.97,6.63,5.66,roastedpotatoes,942.2999999998137,943,942.5,True,i,177707.59999999963,1458.0999999996275,1669847282688,1458,HRV,HRV_0307,2022-11-30 22:30:58
84,"[{'imgObject': {}, 'id': 'tacos', 'src': '/static/foodstim60/tacos.jpg', 'key': 'u', 'origWidth': 411, 'origHeight': 411, 'width': 411, 'height': 411, 'widthPercent': 0.45, 'rescaleHeight': False, 'trialN': 84, 'loaded': True, 'loadedTime': 1789.2999999998137, 'positionName': 'LEFT', 'positionCoords': [357, 244.5], 'bid': 8.27}, {'imgObject': {}, 'id': 'sushi w_condiments', 'src': '/static/foodstim60/sushi w_condiments.jpg', 'key': 'i', 'origWidth': 410, 'origHeight': 410, 'width': 410, 'height': 410, 'widthPercent': 0.45, 'rescaleHeight': False, 'trialN': 84, 'loaded': True, 'loadedTime': 1764, 'positionName': 'RIGHT', 'positionCoords': [832, 245], 'bid': 9.71}]",177707.7999999998,1669847282688,tacos,sushi w_condiments,8.27,9.71,1.4400000000000013,sushi w_condiments,747.8999999994412,749,748.0999999996275,True,i,178968.5,1260.7000000001863,1669847283949,1261,HRV,HRV_0307,2022-11-30 22:30:58
85,"[{'imgObject': {}, 'id': 'luckycharms', 'src': '/static/foodstim60/luckycharms.jpg', 'key': 'u', 'origWidth': 410, 'origHeight': 409, 'width': 410, 'height': 409, 'widthPercent': 0.45, 'rescaleHeight': False, 'trialN': 85, 'loaded': True, 'loadedTime': 1746.5999999996275, 'positionName': 'LEFT', 'positionCoords': [358, 245.5], 'bid': 8.42}, {'imgObject': {}, 'id': 'banana', 'src': '/static/foodstim60/banana.jpg', 'key': 'i', 'origWidth': 410, 'origHeight': 410, 'width': 410, 'height': 410, 'widthPercent': 0.45, 'rescaleHeight': False, 'trialN': 85, 'loaded': True, 'loadedTime': 1857.199999999255, 'positionName': 'RIGHT', 'positionCoords': [832, 245], 'bid': 8.44}]",178968.69999999925,1669847283949,luckycharms,banana,8.42,8.44,0.019999999999999574,luckycharms,1663,1664,1663.2000000001863,True,u,181139.19999999925,2170.5,1669847286120,2171,HRV,HRV_0307,2022-11-30 22:30:58
86,"[{'imgObject': {}, 'id': 'avocado', 'src': '/static/foodstim60/avocado.jpg', 'key': 'u', 'origWidth': 409, 'origHeight': 409, 'width': 409, 'height': 409, 'widthPercent': 0.45, 'rescaleHeight': False, 'trialN': 86, 'loaded': True, 'loadedTime': 1769.5, 'positionName': 'LEFT', 'positionCoords': [359, 245.5], 'bid': 3.92}, {'imgObject': {}, 'id': 'cherry tomato', 'src': '/static/foodstim60/cherry tomato.jpg', 'key': 'i', 'origWidth': 410, 'origHeight': 410, 'width': 410, 'height': 410, 'widthPercent': 0.45, 'rescaleHeight': False, 'trialN': 86, 'loaded': True, 'loadedTime': 1855.699999999255, 'positionName': 'RIGHT', 'positionCoords': [832, 245], 'bid': 1.52}]",181139.39999999944,1669847286120,avocado,cherry tomato,3.92,1.52,-2.4,avocado,1332.2999999998137,1333,1332.5,True,u,182976.89999999944,1837.5,1669847287957,1837,HRV,HRV_0307,2022-11-30 22:30:58
87,"[{'imgObject': {}, 'id': 'salmon', 'src': '/static/foodstim60/salmon.jpg', 'key': 'u', 'origWidth': 410, 'origHeight': 409, 'width': 410, 'height': 409, 'widthPercent': 0.45, 'rescaleHeight': False, 'trialN': 87, 'loaded': True, 'loadedTime': 1751.0999999996275, 'positionName': 'LEFT', 'positionCoords': [358, 245.5], 'bid': 8.53}, {'imgObject': {}, 'id': 'raspberries', 'src': '/static/foodstim60/raspberries.jpg', 'key': 'i', 'origWidth': 411, 'origHeight': 411, 'width': 411, 'height': 411, 'widthPercent': 0.45, 'rescaleHeight': False, 'trialN': 87, 'loaded': True, 'loadedTime': 1863.5, 'positionName': 'RIGHT', 'positionCoords': [832, 244.5], 'bid': 7.46}]",182977.09999999963,1669847287958,salmon,raspberries,8.53,7.46,-1.0699999999999994,raspberries,2494.9000000003725,2495,2495.2000000001863,True,i,185985.69999999925,3008.5999999996275,1669847290966,3008,HRV,HRV_0307,2022-11-30 22:30:58
88,"[{'imgObject': {}, 'id': 'Tribe humus pita', 'src': '/static/foodstim60/Tribe humus pita.jpg', 'key': 'u', 'origWidth': 411, 'origHeight': 411, 'width': 411, 'height': 411, 'widthPercent': 0.45, 'rescaleHeight': False, 'trialN': 88, 'loaded': True, 'loadedTime': 1859.199999999255, 'positionName': 'LEFT', 'positionCoords': [357, 244.5], 'bid': 9.92}, {'imgObject': {}, 'id': 'sushi w_condiments', 'src': '/static/foodstim60/sushi w_condiments.jpg', 'key': 'i', 'origWidth': 410, 'origHeight': 410, 'width': 410, 'height': 410, 'widthPercent': 0.45, 'rescaleHeight': False, 'trialN': 88, 'loaded': True, 'loadedTime': 1763.199999999255, 'positionName': 'RIGHT', 'positionCoords': [832, 245], 'bid': 9.71}]",185985.89999999944,1669847290966,Tribe humus pita,sushi w_condiments,9.92,9.71,-0.20999999999999908,sushi w_condiments,757.7999999998137,758,758.0,True,i,187256.69999999925,1270.7999999998137,1669847292237,1271,HRV,HRV_0307,2022-11-30 22:30:58
89,"[{'imgObject': {}, 'id': 'cantaloupe', 'src': '/static/foodstim60/cantaloupe.jpg', 'key': 'u', 'origWidth': 409, 'origHeight': 409, 'width': 409, 'height': 409, 'widthPercent': 0.45, 'rescaleHeight': False, 'trialN': 89, 'loaded': True, 'loadedTime': 1715.7999999998137, 'positionName': 'LEFT', 'positionCoords': [359, 245.5], 'bid': 4.0600000000000005}, {'imgObject': {}, 'id': 'raisin bran w milk', 'src': '/static/foodstim60/raisin bran w milk.jpg', 'key': 'i', 'origWidth': 411, 'origHeight': 411, 'width': 411, 'height': 411, 'widthPercent': 0.45, 'rescaleHeight': False, 'trialN': 89, 'loaded': True, 'loadedTime': 1840, 'positionName': 'RIGHT', 'positionCoords': [832, 244.5], 'bid': 7.81}]",187256.89999999944,1669847292238,cantaloupe,raisin bran w milk,4.0600000000000005,7.81,3.749999999999999,raisin bran w milk,798.7999999998137,799,799.0,True,i,188574.0,1317.1000000005588,1669847293555,1317,HRV,HRV_0307,2022-11-30 22:30:58
90,"[{'imgObject': {}, 'id': 'mango', 'src': '/static/foodstim60/mango.jpg', 'key': 'u', 'origWidth': 411, 'origHeight': 411, 'width': 411, 'height': 411, 'widthPercent': 0.45, 'rescaleHeight': False, 'trialN': 90, 'loaded': True, 'loadedTime': 1742.5999999996275, 'positionName': 'LEFT', 'positionCoords': [357, 244.5], 'bid': 6.38}, {'imgObject': {}, 'id': 'rigatoni and sauce', 'src': '/static/foodstim60/rigatoni and sauce.jpg', 'key': 'i', 'origWidth': 410, 'origHeight': 411, 'width': 410, 'height': 411, 'widthPercent': 0.45, 'rescaleHeight': False, 'trialN': 90, 'loaded': True, 'loadedTime': 1797, 'positionName': 'RIGHT', 'positionCoords': [832, 244.5], 'bid': 4.96}]",192511.69999999925,1669847297492,mango,rigatoni and sauce,6.38,4.96,-1.42,rigatoni and sauce,2432,2433,2432.2000000001863,True,i,195461.59999999963,2949.9000000003725,1669847300442,2950,HRV,HRV_0307,2022-11-30 22:30:58
91,"[{'imgObject': {}, 'id': 'turkey sandwich', 'src': '/static/foodstim60/turkey sandwich.jpg', 'key': 'u', 'origWidth': 409, 'origHeight': 409, 'width': 409, 'height': 409, 'widthPercent': 0.45, 'rescaleHeight': False, 'trialN': 91, 'loaded': True, 'loadedTime': 1858.7999999998137, 'positionName': 'LEFT', 'positionCoords': [359, 245.5], 'bid': 8.02}, {'imgObject': {}, 'id': 'froot loops w milk', 'src': '/static/foodstim60/froot loops w milk.jpg', 'key': 'i', 'origWidth': 410, 'origHeight': 410, 'width': 410, 'height': 410, 'widthPercent': 0.45, 'rescaleHeight': False, 'trialN': 91, 'loaded': True, 'loadedTime': 1864.3999999994412, 'positionName': 'RIGHT', 'positionCoords': [832, 245], 'bid': 7.95}]",195461.7999999998,1669847300442,turkey sandwich,froot loops w milk,8.02,7.95,-0.0699999999999994,turkey sandwich,1706.2000000001863,1707,1706.5,True,u,197684.19999999925,2222.399999999441,1669847302665,2223,HRV,HRV_0307,2022-11-30 22:30:58
92,"[{'imgObject': {}, 'id': 'kiwi', 'src': '/static/foodstim60/kiwi.jpg', 'key': 'u', 'origWidth': 410, 'origHeight': 410, 'width': 410, 'height': 410, 'widthPercent': 0.45, 'rescaleHeight': False, 'trialN': 92, 'loaded': True, 'loadedTime': 1719.2999999998137, 'positionName': 'LEFT', 'positionCoords': [358, 245], 'bid': 7.38}, {'imgObject': {}, 'id': 'eggsalad', 'src': '/static/foodstim60/eggsalad.jpg', 'key': 'i', 'origWidth': 410, 'origHeight': 409, 'width': 410, 'height': 409, 'widthPercent': 0.45, 'rescaleHeight': False, 'trialN': 92, 'loaded': True, 'loadedTime': 1715.2999999998137, 'positionName': 'RIGHT', 'positionCoords': [832, 245.5], 'bid': 6.33}]",197684.39999999944,1669847302665,kiwi,eggsalad,7.38,6.33,-1.0499999999999998,eggsalad,2323.2999999998137,2324,2323.7000000001863,True,i,200527.59999999963,2843.2000000001863,1669847305508,2843,HRV,HRV_0307,2022-11-30 22:30:58
93,"[{'imgObject': {}, 'id': 'tacos', 'src': '/static/foodstim60/tacos.jpg', 'key': 'u', 'origWidth': 411, 'origHeight': 411, 'width': 411, 'height': 411, 'widthPercent': 0.45, 'rescaleHeight': False, 'trialN': 93, 'loaded': True, 'loadedTime': 1789.2999999998137, 'positionName': 'LEFT', 'positionCoords': [357, 244.5], 'bid': 8.27}, {'imgObject': {}, 'id': 'luckycharms', 'src': '/static/foodstim60/luckycharms.jpg', 'key': 'i', 'origWidth': 410, 'origHeight': 409, 'width': 410, 'height': 409, 'widthPercent': 0.45, 'rescaleHeight': False, 'trialN': 93, 'loaded': True, 'loadedTime': 1746, 'positionName': 'RIGHT', 'positionCoords': [832, 245.5], 'bid': 8.42}]",200527.69999999925,1669847305508,tacos,luckycharms,8.27,8.42,0.15000000000000036,tacos,1472,1473,1472.300000000745,True,u,202516.09999999963,1988.4000000003725,1669847307497,1989,HRV,HRV_0307,2022-11-30 22:30:58
94,"[{'imgObject': {}, 'id': 'blueberries', 'src': '/static/foodstim60/blueberries.jpg', 'key': 'u', 'origWidth': 411, 'origHeight': 411, 'width': 411, 'height': 411, 'widthPercent': 0.45, 'rescaleHeight': False, 'trialN': 94, 'loaded': True, 'loadedTime': 1847.699999999255, 'positionName': 'LEFT', 'positionCoords': [357, 244.5], 'bid': 8.26}, {'imgObject': {}, 'id': 'omelette', 'src': '/static/foodstim60/omelette.jpg', 'key': 'i', 'origWidth': 410, 'origHeight': 409, 'width': 410, 'height': 409, 'widthPercent': 0.45, 'rescaleHeight': False, 'trialN': 94, 'loaded': True, 'loadedTime': 1759.3999999994412, 'positionName': 'RIGHT', 'positionCoords': [832, 245.5], 'bid': 5.0200000000000005}]",202516.2999999998,1669847307497,blueberries,omelette,8.26,5.0200000000000005,-3.2399999999999993,blueberries,1595.3999999994412,1596,1595.7000000001863,True,u,204626.7999999998,2110.5,1669847309607,2110,HRV,HRV_0307,2022-11-30 22:30:58
95,"[{'imgObject': {}, 'id': 'bagel and cc', 'src': '/static/foodstim60/bagel and cc.jpg', 'key': 'u', 'origWidth': 410, 'origHeight': 410, 'width': 410, 'height': 410, 'widthPercent': 0.45, 'rescaleHeight': False, 'trialN': 95, 'loaded': True, 'loadedTime': 1810.699999999255, 'positionName': 'LEFT', 'positionCoords': [358, 245], 'bid': 5.03}, {'imgObject': {}, 'id': 'luckycharms', 'src': '/static/foodstim60/luckycharms.jpg', 'key': 'i', 'origWidth': 410, 'origHeight': 409, 'width': 410, 'height': 409, 'widthPercent': 0.45, 'rescaleHeight': False, 'trialN': 95, 'loaded': True, 'loadedTime': 1746.7999999998137, 'positionName': 'RIGHT', 'positionCoords': [832, 245.5], 'bid': 8.42}]",204627.0,1669847309608,bagel and cc,luckycharms,5.03,8.42,3.3899999999999997,bagel and cc,2252.699999999255,2253,2252.899999999441,True,u,207391.39999999944,2764.399999999441,1669847312372,2764,HRV,HRV_0307,2022-11-30 22:30:58
96,"[{'imgObject': {}, 'id': 'orange slices', 'src': '/static/foodstim60/orange slices.jpg', 'key': 'u', 'origWidth': 409, 'origHeight': 410, 'width': 409, 'height': 410, 'widthPercent': 0.45, 'rescaleHeight': False, 'trialN': 96, 'loaded': True, 'loadedTime': 1829.5999999996275, 'positionName': 'LEFT', 'positionCoords': [359, 245], 'bid': 7.75}, {'imgObject': {}, 'id': 'avocado', 'src': '/static/foodstim60/avocado.jpg', 'key': 'i', 'origWidth': 409, 'origHeight': 409, 'width': 409, 'height': 409, 'widthPercent': 0.45, 'rescaleHeight': False, 'trialN': 96, 'loaded': True, 'loadedTime': 1768.7999999998137, 'positionName': 'RIGHT', 'positionCoords': [832, 245.5], 'bid': 3.92}]",207391.5,1669847312372,orange slices,avocado,7.75,3.92,-3.83,orange slices,1384.7999999998137,1385,1384.8999999994412,True,u,209283.2999999998,1891.7999999998137,1669847314264,1892,HRV,HRV_0307,2022-11-30 22:30:58
97,"[{'imgObject': {}, 'id': 'edamame', 'src': '/static/foodstim60/edamame.jpg', 'key': 'u', 'origWidth': 409, 'origHeight': 410, 'width': 409, 'height': 410, 'widthPercent': 0.45, 'rescaleHeight': False, 'trialN': 97, 'loaded': True, 'loadedTime': 1856.5999999996275, 'positionName': 'LEFT', 'positionCoords': [359, 245], 'bid': 2.5500000000000003}, {'imgObject': {}, 'id': 'apple slices', 'src': '/static/foodstim60/apple slices.jpg', 'key': 'i', 'origWidth': 409, 'origHeight': 410, 'width': 409, 'height': 410, 'widthPercent': 0.45, 'rescaleHeight': False, 'trialN': 97, 'loaded': True, 'loadedTime': 1825.5, 'positionName': 'RIGHT', 'positionCoords': [832, 245], 'bid': 2.42}]",209283.39999999944,1669847314264,edamame,apple slices,2.5500000000000003,2.42,-0.13000000000000034,edamame,1004.4000000003725,1005,1004.6000000005588,True,u,210803.39999999944,1520.0,1669847315784,1520,HRV,HRV_0307,2022-11-30 22:30:58
98,"[{'imgObject': {}, 'id': 'raisin bran w milk', 'src': '/static/foodstim60/raisin bran w milk.jpg', 'key': 'u', 'origWidth': 411, 'origHeight': 411, 'width': 411, 'height': 411, 'widthPercent': 0.45, 'rescaleHeight': False, 'trialN': 98, 'loaded': True, 'loadedTime': 1835.3999999994412, 'positionName': 'LEFT', 'positionCoords': [357, 244.5], 'bid': 7.81}, {'imgObject': {}, 'id': 'burrito', 'src': '/static/foodstim60/burrito.jpg', 'key': 'i', 'origWidth': 410, 'origHeight': 410, 'width': 410, 'height': 410, 'widthPercent': 0.45, 'rescaleHeight': False, 'trialN': 98, 'loaded': True, 'loadedTime': 1762.8999999994412, 'positionName': 'RIGHT', 'positionCoords': [832, 245], 'bid': 8.52}]",210803.59999999963,1669847315784,raisin bran w milk,burrito,7.81,8.52,0.71,burrito,844.0999999996275,845,844.4000000003725,True,i,212162.09999999963,1358.5,1669847317143,1359,HRV,HRV_0307,2022-11-30 22:30:58
99,"[{'imgObject': {}, 'id': 'lox', 'src': '/static/foodstim60/lox.jpg', 'key': 'u', 'origWidth': 410, 'origHeight': 411, 'width': 410, 'height': 411, 'widthPercent': 0.45, 'rescaleHeight': False, 'trialN': 99, 'loaded': True, 'loadedTime': 1718, 'positionName': 'LEFT', 'positionCoords': [358, 244.5], 'bid': 7.33}, {'imgObject': {}, 'id': 'raisin bran w milk', 'src': '/static/foodstim60/raisin bran w milk.jpg', 'key': 'i', 'origWidth': 411, 'origHeight': 411, 'width': 411, 'height': 411, 'widthPercent': 0.45, 'rescaleHeight': False, 'trialN': 99, 'loaded': True, 'loadedTime': 1840.199999999255, 'positionName': 'RIGHT', 'positionCoords': [832, 244.5], 'bid': 7.81}]",212162.2999999998,1669847317143,lox,raisin bran w milk,7.33,7.81,0.47999999999999954,raisin bran w milk,861.3999999994412,862,861.7000000001863,True,i,213532.69999999925,1370.3999999994412,1669847318513,1370,HRV,HRV_0307,2022-11-30 22:30:58
100,"[{'imgObject': {}, 'id': 'omelette', 'src': '/static/foodstim60/omelette.jpg', 'key': 'u', 'origWidth': 410, 'origHeight': 409, 'width': 410, 'height': 409, 'widthPercent': 0.45, 'rescaleHeight': False, 'trialN': 100, 'loaded': True, 'loadedTime': 1760.0999999996275, 'positionName': 'LEFT', 'positionCoords': [358, 245.5], 'bid': 5.0200000000000005}, {'imgObject': {}, 'id': 'strawberries', 'src': '/static/foodstim60/strawberries.jpg', 'key': 'i', 'origWidth': 410, 'origHeight': 410, 'width': 410, 'height': 410, 'widthPercent': 0.45, 'rescaleHeight': False, 'trialN': 100, 'loaded': True, 'loadedTime': 1833.5, 'positionName': 'RIGHT', 'positionCoords': [832, 245], 'bid': 5.12}]",213532.7999999998,1669847318513,omelette,strawberries,5.0200000000000005,5.12,0.09999999999999964,omelette,1307,1308,1307.2000000001863,True,u,215352.69999999925,1819.8999999994412,1669847320333,1820,HRV,HRV_0307,2022-11-30 22:30:58
101,"[{'imgObject': {}, 'id': 'mango', 'src': '/static/foodstim60/mango.jpg', 'key': 'u', 'origWidth': 411, 'origHeight': 411, 'width': 411, 'height': 411, 'widthPercent': 0.45, 'rescaleHeight': False, 'trialN': 101, 'loaded': True, 'loadedTime': 1743.3999999994412, 'positionName': 'LEFT', 'positionCoords': [357, 244.5], 'bid': 6.38}, {'imgObject': {}, 'id': 'chickenfingers', 'src': '/static/foodstim60/chickenfingers.jpg', 'key': 'i', 'origWidth': 410, 'origHeight': 410, 'width': 410, 'height': 410, 'widthPercent': 0.45, 'rescaleHeight': False, 'trialN': 101, 'loaded': True, 'loadedTime': 1713.5, 'positionName': 'RIGHT', 'positionCoords': [832, 245], 'bid': 6.66}]",215352.7999999998,1669847320333,mango,chickenfingers,6.38,6.66,0.28000000000000025,chickenfingers,879,880,879.2000000001863,True,i,216740.39999999944,1387.5999999996275,1669847321721,1388,HRV,HRV_0307,2022-11-30 22:30:58
102,"[{'imgObject': {}, 'id': 'roastedpotatoes', 'src': '/static/foodstim60/roastedpotatoes.jpg', 'key': 'u', 'origWidth': 409, 'origHeight': 410, 'width': 409, 'height': 410, 'widthPercent': 0.45, 'rescaleHeight': False, 'trialN': 102, 'loaded': True, 'loadedTime': 1810.0999999996275, 'positionName': 'LEFT', 'positionCoords': [359, 245], 'bid': 6.63}, {'imgObject': {}, 'id': 'eggs', 'src': '/static/foodstim60/eggs.jpg', 'key': 'i', 'origWidth': 409, 'origHeight': 409, 'width': 409, 'height': 409, 'widthPercent': 0.45, 'rescaleHeight': False, 'trialN': 102, 'loaded': True, 'loadedTime': 1848.2999999998137, 'positionName': 'RIGHT', 'positionCoords': [832, 245.5], 'bid': 5.16}]",216740.59999999963,1669847321721,roastedpotatoes,eggs,6.63,5.16,-1.4699999999999998,roastedpotatoes,1003.2000000001863,1004,1003.4000000003725,True,u,218263.59999999963,1523.0,1669847323244,1523,HRV,HRV_0307,2022-11-30 22:30:58
103,"[{'imgObject': {}, 'id': 'sweetpotato', 'src': '/static/foodstim60/sweetpotato.jpg', 'key': 'u', 'origWidth': 410, 'origHeight': 410, 'width': 410, 'height': 410, 'widthPercent': 0.45, 'rescaleHeight': False, 'trialN': 103, 'loaded': True, 'loadedTime': 1796.8999999994412, 'positionName': 'LEFT', 'positionCoords': [358, 245], 'bid': 6.88}, {'imgObject': {}, 'id': 'cheerios', 'src': '/static/foodstim60/cheerios.jpg', 'key': 'i', 'origWidth': 409, 'origHeight': 410, 'width': 409, 'height': 410, 'widthPercent': 0.45, 'rescaleHeight': False, 'trialN': 103, 'loaded': True, 'loadedTime': 1841.699999999255, 'positionName': 'RIGHT', 'positionCoords': [832, 245], 'bid': 5.1000000000000005}]",218263.69999999925,1669847323244,sweetpotato,cheerios,6.88,5.1000000000000005,-1.7799999999999994,sweetpotato,1704.4000000003725,1705,1704.6000000005588,True,u,220475.39999999944,2211.7000000001863,1669847325456,2212,HRV,HRV_0307,2022-11-30 22:30:58
104,"[{'imgObject': {}, 'id': 'popsicles', 'src': '/static/foodstim60/popsicles.jpg', 'key': 'u', 'origWidth': 410, 'origHeight': 410, 'width': 410, 'height': 410, 'widthPercent': 0.45, 'rescaleHeight': False, 'trialN': 104, 'loaded': True, 'loadedTime': 1866.5999999996275, 'positionName': 'LEFT', 'positionCoords': [358, 245], 'bid': 8.42}, {'imgObject': {}, 'id': 'tacos', 'src': '/static/foodstim60/tacos.jpg', 'key': 'i', 'origWidth': 411, 'origHeight': 411, 'width': 411, 'height': 411, 'widthPercent': 0.45, 'rescaleHeight': False, 'trialN': 104, 'loaded': True, 'loadedTime': 1789.2999999998137, 'positionName': 'RIGHT', 'positionCoords': [832, 244.5], 'bid': 8.27}]",220475.59999999963,1669847325456,popsicles,tacos,8.42,8.27,-0.15000000000000036,tacos,836.2000000001863,837,836.4000000003725,True,i,221817.69999999925,1342.0999999996275,1669847326798,1342,HRV,HRV_0307,2022-11-30 22:30:58
105,"[{'imgObject': {}, 'id': 'blackbeanswithrice', 'src': '/static/foodstim60/blackbeanswithrice.jpg', 'key': 'u', 'origWidth': 410, 'origHeight': 410, 'width': 410, 'height': 410, 'widthPercent': 0.45, 'rescaleHeight': False, 'trialN': 105, 'loaded': True, 'loadedTime': 1858, 'positionName': 'LEFT', 'positionCoords': [358, 245], 'bid': 2.13}, {'imgObject': {}, 'id': 'hotdog w must', 'src': '/static/foodstim60/hotdog w must.jpg', 'key': 'i', 'origWidth': 409, 'origHeight': 409, 'width': 409, 'height': 409, 'widthPercent': 0.45, 'rescaleHeight': False, 'trialN': 105, 'loaded': True, 'loadedTime': 1768.199999999255, 'positionName': 'RIGHT', 'positionCoords': [832, 245.5], 'bid': 3.77}]",221817.7999999998,1669847326798,blackbeanswithrice,hotdog w must,2.13,3.77,1.6400000000000001,hotdog w must,862,863,862.2000000001863,True,i,223187.59999999963,1369.7999999998137,1669847328168,1370,HRV,HRV_0307,2022-11-30 22:30:58
106,"[{'imgObject': {}, 'id': 'orange slices', 'src': '/static/foodstim60/orange slices.jpg', 'key': 'u', 'origWidth': 409, 'origHeight': 410, 'width': 409, 'height': 410, 'widthPercent': 0.45, 'rescaleHeight': False, 'trialN': 106, 'loaded': True, 'loadedTime': 1829.5, 'positionName': 'LEFT', 'positionCoords': [359, 245], 'bid': 7.75}, {'imgObject': {}, 'id': 'shreddedwheatwithmilk', 'src': '/static/foodstim60/shreddedwheatwithmilk.jpg', 'key': 'i', 'origWidth': 410, 'origHeight': 410, 'width': 410, 'height': 410, 'widthPercent': 0.45, 'rescaleHeight': False, 'trialN': 106, 'loaded': True, 'loadedTime': 1747.7999999998137, 'positionName': 'RIGHT', 'positionCoords': [832, 245], 'bid': 7.67}]",223187.7999999998,1669847328168,orange slices,shreddedwheatwithmilk,7.75,7.67,-0.08000000000000007,shreddedwheatwithmilk,932,932,932.2999999998137,True,i,224638.0,1450.2000000001863,1669847329618,1450,HRV,HRV_0307,2022-11-30 22:30:58
107,"[{'imgObject': {}, 'id': 'apple slices', 'src': '/static/foodstim60/apple slices.jpg', 'key': 'u', 'origWidth': 409, 'origHeight': 410, 'width': 409, 'height': 410, 'widthPercent': 0.45, 'rescaleHeight': False, 'trialN': 107, 'loaded': True, 'loadedTime': 1825.0999999996275, 'positionName': 'LEFT', 'positionCoords': [359, 245], 'bid': 2.42}, {'imgObject': {}, 'id': 'steak', 'src': '/static/foodstim60/steak.jpg', 'key': 'i', 'origWidth': 410, 'origHeight': 410, 'width': 410, 'height': 410, 'widthPercent': 0.45, 'rescaleHeight': False, 'trialN': 107, 'loaded': True, 'loadedTime': 1743.7999999998137, 'positionName': 'RIGHT', 'positionCoords': [832, 245], 'bid': 4.97}]",224638.19999999925,1669847329618,apple slices,steak,2.42,4.97,2.55,steak,825.6000000005588,826,825.8000000007451,True,i,225980.69999999925,1342.5,1669847330961,1343,HRV,HRV_0307,2022-11-30 22:30:58
108,"[{'imgObject': {}, 'id': 'rigatoni and sauce', 'src': '/static/foodstim60/rigatoni and sauce.jpg', 'key': 'u', 'origWidth': 410, 'origHeight': 411, 'width': 410, 'height': 411, 'widthPercent': 0.45, 'rescaleHeight': False, 'trialN': 108, 'loaded': True, 'loadedTime': 1797.5999999996275, 'positionName': 'LEFT', 'positionCoords': [358, 244.5], 'bid': 4.96}, {'imgObject': {}, 'id': 'froot loops w milk', 'src': '/static/foodstim60/froot loops w milk.jpg', 'key': 'i', 'origWidth': 410, 'origHeight': 410, 'width': 410, 'height': 410, 'widthPercent': 0.45, 'rescaleHeight': False, 'trialN': 108, 'loaded': True, 'loadedTime': 1864.199999999255, 'positionName': 'RIGHT', 'positionCoords': [832, 245], 'bid': 7.95}]",225980.7999999998,1669847330961,rigatoni and sauce,froot loops w milk,4.96,7.95,2.99,rigatoni and sauce,1507,1507,1507.2000000001863,True,u,227994.2999999998,2013.5,1669847332974,2013,HRV,HRV_0307,2022-11-30 22:30:58
