trialN,stimuli,trialStartTime,trialStartTime_UNIX,stimulus1,stimulus2,stimulus1Bid,stimulus2Bid,delta,selected,rt,rt_UNIX,rt_perfnow,receivedResponse,rsp,trialEndTime,trialDuration,trialEndTime_UNIX,trialDuration_UNIX,exp,subjectId,date
0,"[{'imgObject': {}, 'id': 'rigatoni', 'src': '/static/foodstim60/rigatoni.jpg', 'key': 'u', 'origWidth': 411, 'origHeight': 411, 'width': 411, 'height': 411, 'widthPercent': 0.45, 'rescaleHeight': False, 'trialN': 0, 'loaded': True, 'loadedTime': 4111.4000000003725, 'positionName': 'LEFT', 'positionCoords': [185.16, 143.5], 'bid': 1.6}, {'imgObject': {}, 'id': 'hashbrowns', 'src': '/static/foodstim60/hashbrowns.jpg', 'key': 'i', 'origWidth': 411, 'origHeight': 410, 'width': 411, 'height': 410, 'widthPercent': 0.45, 'rescaleHeight': False, 'trialN': 0, 'loaded': True, 'loadedTime': 4116.700000001118, 'positionName': 'RIGHT', 'positionCoords': [645.84, 144], 'bid': 7.0600000000000005}]",4607.5,1669832347812,rigatoni,hashbrowns,1.6,7.0600000000000005,5.460000000000001,hashbrowns,2511.800000000745,2515,2515.300000000745,True,i,7628.0,3020.5,1669832350833,3021,HRV,HRV_0161,2022-11-30 18:24:32
1,"[{'imgObject': {}, 'id': 'tacos', 'src': '/static/foodstim60/tacos.jpg', 'key': 'u', 'origWidth': 411, 'origHeight': 411, 'width': 411, 'height': 411, 'widthPercent': 0.45, 'rescaleHeight': False, 'trialN': 1, 'loaded': True, 'loadedTime': 4117.9000000003725, 'positionName': 'LEFT', 'positionCoords': [185.16, 143.5], 'bid': 9.42}, {'imgObject': {}, 'id': 'mashed potato', 'src': '/static/foodstim60/mashed potato.jpg', 'key': 'i', 'origWidth': 409, 'origHeight': 409, 'width': 409, 'height': 409, 'widthPercent': 0.45, 'rescaleHeight': False, 'trialN': 1, 'loaded': True, 'loadedTime': 4126.9000000003725, 'positionName': 'RIGHT', 'positionCoords': [645.84, 144.5], 'bid': 1.6}]",7628.4000000003725,1669832350833,tacos,mashed potato,9.42,1.6,-7.82,tacos,1064.5,1065,1064.9000000003725,True,u,9201.300000000745,1572.9000000003725,1669832352406,1573,HRV,HRV_0161,2022-11-30 18:24:32
2,"[{'imgObject': {}, 'id': 'chicken nuggets2', 'src': '/static/foodstim60/chicken nuggets2.jpg', 'key': 'u', 'origWidth': 410, 'origHeight': 409, 'width': 410, 'height': 409, 'widthPercent': 0.45, 'rescaleHeight': False, 'trialN': 2, 'loaded': True, 'loadedTime': 4129.60000000149, 'positionName': 'LEFT', 'positionCoords': [186.16, 144.5], 'bid': 1.57}, {'imgObject': {}, 'id': 'rigatoni', 'src': '/static/foodstim60/rigatoni.jpg', 'key': 'i', 'origWidth': 411, 'origHeight': 411, 'width': 411, 'height': 411, 'widthPercent': 0.45, 'rescaleHeight': False, 'trialN': 2, 'loaded': True, 'loadedTime': 4110.60000000149, 'positionName': 'RIGHT', 'positionCoords': [645.84, 143.5], 'bid': 1.6}]",9201.700000001118,1669832352406,chicken nuggets2,rigatoni,1.57,1.6,0.030000000000000027,chicken nuggets2,1608.0,1609,1608.2999999988824,True,u,11318.10000000149,2116.4000000003725,1669832354523,2117,HRV,HRV_0161,2022-11-30 18:24:32
3,"[{'imgObject': {}, 'id': 'popsicles', 'src': '/static/foodstim60/popsicles.jpg', 'key': 'u', 'origWidth': 410, 'origHeight': 410, 'width': 410, 'height': 410, 'widthPercent': 0.45, 'rescaleHeight': False, 'trialN': 3, 'loaded': True, 'loadedTime': 4592.300000000745, 'positionName': 'LEFT', 'positionCoords': [186.16, 144], 'bid': 0.21}, {'imgObject': {}, 'id': 'avocado', 'src': '/static/foodstim60/avocado.jpg', 'key': 'i', 'origWidth': 409, 'origHeight': 409, 'width': 409, 'height': 409, 'widthPercent': 0.45, 'rescaleHeight': False, 'trialN': 3, 'loaded': True, 'loadedTime': 4175.700000001118, 'positionName': 'RIGHT', 'positionCoords': [645.84, 144.5], 'bid': 4.14}]",11318.400000000373,1669832354523,popsicles,avocado,0.21,4.14,3.9299999999999997,avocado,1838.5,1839,1838.7000000011176,True,i,13670.300000000745,2351.9000000003725,1669832356875,2352,HRV,HRV_0161,2022-11-30 18:24:32
4,"[{'imgObject': {}, 'id': 'steak', 'src': '/static/foodstim60/steak.jpg', 'key': 'u', 'origWidth': 410, 'origHeight': 410, 'width': 410, 'height': 410, 'widthPercent': 0.45, 'rescaleHeight': False, 'trialN': 4, 'loaded': True, 'loadedTime': 4195, 'positionName': 'LEFT', 'positionCoords': [186.16, 144], 'bid': 8.94}, {'imgObject': {}, 'id': 'pear', 'src': '/static/foodstim60/pear.jpg', 'key': 'i', 'origWidth': 411, 'origHeight': 410, 'width': 411, 'height': 410, 'widthPercent': 0.45, 'rescaleHeight': False, 'trialN': 4, 'loaded': True, 'loadedTime': 4195.10000000149, 'positionName': 'RIGHT', 'positionCoords': [645.84, 144], 'bid': 9.79}]",13670.60000000149,1669832356875,steak,pear,8.94,9.79,0.8499999999999996,steak,1357.2999999988824,1358,1358.0999999996275,True,u,15534.700000001118,1864.0999999996275,1669832358739,1864,HRV,HRV_0161,2022-11-30 18:24:32
5,"[{'imgObject': {}, 'id': 'edamame', 'src': '/static/foodstim60/edamame.jpg', 'key': 'u', 'origWidth': 409, 'origHeight': 410, 'width': 409, 'height': 410, 'widthPercent': 0.45, 'rescaleHeight': False, 'trialN': 5, 'loaded': True, 'loadedTime': 4215.4000000003725, 'positionName': 'LEFT', 'positionCoords': [187.16, 144], 'bid': 7.0200000000000005}, {'imgObject': {}, 'id': 'kiwi', 'src': '/static/foodstim60/kiwi.jpg', 'key': 'i', 'origWidth': 410, 'origHeight': 410, 'width': 410, 'height': 410, 'widthPercent': 0.45, 'rescaleHeight': False, 'trialN': 5, 'loaded': True, 'loadedTime': 4232.60000000149, 'positionName': 'RIGHT', 'positionCoords': [645.84, 144], 'bid': 9.86}]",15535.0,1669832358740,edamame,kiwi,7.0200000000000005,9.86,2.839999999999999,kiwi,1245.0,1245,1245.300000000745,True,i,17287.10000000149,1752.1000000014901,1669832360492,1752,HRV,HRV_0161,2022-11-30 18:24:32
6,"[{'imgObject': {}, 'id': 'chicken nuggets2', 'src': '/static/foodstim60/chicken nuggets2.jpg', 'key': 'u', 'origWidth': 410, 'origHeight': 409, 'width': 410, 'height': 409, 'widthPercent': 0.45, 'rescaleHeight': False, 'trialN': 6, 'loaded': True, 'loadedTime': 4130, 'positionName': 'LEFT', 'positionCoords': [186.16, 144.5], 'bid': 1.57}, {'imgObject': {}, 'id': 'Grapes', 'src': '/static/foodstim60/Grapes.jpg', 'key': 'i', 'origWidth': 411, 'origHeight': 411, 'width': 411, 'height': 411, 'widthPercent': 0.45, 'rescaleHeight': False, 'trialN': 6, 'loaded': True, 'loadedTime': 4236.9000000003725, 'positionName': 'RIGHT', 'positionCoords': [645.84, 143.5], 'bid': 8.97}]",17287.5,1669832360492,chicken nuggets2,Grapes,1.57,8.97,7.4,Grapes,1341.800000000745,1342,1342.1000000014901,True,i,19144.800000000745,1857.300000000745,1669832362349,1857,HRV,HRV_0161,2022-11-30 18:24:32
7,"[{'imgObject': {}, 'id': 'raisin bran w milk', 'src': '/static/foodstim60/raisin bran w milk.jpg', 'key': 'u', 'origWidth': 411, 'origHeight': 411, 'width': 411, 'height': 411, 'widthPercent': 0.45, 'rescaleHeight': False, 'trialN': 7, 'loaded': True, 'loadedTime': 4254.60000000149, 'positionName': 'LEFT', 'positionCoords': [185.16, 143.5], 'bid': 5.32}, {'imgObject': {}, 'id': 'blueberries', 'src': '/static/foodstim60/blueberries.jpg', 'key': 'i', 'origWidth': 411, 'origHeight': 411, 'width': 411, 'height': 411, 'widthPercent': 0.45, 'rescaleHeight': False, 'trialN': 7, 'loaded': True, 'loadedTime': 4255.5, 'positionName': 'RIGHT', 'positionCoords': [645.84, 143.5], 'bid': 9.86}]",19145.200000001118,1669832362350,raisin bran w milk,blueberries,5.32,9.86,4.539999999999999,blueberries,1236.9000000003725,1237,1237.199999999255,True,i,20893.800000000745,1748.5999999996275,1669832364098,1748,HRV,HRV_0161,2022-11-30 18:24:32
8,"[{'imgObject': {}, 'id': 'tacos', 'src': '/static/foodstim60/tacos.jpg', 'key': 'u', 'origWidth': 411, 'origHeight': 411, 'width': 411, 'height': 411, 'widthPercent': 0.45, 'rescaleHeight': False, 'trialN': 8, 'loaded': True, 'loadedTime': 4122.4000000003725, 'positionName': 'LEFT', 'positionCoords': [185.16, 143.5], 'bid': 9.42}, {'imgObject': {}, 'id': 'blueberries', 'src': '/static/foodstim60/blueberries.jpg', 'key': 'i', 'origWidth': 411, 'origHeight': 411, 'width': 411, 'height': 411, 'widthPercent': 0.45, 'rescaleHeight': False, 'trialN': 8, 'loaded': True, 'loadedTime': 4270.200000001118, 'positionName': 'RIGHT', 'positionCoords': [645.84, 143.5], 'bid': 9.86}]",20894.10000000149,1669832364099,tacos,blueberries,9.42,9.86,0.4399999999999995,blueberries,1424.5999999996275,1425,1424.8999999985099,True,i,22828.5,1934.3999999985099,1669832366033,1934,HRV,HRV_0161,2022-11-30 18:24:32
9,"[{'imgObject': {}, 'id': 'salad w chicken', 'src': '/static/foodstim60/salad w chicken.jpg', 'key': 'u', 'origWidth': 411, 'origHeight': 411, 'width': 411, 'height': 411, 'widthPercent': 0.45, 'rescaleHeight': False, 'trialN': 9, 'loaded': True, 'loadedTime': 4270.800000000745, 'positionName': 'LEFT', 'positionCoords': [185.16, 143.5], 'bid': 9.79}, {'imgObject': {}, 'id': 'roastedpotatoes', 'src': '/static/foodstim60/roastedpotatoes.jpg', 'key': 'i', 'origWidth': 409, 'origHeight': 410, 'width': 409, 'height': 410, 'widthPercent': 0.45, 'rescaleHeight': False, 'trialN': 9, 'loaded': True, 'loadedTime': 4279.200000001118, 'positionName': 'RIGHT', 'positionCoords': [645.84, 144], 'bid': 8.14}]",22828.800000000745,1669832366033,salad w chicken,roastedpotatoes,9.79,8.14,-1.6499999999999986,salad w chicken,1506.300000000745,1508,1506.5999999996275,True,u,24850.700000001118,2021.9000000003725,1669832368056,2023,HRV,HRV_0161,2022-11-30 18:24:32
10,"[{'imgObject': {}, 'id': 'olives', 'src': '/static/foodstim60/olives.jpg', 'key': 'u', 'origWidth': 410, 'origHeight': 410, 'width': 410, 'height': 410, 'widthPercent': 0.45, 'rescaleHeight': False, 'trialN': 10, 'loaded': True, 'loadedTime': 4288, 'positionName': 'LEFT', 'positionCoords': [186.16, 144], 'bid': 0.05}, {'imgObject': {}, 'id': 'blackbeanswithrice', 'src': '/static/foodstim60/blackbeanswithrice.jpg', 'key': 'i', 'origWidth': 410, 'origHeight': 410, 'width': 410, 'height': 410, 'widthPercent': 0.45, 'rescaleHeight': False, 'trialN': 10, 'loaded': True, 'loadedTime': 4295.5, 'positionName': 'RIGHT', 'positionCoords': [645.84, 144], 'bid': 0.18}]",24851.300000000745,1669832368056,olives,blackbeanswithrice,0.05,0.18,0.13,blackbeanswithrice,1421.300000000745,1422,1421.5999999996275,True,i,26791.60000000149,1940.300000000745,1669832369997,1941,HRV,HRV_0161,2022-11-30 18:24:32
11,"[{'imgObject': {}, 'id': 'rigatoni and sauce', 'src': '/static/foodstim60/rigatoni and sauce.jpg', 'key': 'u', 'origWidth': 410, 'origHeight': 411, 'width': 410, 'height': 411, 'widthPercent': 0.45, 'rescaleHeight': False, 'trialN': 11, 'loaded': True, 'loadedTime': 4309.5, 'positionName': 'LEFT', 'positionCoords': [186.16, 143.5], 'bid': 1.74}, {'imgObject': {}, 'id': 'orange slices', 'src': '/static/foodstim60/orange slices.jpg', 'key': 'i', 'origWidth': 409, 'origHeight': 410, 'width': 409, 'height': 410, 'widthPercent': 0.45, 'rescaleHeight': False, 'trialN': 11, 'loaded': True, 'loadedTime': 4312.700000001118, 'positionName': 'RIGHT', 'positionCoords': [645.84, 144], 'bid': 9.63}]",26792.10000000149,1669832369997,rigatoni and sauce,orange slices,1.74,9.63,7.890000000000001,orange slices,1061.0,1062,1061.699999999255,True,i,28365.200000001118,1573.0999999996275,1669832371570,1573,HRV,HRV_0161,2022-11-30 18:24:32
12,"[{'imgObject': {}, 'id': 'chickenfingers', 'src': '/static/foodstim60/chickenfingers.jpg', 'key': 'u', 'origWidth': 410, 'origHeight': 410, 'width': 410, 'height': 410, 'widthPercent': 0.45, 'rescaleHeight': False, 'trialN': 12, 'loaded': True, 'loadedTime': 4328.4000000003725, 'positionName': 'LEFT', 'positionCoords': [186.16, 144], 'bid': 8.28}, {'imgObject': {}, 'id': 'mac & cheese', 'src': '/static/foodstim60/mac & cheese.jpg', 'key': 'i', 'origWidth': 410, 'origHeight': 410, 'width': 410, 'height': 410, 'widthPercent': 0.45, 'rescaleHeight': False, 'trialN': 12, 'loaded': True, 'loadedTime': 4331.60000000149, 'positionName': 'RIGHT', 'positionCoords': [645.84, 144], 'bid': 7.01}]",28365.60000000149,1669832371571,chickenfingers,mac & cheese,8.28,7.01,-1.2699999999999996,chickenfingers,1376.2999999988824,1376,1376.5999999996275,True,u,30243.400000000373,1877.7999999988824,1669832373449,1878,HRV,HRV_0161,2022-11-30 18:24:32
13,"[{'imgObject': {}, 'id': 'burger', 'src': '/static/foodstim60/burger.jpg', 'key': 'u', 'origWidth': 409, 'origHeight': 409, 'width': 409, 'height': 409, 'widthPercent': 0.45, 'rescaleHeight': False, 'trialN': 13, 'loaded': True, 'loadedTime': 4347.4000000003725, 'positionName': 'LEFT', 'positionCoords': [187.16, 144.5], 'bid': 8.44}, {'imgObject': {}, 'id': 'luckycharms', 'src': '/static/foodstim60/luckycharms.jpg', 'key': 'i', 'origWidth': 410, 'origHeight': 409, 'width': 410, 'height': 409, 'widthPercent': 0.45, 'rescaleHeight': False, 'trialN': 13, 'loaded': True, 'loadedTime': 4347.60000000149, 'positionName': 'RIGHT', 'positionCoords': [645.84, 144.5], 'bid': 0.18}]",30243.60000000149,1669832373449,burger,luckycharms,8.44,0.18,-8.26,burger,1162.3999999985099,1163,1163.0,True,u,31917.10000000149,1673.5,1669832375122,1673,HRV,HRV_0161,2022-11-30 18:24:32
14,"[{'imgObject': {}, 'id': 'salmon', 'src': '/static/foodstim60/salmon.jpg', 'key': 'u', 'origWidth': 410, 'origHeight': 409, 'width': 410, 'height': 409, 'widthPercent': 0.45, 'rescaleHeight': False, 'trialN': 14, 'loaded': True, 'loadedTime': 4359.9000000003725, 'positionName': 'LEFT', 'positionCoords': [186.16, 144.5], 'bid': 0.26}, {'imgObject': {}, 'id': 'olives', 'src': '/static/foodstim60/olives.jpg', 'key': 'i', 'origWidth': 410, 'origHeight': 410, 'width': 410, 'height': 410, 'widthPercent': 0.45, 'rescaleHeight': False, 'trialN': 14, 'loaded': True, 'loadedTime': 4287.10000000149, 'positionName': 'RIGHT', 'positionCoords': [645.84, 144], 'bid': 0.05}]",31917.60000000149,1669832375123,salmon,olives,0.26,0.05,-0.21000000000000002,salmon,1607.0,1607,1607.3999999985099,True,u,34038.20000000112,2120.5999999996275,1669832377243,2120,HRV,HRV_0161,2022-11-30 18:24:32
15,"[{'imgObject': {}, 'id': 'seaweed', 'src': '/static/foodstim60/seaweed.jpg', 'key': 'u', 'origWidth': 410, 'origHeight': 410, 'width': 410, 'height': 410, 'widthPercent': 0.45, 'rescaleHeight': False, 'trialN': 15, 'loaded': True, 'loadedTime': 4371.9000000003725, 'positionName': 'LEFT', 'positionCoords': [186.16, 144], 'bid': 0.15}, {'imgObject': {}, 'id': 'burrito', 'src': '/static/foodstim60/burrito.jpg', 'key': 'i', 'origWidth': 410, 'origHeight': 410, 'width': 410, 'height': 410, 'widthPercent': 0.45, 'rescaleHeight': False, 'trialN': 15, 'loaded': True, 'loadedTime': 4375.5, 'positionName': 'RIGHT', 'positionCoords': [645.84, 144], 'bid': 0.15}]",34038.5,1669832377244,seaweed,burrito,0.15,0.15,0.0,burrito,1248.7000000011176,1249,1249.1000000014901,True,i,35796.800000000745,1758.300000000745,1669832379002,1758,HRV,HRV_0161,2022-11-30 18:24:32
16,"[{'imgObject': {}, 'id': 'strawberries', 'src': '/static/foodstim60/strawberries.jpg', 'key': 'u', 'origWidth': 410, 'origHeight': 410, 'width': 410, 'height': 410, 'widthPercent': 0.45, 'rescaleHeight': False, 'trialN': 16, 'loaded': True, 'loadedTime': 4375.9000000003725, 'positionName': 'LEFT', 'positionCoords': [186.16, 144], 'bid': 9.75}, {'imgObject': {}, 'id': 'avocado', 'src': '/static/foodstim60/avocado.jpg', 'key': 'i', 'origWidth': 409, 'origHeight': 409, 'width': 409, 'height': 409, 'widthPercent': 0.45, 'rescaleHeight': False, 'trialN': 16, 'loaded': True, 'loadedTime': 4178.10000000149, 'positionName': 'RIGHT', 'positionCoords': [645.84, 144.5], 'bid': 4.14}]",35797.10000000149,1669832379002,strawberries,avocado,9.75,4.14,-5.61,strawberries,1048.5,1049,1048.7999999988824,True,u,37354.40000000037,1557.2999999988824,1669832380560,1558,HRV,HRV_0161,2022-11-30 18:24:32
17,"[{'imgObject': {}, 'id': 'ice cream sundae 002', 'src': '/static/foodstim60/ice cream sundae 002.jpg', 'key': 'u', 'origWidth': 409, 'origHeight': 409, 'width': 409, 'height': 409, 'widthPercent': 0.45, 'rescaleHeight': False, 'trialN': 17, 'loaded': True, 'loadedTime': 4397.800000000745, 'positionName': 'LEFT', 'positionCoords': [187.16, 144.5], 'bid': 3.96}, {'imgObject': {}, 'id': 'chicken nuggets2', 'src': '/static/foodstim60/chicken nuggets2.jpg', 'key': 'i', 'origWidth': 410, 'origHeight': 409, 'width': 410, 'height': 409, 'widthPercent': 0.45, 'rescaleHeight': False, 'trialN': 17, 'loaded': True, 'loadedTime': 4129.9000000003725, 'positionName': 'RIGHT', 'positionCoords': [645.84, 144.5], 'bid': 1.57}]",37355.0,1669832380560,ice cream sundae 002,chicken nuggets2,3.96,1.57,-2.3899999999999997,ice cream sundae 002,1679.9000000003725,1681,1680.4000000003725,True,u,39547.800000000745,2192.800000000745,1669832382753,2193,HRV,HRV_0161,2022-11-30 18:24:32
18,"[{'imgObject': {}, 'id': 'mac & cheese', 'src': '/static/foodstim60/mac & cheese.jpg', 'key': 'u', 'origWidth': 410, 'origHeight': 410, 'width': 410, 'height': 410, 'widthPercent': 0.45, 'rescaleHeight': False, 'trialN': 18, 'loaded': True, 'loadedTime': 4332.4000000003725, 'positionName': 'LEFT', 'positionCoords': [186.16, 144], 'bid': 7.01}, {'imgObject': {}, 'id': 'edamame', 'src': '/static/foodstim60/edamame.jpg', 'key': 'i', 'origWidth': 409, 'origHeight': 410, 'width': 409, 'height': 410, 'widthPercent': 0.45, 'rescaleHeight': False, 'trialN': 18, 'loaded': True, 'loadedTime': 4213.5, 'positionName': 'RIGHT', 'positionCoords': [645.84, 144], 'bid': 7.0200000000000005}]",39548.20000000112,1669832382753,mac & cheese,edamame,7.01,7.0200000000000005,0.010000000000000675,edamame,1976.2999999988824,1977,1976.699999999255,True,i,42026.70000000112,2478.5,1669832385232,2479,HRV,HRV_0161,2022-11-30 18:24:32
19,"[{'imgObject': {}, 'id': 'orange slices', 'src': '/static/foodstim60/orange slices.jpg', 'key': 'u', 'origWidth': 409, 'origHeight': 410, 'width': 409, 'height': 410, 'widthPercent': 0.45, 'rescaleHeight': False, 'trialN': 19, 'loaded': True, 'loadedTime': 4312.200000001118, 'positionName': 'LEFT', 'positionCoords': [187.16, 144], 'bid': 9.63}, {'imgObject': {}, 'id': 'sweetpotato', 'src': '/static/foodstim60/sweetpotato.jpg', 'key': 'i', 'origWidth': 410, 'origHeight': 410, 'width': 410, 'height': 410, 'widthPercent': 0.45, 'rescaleHeight': False, 'trialN': 19, 'loaded': True, 'loadedTime': 4401.200000001118, 'positionName': 'RIGHT', 'positionCoords': [645.84, 144], 'bid': 9.68}]",42026.90000000037,1669832385232,orange slices,sweetpotato,9.63,9.68,0.049999999999998934,orange slices,872.9000000003725,873,873.2000000011176,True,u,43413.40000000037,1386.5,1669832386618,1386,HRV,HRV_0161,2022-11-30 18:24:32
20,"[{'imgObject': {}, 'id': 'salmon', 'src': '/static/foodstim60/salmon.jpg', 'key': 'u', 'origWidth': 410, 'origHeight': 409, 'width': 410, 'height': 409, 'widthPercent': 0.45, 'rescaleHeight': False, 'trialN': 20, 'loaded': True, 'loadedTime': 4351.5, 'positionName': 'LEFT', 'positionCoords': [186.16, 144.5], 'bid': 0.26}, {'imgObject': {}, 'id': 'shreddedwheatwithmilk', 'src': '/static/foodstim60/shreddedwheatwithmilk.jpg', 'key': 'i', 'origWidth': 410, 'origHeight': 410, 'width': 410, 'height': 410, 'widthPercent': 0.45, 'rescaleHeight': False, 'trialN': 20, 'loaded': True, 'loadedTime': 4416.10000000149, 'positionName': 'RIGHT', 'positionCoords': [645.84, 144], 'bid': 1.47}]",43413.5,1669832386619,salmon,shreddedwheatwithmilk,0.26,1.47,1.21,shreddedwheatwithmilk,1836.5,1836,1836.800000000745,True,i,45769.300000000745,2355.800000000745,1669832388974,2355,HRV,HRV_0161,2022-11-30 18:24:32
21,"[{'imgObject': {}, 'id': 'chicken nuggets2', 'src': '/static/foodstim60/chicken nuggets2.jpg', 'key': 'u', 'origWidth': 410, 'origHeight': 409, 'width': 410, 'height': 409, 'widthPercent': 0.45, 'rescaleHeight': False, 'trialN': 21, 'loaded': True, 'loadedTime': 4129.800000000745, 'positionName': 'LEFT', 'positionCoords': [186.16, 144.5], 'bid': 1.57}, {'imgObject': {}, 'id': 'edamame', 'src': '/static/foodstim60/edamame.jpg', 'key': 'i', 'origWidth': 409, 'origHeight': 410, 'width': 409, 'height': 410, 'widthPercent': 0.45, 'rescaleHeight': False, 'trialN': 21, 'loaded': True, 'loadedTime': 4215.800000000745, 'positionName': 'RIGHT', 'positionCoords': [645.84, 144], 'bid': 7.0200000000000005}]",45769.70000000112,1669832388975,chicken nuggets2,edamame,1.57,7.0200000000000005,5.45,edamame,1744.9000000003725,1745,1745.199999999255,True,i,48032.20000000112,2262.5,1669832391237,2262,HRV,HRV_0161,2022-11-30 18:24:32
22,"[{'imgObject': {}, 'id': 'luckycharms', 'src': '/static/foodstim60/luckycharms.jpg', 'key': 'u', 'origWidth': 410, 'origHeight': 409, 'width': 410, 'height': 409, 'widthPercent': 0.45, 'rescaleHeight': False, 'trialN': 22, 'loaded': True, 'loadedTime': 4350.10000000149, 'positionName': 'LEFT', 'positionCoords': [186.16, 144.5], 'bid': 0.18}, {'imgObject': {}, 'id': 'granola w milk', 'src': '/static/foodstim60/granola w milk.jpg', 'key': 'i', 'origWidth': 410, 'origHeight': 410, 'width': 410, 'height': 410, 'widthPercent': 0.45, 'rescaleHeight': False, 'trialN': 22, 'loaded': True, 'loadedTime': 4420.300000000745, 'positionName': 'RIGHT', 'positionCoords': [645.84, 144], 'bid': 4.98}]",48032.40000000037,1669832391238,luckycharms,granola w milk,0.18,4.98,4.800000000000001,granola w milk,2302.300000000745,2302,2302.7000000011176,True,i,50857.300000000745,2824.9000000003725,1669832394062,2824,HRV,HRV_0161,2022-11-30 18:24:32
23,"[{'imgObject': {}, 'id': 'cheerios', 'src': '/static/foodstim60/cheerios.jpg', 'key': 'u', 'origWidth': 409, 'origHeight': 410, 'width': 409, 'height': 410, 'widthPercent': 0.45, 'rescaleHeight': False, 'trialN': 23, 'loaded': True, 'loadedTime': 4440.4000000003725, 'positionName': 'LEFT', 'positionCoords': [187.16, 144], 'bid': 2.06}, {'imgObject': {}, 'id': 'blackbeanswithrice', 'src': '/static/foodstim60/blackbeanswithrice.jpg', 'key': 'i', 'origWidth': 410, 'origHeight': 410, 'width': 410, 'height': 410, 'widthPercent': 0.45, 'rescaleHeight': False, 'trialN': 23, 'loaded': True, 'loadedTime': 4296.300000000745, 'positionName': 'RIGHT', 'positionCoords': [645.84, 144], 'bid': 0.18}]",50857.70000000112,1669832394063,cheerios,blackbeanswithrice,2.06,0.18,-1.8800000000000001,cheerios,1344.199999999255,1345,1344.7999999988824,True,u,52715.5,1857.7999999988824,1669832395921,1858,HRV,HRV_0161,2022-11-30 18:24:32
24,"[{'imgObject': {}, 'id': 'cherries', 'src': '/static/foodstim60/cherries.jpg', 'key': 'u', 'origWidth': 410, 'origHeight': 411, 'width': 410, 'height': 411, 'widthPercent': 0.45, 'rescaleHeight': False, 'trialN': 24, 'loaded': True, 'loadedTime': 4443.300000000745, 'positionName': 'LEFT', 'positionCoords': [186.16, 143.5], 'bid': 9.87}, {'imgObject': {}, 'id': 'apple slices', 'src': '/static/foodstim60/apple slices.jpg', 'key': 'i', 'origWidth': 409, 'origHeight': 410, 'width': 409, 'height': 410, 'widthPercent': 0.45, 'rescaleHeight': False, 'trialN': 24, 'loaded': True, 'loadedTime': 4449.800000000745, 'positionName': 'RIGHT', 'positionCoords': [645.84, 144], 'bid': 9.89}]",52715.800000000745,1669832395921,cherries,apple slices,9.87,9.89,0.02000000000000135,cherries,1156.800000000745,1157,1157.0999999996275,True,u,54382.60000000149,1666.800000000745,1669832397588,1667,HRV,HRV_0161,2022-11-30 18:24:32
25,"[{'imgObject': {}, 'id': 'eggs', 'src': '/static/foodstim60/eggs.jpg', 'key': 'u', 'origWidth': 409, 'origHeight': 409, 'width': 409, 'height': 409, 'widthPercent': 0.45, 'rescaleHeight': False, 'trialN': 25, 'loaded': True, 'loadedTime': 4452.10000000149, 'positionName': 'LEFT', 'positionCoords': [187.16, 144.5], 'bid': 8.78}, {'imgObject': {}, 'id': 'baked potato', 'src': '/static/foodstim60/baked potato.jpg', 'key': 'i', 'origWidth': 409, 'origHeight': 410, 'width': 409, 'height': 410, 'widthPercent': 0.45, 'rescaleHeight': False, 'trialN': 25, 'loaded': True, 'loadedTime': 4459.5, 'positionName': 'RIGHT', 'positionCoords': [645.84, 144], 'bid': 7.54}]",54383.0,1669832397588,eggs,baked potato,8.78,7.54,-1.2399999999999993,eggs,1199.4000000003725,1200,1200.1000000014901,True,u,56096.5,1713.5,1669832399302,1714,HRV,HRV_0161,2022-11-30 18:24:32
26,"[{'imgObject': {}, 'id': 'turkey sandwich', 'src': '/static/foodstim60/turkey sandwich.jpg', 'key': 'u', 'origWidth': 409, 'origHeight': 409, 'width': 409, 'height': 409, 'widthPercent': 0.45, 'rescaleHeight': False, 'trialN': 26, 'loaded': True, 'loadedTime': 4460.200000001118, 'positionName': 'LEFT', 'positionCoords': [187.16, 144.5], 'bid': 9.28}, {'imgObject': {}, 'id': 'banana', 'src': '/static/foodstim60/banana.jpg', 'key': 'i', 'origWidth': 410, 'origHeight': 410, 'width': 410, 'height': 410, 'widthPercent': 0.45, 'rescaleHeight': False, 'trialN': 26, 'loaded': True, 'loadedTime': 4465.800000000745, 'positionName': 'RIGHT', 'positionCoords': [645.84, 144], 'bid': 9.86}]",56096.800000000745,1669832399302,turkey sandwich,banana,9.28,9.86,0.5800000000000001,banana,1572.5,1573,1572.9000000003725,True,i,58174.90000000037,2078.0999999996275,1669832401380,2078,HRV,HRV_0161,2022-11-30 18:24:32
27,"[{'imgObject': {}, 'id': 'blackbeanswithrice', 'src': '/static/foodstim60/blackbeanswithrice.jpg', 'key': 'u', 'origWidth': 410, 'origHeight': 410, 'width': 410, 'height': 410, 'widthPercent': 0.45, 'rescaleHeight': False, 'trialN': 27, 'loaded': True, 'loadedTime': 4294, 'positionName': 'LEFT', 'positionCoords': [186.16, 144], 'bid': 0.18}, {'imgObject': {}, 'id': 'luckycharms', 'src': '/static/foodstim60/luckycharms.jpg', 'key': 'i', 'origWidth': 410, 'origHeight': 409, 'width': 410, 'height': 409, 'widthPercent': 0.45, 'rescaleHeight': False, 'trialN': 27, 'loaded': True, 'loadedTime': 4349.9000000003725, 'positionName': 'RIGHT', 'positionCoords': [645.84, 144.5], 'bid': 0.18}]",58175.300000000745,1669832401380,blackbeanswithrice,luckycharms,0.18,0.18,0.0,blackbeanswithrice,1168.4000000003725,1169,1168.699999999255,True,u,59857.0,1681.699999999255,1669832403062,1682,HRV,HRV_0161,2022-11-30 18:24:32
28,"[{'imgObject': {}, 'id': 'sushi w_condiments', 'src': '/static/foodstim60/sushi w_condiments.jpg', 'key': 'u', 'origWidth': 410, 'origHeight': 410, 'width': 410, 'height': 410, 'widthPercent': 0.45, 'rescaleHeight': False, 'trialN': 28, 'loaded': True, 'loadedTime': 4466.4000000003725, 'positionName': 'LEFT', 'positionCoords': [186.16, 144], 'bid': 0.1}, {'imgObject': {}, 'id': 'cheerios', 'src': '/static/foodstim60/cheerios.jpg', 'key': 'i', 'origWidth': 409, 'origHeight': 410, 'width': 409, 'height': 410, 'widthPercent': 0.45, 'rescaleHeight': False, 'trialN': 28, 'loaded': True, 'loadedTime': 4440.10000000149, 'positionName': 'RIGHT', 'positionCoords': [645.84, 144], 'bid': 2.06}]",59857.300000000745,1669832403062,sushi w_condiments,cheerios,0.1,2.06,1.96,cheerios,1064.199999999255,1065,1064.5999999996275,True,i,61427.70000000112,1570.4000000003725,1669832404633,1571,HRV,HRV_0161,2022-11-30 18:24:32
29,"[{'imgObject': {}, 'id': 'cocktailshrimp', 'src': '/static/foodstim60/cocktailshrimp.jpg', 'key': 'u', 'origWidth': 410, 'origHeight': 410, 'width': 410, 'height': 410, 'widthPercent': 0.45, 'rescaleHeight': False, 'trialN': 29, 'loaded': True, 'loadedTime': 4488.5, 'positionName': 'LEFT', 'positionCoords': [186.16, 144], 'bid': 9.86}, {'imgObject': {}, 'id': 'mac & cheese', 'src': '/static/foodstim60/mac & cheese.jpg', 'key': 'i', 'origWidth': 410, 'origHeight': 410, 'width': 410, 'height': 410, 'widthPercent': 0.45, 'rescaleHeight': False, 'trialN': 29, 'loaded': True, 'loadedTime': 4330.700000001118, 'positionName': 'RIGHT', 'positionCoords': [645.84, 144], 'bid': 7.01}]",61428.10000000149,1669832404633,cocktailshrimp,mac & cheese,9.86,7.01,-2.8499999999999996,cocktailshrimp,1204.199999999255,1205,1204.5,True,u,63141.800000000745,1713.699999999255,1669832406347,1714,HRV,HRV_0161,2022-11-30 18:24:32
30,"[{'imgObject': {}, 'id': 'yogurt no spoon', 'src': '/static/foodstim60/yogurt no spoon.jpg', 'key': 'u', 'origWidth': 411, 'origHeight': 410, 'width': 411, 'height': 410, 'widthPercent': 0.45, 'rescaleHeight': False, 'trialN': 30, 'loaded': True, 'loadedTime': 4493.300000000745, 'positionName': 'LEFT', 'positionCoords': [185.16, 144], 'bid': 8.84}, {'imgObject': {}, 'id': 'raspberries', 'src': '/static/foodstim60/raspberries.jpg', 'key': 'i', 'origWidth': 411, 'origHeight': 411, 'width': 411, 'height': 411, 'widthPercent': 0.45, 'rescaleHeight': False, 'trialN': 30, 'loaded': True, 'loadedTime': 4496.4000000003725, 'positionName': 'RIGHT', 'positionCoords': [645.84, 143.5], 'bid': 9.86}]",63142.20000000112,1669832406347,yogurt no spoon,raspberries,8.84,9.86,1.0199999999999996,yogurt no spoon,1366.9000000003725,1368,1367.199999999255,True,u,65017.20000000112,1875.0,1669832408222,1875,HRV,HRV_0161,2022-11-30 18:24:32
31,"[{'imgObject': {}, 'id': 'bagel plain', 'src': '/static/foodstim60/bagel plain.jpg', 'key': 'u', 'origWidth': 410, 'origHeight': 410, 'width': 410, 'height': 410, 'widthPercent': 0.45, 'rescaleHeight': False, 'trialN': 31, 'loaded': True, 'loadedTime': 4496.9000000003725, 'positionName': 'LEFT', 'positionCoords': [186.16, 144], 'bid': 4.17}, {'imgObject': {}, 'id': 'salad w chicken', 'src': '/static/foodstim60/salad w chicken.jpg', 'key': 'i', 'origWidth': 411, 'origHeight': 411, 'width': 411, 'height': 411, 'widthPercent': 0.45, 'rescaleHeight': False, 'trialN': 31, 'loaded': True, 'loadedTime': 4272.300000000745, 'positionName': 'RIGHT', 'positionCoords': [645.84, 143.5], 'bid': 9.79}]",65017.5,1669832408223,bagel plain,salad w chicken,4.17,9.79,5.619999999999999,salad w chicken,958.5,958,958.7000000011176,True,i,66484.30000000075,1466.800000000745,1669832409689,1466,HRV,HRV_0161,2022-11-30 18:24:32
32,"[{'imgObject': {}, 'id': 'fried eggs', 'src': '/static/foodstim60/fried eggs.jpg', 'key': 'u', 'origWidth': 410, 'origHeight': 410, 'width': 410, 'height': 410, 'widthPercent': 0.45, 'rescaleHeight': False, 'trialN': 32, 'loaded': True, 'loadedTime': 4517.10000000149, 'positionName': 'LEFT', 'positionCoords': [186.16, 144], 'bid': 2.8000000000000003}, {'imgObject': {}, 'id': 'hotdog w must', 'src': '/static/foodstim60/hotdog w must.jpg', 'key': 'i', 'origWidth': 409, 'origHeight': 409, 'width': 409, 'height': 409, 'widthPercent': 0.45, 'rescaleHeight': False, 'trialN': 32, 'loaded': True, 'loadedTime': 4518.800000000745, 'positionName': 'RIGHT', 'positionCoords': [645.84, 144.5], 'bid': 5.04}]",66484.5,1669832409690,fried eggs,hotdog w must,2.8000000000000003,5.04,2.2399999999999998,hotdog w must,880.0,880,880.3000000007451,True,i,67872.5,1388.0,1669832411078,1388,HRV,HRV_0161,2022-11-30 18:24:32
33,"[{'imgObject': {}, 'id': 'lox', 'src': '/static/foodstim60/lox.jpg', 'key': 'u', 'origWidth': 410, 'origHeight': 411, 'width': 410, 'height': 411, 'widthPercent': 0.45, 'rescaleHeight': False, 'trialN': 33, 'loaded': True, 'loadedTime': 4538.200000001118, 'positionName': 'LEFT', 'positionCoords': [186.16, 143.5], 'bid': 0.2}, {'imgObject': {}, 'id': 'popsicles', 'src': '/static/foodstim60/popsicles.jpg', 'key': 'i', 'origWidth': 410, 'origHeight': 410, 'width': 410, 'height': 410, 'widthPercent': 0.45, 'rescaleHeight': False, 'trialN': 33, 'loaded': True, 'loadedTime': 4591.9000000003725, 'positionName': 'RIGHT', 'positionCoords': [645.84, 144], 'bid': 0.21}]",67872.90000000037,1669832411078,lox,popsicles,0.2,0.21,0.009999999999999981,popsicles,1349.0999999996275,1349,1349.4000000003725,True,i,69731.20000000112,1858.300000000745,1669832412936,1858,HRV,HRV_0161,2022-11-30 18:24:32
34,"[{'imgObject': {}, 'id': 'sweetpotato', 'src': '/static/foodstim60/sweetpotato.jpg', 'key': 'u', 'origWidth': 410, 'origHeight': 410, 'width': 410, 'height': 410, 'widthPercent': 0.45, 'rescaleHeight': False, 'trialN': 34, 'loaded': True, 'loadedTime': 4401.9000000003725, 'positionName': 'LEFT', 'positionCoords': [186.16, 144], 'bid': 9.68}, {'imgObject': {}, 'id': 'turkeysandwich', 'src': '/static/foodstim60/turkeysandwich.jpg', 'key': 'i', 'origWidth': 409, 'origHeight': 409, 'width': 409, 'height': 409, 'widthPercent': 0.45, 'rescaleHeight': False, 'trialN': 34, 'loaded': True, 'loadedTime': 4540.300000000745, 'positionName': 'RIGHT', 'positionCoords': [645.84, 144.5], 'bid': 9.66}]",69731.70000000112,1669832412937,sweetpotato,turkeysandwich,9.68,9.66,-0.019999999999999574,sweetpotato,1261.0999999996275,1261,1261.5,True,u,71510.20000000112,1778.5,1669832414715,1778,HRV,HRV_0161,2022-11-30 18:24:32
35,"[{'imgObject': {}, 'id': 'lox', 'src': '/static/foodstim60/lox.jpg', 'key': 'u', 'origWidth': 410, 'origHeight': 411, 'width': 410, 'height': 411, 'widthPercent': 0.45, 'rescaleHeight': False, 'trialN': 35, 'loaded': True, 'loadedTime': 4519.60000000149, 'positionName': 'LEFT', 'positionCoords': [186.16, 143.5], 'bid': 0.2}, {'imgObject': {}, 'id': 'grilled chicken strips', 'src': '/static/foodstim60/grilled chicken strips.jpg', 'key': 'i', 'origWidth': 410, 'origHeight': 411, 'width': 410, 'height': 411, 'widthPercent': 0.45, 'rescaleHeight': False, 'trialN': 35, 'loaded': True, 'loadedTime': 4544.300000000745, 'positionName': 'RIGHT', 'positionCoords': [645.84, 143.5], 'bid': 8.75}]",71510.40000000037,1669832414716,lox,grilled chicken strips,0.2,8.75,8.55,grilled chicken strips,1268.800000000745,1269,1269.0999999996275,True,i,73284.0,1773.5999999996275,1669832416489,1773,HRV,HRV_0161,2022-11-30 18:24:32
36,"[{'imgObject': {}, 'id': 'rigatoni', 'src': '/static/foodstim60/rigatoni.jpg', 'key': 'u', 'origWidth': 411, 'origHeight': 411, 'width': 411, 'height': 411, 'widthPercent': 0.45, 'rescaleHeight': False, 'trialN': 36, 'loaded': True, 'loadedTime': 4111.5, 'positionName': 'LEFT', 'positionCoords': [185.16, 143.5], 'bid': 1.6}, {'imgObject': {}, 'id': 'froot loops w milk', 'src': '/static/foodstim60/froot loops w milk.jpg', 'key': 'i', 'origWidth': 410, 'origHeight': 410, 'width': 410, 'height': 410, 'widthPercent': 0.45, 'rescaleHeight': False, 'trialN': 36, 'loaded': True, 'loadedTime': 4547.4000000003725, 'positionName': 'RIGHT', 'positionCoords': [645.84, 144], 'bid': 0.15}]",73284.5,1669832416490,rigatoni,froot loops w milk,1.6,0.15,-1.4500000000000002,rigatoni,1301.800000000745,1302,1302.1000000014901,True,u,75091.10000000149,1806.6000000014901,1669832418296,1806,HRV,HRV_0161,2022-11-30 18:24:32
37,"[{'imgObject': {}, 'id': 'mango', 'src': '/static/foodstim60/mango.jpg', 'key': 'u', 'origWidth': 411, 'origHeight': 411, 'width': 411, 'height': 411, 'widthPercent': 0.45, 'rescaleHeight': False, 'trialN': 37, 'loaded': True, 'loadedTime': 4548.300000000745, 'positionName': 'LEFT', 'positionCoords': [185.16, 143.5], 'bid': 7.99}, {'imgObject': {}, 'id': 'hotdog w must', 'src': '/static/foodstim60/hotdog w must.jpg', 'key': 'i', 'origWidth': 409, 'origHeight': 409, 'width': 409, 'height': 409, 'widthPercent': 0.45, 'rescaleHeight': False, 'trialN': 37, 'loaded': True, 'loadedTime': 4517.300000000745, 'positionName': 'RIGHT', 'positionCoords': [645.84, 144.5], 'bid': 5.04}]",75091.5,1669832418297,mango,hotdog w must,7.99,5.04,-2.95,mango,1611.6000000014901,1612,1612.1000000014901,True,u,77213.90000000037,2122.4000000003725,1669832420419,2122,HRV,HRV_0161,2022-11-30 18:24:32
38,"[{'imgObject': {}, 'id': 'seaweed', 'src': '/static/foodstim60/seaweed.jpg', 'key': 'u', 'origWidth': 410, 'origHeight': 410, 'width': 410, 'height': 410, 'widthPercent': 0.45, 'rescaleHeight': False, 'trialN': 38, 'loaded': True, 'loadedTime': 4373.4000000003725, 'positionName': 'LEFT', 'positionCoords': [186.16, 144], 'bid': 0.15}, {'imgObject': {}, 'id': 'luckycharms', 'src': '/static/foodstim60/luckycharms.jpg', 'key': 'i', 'origWidth': 410, 'origHeight': 409, 'width': 410, 'height': 409, 'widthPercent': 0.45, 'rescaleHeight': False, 'trialN': 38, 'loaded': True, 'loadedTime': 4350.5, 'positionName': 'RIGHT', 'positionCoords': [645.84, 144.5], 'bid': 0.18}]",77214.30000000075,1669832420420,seaweed,luckycharms,0.15,0.18,0.03,luckycharms,991.6999999992549,992,992.0999999996275,True,i,78711.5,1497.199999999255,1669832421917,1497,HRV,HRV_0161,2022-11-30 18:24:32
39,"[{'imgObject': {}, 'id': 'turkeysandwich', 'src': '/static/foodstim60/turkeysandwich.jpg', 'key': 'u', 'origWidth': 409, 'origHeight': 409, 'width': 409, 'height': 409, 'widthPercent': 0.45, 'rescaleHeight': False, 'trialN': 39, 'loaded': True, 'loadedTime': 4540.60000000149, 'positionName': 'LEFT', 'positionCoords': [187.16, 144.5], 'bid': 9.66}, {'imgObject': {}, 'id': 'cheerios', 'src': '/static/foodstim60/cheerios.jpg', 'key': 'i', 'origWidth': 409, 'origHeight': 410, 'width': 409, 'height': 410, 'widthPercent': 0.45, 'rescaleHeight': False, 'trialN': 39, 'loaded': True, 'loadedTime': 4439.700000001118, 'positionName': 'RIGHT', 'positionCoords': [645.84, 144], 'bid': 2.06}]",78711.90000000037,1669832421917,turkeysandwich,cheerios,9.66,2.06,-7.6,turkeysandwich,1025.5999999996275,1026,1025.9000000003725,True,u,80253.90000000037,1542.0,1669832423459,1542,HRV,HRV_0161,2022-11-30 18:24:32
40,"[{'imgObject': {}, 'id': 'strawberries', 'src': '/static/foodstim60/strawberries.jpg', 'key': 'u', 'origWidth': 410, 'origHeight': 410, 'width': 410, 'height': 410, 'widthPercent': 0.45, 'rescaleHeight': False, 'trialN': 40, 'loaded': True, 'loadedTime': 4378.200000001118, 'positionName': 'LEFT', 'positionCoords': [186.16, 144], 'bid': 9.75}, {'imgObject': {}, 'id': 'pear', 'src': '/static/foodstim60/pear.jpg', 'key': 'i', 'origWidth': 411, 'origHeight': 410, 'width': 411, 'height': 410, 'widthPercent': 0.45, 'rescaleHeight': False, 'trialN': 40, 'loaded': True, 'loadedTime': 4212.700000001118, 'positionName': 'RIGHT', 'positionCoords': [645.84, 144], 'bid': 9.79}]",80254.30000000075,1669832423459,strawberries,pear,9.75,9.79,0.03999999999999915,strawberries,810.5999999996275,811,810.9000000003725,True,u,81579.90000000037,1325.5999999996275,1669832424785,1326,HRV,HRV_0161,2022-11-30 18:24:32
41,"[{'imgObject': {}, 'id': 'lox', 'src': '/static/foodstim60/lox.jpg', 'key': 'u', 'origWidth': 410, 'origHeight': 411, 'width': 410, 'height': 411, 'widthPercent': 0.45, 'rescaleHeight': False, 'trialN': 41, 'loaded': True, 'loadedTime': 4521.4000000003725, 'positionName': 'LEFT', 'positionCoords': [186.16, 143.5], 'bid': 0.2}, {'imgObject': {}, 'id': 'Tribe humus pita', 'src': '/static/foodstim60/Tribe humus pita.jpg', 'key': 'i', 'origWidth': 411, 'origHeight': 411, 'width': 411, 'height': 411, 'widthPercent': 0.45, 'rescaleHeight': False, 'trialN': 41, 'loaded': True, 'loadedTime': 4565.5, 'positionName': 'RIGHT', 'positionCoords': [645.84, 143.5], 'bid': 0.13}]",81580.20000000112,1669832424785,lox,Tribe humus pita,0.2,0.13,-0.07,Tribe humus pita,935.0,936,935.2999999988824,True,i,83031.10000000149,1450.9000000003725,1669832426236,1451,HRV,HRV_0161,2022-11-30 18:24:32
42,"[{'imgObject': {}, 'id': 'bagel plain', 'src': '/static/foodstim60/bagel plain.jpg', 'key': 'u', 'origWidth': 410, 'origHeight': 410, 'width': 410, 'height': 410, 'widthPercent': 0.45, 'rescaleHeight': False, 'trialN': 42, 'loaded': True, 'loadedTime': 4498.5, 'positionName': 'LEFT', 'positionCoords': [186.16, 144], 'bid': 4.17}, {'imgObject': {}, 'id': 'seaweed', 'src': '/static/foodstim60/seaweed.jpg', 'key': 'i', 'origWidth': 410, 'origHeight': 410, 'width': 410, 'height': 410, 'widthPercent': 0.45, 'rescaleHeight': False, 'trialN': 42, 'loaded': True, 'loadedTime': 4372.300000000745, 'positionName': 'RIGHT', 'positionCoords': [645.84, 144], 'bid': 0.15}]",83031.60000000149,1669832426237,bagel plain,seaweed,4.17,0.15,-4.02,bagel plain,1046.7999999988824,1047,1047.3999999985099,True,u,84590.0,1558.3999999985099,1669832427795,1558,HRV,HRV_0161,2022-11-30 18:24:32
43,"[{'imgObject': {}, 'id': 'cheerios', 'src': '/static/foodstim60/cheerios.jpg', 'key': 'u', 'origWidth': 409, 'origHeight': 410, 'width': 409, 'height': 410, 'widthPercent': 0.45, 'rescaleHeight': False, 'trialN': 43, 'loaded': True, 'loadedTime': 4440.5, 'positionName': 'LEFT', 'positionCoords': [187.16, 144], 'bid': 2.06}, {'imgObject': {}, 'id': 'granola w milk', 'src': '/static/foodstim60/granola w milk.jpg', 'key': 'i', 'origWidth': 410, 'origHeight': 410, 'width': 410, 'height': 410, 'widthPercent': 0.45, 'rescaleHeight': False, 'trialN': 43, 'loaded': True, 'loadedTime': 4434.60000000149, 'positionName': 'RIGHT', 'positionCoords': [645.84, 144], 'bid': 4.98}]",84590.30000000075,1669832427795,cheerios,granola w milk,2.06,4.98,2.9200000000000004,granola w milk,1678.9000000003725,1679,1679.0999999996275,True,i,86783.80000000075,2193.5,1669832429989,2194,HRV,HRV_0161,2022-11-30 18:24:32
44,"[{'imgObject': {}, 'id': 'roastedpotatoes', 'src': '/static/foodstim60/roastedpotatoes.jpg', 'key': 'u', 'origWidth': 409, 'origHeight': 410, 'width': 409, 'height': 410, 'widthPercent': 0.45, 'rescaleHeight': False, 'trialN': 44, 'loaded': True, 'loadedTime': 4274.10000000149, 'positionName': 'LEFT', 'positionCoords': [187.16, 144], 'bid': 8.14}, {'imgObject': {}, 'id': 'eggsalad', 'src': '/static/foodstim60/eggsalad.jpg', 'key': 'i', 'origWidth': 410, 'origHeight': 409, 'width': 410, 'height': 409, 'widthPercent': 0.45, 'rescaleHeight': False, 'trialN': 44, 'loaded': True, 'loadedTime': 4567.10000000149, 'positionName': 'RIGHT', 'positionCoords': [645.84, 144.5], 'bid': 8.120000000000001}]",86784.0,1669832429989,roastedpotatoes,eggsalad,8.14,8.120000000000001,-0.019999999999999574,eggsalad,1320.300000000745,1321,1320.7000000011176,True,i,88611.10000000149,1827.1000000014901,1669832431816,1827,HRV,HRV_0161,2022-11-30 18:24:32
45,"[{'imgObject': {}, 'id': 'mango', 'src': '/static/foodstim60/mango.jpg', 'key': 'u', 'origWidth': 411, 'origHeight': 411, 'width': 411, 'height': 411, 'widthPercent': 0.45, 'rescaleHeight': False, 'trialN': 45, 'loaded': True, 'loadedTime': 4549.800000000745, 'positionName': 'LEFT', 'positionCoords': [185.16, 143.5], 'bid': 7.99}, {'imgObject': {}, 'id': 'froot loops w milk', 'src': '/static/foodstim60/froot loops w milk.jpg', 'key': 'i', 'origWidth': 410, 'origHeight': 410, 'width': 410, 'height': 410, 'widthPercent': 0.45, 'rescaleHeight': False, 'trialN': 45, 'loaded': True, 'loadedTime': 4544.9000000003725, 'positionName': 'RIGHT', 'positionCoords': [645.84, 144], 'bid': 0.15}]",88611.5,1669832431817,mango,froot loops w milk,7.99,0.15,-7.84,mango,1041.7000000011176,1041,1042.0,True,u,90157.70000000112,1546.2000000011176,1669832433363,1546,HRV,HRV_0161,2022-11-30 18:24:32
46,"[{'imgObject': {}, 'id': 'ice cream sundae 002', 'src': '/static/foodstim60/ice cream sundae 002.jpg', 'key': 'u', 'origWidth': 409, 'origHeight': 409, 'width': 409, 'height': 409, 'widthPercent': 0.45, 'rescaleHeight': False, 'trialN': 46, 'loaded': True, 'loadedTime': 4397.5, 'positionName': 'LEFT', 'positionCoords': [187.16, 144.5], 'bid': 3.96}, {'imgObject': {}, 'id': 'cantaloupe', 'src': '/static/foodstim60/cantaloupe.jpg', 'key': 'i', 'origWidth': 409, 'origHeight': 409, 'width': 409, 'height': 409, 'widthPercent': 0.45, 'rescaleHeight': False, 'trialN': 46, 'loaded': True, 'loadedTime': 4569.200000001118, 'positionName': 'RIGHT', 'positionCoords': [645.84, 144.5], 'bid': 9.68}]",90158.10000000149,1669832433363,ice cream sundae 002,cantaloupe,3.96,9.68,5.72,ice cream sundae 002,1014.6999999992549,1015,1015.0,True,u,91686.30000000075,1528.199999999255,1669832434891,1528,HRV,HRV_0161,2022-11-30 18:24:32
47,"[{'imgObject': {}, 'id': 'Tribe humus pita', 'src': '/static/foodstim60/Tribe humus pita.jpg', 'key': 'u', 'origWidth': 411, 'origHeight': 411, 'width': 411, 'height': 411, 'widthPercent': 0.45, 'rescaleHeight': False, 'trialN': 47, 'loaded': True, 'loadedTime': 4562.9000000003725, 'positionName': 'LEFT', 'positionCoords': [185.16, 143.5], 'bid': 0.13}, {'imgObject': {}, 'id': 'fried eggs', 'src': '/static/foodstim60/fried eggs.jpg', 'key': 'i', 'origWidth': 410, 'origHeight': 410, 'width': 410, 'height': 410, 'widthPercent': 0.45, 'rescaleHeight': False, 'trialN': 47, 'loaded': True, 'loadedTime': 4516.700000001118, 'positionName': 'RIGHT', 'positionCoords': [645.84, 144], 'bid': 2.8000000000000003}]",91686.5,1669832434891,Tribe humus pita,fried eggs,0.13,2.8000000000000003,2.6700000000000004,fried eggs,1398.6000000014901,1399,1399.0,True,i,93590.70000000112,1904.2000000011176,1669832436796,1905,HRV,HRV_0161,2022-11-30 18:24:32
48,"[{'imgObject': {}, 'id': 'ice cream sundae 002', 'src': '/static/foodstim60/ice cream sundae 002.jpg', 'key': 'u', 'origWidth': 409, 'origHeight': 409, 'width': 409, 'height': 409, 'widthPercent': 0.45, 'rescaleHeight': False, 'trialN': 48, 'loaded': True, 'loadedTime': 4397.9000000003725, 'positionName': 'LEFT', 'positionCoords': [187.16, 144.5], 'bid': 3.96}, {'imgObject': {}, 'id': 'froot loops w milk', 'src': '/static/foodstim60/froot loops w milk.jpg', 'key': 'i', 'origWidth': 410, 'origHeight': 410, 'width': 410, 'height': 410, 'widthPercent': 0.45, 'rescaleHeight': False, 'trialN': 48, 'loaded': True, 'loadedTime': 4546.800000000745, 'positionName': 'RIGHT', 'positionCoords': [645.84, 144], 'bid': 0.15}]",93591.20000000112,1669832436796,ice cream sundae 002,froot loops w milk,3.96,0.15,-3.81,ice cream sundae 002,1060.4000000003725,1061,1061.0,True,u,95163.0,1571.7999999988824,1669832438368,1572,HRV,HRV_0161,2022-11-30 18:24:32
49,"[{'imgObject': {}, 'id': 'corn cob', 'src': '/static/foodstim60/corn cob.jpg', 'key': 'u', 'origWidth': 411, 'origHeight': 411, 'width': 411, 'height': 411, 'widthPercent': 0.45, 'rescaleHeight': False, 'trialN': 49, 'loaded': True, 'loadedTime': 4569.9000000003725, 'positionName': 'LEFT', 'positionCoords': [185.16, 143.5], 'bid': 7.81}, {'imgObject': {}, 'id': 'omelette', 'src': '/static/foodstim60/omelette.jpg', 'key': 'i', 'origWidth': 410, 'origHeight': 409, 'width': 410, 'height': 409, 'widthPercent': 0.45, 'rescaleHeight': False, 'trialN': 49, 'loaded': True, 'loadedTime': 4577.200000001118, 'positionName': 'RIGHT', 'positionCoords': [645.84, 144.5], 'bid': 6.01}]",95163.40000000037,1669832438368,corn cob,omelette,7.81,6.01,-1.7999999999999998,corn cob,1072.5999999996275,1073,1072.9000000003725,True,u,96751.60000000149,1588.2000000011176,1669832439957,1589,HRV,HRV_0161,2022-11-30 18:24:32
50,"[{'imgObject': {}, 'id': 'fried eggs', 'src': '/static/foodstim60/fried eggs.jpg', 'key': 'u', 'origWidth': 410, 'origHeight': 410, 'width': 410, 'height': 410, 'widthPercent': 0.45, 'rescaleHeight': False, 'trialN': 50, 'loaded': True, 'loadedTime': 4514.60000000149, 'positionName': 'LEFT', 'positionCoords': [186.16, 144], 'bid': 2.8000000000000003}, {'imgObject': {}, 'id': 'cheerios', 'src': '/static/foodstim60/cheerios.jpg', 'key': 'i', 'origWidth': 409, 'origHeight': 410, 'width': 409, 'height': 410, 'widthPercent': 0.45, 'rescaleHeight': False, 'trialN': 50, 'loaded': True, 'loadedTime': 4435.5, 'positionName': 'RIGHT', 'positionCoords': [645.84, 144], 'bid': 2.06}]",96752.0,1669832439957,fried eggs,cheerios,2.8000000000000003,2.06,-0.7400000000000002,cheerios,1180.800000000745,1181,1181.2000000011176,True,i,98435.60000000149,1683.6000000014901,1669832441641,1684,HRV,HRV_0161,2022-11-30 18:24:32
51,"[{'imgObject': {}, 'id': 'sweetpotato', 'src': '/static/foodstim60/sweetpotato.jpg', 'key': 'u', 'origWidth': 410, 'origHeight': 410, 'width': 410, 'height': 410, 'widthPercent': 0.45, 'rescaleHeight': False, 'trialN': 51, 'loaded': True, 'loadedTime': 4411.800000000745, 'positionName': 'LEFT', 'positionCoords': [186.16, 144], 'bid': 9.68}, {'imgObject': {}, 'id': 'steak', 'src': '/static/foodstim60/steak.jpg', 'key': 'i', 'origWidth': 410, 'origHeight': 410, 'width': 410, 'height': 410, 'widthPercent': 0.45, 'rescaleHeight': False, 'trialN': 51, 'loaded': True, 'loadedTime': 4178.60000000149, 'positionName': 'RIGHT', 'positionCoords': [645.84, 144], 'bid': 8.94}]",98436.0,1669832441641,sweetpotato,steak,9.68,8.94,-0.7400000000000002,sweetpotato,972.8000000007451,973,973.1000000014901,True,u,99917.60000000149,1481.6000000014901,1669832443123,1482,HRV,HRV_0161,2022-11-30 18:24:32
52,"[{'imgObject': {}, 'id': 'eggsalad', 'src': '/static/foodstim60/eggsalad.jpg', 'key': 'u', 'origWidth': 410, 'origHeight': 409, 'width': 410, 'height': 409, 'widthPercent': 0.45, 'rescaleHeight': False, 'trialN': 52, 'loaded': True, 'loadedTime': 4567.9000000003725, 'positionName': 'LEFT', 'positionCoords': [186.16, 144.5], 'bid': 8.120000000000001}, {'imgObject': {}, 'id': 'burrito', 'src': '/static/foodstim60/burrito.jpg', 'key': 'i', 'origWidth': 410, 'origHeight': 410, 'width': 410, 'height': 410, 'widthPercent': 0.45, 'rescaleHeight': False, 'trialN': 52, 'loaded': True, 'loadedTime': 4375.60000000149, 'positionName': 'RIGHT', 'positionCoords': [645.84, 144], 'bid': 0.15}]",99918.0,1669832443123,eggsalad,burrito,8.120000000000001,0.15,-7.970000000000001,eggsalad,1090.800000000745,1091,1091.1000000014901,True,u,101521.60000000149,1603.6000000014901,1669832444727,1604,HRV,HRV_0161,2022-11-30 18:24:32
53,"[{'imgObject': {}, 'id': 'burrito', 'src': '/static/foodstim60/burrito.jpg', 'key': 'u', 'origWidth': 410, 'origHeight': 410, 'width': 410, 'height': 410, 'widthPercent': 0.45, 'rescaleHeight': False, 'trialN': 53, 'loaded': True, 'loadedTime': 4375.200000001118, 'positionName': 'LEFT', 'positionCoords': [186.16, 144], 'bid': 0.15}, {'imgObject': {}, 'id': 'avocado', 'src': '/static/foodstim60/avocado.jpg', 'key': 'i', 'origWidth': 409, 'origHeight': 409, 'width': 409, 'height': 409, 'widthPercent': 0.45, 'rescaleHeight': False, 'trialN': 53, 'loaded': True, 'loadedTime': 4178.300000000745, 'positionName': 'RIGHT', 'positionCoords': [645.84, 144.5], 'bid': 4.14}]",101522.0,1669832444727,burrito,avocado,0.15,4.14,3.9899999999999998,avocado,1242.7000000011176,1243,1243.0,True,i,103272.0,1750.0,1669832446477,1750,HRV,HRV_0161,2022-11-30 18:24:32
54,"[{'imgObject': {}, 'id': 'eggs', 'src': '/static/foodstim60/eggs.jpg', 'key': 'u', 'origWidth': 409, 'origHeight': 409, 'width': 409, 'height': 409, 'widthPercent': 0.45, 'rescaleHeight': False, 'trialN': 54, 'loaded': True, 'loadedTime': 4450.10000000149, 'positionName': 'LEFT', 'positionCoords': [187.16, 144.5], 'bid': 8.78}, {'imgObject': {}, 'id': 'orange slices', 'src': '/static/foodstim60/orange slices.jpg', 'key': 'i', 'origWidth': 409, 'origHeight': 410, 'width': 409, 'height': 410, 'widthPercent': 0.45, 'rescaleHeight': False, 'trialN': 54, 'loaded': True, 'loadedTime': 4313.200000001118, 'positionName': 'RIGHT', 'positionCoords': [645.84, 144], 'bid': 9.63}]",103272.40000000037,1669832446477,eggs,orange slices,8.78,9.63,0.8500000000000014,eggs,1074.0999999996275,1075,1074.5999999996275,True,u,104858.20000000112,1585.800000000745,1669832448063,1586,HRV,HRV_0161,2022-11-30 18:24:32
55,"[{'imgObject': {}, 'id': 'blackbeanswithrice', 'src': '/static/foodstim60/blackbeanswithrice.jpg', 'key': 'u', 'origWidth': 410, 'origHeight': 410, 'width': 410, 'height': 410, 'widthPercent': 0.45, 'rescaleHeight': False, 'trialN': 55, 'loaded': True, 'loadedTime': 4296.10000000149, 'positionName': 'LEFT', 'positionCoords': [186.16, 144], 'bid': 0.18}, {'imgObject': {}, 'id': 'burrito', 'src': '/static/foodstim60/burrito.jpg', 'key': 'i', 'origWidth': 410, 'origHeight': 410, 'width': 410, 'height': 410, 'widthPercent': 0.45, 'rescaleHeight': False, 'trialN': 55, 'loaded': True, 'loadedTime': 4375.60000000149, 'positionName': 'RIGHT', 'positionCoords': [645.84, 144], 'bid': 0.15}]",104858.40000000037,1669832448063,blackbeanswithrice,burrito,0.18,0.15,-0.03,blackbeanswithrice,1152.0999999996275,1153,1152.5,True,u,106527.70000000112,1669.300000000745,1669832449733,1670,HRV,HRV_0161,2022-11-30 18:24:32
56,"[{'imgObject': {}, 'id': 'baked potato', 'src': '/static/foodstim60/baked potato.jpg', 'key': 'u', 'origWidth': 409, 'origHeight': 410, 'width': 409, 'height': 410, 'widthPercent': 0.45, 'rescaleHeight': False, 'trialN': 56, 'loaded': True, 'loadedTime': 4460.10000000149, 'positionName': 'LEFT', 'positionCoords': [187.16, 144], 'bid': 7.54}, {'imgObject': {}, 'id': 'apple slices', 'src': '/static/foodstim60/apple slices.jpg', 'key': 'i', 'origWidth': 409, 'origHeight': 410, 'width': 409, 'height': 410, 'widthPercent': 0.45, 'rescaleHeight': False, 'trialN': 56, 'loaded': True, 'loadedTime': 4449.200000001118, 'positionName': 'RIGHT', 'positionCoords': [645.84, 144], 'bid': 9.89}]",106528.20000000112,1669832449733,baked potato,apple slices,7.54,9.89,2.3500000000000005,apple slices,1910.5999999996275,1911,1911.0999999996275,True,i,108951.20000000112,2423.0,1669832452156,2423,HRV,HRV_0161,2022-11-30 18:24:32
57,"[{'imgObject': {}, 'id': 'shreddedwheatwithmilk', 'src': '/static/foodstim60/shreddedwheatwithmilk.jpg', 'key': 'u', 'origWidth': 410, 'origHeight': 410, 'width': 410, 'height': 410, 'widthPercent': 0.45, 'rescaleHeight': False, 'trialN': 57, 'loaded': True, 'loadedTime': 4415.9000000003725, 'positionName': 'LEFT', 'positionCoords': [186.16, 144], 'bid': 1.47}, {'imgObject': {}, 'id': 'mac & cheese', 'src': '/static/foodstim60/mac & cheese.jpg', 'key': 'i', 'origWidth': 410, 'origHeight': 410, 'width': 410, 'height': 410, 'widthPercent': 0.45, 'rescaleHeight': False, 'trialN': 57, 'loaded': True, 'loadedTime': 4328.9000000003725, 'positionName': 'RIGHT', 'positionCoords': [645.84, 144], 'bid': 7.01}]",108951.60000000149,1669832452157,shreddedwheatwithmilk,mac & cheese,1.47,7.01,5.54,shreddedwheatwithmilk,1169.8999999985099,1170,1170.2999999988824,True,u,110636.30000000075,1684.699999999255,1669832453841,1684,HRV,HRV_0161,2022-11-30 18:24:32
58,"[{'imgObject': {}, 'id': 'fruitsalad', 'src': '/static/foodstim60/fruitsalad.jpg', 'key': 'u', 'origWidth': 410, 'origHeight': 410, 'width': 410, 'height': 410, 'widthPercent': 0.45, 'rescaleHeight': False, 'trialN': 58, 'loaded': True, 'loadedTime': 4579.60000000149, 'positionName': 'LEFT', 'positionCoords': [186.16, 144], 'bid': 9.81}, {'imgObject': {}, 'id': 'Grapes', 'src': '/static/foodstim60/Grapes.jpg', 'key': 'i', 'origWidth': 411, 'origHeight': 411, 'width': 411, 'height': 411, 'widthPercent': 0.45, 'rescaleHeight': False, 'trialN': 58, 'loaded': True, 'loadedTime': 4237, 'positionName': 'RIGHT', 'positionCoords': [645.84, 143.5], 'bid': 8.97}]",110636.70000000112,1669832453842,fruitsalad,Grapes,9.81,8.97,-0.8399999999999999,fruitsalad,909.2999999988824,909,909.6999999992549,True,u,112058.80000000075,1422.0999999996275,1669832455264,1422,HRV,HRV_0161,2022-11-30 18:24:32
59,"[{'imgObject': {}, 'id': 'burrito', 'src': '/static/foodstim60/burrito.jpg', 'key': 'u', 'origWidth': 410, 'origHeight': 410, 'width': 410, 'height': 410, 'widthPercent': 0.45, 'rescaleHeight': False, 'trialN': 59, 'loaded': True, 'loadedTime': 4373.5, 'positionName': 'LEFT', 'positionCoords': [186.16, 144], 'bid': 0.15}, {'imgObject': {}, 'id': 'mashed potato', 'src': '/static/foodstim60/mashed potato.jpg', 'key': 'i', 'origWidth': 409, 'origHeight': 409, 'width': 409, 'height': 409, 'widthPercent': 0.45, 'rescaleHeight': False, 'trialN': 59, 'loaded': True, 'loadedTime': 4123.700000001118, 'positionName': 'RIGHT', 'positionCoords': [645.84, 144.5], 'bid': 1.6}]",112059.10000000149,1669832455264,burrito,mashed potato,0.15,1.6,1.4500000000000002,burrito,1640.199999999255,1641,1640.5,True,u,114216.40000000037,2157.2999999988824,1669832457421,2157,HRV,HRV_0161,2022-11-30 18:24:32
60,"[{'imgObject': {}, 'id': 'chickenfingers', 'src': '/static/foodstim60/chickenfingers.jpg', 'key': 'u', 'origWidth': 410, 'origHeight': 410, 'width': 410, 'height': 410, 'widthPercent': 0.45, 'rescaleHeight': False, 'trialN': 60, 'loaded': True, 'loadedTime': 4327.700000001118, 'positionName': 'LEFT', 'positionCoords': [186.16, 144], 'bid': 8.28}, {'imgObject': {}, 'id': 'Grapes', 'src': '/static/foodstim60/Grapes.jpg', 'key': 'i', 'origWidth': 411, 'origHeight': 411, 'width': 411, 'height': 411, 'widthPercent': 0.45, 'rescaleHeight': False, 'trialN': 60, 'loaded': True, 'loadedTime': 4236.4000000003725, 'positionName': 'RIGHT', 'positionCoords': [645.84, 143.5], 'bid': 8.97}]",114216.90000000037,1669832457422,chickenfingers,Grapes,8.28,8.97,0.6900000000000013,chickenfingers,1020.2000000011176,1020,1020.5,True,u,115743.20000000112,1526.300000000745,1669832458948,1526,HRV,HRV_0161,2022-11-30 18:24:32
61,"[{'imgObject': {}, 'id': 'banana', 'src': '/static/foodstim60/banana.jpg', 'key': 'u', 'origWidth': 410, 'origHeight': 410, 'width': 410, 'height': 410, 'widthPercent': 0.45, 'rescaleHeight': False, 'trialN': 61, 'loaded': True, 'loadedTime': 4466.300000000745, 'positionName': 'LEFT', 'positionCoords': [186.16, 144], 'bid': 9.86}, {'imgObject': {}, 'id': 'apple slices', 'src': '/static/foodstim60/apple slices.jpg', 'key': 'i', 'origWidth': 409, 'origHeight': 410, 'width': 409, 'height': 410, 'widthPercent': 0.45, 'rescaleHeight': False, 'trialN': 61, 'loaded': True, 'loadedTime': 4447, 'positionName': 'RIGHT', 'positionCoords': [645.84, 144], 'bid': 9.89}]",115743.80000000075,1669832458949,banana,apple slices,9.86,9.89,0.030000000000001137,banana,1027.4000000003725,1028,1027.9000000003725,True,u,117286.0,1542.199999999255,1669832460491,1542,HRV,HRV_0161,2022-11-30 18:24:32
62,"[{'imgObject': {}, 'id': 'raspberries', 'src': '/static/foodstim60/raspberries.jpg', 'key': 'u', 'origWidth': 411, 'origHeight': 411, 'width': 411, 'height': 411, 'widthPercent': 0.45, 'rescaleHeight': False, 'trialN': 62, 'loaded': True, 'loadedTime': 4496.10000000149, 'positionName': 'LEFT', 'positionCoords': [185.16, 143.5], 'bid': 9.86}, {'imgObject': {}, 'id': 'omelette', 'src': '/static/foodstim60/omelette.jpg', 'key': 'i', 'origWidth': 410, 'origHeight': 409, 'width': 410, 'height': 409, 'widthPercent': 0.45, 'rescaleHeight': False, 'trialN': 62, 'loaded': True, 'loadedTime': 4575.300000000745, 'positionName': 'RIGHT', 'positionCoords': [645.84, 144.5], 'bid': 6.01}]",117286.40000000037,1669832460491,raspberries,omelette,9.86,6.01,-3.8499999999999996,raspberries,1032.9000000003725,1034,1033.2000000011176,True,u,118827.60000000149,1541.2000000011176,1669832462033,1542,HRV,HRV_0161,2022-11-30 18:24:32
63,"[{'imgObject': {}, 'id': 'cocktailshrimp', 'src': '/static/foodstim60/cocktailshrimp.jpg', 'key': 'u', 'origWidth': 410, 'origHeight': 410, 'width': 410, 'height': 410, 'widthPercent': 0.45, 'rescaleHeight': False, 'trialN': 63, 'loaded': True, 'loadedTime': 4488.700000001118, 'positionName': 'LEFT', 'positionCoords': [186.16, 144], 'bid': 9.86}, {'imgObject': {}, 'id': 'salad w chicken', 'src': '/static/foodstim60/salad w chicken.jpg', 'key': 'i', 'origWidth': 411, 'origHeight': 411, 'width': 411, 'height': 411, 'widthPercent': 0.45, 'rescaleHeight': False, 'trialN': 63, 'loaded': True, 'loadedTime': 4273.9000000003725, 'positionName': 'RIGHT', 'positionCoords': [645.84, 143.5], 'bid': 9.79}]",118828.0,1669832462033,cocktailshrimp,salad w chicken,9.86,9.79,-0.07000000000000028,salad w chicken,1198.300000000745,1199,1198.7000000011176,True,i,120531.20000000112,1703.2000000011176,1669832463736,1703,HRV,HRV_0161,2022-11-30 18:24:32
64,"[{'imgObject': {}, 'id': 'sweetpotato', 'src': '/static/foodstim60/sweetpotato.jpg', 'key': 'u', 'origWidth': 410, 'origHeight': 410, 'width': 410, 'height': 410, 'widthPercent': 0.45, 'rescaleHeight': False, 'trialN': 64, 'loaded': True, 'loadedTime': 4398.4000000003725, 'positionName': 'LEFT', 'positionCoords': [186.16, 144], 'bid': 9.68}, {'imgObject': {}, 'id': 'kiwi', 'src': '/static/foodstim60/kiwi.jpg', 'key': 'i', 'origWidth': 410, 'origHeight': 410, 'width': 410, 'height': 410, 'widthPercent': 0.45, 'rescaleHeight': False, 'trialN': 64, 'loaded': True, 'loadedTime': 4231.5, 'positionName': 'RIGHT', 'positionCoords': [645.84, 144], 'bid': 9.86}]",120531.40000000037,1669832463736,sweetpotato,kiwi,9.68,9.86,0.17999999999999972,sweetpotato,1203.4000000003725,1204,1203.7000000011176,True,u,122257.90000000037,1726.5,1669832465463,1727,HRV,HRV_0161,2022-11-30 18:24:32
65,"[{'imgObject': {}, 'id': 'popsicles', 'src': '/static/foodstim60/popsicles.jpg', 'key': 'u', 'origWidth': 410, 'origHeight': 410, 'width': 410, 'height': 410, 'widthPercent': 0.45, 'rescaleHeight': False, 'trialN': 65, 'loaded': True, 'loadedTime': 4590.4000000003725, 'positionName': 'LEFT', 'positionCoords': [186.16, 144], 'bid': 0.21}, {'imgObject': {}, 'id': 'raisin bran w milk', 'src': '/static/foodstim60/raisin bran w milk.jpg', 'key': 'i', 'origWidth': 411, 'origHeight': 411, 'width': 411, 'height': 411, 'widthPercent': 0.45, 'rescaleHeight': False, 'trialN': 65, 'loaded': True, 'loadedTime': 4245.800000000745, 'positionName': 'RIGHT', 'positionCoords': [645.84, 143.5], 'bid': 5.32}]",122258.10000000149,1669832465463,popsicles,raisin bran w milk,0.21,5.32,5.11,raisin bran w milk,1032.2999999988824,1033,1032.699999999255,True,i,123804.70000000112,1546.5999999996275,1669832467010,1547,HRV,HRV_0161,2022-11-30 18:24:32
66,"[{'imgObject': {}, 'id': 'strawberries', 'src': '/static/foodstim60/strawberries.jpg', 'key': 'u', 'origWidth': 410, 'origHeight': 410, 'width': 410, 'height': 410, 'widthPercent': 0.45, 'rescaleHeight': False, 'trialN': 66, 'loaded': True, 'loadedTime': 4378.5, 'positionName': 'LEFT', 'positionCoords': [186.16, 144], 'bid': 9.75}, {'imgObject': {}, 'id': 'raspberries', 'src': '/static/foodstim60/raspberries.jpg', 'key': 'i', 'origWidth': 411, 'origHeight': 411, 'width': 411, 'height': 411, 'widthPercent': 0.45, 'rescaleHeight': False, 'trialN': 66, 'loaded': True, 'loadedTime': 4494.800000000745, 'positionName': 'RIGHT', 'positionCoords': [645.84, 143.5], 'bid': 9.86}]",123805.0,1669832467010,strawberries,raspberries,9.75,9.86,0.10999999999999943,strawberries,1065.5,1066,1065.800000000745,True,u,125380.30000000075,1575.300000000745,1669832468585,1575,HRV,HRV_0161,2022-11-30 18:24:32
67,"[{'imgObject': {}, 'id': 'kiwi', 'src': '/static/foodstim60/kiwi.jpg', 'key': 'u', 'origWidth': 410, 'origHeight': 410, 'width': 410, 'height': 410, 'widthPercent': 0.45, 'rescaleHeight': False, 'trialN': 67, 'loaded': True, 'loadedTime': 4232.200000001118, 'positionName': 'LEFT', 'positionCoords': [186.16, 144], 'bid': 9.86}, {'imgObject': {}, 'id': 'apple slices', 'src': '/static/foodstim60/apple slices.jpg', 'key': 'i', 'origWidth': 409, 'origHeight': 410, 'width': 409, 'height': 410, 'widthPercent': 0.45, 'rescaleHeight': False, 'trialN': 67, 'loaded': True, 'loadedTime': 4449, 'positionName': 'RIGHT', 'positionCoords': [645.84, 144], 'bid': 9.89}]",125380.70000000112,1669832468586,kiwi,apple slices,9.86,9.89,0.030000000000001137,apple slices,911.0,911,911.4000000003725,True,i,126795.20000000112,1414.5,1669832470000,1414,HRV,HRV_0161,2022-11-30 18:24:32
68,"[{'imgObject': {}, 'id': 'sushi w_condiments', 'src': '/static/foodstim60/sushi w_condiments.jpg', 'key': 'u', 'origWidth': 410, 'origHeight': 410, 'width': 410, 'height': 410, 'widthPercent': 0.45, 'rescaleHeight': False, 'trialN': 68, 'loaded': True, 'loadedTime': 4486.60000000149, 'positionName': 'LEFT', 'positionCoords': [186.16, 144], 'bid': 0.1}, {'imgObject': {}, 'id': 'luckycharms', 'src': '/static/foodstim60/luckycharms.jpg', 'key': 'i', 'origWidth': 410, 'origHeight': 409, 'width': 410, 'height': 409, 'widthPercent': 0.45, 'rescaleHeight': False, 'trialN': 68, 'loaded': True, 'loadedTime': 4348.9000000003725, 'positionName': 'RIGHT', 'positionCoords': [645.84, 144.5], 'bid': 0.18}]",126795.40000000037,1669832470000,sushi w_condiments,luckycharms,0.1,0.18,0.07999999999999999,luckycharms,1186.4000000003725,1187,1186.9000000003725,True,i,128496.0,1700.5999999996275,1669832471701,1701,HRV,HRV_0161,2022-11-30 18:24:32
69,"[{'imgObject': {}, 'id': 'omelette', 'src': '/static/foodstim60/omelette.jpg', 'key': 'u', 'origWidth': 410, 'origHeight': 409, 'width': 410, 'height': 409, 'widthPercent': 0.45, 'rescaleHeight': False, 'trialN': 69, 'loaded': True, 'loadedTime': 4577.10000000149, 'positionName': 'LEFT', 'positionCoords': [186.16, 144.5], 'bid': 6.01}, {'imgObject': {}, 'id': 'roastedpotatoes', 'src': '/static/foodstim60/roastedpotatoes.jpg', 'key': 'i', 'origWidth': 409, 'origHeight': 410, 'width': 409, 'height': 410, 'widthPercent': 0.45, 'rescaleHeight': False, 'trialN': 69, 'loaded': True, 'loadedTime': 4279.300000000745, 'positionName': 'RIGHT', 'positionCoords': [645.84, 144], 'bid': 8.14}]",128496.40000000037,1669832471701,omelette,roastedpotatoes,6.01,8.14,2.130000000000001,omelette,1812.2000000011176,1813,1812.4000000003725,True,u,130811.30000000075,2314.9000000003725,1669832474016,2315,HRV,HRV_0161,2022-11-30 18:24:32
70,"[{'imgObject': {}, 'id': 'kiwi', 'src': '/static/foodstim60/kiwi.jpg', 'key': 'u', 'origWidth': 410, 'origHeight': 410, 'width': 410, 'height': 410, 'widthPercent': 0.45, 'rescaleHeight': False, 'trialN': 70, 'loaded': True, 'loadedTime': 4232.9000000003725, 'positionName': 'LEFT', 'positionCoords': [186.16, 144], 'bid': 9.86}, {'imgObject': {}, 'id': 'cocktailshrimp', 'src': '/static/foodstim60/cocktailshrimp.jpg', 'key': 'i', 'origWidth': 410, 'origHeight': 410, 'width': 410, 'height': 410, 'widthPercent': 0.45, 'rescaleHeight': False, 'trialN': 70, 'loaded': True, 'loadedTime': 4488.700000001118, 'positionName': 'RIGHT', 'positionCoords': [645.84, 144], 'bid': 9.86}]",130811.60000000149,1669832474017,kiwi,cocktailshrimp,9.86,9.86,0.0,kiwi,1074.2999999988824,1074,1074.5999999996275,True,u,132387.80000000075,1576.199999999255,1669832475593,1576,HRV,HRV_0161,2022-11-30 18:24:32
71,"[{'imgObject': {}, 'id': 'steak', 'src': '/static/foodstim60/steak.jpg', 'key': 'u', 'origWidth': 410, 'origHeight': 410, 'width': 410, 'height': 410, 'widthPercent': 0.45, 'rescaleHeight': False, 'trialN': 71, 'loaded': True, 'loadedTime': 4193.9000000003725, 'positionName': 'LEFT', 'positionCoords': [186.16, 144], 'bid': 8.94}, {'imgObject': {}, 'id': 'cocktailshrimp', 'src': '/static/foodstim60/cocktailshrimp.jpg', 'key': 'i', 'origWidth': 410, 'origHeight': 410, 'width': 410, 'height': 410, 'widthPercent': 0.45, 'rescaleHeight': False, 'trialN': 71, 'loaded': True, 'loadedTime': 4489.10000000149, 'positionName': 'RIGHT', 'positionCoords': [645.84, 144], 'bid': 9.86}]",132388.20000000112,1669832475593,steak,cocktailshrimp,8.94,9.86,0.9199999999999999,steak,1179.2999999988824,1180,1179.5999999996275,True,u,134090.40000000037,1702.199999999255,1669832477295,1702,HRV,HRV_0161,2022-11-30 18:24:32
72,"[{'imgObject': {}, 'id': 'burger', 'src': '/static/foodstim60/burger.jpg', 'key': 'u', 'origWidth': 409, 'origHeight': 409, 'width': 409, 'height': 409, 'widthPercent': 0.45, 'rescaleHeight': False, 'trialN': 72, 'loaded': True, 'loadedTime': 4346.60000000149, 'positionName': 'LEFT', 'positionCoords': [187.16, 144.5], 'bid': 8.44}, {'imgObject': {}, 'id': 'eggs', 'src': '/static/foodstim60/eggs.jpg', 'key': 'i', 'origWidth': 409, 'origHeight': 409, 'width': 409, 'height': 409, 'widthPercent': 0.45, 'rescaleHeight': False, 'trialN': 72, 'loaded': True, 'loadedTime': 4457.700000001118, 'positionName': 'RIGHT', 'positionCoords': [645.84, 144.5], 'bid': 8.78}]",134090.80000000075,1669832477296,burger,eggs,8.44,8.78,0.33999999999999986,eggs,1322.5,1323,1322.800000000745,True,i,135914.80000000075,1824.0,1669832479120,1824,HRV,HRV_0161,2022-11-30 18:24:32
73,"[{'imgObject': {}, 'id': 'avocado', 'src': '/static/foodstim60/avocado.jpg', 'key': 'u', 'origWidth': 409, 'origHeight': 409, 'width': 409, 'height': 409, 'widthPercent': 0.45, 'rescaleHeight': False, 'trialN': 73, 'loaded': True, 'loadedTime': 4177.700000001118, 'positionName': 'LEFT', 'positionCoords': [187.16, 144.5], 'bid': 4.14}, {'imgObject': {}, 'id': 'fried eggs', 'src': '/static/foodstim60/fried eggs.jpg', 'key': 'i', 'origWidth': 410, 'origHeight': 410, 'width': 410, 'height': 410, 'widthPercent': 0.45, 'rescaleHeight': False, 'trialN': 73, 'loaded': True, 'loadedTime': 4517, 'positionName': 'RIGHT', 'positionCoords': [645.84, 144], 'bid': 2.8000000000000003}]",135915.1000000015,1669832479120,avocado,fried eggs,4.14,2.8000000000000003,-1.3399999999999994,avocado,1218.5999999996275,1219,1219.0,True,u,137637.80000000075,1722.699999999255,1669832480843,1723,HRV,HRV_0161,2022-11-30 18:24:32
74,"[{'imgObject': {}, 'id': 'cherries', 'src': '/static/foodstim60/cherries.jpg', 'key': 'u', 'origWidth': 410, 'origHeight': 411, 'width': 410, 'height': 411, 'widthPercent': 0.45, 'rescaleHeight': False, 'trialN': 74, 'loaded': True, 'loadedTime': 4442.700000001118, 'positionName': 'LEFT', 'positionCoords': [186.16, 143.5], 'bid': 9.87}, {'imgObject': {}, 'id': 'fruitsalad', 'src': '/static/foodstim60/fruitsalad.jpg', 'key': 'i', 'origWidth': 410, 'origHeight': 410, 'width': 410, 'height': 410, 'widthPercent': 0.45, 'rescaleHeight': False, 'trialN': 74, 'loaded': True, 'loadedTime': 4579.4000000003725, 'positionName': 'RIGHT', 'positionCoords': [645.84, 144], 'bid': 9.81}]",137638.0,1669832480843,cherries,fruitsalad,9.87,9.81,-0.05999999999999872,cherries,797.0,797,797.3000000007451,True,u,138946.90000000037,1308.9000000003725,1669832482152,1309,HRV,HRV_0161,2022-11-30 18:24:32
75,"[{'imgObject': {}, 'id': 'baked potato', 'src': '/static/foodstim60/baked potato.jpg', 'key': 'u', 'origWidth': 409, 'origHeight': 410, 'width': 409, 'height': 410, 'widthPercent': 0.45, 'rescaleHeight': False, 'trialN': 75, 'loaded': True, 'loadedTime': 4459.800000000745, 'positionName': 'LEFT', 'positionCoords': [187.16, 144], 'bid': 7.54}, {'imgObject': {}, 'id': 'corn cob', 'src': '/static/foodstim60/corn cob.jpg', 'key': 'i', 'origWidth': 411, 'origHeight': 411, 'width': 411, 'height': 411, 'widthPercent': 0.45, 'rescaleHeight': False, 'trialN': 75, 'loaded': True, 'loadedTime': 4575, 'positionName': 'RIGHT', 'positionCoords': [645.84, 143.5], 'bid': 7.81}]",138947.20000000112,1669832482152,baked potato,corn cob,7.54,7.81,0.2699999999999996,baked potato,1388.0999999996275,1389,1388.5,True,u,140849.6000000015,1902.4000000003725,1669832484055,1903,HRV,HRV_0161,2022-11-30 18:24:32
76,"[{'imgObject': {}, 'id': 'yogurt no spoon', 'src': '/static/foodstim60/yogurt no spoon.jpg', 'key': 'u', 'origWidth': 411, 'origHeight': 410, 'width': 411, 'height': 410, 'widthPercent': 0.45, 'rescaleHeight': False, 'trialN': 76, 'loaded': True, 'loadedTime': 4494.300000000745, 'positionName': 'LEFT', 'positionCoords': [185.16, 144], 'bid': 8.84}, {'imgObject': {}, 'id': 'turkeysandwich', 'src': '/static/foodstim60/turkeysandwich.jpg', 'key': 'i', 'origWidth': 409, 'origHeight': 409, 'width': 409, 'height': 409, 'widthPercent': 0.45, 'rescaleHeight': False, 'trialN': 76, 'loaded': True, 'loadedTime': 4539, 'positionName': 'RIGHT', 'positionCoords': [645.84, 144.5], 'bid': 9.66}]",140850.20000000112,1669832484055,yogurt no spoon,turkeysandwich,8.84,9.66,0.8200000000000003,turkeysandwich,1323.0,1324,1323.5,True,i,142690.40000000037,1840.199999999255,1669832485895,1840,HRV,HRV_0161,2022-11-30 18:24:32
77,"[{'imgObject': {}, 'id': 'eggs', 'src': '/static/foodstim60/eggs.jpg', 'key': 'u', 'origWidth': 409, 'origHeight': 409, 'width': 409, 'height': 409, 'widthPercent': 0.45, 'rescaleHeight': False, 'trialN': 77, 'loaded': True, 'loadedTime': 4452.5, 'positionName': 'LEFT', 'positionCoords': [187.16, 144.5], 'bid': 8.78}, {'imgObject': {}, 'id': 'popsicles', 'src': '/static/foodstim60/popsicles.jpg', 'key': 'i', 'origWidth': 410, 'origHeight': 410, 'width': 410, 'height': 410, 'widthPercent': 0.45, 'rescaleHeight': False, 'trialN': 77, 'loaded': True, 'loadedTime': 4592.5, 'positionName': 'RIGHT', 'positionCoords': [645.84, 144], 'bid': 0.21}]",142690.6000000015,1669832485896,eggs,popsicles,8.78,0.21,-8.569999999999999,eggs,922.1999999992549,922,922.6999999992549,True,u,144126.90000000037,1436.2999999988824,1669832487332,1436,HRV,HRV_0161,2022-11-30 18:24:32
78,"[{'imgObject': {}, 'id': 'bagel and cc', 'src': '/static/foodstim60/bagel and cc.jpg', 'key': 'u', 'origWidth': 410, 'origHeight': 410, 'width': 410, 'height': 410, 'widthPercent': 0.45, 'rescaleHeight': False, 'trialN': 78, 'loaded': True, 'loadedTime': 4581.300000000745, 'positionName': 'LEFT', 'positionCoords': [186.16, 144], 'bid': 4.58}, {'imgObject': {}, 'id': 'pear', 'src': '/static/foodstim60/pear.jpg', 'key': 'i', 'origWidth': 411, 'origHeight': 410, 'width': 411, 'height': 410, 'widthPercent': 0.45, 'rescaleHeight': False, 'trialN': 78, 'loaded': True, 'loadedTime': 4197.200000001118, 'positionName': 'RIGHT', 'positionCoords': [645.84, 144], 'bid': 9.79}]",144127.30000000075,1669832487332,bagel and cc,pear,4.58,9.79,5.209999999999999,pear,1057.699999999255,1058,1058.0,True,i,145701.6000000015,1574.300000000745,1669832488907,1575,HRV,HRV_0161,2022-11-30 18:24:32
79,"[{'imgObject': {}, 'id': 'ice cream sundae 002', 'src': '/static/foodstim60/ice cream sundae 002.jpg', 'key': 'u', 'origWidth': 409, 'origHeight': 409, 'width': 409, 'height': 409, 'widthPercent': 0.45, 'rescaleHeight': False, 'trialN': 79, 'loaded': True, 'loadedTime': 4397.200000001118, 'positionName': 'LEFT', 'positionCoords': [187.16, 144.5], 'bid': 3.96}, {'imgObject': {}, 'id': 'avocado', 'src': '/static/foodstim60/avocado.jpg', 'key': 'i', 'origWidth': 409, 'origHeight': 409, 'width': 409, 'height': 409, 'widthPercent': 0.45, 'rescaleHeight': False, 'trialN': 79, 'loaded': True, 'loadedTime': 4177.10000000149, 'positionName': 'RIGHT', 'positionCoords': [645.84, 144.5], 'bid': 4.14}]",145702.1000000015,1669832488907,ice cream sundae 002,avocado,3.96,4.14,0.17999999999999972,ice cream sundae 002,1339.0,1340,1339.5,True,u,147560.90000000037,1858.7999999988824,1669832490766,1859,HRV,HRV_0161,2022-11-30 18:24:32
80,"[{'imgObject': {}, 'id': 'yogurt no spoon', 'src': '/static/foodstim60/yogurt no spoon.jpg', 'key': 'u', 'origWidth': 411, 'origHeight': 410, 'width': 411, 'height': 410, 'widthPercent': 0.45, 'rescaleHeight': False, 'trialN': 80, 'loaded': True, 'loadedTime': 4490.60000000149, 'positionName': 'LEFT', 'positionCoords': [185.16, 144], 'bid': 8.84}, {'imgObject': {}, 'id': 'steak', 'src': '/static/foodstim60/steak.jpg', 'key': 'i', 'origWidth': 410, 'origHeight': 410, 'width': 410, 'height': 410, 'widthPercent': 0.45, 'rescaleHeight': False, 'trialN': 80, 'loaded': True, 'loadedTime': 4179.9000000003725, 'positionName': 'RIGHT', 'positionCoords': [645.84, 144], 'bid': 8.94}]",147561.6000000015,1669832490767,yogurt no spoon,steak,8.84,8.94,0.09999999999999964,steak,1224.5,1225,1225.0,True,i,149295.20000000112,1733.5999999996275,1669832492500,1733,HRV,HRV_0161,2022-11-30 18:24:32
81,"[{'imgObject': {}, 'id': 'froot loops w milk', 'src': '/static/foodstim60/froot loops w milk.jpg', 'key': 'u', 'origWidth': 410, 'origHeight': 410, 'width': 410, 'height': 410, 'widthPercent': 0.45, 'rescaleHeight': False, 'trialN': 81, 'loaded': True, 'loadedTime': 4547, 'positionName': 'LEFT', 'positionCoords': [186.16, 144], 'bid': 0.15}, {'imgObject': {}, 'id': 'Tribe humus pita', 'src': '/static/foodstim60/Tribe humus pita.jpg', 'key': 'i', 'origWidth': 411, 'origHeight': 411, 'width': 411, 'height': 411, 'widthPercent': 0.45, 'rescaleHeight': False, 'trialN': 81, 'loaded': True, 'loadedTime': 4565.10000000149, 'positionName': 'RIGHT', 'positionCoords': [645.84, 143.5], 'bid': 0.13}]",149295.5,1669832492501,froot loops w milk,Tribe humus pita,0.15,0.13,-0.01999999999999999,froot loops w milk,1177.1000000014901,1177,1177.6000000014901,True,u,150992.1000000015,1696.6000000014901,1669832494197,1696,HRV,HRV_0161,2022-11-30 18:24:32
82,"[{'imgObject': {}, 'id': 'blueberries', 'src': '/static/foodstim60/blueberries.jpg', 'key': 'u', 'origWidth': 411, 'origHeight': 411, 'width': 411, 'height': 411, 'widthPercent': 0.45, 'rescaleHeight': False, 'trialN': 82, 'loaded': True, 'loadedTime': 4256.9000000003725, 'positionName': 'LEFT', 'positionCoords': [185.16, 143.5], 'bid': 9.86}, {'imgObject': {}, 'id': 'raspberries', 'src': '/static/foodstim60/raspberries.jpg', 'key': 'i', 'origWidth': 411, 'origHeight': 411, 'width': 411, 'height': 411, 'widthPercent': 0.45, 'rescaleHeight': False, 'trialN': 82, 'loaded': True, 'loadedTime': 4496.5, 'positionName': 'RIGHT', 'positionCoords': [645.84, 143.5], 'bid': 9.86}]",150992.5,1669832494198,blueberries,raspberries,9.86,9.86,0.0,blueberries,1026.4000000003725,1026,1026.6000000014901,True,u,152530.5,1538.0,1669832495736,1538,HRV,HRV_0161,2022-11-30 18:24:32
83,"[{'imgObject': {}, 'id': 'cherry tomato', 'src': '/static/foodstim60/cherry tomato.jpg', 'key': 'u', 'origWidth': 410, 'origHeight': 410, 'width': 410, 'height': 410, 'widthPercent': 0.45, 'rescaleHeight': False, 'trialN': 83, 'loaded': True, 'loadedTime': 4585.800000000745, 'positionName': 'LEFT', 'positionCoords': [186.16, 144], 'bid': 7.54}, {'imgObject': {}, 'id': 'olives', 'src': '/static/foodstim60/olives.jpg', 'key': 'i', 'origWidth': 410, 'origHeight': 410, 'width': 410, 'height': 410, 'widthPercent': 0.45, 'rescaleHeight': False, 'trialN': 83, 'loaded': True, 'loadedTime': 4287.700000001118, 'positionName': 'RIGHT', 'positionCoords': [645.84, 144], 'bid': 0.05}]",152531.0,1669832495736,cherry tomato,olives,7.54,0.05,-7.49,cherry tomato,1228.300000000745,1229,1228.5,True,u,154271.80000000075,1740.800000000745,1669832497477,1741,HRV,HRV_0161,2022-11-30 18:24:32
84,"[{'imgObject': {}, 'id': 'fried eggs', 'src': '/static/foodstim60/fried eggs.jpg', 'key': 'u', 'origWidth': 410, 'origHeight': 410, 'width': 410, 'height': 410, 'widthPercent': 0.45, 'rescaleHeight': False, 'trialN': 84, 'loaded': True, 'loadedTime': 4516.5, 'positionName': 'LEFT', 'positionCoords': [186.16, 144], 'bid': 2.8000000000000003}, {'imgObject': {}, 'id': 'sweetpotato', 'src': '/static/foodstim60/sweetpotato.jpg', 'key': 'i', 'origWidth': 410, 'origHeight': 410, 'width': 410, 'height': 410, 'widthPercent': 0.45, 'rescaleHeight': False, 'trialN': 84, 'loaded': True, 'loadedTime': 4412.300000000745, 'positionName': 'RIGHT', 'positionCoords': [645.84, 144], 'bid': 9.68}]",154272.20000000112,1669832497477,fried eggs,sweetpotato,2.8000000000000003,9.68,6.879999999999999,sweetpotato,911.2999999988824,912,912.0999999996275,True,i,155692.90000000037,1420.699999999255,1669832498898,1421,HRV,HRV_0161,2022-11-30 18:24:32
85,"[{'imgObject': {}, 'id': 'avocado', 'src': '/static/foodstim60/avocado.jpg', 'key': 'u', 'origWidth': 409, 'origHeight': 409, 'width': 409, 'height': 409, 'widthPercent': 0.45, 'rescaleHeight': False, 'trialN': 85, 'loaded': True, 'loadedTime': 4177.9000000003725, 'positionName': 'LEFT', 'positionCoords': [187.16, 144.5], 'bid': 4.14}, {'imgObject': {}, 'id': 'rigatoni', 'src': '/static/foodstim60/rigatoni.jpg', 'key': 'i', 'origWidth': 411, 'origHeight': 411, 'width': 411, 'height': 411, 'widthPercent': 0.45, 'rescaleHeight': False, 'trialN': 85, 'loaded': True, 'loadedTime': 4111.200000001118, 'positionName': 'RIGHT', 'positionCoords': [645.84, 143.5], 'bid': 1.6}]",155693.30000000075,1669832498898,avocado,rigatoni,4.14,1.6,-2.5399999999999996,avocado,1145.300000000745,1146,1145.9000000003725,True,u,157348.30000000075,1655.0,1669832500553,1655,HRV,HRV_0161,2022-11-30 18:24:32
86,"[{'imgObject': {}, 'id': 'mango', 'src': '/static/foodstim60/mango.jpg', 'key': 'u', 'origWidth': 411, 'origHeight': 411, 'width': 411, 'height': 411, 'widthPercent': 0.45, 'rescaleHeight': False, 'trialN': 86, 'loaded': True, 'loadedTime': 4549.800000000745, 'positionName': 'LEFT', 'positionCoords': [185.16, 143.5], 'bid': 7.99}, {'imgObject': {}, 'id': 'veggieswithdip', 'src': '/static/foodstim60/veggieswithdip.jpg', 'key': 'i', 'origWidth': 409, 'origHeight': 409, 'width': 409, 'height': 409, 'widthPercent': 0.45, 'rescaleHeight': False, 'trialN': 86, 'loaded': True, 'loadedTime': 4588.4000000003725, 'positionName': 'RIGHT', 'positionCoords': [645.84, 144.5], 'bid': 7.91}]",157348.6000000015,1669832500554,mango,veggieswithdip,7.99,7.91,-0.08000000000000007,mango,1078.2999999988824,1078,1078.699999999255,True,u,158937.0,1588.3999999985099,1669832502142,1588,HRV,HRV_0161,2022-11-30 18:24:32
87,"[{'imgObject': {}, 'id': 'turkey sandwich', 'src': '/static/foodstim60/turkey sandwich.jpg', 'key': 'u', 'origWidth': 409, 'origHeight': 409, 'width': 409, 'height': 409, 'widthPercent': 0.45, 'rescaleHeight': False, 'trialN': 87, 'loaded': True, 'loadedTime': 4462.300000000745, 'positionName': 'LEFT', 'positionCoords': [187.16, 144.5], 'bid': 9.28}, {'imgObject': {}, 'id': 'burger', 'src': '/static/foodstim60/burger.jpg', 'key': 'i', 'origWidth': 409, 'origHeight': 409, 'width': 409, 'height': 409, 'widthPercent': 0.45, 'rescaleHeight': False, 'trialN': 87, 'loaded': True, 'loadedTime': 4334.4000000003725, 'positionName': 'RIGHT', 'positionCoords': [645.84, 144.5], 'bid': 8.44}]",158937.20000000112,1669832502142,turkey sandwich,burger,9.28,8.44,-0.8399999999999999,turkey sandwich,2136.0,2137,2136.4000000003725,True,u,161585.40000000037,2648.199999999255,1669832504791,2649,HRV,HRV_0161,2022-11-30 18:24:32
88,"[{'imgObject': {}, 'id': 'turkey sandwich', 'src': '/static/foodstim60/turkey sandwich.jpg', 'key': 'u', 'origWidth': 409, 'origHeight': 409, 'width': 409, 'height': 409, 'widthPercent': 0.45, 'rescaleHeight': False, 'trialN': 88, 'loaded': True, 'loadedTime': 4462.800000000745, 'positionName': 'LEFT', 'positionCoords': [187.16, 144.5], 'bid': 9.28}, {'imgObject': {}, 'id': 'steak', 'src': '/static/foodstim60/steak.jpg', 'key': 'i', 'origWidth': 410, 'origHeight': 410, 'width': 410, 'height': 410, 'widthPercent': 0.45, 'rescaleHeight': False, 'trialN': 88, 'loaded': True, 'loadedTime': 4194.700000001118, 'positionName': 'RIGHT', 'positionCoords': [645.84, 144], 'bid': 8.94}]",161585.80000000075,1669832504791,turkey sandwich,steak,9.28,8.94,-0.33999999999999986,steak,1006.1999999992549,1006,1006.5999999996275,True,i,163110.30000000075,1524.5,1669832506315,1524,HRV,HRV_0161,2022-11-30 18:24:32
89,"[{'imgObject': {}, 'id': 'popsicles', 'src': '/static/foodstim60/popsicles.jpg', 'key': 'u', 'origWidth': 410, 'origHeight': 410, 'width': 410, 'height': 410, 'widthPercent': 0.45, 'rescaleHeight': False, 'trialN': 89, 'loaded': True, 'loadedTime': 4592.200000001118, 'positionName': 'LEFT', 'positionCoords': [186.16, 144], 'bid': 0.21}, {'imgObject': {}, 'id': 'shreddedwheatwithmilk', 'src': '/static/foodstim60/shreddedwheatwithmilk.jpg', 'key': 'i', 'origWidth': 410, 'origHeight': 410, 'width': 410, 'height': 410, 'widthPercent': 0.45, 'rescaleHeight': False, 'trialN': 89, 'loaded': True, 'loadedTime': 4416.4000000003725, 'positionName': 'RIGHT', 'positionCoords': [645.84, 144], 'bid': 1.47}]",163111.40000000037,1669832506317,popsicles,shreddedwheatwithmilk,0.21,1.47,1.26,shreddedwheatwithmilk,1566.7000000011176,1567,1567.2000000011176,True,i,165189.70000000112,2078.300000000745,1669832508395,2078,HRV,HRV_0161,2022-11-30 18:24:32
90,"[{'imgObject': {}, 'id': 'rigatoni', 'src': '/static/foodstim60/rigatoni.jpg', 'key': 'u', 'origWidth': 411, 'origHeight': 411, 'width': 411, 'height': 411, 'widthPercent': 0.45, 'rescaleHeight': False, 'trialN': 90, 'loaded': True, 'loadedTime': 4111.700000001118, 'positionName': 'LEFT', 'positionCoords': [185.16, 143.5], 'bid': 1.6}, {'imgObject': {}, 'id': 'rigatoni and sauce', 'src': '/static/foodstim60/rigatoni and sauce.jpg', 'key': 'i', 'origWidth': 410, 'origHeight': 411, 'width': 410, 'height': 411, 'widthPercent': 0.45, 'rescaleHeight': False, 'trialN': 90, 'loaded': True, 'loadedTime': 4309.60000000149, 'positionName': 'RIGHT', 'positionCoords': [645.84, 143.5], 'bid': 1.74}]",172669.5,1669832515875,rigatoni,rigatoni and sauce,1.6,1.74,0.1399999999999999,rigatoni,1739.1000000014901,1739,1739.6000000014901,True,u,174928.40000000037,2258.9000000003725,1669832518133,2258,HRV,HRV_0161,2022-11-30 18:24:32
91,"[{'imgObject': {}, 'id': 'seaweed', 'src': '/static/foodstim60/seaweed.jpg', 'key': 'u', 'origWidth': 410, 'origHeight': 410, 'width': 410, 'height': 410, 'widthPercent': 0.45, 'rescaleHeight': False, 'trialN': 91, 'loaded': True, 'loadedTime': 4373.200000001118, 'positionName': 'LEFT', 'positionCoords': [186.16, 144], 'bid': 0.15}, {'imgObject': {}, 'id': 'roastedpotatoes', 'src': '/static/foodstim60/roastedpotatoes.jpg', 'key': 'i', 'origWidth': 409, 'origHeight': 410, 'width': 409, 'height': 410, 'widthPercent': 0.45, 'rescaleHeight': False, 'trialN': 91, 'loaded': True, 'loadedTime': 4277.9000000003725, 'positionName': 'RIGHT', 'positionCoords': [645.84, 144], 'bid': 8.14}]",174928.70000000112,1669832518134,seaweed,roastedpotatoes,0.15,8.14,7.99,roastedpotatoes,1480.0999999996275,1480,1480.5,True,i,176921.30000000075,1992.5999999996275,1669832520126,1992,HRV,HRV_0161,2022-11-30 18:24:32
92,"[{'imgObject': {}, 'id': 'salad w chicken', 'src': '/static/foodstim60/salad w chicken.jpg', 'key': 'u', 'origWidth': 411, 'origHeight': 411, 'width': 411, 'height': 411, 'widthPercent': 0.45, 'rescaleHeight': False, 'trialN': 92, 'loaded': True, 'loadedTime': 4272.9000000003725, 'positionName': 'LEFT', 'positionCoords': [185.16, 143.5], 'bid': 9.79}, {'imgObject': {}, 'id': 'pear', 'src': '/static/foodstim60/pear.jpg', 'key': 'i', 'origWidth': 411, 'origHeight': 410, 'width': 411, 'height': 410, 'widthPercent': 0.45, 'rescaleHeight': False, 'trialN': 92, 'loaded': True, 'loadedTime': 4213.200000001118, 'positionName': 'RIGHT', 'positionCoords': [645.84, 144], 'bid': 9.79}]",176921.80000000075,1669832520127,salad w chicken,pear,9.79,9.79,0.0,salad w chicken,873.0,873,873.4000000003725,True,u,178305.80000000075,1384.0,1669832521511,1384,HRV,HRV_0161,2022-11-30 18:24:32
93,"[{'imgObject': {}, 'id': 'veggieswithdip', 'src': '/static/foodstim60/veggieswithdip.jpg', 'key': 'u', 'origWidth': 409, 'origHeight': 409, 'width': 409, 'height': 409, 'widthPercent': 0.45, 'rescaleHeight': False, 'trialN': 93, 'loaded': True, 'loadedTime': 4587.60000000149, 'positionName': 'LEFT', 'positionCoords': [187.16, 144.5], 'bid': 7.91}, {'imgObject': {}, 'id': 'sweetpotato', 'src': '/static/foodstim60/sweetpotato.jpg', 'key': 'i', 'origWidth': 410, 'origHeight': 410, 'width': 410, 'height': 410, 'widthPercent': 0.45, 'rescaleHeight': False, 'trialN': 93, 'loaded': True, 'loadedTime': 4401.5, 'positionName': 'RIGHT', 'positionCoords': [645.84, 144], 'bid': 9.68}]",178306.0,1669832521511,veggieswithdip,sweetpotato,7.91,9.68,1.7699999999999996,sweetpotato,1047.4000000003725,1048,1047.9000000003725,True,i,179862.0,1556.0,1669832523067,1556,HRV,HRV_0161,2022-11-30 18:24:32
94,"[{'imgObject': {}, 'id': 'froot loops w milk', 'src': '/static/foodstim60/froot loops w milk.jpg', 'key': 'u', 'origWidth': 410, 'origHeight': 410, 'width': 410, 'height': 410, 'widthPercent': 0.45, 'rescaleHeight': False, 'trialN': 94, 'loaded': True, 'loadedTime': 4547.60000000149, 'positionName': 'LEFT', 'positionCoords': [186.16, 144], 'bid': 0.15}, {'imgObject': {}, 'id': 'popsicles', 'src': '/static/foodstim60/popsicles.jpg', 'key': 'i', 'origWidth': 410, 'origHeight': 410, 'width': 410, 'height': 410, 'widthPercent': 0.45, 'rescaleHeight': False, 'trialN': 94, 'loaded': True, 'loadedTime': 4592.60000000149, 'positionName': 'RIGHT', 'positionCoords': [645.84, 144], 'bid': 0.21}]",179862.5,1669832523068,froot loops w milk,popsicles,0.15,0.21,0.06,froot loops w milk,1102.0,1102,1102.300000000745,True,u,181479.90000000037,1617.4000000003725,1669832524685,1617,HRV,HRV_0161,2022-11-30 18:24:32
95,"[{'imgObject': {}, 'id': 'Tribe humus pita', 'src': '/static/foodstim60/Tribe humus pita.jpg', 'key': 'u', 'origWidth': 411, 'origHeight': 411, 'width': 411, 'height': 411, 'widthPercent': 0.45, 'rescaleHeight': False, 'trialN': 95, 'loaded': True, 'loadedTime': 4565.200000001118, 'positionName': 'LEFT', 'positionCoords': [185.16, 143.5], 'bid': 0.13}, {'imgObject': {}, 'id': 'veggieswithdip', 'src': '/static/foodstim60/veggieswithdip.jpg', 'key': 'i', 'origWidth': 409, 'origHeight': 409, 'width': 409, 'height': 409, 'widthPercent': 0.45, 'rescaleHeight': False, 'trialN': 95, 'loaded': True, 'loadedTime': 4588.5, 'positionName': 'RIGHT', 'positionCoords': [645.84, 144.5], 'bid': 7.91}]",181480.20000000112,1669832524685,Tribe humus pita,veggieswithdip,0.13,7.91,7.78,veggieswithdip,784.0,785,784.4000000003725,True,i,182773.90000000037,1293.699999999255,1669832525979,1294,HRV,HRV_0161,2022-11-30 18:24:32
96,"[{'imgObject': {}, 'id': 'hashbrowns', 'src': '/static/foodstim60/hashbrowns.jpg', 'key': 'u', 'origWidth': 411, 'origHeight': 410, 'width': 411, 'height': 410, 'widthPercent': 0.45, 'rescaleHeight': False, 'trialN': 96, 'loaded': True, 'loadedTime': 4114.9000000003725, 'positionName': 'LEFT', 'positionCoords': [185.16, 144], 'bid': 7.0600000000000005}, {'imgObject': {}, 'id': 'baked potato', 'src': '/static/foodstim60/baked potato.jpg', 'key': 'i', 'origWidth': 409, 'origHeight': 410, 'width': 409, 'height': 410, 'widthPercent': 0.45, 'rescaleHeight': False, 'trialN': 96, 'loaded': True, 'loadedTime': 4459.9000000003725, 'positionName': 'RIGHT', 'positionCoords': [645.84, 144], 'bid': 7.54}]",182774.1000000015,1669832525979,hashbrowns,baked potato,7.0600000000000005,7.54,0.47999999999999954,hashbrowns,972.5999999996275,973,972.7999999988824,True,u,184259.5,1485.3999999985099,1669832527465,1486,HRV,HRV_0161,2022-11-30 18:24:32
97,"[{'imgObject': {}, 'id': 'grilled chicken strips', 'src': '/static/foodstim60/grilled chicken strips.jpg', 'key': 'u', 'origWidth': 410, 'origHeight': 411, 'width': 410, 'height': 411, 'widthPercent': 0.45, 'rescaleHeight': False, 'trialN': 97, 'loaded': True, 'loadedTime': 4544.4000000003725, 'positionName': 'LEFT', 'positionCoords': [186.16, 143.5], 'bid': 8.75}, {'imgObject': {}, 'id': 'chickenfingers', 'src': '/static/foodstim60/chickenfingers.jpg', 'key': 'i', 'origWidth': 410, 'origHeight': 410, 'width': 410, 'height': 410, 'widthPercent': 0.45, 'rescaleHeight': False, 'trialN': 97, 'loaded': True, 'loadedTime': 4328.700000001118, 'positionName': 'RIGHT', 'positionCoords': [645.84, 144], 'bid': 8.28}]",184259.80000000075,1669832527465,grilled chicken strips,chickenfingers,8.75,8.28,-0.47000000000000064,grilled chicken strips,1733.300000000745,1734,1733.9000000003725,True,u,186498.6000000015,2238.800000000745,1669832529704,2239,HRV,HRV_0161,2022-11-30 18:24:32
98,"[{'imgObject': {}, 'id': 'baked potato', 'src': '/static/foodstim60/baked potato.jpg', 'key': 'u', 'origWidth': 409, 'origHeight': 410, 'width': 409, 'height': 410, 'widthPercent': 0.45, 'rescaleHeight': False, 'trialN': 98, 'loaded': True, 'loadedTime': 4458.10000000149, 'positionName': 'LEFT', 'positionCoords': [187.16, 144], 'bid': 7.54}, {'imgObject': {}, 'id': 'roastedpotatoes', 'src': '/static/foodstim60/roastedpotatoes.jpg', 'key': 'i', 'origWidth': 409, 'origHeight': 410, 'width': 409, 'height': 410, 'widthPercent': 0.45, 'rescaleHeight': False, 'trialN': 98, 'loaded': True, 'loadedTime': 4275, 'positionName': 'RIGHT', 'positionCoords': [645.84, 144], 'bid': 8.14}]",186498.90000000037,1669832529704,baked potato,roastedpotatoes,7.54,8.14,0.6000000000000005,baked potato,2036.7000000011176,2037,2037.0,True,u,189047.20000000112,2548.300000000745,1669832532252,2548,HRV,HRV_0161,2022-11-30 18:24:32
99,"[{'imgObject': {}, 'id': 'salmon', 'src': '/static/foodstim60/salmon.jpg', 'key': 'u', 'origWidth': 410, 'origHeight': 409, 'width': 410, 'height': 409, 'widthPercent': 0.45, 'rescaleHeight': False, 'trialN': 99, 'loaded': True, 'loadedTime': 4360.5, 'positionName': 'LEFT', 'positionCoords': [186.16, 144.5], 'bid': 0.26}, {'imgObject': {}, 'id': 'yogurt no spoon', 'src': '/static/foodstim60/yogurt no spoon.jpg', 'key': 'i', 'origWidth': 411, 'origHeight': 410, 'width': 411, 'height': 410, 'widthPercent': 0.45, 'rescaleHeight': False, 'trialN': 99, 'loaded': True, 'loadedTime': 4490.800000000745, 'positionName': 'RIGHT', 'positionCoords': [645.84, 144], 'bid': 8.84}]",189047.6000000015,1669832532253,salmon,yogurt no spoon,0.26,8.84,8.58,yogurt no spoon,1224.0999999996275,1224,1224.5,True,i,190781.5,1733.8999999985099,1669832533987,1734,HRV,HRV_0161,2022-11-30 18:24:32
100,"[{'imgObject': {}, 'id': 'orange slices', 'src': '/static/foodstim60/orange slices.jpg', 'key': 'u', 'origWidth': 409, 'origHeight': 410, 'width': 409, 'height': 410, 'widthPercent': 0.45, 'rescaleHeight': False, 'trialN': 100, 'loaded': True, 'loadedTime': 4312.800000000745, 'positionName': 'LEFT', 'positionCoords': [187.16, 144], 'bid': 9.63}, {'imgObject': {}, 'id': 'raspberries', 'src': '/static/foodstim60/raspberries.jpg', 'key': 'i', 'origWidth': 411, 'origHeight': 411, 'width': 411, 'height': 411, 'widthPercent': 0.45, 'rescaleHeight': False, 'trialN': 100, 'loaded': True, 'loadedTime': 4496.700000001118, 'positionName': 'RIGHT', 'positionCoords': [645.84, 143.5], 'bid': 9.86}]",190782.1000000015,1669832533987,orange slices,raspberries,9.63,9.86,0.22999999999999865,raspberries,1502.199999999255,1503,1502.5999999996275,True,i,192801.40000000037,2019.2999999988824,1669832536007,2020,HRV,HRV_0161,2022-11-30 18:24:32
101,"[{'imgObject': {}, 'id': 'granola w milk', 'src': '/static/foodstim60/granola w milk.jpg', 'key': 'u', 'origWidth': 410, 'origHeight': 410, 'width': 410, 'height': 410, 'widthPercent': 0.45, 'rescaleHeight': False, 'trialN': 101, 'loaded': True, 'loadedTime': 4420.9000000003725, 'positionName': 'LEFT', 'positionCoords': [186.16, 144], 'bid': 4.98}, {'imgObject': {}, 'id': 'veggieswithdip', 'src': '/static/foodstim60/veggieswithdip.jpg', 'key': 'i', 'origWidth': 409, 'origHeight': 409, 'width': 409, 'height': 409, 'widthPercent': 0.45, 'rescaleHeight': False, 'trialN': 101, 'loaded': True, 'loadedTime': 4587.9000000003725, 'positionName': 'RIGHT', 'positionCoords': [645.84, 144.5], 'bid': 7.91}]",192801.90000000037,1669832536007,granola w milk,veggieswithdip,4.98,7.91,2.9299999999999997,veggieswithdip,1401.5999999996275,1402,1402.300000000745,True,i,194715.30000000075,1913.4000000003725,1669832537920,1913,HRV,HRV_0161,2022-11-30 18:24:32
102,"[{'imgObject': {}, 'id': 'grilled chicken strips', 'src': '/static/foodstim60/grilled chicken strips.jpg', 'key': 'u', 'origWidth': 410, 'origHeight': 411, 'width': 410, 'height': 411, 'widthPercent': 0.45, 'rescaleHeight': False, 'trialN': 102, 'loaded': True, 'loadedTime': 4544.700000001118, 'positionName': 'LEFT', 'positionCoords': [186.16, 143.5], 'bid': 8.75}, {'imgObject': {}, 'id': 'hashbrowns', 'src': '/static/foodstim60/hashbrowns.jpg', 'key': 'i', 'origWidth': 411, 'origHeight': 410, 'width': 411, 'height': 410, 'widthPercent': 0.45, 'rescaleHeight': False, 'trialN': 102, 'loaded': True, 'loadedTime': 4115.60000000149, 'positionName': 'RIGHT', 'positionCoords': [645.84, 144], 'bid': 7.0600000000000005}]",194715.6000000015,1669832537921,grilled chicken strips,hashbrowns,8.75,7.0600000000000005,-1.6899999999999995,hashbrowns,1228.8999999985099,1229,1229.3999999985099,True,i,196466.0,1750.3999999985099,1669832539671,1750,HRV,HRV_0161,2022-11-30 18:24:32
103,"[{'imgObject': {}, 'id': 'sushi w_condiments', 'src': '/static/foodstim60/sushi w_condiments.jpg', 'key': 'u', 'origWidth': 410, 'origHeight': 410, 'width': 410, 'height': 410, 'widthPercent': 0.45, 'rescaleHeight': False, 'trialN': 103, 'loaded': True, 'loadedTime': 4486.200000001118, 'positionName': 'LEFT', 'positionCoords': [186.16, 144], 'bid': 0.1}, {'imgObject': {}, 'id': 'olives', 'src': '/static/foodstim60/olives.jpg', 'key': 'i', 'origWidth': 410, 'origHeight': 410, 'width': 410, 'height': 410, 'widthPercent': 0.45, 'rescaleHeight': False, 'trialN': 103, 'loaded': True, 'loadedTime': 4293.5, 'positionName': 'RIGHT', 'positionCoords': [645.84, 144], 'bid': 0.05}]",196466.5,1669832539672,sushi w_condiments,olives,0.1,0.05,-0.05,olives,2025.4000000003725,2025,2025.800000000745,True,i,198998.40000000037,2531.9000000003725,1669832542204,2532,HRV,HRV_0161,2022-11-30 18:24:32
104,"[{'imgObject': {}, 'id': 'bagel plain', 'src': '/static/foodstim60/bagel plain.jpg', 'key': 'u', 'origWidth': 410, 'origHeight': 410, 'width': 410, 'height': 410, 'widthPercent': 0.45, 'rescaleHeight': False, 'trialN': 104, 'loaded': True, 'loadedTime': 4499, 'positionName': 'LEFT', 'positionCoords': [186.16, 144], 'bid': 4.17}, {'imgObject': {}, 'id': 'bagel and cc', 'src': '/static/foodstim60/bagel and cc.jpg', 'key': 'i', 'origWidth': 410, 'origHeight': 410, 'width': 410, 'height': 410, 'widthPercent': 0.45, 'rescaleHeight': False, 'trialN': 104, 'loaded': True, 'loadedTime': 4582.10000000149, 'positionName': 'RIGHT', 'positionCoords': [645.84, 144], 'bid': 4.58}]",198998.70000000112,1669832542204,bagel plain,bagel and cc,4.17,4.58,0.41000000000000014,bagel and cc,1204.9000000003725,1205,1205.4000000003725,True,i,200710.90000000037,1712.199999999255,1669832543916,1712,HRV,HRV_0161,2022-11-30 18:24:32
105,"[{'imgObject': {}, 'id': 'olives', 'src': '/static/foodstim60/olives.jpg', 'key': 'u', 'origWidth': 410, 'origHeight': 410, 'width': 410, 'height': 410, 'widthPercent': 0.45, 'rescaleHeight': False, 'trialN': 105, 'loaded': True, 'loadedTime': 4293.800000000745, 'positionName': 'LEFT', 'positionCoords': [186.16, 144], 'bid': 0.05}, {'imgObject': {}, 'id': 'rigatoni and sauce', 'src': '/static/foodstim60/rigatoni and sauce.jpg', 'key': 'i', 'origWidth': 410, 'origHeight': 411, 'width': 410, 'height': 411, 'widthPercent': 0.45, 'rescaleHeight': False, 'trialN': 105, 'loaded': True, 'loadedTime': 4306, 'positionName': 'RIGHT', 'positionCoords': [645.84, 143.5], 'bid': 1.74}]",200711.40000000037,1669832543917,olives,rigatoni and sauce,0.05,1.74,1.69,rigatoni and sauce,1198.0999999996275,1198,1198.4000000003725,True,i,202414.0,1702.5999999996275,1669832545619,1702,HRV,HRV_0161,2022-11-30 18:24:32
106,"[{'imgObject': {}, 'id': 'orange slices', 'src': '/static/foodstim60/orange slices.jpg', 'key': 'u', 'origWidth': 409, 'origHeight': 410, 'width': 409, 'height': 410, 'widthPercent': 0.45, 'rescaleHeight': False, 'trialN': 106, 'loaded': True, 'loadedTime': 4311.60000000149, 'positionName': 'LEFT', 'positionCoords': [187.16, 144], 'bid': 9.63}, {'imgObject': {}, 'id': 'cherry tomato', 'src': '/static/foodstim60/cherry tomato.jpg', 'key': 'i', 'origWidth': 410, 'origHeight': 410, 'width': 410, 'height': 410, 'widthPercent': 0.45, 'rescaleHeight': False, 'trialN': 106, 'loaded': True, 'loadedTime': 4586.10000000149, 'positionName': 'RIGHT', 'positionCoords': [645.84, 144], 'bid': 7.54}]",202414.5,1669832545620,orange slices,cherry tomato,9.63,7.54,-2.0900000000000007,orange slices,1039.800000000745,1040,1040.2000000011176,True,u,203968.90000000037,1554.4000000003725,1669832547174,1554,HRV,HRV_0161,2022-11-30 18:24:32
107,"[{'imgObject': {}, 'id': 'froot loops w milk', 'src': '/static/foodstim60/froot loops w milk.jpg', 'key': 'u', 'origWidth': 410, 'origHeight': 410, 'width': 410, 'height': 410, 'widthPercent': 0.45, 'rescaleHeight': False, 'trialN': 107, 'loaded': True, 'loadedTime': 4547.800000000745, 'positionName': 'LEFT', 'positionCoords': [186.16, 144], 'bid': 0.15}, {'imgObject': {}, 'id': 'sushi w_condiments', 'src': '/static/foodstim60/sushi w_condiments.jpg', 'key': 'i', 'origWidth': 410, 'origHeight': 410, 'width': 410, 'height': 410, 'widthPercent': 0.45, 'rescaleHeight': False, 'trialN': 107, 'loaded': True, 'loadedTime': 4486.800000000745, 'positionName': 'RIGHT', 'positionCoords': [645.84, 144], 'bid': 0.1}]",203969.1000000015,1669832547174,froot loops w milk,sushi w_condiments,0.15,0.1,-0.04999999999999999,froot loops w milk,1424.8999999985099,1425,1425.199999999255,True,u,205907.30000000075,1938.199999999255,1669832549112,1938,HRV,HRV_0161,2022-11-30 18:24:32
108,"[{'imgObject': {}, 'id': 'raisin bran w milk', 'src': '/static/foodstim60/raisin bran w milk.jpg', 'key': 'u', 'origWidth': 411, 'origHeight': 411, 'width': 411, 'height': 411, 'widthPercent': 0.45, 'rescaleHeight': False, 'trialN': 108, 'loaded': True, 'loadedTime': 4246.700000001118, 'positionName': 'LEFT', 'positionCoords': [185.16, 143.5], 'bid': 5.32}, {'imgObject': {}, 'id': 'cherry tomato', 'src': '/static/foodstim60/cherry tomato.jpg', 'key': 'i', 'origWidth': 410, 'origHeight': 410, 'width': 410, 'height': 410, 'widthPercent': 0.45, 'rescaleHeight': False, 'trialN': 108, 'loaded': True, 'loadedTime': 4585.9000000003725, 'positionName': 'RIGHT', 'positionCoords': [645.84, 144], 'bid': 7.54}]",205907.70000000112,1669832549112,raisin bran w milk,cherry tomato,5.32,7.54,2.2199999999999998,raisin bran w milk,1124.5,1126,1125.2999999988824,True,u,207547.5,1639.7999999988824,1669832550752,1640,HRV,HRV_0161,2022-11-30 18:24:32
