trialN,stimuli,question,trialStartTime,trialStartTime_UNIX,stimulus1,rt,receivedResponse,rating,trialEndTime,trialDuration,stimulus1Loaded,exp,subjectId,date
0,"[{'imgObject': {}, 'id': 'mashed potato', 'src': '/static/foodstim60/mashed potato.jpg', 'key': 'NaN', 'origWidth': 409, 'origHeight': 409, 'width': 409, 'height': 409, 'widthPercent': 0.8, 'rescaleHeight': True, 'trialN': 0, 'loaded': True, 'loadedTime': 2726.4000000003725, 'positionName': 'CENTER', 'positionCoords': [416.5, 144.5]}]",Rate how much you want to eat this food from 0 (least) to 10 (most).,3514.7000000011176,1669831902121,mashed potato,5278.5999999996275,True,1.55,8793.300000000745,5278.5999999996275,True,HRV,HRV_0161,2022-11-30 18:14:28
1,"[{'imgObject': {}, 'id': 'eggs', 'src': '/static/foodstim60/eggs.jpg', 'key': 'NaN', 'origWidth': 409, 'origHeight': 409, 'width': 409, 'height': 409, 'widthPercent': 0.8, 'rescaleHeight': True, 'trialN': 1, 'loaded': True, 'loadedTime': 2756.800000000745, 'positionName': 'CENTER', 'positionCoords': [416.5, 144.5]}]",Rate how much you want to eat this food from 0 (least) to 10 (most).,8796.700000001118,1669831907403,eggs,3178.5,True,9.31,11975.200000001118,3178.5,True,HRV,HRV_0161,2022-11-30 18:14:28
2,"[{'imgObject': {}, 'id': 'cherries', 'src': '/static/foodstim60/cherries.jpg', 'key': 'NaN', 'origWidth': 410, 'origHeight': 411, 'width': 410, 'height': 411, 'widthPercent': 0.8, 'rescaleHeight': True, 'trialN': 2, 'loaded': True, 'loadedTime': 2773, 'positionName': 'CENTER', 'positionCoords': [416, 143.5]}]",Rate how much you want to eat this food from 0 (least) to 10 (most).,11976.5,1669831910583,cherries,2108.7000000011176,True,10.0,14085.200000001118,2108.7000000011176,True,HRV,HRV_0161,2022-11-30 18:14:28
3,"[{'imgObject': {}, 'id': 'luckycharms', 'src': '/static/foodstim60/luckycharms.jpg', 'key': 'NaN', 'origWidth': 410, 'origHeight': 409, 'width': 410, 'height': 409, 'widthPercent': 0.8, 'rescaleHeight': True, 'trialN': 3, 'loaded': True, 'loadedTime': 2813.2000000011176, 'positionName': 'CENTER', 'positionCoords': [416, 144.5]}]",Rate how much you want to eat this food from 0 (least) to 10 (most).,14086.400000000373,1669831912693,luckycharms,2744.7000000011176,True,1.29,16831.10000000149,2744.7000000011176,True,HRV,HRV_0161,2022-11-30 18:14:28
4,"[{'imgObject': {}, 'id': 'fruitsalad', 'src': '/static/foodstim60/fruitsalad.jpg', 'key': 'NaN', 'origWidth': 410, 'origHeight': 410, 'width': 410, 'height': 410, 'widthPercent': 0.8, 'rescaleHeight': True, 'trialN': 4, 'loaded': True, 'loadedTime': 2839.2000000011176, 'positionName': 'CENTER', 'positionCoords': [416, 144]}]",Rate how much you want to eat this food from 0 (least) to 10 (most).,16832.900000000373,1669831915439,fruitsalad,2516.5999999996275,True,9.86,19349.5,2516.5999999996275,True,HRV,HRV_0161,2022-11-30 18:14:28
5,"[{'imgObject': {}, 'id': 'cheerios', 'src': '/static/foodstim60/cheerios.jpg', 'key': 'NaN', 'origWidth': 409, 'origHeight': 410, 'width': 409, 'height': 410, 'widthPercent': 0.8, 'rescaleHeight': True, 'trialN': 5, 'loaded': True, 'loadedTime': 2827.60000000149, 'positionName': 'CENTER', 'positionCoords': [416.5, 144]}]",Rate how much you want to eat this food from 0 (least) to 10 (most).,19351.10000000149,1669831917958,cheerios,3646.0999999996275,True,3.06,22997.200000001118,3646.0999999996275,True,HRV,HRV_0161,2022-11-30 18:14:28
6,"[{'imgObject': {}, 'id': 'salmon', 'src': '/static/foodstim60/salmon.jpg', 'key': 'NaN', 'origWidth': 410, 'origHeight': 409, 'width': 410, 'height': 409, 'widthPercent': 0.8, 'rescaleHeight': True, 'trialN': 6, 'loaded': True, 'loadedTime': 2801, 'positionName': 'CENTER', 'positionCoords': [416, 144.5]}]",Rate how much you want to eat this food from 0 (least) to 10 (most).,22998.800000000745,1669831921605,salmon,3266.800000000745,True,1.19,26265.60000000149,3266.800000000745,True,HRV,HRV_0161,2022-11-30 18:14:28
7,"[{'imgObject': {}, 'id': 'cocktailshrimp', 'src': '/static/foodstim60/cocktailshrimp.jpg', 'key': 'NaN', 'origWidth': 410, 'origHeight': 410, 'width': 410, 'height': 410, 'widthPercent': 0.8, 'rescaleHeight': True, 'trialN': 7, 'loaded': True, 'loadedTime': 2844.7000000011176, 'positionName': 'CENTER', 'positionCoords': [416, 144]}]",Rate how much you want to eat this food from 0 (least) to 10 (most).,26266.900000000373,1669831924873,cocktailshrimp,4930.300000000745,True,9.91,31197.200000001118,4930.300000000745,True,HRV,HRV_0161,2022-11-30 18:14:28
8,"[{'imgObject': {}, 'id': 'blueberries', 'src': '/static/foodstim60/blueberries.jpg', 'key': 'NaN', 'origWidth': 411, 'origHeight': 411, 'width': 411, 'height': 411, 'widthPercent': 0.8, 'rescaleHeight': True, 'trialN': 8, 'loaded': True, 'loadedTime': 2817, 'positionName': 'CENTER', 'positionCoords': [415.5, 143.5]}]",Rate how much you want to eat this food from 0 (least) to 10 (most).,31198.900000000373,1669831929805,blueberries,2116.7000000011176,True,9.91,33315.60000000149,2116.7000000011176,True,HRV,HRV_0161,2022-11-30 18:14:28
9,"[{'imgObject': {}, 'id': 'mac & cheese', 'src': '/static/foodstim60/mac & cheese.jpg', 'key': 'NaN', 'origWidth': 410, 'origHeight': 410, 'width': 410, 'height': 410, 'widthPercent': 0.8, 'rescaleHeight': True, 'trialN': 9, 'loaded': True, 'loadedTime': 2853.60000000149, 'positionName': 'CENTER', 'positionCoords': [416, 144]}]",Rate how much you want to eat this food from 0 (least) to 10 (most).,33317.60000000149,1669831931924,mac & cheese,2248.0,True,2.95,35565.60000000149,2248.0,True,HRV,HRV_0161,2022-11-30 18:14:28
10,"[{'imgObject': {}, 'id': 'cantaloupe', 'src': '/static/foodstim60/cantaloupe.jpg', 'key': 'NaN', 'origWidth': 409, 'origHeight': 409, 'width': 409, 'height': 409, 'widthPercent': 0.8, 'rescaleHeight': True, 'trialN': 10, 'loaded': True, 'loadedTime': 2858.300000000745, 'positionName': 'CENTER', 'positionCoords': [416.5, 144.5]}]",Rate how much you want to eat this food from 0 (least) to 10 (most).,35567.10000000149,1669831934173,cantaloupe,3222.39999999851,True,9.950000000000001,38789.5,3222.39999999851,True,HRV,HRV_0161,2022-11-30 18:14:28
11,"[{'imgObject': {}, 'id': 'orange slices', 'src': '/static/foodstim60/orange slices.jpg', 'key': 'NaN', 'origWidth': 409, 'origHeight': 410, 'width': 409, 'height': 410, 'widthPercent': 0.8, 'rescaleHeight': True, 'trialN': 11, 'loaded': True, 'loadedTime': 2868.300000000745, 'positionName': 'CENTER', 'positionCoords': [416.5, 144]}]",Rate how much you want to eat this food from 0 (least) to 10 (most).,38791.60000000149,1669831937398,orange slices,1761.5999999996275,True,9.81,40553.20000000112,1761.5999999996275,True,HRV,HRV_0161,2022-11-30 18:14:28
12,"[{'imgObject': {}, 'id': 'steak', 'src': '/static/foodstim60/steak.jpg', 'key': 'NaN', 'origWidth': 410, 'origHeight': 410, 'width': 410, 'height': 410, 'widthPercent': 0.8, 'rescaleHeight': True, 'trialN': 12, 'loaded': True, 'loadedTime': 2877.9000000003725, 'positionName': 'CENTER', 'positionCoords': [416, 144]}]",Rate how much you want to eat this food from 0 (least) to 10 (most).,40554.70000000112,1669831939161,steak,2512.4000000003725,True,7.8,43067.10000000149,2512.4000000003725,True,HRV,HRV_0161,2022-11-30 18:14:28
13,"[{'imgObject': {}, 'id': 'fried eggs', 'src': '/static/foodstim60/fried eggs.jpg', 'key': 'NaN', 'origWidth': 410, 'origHeight': 410, 'width': 410, 'height': 410, 'widthPercent': 0.8, 'rescaleHeight': True, 'trialN': 13, 'loaded': True, 'loadedTime': 2891.10000000149, 'positionName': 'CENTER', 'positionCoords': [416, 144]}]",Rate how much you want to eat this food from 0 (least) to 10 (most).,43068.70000000112,1669831941675,fried eggs,2388.4000000003725,True,3.37,45457.10000000149,2388.4000000003725,True,HRV,HRV_0161,2022-11-30 18:14:28
14,"[{'imgObject': {}, 'id': 'froot loops w milk', 'src': '/static/foodstim60/froot loops w milk.jpg', 'key': 'NaN', 'origWidth': 410, 'origHeight': 410, 'width': 410, 'height': 410, 'widthPercent': 0.8, 'rescaleHeight': True, 'trialN': 14, 'loaded': True, 'loadedTime': 2913.7000000011176, 'positionName': 'CENTER', 'positionCoords': [416, 144]}]",Rate how much you want to eat this food from 0 (least) to 10 (most).,45458.60000000149,1669831944065,froot loops w milk,2450.699999999255,True,0.52,47909.300000000745,2450.699999999255,True,HRV,HRV_0161,2022-11-30 18:14:28
15,"[{'imgObject': {}, 'id': 'pear', 'src': '/static/foodstim60/pear.jpg', 'key': 'NaN', 'origWidth': 411, 'origHeight': 410, 'width': 411, 'height': 410, 'widthPercent': 0.8, 'rescaleHeight': True, 'trialN': 15, 'loaded': True, 'loadedTime': 2918, 'positionName': 'CENTER', 'positionCoords': [415.5, 144]}]",Rate how much you want to eat this food from 0 (least) to 10 (most).,47911.800000000745,1669831946519,pear,4023.800000000745,True,10.0,51935.60000000149,4023.800000000745,True,HRV,HRV_0161,2022-11-30 18:14:28
16,"[{'imgObject': {}, 'id': 'raspberries', 'src': '/static/foodstim60/raspberries.jpg', 'key': 'NaN', 'origWidth': 411, 'origHeight': 411, 'width': 411, 'height': 411, 'widthPercent': 0.8, 'rescaleHeight': True, 'trialN': 16, 'loaded': True, 'loadedTime': 2915.2000000011176, 'positionName': 'CENTER', 'positionCoords': [415.5, 143.5]}]",Rate how much you want to eat this food from 0 (least) to 10 (most).,51936.60000000149,1669831950543,raspberries,1580.5999999996275,True,9.78,53517.20000000112,1580.5999999996275,True,HRV,HRV_0161,2022-11-30 18:14:28
17,"[{'imgObject': {}, 'id': 'shreddedwheatwithmilk', 'src': '/static/foodstim60/shreddedwheatwithmilk.jpg', 'key': 'NaN', 'origWidth': 410, 'origHeight': 410, 'width': 410, 'height': 410, 'widthPercent': 0.8, 'rescaleHeight': True, 'trialN': 17, 'loaded': True, 'loadedTime': 2926.4000000003725, 'positionName': 'CENTER', 'positionCoords': [416, 144]}]",Rate how much you want to eat this food from 0 (least) to 10 (most).,53518.40000000037,1669831952125,shreddedwheatwithmilk,3697.2000000011176,True,1.71,57215.60000000149,3697.2000000011176,True,HRV,HRV_0161,2022-11-30 18:14:28
18,"[{'imgObject': {}, 'id': 'eggsalad', 'src': '/static/foodstim60/eggsalad.jpg', 'key': 'NaN', 'origWidth': 410, 'origHeight': 409, 'width': 410, 'height': 409, 'widthPercent': 0.8, 'rescaleHeight': True, 'trialN': 18, 'loaded': True, 'loadedTime': 2930.10000000149, 'positionName': 'CENTER', 'positionCoords': [416, 144.5]}]",Rate how much you want to eat this food from 0 (least) to 10 (most).,57217.300000000745,1669831955824,eggsalad,2441.9000000003725,True,7.390000000000001,59659.20000000112,2441.9000000003725,True,HRV,HRV_0161,2022-11-30 18:14:28
19,"[{'imgObject': {}, 'id': 'Tribe humus pita', 'src': '/static/foodstim60/Tribe humus pita.jpg', 'key': 'NaN', 'origWidth': 411, 'origHeight': 411, 'width': 411, 'height': 411, 'widthPercent': 0.8, 'rescaleHeight': True, 'trialN': 19, 'loaded': True, 'loadedTime': 2953.9000000003725, 'positionName': 'CENTER', 'positionCoords': [415.5, 143.5]}]",Rate how much you want to eat this food from 0 (least) to 10 (most).,59660.40000000037,1669831958267,Tribe humus pita,2773.300000000745,True,0.07,62433.70000000112,2773.300000000745,True,HRV,HRV_0161,2022-11-30 18:14:28
20,"[{'imgObject': {}, 'id': 'turkey sandwich', 'src': '/static/foodstim60/turkey sandwich.jpg', 'key': 'NaN', 'origWidth': 409, 'origHeight': 409, 'width': 409, 'height': 409, 'widthPercent': 0.8, 'rescaleHeight': True, 'trialN': 20, 'loaded': True, 'loadedTime': 2979.10000000149, 'positionName': 'CENTER', 'positionCoords': [416.5, 144.5]}]",Rate how much you want to eat this food from 0 (least) to 10 (most).,62435.40000000037,1669831961042,turkey sandwich,2769.800000000745,True,9.23,65205.20000000112,2769.800000000745,True,HRV,HRV_0161,2022-11-30 18:14:28
21,"[{'imgObject': {}, 'id': 'blackbeanswithrice', 'src': '/static/foodstim60/blackbeanswithrice.jpg', 'key': 'NaN', 'origWidth': 410, 'origHeight': 410, 'width': 410, 'height': 410, 'widthPercent': 0.8, 'rescaleHeight': True, 'trialN': 21, 'loaded': True, 'loadedTime': 2962.9000000003725, 'positionName': 'CENTER', 'positionCoords': [416, 144]}]",Rate how much you want to eat this food from 0 (least) to 10 (most).,65206.5,1669831963813,blackbeanswithrice,2619.0,True,1.53,67825.5,2619.0,True,HRV,HRV_0161,2022-11-30 18:14:28
22,"[{'imgObject': {}, 'id': 'corn cob', 'src': '/static/foodstim60/corn cob.jpg', 'key': 'NaN', 'origWidth': 411, 'origHeight': 411, 'width': 411, 'height': 411, 'widthPercent': 0.8, 'rescaleHeight': True, 'trialN': 22, 'loaded': True, 'loadedTime': 2983.60000000149, 'positionName': 'CENTER', 'positionCoords': [415.5, 143.5]}]",Rate how much you want to eat this food from 0 (least) to 10 (most).,67826.90000000037,1669831966434,corn cob,2444.2000000011176,True,8.25,70271.10000000149,2444.2000000011176,True,HRV,HRV_0161,2022-11-30 18:14:28
23,"[{'imgObject': {}, 'id': 'turkeysandwich', 'src': '/static/foodstim60/turkeysandwich.jpg', 'key': 'NaN', 'origWidth': 409, 'origHeight': 409, 'width': 409, 'height': 409, 'widthPercent': 0.8, 'rescaleHeight': True, 'trialN': 23, 'loaded': True, 'loadedTime': 2986.2000000011176, 'positionName': 'CENTER', 'positionCoords': [416.5, 144.5]}]",Rate how much you want to eat this food from 0 (least) to 10 (most).,70272.5,1669831968879,turkeysandwich,2227.10000000149,True,9.790000000000001,72499.60000000149,2227.10000000149,True,HRV,HRV_0161,2022-11-30 18:14:28
24,"[{'imgObject': {}, 'id': 'strawberries', 'src': '/static/foodstim60/strawberries.jpg', 'key': 'NaN', 'origWidth': 410, 'origHeight': 410, 'width': 410, 'height': 410, 'widthPercent': 0.8, 'rescaleHeight': True, 'trialN': 24, 'loaded': True, 'loadedTime': 2993.60000000149, 'positionName': 'CENTER', 'positionCoords': [416, 144]}]",Rate how much you want to eat this food from 0 (least) to 10 (most).,72501.30000000075,1669831971108,strawberries,1780.0,True,9.81,74281.30000000075,1780.0,True,HRV,HRV_0161,2022-11-30 18:14:28
25,"[{'imgObject': {}, 'id': 'sweetpotato', 'src': '/static/foodstim60/sweetpotato.jpg', 'key': 'NaN', 'origWidth': 410, 'origHeight': 410, 'width': 410, 'height': 410, 'widthPercent': 0.8, 'rescaleHeight': True, 'trialN': 25, 'loaded': True, 'loadedTime': 3005.800000000745, 'positionName': 'CENTER', 'positionCoords': [416, 144]}]",Rate how much you want to eat this food from 0 (least) to 10 (most).,74282.80000000075,1669831972890,sweetpotato,1876.5,True,9.81,76159.30000000075,1876.5,True,HRV,HRV_0161,2022-11-30 18:14:28
26,"[{'imgObject': {}, 'id': 'ice cream sundae 002', 'src': '/static/foodstim60/ice cream sundae 002.jpg', 'key': 'NaN', 'origWidth': 409, 'origHeight': 409, 'width': 409, 'height': 409, 'widthPercent': 0.8, 'rescaleHeight': True, 'trialN': 26, 'loaded': True, 'loadedTime': 3012.5, 'positionName': 'CENTER', 'positionCoords': [416.5, 144.5]}]",Rate how much you want to eat this food from 0 (least) to 10 (most).,76161.30000000075,1669831974768,ice cream sundae 002,2344.0,True,5.57,78505.30000000075,2344.0,True,HRV,HRV_0161,2022-11-30 18:14:28
27,"[{'imgObject': {}, 'id': 'rigatoni', 'src': '/static/foodstim60/rigatoni.jpg', 'key': 'NaN', 'origWidth': 411, 'origHeight': 411, 'width': 411, 'height': 411, 'widthPercent': 0.8, 'rescaleHeight': True, 'trialN': 27, 'loaded': True, 'loadedTime': 3025.7000000011176, 'positionName': 'CENTER', 'positionCoords': [415.5, 143.5]}]",Rate how much you want to eat this food from 0 (least) to 10 (most).,78507.0,1669831977114,rigatoni,1944.4000000003725,True,0.31,80451.40000000037,1944.4000000003725,True,HRV,HRV_0161,2022-11-30 18:14:28
28,"[{'imgObject': {}, 'id': 'grilled chicken strips', 'src': '/static/foodstim60/grilled chicken strips.jpg', 'key': 'NaN', 'origWidth': 410, 'origHeight': 411, 'width': 410, 'height': 411, 'widthPercent': 0.8, 'rescaleHeight': True, 'trialN': 28, 'loaded': True, 'loadedTime': 3055.300000000745, 'positionName': 'CENTER', 'positionCoords': [416, 143.5]}]",Rate how much you want to eat this food from 0 (least) to 10 (most).,80453.10000000149,1669831979060,grilled chicken strips,2772.39999999851,True,8.91,83225.5,2772.39999999851,True,HRV,HRV_0161,2022-11-30 18:14:28
29,"[{'imgObject': {}, 'id': 'Grapes', 'src': '/static/foodstim60/Grapes.jpg', 'key': 'NaN', 'origWidth': 411, 'origHeight': 411, 'width': 411, 'height': 411, 'widthPercent': 0.8, 'rescaleHeight': True, 'trialN': 29, 'loaded': True, 'loadedTime': 3038.4000000003725, 'positionName': 'CENTER', 'positionCoords': [415.5, 143.5]}]",Rate how much you want to eat this food from 0 (least) to 10 (most).,83227.30000000075,1669831981834,Grapes,1948.4000000003725,True,9.790000000000001,85175.70000000112,1948.4000000003725,True,HRV,HRV_0161,2022-11-30 18:14:28
30,"[{'imgObject': {}, 'id': 'mango', 'src': '/static/foodstim60/mango.jpg', 'key': 'NaN', 'origWidth': 411, 'origHeight': 411, 'width': 411, 'height': 411, 'widthPercent': 0.8, 'rescaleHeight': True, 'trialN': 30, 'loaded': True, 'loadedTime': 3057.2000000011176, 'positionName': 'CENTER', 'positionCoords': [415.5, 143.5]}]",Rate how much you want to eat this food from 0 (least) to 10 (most).,85176.80000000075,1669831983784,mango,1354.5,True,9.790000000000001,86531.30000000075,1354.5,True,HRV,HRV_0161,2022-11-30 18:14:28
31,"[{'imgObject': {}, 'id': 'rigatoni and sauce', 'src': '/static/foodstim60/rigatoni and sauce.jpg', 'key': 'NaN', 'origWidth': 410, 'origHeight': 411, 'width': 410, 'height': 411, 'widthPercent': 0.8, 'rescaleHeight': True, 'trialN': 31, 'loaded': True, 'loadedTime': 3061.7000000011176, 'positionName': 'CENTER', 'positionCoords': [416, 143.5]}]",Rate how much you want to eat this food from 0 (least) to 10 (most).,86532.5,1669831985139,rigatoni and sauce,3550.800000000745,True,2.4,90083.30000000075,3550.800000000745,True,HRV,HRV_0161,2022-11-30 18:14:28
32,"[{'imgObject': {}, 'id': 'baked potato', 'src': '/static/foodstim60/baked potato.jpg', 'key': 'NaN', 'origWidth': 409, 'origHeight': 410, 'width': 409, 'height': 410, 'widthPercent': 0.8, 'rescaleHeight': True, 'trialN': 32, 'loaded': True, 'loadedTime': 3072.4000000003725, 'positionName': 'CENTER', 'positionCoords': [416.5, 144]}]",Rate how much you want to eat this food from 0 (least) to 10 (most).,90085.0,1669831988692,baked potato,1940.300000000745,True,7.78,92025.30000000075,1940.300000000745,True,HRV,HRV_0161,2022-11-30 18:14:28
33,"[{'imgObject': {}, 'id': 'olives', 'src': '/static/foodstim60/olives.jpg', 'key': 'NaN', 'origWidth': 410, 'origHeight': 410, 'width': 410, 'height': 410, 'widthPercent': 0.8, 'rescaleHeight': True, 'trialN': 33, 'loaded': True, 'loadedTime': 3082.300000000745, 'positionName': 'CENTER', 'positionCoords': [416, 144]}]",Rate how much you want to eat this food from 0 (least) to 10 (most).,92026.80000000075,1669831990634,olives,3074.300000000745,True,0.08,95101.10000000149,3074.300000000745,True,HRV,HRV_0161,2022-11-30 18:14:28
34,"[{'imgObject': {}, 'id': 'hotdog w must', 'src': '/static/foodstim60/hotdog w must.jpg', 'key': 'NaN', 'origWidth': 409, 'origHeight': 409, 'width': 409, 'height': 409, 'widthPercent': 0.8, 'rescaleHeight': True, 'trialN': 34, 'loaded': True, 'loadedTime': 3092.9000000003725, 'positionName': 'CENTER', 'positionCoords': [416.5, 144.5]}]",Rate how much you want to eat this food from 0 (least) to 10 (most).,95102.40000000037,1669831993709,hotdog w must,2817.2000000011176,True,6.25,97919.60000000149,2817.2000000011176,True,HRV,HRV_0161,2022-11-30 18:14:28
35,"[{'imgObject': {}, 'id': 'yogurt no spoon', 'src': '/static/foodstim60/yogurt no spoon.jpg', 'key': 'NaN', 'origWidth': 411, 'origHeight': 410, 'width': 411, 'height': 410, 'widthPercent': 0.8, 'rescaleHeight': True, 'trialN': 35, 'loaded': True, 'loadedTime': 3121, 'positionName': 'CENTER', 'positionCoords': [415.5, 144]}]",Rate how much you want to eat this food from 0 (least) to 10 (most).,97921.10000000149,1669831996528,yogurt no spoon,3234.5999999996275,True,8.6,101155.70000000112,3234.5999999996275,True,HRV,HRV_0161,2022-11-30 18:14:28
36,"[{'imgObject': {}, 'id': 'tacos', 'src': '/static/foodstim60/tacos.jpg', 'key': 'NaN', 'origWidth': 411, 'origHeight': 411, 'width': 411, 'height': 411, 'widthPercent': 0.8, 'rescaleHeight': True, 'trialN': 36, 'loaded': True, 'loadedTime': 3117.60000000149, 'positionName': 'CENTER', 'positionCoords': [415.5, 143.5]}]",Rate how much you want to eat this food from 0 (least) to 10 (most).,101157.10000000149,1669831999764,tacos,2086.2999999988824,True,9.290000000000001,103243.40000000037,2086.2999999988824,True,HRV,HRV_0161,2022-11-30 18:14:28
37,"[{'imgObject': {}, 'id': 'bagel plain', 'src': '/static/foodstim60/bagel plain.jpg', 'key': 'NaN', 'origWidth': 410, 'origHeight': 410, 'width': 410, 'height': 410, 'widthPercent': 0.8, 'rescaleHeight': True, 'trialN': 37, 'loaded': True, 'loadedTime': 3122.800000000745, 'positionName': 'CENTER', 'positionCoords': [416, 144]}]",Rate how much you want to eat this food from 0 (least) to 10 (most).,103245.10000000149,1669832001852,bagel plain,1936.0,True,4.29,105181.10000000149,1936.0,True,HRV,HRV_0161,2022-11-30 18:14:28
38,"[{'imgObject': {}, 'id': 'salad w chicken', 'src': '/static/foodstim60/salad w chicken.jpg', 'key': 'NaN', 'origWidth': 411, 'origHeight': 411, 'width': 411, 'height': 411, 'widthPercent': 0.8, 'rescaleHeight': True, 'trialN': 38, 'loaded': True, 'loadedTime': 3132, 'positionName': 'CENTER', 'positionCoords': [415.5, 143.5]}]",Rate how much you want to eat this food from 0 (least) to 10 (most).,105182.5,1669832003789,salad w chicken,2478.7000000011176,True,9.89,107661.20000000112,2478.7000000011176,True,HRV,HRV_0161,2022-11-30 18:14:28
39,"[{'imgObject': {}, 'id': 'kiwi', 'src': '/static/foodstim60/kiwi.jpg', 'key': 'NaN', 'origWidth': 410, 'origHeight': 410, 'width': 410, 'height': 410, 'widthPercent': 0.8, 'rescaleHeight': True, 'trialN': 39, 'loaded': True, 'loadedTime': 3141.9000000003725, 'positionName': 'CENTER', 'positionCoords': [416, 144]}]",Rate how much you want to eat this food from 0 (least) to 10 (most).,107662.60000000149,1669832006269,kiwi,1812.699999999255,True,8.31,109475.30000000075,1812.699999999255,True,HRV,HRV_0161,2022-11-30 18:14:28
40,"[{'imgObject': {}, 'id': 'seaweed', 'src': '/static/foodstim60/seaweed.jpg', 'key': 'NaN', 'origWidth': 410, 'origHeight': 410, 'width': 410, 'height': 410, 'widthPercent': 0.8, 'rescaleHeight': True, 'trialN': 40, 'loaded': True, 'loadedTime': 3174.2000000011176, 'positionName': 'CENTER', 'positionCoords': [416, 144]}]",Rate how much you want to eat this food from 0 (least) to 10 (most).,109477.0,1669832008083,seaweed,2698.300000000745,True,0.1,112175.30000000075,2698.300000000745,True,HRV,HRV_0161,2022-11-30 18:14:28
41,"[{'imgObject': {}, 'id': 'bagel and cc', 'src': '/static/foodstim60/bagel and cc.jpg', 'key': 'NaN', 'origWidth': 410, 'origHeight': 410, 'width': 410, 'height': 410, 'widthPercent': 0.8, 'rescaleHeight': True, 'trialN': 41, 'loaded': True, 'loadedTime': 3187.60000000149, 'positionName': 'CENTER', 'positionCoords': [416, 144]}]",Rate how much you want to eat this food from 0 (least) to 10 (most).,112176.80000000075,1669832010783,bagel and cc,2186.4000000003725,True,4.17,114363.20000000112,2186.4000000003725,True,HRV,HRV_0161,2022-11-30 18:14:28
42,"[{'imgObject': {}, 'id': 'roastedpotatoes', 'src': '/static/foodstim60/roastedpotatoes.jpg', 'key': 'NaN', 'origWidth': 409, 'origHeight': 410, 'width': 409, 'height': 410, 'widthPercent': 0.8, 'rescaleHeight': True, 'trialN': 42, 'loaded': True, 'loadedTime': 3185.800000000745, 'positionName': 'CENTER', 'positionCoords': [416.5, 144]}]",Rate how much you want to eat this food from 0 (least) to 10 (most).,114364.80000000075,1669832012971,roastedpotatoes,2710.9000000003725,True,7.72,117075.70000000112,2710.9000000003725,True,HRV,HRV_0161,2022-11-30 18:14:28
43,"[{'imgObject': {}, 'id': 'chicken nuggets2', 'src': '/static/foodstim60/chicken nuggets2.jpg', 'key': 'NaN', 'origWidth': 410, 'origHeight': 409, 'width': 410, 'height': 409, 'widthPercent': 0.8, 'rescaleHeight': True, 'trialN': 43, 'loaded': True, 'loadedTime': 3183.9000000003725, 'positionName': 'CENTER', 'positionCoords': [416, 144.5]}]",Rate how much you want to eat this food from 0 (least) to 10 (most).,117077.30000000075,1669832015684,chicken nuggets2,3250.4000000003725,True,2.58,120327.70000000112,3250.4000000003725,True,HRV,HRV_0161,2022-11-30 18:14:28
44,"[{'imgObject': {}, 'id': 'granola w milk', 'src': '/static/foodstim60/granola w milk.jpg', 'key': 'NaN', 'origWidth': 410, 'origHeight': 410, 'width': 410, 'height': 410, 'widthPercent': 0.8, 'rescaleHeight': True, 'trialN': 44, 'loaded': True, 'loadedTime': 3193, 'positionName': 'CENTER', 'positionCoords': [416, 144]}]",Rate how much you want to eat this food from 0 (least) to 10 (most).,120330.0,1669832018936,granola w milk,2191.4000000003725,True,0.16,122521.40000000037,2191.4000000003725,True,HRV,HRV_0161,2022-11-30 18:14:28
45,"[{'imgObject': {}, 'id': 'hashbrowns', 'src': '/static/foodstim60/hashbrowns.jpg', 'key': 'NaN', 'origWidth': 411, 'origHeight': 410, 'width': 411, 'height': 410, 'widthPercent': 0.8, 'rescaleHeight': True, 'trialN': 45, 'loaded': True, 'loadedTime': 3216.300000000745, 'positionName': 'CENTER', 'positionCoords': [415.5, 144]}]",Rate how much you want to eat this food from 0 (least) to 10 (most).,122522.70000000112,1669832021129,hashbrowns,2816.4000000003725,True,6.01,125339.10000000149,2816.4000000003725,True,HRV,HRV_0161,2022-11-30 18:14:28
46,"[{'imgObject': {}, 'id': 'omelette', 'src': '/static/foodstim60/omelette.jpg', 'key': 'NaN', 'origWidth': 410, 'origHeight': 409, 'width': 410, 'height': 409, 'widthPercent': 0.8, 'rescaleHeight': True, 'trialN': 46, 'loaded': True, 'loadedTime': 3421.5, 'positionName': 'CENTER', 'positionCoords': [416, 144.5]}]",Rate how much you want to eat this food from 0 (least) to 10 (most).,125340.30000000075,1669832023947,omelette,2572.9000000003725,True,7.23,127913.20000000112,2572.9000000003725,True,HRV,HRV_0161,2022-11-30 18:14:28
47,"[{'imgObject': {}, 'id': 'popsicles', 'src': '/static/foodstim60/popsicles.jpg', 'key': 'NaN', 'origWidth': 410, 'origHeight': 410, 'width': 410, 'height': 410, 'widthPercent': 0.8, 'rescaleHeight': True, 'trialN': 47, 'loaded': True, 'loadedTime': 3404.60000000149, 'positionName': 'CENTER', 'positionCoords': [416, 144]}]",Rate how much you want to eat this food from 0 (least) to 10 (most).,127914.60000000149,1669832026521,popsicles,2310.89999999851,True,0.13,130225.5,2310.89999999851,True,HRV,HRV_0161,2022-11-30 18:14:28
48,"[{'imgObject': {}, 'id': 'burger', 'src': '/static/foodstim60/burger.jpg', 'key': 'NaN', 'origWidth': 409, 'origHeight': 409, 'width': 409, 'height': 409, 'widthPercent': 0.8, 'rescaleHeight': True, 'trialN': 48, 'loaded': True, 'loadedTime': 3390.5, 'positionName': 'CENTER', 'positionCoords': [416.5, 144.5]}]",Rate how much you want to eat this food from 0 (least) to 10 (most).,130226.80000000075,1669832028833,burger,5508.800000000745,True,7.28,135735.6000000015,5508.800000000745,True,HRV,HRV_0161,2022-11-30 18:14:28
49,"[{'imgObject': {}, 'id': 'cherry tomato', 'src': '/static/foodstim60/cherry tomato.jpg', 'key': 'NaN', 'origWidth': 410, 'origHeight': 410, 'width': 410, 'height': 410, 'widthPercent': 0.8, 'rescaleHeight': True, 'trialN': 49, 'loaded': True, 'loadedTime': 3396.9000000003725, 'positionName': 'CENTER', 'positionCoords': [416, 144]}]",Rate how much you want to eat this food from 0 (least) to 10 (most).,135737.0,1669832034343,cherry tomato,2322.60000000149,True,8.05,138059.6000000015,2322.60000000149,True,HRV,HRV_0161,2022-11-30 18:14:28
50,"[{'imgObject': {}, 'id': 'veggieswithdip', 'src': '/static/foodstim60/veggieswithdip.jpg', 'key': 'NaN', 'origWidth': 409, 'origHeight': 409, 'width': 409, 'height': 409, 'widthPercent': 0.8, 'rescaleHeight': True, 'trialN': 50, 'loaded': True, 'loadedTime': 3406.5, 'positionName': 'CENTER', 'positionCoords': [416.5, 144.5]}]",Rate how much you want to eat this food from 0 (least) to 10 (most).,138061.1000000015,1669832036668,veggieswithdip,2048.699999999255,True,8.57,140109.80000000075,2048.699999999255,True,HRV,HRV_0161,2022-11-30 18:14:28
51,"[{'imgObject': {}, 'id': 'lox', 'src': '/static/foodstim60/lox.jpg', 'key': 'NaN', 'origWidth': 410, 'origHeight': 411, 'width': 410, 'height': 411, 'widthPercent': 0.8, 'rescaleHeight': True, 'trialN': 51, 'loaded': True, 'loadedTime': 3410.7000000011176, 'positionName': 'CENTER', 'positionCoords': [416, 143.5]}]",Rate how much you want to eat this food from 0 (least) to 10 (most).,140111.20000000112,1669832038718,lox,3438.4000000003725,True,0.36,143549.6000000015,3438.4000000003725,True,HRV,HRV_0161,2022-11-30 18:14:28
52,"[{'imgObject': {}, 'id': 'burrito', 'src': '/static/foodstim60/burrito.jpg', 'key': 'NaN', 'origWidth': 410, 'origHeight': 410, 'width': 410, 'height': 410, 'widthPercent': 0.8, 'rescaleHeight': True, 'trialN': 52, 'loaded': True, 'loadedTime': 3436.4000000003725, 'positionName': 'CENTER', 'positionCoords': [416, 144]}]",Rate how much you want to eat this food from 0 (least) to 10 (most).,143551.20000000112,1669832042158,burrito,2574.0,True,0.0,146125.20000000112,2574.0,True,HRV,HRV_0161,2022-11-30 18:14:28
53,"[{'imgObject': {}, 'id': 'chickenfingers', 'src': '/static/foodstim60/chickenfingers.jpg', 'key': 'NaN', 'origWidth': 410, 'origHeight': 410, 'width': 410, 'height': 410, 'widthPercent': 0.8, 'rescaleHeight': True, 'trialN': 53, 'loaded': True, 'loadedTime': 3453.4000000003725, 'positionName': 'CENTER', 'positionCoords': [416, 144]}]",Rate how much you want to eat this food from 0 (least) to 10 (most).,146126.5,1669832044733,chickenfingers,2411.300000000745,True,6.8100000000000005,148537.80000000075,2411.300000000745,True,HRV,HRV_0161,2022-11-30 18:14:28
54,"[{'imgObject': {}, 'id': 'edamame', 'src': '/static/foodstim60/edamame.jpg', 'key': 'NaN', 'origWidth': 409, 'origHeight': 410, 'width': 409, 'height': 410, 'widthPercent': 0.8, 'rescaleHeight': True, 'trialN': 54, 'loaded': True, 'loadedTime': 3460.7000000011176, 'positionName': 'CENTER', 'positionCoords': [416.5, 144]}]",Rate how much you want to eat this food from 0 (least) to 10 (most).,148539.5,1669832047146,edamame,3888.300000000745,True,7.49,152427.80000000075,3888.300000000745,True,HRV,HRV_0161,2022-11-30 18:14:28
55,"[{'imgObject': {}, 'id': 'avocado', 'src': '/static/foodstim60/avocado.jpg', 'key': 'NaN', 'origWidth': 409, 'origHeight': 409, 'width': 409, 'height': 409, 'widthPercent': 0.8, 'rescaleHeight': True, 'trialN': 55, 'loaded': True, 'loadedTime': 3462.4000000003725, 'positionName': 'CENTER', 'positionCoords': [416.5, 144.5]}]",Rate how much you want to eat this food from 0 (least) to 10 (most).,152429.80000000075,1669832051036,avocado,2731.5999999996275,True,4.58,155161.40000000037,2731.5999999996275,True,HRV,HRV_0161,2022-11-30 18:14:28
56,"[{'imgObject': {}, 'id': 'sushi w_condiments', 'src': '/static/foodstim60/sushi w_condiments.jpg', 'key': 'NaN', 'origWidth': 410, 'origHeight': 410, 'width': 410, 'height': 410, 'widthPercent': 0.8, 'rescaleHeight': True, 'trialN': 56, 'loaded': True, 'loadedTime': 3473.2000000011176, 'positionName': 'CENTER', 'positionCoords': [416, 144]}]",Rate how much you want to eat this food from 0 (least) to 10 (most).,155163.1000000015,1669832053770,sushi w_condiments,3010.2999999988824,True,0.15,158173.40000000037,3010.2999999988824,True,HRV,HRV_0161,2022-11-30 18:14:28
57,"[{'imgObject': {}, 'id': 'apple slices', 'src': '/static/foodstim60/apple slices.jpg', 'key': 'NaN', 'origWidth': 409, 'origHeight': 410, 'width': 409, 'height': 410, 'widthPercent': 0.8, 'rescaleHeight': True, 'trialN': 57, 'loaded': True, 'loadedTime': 3476.2000000011176, 'positionName': 'CENTER', 'positionCoords': [416.5, 144]}]",Rate how much you want to eat this food from 0 (least) to 10 (most).,158174.70000000112,1669832056781,apple slices,3204.5999999996275,True,9.73,161379.30000000075,3204.5999999996275,True,HRV,HRV_0161,2022-11-30 18:14:28
58,"[{'imgObject': {}, 'id': 'raisin bran w milk', 'src': '/static/foodstim60/raisin bran w milk.jpg', 'key': 'NaN', 'origWidth': 411, 'origHeight': 411, 'width': 411, 'height': 411, 'widthPercent': 0.8, 'rescaleHeight': True, 'trialN': 58, 'loaded': True, 'loadedTime': 3487.9000000003725, 'positionName': 'CENTER', 'positionCoords': [415.5, 143.5]}]",Rate how much you want to eat this food from 0 (least) to 10 (most).,161380.80000000075,1669832059987,raisin bran w milk,2592.5,True,5.0,163973.30000000075,2592.5,True,HRV,HRV_0161,2022-11-30 18:14:28
59,"[{'imgObject': {}, 'id': 'banana', 'src': '/static/foodstim60/banana.jpg', 'key': 'NaN', 'origWidth': 410, 'origHeight': 410, 'width': 410, 'height': 410, 'widthPercent': 0.8, 'rescaleHeight': True, 'trialN': 59, 'loaded': True, 'loadedTime': 3504.2000000011176, 'positionName': 'CENTER', 'positionCoords': [416, 144]}]",Rate how much you want to eat this food from 0 (least) to 10 (most).,163974.70000000112,1669832062581,banana,2564.7999999988824,True,9.81,166539.5,2564.7999999988824,True,HRV,HRV_0161,2022-11-30 18:14:28
