success,trial_type,trial_index,time_elapsed,internal_node_id,Block,TrialNumber,TrialTime,trialTimeDiff,FPS_avg,FPS_med,FPS_mode,TrialDur,winResizeTime,rt,block,button_pressed,MotCoh,MotDir,ColCoh,Color,ChoiceKey,Choice,Accuracy,RT,nFrames,FPS,PPD,missTrial,missTrialMsg,onsetDelay,fullScreenExitTime,canvCenter,TrialType,Score,BlockTrial,stimulus,button_labels,exp,subjectId,date
True,fullscreen,0,4085,0.0-0.0,0.0,1.0,,,,,,,,,,,,,,,,,,,,,,,,,,,,,,,,HRV,HRV_0161,2022-11-30 18:38:16
,wl-check-fps,1,9096,0.0-1.0,0.0,2.0,"[4481.1, 4496.9, 4514, 4530.8, 4547.8, 4563.4, 4580.1, 4597, 4614, 4631.1, 4648.1, 4663.8, 4680, 4697, 4713.4, 4730.1, 4746.7, 4763.5, 4780.2, 4796.7, 4813.3, 4830.4, 4846.7, 4863.5, 4880.1, 4896.8, 4913.9, 4930, 4946.8, 4963.2, 4979.9, 4996.6, 5013.3, 5029.9, 5046.9, 5063.2, 5080.1, 5097.1, 5113.4, 5130.1, 5146.7, 5163.8, 5179.9, 5196.6, 5213.6, 5229.9, 5246.8, 5263.2, 5279.8, 5296.5, 5313.4, 5329.8, 5346.4, 5363.3, 5379.7, 5396.7, 5413.1, 5429.9, 5446.5, 5463.1, 5480, 5496.5, 5513.2, 5529.8, 5546.7, 5563.2, 5580, 5596.7, 5613.2, 5629.8, 5646.5, 5663.2, 5679.8, 5696.8, 5713.5, 5729.7, 5746.8, 5763.2, 5779.8, 5796.5, 5813.2, 5829.8, 5847.4, 5863.2, 5879.9, 5896.5, 5913.2, 5930, 5946.9, 5963.5, 5979.9, 5996.7, 6013.1, 6029.9, 6046.8, 6063.1, 6079.8, 6096.8, 6113.2, 6129.9, 6146.5, 6163.1, 6179.7, 6196.6, 6213.1, 6229.9, 6246.5, 6263.3, 6279.9, 6296.5, 6313.4, 6329.8, 6346.4, 6363.1, 6379.9, 6396.9, 6413.1, 6429.9, 6446.4, 6463.3, 6479.9, 6496.8, 6513.4, 6529.7, 6547, 6563, 6579.7, 6596.4, 6613.5, 6629.8, 6647, 6663, 6679.8, 6696.7, 6713.1, 6729.8, 6746.4, 6763.2, 6779.7, 6796.7, 6813.4, 6829.8, 6846.5, 6863, 6879.7, 6896.7, 6913.4, 6929.8, 6946.6, 6963.6, 6979.7, 6996.8, 7013.4, 7029.9, 7046.8, 7063.2, 7079.8, 7096.4, 7113.1, 7129.8, 7146.4, 7163, 7180.1, 7196.7, 7212.9, 7229.8, 7246.4, 7263.3, 7279.6, 7296.4, 7313.1, 7329.8, 7346.6, 7363, 7379.7, 7396.6, 7413, 7429.8, 7447.1, 7463.1, 7479.7, 7496.9, 7513.1, 7529.8, 7546.5, 7563.4, 7579.8, 7597, 7613.4, 7629.8, 7646.6, 7663.1, 7679.8, 7696.7, 7713.2, 7730.2, 7746.6, 7763, 7779.7, 7796.8, 7813, 7829.8, 7846.6, 7863.3, 7879.8, 7896.4, 7913.1, 7929.7, 7946.5, 7963.4, 7979.7, 7996.4, 8013, 8029.7, 8046.3, 8063.1, 8080, 8096.6, 8113.1, 8130.1, 8146.5, 8163.2, 8180.1, 8196.4, 8213.2, 8230, 8247, 8263.4, 8279.8, 8297.4, 8313.5, 8329.9, 8346.6, 8363.1, 8379.7, 8396.7, 8413.3, 8429.7, 8447, 8463, 8480.1, 8496.6, 8513.2, 8529.7, 8546.8, 8563, 8579.6, 8596.3, 8613, 8629.8, 8647.6, 8663.2, 8679.9, 8696.4, 8713.2, 8729.7, 8746.7, 8763.4, 8779.8, 8796.7, 8813, 8829.7, 8846.3, 8862.9, 8879.6, 8896.7, 8913.4, 8929.8, 8946.6, 8963, 8979.6, 8996.2, 9013.1, 9029.8, 9046.6, 9063.1, 9079.7, 9096.5, 9112.9, 9129.7, 9150.8, 9163.1, 9179.6, 9196.7, 9213, 9229.7, 9246.3, 9263.3, 9279.5, 9296.5, 9313.4, 9329.6, 9346.5, 9362.9, 9379.5, 9397.5, 9412.9, 9429.7, 9446.7, 9463]","[9.8, 15.8, 17.1, 16.8, 17, 15.6, 16.7, 16.9, 17, 17.1, 17, 15.7, 16.2, 17, 16.4, 16.7, 16.6, 16.8, 16.7, 16.5, 16.6, 17.1, 16.3, 16.8, 16.6, 16.7, 17.1, 16.1, 16.8, 16.4, 16.7, 16.7, 16.7, 16.6, 17, 16.3, 16.9, 17, 16.3, 16.7, 16.6, 17.1, 16.1, 16.7, 17, 16.3, 16.9, 16.4, 16.6, 16.7, 16.9, 16.4, 16.6, 16.9, 16.4, 17, 16.4, 16.8, 16.6, 16.6, 16.9, 16.5, 16.7, 16.6, 16.9, 16.5, 16.8, 16.7, 16.5, 16.6, 16.7, 16.7, 16.6, 17, 16.7, 16.2, 17.1, 16.4, 16.6, 16.7, 16.7, 16.6, 17.6, 15.8, 16.7, 16.6, 16.7, 16.8, 16.9, 16.6, 16.4, 16.8, 16.4, 16.8, 16.9, 16.3, 16.7, 17, 16.4, 16.7, 16.6, 16.6, 16.6, 16.9, 16.5, 16.8, 16.6, 16.8, 16.6, 16.6, 16.9, 16.4, 16.6, 16.7, 16.8, 17, 16.2, 16.8, 16.5, 16.9, 16.6, 16.9, 16.6, 16.3, 17.3, 16, 16.7, 16.7, 17.1, 16.3, 17.2, 16, 16.8, 16.9, 16.4, 16.7, 16.6, 16.8, 16.5, 17, 16.7, 16.4, 16.7, 16.5, 16.7, 17, 16.7, 16.4, 16.8, 17, 16.1, 17.1, 16.6, 16.5, 16.9, 16.4, 16.6, 16.6, 16.7, 16.7, 16.6, 16.6, 17.1, 16.6, 16.2, 16.9, 16.6, 16.9, 16.3, 16.8, 16.7, 16.7, 16.8, 16.4, 16.7, 16.9, 16.4, 16.8, 17.3, 16, 16.6, 17.2, 16.2, 16.7, 16.7, 16.9, 16.4, 17.2, 16.4, 16.4, 16.8, 16.5, 16.7, 16.9, 16.5, 17, 16.4, 16.4, 16.7, 17.1, 16.2, 16.8, 16.8, 16.7, 16.5, 16.6, 16.7, 16.6, 16.8, 16.9, 16.3, 16.7, 16.6, 16.7, 16.6, 16.8, 16.9, 16.6, 16.5, 17, 16.4, 16.7, 16.9, 16.3, 16.8, 16.8, 17, 16.4, 16.4, 17.6, 16.1, 16.4, 16.7, 16.5, 16.6, 17, 16.6, 16.4, 17.3, 16, 17.1, 16.5, 16.6, 16.5, 17.1, 16.2, 16.6, 16.7, 16.7, 16.8, 17.8, 15.6, 16.7, 16.5, 16.8, 16.5, 17, 16.7, 16.4, 16.9, 16.3, 16.7, 16.6, 16.6, 16.7, 17.1, 16.7, 16.4, 16.8, 16.4, 16.6, 16.6, 16.9, 16.7, 16.8, 16.5, 16.6, 16.8, 16.4, 16.8, 21.1, 12.3, 16.5, 17.1, 16.3, 16.7, 16.6, 17, 16.2, 17, 16.9, 16.2, 16.9, 16.4, 16.6, 18, 15.4, 16.8, 17, 16.3]",60.0,60.0,60.0,5008.5,[],,,,,,,,,,,,,,,,,,,,,,,,,HRV,HRV_0161,2022-11-30 18:38:16
,wl-html-keyboard-response,2,39267,0.0-2.0-0.0,0.0,3.0,,,,,,,,28162.300000000745,0.0,0,,,,,,,,,,,,,,,,,,,,,,HRV,HRV_0161,2022-11-30 18:38:16
,wl-rdm,3,46710,0.0-3.0-0.0,0.0,4.0,,,,,,,[],,,,0.0,0.0,87.9,0.0,u,0.0,True,1853.1000000014901,112.0,60.0,40.0,False,,3000.0,[],"[621, 349]",ColorTask_Demo,,,,,HRV,HRV_0161,2022-11-30 18:38:16
,wl-rdm,4,51676,0.0-3.0-1.0,0.0,5.0,,,,,,,[],,,,0.0,0.0,87.9,1.0,i,1.0,True,878.5999999996275,53.0,60.0,40.0,False,,2000.0,[],"[621, 349]",ColorTask_Demo,,,,,HRV,HRV_0161,2022-11-30 18:38:16
,wl-html-keyboard-response,5,60455,0.0-3.0-2.0,0.0,6.0,,,,,,,,6776.10000000149,0.0,1,,,,,,,,,,,,,,,,,,,,,,HRV,HRV_0161,2022-11-30 18:38:16
,wl-html-keyboard-response,6,76191,0.0-4.0-0.0,0.0,7.0,,,,,,,,13726.299999998882,0.0,0,,,,,,,,,,,,,,,,,,,,,,HRV,HRV_0161,2022-11-30 18:38:16
,wl-html-keyboard-response,7,105373,0.0-5.0-0.0,0.0,8.0,,,,,,,,27165.5,0.0,0,,,,,,,,,,,,,,,,,,,,,,HRV,HRV_0161,2022-11-30 18:38:16
,wl-rdm,8,108555,0.0-6.0-0.0,0.0,9.0,,,,,,,[],,,,,,62.5,0.0,i,1.0,False,1851.4000000003725,112.0,60.0,40.0,False,,248.00192196243438,[],"[621, 349]",ColorTask,-1.0,1.0,,,HRV,HRV_0161,2022-11-30 18:38:16
,wl-rdm,9,111405,0.0-6.1-0.1,0.0,10.0,,,,,,,[],,,,,,87.9,1.0,i,1.0,True,1495.699999999255,90.0,60.0,40.0,False,,297.37473670721283,[],"[621, 349]",ColorTask,0.0,2.0,,,HRV,HRV_0161,2022-11-30 18:38:16
,wl-rdm,10,114121,0.0-6.2-0.2,0.0,11.0,,,,,,,[],,,,,,56.4,0.0,u,0.0,True,1278.5,77.0,60.0,40.0,False,,368.58652698640327,[],"[621, 349]",ColorTask,1.0,3.0,,,HRV,HRV_0161,2022-11-30 18:38:16
,wl-rdm,11,116888,0.0-6.3-0.3,0.0,12.0,,,,,,,[],,,,,,50.0,0.0,i,1.0,False,1356.3999999985099,82.0,60.0,40.0,False,,349.14144078720767,[],"[621, 349]",ColorTask,0.0,4.0,,,HRV,HRV_0161,2022-11-30 18:38:16
,wl-rdm,12,119771,0.0-6.4-0.4,0.0,13.0,,,,,,,[],,,,,,62.5,0.0,u,0.0,True,1455.7000000011176,88.0,60.0,40.0,False,,343.17801865561074,[],"[621, 349]",ColorTask,1.0,5.0,,,HRV,HRV_0161,2022-11-30 18:38:16
,wl-rdm,13,122270,0.0-6.5-0.5,0.0,14.0,,,,,,,[],,,,,,73.6,1.0,i,1.0,True,1232.0000000018626,74.0,60.0,40.0,False,,215.2285351994738,[],"[621, 349]",ColorTask,2.0,6.0,,,HRV,HRV_0161,2022-11-30 18:38:16
,wl-rdm,14,125537,0.0-6.6-0.6,0.0,15.0,,,,,,,[],,,,,,56.4,1.0,u,0.0,False,1826.0,110.0,60.0,40.0,False,,350.2649600529685,[],"[621, 349]",ColorTask,1.0,7.0,,,HRV,HRV_0161,2022-11-30 18:38:16
,wl-rdm,15,128537,0.0-6.7-0.7,0.0,16.0,,,,,,,[],,,,,,53.2,1.0,i,1.0,True,1657.4000000003725,100.0,60.0,40.0,False,,266.81387544804295,[],"[621, 349]",ColorTask,2.0,8.0,,,HRV,HRV_0161,2022-11-30 18:38:16
,wl-rdm,16,131337,0.0-6.8-0.8,0.0,17.0,,,,,,,[],,,,,,53.2,1.0,i,1.0,True,1468.5999999996275,89.0,60.0,40.0,False,,246.22419529683333,[],"[621, 349]",ColorTask,3.0,9.0,,,HRV,HRV_0161,2022-11-30 18:38:16
,wl-rdm,17,134120,0.0-6.9-0.9,0.0,18.0,,,,,,,[],,,,,,73.6,1.0,i,1.0,True,1305.4999999981374,79.0,60.0,40.0,False,,387.29053270447434,[],"[621, 349]",ColorTask,4.0,10.0,,,HRV,HRV_0161,2022-11-30 18:38:16
,wl-rdm,18,137036,0.0-6.10-0.10,0.0,19.0,,,,,,,[],,,,,,50.0,0.0,i,1.0,False,1450.199999999255,87.0,60.0,40.0,False,,393.4073969970059,[],"[621, 349]",ColorTask,3.0,11.0,,,HRV,HRV_0161,2022-11-30 18:38:16
,wl-rdm,19,139586,0.0-6.11-0.11,0.0,20.0,,,,,,,[],,,,,,73.6,0.0,u,0.0,True,1252.699999999255,76.0,60.0,40.0,False,,204.49927102415356,[],"[621, 349]",ColorTask,4.0,12.0,,,HRV,HRV_0161,2022-11-30 18:38:16
,wl-rdm,20,141953,0.0-6.12-0.12,0.0,21.0,,,,,,,[],,,,,,73.6,1.0,i,1.0,True,959.1999999992549,58.0,60.0,40.0,False,,322.6848635217066,[],"[621, 349]",ColorTask,5.0,13.0,,,HRV,HRV_0161,2022-11-30 18:38:16
,wl-rdm,21,144519,0.0-6.13-0.13,0.0,22.0,,,,,,,[],,,,,,53.2,0.0,u,0.0,True,1281.4000000003725,77.0,60.0,40.0,False,,200.14503099319592,[],"[621, 349]",ColorTask,6.0,14.0,,,HRV,HRV_0161,2022-11-30 18:38:16
,wl-rdm,22,147302,0.0-6.14-0.14,0.0,23.0,,,,,,,[],,,,,,50.0,0.0,i,1.0,False,1388.9000000003725,84.0,60.0,40.0,False,,310.4550183468049,[],"[621, 349]",ColorTask,5.0,15.0,,,HRV,HRV_0161,2022-11-30 18:38:16
,wl-rdm,23,149735,0.0-6.15-0.15,0.0,24.0,,,,,,,[],,,,,,73.6,0.0,u,0.0,True,1144.5999999996275,69.0,60.0,40.0,False,,202.296348014818,[],"[621, 349]",ColorTask,6.0,16.0,,,HRV,HRV_0161,2022-11-30 18:38:16
,wl-rdm,24,152252,0.0-6.16-0.16,0.0,25.0,,,,,,,[],,,,,,87.9,0.0,u,0.0,True,1151.2000000011176,70.0,60.0,40.0,False,,290.0451455056748,[],"[621, 349]",ColorTask,7.0,17.0,,,HRV,HRV_0161,2022-11-30 18:38:16
,wl-rdm,25,154852,0.0-6.17-0.17,0.0,26.0,,,,,,,[],,,,,,53.2,1.0,i,1.0,True,1224.0999999996275,74.0,60.0,40.0,False,,297.9100925675763,[],"[621, 349]",ColorTask,8.0,18.0,,,HRV,HRV_0161,2022-11-30 18:38:16
,wl-rdm,26,157702,0.0-6.18-0.18,0.0,27.0,,,,,,,[],,,,,,50.0,1.0,i,1.0,True,1505.9999999981374,91.0,60.0,40.0,False,,256.26506368816337,[],"[621, 349]",ColorTask,9.0,19.0,,,HRV,HRV_0161,2022-11-30 18:38:16
,wl-rdm,27,160385,0.0-6.19-0.19,0.0,28.0,,,,,,,[],,,,,,73.6,1.0,i,1.0,True,1296.0999999996275,78.0,60.0,40.0,False,,318.72888978535656,[],"[621, 349]",ColorTask,10.0,20.0,,,HRV,HRV_0161,2022-11-30 18:38:16
,wl-rdm,28,163035,0.0-6.20-0.20,0.0,29.0,,,,,,,[],,,,,,56.4,0.0,i,1.0,False,1211.5,73.0,60.0,40.0,False,,381.0872740425647,[],"[621, 349]",ColorTask,9.0,21.0,,,HRV,HRV_0161,2022-11-30 18:38:16
,wl-rdm,29,165468,0.0-6.21-0.21,0.0,30.0,,,,,,,[],,,,,,87.9,0.0,u,0.0,True,1078.0999999996275,65.0,60.0,40.0,False,,295.23193007815286,[],"[621, 349]",ColorTask,10.0,22.0,,,HRV,HRV_0161,2022-11-30 18:38:16
,wl-rdm,30,168201,0.0-6.22-0.22,0.0,31.0,,,,,,,[],,,,,,53.2,1.0,u,0.0,False,1382.0999999996275,83.0,60.0,40.0,False,,296.922157887431,[],"[621, 349]",ColorTask,9.0,23.0,,,HRV,HRV_0161,2022-11-30 18:38:16
,wl-rdm,31,170818,0.0-6.23-0.23,0.0,32.0,,,,,,,[],,,,,,56.4,0.0,i,1.0,False,1209.3999999985099,73.0,60.0,40.0,False,,329.6109231325592,[],"[621, 349]",ColorTask,8.0,24.0,,,HRV,HRV_0161,2022-11-30 18:38:16
,wl-rdm,32,173418,0.0-6.24-0.24,0.0,33.0,,,,,,,[],,,,,,87.9,0.0,u,0.0,True,1276.8999999985099,77.0,60.0,40.0,False,,241.69299495546602,[],"[621, 349]",ColorTask,9.0,25.0,,,HRV,HRV_0161,2022-11-30 18:38:16
,wl-rdm,33,176384,0.0-6.25-0.25,0.0,34.0,,,,,,,[],,,,,,53.2,0.0,i,1.0,False,1492.300000000745,90.0,60.0,40.0,False,,393.7244565328097,[],"[621, 349]",ColorTask,8.0,26.0,,,HRV,HRV_0161,2022-11-30 18:38:16
,wl-rdm,34,179267,0.0-6.26-0.26,0.0,35.0,,,,,,,[],,,,,,56.4,1.0,i,1.0,True,1525.5999999996275,92.0,60.0,40.0,False,,267.78291663123184,[],"[621, 349]",ColorTask,9.0,27.0,,,HRV,HRV_0161,2022-11-30 18:38:16
,wl-rdm,35,182101,0.0-6.27-0.27,0.0,36.0,,,,,,,[],,,,,,62.5,1.0,u,0.0,False,1553.5,94.0,60.0,40.0,False,,206.1019078202203,[],"[621, 349]",ColorTask,8.0,28.0,,,HRV,HRV_0161,2022-11-30 18:38:16
,wl-rdm,36,184618,0.0-6.28-0.28,0.0,37.0,,,,,,,[],,,,,,87.9,1.0,i,1.0,True,1146.9000000003725,69.0,60.0,40.0,False,,285.7499070879814,[],"[621, 349]",ColorTask,9.0,29.0,,,HRV,HRV_0161,2022-11-30 18:38:16
,wl-rdm,37,187817,0.0-6.29-0.29,0.0,38.0,,,,,,,[],,,,,,50.0,0.0,u,0.0,True,1810.4000000003725,109.0,60.0,40.0,False,,305.7413697462393,[],"[621, 349]",ColorTask,10.0,30.0,,,HRV,HRV_0161,2022-11-30 18:38:16
,wl-rdm,38,190984,0.0-6.30-0.30,0.0,39.0,,,,,,,[],,,,,,73.6,0.0,u,0.0,True,1699.2999999988824,102.0,60.0,40.0,False,,385.8421116710091,[],"[621, 349]",ColorTask,11.0,31.0,,,HRV,HRV_0161,2022-11-30 18:38:16
,wl-rdm,39,194250,0.0-6.31-0.31,0.0,40.0,,,,,,,[],,,,,,56.4,0.0,u,0.0,True,1887.0,114.0,60.0,40.0,False,,288.5209607364563,[],"[621, 349]",ColorTask,12.0,32.0,,,HRV,HRV_0161,2022-11-30 18:38:16
,wl-rdm,40,197350,0.0-6.32-0.32,0.0,41.0,,,,,,,[],,,,,,56.4,0.0,u,0.0,True,1722.699999999255,104.0,60.0,40.0,False,,302.582747924099,[],"[621, 349]",ColorTask,13.0,33.0,,,HRV,HRV_0161,2022-11-30 18:38:16
,wl-rdm,41,200667,0.0-6.33-0.33,0.0,42.0,,,,,,,[],,,,,,53.2,1.0,i,1.0,True,1863.1000000014901,112.0,60.0,40.0,False,,370.4870984785513,[],"[621, 349]",ColorTask,14.0,34.0,,,HRV,HRV_0161,2022-11-30 18:38:16
,wl-rdm,42,203383,0.0-6.34-0.34,0.0,43.0,,,,,,,[],,,,,,87.9,1.0,i,1.0,True,1349.0999999996275,81.0,60.0,40.0,False,,309.79635887892135,[],"[621, 349]",ColorTask,15.0,35.0,,,HRV,HRV_0161,2022-11-30 18:38:16
,wl-rdm,43,206982,0.0-6.35-0.35,0.0,44.0,,,,,,,[],,,,,,53.2,0.0,u,0.0,True,2174.5999999996275,131.0,60.0,40.0,False,,338.6697278360806,[],"[621, 349]",ColorTask,16.0,36.0,,,HRV,HRV_0161,2022-11-30 18:38:16
,wl-rdm,44,209949,0.0-6.36-0.36,0.0,45.0,,,,,,,[],,,,,,73.6,1.0,i,1.0,True,1603.7000000011176,97.0,60.0,40.0,False,,279.50766748337765,[],"[621, 349]",ColorTask,17.0,37.0,,,HRV,HRV_0161,2022-11-30 18:38:16
,wl-rdm,45,212649,0.0-6.37-0.37,0.0,46.0,,,,,,,[],,,,,,87.9,0.0,u,0.0,True,1410.0,85.0,60.0,40.0,False,,201.66566699954214,[],"[621, 349]",ColorTask,18.0,38.0,,,HRV,HRV_0161,2022-11-30 18:38:16
,wl-rdm,46,215482,0.0-6.38-0.38,0.0,47.0,,,,,,,[],,,,,,87.9,1.0,i,1.0,True,1432.2999999988824,86.0,60.0,40.0,False,,335.95123161274523,[],"[621, 349]",ColorTask,19.0,39.0,,,HRV,HRV_0161,2022-11-30 18:38:16
,wl-rdm,47,219715,0.0-6.39-0.39,0.0,48.0,,,,,,,[],,,,,,53.2,1.0,i,1.0,True,2890.0999999996275,174.0,60.0,40.0,False,,254.78328626910658,[],"[621, 349]",ColorTask,20.0,40.0,,,HRV,HRV_0161,2022-11-30 18:38:16
,wl-rdm,48,223231,0.0-6.40-0.40,0.0,49.0,,,,,,,[],,,,,,56.4,1.0,i,1.0,True,2191.699999999255,132.0,60.0,40.0,False,,250.6898297685076,[],"[621, 349]",ColorTask,21.0,41.0,,,HRV,HRV_0161,2022-11-30 18:38:16
,wl-rdm,49,226864,0.0-6.41-0.41,0.0,50.0,,,,,,,[],,,,,,62.5,1.0,i,1.0,True,2262.7999999988824,136.0,60.0,40.0,False,,283.8614516564307,[],"[621, 349]",ColorTask,22.0,42.0,,,HRV,HRV_0161,2022-11-30 18:38:16
,wl-rdm,50,230331,0.0-6.42-0.42,0.0,51.0,,,,,,,[],,,,,,87.9,1.0,i,1.0,True,2070.39999999851,125.0,60.0,40.0,False,,322.17501558879354,[],"[621, 349]",ColorTask,23.0,43.0,,,HRV,HRV_0161,2022-11-30 18:38:16
,wl-rdm,51,233897,0.0-6.43-0.43,0.0,52.0,,,,,,,[],,,,,,62.5,1.0,u,0.0,False,2182.0999999996275,131.0,60.0,40.0,False,,311.6388669676072,[],"[621, 349]",ColorTask,22.0,44.0,,,HRV,HRV_0161,2022-11-30 18:38:16
,wl-rdm,52,237064,0.0-6.44-0.44,0.0,53.0,,,,,,,[],,,,,,56.4,1.0,i,1.0,True,1897.0999999996275,114.0,60.0,40.0,False,,211.95100213819927,[],"[621, 349]",ColorTask,23.0,45.0,,,HRV,HRV_0161,2022-11-30 18:38:16
,wl-rdm,53,241063,0.0-6.45-0.45,0.0,54.0,,,,,,,[],,,,,,50.0,0.0,u,0.0,True,2665.300000000745,160.0,60.0,40.0,False,,275.0679864983513,[],"[621, 349]",ColorTask,24.0,46.0,,,HRV,HRV_0161,2022-11-30 18:38:16
,wl-rdm,54,244847,0.0-6.46-0.46,0.0,55.0,,,,,,,[],,,,,,73.6,1.0,i,1.0,True,2493.0999999996275,150.0,60.0,40.0,False,,214.93004794708605,[],"[621, 349]",ColorTask,25.0,47.0,,,HRV,HRV_0161,2022-11-30 18:38:16
,wl-rdm,55,248330,0.0-6.47-0.47,0.0,56.0,,,,,,,[],,,,,,62.5,1.0,i,1.0,True,2004.699999999255,121.0,60.0,40.0,False,,396.11320374548745,[],"[621, 349]",ColorTask,26.0,48.0,,,HRV,HRV_0161,2022-11-30 18:38:16
,wl-rdm,56,251163,0.0-6.48-0.48,0.0,57.0,,,,,,,[],,,,,,73.6,0.0,u,0.0,True,1553.300000000745,94.0,60.0,40.0,False,,212.22008273812114,[],"[621, 349]",ColorTask,27.0,49.0,,,HRV,HRV_0161,2022-11-30 18:38:16
,wl-rdm,57,255129,0.0-6.49-0.49,0.0,58.0,,,,,,,[],,,,,,50.0,1.0,i,1.0,True,2663.199999999255,160.0,60.0,40.0,False,,233.91483754216213,[],"[621, 349]",ColorTask,28.0,50.0,,,HRV,HRV_0161,2022-11-30 18:38:16
,wl-rdm,58,258212,0.0-6.50-0.50,0.0,59.0,,,,,,,[],,,,,,53.2,0.0,u,0.0,True,1738.4999999981374,105.0,60.0,40.0,False,,262.0640676672423,[],"[621, 349]",ColorTask,29.0,51.0,,,HRV,HRV_0161,2022-11-30 18:38:16
,wl-rdm,59,261312,0.0-6.51-0.51,0.0,60.0,,,,,,,[],,,,,,53.2,0.0,u,0.0,True,1785.9000000003725,108.0,60.0,40.0,False,,240.26927211488132,[],"[621, 349]",ColorTask,30.0,52.0,,,HRV,HRV_0161,2022-11-30 18:38:16
,wl-rdm,60,264579,0.0-6.52-0.52,0.0,61.0,,,,,,,[],,,,,,62.5,0.0,i,1.0,False,1947.9000000003725,117.0,60.0,40.0,False,,262.0802090524536,[],"[621, 349]",ColorTask,29.0,53.0,,,HRV,HRV_0161,2022-11-30 18:38:16
,wl-rdm,61,267645,0.0-6.53-0.53,0.0,62.0,,,,,,,[],,,,,,62.5,1.0,i,1.0,True,1757.6000000014901,106.0,60.0,40.0,False,,219.92641064013415,[],"[621, 349]",ColorTask,30.0,54.0,,,HRV,HRV_0161,2022-11-30 18:38:16
,wl-rdm,62,270245,0.0-6.54-0.54,0.0,63.0,,,,,,,[],,,,,,73.6,0.0,u,0.0,True,1240.699999999255,75.0,60.0,40.0,False,,272.4036599248152,[],"[621, 349]",ColorTask,31.0,55.0,,,HRV,HRV_0161,2022-11-30 18:38:16
,wl-rdm,63,273212,0.0-6.55-0.55,0.0,64.0,,,,,,,[],,,,,,62.5,1.0,i,1.0,True,1615.4000000003725,97.0,60.0,40.0,False,,299.25235155647556,[],"[621, 349]",ColorTask,32.0,56.0,,,HRV,HRV_0161,2022-11-30 18:38:16
,wl-rdm,64,276511,0.0-6.56-0.56,0.0,65.0,,,,,,,[],,,,,,50.0,1.0,i,1.0,True,1927.8999999985099,116.0,60.0,40.0,False,,290.739764897444,[],"[621, 349]",ColorTask,33.0,57.0,,,HRV,HRV_0161,2022-11-30 18:38:16
,wl-rdm,65,280128,0.0-6.57-0.57,0.0,66.0,,,,,,,[],,,,,,50.0,1.0,i,1.0,True,2169.7999999988824,131.0,60.0,40.0,False,,366.55581603791717,[],"[621, 349]",ColorTask,34.0,58.0,,,HRV,HRV_0161,2022-11-30 18:38:16
,wl-rdm,66,283344,0.0-6.58-0.58,0.0,67.0,,,,,,,[],,,,,,53.2,1.0,u,0.0,False,1883.2000000011176,113.0,60.0,40.0,False,,258.66101858022535,[],"[621, 349]",ColorTask,33.0,59.0,,,HRV,HRV_0161,2022-11-30 18:38:16
,wl-rdm,67,286427,0.0-6.59-0.59,0.0,68.0,,,,,,,[],,,,,,56.4,1.0,i,1.0,True,1814.0000000018626,109.0,60.0,40.0,False,,204.3164663754023,[],"[621, 349]",ColorTask,34.0,60.0,,,HRV,HRV_0161,2022-11-30 18:38:16
,wl-rdm,68,290228,0.0-6.60-0.60,0.0,69.0,,,,,,,[],,,,,,53.2,1.0,i,1.0,True,2389.800000000745,144.0,60.0,40.0,False,,322.3956733816061,[],"[621, 349]",ColorTask,35.0,61.0,,,HRV,HRV_0161,2022-11-30 18:38:16
,wl-rdm,69,294294,0.0-6.61-0.61,0.0,70.0,,,,,,,[],,,,,,87.9,1.0,i,1.0,True,2692.2999999988824,162.0,60.0,40.0,False,,289.1014057823488,[],"[621, 349]",ColorTask,36.0,62.0,,,HRV,HRV_0161,2022-11-30 18:38:16
,wl-rdm,70,297544,0.0-6.62-0.62,0.0,71.0,,,,,,,[],,,,,,53.2,0.0,u,0.0,True,1806.9000000022352,109.0,60.0,40.0,False,,379.4284779714478,[],"[621, 349]",ColorTask,37.0,63.0,,,HRV,HRV_0161,2022-11-30 18:38:16
,wl-rdm,71,300877,0.0-6.63-0.63,0.0,72.0,,,,,,,[],,,,,,73.6,0.0,u,0.0,True,2012.800000000745,121.0,60.0,40.0,False,,246.26531672992218,[],"[621, 349]",ColorTask,38.0,64.0,,,HRV,HRV_0161,2022-11-30 18:38:16
,wl-rdm,72,304943,0.0-6.64-0.64,0.0,73.0,,,,,,,[],,,,,,53.2,0.0,u,0.0,True,2643.5999999996275,159.0,60.0,40.0,False,,336.51453700334446,[],"[621, 349]",ColorTask,39.0,65.0,,,HRV,HRV_0161,2022-11-30 18:38:16
,wl-rdm,73,308426,0.0-6.65-0.65,0.0,74.0,,,,,,,[],,,,,,56.4,0.0,u,0.0,True,2045.5999999996275,123.0,60.0,40.0,False,,353.0293085836217,[],"[621, 349]",ColorTask,40.0,66.0,,,HRV,HRV_0161,2022-11-30 18:38:16
,wl-rdm,74,311643,0.0-6.66-0.66,0.0,75.0,,,,,,,[],,,,,,50.0,0.0,u,0.0,True,1837.699999999255,111.0,60.0,40.0,False,,295.94106715042375,[],"[621, 349]",ColorTask,41.0,67.0,,,HRV,HRV_0161,2022-11-30 18:38:16
,wl-rdm,75,314309,0.0-6.67-0.67,0.0,76.0,,,,,,,[],,,,,,87.9,1.0,i,1.0,True,1271.8999999985099,77.0,60.0,40.0,False,,324.8822746195301,[],"[621, 349]",ColorTask,42.0,68.0,,,HRV,HRV_0161,2022-11-30 18:38:16
,wl-rdm,76,317842,0.0-6.68-0.68,0.0,77.0,,,,,,,[],,,,,,56.4,1.0,i,1.0,True,2194.4000000003725,132.0,60.0,40.0,False,,267.8653980333799,[],"[621, 349]",ColorTask,43.0,69.0,,,HRV,HRV_0161,2022-11-30 18:38:16
,wl-rdm,77,322059,0.0-6.69-0.69,0.0,78.0,,,,,,,[],,,,,,56.4,0.0,u,0.0,True,2901.2999999988824,175.0,60.0,40.0,False,,248.90125161090364,[],"[621, 349]",ColorTask,44.0,70.0,,,HRV,HRV_0161,2022-11-30 18:38:16
,wl-rdm,78,325175,0.0-6.70-0.70,0.0,79.0,,,,,,,[],,,,,,87.9,1.0,i,1.0,True,1775.0,107.0,60.0,40.0,False,,256.7369480956274,[],"[621, 349]",ColorTask,45.0,71.0,,,HRV,HRV_0161,2022-11-30 18:38:16
,wl-rdm,79,329092,0.0-6.71-0.71,0.0,80.0,,,,,,,[],,,,,,87.9,0.0,u,0.0,True,2467.7000000011176,149.0,60.0,40.0,False,,363.5174405575409,[],"[621, 349]",ColorTask,46.0,72.0,,,HRV,HRV_0161,2022-11-30 18:38:16
,wl-rdm,80,332708,0.0-6.72-0.72,0.0,81.0,,,,,,,[],,,,,,50.0,0.0,i,1.0,False,2285.60000000149,138.0,60.0,40.0,False,,246.89727552463228,[],"[621, 349]",ColorTask,45.0,73.0,,,HRV,HRV_0161,2022-11-30 18:38:16
,wl-rdm,81,335408,0.0-6.73-0.73,0.0,82.0,,,,,,,[],,,,,,62.5,1.0,i,1.0,True,1270.0,77.0,60.0,40.0,False,,344.3070669106625,[],"[621, 349]",ColorTask,46.0,74.0,,,HRV,HRV_0161,2022-11-30 18:38:16
,wl-rdm,82,337824,0.0-6.74-0.74,0.0,83.0,,,,,,,[],,,,,,87.9,0.0,u,0.0,True,1130.1000000014901,68.0,60.0,40.0,False,,211.4753121126527,[],"[621, 349]",ColorTask,47.0,75.0,,,HRV,HRV_0161,2022-11-30 18:38:16
,wl-rdm,83,341057,0.0-6.75-0.75,0.0,84.0,,,,,,,[],,,,,,62.5,0.0,u,0.0,True,1752.3999999985099,106.0,60.0,40.0,False,,393.0886466642183,[],"[621, 349]",ColorTask,48.0,76.0,,,HRV,HRV_0161,2022-11-30 18:38:16
,wl-rdm,84,344508,0.0-6.76-0.76,0.0,85.0,,,,,,,[],,,,,,53.2,1.0,u,0.0,False,2038.4000000003725,123.0,60.0,40.0,False,,331.48163838135906,[],"[621, 349]",ColorTask,47.0,77.0,,,HRV,HRV_0161,2022-11-30 18:38:16
,wl-rdm,85,347707,0.0-6.77-0.77,0.0,86.0,,,,,,,[],,,,,,62.5,0.0,i,1.0,False,1758.7000000011176,106.0,60.0,40.0,False,,356.94916505074565,[],"[621, 349]",ColorTask,46.0,78.0,,,HRV,HRV_0161,2022-11-30 18:38:16
,wl-rdm,86,351340,0.0-6.78-0.78,0.0,87.0,,,,,,,[],,,,,,56.4,1.0,i,1.0,True,2320.7000000011176,140.0,60.0,40.0,False,,220.6958218746205,[],"[621, 349]",ColorTask,47.0,79.0,,,HRV,HRV_0161,2022-11-30 18:38:16
,wl-rdm,87,354790,0.0-6.79-0.79,0.0,88.0,,,,,,,[],,,,,,53.2,0.0,u,0.0,True,2169.0,131.0,60.0,40.0,False,,210.29035337700603,[],"[621, 349]",ColorTask,48.0,80.0,,,HRV,HRV_0161,2022-11-30 18:38:16
,wl-rdm,88,358340,0.0-6.80-0.80,0.0,89.0,,,,,,,[],,,,,,62.5,0.0,i,1.0,False,2269.9999999981374,137.0,60.0,40.0,False,,201.01935655535652,[],"[621, 349]",ColorTask,47.0,81.0,,,HRV,HRV_0161,2022-11-30 18:38:16
,wl-rdm,89,362339,0.0-6.81-0.81,0.0,90.0,,,,,,,[],,,,,,56.4,0.0,i,1.0,False,2574.0999999996275,155.0,60.0,40.0,False,,355.0529480260432,[],"[621, 349]",ColorTask,46.0,82.0,,,HRV,HRV_0161,2022-11-30 18:38:16
,wl-rdm,90,366056,0.0-6.82-0.82,0.0,91.0,,,,,,,[],,,,,,56.4,1.0,u,0.0,False,2308.89999999851,139.0,60.0,40.0,False,,317.4101520370095,[],"[621, 349]",ColorTask,45.0,83.0,,,HRV,HRV_0161,2022-11-30 18:38:16
,wl-rdm,91,368923,0.0-6.83-0.83,0.0,92.0,,,,,,,[],,,,,,62.5,1.0,i,1.0,True,1578.4000000022352,95.0,60.0,40.0,False,,211.83991225705697,[],"[621, 349]",ColorTask,46.0,84.0,,,HRV,HRV_0161,2022-11-30 18:38:16
,wl-rdm,92,372389,0.0-6.84-0.84,0.0,93.0,,,,,,,[],,,,,,73.6,0.0,u,0.0,True,2147.4000000003725,129.0,60.0,40.0,False,,253.78407612967547,[],"[621, 349]",ColorTask,47.0,85.0,,,HRV,HRV_0161,2022-11-30 18:38:16
,wl-rdm,93,376405,0.0-6.85-0.85,0.0,94.0,,,,,,,[],,,,,,53.2,0.0,i,1.0,False,2674.7000000011176,161.0,60.0,40.0,False,,260.43236991809516,[],"[621, 349]",ColorTask,46.0,86.0,,,HRV,HRV_0161,2022-11-30 18:38:16
,wl-rdm,94,379905,0.0-6.86-0.86,0.0,95.0,,,,,,,[],,,,,,62.5,0.0,u,0.0,True,2071.5,125.0,60.0,40.0,False,,334.4748407886972,[],"[621, 349]",ColorTask,47.0,87.0,,,HRV,HRV_0161,2022-11-30 18:38:16
,wl-rdm,95,383922,0.0-6.87-0.87,0.0,96.0,,,,,,,[],,,,,,50.0,0.0,i,1.0,False,2562.5,154.0,60.0,40.0,False,,380.2023147218034,[],"[621, 349]",ColorTask,46.0,88.0,,,HRV,HRV_0161,2022-11-30 18:38:16
,wl-rdm,96,386955,0.0-6.88-0.88,0.0,97.0,,,,,,,[],,,,,,73.6,0.0,u,0.0,True,1748.300000000745,105.0,60.0,40.0,False,,222.79499347007598,[],"[621, 349]",ColorTask,47.0,89.0,,,HRV,HRV_0161,2022-11-30 18:38:16
,wl-rdm,97,390122,0.0-6.89-0.89,0.0,98.0,,,,,,,[],,,,,,87.9,1.0,i,1.0,True,1751.5999999996275,106.0,60.0,40.0,False,,318.3279178425323,[],"[621, 349]",ColorTask,48.0,90.0,,,HRV,HRV_0161,2022-11-30 18:38:16
,wl-rdm,98,393854,0.0-6.90-0.90,0.0,99.0,,,,,,,[],,,,,,56.4,1.0,i,1.0,True,2340.39999999851,141.0,60.0,40.0,False,,330.701060810666,[],"[621, 349]",ColorTask,49.0,91.0,,,HRV,HRV_0161,2022-11-30 18:38:16
,wl-rdm,99,397254,0.0-6.91-0.91,0.0,100.0,,,,,,,[],,,,,,73.6,1.0,i,1.0,True,2015.1000000014901,121.0,60.0,40.0,False,,303.3773523299458,[],"[621, 349]",ColorTask,50.0,92.0,,,HRV,HRV_0161,2022-11-30 18:38:16
,wl-rdm,100,400904,0.0-6.92-0.92,0.0,101.0,,,,,,,[],,,,,,56.4,0.0,u,0.0,True,2304.400000002235,139.0,60.0,40.0,False,,272.6269459575501,[],"[621, 349]",ColorTask,51.0,93.0,,,HRV,HRV_0161,2022-11-30 18:38:16
,wl-rdm,101,404004,0.0-6.93-0.93,0.0,102.0,,,,,,,[],,,,,,73.6,1.0,i,1.0,True,1668.5999999996275,101.0,60.0,40.0,False,,364.4577579738024,[],"[621, 349]",ColorTask,52.0,94.0,,,HRV,HRV_0161,2022-11-30 18:38:16
,wl-rdm,102,407320,0.0-6.94-0.94,0.0,103.0,,,,,,,[],,,,,,62.5,1.0,i,1.0,True,1992.2999999988824,120.0,60.0,40.0,False,,244.2676370904693,[],"[621, 349]",ColorTask,53.0,95.0,,,HRV,HRV_0161,2022-11-30 18:38:16
,wl-rdm,103,410720,0.0-6.95-0.95,0.0,104.0,,,,,,,[],,,,,,50.0,1.0,i,1.0,True,2041.300000000745,123.0,60.0,40.0,False,,270.62560065528544,[],"[621, 349]",ColorTask,54.0,96.0,,,HRV,HRV_0161,2022-11-30 18:38:16
,wl-rdm,104,413754,0.0-6.96-0.96,0.0,105.0,,,,,,,[],,,,,,73.6,0.0,u,0.0,True,1553.199999999255,94.0,60.0,40.0,False,,397.4563167802205,[],"[621, 349]",ColorTask,55.0,97.0,,,HRV,HRV_0161,2022-11-30 18:38:16
,wl-rdm,105,417003,0.0-6.97-0.97,0.0,106.0,,,,,,,[],,,,,,62.5,0.0,u,0.0,True,1811.8999999985099,109.0,60.0,40.0,False,,361.9854759536332,[],"[621, 349]",ColorTask,56.0,98.0,,,HRV,HRV_0161,2022-11-30 18:38:16
,wl-rdm,106,419720,0.0-6.98-0.98,0.0,107.0,,,,,,,[],,,,,,87.9,0.0,u,0.0,True,1356.7000000011176,82.0,60.0,40.0,False,,272.53372752003656,[],"[621, 349]",ColorTask,57.0,99.0,,,HRV,HRV_0161,2022-11-30 18:38:16
,wl-rdm,107,422953,0.0-6.99-0.99,0.0,108.0,,,,,,,[],,,,,,87.9,0.0,u,0.0,True,1862.7999999988824,112.0,60.0,40.0,False,,300.9248797257626,[],"[621, 349]",ColorTask,58.0,100.0,,,HRV,HRV_0161,2022-11-30 18:38:16
,wl-rdm,108,426486,0.0-6.100-0.100,0.0,109.0,,,,,,,[],,,,,,50.0,1.0,i,1.0,True,2225.5,134.0,60.0,40.0,False,,235.64478615148937,[],"[621, 349]",ColorTask,59.0,101.0,,,HRV,HRV_0161,2022-11-30 18:38:16
,wl-rdm,109,429836,0.0-6.101-0.101,0.0,110.0,,,,,,,[],,,,,,50.0,1.0,i,1.0,True,2054.300000000745,124.0,60.0,40.0,False,,205.30282913426552,[],"[621, 349]",ColorTask,60.0,102.0,,,HRV,HRV_0161,2022-11-30 18:38:16
,wl-rdm,110,433436,0.0-6.102-0.102,0.0,111.0,,,,,,,[],,,,,,50.0,1.0,i,1.0,True,2214.699999999255,133.0,60.0,40.0,False,,330.0378915091226,[],"[621, 349]",ColorTask,61.0,103.0,,,HRV,HRV_0161,2022-11-30 18:38:16
,wl-rdm,111,436769,0.0-6.103-0.103,0.0,112.0,,,,,,,[],,,,,,73.6,1.0,i,1.0,True,1862.5999999996275,112.0,60.0,40.0,False,,398.5998318011293,[],"[621, 349]",ColorTask,62.0,104.0,,,HRV,HRV_0161,2022-11-30 18:38:16
,wl-rdm,112,440052,0.0-6.104-0.104,0.0,113.0,,,,,,,[],,,,,,50.0,0.0,u,0.0,True,1892.0000000018626,114.0,60.0,40.0,False,,308.1379760178721,[],"[621, 349]",ColorTask,63.0,105.0,,,HRV,HRV_0161,2022-11-30 18:38:16
,wl-rdm,113,443252,0.0-6.105-0.105,0.0,114.0,,,,,,,[],,,,,,87.9,0.0,u,0.0,True,1868.300000000745,113.0,60.0,40.0,False,,244.44913733919518,[],"[621, 349]",ColorTask,64.0,106.0,,,HRV,HRV_0161,2022-11-30 18:38:16
,wl-rdm,114,446668,0.0-6.106-0.106,0.0,115.0,,,,,,,[],,,,,,50.0,1.0,u,0.0,False,2041.800000000745,123.0,60.0,40.0,False,,306.7116598755805,[],"[621, 349]",ColorTask,63.0,107.0,,,HRV,HRV_0161,2022-11-30 18:38:16
,wl-rdm,115,449701,0.0-6.107-0.107,0.0,116.0,,,,,,,[],,,,,,62.5,0.0,i,1.0,False,1701.0999999996275,103.0,60.0,40.0,False,,243.87463732828638,[],"[621, 349]",ColorTask,62.0,108.0,,,HRV,HRV_0161,2022-11-30 18:38:16
,wl-html-keyboard-response,116,471639,0.0-7.0-0.0,1.0,117.0,,,,,,,,19926.700000001118,1.0,0,,,,,,,,,,,,,,,,,,,,,,HRV,HRV_0161,2022-11-30 18:38:16
,wl-rdm,117,475117,0.0-8.0-0.0,1.0,118.0,,,,,,,[],,,,,,62.5,1.0,i,1.0,True,2154.7000000011176,130.0,60.0,40.0,False,,241.35843622880276,[],"[621, 349]",ColorTask,63.0,1.0,,,HRV,HRV_0161,2022-11-30 18:38:16
,wl-rdm,118,478099,0.0-8.1-0.1,1.0,119.0,,,,,,,[],,,,,,73.6,0.0,u,0.0,True,1691.800000000745,102.0,60.0,40.0,False,,216.62509605435204,[],"[621, 349]",ColorTask,64.0,2.0,,,HRV,HRV_0161,2022-11-30 18:38:16
,wl-rdm,119,480982,0.0-8.2-0.2,1.0,120.0,,,,,,,[],,,,,,56.4,0.0,u,0.0,True,1579.9000000022352,95.0,60.0,40.0,False,,226.22815316828297,[],"[621, 349]",ColorTask,65.0,3.0,,,HRV,HRV_0161,2022-11-30 18:38:16
,wl-rdm,120,484215,0.0-8.3-0.3,1.0,121.0,,,,,,,[],,,,,,53.2,0.0,u,0.0,True,1962.2999999988824,118.0,60.0,40.0,False,,208.4353740713163,[],"[621, 349]",ColorTask,66.0,4.0,,,HRV,HRV_0161,2022-11-30 18:38:16
,wl-rdm,121,488232,0.0-8.4-0.4,1.0,122.0,,,,,,,[],,,,,,62.5,1.0,u,0.0,False,2570.5,155.0,60.0,40.0,False,,380.0550743486182,[],"[621, 349]",ColorTask,65.0,5.0,,,HRV,HRV_0161,2022-11-30 18:38:16
,wl-rdm,122,491665,0.0-8.5-0.5,1.0,123.0,,,,,,,[],,,,,,56.4,0.0,u,0.0,True,2063.199999999255,124.0,60.0,40.0,False,,307.04992364225234,[],"[621, 349]",ColorTask,66.0,6.0,,,HRV,HRV_0161,2022-11-30 18:38:16
,wl-rdm,123,495331,0.0-8.6-0.6,1.0,124.0,,,,,,,[],,,,,,53.2,1.0,i,1.0,True,2358.800000000745,142.0,60.0,40.0,False,,228.16570264832245,[],"[621, 349]",ColorTask,67.0,7.0,,,HRV,HRV_0161,2022-11-30 18:38:16
,wl-rdm,124,498381,0.0-8.7-0.7,1.0,125.0,,,,,,,[],,,,,,73.6,0.0,u,0.0,True,1711.0,103.0,60.0,40.0,False,,273.76802899910484,[],"[621, 349]",ColorTask,68.0,8.0,,,HRV,HRV_0161,2022-11-30 18:38:16
,wl-rdm,125,501598,0.0-8.8-0.8,1.0,126.0,,,,,,,[],,,,,,62.5,0.0,u,0.0,True,1779.0999999996275,107.0,60.0,40.0,False,,351.6272587391259,[],"[621, 349]",ColorTask,69.0,9.0,,,HRV,HRV_0161,2022-11-30 18:38:16
,wl-rdm,126,504431,0.0-8.9-0.9,1.0,127.0,,,,,,,[],,,,,,73.6,1.0,i,1.0,True,1397.7000000011176,84.0,60.0,40.0,False,,351.5599621234926,[],"[621, 349]",ColorTask,70.0,10.0,,,HRV,HRV_0161,2022-11-30 18:38:16
,wl-rdm,127,507797,0.0-8.10-0.10,1.0,128.0,,,,,,,[],,,,,,62.5,0.0,i,1.0,False,2064.5999999996275,124.0,60.0,40.0,False,,247.2837849826363,[],"[621, 349]",ColorTask,69.0,11.0,,,HRV,HRV_0161,2022-11-30 18:38:16
,wl-rdm,128,511847,0.0-8.11-0.11,1.0,129.0,,,,,,,[],,,,,,50.0,1.0,u,0.0,False,2660.2000000011176,160.0,60.0,40.0,False,,325.7662418475368,[],"[621, 349]",ColorTask,68.0,12.0,,,HRV,HRV_0161,2022-11-30 18:38:16
,wl-rdm,129,515380,0.0-8.12-0.12,1.0,130.0,,,,,,,[],,,,,,62.5,1.0,i,1.0,True,2144.0,129.0,60.0,40.0,False,,314.4727293084033,[],"[621, 349]",ColorTask,69.0,13.0,,,HRV,HRV_0161,2022-11-30 18:38:16
,wl-rdm,130,518696,0.0-8.13-0.13,1.0,131.0,,,,,,,[],,,,,,53.2,0.0,i,1.0,False,2045.5,123.0,60.0,40.0,False,,212.30308215383604,[],"[621, 349]",ColorTask,68.0,14.0,,,HRV,HRV_0161,2022-11-30 18:38:16
,wl-rdm,131,522279,0.0-8.14-0.14,1.0,132.0,,,,,,,[],,,,,,62.5,0.0,u,0.0,True,2279.0999999996275,137.0,60.0,40.0,False,,218.33825461261478,[],"[621, 349]",ColorTask,69.0,15.0,,,HRV,HRV_0161,2022-11-30 18:38:16
,wl-rdm,132,525513,0.0-8.15-0.15,1.0,133.0,,,,,,,[],,,,,,62.5,1.0,i,1.0,True,1937.5999999996275,117.0,60.0,40.0,False,,209.6898445034747,[],"[621, 349]",ColorTask,70.0,16.0,,,HRV,HRV_0161,2022-11-30 18:38:16
,wl-rdm,133,529229,0.0-8.16-0.16,1.0,134.0,,,,,,,[],,,,,,50.0,1.0,i,1.0,True,2402.9000000003725,145.0,60.0,40.0,False,,224.90000875072565,[],"[621, 349]",ColorTask,71.0,17.0,,,HRV,HRV_0161,2022-11-30 18:38:16
,wl-rdm,134,532396,0.0-8.17-0.17,1.0,135.0,,,,,,,[],,,,,,56.4,1.0,i,1.0,True,1892.199999999255,114.0,60.0,40.0,False,,201.60852949169217,[],"[621, 349]",ColorTask,72.0,18.0,,,HRV,HRV_0161,2022-11-30 18:38:16
,wl-rdm,135,534896,0.0-8.18-0.18,1.0,136.0,,,,,,,[],,,,,,87.9,0.0,u,0.0,True,1186.300000000745,72.0,60.0,40.0,False,,220.74600713487143,[],"[621, 349]",ColorTask,73.0,19.0,,,HRV,HRV_0161,2022-11-30 18:38:16
,wl-rdm,136,537446,0.0-8.19-0.19,1.0,137.0,,,,,,,[],,,,,,87.9,0.0,u,0.0,True,1282.5999999996275,77.0,60.0,40.0,False,,202.92360549417924,[],"[621, 349]",ColorTask,74.0,20.0,,,HRV,HRV_0161,2022-11-30 18:38:16
,wl-rdm,137,540728,0.0-8.20-0.20,1.0,138.0,,,,,,,[],,,,,,53.2,1.0,i,1.0,True,1951.7000000011176,118.0,60.0,40.0,False,,240.23576761829804,[],"[621, 349]",ColorTask,75.0,21.0,,,HRV,HRV_0161,2022-11-30 18:38:16
,wl-rdm,138,543678,0.0-8.21-0.21,1.0,139.0,,,,,,,[],,,,,,53.2,1.0,i,1.0,True,1605.699999999255,97.0,60.0,40.0,False,,280.9554307540459,[],"[621, 349]",ColorTask,76.0,22.0,,,HRV,HRV_0161,2022-11-30 18:38:16
,wl-rdm,139,546095,0.0-8.22-0.22,1.0,140.0,,,,,,,[],,,,,,87.9,0.0,u,0.0,True,1108.3999999985099,67.0,60.0,40.0,False,,243.4409285415276,[],"[621, 349]",ColorTask,77.0,23.0,,,HRV,HRV_0161,2022-11-30 18:38:16
,wl-rdm,140,549028,0.0-8.23-0.23,1.0,141.0,,,,,,,[],,,,,,56.4,0.0,u,0.0,True,1573.699999999255,95.0,60.0,40.0,False,,271.3155922763295,[],"[621, 349]",ColorTask,78.0,24.0,,,HRV,HRV_0161,2022-11-30 18:38:16
,wl-rdm,141,552411,0.0-8.24-0.24,1.0,142.0,,,,,,,[],,,,,,53.2,0.0,u,0.0,True,2035.5,123.0,60.0,40.0,False,,255.05084760558162,[],"[621, 349]",ColorTask,79.0,25.0,,,HRV,HRV_0161,2022-11-30 18:38:16
,wl-rdm,142,555244,0.0-8.25-0.25,1.0,143.0,,,,,,,[],,,,,,62.5,1.0,i,1.0,True,1553.300000000745,94.0,60.0,40.0,False,,205.65471604651054,[],"[621, 349]",ColorTask,80.0,26.0,,,HRV,HRV_0161,2022-11-30 18:38:16
,wl-rdm,143,558561,0.0-8.26-0.26,1.0,144.0,,,,,,,[],,,,,,62.5,0.0,u,0.0,True,2018.300000000745,122.0,60.0,40.0,False,,210.46304483391734,[],"[621, 349]",ColorTask,81.0,27.0,,,HRV,HRV_0161,2022-11-30 18:38:16
,wl-rdm,144,561311,0.0-8.27-0.27,1.0,145.0,,,,,,,[],,,,,,56.4,1.0,i,1.0,True,1446.199999999255,87.0,60.0,40.0,False,,245.48067128216798,[],"[621, 349]",ColorTask,82.0,28.0,,,HRV,HRV_0161,2022-11-30 18:38:16
,wl-rdm,145,563994,0.0-8.28-0.28,1.0,146.0,,,,,,,[],,,,,,87.9,1.0,i,1.0,True,1284.6000000014901,78.0,60.0,40.0,False,,309.09751049729846,[],"[621, 349]",ColorTask,83.0,29.0,,,HRV,HRV_0161,2022-11-30 18:38:16
,wl-rdm,146,566960,0.0-8.29-0.29,1.0,147.0,,,,,,,[],,,,,,56.4,0.0,i,1.0,False,1637.199999999255,99.0,60.0,40.0,False,,235.0995601393982,[],"[621, 349]",ColorTask,82.0,30.0,,,HRV,HRV_0161,2022-11-30 18:38:16
,wl-rdm,147,569977,0.0-8.30-0.30,1.0,148.0,,,,,,,[],,,,,,56.4,1.0,u,0.0,False,1714.800000000745,103.0,60.0,40.0,False,,217.21044551166156,[],"[621, 349]",ColorTask,81.0,31.0,,,HRV,HRV_0161,2022-11-30 18:38:16
,wl-rdm,148,573077,0.0-8.31-0.31,1.0,149.0,,,,,,,[],,,,,,50.0,1.0,i,1.0,True,1763.5999999996275,106.0,60.0,40.0,False,,283.3424337424008,[],"[621, 349]",ColorTask,82.0,32.0,,,HRV,HRV_0161,2022-11-30 18:38:16
,wl-rdm,149,576193,0.0-8.32-0.32,1.0,150.0,,,,,,,[],,,,,,73.6,0.0,u,0.0,True,1679.0999999996275,101.0,60.0,40.0,False,,358.49878165227574,[],"[621, 349]",ColorTask,83.0,33.0,,,HRV,HRV_0161,2022-11-30 18:38:16
,wl-rdm,150,579293,0.0-8.33-0.33,1.0,151.0,,,,,,,[],,,,,,73.6,1.0,i,1.0,True,1776.7000000011176,107.0,60.0,40.0,False,,255.50998847240282,[],"[621, 349]",ColorTask,84.0,34.0,,,HRV,HRV_0161,2022-11-30 18:38:16
,wl-rdm,151,582876,0.0-8.34-0.34,1.0,152.0,,,,,,,[],,,,,,53.2,1.0,i,1.0,True,2155.800000000745,130.0,60.0,40.0,False,,347.2275582919464,[],"[621, 349]",ColorTask,85.0,35.0,,,HRV,HRV_0161,2022-11-30 18:38:16
,wl-rdm,152,585959,0.0-8.35-0.35,1.0,153.0,,,,,,,[],,,,,,73.6,1.0,i,1.0,True,1722.199999999255,104.0,60.0,40.0,False,,268.09857470265206,[],"[621, 349]",ColorTask,86.0,36.0,,,HRV,HRV_0161,2022-11-30 18:38:16
,wl-rdm,153,588893,0.0-8.36-0.36,1.0,154.0,,,,,,,[],,,,,,50.0,1.0,u,0.0,False,1464.4000000003725,88.0,60.0,40.0,False,,387.8489823681003,[],"[621, 349]",ColorTask,85.0,37.0,,,HRV,HRV_0161,2022-11-30 18:38:16
,wl-rdm,154,591825,0.0-8.37-0.37,1.0,155.0,,,,,,,[],,,,,,62.5,1.0,i,1.0,True,1570.7999999988824,95.0,60.0,40.0,False,,280.142682834672,[],"[621, 349]",ColorTask,86.0,38.0,,,HRV,HRV_0161,2022-11-30 18:38:16
,wl-rdm,155,594509,0.0-8.38-0.38,1.0,156.0,,,,,,,[],,,,,,87.9,0.0,u,0.0,True,1314.800000000745,79.0,60.0,40.0,False,,300.5324929490668,[],"[621, 349]",ColorTask,87.0,39.0,,,HRV,HRV_0161,2022-11-30 18:38:16
,wl-rdm,156,597909,0.0-8.39-0.39,1.0,157.0,,,,,,,[],,,,,,53.2,0.0,i,1.0,False,2035.9000000003725,123.0,60.0,40.0,False,,296.23426434979785,[],"[621, 349]",ColorTask,86.0,40.0,,,HRV,HRV_0161,2022-11-30 18:38:16
,wl-rdm,157,600459,0.0-8.40-0.40,1.0,158.0,,,,,,,[],,,,,,73.6,1.0,i,1.0,True,1149.3999999985099,69.0,60.0,40.0,False,,321.79759621541604,[],"[621, 349]",ColorTask,87.0,41.0,,,HRV,HRV_0161,2022-11-30 18:38:16
,wl-rdm,158,603659,0.0-8.41-0.41,1.0,159.0,,,,,,,[],,,,,,53.2,1.0,i,1.0,True,1909.5,115.0,60.0,40.0,False,,209.3994701728489,[],"[621, 349]",ColorTask,88.0,42.0,,,HRV,HRV_0161,2022-11-30 18:38:16
,wl-rdm,159,607042,0.0-8.42-0.42,1.0,160.0,,,,,,,[],,,,,,62.5,1.0,i,1.0,True,2088.10000000149,126.0,60.0,40.0,False,,214.42920033032175,[],"[621, 349]",ColorTask,89.0,43.0,,,HRV,HRV_0161,2022-11-30 18:38:16
,wl-rdm,160,609958,0.0-8.43-0.43,1.0,161.0,,,,,,,[],,,,,,87.9,1.0,i,1.0,True,1591.0000000018626,96.0,60.0,40.0,False,,256.80020419991604,[],"[621, 349]",ColorTask,90.0,44.0,,,HRV,HRV_0161,2022-11-30 18:38:16
,wl-rdm,161,613525,0.0-8.44-0.44,1.0,162.0,,,,,,,[],,,,,,56.4,1.0,i,1.0,True,2121.4000000003725,128.0,60.0,40.0,False,,375.8972761870125,[],"[621, 349]",ColorTask,91.0,45.0,,,HRV,HRV_0161,2022-11-30 18:38:16
,wl-rdm,162,616124,0.0-8.45-0.45,1.0,163.0,,,,,,,[],,,,,,73.6,0.0,u,0.0,True,1134.699999999255,69.0,60.0,40.0,False,,374.94033703811556,[],"[621, 349]",ColorTask,92.0,46.0,,,HRV,HRV_0161,2022-11-30 18:38:16
,wl-rdm,163,618924,0.0-8.46-0.46,1.0,164.0,,,,,,,[],,,,,,50.0,0.0,i,1.0,False,1506.4999999981374,91.0,60.0,40.0,False,,213.21498583746103,[],"[621, 349]",ColorTask,91.0,47.0,,,HRV,HRV_0161,2022-11-30 18:38:16
,wl-rdm,164,621941,0.0-8.47-0.47,1.0,165.0,,,,,,,[],,,,,,87.9,0.0,u,0.0,True,1647.4000000003725,99.0,60.0,40.0,False,,312.31912265481145,[],"[621, 349]",ColorTask,92.0,48.0,,,HRV,HRV_0161,2022-11-30 18:38:16
,wl-rdm,165,624874,0.0-8.48-0.48,1.0,166.0,,,,,,,[],,,,,,87.9,1.0,i,1.0,True,1544.5,93.0,60.0,40.0,False,,309.9972289013525,[],"[621, 349]",ColorTask,93.0,49.0,,,HRV,HRV_0161,2022-11-30 18:38:16
,wl-rdm,166,627991,0.0-8.49-0.49,1.0,167.0,,,,,,,[],,,,,,56.4,1.0,u,0.0,False,1802.1000000014901,109.0,60.0,40.0,False,,220.88208773560905,[],"[621, 349]",ColorTask,92.0,50.0,,,HRV,HRV_0161,2022-11-30 18:38:16
,wl-rdm,167,631057,0.0-8.50-0.50,1.0,168.0,,,,,,,[],,,,,,56.4,1.0,i,1.0,True,1771.300000000745,107.0,60.0,40.0,False,,233.1316163865116,[],"[621, 349]",ColorTask,93.0,51.0,,,HRV,HRV_0161,2022-11-30 18:38:16
,wl-rdm,168,633757,0.0-8.51-0.51,1.0,169.0,,,,,,,[],,,,,,73.6,1.0,i,1.0,True,1378.699999999255,83.0,60.0,40.0,False,,247.7380688877075,[],"[621, 349]",ColorTask,94.0,52.0,,,HRV,HRV_0161,2022-11-30 18:38:16
,wl-rdm,169,636890,0.0-8.52-0.52,1.0,170.0,,,,,,,[],,,,,,62.5,1.0,i,1.0,True,1797.199999999255,108.0,60.0,40.0,False,,252.57195260167353,[],"[621, 349]",ColorTask,95.0,53.0,,,HRV,HRV_0161,2022-11-30 18:38:16
,wl-rdm,170,640406,0.0-8.53-0.53,1.0,171.0,,,,,,,[],,,,,,56.4,0.0,i,1.0,False,2195.5,132.0,60.0,40.0,False,,254.0331396471374,[],"[621, 349]",ColorTask,94.0,54.0,,,HRV,HRV_0161,2022-11-30 18:38:16
,wl-rdm,171,643139,0.0-8.54-0.54,1.0,172.0,,,,,,,[],,,,,,62.5,0.0,u,0.0,True,1443.5,87.0,60.0,40.0,False,,209.72707902083314,[],"[621, 349]",ColorTask,95.0,55.0,,,HRV,HRV_0161,2022-11-30 18:38:16
,wl-rdm,172,645706,0.0-8.55-0.55,1.0,173.0,,,,,,,[],,,,,,73.6,0.0,u,0.0,True,1281.300000000745,77.0,60.0,40.0,False,,216.15961634009903,[],"[621, 349]",ColorTask,96.0,56.0,,,HRV,HRV_0161,2022-11-30 18:38:16
,wl-rdm,173,649206,0.0-8.56-0.56,1.0,174.0,,,,,,,[],,,,,,73.6,1.0,i,1.0,True,2208.5,133.0,60.0,40.0,False,,216.19342424728055,[],"[621, 349]",ColorTask,97.0,57.0,,,HRV,HRV_0161,2022-11-30 18:38:16
,wl-rdm,174,652756,0.0-8.57-0.57,1.0,175.0,,,,,,,[],,,,,,50.0,0.0,i,1.0,False,2196.199999999255,132.0,60.0,40.0,False,,280.71236048068965,[],"[621, 349]",ColorTask,96.0,58.0,,,HRV,HRV_0161,2022-11-30 18:38:16
,wl-rdm,175,655272,0.0-8.58-0.58,1.0,176.0,,,,,,,[],,,,,,50.0,0.0,u,0.0,True,1202.0,73.0,60.0,40.0,False,,221.75633076486596,[],"[621, 349]",ColorTask,97.0,59.0,,,HRV,HRV_0161,2022-11-30 18:38:16
,wl-rdm,176,658555,0.0-8.59-0.59,1.0,177.0,,,,,,,[],,,,,,50.0,1.0,i,1.0,True,1975.5,119.0,60.0,40.0,False,,235.4968814588674,[],"[621, 349]",ColorTask,98.0,60.0,,,HRV,HRV_0161,2022-11-30 18:38:16
,wl-rdm,177,661855,0.0-8.60-0.60,1.0,178.0,,,,,,,[],,,,,,50.0,0.0,u,0.0,True,1845.199999999255,111.0,60.0,40.0,False,,382.24211664187453,[],"[621, 349]",ColorTask,99.0,61.0,,,HRV,HRV_0161,2022-11-30 18:38:16
,wl-rdm,178,665455,0.0-8.61-0.61,1.0,179.0,,,,,,,[],,,,,,53.2,0.0,u,0.0,True,2282.0999999996275,137.0,60.0,40.0,False,,253.46177398765988,[],"[621, 349]",ColorTask,100.0,62.0,,,HRV,HRV_0161,2022-11-30 18:38:16
,wl-rdm,179,668805,0.0-8.62-0.62,1.0,180.0,,,,,,,[],,,,,,50.0,1.0,i,1.0,True,1962.7999999988824,118.0,60.0,40.0,False,,302.29409925922675,[],"[621, 349]",ColorTask,101.0,63.0,,,HRV,HRV_0161,2022-11-30 18:38:16
,wl-rdm,180,672388,0.0-8.63-0.63,1.0,181.0,,,,,,,[],,,,,,56.4,0.0,u,0.0,True,2167.699999999255,131.0,60.0,40.0,False,,324.4614413519535,[],"[621, 349]",ColorTask,102.0,64.0,,,HRV,HRV_0161,2022-11-30 18:38:16
,wl-rdm,181,674954,0.0-8.64-0.64,1.0,182.0,,,,,,,[],,,,,,73.6,0.0,u,0.0,True,1274.800000000745,77.0,60.0,40.0,False,,225.1779537304529,[],"[621, 349]",ColorTask,103.0,65.0,,,HRV,HRV_0161,2022-11-30 18:38:16
,wl-rdm,182,678121,0.0-8.65-0.65,1.0,183.0,,,,,,,[],,,,,,53.2,1.0,i,1.0,True,1739.699999999255,105.0,60.0,40.0,False,,334.2605452345467,[],"[621, 349]",ColorTask,104.0,66.0,,,HRV,HRV_0161,2022-11-30 18:38:16
,wl-rdm,183,681220,0.0-8.66-0.66,1.0,184.0,,,,,,,[],,,,,,50.0,1.0,i,1.0,True,1762.0000000018626,106.0,60.0,40.0,False,,270.20220672408806,[],"[621, 349]",ColorTask,105.0,67.0,,,HRV,HRV_0161,2022-11-30 18:38:16
,wl-rdm,184,684420,0.0-8.67-0.67,1.0,185.0,,,,,,,[],,,,,,87.9,1.0,i,1.0,True,1831.300000000745,110.0,60.0,40.0,False,,311.7959095143459,[],"[621, 349]",ColorTask,106.0,68.0,,,HRV,HRV_0161,2022-11-30 18:38:16
,wl-rdm,185,688154,0.0-8.68-0.68,1.0,186.0,,,,,,,[],,,,,,53.2,1.0,i,1.0,True,2393.0999999996275,144.0,60.0,40.0,False,,264.22164124985306,[],"[621, 349]",ColorTask,107.0,69.0,,,HRV,HRV_0161,2022-11-30 18:38:16
,wl-rdm,186,691270,0.0-8.69-0.69,1.0,187.0,,,,,,,[],,,,,,56.4,0.0,u,0.0,True,1655.800000000745,100.0,60.0,40.0,False,,384.9582246024806,[],"[621, 349]",ColorTask,108.0,70.0,,,HRV,HRV_0161,2022-11-30 18:38:16
,wl-rdm,187,693786,0.0-8.70-0.70,1.0,188.0,,,,,,,[],,,,,,87.9,1.0,i,1.0,True,1230.0999999996275,74.0,60.0,40.0,False,,200.66094811298564,[],"[621, 349]",ColorTask,109.0,71.0,,,HRV,HRV_0161,2022-11-30 18:38:16
,wl-rdm,188,696603,0.0-8.71-0.71,1.0,189.0,,,,,,,[],,,,,,56.4,0.0,u,0.0,True,1497.4000000003725,90.0,60.0,40.0,False,,265.26475011027327,[],"[621, 349]",ColorTask,110.0,72.0,,,HRV,HRV_0161,2022-11-30 18:38:16
,wl-rdm,189,699836,0.0-8.72-0.72,1.0,190.0,,,,,,,[],,,,,,50.0,1.0,i,1.0,True,1923.0999999996275,116.0,60.0,40.0,False,,230.3377777488538,[],"[621, 349]",ColorTask,111.0,73.0,,,HRV,HRV_0161,2022-11-30 18:38:16
,wl-rdm,190,703919,0.0-8.73-0.73,1.0,191.0,,,,,,,[],,,,,,53.2,0.0,u,0.0,True,2751.5,166.0,60.0,40.0,False,,252.41561018229626,[],"[621, 349]",ColorTask,112.0,74.0,,,HRV,HRV_0161,2022-11-30 18:38:16
,wl-rdm,191,707702,0.0-8.74-0.74,1.0,192.0,,,,,,,[],,,,,,62.5,0.0,u,0.0,True,2377.7000000011176,143.0,60.0,40.0,False,,343.80313557986375,[],"[621, 349]",ColorTask,113.0,75.0,,,HRV,HRV_0161,2022-11-30 18:38:16
,wl-rdm,192,711286,0.0-8.75-0.75,1.0,193.0,,,,,,,[],,,,,,50.0,0.0,u,0.0,True,2128.4999999981374,128.0,60.0,40.0,False,,379.641928580805,[],"[621, 349]",ColorTask,114.0,76.0,,,HRV,HRV_0161,2022-11-30 18:38:16
,wl-rdm,193,715302,0.0-8.76-0.76,1.0,194.0,,,,,,,[],,,,,,56.4,1.0,i,1.0,True,2578.2000000011176,155.0,60.0,40.0,False,,361.91960937128437,[],"[621, 349]",ColorTask,115.0,77.0,,,HRV,HRV_0161,2022-11-30 18:38:16
,wl-rdm,194,719702,0.0-8.77-0.77,1.0,194.0,,,,,,,[],,,,,,53.2,1.0,,,,,179.0,60.0,40.0,True,RT_timeout ,305.46828606555704,[],"[621, 349]",ColorTask,114.0,78.0,,,HRV,HRV_0161,2022-11-30 18:38:16
,wl-rdm,195,722185,0.0-8.78-0.78,1.0,195.0,,,,,,,[],,,,,,87.9,1.0,i,1.0,True,1113.8999999985099,67.0,60.0,40.0,False,,311.93601357346057,[],"[621, 349]",ColorTask,115.0,79.0,,,HRV,HRV_0161,2022-11-30 18:38:16
,wl-rdm,196,725884,0.0-8.79-0.79,1.0,196.0,,,,,,,[],,,,,,53.2,1.0,i,1.0,True,2253.300000000745,136.0,60.0,40.0,False,,374.2792194118839,[],"[621, 349]",ColorTask,116.0,80.0,,,HRV,HRV_0161,2022-11-30 18:38:16
,wl-rdm,197,729468,0.0-8.80-0.80,1.0,197.0,,,,,,,[],,,,,,62.5,0.0,i,1.0,False,2201.9000000003725,133.0,60.0,40.0,False,,297.4611897789274,[],"[621, 349]",ColorTask,115.0,81.0,,,HRV,HRV_0161,2022-11-30 18:38:16
,wl-rdm,198,732184,0.0-8.81-0.81,1.0,198.0,,,,,,,[],,,,,,73.6,0.0,u,0.0,True,1384.5,84.0,60.0,40.0,False,,244.82219636327667,[],"[621, 349]",ColorTask,116.0,82.0,,,HRV,HRV_0161,2022-11-30 18:38:16
,wl-rdm,199,735317,0.0-8.82-0.82,1.0,199.0,,,,,,,[],,,,,,53.2,0.0,i,1.0,False,1781.300000000745,107.0,60.0,40.0,False,,291.9867978065214,[],"[621, 349]",ColorTask,115.0,83.0,,,HRV,HRV_0161,2022-11-30 18:38:16
,wl-rdm,200,738217,0.0-8.83-0.83,1.0,200.0,,,,,,,[],,,,,,87.9,0.0,u,0.0,True,1568.0999999996275,95.0,60.0,40.0,False,,246.92186954065397,[],"[621, 349]",ColorTask,116.0,84.0,,,HRV,HRV_0161,2022-11-30 18:38:16
,wl-rdm,201,741050,0.0-8.84-0.84,1.0,201.0,,,,,,,[],,,,,,87.9,0.0,u,0.0,True,1537.699999999255,93.0,60.0,40.0,False,,209.78931704878315,[],"[621, 349]",ColorTask,117.0,85.0,,,HRV,HRV_0161,2022-11-30 18:38:16
,wl-rdm,202,743717,0.0-8.85-0.85,1.0,202.0,,,,,,,[],,,,,,53.2,1.0,u,0.0,False,1334.699999999255,81.0,60.0,40.0,False,,236.27818032881282,[],"[621, 349]",ColorTask,116.0,86.0,,,HRV,HRV_0161,2022-11-30 18:38:16
,wl-rdm,203,746583,0.0-8.86-0.86,1.0,203.0,,,,,,,[],,,,,,50.0,1.0,i,1.0,True,1554.4999999981374,94.0,60.0,40.0,False,,229.14073493086124,[],"[621, 349]",ColorTask,117.0,87.0,,,HRV,HRV_0161,2022-11-30 18:38:16
,wl-rdm,204,749733,0.0-8.87-0.87,1.0,204.0,,,,,,,[],,,,,,73.6,0.0,u,0.0,True,1802.300000000745,109.0,60.0,40.0,False,,251.01823298438035,[],"[621, 349]",ColorTask,118.0,88.0,,,HRV,HRV_0161,2022-11-30 18:38:16
,wl-rdm,205,753499,0.0-8.88-0.88,1.0,205.0,,,,,,,[],,,,,,56.4,0.0,i,1.0,False,2475.2999999988824,149.0,60.0,40.0,False,,209.83142012730298,[],"[621, 349]",ColorTask,117.0,89.0,,,HRV,HRV_0161,2022-11-30 18:38:16
,wl-rdm,206,755883,0.0-8.89-0.89,1.0,206.0,,,,,,,[],,,,,,87.9,1.0,i,1.0,True,1088.699999999255,66.0,60.0,40.0,False,,204.61827630009495,[],"[621, 349]",ColorTask,118.0,90.0,,,HRV,HRV_0161,2022-11-30 18:38:16
,wl-rdm,207,758399,0.0-8.90-0.90,1.0,207.0,,,,,,,[],,,,,,87.9,0.0,u,0.0,True,1191.2999999988824,72.0,60.0,40.0,False,,239.1327029417173,[],"[621, 349]",ColorTask,119.0,91.0,,,HRV,HRV_0161,2022-11-30 18:38:16
,wl-rdm,208,761849,0.0-8.91-0.91,1.0,208.0,,,,,,,[],,,,,,50.0,0.0,i,1.0,False,1997.0,120.0,60.0,40.0,False,,396.47415444414366,[],"[621, 349]",ColorTask,118.0,92.0,,,HRV,HRV_0161,2022-11-30 18:38:16
,wl-rdm,209,765332,0.0-8.92-0.92,1.0,209.0,,,,,,,[],,,,,,50.0,0.0,u,0.0,True,2058.300000000745,124.0,60.0,40.0,False,,343.88135147109597,[],"[621, 349]",ColorTask,119.0,93.0,,,HRV,HRV_0161,2022-11-30 18:38:16
,wl-rdm,210,768532,0.0-8.93-0.93,1.0,210.0,,,,,,,[],,,,,,73.6,1.0,i,1.0,True,1902.0999999996275,115.0,60.0,40.0,False,,213.65239117877277,[],"[621, 349]",ColorTask,120.0,94.0,,,HRV,HRV_0161,2022-11-30 18:38:16
,wl-rdm,211,771732,0.0-8.94-0.94,1.0,211.0,,,,,,,[],,,,,,53.2,0.0,i,1.0,False,1742.699999999255,105.0,60.0,40.0,False,,382.5346097056605,[],"[621, 349]",ColorTask,119.0,95.0,,,HRV,HRV_0161,2022-11-30 18:38:16
,wl-rdm,212,774881,0.0-8.95-0.95,1.0,212.0,,,,,,,[],,,,,,50.0,0.0,i,1.0,False,1812.9000000003725,109.0,60.0,40.0,False,,257.8848660648968,[],"[621, 349]",ColorTask,118.0,96.0,,,HRV,HRV_0161,2022-11-30 18:38:16
,wl-rdm,213,777764,0.0-8.96-0.96,1.0,213.0,,,,,,,[],,,,,,53.2,0.0,u,0.0,True,1562.9000000003725,94.0,60.0,40.0,False,,264.03394814712794,[],"[621, 349]",ColorTask,119.0,97.0,,,HRV,HRV_0161,2022-11-30 18:38:16
,wl-rdm,214,780381,0.0-8.97-0.97,1.0,214.0,,,,,,,[],,,,,,73.6,1.0,i,1.0,True,1239.2000000011176,75.0,60.0,40.0,False,,290.77060463297806,[],"[621, 349]",ColorTask,120.0,98.0,,,HRV,HRV_0161,2022-11-30 18:38:16
,wl-rdm,215,783614,0.0-8.98-0.98,1.0,215.0,,,,,,,[],,,,,,62.5,0.0,i,1.0,False,1816.6000000014901,109.0,60.0,40.0,False,,333.70675402912997,[],"[621, 349]",ColorTask,119.0,99.0,,,HRV,HRV_0161,2022-11-30 18:38:16
,wl-rdm,216,785972,0.0-8.99-0.99,1.0,216.0,,,,,,,[],,,,,,87.9,1.0,i,1.0,True,955.5000000018626,58.0,60.0,40.0,False,,305.26148452063904,[],"[621, 349]",ColorTask,120.0,100.0,,,HRV,HRV_0161,2022-11-30 18:38:16
,wl-rdm,217,788197,0.0-8.100-0.100,1.0,217.0,,,,,,,[],,,,,,87.9,0.0,u,0.0,True,927.8999999985099,56.0,60.0,40.0,False,,249.91879849086138,[],"[621, 349]",ColorTask,121.0,101.0,,,HRV,HRV_0161,2022-11-30 18:38:16
,wl-rdm,218,790947,0.0-8.101-0.101,1.0,218.0,,,,,,,[],,,,,,73.6,0.0,u,0.0,True,1384.2000000011176,84.0,60.0,40.0,False,,281.7325218976792,[],"[621, 349]",ColorTask,122.0,102.0,,,HRV,HRV_0161,2022-11-30 18:38:16
,wl-rdm,219,793896,0.0-8.102-0.102,1.0,219.0,,,,,,,[],,,,,,56.4,1.0,u,0.0,False,1617.300000000745,98.0,60.0,40.0,False,,244.90022103262444,[],"[621, 349]",ColorTask,121.0,103.0,,,HRV,HRV_0161,2022-11-30 18:38:16
,wl-rdm,220,796813,0.0-8.103-0.103,1.0,220.0,,,,,,,[],,,,,,62.5,0.0,i,1.0,False,1633.2999999988824,98.0,60.0,40.0,False,,214.40750664731843,[],"[621, 349]",ColorTask,120.0,104.0,,,HRV,HRV_0161,2022-11-30 18:38:16
,wl-rdm,221,799580,0.0-8.104-0.104,1.0,221.0,,,,,,,[],,,,,,50.0,0.0,i,1.0,False,1461.300000000745,88.0,60.0,40.0,False,,222.34007211435178,[],"[621, 349]",ColorTask,119.0,105.0,,,HRV,HRV_0161,2022-11-30 18:38:16
,wl-rdm,222,801779,0.0-8.105-0.105,1.0,222.0,,,,,,,[],,,,,,87.9,1.0,i,1.0,True,855.4000000003725,52.0,60.0,40.0,False,,257.5589372285393,[],"[621, 349]",ColorTask,120.0,106.0,,,HRV,HRV_0161,2022-11-30 18:38:16
,wl-rdm,223,804646,0.0-8.106-0.106,1.0,223.0,,,,,,,[],,,,,,73.6,1.0,i,1.0,True,1595.9000000003725,96.0,60.0,40.0,False,,202.79082204656189,[],"[621, 349]",ColorTask,121.0,107.0,,,HRV,HRV_0161,2022-11-30 18:38:16
,wl-rdm,224,807745,0.0-8.107-0.107,1.0,224.0,,,,,,,[],,,,,,62.5,1.0,i,1.0,True,1634.5,99.0,60.0,40.0,False,,372.58652772136634,[],"[621, 349]",ColorTask,122.0,108.0,,,HRV,HRV_0161,2022-11-30 18:38:16
,wl-rdm,225,810979,0.0-8.108-0.108,1.0,225.0,,,,,,,[],,,,,,56.4,1.0,u,0.0,False,1877.0999999996275,113.0,60.0,40.0,False,,275.4839860196546,[],"[621, 349]",ColorTask,121.0,109.0,,,HRV,HRV_0161,2022-11-30 18:38:16
,wl-html-button-response,226,816540,0.0-9.0-0.0,,,,,,,,,,5556.700000001118,,0,,,,,,,,,,,,,,,,,,,,<h3>End of this session. Thank you!</h3><br>,['Close window'],HRV,HRV_0161,2022-11-30 18:38:16
