trialN,stimuli,question,trialStartTime,trialStartTime_UNIX,stimulus1,rt,receivedResponse,rating,trialEndTime,trialDuration,stimulus1Loaded,exp,subjectId,date
0,"[{'imgObject': {}, 'id': 'roastedpotatoes', 'src': '/static/foodstim60/roastedpotatoes.jpg', 'key': 'NaN', 'origWidth': 409, 'origHeight': 410, 'width': 409, 'height': 410, 'widthPercent': 0.8, 'rescaleHeight': True, 'trialN': 0, 'loaded': True, 'loadedTime': 2257, 'positionName': 'CENTER', 'positionCoords': [416.5, 144]}]",Rate how much you want to eat this food from 0 (least) to 10 (most).,2522.0,1669832085902,roastedpotatoes,3082.60000000149,True,8.14,5604.60000000149,3082.60000000149,True,HRV,HRV_0161,2022-11-30 18:17:19
1,"[{'imgObject': {}, 'id': 'blackbeanswithrice', 'src': '/static/foodstim60/blackbeanswithrice.jpg', 'key': 'NaN', 'origWidth': 410, 'origHeight': 410, 'width': 410, 'height': 410, 'widthPercent': 0.8, 'rescaleHeight': True, 'trialN': 1, 'loaded': True, 'loadedTime': 2259.5, 'positionName': 'CENTER', 'positionCoords': [416, 144]}]",Rate how much you want to eat this food from 0 (least) to 10 (most).,5607.60000000149,1669832088987,blackbeanswithrice,2679.199999999255,True,0.18,8286.800000000745,2679.199999999255,True,HRV,HRV_0161,2022-11-30 18:17:19
2,"[{'imgObject': {}, 'id': 'baked potato', 'src': '/static/foodstim60/baked potato.jpg', 'key': 'NaN', 'origWidth': 409, 'origHeight': 410, 'width': 409, 'height': 410, 'widthPercent': 0.8, 'rescaleHeight': True, 'trialN': 2, 'loaded': True, 'loadedTime': 2263.60000000149, 'positionName': 'CENTER', 'positionCoords': [416.5, 144]}]",Rate how much you want to eat this food from 0 (least) to 10 (most).,8288.900000000373,1669832091669,baked potato,2389.9000000003725,True,7.54,10678.800000000745,2389.9000000003725,True,HRV,HRV_0161,2022-11-30 18:17:19
3,"[{'imgObject': {}, 'id': 'orange slices', 'src': '/static/foodstim60/orange slices.jpg', 'key': 'NaN', 'origWidth': 409, 'origHeight': 410, 'width': 409, 'height': 410, 'widthPercent': 0.8, 'rescaleHeight': True, 'trialN': 3, 'loaded': True, 'loadedTime': 2265.800000000745, 'positionName': 'CENTER', 'positionCoords': [416.5, 144]}]",Rate how much you want to eat this food from 0 (least) to 10 (most).,10680.400000000373,1669832094060,orange slices,1720.4000000003725,True,9.63,12400.800000000745,1720.4000000003725,True,HRV,HRV_0161,2022-11-30 18:17:19
4,"[{'imgObject': {}, 'id': 'cantaloupe', 'src': '/static/foodstim60/cantaloupe.jpg', 'key': 'NaN', 'origWidth': 409, 'origHeight': 409, 'width': 409, 'height': 409, 'widthPercent': 0.8, 'rescaleHeight': True, 'trialN': 4, 'loaded': True, 'loadedTime': 2267.9000000003725, 'positionName': 'CENTER', 'positionCoords': [416.5, 144.5]}]",Rate how much you want to eat this food from 0 (least) to 10 (most).,12401.900000000373,1669832095782,cantaloupe,1621.0,True,9.68,14022.900000000373,1621.0,True,HRV,HRV_0161,2022-11-30 18:17:19
5,"[{'imgObject': {}, 'id': 'pear', 'src': '/static/foodstim60/pear.jpg', 'key': 'NaN', 'origWidth': 411, 'origHeight': 410, 'width': 411, 'height': 410, 'widthPercent': 0.8, 'rescaleHeight': True, 'trialN': 5, 'loaded': True, 'loadedTime': 2270, 'positionName': 'CENTER', 'positionCoords': [415.5, 144]}]",Rate how much you want to eat this food from 0 (least) to 10 (most).,14024.700000001118,1669832097404,pear,2890.0999999996275,True,9.790000000000001,16914.800000000745,2890.0999999996275,True,HRV,HRV_0161,2022-11-30 18:17:19
6,"[{'imgObject': {}, 'id': 'raspberries', 'src': '/static/foodstim60/raspberries.jpg', 'key': 'NaN', 'origWidth': 411, 'origHeight': 411, 'width': 411, 'height': 411, 'widthPercent': 0.8, 'rescaleHeight': True, 'trialN': 6, 'loaded': True, 'loadedTime': 2271.4000000003725, 'positionName': 'CENTER', 'positionCoords': [415.5, 143.5]}]",Rate how much you want to eat this food from 0 (least) to 10 (most).,16916.200000001118,1669832100296,raspberries,2186.5,True,9.86,19102.700000001118,2186.5,True,HRV,HRV_0161,2022-11-30 18:17:19
7,"[{'imgObject': {}, 'id': 'olives', 'src': '/static/foodstim60/olives.jpg', 'key': 'NaN', 'origWidth': 410, 'origHeight': 410, 'width': 410, 'height': 410, 'widthPercent': 0.8, 'rescaleHeight': True, 'trialN': 7, 'loaded': True, 'loadedTime': 2288.300000000745, 'positionName': 'CENTER', 'positionCoords': [416, 144]}]",Rate how much you want to eat this food from 0 (least) to 10 (most).,19103.900000000373,1669832102484,olives,2406.9000000003725,True,0.05,21510.800000000745,2406.9000000003725,True,HRV,HRV_0161,2022-11-30 18:17:19
8,"[{'imgObject': {}, 'id': 'hashbrowns', 'src': '/static/foodstim60/hashbrowns.jpg', 'key': 'NaN', 'origWidth': 411, 'origHeight': 410, 'width': 411, 'height': 410, 'widthPercent': 0.8, 'rescaleHeight': True, 'trialN': 8, 'loaded': True, 'loadedTime': 2290.4000000003725, 'positionName': 'CENTER', 'positionCoords': [415.5, 144]}]",Rate how much you want to eat this food from 0 (least) to 10 (most).,21512.400000000373,1669832104892,hashbrowns,2092.5,True,7.0600000000000005,23604.900000000373,2092.5,True,HRV,HRV_0161,2022-11-30 18:17:19
9,"[{'imgObject': {}, 'id': 'Tribe humus pita', 'src': '/static/foodstim60/Tribe humus pita.jpg', 'key': 'NaN', 'origWidth': 411, 'origHeight': 411, 'width': 411, 'height': 411, 'widthPercent': 0.8, 'rescaleHeight': True, 'trialN': 9, 'loaded': True, 'loadedTime': 2292.2000000011176, 'positionName': 'CENTER', 'positionCoords': [415.5, 143.5]}]",Rate how much you want to eat this food from 0 (least) to 10 (most).,23606.400000000373,1669832106986,Tribe humus pita,3056.5,True,0.13,26662.900000000373,3056.5,True,HRV,HRV_0161,2022-11-30 18:17:19
10,"[{'imgObject': {}, 'id': 'cheerios', 'src': '/static/foodstim60/cheerios.jpg', 'key': 'NaN', 'origWidth': 409, 'origHeight': 410, 'width': 409, 'height': 410, 'widthPercent': 0.8, 'rescaleHeight': True, 'trialN': 10, 'loaded': True, 'loadedTime': 2295.5, 'positionName': 'CENTER', 'positionCoords': [416.5, 144]}]",Rate how much you want to eat this food from 0 (least) to 10 (most).,26664.300000000745,1669832110044,cheerios,2792.9000000003725,True,2.06,29457.200000001118,2792.9000000003725,True,HRV,HRV_0161,2022-11-30 18:17:19
11,"[{'imgObject': {}, 'id': 'ice cream sundae 002', 'src': '/static/foodstim60/ice cream sundae 002.jpg', 'key': 'NaN', 'origWidth': 409, 'origHeight': 409, 'width': 409, 'height': 409, 'widthPercent': 0.8, 'rescaleHeight': True, 'trialN': 11, 'loaded': True, 'loadedTime': 2297.800000000745, 'positionName': 'CENTER', 'positionCoords': [416.5, 144.5]}]",Rate how much you want to eat this food from 0 (least) to 10 (most).,29459.5,1669832112839,ice cream sundae 002,2187.300000000745,True,3.96,31646.800000000745,2187.300000000745,True,HRV,HRV_0161,2022-11-30 18:17:19
12,"[{'imgObject': {}, 'id': 'seaweed', 'src': '/static/foodstim60/seaweed.jpg', 'key': 'NaN', 'origWidth': 410, 'origHeight': 410, 'width': 410, 'height': 410, 'widthPercent': 0.8, 'rescaleHeight': True, 'trialN': 12, 'loaded': True, 'loadedTime': 2302.5, 'positionName': 'CENTER', 'positionCoords': [416, 144]}]",Rate how much you want to eat this food from 0 (least) to 10 (most).,31648.800000000745,1669832115028,seaweed,2904.0,True,0.15,34552.800000000745,2904.0,True,HRV,HRV_0161,2022-11-30 18:17:19
13,"[{'imgObject': {}, 'id': 'apple slices', 'src': '/static/foodstim60/apple slices.jpg', 'key': 'NaN', 'origWidth': 409, 'origHeight': 410, 'width': 409, 'height': 410, 'widthPercent': 0.8, 'rescaleHeight': True, 'trialN': 13, 'loaded': True, 'loadedTime': 2306.60000000149, 'positionName': 'CENTER', 'positionCoords': [416.5, 144]}]",Rate how much you want to eat this food from 0 (least) to 10 (most).,34554.40000000037,1669832117934,apple slices,4572.5,True,9.89,39126.90000000037,4572.5,True,HRV,HRV_0161,2022-11-30 18:17:19
14,"[{'imgObject': {}, 'id': 'eggsalad', 'src': '/static/foodstim60/eggsalad.jpg', 'key': 'NaN', 'origWidth': 410, 'origHeight': 409, 'width': 410, 'height': 409, 'widthPercent': 0.8, 'rescaleHeight': True, 'trialN': 14, 'loaded': True, 'loadedTime': 2316.4000000003725, 'positionName': 'CENTER', 'positionCoords': [416, 144.5]}]",Rate how much you want to eat this food from 0 (least) to 10 (most).,39129.0,1669832122509,eggsalad,2919.7000000011176,True,8.120000000000001,42048.70000000112,2919.7000000011176,True,HRV,HRV_0161,2022-11-30 18:17:19
15,"[{'imgObject': {}, 'id': 'sushi w_condiments', 'src': '/static/foodstim60/sushi w_condiments.jpg', 'key': 'NaN', 'origWidth': 410, 'origHeight': 410, 'width': 410, 'height': 410, 'widthPercent': 0.8, 'rescaleHeight': True, 'trialN': 15, 'loaded': True, 'loadedTime': 2323.800000000745, 'positionName': 'CENTER', 'positionCoords': [416, 144]}]",Rate how much you want to eat this food from 0 (least) to 10 (most).,42050.60000000149,1669832125430,sushi w_condiments,2278.199999999255,True,0.1,44328.800000000745,2278.199999999255,True,HRV,HRV_0161,2022-11-30 18:17:19
16,"[{'imgObject': {}, 'id': 'popsicles', 'src': '/static/foodstim60/popsicles.jpg', 'key': 'NaN', 'origWidth': 410, 'origHeight': 410, 'width': 410, 'height': 410, 'widthPercent': 0.8, 'rescaleHeight': True, 'trialN': 16, 'loaded': True, 'loadedTime': 2327.10000000149, 'positionName': 'CENTER', 'positionCoords': [416, 144]}]",Rate how much you want to eat this food from 0 (least) to 10 (most).,44330.800000000745,1669832127710,popsicles,1901.800000000745,True,0.21,46232.60000000149,1901.800000000745,True,HRV,HRV_0161,2022-11-30 18:17:19
17,"[{'imgObject': {}, 'id': 'mango', 'src': '/static/foodstim60/mango.jpg', 'key': 'NaN', 'origWidth': 411, 'origHeight': 411, 'width': 411, 'height': 411, 'widthPercent': 0.8, 'rescaleHeight': True, 'trialN': 17, 'loaded': True, 'loadedTime': 2331.60000000149, 'positionName': 'CENTER', 'positionCoords': [415.5, 143.5]}]",Rate how much you want to eat this food from 0 (least) to 10 (most).,46234.10000000149,1669832129614,mango,2186.699999999255,True,7.99,48420.800000000745,2186.699999999255,True,HRV,HRV_0161,2022-11-30 18:17:19
18,"[{'imgObject': {}, 'id': 'avocado', 'src': '/static/foodstim60/avocado.jpg', 'key': 'NaN', 'origWidth': 409, 'origHeight': 409, 'width': 409, 'height': 409, 'widthPercent': 0.8, 'rescaleHeight': True, 'trialN': 18, 'loaded': True, 'loadedTime': 2338, 'positionName': 'CENTER', 'positionCoords': [416.5, 144.5]}]",Rate how much you want to eat this food from 0 (least) to 10 (most).,48422.5,1669832131802,avocado,2554.5,True,4.14,50977.0,2554.5,True,HRV,HRV_0161,2022-11-30 18:17:19
19,"[{'imgObject': {}, 'id': 'mashed potato', 'src': '/static/foodstim60/mashed potato.jpg', 'key': 'NaN', 'origWidth': 409, 'origHeight': 409, 'width': 409, 'height': 409, 'widthPercent': 0.8, 'rescaleHeight': True, 'trialN': 19, 'loaded': True, 'loadedTime': 2340.60000000149, 'positionName': 'CENTER', 'positionCoords': [416.5, 144.5]}]",Rate how much you want to eat this food from 0 (least) to 10 (most).,50978.800000000745,1669832134358,mashed potato,1998.300000000745,True,1.6,52977.10000000149,1998.300000000745,True,HRV,HRV_0161,2022-11-30 18:17:19
20,"[{'imgObject': {}, 'id': 'luckycharms', 'src': '/static/foodstim60/luckycharms.jpg', 'key': 'NaN', 'origWidth': 410, 'origHeight': 409, 'width': 410, 'height': 409, 'widthPercent': 0.8, 'rescaleHeight': True, 'trialN': 20, 'loaded': True, 'loadedTime': 2343.2000000011176, 'positionName': 'CENTER', 'positionCoords': [416, 144.5]}]",Rate how much you want to eat this food from 0 (least) to 10 (most).,52978.60000000149,1669832136358,luckycharms,2462.0999999996275,True,0.18,55440.70000000112,2462.0999999996275,True,HRV,HRV_0161,2022-11-30 18:17:19
21,"[{'imgObject': {}, 'id': 'burger', 'src': '/static/foodstim60/burger.jpg', 'key': 'NaN', 'origWidth': 409, 'origHeight': 409, 'width': 409, 'height': 409, 'widthPercent': 0.8, 'rescaleHeight': True, 'trialN': 21, 'loaded': True, 'loadedTime': 2352.300000000745, 'positionName': 'CENTER', 'positionCoords': [416.5, 144.5]}]",Rate how much you want to eat this food from 0 (least) to 10 (most).,55442.10000000149,1669832138822,burger,3817.0,True,8.44,59259.10000000149,3817.0,True,HRV,HRV_0161,2022-11-30 18:17:19
22,"[{'imgObject': {}, 'id': 'yogurt no spoon', 'src': '/static/foodstim60/yogurt no spoon.jpg', 'key': 'NaN', 'origWidth': 411, 'origHeight': 410, 'width': 411, 'height': 410, 'widthPercent': 0.8, 'rescaleHeight': True, 'trialN': 22, 'loaded': True, 'loadedTime': 2356.800000000745, 'positionName': 'CENTER', 'positionCoords': [415.5, 144]}]",Rate how much you want to eat this food from 0 (least) to 10 (most).,59260.60000000149,1669832142640,yogurt no spoon,1650.199999999255,True,8.84,60910.800000000745,1650.199999999255,True,HRV,HRV_0161,2022-11-30 18:17:19
23,"[{'imgObject': {}, 'id': 'sweetpotato', 'src': '/static/foodstim60/sweetpotato.jpg', 'key': 'NaN', 'origWidth': 410, 'origHeight': 410, 'width': 410, 'height': 410, 'widthPercent': 0.8, 'rescaleHeight': True, 'trialN': 23, 'loaded': True, 'loadedTime': 2354.7000000011176, 'positionName': 'CENTER', 'positionCoords': [416, 144]}]",Rate how much you want to eat this food from 0 (least) to 10 (most).,60912.20000000112,1669832144292,sweetpotato,2042.9000000003725,True,9.68,62955.10000000149,2042.9000000003725,True,HRV,HRV_0161,2022-11-30 18:17:19
24,"[{'imgObject': {}, 'id': 'cherries', 'src': '/static/foodstim60/cherries.jpg', 'key': 'NaN', 'origWidth': 410, 'origHeight': 411, 'width': 410, 'height': 411, 'widthPercent': 0.8, 'rescaleHeight': True, 'trialN': 24, 'loaded': True, 'loadedTime': 2362.60000000149, 'positionName': 'CENTER', 'positionCoords': [416, 143.5]}]",Rate how much you want to eat this food from 0 (least) to 10 (most).,62957.20000000112,1669832146337,cherries,2931.5999999996275,True,9.870000000000001,65888.80000000075,2931.5999999996275,True,HRV,HRV_0161,2022-11-30 18:17:19
25,"[{'imgObject': {}, 'id': 'Grapes', 'src': '/static/foodstim60/Grapes.jpg', 'key': 'NaN', 'origWidth': 411, 'origHeight': 411, 'width': 411, 'height': 411, 'widthPercent': 0.8, 'rescaleHeight': True, 'trialN': 25, 'loaded': True, 'loadedTime': 2370.60000000149, 'positionName': 'CENTER', 'positionCoords': [415.5, 143.5]}]",Rate how much you want to eat this food from 0 (least) to 10 (most).,65890.30000000075,1669832149270,Grapes,1898.300000000745,True,8.97,67788.60000000149,1898.300000000745,True,HRV,HRV_0161,2022-11-30 18:17:19
26,"[{'imgObject': {}, 'id': 'cocktailshrimp', 'src': '/static/foodstim60/cocktailshrimp.jpg', 'key': 'NaN', 'origWidth': 410, 'origHeight': 410, 'width': 410, 'height': 410, 'widthPercent': 0.8, 'rescaleHeight': True, 'trialN': 26, 'loaded': True, 'loadedTime': 2373.60000000149, 'positionName': 'CENTER', 'positionCoords': [416, 144]}]",Rate how much you want to eat this food from 0 (least) to 10 (most).,67790.0,1669832151169,cocktailshrimp,3110.800000000745,True,9.86,70900.80000000075,3110.800000000745,True,HRV,HRV_0161,2022-11-30 18:17:19
27,"[{'imgObject': {}, 'id': 'shreddedwheatwithmilk', 'src': '/static/foodstim60/shreddedwheatwithmilk.jpg', 'key': 'NaN', 'origWidth': 410, 'origHeight': 410, 'width': 410, 'height': 410, 'widthPercent': 0.8, 'rescaleHeight': True, 'trialN': 27, 'loaded': True, 'loadedTime': 2375.9000000003725, 'positionName': 'CENTER', 'positionCoords': [416, 144]}]",Rate how much you want to eat this food from 0 (least) to 10 (most).,70902.30000000075,1669832154282,shreddedwheatwithmilk,2521.0,True,1.47,73423.30000000075,2521.0,True,HRV,HRV_0161,2022-11-30 18:17:19
28,"[{'imgObject': {}, 'id': 'raisin bran w milk', 'src': '/static/foodstim60/raisin bran w milk.jpg', 'key': 'NaN', 'origWidth': 411, 'origHeight': 411, 'width': 411, 'height': 411, 'widthPercent': 0.8, 'rescaleHeight': True, 'trialN': 28, 'loaded': True, 'loadedTime': 2384.5, 'positionName': 'CENTER', 'positionCoords': [415.5, 143.5]}]",Rate how much you want to eat this food from 0 (least) to 10 (most).,73424.70000000112,1669832156804,raisin bran w milk,2092.4000000003725,True,5.32,75517.10000000149,2092.4000000003725,True,HRV,HRV_0161,2022-11-30 18:17:19
29,"[{'imgObject': {}, 'id': 'tacos', 'src': '/static/foodstim60/tacos.jpg', 'key': 'NaN', 'origWidth': 411, 'origHeight': 411, 'width': 411, 'height': 411, 'widthPercent': 0.8, 'rescaleHeight': True, 'trialN': 29, 'loaded': True, 'loadedTime': 2387.2000000011176, 'positionName': 'CENTER', 'positionCoords': [415.5, 143.5]}]",Rate how much you want to eat this food from 0 (least) to 10 (most).,75519.20000000112,1669832158899,tacos,1952.0999999996275,True,9.42,77471.30000000075,1952.0999999996275,True,HRV,HRV_0161,2022-11-30 18:17:19
30,"[{'imgObject': {}, 'id': 'turkey sandwich', 'src': '/static/foodstim60/turkey sandwich.jpg', 'key': 'NaN', 'origWidth': 409, 'origHeight': 409, 'width': 409, 'height': 409, 'widthPercent': 0.8, 'rescaleHeight': True, 'trialN': 30, 'loaded': True, 'loadedTime': 2391, 'positionName': 'CENTER', 'positionCoords': [416.5, 144.5]}]",Rate how much you want to eat this food from 0 (least) to 10 (most).,77472.90000000037,1669832160852,turkey sandwich,2854.0999999996275,True,9.28,80327.0,2854.0999999996275,True,HRV,HRV_0161,2022-11-30 18:17:19
31,"[{'imgObject': {}, 'id': 'edamame', 'src': '/static/foodstim60/edamame.jpg', 'key': 'NaN', 'origWidth': 409, 'origHeight': 410, 'width': 409, 'height': 410, 'widthPercent': 0.8, 'rescaleHeight': True, 'trialN': 31, 'loaded': True, 'loadedTime': 2393.9000000003725, 'positionName': 'CENTER', 'positionCoords': [416.5, 144]}]",Rate how much you want to eat this food from 0 (least) to 10 (most).,80328.70000000112,1669832163708,edamame,2884.0,True,7.0200000000000005,83212.70000000112,2884.0,True,HRV,HRV_0161,2022-11-30 18:17:19
32,"[{'imgObject': {}, 'id': 'omelette', 'src': '/static/foodstim60/omelette.jpg', 'key': 'NaN', 'origWidth': 410, 'origHeight': 409, 'width': 410, 'height': 409, 'widthPercent': 0.8, 'rescaleHeight': True, 'trialN': 32, 'loaded': True, 'loadedTime': 2396.4000000003725, 'positionName': 'CENTER', 'positionCoords': [416, 144.5]}]",Rate how much you want to eat this food from 0 (least) to 10 (most).,83214.30000000075,1669832166594,omelette,1766.5,True,6.01,84980.80000000075,1766.5,True,HRV,HRV_0161,2022-11-30 18:17:19
33,"[{'imgObject': {}, 'id': 'hotdog w must', 'src': '/static/foodstim60/hotdog w must.jpg', 'key': 'NaN', 'origWidth': 409, 'origHeight': 409, 'width': 409, 'height': 409, 'widthPercent': 0.8, 'rescaleHeight': True, 'trialN': 33, 'loaded': True, 'loadedTime': 2402.300000000745, 'positionName': 'CENTER', 'positionCoords': [416.5, 144.5]}]",Rate how much you want to eat this food from 0 (least) to 10 (most).,84982.5,1669832168362,hotdog w must,2144.4000000003725,True,5.04,87126.90000000037,2144.4000000003725,True,HRV,HRV_0161,2022-11-30 18:17:19
34,"[{'imgObject': {}, 'id': 'lox', 'src': '/static/foodstim60/lox.jpg', 'key': 'NaN', 'origWidth': 410, 'origHeight': 411, 'width': 410, 'height': 411, 'widthPercent': 0.8, 'rescaleHeight': True, 'trialN': 34, 'loaded': True, 'loadedTime': 2406.2000000011176, 'positionName': 'CENTER', 'positionCoords': [416, 143.5]}]",Rate how much you want to eat this food from 0 (least) to 10 (most).,87128.40000000037,1669832170508,lox,2422.9000000003725,True,0.2,89551.30000000075,2422.9000000003725,True,HRV,HRV_0161,2022-11-30 18:17:19
35,"[{'imgObject': {}, 'id': 'bagel plain', 'src': '/static/foodstim60/bagel plain.jpg', 'key': 'NaN', 'origWidth': 410, 'origHeight': 410, 'width': 410, 'height': 410, 'widthPercent': 0.8, 'rescaleHeight': True, 'trialN': 35, 'loaded': True, 'loadedTime': 2419.60000000149, 'positionName': 'CENTER', 'positionCoords': [416, 144]}]",Rate how much you want to eat this food from 0 (least) to 10 (most).,89553.0,1669832172932,bagel plain,2232.300000000745,True,4.17,91785.30000000075,2232.300000000745,True,HRV,HRV_0161,2022-11-30 18:17:19
36,"[{'imgObject': {}, 'id': 'turkeysandwich', 'src': '/static/foodstim60/turkeysandwich.jpg', 'key': 'NaN', 'origWidth': 409, 'origHeight': 409, 'width': 409, 'height': 409, 'widthPercent': 0.8, 'rescaleHeight': True, 'trialN': 36, 'loaded': True, 'loadedTime': 2422, 'positionName': 'CENTER', 'positionCoords': [416.5, 144.5]}]",Rate how much you want to eat this food from 0 (least) to 10 (most).,91787.30000000075,1669832175167,turkeysandwich,2324.0999999996275,True,9.66,94111.40000000037,2324.0999999996275,True,HRV,HRV_0161,2022-11-30 18:17:19
37,"[{'imgObject': {}, 'id': 'fried eggs', 'src': '/static/foodstim60/fried eggs.jpg', 'key': 'NaN', 'origWidth': 410, 'origHeight': 410, 'width': 410, 'height': 410, 'widthPercent': 0.8, 'rescaleHeight': True, 'trialN': 37, 'loaded': True, 'loadedTime': 2425.60000000149, 'positionName': 'CENTER', 'positionCoords': [416, 144]}]",Rate how much you want to eat this food from 0 (least) to 10 (most).,94113.10000000149,1669832177493,fried eggs,1995.7999999988824,True,2.8000000000000003,96108.90000000037,1995.7999999988824,True,HRV,HRV_0161,2022-11-30 18:17:19
38,"[{'imgObject': {}, 'id': 'fruitsalad', 'src': '/static/foodstim60/fruitsalad.jpg', 'key': 'NaN', 'origWidth': 410, 'origHeight': 410, 'width': 410, 'height': 410, 'widthPercent': 0.8, 'rescaleHeight': True, 'trialN': 38, 'loaded': True, 'loadedTime': 2428.9000000003725, 'positionName': 'CENTER', 'positionCoords': [416, 144]}]",Rate how much you want to eat this food from 0 (least) to 10 (most).,96110.30000000075,1669832179490,fruitsalad,2702.5999999996275,True,9.81,98812.90000000037,2702.5999999996275,True,HRV,HRV_0161,2022-11-30 18:17:19
39,"[{'imgObject': {}, 'id': 'froot loops w milk', 'src': '/static/foodstim60/froot loops w milk.jpg', 'key': 'NaN', 'origWidth': 410, 'origHeight': 410, 'width': 410, 'height': 410, 'widthPercent': 0.8, 'rescaleHeight': True, 'trialN': 39, 'loaded': True, 'loadedTime': 2431.60000000149, 'positionName': 'CENTER', 'positionCoords': [416, 144]}]",Rate how much you want to eat this food from 0 (least) to 10 (most).,98814.10000000149,1669832182193,froot loops w milk,2801.0999999996275,True,0.15,101615.20000000112,2801.0999999996275,True,HRV,HRV_0161,2022-11-30 18:17:19
40,"[{'imgObject': {}, 'id': 'eggs', 'src': '/static/foodstim60/eggs.jpg', 'key': 'NaN', 'origWidth': 409, 'origHeight': 409, 'width': 409, 'height': 409, 'widthPercent': 0.8, 'rescaleHeight': True, 'trialN': 40, 'loaded': True, 'loadedTime': 2433.300000000745, 'positionName': 'CENTER', 'positionCoords': [416.5, 144.5]}]",Rate how much you want to eat this food from 0 (least) to 10 (most).,101616.5,1669832184996,eggs,2040.4000000003725,True,8.78,103656.90000000037,2040.4000000003725,True,HRV,HRV_0161,2022-11-30 18:17:19
41,"[{'imgObject': {}, 'id': 'blueberries', 'src': '/static/foodstim60/blueberries.jpg', 'key': 'NaN', 'origWidth': 411, 'origHeight': 411, 'width': 411, 'height': 411, 'widthPercent': 0.8, 'rescaleHeight': True, 'trialN': 41, 'loaded': True, 'loadedTime': 2435.2000000011176, 'positionName': 'CENTER', 'positionCoords': [415.5, 143.5]}]",Rate how much you want to eat this food from 0 (least) to 10 (most).,103658.5,1669832187038,blueberries,1666.5,True,9.86,105325.0,1666.5,True,HRV,HRV_0161,2022-11-30 18:17:19
42,"[{'imgObject': {}, 'id': 'mac & cheese', 'src': '/static/foodstim60/mac & cheese.jpg', 'key': 'NaN', 'origWidth': 410, 'origHeight': 410, 'width': 410, 'height': 410, 'widthPercent': 0.8, 'rescaleHeight': True, 'trialN': 42, 'loaded': True, 'loadedTime': 2452.2000000011176, 'positionName': 'CENTER', 'positionCoords': [416, 144]}]",Rate how much you want to eat this food from 0 (least) to 10 (most).,105327.0,1669832188707,mac & cheese,1741.7000000011176,True,7.01,107068.70000000112,1741.7000000011176,True,HRV,HRV_0161,2022-11-30 18:17:19
43,"[{'imgObject': {}, 'id': 'banana', 'src': '/static/foodstim60/banana.jpg', 'key': 'NaN', 'origWidth': 410, 'origHeight': 410, 'width': 410, 'height': 410, 'widthPercent': 0.8, 'rescaleHeight': True, 'trialN': 43, 'loaded': True, 'loadedTime': 2454.60000000149, 'positionName': 'CENTER', 'positionCoords': [416, 144]}]",Rate how much you want to eat this food from 0 (least) to 10 (most).,107070.0,1669832190450,banana,2930.800000000745,True,9.86,110000.80000000075,2930.800000000745,True,HRV,HRV_0161,2022-11-30 18:17:19
44,"[{'imgObject': {}, 'id': 'kiwi', 'src': '/static/foodstim60/kiwi.jpg', 'key': 'NaN', 'origWidth': 410, 'origHeight': 410, 'width': 410, 'height': 410, 'widthPercent': 0.8, 'rescaleHeight': True, 'trialN': 44, 'loaded': True, 'loadedTime': 2458.800000000745, 'positionName': 'CENTER', 'positionCoords': [416, 144]}]",Rate how much you want to eat this food from 0 (least) to 10 (most).,110002.20000000112,1669832193382,kiwi,2096.699999999255,True,9.86,112098.90000000037,2096.699999999255,True,HRV,HRV_0161,2022-11-30 18:17:19
45,"[{'imgObject': {}, 'id': 'chickenfingers', 'src': '/static/foodstim60/chickenfingers.jpg', 'key': 'NaN', 'origWidth': 410, 'origHeight': 410, 'width': 410, 'height': 410, 'widthPercent': 0.8, 'rescaleHeight': True, 'trialN': 45, 'loaded': True, 'loadedTime': 2462.2000000011176, 'positionName': 'CENTER', 'positionCoords': [416, 144]}]",Rate how much you want to eat this food from 0 (least) to 10 (most).,112100.5,1669832195480,chickenfingers,1836.6000000014901,True,8.28,113937.10000000149,1836.6000000014901,True,HRV,HRV_0161,2022-11-30 18:17:19
46,"[{'imgObject': {}, 'id': 'granola w milk', 'src': '/static/foodstim60/granola w milk.jpg', 'key': 'NaN', 'origWidth': 410, 'origHeight': 410, 'width': 410, 'height': 410, 'widthPercent': 0.8, 'rescaleHeight': True, 'trialN': 46, 'loaded': True, 'loadedTime': 2464, 'positionName': 'CENTER', 'positionCoords': [416, 144]}]",Rate how much you want to eat this food from 0 (least) to 10 (most).,113938.90000000037,1669832197319,granola w milk,2345.9000000003725,True,4.98,116284.80000000075,2345.9000000003725,True,HRV,HRV_0161,2022-11-30 18:17:19
47,"[{'imgObject': {}, 'id': 'corn cob', 'src': '/static/foodstim60/corn cob.jpg', 'key': 'NaN', 'origWidth': 411, 'origHeight': 411, 'width': 411, 'height': 411, 'widthPercent': 0.8, 'rescaleHeight': True, 'trialN': 47, 'loaded': True, 'loadedTime': 2466.10000000149, 'positionName': 'CENTER', 'positionCoords': [415.5, 143.5]}]",Rate how much you want to eat this food from 0 (least) to 10 (most).,116286.40000000037,1669832199666,corn cob,1702.4000000003725,True,7.8100000000000005,117988.80000000075,1702.4000000003725,True,HRV,HRV_0161,2022-11-30 18:17:19
48,"[{'imgObject': {}, 'id': 'rigatoni and sauce', 'src': '/static/foodstim60/rigatoni and sauce.jpg', 'key': 'NaN', 'origWidth': 410, 'origHeight': 411, 'width': 410, 'height': 411, 'widthPercent': 0.8, 'rescaleHeight': True, 'trialN': 48, 'loaded': True, 'loadedTime': 2470.2000000011176, 'positionName': 'CENTER', 'positionCoords': [416, 143.5]}]",Rate how much you want to eat this food from 0 (least) to 10 (most).,117990.40000000037,1669832201370,rigatoni and sauce,2008.4000000003725,True,1.74,119998.80000000075,2008.4000000003725,True,HRV,HRV_0161,2022-11-30 18:17:19
49,"[{'imgObject': {}, 'id': 'veggieswithdip', 'src': '/static/foodstim60/veggieswithdip.jpg', 'key': 'NaN', 'origWidth': 409, 'origHeight': 409, 'width': 409, 'height': 409, 'widthPercent': 0.8, 'rescaleHeight': True, 'trialN': 49, 'loaded': True, 'loadedTime': 2478.800000000745, 'positionName': 'CENTER', 'positionCoords': [416.5, 144.5]}]",Rate how much you want to eat this food from 0 (least) to 10 (most).,120000.60000000149,1669832203380,veggieswithdip,2216.699999999255,True,7.91,122217.30000000075,2216.699999999255,True,HRV,HRV_0161,2022-11-30 18:17:19
50,"[{'imgObject': {}, 'id': 'steak', 'src': '/static/foodstim60/steak.jpg', 'key': 'NaN', 'origWidth': 410, 'origHeight': 410, 'width': 410, 'height': 410, 'widthPercent': 0.8, 'rescaleHeight': True, 'trialN': 50, 'loaded': True, 'loadedTime': 2481.5, 'positionName': 'CENTER', 'positionCoords': [416, 144]}]",Rate how much you want to eat this food from 0 (least) to 10 (most).,122219.20000000112,1669832205599,steak,1769.699999999255,True,8.94,123988.90000000037,1769.699999999255,True,HRV,HRV_0161,2022-11-30 18:17:19
51,"[{'imgObject': {}, 'id': 'salad w chicken', 'src': '/static/foodstim60/salad w chicken.jpg', 'key': 'NaN', 'origWidth': 411, 'origHeight': 411, 'width': 411, 'height': 411, 'widthPercent': 0.8, 'rescaleHeight': True, 'trialN': 51, 'loaded': True, 'loadedTime': 2484.7000000011176, 'positionName': 'CENTER', 'positionCoords': [415.5, 143.5]}]",Rate how much you want to eat this food from 0 (least) to 10 (most).,123990.80000000075,1669832207370,salad w chicken,3354.300000000745,True,9.790000000000001,127345.10000000149,3354.300000000745,True,HRV,HRV_0161,2022-11-30 18:17:19
52,"[{'imgObject': {}, 'id': 'chicken nuggets2', 'src': '/static/foodstim60/chicken nuggets2.jpg', 'key': 'NaN', 'origWidth': 410, 'origHeight': 409, 'width': 410, 'height': 409, 'widthPercent': 0.8, 'rescaleHeight': True, 'trialN': 52, 'loaded': True, 'loadedTime': 2490.60000000149, 'positionName': 'CENTER', 'positionCoords': [416, 144.5]}]",Rate how much you want to eat this food from 0 (least) to 10 (most).,127346.5,1669832210726,chicken nuggets2,3532.300000000745,True,1.57,130878.80000000075,3532.300000000745,True,HRV,HRV_0161,2022-11-30 18:17:19
53,"[{'imgObject': {}, 'id': 'grilled chicken strips', 'src': '/static/foodstim60/grilled chicken strips.jpg', 'key': 'NaN', 'origWidth': 410, 'origHeight': 411, 'width': 410, 'height': 411, 'widthPercent': 0.8, 'rescaleHeight': True, 'trialN': 53, 'loaded': True, 'loadedTime': 2495.10000000149, 'positionName': 'CENTER', 'positionCoords': [416, 143.5]}]",Rate how much you want to eat this food from 0 (least) to 10 (most).,130880.30000000075,1669832214260,grilled chicken strips,2408.4000000003725,True,8.75,133288.70000000112,2408.4000000003725,True,HRV,HRV_0161,2022-11-30 18:17:19
54,"[{'imgObject': {}, 'id': 'burrito', 'src': '/static/foodstim60/burrito.jpg', 'key': 'NaN', 'origWidth': 410, 'origHeight': 410, 'width': 410, 'height': 410, 'widthPercent': 0.8, 'rescaleHeight': True, 'trialN': 54, 'loaded': True, 'loadedTime': 2500.60000000149, 'positionName': 'CENTER', 'positionCoords': [416, 144]}]",Rate how much you want to eat this food from 0 (least) to 10 (most).,133289.90000000037,1669832216670,burrito,3696.800000000745,True,0.15,136986.70000000112,3696.800000000745,True,HRV,HRV_0161,2022-11-30 18:17:19
55,"[{'imgObject': {}, 'id': 'rigatoni', 'src': '/static/foodstim60/rigatoni.jpg', 'key': 'NaN', 'origWidth': 411, 'origHeight': 411, 'width': 411, 'height': 411, 'widthPercent': 0.8, 'rescaleHeight': True, 'trialN': 55, 'loaded': True, 'loadedTime': 2503.2000000011176, 'positionName': 'CENTER', 'positionCoords': [415.5, 143.5]}]",Rate how much you want to eat this food from 0 (least) to 10 (most).,136988.0,1669832220368,rigatoni,1459.1000000014901,True,1.6,138447.1000000015,1459.1000000014901,True,HRV,HRV_0161,2022-11-30 18:17:19
56,"[{'imgObject': {}, 'id': 'cherry tomato', 'src': '/static/foodstim60/cherry tomato.jpg', 'key': 'NaN', 'origWidth': 410, 'origHeight': 410, 'width': 410, 'height': 410, 'widthPercent': 0.8, 'rescaleHeight': True, 'trialN': 56, 'loaded': True, 'loadedTime': 2511.60000000149, 'positionName': 'CENTER', 'positionCoords': [416, 144]}]",Rate how much you want to eat this food from 0 (least) to 10 (most).,138448.70000000112,1669832221828,cherry tomato,1770.0999999996275,True,7.54,140218.80000000075,1770.0999999996275,True,HRV,HRV_0161,2022-11-30 18:17:19
57,"[{'imgObject': {}, 'id': 'strawberries', 'src': '/static/foodstim60/strawberries.jpg', 'key': 'NaN', 'origWidth': 410, 'origHeight': 410, 'width': 410, 'height': 410, 'widthPercent': 0.8, 'rescaleHeight': True, 'trialN': 57, 'loaded': True, 'loadedTime': 2514, 'positionName': 'CENTER', 'positionCoords': [416, 144]}]",Rate how much you want to eat this food from 0 (least) to 10 (most).,140220.1000000015,1669832223600,strawberries,3580.699999999255,True,9.75,143800.80000000075,3580.699999999255,True,HRV,HRV_0161,2022-11-30 18:17:19
58,"[{'imgObject': {}, 'id': 'bagel and cc', 'src': '/static/foodstim60/bagel and cc.jpg', 'key': 'NaN', 'origWidth': 410, 'origHeight': 410, 'width': 410, 'height': 410, 'widthPercent': 0.8, 'rescaleHeight': True, 'trialN': 58, 'loaded': True, 'loadedTime': 2517.9000000003725, 'positionName': 'CENTER', 'positionCoords': [416, 144]}]",Rate how much you want to eat this food from 0 (least) to 10 (most).,143802.30000000075,1669832227182,bagel and cc,3223.0,True,4.58,147025.30000000075,3223.0,True,HRV,HRV_0161,2022-11-30 18:17:19
59,"[{'imgObject': {}, 'id': 'salmon', 'src': '/static/foodstim60/salmon.jpg', 'key': 'NaN', 'origWidth': 410, 'origHeight': 409, 'width': 410, 'height': 409, 'widthPercent': 0.8, 'rescaleHeight': True, 'trialN': 59, 'loaded': True, 'loadedTime': 2519.9000000003725, 'positionName': 'CENTER', 'positionCoords': [416, 144.5]}]",Rate how much you want to eat this food from 0 (least) to 10 (most).,147027.1000000015,1669832230407,salmon,2108.0999999996275,True,0.26,149135.20000000112,2108.0999999996275,True,HRV,HRV_0161,2022-11-30 18:17:19
