success,trial_type,trial_index,time_elapsed,internal_node_id,Block,TrialNumber,TrialTime,trialTimeDiff,FPS_avg,FPS_med,FPS_mode,TrialDur,winResizeTime,rt,block,button_pressed,MotCoh,MotDir,ColCoh,Color,ChoiceKey,Choice,Accuracy,RT,nFrames,FPS,PPD,missTrial,missTrialMsg,onsetDelay,fullScreenExitTime,canvCenter,TrialType,Score,BlockTrial,stimulus,button_labels,exp,subjectId,date
True,fullscreen,0,5348,0.0-0.0,0.0,1.0,,,,,,,,,,,,,,,,,,,,,,,,,,,,,,,,HRV,HRV_0163,2022-11-30 19:08:50
,wl-check-fps,1,10430,0.0-1.0,0.0,2.0,"[5666, 5681, 5698, 5719, 5732, 5751, 5766, 5781, 5798, 5814, 5830, 5848, 5865, 5881, 5897, 5915, 5935, 5950, 5965, 5980, 5998, 6016, 6033, 6048, 6064, 6080, 6099, 6117, 6132, 6152, 6198, 6215, 6232, 6247, 6267, 6281, 6298, 6315, 6330, 6348, 6367, 6380, 6401, 6416, 6430, 6447, 6465, 6482, 6499, 6514, 6530, 6548, 6565, 6584, 6598, 6618, 6658, 6678, 6682, 6697, 6715, 6730, 6748, 6764, 6780, 6800, 6815, 6833, 6848, 6865, 6880, 6897, 6915, 6931, 6948, 6964, 6981, 6998, 7017, 7031, 7050, 7064, 7082, 7099, 7116, 7131, 7149, 7165, 7182, 7198, 7215, 7236, 7248, 7266, 7281, 7299, 7314, 7331, 7348, 7365, 7381, 7399, 7414, 7431, 7450, 7464, 7483, 7499, 7515, 7530, 7548, 7565, 7580, 7598, 7614, 7630, 7648, 7664, 7680, 7701, 7715, 7732, 7749, 7764, 7782, 7798, 7816, 7830, 7848, 7865, 7880, 7901, 7917, 7930, 7949, 7964, 7981, 7999, 8017, 8032, 8051, 8067, 8080, 8097, 8117, 8134, 8149, 8166, 8182, 8199, 8215, 8231, 8248, 8265, 8280, 8298, 8315, 8331, 8351, 8365, 8383, 8399, 8415, 8430, 8448, 8465, 8480, 8499, 8515, 8531, 8549, 8568, 8580, 8599, 8615, 8633, 8648, 8666, 8681, 8699, 8714, 8732, 8748, 8765, 8780, 8798, 8817, 8832, 8849, 8865, 8881, 8898, 8915, 8931, 8948, 8965, 8982, 9001, 9015, 9033, 9049, 9066, 9080, 9099, 9116, 9131, 9148, 9165, 9182, 9198, 9214, 9231, 9249, 9265, 9283, 9299, 9314, 9331, 9349, 9365, 9382, 9399, 9414, 9436, 9448, 9466, 9481, 9501, 9515, 9532, 9549, 9565, 9582, 9598, 9615, 9633, 9652, 9665, 9685, 9698, 9717, 9731, 9750, 9764, 9782, 9799, 9814, 9832, 9849, 9865, 9885, 9906, 9915, 9934, 9979, 9985, 10003, 10016, 10033, 10050, 10064, 10082, 10099, 10113, 10132, 10149, 10164, 10183, 10197, 10214, 10231, 10247, 10264, 10281, 10297, 10315, 10334, 10349, 10365, 10381, 10398, 10414, 10431, 10449, 10469, 10481, 10498, 10514, 10531, 10550, 10564, 10586, 10597, 10616, 10632, 10648, 10664, 10682, 10699, 10713]","[10, 15, 17, 21, 13, 19, 15, 15, 17, 16, 16, 18, 17, 16, 16, 18, 20, 15, 15, 15, 18, 18, 17, 15, 16, 16, 19, 18, 15, 20, 46, 17, 17, 15, 20, 14, 17, 17, 15, 18, 19, 13, 21, 15, 14, 17, 18, 17, 17, 15, 16, 18, 17, 19, 14, 20, 40, 20, 4, 15, 18, 15, 18, 16, 16, 20, 15, 18, 15, 17, 15, 17, 18, 16, 17, 16, 17, 17, 19, 14, 19, 14, 18, 17, 17, 15, 18, 16, 17, 16, 17, 21, 12, 18, 15, 18, 15, 17, 17, 17, 16, 18, 15, 17, 19, 14, 19, 16, 16, 15, 18, 17, 15, 18, 16, 16, 18, 16, 16, 21, 14, 17, 17, 15, 18, 16, 18, 14, 18, 17, 15, 21, 16, 13, 19, 15, 17, 18, 18, 15, 19, 16, 13, 17, 20, 17, 15, 17, 16, 17, 16, 16, 17, 17, 15, 18, 17, 16, 20, 14, 18, 16, 16, 15, 18, 17, 15, 19, 16, 16, 18, 19, 12, 19, 16, 18, 15, 18, 15, 18, 15, 18, 16, 17, 15, 18, 19, 15, 17, 16, 16, 17, 17, 16, 17, 17, 17, 19, 14, 18, 16, 17, 14, 19, 17, 15, 17, 17, 17, 16, 16, 17, 18, 16, 18, 16, 15, 17, 18, 16, 17, 17, 15, 22, 12, 18, 15, 20, 14, 17, 17, 16, 17, 16, 17, 18, 19, 13, 20, 13, 19, 14, 19, 14, 18, 17, 15, 18, 17, 16, 20, 21, 9, 19, 45, 6, 18, 13, 17, 17, 14, 18, 17, 14, 19, 17, 15, 19, 14, 17, 17, 16, 17, 17, 16, 18, 19, 15, 16, 16, 17, 16, 17, 18, 20, 12, 17, 16, 17, 19, 14, 22, 11, 19, 16, 16, 16, 18, 17, 14]",59.0,61.0,59.0,5074.0,[],,,,,,,,,,,,,,,,,,,,,,,,,HRV,HRV_0163,2022-11-30 19:08:50
,wl-html-keyboard-response,2,23235,0.0-2.0-0.0,0.0,3.0,,,,,,,,10791.0,0.0,0,,,,,,,,,,,,,,,,,,,,,,HRV,HRV_0163,2022-11-30 19:08:50
,wl-rdm,3,48011,0.0-3.0-0.0,0.0,4.0,,,,,,,[],,,,0.0,0.0,87.9,0.0,u,0.0,True,3022.0,179.0,59.0,40.0,False,too_early too_early too_early too_early ,3000.0,[],"[683, 384]",ColorTask_Demo,,,,,HRV,HRV_0163,2022-11-30 19:08:50
,wl-rdm,4,54580,0.0-3.0-1.0,0.0,5.0,,,,,,,[],,,,0.0,0.0,87.9,1.0,i,1.0,True,2455.0,139.0,59.0,40.0,False,,2000.0,[],"[683, 384]",ColorTask_Demo,,,,,HRV,HRV_0163,2022-11-30 19:08:50
,wl-html-keyboard-response,5,65290,0.0-3.0-2.0,0.0,6.0,,,,,,,,8705.0,0.0,1,,,,,,,,,,,,,,,,,,,,,,HRV,HRV_0163,2022-11-30 19:08:50
,wl-html-keyboard-response,6,73843,0.0-4.0-0.0,0.0,7.0,,,,,,,,6542.0,0.0,0,,,,,,,,,,,,,,,,,,,,,,HRV,HRV_0163,2022-11-30 19:08:50
,wl-html-keyboard-response,7,87322,0.0-5.0-0.0,0.0,8.0,,,,,,,,11468.0,0.0,0,,,,,,,,,,,,,,,,,,,,,,HRV,HRV_0163,2022-11-30 19:08:50
,wl-rdm,8,91692,0.0-6.0-0.0,0.0,8.0,,,,,,,[],,,,,,53.2,1.0,i,,,3172.0,176.0,59.0,40.0,True,RT_timeout ,273.9251441270858,[],"[683, 384]",ColorTask,-1.0,1.0,,,HRV,HRV_0163,2022-11-30 19:08:50
,wl-rdm,9,95158,0.0-6.1-0.1,0.0,9.0,,,,,,,[],,,,,,50.0,1.0,u,0.0,False,2159.0,123.0,59.0,40.0,False,,217.12445673800318,[],"[683, 384]",ColorTask,-2.0,2.0,,,HRV,HRV_0163,2022-11-30 19:08:50
,wl-rdm,10,98661,0.0-6.2-0.2,0.0,10.0,,,,,,,[],,,,,,62.5,1.0,i,1.0,True,2109.0,122.0,59.0,40.0,False,,315.5662025763218,[],"[683, 384]",ColorTask,-1.0,3.0,,,HRV,HRV_0163,2022-11-30 19:08:50
,wl-rdm,11,102141,0.0-6.3-0.3,0.0,11.0,,,,,,,[],,,,,,53.2,1.0,i,1.0,True,2061.0,123.0,59.0,40.0,False,,347.60027292462075,[],"[683, 384]",ColorTask,0.0,4.0,,,HRV,HRV_0163,2022-11-30 19:08:50
,wl-rdm,12,106191,0.0-6.4-0.4,0.0,12.0,,,,,,,[],,,,,,53.2,1.0,i,1.0,True,2721.0,160.0,59.0,40.0,False,,258.96883007654003,[],"[683, 384]",ColorTask,1.0,5.0,,,HRV,HRV_0163,2022-11-30 19:08:50
,wl-rdm,13,110241,0.0-6.5-0.5,0.0,13.0,,,,,,,[],,,,,,53.2,1.0,i,1.0,True,2663.0,147.0,59.0,40.0,False,,313.9611475632585,[],"[683, 384]",ColorTask,2.0,6.0,,,HRV,HRV_0163,2022-11-30 19:08:50
,wl-rdm,14,113781,0.0-6.6-0.6,0.0,14.0,,,,,,,[],,,,,,50.0,1.0,i,1.0,True,2110.0,117.0,59.0,40.0,False,,352.54112437975965,[],"[683, 384]",ColorTask,3.0,7.0,,,HRV,HRV_0163,2022-11-30 19:08:50
,wl-rdm,15,117674,0.0-6.7-0.7,0.0,15.0,,,,,,,[],,,,,,50.0,0.0,i,1.0,False,2625.0,154.0,59.0,40.0,False,,201.4810925957835,[],"[683, 384]",ColorTask,2.0,8.0,,,HRV,HRV_0163,2022-11-30 19:08:50
,wl-rdm,16,121374,0.0-6.8-0.8,0.0,16.0,,,,,,,[],,,,,,56.4,0.0,u,0.0,True,2292.0,131.0,59.0,40.0,False,,324.3300398152275,[],"[683, 384]",ColorTask,3.0,9.0,,,HRV,HRV_0163,2022-11-30 19:08:50
,wl-rdm,17,124926,0.0-6.9-0.9,0.0,17.0,,,,,,,[],,,,,,62.5,0.0,u,0.0,True,2218.0,130.0,59.0,40.0,False,,220.51805264969005,[],"[683, 384]",ColorTask,4.0,10.0,,,HRV,HRV_0163,2022-11-30 19:08:50
,wl-rdm,18,128591,0.0-6.10-0.10,0.0,18.0,,,,,,,[],,,,,,87.9,0.0,u,0.0,True,2287.0,135.0,59.0,40.0,False,,298.72253608031724,[],"[683, 384]",ColorTask,5.0,11.0,,,HRV,HRV_0163,2022-11-30 19:08:50
,wl-rdm,19,132275,0.0-6.11-0.11,0.0,19.0,,,,,,,[],,,,,,87.9,0.0,u,0.0,True,2281.0,121.0,59.0,40.0,False,,317.65363293193354,[],"[683, 384]",ColorTask,6.0,12.0,,,HRV,HRV_0163,2022-11-30 19:08:50
,wl-rdm,20,135906,0.0-6.12-0.12,0.0,20.0,,,,,,,[],,,,,,62.5,0.0,u,0.0,True,2342.0,138.0,59.0,40.0,False,,202.47043896499028,[],"[683, 384]",ColorTask,7.0,13.0,,,HRV,HRV_0163,2022-11-30 19:08:50
,wl-rdm,21,139389,0.0-6.13-0.13,0.0,21.0,,,,,,,[],,,,,,73.6,1.0,i,1.0,True,2196.0,119.0,59.0,40.0,False,,211.7270754513453,[],"[683, 384]",ColorTask,8.0,14.0,,,HRV,HRV_0163,2022-11-30 19:08:50
,wl-rdm,22,143573,0.0-6.14-0.14,0.0,22.0,,,,,,,[],,,,,,56.4,1.0,i,1.0,True,2891.0,161.0,59.0,40.0,False,,214.96012047416903,[],"[683, 384]",ColorTask,9.0,15.0,,,HRV,HRV_0163,2022-11-30 19:08:50
,wl-rdm,23,147906,0.0-6.15-0.15,0.0,22.0,,,,,,,[],,,,,,56.4,1.0,u,,,3324.0,176.0,59.0,40.0,True,RT_timeout ,234.16690678838978,[],"[683, 384]",ColorTask,8.0,16.0,,,HRV,HRV_0163,2022-11-30 19:08:50
,wl-rdm,24,152088,0.0-6.16-0.16,0.0,23.0,,,,,,,[],,,,,,73.6,0.0,i,1.0,False,2740.0,156.0,59.0,40.0,False,,360.3041183834463,[],"[683, 384]",ColorTask,7.0,17.0,,,HRV,HRV_0163,2022-11-30 19:08:50
,wl-rdm,25,156338,0.0-6.17-0.17,0.0,24.0,,,,,,,[],,,,,,56.4,0.0,i,1.0,False,2964.0,173.0,59.0,40.0,False,,210.85870817315705,[],"[683, 384]",ColorTask,6.0,18.0,,,HRV,HRV_0163,2022-11-30 19:08:50
,wl-rdm,26,160655,0.0-6.18-0.18,0.0,24.0,,,,,,,[],,,,,,87.9,0.0,u,,,3071.0,168.0,59.0,40.0,True,RT_timeout ,228.1430573007945,[],"[683, 384]",ColorTask,5.0,19.0,,,HRV,HRV_0163,2022-11-30 19:08:50
,wl-rdm,27,163638,0.0-6.19-0.19,0.0,25.0,,,,,,,[],,,,,,50.0,0.0,i,1.0,False,1642.0,95.0,59.0,40.0,False,,258.27280198408437,[],"[683, 384]",ColorTask,4.0,20.0,,,HRV,HRV_0163,2022-11-30 19:08:50
,wl-rdm,28,166689,0.0-6.20-0.20,0.0,26.0,,,,,,,[],,,,,,56.4,1.0,i,1.0,True,1722.0,102.0,59.0,40.0,False,,251.05714393407814,[],"[683, 384]",ColorTask,5.0,21.0,,,HRV,HRV_0163,2022-11-30 19:08:50
,wl-rdm,29,169438,0.0-6.21-0.21,0.0,27.0,,,,,,,[],,,,,,53.2,0.0,i,1.0,False,1311.0,76.0,59.0,40.0,False,,359.5024837098151,[],"[683, 384]",ColorTask,4.0,22.0,,,HRV,HRV_0163,2022-11-30 19:08:50
,wl-rdm,30,173171,0.0-6.22-0.22,0.0,28.0,,,,,,,[],,,,,,62.5,0.0,i,1.0,False,2343.0,138.0,59.0,40.0,False,,309.9148107369263,[],"[683, 384]",ColorTask,3.0,23.0,,,HRV,HRV_0163,2022-11-30 19:08:50
,wl-rdm,31,176438,0.0-6.23-0.23,0.0,29.0,,,,,,,[],,,,,,73.6,0.0,u,0.0,True,1782.0,105.0,59.0,40.0,False,,396.2716242426863,[],"[683, 384]",ColorTask,4.0,24.0,,,HRV,HRV_0163,2022-11-30 19:08:50
,wl-rdm,32,179926,0.0-6.24-0.24,0.0,30.0,,,,,,,[],,,,,,62.5,1.0,u,0.0,False,2116.0,117.0,59.0,40.0,False,,307.568514474133,[],"[683, 384]",ColorTask,3.0,25.0,,,HRV,HRV_0163,2022-11-30 19:08:50
,wl-rdm,33,183738,0.0-6.25-0.25,0.0,31.0,,,,,,,[],,,,,,62.5,1.0,i,1.0,True,2381.0,128.0,59.0,40.0,False,,373.71901861588776,[],"[683, 384]",ColorTask,4.0,26.0,,,HRV,HRV_0163,2022-11-30 19:08:50
,wl-rdm,34,187053,0.0-6.26-0.26,0.0,32.0,,,,,,,[],,,,,,87.9,1.0,i,1.0,True,1891.0,112.0,59.0,40.0,False,,346.941179461665,[],"[683, 384]",ColorTask,5.0,27.0,,,HRV,HRV_0163,2022-11-30 19:08:50
,wl-rdm,35,189974,0.0-6.27-0.27,0.0,33.0,,,,,,,[],,,,,,73.6,1.0,i,1.0,True,1435.0,83.0,59.0,40.0,False,,397.924441537937,[],"[683, 384]",ColorTask,6.0,28.0,,,HRV,HRV_0163,2022-11-30 19:08:50
,wl-rdm,36,192721,0.0-6.28-0.28,0.0,34.0,,,,,,,[],,,,,,50.0,0.0,u,0.0,True,1373.0,82.0,59.0,40.0,False,,292.94669620962566,[],"[683, 384]",ColorTask,7.0,29.0,,,HRV,HRV_0163,2022-11-30 19:08:50
,wl-rdm,37,195622,0.0-6.29-0.29,0.0,35.0,,,,,,,[],,,,,,87.9,1.0,u,0.0,False,1486.0,84.0,59.0,40.0,False,,341.09544628460435,[],"[683, 384]",ColorTask,6.0,30.0,,,HRV,HRV_0163,2022-11-30 19:08:50
,wl-rdm,38,198605,0.0-6.30-0.30,0.0,36.0,,,,,,,[],,,,,,53.2,0.0,i,1.0,False,1610.0,94.0,59.0,40.0,False,,297.8180112895749,[],"[683, 384]",ColorTask,5.0,31.0,,,HRV,HRV_0163,2022-11-30 19:08:50
,wl-rdm,39,201471,0.0-6.31-0.31,0.0,37.0,,,,,,,[],,,,,,62.5,0.0,u,0.0,True,1561.0,88.0,59.0,40.0,False,,222.92909068280437,[],"[683, 384]",ColorTask,6.0,32.0,,,HRV,HRV_0163,2022-11-30 19:08:50
,wl-rdm,40,204355,0.0-6.32-0.32,0.0,38.0,,,,,,,[],,,,,,53.2,0.0,u,0.0,True,1594.0,89.0,59.0,40.0,False,,203.5693122276693,[],"[683, 384]",ColorTask,7.0,33.0,,,HRV,HRV_0163,2022-11-30 19:08:50
,wl-rdm,41,207206,0.0-6.33-0.33,0.0,39.0,,,,,,,[],,,,,,73.6,0.0,u,0.0,True,1378.0,77.0,59.0,40.0,False,,387.18754821104346,[],"[683, 384]",ColorTask,8.0,34.0,,,HRV,HRV_0163,2022-11-30 19:08:50
,wl-rdm,42,210121,0.0-6.34-0.34,0.0,40.0,,,,,,,[],,,,,,62.5,1.0,i,1.0,True,1493.0,84.0,59.0,40.0,False,,344.6709359416846,[],"[683, 384]",ColorTask,9.0,35.0,,,HRV,HRV_0163,2022-11-30 19:08:50
,wl-rdm,43,212420,0.0-6.35-0.35,0.0,41.0,,,,,,,[],,,,,,53.2,1.0,i,1.0,True,977.0,49.0,59.0,40.0,False,,263.1973121694366,[],"[683, 384]",ColorTask,10.0,36.0,,,HRV,HRV_0163,2022-11-30 19:08:50
,wl-rdm,44,215088,0.0-6.36-0.36,0.0,42.0,,,,,,,[],,,,,,87.9,0.0,u,0.0,True,1288.0,70.0,59.0,40.0,False,,289.81994153361046,[],"[683, 384]",ColorTask,11.0,37.0,,,HRV,HRV_0163,2022-11-30 19:08:50
,wl-rdm,45,217987,0.0-6.37-0.37,0.0,43.0,,,,,,,[],,,,,,56.4,0.0,u,0.0,True,1576.0,86.0,59.0,40.0,False,,266.03638640866143,[],"[683, 384]",ColorTask,12.0,38.0,,,HRV,HRV_0163,2022-11-30 19:08:50
,wl-rdm,46,221304,0.0-6.38-0.38,0.0,44.0,,,,,,,[],,,,,,73.6,0.0,u,0.0,True,1844.0,109.0,59.0,40.0,False,,394.70587788870114,[],"[683, 384]",ColorTask,13.0,39.0,,,HRV,HRV_0163,2022-11-30 19:08:50
,wl-rdm,47,224537,0.0-6.39-0.39,0.0,45.0,,,,,,,[],,,,,,62.5,1.0,i,1.0,True,1873.0,107.0,59.0,40.0,False,,278.64170312172394,[],"[683, 384]",ColorTask,14.0,40.0,,,HRV,HRV_0163,2022-11-30 19:08:50
,wl-rdm,48,227070,0.0-6.40-0.40,0.0,46.0,,,,,,,[],,,,,,87.9,1.0,i,1.0,True,1159.0,67.0,59.0,40.0,False,,284.12070837248405,[],"[683, 384]",ColorTask,15.0,41.0,,,HRV,HRV_0163,2022-11-30 19:08:50
,wl-rdm,49,230053,0.0-6.41-0.41,0.0,47.0,,,,,,,[],,,,,,53.2,0.0,u,0.0,True,1528.0,85.0,59.0,40.0,False,,371.82490189114714,[],"[683, 384]",ColorTask,16.0,42.0,,,HRV,HRV_0163,2022-11-30 19:08:50
,wl-rdm,50,232587,0.0-6.42-0.42,0.0,48.0,,,,,,,[],,,,,,87.9,1.0,i,1.0,True,1249.0,73.0,59.0,40.0,False,,209.07052460900198,[],"[683, 384]",ColorTask,17.0,43.0,,,HRV,HRV_0163,2022-11-30 19:08:50
,wl-rdm,51,235602,0.0-6.43-0.43,0.0,49.0,,,,,,,[],,,,,,50.0,1.0,u,0.0,False,1662.0,93.0,59.0,40.0,False,,271.1016382617977,[],"[683, 384]",ColorTask,16.0,44.0,,,HRV,HRV_0163,2022-11-30 19:08:50
,wl-rdm,52,238370,0.0-6.44-0.44,0.0,50.0,,,,,,,[],,,,,,73.6,1.0,i,1.0,True,1361.0,78.0,59.0,40.0,False,,339.5032969384979,[],"[683, 384]",ColorTask,17.0,45.0,,,HRV,HRV_0163,2022-11-30 19:08:50
,wl-rdm,53,241369,0.0-6.45-0.45,0.0,51.0,,,,,,,[],,,,,,62.5,1.0,i,1.0,True,1595.0,83.0,59.0,40.0,False,,323.55163542166713,[],"[683, 384]",ColorTask,18.0,46.0,,,HRV,HRV_0163,2022-11-30 19:08:50
,wl-rdm,54,244270,0.0-6.46-0.46,0.0,52.0,,,,,,,[],,,,,,87.9,1.0,i,1.0,True,1600.0,94.0,59.0,40.0,False,,219.3632010910056,[],"[683, 384]",ColorTask,19.0,47.0,,,HRV,HRV_0163,2022-11-30 19:08:50
,wl-rdm,55,246853,0.0-6.47-0.47,0.0,53.0,,,,,,,[],,,,,,87.9,1.0,i,1.0,True,1254.0,74.0,59.0,40.0,False,,243.8400298189719,[],"[683, 384]",ColorTask,20.0,48.0,,,HRV,HRV_0163,2022-11-30 19:08:50
,wl-rdm,56,249303,0.0-6.48-0.48,0.0,54.0,,,,,,,[],,,,,,53.2,0.0,i,1.0,False,1171.0,63.0,59.0,40.0,False,,213.66450206952337,[],"[683, 384]",ColorTask,19.0,49.0,,,HRV,HRV_0163,2022-11-30 19:08:50
,wl-rdm,57,252653,0.0-6.49-0.49,0.0,55.0,,,,,,,[],,,,,,50.0,1.0,u,0.0,False,2020.0,116.0,59.0,40.0,False,,239.93852384790193,[],"[683, 384]",ColorTask,18.0,50.0,,,HRV,HRV_0163,2022-11-30 19:08:50
,wl-rdm,58,255535,0.0-6.50-0.50,0.0,56.0,,,,,,,[],,,,,,62.5,0.0,u,0.0,True,1601.0,92.0,59.0,40.0,False,,204.53344194510603,[],"[683, 384]",ColorTask,19.0,51.0,,,HRV,HRV_0163,2022-11-30 19:08:50
,wl-rdm,59,258502,0.0-6.51-0.51,0.0,57.0,,,,,,,[],,,,,,62.5,0.0,u,0.0,True,1556.0,91.0,59.0,40.0,False,,352.32230033410326,[],"[683, 384]",ColorTask,20.0,52.0,,,HRV,HRV_0163,2022-11-30 19:08:50
,wl-rdm,60,261386,0.0-6.52-0.52,0.0,58.0,,,,,,,[],,,,,,56.4,1.0,u,0.0,False,1575.0,87.0,59.0,40.0,False,,232.35943757876694,[],"[683, 384]",ColorTask,19.0,53.0,,,HRV,HRV_0163,2022-11-30 19:08:50
,wl-rdm,61,264268,0.0-6.53-0.53,0.0,59.0,,,,,,,[],,,,,,50.0,1.0,u,0.0,False,1567.0,94.0,59.0,40.0,False,,233.43518269152753,[],"[683, 384]",ColorTask,18.0,54.0,,,HRV,HRV_0163,2022-11-30 19:08:50
,wl-rdm,62,267152,0.0-6.54-0.54,0.0,60.0,,,,,,,[],,,,,,53.2,0.0,i,1.0,False,1557.0,87.0,59.0,40.0,False,,238.80467371915108,[],"[683, 384]",ColorTask,17.0,55.0,,,HRV,HRV_0163,2022-11-30 19:08:50
,wl-rdm,63,270019,0.0-6.55-0.55,0.0,61.0,,,,,,,[],,,,,,56.4,0.0,u,0.0,True,1491.0,90.0,59.0,40.0,False,,309.747335719199,[],"[683, 384]",ColorTask,18.0,56.0,,,HRV,HRV_0163,2022-11-30 19:08:50
,wl-rdm,64,272801,0.0-6.56-0.56,0.0,62.0,,,,,,,[],,,,,,73.6,0.0,u,0.0,True,1461.0,83.0,59.0,40.0,False,,248.65997352137072,[],"[683, 384]",ColorTask,19.0,57.0,,,HRV,HRV_0163,2022-11-30 19:08:50
,wl-rdm,65,276252,0.0-6.57-0.57,0.0,63.0,,,,,,,[],,,,,,50.0,1.0,i,1.0,True,2163.0,125.0,59.0,40.0,False,,207.45762465310108,[],"[683, 384]",ColorTask,20.0,58.0,,,HRV,HRV_0163,2022-11-30 19:08:50
,wl-rdm,66,279168,0.0-6.58-0.58,0.0,64.0,,,,,,,[],,,,,,50.0,0.0,u,0.0,True,1647.0,94.0,59.0,40.0,False,,215.8939901933927,[],"[683, 384]",ColorTask,21.0,59.0,,,HRV,HRV_0163,2022-11-30 19:08:50
,wl-rdm,67,281918,0.0-6.59-0.59,0.0,65.0,,,,,,,[],,,,,,73.6,1.0,u,0.0,False,1457.0,87.0,59.0,40.0,False,,210.60494822065309,[],"[683, 384]",ColorTask,20.0,60.0,,,HRV,HRV_0163,2022-11-30 19:08:50
,wl-rdm,68,284936,0.0-6.60-0.60,0.0,66.0,,,,,,,[],,,,,,50.0,0.0,u,0.0,True,1712.0,99.0,59.0,40.0,False,,240.29355491964225,[],"[683, 384]",ColorTask,21.0,61.0,,,HRV,HRV_0163,2022-11-30 19:08:50
,wl-rdm,69,287953,0.0-6.61-0.61,0.0,67.0,,,,,,,[],,,,,,53.2,1.0,u,0.0,False,1572.0,90.0,59.0,40.0,False,,353.9190495921159,[],"[683, 384]",ColorTask,20.0,62.0,,,HRV,HRV_0163,2022-11-30 19:08:50
,wl-rdm,70,290301,0.0-6.62-0.62,0.0,68.0,,,,,,,[],,,,,,56.4,0.0,i,1.0,False,1046.0,61.0,59.0,40.0,False,,229.15913357282741,[],"[683, 384]",ColorTask,19.0,63.0,,,HRV,HRV_0163,2022-11-30 19:08:50
,wl-rdm,71,292620,0.0-6.63-0.63,0.0,69.0,,,,,,,[],,,,,,87.9,1.0,u,0.0,False,890.0,52.0,59.0,40.0,False,,343.6994832251984,[],"[683, 384]",ColorTask,18.0,64.0,,,HRV,HRV_0163,2022-11-30 19:08:50
,wl-rdm,72,295267,0.0-6.64-0.64,0.0,70.0,,,,,,,[],,,,,,87.9,0.0,u,0.0,True,1175.0,68.0,59.0,40.0,False,,394.15987003671984,[],"[683, 384]",ColorTask,19.0,65.0,,,HRV,HRV_0163,2022-11-30 19:08:50
,wl-rdm,73,298018,0.0-6.65-0.65,0.0,71.0,,,,,,,[],,,,,,53.2,1.0,i,1.0,True,1343.0,81.0,59.0,40.0,False,,306.40717947061074,[],"[683, 384]",ColorTask,20.0,66.0,,,HRV,HRV_0163,2022-11-30 19:08:50
,wl-rdm,74,300536,0.0-6.66-0.66,0.0,72.0,,,,,,,[],,,,,,56.4,1.0,i,1.0,True,1193.0,58.0,59.0,40.0,False,,268.81238596325073,[],"[683, 384]",ColorTask,21.0,67.0,,,HRV,HRV_0163,2022-11-30 19:08:50
,wl-rdm,75,303017,0.0-6.67-0.67,0.0,73.0,,,,,,,[],,,,,,62.5,1.0,i,1.0,True,1029.0,61.0,59.0,40.0,False,,383.28815771782735,[],"[683, 384]",ColorTask,22.0,68.0,,,HRV,HRV_0163,2022-11-30 19:08:50
,wl-rdm,76,305569,0.0-6.68-0.68,0.0,74.0,,,,,,,[],,,,,,87.9,0.0,i,1.0,False,1198.0,67.0,59.0,40.0,False,,284.55366724903786,[],"[683, 384]",ColorTask,21.0,69.0,,,HRV,HRV_0163,2022-11-30 19:08:50
,wl-rdm,77,307617,0.0-6.69-0.69,0.0,75.0,,,,,,,[],,,,,,87.9,0.0,u,0.0,True,709.0,38.0,59.0,40.0,False,,254.65991941690757,[],"[683, 384]",ColorTask,22.0,70.0,,,HRV,HRV_0163,2022-11-30 19:08:50
,wl-rdm,78,310149,0.0-6.70-0.70,0.0,76.0,,,,,,,[],,,,,,62.5,1.0,u,0.0,False,1082.0,58.0,59.0,40.0,False,,368.9338552121327,[],"[683, 384]",ColorTask,21.0,71.0,,,HRV,HRV_0163,2022-11-30 19:08:50
,wl-rdm,79,312566,0.0-6.71-0.71,0.0,77.0,,,,,,,[],,,,,,62.5,0.0,i,1.0,False,1000.0,58.0,59.0,40.0,False,,331.9467775376548,[],"[683, 384]",ColorTask,20.0,72.0,,,HRV,HRV_0163,2022-11-30 19:08:50
,wl-rdm,80,314817,0.0-6.72-0.72,0.0,78.0,,,,,,,[],,,,,,73.6,0.0,u,0.0,True,959.0,55.0,59.0,40.0,False,,208.77676256447836,[],"[683, 384]",ColorTask,21.0,73.0,,,HRV,HRV_0163,2022-11-30 19:08:50
,wl-rdm,81,317267,0.0-6.73-0.73,0.0,79.0,,,,,,,[],,,,,,73.6,0.0,u,0.0,True,1174.0,67.0,59.0,40.0,False,,213.53036219416774,[],"[683, 384]",ColorTask,22.0,74.0,,,HRV,HRV_0163,2022-11-30 19:08:50
,wl-rdm,82,320150,0.0-6.74-0.74,0.0,80.0,,,,,,,[],,,,,,50.0,0.0,i,1.0,False,1599.0,81.0,59.0,40.0,False,,207.28364121946598,[],"[683, 384]",ColorTask,21.0,75.0,,,HRV,HRV_0163,2022-11-30 19:08:50
,wl-rdm,83,322567,0.0-6.75-0.75,0.0,81.0,,,,,,,[],,,,,,56.4,0.0,u,0.0,True,1125.0,64.0,59.0,40.0,False,,212.18558034717955,[],"[683, 384]",ColorTask,22.0,76.0,,,HRV,HRV_0163,2022-11-30 19:08:50
,wl-rdm,84,325033,0.0-6.76-0.76,0.0,82.0,,,,,,,[],,,,,,56.4,1.0,u,0.0,False,1079.0,63.0,59.0,40.0,False,,309.5657403042564,[],"[683, 384]",ColorTask,21.0,77.0,,,HRV,HRV_0163,2022-11-30 19:08:50
,wl-rdm,85,327665,0.0-6.77-0.77,0.0,83.0,,,,,,,[],,,,,,87.9,0.0,u,0.0,True,1195.0,72.0,59.0,40.0,False,,370.575752075443,[],"[683, 384]",ColorTask,22.0,78.0,,,HRV,HRV_0163,2022-11-30 19:08:50
,wl-rdm,86,330282,0.0-6.78-0.78,0.0,84.0,,,,,,,[],,,,,,50.0,0.0,u,0.0,True,1257.0,76.0,59.0,40.0,False,,242.58705451823948,[],"[683, 384]",ColorTask,23.0,79.0,,,HRV,HRV_0163,2022-11-30 19:08:50
,wl-rdm,87,332866,0.0-6.79-0.79,0.0,85.0,,,,,,,[],,,,,,73.6,0.0,i,1.0,False,1150.0,59.0,59.0,40.0,False,,360.3630199937016,[],"[683, 384]",ColorTask,22.0,80.0,,,HRV,HRV_0163,2022-11-30 19:08:50
,wl-rdm,88,335249,0.0-6.80-0.80,0.0,86.0,,,,,,,[],,,,,,53.2,0.0,u,0.0,True,1025.0,57.0,59.0,40.0,False,,283.7751199785844,[],"[683, 384]",ColorTask,23.0,81.0,,,HRV,HRV_0163,2022-11-30 19:08:50
,wl-rdm,89,337787,0.0-6.81-0.81,0.0,87.0,,,,,,,[],,,,,,53.2,0.0,i,1.0,False,1237.0,70.0,59.0,40.0,False,,233.55012439814874,[],"[683, 384]",ColorTask,22.0,82.0,,,HRV,HRV_0163,2022-11-30 19:08:50
,wl-rdm,90,340449,0.0-6.82-0.82,0.0,88.0,,,,,,,[],,,,,,62.5,1.0,i,1.0,True,1196.0,67.0,59.0,40.0,False,,396.62960462675073,[],"[683, 384]",ColorTask,23.0,83.0,,,HRV,HRV_0163,2022-11-30 19:08:50
,wl-rdm,91,343116,0.0-6.83-0.83,0.0,89.0,,,,,,,[],,,,,,50.0,0.0,u,0.0,True,1310.0,77.0,59.0,40.0,False,,276.6994051378137,[],"[683, 384]",ColorTask,24.0,84.0,,,HRV,HRV_0163,2022-11-30 19:08:50
,wl-rdm,92,345765,0.0-6.84-0.84,0.0,90.0,,,,,,,[],,,,,,62.5,0.0,u,0.0,True,1241.0,73.0,59.0,40.0,False,,326.8754791312846,[],"[683, 384]",ColorTask,25.0,85.0,,,HRV,HRV_0163,2022-11-30 19:08:50
,wl-rdm,93,348568,0.0-6.85-0.85,0.0,91.0,,,,,,,[],,,,,,50.0,0.0,u,0.0,True,1449.0,81.0,59.0,40.0,False,,269.37331394899957,[],"[683, 384]",ColorTask,26.0,86.0,,,HRV,HRV_0163,2022-11-30 19:08:50
,wl-rdm,94,351098,0.0-6.86-0.86,0.0,92.0,,,,,,,[],,,,,,62.5,0.0,i,1.0,False,1150.0,64.0,59.0,40.0,False,,308.56552541859423,[],"[683, 384]",ColorTask,25.0,87.0,,,HRV,HRV_0163,2022-11-30 19:08:50
,wl-rdm,95,352681,0.0-6.87-0.87,0.0,93.0,,,,,,,[],,,,,,56.4,1.0,u,0.0,False,207.0,13.0,59.0,40.0,False,,282.0507327832115,[],"[683, 384]",ColorTask,24.0,88.0,,,HRV,HRV_0163,2022-11-30 19:08:50
,wl-rdm,96,355264,0.0-6.88-0.88,0.0,94.0,,,,,,,[],,,,,,73.6,1.0,i,1.0,True,1164.0,67.0,59.0,40.0,False,,340.8850834133274,[],"[683, 384]",ColorTask,25.0,89.0,,,HRV,HRV_0163,2022-11-30 19:08:50
,wl-rdm,97,357564,0.0-6.89-0.89,0.0,95.0,,,,,,,[],,,,,,73.6,0.0,i,1.0,False,861.0,52.0,59.0,40.0,False,,368.00458549570783,[],"[683, 384]",ColorTask,24.0,90.0,,,HRV,HRV_0163,2022-11-30 19:08:50
,wl-rdm,98,360114,0.0-6.90-0.90,0.0,96.0,,,,,,,[],,,,,,53.2,1.0,i,1.0,True,1243.0,75.0,59.0,40.0,False,,202.68257875660004,[],"[683, 384]",ColorTask,25.0,91.0,,,HRV,HRV_0163,2022-11-30 19:08:50
,wl-rdm,99,362465,0.0-6.91-0.91,0.0,97.0,,,,,,,[],,,,,,73.6,1.0,i,1.0,True,977.0,56.0,59.0,40.0,False,,286.62280485810874,[],"[683, 384]",ColorTask,26.0,92.0,,,HRV,HRV_0163,2022-11-30 19:08:50
,wl-rdm,100,365147,0.0-6.92-0.92,0.0,98.0,,,,,,,[],,,,,,50.0,1.0,i,1.0,True,1403.0,82.0,59.0,40.0,False,,210.1540321642836,[],"[683, 384]",ColorTask,27.0,93.0,,,HRV,HRV_0163,2022-11-30 19:08:50
,wl-rdm,101,368165,0.0-6.93-0.93,0.0,99.0,,,,,,,[],,,,,,87.9,0.0,u,0.0,True,1621.0,98.0,59.0,40.0,False,,326.798250595908,[],"[683, 384]",ColorTask,28.0,94.0,,,HRV,HRV_0163,2022-11-30 19:08:50
,wl-rdm,102,371134,0.0-6.94-0.94,0.0,100.0,,,,,,,[],,,,,,87.9,1.0,i,1.0,True,1579.0,92.0,59.0,40.0,False,,317.11031068455105,[],"[683, 384]",ColorTask,29.0,95.0,,,HRV,HRV_0163,2022-11-30 19:08:50
,wl-rdm,103,373947,0.0-6.95-0.95,0.0,101.0,,,,,,,[],,,,,,56.4,0.0,u,0.0,True,1508.0,85.0,59.0,40.0,False,,220.11748405530903,[],"[683, 384]",ColorTask,30.0,96.0,,,HRV,HRV_0163,2022-11-30 19:08:50
,wl-rdm,104,376848,0.0-6.96-0.96,0.0,102.0,,,,,,,[],,,,,,56.4,1.0,u,0.0,False,1573.0,94.0,59.0,40.0,False,,247.6951562126908,[],"[683, 384]",ColorTask,29.0,97.0,,,HRV,HRV_0163,2022-11-30 19:08:50
,wl-rdm,105,379914,0.0-6.97-0.97,0.0,103.0,,,,,,,[],,,,,,73.6,1.0,i,1.0,True,1675.0,99.0,59.0,40.0,False,,304.26005784955737,[],"[683, 384]",ColorTask,30.0,98.0,,,HRV,HRV_0163,2022-11-30 19:08:50
,wl-rdm,106,382566,0.0-6.98-0.98,0.0,104.0,,,,,,,[],,,,,,73.6,1.0,i,1.0,True,1294.0,77.0,59.0,40.0,False,,270.24675504098917,[],"[683, 384]",ColorTask,31.0,99.0,,,HRV,HRV_0163,2022-11-30 19:08:50
,wl-rdm,107,385414,0.0-6.99-0.99,0.0,105.0,,,,,,,[],,,,,,56.4,1.0,i,1.0,True,1460.0,82.0,59.0,40.0,False,,308.55746071483884,[],"[683, 384]",ColorTask,32.0,100.0,,,HRV,HRV_0163,2022-11-30 19:08:50
,wl-rdm,108,388464,0.0-6.100-0.100,0.0,106.0,,,,,,,[],,,,,,56.4,0.0,u,0.0,True,1766.0,94.0,59.0,40.0,False,,210.0379466053281,[],"[683, 384]",ColorTask,33.0,101.0,,,HRV,HRV_0163,2022-11-30 19:08:50
,wl-rdm,109,391146,0.0-6.101-0.101,0.0,107.0,,,,,,,[],,,,,,53.2,1.0,u,0.0,False,1322.0,77.0,59.0,40.0,False,,275.8305056046274,[],"[683, 384]",ColorTask,32.0,102.0,,,HRV,HRV_0163,2022-11-30 19:08:50
,wl-rdm,110,393447,0.0-6.102-0.102,0.0,108.0,,,,,,,[],,,,,,56.4,0.0,i,1.0,False,918.0,56.0,59.0,40.0,False,,293.02273152873477,[],"[683, 384]",ColorTask,31.0,103.0,,,HRV,HRV_0163,2022-11-30 19:08:50
,wl-rdm,111,395447,0.0-6.103-0.103,0.0,109.0,,,,,,,[],,,,,,56.4,1.0,u,0.0,False,558.0,34.0,59.0,40.0,False,,358.55346449263436,[],"[683, 384]",ColorTask,30.0,104.0,,,HRV,HRV_0163,2022-11-30 19:08:50
,wl-rdm,112,397563,0.0-6.104-0.104,0.0,110.0,,,,,,,[],,,,,,87.9,0.0,u,0.0,True,809.0,45.0,59.0,40.0,False,,231.2896409872555,[],"[683, 384]",ColorTask,31.0,105.0,,,HRV,HRV_0163,2022-11-30 19:08:50
,wl-rdm,113,398646,0.0-6.105-0.105,0.0,110.0,,,,,,,[],,,,,,73.6,1.0,u,,,25.0,0.0,59.0,40.0,True,too_early ,250.80150027361572,[],"[683, 384]",ColorTask,30.0,106.0,,,HRV,HRV_0163,2022-11-30 19:08:50
,wl-rdm,114,401063,0.0-6.106-0.106,0.0,111.0,,,,,,,[],,,,,,50.0,1.0,i,1.0,True,1092.0,65.0,59.0,40.0,False,,244.31015130710887,[],"[683, 384]",ColorTask,31.0,107.0,,,HRV,HRV_0163,2022-11-30 19:08:50
,wl-rdm,115,403479,0.0-6.107-0.107,0.0,112.0,,,,,,,[],,,,,,53.2,0.0,i,1.0,False,1098.0,61.0,59.0,40.0,False,,249.70802566766537,[],"[683, 384]",ColorTask,30.0,108.0,,,HRV,HRV_0163,2022-11-30 19:08:50
,wl-rdm,116,406448,0.0-6.108-0.108,0.0,113.0,,,,,,,[],,,,,,53.2,1.0,i,1.0,True,1595.0,91.0,59.0,40.0,False,,305.3529219017485,[],"[683, 384]",ColorTask,31.0,109.0,,,HRV,HRV_0163,2022-11-30 19:08:50
,wl-rdm,117,409280,0.0-6.109-0.109,0.0,114.0,,,,,,,[],,,,,,50.0,1.0,u,0.0,False,1521.0,88.0,59.0,40.0,False,,224.877644967898,[],"[683, 384]",ColorTask,30.0,110.0,,,HRV,HRV_0163,2022-11-30 19:08:50
,wl-rdm,118,411779,0.0-6.110-0.110,0.0,115.0,,,,,,,[],,,,,,87.9,1.0,i,1.0,True,1058.0,64.0,59.0,40.0,False,,356.1364082531654,[],"[683, 384]",ColorTask,31.0,111.0,,,HRV,HRV_0163,2022-11-30 19:08:50
,wl-rdm,119,414263,0.0-6.111-0.111,0.0,116.0,,,,,,,[],,,,,,73.6,1.0,i,1.0,True,1020.0,62.0,59.0,40.0,False,,375.82524059356604,[],"[683, 384]",ColorTask,32.0,112.0,,,HRV,HRV_0163,2022-11-30 19:08:50
,wl-html-keyboard-response,120,644747,0.0-7.0-0.0,1.0,116.0,,,,,,,,228479.0,1.0,0,,,,,,,,,,,,True,undefinedblurEvent ,,,,,,,,,HRV,HRV_0163,2022-11-30 19:08:50
,wl-rdm,121,647656,0.0-8.0-0.0,1.0,117.0,,,,,,,[],,,,,,62.5,1.0,i,1.0,True,1545.0,92.0,59.0,40.0,False,,283.4613095866644,[],"[683, 384]",ColorTask,33.0,1.0,,,HRV,HRV_0163,2022-11-30 19:08:50
,wl-rdm,122,650955,0.0-8.1-0.1,1.0,118.0,,,,,,,[],,,,,,62.5,0.0,u,0.0,True,2011.0,107.0,59.0,40.0,False,,208.75541365387707,[],"[683, 384]",ColorTask,34.0,2.0,,,HRV,HRV_0163,2022-11-30 19:08:50
,wl-rdm,123,654352,0.0-8.2-0.2,1.0,119.0,,,,,,,[],,,,,,62.5,0.0,u,0.0,True,2045.0,119.0,59.0,40.0,False,,262.7405458388862,[],"[683, 384]",ColorTask,35.0,3.0,,,HRV,HRV_0163,2022-11-30 19:08:50
,wl-rdm,124,656969,0.0-8.3-0.3,1.0,120.0,,,,,,,[],,,,,,62.5,1.0,i,1.0,True,1294.0,72.0,59.0,40.0,False,,239.6227718563643,[],"[683, 384]",ColorTask,36.0,4.0,,,HRV,HRV_0163,2022-11-30 19:08:50
,wl-rdm,125,659870,0.0-8.4-0.4,1.0,121.0,,,,,,,[],,,,,,50.0,0.0,u,0.0,True,1574.0,89.0,59.0,40.0,False,,242.27641470443456,[],"[683, 384]",ColorTask,37.0,5.0,,,HRV,HRV_0163,2022-11-30 19:08:50
,wl-rdm,126,662771,0.0-8.5-0.5,1.0,122.0,,,,,,,[],,,,,,53.2,0.0,u,0.0,True,1592.0,94.0,59.0,40.0,False,,246.19829673257695,[],"[683, 384]",ColorTask,38.0,6.0,,,HRV,HRV_0163,2022-11-30 19:08:50
,wl-rdm,127,665638,0.0-8.6-0.6,1.0,123.0,,,,,,,[],,,,,,50.0,1.0,u,0.0,False,1558.0,92.0,59.0,40.0,False,,223.1560874015822,[],"[683, 384]",ColorTask,37.0,7.0,,,HRV,HRV_0163,2022-11-30 19:08:50
,wl-rdm,128,668353,0.0-8.7-0.7,1.0,124.0,,,,,,,[],,,,,,53.2,1.0,u,0.0,False,1259.0,74.0,59.0,40.0,False,,377.65703764054217,[],"[683, 384]",ColorTask,36.0,8.0,,,HRV,HRV_0163,2022-11-30 19:08:50
,wl-rdm,129,671252,0.0-8.8-0.8,1.0,125.0,,,,,,,[],,,,,,62.5,0.0,u,0.0,True,1617.0,83.0,59.0,40.0,False,,226.7102350185083,[],"[683, 384]",ColorTask,37.0,9.0,,,HRV,HRV_0163,2022-11-30 19:08:50
,wl-rdm,130,674619,0.0-8.9-0.9,1.0,126.0,,,,,,,[],,,,,,56.4,1.0,i,1.0,True,2069.0,117.0,59.0,40.0,False,,209.76756748774275,[],"[683, 384]",ColorTask,38.0,10.0,,,HRV,HRV_0163,2022-11-30 19:08:50
,wl-rdm,131,677585,0.0-8.10-0.10,1.0,127.0,,,,,,,[],,,,,,56.4,1.0,u,0.0,False,1491.0,84.0,59.0,40.0,False,,394.6348419202809,[],"[683, 384]",ColorTask,37.0,11.0,,,HRV,HRV_0163,2022-11-30 19:08:50
,wl-rdm,132,679951,0.0-8.11-0.11,1.0,128.0,,,,,,,[],,,,,,50.0,0.0,i,1.0,False,979.0,51.0,59.0,40.0,False,,304.58992004149724,[],"[683, 384]",ColorTask,36.0,12.0,,,HRV,HRV_0163,2022-11-30 19:08:50
,wl-rdm,133,682386,0.0-8.12-0.12,1.0,129.0,,,,,,,[],,,,,,62.5,0.0,u,0.0,True,1152.0,66.0,59.0,40.0,False,,209.06721265287734,[],"[683, 384]",ColorTask,37.0,13.0,,,HRV,HRV_0163,2022-11-30 19:08:50
,wl-rdm,134,685184,0.0-8.13-0.13,1.0,130.0,,,,,,,[],,,,,,50.0,1.0,i,1.0,True,1359.0,82.0,59.0,40.0,False,,351.93899504691285,[],"[683, 384]",ColorTask,38.0,14.0,,,HRV,HRV_0163,2022-11-30 19:08:50
,wl-rdm,135,687969,0.0-8.14-0.14,1.0,131.0,,,,,,,[],,,,,,73.6,1.0,i,1.0,True,1318.0,75.0,59.0,40.0,False,,394.66264270800366,[],"[683, 384]",ColorTask,39.0,15.0,,,HRV,HRV_0163,2022-11-30 19:08:50
,wl-rdm,136,690368,0.0-8.15-0.15,1.0,132.0,,,,,,,[],,,,,,87.9,1.0,i,1.0,True,1058.0,63.0,59.0,40.0,False,,283.7379021825873,[],"[683, 384]",ColorTask,40.0,16.0,,,HRV,HRV_0163,2022-11-30 19:08:50
,wl-rdm,137,694818,0.0-8.16-0.16,1.0,132.0,,,,,,,[],,,,,,53.2,0.0,u,,,3105.0,164.0,59.0,40.0,True,RT_timeout ,356.1132478341143,[],"[683, 384]",ColorTask,39.0,17.0,,,HRV,HRV_0163,2022-11-30 19:08:50
,wl-rdm,138,697468,0.0-8.17-0.17,1.0,133.0,,,,,,,[],,,,,,50.0,1.0,u,0.0,False,1195.0,69.0,59.0,40.0,False,,377.41698729956124,[],"[683, 384]",ColorTask,38.0,18.0,,,HRV,HRV_0163,2022-11-30 19:08:50
,wl-rdm,139,700003,0.0-8.18-0.18,1.0,134.0,,,,,,,[],,,,,,62.5,0.0,u,0.0,True,1248.0,73.0,59.0,40.0,False,,207.8804192122716,[],"[683, 384]",ColorTask,39.0,19.0,,,HRV,HRV_0163,2022-11-30 19:08:50
,wl-rdm,140,702867,0.0-8.19-0.19,1.0,135.0,,,,,,,[],,,,,,62.5,0.0,u,0.0,True,1415.0,82.0,59.0,40.0,False,,379.72163007760525,[],"[683, 384]",ColorTask,40.0,20.0,,,HRV,HRV_0163,2022-11-30 19:08:50
,wl-rdm,141,705419,0.0-8.20-0.20,1.0,136.0,,,,,,,[],,,,,,62.5,1.0,i,1.0,True,1110.0,65.0,59.0,40.0,False,,371.6071231541765,[],"[683, 384]",ColorTask,41.0,21.0,,,HRV,HRV_0163,2022-11-30 19:08:50
,wl-rdm,142,707851,0.0-8.21-0.21,1.0,137.0,,,,,,,[],,,,,,87.9,0.0,u,0.0,True,1044.0,63.0,59.0,40.0,False,,315.42565155867294,[],"[683, 384]",ColorTask,42.0,22.0,,,HRV,HRV_0163,2022-11-30 19:08:50
,wl-rdm,143,710468,0.0-8.22-0.22,1.0,138.0,,,,,,,[],,,,,,62.5,1.0,u,0.0,False,1302.0,78.0,59.0,40.0,False,,238.69369020098526,[],"[683, 384]",ColorTask,41.0,23.0,,,HRV,HRV_0163,2022-11-30 19:08:50
,wl-rdm,144,713017,0.0-8.23-0.23,1.0,139.0,,,,,,,[],,,,,,53.2,0.0,u,0.0,True,1204.0,72.0,59.0,40.0,False,,273.6656237784183,[],"[683, 384]",ColorTask,42.0,24.0,,,HRV,HRV_0163,2022-11-30 19:08:50
,wl-rdm,145,715620,0.0-8.24-0.24,1.0,140.0,,,,,,,[],,,,,,73.6,1.0,i,1.0,True,1138.0,67.0,59.0,40.0,False,,372.88332046283256,[],"[683, 384]",ColorTask,43.0,25.0,,,HRV,HRV_0163,2022-11-30 19:08:50
,wl-rdm,146,718051,0.0-8.25-0.25,1.0,141.0,,,,,,,[],,,,,,53.2,1.0,u,0.0,False,1087.0,60.0,59.0,40.0,False,,273.94495233392576,[],"[683, 384]",ColorTask,42.0,26.0,,,HRV,HRV_0163,2022-11-30 19:08:50
,wl-rdm,147,720650,0.0-8.26-0.26,1.0,142.0,,,,,,,[],,,,,,73.6,0.0,u,0.0,True,1312.0,72.0,59.0,40.0,False,,205.2592457059364,[],"[683, 384]",ColorTask,43.0,27.0,,,HRV,HRV_0163,2022-11-30 19:08:50
,wl-rdm,148,723233,0.0-8.27-0.27,1.0,143.0,,,,,,,[],,,,,,53.2,0.0,i,1.0,False,1160.0,64.0,59.0,40.0,False,,336.21826361343903,[],"[683, 384]",ColorTask,42.0,28.0,,,HRV,HRV_0163,2022-11-30 19:08:50
,wl-rdm,149,726100,0.0-8.28-0.28,1.0,144.0,,,,,,,[],,,,,,53.2,0.0,i,1.0,False,1481.0,87.0,59.0,40.0,False,,289.8953595206981,[],"[683, 384]",ColorTask,41.0,29.0,,,HRV,HRV_0163,2022-11-30 19:08:50
,wl-rdm,150,728467,0.0-8.29-0.29,1.0,145.0,,,,,,,[],,,,,,56.4,0.0,u,0.0,True,1103.0,58.0,59.0,40.0,False,,204.7629161709812,[],"[683, 384]",ColorTask,42.0,30.0,,,HRV,HRV_0163,2022-11-30 19:08:50
,wl-rdm,151,730834,0.0-8.30-0.30,1.0,146.0,,,,,,,[],,,,,,56.4,1.0,i,1.0,True,1009.0,58.0,59.0,40.0,False,,270.72706093675015,[],"[683, 384]",ColorTask,43.0,31.0,,,HRV,HRV_0163,2022-11-30 19:08:50
,wl-rdm,152,733167,0.0-8.31-0.31,1.0,147.0,,,,,,,[],,,,,,73.6,1.0,u,0.0,False,925.0,56.0,59.0,40.0,False,,326.15274890438934,[],"[683, 384]",ColorTask,42.0,32.0,,,HRV,HRV_0163,2022-11-30 19:08:50
,wl-rdm,153,735802,0.0-8.32-0.32,1.0,148.0,,,,,,,[],,,,,,73.6,0.0,u,0.0,True,1304.0,72.0,59.0,40.0,False,,253.30699895032203,[],"[683, 384]",ColorTask,43.0,33.0,,,HRV,HRV_0163,2022-11-30 19:08:50
,wl-rdm,154,738235,0.0-8.33-0.33,1.0,149.0,,,,,,,[],,,,,,73.6,0.0,u,0.0,True,993.0,58.0,59.0,40.0,False,,325.40648499231196,[],"[683, 384]",ColorTask,44.0,34.0,,,HRV,HRV_0163,2022-11-30 19:08:50
,wl-rdm,155,740617,0.0-8.34-0.34,1.0,150.0,,,,,,,[],,,,,,73.6,0.0,u,0.0,True,990.0,60.0,59.0,40.0,False,,316.07820818752583,[],"[683, 384]",ColorTask,45.0,35.0,,,HRV,HRV_0163,2022-11-30 19:08:50
,wl-rdm,156,742919,0.0-8.35-0.35,1.0,151.0,,,,,,,[],,,,,,73.6,0.0,u,0.0,True,922.0,55.0,59.0,40.0,False,,312.90698399273816,[],"[683, 384]",ColorTask,46.0,36.0,,,HRV,HRV_0163,2022-11-30 19:08:50
,wl-rdm,157,745233,0.0-8.36-0.36,1.0,152.0,,,,,,,[],,,,,,87.9,0.0,u,0.0,True,886.0,47.0,59.0,40.0,False,,340.8249345070191,[],"[683, 384]",ColorTask,47.0,37.0,,,HRV,HRV_0163,2022-11-30 19:08:50
,wl-rdm,158,747500,0.0-8.37-0.37,1.0,153.0,,,,,,,[],,,,,,87.9,0.0,u,0.0,True,819.0,49.0,59.0,40.0,False,,374.8788349338531,[],"[683, 384]",ColorTask,48.0,38.0,,,HRV,HRV_0163,2022-11-30 19:08:50
,wl-rdm,159,749901,0.0-8.38-0.38,1.0,154.0,,,,,,,[],,,,,,62.5,1.0,i,1.0,True,1085.0,64.0,59.0,40.0,False,,244.49801726960897,[],"[683, 384]",ColorTask,49.0,39.0,,,HRV,HRV_0163,2022-11-30 19:08:50
,wl-rdm,160,752182,0.0-8.39-0.39,1.0,155.0,,,,,,,[],,,,,,87.9,1.0,i,1.0,True,990.0,60.0,59.0,40.0,False,,227.96990798561583,[],"[683, 384]",ColorTask,50.0,40.0,,,HRV,HRV_0163,2022-11-30 19:08:50
,wl-rdm,161,754633,0.0-8.40-0.40,1.0,156.0,,,,,,,[],,,,,,73.6,0.0,u,0.0,True,1060.0,56.0,59.0,40.0,False,,312.487356938623,[],"[683, 384]",ColorTask,51.0,41.0,,,HRV,HRV_0163,2022-11-30 19:08:50
,wl-rdm,162,757065,0.0-8.41-0.41,1.0,157.0,,,,,,,[],,,,,,62.5,0.0,u,0.0,True,1096.0,66.0,59.0,40.0,False,,283.73126784474675,[],"[683, 384]",ColorTask,52.0,42.0,,,HRV,HRV_0163,2022-11-30 19:08:50
,wl-rdm,163,759715,0.0-8.42-0.42,1.0,158.0,,,,,,,[],,,,,,56.4,1.0,u,0.0,False,1289.0,71.0,59.0,40.0,False,,284.1076913380322,[],"[683, 384]",ColorTask,51.0,43.0,,,HRV,HRV_0163,2022-11-30 19:08:50
,wl-rdm,164,762349,0.0-8.43-0.43,1.0,159.0,,,,,,,[],,,,,,50.0,1.0,i,1.0,True,1208.0,73.0,59.0,40.0,False,,358.8752036754604,[],"[683, 384]",ColorTask,52.0,44.0,,,HRV,HRV_0163,2022-11-30 19:08:50
,wl-rdm,165,765019,0.0-8.44-0.44,1.0,160.0,,,,,,,[],,,,,,62.5,0.0,u,0.0,True,1169.0,69.0,59.0,40.0,False,,391.9264741790605,[],"[683, 384]",ColorTask,53.0,45.0,,,HRV,HRV_0163,2022-11-30 19:08:50
,wl-rdm,166,767682,0.0-8.45-0.45,1.0,161.0,,,,,,,[],,,,,,62.5,0.0,i,1.0,False,1346.0,81.0,59.0,40.0,False,,232.4308068289061,[],"[683, 384]",ColorTask,52.0,46.0,,,HRV,HRV_0163,2022-11-30 19:08:50
,wl-rdm,167,770189,0.0-8.46-0.46,1.0,162.0,,,,,,,[],,,,,,56.4,0.0,u,0.0,True,1231.0,64.0,59.0,40.0,False,,212.1623550721714,[],"[683, 384]",ColorTask,53.0,47.0,,,HRV,HRV_0163,2022-11-30 19:08:50
,wl-rdm,168,772483,0.0-8.47-0.47,1.0,163.0,,,,,,,[],,,,,,50.0,1.0,u,0.0,False,975.0,55.0,59.0,40.0,False,,252.6489045879485,[],"[683, 384]",ColorTask,52.0,48.0,,,HRV,HRV_0163,2022-11-30 19:08:50
,wl-rdm,169,774981,0.0-8.48-0.48,1.0,164.0,,,,,,,[],,,,,,53.2,1.0,i,1.0,True,1107.0,63.0,59.0,40.0,False,,307.0547591781436,[],"[683, 384]",ColorTask,53.0,49.0,,,HRV,HRV_0163,2022-11-30 19:08:50
,wl-rdm,170,777432,0.0-8.49-0.49,1.0,165.0,,,,,,,[],,,,,,87.9,1.0,i,1.0,True,1080.0,63.0,59.0,40.0,False,,298.2738888129452,[],"[683, 384]",ColorTask,54.0,50.0,,,HRV,HRV_0163,2022-11-30 19:08:50
,wl-rdm,171,780000,0.0-8.50-0.50,1.0,166.0,,,,,,,[],,,,,,73.6,1.0,i,1.0,True,1216.0,73.0,59.0,40.0,False,,282.06360107441424,[],"[683, 384]",ColorTask,55.0,51.0,,,HRV,HRV_0163,2022-11-30 19:08:50
,wl-rdm,172,782597,0.0-8.51-0.51,1.0,167.0,,,,,,,[],,,,,,50.0,1.0,u,0.0,False,1173.0,67.0,59.0,40.0,False,,341.20095410114516,[],"[683, 384]",ColorTask,54.0,52.0,,,HRV,HRV_0163,2022-11-30 19:08:50
,wl-rdm,173,784917,0.0-8.52-0.52,1.0,168.0,,,,,,,[],,,,,,62.5,1.0,i,1.0,True,1048.0,55.0,59.0,40.0,False,,207.59972090492593,[],"[683, 384]",ColorTask,55.0,53.0,,,HRV,HRV_0163,2022-11-30 19:08:50
,wl-rdm,174,787365,0.0-8.53-0.53,1.0,169.0,,,,,,,[],,,,,,62.5,1.0,i,1.0,True,1160.0,69.0,59.0,40.0,False,,217.77268619647364,[],"[683, 384]",ColorTask,56.0,54.0,,,HRV,HRV_0163,2022-11-30 19:08:50
,wl-rdm,175,790481,0.0-8.54-0.54,1.0,170.0,,,,,,,[],,,,,,73.6,0.0,i,1.0,False,1794.0,104.0,59.0,40.0,False,,248.72413417202017,[],"[683, 384]",ColorTask,55.0,55.0,,,HRV,HRV_0163,2022-11-30 19:08:50
,wl-rdm,176,792699,0.0-8.55-0.55,1.0,171.0,,,,,,,[],,,,,,56.4,0.0,u,0.0,True,924.0,55.0,59.0,40.0,False,,211.11996612233784,[],"[683, 384]",ColorTask,56.0,56.0,,,HRV,HRV_0163,2022-11-30 19:08:50
,wl-rdm,177,795281,0.0-8.56-0.56,1.0,172.0,,,,,,,[],,,,,,50.0,1.0,i,1.0,True,1276.0,70.0,59.0,40.0,False,,237.28215003274158,[],"[683, 384]",ColorTask,57.0,57.0,,,HRV,HRV_0163,2022-11-30 19:08:50
,wl-rdm,178,797766,0.0-8.57-0.57,1.0,173.0,,,,,,,[],,,,,,53.2,1.0,u,0.0,False,1159.0,68.0,59.0,40.0,False,,233.87513262757045,[],"[683, 384]",ColorTask,56.0,58.0,,,HRV,HRV_0163,2022-11-30 19:08:50
,wl-rdm,179,801031,0.0-8.58-0.58,1.0,174.0,,,,,,,[],,,,,,87.9,0.0,u,0.0,True,1821.0,102.0,59.0,40.0,False,,360.387886577509,[],"[683, 384]",ColorTask,57.0,59.0,,,HRV,HRV_0163,2022-11-30 19:08:50
,wl-rdm,180,803397,0.0-8.59-0.59,1.0,175.0,,,,,,,[],,,,,,56.4,1.0,u,0.0,False,1064.0,62.0,59.0,40.0,False,,224.48997395128623,[],"[683, 384]",ColorTask,56.0,60.0,,,HRV,HRV_0163,2022-11-30 19:08:50
,wl-rdm,181,806264,0.0-8.60-0.60,1.0,176.0,,,,,,,[],,,,,,56.4,0.0,u,0.0,True,1577.0,87.0,59.0,40.0,False,,219.12847725273858,[],"[683, 384]",ColorTask,57.0,61.0,,,HRV,HRV_0163,2022-11-30 19:08:50
,wl-rdm,182,808930,0.0-8.61-0.61,1.0,177.0,,,,,,,[],,,,,,56.4,0.0,u,0.0,True,1374.0,78.0,59.0,40.0,False,,230.4493702978302,[],"[683, 384]",ColorTask,58.0,62.0,,,HRV,HRV_0163,2022-11-30 19:08:50
,wl-rdm,183,811564,0.0-8.62-0.62,1.0,178.0,,,,,,,[],,,,,,50.0,1.0,i,1.0,True,1226.0,71.0,59.0,40.0,False,,343.9623903042512,[],"[683, 384]",ColorTask,59.0,63.0,,,HRV,HRV_0163,2022-11-30 19:08:50
,wl-rdm,184,814064,0.0-8.63-0.63,1.0,179.0,,,,,,,[],,,,,,53.2,1.0,u,0.0,False,1142.0,69.0,59.0,40.0,False,,295.90562217707225,[],"[683, 384]",ColorTask,58.0,64.0,,,HRV,HRV_0163,2022-11-30 19:08:50
,wl-rdm,185,816613,0.0-8.64-0.64,1.0,180.0,,,,,,,[],,,,,,87.9,0.0,i,1.0,False,1146.0,67.0,59.0,40.0,False,,332.3158089726901,[],"[683, 384]",ColorTask,57.0,65.0,,,HRV,HRV_0163,2022-11-30 19:08:50
,wl-rdm,186,819446,0.0-8.65-0.65,1.0,181.0,,,,,,,[],,,,,,53.2,1.0,u,0.0,False,1542.0,75.0,59.0,40.0,False,,210.22955867238161,[],"[683, 384]",ColorTask,56.0,66.0,,,HRV,HRV_0163,2022-11-30 19:08:50
,wl-rdm,187,822413,0.0-8.66-0.66,1.0,182.0,,,,,,,[],,,,,,56.4,0.0,u,0.0,True,1681.0,96.0,59.0,40.0,False,,212.20087609379698,[],"[683, 384]",ColorTask,57.0,67.0,,,HRV,HRV_0163,2022-11-30 19:08:50
,wl-rdm,188,824863,0.0-8.67-0.67,1.0,183.0,,,,,,,[],,,,,,56.4,0.0,u,0.0,True,1103.0,61.0,59.0,40.0,False,,254.04464629211944,[],"[683, 384]",ColorTask,58.0,68.0,,,HRV,HRV_0163,2022-11-30 19:08:50
,wl-rdm,189,827212,0.0-8.68-0.68,1.0,184.0,,,,,,,[],,,,,,73.6,0.0,u,0.0,True,1039.0,56.0,59.0,40.0,False,,231.59219485361976,[],"[683, 384]",ColorTask,59.0,69.0,,,HRV,HRV_0163,2022-11-30 19:08:50
,wl-rdm,190,829901,0.0-8.69-0.69,1.0,185.0,,,,,,,[],,,,,,62.5,1.0,i,1.0,True,1359.0,82.0,59.0,40.0,False,,217.1209791236457,[],"[683, 384]",ColorTask,60.0,70.0,,,HRV,HRV_0163,2022-11-30 19:08:50
,wl-rdm,191,832313,0.0-8.70-0.70,1.0,186.0,,,,,,,[],,,,,,56.4,0.0,i,1.0,False,1132.0,66.0,59.0,40.0,False,,215.9623622333006,[],"[683, 384]",ColorTask,59.0,71.0,,,HRV,HRV_0163,2022-11-30 19:08:50
,wl-rdm,192,834779,0.0-8.71-0.71,1.0,187.0,,,,,,,[],,,,,,87.9,1.0,i,1.0,True,1045.0,56.0,59.0,40.0,False,,345.0677687156536,[],"[683, 384]",ColorTask,60.0,72.0,,,HRV,HRV_0163,2022-11-30 19:08:50
,wl-rdm,193,837228,0.0-8.72-0.72,1.0,188.0,,,,,,,[],,,,,,56.4,1.0,i,1.0,True,1146.0,63.0,59.0,40.0,False,,228.37401034428248,[],"[683, 384]",ColorTask,61.0,73.0,,,HRV,HRV_0163,2022-11-30 19:08:50
,wl-rdm,194,839614,0.0-8.73-0.73,1.0,189.0,,,,,,,[],,,,,,73.6,1.0,i,1.0,True,1091.0,66.0,59.0,40.0,False,,228.748160806153,[],"[683, 384]",ColorTask,62.0,74.0,,,HRV,HRV_0163,2022-11-30 19:08:50
,wl-rdm,195,842529,0.0-8.74-0.74,1.0,190.0,,,,,,,[],,,,,,53.2,1.0,u,0.0,False,1614.0,94.0,59.0,40.0,False,,232.1770093350825,[],"[683, 384]",ColorTask,61.0,75.0,,,HRV,HRV_0163,2022-11-30 19:08:50
,wl-rdm,196,844979,0.0-8.75-0.75,1.0,191.0,,,,,,,[],,,,,,73.6,1.0,i,1.0,True,1077.0,63.0,59.0,40.0,False,,299.61215505520386,[],"[683, 384]",ColorTask,62.0,76.0,,,HRV,HRV_0163,2022-11-30 19:08:50
,wl-rdm,197,847412,0.0-8.76-0.76,1.0,192.0,,,,,,,[],,,,,,53.2,1.0,i,1.0,True,1097.0,64.0,59.0,40.0,False,,254.9616442256477,[],"[683, 384]",ColorTask,63.0,77.0,,,HRV,HRV_0163,2022-11-30 19:08:50
,wl-rdm,198,849745,0.0-8.77-0.77,1.0,193.0,,,,,,,[],,,,,,87.9,0.0,u,0.0,True,891.0,52.0,59.0,40.0,False,,345.90770922395234,[],"[683, 384]",ColorTask,64.0,78.0,,,HRV,HRV_0163,2022-11-30 19:08:50
,wl-rdm,199,852012,0.0-8.78-0.78,1.0,194.0,,,,,,,[],,,,,,73.6,1.0,u,0.0,False,958.0,57.0,59.0,40.0,False,,227.31210294300655,[],"[683, 384]",ColorTask,63.0,79.0,,,HRV,HRV_0163,2022-11-30 19:08:50
,wl-rdm,200,854679,0.0-8.79-0.79,1.0,195.0,,,,,,,[],,,,,,87.9,0.0,u,0.0,True,1240.0,75.0,59.0,40.0,False,,343.57677134930896,[],"[683, 384]",ColorTask,64.0,80.0,,,HRV,HRV_0163,2022-11-30 19:08:50
,wl-rdm,201,856829,0.0-8.80-0.80,1.0,196.0,,,,,,,[],,,,,,50.0,0.0,u,0.0,True,855.0,52.0,59.0,40.0,False,,213.50937907647688,[],"[683, 384]",ColorTask,65.0,81.0,,,HRV,HRV_0163,2022-11-30 19:08:50
,wl-rdm,202,858995,0.0-8.81-0.81,1.0,197.0,,,,,,,[],,,,,,53.2,0.0,u,0.0,True,843.0,51.0,59.0,40.0,False,,263.5932846667388,[],"[683, 384]",ColorTask,66.0,82.0,,,HRV,HRV_0163,2022-11-30 19:08:50
,wl-rdm,203,861195,0.0-8.82-0.82,1.0,198.0,,,,,,,[],,,,,,50.0,0.0,u,0.0,True,790.0,48.0,59.0,40.0,False,,336.26640885179694,[],"[683, 384]",ColorTask,67.0,83.0,,,HRV,HRV_0163,2022-11-30 19:08:50
,wl-rdm,204,863795,0.0-8.83-0.83,1.0,199.0,,,,,,,[],,,,,,53.2,0.0,u,0.0,True,1178.0,65.0,59.0,40.0,False,,355.1590194904899,[],"[683, 384]",ColorTask,68.0,84.0,,,HRV,HRV_0163,2022-11-30 19:08:50
,wl-rdm,205,866445,0.0-8.84-0.84,1.0,200.0,,,,,,,[],,,,,,50.0,0.0,u,0.0,True,1373.0,67.0,59.0,40.0,False,,200.6289127585374,[],"[683, 384]",ColorTask,69.0,85.0,,,HRV,HRV_0163,2022-11-30 19:08:50
,wl-rdm,206,869011,0.0-8.85-0.85,1.0,201.0,,,,,,,[],,,,,,73.6,0.0,u,0.0,True,1219.0,74.0,59.0,40.0,False,,265.1549857472862,[],"[683, 384]",ColorTask,70.0,86.0,,,HRV,HRV_0163,2022-11-30 19:08:50
,wl-rdm,207,871563,0.0-8.86-0.86,1.0,202.0,,,,,,,[],,,,,,62.5,1.0,i,1.0,True,1072.0,57.0,59.0,40.0,False,,396.34981880833686,[],"[683, 384]",ColorTask,71.0,87.0,,,HRV,HRV_0163,2022-11-30 19:08:50
,wl-rdm,208,873827,0.0-8.87-0.87,1.0,203.0,,,,,,,[],,,,,,56.4,1.0,i,1.0,True,960.0,54.0,59.0,40.0,False,,234.81866536107145,[],"[683, 384]",ColorTask,72.0,88.0,,,HRV,HRV_0163,2022-11-30 19:08:50
,wl-rdm,209,876343,0.0-8.88-0.88,1.0,204.0,,,,,,,[],,,,,,50.0,0.0,u,0.0,True,1108.0,65.0,59.0,40.0,False,,323.7764194210068,[],"[683, 384]",ColorTask,73.0,89.0,,,HRV,HRV_0163,2022-11-30 19:08:50
,wl-rdm,210,878828,0.0-8.89-0.89,1.0,205.0,,,,,,,[],,,,,,56.4,1.0,i,1.0,True,1081.0,59.0,59.0,40.0,False,,306.064820898403,[],"[683, 384]",ColorTask,74.0,90.0,,,HRV,HRV_0163,2022-11-30 19:08:50
,wl-rdm,211,881427,0.0-8.90-0.90,1.0,206.0,,,,,,,[],,,,,,53.2,0.0,u,0.0,True,1277.0,75.0,59.0,40.0,False,,250.46437986913236,[],"[683, 384]",ColorTask,75.0,91.0,,,HRV,HRV_0163,2022-11-30 19:08:50
,wl-rdm,212,883777,0.0-8.91-0.91,1.0,207.0,,,,,,,[],,,,,,87.9,1.0,i,1.0,True,941.0,56.0,59.0,40.0,False,,320.63735122454733,[],"[683, 384]",ColorTask,76.0,92.0,,,HRV,HRV_0163,2022-11-30 19:08:50
,wl-rdm,213,886061,0.0-8.92-0.92,1.0,208.0,,,,,,,[],,,,,,50.0,1.0,u,0.0,False,989.0,52.0,59.0,40.0,False,,212.31266614370375,[],"[683, 384]",ColorTask,75.0,93.0,,,HRV,HRV_0163,2022-11-30 19:08:50
,wl-rdm,214,888294,0.0-8.93-0.93,1.0,209.0,,,,,,,[],,,,,,53.2,1.0,u,0.0,False,949.0,57.0,59.0,40.0,False,,225.50073313979973,[],"[683, 384]",ColorTask,74.0,94.0,,,HRV,HRV_0163,2022-11-30 19:08:50
,wl-rdm,215,890644,0.0-8.94-0.94,1.0,210.0,,,,,,,[],,,,,,87.9,0.0,i,1.0,False,924.0,52.0,59.0,40.0,False,,317.64619389738664,[],"[683, 384]",ColorTask,73.0,95.0,,,HRV,HRV_0163,2022-11-30 19:08:50
,wl-rdm,216,892893,0.0-8.95-0.95,1.0,211.0,,,,,,,[],,,,,,56.4,0.0,u,0.0,True,964.0,49.0,59.0,40.0,False,,215.39825924546923,[],"[683, 384]",ColorTask,74.0,96.0,,,HRV,HRV_0163,2022-11-30 19:08:50
,wl-rdm,217,895344,0.0-8.96-0.96,1.0,212.0,,,,,,,[],,,,,,87.9,1.0,i,1.0,True,1129.0,68.0,59.0,40.0,False,,216.67069117230378,[],"[683, 384]",ColorTask,75.0,97.0,,,HRV,HRV_0163,2022-11-30 19:08:50
,wl-rdm,218,897730,0.0-8.97-0.97,1.0,213.0,,,,,,,[],,,,,,87.9,0.0,u,0.0,True,1095.0,61.0,59.0,40.0,False,,225.60661154609858,[],"[683, 384]",ColorTask,76.0,98.0,,,HRV,HRV_0163,2022-11-30 19:08:50
,wl-rdm,219,900009,0.0-8.98-0.98,1.0,214.0,,,,,,,[],,,,,,73.6,1.0,i,1.0,True,996.0,57.0,59.0,40.0,False,,200.85598065251304,[],"[683, 384]",ColorTask,77.0,99.0,,,HRV,HRV_0163,2022-11-30 19:08:50
,wl-rdm,220,902460,0.0-8.99-0.99,1.0,215.0,,,,,,,[],,,,,,73.6,1.0,i,1.0,True,1109.0,67.0,59.0,40.0,False,,269.2640796065734,[],"[683, 384]",ColorTask,78.0,100.0,,,HRV,HRV_0163,2022-11-30 19:08:50
,wl-rdm,221,904733,0.0-8.100-0.100,1.0,216.0,,,,,,,[],,,,,,87.9,1.0,i,1.0,True,963.0,53.0,59.0,40.0,False,,234.15572853711333,[],"[683, 384]",ColorTask,79.0,101.0,,,HRV,HRV_0163,2022-11-30 19:08:50
,wl-rdm,222,907043,0.0-8.101-0.101,1.0,217.0,,,,,,,[],,,,,,87.9,1.0,i,1.0,True,975.0,59.0,59.0,40.0,False,,259.2950387789815,[],"[683, 384]",ColorTask,80.0,102.0,,,HRV,HRV_0163,2022-11-30 19:08:50
,wl-rdm,223,909411,0.0-8.102-0.102,1.0,218.0,,,,,,,[],,,,,,56.4,1.0,u,0.0,False,1082.0,61.0,59.0,40.0,False,,203.12003113117493,[],"[683, 384]",ColorTask,79.0,103.0,,,HRV,HRV_0163,2022-11-30 19:08:50
,wl-rdm,224,911759,0.0-8.103-0.103,1.0,219.0,,,,,,,[],,,,,,87.9,1.0,i,1.0,True,900.0,45.0,59.0,40.0,False,,360.58176496441877,[],"[683, 384]",ColorTask,80.0,104.0,,,HRV,HRV_0163,2022-11-30 19:08:50
,wl-rdm,225,914109,0.0-8.104-0.104,1.0,220.0,,,,,,,[],,,,,,53.2,0.0,u,0.0,True,1048.0,53.0,59.0,40.0,False,,218.88994404916494,[],"[683, 384]",ColorTask,81.0,105.0,,,HRV,HRV_0163,2022-11-30 19:08:50
,wl-rdm,226,916442,0.0-8.105-0.105,1.0,221.0,,,,,,,[],,,,,,50.0,0.0,i,1.0,False,1066.0,62.0,59.0,40.0,False,,210.46980827858954,[],"[683, 384]",ColorTask,80.0,106.0,,,HRV,HRV_0163,2022-11-30 19:08:50
,wl-rdm,227,918945,0.0-8.106-0.106,1.0,222.0,,,,,,,[],,,,,,50.0,0.0,i,1.0,False,1167.0,70.0,59.0,40.0,False,,237.81575895581508,[],"[683, 384]",ColorTask,79.0,107.0,,,HRV,HRV_0163,2022-11-30 19:08:50
,wl-rdm,228,921509,0.0-8.107-0.107,1.0,223.0,,,,,,,[],,,,,,53.2,0.0,u,0.0,True,1138.0,69.0,59.0,40.0,False,,339.0325417195588,[],"[683, 384]",ColorTask,80.0,108.0,,,HRV,HRV_0163,2022-11-30 19:08:50
,wl-rdm,229,923842,0.0-8.108-0.108,1.0,224.0,,,,,,,[],,,,,,50.0,0.0,u,0.0,True,1003.0,55.0,59.0,40.0,False,,248.6683721249688,[],"[683, 384]",ColorTask,81.0,109.0,,,HRV,HRV_0163,2022-11-30 19:08:50
,wl-html-button-response,230,926708,0.0-9.0-0.0,,,,,,,,,,2862.0,,0,,,,,,,,,,,,,,,,,,,,<h3>End of this session. Thank you!</h3><br>,['Close window'],HRV,HRV_0163,2022-11-30 19:08:50
