trialN,stimuli,trialStartTime,trialStartTime_UNIX,stimulus1,stimulus2,stimulus1Bid,stimulus2Bid,delta,selected,rt,rt_UNIX,rt_perfnow,receivedResponse,rsp,trialEndTime,trialDuration,trialEndTime_UNIX,trialDuration_UNIX,exp,subjectId,date
0,"[{'imgObject': {}, 'id': 'cheerios', 'src': '/static/foodstim60/cheerios.jpg', 'key': 'u', 'origWidth': 409, 'origHeight': 410, 'width': 409, 'height': 410, 'widthPercent': 0.45, 'rescaleHeight': False, 'trialN': 0, 'loaded': True, 'loadedTime': 3733, 'positionName': 'LEFT', 'positionCoords': [246.68, 179], 'bid': 4.03}, {'imgObject': {}, 'id': 'eggsalad', 'src': '/static/foodstim60/eggsalad.jpg', 'key': 'i', 'origWidth': 410, 'origHeight': 409, 'width': 410, 'height': 409, 'widthPercent': 0.45, 'rescaleHeight': False, 'trialN': 0, 'loaded': True, 'loadedTime': 3796, 'positionName': 'RIGHT', 'positionCoords': [710.32, 179.5], 'bid': 8.950000000000001}]",4566,1669834209758,cheerios,eggsalad,4.03,8.950000000000001,4.920000000000001,eggsalad,968,1015,1015,True,i,6093,1527,1669834211285,1527,HRV,HRV_0163,2022-11-30 18:53:16
1,"[{'imgObject': {}, 'id': 'strawberries', 'src': '/static/foodstim60/strawberries.jpg', 'key': 'u', 'origWidth': 410, 'origHeight': 410, 'width': 410, 'height': 410, 'widthPercent': 0.45, 'rescaleHeight': False, 'trialN': 1, 'loaded': True, 'loadedTime': 3796, 'positionName': 'LEFT', 'positionCoords': [245.68, 179], 'bid': 9.75}, {'imgObject': {}, 'id': 'pear', 'src': '/static/foodstim60/pear.jpg', 'key': 'i', 'origWidth': 411, 'origHeight': 410, 'width': 411, 'height': 410, 'widthPercent': 0.45, 'rescaleHeight': False, 'trialN': 1, 'loaded': True, 'loadedTime': 3864, 'positionName': 'RIGHT', 'positionCoords': [710.32, 179], 'bid': 9.59}]",6093,1669834211285,strawberries,pear,9.75,9.59,-0.16000000000000014,pear,2085,2085,2085,True,i,8690,2597,1669834213882,2597,HRV,HRV_0163,2022-11-30 18:53:16
2,"[{'imgObject': {}, 'id': 'chicken nuggets2', 'src': '/static/foodstim60/chicken nuggets2.jpg', 'key': 'u', 'origWidth': 410, 'origHeight': 409, 'width': 410, 'height': 409, 'widthPercent': 0.45, 'rescaleHeight': False, 'trialN': 2, 'loaded': True, 'loadedTime': 3870, 'positionName': 'LEFT', 'positionCoords': [245.68, 179.5], 'bid': 6.22}, {'imgObject': {}, 'id': 'grilled chicken strips', 'src': '/static/foodstim60/grilled chicken strips.jpg', 'key': 'i', 'origWidth': 410, 'origHeight': 411, 'width': 410, 'height': 411, 'widthPercent': 0.45, 'rescaleHeight': False, 'trialN': 2, 'loaded': True, 'loadedTime': 3886, 'positionName': 'RIGHT', 'positionCoords': [710.32, 178.5], 'bid': 5.87}]",8690,1669834213882,chicken nuggets2,grilled chicken strips,6.22,5.87,-0.34999999999999964,chicken nuggets2,1116,1116,1116,True,u,10323,1633,1669834215515,1633,HRV,HRV_0163,2022-11-30 18:53:16
3,"[{'imgObject': {}, 'id': 'lox', 'src': '/static/foodstim60/lox.jpg', 'key': 'u', 'origWidth': 410, 'origHeight': 411, 'width': 410, 'height': 411, 'widthPercent': 0.45, 'rescaleHeight': False, 'trialN': 3, 'loaded': True, 'loadedTime': 3917, 'positionName': 'LEFT', 'positionCoords': [245.68, 178.5], 'bid': 9.61}, {'imgObject': {}, 'id': 'fruitsalad', 'src': '/static/foodstim60/fruitsalad.jpg', 'key': 'i', 'origWidth': 410, 'origHeight': 410, 'width': 410, 'height': 410, 'widthPercent': 0.45, 'rescaleHeight': False, 'trialN': 3, 'loaded': True, 'loadedTime': 3917, 'positionName': 'RIGHT', 'positionCoords': [710.32, 179], 'bid': 9.72}]",10323,1669834215515,lox,fruitsalad,9.61,9.72,0.11000000000000121,lox,1044,1044,1044,True,u,11882,1559,1669834217074,1559,HRV,HRV_0163,2022-11-30 18:53:16
4,"[{'imgObject': {}, 'id': 'banana', 'src': '/static/foodstim60/banana.jpg', 'key': 'u', 'origWidth': 410, 'origHeight': 410, 'width': 410, 'height': 410, 'widthPercent': 0.45, 'rescaleHeight': False, 'trialN': 4, 'loaded': True, 'loadedTime': 3933, 'positionName': 'LEFT', 'positionCoords': [245.68, 179], 'bid': 9.17}, {'imgObject': {}, 'id': 'turkey sandwich', 'src': '/static/foodstim60/turkey sandwich.jpg', 'key': 'i', 'origWidth': 409, 'origHeight': 409, 'width': 409, 'height': 409, 'widthPercent': 0.45, 'rescaleHeight': False, 'trialN': 4, 'loaded': True, 'loadedTime': 3933, 'positionName': 'RIGHT', 'positionCoords': [710.32, 179.5], 'bid': 9.2}]",11882,1669834217074,banana,turkey sandwich,9.17,9.2,0.02999999999999936,turkey sandwich,375,375,375,True,i,12832,950,1669834218024,950,HRV,HRV_0163,2022-11-30 18:53:16
5,"[{'imgObject': {}, 'id': 'Grapes', 'src': '/static/foodstim60/Grapes.jpg', 'key': 'u', 'origWidth': 411, 'origHeight': 411, 'width': 411, 'height': 411, 'widthPercent': 0.45, 'rescaleHeight': False, 'trialN': 5, 'loaded': True, 'loadedTime': 3964, 'positionName': 'LEFT', 'positionCoords': [244.68, 178.5], 'bid': 8.77}, {'imgObject': {}, 'id': 'apple slices', 'src': '/static/foodstim60/apple slices.jpg', 'key': 'i', 'origWidth': 409, 'origHeight': 410, 'width': 409, 'height': 410, 'widthPercent': 0.45, 'rescaleHeight': False, 'trialN': 5, 'loaded': True, 'loadedTime': 3980, 'positionName': 'RIGHT', 'positionCoords': [710.32, 179], 'bid': 8.14}]",12832,1669834218024,Grapes,apple slices,8.77,8.14,-0.629999999999999,apple slices,555,555,555,True,i,13899,1067,1669834219091,1067,HRV,HRV_0163,2022-11-30 18:53:16
6,"[{'imgObject': {}, 'id': 'corn cob', 'src': '/static/foodstim60/corn cob.jpg', 'key': 'u', 'origWidth': 411, 'origHeight': 411, 'width': 411, 'height': 411, 'widthPercent': 0.45, 'rescaleHeight': False, 'trialN': 6, 'loaded': True, 'loadedTime': 4011, 'positionName': 'LEFT', 'positionCoords': [244.68, 178.5], 'bid': 9.49}, {'imgObject': {}, 'id': 'blueberries', 'src': '/static/foodstim60/blueberries.jpg', 'key': 'i', 'origWidth': 411, 'origHeight': 411, 'width': 411, 'height': 411, 'widthPercent': 0.45, 'rescaleHeight': False, 'trialN': 6, 'loaded': True, 'loadedTime': 4011, 'positionName': 'RIGHT', 'positionCoords': [710.32, 178.5], 'bid': 9.69}]",13899,1669834219091,corn cob,blueberries,9.49,9.69,0.1999999999999993,blueberries,528,528,528,True,i,14944,1045,1669834220136,1045,HRV,HRV_0163,2022-11-30 18:53:16
7,"[{'imgObject': {}, 'id': 'cantaloupe', 'src': '/static/foodstim60/cantaloupe.jpg', 'key': 'u', 'origWidth': 409, 'origHeight': 409, 'width': 409, 'height': 409, 'widthPercent': 0.45, 'rescaleHeight': False, 'trialN': 7, 'loaded': True, 'loadedTime': 4027, 'positionName': 'LEFT', 'positionCoords': [246.68, 179.5], 'bid': 9.24}, {'imgObject': {}, 'id': 'cherry tomato', 'src': '/static/foodstim60/cherry tomato.jpg', 'key': 'i', 'origWidth': 410, 'origHeight': 410, 'width': 410, 'height': 410, 'widthPercent': 0.45, 'rescaleHeight': False, 'trialN': 7, 'loaded': True, 'loadedTime': 4027, 'positionName': 'RIGHT', 'positionCoords': [710.32, 179], 'bid': 9.11}]",14944,1669834220136,cantaloupe,cherry tomato,9.24,9.11,-0.13000000000000078,cherry tomato,263,263,263,True,i,15722,778,1669834220914,778,HRV,HRV_0163,2022-11-30 18:53:16
8,"[{'imgObject': {}, 'id': 'edamame', 'src': '/static/foodstim60/edamame.jpg', 'key': 'u', 'origWidth': 409, 'origHeight': 410, 'width': 409, 'height': 410, 'widthPercent': 0.45, 'rescaleHeight': False, 'trialN': 8, 'loaded': True, 'loadedTime': 4027, 'positionName': 'LEFT', 'positionCoords': [246.68, 179], 'bid': 7.79}, {'imgObject': {}, 'id': 'burger', 'src': '/static/foodstim60/burger.jpg', 'key': 'i', 'origWidth': 409, 'origHeight': 409, 'width': 409, 'height': 409, 'widthPercent': 0.45, 'rescaleHeight': False, 'trialN': 8, 'loaded': True, 'loadedTime': 4061, 'positionName': 'RIGHT', 'positionCoords': [710.32, 179.5], 'bid': 8.08}]",15722,1669834220914,edamame,burger,7.79,8.08,0.29000000000000004,edamame,534,534,534,True,u,16758,1036,1669834221950,1036,HRV,HRV_0163,2022-11-30 18:53:16
9,"[{'imgObject': {}, 'id': 'hashbrowns', 'src': '/static/foodstim60/hashbrowns.jpg', 'key': 'u', 'origWidth': 411, 'origHeight': 410, 'width': 411, 'height': 410, 'widthPercent': 0.45, 'rescaleHeight': False, 'trialN': 9, 'loaded': True, 'loadedTime': 4061, 'positionName': 'LEFT', 'positionCoords': [244.68, 179], 'bid': 9.55}, {'imgObject': {}, 'id': 'pear', 'src': '/static/foodstim60/pear.jpg', 'key': 'i', 'origWidth': 411, 'origHeight': 410, 'width': 411, 'height': 410, 'widthPercent': 0.45, 'rescaleHeight': False, 'trialN': 9, 'loaded': True, 'loadedTime': 3859, 'positionName': 'RIGHT', 'positionCoords': [710.32, 179], 'bid': 9.59}]",16758,1669834221950,hashbrowns,pear,9.55,9.59,0.03999999999999915,hashbrowns,641,641,641,True,u,17930,1172,1669834223122,1172,HRV,HRV_0163,2022-11-30 18:53:16
10,"[{'imgObject': {}, 'id': 'hashbrowns', 'src': '/static/foodstim60/hashbrowns.jpg', 'key': 'u', 'origWidth': 411, 'origHeight': 410, 'width': 411, 'height': 410, 'widthPercent': 0.45, 'rescaleHeight': False, 'trialN': 10, 'loaded': True, 'loadedTime': 4077, 'positionName': 'LEFT', 'positionCoords': [244.68, 179], 'bid': 9.55}, {'imgObject': {}, 'id': 'baked potato', 'src': '/static/foodstim60/baked potato.jpg', 'key': 'i', 'origWidth': 409, 'origHeight': 410, 'width': 409, 'height': 410, 'widthPercent': 0.45, 'rescaleHeight': False, 'trialN': 10, 'loaded': True, 'loadedTime': 4077, 'positionName': 'RIGHT', 'positionCoords': [710.32, 179], 'bid': 6.5}]",17930,1669834223122,hashbrowns,baked potato,9.55,6.5,-3.0500000000000007,hashbrowns,416,416,416,True,u,18866,936,1669834224058,936,HRV,HRV_0163,2022-11-30 18:53:16
11,"[{'imgObject': {}, 'id': 'Tribe humus pita', 'src': '/static/foodstim60/Tribe humus pita.jpg', 'key': 'u', 'origWidth': 411, 'origHeight': 411, 'width': 411, 'height': 411, 'widthPercent': 0.45, 'rescaleHeight': False, 'trialN': 11, 'loaded': True, 'loadedTime': 4108, 'positionName': 'LEFT', 'positionCoords': [244.68, 178.5], 'bid': 5.29}, {'imgObject': {}, 'id': 'turkey sandwich', 'src': '/static/foodstim60/turkey sandwich.jpg', 'key': 'i', 'origWidth': 409, 'origHeight': 409, 'width': 409, 'height': 409, 'widthPercent': 0.45, 'rescaleHeight': False, 'trialN': 11, 'loaded': True, 'loadedTime': 3933, 'positionName': 'RIGHT', 'positionCoords': [710.32, 179.5], 'bid': 9.2}]",18866,1669834224058,Tribe humus pita,turkey sandwich,5.29,9.2,3.9099999999999993,turkey sandwich,474,474,474,True,i,19852,986,1669834225044,986,HRV,HRV_0163,2022-11-30 18:53:16
12,"[{'imgObject': {}, 'id': 'seaweed', 'src': '/static/foodstim60/seaweed.jpg', 'key': 'u', 'origWidth': 410, 'origHeight': 410, 'width': 410, 'height': 410, 'widthPercent': 0.45, 'rescaleHeight': False, 'trialN': 12, 'loaded': True, 'loadedTime': 4108, 'positionName': 'LEFT', 'positionCoords': [245.68, 179], 'bid': 5.67}, {'imgObject': {}, 'id': 'cantaloupe', 'src': '/static/foodstim60/cantaloupe.jpg', 'key': 'i', 'origWidth': 409, 'origHeight': 409, 'width': 409, 'height': 409, 'widthPercent': 0.45, 'rescaleHeight': False, 'trialN': 12, 'loaded': True, 'loadedTime': 4027, 'positionName': 'RIGHT', 'positionCoords': [710.32, 179.5], 'bid': 9.24}]",19852,1669834225044,seaweed,cantaloupe,5.67,9.24,3.5700000000000003,seaweed,552,552,552,True,u,20912,1060,1669834226104,1060,HRV,HRV_0163,2022-11-30 18:53:16
13,"[{'imgObject': {}, 'id': 'salad w chicken', 'src': '/static/foodstim60/salad w chicken.jpg', 'key': 'u', 'origWidth': 411, 'origHeight': 411, 'width': 411, 'height': 411, 'widthPercent': 0.45, 'rescaleHeight': False, 'trialN': 13, 'loaded': True, 'loadedTime': 4124, 'positionName': 'LEFT', 'positionCoords': [244.68, 178.5], 'bid': 9.15}, {'imgObject': {}, 'id': 'pear', 'src': '/static/foodstim60/pear.jpg', 'key': 'i', 'origWidth': 411, 'origHeight': 410, 'width': 411, 'height': 410, 'widthPercent': 0.45, 'rescaleHeight': False, 'trialN': 13, 'loaded': True, 'loadedTime': 3864, 'positionName': 'RIGHT', 'positionCoords': [710.32, 179], 'bid': 9.59}]",20912,1669834226104,salad w chicken,pear,9.15,9.59,0.4399999999999995,pear,541,541,541,True,i,21976,1064,1669834227168,1064,HRV,HRV_0163,2022-11-30 18:53:16
14,"[{'imgObject': {}, 'id': 'eggs', 'src': '/static/foodstim60/eggs.jpg', 'key': 'u', 'origWidth': 409, 'origHeight': 409, 'width': 409, 'height': 409, 'widthPercent': 0.45, 'rescaleHeight': False, 'trialN': 14, 'loaded': True, 'loadedTime': 4155, 'positionName': 'LEFT', 'positionCoords': [246.68, 179.5], 'bid': 9.74}, {'imgObject': {}, 'id': 'bagel plain', 'src': '/static/foodstim60/bagel plain.jpg', 'key': 'i', 'origWidth': 410, 'origHeight': 410, 'width': 410, 'height': 410, 'widthPercent': 0.45, 'rescaleHeight': False, 'trialN': 14, 'loaded': True, 'loadedTime': 4155, 'positionName': 'RIGHT', 'positionCoords': [710.32, 179], 'bid': 9.39}]",21976,1669834227168,eggs,bagel plain,9.74,9.39,-0.34999999999999964,bagel plain,982,982,982,True,i,23473,1497,1669834228665,1497,HRV,HRV_0163,2022-11-30 18:53:16
15,"[{'imgObject': {}, 'id': 'granola w milk', 'src': '/static/foodstim60/granola w milk.jpg', 'key': 'u', 'origWidth': 410, 'origHeight': 410, 'width': 410, 'height': 410, 'widthPercent': 0.45, 'rescaleHeight': False, 'trialN': 15, 'loaded': True, 'loadedTime': 4170, 'positionName': 'LEFT', 'positionCoords': [245.68, 179], 'bid': 4.0600000000000005}, {'imgObject': {}, 'id': 'sweetpotato', 'src': '/static/foodstim60/sweetpotato.jpg', 'key': 'i', 'origWidth': 410, 'origHeight': 410, 'width': 410, 'height': 410, 'widthPercent': 0.45, 'rescaleHeight': False, 'trialN': 15, 'loaded': True, 'loadedTime': 4170, 'positionName': 'RIGHT', 'positionCoords': [710.32, 179], 'bid': 9.04}]",23473,1669834228665,granola w milk,sweetpotato,4.0600000000000005,9.04,4.979999999999999,granola w milk,220,220,220,True,u,24212,739,1669834229404,739,HRV,HRV_0163,2022-11-30 18:53:16
16,"[{'imgObject': {}, 'id': 'shreddedwheatwithmilk', 'src': '/static/foodstim60/shreddedwheatwithmilk.jpg', 'key': 'u', 'origWidth': 410, 'origHeight': 410, 'width': 410, 'height': 410, 'widthPercent': 0.45, 'rescaleHeight': False, 'trialN': 16, 'loaded': True, 'loadedTime': 4186, 'positionName': 'LEFT', 'positionCoords': [245.68, 179], 'bid': 2.39}, {'imgObject': {}, 'id': 'olives', 'src': '/static/foodstim60/olives.jpg', 'key': 'i', 'origWidth': 410, 'origHeight': 410, 'width': 410, 'height': 410, 'widthPercent': 0.45, 'rescaleHeight': False, 'trialN': 16, 'loaded': True, 'loadedTime': 4202, 'positionName': 'RIGHT', 'positionCoords': [710.32, 179], 'bid': 3.24}]",24212,1669834229404,shreddedwheatwithmilk,olives,2.39,3.24,0.8500000000000001,shreddedwheatwithmilk,369,369,369,True,u,25085,873,1669834230277,873,HRV,HRV_0163,2022-11-30 18:53:16
17,"[{'imgObject': {}, 'id': 'edamame', 'src': '/static/foodstim60/edamame.jpg', 'key': 'u', 'origWidth': 409, 'origHeight': 410, 'width': 409, 'height': 410, 'widthPercent': 0.45, 'rescaleHeight': False, 'trialN': 17, 'loaded': True, 'loadedTime': 4061, 'positionName': 'LEFT', 'positionCoords': [246.68, 179], 'bid': 7.79}, {'imgObject': {}, 'id': 'veggieswithdip', 'src': '/static/foodstim60/veggieswithdip.jpg', 'key': 'i', 'origWidth': 409, 'origHeight': 409, 'width': 409, 'height': 409, 'widthPercent': 0.45, 'rescaleHeight': False, 'trialN': 17, 'loaded': True, 'loadedTime': 4202, 'positionName': 'RIGHT', 'positionCoords': [710.32, 179.5], 'bid': 8.9}]",25086,1669834230278,edamame,veggieswithdip,7.79,8.9,1.1100000000000003,veggieswithdip,505,505,505,True,i,26099,1013,1669834231291,1013,HRV,HRV_0163,2022-11-30 18:53:16
18,"[{'imgObject': {}, 'id': 'Grapes', 'src': '/static/foodstim60/Grapes.jpg', 'key': 'u', 'origWidth': 411, 'origHeight': 411, 'width': 411, 'height': 411, 'widthPercent': 0.45, 'rescaleHeight': False, 'trialN': 18, 'loaded': True, 'loadedTime': 3964, 'positionName': 'LEFT', 'positionCoords': [244.68, 178.5], 'bid': 8.77}, {'imgObject': {}, 'id': 'cherries', 'src': '/static/foodstim60/cherries.jpg', 'key': 'i', 'origWidth': 410, 'origHeight': 411, 'width': 410, 'height': 411, 'widthPercent': 0.45, 'rescaleHeight': False, 'trialN': 18, 'loaded': True, 'loadedTime': 4227, 'positionName': 'RIGHT', 'positionCoords': [710.32, 178.5], 'bid': 8.64}]",26099,1669834231291,Grapes,cherries,8.77,8.64,-0.129999999999999,Grapes,209,209,209,True,u,26819,720,1669834232011,720,HRV,HRV_0163,2022-11-30 18:53:16
19,"[{'imgObject': {}, 'id': 'cherries', 'src': '/static/foodstim60/cherries.jpg', 'key': 'u', 'origWidth': 410, 'origHeight': 411, 'width': 410, 'height': 411, 'widthPercent': 0.45, 'rescaleHeight': False, 'trialN': 19, 'loaded': True, 'loadedTime': 4221, 'positionName': 'LEFT', 'positionCoords': [245.68, 178.5], 'bid': 8.64}, {'imgObject': {}, 'id': 'popsicles', 'src': '/static/foodstim60/popsicles.jpg', 'key': 'i', 'origWidth': 410, 'origHeight': 410, 'width': 410, 'height': 410, 'widthPercent': 0.45, 'rescaleHeight': False, 'trialN': 19, 'loaded': True, 'loadedTime': 4551, 'positionName': 'RIGHT', 'positionCoords': [710.32, 179], 'bid': 6.93}]",26819,1669834232011,cherries,popsicles,8.64,6.93,-1.7100000000000009,cherries,145,145,145,True,u,27490,671,1669834232682,671,HRV,HRV_0163,2022-11-30 18:53:16
20,"[{'imgObject': {}, 'id': 'raisin bran w milk', 'src': '/static/foodstim60/raisin bran w milk.jpg', 'key': 'u', 'origWidth': 411, 'origHeight': 411, 'width': 411, 'height': 411, 'widthPercent': 0.45, 'rescaleHeight': False, 'trialN': 20, 'loaded': True, 'loadedTime': 4233, 'positionName': 'LEFT', 'positionCoords': [244.68, 178.5], 'bid': 2.17}, {'imgObject': {}, 'id': 'chickenfingers', 'src': '/static/foodstim60/chickenfingers.jpg', 'key': 'i', 'origWidth': 410, 'origHeight': 410, 'width': 410, 'height': 410, 'widthPercent': 0.45, 'rescaleHeight': False, 'trialN': 20, 'loaded': True, 'loadedTime': 4253, 'positionName': 'RIGHT', 'positionCoords': [710.32, 179], 'bid': 4.73}]",27490,1669834232682,raisin bran w milk,chickenfingers,2.17,4.73,2.5600000000000005,raisin bran w milk,172,172,172,True,u,28178,688,1669834233370,688,HRV,HRV_0163,2022-11-30 18:53:16
21,"[{'imgObject': {}, 'id': 'blackbeanswithrice', 'src': '/static/foodstim60/blackbeanswithrice.jpg', 'key': 'u', 'origWidth': 410, 'origHeight': 410, 'width': 410, 'height': 410, 'widthPercent': 0.45, 'rescaleHeight': False, 'trialN': 21, 'loaded': True, 'loadedTime': 4254, 'positionName': 'LEFT', 'positionCoords': [245.68, 179], 'bid': 9.78}, {'imgObject': {}, 'id': 'corn cob', 'src': '/static/foodstim60/corn cob.jpg', 'key': 'i', 'origWidth': 411, 'origHeight': 411, 'width': 411, 'height': 411, 'widthPercent': 0.45, 'rescaleHeight': False, 'trialN': 21, 'loaded': True, 'loadedTime': 4011, 'positionName': 'RIGHT', 'positionCoords': [710.32, 178.5], 'bid': 9.49}]",28178,1669834233370,blackbeanswithrice,corn cob,9.78,9.49,-0.28999999999999915,blackbeanswithrice,165,180,180,True,u,28867,689,1669834234059,689,HRV,HRV_0163,2022-11-30 18:53:16
22,"[{'imgObject': {}, 'id': 'baked potato', 'src': '/static/foodstim60/baked potato.jpg', 'key': 'u', 'origWidth': 409, 'origHeight': 410, 'width': 409, 'height': 410, 'widthPercent': 0.45, 'rescaleHeight': False, 'trialN': 22, 'loaded': True, 'loadedTime': 4092, 'positionName': 'LEFT', 'positionCoords': [246.68, 179], 'bid': 6.5}, {'imgObject': {}, 'id': 'raspberries', 'src': '/static/foodstim60/raspberries.jpg', 'key': 'i', 'origWidth': 411, 'origHeight': 411, 'width': 411, 'height': 411, 'widthPercent': 0.45, 'rescaleHeight': False, 'trialN': 22, 'loaded': True, 'loadedTime': 4254, 'positionName': 'RIGHT', 'positionCoords': [710.32, 178.5], 'bid': 6.8}]",28867,1669834234059,baked potato,raspberries,6.5,6.8,0.2999999999999998,baked potato,131,131,131,True,u,29521,654,1669834234713,654,HRV,HRV_0163,2022-11-30 18:53:16
23,"[{'imgObject': {}, 'id': 'granola w milk', 'src': '/static/foodstim60/granola w milk.jpg', 'key': 'u', 'origWidth': 410, 'origHeight': 410, 'width': 410, 'height': 410, 'widthPercent': 0.45, 'rescaleHeight': False, 'trialN': 23, 'loaded': True, 'loadedTime': 4155, 'positionName': 'LEFT', 'positionCoords': [245.68, 179], 'bid': 4.0600000000000005}, {'imgObject': {}, 'id': 'turkeysandwich', 'src': '/static/foodstim60/turkeysandwich.jpg', 'key': 'i', 'origWidth': 409, 'origHeight': 409, 'width': 409, 'height': 409, 'widthPercent': 0.45, 'rescaleHeight': False, 'trialN': 23, 'loaded': True, 'loadedTime': 4254, 'positionName': 'RIGHT', 'positionCoords': [710.32, 179.5], 'bid': 3.84}]",29521,1669834234713,granola w milk,turkeysandwich,4.0600000000000005,3.84,-0.22000000000000064,turkeysandwich,80,80,80,True,i,30116,595,1669834235308,595,HRV,HRV_0163,2022-11-30 18:53:16
24,"[{'imgObject': {}, 'id': 'kiwi', 'src': '/static/foodstim60/kiwi.jpg', 'key': 'u', 'origWidth': 410, 'origHeight': 410, 'width': 410, 'height': 410, 'widthPercent': 0.45, 'rescaleHeight': False, 'trialN': 24, 'loaded': True, 'loadedTime': 4269, 'positionName': 'LEFT', 'positionCoords': [245.68, 179], 'bid': 9.81}, {'imgObject': {}, 'id': 'luckycharms', 'src': '/static/foodstim60/luckycharms.jpg', 'key': 'i', 'origWidth': 410, 'origHeight': 409, 'width': 410, 'height': 409, 'widthPercent': 0.45, 'rescaleHeight': False, 'trialN': 24, 'loaded': True, 'loadedTime': 4269, 'positionName': 'RIGHT', 'positionCoords': [710.32, 179.5], 'bid': 9.5}]",30116,1669834235308,kiwi,luckycharms,9.81,9.5,-0.3100000000000005,luckycharms,147,147,147,True,i,30783,667,1669834235975,667,HRV,HRV_0163,2022-11-30 18:53:16
25,"[{'imgObject': {}, 'id': 'Tribe humus pita', 'src': '/static/foodstim60/Tribe humus pita.jpg', 'key': 'u', 'origWidth': 411, 'origHeight': 411, 'width': 411, 'height': 411, 'widthPercent': 0.45, 'rescaleHeight': False, 'trialN': 25, 'loaded': True, 'loadedTime': 4108, 'positionName': 'LEFT', 'positionCoords': [244.68, 178.5], 'bid': 5.29}, {'imgObject': {}, 'id': 'bagel and cc', 'src': '/static/foodstim60/bagel and cc.jpg', 'key': 'i', 'origWidth': 410, 'origHeight': 410, 'width': 410, 'height': 410, 'widthPercent': 0.45, 'rescaleHeight': False, 'trialN': 25, 'loaded': True, 'loadedTime': 4269, 'positionName': 'RIGHT', 'positionCoords': [710.32, 179], 'bid': 6.49}]",30784,1669834235976,Tribe humus pita,bagel and cc,5.29,6.49,1.2000000000000002,Tribe humus pita,145,145,145,True,u,31439,655,1669834236631,655,HRV,HRV_0163,2022-11-30 18:53:16
26,"[{'imgObject': {}, 'id': 'turkeysandwich', 'src': '/static/foodstim60/turkeysandwich.jpg', 'key': 'u', 'origWidth': 409, 'origHeight': 409, 'width': 409, 'height': 409, 'widthPercent': 0.45, 'rescaleHeight': False, 'trialN': 26, 'loaded': True, 'loadedTime': 4254, 'positionName': 'LEFT', 'positionCoords': [246.68, 179.5], 'bid': 3.84}, {'imgObject': {}, 'id': 'baked potato', 'src': '/static/foodstim60/baked potato.jpg', 'key': 'i', 'origWidth': 409, 'origHeight': 410, 'width': 409, 'height': 410, 'widthPercent': 0.45, 'rescaleHeight': False, 'trialN': 26, 'loaded': True, 'loadedTime': 4092, 'positionName': 'RIGHT', 'positionCoords': [710.32, 179], 'bid': 6.5}]",31439,1669834236631,turkeysandwich,baked potato,3.84,6.5,2.66,turkeysandwich,219,219,219,True,u,32179,740,1669834237371,740,HRV,HRV_0163,2022-11-30 18:53:16
27,"[{'imgObject': {}, 'id': 'eggs', 'src': '/static/foodstim60/eggs.jpg', 'key': 'u', 'origWidth': 409, 'origHeight': 409, 'width': 409, 'height': 409, 'widthPercent': 0.45, 'rescaleHeight': False, 'trialN': 27, 'loaded': True, 'loadedTime': 4124, 'positionName': 'LEFT', 'positionCoords': [246.68, 179.5], 'bid': 9.74}, {'imgObject': {}, 'id': 'blackbeanswithrice', 'src': '/static/foodstim60/blackbeanswithrice.jpg', 'key': 'i', 'origWidth': 410, 'origHeight': 410, 'width': 410, 'height': 410, 'widthPercent': 0.45, 'rescaleHeight': False, 'trialN': 27, 'loaded': True, 'loadedTime': 4254, 'positionName': 'RIGHT', 'positionCoords': [710.32, 179], 'bid': 9.78}]",32179,1669834237371,eggs,blackbeanswithrice,9.74,9.78,0.03999999999999915,eggs,260,276,276,True,u,32960,781,1669834238152,781,HRV,HRV_0163,2022-11-30 18:53:16
28,"[{'imgObject': {}, 'id': 'kiwi', 'src': '/static/foodstim60/kiwi.jpg', 'key': 'u', 'origWidth': 410, 'origHeight': 410, 'width': 410, 'height': 410, 'widthPercent': 0.45, 'rescaleHeight': False, 'trialN': 28, 'loaded': True, 'loadedTime': 4269, 'positionName': 'LEFT', 'positionCoords': [245.68, 179], 'bid': 9.81}, {'imgObject': {}, 'id': 'strawberries', 'src': '/static/foodstim60/strawberries.jpg', 'key': 'i', 'origWidth': 410, 'origHeight': 410, 'width': 410, 'height': 410, 'widthPercent': 0.45, 'rescaleHeight': False, 'trialN': 28, 'loaded': True, 'loadedTime': 3796, 'positionName': 'RIGHT', 'positionCoords': [710.32, 179], 'bid': 9.75}]",32960,1669834238152,kiwi,strawberries,9.81,9.75,-0.0600000000000005,strawberries,54,55,55,True,i,33523,563,1669834238715,563,HRV,HRV_0163,2022-11-30 18:53:16
29,"[{'imgObject': {}, 'id': 'cherry tomato', 'src': '/static/foodstim60/cherry tomato.jpg', 'key': 'u', 'origWidth': 410, 'origHeight': 410, 'width': 410, 'height': 410, 'widthPercent': 0.45, 'rescaleHeight': False, 'trialN': 29, 'loaded': True, 'loadedTime': 4027, 'positionName': 'LEFT', 'positionCoords': [245.68, 179], 'bid': 9.11}, {'imgObject': {}, 'id': 'mac & cheese', 'src': '/static/foodstim60/mac & cheese.jpg', 'key': 'i', 'origWidth': 410, 'origHeight': 410, 'width': 410, 'height': 410, 'widthPercent': 0.45, 'rescaleHeight': False, 'trialN': 29, 'loaded': True, 'loadedTime': 4285, 'positionName': 'RIGHT', 'positionCoords': [710.32, 179], 'bid': 4.59}]",33523,1669834238715,cherry tomato,mac & cheese,9.11,4.59,-4.52,mac & cheese,342,342,342,True,i,34387,864,1669834239579,864,HRV,HRV_0163,2022-11-30 18:53:16
30,"[{'imgObject': {}, 'id': 'baked potato', 'src': '/static/foodstim60/baked potato.jpg', 'key': 'u', 'origWidth': 409, 'origHeight': 410, 'width': 409, 'height': 410, 'widthPercent': 0.45, 'rescaleHeight': False, 'trialN': 30, 'loaded': True, 'loadedTime': 4077, 'positionName': 'LEFT', 'positionCoords': [246.68, 179], 'bid': 6.5}, {'imgObject': {}, 'id': 'tacos', 'src': '/static/foodstim60/tacos.jpg', 'key': 'i', 'origWidth': 411, 'origHeight': 411, 'width': 411, 'height': 411, 'widthPercent': 0.45, 'rescaleHeight': False, 'trialN': 30, 'loaded': True, 'loadedTime': 4301, 'positionName': 'RIGHT', 'positionCoords': [710.32, 178.5], 'bid': 8.45}]",34387,1669834239579,baked potato,tacos,6.5,8.45,1.9499999999999993,tacos,299,299,299,True,i,35211,824,1669834240403,824,HRV,HRV_0163,2022-11-30 18:53:16
31,"[{'imgObject': {}, 'id': 'chicken nuggets2', 'src': '/static/foodstim60/chicken nuggets2.jpg', 'key': 'u', 'origWidth': 410, 'origHeight': 409, 'width': 410, 'height': 409, 'widthPercent': 0.45, 'rescaleHeight': False, 'trialN': 31, 'loaded': True, 'loadedTime': 3872, 'positionName': 'LEFT', 'positionCoords': [245.68, 179.5], 'bid': 6.22}, {'imgObject': {}, 'id': 'orange slices', 'src': '/static/foodstim60/orange slices.jpg', 'key': 'i', 'origWidth': 409, 'origHeight': 410, 'width': 409, 'height': 410, 'widthPercent': 0.45, 'rescaleHeight': False, 'trialN': 31, 'loaded': True, 'loadedTime': 4301, 'positionName': 'RIGHT', 'positionCoords': [710.32, 179], 'bid': 2.4}]",35211,1669834240403,chicken nuggets2,orange slices,6.22,2.4,-3.82,orange slices,339,339,339,True,i,36080,869,1669834241272,869,HRV,HRV_0163,2022-11-30 18:53:16
32,"[{'imgObject': {}, 'id': 'omelette', 'src': '/static/foodstim60/omelette.jpg', 'key': 'u', 'origWidth': 410, 'origHeight': 409, 'width': 410, 'height': 409, 'widthPercent': 0.45, 'rescaleHeight': False, 'trialN': 32, 'loaded': True, 'loadedTime': 4301, 'positionName': 'LEFT', 'positionCoords': [245.68, 179.5], 'bid': 7.29}, {'imgObject': {}, 'id': 'cocktailshrimp', 'src': '/static/foodstim60/cocktailshrimp.jpg', 'key': 'i', 'origWidth': 410, 'origHeight': 410, 'width': 410, 'height': 410, 'widthPercent': 0.45, 'rescaleHeight': False, 'trialN': 32, 'loaded': True, 'loadedTime': 4316, 'positionName': 'RIGHT', 'positionCoords': [710.32, 179], 'bid': 8.71}]",36080,1669834241272,omelette,cocktailshrimp,7.29,8.71,1.4200000000000008,omelette,276,276,276,True,u,36881,801,1669834242073,801,HRV,HRV_0163,2022-11-30 18:53:16
33,"[{'imgObject': {}, 'id': 'veggieswithdip', 'src': '/static/foodstim60/veggieswithdip.jpg', 'key': 'u', 'origWidth': 409, 'origHeight': 409, 'width': 409, 'height': 409, 'widthPercent': 0.45, 'rescaleHeight': False, 'trialN': 33, 'loaded': True, 'loadedTime': 4202, 'positionName': 'LEFT', 'positionCoords': [246.68, 179.5], 'bid': 8.9}, {'imgObject': {}, 'id': 'turkeysandwich', 'src': '/static/foodstim60/turkeysandwich.jpg', 'key': 'i', 'origWidth': 409, 'origHeight': 409, 'width': 409, 'height': 409, 'widthPercent': 0.45, 'rescaleHeight': False, 'trialN': 33, 'loaded': True, 'loadedTime': 4269, 'positionName': 'RIGHT', 'positionCoords': [710.32, 179.5], 'bid': 3.84}]",36881,1669834242073,veggieswithdip,turkeysandwich,8.9,3.84,-5.0600000000000005,veggieswithdip,713,713,713,True,u,38100,1219,1669834243292,1219,HRV,HRV_0163,2022-11-30 18:53:16
34,"[{'imgObject': {}, 'id': 'popsicles', 'src': '/static/foodstim60/popsicles.jpg', 'key': 'u', 'origWidth': 410, 'origHeight': 410, 'width': 410, 'height': 410, 'widthPercent': 0.45, 'rescaleHeight': False, 'trialN': 34, 'loaded': True, 'loadedTime': 4551, 'positionName': 'LEFT', 'positionCoords': [245.68, 179], 'bid': 6.93}, {'imgObject': {}, 'id': 'granola w milk', 'src': '/static/foodstim60/granola w milk.jpg', 'key': 'i', 'origWidth': 410, 'origHeight': 410, 'width': 410, 'height': 410, 'widthPercent': 0.45, 'rescaleHeight': False, 'trialN': 34, 'loaded': True, 'loadedTime': 4170, 'positionName': 'RIGHT', 'positionCoords': [710.32, 179], 'bid': 4.0600000000000005}]",38100,1669834243292,popsicles,granola w milk,6.93,4.0600000000000005,-2.869999999999999,granola w milk,39,40,40,True,i,38655,555,1669834243847,555,HRV,HRV_0163,2022-11-30 18:53:16
35,"[{'imgObject': {}, 'id': 'salmon', 'src': '/static/foodstim60/salmon.jpg', 'key': 'u', 'origWidth': 410, 'origHeight': 409, 'width': 410, 'height': 409, 'widthPercent': 0.45, 'rescaleHeight': False, 'trialN': 35, 'loaded': True, 'loadedTime': 4332, 'positionName': 'LEFT', 'positionCoords': [245.68, 179.5], 'bid': 5.74}, {'imgObject': {}, 'id': 'Tribe humus pita', 'src': '/static/foodstim60/Tribe humus pita.jpg', 'key': 'i', 'origWidth': 411, 'origHeight': 411, 'width': 411, 'height': 411, 'widthPercent': 0.45, 'rescaleHeight': False, 'trialN': 35, 'loaded': True, 'loadedTime': 4108, 'positionName': 'RIGHT', 'positionCoords': [710.32, 178.5], 'bid': 5.29}]",38656,1669834243848,salmon,Tribe humus pita,5.74,5.29,-0.4500000000000002,Tribe humus pita,384,384,384,True,i,39556,900,1669834244748,900,HRV,HRV_0163,2022-11-30 18:53:16
36,"[{'imgObject': {}, 'id': 'bagel and cc', 'src': '/static/foodstim60/bagel and cc.jpg', 'key': 'u', 'origWidth': 410, 'origHeight': 410, 'width': 410, 'height': 410, 'widthPercent': 0.45, 'rescaleHeight': False, 'trialN': 36, 'loaded': True, 'loadedTime': 4269, 'positionName': 'LEFT', 'positionCoords': [245.68, 179], 'bid': 6.49}, {'imgObject': {}, 'id': 'steak', 'src': '/static/foodstim60/steak.jpg', 'key': 'i', 'origWidth': 410, 'origHeight': 410, 'width': 410, 'height': 410, 'widthPercent': 0.45, 'rescaleHeight': False, 'trialN': 36, 'loaded': True, 'loadedTime': 4332, 'positionName': 'RIGHT', 'positionCoords': [710.32, 179], 'bid': 6.25}]",39556,1669834244748,bagel and cc,steak,6.49,6.25,-0.2400000000000002,steak,388,388,388,True,i,40457,901,1669834245649,901,HRV,HRV_0163,2022-11-30 18:53:16
37,"[{'imgObject': {}, 'id': 'luckycharms', 'src': '/static/foodstim60/luckycharms.jpg', 'key': 'u', 'origWidth': 410, 'origHeight': 409, 'width': 410, 'height': 409, 'widthPercent': 0.45, 'rescaleHeight': False, 'trialN': 37, 'loaded': True, 'loadedTime': 4269, 'positionName': 'LEFT', 'positionCoords': [245.68, 179.5], 'bid': 9.5}, {'imgObject': {}, 'id': 'pear', 'src': '/static/foodstim60/pear.jpg', 'key': 'i', 'origWidth': 411, 'origHeight': 410, 'width': 411, 'height': 410, 'widthPercent': 0.45, 'rescaleHeight': False, 'trialN': 37, 'loaded': True, 'loadedTime': 3861, 'positionName': 'RIGHT', 'positionCoords': [710.32, 179], 'bid': 9.59}]",40457,1669834245649,luckycharms,pear,9.5,9.59,0.08999999999999986,pear,264,264,264,True,i,41242,785,1669834246434,785,HRV,HRV_0163,2022-11-30 18:53:16
38,"[{'imgObject': {}, 'id': 'cocktailshrimp', 'src': '/static/foodstim60/cocktailshrimp.jpg', 'key': 'u', 'origWidth': 410, 'origHeight': 410, 'width': 410, 'height': 410, 'widthPercent': 0.45, 'rescaleHeight': False, 'trialN': 38, 'loaded': True, 'loadedTime': 4316, 'positionName': 'LEFT', 'positionCoords': [245.68, 179], 'bid': 8.71}, {'imgObject': {}, 'id': 'olives', 'src': '/static/foodstim60/olives.jpg', 'key': 'i', 'origWidth': 410, 'origHeight': 410, 'width': 410, 'height': 410, 'widthPercent': 0.45, 'rescaleHeight': False, 'trialN': 38, 'loaded': True, 'loadedTime': 4202, 'positionName': 'RIGHT', 'positionCoords': [710.32, 179], 'bid': 3.24}]",41242,1669834246434,cocktailshrimp,olives,8.71,3.24,-5.470000000000001,cocktailshrimp,153,153,153,True,u,41913,671,1669834247105,671,HRV,HRV_0163,2022-11-30 18:53:16
39,"[{'imgObject': {}, 'id': 'baked potato', 'src': '/static/foodstim60/baked potato.jpg', 'key': 'u', 'origWidth': 409, 'origHeight': 410, 'width': 409, 'height': 410, 'widthPercent': 0.45, 'rescaleHeight': False, 'trialN': 39, 'loaded': True, 'loadedTime': 4092, 'positionName': 'LEFT', 'positionCoords': [246.68, 179], 'bid': 6.5}, {'imgObject': {}, 'id': 'popsicles', 'src': '/static/foodstim60/popsicles.jpg', 'key': 'i', 'origWidth': 410, 'origHeight': 410, 'width': 410, 'height': 410, 'widthPercent': 0.45, 'rescaleHeight': False, 'trialN': 39, 'loaded': True, 'loadedTime': 4551, 'positionName': 'RIGHT', 'positionCoords': [710.32, 179], 'bid': 6.93}]",41913,1669834247105,baked potato,popsicles,6.5,6.93,0.4299999999999997,baked potato,72,72,72,True,u,42505,592,1669834247697,592,HRV,HRV_0163,2022-11-30 18:53:16
40,"[{'imgObject': {}, 'id': 'lox', 'src': '/static/foodstim60/lox.jpg', 'key': 'u', 'origWidth': 410, 'origHeight': 411, 'width': 410, 'height': 411, 'widthPercent': 0.45, 'rescaleHeight': False, 'trialN': 40, 'loaded': True, 'loadedTime': 3902, 'positionName': 'LEFT', 'positionCoords': [245.68, 178.5], 'bid': 9.61}, {'imgObject': {}, 'id': 'turkey sandwich', 'src': '/static/foodstim60/turkey sandwich.jpg', 'key': 'i', 'origWidth': 409, 'origHeight': 409, 'width': 409, 'height': 409, 'widthPercent': 0.45, 'rescaleHeight': False, 'trialN': 40, 'loaded': True, 'loadedTime': 3964, 'positionName': 'RIGHT', 'positionCoords': [710.32, 179.5], 'bid': 9.2}]",42505,1669834247697,lox,turkey sandwich,9.61,9.2,-0.41000000000000014,lox,235,235,235,True,u,43257,752,1669834248449,752,HRV,HRV_0163,2022-11-30 18:53:16
41,"[{'imgObject': {}, 'id': 'sweetpotato', 'src': '/static/foodstim60/sweetpotato.jpg', 'key': 'u', 'origWidth': 410, 'origHeight': 410, 'width': 410, 'height': 410, 'widthPercent': 0.45, 'rescaleHeight': False, 'trialN': 41, 'loaded': True, 'loadedTime': 4170, 'positionName': 'LEFT', 'positionCoords': [245.68, 179], 'bid': 9.04}, {'imgObject': {}, 'id': 'ice cream sundae 002', 'src': '/static/foodstim60/ice cream sundae 002.jpg', 'key': 'i', 'origWidth': 409, 'origHeight': 409, 'width': 409, 'height': 409, 'widthPercent': 0.45, 'rescaleHeight': False, 'trialN': 41, 'loaded': True, 'loadedTime': 4332, 'positionName': 'RIGHT', 'positionCoords': [710.32, 179.5], 'bid': 9.61}]",43257,1669834248449,sweetpotato,ice cream sundae 002,9.04,9.61,0.5700000000000003,ice cream sundae 002,217,217,217,True,i,43989,732,1669834249181,732,HRV,HRV_0163,2022-11-30 18:53:16
42,"[{'imgObject': {}, 'id': 'roastedpotatoes', 'src': '/static/foodstim60/roastedpotatoes.jpg', 'key': 'u', 'origWidth': 409, 'origHeight': 410, 'width': 409, 'height': 410, 'widthPercent': 0.45, 'rescaleHeight': False, 'trialN': 42, 'loaded': True, 'loadedTime': 4379, 'positionName': 'LEFT', 'positionCoords': [246.68, 179], 'bid': 9.33}, {'imgObject': {}, 'id': 'fruitsalad', 'src': '/static/foodstim60/fruitsalad.jpg', 'key': 'i', 'origWidth': 410, 'origHeight': 410, 'width': 410, 'height': 410, 'widthPercent': 0.45, 'rescaleHeight': False, 'trialN': 42, 'loaded': True, 'loadedTime': 3917, 'positionName': 'RIGHT', 'positionCoords': [710.32, 179], 'bid': 9.72}]",43989,1669834249181,roastedpotatoes,fruitsalad,9.33,9.72,0.39000000000000057,fruitsalad,281,281,281,True,i,44784,795,1669834249976,795,HRV,HRV_0163,2022-11-30 18:53:16
43,"[{'imgObject': {}, 'id': 'sweetpotato', 'src': '/static/foodstim60/sweetpotato.jpg', 'key': 'u', 'origWidth': 410, 'origHeight': 410, 'width': 410, 'height': 410, 'widthPercent': 0.45, 'rescaleHeight': False, 'trialN': 43, 'loaded': True, 'loadedTime': 4170, 'positionName': 'LEFT', 'positionCoords': [245.68, 179], 'bid': 9.04}, {'imgObject': {}, 'id': 'turkey sandwich', 'src': '/static/foodstim60/turkey sandwich.jpg', 'key': 'i', 'origWidth': 409, 'origHeight': 409, 'width': 409, 'height': 409, 'widthPercent': 0.45, 'rescaleHeight': False, 'trialN': 43, 'loaded': True, 'loadedTime': 3933, 'positionName': 'RIGHT', 'positionCoords': [710.32, 179.5], 'bid': 9.2}]",44784,1669834249976,sweetpotato,turkey sandwich,9.04,9.2,0.16000000000000014,turkey sandwich,225,225,225,True,i,45521,737,1669834250713,737,HRV,HRV_0163,2022-11-30 18:53:16
44,"[{'imgObject': {}, 'id': 'hashbrowns', 'src': '/static/foodstim60/hashbrowns.jpg', 'key': 'u', 'origWidth': 411, 'origHeight': 410, 'width': 411, 'height': 410, 'widthPercent': 0.45, 'rescaleHeight': False, 'trialN': 44, 'loaded': True, 'loadedTime': 4061, 'positionName': 'LEFT', 'positionCoords': [244.68, 179], 'bid': 9.55}, {'imgObject': {}, 'id': 'eggs', 'src': '/static/foodstim60/eggs.jpg', 'key': 'i', 'origWidth': 409, 'origHeight': 409, 'width': 409, 'height': 409, 'widthPercent': 0.45, 'rescaleHeight': False, 'trialN': 44, 'loaded': True, 'loadedTime': 4155, 'positionName': 'RIGHT', 'positionCoords': [710.32, 179.5], 'bid': 9.74}]",45521,1669834250713,hashbrowns,eggs,9.55,9.74,0.1899999999999995,eggs,221,221,221,True,i,46255,734,1669834251447,734,HRV,HRV_0163,2022-11-30 18:53:16
45,"[{'imgObject': {}, 'id': 'chickenfingers', 'src': '/static/foodstim60/chickenfingers.jpg', 'key': 'u', 'origWidth': 410, 'origHeight': 410, 'width': 410, 'height': 410, 'widthPercent': 0.45, 'rescaleHeight': False, 'trialN': 45, 'loaded': True, 'loadedTime': 4253, 'positionName': 'LEFT', 'positionCoords': [245.68, 179], 'bid': 4.73}, {'imgObject': {}, 'id': 'yogurt no spoon', 'src': '/static/foodstim60/yogurt no spoon.jpg', 'key': 'i', 'origWidth': 411, 'origHeight': 410, 'width': 411, 'height': 410, 'widthPercent': 0.45, 'rescaleHeight': False, 'trialN': 45, 'loaded': True, 'loadedTime': 4379, 'positionName': 'RIGHT', 'positionCoords': [710.32, 179], 'bid': 9.12}]",46255,1669834251447,chickenfingers,yogurt no spoon,4.73,9.12,4.389999999999999,yogurt no spoon,250,250,250,True,i,47021,766,1669834252213,766,HRV,HRV_0163,2022-11-30 18:53:16
46,"[{'imgObject': {}, 'id': 'sushi w_condiments', 'src': '/static/foodstim60/sushi w_condiments.jpg', 'key': 'u', 'origWidth': 410, 'origHeight': 410, 'width': 410, 'height': 410, 'widthPercent': 0.45, 'rescaleHeight': False, 'trialN': 46, 'loaded': True, 'loadedTime': 4379, 'positionName': 'LEFT', 'positionCoords': [245.68, 179], 'bid': 4.66}, {'imgObject': {}, 'id': 'burrito', 'src': '/static/foodstim60/burrito.jpg', 'key': 'i', 'origWidth': 410, 'origHeight': 410, 'width': 410, 'height': 410, 'widthPercent': 0.45, 'rescaleHeight': False, 'trialN': 46, 'loaded': True, 'loadedTime': 4394, 'positionName': 'RIGHT', 'positionCoords': [710.32, 179], 'bid': 4.75}]",47021,1669834252213,sushi w_condiments,burrito,4.66,4.75,0.08999999999999986,burrito,238,238,238,True,i,47773,752,1669834252965,752,HRV,HRV_0163,2022-11-30 18:53:16
47,"[{'imgObject': {}, 'id': 'fried eggs', 'src': '/static/foodstim60/fried eggs.jpg', 'key': 'u', 'origWidth': 410, 'origHeight': 410, 'width': 410, 'height': 410, 'widthPercent': 0.45, 'rescaleHeight': False, 'trialN': 47, 'loaded': True, 'loadedTime': 4410, 'positionName': 'LEFT', 'positionCoords': [245.68, 179], 'bid': 5.19}, {'imgObject': {}, 'id': 'burger', 'src': '/static/foodstim60/burger.jpg', 'key': 'i', 'origWidth': 409, 'origHeight': 409, 'width': 409, 'height': 409, 'widthPercent': 0.45, 'rescaleHeight': False, 'trialN': 47, 'loaded': True, 'loadedTime': 4061, 'positionName': 'RIGHT', 'positionCoords': [710.32, 179.5], 'bid': 8.08}]",47773,1669834252965,fried eggs,burger,5.19,8.08,2.8899999999999997,burger,421,421,421,True,i,48706,933,1669834253898,933,HRV,HRV_0163,2022-11-30 18:53:16
48,"[{'imgObject': {}, 'id': 'yogurt no spoon', 'src': '/static/foodstim60/yogurt no spoon.jpg', 'key': 'u', 'origWidth': 411, 'origHeight': 410, 'width': 411, 'height': 410, 'widthPercent': 0.45, 'rescaleHeight': False, 'trialN': 48, 'loaded': True, 'loadedTime': 4379, 'positionName': 'LEFT', 'positionCoords': [244.68, 179], 'bid': 9.12}, {'imgObject': {}, 'id': 'hashbrowns', 'src': '/static/foodstim60/hashbrowns.jpg', 'key': 'i', 'origWidth': 411, 'origHeight': 410, 'width': 411, 'height': 410, 'widthPercent': 0.45, 'rescaleHeight': False, 'trialN': 48, 'loaded': True, 'loadedTime': 4077, 'positionName': 'RIGHT', 'positionCoords': [710.32, 179], 'bid': 9.55}]",48706,1669834253898,yogurt no spoon,hashbrowns,9.12,9.55,0.4300000000000015,yogurt no spoon,457,457,457,True,u,49688,982,1669834254880,982,HRV,HRV_0163,2022-11-30 18:53:16
49,"[{'imgObject': {}, 'id': 'banana', 'src': '/static/foodstim60/banana.jpg', 'key': 'u', 'origWidth': 410, 'origHeight': 410, 'width': 410, 'height': 410, 'widthPercent': 0.45, 'rescaleHeight': False, 'trialN': 49, 'loaded': True, 'loadedTime': 3933, 'positionName': 'LEFT', 'positionCoords': [245.68, 179], 'bid': 9.17}, {'imgObject': {}, 'id': 'yogurt no spoon', 'src': '/static/foodstim60/yogurt no spoon.jpg', 'key': 'i', 'origWidth': 411, 'origHeight': 410, 'width': 411, 'height': 410, 'widthPercent': 0.45, 'rescaleHeight': False, 'trialN': 49, 'loaded': True, 'loadedTime': 4379, 'positionName': 'RIGHT', 'positionCoords': [710.32, 179], 'bid': 9.12}]",49688,1669834254880,banana,yogurt no spoon,9.17,9.12,-0.05000000000000071,yogurt no spoon,693,693,693,True,i,50891,1203,1669834256083,1203,HRV,HRV_0163,2022-11-30 18:53:16
50,"[{'imgObject': {}, 'id': 'luckycharms', 'src': '/static/foodstim60/luckycharms.jpg', 'key': 'u', 'origWidth': 410, 'origHeight': 409, 'width': 410, 'height': 409, 'widthPercent': 0.45, 'rescaleHeight': False, 'trialN': 50, 'loaded': True, 'loadedTime': 4269, 'positionName': 'LEFT', 'positionCoords': [245.68, 179.5], 'bid': 9.5}, {'imgObject': {}, 'id': 'Grapes', 'src': '/static/foodstim60/Grapes.jpg', 'key': 'i', 'origWidth': 411, 'origHeight': 411, 'width': 411, 'height': 411, 'widthPercent': 0.45, 'rescaleHeight': False, 'trialN': 50, 'loaded': True, 'loadedTime': 3964, 'positionName': 'RIGHT', 'positionCoords': [710.32, 178.5], 'bid': 8.77}]",50891,1669834256083,luckycharms,Grapes,9.5,8.77,-0.7300000000000004,Grapes,154,154,154,True,i,51574,683,1669834256766,683,HRV,HRV_0163,2022-11-30 18:53:16
51,"[{'imgObject': {}, 'id': 'froot loops w milk', 'src': '/static/foodstim60/froot loops w milk.jpg', 'key': 'u', 'origWidth': 410, 'origHeight': 410, 'width': 410, 'height': 410, 'widthPercent': 0.45, 'rescaleHeight': False, 'trialN': 51, 'loaded': True, 'loadedTime': 4410, 'positionName': 'LEFT', 'positionCoords': [245.68, 179], 'bid': 3.81}, {'imgObject': {}, 'id': 'cheerios', 'src': '/static/foodstim60/cheerios.jpg', 'key': 'i', 'origWidth': 409, 'origHeight': 410, 'width': 409, 'height': 410, 'widthPercent': 0.45, 'rescaleHeight': False, 'trialN': 51, 'loaded': True, 'loadedTime': 3733, 'positionName': 'RIGHT', 'positionCoords': [710.32, 179], 'bid': 4.03}]",51574,1669834256766,froot loops w milk,cheerios,3.81,4.03,0.2200000000000002,cheerios,139,139,139,True,i,52224,650,1669834257416,650,HRV,HRV_0163,2022-11-30 18:53:16
52,"[{'imgObject': {}, 'id': 'sweetpotato', 'src': '/static/foodstim60/sweetpotato.jpg', 'key': 'u', 'origWidth': 410, 'origHeight': 410, 'width': 410, 'height': 410, 'widthPercent': 0.45, 'rescaleHeight': False, 'trialN': 52, 'loaded': True, 'loadedTime': 4170, 'positionName': 'LEFT', 'positionCoords': [245.68, 179], 'bid': 9.04}, {'imgObject': {}, 'id': 'mango', 'src': '/static/foodstim60/mango.jpg', 'key': 'i', 'origWidth': 411, 'origHeight': 411, 'width': 411, 'height': 411, 'widthPercent': 0.45, 'rescaleHeight': False, 'trialN': 52, 'loaded': True, 'loadedTime': 4426, 'positionName': 'RIGHT', 'positionCoords': [710.32, 178.5], 'bid': 9.11}]",52224,1669834257416,sweetpotato,mango,9.04,9.11,0.07000000000000028,sweetpotato,736,736,736,True,u,53472,1248,1669834258664,1248,HRV,HRV_0163,2022-11-30 18:53:16
53,"[{'imgObject': {}, 'id': 'bagel and cc', 'src': '/static/foodstim60/bagel and cc.jpg', 'key': 'u', 'origWidth': 410, 'origHeight': 410, 'width': 410, 'height': 410, 'widthPercent': 0.45, 'rescaleHeight': False, 'trialN': 53, 'loaded': True, 'loadedTime': 4269, 'positionName': 'LEFT', 'positionCoords': [245.68, 179], 'bid': 6.49}, {'imgObject': {}, 'id': 'chicken nuggets2', 'src': '/static/foodstim60/chicken nuggets2.jpg', 'key': 'i', 'origWidth': 410, 'origHeight': 409, 'width': 410, 'height': 409, 'widthPercent': 0.45, 'rescaleHeight': False, 'trialN': 53, 'loaded': True, 'loadedTime': 3866, 'positionName': 'RIGHT', 'positionCoords': [710.32, 179.5], 'bid': 6.22}]",53472,1669834258664,bagel and cc,chicken nuggets2,6.49,6.22,-0.27000000000000046,bagel and cc,190,190,190,True,u,54172,700,1669834259364,700,HRV,HRV_0163,2022-11-30 18:53:16
54,"[{'imgObject': {}, 'id': 'omelette', 'src': '/static/foodstim60/omelette.jpg', 'key': 'u', 'origWidth': 410, 'origHeight': 409, 'width': 410, 'height': 409, 'widthPercent': 0.45, 'rescaleHeight': False, 'trialN': 54, 'loaded': True, 'loadedTime': 4316, 'positionName': 'LEFT', 'positionCoords': [245.68, 179.5], 'bid': 7.29}, {'imgObject': {}, 'id': 'raspberries', 'src': '/static/foodstim60/raspberries.jpg', 'key': 'i', 'origWidth': 411, 'origHeight': 411, 'width': 411, 'height': 411, 'widthPercent': 0.45, 'rescaleHeight': False, 'trialN': 54, 'loaded': True, 'loadedTime': 4254, 'positionName': 'RIGHT', 'positionCoords': [710.32, 178.5], 'bid': 6.8}]",54172,1669834259364,omelette,raspberries,7.29,6.8,-0.4900000000000002,raspberries,113,113,113,True,i,54789,617,1669834259981,617,HRV,HRV_0163,2022-11-30 18:53:16
55,"[{'imgObject': {}, 'id': 'luckycharms', 'src': '/static/foodstim60/luckycharms.jpg', 'key': 'u', 'origWidth': 410, 'origHeight': 409, 'width': 410, 'height': 409, 'widthPercent': 0.45, 'rescaleHeight': False, 'trialN': 55, 'loaded': True, 'loadedTime': 4269, 'positionName': 'LEFT', 'positionCoords': [245.68, 179.5], 'bid': 9.5}, {'imgObject': {}, 'id': 'fruitsalad', 'src': '/static/foodstim60/fruitsalad.jpg', 'key': 'i', 'origWidth': 410, 'origHeight': 410, 'width': 410, 'height': 410, 'widthPercent': 0.45, 'rescaleHeight': False, 'trialN': 55, 'loaded': True, 'loadedTime': 3917, 'positionName': 'RIGHT', 'positionCoords': [710.32, 179], 'bid': 9.72}]",54790,1669834259982,luckycharms,fruitsalad,9.5,9.72,0.22000000000000064,luckycharms,139,139,139,True,u,55440,650,1669834260632,650,HRV,HRV_0163,2022-11-30 18:53:16
56,"[{'imgObject': {}, 'id': 'cocktailshrimp', 'src': '/static/foodstim60/cocktailshrimp.jpg', 'key': 'u', 'origWidth': 410, 'origHeight': 410, 'width': 410, 'height': 410, 'widthPercent': 0.45, 'rescaleHeight': False, 'trialN': 56, 'loaded': True, 'loadedTime': 4316, 'positionName': 'LEFT', 'positionCoords': [245.68, 179], 'bid': 8.71}, {'imgObject': {}, 'id': 'corn cob', 'src': '/static/foodstim60/corn cob.jpg', 'key': 'i', 'origWidth': 411, 'origHeight': 411, 'width': 411, 'height': 411, 'widthPercent': 0.45, 'rescaleHeight': False, 'trialN': 56, 'loaded': True, 'loadedTime': 3996, 'positionName': 'RIGHT', 'positionCoords': [710.32, 178.5], 'bid': 9.49}]",55440,1669834260632,cocktailshrimp,corn cob,8.71,9.49,0.7799999999999994,cocktailshrimp,156,156,156,True,u,56116,676,1669834261308,676,HRV,HRV_0163,2022-11-30 18:53:16
57,"[{'imgObject': {}, 'id': 'avocado', 'src': '/static/foodstim60/avocado.jpg', 'key': 'u', 'origWidth': 409, 'origHeight': 409, 'width': 409, 'height': 409, 'widthPercent': 0.45, 'rescaleHeight': False, 'trialN': 57, 'loaded': True, 'loadedTime': 4426, 'positionName': 'LEFT', 'positionCoords': [246.68, 179.5], 'bid': 8.41}, {'imgObject': {}, 'id': 'kiwi', 'src': '/static/foodstim60/kiwi.jpg', 'key': 'i', 'origWidth': 410, 'origHeight': 410, 'width': 410, 'height': 410, 'widthPercent': 0.45, 'rescaleHeight': False, 'trialN': 57, 'loaded': True, 'loadedTime': 4269, 'positionName': 'RIGHT', 'positionCoords': [710.32, 179], 'bid': 9.81}]",56116,1669834261308,avocado,kiwi,8.41,9.81,1.4000000000000004,kiwi,177,177,177,True,i,56801,685,1669834261993,685,HRV,HRV_0163,2022-11-30 18:53:16
58,"[{'imgObject': {}, 'id': 'cantaloupe', 'src': '/static/foodstim60/cantaloupe.jpg', 'key': 'u', 'origWidth': 409, 'origHeight': 409, 'width': 409, 'height': 409, 'widthPercent': 0.45, 'rescaleHeight': False, 'trialN': 58, 'loaded': True, 'loadedTime': 4027, 'positionName': 'LEFT', 'positionCoords': [246.68, 179.5], 'bid': 9.24}, {'imgObject': {}, 'id': 'bagel plain', 'src': '/static/foodstim60/bagel plain.jpg', 'key': 'i', 'origWidth': 410, 'origHeight': 410, 'width': 410, 'height': 410, 'widthPercent': 0.45, 'rescaleHeight': False, 'trialN': 58, 'loaded': True, 'loadedTime': 4155, 'positionName': 'RIGHT', 'positionCoords': [710.32, 179], 'bid': 9.39}]",56802,1669834261994,cantaloupe,bagel plain,9.24,9.39,0.15000000000000036,bagel plain,26,26,26,True,i,57339,537,1669834262531,537,HRV,HRV_0163,2022-11-30 18:53:16
59,"[{'imgObject': {}, 'id': 'yogurt no spoon', 'src': '/static/foodstim60/yogurt no spoon.jpg', 'key': 'u', 'origWidth': 411, 'origHeight': 410, 'width': 411, 'height': 410, 'widthPercent': 0.45, 'rescaleHeight': False, 'trialN': 59, 'loaded': True, 'loadedTime': 4379, 'positionName': 'LEFT', 'positionCoords': [244.68, 179], 'bid': 9.12}, {'imgObject': {}, 'id': 'salad w chicken', 'src': '/static/foodstim60/salad w chicken.jpg', 'key': 'i', 'origWidth': 411, 'origHeight': 411, 'width': 411, 'height': 411, 'widthPercent': 0.45, 'rescaleHeight': False, 'trialN': 59, 'loaded': True, 'loadedTime': 4124, 'positionName': 'RIGHT', 'positionCoords': [710.32, 178.5], 'bid': 9.15}]",57339,1669834262531,yogurt no spoon,salad w chicken,9.12,9.15,0.030000000000001137,salad w chicken,36,36,36,True,i,57880,541,1669834263072,541,HRV,HRV_0163,2022-11-30 18:53:16
60,"[{'imgObject': {}, 'id': 'blueberries', 'src': '/static/foodstim60/blueberries.jpg', 'key': 'u', 'origWidth': 411, 'origHeight': 411, 'width': 411, 'height': 411, 'widthPercent': 0.45, 'rescaleHeight': False, 'trialN': 60, 'loaded': True, 'loadedTime': 4011, 'positionName': 'LEFT', 'positionCoords': [244.68, 178.5], 'bid': 9.69}, {'imgObject': {}, 'id': 'fruitsalad', 'src': '/static/foodstim60/fruitsalad.jpg', 'key': 'i', 'origWidth': 410, 'origHeight': 410, 'width': 410, 'height': 410, 'widthPercent': 0.45, 'rescaleHeight': False, 'trialN': 60, 'loaded': True, 'loadedTime': 3917, 'positionName': 'RIGHT', 'positionCoords': [710.32, 179], 'bid': 9.72}]",57880,1669834263072,blueberries,fruitsalad,9.69,9.72,0.030000000000001137,blueberries,54,55,55,True,u,58437,557,1669834263629,557,HRV,HRV_0163,2022-11-30 18:53:16
61,"[{'imgObject': {}, 'id': 'ice cream sundae 002', 'src': '/static/foodstim60/ice cream sundae 002.jpg', 'key': 'u', 'origWidth': 409, 'origHeight': 409, 'width': 409, 'height': 409, 'widthPercent': 0.45, 'rescaleHeight': False, 'trialN': 61, 'loaded': True, 'loadedTime': 4348, 'positionName': 'LEFT', 'positionCoords': [246.68, 179.5], 'bid': 9.61}, {'imgObject': {}, 'id': 'lox', 'src': '/static/foodstim60/lox.jpg', 'key': 'i', 'origWidth': 410, 'origHeight': 411, 'width': 410, 'height': 411, 'widthPercent': 0.45, 'rescaleHeight': False, 'trialN': 61, 'loaded': True, 'loadedTime': 3917, 'positionName': 'RIGHT', 'positionCoords': [710.32, 178.5], 'bid': 9.61}]",58437,1669834263629,ice cream sundae 002,lox,9.61,9.61,0.0,ice cream sundae 002,72,72,72,True,u,59020,583,1669834264212,583,HRV,HRV_0163,2022-11-30 18:53:16
62,"[{'imgObject': {}, 'id': 'rigatoni', 'src': '/static/foodstim60/rigatoni.jpg', 'key': 'u', 'origWidth': 411, 'origHeight': 411, 'width': 411, 'height': 411, 'widthPercent': 0.45, 'rescaleHeight': False, 'trialN': 62, 'loaded': True, 'loadedTime': 4488, 'positionName': 'LEFT', 'positionCoords': [244.68, 178.5], 'bid': 9.4}, {'imgObject': {}, 'id': 'bagel plain', 'src': '/static/foodstim60/bagel plain.jpg', 'key': 'i', 'origWidth': 410, 'origHeight': 410, 'width': 410, 'height': 410, 'widthPercent': 0.45, 'rescaleHeight': False, 'trialN': 62, 'loaded': True, 'loadedTime': 4155, 'positionName': 'RIGHT', 'positionCoords': [710.32, 179], 'bid': 9.39}]",59020,1669834264212,rigatoni,bagel plain,9.4,9.39,-0.009999999999999787,rigatoni,64,64,64,True,u,59605,585,1669834264797,585,HRV,HRV_0163,2022-11-30 18:53:16
63,"[{'imgObject': {}, 'id': 'sweetpotato', 'src': '/static/foodstim60/sweetpotato.jpg', 'key': 'u', 'origWidth': 410, 'origHeight': 410, 'width': 410, 'height': 410, 'widthPercent': 0.45, 'rescaleHeight': False, 'trialN': 63, 'loaded': True, 'loadedTime': 4170, 'positionName': 'LEFT', 'positionCoords': [245.68, 179], 'bid': 9.04}, {'imgObject': {}, 'id': 'burger', 'src': '/static/foodstim60/burger.jpg', 'key': 'i', 'origWidth': 409, 'origHeight': 409, 'width': 409, 'height': 409, 'widthPercent': 0.45, 'rescaleHeight': False, 'trialN': 63, 'loaded': True, 'loadedTime': 4061, 'positionName': 'RIGHT', 'positionCoords': [710.32, 179.5], 'bid': 8.08}]",59605,1669834264797,sweetpotato,burger,9.04,8.08,-0.9599999999999991,sweetpotato,95,95,95,True,u,60226,621,1669834265418,621,HRV,HRV_0163,2022-11-30 18:53:16
64,"[{'imgObject': {}, 'id': 'salmon', 'src': '/static/foodstim60/salmon.jpg', 'key': 'u', 'origWidth': 410, 'origHeight': 409, 'width': 410, 'height': 409, 'widthPercent': 0.45, 'rescaleHeight': False, 'trialN': 64, 'loaded': True, 'loadedTime': 4332, 'positionName': 'LEFT', 'positionCoords': [245.68, 179.5], 'bid': 5.74}, {'imgObject': {}, 'id': 'raspberries', 'src': '/static/foodstim60/raspberries.jpg', 'key': 'i', 'origWidth': 411, 'origHeight': 411, 'width': 411, 'height': 411, 'widthPercent': 0.45, 'rescaleHeight': False, 'trialN': 64, 'loaded': True, 'loadedTime': 4254, 'positionName': 'RIGHT', 'positionCoords': [710.32, 178.5], 'bid': 6.8}]",60226,1669834265418,salmon,raspberries,5.74,6.8,1.0599999999999996,salmon,14,15,15,True,u,60748,522,1669834265940,522,HRV,HRV_0163,2022-11-30 18:53:16
65,"[{'imgObject': {}, 'id': 'popsicles', 'src': '/static/foodstim60/popsicles.jpg', 'key': 'u', 'origWidth': 410, 'origHeight': 410, 'width': 410, 'height': 410, 'widthPercent': 0.45, 'rescaleHeight': False, 'trialN': 65, 'loaded': True, 'loadedTime': 4551, 'positionName': 'LEFT', 'positionCoords': [245.68, 179], 'bid': 6.93}, {'imgObject': {}, 'id': 'ice cream sundae 002', 'src': '/static/foodstim60/ice cream sundae 002.jpg', 'key': 'i', 'origWidth': 409, 'origHeight': 409, 'width': 409, 'height': 409, 'widthPercent': 0.45, 'rescaleHeight': False, 'trialN': 65, 'loaded': True, 'loadedTime': 4332, 'positionName': 'RIGHT', 'positionCoords': [710.32, 179.5], 'bid': 9.61}]",60748,1669834265940,popsicles,ice cream sundae 002,6.93,9.61,2.6799999999999997,ice cream sundae 002,36,37,37,True,i,61289,541,1669834266481,541,HRV,HRV_0163,2022-11-30 18:53:16
66,"[{'imgObject': {}, 'id': 'chickenfingers', 'src': '/static/foodstim60/chickenfingers.jpg', 'key': 'u', 'origWidth': 410, 'origHeight': 410, 'width': 410, 'height': 410, 'widthPercent': 0.45, 'rescaleHeight': False, 'trialN': 66, 'loaded': True, 'loadedTime': 4235, 'positionName': 'LEFT', 'positionCoords': [245.68, 179], 'bid': 4.73}, {'imgObject': {}, 'id': 'mac & cheese', 'src': '/static/foodstim60/mac & cheese.jpg', 'key': 'i', 'origWidth': 410, 'origHeight': 410, 'width': 410, 'height': 410, 'widthPercent': 0.45, 'rescaleHeight': False, 'trialN': 66, 'loaded': True, 'loadedTime': 4301, 'positionName': 'RIGHT', 'positionCoords': [710.32, 179], 'bid': 4.59}]",61289,1669834266481,chickenfingers,mac & cheese,4.73,4.59,-0.14000000000000057,mac & cheese,255,255,255,True,i,62061,772,1669834267253,772,HRV,HRV_0163,2022-11-30 18:53:16
67,"[{'imgObject': {}, 'id': 'seaweed', 'src': '/static/foodstim60/seaweed.jpg', 'key': 'u', 'origWidth': 410, 'origHeight': 410, 'width': 410, 'height': 410, 'widthPercent': 0.45, 'rescaleHeight': False, 'trialN': 67, 'loaded': True, 'loadedTime': 4108, 'positionName': 'LEFT', 'positionCoords': [245.68, 179], 'bid': 5.67}, {'imgObject': {}, 'id': 'salmon', 'src': '/static/foodstim60/salmon.jpg', 'key': 'i', 'origWidth': 410, 'origHeight': 409, 'width': 410, 'height': 409, 'widthPercent': 0.45, 'rescaleHeight': False, 'trialN': 67, 'loaded': True, 'loadedTime': 4332, 'positionName': 'RIGHT', 'positionCoords': [710.32, 179.5], 'bid': 5.74}]",62061,1669834267253,seaweed,salmon,5.67,5.74,0.07000000000000028,salmon,400,400,400,True,i,62975,914,1669834268167,914,HRV,HRV_0163,2022-11-30 18:53:16
68,"[{'imgObject': {}, 'id': 'chickenfingers', 'src': '/static/foodstim60/chickenfingers.jpg', 'key': 'u', 'origWidth': 410, 'origHeight': 410, 'width': 410, 'height': 410, 'widthPercent': 0.45, 'rescaleHeight': False, 'trialN': 68, 'loaded': True, 'loadedTime': 4253, 'positionName': 'LEFT', 'positionCoords': [245.68, 179], 'bid': 4.73}, {'imgObject': {}, 'id': 'edamame', 'src': '/static/foodstim60/edamame.jpg', 'key': 'i', 'origWidth': 409, 'origHeight': 410, 'width': 409, 'height': 410, 'widthPercent': 0.45, 'rescaleHeight': False, 'trialN': 68, 'loaded': True, 'loadedTime': 4061, 'positionName': 'RIGHT', 'positionCoords': [710.32, 179], 'bid': 7.79}]",62975,1669834268167,chickenfingers,edamame,4.73,7.79,3.0599999999999996,edamame,326,326,326,True,i,63806,831,1669834268998,831,HRV,HRV_0163,2022-11-30 18:53:16
69,"[{'imgObject': {}, 'id': 'hotdog w must', 'src': '/static/foodstim60/hotdog w must.jpg', 'key': 'u', 'origWidth': 409, 'origHeight': 409, 'width': 409, 'height': 409, 'widthPercent': 0.45, 'rescaleHeight': False, 'trialN': 69, 'loaded': True, 'loadedTime': 4519, 'positionName': 'LEFT', 'positionCoords': [246.68, 179.5], 'bid': 7.7}, {'imgObject': {}, 'id': 'sushi w_condiments', 'src': '/static/foodstim60/sushi w_condiments.jpg', 'key': 'i', 'origWidth': 410, 'origHeight': 410, 'width': 410, 'height': 410, 'widthPercent': 0.45, 'rescaleHeight': False, 'trialN': 69, 'loaded': True, 'loadedTime': 4394, 'positionName': 'RIGHT', 'positionCoords': [710.32, 179], 'bid': 4.66}]",63806,1669834268998,hotdog w must,sushi w_condiments,7.7,4.66,-3.04,sushi w_condiments,484,484,484,True,i,64797,991,1669834269989,991,HRV,HRV_0163,2022-11-30 18:53:16
70,"[{'imgObject': {}, 'id': 'olives', 'src': '/static/foodstim60/olives.jpg', 'key': 'u', 'origWidth': 410, 'origHeight': 410, 'width': 410, 'height': 410, 'widthPercent': 0.45, 'rescaleHeight': False, 'trialN': 70, 'loaded': True, 'loadedTime': 4202, 'positionName': 'LEFT', 'positionCoords': [245.68, 179], 'bid': 3.24}, {'imgObject': {}, 'id': 'orange slices', 'src': '/static/foodstim60/orange slices.jpg', 'key': 'i', 'origWidth': 409, 'origHeight': 410, 'width': 409, 'height': 410, 'widthPercent': 0.45, 'rescaleHeight': False, 'trialN': 70, 'loaded': True, 'loadedTime': 4301, 'positionName': 'RIGHT', 'positionCoords': [710.32, 179], 'bid': 2.4}]",64797,1669834269989,olives,orange slices,3.24,2.4,-0.8400000000000003,orange slices,276,276,276,True,i,65588,791,1669834270780,791,HRV,HRV_0163,2022-11-30 18:53:16
71,"[{'imgObject': {}, 'id': 'burrito', 'src': '/static/foodstim60/burrito.jpg', 'key': 'u', 'origWidth': 410, 'origHeight': 410, 'width': 410, 'height': 410, 'widthPercent': 0.45, 'rescaleHeight': False, 'trialN': 71, 'loaded': True, 'loadedTime': 4410, 'positionName': 'LEFT', 'positionCoords': [245.68, 179], 'bid': 4.75}, {'imgObject': {}, 'id': 'chickenfingers', 'src': '/static/foodstim60/chickenfingers.jpg', 'key': 'i', 'origWidth': 410, 'origHeight': 410, 'width': 410, 'height': 410, 'widthPercent': 0.45, 'rescaleHeight': False, 'trialN': 71, 'loaded': True, 'loadedTime': 4250, 'positionName': 'RIGHT', 'positionCoords': [710.32, 179], 'bid': 4.73}]",65588,1669834270780,burrito,chickenfingers,4.75,4.73,-0.019999999999999574,chickenfingers,140,140,140,True,i,66240,652,1669834271432,652,HRV,HRV_0163,2022-11-30 18:53:16
72,"[{'imgObject': {}, 'id': 'cherries', 'src': '/static/foodstim60/cherries.jpg', 'key': 'u', 'origWidth': 410, 'origHeight': 411, 'width': 410, 'height': 411, 'widthPercent': 0.45, 'rescaleHeight': False, 'trialN': 72, 'loaded': True, 'loadedTime': 4224, 'positionName': 'LEFT', 'positionCoords': [245.68, 178.5], 'bid': 8.64}, {'imgObject': {}, 'id': 'cocktailshrimp', 'src': '/static/foodstim60/cocktailshrimp.jpg', 'key': 'i', 'origWidth': 410, 'origHeight': 410, 'width': 410, 'height': 410, 'widthPercent': 0.45, 'rescaleHeight': False, 'trialN': 72, 'loaded': True, 'loadedTime': 4316, 'positionName': 'RIGHT', 'positionCoords': [710.32, 179], 'bid': 8.71}]",66240,1669834271432,cherries,cocktailshrimp,8.64,8.71,0.07000000000000028,cherries,17,18,18,True,u,66783,543,1669834271975,543,HRV,HRV_0163,2022-11-30 18:53:16
73,"[{'imgObject': {}, 'id': 'avocado', 'src': '/static/foodstim60/avocado.jpg', 'key': 'u', 'origWidth': 409, 'origHeight': 409, 'width': 409, 'height': 409, 'widthPercent': 0.45, 'rescaleHeight': False, 'trialN': 73, 'loaded': True, 'loadedTime': 4441, 'positionName': 'LEFT', 'positionCoords': [246.68, 179.5], 'bid': 8.41}, {'imgObject': {}, 'id': 'mango', 'src': '/static/foodstim60/mango.jpg', 'key': 'i', 'origWidth': 411, 'origHeight': 411, 'width': 411, 'height': 411, 'widthPercent': 0.45, 'rescaleHeight': False, 'trialN': 73, 'loaded': True, 'loadedTime': 4410, 'positionName': 'RIGHT', 'positionCoords': [710.32, 178.5], 'bid': 9.11}]",66783,1669834271975,avocado,mango,8.41,9.11,0.6999999999999993,avocado,927,927,927,True,u,68226,1443,1669834273418,1443,HRV,HRV_0163,2022-11-30 18:53:16
74,"[{'imgObject': {}, 'id': 'omelette', 'src': '/static/foodstim60/omelette.jpg', 'key': 'u', 'origWidth': 410, 'origHeight': 409, 'width': 410, 'height': 409, 'widthPercent': 0.45, 'rescaleHeight': False, 'trialN': 74, 'loaded': True, 'loadedTime': 4316, 'positionName': 'LEFT', 'positionCoords': [245.68, 179.5], 'bid': 7.29}, {'imgObject': {}, 'id': 'mac & cheese', 'src': '/static/foodstim60/mac & cheese.jpg', 'key': 'i', 'origWidth': 410, 'origHeight': 410, 'width': 410, 'height': 410, 'widthPercent': 0.45, 'rescaleHeight': False, 'trialN': 74, 'loaded': True, 'loadedTime': 4301, 'positionName': 'RIGHT', 'positionCoords': [710.32, 179], 'bid': 4.59}]",68226,1669834273418,omelette,mac & cheese,7.29,4.59,-2.7,omelette,339,339,339,True,u,69084,858,1669834274276,858,HRV,HRV_0163,2022-11-30 18:53:16
75,"[{'imgObject': {}, 'id': 'bagel and cc', 'src': '/static/foodstim60/bagel and cc.jpg', 'key': 'u', 'origWidth': 410, 'origHeight': 410, 'width': 410, 'height': 410, 'widthPercent': 0.45, 'rescaleHeight': False, 'trialN': 75, 'loaded': True, 'loadedTime': 4269, 'positionName': 'LEFT', 'positionCoords': [245.68, 179], 'bid': 6.49}, {'imgObject': {}, 'id': 'luckycharms', 'src': '/static/foodstim60/luckycharms.jpg', 'key': 'i', 'origWidth': 410, 'origHeight': 409, 'width': 410, 'height': 409, 'widthPercent': 0.45, 'rescaleHeight': False, 'trialN': 75, 'loaded': True, 'loadedTime': 4269, 'positionName': 'RIGHT', 'positionCoords': [710.32, 179.5], 'bid': 9.5}]",69084,1669834274276,bagel and cc,luckycharms,6.49,9.5,3.01,bagel and cc,42,43,43,True,u,69638,554,1669834274830,554,HRV,HRV_0163,2022-11-30 18:53:16
76,"[{'imgObject': {}, 'id': 'yogurt no spoon', 'src': '/static/foodstim60/yogurt no spoon.jpg', 'key': 'u', 'origWidth': 411, 'origHeight': 410, 'width': 411, 'height': 410, 'widthPercent': 0.45, 'rescaleHeight': False, 'trialN': 76, 'loaded': True, 'loadedTime': 4379, 'positionName': 'LEFT', 'positionCoords': [244.68, 179], 'bid': 9.12}, {'imgObject': {}, 'id': 'bagel plain', 'src': '/static/foodstim60/bagel plain.jpg', 'key': 'i', 'origWidth': 410, 'origHeight': 410, 'width': 410, 'height': 410, 'widthPercent': 0.45, 'rescaleHeight': False, 'trialN': 76, 'loaded': True, 'loadedTime': 4155, 'positionName': 'RIGHT', 'positionCoords': [710.32, 179], 'bid': 9.39}]",69641,1669834274833,yogurt no spoon,bagel plain,9.12,9.39,0.27000000000000135,yogurt no spoon,286,286,286,True,u,70454,813,1669834275646,813,HRV,HRV_0163,2022-11-30 18:53:16
77,"[{'imgObject': {}, 'id': 'strawberries', 'src': '/static/foodstim60/strawberries.jpg', 'key': 'u', 'origWidth': 410, 'origHeight': 410, 'width': 410, 'height': 410, 'widthPercent': 0.45, 'rescaleHeight': False, 'trialN': 77, 'loaded': True, 'loadedTime': 3843, 'positionName': 'LEFT', 'positionCoords': [245.68, 179], 'bid': 9.75}, {'imgObject': {}, 'id': 'eggs', 'src': '/static/foodstim60/eggs.jpg', 'key': 'i', 'origWidth': 409, 'origHeight': 409, 'width': 409, 'height': 409, 'widthPercent': 0.45, 'rescaleHeight': False, 'trialN': 77, 'loaded': True, 'loadedTime': 4124, 'positionName': 'RIGHT', 'positionCoords': [710.32, 179.5], 'bid': 9.74}]",70454,1669834275646,strawberries,eggs,9.75,9.74,-0.009999999999999787,strawberries,380,380,380,True,u,71354,900,1669834276546,900,HRV,HRV_0163,2022-11-30 18:53:16
78,"[{'imgObject': {}, 'id': 'roastedpotatoes', 'src': '/static/foodstim60/roastedpotatoes.jpg', 'key': 'u', 'origWidth': 409, 'origHeight': 410, 'width': 409, 'height': 410, 'widthPercent': 0.45, 'rescaleHeight': False, 'trialN': 78, 'loaded': True, 'loadedTime': 4348, 'positionName': 'LEFT', 'positionCoords': [246.68, 179], 'bid': 9.33}, {'imgObject': {}, 'id': 'rigatoni', 'src': '/static/foodstim60/rigatoni.jpg', 'key': 'i', 'origWidth': 411, 'origHeight': 411, 'width': 411, 'height': 411, 'widthPercent': 0.45, 'rescaleHeight': False, 'trialN': 78, 'loaded': True, 'loadedTime': 4488, 'positionName': 'RIGHT', 'positionCoords': [710.32, 178.5], 'bid': 9.4}]",71354,1669834276546,roastedpotatoes,rigatoni,9.33,9.4,0.07000000000000028,roastedpotatoes,268,268,268,True,u,72138,784,1669834277330,784,HRV,HRV_0163,2022-11-30 18:53:16
79,"[{'imgObject': {}, 'id': 'blackbeanswithrice', 'src': '/static/foodstim60/blackbeanswithrice.jpg', 'key': 'u', 'origWidth': 410, 'origHeight': 410, 'width': 410, 'height': 410, 'widthPercent': 0.45, 'rescaleHeight': False, 'trialN': 79, 'loaded': True, 'loadedTime': 4254, 'positionName': 'LEFT', 'positionCoords': [245.68, 179], 'bid': 9.78}, {'imgObject': {}, 'id': 'turkey sandwich', 'src': '/static/foodstim60/turkey sandwich.jpg', 'key': 'i', 'origWidth': 409, 'origHeight': 409, 'width': 409, 'height': 409, 'widthPercent': 0.45, 'rescaleHeight': False, 'trialN': 79, 'loaded': True, 'loadedTime': 3964, 'positionName': 'RIGHT', 'positionCoords': [710.32, 179.5], 'bid': 9.2}]",72138,1669834277330,blackbeanswithrice,turkey sandwich,9.78,9.2,-0.5800000000000001,turkey sandwich,29,29,29,True,i,72673,535,1669834277865,535,HRV,HRV_0163,2022-11-30 18:53:16
80,"[{'imgObject': {}, 'id': 'lox', 'src': '/static/foodstim60/lox.jpg', 'key': 'u', 'origWidth': 410, 'origHeight': 411, 'width': 410, 'height': 411, 'widthPercent': 0.45, 'rescaleHeight': False, 'trialN': 80, 'loaded': True, 'loadedTime': 3902, 'positionName': 'LEFT', 'positionCoords': [245.68, 178.5], 'bid': 9.61}, {'imgObject': {}, 'id': 'omelette', 'src': '/static/foodstim60/omelette.jpg', 'key': 'i', 'origWidth': 410, 'origHeight': 409, 'width': 410, 'height': 409, 'widthPercent': 0.45, 'rescaleHeight': False, 'trialN': 80, 'loaded': True, 'loadedTime': 4316, 'positionName': 'RIGHT', 'positionCoords': [710.32, 179.5], 'bid': 7.29}]",72673,1669834277865,lox,omelette,9.61,7.29,-2.3199999999999994,lox,288,288,288,True,u,73474,801,1669834278666,801,HRV,HRV_0163,2022-11-30 18:53:16
81,"[{'imgObject': {}, 'id': 'shreddedwheatwithmilk', 'src': '/static/foodstim60/shreddedwheatwithmilk.jpg', 'key': 'u', 'origWidth': 410, 'origHeight': 410, 'width': 410, 'height': 410, 'widthPercent': 0.45, 'rescaleHeight': False, 'trialN': 81, 'loaded': True, 'loadedTime': 4170, 'positionName': 'LEFT', 'positionCoords': [245.68, 179], 'bid': 2.39}, {'imgObject': {}, 'id': 'rigatoni and sauce', 'src': '/static/foodstim60/rigatoni and sauce.jpg', 'key': 'i', 'origWidth': 410, 'origHeight': 411, 'width': 410, 'height': 411, 'widthPercent': 0.45, 'rescaleHeight': False, 'trialN': 81, 'loaded': True, 'loadedTime': 4519, 'positionName': 'RIGHT', 'positionCoords': [710.32, 178.5], 'bid': 8.46}]",73474,1669834278666,shreddedwheatwithmilk,rigatoni and sauce,2.39,8.46,6.07,shreddedwheatwithmilk,127,127,127,True,u,74122,648,1669834279314,648,HRV,HRV_0163,2022-11-30 18:53:16
82,"[{'imgObject': {}, 'id': 'grilled chicken strips', 'src': '/static/foodstim60/grilled chicken strips.jpg', 'key': 'u', 'origWidth': 410, 'origHeight': 411, 'width': 410, 'height': 411, 'widthPercent': 0.45, 'rescaleHeight': False, 'trialN': 82, 'loaded': True, 'loadedTime': 3886, 'positionName': 'LEFT', 'positionCoords': [245.68, 178.5], 'bid': 5.87}, {'imgObject': {}, 'id': 'shreddedwheatwithmilk', 'src': '/static/foodstim60/shreddedwheatwithmilk.jpg', 'key': 'i', 'origWidth': 410, 'origHeight': 410, 'width': 410, 'height': 410, 'widthPercent': 0.45, 'rescaleHeight': False, 'trialN': 82, 'loaded': True, 'loadedTime': 4186, 'positionName': 'RIGHT', 'positionCoords': [710.32, 179], 'bid': 2.39}]",74122,1669834279314,grilled chicken strips,shreddedwheatwithmilk,5.87,2.39,-3.48,grilled chicken strips,62,62,62,True,u,74686,564,1669834279878,564,HRV,HRV_0163,2022-11-30 18:53:16
83,"[{'imgObject': {}, 'id': 'cherries', 'src': '/static/foodstim60/cherries.jpg', 'key': 'u', 'origWidth': 410, 'origHeight': 411, 'width': 410, 'height': 411, 'widthPercent': 0.45, 'rescaleHeight': False, 'trialN': 83, 'loaded': True, 'loadedTime': 4226, 'positionName': 'LEFT', 'positionCoords': [245.68, 178.5], 'bid': 8.64}, {'imgObject': {}, 'id': 'orange slices', 'src': '/static/foodstim60/orange slices.jpg', 'key': 'i', 'origWidth': 409, 'origHeight': 410, 'width': 409, 'height': 410, 'widthPercent': 0.45, 'rescaleHeight': False, 'trialN': 83, 'loaded': True, 'loadedTime': 4301, 'positionName': 'RIGHT', 'positionCoords': [710.32, 179], 'bid': 2.4}]",74686,1669834279878,cherries,orange slices,8.64,2.4,-6.24,cherries,210,210,210,True,u,75420,734,1669834280612,734,HRV,HRV_0163,2022-11-30 18:53:16
84,"[{'imgObject': {}, 'id': 'bagel plain', 'src': '/static/foodstim60/bagel plain.jpg', 'key': 'u', 'origWidth': 410, 'origHeight': 410, 'width': 410, 'height': 410, 'widthPercent': 0.45, 'rescaleHeight': False, 'trialN': 84, 'loaded': True, 'loadedTime': 4155, 'positionName': 'LEFT', 'positionCoords': [245.68, 179], 'bid': 9.39}, {'imgObject': {}, 'id': 'grilled chicken strips', 'src': '/static/foodstim60/grilled chicken strips.jpg', 'key': 'i', 'origWidth': 410, 'origHeight': 411, 'width': 410, 'height': 411, 'widthPercent': 0.45, 'rescaleHeight': False, 'trialN': 84, 'loaded': True, 'loadedTime': 3886, 'positionName': 'RIGHT', 'positionCoords': [710.32, 178.5], 'bid': 5.87}]",75420,1669834280612,bagel plain,grilled chicken strips,9.39,5.87,-3.5200000000000005,bagel plain,39,40,40,True,u,75992,572,1669834281184,572,HRV,HRV_0163,2022-11-30 18:53:16
85,"[{'imgObject': {}, 'id': 'rigatoni', 'src': '/static/foodstim60/rigatoni.jpg', 'key': 'u', 'origWidth': 411, 'origHeight': 411, 'width': 411, 'height': 411, 'widthPercent': 0.45, 'rescaleHeight': False, 'trialN': 85, 'loaded': True, 'loadedTime': 4473, 'positionName': 'LEFT', 'positionCoords': [244.68, 178.5], 'bid': 9.4}, {'imgObject': {}, 'id': 'salad w chicken', 'src': '/static/foodstim60/salad w chicken.jpg', 'key': 'i', 'origWidth': 411, 'origHeight': 411, 'width': 411, 'height': 411, 'widthPercent': 0.45, 'rescaleHeight': False, 'trialN': 85, 'loaded': True, 'loadedTime': 4124, 'positionName': 'RIGHT', 'positionCoords': [710.32, 178.5], 'bid': 9.15}]",75992,1669834281184,rigatoni,salad w chicken,9.4,9.15,-0.25,salad w chicken,72,73,73,True,i,76573,581,1669834281765,581,HRV,HRV_0163,2022-11-30 18:53:16
86,"[{'imgObject': {}, 'id': 'froot loops w milk', 'src': '/static/foodstim60/froot loops w milk.jpg', 'key': 'u', 'origWidth': 410, 'origHeight': 410, 'width': 410, 'height': 410, 'widthPercent': 0.45, 'rescaleHeight': False, 'trialN': 86, 'loaded': True, 'loadedTime': 4410, 'positionName': 'LEFT', 'positionCoords': [245.68, 179], 'bid': 3.81}, {'imgObject': {}, 'id': 'seaweed', 'src': '/static/foodstim60/seaweed.jpg', 'key': 'i', 'origWidth': 410, 'origHeight': 410, 'width': 410, 'height': 410, 'widthPercent': 0.45, 'rescaleHeight': False, 'trialN': 86, 'loaded': True, 'loadedTime': 4108, 'positionName': 'RIGHT', 'positionCoords': [710.32, 179], 'bid': 5.67}]",76573,1669834281765,froot loops w milk,seaweed,3.81,5.67,1.8599999999999999,seaweed,77,77,77,True,i,77185,612,1669834282377,612,HRV,HRV_0163,2022-11-30 18:53:16
87,"[{'imgObject': {}, 'id': 'kiwi', 'src': '/static/foodstim60/kiwi.jpg', 'key': 'u', 'origWidth': 410, 'origHeight': 410, 'width': 410, 'height': 410, 'widthPercent': 0.45, 'rescaleHeight': False, 'trialN': 87, 'loaded': True, 'loadedTime': 4269, 'positionName': 'LEFT', 'positionCoords': [245.68, 179], 'bid': 9.81}, {'imgObject': {}, 'id': 'lox', 'src': '/static/foodstim60/lox.jpg', 'key': 'i', 'origWidth': 410, 'origHeight': 411, 'width': 410, 'height': 411, 'widthPercent': 0.45, 'rescaleHeight': False, 'trialN': 87, 'loaded': True, 'loadedTime': 3917, 'positionName': 'RIGHT', 'positionCoords': [710.32, 178.5], 'bid': 9.61}]",77185,1669834282377,kiwi,lox,9.81,9.61,-0.20000000000000107,lox,237,237,237,True,i,77937,752,1669834283129,752,HRV,HRV_0163,2022-11-30 18:53:16
88,"[{'imgObject': {}, 'id': 'veggieswithdip', 'src': '/static/foodstim60/veggieswithdip.jpg', 'key': 'u', 'origWidth': 409, 'origHeight': 409, 'width': 409, 'height': 409, 'widthPercent': 0.45, 'rescaleHeight': False, 'trialN': 88, 'loaded': True, 'loadedTime': 4202, 'positionName': 'LEFT', 'positionCoords': [246.68, 179.5], 'bid': 8.9}, {'imgObject': {}, 'id': 'Grapes', 'src': '/static/foodstim60/Grapes.jpg', 'key': 'i', 'origWidth': 411, 'origHeight': 411, 'width': 411, 'height': 411, 'widthPercent': 0.45, 'rescaleHeight': False, 'trialN': 88, 'loaded': True, 'loadedTime': 3964, 'positionName': 'RIGHT', 'positionCoords': [710.32, 178.5], 'bid': 8.77}]",77937,1669834283129,veggieswithdip,Grapes,8.9,8.77,-0.13000000000000078,veggieswithdip,141,141,141,True,u,78586,649,1669834283778,649,HRV,HRV_0163,2022-11-30 18:53:16
89,"[{'imgObject': {}, 'id': 'mango', 'src': '/static/foodstim60/mango.jpg', 'key': 'u', 'origWidth': 411, 'origHeight': 411, 'width': 411, 'height': 411, 'widthPercent': 0.45, 'rescaleHeight': False, 'trialN': 89, 'loaded': True, 'loadedTime': 4426, 'positionName': 'LEFT', 'positionCoords': [244.68, 178.5], 'bid': 9.11}, {'imgObject': {}, 'id': 'cherry tomato', 'src': '/static/foodstim60/cherry tomato.jpg', 'key': 'i', 'origWidth': 410, 'origHeight': 410, 'width': 410, 'height': 410, 'widthPercent': 0.45, 'rescaleHeight': False, 'trialN': 89, 'loaded': True, 'loadedTime': 4027, 'positionName': 'RIGHT', 'positionCoords': [710.32, 179], 'bid': 9.11}]",78586,1669834283778,mango,cherry tomato,9.11,9.11,0.0,mango,325,325,325,True,u,79437,851,1669834284629,851,HRV,HRV_0163,2022-11-30 18:53:16
90,"[{'imgObject': {}, 'id': 'hotdog w must', 'src': '/static/foodstim60/hotdog w must.jpg', 'key': 'u', 'origWidth': 409, 'origHeight': 409, 'width': 409, 'height': 409, 'widthPercent': 0.45, 'rescaleHeight': False, 'trialN': 90, 'loaded': True, 'loadedTime': 4488, 'positionName': 'LEFT', 'positionCoords': [246.68, 179.5], 'bid': 7.7}, {'imgObject': {}, 'id': 'Grapes', 'src': '/static/foodstim60/Grapes.jpg', 'key': 'i', 'origWidth': 411, 'origHeight': 411, 'width': 411, 'height': 411, 'widthPercent': 0.45, 'rescaleHeight': False, 'trialN': 90, 'loaded': True, 'loadedTime': 3980, 'positionName': 'RIGHT', 'positionCoords': [710.32, 178.5], 'bid': 8.77}]",124972,1669834330164,hotdog w must,Grapes,7.7,8.77,1.0699999999999994,hotdog w must,732,737,737,True,u,126222,1250,1669834331414,1250,HRV,HRV_0163,2022-11-30 18:53:16
91,"[{'imgObject': {}, 'id': 'bagel and cc', 'src': '/static/foodstim60/bagel and cc.jpg', 'key': 'u', 'origWidth': 410, 'origHeight': 410, 'width': 410, 'height': 410, 'widthPercent': 0.45, 'rescaleHeight': False, 'trialN': 91, 'loaded': True, 'loadedTime': 4285, 'positionName': 'LEFT', 'positionCoords': [245.68, 179], 'bid': 6.49}, {'imgObject': {}, 'id': 'sushi w_condiments', 'src': '/static/foodstim60/sushi w_condiments.jpg', 'key': 'i', 'origWidth': 410, 'origHeight': 410, 'width': 410, 'height': 410, 'widthPercent': 0.45, 'rescaleHeight': False, 'trialN': 91, 'loaded': True, 'loadedTime': 4394, 'positionName': 'RIGHT', 'positionCoords': [710.32, 179], 'bid': 4.66}]",126222,1669834331414,bagel and cc,sushi w_condiments,6.49,4.66,-1.83,bagel and cc,190,191,191,True,u,126932,710,1669834332124,710,HRV,HRV_0163,2022-11-30 18:53:16
92,"[{'imgObject': {}, 'id': 'ice cream sundae 002', 'src': '/static/foodstim60/ice cream sundae 002.jpg', 'key': 'u', 'origWidth': 409, 'origHeight': 409, 'width': 409, 'height': 409, 'widthPercent': 0.45, 'rescaleHeight': False, 'trialN': 92, 'loaded': True, 'loadedTime': 4332, 'positionName': 'LEFT', 'positionCoords': [246.68, 179.5], 'bid': 9.61}, {'imgObject': {}, 'id': 'blueberries', 'src': '/static/foodstim60/blueberries.jpg', 'key': 'i', 'origWidth': 411, 'origHeight': 411, 'width': 411, 'height': 411, 'widthPercent': 0.45, 'rescaleHeight': False, 'trialN': 92, 'loaded': True, 'loadedTime': 4011, 'positionName': 'RIGHT', 'positionCoords': [710.32, 178.5], 'bid': 9.69}]",126932,1669834332124,ice cream sundae 002,blueberries,9.61,9.69,0.08000000000000007,ice cream sundae 002,25,26,26,True,u,127470,538,1669834332662,538,HRV,HRV_0163,2022-11-30 18:53:16
93,"[{'imgObject': {}, 'id': 'rigatoni', 'src': '/static/foodstim60/rigatoni.jpg', 'key': 'u', 'origWidth': 411, 'origHeight': 411, 'width': 411, 'height': 411, 'widthPercent': 0.45, 'rescaleHeight': False, 'trialN': 93, 'loaded': True, 'loadedTime': 4488, 'positionName': 'LEFT', 'positionCoords': [244.68, 178.5], 'bid': 9.4}, {'imgObject': {}, 'id': 'cherries', 'src': '/static/foodstim60/cherries.jpg', 'key': 'i', 'origWidth': 410, 'origHeight': 411, 'width': 410, 'height': 411, 'widthPercent': 0.45, 'rescaleHeight': False, 'trialN': 93, 'loaded': True, 'loadedTime': 4222, 'positionName': 'RIGHT', 'positionCoords': [710.32, 178.5], 'bid': 8.64}]",127470,1669834332662,rigatoni,cherries,9.4,8.64,-0.7599999999999998,rigatoni,20,20,20,True,u,128003,533,1669834333195,533,HRV,HRV_0163,2022-11-30 18:53:16
94,"[{'imgObject': {}, 'id': 'fruitsalad', 'src': '/static/foodstim60/fruitsalad.jpg', 'key': 'u', 'origWidth': 410, 'origHeight': 410, 'width': 410, 'height': 410, 'widthPercent': 0.45, 'rescaleHeight': False, 'trialN': 94, 'loaded': True, 'loadedTime': 3917, 'positionName': 'LEFT', 'positionCoords': [245.68, 179], 'bid': 9.72}, {'imgObject': {}, 'id': 'edamame', 'src': '/static/foodstim60/edamame.jpg', 'key': 'i', 'origWidth': 409, 'origHeight': 410, 'width': 409, 'height': 410, 'widthPercent': 0.45, 'rescaleHeight': False, 'trialN': 94, 'loaded': True, 'loadedTime': 4061, 'positionName': 'RIGHT', 'positionCoords': [710.32, 179], 'bid': 7.79}]",128003,1669834333195,fruitsalad,edamame,9.72,7.79,-1.9300000000000006,edamame,109,109,109,True,i,128612,609,1669834333803,608,HRV,HRV_0163,2022-11-30 18:53:16
95,"[{'imgObject': {}, 'id': 'avocado', 'src': '/static/foodstim60/avocado.jpg', 'key': 'u', 'origWidth': 409, 'origHeight': 409, 'width': 409, 'height': 409, 'widthPercent': 0.45, 'rescaleHeight': False, 'trialN': 95, 'loaded': True, 'loadedTime': 4441, 'positionName': 'LEFT', 'positionCoords': [246.68, 179.5], 'bid': 8.41}, {'imgObject': {}, 'id': 'apple slices', 'src': '/static/foodstim60/apple slices.jpg', 'key': 'i', 'origWidth': 409, 'origHeight': 410, 'width': 409, 'height': 410, 'widthPercent': 0.45, 'rescaleHeight': False, 'trialN': 95, 'loaded': True, 'loadedTime': 3980, 'positionName': 'RIGHT', 'positionCoords': [710.32, 179], 'bid': 8.14}]",128612,1669834333803,avocado,apple slices,8.41,8.14,-0.2699999999999996,apple slices,72,73,73,True,i,129201,589,1669834334392,589,HRV,HRV_0163,2022-11-30 18:53:16
96,"[{'imgObject': {}, 'id': 'rigatoni', 'src': '/static/foodstim60/rigatoni.jpg', 'key': 'u', 'origWidth': 411, 'origHeight': 411, 'width': 411, 'height': 411, 'widthPercent': 0.45, 'rescaleHeight': False, 'trialN': 96, 'loaded': True, 'loadedTime': 4488, 'positionName': 'LEFT', 'positionCoords': [244.68, 178.5], 'bid': 9.4}, {'imgObject': {}, 'id': 'strawberries', 'src': '/static/foodstim60/strawberries.jpg', 'key': 'i', 'origWidth': 410, 'origHeight': 410, 'width': 410, 'height': 410, 'widthPercent': 0.45, 'rescaleHeight': False, 'trialN': 96, 'loaded': True, 'loadedTime': 3796, 'positionName': 'RIGHT', 'positionCoords': [710.32, 179], 'bid': 9.75}]",129201,1669834334392,rigatoni,strawberries,9.4,9.75,0.34999999999999964,strawberries,440,440,440,True,i,130159,958,1669834335350,958,HRV,HRV_0163,2022-11-30 18:53:16
97,"[{'imgObject': {}, 'id': 'popsicles', 'src': '/static/foodstim60/popsicles.jpg', 'key': 'u', 'origWidth': 410, 'origHeight': 410, 'width': 410, 'height': 410, 'widthPercent': 0.45, 'rescaleHeight': False, 'trialN': 97, 'loaded': True, 'loadedTime': 4551, 'positionName': 'LEFT', 'positionCoords': [245.68, 179], 'bid': 6.93}, {'imgObject': {}, 'id': 'omelette', 'src': '/static/foodstim60/omelette.jpg', 'key': 'i', 'origWidth': 410, 'origHeight': 409, 'width': 410, 'height': 409, 'widthPercent': 0.45, 'rescaleHeight': False, 'trialN': 97, 'loaded': True, 'loadedTime': 4316, 'positionName': 'RIGHT', 'positionCoords': [710.32, 179.5], 'bid': 7.29}]",130159,1669834335350,popsicles,omelette,6.93,7.29,0.3600000000000003,omelette,104,104,104,True,i,130768,609,1669834335959,609,HRV,HRV_0163,2022-11-30 18:53:16
98,"[{'imgObject': {}, 'id': 'shreddedwheatwithmilk', 'src': '/static/foodstim60/shreddedwheatwithmilk.jpg', 'key': 'u', 'origWidth': 410, 'origHeight': 410, 'width': 410, 'height': 410, 'widthPercent': 0.45, 'rescaleHeight': False, 'trialN': 98, 'loaded': True, 'loadedTime': 4170, 'positionName': 'LEFT', 'positionCoords': [245.68, 179], 'bid': 2.39}, {'imgObject': {}, 'id': 'raisin bran w milk', 'src': '/static/foodstim60/raisin bran w milk.jpg', 'key': 'i', 'origWidth': 411, 'origHeight': 411, 'width': 411, 'height': 411, 'widthPercent': 0.45, 'rescaleHeight': False, 'trialN': 98, 'loaded': True, 'loadedTime': 4235, 'positionName': 'RIGHT', 'positionCoords': [710.32, 178.5], 'bid': 2.17}]",130768,1669834335959,shreddedwheatwithmilk,raisin bran w milk,2.39,2.17,-0.2200000000000002,shreddedwheatwithmilk,27,27,27,True,u,131303,535,1669834336494,535,HRV,HRV_0163,2022-11-30 18:53:16
99,"[{'imgObject': {}, 'id': 'mashed potato', 'src': '/static/foodstim60/mashed potato.jpg', 'key': 'u', 'origWidth': 409, 'origHeight': 409, 'width': 409, 'height': 409, 'widthPercent': 0.45, 'rescaleHeight': False, 'trialN': 99, 'loaded': True, 'loadedTime': 4540, 'positionName': 'LEFT', 'positionCoords': [246.68, 179.5], 'bid': 7.88}, {'imgObject': {}, 'id': 'eggsalad', 'src': '/static/foodstim60/eggsalad.jpg', 'key': 'i', 'origWidth': 410, 'origHeight': 409, 'width': 410, 'height': 409, 'widthPercent': 0.45, 'rescaleHeight': False, 'trialN': 99, 'loaded': True, 'loadedTime': 3764, 'positionName': 'RIGHT', 'positionCoords': [710.32, 179.5], 'bid': 8.950000000000001}]",131303,1669834336494,mashed potato,eggsalad,7.88,8.950000000000001,1.0700000000000012,mashed potato,126,126,126,True,u,131941,638,1669834337132,638,HRV,HRV_0163,2022-11-30 18:53:16
100,"[{'imgObject': {}, 'id': 'edamame', 'src': '/static/foodstim60/edamame.jpg', 'key': 'u', 'origWidth': 409, 'origHeight': 410, 'width': 409, 'height': 410, 'widthPercent': 0.45, 'rescaleHeight': False, 'trialN': 100, 'loaded': True, 'loadedTime': 4044, 'positionName': 'LEFT', 'positionCoords': [246.68, 179], 'bid': 7.79}, {'imgObject': {}, 'id': 'hotdog w must', 'src': '/static/foodstim60/hotdog w must.jpg', 'key': 'i', 'origWidth': 409, 'origHeight': 409, 'width': 409, 'height': 409, 'widthPercent': 0.45, 'rescaleHeight': False, 'trialN': 100, 'loaded': True, 'loadedTime': 4488, 'positionName': 'RIGHT', 'positionCoords': [710.32, 179.5], 'bid': 7.7}]",131942,1669834337133,edamame,hotdog w must,7.79,7.7,-0.08999999999999986,edamame,3,4,4,True,u,132467,525,1669834337658,525,HRV,HRV_0163,2022-11-30 18:53:16
101,"[{'imgObject': {}, 'id': 'chicken nuggets2', 'src': '/static/foodstim60/chicken nuggets2.jpg', 'key': 'u', 'origWidth': 410, 'origHeight': 409, 'width': 410, 'height': 409, 'widthPercent': 0.45, 'rescaleHeight': False, 'trialN': 101, 'loaded': True, 'loadedTime': 3875, 'positionName': 'LEFT', 'positionCoords': [245.68, 179.5], 'bid': 6.22}, {'imgObject': {}, 'id': 'granola w milk', 'src': '/static/foodstim60/granola w milk.jpg', 'key': 'i', 'origWidth': 410, 'origHeight': 410, 'width': 410, 'height': 410, 'widthPercent': 0.45, 'rescaleHeight': False, 'trialN': 101, 'loaded': True, 'loadedTime': 4170, 'positionName': 'RIGHT', 'positionCoords': [710.32, 179], 'bid': 4.0600000000000005}]",132467,1669834337658,chicken nuggets2,granola w milk,6.22,4.0600000000000005,-2.1599999999999993,granola w milk,237,237,237,True,i,133206,739,1669834338397,739,HRV,HRV_0163,2022-11-30 18:53:16
102,"[{'imgObject': {}, 'id': 'veggieswithdip', 'src': '/static/foodstim60/veggieswithdip.jpg', 'key': 'u', 'origWidth': 409, 'origHeight': 409, 'width': 409, 'height': 409, 'widthPercent': 0.45, 'rescaleHeight': False, 'trialN': 102, 'loaded': True, 'loadedTime': 4202, 'positionName': 'LEFT', 'positionCoords': [246.68, 179.5], 'bid': 8.9}, {'imgObject': {}, 'id': 'cocktailshrimp', 'src': '/static/foodstim60/cocktailshrimp.jpg', 'key': 'i', 'origWidth': 410, 'origHeight': 410, 'width': 410, 'height': 410, 'widthPercent': 0.45, 'rescaleHeight': False, 'trialN': 102, 'loaded': True, 'loadedTime': 4316, 'positionName': 'RIGHT', 'positionCoords': [710.32, 179], 'bid': 8.71}]",133206,1669834338397,veggieswithdip,cocktailshrimp,8.9,8.71,-0.1899999999999995,cocktailshrimp,105,105,105,True,i,133830,624,1669834339021,624,HRV,HRV_0163,2022-11-30 18:53:16
103,"[{'imgObject': {}, 'id': 'hotdog w must', 'src': '/static/foodstim60/hotdog w must.jpg', 'key': 'u', 'origWidth': 409, 'origHeight': 409, 'width': 409, 'height': 409, 'widthPercent': 0.45, 'rescaleHeight': False, 'trialN': 103, 'loaded': True, 'loadedTime': 4519, 'positionName': 'LEFT', 'positionCoords': [246.68, 179.5], 'bid': 7.7}, {'imgObject': {}, 'id': 'tacos', 'src': '/static/foodstim60/tacos.jpg', 'key': 'i', 'origWidth': 411, 'origHeight': 411, 'width': 411, 'height': 411, 'widthPercent': 0.45, 'rescaleHeight': False, 'trialN': 103, 'loaded': True, 'loadedTime': 4301, 'positionName': 'RIGHT', 'positionCoords': [710.32, 178.5], 'bid': 8.45}]",133830,1669834339021,hotdog w must,tacos,7.7,8.45,0.7499999999999991,hotdog w must,132,132,132,True,u,134490,660,1669834339681,660,HRV,HRV_0163,2022-11-30 18:53:16
104,"[{'imgObject': {}, 'id': 'banana', 'src': '/static/foodstim60/banana.jpg', 'key': 'u', 'origWidth': 410, 'origHeight': 410, 'width': 410, 'height': 410, 'widthPercent': 0.45, 'rescaleHeight': False, 'trialN': 104, 'loaded': True, 'loadedTime': 3933, 'positionName': 'LEFT', 'positionCoords': [245.68, 179], 'bid': 9.17}, {'imgObject': {}, 'id': 'ice cream sundae 002', 'src': '/static/foodstim60/ice cream sundae 002.jpg', 'key': 'i', 'origWidth': 409, 'origHeight': 409, 'width': 409, 'height': 409, 'widthPercent': 0.45, 'rescaleHeight': False, 'trialN': 104, 'loaded': True, 'loadedTime': 4332, 'positionName': 'RIGHT', 'positionCoords': [710.32, 179.5], 'bid': 9.61}]",134490,1669834339681,banana,ice cream sundae 002,9.17,9.61,0.4399999999999995,ice cream sundae 002,121,121,121,True,i,135128,638,1669834340319,638,HRV,HRV_0163,2022-11-30 18:53:16
105,"[{'imgObject': {}, 'id': 'burrito', 'src': '/static/foodstim60/burrito.jpg', 'key': 'u', 'origWidth': 410, 'origHeight': 410, 'width': 410, 'height': 410, 'widthPercent': 0.45, 'rescaleHeight': False, 'trialN': 105, 'loaded': True, 'loadedTime': 4394, 'positionName': 'LEFT', 'positionCoords': [245.68, 179], 'bid': 4.75}, {'imgObject': {}, 'id': 'turkeysandwich', 'src': '/static/foodstim60/turkeysandwich.jpg', 'key': 'i', 'origWidth': 409, 'origHeight': 409, 'width': 409, 'height': 409, 'widthPercent': 0.45, 'rescaleHeight': False, 'trialN': 105, 'loaded': True, 'loadedTime': 4254, 'positionName': 'RIGHT', 'positionCoords': [710.32, 179.5], 'bid': 3.84}]",135128,1669834340319,burrito,turkeysandwich,4.75,3.84,-0.9100000000000001,turkeysandwich,70,70,70,True,i,135717,589,1669834340908,589,HRV,HRV_0163,2022-11-30 18:53:16
106,"[{'imgObject': {}, 'id': 'raspberries', 'src': '/static/foodstim60/raspberries.jpg', 'key': 'u', 'origWidth': 411, 'origHeight': 411, 'width': 411, 'height': 411, 'widthPercent': 0.45, 'rescaleHeight': False, 'trialN': 106, 'loaded': True, 'loadedTime': 4254, 'positionName': 'LEFT', 'positionCoords': [244.68, 178.5], 'bid': 6.8}, {'imgObject': {}, 'id': 'cheerios', 'src': '/static/foodstim60/cheerios.jpg', 'key': 'i', 'origWidth': 409, 'origHeight': 410, 'width': 409, 'height': 410, 'widthPercent': 0.45, 'rescaleHeight': False, 'trialN': 106, 'loaded': True, 'loadedTime': 3733, 'positionName': 'RIGHT', 'positionCoords': [710.32, 179], 'bid': 4.03}]",135717,1669834340908,raspberries,cheerios,6.8,4.03,-2.7699999999999996,raspberries,80,80,80,True,u,136318,601,1669834341509,601,HRV,HRV_0163,2022-11-30 18:53:16
107,"[{'imgObject': {}, 'id': 'tacos', 'src': '/static/foodstim60/tacos.jpg', 'key': 'u', 'origWidth': 411, 'origHeight': 411, 'width': 411, 'height': 411, 'widthPercent': 0.45, 'rescaleHeight': False, 'trialN': 107, 'loaded': True, 'loadedTime': 4301, 'positionName': 'LEFT', 'positionCoords': [244.68, 178.5], 'bid': 8.45}, {'imgObject': {}, 'id': 'rigatoni and sauce', 'src': '/static/foodstim60/rigatoni and sauce.jpg', 'key': 'i', 'origWidth': 410, 'origHeight': 411, 'width': 410, 'height': 411, 'widthPercent': 0.45, 'rescaleHeight': False, 'trialN': 107, 'loaded': True, 'loadedTime': 4540, 'positionName': 'RIGHT', 'positionCoords': [710.32, 178.5], 'bid': 8.46}]",136318,1669834341509,tacos,rigatoni and sauce,8.45,8.46,0.010000000000001563,tacos,9,9,9,True,u,136831,513,1669834342022,513,HRV,HRV_0163,2022-11-30 18:53:16
108,"[{'imgObject': {}, 'id': 'bagel plain', 'src': '/static/foodstim60/bagel plain.jpg', 'key': 'u', 'origWidth': 410, 'origHeight': 410, 'width': 410, 'height': 410, 'widthPercent': 0.45, 'rescaleHeight': False, 'trialN': 108, 'loaded': True, 'loadedTime': 4155, 'positionName': 'LEFT', 'positionCoords': [245.68, 179], 'bid': 9.39}, {'imgObject': {}, 'id': 'rigatoni and sauce', 'src': '/static/foodstim60/rigatoni and sauce.jpg', 'key': 'i', 'origWidth': 410, 'origHeight': 411, 'width': 410, 'height': 411, 'widthPercent': 0.45, 'rescaleHeight': False, 'trialN': 108, 'loaded': True, 'loadedTime': 4540, 'positionName': 'RIGHT', 'positionCoords': [710.32, 178.5], 'bid': 8.46}]",136831,1669834342022,bagel plain,rigatoni and sauce,9.39,8.46,-0.9299999999999997,rigatoni and sauce,207,207,207,True,i,137551,720,1669834342742,720,HRV,HRV_0163,2022-11-30 18:53:16
109,"[{'imgObject': {}, 'id': 'blackbeanswithrice', 'src': '/static/foodstim60/blackbeanswithrice.jpg', 'key': 'u', 'origWidth': 410, 'origHeight': 410, 'width': 410, 'height': 410, 'widthPercent': 0.45, 'rescaleHeight': False, 'trialN': 109, 'loaded': True, 'loadedTime': 4254, 'positionName': 'LEFT', 'positionCoords': [245.68, 179], 'bid': 9.78}, {'imgObject': {}, 'id': 'apple slices', 'src': '/static/foodstim60/apple slices.jpg', 'key': 'i', 'origWidth': 409, 'origHeight': 410, 'width': 409, 'height': 410, 'widthPercent': 0.45, 'rescaleHeight': False, 'trialN': 109, 'loaded': True, 'loadedTime': 3980, 'positionName': 'RIGHT', 'positionCoords': [710.32, 179], 'bid': 8.14}]",137551,1669834342742,blackbeanswithrice,apple slices,9.78,8.14,-1.6399999999999988,apple slices,251,251,251,True,i,138304,753,1669834343495,753,HRV,HRV_0163,2022-11-30 18:53:16
110,"[{'imgObject': {}, 'id': 'salmon', 'src': '/static/foodstim60/salmon.jpg', 'key': 'u', 'origWidth': 410, 'origHeight': 409, 'width': 410, 'height': 409, 'widthPercent': 0.45, 'rescaleHeight': False, 'trialN': 110, 'loaded': True, 'loadedTime': 4316, 'positionName': 'LEFT', 'positionCoords': [245.68, 179.5], 'bid': 5.74}, {'imgObject': {}, 'id': 'roastedpotatoes', 'src': '/static/foodstim60/roastedpotatoes.jpg', 'key': 'i', 'origWidth': 409, 'origHeight': 410, 'width': 409, 'height': 410, 'widthPercent': 0.45, 'rescaleHeight': False, 'trialN': 110, 'loaded': True, 'loadedTime': 4379, 'positionName': 'RIGHT', 'positionCoords': [710.32, 179], 'bid': 9.33}]",138304,1669834343495,salmon,roastedpotatoes,5.74,9.33,3.59,salmon,108,108,108,True,u,138927,623,1669834344118,623,HRV,HRV_0163,2022-11-30 18:53:16
111,"[{'imgObject': {}, 'id': 'burrito', 'src': '/static/foodstim60/burrito.jpg', 'key': 'u', 'origWidth': 410, 'origHeight': 410, 'width': 410, 'height': 410, 'widthPercent': 0.45, 'rescaleHeight': False, 'trialN': 111, 'loaded': True, 'loadedTime': 4410, 'positionName': 'LEFT', 'positionCoords': [245.68, 179], 'bid': 4.75}, {'imgObject': {}, 'id': 'mashed potato', 'src': '/static/foodstim60/mashed potato.jpg', 'key': 'i', 'origWidth': 409, 'origHeight': 409, 'width': 409, 'height': 409, 'widthPercent': 0.45, 'rescaleHeight': False, 'trialN': 111, 'loaded': True, 'loadedTime': 4540, 'positionName': 'RIGHT', 'positionCoords': [710.32, 179.5], 'bid': 7.88}]",138927,1669834344118,burrito,mashed potato,4.75,7.88,3.13,burrito,45,45,45,True,u,139486,559,1669834344677,559,HRV,HRV_0163,2022-11-30 18:53:16
112,"[{'imgObject': {}, 'id': 'froot loops w milk', 'src': '/static/foodstim60/froot loops w milk.jpg', 'key': 'u', 'origWidth': 410, 'origHeight': 410, 'width': 410, 'height': 410, 'widthPercent': 0.45, 'rescaleHeight': False, 'trialN': 112, 'loaded': True, 'loadedTime': 4410, 'positionName': 'LEFT', 'positionCoords': [245.68, 179], 'bid': 3.81}, {'imgObject': {}, 'id': 'bagel and cc', 'src': '/static/foodstim60/bagel and cc.jpg', 'key': 'i', 'origWidth': 410, 'origHeight': 410, 'width': 410, 'height': 410, 'widthPercent': 0.45, 'rescaleHeight': False, 'trialN': 112, 'loaded': True, 'loadedTime': 4269, 'positionName': 'RIGHT', 'positionCoords': [710.32, 179], 'bid': 6.49}]",139486,1669834344677,froot loops w milk,bagel and cc,3.81,6.49,2.68,froot loops w milk,25,25,25,True,u,140018,532,1669834345209,532,HRV,HRV_0163,2022-11-30 18:53:16
113,"[{'imgObject': {}, 'id': 'orange slices', 'src': '/static/foodstim60/orange slices.jpg', 'key': 'u', 'origWidth': 409, 'origHeight': 410, 'width': 409, 'height': 410, 'widthPercent': 0.45, 'rescaleHeight': False, 'trialN': 113, 'loaded': True, 'loadedTime': 4301, 'positionName': 'LEFT', 'positionCoords': [246.68, 179], 'bid': 2.4}, {'imgObject': {}, 'id': 'mac & cheese', 'src': '/static/foodstim60/mac & cheese.jpg', 'key': 'i', 'origWidth': 410, 'origHeight': 410, 'width': 410, 'height': 410, 'widthPercent': 0.45, 'rescaleHeight': False, 'trialN': 113, 'loaded': True, 'loadedTime': 4301, 'positionName': 'RIGHT', 'positionCoords': [710.32, 179], 'bid': 4.59}]",140018,1669834345209,orange slices,mac & cheese,2.4,4.59,2.19,mac & cheese,157,157,157,True,i,140686,668,1669834345877,668,HRV,HRV_0163,2022-11-30 18:53:16
114,"[{'imgObject': {}, 'id': 'raisin bran w milk', 'src': '/static/foodstim60/raisin bran w milk.jpg', 'key': 'u', 'origWidth': 411, 'origHeight': 411, 'width': 411, 'height': 411, 'widthPercent': 0.45, 'rescaleHeight': False, 'trialN': 114, 'loaded': True, 'loadedTime': 4228, 'positionName': 'LEFT', 'positionCoords': [244.68, 178.5], 'bid': 2.17}, {'imgObject': {}, 'id': 'tacos', 'src': '/static/foodstim60/tacos.jpg', 'key': 'i', 'origWidth': 411, 'origHeight': 411, 'width': 411, 'height': 411, 'widthPercent': 0.45, 'rescaleHeight': False, 'trialN': 114, 'loaded': True, 'loadedTime': 4301, 'positionName': 'RIGHT', 'positionCoords': [710.32, 178.5], 'bid': 8.45}]",140686,1669834345877,raisin bran w milk,tacos,2.17,8.45,6.279999999999999,raisin bran w milk,177,177,177,True,u,141368,682,1669834346559,682,HRV,HRV_0163,2022-11-30 18:53:16
115,"[{'imgObject': {}, 'id': 'tacos', 'src': '/static/foodstim60/tacos.jpg', 'key': 'u', 'origWidth': 411, 'origHeight': 411, 'width': 411, 'height': 411, 'widthPercent': 0.45, 'rescaleHeight': False, 'trialN': 115, 'loaded': True, 'loadedTime': 4301, 'positionName': 'LEFT', 'positionCoords': [244.68, 178.5], 'bid': 8.45}, {'imgObject': {}, 'id': 'apple slices', 'src': '/static/foodstim60/apple slices.jpg', 'key': 'i', 'origWidth': 409, 'origHeight': 410, 'width': 409, 'height': 410, 'widthPercent': 0.45, 'rescaleHeight': False, 'trialN': 115, 'loaded': True, 'loadedTime': 3980, 'positionName': 'RIGHT', 'positionCoords': [710.32, 179], 'bid': 8.14}]",141368,1669834346559,tacos,apple slices,8.45,8.14,-0.3099999999999987,apple slices,172,172,172,True,i,142069,701,1669834347260,701,HRV,HRV_0163,2022-11-30 18:53:16
116,"[{'imgObject': {}, 'id': 'steak', 'src': '/static/foodstim60/steak.jpg', 'key': 'u', 'origWidth': 410, 'origHeight': 410, 'width': 410, 'height': 410, 'widthPercent': 0.45, 'rescaleHeight': False, 'trialN': 116, 'loaded': True, 'loadedTime': 4332, 'positionName': 'LEFT', 'positionCoords': [245.68, 179], 'bid': 6.25}, {'imgObject': {}, 'id': 'olives', 'src': '/static/foodstim60/olives.jpg', 'key': 'i', 'origWidth': 410, 'origHeight': 410, 'width': 410, 'height': 410, 'widthPercent': 0.45, 'rescaleHeight': False, 'trialN': 116, 'loaded': True, 'loadedTime': 4202, 'positionName': 'RIGHT', 'positionCoords': [710.32, 179], 'bid': 3.24}]",142069,1669834347260,steak,olives,6.25,3.24,-3.01,steak,112,112,112,True,u,142700,631,1669834347891,631,HRV,HRV_0163,2022-11-30 18:53:16
117,"[{'imgObject': {}, 'id': 'fried eggs', 'src': '/static/foodstim60/fried eggs.jpg', 'key': 'u', 'origWidth': 410, 'origHeight': 410, 'width': 410, 'height': 410, 'widthPercent': 0.45, 'rescaleHeight': False, 'trialN': 117, 'loaded': True, 'loadedTime': 4410, 'positionName': 'LEFT', 'positionCoords': [245.68, 179], 'bid': 5.19}, {'imgObject': {}, 'id': 'Tribe humus pita', 'src': '/static/foodstim60/Tribe humus pita.jpg', 'key': 'i', 'origWidth': 411, 'origHeight': 411, 'width': 411, 'height': 411, 'widthPercent': 0.45, 'rescaleHeight': False, 'trialN': 117, 'loaded': True, 'loadedTime': 4108, 'positionName': 'RIGHT', 'positionCoords': [710.32, 178.5], 'bid': 5.29}]",142700,1669834347891,fried eggs,Tribe humus pita,5.19,5.29,0.09999999999999964,Tribe humus pita,163,163,163,True,i,143396,696,1669834348587,696,HRV,HRV_0163,2022-11-30 18:53:16
118,"[{'imgObject': {}, 'id': 'mango', 'src': '/static/foodstim60/mango.jpg', 'key': 'u', 'origWidth': 411, 'origHeight': 411, 'width': 411, 'height': 411, 'widthPercent': 0.45, 'rescaleHeight': False, 'trialN': 118, 'loaded': True, 'loadedTime': 4426, 'positionName': 'LEFT', 'positionCoords': [244.68, 178.5], 'bid': 9.11}, {'imgObject': {}, 'id': 'sushi w_condiments', 'src': '/static/foodstim60/sushi w_condiments.jpg', 'key': 'i', 'origWidth': 410, 'origHeight': 410, 'width': 410, 'height': 410, 'widthPercent': 0.45, 'rescaleHeight': False, 'trialN': 118, 'loaded': True, 'loadedTime': 4394, 'positionName': 'RIGHT', 'positionCoords': [710.32, 179], 'bid': 4.66}]",143396,1669834348587,mango,sushi w_condiments,9.11,4.66,-4.449999999999999,sushi w_condiments,8,8,8,True,i,143910,514,1669834349101,514,HRV,HRV_0163,2022-11-30 18:53:16
