trialN,stimuli,trialStartTime,trialStartTime_UNIX,stimulus1,stimulus2,stimulus1Bid,stimulus2Bid,delta,selected,rt,rt_UNIX,rt_perfnow,receivedResponse,rsp,trialEndTime,trialDuration,trialEndTime_UNIX,trialDuration_UNIX,exp,subjectId,date
0,"[{'imgObject': {}, 'id': 'turkey sandwich', 'src': '/static/foodstim60/turkey sandwich.jpg', 'key': 'u', 'origWidth': 409, 'origHeight': 409, 'width': 409, 'height': 409, 'widthPercent': 0.45, 'rescaleHeight': False, 'trialN': 0, 'loaded': True, 'loadedTime': 3767.6999999284744, 'positionName': 'LEFT', 'positionCoords': [512.6, 335.5], 'bid': 4.98}, {'imgObject': {}, 'id': 'turkeysandwich', 'src': '/static/foodstim60/turkeysandwich.jpg', 'key': 'i', 'origWidth': 409, 'origHeight': 409, 'width': 409, 'height': 409, 'widthPercent': 0.45, 'rescaleHeight': False, 'trialN': 0, 'loaded': True, 'loadedTime': 4000.2999999523163, 'positionName': 'RIGHT', 'positionCoords': [998.4, 335.5], 'bid': 4.93}]",6274.799999952316,1669849099823,turkey sandwich,turkeysandwich,4.98,4.93,-0.05000000000000071,turkey sandwich,1390.0,1394,1393.3999999761581,True,u,8181.799999952316,1907.0,1669849101730,1907,HRV,HRV_0317,2022-11-30 23:03:14
1,"[{'imgObject': {}, 'id': 'salad w chicken', 'src': '/static/foodstim60/salad w chicken.jpg', 'key': 'u', 'origWidth': 411, 'origHeight': 411, 'width': 411, 'height': 411, 'widthPercent': 0.45, 'rescaleHeight': False, 'trialN': 1, 'loaded': True, 'loadedTime': 4113.100000023842, 'positionName': 'LEFT', 'positionCoords': [510.6, 334.5], 'bid': 5.11}, {'imgObject': {}, 'id': 'mashed potato', 'src': '/static/foodstim60/mashed potato.jpg', 'key': 'i', 'origWidth': 409, 'origHeight': 409, 'width': 409, 'height': 409, 'widthPercent': 0.45, 'rescaleHeight': False, 'trialN': 1, 'loaded': True, 'loadedTime': 4132.699999928474, 'positionName': 'RIGHT', 'positionCoords': [998.4, 335.5], 'bid': 5.37}]",8182.399999976158,1669849101731,salad w chicken,mashed potato,5.11,5.37,0.2599999999999998,salad w chicken,1225.7999999523163,1226,1226.6000000238419,True,u,9921.399999976158,1739.0,1669849103470,1739,HRV,HRV_0317,2022-11-30 23:03:14
2,"[{'imgObject': {}, 'id': 'eggs', 'src': '/static/foodstim60/eggs.jpg', 'key': 'u', 'origWidth': 409, 'origHeight': 409, 'width': 409, 'height': 409, 'widthPercent': 0.45, 'rescaleHeight': False, 'trialN': 2, 'loaded': True, 'loadedTime': 3913.2999999523163, 'positionName': 'LEFT', 'positionCoords': [512.6, 335.5], 'bid': 2.4}, {'imgObject': {}, 'id': 'mango', 'src': '/static/foodstim60/mango.jpg', 'key': 'i', 'origWidth': 411, 'origHeight': 411, 'width': 411, 'height': 411, 'widthPercent': 0.45, 'rescaleHeight': False, 'trialN': 2, 'loaded': True, 'loadedTime': 3952.6999999284744, 'positionName': 'RIGHT', 'positionCoords': [998.4, 334.5], 'bid': 6.8100000000000005}]",9922.0,1669849103470,eggs,mango,2.4,6.8100000000000005,4.41,mango,1071.0,1072,1071.6999999284744,True,i,11505.399999976158,1583.3999999761581,1669849105054,1584,HRV,HRV_0317,2022-11-30 23:03:14
3,"[{'imgObject': {}, 'id': 'orange slices', 'src': '/static/foodstim60/orange slices.jpg', 'key': 'u', 'origWidth': 409, 'origHeight': 410, 'width': 409, 'height': 410, 'widthPercent': 0.45, 'rescaleHeight': False, 'trialN': 3, 'loaded': True, 'loadedTime': 4223.600000023842, 'positionName': 'LEFT', 'positionCoords': [512.6, 335], 'bid': 8.620000000000001}, {'imgObject': {}, 'id': 'cantaloupe', 'src': '/static/foodstim60/cantaloupe.jpg', 'key': 'i', 'origWidth': 409, 'origHeight': 409, 'width': 409, 'height': 409, 'widthPercent': 0.45, 'rescaleHeight': False, 'trialN': 3, 'loaded': True, 'loadedTime': 4343.600000023842, 'positionName': 'RIGHT', 'positionCoords': [998.4, 335.5], 'bid': 7.78}]",11505.899999976158,1669849105054,orange slices,cantaloupe,8.620000000000001,7.78,-0.8400000000000007,orange slices,942.7000000476837,944,943.5,True,u,12957.5,1451.6000000238419,1669849106506,1452,HRV,HRV_0317,2022-11-30 23:03:14
4,"[{'imgObject': {}, 'id': 'blueberries', 'src': '/static/foodstim60/blueberries.jpg', 'key': 'u', 'origWidth': 411, 'origHeight': 411, 'width': 411, 'height': 411, 'widthPercent': 0.45, 'rescaleHeight': False, 'trialN': 4, 'loaded': True, 'loadedTime': 4354.399999976158, 'positionName': 'LEFT', 'positionCoords': [510.6, 334.5], 'bid': 8.86}, {'imgObject': {}, 'id': 'banana', 'src': '/static/foodstim60/banana.jpg', 'key': 'i', 'origWidth': 410, 'origHeight': 410, 'width': 410, 'height': 410, 'widthPercent': 0.45, 'rescaleHeight': False, 'trialN': 4, 'loaded': True, 'loadedTime': 4404.799999952316, 'positionName': 'RIGHT', 'positionCoords': [998.4, 335], 'bid': 8.81}]",12957.899999976158,1669849106506,blueberries,banana,8.86,8.81,-0.049999999999998934,blueberries,970.7000000476837,972,971.3999999761581,True,u,14430.799999952316,1472.8999999761581,1669849107979,1473,HRV,HRV_0317,2022-11-30 23:03:14
5,"[{'imgObject': {}, 'id': 'cheerios', 'src': '/static/foodstim60/cheerios.jpg', 'key': 'u', 'origWidth': 409, 'origHeight': 410, 'width': 409, 'height': 410, 'widthPercent': 0.45, 'rescaleHeight': False, 'trialN': 5, 'loaded': True, 'loadedTime': 4508.399999976158, 'positionName': 'LEFT', 'positionCoords': [512.6, 335], 'bid': 0.18}, {'imgObject': {}, 'id': 'seaweed', 'src': '/static/foodstim60/seaweed.jpg', 'key': 'i', 'origWidth': 410, 'origHeight': 410, 'width': 410, 'height': 410, 'widthPercent': 0.45, 'rescaleHeight': False, 'trialN': 5, 'loaded': True, 'loadedTime': 4551.5, 'positionName': 'RIGHT', 'positionCoords': [998.4, 335], 'bid': 2.15}]",14431.100000023842,1669849107979,cheerios,seaweed,0.18,2.15,1.97,seaweed,1281.3999999761581,1283,1282.2999999523163,True,i,16217.399999976158,1786.2999999523163,1669849109766,1787,HRV,HRV_0317,2022-11-30 23:03:14
6,"[{'imgObject': {}, 'id': 'yogurt no spoon', 'src': '/static/foodstim60/yogurt no spoon.jpg', 'key': 'u', 'origWidth': 411, 'origHeight': 410, 'width': 411, 'height': 410, 'widthPercent': 0.45, 'rescaleHeight': False, 'trialN': 6, 'loaded': True, 'loadedTime': 4578.299999952316, 'positionName': 'LEFT', 'positionCoords': [510.6, 335], 'bid': 2.78}, {'imgObject': {}, 'id': 'blackbeanswithrice', 'src': '/static/foodstim60/blackbeanswithrice.jpg', 'key': 'i', 'origWidth': 410, 'origHeight': 410, 'width': 410, 'height': 410, 'widthPercent': 0.45, 'rescaleHeight': False, 'trialN': 6, 'loaded': True, 'loadedTime': 4689.600000023842, 'positionName': 'RIGHT', 'positionCoords': [998.4, 335], 'bid': 3.15}]",16217.699999928474,1669849109766,yogurt no spoon,blackbeanswithrice,2.78,3.15,0.3700000000000001,yogurt no spoon,1094.8000000715256,1096,1096.0,True,u,17828.5,1610.8000000715256,1669849111377,1611,HRV,HRV_0317,2022-11-30 23:03:14
7,"[{'imgObject': {}, 'id': 'Tribe humus pita', 'src': '/static/foodstim60/Tribe humus pita.jpg', 'key': 'u', 'origWidth': 411, 'origHeight': 411, 'width': 411, 'height': 411, 'widthPercent': 0.45, 'rescaleHeight': False, 'trialN': 7, 'loaded': True, 'loadedTime': 4741.399999976158, 'positionName': 'LEFT', 'positionCoords': [510.6, 334.5], 'bid': 3.76}, {'imgObject': {}, 'id': 'rigatoni', 'src': '/static/foodstim60/rigatoni.jpg', 'key': 'i', 'origWidth': 411, 'origHeight': 411, 'width': 411, 'height': 411, 'widthPercent': 0.45, 'rescaleHeight': False, 'trialN': 7, 'loaded': True, 'loadedTime': 4797.5, 'positionName': 'RIGHT', 'positionCoords': [998.4, 334.5], 'bid': 3.31}]",17828.899999976158,1669849111377,Tribe humus pita,rigatoni,3.76,3.31,-0.44999999999999973,Tribe humus pita,1475.2999999523163,1476,1475.8999999761581,True,u,19821.399999976158,1992.5,1669849113370,1993,HRV,HRV_0317,2022-11-30 23:03:14
8,"[{'imgObject': {}, 'id': 'burrito', 'src': '/static/foodstim60/burrito.jpg', 'key': 'u', 'origWidth': 410, 'origHeight': 410, 'width': 410, 'height': 410, 'widthPercent': 0.45, 'rescaleHeight': False, 'trialN': 8, 'loaded': True, 'loadedTime': 4820.100000023842, 'positionName': 'LEFT', 'positionCoords': [511.6, 335], 'bid': 4.05}, {'imgObject': {}, 'id': 'burger', 'src': '/static/foodstim60/burger.jpg', 'key': 'i', 'origWidth': 409, 'origHeight': 409, 'width': 409, 'height': 409, 'widthPercent': 0.45, 'rescaleHeight': False, 'trialN': 8, 'loaded': True, 'loadedTime': 4840, 'positionName': 'RIGHT', 'positionCoords': [998.4, 335.5], 'bid': 3.64}]",19821.699999928474,1669849113370,burrito,burger,4.05,3.64,-0.4099999999999997,burger,1323.2000000476837,1324,1323.8000000715256,True,i,21657.399999976158,1835.7000000476837,1669849115206,1836,HRV,HRV_0317,2022-11-30 23:03:14
9,"[{'imgObject': {}, 'id': 'sweetpotato', 'src': '/static/foodstim60/sweetpotato.jpg', 'key': 'u', 'origWidth': 410, 'origHeight': 410, 'width': 410, 'height': 410, 'widthPercent': 0.45, 'rescaleHeight': False, 'trialN': 9, 'loaded': True, 'loadedTime': 4917.100000023842, 'positionName': 'LEFT', 'positionCoords': [511.6, 335], 'bid': 6.34}, {'imgObject': {}, 'id': 'eggsalad', 'src': '/static/foodstim60/eggsalad.jpg', 'key': 'i', 'origWidth': 410, 'origHeight': 409, 'width': 410, 'height': 409, 'widthPercent': 0.45, 'rescaleHeight': False, 'trialN': 9, 'loaded': True, 'loadedTime': 5000.100000023842, 'positionName': 'RIGHT', 'positionCoords': [998.4, 335.5], 'bid': 0.68}]",21657.699999928474,1669849115206,sweetpotato,eggsalad,6.34,0.68,-5.66,sweetpotato,1102.8000000715256,1104,1103.7000000476837,True,u,23269.399999976158,1611.7000000476837,1669849116818,1612,HRV,HRV_0317,2022-11-30 23:03:14
10,"[{'imgObject': {}, 'id': 'burger', 'src': '/static/foodstim60/burger.jpg', 'key': 'u', 'origWidth': 409, 'origHeight': 409, 'width': 409, 'height': 409, 'widthPercent': 0.45, 'rescaleHeight': False, 'trialN': 10, 'loaded': True, 'loadedTime': 4840.699999928474, 'positionName': 'LEFT', 'positionCoords': [512.6, 335.5], 'bid': 3.64}, {'imgObject': {}, 'id': 'rigatoni', 'src': '/static/foodstim60/rigatoni.jpg', 'key': 'i', 'origWidth': 411, 'origHeight': 411, 'width': 411, 'height': 411, 'widthPercent': 0.45, 'rescaleHeight': False, 'trialN': 10, 'loaded': True, 'loadedTime': 4750.299999952316, 'positionName': 'RIGHT', 'positionCoords': [998.4, 334.5], 'bid': 3.31}]",23269.899999976158,1669849116818,burger,rigatoni,3.64,3.31,-0.33000000000000007,burger,1290.5,1292,1291.5,True,u,25075.5,1805.6000000238419,1669849118624,1806,HRV,HRV_0317,2022-11-30 23:03:14
11,"[{'imgObject': {}, 'id': 'burger', 'src': '/static/foodstim60/burger.jpg', 'key': 'u', 'origWidth': 409, 'origHeight': 409, 'width': 409, 'height': 409, 'widthPercent': 0.45, 'rescaleHeight': False, 'trialN': 11, 'loaded': True, 'loadedTime': 4883.100000023842, 'positionName': 'LEFT', 'positionCoords': [512.6, 335.5], 'bid': 3.64}, {'imgObject': {}, 'id': 'pear', 'src': '/static/foodstim60/pear.jpg', 'key': 'i', 'origWidth': 411, 'origHeight': 410, 'width': 411, 'height': 410, 'widthPercent': 0.45, 'rescaleHeight': False, 'trialN': 11, 'loaded': True, 'loadedTime': 5002.699999928474, 'positionName': 'RIGHT', 'positionCoords': [998.4, 335], 'bid': 8.25}]",25076.0,1669849118624,burger,pear,3.64,8.25,4.609999999999999,pear,1364.5,1366,1365.3999999761581,True,i,26945.899999976158,1869.8999999761581,1669849120495,1871,HRV,HRV_0317,2022-11-30 23:03:14
12,"[{'imgObject': {}, 'id': 'raspberries', 'src': '/static/foodstim60/raspberries.jpg', 'key': 'u', 'origWidth': 411, 'origHeight': 411, 'width': 411, 'height': 411, 'widthPercent': 0.45, 'rescaleHeight': False, 'trialN': 12, 'loaded': True, 'loadedTime': 5032.799999952316, 'positionName': 'LEFT', 'positionCoords': [510.6, 334.5], 'bid': 8.36}, {'imgObject': {}, 'id': 'Tribe humus pita', 'src': '/static/foodstim60/Tribe humus pita.jpg', 'key': 'i', 'origWidth': 411, 'origHeight': 411, 'width': 411, 'height': 411, 'widthPercent': 0.45, 'rescaleHeight': False, 'trialN': 12, 'loaded': True, 'loadedTime': 4717.5, 'positionName': 'RIGHT', 'positionCoords': [998.4, 334.5], 'bid': 3.76}]",26946.399999976158,1669849120495,raspberries,Tribe humus pita,8.36,3.76,-4.6,raspberries,1150.1000000238419,1151,1150.8999999761581,True,u,28607.399999976158,1661.0,1669849122156,1661,HRV,HRV_0317,2022-11-30 23:03:14
13,"[{'imgObject': {}, 'id': 'cherries', 'src': '/static/foodstim60/cherries.jpg', 'key': 'u', 'origWidth': 410, 'origHeight': 411, 'width': 410, 'height': 411, 'widthPercent': 0.45, 'rescaleHeight': False, 'trialN': 13, 'loaded': True, 'loadedTime': 5116.199999928474, 'positionName': 'LEFT', 'positionCoords': [511.6, 334.5], 'bid': 8.08}, {'imgObject': {}, 'id': 'kiwi', 'src': '/static/foodstim60/kiwi.jpg', 'key': 'i', 'origWidth': 410, 'origHeight': 410, 'width': 410, 'height': 410, 'widthPercent': 0.45, 'rescaleHeight': False, 'trialN': 13, 'loaded': True, 'loadedTime': 5145.699999928474, 'positionName': 'RIGHT', 'positionCoords': [998.4, 335], 'bid': 5.5}]",28607.899999976158,1669849122156,cherries,kiwi,8.08,5.5,-2.58,cherries,1088.5,1090,1089.5,True,u,30207.399999976158,1599.5,1669849123756,1600,HRV,HRV_0317,2022-11-30 23:03:14
14,"[{'imgObject': {}, 'id': 'grilled chicken strips', 'src': '/static/foodstim60/grilled chicken strips.jpg', 'key': 'u', 'origWidth': 410, 'origHeight': 411, 'width': 410, 'height': 411, 'widthPercent': 0.45, 'rescaleHeight': False, 'trialN': 14, 'loaded': True, 'loadedTime': 5209.299999952316, 'positionName': 'LEFT', 'positionCoords': [511.6, 334.5], 'bid': 5.53}, {'imgObject': {}, 'id': 'cherry tomato', 'src': '/static/foodstim60/cherry tomato.jpg', 'key': 'i', 'origWidth': 410, 'origHeight': 410, 'width': 410, 'height': 410, 'widthPercent': 0.45, 'rescaleHeight': False, 'trialN': 14, 'loaded': True, 'loadedTime': 5248.899999976158, 'positionName': 'RIGHT', 'positionCoords': [998.4, 335], 'bid': 5.5}]",30207.899999976158,1669849123756,grilled chicken strips,cherry tomato,5.53,5.5,-0.03000000000000025,grilled chicken strips,1120.6000000238419,1122,1121.6000000238419,True,u,31837.399999976158,1629.5,1669849125386,1630,HRV,HRV_0317,2022-11-30 23:03:14
15,"[{'imgObject': {}, 'id': 'edamame', 'src': '/static/foodstim60/edamame.jpg', 'key': 'u', 'origWidth': 409, 'origHeight': 410, 'width': 409, 'height': 410, 'widthPercent': 0.45, 'rescaleHeight': False, 'trialN': 15, 'loaded': True, 'loadedTime': 5287.5, 'positionName': 'LEFT', 'positionCoords': [512.6, 335], 'bid': 4.2}, {'imgObject': {}, 'id': 'hotdog w must', 'src': '/static/foodstim60/hotdog w must.jpg', 'key': 'i', 'origWidth': 409, 'origHeight': 409, 'width': 409, 'height': 409, 'widthPercent': 0.45, 'rescaleHeight': False, 'trialN': 15, 'loaded': True, 'loadedTime': 5435.5, 'positionName': 'RIGHT', 'positionCoords': [998.4, 335.5], 'bid': 1.3}]",31837.799999952316,1669849125386,edamame,hotdog w must,4.2,1.3,-2.9000000000000004,edamame,1194.6000000238419,1196,1195.6000000238419,True,u,33545.5,1707.7000000476837,1669849127094,1708,HRV,HRV_0317,2022-11-30 23:03:14
16,"[{'imgObject': {}, 'id': 'burrito', 'src': '/static/foodstim60/burrito.jpg', 'key': 'u', 'origWidth': 410, 'origHeight': 410, 'width': 410, 'height': 410, 'widthPercent': 0.45, 'rescaleHeight': False, 'trialN': 16, 'loaded': True, 'loadedTime': 4798.199999928474, 'positionName': 'LEFT', 'positionCoords': [511.6, 335], 'bid': 4.05}, {'imgObject': {}, 'id': 'mashed potato', 'src': '/static/foodstim60/mashed potato.jpg', 'key': 'i', 'origWidth': 409, 'origHeight': 409, 'width': 409, 'height': 409, 'widthPercent': 0.45, 'rescaleHeight': False, 'trialN': 16, 'loaded': True, 'loadedTime': 4121.100000023842, 'positionName': 'RIGHT', 'positionCoords': [998.4, 335.5], 'bid': 5.37}]",33545.699999928474,1669849127094,burrito,mashed potato,4.05,5.37,1.3200000000000003,burrito,1070.8000000715256,1072,1071.7000000476837,True,u,35125.39999997616,1579.7000000476837,1669849128674,1580,HRV,HRV_0317,2022-11-30 23:03:14
17,"[{'imgObject': {}, 'id': 'sweetpotato', 'src': '/static/foodstim60/sweetpotato.jpg', 'key': 'u', 'origWidth': 410, 'origHeight': 410, 'width': 410, 'height': 410, 'widthPercent': 0.45, 'rescaleHeight': False, 'trialN': 17, 'loaded': True, 'loadedTime': 4924.399999976158, 'positionName': 'LEFT', 'positionCoords': [511.6, 335], 'bid': 6.34}, {'imgObject': {}, 'id': 'rigatoni and sauce', 'src': '/static/foodstim60/rigatoni and sauce.jpg', 'key': 'i', 'origWidth': 410, 'origHeight': 411, 'width': 410, 'height': 411, 'widthPercent': 0.45, 'rescaleHeight': False, 'trialN': 17, 'loaded': True, 'loadedTime': 5488.799999952316, 'positionName': 'RIGHT', 'positionCoords': [998.4, 334.5], 'bid': 6.4}]",35125.89999997616,1669849128674,sweetpotato,rigatoni and sauce,6.34,6.4,0.0600000000000005,sweetpotato,1026.5,1028,1027.6000000238419,True,u,36667.5,1541.6000000238419,1669849130216,1542,HRV,HRV_0317,2022-11-30 23:03:14
18,"[{'imgObject': {}, 'id': 'banana', 'src': '/static/foodstim60/banana.jpg', 'key': 'u', 'origWidth': 410, 'origHeight': 410, 'width': 410, 'height': 410, 'widthPercent': 0.45, 'rescaleHeight': False, 'trialN': 18, 'loaded': True, 'loadedTime': 4393.600000023842, 'positionName': 'LEFT', 'positionCoords': [511.6, 335], 'bid': 8.81}, {'imgObject': {}, 'id': 'veggieswithdip', 'src': '/static/foodstim60/veggieswithdip.jpg', 'key': 'i', 'origWidth': 409, 'origHeight': 409, 'width': 409, 'height': 409, 'widthPercent': 0.45, 'rescaleHeight': False, 'trialN': 18, 'loaded': True, 'loadedTime': 5532, 'positionName': 'RIGHT', 'positionCoords': [998.4, 335.5], 'bid': 8.88}]",36668.10000002384,1669849130217,banana,veggieswithdip,8.81,8.88,0.07000000000000028,veggieswithdip,1116.3999999761581,1117,1117.2999999523163,True,i,38299.699999928474,1631.5999999046326,1669849131848,1631,HRV,HRV_0317,2022-11-30 23:03:14
19,"[{'imgObject': {}, 'id': 'edamame', 'src': '/static/foodstim60/edamame.jpg', 'key': 'u', 'origWidth': 409, 'origHeight': 410, 'width': 409, 'height': 410, 'widthPercent': 0.45, 'rescaleHeight': False, 'trialN': 19, 'loaded': True, 'loadedTime': 5380.299999952316, 'positionName': 'LEFT', 'positionCoords': [512.6, 335], 'bid': 4.2}, {'imgObject': {}, 'id': 'cocktailshrimp', 'src': '/static/foodstim60/cocktailshrimp.jpg', 'key': 'i', 'origWidth': 410, 'origHeight': 410, 'width': 410, 'height': 410, 'widthPercent': 0.45, 'rescaleHeight': False, 'trialN': 19, 'loaded': True, 'loadedTime': 5547.799999952316, 'positionName': 'RIGHT', 'positionCoords': [998.4, 335], 'bid': 5.47}]",38300.299999952316,1669849131849,edamame,cocktailshrimp,4.2,5.47,1.2699999999999996,cocktailshrimp,1132.2000000476837,1133,1133.2000000476837,True,i,39941.39999997616,1641.1000000238419,1669849133490,1641,HRV,HRV_0317,2022-11-30 23:03:14
20,"[{'imgObject': {}, 'id': 'froot loops w milk', 'src': '/static/foodstim60/froot loops w milk.jpg', 'key': 'u', 'origWidth': 410, 'origHeight': 410, 'width': 410, 'height': 410, 'widthPercent': 0.45, 'rescaleHeight': False, 'trialN': 20, 'loaded': True, 'loadedTime': 5629.600000023842, 'positionName': 'LEFT', 'positionCoords': [511.6, 335], 'bid': 0.31}, {'imgObject': {}, 'id': 'granola w milk', 'src': '/static/foodstim60/granola w milk.jpg', 'key': 'i', 'origWidth': 410, 'origHeight': 410, 'width': 410, 'height': 410, 'widthPercent': 0.45, 'rescaleHeight': False, 'trialN': 20, 'loaded': True, 'loadedTime': 5643.600000023842, 'positionName': 'RIGHT', 'positionCoords': [998.4, 335], 'bid': 0.28}]",39941.89999997616,1669849133490,froot loops w milk,granola w milk,0.31,0.28,-0.02999999999999997,granola w milk,1578.8999999761581,1580,1579.8999999761581,True,i,42033.39999997616,2091.5,1669849135582,2092,HRV,HRV_0317,2022-11-30 23:03:14
21,"[{'imgObject': {}, 'id': 'grilled chicken strips', 'src': '/static/foodstim60/grilled chicken strips.jpg', 'key': 'u', 'origWidth': 410, 'origHeight': 411, 'width': 410, 'height': 411, 'widthPercent': 0.45, 'rescaleHeight': False, 'trialN': 21, 'loaded': True, 'loadedTime': 5196.699999928474, 'positionName': 'LEFT', 'positionCoords': [511.6, 334.5], 'bid': 5.53}, {'imgObject': {}, 'id': 'raspberries', 'src': '/static/foodstim60/raspberries.jpg', 'key': 'i', 'origWidth': 411, 'origHeight': 411, 'width': 411, 'height': 411, 'widthPercent': 0.45, 'rescaleHeight': False, 'trialN': 21, 'loaded': True, 'loadedTime': 5043.199999928474, 'positionName': 'RIGHT', 'positionCoords': [998.4, 334.5], 'bid': 8.36}]",42033.89999997616,1669849135582,grilled chicken strips,raspberries,5.53,8.36,2.829999999999999,raspberries,1134.6000000238419,1136,1135.5,True,i,43681.5,1647.6000000238419,1669849137230,1648,HRV,HRV_0317,2022-11-30 23:03:14
22,"[{'imgObject': {}, 'id': 'sushi w_condiments', 'src': '/static/foodstim60/sushi w_condiments.jpg', 'key': 'u', 'origWidth': 410, 'origHeight': 410, 'width': 410, 'height': 410, 'widthPercent': 0.45, 'rescaleHeight': False, 'trialN': 22, 'loaded': True, 'loadedTime': 5657.699999928474, 'positionName': 'LEFT', 'positionCoords': [511.6, 335], 'bid': 6.48}, {'imgObject': {}, 'id': 'mac & cheese', 'src': '/static/foodstim60/mac & cheese.jpg', 'key': 'i', 'origWidth': 410, 'origHeight': 410, 'width': 410, 'height': 410, 'widthPercent': 0.45, 'rescaleHeight': False, 'trialN': 22, 'loaded': True, 'loadedTime': 5688, 'positionName': 'RIGHT', 'positionCoords': [998.4, 335], 'bid': 7.52}]",43681.799999952316,1669849137230,sushi w_condiments,mac & cheese,6.48,7.52,1.0399999999999991,mac & cheese,1230.8000000715256,1232,1231.7000000476837,True,i,45421.39999997616,1739.6000000238419,1669849138970,1740,HRV,HRV_0317,2022-11-30 23:03:14
23,"[{'imgObject': {}, 'id': 'salmon', 'src': '/static/foodstim60/salmon.jpg', 'key': 'u', 'origWidth': 410, 'origHeight': 409, 'width': 410, 'height': 409, 'widthPercent': 0.45, 'rescaleHeight': False, 'trialN': 23, 'loaded': True, 'loadedTime': 5697.699999928474, 'positionName': 'LEFT', 'positionCoords': [511.6, 335.5], 'bid': 7.11}, {'imgObject': {}, 'id': 'veggieswithdip', 'src': '/static/foodstim60/veggieswithdip.jpg', 'key': 'i', 'origWidth': 409, 'origHeight': 409, 'width': 409, 'height': 409, 'widthPercent': 0.45, 'rescaleHeight': False, 'trialN': 23, 'loaded': True, 'loadedTime': 5532.600000023842, 'positionName': 'RIGHT', 'positionCoords': [998.4, 335.5], 'bid': 8.88}]",45421.799999952316,1669849138970,salmon,veggieswithdip,7.11,8.88,1.7700000000000005,veggieswithdip,1090.3000000715256,1091,1090.8999999761581,True,i,47015.39999997616,1593.6000000238419,1669849140564,1594,HRV,HRV_0317,2022-11-30 23:03:14
24,"[{'imgObject': {}, 'id': 'luckycharms', 'src': '/static/foodstim60/luckycharms.jpg', 'key': 'u', 'origWidth': 410, 'origHeight': 409, 'width': 410, 'height': 409, 'widthPercent': 0.45, 'rescaleHeight': False, 'trialN': 24, 'loaded': True, 'loadedTime': 5732.699999928474, 'positionName': 'LEFT', 'positionCoords': [511.6, 335.5], 'bid': 0.31}, {'imgObject': {}, 'id': 'shreddedwheatwithmilk', 'src': '/static/foodstim60/shreddedwheatwithmilk.jpg', 'key': 'i', 'origWidth': 410, 'origHeight': 410, 'width': 410, 'height': 410, 'widthPercent': 0.45, 'rescaleHeight': False, 'trialN': 24, 'loaded': True, 'loadedTime': 5850.299999952316, 'positionName': 'RIGHT', 'positionCoords': [998.4, 335], 'bid': 0.37}]",47015.699999928474,1669849140564,luckycharms,shreddedwheatwithmilk,0.31,0.37,0.06,shreddedwheatwithmilk,1520.7000000476837,1522,1521.6000000238419,True,i,49054.39999997616,2038.7000000476837,1669849142603,2039,HRV,HRV_0317,2022-11-30 23:03:14
25,"[{'imgObject': {}, 'id': 'cantaloupe', 'src': '/static/foodstim60/cantaloupe.jpg', 'key': 'u', 'origWidth': 409, 'origHeight': 409, 'width': 409, 'height': 409, 'widthPercent': 0.45, 'rescaleHeight': False, 'trialN': 25, 'loaded': True, 'loadedTime': 4311.100000023842, 'positionName': 'LEFT', 'positionCoords': [512.6, 335.5], 'bid': 7.78}, {'imgObject': {}, 'id': 'omelette', 'src': '/static/foodstim60/omelette.jpg', 'key': 'i', 'origWidth': 410, 'origHeight': 409, 'width': 410, 'height': 409, 'widthPercent': 0.45, 'rescaleHeight': False, 'trialN': 25, 'loaded': True, 'loadedTime': 5877.399999976158, 'positionName': 'RIGHT', 'positionCoords': [998.4, 335.5], 'bid': 3.31}]",49054.699999928474,1669849142603,cantaloupe,omelette,7.78,3.31,-4.470000000000001,cantaloupe,1385.9000000953674,1387,1386.8000000715256,True,u,50953.39999997616,1898.7000000476837,1669849144502,1899,HRV,HRV_0317,2022-11-30 23:03:14
26,"[{'imgObject': {}, 'id': 'bagel plain', 'src': '/static/foodstim60/bagel plain.jpg', 'key': 'u', 'origWidth': 410, 'origHeight': 410, 'width': 410, 'height': 410, 'widthPercent': 0.45, 'rescaleHeight': False, 'trialN': 26, 'loaded': True, 'loadedTime': 5881.699999928474, 'positionName': 'LEFT', 'positionCoords': [511.6, 335], 'bid': 2.44}, {'imgObject': {}, 'id': 'lox', 'src': '/static/foodstim60/lox.jpg', 'key': 'i', 'origWidth': 410, 'origHeight': 411, 'width': 410, 'height': 411, 'widthPercent': 0.45, 'rescaleHeight': False, 'trialN': 26, 'loaded': True, 'loadedTime': 5911.199999928474, 'positionName': 'RIGHT', 'positionCoords': [998.4, 334.5], 'bid': 2.72}]",50953.799999952316,1669849144502,bagel plain,lox,2.44,2.72,0.28000000000000025,lox,1247.0,1248,1247.7000000476837,True,i,52705.299999952316,1751.5,1669849146254,1752,HRV,HRV_0317,2022-11-30 23:03:14
27,"[{'imgObject': {}, 'id': 'baked potato', 'src': '/static/foodstim60/baked potato.jpg', 'key': 'u', 'origWidth': 409, 'origHeight': 410, 'width': 409, 'height': 410, 'widthPercent': 0.45, 'rescaleHeight': False, 'trialN': 27, 'loaded': True, 'loadedTime': 5940.699999928474, 'positionName': 'LEFT', 'positionCoords': [512.6, 335], 'bid': 4.59}, {'imgObject': {}, 'id': 'banana', 'src': '/static/foodstim60/banana.jpg', 'key': 'i', 'origWidth': 410, 'origHeight': 410, 'width': 410, 'height': 410, 'widthPercent': 0.45, 'rescaleHeight': False, 'trialN': 27, 'loaded': True, 'loadedTime': 4414.600000023842, 'positionName': 'RIGHT', 'positionCoords': [998.4, 335], 'bid': 8.81}]",52705.5,1669849146254,baked potato,banana,4.59,8.81,4.220000000000001,banana,1222.8999999761581,1224,1223.8999999761581,True,i,54437.39999997616,1731.8999999761581,1669849147986,1732,HRV,HRV_0317,2022-11-30 23:03:14
28,"[{'imgObject': {}, 'id': 'turkey sandwich', 'src': '/static/foodstim60/turkey sandwich.jpg', 'key': 'u', 'origWidth': 409, 'origHeight': 409, 'width': 409, 'height': 409, 'widthPercent': 0.45, 'rescaleHeight': False, 'trialN': 28, 'loaded': True, 'loadedTime': 3827.100000023842, 'positionName': 'LEFT', 'positionCoords': [512.6, 335.5], 'bid': 4.98}, {'imgObject': {}, 'id': 'kiwi', 'src': '/static/foodstim60/kiwi.jpg', 'key': 'i', 'origWidth': 410, 'origHeight': 410, 'width': 410, 'height': 410, 'widthPercent': 0.45, 'rescaleHeight': False, 'trialN': 28, 'loaded': True, 'loadedTime': 5174.600000023842, 'positionName': 'RIGHT', 'positionCoords': [998.4, 335], 'bid': 5.5}]",54437.799999952316,1669849147986,turkey sandwich,kiwi,4.98,5.5,0.5199999999999996,turkey sandwich,1130.7000000476837,1132,1131.6000000238419,True,u,56075.39999997616,1637.6000000238419,1669849149624,1638,HRV,HRV_0317,2022-11-30 23:03:14
29,"[{'imgObject': {}, 'id': 'popsicles', 'src': '/static/foodstim60/popsicles.jpg', 'key': 'u', 'origWidth': 410, 'origHeight': 410, 'width': 410, 'height': 410, 'widthPercent': 0.45, 'rescaleHeight': False, 'trialN': 29, 'loaded': True, 'loadedTime': 5954.899999976158, 'positionName': 'LEFT', 'positionCoords': [511.6, 335], 'bid': 0.23}, {'imgObject': {}, 'id': 'froot loops w milk', 'src': '/static/foodstim60/froot loops w milk.jpg', 'key': 'i', 'origWidth': 410, 'origHeight': 410, 'width': 410, 'height': 410, 'widthPercent': 0.45, 'rescaleHeight': False, 'trialN': 29, 'loaded': True, 'loadedTime': 5573.399999976158, 'positionName': 'RIGHT', 'positionCoords': [998.4, 335], 'bid': 0.31}]",56075.799999952316,1669849149624,popsicles,froot loops w milk,0.23,0.31,0.07999999999999999,froot loops w milk,1028.7000000476837,1030,1029.6000000238419,True,i,57609.39999997616,1533.6000000238419,1669849151158,1534,HRV,HRV_0317,2022-11-30 23:03:14
30,"[{'imgObject': {}, 'id': 'avocado', 'src': '/static/foodstim60/avocado.jpg', 'key': 'u', 'origWidth': 409, 'origHeight': 409, 'width': 409, 'height': 409, 'widthPercent': 0.45, 'rescaleHeight': False, 'trialN': 30, 'loaded': True, 'loadedTime': 6010.5, 'positionName': 'LEFT', 'positionCoords': [512.6, 335.5], 'bid': 5.0600000000000005}, {'imgObject': {}, 'id': 'roastedpotatoes', 'src': '/static/foodstim60/roastedpotatoes.jpg', 'key': 'i', 'origWidth': 409, 'origHeight': 410, 'width': 409, 'height': 410, 'widthPercent': 0.45, 'rescaleHeight': False, 'trialN': 30, 'loaded': True, 'loadedTime': 6028.299999952316, 'positionName': 'RIGHT', 'positionCoords': [998.4, 335], 'bid': 5}]",57609.799999952316,1669849151158,avocado,roastedpotatoes,5.0600000000000005,5.0,-0.0600000000000005,roastedpotatoes,1526.7000000476837,1528,1528.0,True,i,59653.299999952316,2043.5,1669849153202,2044,HRV,HRV_0317,2022-11-30 23:03:14
31,"[{'imgObject': {}, 'id': 'salad w chicken', 'src': '/static/foodstim60/salad w chicken.jpg', 'key': 'u', 'origWidth': 411, 'origHeight': 411, 'width': 411, 'height': 411, 'widthPercent': 0.45, 'rescaleHeight': False, 'trialN': 31, 'loaded': True, 'loadedTime': 4098.399999976158, 'positionName': 'LEFT', 'positionCoords': [510.6, 334.5], 'bid': 5.11}, {'imgObject': {}, 'id': 'cocktailshrimp', 'src': '/static/foodstim60/cocktailshrimp.jpg', 'key': 'i', 'origWidth': 410, 'origHeight': 410, 'width': 410, 'height': 410, 'widthPercent': 0.45, 'rescaleHeight': False, 'trialN': 31, 'loaded': True, 'loadedTime': 5551.699999928474, 'positionName': 'RIGHT', 'positionCoords': [998.4, 335], 'bid': 5.47}]",59653.5,1669849153202,salad w chicken,cocktailshrimp,5.11,5.47,0.35999999999999943,salad w chicken,1139.1000000238419,1140,1140.0,True,u,61301.5,1648.0,1669849154850,1648,HRV,HRV_0317,2022-11-30 23:03:14
32,"[{'imgObject': {}, 'id': 'blackbeanswithrice', 'src': '/static/foodstim60/blackbeanswithrice.jpg', 'key': 'u', 'origWidth': 410, 'origHeight': 410, 'width': 410, 'height': 410, 'widthPercent': 0.45, 'rescaleHeight': False, 'trialN': 32, 'loaded': True, 'loadedTime': 4710, 'positionName': 'LEFT', 'positionCoords': [511.6, 335], 'bid': 3.15}, {'imgObject': {}, 'id': 'strawberries', 'src': '/static/foodstim60/strawberries.jpg', 'key': 'i', 'origWidth': 410, 'origHeight': 410, 'width': 410, 'height': 410, 'widthPercent': 0.45, 'rescaleHeight': False, 'trialN': 32, 'loaded': True, 'loadedTime': 6060.699999928474, 'positionName': 'RIGHT', 'positionCoords': [998.4, 335], 'bid': 7.54}]",61301.799999952316,1669849154850,blackbeanswithrice,strawberries,3.15,7.54,4.390000000000001,strawberries,1195.1000000238419,1196,1196.0,True,i,63007.39999997616,1705.6000000238419,1669849156556,1706,HRV,HRV_0317,2022-11-30 23:03:14
33,"[{'imgObject': {}, 'id': 'froot loops w milk', 'src': '/static/foodstim60/froot loops w milk.jpg', 'key': 'u', 'origWidth': 410, 'origHeight': 410, 'width': 410, 'height': 410, 'widthPercent': 0.45, 'rescaleHeight': False, 'trialN': 33, 'loaded': True, 'loadedTime': 5564.5, 'positionName': 'LEFT', 'positionCoords': [511.6, 335], 'bid': 0.31}, {'imgObject': {}, 'id': 'bagel plain', 'src': '/static/foodstim60/bagel plain.jpg', 'key': 'i', 'origWidth': 410, 'origHeight': 410, 'width': 410, 'height': 410, 'widthPercent': 0.45, 'rescaleHeight': False, 'trialN': 33, 'loaded': True, 'loadedTime': 5881.299999952316, 'positionName': 'RIGHT', 'positionCoords': [998.4, 335], 'bid': 2.44}]",63007.60000002384,1669849156556,froot loops w milk,bagel plain,0.31,2.44,2.13,bagel plain,1040.8999999761581,1042,1041.8999999761581,True,i,64553.39999997616,1545.7999999523163,1669849158102,1546,HRV,HRV_0317,2022-11-30 23:03:14
34,"[{'imgObject': {}, 'id': 'pear', 'src': '/static/foodstim60/pear.jpg', 'key': 'u', 'origWidth': 411, 'origHeight': 410, 'width': 411, 'height': 410, 'widthPercent': 0.45, 'rescaleHeight': False, 'trialN': 34, 'loaded': True, 'loadedTime': 5003.299999952316, 'positionName': 'LEFT', 'positionCoords': [510.6, 335], 'bid': 8.25}, {'imgObject': {}, 'id': 'cherry tomato', 'src': '/static/foodstim60/cherry tomato.jpg', 'key': 'i', 'origWidth': 410, 'origHeight': 410, 'width': 410, 'height': 410, 'widthPercent': 0.45, 'rescaleHeight': False, 'trialN': 34, 'loaded': True, 'loadedTime': 5249.5, 'positionName': 'RIGHT', 'positionCoords': [998.4, 335], 'bid': 5.5}]",64553.89999997616,1669849158102,pear,cherry tomato,8.25,5.5,-2.75,pear,1294.7000000476837,1296,1295.7999999523163,True,u,66357.39999997616,1803.5,1669849159906,1804,HRV,HRV_0317,2022-11-30 23:03:14
35,"[{'imgObject': {}, 'id': 'fried eggs', 'src': '/static/foodstim60/fried eggs.jpg', 'key': 'u', 'origWidth': 410, 'origHeight': 410, 'width': 410, 'height': 410, 'widthPercent': 0.45, 'rescaleHeight': False, 'trialN': 35, 'loaded': True, 'loadedTime': 6061.600000023842, 'positionName': 'LEFT', 'positionCoords': [511.6, 335], 'bid': 2.65}, {'imgObject': {}, 'id': 'turkey sandwich', 'src': '/static/foodstim60/turkey sandwich.jpg', 'key': 'i', 'origWidth': 409, 'origHeight': 409, 'width': 409, 'height': 409, 'widthPercent': 0.45, 'rescaleHeight': False, 'trialN': 35, 'loaded': True, 'loadedTime': 3854.600000023842, 'positionName': 'RIGHT', 'positionCoords': [998.4, 335.5], 'bid': 4.98}]",66357.89999997616,1669849159906,fried eggs,turkey sandwich,2.65,4.98,2.3300000000000005,turkey sandwich,1074.6000000238419,1075,1075.2000000476837,True,i,67937.69999992847,1579.7999999523163,1669849161486,1580,HRV,HRV_0317,2022-11-30 23:03:14
36,"[{'imgObject': {}, 'id': 'granola w milk', 'src': '/static/foodstim60/granola w milk.jpg', 'key': 'u', 'origWidth': 410, 'origHeight': 410, 'width': 410, 'height': 410, 'widthPercent': 0.45, 'rescaleHeight': False, 'trialN': 36, 'loaded': True, 'loadedTime': 5644.899999976158, 'positionName': 'LEFT', 'positionCoords': [511.6, 335], 'bid': 0.28}, {'imgObject': {}, 'id': 'salad w chicken', 'src': '/static/foodstim60/salad w chicken.jpg', 'key': 'i', 'origWidth': 411, 'origHeight': 411, 'width': 411, 'height': 411, 'widthPercent': 0.45, 'rescaleHeight': False, 'trialN': 36, 'loaded': True, 'loadedTime': 4083.6999999284744, 'positionName': 'RIGHT', 'positionCoords': [998.4, 334.5], 'bid': 5.11}]",67938.10000002384,1669849161487,granola w milk,salad w chicken,0.28,5.11,4.83,salad w chicken,1102.2999999523163,1103,1103.2999999523163,True,i,69553.39999997616,1615.2999999523163,1669849163102,1615,HRV,HRV_0317,2022-11-30 23:03:14
37,"[{'imgObject': {}, 'id': 'hashbrowns', 'src': '/static/foodstim60/hashbrowns.jpg', 'key': 'u', 'origWidth': 411, 'origHeight': 410, 'width': 411, 'height': 410, 'widthPercent': 0.45, 'rescaleHeight': False, 'trialN': 37, 'loaded': True, 'loadedTime': 6088.799999952316, 'positionName': 'LEFT', 'positionCoords': [510.6, 335], 'bid': 0.53}, {'imgObject': {}, 'id': 'popsicles', 'src': '/static/foodstim60/popsicles.jpg', 'key': 'i', 'origWidth': 410, 'origHeight': 410, 'width': 410, 'height': 410, 'widthPercent': 0.45, 'rescaleHeight': False, 'trialN': 37, 'loaded': True, 'loadedTime': 5967.699999928474, 'positionName': 'RIGHT', 'positionCoords': [998.4, 335], 'bid': 0.23}]",69553.89999997616,1669849163102,hashbrowns,popsicles,0.53,0.23,-0.30000000000000004,popsicles,1494.6000000238419,1496,1495.6000000238419,True,i,71563.39999997616,2009.5,1669849165112,2010,HRV,HRV_0317,2022-11-30 23:03:14
38,"[{'imgObject': {}, 'id': 'salmon', 'src': '/static/foodstim60/salmon.jpg', 'key': 'u', 'origWidth': 410, 'origHeight': 409, 'width': 410, 'height': 409, 'widthPercent': 0.45, 'rescaleHeight': False, 'trialN': 38, 'loaded': True, 'loadedTime': 5719.699999928474, 'positionName': 'LEFT', 'positionCoords': [511.6, 335.5], 'bid': 7.11}, {'imgObject': {}, 'id': 'corn cob', 'src': '/static/foodstim60/corn cob.jpg', 'key': 'i', 'origWidth': 411, 'origHeight': 411, 'width': 411, 'height': 411, 'widthPercent': 0.45, 'rescaleHeight': False, 'trialN': 38, 'loaded': True, 'loadedTime': 6139.399999976158, 'positionName': 'RIGHT', 'positionCoords': [998.4, 334.5], 'bid': 6.5}]",71563.79999995232,1669849165112,salmon,corn cob,7.11,6.5,-0.6100000000000003,salmon,1181.0,1182,1182.1000000238419,True,u,73257.5,1693.7000000476837,1669849166806,1694,HRV,HRV_0317,2022-11-30 23:03:14
39,"[{'imgObject': {}, 'id': 'steak', 'src': '/static/foodstim60/steak.jpg', 'key': 'u', 'origWidth': 410, 'origHeight': 410, 'width': 410, 'height': 410, 'widthPercent': 0.45, 'rescaleHeight': False, 'trialN': 39, 'loaded': True, 'loadedTime': 6142.5, 'positionName': 'LEFT', 'positionCoords': [511.6, 335], 'bid': 7.65}, {'imgObject': {}, 'id': 'cherries', 'src': '/static/foodstim60/cherries.jpg', 'key': 'i', 'origWidth': 410, 'origHeight': 411, 'width': 410, 'height': 411, 'widthPercent': 0.45, 'rescaleHeight': False, 'trialN': 39, 'loaded': True, 'loadedTime': 5136.399999976158, 'positionName': 'RIGHT', 'positionCoords': [998.4, 334.5], 'bid': 8.08}]",73257.89999997616,1669849166806,steak,cherries,7.65,8.08,0.4299999999999997,steak,1198.6000000238419,1200,1199.6000000238419,True,u,74969.39999997616,1711.5,1669849168518,1712,HRV,HRV_0317,2022-11-30 23:03:14
40,"[{'imgObject': {}, 'id': 'Grapes', 'src': '/static/foodstim60/Grapes.jpg', 'key': 'u', 'origWidth': 411, 'origHeight': 411, 'width': 411, 'height': 411, 'widthPercent': 0.45, 'rescaleHeight': False, 'trialN': 40, 'loaded': True, 'loadedTime': 6168.5, 'positionName': 'LEFT', 'positionCoords': [510.6, 334.5], 'bid': 8.55}, {'imgObject': {}, 'id': 'orange slices', 'src': '/static/foodstim60/orange slices.jpg', 'key': 'i', 'origWidth': 409, 'origHeight': 410, 'width': 409, 'height': 410, 'widthPercent': 0.45, 'rescaleHeight': False, 'trialN': 40, 'loaded': True, 'loadedTime': 4238.899999976158, 'positionName': 'RIGHT', 'positionCoords': [998.4, 335], 'bid': 8.620000000000001}]",74969.79999995232,1669849168518,Grapes,orange slices,8.55,8.620000000000001,0.07000000000000028,orange slices,1342.6000000238419,1344,1343.5,True,i,76819.39999997616,1849.6000000238419,1669849170368,1850,HRV,HRV_0317,2022-11-30 23:03:14
41,"[{'imgObject': {}, 'id': 'fruitsalad', 'src': '/static/foodstim60/fruitsalad.jpg', 'key': 'u', 'origWidth': 410, 'origHeight': 410, 'width': 410, 'height': 410, 'widthPercent': 0.45, 'rescaleHeight': False, 'trialN': 41, 'loaded': True, 'loadedTime': 6192.199999928474, 'positionName': 'LEFT', 'positionCoords': [511.6, 335], 'bid': 9.05}, {'imgObject': {}, 'id': 'blueberries', 'src': '/static/foodstim60/blueberries.jpg', 'key': 'i', 'origWidth': 411, 'origHeight': 411, 'width': 411, 'height': 411, 'widthPercent': 0.45, 'rescaleHeight': False, 'trialN': 41, 'loaded': True, 'loadedTime': 4374.399999976158, 'positionName': 'RIGHT', 'positionCoords': [998.4, 334.5], 'bid': 8.86}]",76819.89999997616,1669849170368,fruitsalad,blueberries,9.05,8.86,-0.19000000000000128,fruitsalad,1540.8999999761581,1542,1541.7999999523163,True,u,78878.39999997616,2058.5,1669849172427,2059,HRV,HRV_0317,2022-11-30 23:03:14
42,"[{'imgObject': {}, 'id': 'granola w milk', 'src': '/static/foodstim60/granola w milk.jpg', 'key': 'u', 'origWidth': 410, 'origHeight': 410, 'width': 410, 'height': 410, 'widthPercent': 0.45, 'rescaleHeight': False, 'trialN': 42, 'loaded': True, 'loadedTime': 5644.100000023842, 'positionName': 'LEFT', 'positionCoords': [511.6, 335], 'bid': 0.28}, {'imgObject': {}, 'id': 'eggs', 'src': '/static/foodstim60/eggs.jpg', 'key': 'i', 'origWidth': 409, 'origHeight': 409, 'width': 409, 'height': 409, 'widthPercent': 0.45, 'rescaleHeight': False, 'trialN': 42, 'loaded': True, 'loadedTime': 3923.1999999284744, 'positionName': 'RIGHT', 'positionCoords': [998.4, 335.5], 'bid': 2.4}]",78878.60000002384,1669849172427,granola w milk,eggs,0.28,2.4,2.12,eggs,1433.5,1434,1434.0999999046326,True,i,80815.39999997616,1936.7999999523163,1669849174364,1937,HRV,HRV_0317,2022-11-30 23:03:14
43,"[{'imgObject': {}, 'id': 'omelette', 'src': '/static/foodstim60/omelette.jpg', 'key': 'u', 'origWidth': 410, 'origHeight': 409, 'width': 410, 'height': 409, 'widthPercent': 0.45, 'rescaleHeight': False, 'trialN': 43, 'loaded': True, 'loadedTime': 5876.899999976158, 'positionName': 'LEFT', 'positionCoords': [511.6, 335.5], 'bid': 3.31}, {'imgObject': {}, 'id': 'blackbeanswithrice', 'src': '/static/foodstim60/blackbeanswithrice.jpg', 'key': 'i', 'origWidth': 410, 'origHeight': 410, 'width': 410, 'height': 410, 'widthPercent': 0.45, 'rescaleHeight': False, 'trialN': 43, 'loaded': True, 'loadedTime': 4690.600000023842, 'positionName': 'RIGHT', 'positionCoords': [998.4, 335], 'bid': 3.15}]",80815.89999997616,1669849174364,omelette,blackbeanswithrice,3.31,3.15,-0.16000000000000014,omelette,1416.6000000238419,1418,1417.5,True,u,82739.29999995232,1923.3999999761581,1669849176288,1924,HRV,HRV_0317,2022-11-30 23:03:14
44,"[{'imgObject': {}, 'id': 'salmon', 'src': '/static/foodstim60/salmon.jpg', 'key': 'u', 'origWidth': 410, 'origHeight': 409, 'width': 410, 'height': 409, 'widthPercent': 0.45, 'rescaleHeight': False, 'trialN': 44, 'loaded': True, 'loadedTime': 5708.899999976158, 'positionName': 'LEFT', 'positionCoords': [511.6, 335.5], 'bid': 7.11}, {'imgObject': {}, 'id': 'bagel plain', 'src': '/static/foodstim60/bagel plain.jpg', 'key': 'i', 'origWidth': 410, 'origHeight': 410, 'width': 410, 'height': 410, 'widthPercent': 0.45, 'rescaleHeight': False, 'trialN': 44, 'loaded': True, 'loadedTime': 5880.799999952316, 'positionName': 'RIGHT', 'positionCoords': [998.4, 335], 'bid': 2.44}]",82739.5,1669849176288,salmon,bagel plain,7.11,2.44,-4.67,salmon,1213.3999999761581,1214,1214.2999999523163,True,u,84465.39999997616,1725.8999999761581,1669849178014,1726,HRV,HRV_0317,2022-11-30 23:03:14
45,"[{'imgObject': {}, 'id': 'turkey sandwich', 'src': '/static/foodstim60/turkey sandwich.jpg', 'key': 'u', 'origWidth': 409, 'origHeight': 409, 'width': 409, 'height': 409, 'widthPercent': 0.45, 'rescaleHeight': False, 'trialN': 45, 'loaded': True, 'loadedTime': 3835.6999999284744, 'positionName': 'LEFT', 'positionCoords': [512.6, 335.5], 'bid': 4.98}, {'imgObject': {}, 'id': 'rigatoni and sauce', 'src': '/static/foodstim60/rigatoni and sauce.jpg', 'key': 'i', 'origWidth': 410, 'origHeight': 411, 'width': 410, 'height': 411, 'widthPercent': 0.45, 'rescaleHeight': False, 'trialN': 45, 'loaded': True, 'loadedTime': 5465.5, 'positionName': 'RIGHT', 'positionCoords': [998.4, 334.5], 'bid': 6.4}]",84465.79999995232,1669849178014,turkey sandwich,rigatoni and sauce,4.98,6.4,1.42,turkey sandwich,1342.7000000476837,1344,1343.5,True,u,86317.5,1851.7000000476837,1669849179866,1852,HRV,HRV_0317,2022-11-30 23:03:14
46,"[{'imgObject': {}, 'id': 'sweetpotato', 'src': '/static/foodstim60/sweetpotato.jpg', 'key': 'u', 'origWidth': 410, 'origHeight': 410, 'width': 410, 'height': 410, 'widthPercent': 0.45, 'rescaleHeight': False, 'trialN': 46, 'loaded': True, 'loadedTime': 4939.5, 'positionName': 'LEFT', 'positionCoords': [511.6, 335], 'bid': 6.34}, {'imgObject': {}, 'id': 'cherry tomato', 'src': '/static/foodstim60/cherry tomato.jpg', 'key': 'i', 'origWidth': 410, 'origHeight': 410, 'width': 410, 'height': 410, 'widthPercent': 0.45, 'rescaleHeight': False, 'trialN': 46, 'loaded': True, 'loadedTime': 5245.899999976158, 'positionName': 'RIGHT', 'positionCoords': [998.4, 335], 'bid': 5.5}]",86317.69999992847,1669849179866,sweetpotato,cherry tomato,6.34,5.5,-0.8399999999999999,sweetpotato,1202.7000000476837,1204,1203.5,True,u,88027.39999997616,1709.7000000476837,1669849181576,1710,HRV,HRV_0317,2022-11-30 23:03:14
47,"[{'imgObject': {}, 'id': 'hashbrowns', 'src': '/static/foodstim60/hashbrowns.jpg', 'key': 'u', 'origWidth': 411, 'origHeight': 410, 'width': 411, 'height': 410, 'widthPercent': 0.45, 'rescaleHeight': False, 'trialN': 47, 'loaded': True, 'loadedTime': 6078.799999952316, 'positionName': 'LEFT', 'positionCoords': [510.6, 335], 'bid': 0.53}, {'imgObject': {}, 'id': 'Tribe humus pita', 'src': '/static/foodstim60/Tribe humus pita.jpg', 'key': 'i', 'origWidth': 411, 'origHeight': 411, 'width': 411, 'height': 411, 'widthPercent': 0.45, 'rescaleHeight': False, 'trialN': 47, 'loaded': True, 'loadedTime': 4726.199999928474, 'positionName': 'RIGHT', 'positionCoords': [998.4, 334.5], 'bid': 3.76}]",88027.79999995232,1669849181576,hashbrowns,Tribe humus pita,0.53,3.76,3.2299999999999995,Tribe humus pita,820.7000000476837,822,821.6000000238419,True,i,89365.39999997616,1337.6000000238419,1669849182914,1338,HRV,HRV_0317,2022-11-30 23:03:14
48,"[{'imgObject': {}, 'id': 'olives', 'src': '/static/foodstim60/olives.jpg', 'key': 'u', 'origWidth': 410, 'origHeight': 410, 'width': 410, 'height': 410, 'widthPercent': 0.45, 'rescaleHeight': False, 'trialN': 48, 'loaded': True, 'loadedTime': 6215.600000023842, 'positionName': 'LEFT', 'positionCoords': [511.6, 335], 'bid': 7.29}, {'imgObject': {}, 'id': 'orange slices', 'src': '/static/foodstim60/orange slices.jpg', 'key': 'i', 'origWidth': 409, 'origHeight': 410, 'width': 409, 'height': 410, 'widthPercent': 0.45, 'rescaleHeight': False, 'trialN': 48, 'loaded': True, 'loadedTime': 4291.899999976158, 'positionName': 'RIGHT', 'positionCoords': [998.4, 335], 'bid': 8.620000000000001}]",89365.5,1669849182914,olives,orange slices,7.29,8.620000000000001,1.330000000000001,orange slices,755.0,756,755.8999999761581,True,i,90627.79999995232,1262.2999999523163,1669849184176,1262,HRV,HRV_0317,2022-11-30 23:03:14
49,"[{'imgObject': {}, 'id': 'bagel plain', 'src': '/static/foodstim60/bagel plain.jpg', 'key': 'u', 'origWidth': 410, 'origHeight': 410, 'width': 410, 'height': 410, 'widthPercent': 0.45, 'rescaleHeight': False, 'trialN': 49, 'loaded': True, 'loadedTime': 5891, 'positionName': 'LEFT', 'positionCoords': [511.6, 335], 'bid': 2.44}, {'imgObject': {}, 'id': 'eggs', 'src': '/static/foodstim60/eggs.jpg', 'key': 'i', 'origWidth': 409, 'origHeight': 409, 'width': 409, 'height': 409, 'widthPercent': 0.45, 'rescaleHeight': False, 'trialN': 49, 'loaded': True, 'loadedTime': 3932.100000023842, 'positionName': 'RIGHT', 'positionCoords': [998.4, 335.5], 'bid': 2.4}]",90628.0,1669849184176,bagel plain,eggs,2.44,2.4,-0.040000000000000036,eggs,892.5,894,893.3999999761581,True,i,92033.39999997616,1405.3999999761581,1669849185582,1406,HRV,HRV_0317,2022-11-30 23:03:14
50,"[{'imgObject': {}, 'id': 'olives', 'src': '/static/foodstim60/olives.jpg', 'key': 'u', 'origWidth': 410, 'origHeight': 410, 'width': 410, 'height': 410, 'widthPercent': 0.45, 'rescaleHeight': False, 'trialN': 50, 'loaded': True, 'loadedTime': 6202.899999976158, 'positionName': 'LEFT', 'positionCoords': [511.6, 335], 'bid': 7.29}, {'imgObject': {}, 'id': 'lox', 'src': '/static/foodstim60/lox.jpg', 'key': 'i', 'origWidth': 410, 'origHeight': 411, 'width': 410, 'height': 411, 'widthPercent': 0.45, 'rescaleHeight': False, 'trialN': 50, 'loaded': True, 'loadedTime': 5911.600000023842, 'positionName': 'RIGHT', 'positionCoords': [998.4, 334.5], 'bid': 2.72}]",92033.69999992847,1669849185582,olives,lox,7.29,2.72,-4.57,olives,1078.8000000715256,1080,1079.6000000238419,True,u,93627.39999997616,1593.7000000476837,1669849187176,1594,HRV,HRV_0317,2022-11-30 23:03:14
51,"[{'imgObject': {}, 'id': 'chicken nuggets2', 'src': '/static/foodstim60/chicken nuggets2.jpg', 'key': 'u', 'origWidth': 410, 'origHeight': 409, 'width': 410, 'height': 409, 'widthPercent': 0.45, 'rescaleHeight': False, 'trialN': 51, 'loaded': True, 'loadedTime': 6219.199999928474, 'positionName': 'LEFT', 'positionCoords': [511.6, 335.5], 'bid': 4.21}, {'imgObject': {}, 'id': 'kiwi', 'src': '/static/foodstim60/kiwi.jpg', 'key': 'i', 'origWidth': 410, 'origHeight': 410, 'width': 410, 'height': 410, 'widthPercent': 0.45, 'rescaleHeight': False, 'trialN': 51, 'loaded': True, 'loadedTime': 5165.699999928474, 'positionName': 'RIGHT', 'positionCoords': [998.4, 335], 'bid': 5.5}]",93627.79999995232,1669849187176,chicken nuggets2,kiwi,4.21,5.5,1.29,kiwi,1085.1000000238419,1086,1086.0,True,i,95221.5,1593.7000000476837,1669849188770,1594,HRV,HRV_0317,2022-11-30 23:03:14
52,"[{'imgObject': {}, 'id': 'blackbeanswithrice', 'src': '/static/foodstim60/blackbeanswithrice.jpg', 'key': 'u', 'origWidth': 410, 'origHeight': 410, 'width': 410, 'height': 410, 'widthPercent': 0.45, 'rescaleHeight': False, 'trialN': 52, 'loaded': True, 'loadedTime': 4700.899999976158, 'positionName': 'LEFT', 'positionCoords': [511.6, 335], 'bid': 3.15}, {'imgObject': {}, 'id': 'burrito', 'src': '/static/foodstim60/burrito.jpg', 'key': 'i', 'origWidth': 410, 'origHeight': 410, 'width': 410, 'height': 410, 'widthPercent': 0.45, 'rescaleHeight': False, 'trialN': 52, 'loaded': True, 'loadedTime': 4819, 'positionName': 'RIGHT', 'positionCoords': [998.4, 335], 'bid': 4.05}]",95221.89999997616,1669849188770,blackbeanswithrice,burrito,3.15,4.05,0.8999999999999999,burrito,874.6000000238419,876,875.6000000238419,True,i,96613.39999997616,1391.5,1669849190162,1392,HRV,HRV_0317,2022-11-30 23:03:14
53,"[{'imgObject': {}, 'id': 'mango', 'src': '/static/foodstim60/mango.jpg', 'key': 'u', 'origWidth': 411, 'origHeight': 411, 'width': 411, 'height': 411, 'widthPercent': 0.45, 'rescaleHeight': False, 'trialN': 53, 'loaded': True, 'loadedTime': 3942.2999999523163, 'positionName': 'LEFT', 'positionCoords': [510.6, 334.5], 'bid': 6.8100000000000005}, {'imgObject': {}, 'id': 'sushi w_condiments', 'src': '/static/foodstim60/sushi w_condiments.jpg', 'key': 'i', 'origWidth': 410, 'origHeight': 410, 'width': 410, 'height': 410, 'widthPercent': 0.45, 'rescaleHeight': False, 'trialN': 53, 'loaded': True, 'loadedTime': 5666.399999976158, 'positionName': 'RIGHT', 'positionCoords': [998.4, 335], 'bid': 6.48}]",96613.89999997616,1669849190162,mango,sushi w_condiments,6.8100000000000005,6.48,-0.33000000000000007,mango,938.2000000476837,939,938.7999999523163,True,u,98065.39999997616,1451.5,1669849191614,1452,HRV,HRV_0317,2022-11-30 23:03:14
54,"[{'imgObject': {}, 'id': 'roastedpotatoes', 'src': '/static/foodstim60/roastedpotatoes.jpg', 'key': 'u', 'origWidth': 409, 'origHeight': 410, 'width': 409, 'height': 410, 'widthPercent': 0.45, 'rescaleHeight': False, 'trialN': 54, 'loaded': True, 'loadedTime': 6027.299999952316, 'positionName': 'LEFT', 'positionCoords': [512.6, 335], 'bid': 5}, {'imgObject': {}, 'id': 'edamame', 'src': '/static/foodstim60/edamame.jpg', 'key': 'i', 'origWidth': 409, 'origHeight': 410, 'width': 409, 'height': 410, 'widthPercent': 0.45, 'rescaleHeight': False, 'trialN': 54, 'loaded': True, 'loadedTime': 5396.799999952316, 'positionName': 'RIGHT', 'positionCoords': [998.4, 335], 'bid': 4.2}]",98065.69999992847,1669849191614,roastedpotatoes,edamame,5.0,4.2,-0.7999999999999998,roastedpotatoes,1014.9000000953674,1016,1015.8000000715256,True,u,99585.39999997616,1519.7000000476837,1669849193134,1520,HRV,HRV_0317,2022-11-30 23:03:14
55,"[{'imgObject': {}, 'id': 'sushi w_condiments', 'src': '/static/foodstim60/sushi w_condiments.jpg', 'key': 'u', 'origWidth': 410, 'origHeight': 410, 'width': 410, 'height': 410, 'widthPercent': 0.45, 'rescaleHeight': False, 'trialN': 55, 'loaded': True, 'loadedTime': 5656.399999976158, 'positionName': 'LEFT', 'positionCoords': [511.6, 335], 'bid': 6.48}, {'imgObject': {}, 'id': 'cherries', 'src': '/static/foodstim60/cherries.jpg', 'key': 'i', 'origWidth': 410, 'origHeight': 411, 'width': 410, 'height': 411, 'widthPercent': 0.45, 'rescaleHeight': False, 'trialN': 55, 'loaded': True, 'loadedTime': 5126.899999976158, 'positionName': 'RIGHT', 'positionCoords': [998.4, 334.5], 'bid': 8.08}]",99585.89999997616,1669849193134,sushi w_condiments,cherries,6.48,8.08,1.5999999999999996,sushi w_condiments,894.5,896,895.5,True,u,100985.5,1399.6000000238419,1669849194534,1400,HRV,HRV_0317,2022-11-30 23:03:14
56,"[{'imgObject': {}, 'id': 'edamame', 'src': '/static/foodstim60/edamame.jpg', 'key': 'u', 'origWidth': 409, 'origHeight': 410, 'width': 409, 'height': 410, 'widthPercent': 0.45, 'rescaleHeight': False, 'trialN': 56, 'loaded': True, 'loadedTime': 5276.399999976158, 'positionName': 'LEFT', 'positionCoords': [512.6, 335], 'bid': 4.2}, {'imgObject': {}, 'id': 'Grapes', 'src': '/static/foodstim60/Grapes.jpg', 'key': 'i', 'origWidth': 411, 'origHeight': 411, 'width': 411, 'height': 411, 'widthPercent': 0.45, 'rescaleHeight': False, 'trialN': 56, 'loaded': True, 'loadedTime': 6168.899999976158, 'positionName': 'RIGHT', 'positionCoords': [998.4, 334.5], 'bid': 8.55}]",100985.89999997616,1669849194534,edamame,Grapes,4.2,8.55,4.3500000000000005,Grapes,1070.1000000238419,1071,1070.7000000476837,True,i,102569.5,1583.6000000238419,1669849196118,1584,HRV,HRV_0317,2022-11-30 23:03:14
57,"[{'imgObject': {}, 'id': 'eggs', 'src': '/static/foodstim60/eggs.jpg', 'key': 'u', 'origWidth': 409, 'origHeight': 409, 'width': 409, 'height': 409, 'widthPercent': 0.45, 'rescaleHeight': False, 'trialN': 57, 'loaded': True, 'loadedTime': 3887.600000023842, 'positionName': 'LEFT', 'positionCoords': [512.6, 335.5], 'bid': 2.4}, {'imgObject': {}, 'id': 'ice cream sundae 002', 'src': '/static/foodstim60/ice cream sundae 002.jpg', 'key': 'i', 'origWidth': 409, 'origHeight': 409, 'width': 409, 'height': 409, 'widthPercent': 0.45, 'rescaleHeight': False, 'trialN': 57, 'loaded': True, 'loadedTime': 6229.399999976158, 'positionName': 'RIGHT', 'positionCoords': [998.4, 335.5], 'bid': 3.22}]",102569.89999997616,1669849196118,eggs,ice cream sundae 002,2.4,3.22,0.8200000000000003,eggs,910.5,911,911.2000000476837,True,u,103985.39999997616,1415.5,1669849197534,1416,HRV,HRV_0317,2022-11-30 23:03:14
58,"[{'imgObject': {}, 'id': 'popsicles', 'src': '/static/foodstim60/popsicles.jpg', 'key': 'u', 'origWidth': 410, 'origHeight': 410, 'width': 410, 'height': 410, 'widthPercent': 0.45, 'rescaleHeight': False, 'trialN': 58, 'loaded': True, 'loadedTime': 5944.600000023842, 'positionName': 'LEFT', 'positionCoords': [511.6, 335], 'bid': 0.23}, {'imgObject': {}, 'id': 'cheerios', 'src': '/static/foodstim60/cheerios.jpg', 'key': 'i', 'origWidth': 409, 'origHeight': 410, 'width': 409, 'height': 410, 'widthPercent': 0.45, 'rescaleHeight': False, 'trialN': 58, 'loaded': True, 'loadedTime': 4518, 'positionName': 'RIGHT', 'positionCoords': [998.4, 335], 'bid': 0.18}]",103985.79999995232,1669849197534,popsicles,cheerios,0.23,0.18,-0.05000000000000002,popsicles,895.1000000238419,896,896.0,True,u,105387.5,1401.7000000476837,1669849198936,1402,HRV,HRV_0317,2022-11-30 23:03:14
59,"[{'imgObject': {}, 'id': 'cantaloupe', 'src': '/static/foodstim60/cantaloupe.jpg', 'key': 'u', 'origWidth': 409, 'origHeight': 409, 'width': 409, 'height': 409, 'widthPercent': 0.45, 'rescaleHeight': False, 'trialN': 59, 'loaded': True, 'loadedTime': 4326.100000023842, 'positionName': 'LEFT', 'positionCoords': [512.6, 335.5], 'bid': 7.78}, {'imgObject': {}, 'id': 'cocktailshrimp', 'src': '/static/foodstim60/cocktailshrimp.jpg', 'key': 'i', 'origWidth': 410, 'origHeight': 410, 'width': 410, 'height': 410, 'widthPercent': 0.45, 'rescaleHeight': False, 'trialN': 59, 'loaded': True, 'loadedTime': 5551.299999952316, 'positionName': 'RIGHT', 'positionCoords': [998.4, 335], 'bid': 5.47}]",105387.69999992847,1669849198936,cantaloupe,cocktailshrimp,7.78,5.47,-2.3100000000000005,cantaloupe,868.9000000953674,870,869.8000000715256,True,u,106761.39999997616,1373.7000000476837,1669849200310,1374,HRV,HRV_0317,2022-11-30 23:03:14
60,"[{'imgObject': {}, 'id': 'olives', 'src': '/static/foodstim60/olives.jpg', 'key': 'u', 'origWidth': 410, 'origHeight': 410, 'width': 410, 'height': 410, 'widthPercent': 0.45, 'rescaleHeight': False, 'trialN': 60, 'loaded': True, 'loadedTime': 6214.699999928474, 'positionName': 'LEFT', 'positionCoords': [511.6, 335], 'bid': 7.29}, {'imgObject': {}, 'id': 'strawberries', 'src': '/static/foodstim60/strawberries.jpg', 'key': 'i', 'origWidth': 410, 'origHeight': 410, 'width': 410, 'height': 410, 'widthPercent': 0.45, 'rescaleHeight': False, 'trialN': 60, 'loaded': True, 'loadedTime': 6041.299999952316, 'positionName': 'RIGHT', 'positionCoords': [998.4, 335], 'bid': 7.54}]",106761.89999997616,1669849200310,olives,strawberries,7.29,7.54,0.25,strawberries,1150.6000000238419,1152,1151.7000000476837,True,i,108425.39999997616,1663.5,1669849201974,1664,HRV,HRV_0317,2022-11-30 23:03:14
61,"[{'imgObject': {}, 'id': 'chickenfingers', 'src': '/static/foodstim60/chickenfingers.jpg', 'key': 'u', 'origWidth': 410, 'origHeight': 410, 'width': 410, 'height': 410, 'widthPercent': 0.45, 'rescaleHeight': False, 'trialN': 61, 'loaded': True, 'loadedTime': 6238.199999928474, 'positionName': 'LEFT', 'positionCoords': [511.6, 335], 'bid': 7.140000000000001}, {'imgObject': {}, 'id': 'olives', 'src': '/static/foodstim60/olives.jpg', 'key': 'i', 'origWidth': 410, 'origHeight': 410, 'width': 410, 'height': 410, 'widthPercent': 0.45, 'rescaleHeight': False, 'trialN': 61, 'loaded': True, 'loadedTime': 6205.100000023842, 'positionName': 'RIGHT', 'positionCoords': [998.4, 335], 'bid': 7.29}]",108426.0,1669849201974,chickenfingers,olives,7.140000000000001,7.29,0.14999999999999947,chickenfingers,870.3999999761581,871,871.1999999284744,True,u,109801.39999997616,1375.3999999761581,1669849203350,1376,HRV,HRV_0317,2022-11-30 23:03:14
62,"[{'imgObject': {}, 'id': 'cheerios', 'src': '/static/foodstim60/cheerios.jpg', 'key': 'u', 'origWidth': 409, 'origHeight': 410, 'width': 409, 'height': 410, 'widthPercent': 0.45, 'rescaleHeight': False, 'trialN': 62, 'loaded': True, 'loadedTime': 4526.699999928474, 'positionName': 'LEFT', 'positionCoords': [512.6, 335], 'bid': 0.18}, {'imgObject': {}, 'id': 'roastedpotatoes', 'src': '/static/foodstim60/roastedpotatoes.jpg', 'key': 'i', 'origWidth': 409, 'origHeight': 410, 'width': 409, 'height': 410, 'widthPercent': 0.45, 'rescaleHeight': False, 'trialN': 62, 'loaded': True, 'loadedTime': 6025.399999976158, 'positionName': 'RIGHT', 'positionCoords': [998.4, 335], 'bid': 5}]",109801.79999995232,1669849203350,cheerios,roastedpotatoes,0.18,5.0,4.82,roastedpotatoes,910.3000000715256,911,910.8000000715256,True,i,111221.5,1419.7000000476837,1669849204770,1420,HRV,HRV_0317,2022-11-30 23:03:14
63,"[{'imgObject': {}, 'id': 'popsicles', 'src': '/static/foodstim60/popsicles.jpg', 'key': 'u', 'origWidth': 410, 'origHeight': 410, 'width': 410, 'height': 410, 'widthPercent': 0.45, 'rescaleHeight': False, 'trialN': 63, 'loaded': True, 'loadedTime': 5955.600000023842, 'positionName': 'LEFT', 'positionCoords': [511.6, 335], 'bid': 0.23}, {'imgObject': {}, 'id': 'avocado', 'src': '/static/foodstim60/avocado.jpg', 'key': 'i', 'origWidth': 409, 'origHeight': 409, 'width': 409, 'height': 409, 'widthPercent': 0.45, 'rescaleHeight': False, 'trialN': 63, 'loaded': True, 'loadedTime': 5986.699999928474, 'positionName': 'RIGHT', 'positionCoords': [998.4, 335.5], 'bid': 5.0600000000000005}]",111221.89999997616,1669849204770,popsicles,avocado,0.23,5.0600000000000005,4.83,popsicles,922.6000000238419,924,923.6000000238419,True,u,112659.39999997616,1437.5,1669849206208,1438,HRV,HRV_0317,2022-11-30 23:03:14
64,"[{'imgObject': {}, 'id': 'fruitsalad', 'src': '/static/foodstim60/fruitsalad.jpg', 'key': 'u', 'origWidth': 410, 'origHeight': 410, 'width': 410, 'height': 410, 'widthPercent': 0.45, 'rescaleHeight': False, 'trialN': 64, 'loaded': True, 'loadedTime': 6182.199999928474, 'positionName': 'LEFT', 'positionCoords': [511.6, 335], 'bid': 9.05}, {'imgObject': {}, 'id': 'veggieswithdip', 'src': '/static/foodstim60/veggieswithdip.jpg', 'key': 'i', 'origWidth': 409, 'origHeight': 409, 'width': 409, 'height': 409, 'widthPercent': 0.45, 'rescaleHeight': False, 'trialN': 64, 'loaded': True, 'loadedTime': 5511.699999928474, 'positionName': 'RIGHT', 'positionCoords': [998.4, 335.5], 'bid': 8.88}]",112659.89999997616,1669849206208,fruitsalad,veggieswithdip,9.05,8.88,-0.16999999999999993,fruitsalad,852.5,853,853.1000000238419,True,u,114017.5,1357.6000000238419,1669849207566,1358,HRV,HRV_0317,2022-11-30 23:03:14
65,"[{'imgObject': {}, 'id': 'raisin bran w milk', 'src': '/static/foodstim60/raisin bran w milk.jpg', 'key': 'u', 'origWidth': 411, 'origHeight': 411, 'width': 411, 'height': 411, 'widthPercent': 0.45, 'rescaleHeight': False, 'trialN': 65, 'loaded': True, 'loadedTime': 6239.299999952316, 'positionName': 'LEFT', 'positionCoords': [510.6, 334.5], 'bid': 0.33}, {'imgObject': {}, 'id': 'lox', 'src': '/static/foodstim60/lox.jpg', 'key': 'i', 'origWidth': 410, 'origHeight': 411, 'width': 410, 'height': 411, 'widthPercent': 0.45, 'rescaleHeight': False, 'trialN': 65, 'loaded': True, 'loadedTime': 5893.699999928474, 'positionName': 'RIGHT', 'positionCoords': [998.4, 334.5], 'bid': 2.72}]",114018.0,1669849207566,raisin bran w milk,lox,0.33,2.72,2.39,lox,982.7999999523163,984,983.5,True,i,115503.5,1485.5,1669849209052,1486,HRV,HRV_0317,2022-11-30 23:03:14
66,"[{'imgObject': {}, 'id': 'bagel and cc', 'src': '/static/foodstim60/bagel and cc.jpg', 'key': 'u', 'origWidth': 410, 'origHeight': 410, 'width': 410, 'height': 410, 'widthPercent': 0.45, 'rescaleHeight': False, 'trialN': 66, 'loaded': True, 'loadedTime': 6254.199999928474, 'positionName': 'LEFT', 'positionCoords': [511.6, 335], 'bid': 2.34}, {'imgObject': {}, 'id': 'hotdog w must', 'src': '/static/foodstim60/hotdog w must.jpg', 'key': 'i', 'origWidth': 409, 'origHeight': 409, 'width': 409, 'height': 409, 'widthPercent': 0.45, 'rescaleHeight': False, 'trialN': 66, 'loaded': True, 'loadedTime': 5445.100000023842, 'positionName': 'RIGHT', 'positionCoords': [998.4, 335.5], 'bid': 1.3}]",115503.89999997616,1669849209052,bagel and cc,hotdog w must,2.34,1.3,-1.0399999999999998,bagel and cc,944.6000000238419,946,945.6000000238419,True,u,116957.39999997616,1453.5,1669849210506,1454,HRV,HRV_0317,2022-11-30 23:03:14
67,"[{'imgObject': {}, 'id': 'mango', 'src': '/static/foodstim60/mango.jpg', 'key': 'u', 'origWidth': 411, 'origHeight': 411, 'width': 411, 'height': 411, 'widthPercent': 0.45, 'rescaleHeight': False, 'trialN': 67, 'loaded': True, 'loadedTime': 3981.5, 'positionName': 'LEFT', 'positionCoords': [510.6, 334.5], 'bid': 6.8100000000000005}, {'imgObject': {}, 'id': 'raspberries', 'src': '/static/foodstim60/raspberries.jpg', 'key': 'i', 'origWidth': 411, 'origHeight': 411, 'width': 411, 'height': 411, 'widthPercent': 0.45, 'rescaleHeight': False, 'trialN': 67, 'loaded': True, 'loadedTime': 5112.399999976158, 'positionName': 'RIGHT', 'positionCoords': [998.4, 334.5], 'bid': 8.36}]",116957.89999997616,1669849210506,mango,raspberries,6.8100000000000005,8.36,1.549999999999999,raspberries,954.5,956,955.5,True,i,118429.39999997616,1471.5,1669849211978,1472,HRV,HRV_0317,2022-11-30 23:03:14
68,"[{'imgObject': {}, 'id': 'veggieswithdip', 'src': '/static/foodstim60/veggieswithdip.jpg', 'key': 'u', 'origWidth': 409, 'origHeight': 409, 'width': 409, 'height': 409, 'widthPercent': 0.45, 'rescaleHeight': False, 'trialN': 68, 'loaded': True, 'loadedTime': 5489.899999976158, 'positionName': 'LEFT', 'positionCoords': [512.6, 335.5], 'bid': 8.88}, {'imgObject': {}, 'id': 'steak', 'src': '/static/foodstim60/steak.jpg', 'key': 'i', 'origWidth': 410, 'origHeight': 410, 'width': 410, 'height': 410, 'widthPercent': 0.45, 'rescaleHeight': False, 'trialN': 68, 'loaded': True, 'loadedTime': 6139.899999976158, 'positionName': 'RIGHT', 'positionCoords': [998.4, 335], 'bid': 7.65}]",118429.89999997616,1669849211978,veggieswithdip,steak,8.88,7.65,-1.2300000000000004,steak,802.6000000238419,804,803.5,True,i,119739.29999995232,1309.3999999761581,1669849213288,1310,HRV,HRV_0317,2022-11-30 23:03:14
69,"[{'imgObject': {}, 'id': 'turkey sandwich', 'src': '/static/foodstim60/turkey sandwich.jpg', 'key': 'u', 'origWidth': 409, 'origHeight': 409, 'width': 409, 'height': 409, 'widthPercent': 0.45, 'rescaleHeight': False, 'trialN': 69, 'loaded': True, 'loadedTime': 3845.6999999284744, 'positionName': 'LEFT', 'positionCoords': [512.6, 335.5], 'bid': 4.98}, {'imgObject': {}, 'id': 'fruitsalad', 'src': '/static/foodstim60/fruitsalad.jpg', 'key': 'i', 'origWidth': 410, 'origHeight': 410, 'width': 410, 'height': 410, 'widthPercent': 0.45, 'rescaleHeight': False, 'trialN': 69, 'loaded': True, 'loadedTime': 6181.799999952316, 'positionName': 'RIGHT', 'positionCoords': [998.4, 335], 'bid': 9.05}]",119739.39999997616,1669849213288,turkey sandwich,fruitsalad,4.98,9.05,4.07,fruitsalad,813.1000000238419,814,814.0,True,i,121065.39999997616,1326.0,1669849214614,1326,HRV,HRV_0317,2022-11-30 23:03:14
70,"[{'imgObject': {}, 'id': 'omelette', 'src': '/static/foodstim60/omelette.jpg', 'key': 'u', 'origWidth': 410, 'origHeight': 409, 'width': 410, 'height': 409, 'widthPercent': 0.45, 'rescaleHeight': False, 'trialN': 70, 'loaded': True, 'loadedTime': 5852.399999976158, 'positionName': 'LEFT', 'positionCoords': [511.6, 335.5], 'bid': 3.31}, {'imgObject': {}, 'id': 'bagel plain', 'src': '/static/foodstim60/bagel plain.jpg', 'key': 'i', 'origWidth': 410, 'origHeight': 410, 'width': 410, 'height': 410, 'widthPercent': 0.45, 'rescaleHeight': False, 'trialN': 70, 'loaded': True, 'loadedTime': 5878.299999952316, 'positionName': 'RIGHT', 'positionCoords': [998.4, 335], 'bid': 2.44}]",121065.79999995232,1669849214614,omelette,bagel plain,3.31,2.44,-0.8700000000000001,bagel plain,878.6000000238419,879,879.2000000476837,True,i,122457.29999995232,1391.5,1669849216006,1392,HRV,HRV_0317,2022-11-30 23:03:14
71,"[{'imgObject': {}, 'id': 'burrito', 'src': '/static/foodstim60/burrito.jpg', 'key': 'u', 'origWidth': 410, 'origHeight': 410, 'width': 410, 'height': 410, 'widthPercent': 0.45, 'rescaleHeight': False, 'trialN': 71, 'loaded': True, 'loadedTime': 4809.799999952316, 'positionName': 'LEFT', 'positionCoords': [511.6, 335], 'bid': 4.05}, {'imgObject': {}, 'id': 'apple slices', 'src': '/static/foodstim60/apple slices.jpg', 'key': 'i', 'origWidth': 409, 'origHeight': 410, 'width': 409, 'height': 410, 'widthPercent': 0.45, 'rescaleHeight': False, 'trialN': 71, 'loaded': True, 'loadedTime': 6259.799999952316, 'positionName': 'RIGHT', 'positionCoords': [998.4, 335], 'bid': 8.36}]",122457.60000002384,1669849216006,burrito,apple slices,4.05,8.36,4.31,apple slices,1358.7999999523163,1360,1359.7999999523163,True,i,124333.89999997616,1876.2999999523163,1669849217882,1876,HRV,HRV_0317,2022-11-30 23:03:14
72,"[{'imgObject': {}, 'id': 'rigatoni', 'src': '/static/foodstim60/rigatoni.jpg', 'key': 'u', 'origWidth': 411, 'origHeight': 411, 'width': 411, 'height': 411, 'widthPercent': 0.45, 'rescaleHeight': False, 'trialN': 72, 'loaded': True, 'loadedTime': 4767.699999928474, 'positionName': 'LEFT', 'positionCoords': [510.6, 334.5], 'bid': 3.31}, {'imgObject': {}, 'id': 'fried eggs', 'src': '/static/foodstim60/fried eggs.jpg', 'key': 'i', 'origWidth': 410, 'origHeight': 410, 'width': 410, 'height': 410, 'widthPercent': 0.45, 'rescaleHeight': False, 'trialN': 72, 'loaded': True, 'loadedTime': 6063.600000023842, 'positionName': 'RIGHT', 'positionCoords': [998.4, 335], 'bid': 2.65}]",124334.10000002384,1669849217882,rigatoni,fried eggs,3.31,2.65,-0.6600000000000001,rigatoni,1146.7999999523163,1148,1147.7999999523163,True,u,125995.39999997616,1661.2999999523163,1669849219544,1662,HRV,HRV_0317,2022-11-30 23:03:14
73,"[{'imgObject': {}, 'id': 'yogurt no spoon', 'src': '/static/foodstim60/yogurt no spoon.jpg', 'key': 'u', 'origWidth': 411, 'origHeight': 410, 'width': 411, 'height': 410, 'widthPercent': 0.45, 'rescaleHeight': False, 'trialN': 73, 'loaded': True, 'loadedTime': 4618.699999928474, 'positionName': 'LEFT', 'positionCoords': [510.6, 335], 'bid': 2.78}, {'imgObject': {}, 'id': 'Tribe humus pita', 'src': '/static/foodstim60/Tribe humus pita.jpg', 'key': 'i', 'origWidth': 411, 'origHeight': 411, 'width': 411, 'height': 411, 'widthPercent': 0.45, 'rescaleHeight': False, 'trialN': 73, 'loaded': True, 'loadedTime': 4740.899999976158, 'positionName': 'RIGHT', 'positionCoords': [998.4, 334.5], 'bid': 3.76}]",125995.89999997616,1669849219544,yogurt no spoon,Tribe humus pita,2.78,3.76,0.98,yogurt no spoon,1068.6000000238419,1070,1069.5,True,u,127569.5,1573.6000000238419,1669849221118,1574,HRV,HRV_0317,2022-11-30 23:03:14
74,"[{'imgObject': {}, 'id': 'burrito', 'src': '/static/foodstim60/burrito.jpg', 'key': 'u', 'origWidth': 410, 'origHeight': 410, 'width': 410, 'height': 410, 'widthPercent': 0.45, 'rescaleHeight': False, 'trialN': 74, 'loaded': True, 'loadedTime': 4819.5, 'positionName': 'LEFT', 'positionCoords': [511.6, 335], 'bid': 4.05}, {'imgObject': {}, 'id': 'Tribe humus pita', 'src': '/static/foodstim60/Tribe humus pita.jpg', 'key': 'i', 'origWidth': 411, 'origHeight': 411, 'width': 411, 'height': 411, 'widthPercent': 0.45, 'rescaleHeight': False, 'trialN': 74, 'loaded': True, 'loadedTime': 4733.600000023842, 'positionName': 'RIGHT', 'positionCoords': [998.4, 334.5], 'bid': 3.76}]",127569.79999995232,1669849221118,burrito,Tribe humus pita,4.05,3.76,-0.29000000000000004,burrito,1134.7000000476837,1136,1135.6000000238419,True,u,129217.5,1647.7000000476837,1669849222766,1648,HRV,HRV_0317,2022-11-30 23:03:14
75,"[{'imgObject': {}, 'id': 'luckycharms', 'src': '/static/foodstim60/luckycharms.jpg', 'key': 'u', 'origWidth': 410, 'origHeight': 409, 'width': 410, 'height': 409, 'widthPercent': 0.45, 'rescaleHeight': False, 'trialN': 75, 'loaded': True, 'loadedTime': 5791.699999928474, 'positionName': 'LEFT', 'positionCoords': [511.6, 335.5], 'bid': 0.31}, {'imgObject': {}, 'id': 'fried eggs', 'src': '/static/foodstim60/fried eggs.jpg', 'key': 'i', 'origWidth': 410, 'origHeight': 410, 'width': 410, 'height': 410, 'widthPercent': 0.45, 'rescaleHeight': False, 'trialN': 75, 'loaded': True, 'loadedTime': 6075, 'positionName': 'RIGHT', 'positionCoords': [998.4, 335], 'bid': 2.65}]",129217.79999995232,1669849222766,luckycharms,fried eggs,0.31,2.65,2.34,fried eggs,894.3000000715256,895,894.8999999761581,True,i,130621.5,1403.7000000476837,1669849224170,1404,HRV,HRV_0317,2022-11-30 23:03:14
76,"[{'imgObject': {}, 'id': 'Grapes', 'src': '/static/foodstim60/Grapes.jpg', 'key': 'u', 'origWidth': 411, 'origHeight': 411, 'width': 411, 'height': 411, 'widthPercent': 0.45, 'rescaleHeight': False, 'trialN': 76, 'loaded': True, 'loadedTime': 6169.899999976158, 'positionName': 'LEFT', 'positionCoords': [510.6, 334.5], 'bid': 8.55}, {'imgObject': {}, 'id': 'chickenfingers', 'src': '/static/foodstim60/chickenfingers.jpg', 'key': 'i', 'origWidth': 410, 'origHeight': 410, 'width': 410, 'height': 410, 'widthPercent': 0.45, 'rescaleHeight': False, 'trialN': 76, 'loaded': True, 'loadedTime': 6236.799999952316, 'positionName': 'RIGHT', 'positionCoords': [998.4, 335], 'bid': 7.140000000000001}]",130622.0,1669849224170,Grapes,chickenfingers,8.55,7.140000000000001,-1.4100000000000001,Grapes,1066.5,1068,1067.3999999761581,True,u,132205.5,1583.5,1669849225754,1584,HRV,HRV_0317,2022-11-30 23:03:14
77,"[{'imgObject': {}, 'id': 'sushi w_condiments', 'src': '/static/foodstim60/sushi w_condiments.jpg', 'key': 'u', 'origWidth': 410, 'origHeight': 410, 'width': 410, 'height': 410, 'widthPercent': 0.45, 'rescaleHeight': False, 'trialN': 77, 'loaded': True, 'loadedTime': 5657.199999928474, 'positionName': 'LEFT', 'positionCoords': [511.6, 335], 'bid': 6.48}, {'imgObject': {}, 'id': 'seaweed', 'src': '/static/foodstim60/seaweed.jpg', 'key': 'i', 'origWidth': 410, 'origHeight': 410, 'width': 410, 'height': 410, 'widthPercent': 0.45, 'rescaleHeight': False, 'trialN': 77, 'loaded': True, 'loadedTime': 4534.199999928474, 'positionName': 'RIGHT', 'positionCoords': [998.4, 335], 'bid': 2.15}]",132206.0,1669849225754,sushi w_condiments,seaweed,6.48,2.15,-4.33,sushi w_condiments,850.3999999761581,852,851.2999999523163,True,u,133563.39999997616,1357.3999999761581,1669849227112,1358,HRV,HRV_0317,2022-11-30 23:03:14
78,"[{'imgObject': {}, 'id': 'corn cob', 'src': '/static/foodstim60/corn cob.jpg', 'key': 'u', 'origWidth': 411, 'origHeight': 411, 'width': 411, 'height': 411, 'widthPercent': 0.45, 'rescaleHeight': False, 'trialN': 78, 'loaded': True, 'loadedTime': 6138.799999952316, 'positionName': 'LEFT', 'positionCoords': [510.6, 334.5], 'bid': 6.5}, {'imgObject': {}, 'id': 'sushi w_condiments', 'src': '/static/foodstim60/sushi w_condiments.jpg', 'key': 'i', 'origWidth': 410, 'origHeight': 410, 'width': 410, 'height': 410, 'widthPercent': 0.45, 'rescaleHeight': False, 'trialN': 78, 'loaded': True, 'loadedTime': 5645.799999952316, 'positionName': 'RIGHT', 'positionCoords': [998.4, 335], 'bid': 6.48}]",133563.79999995232,1669849227112,corn cob,sushi w_condiments,6.5,6.48,-0.019999999999999574,sushi w_condiments,1244.3000000715256,1245,1244.8999999761581,True,i,135315.39999997616,1751.6000000238419,1669849228864,1752,HRV,HRV_0317,2022-11-30 23:03:14
79,"[{'imgObject': {}, 'id': 'baked potato', 'src': '/static/foodstim60/baked potato.jpg', 'key': 'u', 'origWidth': 409, 'origHeight': 410, 'width': 409, 'height': 410, 'widthPercent': 0.45, 'rescaleHeight': False, 'trialN': 79, 'loaded': True, 'loadedTime': 5941.100000023842, 'positionName': 'LEFT', 'positionCoords': [512.6, 335], 'bid': 4.59}, {'imgObject': {}, 'id': 'salad w chicken', 'src': '/static/foodstim60/salad w chicken.jpg', 'key': 'i', 'origWidth': 411, 'origHeight': 411, 'width': 411, 'height': 411, 'widthPercent': 0.45, 'rescaleHeight': False, 'trialN': 79, 'loaded': True, 'loadedTime': 4073, 'positionName': 'RIGHT', 'positionCoords': [998.4, 334.5], 'bid': 5.11}]",135315.89999997616,1669849228864,baked potato,salad w chicken,4.59,5.11,0.5200000000000005,salad w chicken,900.8999999761581,902,901.8999999761581,True,i,136730.39999997616,1414.5,1669849230279,1415,HRV,HRV_0317,2022-11-30 23:03:14
80,"[{'imgObject': {}, 'id': 'chicken nuggets2', 'src': '/static/foodstim60/chicken nuggets2.jpg', 'key': 'u', 'origWidth': 410, 'origHeight': 409, 'width': 410, 'height': 409, 'widthPercent': 0.45, 'rescaleHeight': False, 'trialN': 80, 'loaded': True, 'loadedTime': 6220.399999976158, 'positionName': 'LEFT', 'positionCoords': [511.6, 335.5], 'bid': 4.21}, {'imgObject': {}, 'id': 'tacos', 'src': '/static/foodstim60/tacos.jpg', 'key': 'i', 'origWidth': 411, 'origHeight': 411, 'width': 411, 'height': 411, 'widthPercent': 0.45, 'rescaleHeight': False, 'trialN': 80, 'loaded': True, 'loadedTime': 6264.399999976158, 'positionName': 'RIGHT', 'positionCoords': [998.4, 334.5], 'bid': 4.91}]",136730.79999995232,1669849230279,chicken nuggets2,tacos,4.21,4.91,0.7000000000000002,tacos,1165.6000000238419,1167,1166.6000000238419,True,i,138409.5,1678.7000000476837,1669849231958,1679,HRV,HRV_0317,2022-11-30 23:03:14
81,"[{'imgObject': {}, 'id': 'burrito', 'src': '/static/foodstim60/burrito.jpg', 'key': 'u', 'origWidth': 410, 'origHeight': 410, 'width': 410, 'height': 410, 'widthPercent': 0.45, 'rescaleHeight': False, 'trialN': 81, 'loaded': True, 'loadedTime': 4800.399999976158, 'positionName': 'LEFT', 'positionCoords': [511.6, 335], 'bid': 4.05}, {'imgObject': {}, 'id': 'eggsalad', 'src': '/static/foodstim60/eggsalad.jpg', 'key': 'i', 'origWidth': 410, 'origHeight': 409, 'width': 410, 'height': 409, 'widthPercent': 0.45, 'rescaleHeight': False, 'trialN': 81, 'loaded': True, 'loadedTime': 4999.5, 'positionName': 'RIGHT', 'positionCoords': [998.4, 335.5], 'bid': 0.68}]",138409.89999997616,1669849231958,burrito,eggsalad,4.05,0.68,-3.3699999999999997,burrito,1006.5,1008,1007.5,True,u,139927.5,1517.6000000238419,1669849233476,1518,HRV,HRV_0317,2022-11-30 23:03:14
82,"[{'imgObject': {}, 'id': 'grilled chicken strips', 'src': '/static/foodstim60/grilled chicken strips.jpg', 'key': 'u', 'origWidth': 410, 'origHeight': 411, 'width': 410, 'height': 411, 'widthPercent': 0.45, 'rescaleHeight': False, 'trialN': 82, 'loaded': True, 'loadedTime': 5175.600000023842, 'positionName': 'LEFT', 'positionCoords': [511.6, 334.5], 'bid': 5.53}, {'imgObject': {}, 'id': 'salmon', 'src': '/static/foodstim60/salmon.jpg', 'key': 'i', 'origWidth': 410, 'origHeight': 409, 'width': 410, 'height': 409, 'widthPercent': 0.45, 'rescaleHeight': False, 'trialN': 82, 'loaded': True, 'loadedTime': 5732, 'positionName': 'RIGHT', 'positionCoords': [998.4, 335.5], 'bid': 7.11}]",139927.79999995232,1669849233476,grilled chicken strips,salmon,5.53,7.11,1.58,grilled chicken strips,1112.6000000238419,1114,1113.5,True,u,141555.29999995232,1627.5,1669849235104,1628,HRV,HRV_0317,2022-11-30 23:03:14
83,"[{'imgObject': {}, 'id': 'corn cob', 'src': '/static/foodstim60/corn cob.jpg', 'key': 'u', 'origWidth': 411, 'origHeight': 411, 'width': 411, 'height': 411, 'widthPercent': 0.45, 'rescaleHeight': False, 'trialN': 83, 'loaded': True, 'loadedTime': 6089.899999976158, 'positionName': 'LEFT', 'positionCoords': [510.6, 334.5], 'bid': 6.5}, {'imgObject': {}, 'id': 'bagel and cc', 'src': '/static/foodstim60/bagel and cc.jpg', 'key': 'i', 'origWidth': 410, 'origHeight': 410, 'width': 410, 'height': 410, 'widthPercent': 0.45, 'rescaleHeight': False, 'trialN': 83, 'loaded': True, 'loadedTime': 6255.5, 'positionName': 'RIGHT', 'positionCoords': [998.4, 335], 'bid': 2.34}]",141555.60000002384,1669849235104,corn cob,bagel and cc,6.5,2.34,-4.16,corn cob,1212.7999999523163,1214,1213.6999999284744,True,u,143279.39999997616,1723.7999999523163,1669849236828,1724,HRV,HRV_0317,2022-11-30 23:03:14
84,"[{'imgObject': {}, 'id': 'salad w chicken', 'src': '/static/foodstim60/salad w chicken.jpg', 'key': 'u', 'origWidth': 411, 'origHeight': 411, 'width': 411, 'height': 411, 'widthPercent': 0.45, 'rescaleHeight': False, 'trialN': 84, 'loaded': True, 'loadedTime': 4105.5, 'positionName': 'LEFT', 'positionCoords': [510.6, 334.5], 'bid': 5.11}, {'imgObject': {}, 'id': 'strawberries', 'src': '/static/foodstim60/strawberries.jpg', 'key': 'i', 'origWidth': 410, 'origHeight': 410, 'width': 410, 'height': 410, 'widthPercent': 0.45, 'rescaleHeight': False, 'trialN': 84, 'loaded': True, 'loadedTime': 6061.100000023842, 'positionName': 'RIGHT', 'positionCoords': [998.4, 335], 'bid': 7.54}]",143279.69999992847,1669849236828,salad w chicken,strawberries,5.11,7.54,2.4299999999999997,salad w chicken,1056.7000000476837,1058,1057.9000000953674,True,u,144841.39999997616,1561.7000000476837,1669849238390,1562,HRV,HRV_0317,2022-11-30 23:03:14
85,"[{'imgObject': {}, 'id': 'corn cob', 'src': '/static/foodstim60/corn cob.jpg', 'key': 'u', 'origWidth': 411, 'origHeight': 411, 'width': 411, 'height': 411, 'widthPercent': 0.45, 'rescaleHeight': False, 'trialN': 85, 'loaded': True, 'loadedTime': 6138.199999928474, 'positionName': 'LEFT', 'positionCoords': [510.6, 334.5], 'bid': 6.5}, {'imgObject': {}, 'id': 'pear', 'src': '/static/foodstim60/pear.jpg', 'key': 'i', 'origWidth': 411, 'origHeight': 410, 'width': 411, 'height': 410, 'widthPercent': 0.45, 'rescaleHeight': False, 'trialN': 85, 'loaded': True, 'loadedTime': 5024, 'positionName': 'RIGHT', 'positionCoords': [998.4, 335], 'bid': 8.25}]",144841.79999995232,1669849238390,corn cob,pear,6.5,8.25,1.75,pear,1510.6000000238419,1511,1511.3000000715256,True,i,146857.39999997616,2015.6000000238419,1669849240406,2016,HRV,HRV_0317,2022-11-30 23:03:14
86,"[{'imgObject': {}, 'id': 'granola w milk', 'src': '/static/foodstim60/granola w milk.jpg', 'key': 'u', 'origWidth': 410, 'origHeight': 410, 'width': 410, 'height': 410, 'widthPercent': 0.45, 'rescaleHeight': False, 'trialN': 86, 'loaded': True, 'loadedTime': 5644.5, 'positionName': 'LEFT', 'positionCoords': [511.6, 335], 'bid': 0.28}, {'imgObject': {}, 'id': 'blackbeanswithrice', 'src': '/static/foodstim60/blackbeanswithrice.jpg', 'key': 'i', 'origWidth': 410, 'origHeight': 410, 'width': 410, 'height': 410, 'widthPercent': 0.45, 'rescaleHeight': False, 'trialN': 86, 'loaded': True, 'loadedTime': 4637.399999976158, 'positionName': 'RIGHT', 'positionCoords': [998.4, 335], 'bid': 3.15}]",146857.89999997616,1669849240406,granola w milk,blackbeanswithrice,0.28,3.15,2.87,blackbeanswithrice,1102.7000000476837,1104,1103.6000000238419,True,i,148469.39999997616,1611.5,1669849242018,1612,HRV,HRV_0317,2022-11-30 23:03:14
87,"[{'imgObject': {}, 'id': 'corn cob', 'src': '/static/foodstim60/corn cob.jpg', 'key': 'u', 'origWidth': 411, 'origHeight': 411, 'width': 411, 'height': 411, 'widthPercent': 0.45, 'rescaleHeight': False, 'trialN': 87, 'loaded': True, 'loadedTime': 6137.5, 'positionName': 'LEFT', 'positionCoords': [510.6, 334.5], 'bid': 6.5}, {'imgObject': {}, 'id': 'banana', 'src': '/static/foodstim60/banana.jpg', 'key': 'i', 'origWidth': 410, 'origHeight': 410, 'width': 410, 'height': 410, 'widthPercent': 0.45, 'rescaleHeight': False, 'trialN': 87, 'loaded': True, 'loadedTime': 4424.299999952316, 'positionName': 'RIGHT', 'positionCoords': [998.4, 335], 'bid': 8.81}]",148469.89999997616,1669849242018,corn cob,banana,6.5,8.81,2.3100000000000005,corn cob,954.6000000238419,956,955.3999999761581,True,u,149939.5,1469.6000000238419,1669849243488,1470,HRV,HRV_0317,2022-11-30 23:03:14
88,"[{'imgObject': {}, 'id': 'cherry tomato', 'src': '/static/foodstim60/cherry tomato.jpg', 'key': 'u', 'origWidth': 410, 'origHeight': 410, 'width': 410, 'height': 410, 'widthPercent': 0.45, 'rescaleHeight': False, 'trialN': 88, 'loaded': True, 'loadedTime': 5250.600000023842, 'positionName': 'LEFT', 'positionCoords': [511.6, 335], 'bid': 5.5}, {'imgObject': {}, 'id': 'shreddedwheatwithmilk', 'src': '/static/foodstim60/shreddedwheatwithmilk.jpg', 'key': 'i', 'origWidth': 410, 'origHeight': 410, 'width': 410, 'height': 410, 'widthPercent': 0.45, 'rescaleHeight': False, 'trialN': 88, 'loaded': True, 'loadedTime': 5851.799999952316, 'positionName': 'RIGHT', 'positionCoords': [998.4, 335], 'bid': 0.37}]",149939.89999997616,1669849243488,cherry tomato,shreddedwheatwithmilk,5.5,0.37,-5.13,cherry tomato,1164.5,1166,1165.5,True,u,151619.5,1679.6000000238419,1669849245168,1680,HRV,HRV_0317,2022-11-30 23:03:14
89,"[{'imgObject': {}, 'id': 'orange slices', 'src': '/static/foodstim60/orange slices.jpg', 'key': 'u', 'origWidth': 409, 'origHeight': 410, 'width': 409, 'height': 410, 'widthPercent': 0.45, 'rescaleHeight': False, 'trialN': 89, 'loaded': True, 'loadedTime': 4282.399999976158, 'positionName': 'LEFT', 'positionCoords': [512.6, 335], 'bid': 8.620000000000001}, {'imgObject': {}, 'id': 'sushi w_condiments', 'src': '/static/foodstim60/sushi w_condiments.jpg', 'key': 'i', 'origWidth': 410, 'origHeight': 410, 'width': 410, 'height': 410, 'widthPercent': 0.45, 'rescaleHeight': False, 'trialN': 89, 'loaded': True, 'loadedTime': 5656.899999976158, 'positionName': 'RIGHT', 'positionCoords': [998.4, 335], 'bid': 6.48}]",151619.69999992847,1669849245168,orange slices,sushi w_condiments,8.620000000000001,6.48,-2.1400000000000006,sushi w_condiments,1292.7000000476837,1294,1293.6000000238419,True,i,153421.5,1801.8000000715256,1669849246970,1802,HRV,HRV_0317,2022-11-30 23:03:14
90,"[{'imgObject': {}, 'id': 'sweetpotato', 'src': '/static/foodstim60/sweetpotato.jpg', 'key': 'u', 'origWidth': 410, 'origHeight': 410, 'width': 410, 'height': 410, 'widthPercent': 0.45, 'rescaleHeight': False, 'trialN': 90, 'loaded': True, 'loadedTime': 4931.899999976158, 'positionName': 'LEFT', 'positionCoords': [511.6, 335], 'bid': 6.34}, {'imgObject': {}, 'id': 'apple slices', 'src': '/static/foodstim60/apple slices.jpg', 'key': 'i', 'origWidth': 409, 'origHeight': 410, 'width': 409, 'height': 410, 'widthPercent': 0.45, 'rescaleHeight': False, 'trialN': 90, 'loaded': True, 'loadedTime': 6258.5, 'positionName': 'RIGHT', 'positionCoords': [998.4, 335], 'bid': 8.36}]",156409.60000002384,1669849249958,sweetpotato,apple slices,6.34,8.36,2.0199999999999996,sweetpotato,2023.2999999523163,2024,2024.5,True,u,158947.5,2537.899999976158,1669849252496,2538,HRV,HRV_0317,2022-11-30 23:03:14
91,"[{'imgObject': {}, 'id': 'popsicles', 'src': '/static/foodstim60/popsicles.jpg', 'key': 'u', 'origWidth': 410, 'origHeight': 410, 'width': 410, 'height': 410, 'widthPercent': 0.45, 'rescaleHeight': False, 'trialN': 91, 'loaded': True, 'loadedTime': 5945.100000023842, 'positionName': 'LEFT', 'positionCoords': [511.6, 335], 'bid': 0.23}, {'imgObject': {}, 'id': 'bagel and cc', 'src': '/static/foodstim60/bagel and cc.jpg', 'key': 'i', 'origWidth': 410, 'origHeight': 410, 'width': 410, 'height': 410, 'widthPercent': 0.45, 'rescaleHeight': False, 'trialN': 91, 'loaded': True, 'loadedTime': 6255.100000023842, 'positionName': 'RIGHT', 'positionCoords': [998.4, 335], 'bid': 2.34}]",158947.89999997616,1669849252496,popsicles,bagel and cc,0.23,2.34,2.11,popsicles,1060.5,1061,1061.2999999523163,True,u,160519.39999997616,1571.5,1669849254068,1572,HRV,HRV_0317,2022-11-30 23:03:14
92,"[{'imgObject': {}, 'id': 'hashbrowns', 'src': '/static/foodstim60/hashbrowns.jpg', 'key': 'u', 'origWidth': 411, 'origHeight': 410, 'width': 411, 'height': 410, 'widthPercent': 0.45, 'rescaleHeight': False, 'trialN': 92, 'loaded': True, 'loadedTime': 6079.299999952316, 'positionName': 'LEFT', 'positionCoords': [510.6, 335], 'bid': 0.53}, {'imgObject': {}, 'id': 'raisin bran w milk', 'src': '/static/foodstim60/raisin bran w milk.jpg', 'key': 'i', 'origWidth': 411, 'origHeight': 411, 'width': 411, 'height': 411, 'widthPercent': 0.45, 'rescaleHeight': False, 'trialN': 92, 'loaded': True, 'loadedTime': 6251.699999928474, 'positionName': 'RIGHT', 'positionCoords': [998.4, 334.5], 'bid': 0.33}]",160519.69999992847,1669849254068,hashbrowns,raisin bran w milk,0.53,0.33,-0.2,raisin bran w milk,864.7000000476837,865,865.5,True,i,161889.39999997616,1369.7000000476837,1669849255438,1370,HRV,HRV_0317,2022-11-30 23:03:14
93,"[{'imgObject': {}, 'id': 'avocado', 'src': '/static/foodstim60/avocado.jpg', 'key': 'u', 'origWidth': 409, 'origHeight': 409, 'width': 409, 'height': 409, 'widthPercent': 0.45, 'rescaleHeight': False, 'trialN': 93, 'loaded': True, 'loadedTime': 6010, 'positionName': 'LEFT', 'positionCoords': [512.6, 335.5], 'bid': 5.0600000000000005}, {'imgObject': {}, 'id': 'turkey sandwich', 'src': '/static/foodstim60/turkey sandwich.jpg', 'key': 'i', 'origWidth': 409, 'origHeight': 409, 'width': 409, 'height': 409, 'widthPercent': 0.45, 'rescaleHeight': False, 'trialN': 93, 'loaded': True, 'loadedTime': 3817.1999999284744, 'positionName': 'RIGHT', 'positionCoords': [998.4, 335.5], 'bid': 4.98}]",161889.79999995232,1669849255438,avocado,turkey sandwich,5.0600000000000005,4.98,-0.08000000000000007,avocado,1302.6000000238419,1304,1303.6000000238419,True,u,163707.5,1817.7000000476837,1669849257256,1818,HRV,HRV_0317,2022-11-30 23:03:14
94,"[{'imgObject': {}, 'id': 'bagel plain', 'src': '/static/foodstim60/bagel plain.jpg', 'key': 'u', 'origWidth': 410, 'origHeight': 410, 'width': 410, 'height': 410, 'widthPercent': 0.45, 'rescaleHeight': False, 'trialN': 94, 'loaded': True, 'loadedTime': 5880.5, 'positionName': 'LEFT', 'positionCoords': [511.6, 335], 'bid': 2.44}, {'imgObject': {}, 'id': 'turkeysandwich', 'src': '/static/foodstim60/turkeysandwich.jpg', 'key': 'i', 'origWidth': 409, 'origHeight': 409, 'width': 409, 'height': 409, 'widthPercent': 0.45, 'rescaleHeight': False, 'trialN': 94, 'loaded': True, 'loadedTime': 4000.6999999284744, 'positionName': 'RIGHT', 'positionCoords': [998.4, 335.5], 'bid': 4.93}]",163707.89999997616,1669849257256,bagel plain,turkeysandwich,2.44,4.93,2.4899999999999998,turkeysandwich,948.6000000238419,950,949.5,True,i,165161.39999997616,1453.5,1669849258710,1454,HRV,HRV_0317,2022-11-30 23:03:14
95,"[{'imgObject': {}, 'id': 'seaweed', 'src': '/static/foodstim60/seaweed.jpg', 'key': 'u', 'origWidth': 410, 'origHeight': 410, 'width': 410, 'height': 410, 'widthPercent': 0.45, 'rescaleHeight': False, 'trialN': 95, 'loaded': True, 'loadedTime': 4552, 'positionName': 'LEFT', 'positionCoords': [511.6, 335], 'bid': 2.15}, {'imgObject': {}, 'id': 'luckycharms', 'src': '/static/foodstim60/luckycharms.jpg', 'key': 'i', 'origWidth': 410, 'origHeight': 409, 'width': 410, 'height': 409, 'widthPercent': 0.45, 'rescaleHeight': False, 'trialN': 95, 'loaded': True, 'loadedTime': 5756, 'positionName': 'RIGHT', 'positionCoords': [998.4, 335.5], 'bid': 0.31}]",165161.89999997616,1669849258710,seaweed,luckycharms,2.15,0.31,-1.8399999999999999,seaweed,1126.5,1128,1127.2999999523163,True,u,166791.39999997616,1629.5,1669849260340,1630,HRV,HRV_0317,2022-11-30 23:03:14
96,"[{'imgObject': {}, 'id': 'raisin bran w milk', 'src': '/static/foodstim60/raisin bran w milk.jpg', 'key': 'u', 'origWidth': 411, 'origHeight': 411, 'width': 411, 'height': 411, 'widthPercent': 0.45, 'rescaleHeight': False, 'trialN': 96, 'loaded': True, 'loadedTime': 6241.399999976158, 'positionName': 'LEFT', 'positionCoords': [510.6, 334.5], 'bid': 0.33}, {'imgObject': {}, 'id': 'luckycharms', 'src': '/static/foodstim60/luckycharms.jpg', 'key': 'i', 'origWidth': 410, 'origHeight': 409, 'width': 410, 'height': 409, 'widthPercent': 0.45, 'rescaleHeight': False, 'trialN': 96, 'loaded': True, 'loadedTime': 5756.600000023842, 'positionName': 'RIGHT', 'positionCoords': [998.4, 335.5], 'bid': 0.31}]",166791.79999995232,1669849260340,raisin bran w milk,luckycharms,0.33,0.31,-0.020000000000000018,raisin bran w milk,1440.6000000238419,1442,1441.6000000238419,True,u,168737.39999997616,1945.6000000238419,1669849262286,1946,HRV,HRV_0317,2022-11-30 23:03:14
97,"[{'imgObject': {}, 'id': 'cheerios', 'src': '/static/foodstim60/cheerios.jpg', 'key': 'u', 'origWidth': 409, 'origHeight': 410, 'width': 409, 'height': 410, 'widthPercent': 0.45, 'rescaleHeight': False, 'trialN': 97, 'loaded': True, 'loadedTime': 4499.199999928474, 'positionName': 'LEFT', 'positionCoords': [512.6, 335], 'bid': 0.18}, {'imgObject': {}, 'id': 'shreddedwheatwithmilk', 'src': '/static/foodstim60/shreddedwheatwithmilk.jpg', 'key': 'i', 'origWidth': 410, 'origHeight': 410, 'width': 410, 'height': 410, 'widthPercent': 0.45, 'rescaleHeight': False, 'trialN': 97, 'loaded': True, 'loadedTime': 5851.299999952316, 'positionName': 'RIGHT', 'positionCoords': [998.4, 335], 'bid': 0.37}]",168737.60000002384,1669849262286,cheerios,shreddedwheatwithmilk,0.18,0.37,0.19,cheerios,1247.2999999523163,1248,1248.1999999284744,True,u,170493.5,1755.8999999761581,1669849264042,1756,HRV,HRV_0317,2022-11-30 23:03:14
98,"[{'imgObject': {}, 'id': 'cantaloupe', 'src': '/static/foodstim60/cantaloupe.jpg', 'key': 'u', 'origWidth': 409, 'origHeight': 409, 'width': 409, 'height': 409, 'widthPercent': 0.45, 'rescaleHeight': False, 'trialN': 98, 'loaded': True, 'loadedTime': 4301.799999952316, 'positionName': 'LEFT', 'positionCoords': [512.6, 335.5], 'bid': 7.78}, {'imgObject': {}, 'id': 'pear', 'src': '/static/foodstim60/pear.jpg', 'key': 'i', 'origWidth': 411, 'origHeight': 410, 'width': 411, 'height': 410, 'widthPercent': 0.45, 'rescaleHeight': False, 'trialN': 98, 'loaded': True, 'loadedTime': 5000.600000023842, 'positionName': 'RIGHT', 'positionCoords': [998.4, 335], 'bid': 8.25}]",170493.69999992847,1669849264042,cantaloupe,pear,7.78,8.25,0.46999999999999975,cantaloupe,1050.7000000476837,1052,1051.6000000238419,True,u,172059.5,1565.8000000715256,1669849265608,1566,HRV,HRV_0317,2022-11-30 23:03:14
99,"[{'imgObject': {}, 'id': 'chicken nuggets2', 'src': '/static/foodstim60/chicken nuggets2.jpg', 'key': 'u', 'origWidth': 410, 'origHeight': 409, 'width': 410, 'height': 409, 'widthPercent': 0.45, 'rescaleHeight': False, 'trialN': 99, 'loaded': True, 'loadedTime': 6218.600000023842, 'positionName': 'LEFT', 'positionCoords': [511.6, 335.5], 'bid': 4.21}, {'imgObject': {}, 'id': 'orange slices', 'src': '/static/foodstim60/orange slices.jpg', 'key': 'i', 'origWidth': 409, 'origHeight': 410, 'width': 409, 'height': 410, 'widthPercent': 0.45, 'rescaleHeight': False, 'trialN': 99, 'loaded': True, 'loadedTime': 4213.899999976158, 'positionName': 'RIGHT', 'positionCoords': [998.4, 335], 'bid': 8.620000000000001}]",172059.79999995232,1669849265608,chicken nuggets2,orange slices,4.21,8.620000000000001,4.410000000000001,orange slices,1020.6000000238419,1022,1021.8999999761581,True,i,173593.5,1533.7000000476837,1669849267142,1534,HRV,HRV_0317,2022-11-30 23:03:14
100,"[{'imgObject': {}, 'id': 'froot loops w milk', 'src': '/static/foodstim60/froot loops w milk.jpg', 'key': 'u', 'origWidth': 410, 'origHeight': 410, 'width': 410, 'height': 410, 'widthPercent': 0.45, 'rescaleHeight': False, 'trialN': 100, 'loaded': True, 'loadedTime': 5562.399999976158, 'positionName': 'LEFT', 'positionCoords': [511.6, 335], 'bid': 0.31}, {'imgObject': {}, 'id': 'hotdog w must', 'src': '/static/foodstim60/hotdog w must.jpg', 'key': 'i', 'origWidth': 409, 'origHeight': 409, 'width': 409, 'height': 409, 'widthPercent': 0.45, 'rescaleHeight': False, 'trialN': 100, 'loaded': True, 'loadedTime': 5454, 'positionName': 'RIGHT', 'positionCoords': [998.4, 335.5], 'bid': 1.3}]",173593.79999995232,1669849267142,froot loops w milk,hotdog w must,0.31,1.3,0.99,froot loops w milk,1006.6000000238419,1008,1007.5,True,u,175107.39999997616,1513.6000000238419,1669849268656,1514,HRV,HRV_0317,2022-11-30 23:03:14
101,"[{'imgObject': {}, 'id': 'hashbrowns', 'src': '/static/foodstim60/hashbrowns.jpg', 'key': 'u', 'origWidth': 411, 'origHeight': 410, 'width': 411, 'height': 410, 'widthPercent': 0.45, 'rescaleHeight': False, 'trialN': 101, 'loaded': True, 'loadedTime': 6078.399999976158, 'positionName': 'LEFT', 'positionCoords': [510.6, 335], 'bid': 0.53}, {'imgObject': {}, 'id': 'blackbeanswithrice', 'src': '/static/foodstim60/blackbeanswithrice.jpg', 'key': 'i', 'origWidth': 410, 'origHeight': 410, 'width': 410, 'height': 410, 'widthPercent': 0.45, 'rescaleHeight': False, 'trialN': 101, 'loaded': True, 'loadedTime': 4646.600000023842, 'positionName': 'RIGHT', 'positionCoords': [998.4, 335], 'bid': 3.15}]",175107.79999995232,1669849268656,hashbrowns,blackbeanswithrice,0.53,3.15,2.62,blackbeanswithrice,1348.6000000238419,1350,1349.6000000238419,True,i,176961.39999997616,1853.6000000238419,1669849270510,1854,HRV,HRV_0317,2022-11-30 23:03:14
102,"[{'imgObject': {}, 'id': 'veggieswithdip', 'src': '/static/foodstim60/veggieswithdip.jpg', 'key': 'u', 'origWidth': 409, 'origHeight': 409, 'width': 409, 'height': 409, 'widthPercent': 0.45, 'rescaleHeight': False, 'trialN': 102, 'loaded': True, 'loadedTime': 5530.899999976158, 'positionName': 'LEFT', 'positionCoords': [512.6, 335.5], 'bid': 8.88}, {'imgObject': {}, 'id': 'turkeysandwich', 'src': '/static/foodstim60/turkeysandwich.jpg', 'key': 'i', 'origWidth': 409, 'origHeight': 409, 'width': 409, 'height': 409, 'widthPercent': 0.45, 'rescaleHeight': False, 'trialN': 102, 'loaded': True, 'loadedTime': 4053.600000023842, 'positionName': 'RIGHT', 'positionCoords': [998.4, 335.5], 'bid': 4.93}]",176961.79999995232,1669849270510,veggieswithdip,turkeysandwich,8.88,4.93,-3.950000000000001,veggieswithdip,1094.6000000238419,1096,1095.5,True,u,178573.39999997616,1611.6000000238419,1669849272122,1612,HRV,HRV_0317,2022-11-30 23:03:14
103,"[{'imgObject': {}, 'id': 'mashed potato', 'src': '/static/foodstim60/mashed potato.jpg', 'key': 'u', 'origWidth': 409, 'origHeight': 409, 'width': 409, 'height': 409, 'widthPercent': 0.45, 'rescaleHeight': False, 'trialN': 103, 'loaded': True, 'loadedTime': 4141.5, 'positionName': 'LEFT', 'positionCoords': [512.6, 335.5], 'bid': 5.37}, {'imgObject': {}, 'id': 'steak', 'src': '/static/foodstim60/steak.jpg', 'key': 'i', 'origWidth': 410, 'origHeight': 410, 'width': 410, 'height': 410, 'widthPercent': 0.45, 'rescaleHeight': False, 'trialN': 103, 'loaded': True, 'loadedTime': 6165.799999952316, 'positionName': 'RIGHT', 'positionCoords': [998.4, 335], 'bid': 7.65}]",178573.79999995232,1669849272122,mashed potato,steak,5.37,7.65,2.2800000000000002,steak,978.6000000238419,980,979.3999999761581,True,i,180058.39999997616,1484.6000000238419,1669849273607,1485,HRV,HRV_0317,2022-11-30 23:03:14
104,"[{'imgObject': {}, 'id': 'tacos', 'src': '/static/foodstim60/tacos.jpg', 'key': 'u', 'origWidth': 411, 'origHeight': 411, 'width': 411, 'height': 411, 'widthPercent': 0.45, 'rescaleHeight': False, 'trialN': 104, 'loaded': True, 'loadedTime': 6263.5, 'positionName': 'LEFT', 'positionCoords': [510.6, 334.5], 'bid': 4.91}, {'imgObject': {}, 'id': 'eggs', 'src': '/static/foodstim60/eggs.jpg', 'key': 'i', 'origWidth': 409, 'origHeight': 409, 'width': 409, 'height': 409, 'widthPercent': 0.45, 'rescaleHeight': False, 'trialN': 104, 'loaded': True, 'loadedTime': 3904.2999999523163, 'positionName': 'RIGHT', 'positionCoords': [998.4, 335.5], 'bid': 2.4}]",180058.89999997616,1669849273607,tacos,eggs,4.91,2.4,-2.5100000000000002,tacos,1005.8999999761581,1007,1006.7999999523163,True,u,181571.39999997616,1512.5,1669849275120,1513,HRV,HRV_0317,2022-11-30 23:03:14
105,"[{'imgObject': {}, 'id': 'edamame', 'src': '/static/foodstim60/edamame.jpg', 'key': 'u', 'origWidth': 409, 'origHeight': 410, 'width': 409, 'height': 410, 'widthPercent': 0.45, 'rescaleHeight': False, 'trialN': 105, 'loaded': True, 'loadedTime': 5369.699999928474, 'positionName': 'LEFT', 'positionCoords': [512.6, 335], 'bid': 4.2}, {'imgObject': {}, 'id': 'chicken nuggets2', 'src': '/static/foodstim60/chicken nuggets2.jpg', 'key': 'i', 'origWidth': 410, 'origHeight': 409, 'width': 410, 'height': 409, 'widthPercent': 0.45, 'rescaleHeight': False, 'trialN': 105, 'loaded': True, 'loadedTime': 6216.399999976158, 'positionName': 'RIGHT', 'positionCoords': [998.4, 335.5], 'bid': 4.21}]",181571.89999997616,1669849275120,edamame,chicken nuggets2,4.2,4.21,0.009999999999999787,edamame,1068.5,1070,1069.5,True,u,183153.39999997616,1581.5,1669849276702,1582,HRV,HRV_0317,2022-11-30 23:03:14
106,"[{'imgObject': {}, 'id': 'raisin bran w milk', 'src': '/static/foodstim60/raisin bran w milk.jpg', 'key': 'u', 'origWidth': 411, 'origHeight': 411, 'width': 411, 'height': 411, 'widthPercent': 0.45, 'rescaleHeight': False, 'trialN': 106, 'loaded': True, 'loadedTime': 6251.299999952316, 'positionName': 'LEFT', 'positionCoords': [510.6, 334.5], 'bid': 0.33}, {'imgObject': {}, 'id': 'kiwi', 'src': '/static/foodstim60/kiwi.jpg', 'key': 'i', 'origWidth': 410, 'origHeight': 410, 'width': 410, 'height': 410, 'widthPercent': 0.45, 'rescaleHeight': False, 'trialN': 106, 'loaded': True, 'loadedTime': 5156.600000023842, 'positionName': 'RIGHT', 'positionCoords': [998.4, 335], 'bid': 5.5}]",183153.89999997616,1669849276702,raisin bran w milk,kiwi,0.33,5.5,5.17,kiwi,902.3999999761581,904,903.5,True,i,184561.39999997616,1407.5,1669849278110,1408,HRV,HRV_0317,2022-11-30 23:03:14
107,"[{'imgObject': {}, 'id': 'luckycharms', 'src': '/static/foodstim60/luckycharms.jpg', 'key': 'u', 'origWidth': 410, 'origHeight': 409, 'width': 410, 'height': 409, 'widthPercent': 0.45, 'rescaleHeight': False, 'trialN': 107, 'loaded': True, 'loadedTime': 5776, 'positionName': 'LEFT', 'positionCoords': [511.6, 335.5], 'bid': 0.31}, {'imgObject': {}, 'id': 'cocktailshrimp', 'src': '/static/foodstim60/cocktailshrimp.jpg', 'key': 'i', 'origWidth': 410, 'origHeight': 410, 'width': 410, 'height': 410, 'widthPercent': 0.45, 'rescaleHeight': False, 'trialN': 107, 'loaded': True, 'loadedTime': 5552.600000023842, 'positionName': 'RIGHT', 'positionCoords': [998.4, 335], 'bid': 5.47}]",184561.69999992847,1669849278110,luckycharms,cocktailshrimp,0.31,5.47,5.16,cocktailshrimp,1062.7000000476837,1064,1063.4000000953674,True,i,186139.39999997616,1577.7000000476837,1669849279688,1578,HRV,HRV_0317,2022-11-30 23:03:14
108,"[{'imgObject': {}, 'id': 'kiwi', 'src': '/static/foodstim60/kiwi.jpg', 'key': 'u', 'origWidth': 410, 'origHeight': 410, 'width': 410, 'height': 410, 'widthPercent': 0.45, 'rescaleHeight': False, 'trialN': 108, 'loaded': True, 'loadedTime': 5147.899999976158, 'positionName': 'LEFT', 'positionCoords': [511.6, 335], 'bid': 5.5}, {'imgObject': {}, 'id': 'cocktailshrimp', 'src': '/static/foodstim60/cocktailshrimp.jpg', 'key': 'i', 'origWidth': 410, 'origHeight': 410, 'width': 410, 'height': 410, 'widthPercent': 0.45, 'rescaleHeight': False, 'trialN': 108, 'loaded': True, 'loadedTime': 5550.5, 'positionName': 'RIGHT', 'positionCoords': [998.4, 335], 'bid': 5.47}]",186139.60000002384,1669849279688,kiwi,cocktailshrimp,5.5,5.47,-0.03000000000000025,cocktailshrimp,1084.6999999284744,1086,1085.6999999284744,True,i,187741.39999997616,1601.7999999523163,1669849281290,1602,HRV,HRV_0317,2022-11-30 23:03:14
