success,trial_type,trial_index,time_elapsed,internal_node_id,Block,TrialNumber,TrialTime,trialTimeDiff,FPS_avg,FPS_med,FPS_mode,TrialDur,winResizeTime,rt,block,button_pressed,MotCoh,MotDir,ColCoh,Color,ChoiceKey,Choice,Accuracy,RT,nFrames,FPS,PPD,missTrial,missTrialMsg,onsetDelay,fullScreenExitTime,canvCenter,TrialType,Score,BlockTrial,stimulus,button_labels,exp,subjectId,date
True,fullscreen,0,1808,0.0-0.0,0.0,1.0,,,,,,,,,,,,,,,,,,,,,,,,,,,,,,,,HRV,HRV_0317,2022-11-30 23:14:14
,wl-check-fps,1,8592,0.0-1.0,0.0,2.0,"[2165, 2171, 2206.7, 2241.3, 2256.7, 2276.9, 2297.8, 2326.3, 2361.3, 2377.7, 2406.7, 2421.3, 2447.1, 2463.1, 2490.6, 2505.2, 2530.5, 2547.5, 2572, 2589.3, 2612.7, 2630.3, 2657.8, 2673.3, 2697.3, 2718.5, 2738.1, 2764.5, 2790.4, 2815.2, 2831.8, 2861.8, 2877.8, 2906.5, 2921.9, 2947.9, 2964.6, 2994.6, 3011.9, 3039.8, 3054.8, 3086.3, 3103, 3130.8, 3149.3, 3180.3, 3199.4, 3227.2, 3249.6, 3274.1, 3295, 3319.9, 3346.5, 3364, 3395.1, 3412.3, 3439.3, 3456.7, 3471, 3489.7, 3509.3, 3529.8, 3569.5, 3584.1, 3615.4, 3636.8, 3664.5, 3687.2, 3712.6, 3733, 3763.6, 3781.4, 3809.6, 3826.3, 3854.3, 3871.4, 3898.3, 3915.3, 3945.9, 3962.6, 3989.4, 4006.1, 4037.7, 4053.2, 4080.8, 4097.9, 4113.7, 4133.8, 4169.9, 4191.1, 4224.5, 4242.7, 4257.8, 4291, 4309.2, 4325.8, 4358.4, 4376.6, 4404.6, 4420, 4445.3, 4461.9, 4490.2, 4505.1, 4531.6, 4547.2, 4574.8, 4589.2, 4615.3, 4632.6, 4658, 4673.8, 4699.6, 4715.9, 4745.4, 4759.8, 4775.2, 4793.4, 4827.9, 4844.2, 4858.9, 4876.3, 4894.1, 4914.4, 4935.5, 4956.7, 4977.1, 5005.6, 5041.7, 5059.6, 5089.2, 5106.3, 5134.9, 5149.4, 5180.3, 5197.4, 5226.2, 5243, 5260, 5292.6, 5311, 5328.9, 5360, 5379.2, 5394.3, 5414, 5451.5, 5470.2, 5499.7, 5518.7, 5545.4, 5569.8, 5588.6, 5616.5, 5634.7, 5660.9, 5682.4, 5711.2, 5726.2, 5752.8, 5766.7, 5794.2, 5811.8, 5840.7, 5857.1, 5884.7, 5904.1, 5929.6, 5946.6, 5974.6, 5990.6, 6020.7, 6039.4, 6069.4, 6089.4, 6118.4, 6140.6, 6155.5, 6176.2, 6211.6, 6230.9, 6261.4, 6279.8, 6312, 6329.5, 6345.7, 6367.2, 6387.8, 6405.7, 6428.8, 6452.6, 6488.9, 6506.2, 6521.5, 6539.5, 6559.3, 6596.2, 6615.8, 6643.9, 6662.1, 6693.6, 6709.7, 6734.3, 6756.8, 6781.3, 6799.5, 6832.8, 6849.2, 6878.3, 6894.3, 6927.4, 6943.2, 6973.3, 6988.2, 7016.5, 7036.6, 7067.3, 7081, 7111.5, 7128.2, 7157.7, 7174.8, 7202.9, 7222.1, 7247, 7263.7, 7293.4, 7309.6, 7335.9, 7357.2, 7380.6, 7394.9, 7424.7, 7440.5, 7466.6, 7481.9, 7509.1, 7523.7, 7553.4, 7564.9, 7593.4, 7608.2, 7636.4, 7653.5, 7678.2, 7694.3, 7710.1, 7742.9, 7759.7, 7776.3, 7807, 7823.6, 7852.8, 7866.9, 7893.9, 7909.7, 7935.9, 7949.5, 7978.7, 7995.7, 8025.1, 8040.7, 8071.1, 8090, 8118.2, 8136.8, 8162, 8184.2, 8212.5, 8229.6, 8244.3, 8264, 8282.4, 8303.2, 8322.9, 8343.7, 8382.2, 8403.3, 8430.8, 8450.8, 8475.1, 8498, 8524.5, 8541.1, 8568.3, 8588, 8614.5, 8632.9, 8663.8, 8680.7, 8711.2, 8728.1, 8742.1, 8761.8, 8781.7, 8802.4, 8825.4, 8863.3, 8880.7, 8910.8]","[18.7, 6, 35.7, 34.6, 15.4, 20.2, 20.9, 28.5, 35, 16.4, 29, 14.6, 25.8, 16, 27.5, 14.6, 25.3, 17, 24.5, 17.3, 23.4, 17.6, 27.5, 15.5, 24, 21.2, 19.6, 26.4, 25.9, 24.8, 16.6, 30, 16, 28.7, 15.4, 26, 16.7, 30, 17.3, 27.9, 15, 31.5, 16.7, 27.8, 18.5, 31, 19.1, 27.8, 22.4, 24.5, 20.9, 24.9, 26.6, 17.5, 31.1, 17.2, 27, 17.4, 14.3, 18.7, 19.6, 20.5, 39.7, 14.6, 31.3, 21.4, 27.7, 22.7, 25.4, 20.4, 30.6, 17.8, 28.2, 16.7, 28, 17.1, 26.9, 17, 30.6, 16.7, 26.8, 16.7, 31.6, 15.5, 27.6, 17.1, 15.8, 20.1, 36.1, 21.2, 33.4, 18.2, 15.1, 33.2, 18.2, 16.6, 32.6, 18.2, 28, 15.4, 25.3, 16.6, 28.3, 14.9, 26.5, 15.6, 27.6, 14.4, 26.1, 17.3, 25.4, 15.8, 25.8, 16.3, 29.5, 14.4, 15.4, 18.2, 34.5, 16.3, 14.7, 17.4, 17.8, 20.3, 21.1, 21.2, 20.4, 28.5, 36.1, 17.9, 29.6, 17.1, 28.6, 14.5, 30.9, 17.1, 28.8, 16.8, 17, 32.6, 18.4, 17.9, 31.1, 19.2, 15.1, 19.7, 37.5, 18.7, 29.5, 19, 26.7, 24.4, 18.8, 27.9, 18.2, 26.2, 21.5, 28.8, 15, 26.6, 13.9, 27.5, 17.6, 28.9, 16.4, 27.6, 19.4, 25.5, 17, 28, 16, 30.1, 18.7, 30, 20, 29, 22.2, 14.9, 20.7, 35.4, 19.3, 30.5, 18.4, 32.2, 17.5, 16.2, 21.5, 20.6, 17.9, 23.1, 23.8, 36.3, 17.3, 15.3, 18, 19.8, 36.9, 19.6, 28.1, 18.2, 31.5, 16.1, 24.6, 22.5, 24.5, 18.2, 33.3, 16.4, 29.1, 16, 33.1, 15.8, 30.1, 14.9, 28.3, 20.1, 30.7, 13.7, 30.5, 16.7, 29.5, 17.1, 28.1, 19.2, 24.9, 16.7, 29.7, 16.2, 26.3, 21.3, 23.4, 14.3, 29.8, 15.8, 26.1, 15.3, 27.2, 14.6, 29.7, 11.5, 28.5, 14.8, 28.2, 17.1, 24.7, 16.1, 15.8, 32.8, 16.8, 16.6, 30.7, 16.6, 29.2, 14.1, 27, 15.8, 26.2, 13.6, 29.2, 17, 29.4, 15.6, 30.4, 18.9, 28.2, 18.6, 25.2, 22.2, 28.3, 17.1, 14.7, 19.7, 18.4, 20.8, 19.7, 20.8, 38.5, 21.1, 27.5, 20, 24.3, 22.9, 26.5, 16.6, 27.2, 19.7, 26.5, 18.4, 30.9, 16.9, 30.5, 16.9, 14, 19.7, 19.9, 20.7, 23, 37.9, 17.4, 30.1]",44.0,44.0,58.0,6781.3,[],,,,,,,,,,,,,,,,,,,,,,,,,HRV,HRV_0317,2022-11-30 23:14:14
,wl-html-keyboard-response,2,30020,0.0-2.0-0.0,0.0,3.0,,,,,,,,19407.899999976158,0.0,0,,,,,,,,,,,,,,,,,,,,,,HRV,HRV_0317,2022-11-30 23:14:14
,wl-rdm,3,37763,0.0-3.0-0.0,0.0,4.0,,,,,,,[],,,,0.0,0.0,87.9,0.0,u,0.0,True,2136.7999999523163,95.0,58.0,40.0,False,,3000.0,[],"[960, 540]",ColorTask_Demo,,,,,HRV,HRV_0317,2022-11-30 23:14:14
,wl-rdm,4,43190,0.0-3.0-1.0,0.0,5.0,,,,,,,[],,,,0.0,0.0,87.9,1.0,i,1.0,True,1325.0,59.0,58.0,40.0,False,,2000.0,[],"[960, 540]",ColorTask_Demo,,,,,HRV,HRV_0317,2022-11-30 23:14:14
,wl-html-keyboard-response,5,50812,0.0-3.0-2.0,0.0,6.0,,,,,,,,5609.0,0.0,1,,,,,,,,,,,,,,,,,,,,,,HRV,HRV_0317,2022-11-30 23:14:14
,wl-html-keyboard-response,6,60380,0.0-4.0-0.0,0.0,7.0,,,,,,,,7553.799999952316,0.0,0,,,,,,,,,,,,,,,,,,,,,,HRV,HRV_0317,2022-11-30 23:14:14
,wl-html-keyboard-response,7,72115,0.0-5.0-0.0,0.0,8.0,,,,,,,,9723.399999976158,0.0,0,,,,,,,,,,,,,,,,,,,,,,HRV,HRV_0317,2022-11-30 23:14:14
,wl-rdm,8,74468,0.0-6.0-0.0,0.0,9.0,,,,,,,[],,,,,,87.9,0.0,u,0.0,True,1069.4000000953674,48.0,58.0,40.0,False,,208.93553918302877,[],"[960, 540]",ColorTask,1.0,1.0,,,HRV,HRV_0317,2022-11-30 23:14:14
,wl-rdm,9,76602,0.0-6.1-0.1,0.0,10.0,,,,,,,[],,,,,,87.9,1.0,i,1.0,True,837.1999999284744,38.0,58.0,40.0,False,,218.27119131066462,[],"[960, 540]",ColorTask,2.0,2.0,,,HRV,HRV_0317,2022-11-30 23:14:14
,wl-rdm,10,79004,0.0-6.2-0.2,0.0,11.0,,,,,,,[],,,,,,50.0,1.0,u,0.0,False,1046.8999999761581,45.0,58.0,40.0,False,,262.0155412401825,[],"[960, 540]",ColorTask,1.0,3.0,,,HRV,HRV_0317,2022-11-30 23:14:14
,wl-rdm,11,81346,0.0-6.3-0.3,0.0,12.0,,,,,,,[],,,,,,53.2,1.0,i,1.0,True,924.7999999523163,40.0,58.0,40.0,False,,306.4093992294718,[],"[960, 540]",ColorTask,2.0,4.0,,,HRV,HRV_0317,2022-11-30 23:14:14
,wl-rdm,12,83655,0.0-6.4-0.4,0.0,13.0,,,,,,,[],,,,,,56.4,0.0,u,0.0,True,982.1999999284744,43.0,58.0,40.0,False,,221.7564134254008,[],"[960, 540]",ColorTask,3.0,5.0,,,HRV,HRV_0317,2022-11-30 23:14:14
,wl-rdm,13,85939,0.0-6.5-0.5,0.0,14.0,,,,,,,[],,,,,,50.0,1.0,i,1.0,True,904.2999999523163,40.0,58.0,40.0,False,,286.095539222906,[],"[960, 540]",ColorTask,4.0,6.0,,,HRV,HRV_0317,2022-11-30 23:14:14
,wl-rdm,14,88175,0.0-6.6-0.6,0.0,15.0,,,,,,,[],,,,,,87.9,1.0,i,1.0,True,839.5999999046326,38.0,58.0,40.0,False,,311.46066327843914,[],"[960, 540]",ColorTask,5.0,7.0,,,HRV,HRV_0317,2022-11-30 23:14:14
,wl-rdm,15,90264,0.0-6.7-0.7,0.0,16.0,,,,,,,[],,,,,,62.5,1.0,i,1.0,True,778.700000166893,35.0,58.0,40.0,False,,231.08115462032174,[],"[960, 540]",ColorTask,6.0,8.0,,,HRV,HRV_0317,2022-11-30 23:14:14
,wl-rdm,16,92604,0.0-6.8-0.8,0.0,17.0,,,,,,,[],,,,,,50.0,1.0,u,0.0,False,952.4000000953674,43.0,58.0,40.0,False,,302.1054365633041,[],"[960, 540]",ColorTask,5.0,9.0,,,HRV,HRV_0317,2022-11-30 23:14:14
,wl-rdm,17,94810,0.0-6.9-0.9,0.0,18.0,,,,,,,[],,,,,,56.4,0.0,i,1.0,False,765.3999999761581,32.0,58.0,40.0,False,,344.9466833345422,[],"[960, 540]",ColorTask,4.0,10.0,,,HRV,HRV_0317,2022-11-30 23:14:14
,wl-rdm,18,97210,0.0-6.10-0.10,0.0,19.0,,,,,,,[],,,,,,53.2,0.0,i,1.0,False,920.5,41.0,58.0,40.0,False,,392.59976499154305,[],"[960, 540]",ColorTask,3.0,11.0,,,HRV,HRV_0317,2022-11-30 23:14:14
,wl-rdm,19,99729,0.0-6.11-0.11,0.0,20.0,,,,,,,[],,,,,,50.0,0.0,i,1.0,False,1082.8999999761581,47.0,58.0,40.0,False,,332.0103158016258,[],"[960, 540]",ColorTask,2.0,12.0,,,HRV,HRV_0317,2022-11-30 23:14:14
,wl-rdm,20,102283,0.0-6.12-0.12,0.0,21.0,,,,,,,[],,,,,,87.9,0.0,u,0.0,True,1082.6999999284744,47.0,58.0,40.0,False,,382.78419074554415,[],"[960, 540]",ColorTask,3.0,13.0,,,HRV,HRV_0317,2022-11-30 23:14:14
,wl-rdm,21,104442,0.0-6.13-0.13,0.0,22.0,,,,,,,[],,,,,,62.5,1.0,i,1.0,True,796.0999999046326,35.0,58.0,40.0,False,,251.32608708442888,[],"[960, 540]",ColorTask,4.0,14.0,,,HRV,HRV_0317,2022-11-30 23:14:14
,wl-rdm,22,106992,0.0-6.14-0.14,0.0,23.0,,,,,,,[],,,,,,53.2,0.0,u,0.0,True,1176.0,52.0,58.0,40.0,False,,315.4379776738584,[],"[960, 540]",ColorTask,5.0,15.0,,,HRV,HRV_0317,2022-11-30 23:14:14
,wl-rdm,23,109259,0.0-6.15-0.15,0.0,24.0,,,,,,,[],,,,,,56.4,1.0,i,1.0,True,941.8000000715256,41.0,58.0,40.0,False,,265.9690556461935,[],"[960, 540]",ColorTask,6.0,16.0,,,HRV,HRV_0317,2022-11-30 23:14:14
,wl-rdm,24,111541,0.0-6.16-0.16,0.0,25.0,,,,,,,[],,,,,,87.9,1.0,i,1.0,True,885.9999998807907,38.0,58.0,40.0,False,,312.9608085438375,[],"[960, 540]",ColorTask,7.0,17.0,,,HRV,HRV_0317,2022-11-30 23:14:14
,wl-rdm,25,114092,0.0-6.17-0.17,0.0,26.0,,,,,,,[],,,,,,56.4,1.0,u,0.0,False,1161.8999999761581,52.0,58.0,40.0,False,,281.42144138461725,[],"[960, 540]",ColorTask,6.0,18.0,,,HRV,HRV_0317,2022-11-30 23:14:14
,wl-rdm,26,116365,0.0-6.18-0.18,0.0,27.0,,,,,,,[],,,,,,50.0,1.0,i,1.0,True,992.2999999523163,46.0,58.0,40.0,False,,204.8773993002368,[],"[960, 540]",ColorTask,7.0,19.0,,,HRV,HRV_0317,2022-11-30 23:14:14
,wl-rdm,27,118642,0.0-6.19-0.19,0.0,28.0,,,,,,,[],,,,,,73.6,1.0,i,1.0,True,919.7000000476837,41.0,58.0,40.0,False,,244.65494905762733,[],"[960, 540]",ColorTask,8.0,20.0,,,HRV,HRV_0317,2022-11-30 23:14:14
,wl-rdm,28,120892,0.0-6.20-0.20,0.0,29.0,,,,,,,[],,,,,,73.6,0.0,u,0.0,True,826.6000000238419,35.0,58.0,40.0,False,,337.60734706296716,[],"[960, 540]",ColorTask,9.0,21.0,,,HRV,HRV_0317,2022-11-30 23:14:14
,wl-rdm,29,123277,0.0-6.21-0.21,0.0,30.0,,,,,,,[],,,,,,53.2,1.0,i,1.0,True,1063.3999999761581,47.0,58.0,40.0,False,,228.0295559059429,[],"[960, 540]",ColorTask,10.0,22.0,,,HRV,HRV_0317,2022-11-30 23:14:14
,wl-rdm,30,125742,0.0-6.22-0.22,0.0,31.0,,,,,,,[],,,,,,53.2,0.0,i,1.0,False,1095.4999998807907,49.0,58.0,40.0,False,,289.9693076243401,[],"[960, 540]",ColorTask,9.0,23.0,,,HRV,HRV_0317,2022-11-30 23:14:14
,wl-rdm,31,128317,0.0-6.23-0.23,0.0,32.0,,,,,,,[],,,,,,53.2,1.0,i,1.0,True,1271.8999999761581,58.0,58.0,40.0,False,,200.5110095829869,[],"[960, 540]",ColorTask,10.0,24.0,,,HRV,HRV_0317,2022-11-30 23:14:14
,wl-rdm,32,130588,0.0-6.24-0.24,0.0,33.0,,,,,,,[],,,,,,73.6,1.0,i,1.0,True,970.6999999284744,44.0,58.0,40.0,False,,218.7318981104237,[],"[960, 540]",ColorTask,11.0,25.0,,,HRV,HRV_0317,2022-11-30 23:14:14
,wl-rdm,33,132680,0.0-6.25-0.25,0.0,34.0,,,,,,,[],,,,,,87.9,1.0,i,1.0,True,767.8999999761581,33.0,58.0,40.0,False,,239.80984137079494,[],"[960, 540]",ColorTask,12.0,26.0,,,HRV,HRV_0317,2022-11-30 23:14:14
,wl-rdm,34,134856,0.0-6.26-0.26,0.0,35.0,,,,,,,[],,,,,,73.6,1.0,i,1.0,True,808.1000000238419,37.0,58.0,40.0,False,,304.5156648683468,[],"[960, 540]",ColorTask,13.0,27.0,,,HRV,HRV_0317,2022-11-30 23:14:14
,wl-rdm,35,137121,0.0-6.27-0.27,0.0,36.0,,,,,,,[],,,,,,53.2,1.0,i,1.0,True,956.2999999523163,44.0,58.0,40.0,False,,242.61663180131734,[],"[960, 540]",ColorTask,14.0,28.0,,,HRV,HRV_0317,2022-11-30 23:14:14
,wl-rdm,36,139159,0.0-6.28-0.28,0.0,37.0,,,,,,,[],,,,,,62.5,0.0,u,0.0,True,685.299999833107,32.0,58.0,40.0,False,,271.53360048891886,[],"[960, 540]",ColorTask,15.0,29.0,,,HRV,HRV_0317,2022-11-30 23:14:14
,wl-rdm,37,141578,0.0-6.29-0.29,0.0,38.0,,,,,,,[],,,,,,56.4,1.0,i,1.0,True,1111.7999999523163,50.0,58.0,40.0,False,,202.26767648140358,[],"[960, 540]",ColorTask,16.0,30.0,,,HRV,HRV_0317,2022-11-30 23:14:14
,wl-rdm,38,144144,0.0-6.30-0.30,0.0,39.0,,,,,,,[],,,,,,56.4,1.0,i,1.0,True,1149.7000000476837,52.0,58.0,40.0,False,,319.28527332039914,[],"[960, 540]",ColorTask,17.0,31.0,,,HRV,HRV_0317,2022-11-30 23:14:14
,wl-rdm,39,146345,0.0-6.31-0.31,0.0,40.0,,,,,,,[],,,,,,73.6,1.0,i,1.0,True,732.5,34.0,58.0,40.0,False,,380.0860423918731,[],"[960, 540]",ColorTask,18.0,32.0,,,HRV,HRV_0317,2022-11-30 23:14:14
,wl-rdm,40,148603,0.0-6.32-0.32,0.0,41.0,,,,,,,[],,,,,,56.4,1.0,i,1.0,True,903.6000000238419,39.0,58.0,40.0,False,,275.40440616623863,[],"[960, 540]",ColorTask,19.0,33.0,,,HRV,HRV_0317,2022-11-30 23:14:14
,wl-rdm,41,150904,0.0-6.33-0.33,0.0,42.0,,,,,,,[],,,,,,50.0,0.0,i,1.0,False,889.4999998807907,39.0,58.0,40.0,False,,302.8074515381363,[],"[960, 540]",ColorTask,18.0,34.0,,,HRV,HRV_0317,2022-11-30 23:14:14
,wl-rdm,42,152909,0.0-6.34-0.34,0.0,43.0,,,,,,,[],,,,,,87.9,0.0,u,0.0,True,624.7999999523163,27.0,58.0,40.0,False,,253.88006648519092,[],"[960, 540]",ColorTask,19.0,35.0,,,HRV,HRV_0317,2022-11-30 23:14:14
,wl-rdm,43,155218,0.0-6.35-0.35,0.0,44.0,,,,,,,[],,,,,,87.9,0.0,u,0.0,True,830.5,35.0,58.0,40.0,False,,386.01601082289886,[],"[960, 540]",ColorTask,20.0,36.0,,,HRV,HRV_0317,2022-11-30 23:14:14
,wl-rdm,44,157824,0.0-6.36-0.36,0.0,45.0,,,,,,,[],,,,,,56.4,1.0,u,0.0,False,1294.8999999761581,53.0,58.0,40.0,False,,200.88784418449362,[],"[960, 540]",ColorTask,19.0,37.0,,,HRV,HRV_0317,2022-11-30 23:14:14
,wl-rdm,45,160310,0.0-6.37-0.37,0.0,46.0,,,,,,,[],,,,,,50.0,0.0,i,1.0,False,992.7000000476837,41.0,58.0,40.0,False,,394.10928147170625,[],"[960, 540]",ColorTask,18.0,38.0,,,HRV,HRV_0317,2022-11-30 23:14:14
,wl-rdm,46,162695,0.0-6.38-0.38,0.0,47.0,,,,,,,[],,,,,,50.0,0.0,i,1.0,False,1034.8999999761581,44.0,58.0,40.0,False,,265.63016282552275,[],"[960, 540]",ColorTask,17.0,39.0,,,HRV,HRV_0317,2022-11-30 23:14:14
,wl-rdm,47,165321,0.0-6.39-0.39,0.0,48.0,,,,,,,[],,,,,,56.4,0.0,i,1.0,False,1317.3000000715256,56.0,58.0,40.0,False,,223.81500680361614,[],"[960, 540]",ColorTask,16.0,40.0,,,HRV,HRV_0317,2022-11-30 23:14:14
,wl-rdm,48,167623,0.0-6.40-0.40,0.0,49.0,,,,,,,[],,,,,,73.6,0.0,u,0.0,True,1007.5999999046326,43.0,58.0,40.0,False,,212.13064358980267,[],"[960, 540]",ColorTask,17.0,41.0,,,HRV,HRV_0317,2022-11-30 23:14:14
,wl-rdm,49,169840,0.0-6.41-0.41,0.0,50.0,,,,,,,[],,,,,,87.9,1.0,i,1.0,True,781.1000000238419,34.0,58.0,40.0,False,,348.1546824437389,[],"[960, 540]",ColorTask,18.0,42.0,,,HRV,HRV_0317,2022-11-30 23:14:14
,wl-rdm,50,172372,0.0-6.42-0.42,0.0,51.0,,,,,,,[],,,,,,62.5,0.0,u,0.0,True,1156.2000000476837,51.0,58.0,40.0,False,,299.2454609911432,[],"[960, 540]",ColorTask,19.0,43.0,,,HRV,HRV_0317,2022-11-30 23:14:14
,wl-rdm,51,174608,0.0-6.43-0.43,0.0,52.0,,,,,,,[],,,,,,62.5,1.0,i,1.0,True,814.8999999761581,37.0,58.0,40.0,False,,331.71442226543587,[],"[960, 540]",ColorTask,20.0,44.0,,,HRV,HRV_0317,2022-11-30 23:14:14
,wl-rdm,52,177209,0.0-6.44-0.44,0.0,53.0,,,,,,,[],,,,,,53.2,0.0,i,1.0,False,1250.5999999046326,53.0,58.0,40.0,False,,265.6692768064423,[],"[960, 540]",ColorTask,19.0,45.0,,,HRV,HRV_0317,2022-11-30 23:14:14
,wl-rdm,53,179542,0.0-6.45-0.45,0.0,54.0,,,,,,,[],,,,,,53.2,0.0,u,0.0,True,889.3000000715256,40.0,58.0,40.0,False,,358.75865870215245,[],"[960, 540]",ColorTask,20.0,46.0,,,HRV,HRV_0317,2022-11-30 23:14:14
,wl-rdm,54,181794,0.0-6.46-0.46,0.0,55.0,,,,,,,[],,,,,,73.6,0.0,u,0.0,True,886.8999998569489,39.0,58.0,40.0,False,,267.64047866974215,[],"[960, 540]",ColorTask,21.0,47.0,,,HRV,HRV_0317,2022-11-30 23:14:14
,wl-rdm,55,183944,0.0-6.47-0.47,0.0,56.0,,,,,,,[],,,,,,62.5,0.0,u,0.0,True,797.1000000238419,36.0,58.0,40.0,False,,243.10348925785996,[],"[960, 540]",ColorTask,22.0,48.0,,,HRV,HRV_0317,2022-11-30 23:14:14
,wl-rdm,56,186355,0.0-6.48-0.48,0.0,57.0,,,,,,,[],,,,,,73.6,0.0,u,0.0,True,959.2000000476837,42.0,58.0,40.0,False,,375.99956314480755,[],"[960, 540]",ColorTask,23.0,49.0,,,HRV,HRV_0317,2022-11-30 23:14:14
,wl-rdm,57,188790,0.0-6.49-0.49,0.0,58.0,,,,,,,[],,,,,,53.2,1.0,u,0.0,False,1007.8000000715256,43.0,58.0,40.0,False,,338.51057252442183,[],"[960, 540]",ColorTask,22.0,50.0,,,HRV,HRV_0317,2022-11-30 23:14:14
,wl-rdm,58,190845,0.0-6.50-0.50,0.0,59.0,,,,,,,[],,,,,,87.9,1.0,i,1.0,True,748.3999999761581,32.0,58.0,40.0,False,,217.46420931707695,[],"[960, 540]",ColorTask,23.0,51.0,,,HRV,HRV_0317,2022-11-30 23:14:14
,wl-rdm,59,193674,0.0-6.51-0.51,0.0,60.0,,,,,,,[],,,,,,56.4,0.0,u,0.0,True,1423.2000000476837,62.0,58.0,40.0,False,,320.14151612063233,[],"[960, 540]",ColorTask,24.0,52.0,,,HRV,HRV_0317,2022-11-30 23:14:14
,wl-rdm,60,195826,0.0-6.52-0.52,0.0,61.0,,,,,,,[],,,,,,56.4,1.0,i,1.0,True,746.9999998807907,34.0,58.0,40.0,False,,304.74628256841953,[],"[960, 540]",ColorTask,25.0,53.0,,,HRV,HRV_0317,2022-11-30 23:14:14
,wl-rdm,61,198203,0.0-6.53-0.53,0.0,62.0,,,,,,,[],,,,,,53.2,1.0,i,1.0,True,925.3999998569489,41.0,58.0,40.0,False,,363.07877700259695,[],"[960, 540]",ColorTask,26.0,54.0,,,HRV,HRV_0317,2022-11-30 23:14:14
,wl-rdm,62,200444,0.0-6.54-0.54,0.0,63.0,,,,,,,[],,,,,,87.9,0.0,u,0.0,True,794.5,35.0,58.0,40.0,False,,350.71737190313183,[],"[960, 540]",ColorTask,27.0,55.0,,,HRV,HRV_0317,2022-11-30 23:14:14
,wl-rdm,63,203159,0.0-6.55-0.55,0.0,64.0,,,,,,,[],,,,,,53.2,1.0,i,1.0,True,1387.1000000238419,59.0,58.0,40.0,False,,247.70611645913968,[],"[960, 540]",ColorTask,28.0,56.0,,,HRV,HRV_0317,2022-11-30 23:14:14
,wl-rdm,64,205874,0.0-6.56-0.56,0.0,65.0,,,,,,,[],,,,,,62.5,0.0,u,0.0,True,1347.6000000238419,60.0,58.0,40.0,False,,266.60170305662666,[],"[960, 540]",ColorTask,29.0,57.0,,,HRV,HRV_0317,2022-11-30 23:14:14
,wl-rdm,65,207991,0.0-6.57-0.57,0.0,66.0,,,,,,,[],,,,,,73.6,0.0,u,0.0,True,798.5000001192093,36.0,58.0,40.0,False,,216.19986604406097,[],"[960, 540]",ColorTask,30.0,58.0,,,HRV,HRV_0317,2022-11-30 23:14:14
,wl-rdm,66,210158,0.0-6.58-0.58,0.0,67.0,,,,,,,[],,,,,,50.0,0.0,i,1.0,False,823.4999998807907,38.0,58.0,40.0,False,,258.7437848880162,[],"[960, 540]",ColorTask,29.0,59.0,,,HRV,HRV_0317,2022-11-30 23:14:14
,wl-rdm,67,212508,0.0-6.59-0.59,0.0,68.0,,,,,,,[],,,,,,62.5,1.0,i,1.0,True,912.6000000238419,42.0,58.0,40.0,False,,318.4084413843893,[],"[960, 540]",ColorTask,30.0,60.0,,,HRV,HRV_0317,2022-11-30 23:14:14
,wl-rdm,68,214985,0.0-6.60-0.60,0.0,69.0,,,,,,,[],,,,,,62.5,1.0,i,1.0,True,1121.4000000953674,50.0,58.0,40.0,False,,280.18860962720413,[],"[960, 540]",ColorTask,31.0,61.0,,,HRV,HRV_0317,2022-11-30 23:14:14
,wl-rdm,69,217838,0.0-6.61-0.61,0.0,70.0,,,,,,,[],,,,,,56.4,0.0,i,1.0,False,1435.299999833107,61.0,58.0,40.0,False,,341.15744609728415,[],"[960, 540]",ColorTask,30.0,62.0,,,HRV,HRV_0317,2022-11-30 23:14:14
,wl-rdm,70,220339,0.0-6.62-0.62,0.0,71.0,,,,,,,[],,,,,,73.6,1.0,i,1.0,True,1001.3999999761581,43.0,58.0,40.0,False,,391.18480373487085,[],"[960, 540]",ColorTask,31.0,63.0,,,HRV,HRV_0317,2022-11-30 23:14:14
,wl-rdm,71,222804,0.0-6.63-0.63,0.0,72.0,,,,,,,[],,,,,,50.0,0.0,u,0.0,True,1124.8000000715256,48.0,58.0,40.0,False,,252.00242051264337,[],"[960, 540]",ColorTask,32.0,64.0,,,HRV,HRV_0317,2022-11-30 23:14:14
,wl-rdm,72,225339,0.0-6.64-0.64,0.0,73.0,,,,,,,[],,,,,,56.4,0.0,u,0.0,True,1065.9000000953674,46.0,58.0,40.0,False,,378.7633504986362,[],"[960, 540]",ColorTask,33.0,65.0,,,HRV,HRV_0317,2022-11-30 23:14:14
,wl-rdm,73,227912,0.0-6.65-0.65,0.0,74.0,,,,,,,[],,,,,,56.4,1.0,u,0.0,False,1241.1999999284744,55.0,58.0,40.0,False,,223.19925524166044,[],"[960, 540]",ColorTask,32.0,66.0,,,HRV,HRV_0317,2022-11-30 23:14:14
,wl-rdm,74,230471,0.0-6.66-0.66,0.0,75.0,,,,,,,[],,,,,,50.0,0.0,i,1.0,False,1170.7000000476837,52.0,58.0,40.0,False,,315.84013518241534,[],"[960, 540]",ColorTask,31.0,67.0,,,HRV,HRV_0317,2022-11-30 23:14:14
,wl-rdm,75,233104,0.0-6.67-0.67,0.0,76.0,,,,,,,[],,,,,,53.2,1.0,u,0.0,False,1176.2999999523163,54.0,58.0,40.0,False,,369.0330776495274,[],"[960, 540]",ColorTask,30.0,68.0,,,HRV,HRV_0317,2022-11-30 23:14:14
,wl-rdm,76,235258,0.0-6.68-0.68,0.0,77.0,,,,,,,[],,,,,,53.2,0.0,i,1.0,False,751.2000000476837,34.0,58.0,40.0,False,,302.37445666191996,[],"[960, 540]",ColorTask,29.0,69.0,,,HRV,HRV_0317,2022-11-30 23:14:14
,wl-rdm,77,237933,0.0-6.69-0.69,0.0,78.0,,,,,,,[],,,,,,62.5,0.0,i,1.0,False,1304.1999999284744,57.0,58.0,40.0,False,,278.3250117562486,[],"[960, 540]",ColorTask,28.0,70.0,,,HRV,HRV_0317,2022-11-30 23:14:14
,wl-rdm,78,240078,0.0-6.70-0.70,0.0,79.0,,,,,,,[],,,,,,87.9,0.0,u,0.0,True,802.0,38.0,58.0,40.0,False,,230.77648509367083,[],"[960, 540]",ColorTask,29.0,71.0,,,HRV,HRV_0317,2022-11-30 23:14:14
,wl-rdm,79,242329,0.0-6.71-0.71,0.0,80.0,,,,,,,[],,,,,,62.5,1.0,i,1.0,True,886.2000000476837,40.0,58.0,40.0,False,,249.26652899672058,[],"[960, 540]",ColorTask,30.0,72.0,,,HRV,HRV_0317,2022-11-30 23:14:14
,wl-rdm,80,244710,0.0-6.72-0.72,0.0,81.0,,,,,,,[],,,,,,50.0,1.0,i,1.0,True,973.5,44.0,58.0,40.0,False,,310.007780069039,[],"[960, 540]",ColorTask,31.0,73.0,,,HRV,HRV_0317,2022-11-30 23:14:14
,wl-rdm,81,247274,0.0-6.73-0.73,0.0,82.0,,,,,,,[],,,,,,73.6,1.0,i,1.0,True,1242.6000000238419,53.0,58.0,40.0,False,,215.5565798507669,[],"[960, 540]",ColorTask,32.0,74.0,,,HRV,HRV_0317,2022-11-30 23:14:14
,wl-rdm,82,249795,0.0-6.74-0.74,0.0,83.0,,,,,,,[],,,,,,56.4,1.0,i,1.0,True,1095.2999999523163,37.0,58.0,40.0,False,,335.86054581518545,[],"[960, 540]",ColorTask,33.0,75.0,,,HRV,HRV_0317,2022-11-30 23:14:14
,wl-rdm,83,252528,0.0-6.75-0.75,0.0,84.0,,,,,,,[],,,,,,50.0,1.0,i,1.0,True,1340.5999999046326,44.0,58.0,40.0,False,,293.2745489301719,[],"[960, 540]",ColorTask,34.0,76.0,,,HRV,HRV_0317,2022-11-30 23:14:14
,wl-rdm,84,255276,0.0-6.76-0.76,0.0,85.0,,,,,,,[],,,,,,53.2,0.0,u,0.0,True,1216.0,39.0,58.0,40.0,False,,384.3078891121393,[],"[960, 540]",ColorTask,35.0,77.0,,,HRV,HRV_0317,2022-11-30 23:14:14
,wl-rdm,85,257475,0.0-6.77-0.77,0.0,86.0,,,,,,,[],,,,,,87.9,1.0,i,1.0,True,790.0999999046326,24.0,58.0,40.0,False,,286.32436352772186,[],"[960, 540]",ColorTask,36.0,78.0,,,HRV,HRV_0317,2022-11-30 23:14:14
,wl-rdm,86,259823,0.0-6.78-0.78,0.0,87.0,,,,,,,[],,,,,,87.9,1.0,i,1.0,True,893.0999999046326,28.0,58.0,40.0,False,,295.3926471605737,[],"[960, 540]",ColorTask,37.0,79.0,,,HRV,HRV_0317,2022-11-30 23:14:14
,wl-rdm,87,262034,0.0-6.79-0.79,0.0,88.0,,,,,,,[],,,,,,73.6,0.0,u,0.0,True,861.0,28.0,58.0,40.0,False,,254.24973114093376,[],"[960, 540]",ColorTask,38.0,80.0,,,HRV,HRV_0317,2022-11-30 23:14:14
,wl-rdm,88,264640,0.0-6.80-0.80,0.0,89.0,,,,,,,[],,,,,,50.0,1.0,u,0.0,False,1116.4000000953674,30.0,58.0,40.0,False,,360.6731420865329,[],"[960, 540]",ColorTask,37.0,81.0,,,HRV,HRV_0317,2022-11-30 23:14:14
,wl-rdm,89,266826,0.0-6.81-0.81,0.0,90.0,,,,,,,[],,,,,,73.6,1.0,i,1.0,True,777.3000000715256,25.0,58.0,40.0,False,,283.2833613948223,[],"[960, 540]",ColorTask,38.0,82.0,,,HRV,HRV_0317,2022-11-30 23:14:14
,wl-rdm,90,269089,0.0-6.82-0.82,0.0,91.0,,,,,,,[],,,,,,87.9,0.0,u,0.0,True,783.5,24.0,58.0,40.0,False,,365.63468859839134,[],"[960, 540]",ColorTask,39.0,83.0,,,HRV,HRV_0317,2022-11-30 23:14:14
,wl-rdm,91,271783,0.0-6.83-0.83,0.0,92.0,,,,,,,[],,,,,,53.2,1.0,i,1.0,True,1247.3000000715256,39.0,58.0,40.0,False,,321.2459207441383,[],"[960, 540]",ColorTask,40.0,84.0,,,HRV,HRV_0317,2022-11-30 23:14:14
,wl-rdm,92,274545,0.0-6.84-0.84,0.0,93.0,,,,,,,[],,,,,,56.4,0.0,u,0.0,True,1283.5,42.0,58.0,40.0,False,,364.4018707689402,[],"[960, 540]",ColorTask,41.0,85.0,,,HRV,HRV_0317,2022-11-30 23:14:14
,wl-rdm,93,277268,0.0-6.85-0.85,0.0,94.0,,,,,,,[],,,,,,50.0,1.0,u,0.0,False,1272.7999999523163,41.0,58.0,40.0,False,,338.03971480745383,[],"[960, 540]",ColorTask,40.0,86.0,,,HRV,HRV_0317,2022-11-30 23:14:14
,wl-rdm,94,279523,0.0-6.86-0.86,0.0,95.0,,,,,,,[],,,,,,87.9,1.0,i,1.0,True,735.7000000476837,23.0,58.0,40.0,False,,317.2467747286361,[],"[960, 540]",ColorTask,41.0,87.0,,,HRV,HRV_0317,2022-11-30 23:14:14
,wl-rdm,95,282109,0.0-6.87-0.87,0.0,96.0,,,,,,,[],,,,,,53.2,0.0,u,0.0,True,1112.9000000953674,35.0,58.0,40.0,False,,366.6048336517638,[],"[960, 540]",ColorTask,42.0,88.0,,,HRV,HRV_0317,2022-11-30 23:14:14
,wl-rdm,96,284317,0.0-6.88-0.88,0.0,97.0,,,,,,,[],,,,,,50.0,1.0,i,1.0,True,861.9999998807907,28.0,58.0,40.0,False,,206.5430515910922,[],"[960, 540]",ColorTask,43.0,89.0,,,HRV,HRV_0317,2022-11-30 23:14:14
,wl-rdm,97,286518,0.0-6.89-0.89,0.0,98.0,,,,,,,[],,,,,,62.5,1.0,i,1.0,True,905.1999999284744,29.0,58.0,40.0,False,,214.1649735228281,[],"[960, 540]",ColorTask,44.0,90.0,,,HRV,HRV_0317,2022-11-30 23:14:14
,wl-rdm,98,288715,0.0-6.90-0.90,0.0,99.0,,,,,,,[],,,,,,62.5,1.0,i,1.0,True,822.8000000715256,26.0,58.0,40.0,False,,270.3447393923565,[],"[960, 540]",ColorTask,45.0,91.0,,,HRV,HRV_0317,2022-11-30 23:14:14
,wl-rdm,99,291728,0.0-6.91-0.91,0.0,100.0,,,,,,,[],,,,,,62.5,0.0,u,0.0,True,1659.6000001430511,52.0,58.0,40.0,False,,209.3936686486613,[],"[960, 540]",ColorTask,46.0,92.0,,,HRV,HRV_0317,2022-11-30 23:14:14
,wl-rdm,100,294466,0.0-6.92-0.92,0.0,101.0,,,,,,,[],,,,,,73.6,1.0,i,1.0,True,1236.6000000238419,27.0,58.0,40.0,False,,398.0477674625778,[],"[960, 540]",ColorTask,47.0,93.0,,,HRV,HRV_0317,2022-11-30 23:14:14
,wl-rdm,101,296893,0.0-6.93-0.93,0.0,102.0,,,,,,,[],,,,,,56.4,0.0,u,0.0,True,1095.1999999284744,36.0,58.0,40.0,False,,224.38953624565517,[],"[960, 540]",ColorTask,48.0,94.0,,,HRV,HRV_0317,2022-11-30 23:14:14
,wl-rdm,102,299295,0.0-6.94-0.94,0.0,103.0,,,,,,,[],,,,,,87.9,0.0,u,0.0,True,962.0,30.0,58.0,40.0,False,,280.75209589674637,[],"[960, 540]",ColorTask,49.0,95.0,,,HRV,HRV_0317,2022-11-30 23:14:14
,wl-rdm,103,302004,0.0-6.95-0.95,0.0,104.0,,,,,,,[],,,,,,62.5,0.0,u,0.0,True,1225.7999999523163,40.0,58.0,40.0,False,,343.6788132064596,[],"[960, 540]",ColorTask,50.0,96.0,,,HRV,HRV_0317,2022-11-30 23:14:14
,wl-rdm,104,304519,0.0-6.96-0.96,0.0,105.0,,,,,,,[],,,,,,62.5,1.0,i,1.0,True,1153.2999999523163,37.0,58.0,40.0,False,,255.49031448496194,[],"[960, 540]",ColorTask,51.0,97.0,,,HRV,HRV_0317,2022-11-30 23:14:14
,wl-rdm,105,307449,0.0-6.97-0.97,0.0,106.0,,,,,,,[],,,,,,73.6,0.0,u,0.0,True,1439.2000000476837,46.0,58.0,40.0,False,,387.31010397852185,[],"[960, 540]",ColorTask,52.0,98.0,,,HRV,HRV_0317,2022-11-30 23:14:14
,wl-rdm,106,310444,0.0-6.98-0.98,0.0,107.0,,,,,,,[],,,,,,73.6,0.0,u,0.0,True,1667.8000000715256,56.0,58.0,40.0,False,,209.96922302411934,[],"[960, 540]",ColorTask,53.0,99.0,,,HRV,HRV_0317,2022-11-30 23:14:14
,wl-rdm,107,313365,0.0-6.99-0.99,0.0,108.0,,,,,,,[],,,,,,50.0,0.0,u,0.0,True,1585.7000000476837,51.0,58.0,40.0,False,,227.66529654440527,[],"[960, 540]",ColorTask,54.0,100.0,,,HRV,HRV_0317,2022-11-30 23:14:14
,wl-rdm,108,315710,0.0-6.100-0.100,0.0,109.0,,,,,,,[],,,,,,62.5,0.0,u,0.0,True,989.7999999523163,31.0,58.0,40.0,False,,227.50186174263692,[],"[960, 540]",ColorTask,55.0,101.0,,,HRV,HRV_0317,2022-11-30 23:14:14
,wl-rdm,109,318493,0.0-6.101-0.101,0.0,110.0,,,,,,,[],,,,,,50.0,0.0,u,0.0,True,1311.1000000238419,42.0,58.0,40.0,False,,362.1884144109397,[],"[960, 540]",ColorTask,56.0,102.0,,,HRV,HRV_0317,2022-11-30 23:14:14
,wl-rdm,110,320966,0.0-6.102-0.102,0.0,111.0,,,,,,,[],,,,,,73.6,1.0,i,1.0,True,1097.6000000238419,35.0,58.0,40.0,False,,245.88014968279452,[],"[960, 540]",ColorTask,57.0,103.0,,,HRV,HRV_0317,2022-11-30 23:14:14
,wl-rdm,111,323928,0.0-6.103-0.103,0.0,112.0,,,,,,,[],,,,,,62.5,0.0,u,0.0,True,1523.8000000715256,41.0,58.0,40.0,False,,324.6176308068837,[],"[960, 540]",ColorTask,58.0,104.0,,,HRV,HRV_0317,2022-11-30 23:14:14
,wl-rdm,112,326091,0.0-6.104-0.104,0.0,113.0,,,,,,,[],,,,,,73.6,0.0,u,0.0,True,735.7000000476837,24.0,58.0,40.0,False,,303.47211321958275,[],"[960, 540]",ColorTask,59.0,105.0,,,HRV,HRV_0317,2022-11-30 23:14:14
,wl-rdm,113,329360,0.0-6.105-0.105,0.0,114.0,,,,,,,[],,,,,,53.2,0.0,i,1.0,False,1822.0,55.0,58.0,40.0,False,,367.3065353876908,[],"[960, 540]",ColorTask,58.0,106.0,,,HRV,HRV_0317,2022-11-30 23:14:14
,wl-rdm,114,331728,0.0-6.106-0.106,0.0,115.0,,,,,,,[],,,,,,56.4,0.0,u,0.0,True,893.0000001192093,26.0,58.0,40.0,False,,296.55579471373045,[],"[960, 540]",ColorTask,59.0,107.0,,,HRV,HRV_0317,2022-11-30 23:14:14
,wl-rdm,115,333846,0.0-6.107-0.107,0.0,116.0,,,,,,,[],,,,,,87.9,0.0,u,0.0,True,683.7999999523163,22.0,58.0,40.0,False,,287.21018152535345,[],"[960, 540]",ColorTask,60.0,108.0,,,HRV,HRV_0317,2022-11-30 23:14:14
,wl-html-keyboard-response,116,341136,0.0-7.0-0.0,1.0,117.0,,,,,,,,5265.5,1.0,0,,,,,,,,,,,,,,,,,,,,,,HRV,HRV_0317,2022-11-30 23:14:14
,wl-rdm,117,343535,0.0-8.0-0.0,1.0,118.0,,,,,,,[],,,,,,53.2,0.0,i,1.0,False,984.0999999046326,32.0,58.0,40.0,False,,329.36333725402824,[],"[960, 540]",ColorTask,59.0,1.0,,,HRV,HRV_0317,2022-11-30 23:14:14
,wl-rdm,118,345701,0.0-8.1-0.1,1.0,119.0,,,,,,,[],,,,,,73.6,0.0,u,0.0,True,696.0999999046326,23.0,58.0,40.0,False,,318.82489041071864,[],"[960, 540]",ColorTask,60.0,2.0,,,HRV,HRV_0317,2022-11-30 23:14:14
,wl-rdm,119,348393,0.0-8.2-0.2,1.0,120.0,,,,,,,[],,,,,,53.2,1.0,i,1.0,True,1158.7999999523163,40.0,58.0,40.0,False,,344.30293257187645,[],"[960, 540]",ColorTask,61.0,3.0,,,HRV,HRV_0317,2022-11-30 23:14:14
,wl-rdm,120,351086,0.0-8.3-0.3,1.0,121.0,,,,,,,[],,,,,,50.0,1.0,u,0.0,False,1197.7999999523163,39.0,58.0,40.0,False,,345.76791559276893,[],"[960, 540]",ColorTask,60.0,4.0,,,HRV,HRV_0317,2022-11-30 23:14:14
,wl-rdm,121,353242,0.0-8.4-0.4,1.0,122.0,,,,,,,[],,,,,,62.5,1.0,i,1.0,True,703.6000000238419,22.0,58.0,40.0,False,,320.650170660975,[],"[960, 540]",ColorTask,61.0,5.0,,,HRV,HRV_0317,2022-11-30 23:14:14
,wl-rdm,122,355572,0.0-8.5-0.5,1.0,123.0,,,,,,,[],,,,,,62.5,0.0,u,0.0,True,847.6000000238419,25.0,58.0,40.0,False,,348.3440782106695,[],"[960, 540]",ColorTask,62.0,6.0,,,HRV,HRV_0317,2022-11-30 23:14:14
,wl-rdm,123,358268,0.0-8.6-0.6,1.0,124.0,,,,,,,[],,,,,,56.4,0.0,u,0.0,True,1293.5,42.0,58.0,40.0,False,,301.1180447780067,[],"[960, 540]",ColorTask,63.0,7.0,,,HRV,HRV_0317,2022-11-30 23:14:14
,wl-rdm,124,360490,0.0-8.7-0.7,1.0,125.0,,,,,,,[],,,,,,73.6,0.0,u,0.0,True,916.6000000238419,29.0,58.0,40.0,False,,208.59632540444025,[],"[960, 540]",ColorTask,64.0,8.0,,,HRV,HRV_0317,2022-11-30 23:14:14
,wl-rdm,125,362927,0.0-8.8-0.8,1.0,126.0,,,,,,,[],,,,,,53.2,0.0,u,0.0,True,922.8999999761581,32.0,58.0,40.0,False,,256.86637555841764,[],"[960, 540]",ColorTask,65.0,9.0,,,HRV,HRV_0317,2022-11-30 23:14:14
,wl-rdm,126,365668,0.0-8.9-0.9,1.0,127.0,,,,,,,[],,,,,,53.2,0.0,u,0.0,True,1265.5999999046326,40.0,58.0,40.0,False,,218.9780642582136,[],"[960, 540]",ColorTask,66.0,10.0,,,HRV,HRV_0317,2022-11-30 23:14:14
,wl-rdm,127,367700,0.0-8.10-0.10,1.0,128.0,,,,,,,[],,,,,,87.9,0.0,u,0.0,True,662.2000000476837,20.0,58.0,40.0,False,,241.41328011223814,[],"[960, 540]",ColorTask,67.0,11.0,,,HRV,HRV_0317,2022-11-30 23:14:14
,wl-rdm,128,370585,0.0-8.11-0.11,1.0,129.0,,,,,,,[],,,,,,50.0,1.0,u,0.0,False,1533.3000000715256,49.0,58.0,40.0,False,,251.76902746937287,[],"[960, 540]",ColorTask,66.0,12.0,,,HRV,HRV_0317,2022-11-30 23:14:14
,wl-rdm,129,372758,0.0-8.12-0.12,1.0,130.0,,,,,,,[],,,,,,50.0,1.0,i,1.0,True,876.6000000238419,26.0,58.0,40.0,False,,214.94766537059567,[],"[960, 540]",ColorTask,67.0,13.0,,,HRV,HRV_0317,2022-11-30 23:14:14
,wl-rdm,130,375695,0.0-8.13-0.13,1.0,131.0,,,,,,,[],,,,,,56.4,1.0,i,1.0,True,1480.0,40.0,58.0,40.0,False,,366.27479322444043,[],"[960, 540]",ColorTask,68.0,14.0,,,HRV,HRV_0317,2022-11-30 23:14:14
,wl-rdm,131,378699,0.0-8.14-0.14,1.0,132.0,,,,,,,[],,,,,,56.4,0.0,u,0.0,True,1640.6999999284744,40.0,58.0,40.0,False,,238.77407506774335,[],"[960, 540]",ColorTask,69.0,15.0,,,HRV,HRV_0317,2022-11-30 23:14:14
,wl-rdm,132,381017,0.0-8.15-0.15,1.0,133.0,,,,,,,[],,,,,,73.6,0.0,u,0.0,True,951.1999998092651,29.0,58.0,40.0,False,,234.86680076738855,[],"[960, 540]",ColorTask,70.0,16.0,,,HRV,HRV_0317,2022-11-30 23:14:14
,wl-rdm,133,383192,0.0-8.16-0.16,1.0,134.0,,,,,,,[],,,,,,62.5,0.0,u,0.0,True,835.5000001192093,25.0,58.0,40.0,False,,226.24032519981952,[],"[960, 540]",ColorTask,71.0,17.0,,,HRV,HRV_0317,2022-11-30 23:14:14
,wl-rdm,134,385926,0.0-8.17-0.17,1.0,135.0,,,,,,,[],,,,,,50.0,1.0,u,0.0,False,1363.9000000953674,41.0,58.0,40.0,False,,248.19143914737862,[],"[960, 540]",ColorTask,70.0,18.0,,,HRV,HRV_0317,2022-11-30 23:14:14
,wl-rdm,135,388250,0.0-8.18-0.18,1.0,136.0,,,,,,,[],,,,,,62.5,1.0,i,1.0,True,966.3000000715256,31.0,58.0,40.0,False,,223.2064320673542,[],"[960, 540]",ColorTask,71.0,19.0,,,HRV,HRV_0317,2022-11-30 23:14:14
,wl-rdm,136,390649,0.0-8.19-0.19,1.0,137.0,,,,,,,[],,,,,,53.2,0.0,i,1.0,False,978.1000000238419,32.0,58.0,40.0,False,,311.9363465686333,[],"[960, 540]",ColorTask,70.0,20.0,,,HRV,HRV_0317,2022-11-30 23:14:14
,wl-rdm,137,393299,0.0-8.20-0.20,1.0,138.0,,,,,,,[],,,,,,73.6,1.0,i,1.0,True,1090.2000000476837,36.0,58.0,40.0,False,,235.97877272310606,[],"[960, 540]",ColorTask,71.0,21.0,,,HRV,HRV_0317,2022-11-30 23:14:14
,wl-rdm,138,395685,0.0-8.21-0.21,1.0,139.0,,,,,,,[],,,,,,50.0,1.0,i,1.0,True,848.299999833107,27.0,58.0,40.0,False,,367.6646341447281,[],"[960, 540]",ColorTask,72.0,22.0,,,HRV,HRV_0317,2022-11-30 23:14:14
,wl-rdm,139,397979,0.0-8.22-0.22,1.0,140.0,,,,,,,[],,,,,,50.0,1.0,i,1.0,True,967.3999998569489,29.0,58.0,40.0,False,,224.0738636429502,[],"[960, 540]",ColorTask,73.0,23.0,,,HRV,HRV_0317,2022-11-30 23:14:14
,wl-rdm,140,400345,0.0-8.23-0.23,1.0,141.0,,,,,,,[],,,,,,73.6,1.0,i,1.0,True,902.1000000238419,29.0,58.0,40.0,False,,357.3485838144478,[],"[960, 540]",ColorTask,74.0,24.0,,,HRV,HRV_0317,2022-11-30 23:14:14
,wl-rdm,141,402485,0.0-8.24-0.24,1.0,142.0,,,,,,,[],,,,,,87.9,1.0,i,1.0,True,625.5,20.0,58.0,40.0,False,,389.95460352827763,[],"[960, 540]",ColorTask,75.0,25.0,,,HRV,HRV_0317,2022-11-30 23:14:14
,wl-rdm,142,404727,0.0-8.25-0.25,1.0,143.0,,,,,,,[],,,,,,62.5,1.0,i,1.0,True,726.3000000715256,23.0,58.0,40.0,False,,372.5632447416698,[],"[960, 540]",ColorTask,76.0,26.0,,,HRV,HRV_0317,2022-11-30 23:14:14
,wl-rdm,143,406992,0.0-8.26-0.26,1.0,144.0,,,,,,,[],,,,,,50.0,0.0,i,1.0,False,889.1999999284744,26.0,58.0,40.0,False,,254.50696918264643,[],"[960, 540]",ColorTask,75.0,27.0,,,HRV,HRV_0317,2022-11-30 23:14:14
,wl-rdm,144,409632,0.0-8.27-0.27,1.0,145.0,,,,,,,[],,,,,,73.6,1.0,i,1.0,True,1132.3999999761581,36.0,58.0,40.0,False,,357.74215572159426,[],"[960, 540]",ColorTask,76.0,28.0,,,HRV,HRV_0317,2022-11-30 23:14:14
,wl-rdm,145,411961,0.0-8.28-0.28,1.0,146.0,,,,,,,[],,,,,,62.5,0.0,u,0.0,True,985.5,32.0,58.0,40.0,False,,248.60609519434294,[],"[960, 540]",ColorTask,77.0,29.0,,,HRV,HRV_0317,2022-11-30 23:14:14
,wl-rdm,146,414736,0.0-8.29-0.29,1.0,147.0,,,,,,,[],,,,,,50.0,0.0,i,1.0,False,1477.3000000715256,48.0,58.0,40.0,False,,200.9504963399264,[],"[960, 540]",ColorTask,76.0,30.0,,,HRV,HRV_0317,2022-11-30 23:14:14
,wl-rdm,147,417231,0.0-8.30-0.30,1.0,148.0,,,,,,,[],,,,,,62.5,0.0,u,0.0,True,1123.8999999761581,33.0,58.0,40.0,False,,247.72241012470155,[],"[960, 540]",ColorTask,77.0,31.0,,,HRV,HRV_0317,2022-11-30 23:14:14
,wl-rdm,148,419460,0.0-8.31-0.31,1.0,149.0,,,,,,,[],,,,,,87.9,1.0,i,1.0,True,768.2999999523163,25.0,58.0,40.0,False,,281.13029388765244,[],"[960, 540]",ColorTask,78.0,32.0,,,HRV,HRV_0317,2022-11-30 23:14:14
,wl-rdm,149,422154,0.0-8.32-0.32,1.0,150.0,,,,,,,[],,,,,,53.2,1.0,u,0.0,False,1342.7000000476837,43.0,58.0,40.0,False,,225.64689576183724,[],"[960, 540]",ColorTask,77.0,33.0,,,HRV,HRV_0317,2022-11-30 23:14:14
,wl-rdm,150,424616,0.0-8.33-0.33,1.0,151.0,,,,,,,[],,,,,,53.2,1.0,u,0.0,False,957.2000000476837,30.0,58.0,40.0,False,,377.94026194404023,[],"[960, 540]",ColorTask,76.0,34.0,,,HRV,HRV_0317,2022-11-30 23:14:14
,wl-rdm,151,427517,0.0-8.34-0.34,1.0,152.0,,,,,,,[],,,,,,56.4,1.0,i,1.0,True,1442.5999999046326,48.0,58.0,40.0,False,,339.9799915824766,[],"[960, 540]",ColorTask,77.0,35.0,,,HRV,HRV_0317,2022-11-30 23:14:14
,wl-rdm,152,429802,0.0-8.35-0.35,1.0,153.0,,,,,,,[],,,,,,50.0,0.0,u,0.0,True,901.0,26.0,58.0,40.0,False,,228.76246454122872,[],"[960, 540]",ColorTask,78.0,36.0,,,HRV,HRV_0317,2022-11-30 23:14:14
,wl-rdm,153,431987,0.0-8.36-0.36,1.0,154.0,,,,,,,[],,,,,,73.6,1.0,i,1.0,True,754.5000001192093,23.0,58.0,40.0,False,,312.6010213022394,[],"[960, 540]",ColorTask,79.0,37.0,,,HRV,HRV_0317,2022-11-30 23:14:14
,wl-rdm,154,434755,0.0-8.37-0.37,1.0,155.0,,,,,,,[],,,,,,56.4,0.0,u,0.0,True,1275.0999999046326,41.0,58.0,40.0,False,,397.27130997598056,[],"[960, 540]",ColorTask,80.0,38.0,,,HRV,HRV_0317,2022-11-30 23:14:14
,wl-rdm,155,437522,0.0-8.38-0.38,1.0,156.0,,,,,,,[],,,,,,56.4,0.0,u,0.0,True,1303.2000000476837,39.0,58.0,40.0,False,,353.880527631139,[],"[960, 540]",ColorTask,81.0,39.0,,,HRV,HRV_0317,2022-11-30 23:14:14
,wl-rdm,156,440491,0.0-8.39-0.39,1.0,157.0,,,,,,,[],,,,,,53.2,1.0,u,0.0,False,1595.5,41.0,58.0,40.0,False,,215.04266180084466,[],"[960, 540]",ColorTask,80.0,40.0,,,HRV,HRV_0317,2022-11-30 23:14:14
,wl-rdm,157,443450,0.0-8.40-0.40,1.0,158.0,,,,,,,[],,,,,,56.4,1.0,i,1.0,True,1430.5,46.0,58.0,40.0,False,,386.70450502335825,[],"[960, 540]",ColorTask,81.0,41.0,,,HRV,HRV_0317,2022-11-30 23:14:14
,wl-rdm,158,445806,0.0-8.41-0.41,1.0,159.0,,,,,,,[],,,,,,73.6,1.0,i,1.0,True,881.5999999046326,27.0,58.0,40.0,False,,360.5921370471587,[],"[960, 540]",ColorTask,82.0,42.0,,,HRV,HRV_0317,2022-11-30 23:14:14
,wl-rdm,159,448103,0.0-8.42-0.42,1.0,160.0,,,,,,,[],,,,,,50.0,1.0,i,1.0,True,914.7999999523163,29.0,58.0,40.0,False,,242.01997818141362,[],"[960, 540]",ColorTask,83.0,43.0,,,HRV,HRV_0317,2022-11-30 23:14:14
,wl-rdm,160,450301,0.0-8.43-0.43,1.0,161.0,,,,,,,[],,,,,,73.6,0.0,u,0.0,True,838.9000000953674,28.0,58.0,40.0,False,,210.51820717003352,[],"[960, 540]",ColorTask,84.0,44.0,,,HRV,HRV_0317,2022-11-30 23:14:14
,wl-rdm,161,452734,0.0-8.44-0.44,1.0,162.0,,,,,,,[],,,,,,62.5,1.0,i,1.0,True,1018.4000000953674,32.0,58.0,40.0,False,,236.7603633486405,[],"[960, 540]",ColorTask,85.0,45.0,,,HRV,HRV_0317,2022-11-30 23:14:14
,wl-rdm,162,454985,0.0-8.45-0.45,1.0,163.0,,,,,,,[],,,,,,73.6,0.0,u,0.0,True,975.1000001430511,29.0,58.0,40.0,False,,201.98234087873522,[],"[960, 540]",ColorTask,86.0,46.0,,,HRV,HRV_0317,2022-11-30 23:14:14
,wl-rdm,163,457878,0.0-8.46-0.46,1.0,164.0,,,,,,,[],,,,,,73.6,1.0,i,1.0,True,1420.3000000715256,40.0,58.0,40.0,False,,331.42407511615755,[],"[960, 540]",ColorTask,87.0,47.0,,,HRV,HRV_0317,2022-11-30 23:14:14
,wl-rdm,164,459878,0.0-8.47-0.47,1.0,165.0,,,,,,,[],,,,,,87.9,1.0,i,1.0,True,649.1000000238419,21.0,58.0,40.0,False,,235.35476540211226,[],"[960, 540]",ColorTask,88.0,48.0,,,HRV,HRV_0317,2022-11-30 23:14:14
,wl-rdm,165,462291,0.0-8.48-0.48,1.0,166.0,,,,,,,[],,,,,,50.0,0.0,u,0.0,True,1084.3000000715256,29.0,58.0,40.0,False,,223.04160604374715,[],"[960, 540]",ColorTask,89.0,49.0,,,HRV,HRV_0317,2022-11-30 23:14:14
,wl-rdm,166,464607,0.0-8.49-0.49,1.0,167.0,,,,,,,[],,,,,,87.9,1.0,i,1.0,True,857.7000000476837,27.0,58.0,40.0,False,,274.3548188687896,[],"[960, 540]",ColorTask,90.0,50.0,,,HRV,HRV_0317,2022-11-30 23:14:14
,wl-rdm,167,466748,0.0-8.50-0.50,1.0,168.0,,,,,,,[],,,,,,87.9,0.0,u,0.0,True,720.6999999284744,24.0,58.0,40.0,False,,289.4984309081285,[],"[960, 540]",ColorTask,91.0,51.0,,,HRV,HRV_0317,2022-11-30 23:14:14
,wl-rdm,168,469097,0.0-8.51-0.51,1.0,169.0,,,,,,,[],,,,,,53.2,1.0,i,1.0,True,949.6000000238419,31.0,58.0,40.0,False,,313.9729192614971,[],"[960, 540]",ColorTask,92.0,52.0,,,HRV,HRV_0317,2022-11-30 23:14:14
,wl-rdm,169,471304,0.0-8.52-0.52,1.0,170.0,,,,,,,[],,,,,,87.9,0.0,u,0.0,True,877.4000000953674,28.0,58.0,40.0,False,,220.72045041009864,[],"[960, 540]",ColorTask,93.0,53.0,,,HRV,HRV_0317,2022-11-30 23:14:14
,wl-rdm,170,473952,0.0-8.53-0.53,1.0,171.0,,,,,,,[],,,,,,53.2,1.0,u,0.0,False,1170.2999999523163,28.0,58.0,40.0,False,,372.2454861794609,[],"[960, 540]",ColorTask,92.0,54.0,,,HRV,HRV_0317,2022-11-30 23:14:14
,wl-rdm,171,476225,0.0-8.54-0.54,1.0,172.0,,,,,,,[],,,,,,73.6,0.0,u,0.0,True,858.299999833107,28.0,58.0,40.0,False,,304.92634755067587,[],"[960, 540]",ColorTask,93.0,55.0,,,HRV,HRV_0317,2022-11-30 23:14:14
,wl-rdm,172,478573,0.0-8.55-0.55,1.0,173.0,,,,,,,[],,,,,,56.4,0.0,i,1.0,False,833.6000000238419,25.0,58.0,40.0,False,,365.7261045867957,[],"[960, 540]",ColorTask,92.0,56.0,,,HRV,HRV_0317,2022-11-30 23:14:14
,wl-rdm,173,481094,0.0-8.56-0.56,1.0,174.0,,,,,,,[],,,,,,53.2,0.0,u,0.0,True,1144.9999998807907,34.0,58.0,40.0,False,,254.29988305310525,[],"[960, 540]",ColorTask,93.0,57.0,,,HRV,HRV_0317,2022-11-30 23:14:14
,wl-rdm,174,483224,0.0-8.57-0.57,1.0,175.0,,,,,,,[],,,,,,87.9,0.0,u,0.0,True,792.7000000476837,25.0,58.0,40.0,False,,237.87630882113908,[],"[960, 540]",ColorTask,94.0,58.0,,,HRV,HRV_0317,2022-11-30 23:14:14
,wl-rdm,175,485286,0.0-8.58-0.58,1.0,176.0,,,,,,,[],,,,,,87.9,1.0,i,1.0,True,683.3000000715256,23.0,58.0,40.0,False,,244.0487015456165,[],"[960, 540]",ColorTask,95.0,59.0,,,HRV,HRV_0317,2022-11-30 23:14:14
,wl-rdm,176,487612,0.0-8.59-0.59,1.0,177.0,,,,,,,[],,,,,,56.4,1.0,u,0.0,False,946.2000000476837,28.0,58.0,40.0,False,,272.19717482057104,[],"[960, 540]",ColorTask,94.0,60.0,,,HRV,HRV_0317,2022-11-30 23:14:14
,wl-rdm,177,490040,0.0-8.60-0.60,1.0,178.0,,,,,,,[],,,,,,73.6,1.0,i,1.0,True,949.4999998807907,15.0,58.0,40.0,False,,324.05297981604906,[],"[960, 540]",ColorTask,95.0,61.0,,,HRV,HRV_0317,2022-11-30 23:14:14
,wl-rdm,178,492113,0.0-8.61-0.61,1.0,179.0,,,,,,,[],,,,,,62.5,0.0,u,0.0,True,702.1999999284744,23.0,58.0,40.0,False,,249.69168417461736,[],"[960, 540]",ColorTask,96.0,62.0,,,HRV,HRV_0317,2022-11-30 23:14:14
,wl-rdm,179,494173,0.0-8.62-0.62,1.0,180.0,,,,,,,[],,,,,,87.9,0.0,u,0.0,True,676.5999999046326,22.0,58.0,40.0,False,,283.08148652846126,[],"[960, 540]",ColorTask,97.0,63.0,,,HRV,HRV_0317,2022-11-30 23:14:14
,wl-rdm,180,496497,0.0-8.63-0.63,1.0,181.0,,,,,,,[],,,,,,62.5,1.0,i,1.0,True,937.2000000476837,28.0,58.0,40.0,False,,235.88628148675474,[],"[960, 540]",ColorTask,98.0,64.0,,,HRV,HRV_0317,2022-11-30 23:14:14
,wl-rdm,181,499073,0.0-8.64-0.64,1.0,182.0,,,,,,,[],,,,,,50.0,1.0,u,0.0,False,1257.0,36.0,58.0,40.0,False,,220.9219526346693,[],"[960, 540]",ColorTask,97.0,65.0,,,HRV,HRV_0317,2022-11-30 23:14:14
,wl-rdm,182,501649,0.0-8.65-0.65,1.0,183.0,,,,,,,[],,,,,,50.0,0.0,i,1.0,False,1185.2000000476837,35.0,58.0,40.0,False,,250.41406554416062,[],"[960, 540]",ColorTask,96.0,66.0,,,HRV,HRV_0317,2022-11-30 23:14:14
,wl-rdm,183,504844,0.0-8.66-0.66,1.0,184.0,,,,,,,[],,,,,,62.5,0.0,i,1.0,False,1774.5000001192093,57.0,58.0,40.0,False,,211.25281315640612,[],"[960, 540]",ColorTask,95.0,67.0,,,HRV,HRV_0317,2022-11-30 23:14:14
,wl-rdm,184,507166,0.0-8.67-0.67,1.0,185.0,,,,,,,[],,,,,,50.0,1.0,i,1.0,True,949.4999998807907,31.0,58.0,40.0,False,,270.32794745735856,[],"[960, 540]",ColorTask,96.0,68.0,,,HRV,HRV_0317,2022-11-30 23:14:14
,wl-rdm,185,509410,0.0-8.68-0.68,1.0,186.0,,,,,,,[],,,,,,87.9,0.0,u,0.0,True,796.3000000715256,25.0,58.0,40.0,False,,318.9700439388604,[],"[960, 540]",ColorTask,97.0,69.0,,,HRV,HRV_0317,2022-11-30 23:14:14
,wl-rdm,186,511512,0.0-8.69-0.69,1.0,187.0,,,,,,,[],,,,,,87.9,0.0,u,0.0,True,747.2000000476837,23.0,58.0,40.0,False,,244.62327759622795,[],"[960, 540]",ColorTask,98.0,70.0,,,HRV,HRV_0317,2022-11-30 23:14:14
,wl-rdm,187,514374,0.0-8.70-0.70,1.0,188.0,,,,,,,[],,,,,,56.4,1.0,u,0.0,False,1450.0000001192093,46.0,58.0,40.0,False,,299.39792417436115,[],"[960, 540]",ColorTask,97.0,71.0,,,HRV,HRV_0317,2022-11-30 23:14:14
,wl-rdm,188,517011,0.0-8.71-0.71,1.0,189.0,,,,,,,[],,,,,,56.4,0.0,u,0.0,True,1209.8999999761581,38.0,58.0,40.0,False,,301.5915246232409,[],"[960, 540]",ColorTask,98.0,72.0,,,HRV,HRV_0317,2022-11-30 23:14:14
,wl-rdm,189,519185,0.0-8.72-0.72,1.0,190.0,,,,,,,[],,,,,,87.9,1.0,i,1.0,True,712.1000001430511,23.0,58.0,40.0,False,,351.50885128269175,[],"[960, 540]",ColorTask,99.0,73.0,,,HRV,HRV_0317,2022-11-30 23:14:14
,wl-rdm,190,521250,0.0-8.73-0.73,1.0,191.0,,,,,,,[],,,,,,53.2,0.0,u,0.0,True,717.9000000953674,21.0,58.0,40.0,False,,201.81629577286432,[],"[960, 540]",ColorTask,100.0,74.0,,,HRV,HRV_0317,2022-11-30 23:14:14
,wl-rdm,191,523474,0.0-8.74-0.74,1.0,192.0,,,,,,,[],,,,,,50.0,0.0,u,0.0,True,790.299999833107,26.0,58.0,40.0,False,,289.59513951847606,[],"[960, 540]",ColorTask,101.0,75.0,,,HRV,HRV_0317,2022-11-30 23:14:14
,wl-rdm,192,526068,0.0-8.75-0.75,1.0,193.0,,,,,,,[],,,,,,56.4,1.0,u,0.0,False,1250.7999999523163,40.0,58.0,40.0,False,,231.09335760627818,[],"[960, 540]",ColorTask,100.0,76.0,,,HRV,HRV_0317,2022-11-30 23:14:14
,wl-rdm,193,528377,0.0-8.76-0.76,1.0,194.0,,,,,,,[],,,,,,56.4,1.0,i,1.0,True,810.3999999761581,26.0,58.0,40.0,False,,351.0242254113323,[],"[960, 540]",ColorTask,101.0,77.0,,,HRV,HRV_0317,2022-11-30 23:14:14
,wl-rdm,194,530976,0.0-8.77-0.77,1.0,195.0,,,,,,,[],,,,,,56.4,0.0,i,1.0,False,1139.2000000476837,37.0,58.0,40.0,False,,337.64754725960086,[],"[960, 540]",ColorTask,100.0,78.0,,,HRV,HRV_0317,2022-11-30 23:14:14
,wl-rdm,195,533266,0.0-8.78-0.78,1.0,196.0,,,,,,,[],,,,,,53.2,1.0,u,0.0,False,799.6000000238419,24.0,58.0,40.0,False,,325.0888970263763,[],"[960, 540]",ColorTask,99.0,79.0,,,HRV,HRV_0317,2022-11-30 23:14:14
,wl-rdm,196,535732,0.0-8.79-0.79,1.0,197.0,,,,,,,[],,,,,,62.5,0.0,u,0.0,True,1130.0,35.0,58.0,40.0,False,,212.40490015570714,[],"[960, 540]",ColorTask,100.0,80.0,,,HRV,HRV_0317,2022-11-30 23:14:14
,wl-rdm,197,538836,0.0-8.80-0.80,1.0,198.0,,,,,,,[],,,,,,62.5,1.0,u,0.0,False,1435.7000000476837,47.0,58.0,40.0,False,,330.0907374424118,[],"[960, 540]",ColorTask,99.0,81.0,,,HRV,HRV_0317,2022-11-30 23:14:14
,wl-rdm,198,541770,0.0-8.81-0.81,1.0,199.0,,,,,,,[],,,,,,56.4,0.0,u,0.0,True,1579.0,49.0,58.0,40.0,False,,220.96035706614543,[],"[960, 540]",ColorTask,100.0,82.0,,,HRV,HRV_0317,2022-11-30 23:14:14
,wl-rdm,199,543917,0.0-8.82-0.82,1.0,200.0,,,,,,,[],,,,,,73.6,0.0,u,0.0,True,693.0,19.0,58.0,40.0,False,,349.25643922878334,[],"[960, 540]",ColorTask,101.0,83.0,,,HRV,HRV_0317,2022-11-30 23:14:14
,wl-rdm,200,546175,0.0-8.83-0.83,1.0,201.0,,,,,,,[],,,,,,87.9,1.0,i,1.0,True,909.0000001192093,27.0,58.0,40.0,False,,208.91624921788656,[],"[960, 540]",ColorTask,102.0,84.0,,,HRV,HRV_0317,2022-11-30 23:14:14
,wl-rdm,201,548920,0.0-8.84-0.84,1.0,202.0,,,,,,,[],,,,,,53.2,1.0,i,1.0,True,1410.2999999523163,42.0,58.0,40.0,False,,221.76214167345282,[],"[960, 540]",ColorTask,103.0,85.0,,,HRV,HRV_0317,2022-11-30 23:14:14
,wl-rdm,202,551255,0.0-8.85-0.85,1.0,203.0,,,,,,,[],,,,,,62.5,1.0,i,1.0,True,997.5999999046326,32.0,58.0,40.0,False,,203.714010939122,[],"[960, 540]",ColorTask,104.0,86.0,,,HRV,HRV_0317,2022-11-30 23:14:14
,wl-rdm,203,553860,0.0-8.86-0.86,1.0,204.0,,,,,,,[],,,,,,62.5,0.0,u,0.0,True,815.1999999284744,24.0,58.0,40.0,False,,364.50750849929534,[],"[960, 540]",ColorTask,105.0,87.0,,,HRV,HRV_0317,2022-11-30 23:14:14
,wl-rdm,204,556435,0.0-8.87-0.87,1.0,205.0,,,,,,,[],,,,,,73.6,1.0,i,1.0,True,1050.2999999523163,31.0,58.0,40.0,False,,378.68513278864464,[],"[960, 540]",ColorTask,106.0,88.0,,,HRV,HRV_0317,2022-11-30 23:14:14
,wl-rdm,205,559120,0.0-8.88-0.88,1.0,206.0,,,,,,,[],,,,,,62.5,1.0,u,0.0,False,1265.6999999284744,41.0,58.0,40.0,False,,245.22791562398075,[],"[960, 540]",ColorTask,105.0,89.0,,,HRV,HRV_0317,2022-11-30 23:14:14
,wl-rdm,206,561353,0.0-8.89-0.89,1.0,207.0,,,,,,,[],,,,,,87.9,0.0,u,0.0,True,845.3999999761581,25.0,58.0,40.0,False,,273.81898802369574,[],"[960, 540]",ColorTask,106.0,90.0,,,HRV,HRV_0317,2022-11-30 23:14:14
,wl-rdm,207,563620,0.0-8.90-0.90,1.0,208.0,,,,,,,[],,,,,,62.5,1.0,i,1.0,True,832.8000000715256,22.0,58.0,40.0,False,,311.30323359375166,[],"[960, 540]",ColorTask,107.0,91.0,,,HRV,HRV_0317,2022-11-30 23:14:14
,wl-rdm,208,565860,0.0-8.91-0.91,1.0,209.0,,,,,,,[],,,,,,62.5,0.0,u,0.0,True,913.3999999761581,28.0,58.0,40.0,False,,227.11345880798282,[],"[960, 540]",ColorTask,108.0,92.0,,,HRV,HRV_0317,2022-11-30 23:14:14
,wl-rdm,209,568118,0.0-8.92-0.92,1.0,210.0,,,,,,,[],,,,,,73.6,0.0,u,0.0,True,865.5,26.0,58.0,40.0,False,,205.97487242681535,[],"[960, 540]",ColorTask,109.0,93.0,,,HRV,HRV_0317,2022-11-30 23:14:14
,wl-rdm,210,570720,0.0-8.93-0.93,1.0,211.0,,,,,,,[],,,,,,53.2,0.0,u,0.0,True,1116.0,35.0,58.0,40.0,False,,306.4484905093975,[],"[960, 540]",ColorTask,110.0,94.0,,,HRV,HRV_0317,2022-11-30 23:14:14
,wl-rdm,211,573311,0.0-8.94-0.94,1.0,212.0,,,,,,,[],,,,,,53.2,0.0,u,0.0,True,1216.7999999523163,37.0,58.0,40.0,False,,262.1672057431242,[],"[960, 540]",ColorTask,111.0,95.0,,,HRV,HRV_0317,2022-11-30 23:14:14
,wl-rdm,212,576113,0.0-8.95-0.95,1.0,213.0,,,,,,,[],,,,,,56.4,1.0,u,0.0,False,1279.3999999761581,41.0,58.0,40.0,False,,383.16540161453946,[],"[960, 540]",ColorTask,110.0,96.0,,,HRV,HRV_0317,2022-11-30 23:14:14
,wl-rdm,213,580545,0.0-8.96-0.96,1.0,213.0,,,,,,,[],,,,,,50.0,0.0,,,,,88.0,58.0,40.0,True,RT_timeout ,201.67013831486443,[],"[960, 540]",ColorTask,109.0,97.0,,,HRV,HRV_0317,2022-11-30 23:14:14
,wl-rdm,214,581839,0.0-8.97-0.97,1.0,213.0,,,,,,,[],,,,,,56.4,0.0,u,,,705.5,0.0,58.0,40.0,True,too_early ,291.56688284049943,[],"[960, 540]",ColorTask,108.0,98.0,,,HRV,HRV_0317,2022-11-30 23:14:14
,wl-rdm,215,584312,0.0-8.98-0.98,1.0,214.0,,,,,,,[],,,,,,50.0,0.0,i,1.0,False,1020.9999998807907,31.0,58.0,40.0,False,,288.5781018398509,[],"[960, 540]",ColorTask,107.0,99.0,,,HRV,HRV_0317,2022-11-30 23:14:14
,wl-rdm,216,587043,0.0-8.99-0.99,1.0,215.0,,,,,,,[],,,,,,73.6,1.0,i,1.0,True,997.0000001192093,33.0,58.0,40.0,False,,292.2080923611149,[],"[960, 540]",ColorTask,108.0,100.0,,,HRV,HRV_0317,2022-11-30 23:14:14
,wl-rdm,217,589379,0.0-8.100-0.100,1.0,216.0,,,,,,,[],,,,,,53.2,0.0,u,0.0,True,933.6999999284744,29.0,58.0,40.0,False,,243.18756576906912,[],"[960, 540]",ColorTask,109.0,101.0,,,HRV,HRV_0317,2022-11-30 23:14:14
,wl-rdm,218,592016,0.0-8.101-0.101,1.0,217.0,,,,,,,[],,,,,,50.0,0.0,u,0.0,True,1267.1999999284744,41.0,58.0,40.0,False,,245.7022049149302,[],"[960, 540]",ColorTask,110.0,102.0,,,HRV,HRV_0317,2022-11-30 23:14:14
,wl-rdm,219,594796,0.0-8.102-0.102,1.0,218.0,,,,,,,[],,,,,,50.0,0.0,i,1.0,False,1325.1000000238419,42.0,58.0,40.0,False,,293.2911501766724,[],"[960, 540]",ColorTask,109.0,103.0,,,HRV,HRV_0317,2022-11-30 23:14:14
,wl-rdm,220,597178,0.0-8.103-0.103,1.0,219.0,,,,,,,[],,,,,,56.4,1.0,u,0.0,False,965.7000000476837,28.0,58.0,40.0,False,,281.0506306841903,[],"[960, 540]",ColorTask,108.0,104.0,,,HRV,HRV_0317,2022-11-30 23:14:14
,wl-rdm,221,599529,0.0-8.104-0.104,1.0,220.0,,,,,,,[],,,,,,73.6,0.0,u,0.0,True,726.9000000953674,24.0,58.0,40.0,False,,390.24777355380377,[],"[960, 540]",ColorTask,109.0,105.0,,,HRV,HRV_0317,2022-11-30 23:14:14
,wl-rdm,222,601816,0.0-8.105-0.105,1.0,221.0,,,,,,,[],,,,,,87.9,1.0,i,1.0,True,865.2000000476837,25.0,58.0,40.0,False,,296.6834094022421,[],"[960, 540]",ColorTask,110.0,106.0,,,HRV,HRV_0317,2022-11-30 23:14:14
,wl-rdm,223,604994,0.0-8.106-0.106,1.0,222.0,,,,,,,[],,,,,,53.2,1.0,u,0.0,False,1641.0,49.0,58.0,40.0,False,,396.67476007331027,[],"[960, 540]",ColorTask,109.0,107.0,,,HRV,HRV_0317,2022-11-30 23:14:14
,wl-rdm,224,607017,0.0-8.107-0.107,1.0,223.0,,,,,,,[],,,,,,87.9,0.0,u,0.0,True,631.9999998807907,20.0,58.0,40.0,False,,289.0726816992677,[],"[960, 540]",ColorTask,110.0,108.0,,,HRV,HRV_0317,2022-11-30 23:14:14
,wl-rdm,225,609066,0.0-8.108-0.108,1.0,224.0,,,,,,,[],,,,,,87.9,1.0,i,1.0,True,697.7999999523163,23.0,58.0,40.0,False,,223.01967100785407,[],"[960, 540]",ColorTask,111.0,109.0,,,HRV,HRV_0317,2022-11-30 23:14:14
,wl-rdm,226,611650,0.0-8.109-0.109,1.0,225.0,,,,,,,[],,,,,,56.4,0.0,u,0.0,True,1243.7000000476837,38.0,58.0,40.0,False,,205.93463898070664,[],"[960, 540]",ColorTask,112.0,110.0,,,HRV,HRV_0317,2022-11-30 23:14:14
,wl-html-button-response,227,614441,0.0-9.0-0.0,,,,,,,,,,2616.899999976158,,0,,,,,,,,,,,,,,,,,,,,<h3>End of this session. Thank you!</h3><br>,['Close window'],HRV,HRV_0317,2022-11-30 23:14:14
