Answer,C_Pay,Question,QuestionNum,jitter,C_Trial,C_QPresent,rsp,C_SWK,C_SWK_rt,C_AnswerPresent,C_WorthPresent,C_Worth,C_Worth_rt,C_TrialEnd,exp,subjectId,date
Every jar of peanut butter must be at least 90% peanuts,3,What percentage of peanuts is found in a standard jar of peanut butter?,423,0.773,0,4992.5,t,W,4371.5,11889.599999904633,15905.799999952316,2,1106.6000000238419,18308.5,HRV,HRV_0317,2022-11-30 22:51:00
Marriage,7,Gamophobia is the fear of what?,42,1.13,1,18308.799999952316,p,K,3967.2000000476837,,,,,23942.5,HRV,HRV_0317,2022-11-30 22:51:00
George Washington,4,Who is pictured on a US Purple Heart medal? ,368,0.878,2,23942.5,t,W,4061.899999976158,30525.299999952316,34533.89999997616,3,1062.1000000238419,37000.299999952316,HRV,HRV_0317,2022-11-30 22:51:00
Frog,1,Certain types of which animal can be frozen solid and then continue living once thawed?,30,1.573,3,37000.39999997616,t,W,7964.0,47486.89999997616,51497.39999997616,3,602.5,54194.39999997616,HRV,HRV_0317,2022-11-30 22:51:00
Sugar-sweetened beverages are likely the most fattening becaause they are not registered as consumed calories. ,1,What is the most fattening product in the modern diet?,457,0.837,4,54194.699999928474,t,W,4313.700000047684,61027.0,65052.89999997616,4,591.1000000238419,66996.59999990463,HRV,HRV_0317,2022-11-30 22:51:00
Monday,1,The risk of heart attack is highest on which day of the week?,104,1.897,5,66996.69999992847,p,K,3912.0,,,,,73336.5,HRV,HRV_0317,2022-11-30 22:51:00
Gone with the Wind,4,The first swear word on the big screen was in what movie?,100,1.199,6,73336.79999995232,t,W,4267.200000047684,80123.0,84148.89999997616,2,1287.6000000238419,87160.39999997616,HRV,HRV_0317,2022-11-30 22:51:00
Thrust,3,What term for a rocket's propulsive force is calculated by multiplying its exhaust velocity by the burn rate of its fuel?,265,1.2,7,87160.69999992847,q,S,5211.200000047684,,,,,94092.39999997616,HRV,HRV_0317,2022-11-30 22:51:00
An ostrich egg yolk ,6,What grapefruit-sized object has been reckoned to be the largest single cell on earth? ,183,0.725,8,94092.69999992847,q,S,6551.899999976158,,,,,101905.5,HRV,HRV_0317,2022-11-30 22:51:00
Haddock,4,"If you ordered an Omelet Arnold Bennett, what fish would you find in it?",429,0.906,9,101905.89999997616,t,W,5378.100000023842,109809.0,113824.09999990463,3,1587.8000000715256,116828.5,HRV,HRV_0317,2022-11-30 22:51:00
Sudan,7,"Though an eleven-year ceasefire held from 1972 to 1983, what African country has been embroiled in a civil war since 1955?",115,1.696,10,116828.5,q,S,6119.5,,,,,125162.5,HRV,HRV_0317,2022-11-30 22:51:00
Thomas Nast ,1,Which cartoonist is famous for creating the popular image of Santa Claus? ,333,1.536,11,125162.69999992847,t,W,4465.0,132151.0,136163.0,3,512.7999999523163,138744.79999995232,HRV,HRV_0317,2022-11-30 22:51:00
The Leek ,4,"What bulb vegetable is traditionally worn on Saint David's Day, as it's a national symbol of Wales?",145,0.851,12,138744.79999995232,p,K,5211.100000023842,,,,,145336.59999990463,HRV,HRV_0317,2022-11-30 22:51:00
Turkey,2,Which animal was named for what was wrongly thought to be its country of origin? ,326,1.597,13,145336.59999990463,t,W,5163.200000047684,153028.59999990463,157048.0,3,1020.2999999523163,160190.5,HRV,HRV_0317,2022-11-30 22:51:00
citrus fruit (scurvy is caused by a lack of vitamin c),7,Sailors used to suffer from a horrible illness called scurvy. Which food prevents scurvy?,441,0.679,14,160190.69999992847,p,K,5237.200000047684,,,,,166624.39999997616,HRV,HRV_0317,2022-11-30 22:51:00
Sunrise or sunset,7,"When is the optical phenomenon called a ""green flash"" or ""green ray"" visible?  ",313,1.678,15,166624.69999992847,t,W,7091.600000023842,176233.0,180247.79999995232,2,1316.2000000476837,183764.5,HRV,HRV_0317,2022-11-30 22:51:00
Mushrooms which have been exposed to light,2,What is the only non-animal natural source of vitamin D?,459,1.313,16,183764.5,t,W,5479.899999976158,191767.0,195777.5,3,858.5,198470.5,HRV,HRV_0317,2022-11-30 22:51:00
George VI,6,Who was the last British Monarch to also be an emperor?  ,381,1.542,17,198470.69999992847,q,S,2709.100000023842,,,,,203230.5,HRV,HRV_0317,2022-11-30 22:51:00
"the white flesh that houses the seeds, known as the placenta",5,What is the hottest part of a chili?,432,1.555,18,203230.5,p,K,3245.399999976158,,,,,208548.39999997616,HRV,HRV_0317,2022-11-30 22:51:00
cooking,3,"If you suffer from Mageirocophobia, what are you scared of?",438,0.886,19,208548.5,t,W,2639.399999976158,213704.79999995232,217717.39999997616,2,806.3999999761581,219934.59999990463,HRV,HRV_0317,2022-11-30 22:51:00
Japan,5,Where is the longest suspension bridge? ,319,0.53,20,219934.59999990463,t,W,3517.2000000476837,225980.89999997616,229993.79999995232,2,1105.8999999761581,232144.39999997616,HRV,HRV_0317,2022-11-30 22:51:00
Pandemonium,3,"What noisy word comes from the capital of Hell in Milton's ""Paradise Lost""? ",239,1.336,21,232144.59999990463,q,S,4931.200000047684,,,,,238924.89999997616,HRV,HRV_0317,2022-11-30 22:51:00
Steamboat Geyser,3,"Which Yellowstone geyser, with eruptions 100 fee taller than Old Faithful's, is the world's tallest?",359,0.66,22,238925.0,t,W,4039.1999999284744,245483.79999995232,249496.09999990463,4,1003.8000000715256,251683.39999997616,HRV,HRV_0317,2022-11-30 22:51:00
The Big Bang,6,"Arno Penzias and Robert Wilson shared a Nobel Prize for accidentally discovering ""CMB,"" leftover radiation from what?",22,1.599,23,251683.69999992847,t,W,4640.600000023842,258845.79999995232,262858.89999997616,2,513.0,265501.39999997616,HRV,HRV_0317,2022-11-30 22:51:00
Fiber is the gut bacteria's preferred fuel source. ,6,What food is most beneficial for your gut bacteria?,458,1.333,24,265501.59999990463,p,K,3262.7000000476837,,,,,270613.39999997616,HRV,HRV_0317,2022-11-30 22:51:00
Cricket,2,"What sport used the term ""home run"" long before baseball?  ",260,0.547,25,270613.5,t,W,4445.899999976158,277584.0,281600.1999999285,1,1572.2000000476837,284233.39999997616,HRV,HRV_0317,2022-11-30 22:51:00
George H.W. Bush ,6,"Who said: ""I'm the president of the United States and I'm not going to eat any more broccoli""? ",415,1.002,26,284233.5,t,W,5034.299999952316,291783.6999999285,295796.1999999285,1,808.1000000238419,298125.89999997616,HRV,HRV_0317,2022-11-30 22:51:00
Gecko,4,What is the only type of lizard that has a voice? ,213,0.889,27,298125.89999997616,t,W,2477.899999976158,303116.0,307130.7999999523,2,953.5,309487.5,HRV,HRV_0317,2022-11-30 22:51:00
The Blair Witch Project,3,"What 1990's movie was filmed on a budget of $60,000 but grossed over $100 million? ",125,1.114,28,309487.6999999285,q,S,5212.200000047684,,,,,316323.5,HRV,HRV_0317,2022-11-30 22:51:00
Koala,7,"What animal, which eighteenth century settlers called a ""native bear"" has two opposable thumbs on each hand?",134,1.148,29,316323.6999999285,t,W,4448.399999976158,323290.0,327316.39999997616,4,1095.3999999761581,330093.5,HRV,HRV_0317,2022-11-30 22:51:00
Green Eggs and Ham,6,What 1960 classic originated when Bennett Cerf bet one of his authors that he couldn't write a book using only fifty words?,419,1.955,30,330093.59999990463,q,S,2686.0,,,,,335255.2999999523,HRV,HRV_0317,2022-11-30 22:51:00
Oklahoma,4,"What U.S. state has the slogan ""Native America"" on its license plates?",271,0.776,31,335255.39999997616,t,W,3604.0,341377.89999997616,345391.1999999285,3,589.0,347271.2999999523,HRV,HRV_0317,2022-11-30 22:51:00
Columbia,7,What company introduced the first LP record albums?  ,155,1.142,32,347271.39999997616,t,W,2732.399999976158,352523.89999997616,356538.5,1,1217.3999999761581,359421.5,HRV,HRV_0317,2022-11-30 22:51:00
Tse-tse fly,2,What transmits the disease typanosomiasis to humans and cattle? ,267,1.882,33,359421.59999990463,t,W,2870.100000023842,364818.89999997616,368843.0,3,761.1999999284744,372005.5,HRV,HRV_0317,2022-11-30 22:51:00
The Chrysler Building ,2,What skyscraper's exterior ornaments include radiator caps on the thirty-first floor and hood ornament eagles on the sixty-first floor?,258,0.879,34,372005.5,t,W,4638.299999952316,379165.7999999523,383184.09999990463,2,923.6000000238419,385515.2999999523,HRV,HRV_0317,2022-11-30 22:51:00
General Electric ,6,What's the only stock from the original Dow Jones Industrial Average that's still used in computing the index?,310,1.286,35,385515.39999997616,t,W,2776.399999976158,390811.89999997616,394824.39999997616,2,931.7999999523163,397555.39999997616,HRV,HRV_0317,2022-11-30 22:51:00
Sepia,1,What tinting process for black and white photography was named for the genus of cuttlefish that originally provided the pigment?,266,1.877,36,397555.6999999285,t,W,6504.100000023842,406588.0,410610.89999997616,4,1081.2999999523163,414098.2999999523,HRV,HRV_0317,2022-11-30 22:51:00
Cement,1,"The SS Faith, a ship built by Leslie Comyn, was made of what unique material?",105,1.422,37,414098.39999997616,t,W,2713.0,419325.0,423337.09999990463,4,1194.2000000476837,426476.39999997616,HRV,HRV_0317,2022-11-30 22:51:00
The sky,4,The Linke Scale is used to measure the blueness of what?,101,1.739,38,426476.5,t,W,2223.1999999284744,431220.89999997616,435233.09999990463,3,995.1000000238419,438500.39999997616,HRV,HRV_0317,2022-11-30 22:51:00
chickpeas,4,What is used to make hummus?,424,0.517,39,438500.5,p,K,3327.2999999523163,,,,,442864.39999997616,HRV,HRV_0317,2022-11-30 22:51:00
Germany,1,Which European country was the first to produce decaffeinated coffee? ,412,1.195,40,442864.39999997616,t,W,2811.399999976158,448197.0,452213.0,5,935.1999999284744,454872.2999999523,HRV,HRV_0317,2022-11-30 22:51:00
Sao Paulo,6,What's the most populous city in the Southern Hemisphere?,304,0.859,41,454872.39999997616,t,W,2355.399999976158,459760.89999997616,463777.39999997616,4,634.7999999523163,465800.2999999523,HRV,HRV_0317,2022-11-30 22:51:00
Sapphire,5,What type of stone is referred to as the Star of India?  ,270,1.077,42,465800.5,t,W,2091.2999999523163,470416.89999997616,474429.5,3,534.5999999046326,476558.39999997616,HRV,HRV_0317,2022-11-30 22:51:00
Dorito is Spanish for little golden things,1,What does Dorito actually mean?,434,1.065,43,476558.39999997616,t,W,2813.399999976158,481896.89999997616,485915.0,4,960.6999999284744,488472.5,HRV,HRV_0317,2022-11-30 22:51:00
Blue,4,Lobster blood is what color?,73,1.048,44,488472.5,t,W,1995.1999999284744,492983.89999997616,496998.1999999285,2,1077.5,499643.39999997616,HRV,HRV_0317,2022-11-30 22:51:00
I'm a Believer ,6,What Monkees number one hit was written by a young Neil Diamond? ,233,1.812,45,499643.6999999285,t,W,3000.100000023842,505171.89999997616,509186.1999999285,3,1041.8999999761581,512567.39999997616,HRV,HRV_0317,2022-11-30 22:51:00
Australia,5,"""Welcome Stranger,"" the largest nugget of gold discovered, weighed 158 pounds and was discovered in what country?",5,0.804,46,512567.59999990463,t,W,3396.2000000476837,518492.0,522508.5,4,791.5999999046326,524619.5,HRV,HRV_0317,2022-11-30 22:51:00
Violin,2,What instrument was invented to sound like a human singing? ,189,1.877,47,524619.5999999046,t,W,2327.8000000715256,529477.8999999762,533496.0,3,540.0999999046326,536426.3999999762,HRV,HRV_0317,2022-11-30 22:51:00
Latex. This is known as the latex-fruit syndrome. ,2,Allergy to which material is associated with allergy to fruit such as papaya and banana? ,462,1.847,48,536426.3999999762,t,W,3617.5,542561.8999999762,546575.5,4,1036.1999999284744,549983.5,HRV,HRV_0317,2022-11-30 22:51:00
Gabriele Falloppio ,6,What Italian physician was the first to describe the way the ovaries connect to the uterus in humans?,217,1.132,49,549983.5,t,W,3979.899999976158,556482.0,560497.7999999523,2,946.0,563129.3999999762,HRV,HRV_0317,2022-11-30 22:51:00
The Ritz (Hotel),1,"F. Scott Fitzgerald wrote a famous short story about ""A Diamond as Big as"" what New York landmark?",39,0.688,50,563129.5999999046,t,W,4986.100000023842,570635.8999999762,574645.8999999762,3,909.7999999523163,576765.5,HRV,HRV_0317,2022-11-30 22:51:00
Let's spend some time together,4,"In 1967, what did The Ed Sullivan Show force the Rolling Stones to sing instead of the title of their song ""Let's Spend the Night Together""?",54,0.859,51,576765.5999999046,t,W,3622.100000023842,582903.6999999285,586913.8999999762,2,938.1999999284744,589239.7999999523,HRV,HRV_0317,2022-11-30 22:51:00
Come by her,5,"The title of the song ""Kumbaya"" is actually a distortion of what three-word phrase?",106,0.983,52,589239.7999999523,t,W,2539.899999976158,594301.7999999523,598313.8999999762,3,522.2999999523163,600335.2999999523,HRV,HRV_0317,2022-11-30 22:51:00
