success,trial_type,trial_index,time_elapsed,internal_node_id,Block,TrialNumber,TrialTime,trialTimeDiff,FPS_avg,FPS_med,FPS_mode,TrialDur,winResizeTime,rt,block,button_pressed,MotCoh,MotDir,ColCoh,Color,ChoiceKey,Choice,Accuracy,RT,nFrames,FPS,PPD,missTrial,missTrialMsg,onsetDelay,fullScreenExitTime,canvCenter,TrialType,Score,BlockTrial,stimulus,button_labels,exp,subjectId,date
True,fullscreen,0,3400,0.0-0.0,0.0,1.0,,,,,,,,,,,,,,,,,,,,,,,,,,,,,,,,HRV,HRV_0202,2022-11-30 19:10:00
,wl-check-fps,1,8392,0.0-1.0,0.0,2.0,"[4163.6, 4170.7, 4180.3, 4197.6, 4213.2, 4229.7, 4246.5, 4264.1, 4280.8, 4297.9, 4320.4, 4331.3, 4346.6, 4363.3, 4379.9, 4397, 4413.8, 4430.3, 4446.6, 4463.2, 4480, 4496.7, 4513.5, 4530, 4546.7, 4561.8, 4578.9, 4595.6, 4612.1, 4629.1, 4645.6, 4662.3, 4679, 4695.6, 4712.5, 4729.1, 4745.9, 4762.5, 4779.4, 4795.8, 4811.7, 4828.5, 4845, 4862.1, 4878.9, 4895.3, 4911.9, 4928.8, 4945.4, 4962, 4978.7, 4997.6, 5014.1, 5028.7, 5045.4, 5061.8, 5078.6, 5095.4, 5111.9, 5128.7, 5145.4, 5162, 5178.7, 5195.4, 5212.1, 5228.7, 5245.4, 5261.9, 5278, 5295.2, 5311.6, 5328.5, 5344.9, 5361.8, 5378.3, 5395, 5411.7, 5428.5, 5445.3, 5461.7, 5478.4, 5495.1, 5511.8, 5528.4, 5545, 5561.7, 5578.2, 5594.7, 5611.5, 5628.2, 5645, 5661.8, 5678.4, 5697.7, 5711.6, 5728.7, 5745, 5761.8, 5779.1, 5798.3, 5811.7, 5828.5, 5845.1, 5861.7, 5878.8, 5895.1, 5911.8, 5928.6, 5945.1, 5961.9, 5978.6, 5995.2, 6011.8, 6028.5, 6045.2, 6061.8, 6078.6, 6095.1, 6114, 6128.6, 6145.3, 6161.7, 6178.6, 6195, 6211.9, 6228.9, 6245, 6261.9, 6278.6, 6295.1, 6311.8, 6328.6, 6344.9, 6361.6, 6378, 6394.8, 6411.5, 6428.1, 6444.8, 6461.8, 6478.5, 6495.1, 6511.8, 6528.5, 6545, 6561.9, 6578.5, 6595.1, 6611.8, 6628.6, 6645, 6661.9, 6678.5, 6695.1, 6711.8, 6731.4, 6751, 6766.9, 6780.9, 6794.8, 6813.3, 6829.2, 6846.7, 6863.3, 6879.9, 6896.6, 6913.7, 6930.1, 6946.6, 6963.3, 6978, 6994.9, 7011.5, 7028.1, 7044.9, 7061.5, 7078.1, 7095.2, 7111.8, 7128.7, 7145.2, 7163.9, 7178.5, 7195.2, 7211.9, 7231.3, 7248.4, 7261.9, 7278.5, 7295.4, 7311.7, 7328.7, 7345.2, 7361.8, 7378.5, 7395.1, 7412, 7428.6, 7445.4, 7462, 7478.6, 7495.1, 7511.9, 7528.6, 7548.5, 7561.9, 7578.5, 7595.2, 7611.8, 7628.6, 7645.1, 7661.9, 7678.6, 7695.1, 7711.9, 7728.6, 7745.3, 7761.9, 7779.2, 7795.4, 7813.3, 7830, 7848, 7862.3, 7881.6, 7898.8, 7914.8, 7931.5, 7948.9, 7964.9, 7981.7, 7998.7, 8015, 8031.6, 8048.9, 8063.4, 8078.8, 8095.6, 8112.3, 8134.8, 8146.5, 8166, 8184.5, 8198.7, 8215.8, 8232.2, 8249.8, 8267.3, 8284.6, 8298, 8314.2, 8329.8, 8345.8, 8363.9, 8379, 8395.7, 8412.9, 8429, 8445.3, 8462.2, 8480.6, 8495.3, 8511.6, 8528.2, 8544.8, 8561.9, 8578.6, 8595.1, 8611.9, 8628.6, 8645.3, 8661.9, 8678.5, 8698.2, 8711.9, 8728.5, 8745.1, 8761.7, 8778.4, 8794.9, 8811.7, 8828.7, 8845.1, 8861.9, 8878.5, 8895.3, 8911.8, 8928.4, 8944.8, 8961.4, 8978.1, 8994.9, 9011.6, 9028.1, 9045.2, 9062, 9078.5, 9095.2, 9111.8, 9128.2]","[5.1, 7.1, 9.6, 17.3, 15.6, 16.5, 16.8, 17.6, 16.7, 17.1, 22.5, 10.9, 15.3, 16.7, 16.6, 17.1, 16.8, 16.5, 16.3, 16.6, 16.8, 16.7, 16.8, 16.5, 16.7, 15.1, 17.1, 16.7, 16.5, 17, 16.5, 16.7, 16.7, 16.6, 16.9, 16.6, 16.8, 16.6, 16.9, 16.4, 15.9, 16.8, 16.5, 17.1, 16.8, 16.4, 16.6, 16.9, 16.6, 16.6, 16.7, 18.9, 16.5, 14.6, 16.7, 16.4, 16.8, 16.8, 16.5, 16.8, 16.7, 16.6, 16.7, 16.7, 16.7, 16.6, 16.7, 16.5, 16.1, 17.2, 16.4, 16.9, 16.4, 16.9, 16.5, 16.7, 16.7, 16.8, 16.8, 16.4, 16.7, 16.7, 16.7, 16.6, 16.6, 16.7, 16.5, 16.5, 16.8, 16.7, 16.8, 16.8, 16.6, 19.3, 13.9, 17.1, 16.3, 16.8, 17.3, 19.2, 13.4, 16.8, 16.6, 16.6, 17.1, 16.3, 16.7, 16.8, 16.5, 16.8, 16.7, 16.6, 16.6, 16.7, 16.7, 16.6, 16.8, 16.5, 18.9, 14.6, 16.7, 16.4, 16.9, 16.4, 16.9, 17, 16.1, 16.9, 16.7, 16.5, 16.7, 16.8, 16.3, 16.7, 16.4, 16.8, 16.7, 16.6, 16.7, 17, 16.7, 16.6, 16.7, 16.7, 16.5, 16.9, 16.6, 16.6, 16.7, 16.8, 16.4, 16.9, 16.6, 16.6, 16.7, 19.6, 19.6, 15.9, 14, 13.9, 18.5, 15.9, 17.5, 16.6, 16.6, 16.7, 17.1, 16.4, 16.5, 16.7, 14.7, 16.9, 16.6, 16.6, 16.8, 16.6, 16.6, 17.1, 16.6, 16.9, 16.5, 18.7, 14.6, 16.7, 16.7, 19.4, 17.1, 13.5, 16.6, 16.9, 16.3, 17, 16.5, 16.6, 16.7, 16.6, 16.9, 16.6, 16.8, 16.6, 16.6, 16.5, 16.8, 16.7, 19.9, 13.4, 16.6, 16.7, 16.6, 16.8, 16.5, 16.8, 16.7, 16.5, 16.8, 16.7, 16.7, 16.6, 17.3, 16.2, 17.9, 16.7, 18, 14.3, 19.3, 17.2, 16, 16.7, 17.4, 16, 16.8, 17, 16.3, 16.6, 17.3, 14.5, 15.4, 16.8, 16.7, 22.5, 11.7, 19.5, 18.5, 14.2, 17.1, 16.4, 17.6, 17.5, 17.3, 13.4, 16.2, 15.6, 16, 18.1, 15.1, 16.7, 17.2, 16.1, 16.3, 16.9, 18.4, 14.7, 16.3, 16.6, 16.6, 17.1, 16.7, 16.5, 16.8, 16.7, 16.7, 16.6, 16.6, 19.7, 13.7, 16.6, 16.6, 16.6, 16.7, 16.5, 16.8, 17, 16.4, 16.8, 16.6, 16.8, 16.5, 16.6, 16.4, 16.6, 16.7, 16.8, 16.7, 16.5, 17.1, 16.8, 16.5, 16.7, 16.6, 16.4]",60.0,60.0,60.0,4987.3,[],,,,,,,,,,,,,,,,,,,,,,,,,HRV,HRV_0202,2022-11-30 19:10:00
,wl-html-keyboard-response,2,32583,0.0-2.0-0.0,0.0,3.0,,,,,,,,22184.900000095367,0.0,0,,,,,,,,,,,,,,,,,,,,,,HRV,HRV_0202,2022-11-30 19:10:00
,wl-rdm,3,39609,0.0-3.0-0.0,0.0,4.0,,,,,,,[],,,,0.0,0.0,87.9,0.0,u,0.0,True,1437.3999998569489,87.0,60.0,40.0,False,,3000.0,[],"[960, 540]",ColorTask_Demo,,,,,HRV,HRV_0202,2022-11-30 19:10:00
,wl-rdm,4,45042,0.0-3.0-1.0,0.0,5.0,,,,,,,[],,,,0.0,0.0,87.9,1.0,i,1.0,True,1373.2000000476837,83.0,60.0,40.0,False,,2000.0,[],"[960, 540]",ColorTask_Demo,,,,,HRV,HRV_0202,2022-11-30 19:10:00
,wl-html-keyboard-response,5,51959,0.0-3.0-2.0,0.0,6.0,,,,,,,,4909.599999904633,0.0,1,,,,,,,,,,,,,,,,,,,,,,HRV,HRV_0202,2022-11-30 19:10:00
,wl-html-keyboard-response,6,74648,0.0-4.0-0.0,0.0,7.0,,,,,,,,20680.400000095367,0.0,0,,,,,,,,,,,,,,,,,,,,,,HRV,HRV_0202,2022-11-30 19:10:00
,wl-html-keyboard-response,7,94535,0.0-5.0-0.0,0.0,8.0,,,,,,,,17881.0,0.0,0,,,,,,,,,,,,,,,,,,,,,,HRV,HRV_0202,2022-11-30 19:10:00
,wl-rdm,8,98178,0.0-6.0-0.0,0.0,9.0,,,,,,,[],,,,,,62.5,0.0,u,0.0,True,2364.9000000953674,141.0,60.0,40.0,False,,228.15570863969265,[],"[960, 540]",ColorTask,1.0,1.0,,,HRV,HRV_0202,2022-11-30 19:10:00
,wl-rdm,9,100645,0.0-6.1-0.1,0.0,10.0,,,,,,,[],,,,,,62.5,0.0,i,1.0,False,1070.0,65.0,60.0,40.0,False,,318.14818082284205,[],"[960, 540]",ColorTask,0.0,2.0,,,HRV,HRV_0202,2022-11-30 19:10:00
,wl-rdm,10,103796,0.0-6.2-0.2,0.0,11.0,,,,,,,[],,,,,,56.4,1.0,i,1.0,True,1730.4000000953674,104.0,60.0,40.0,False,,357.95133720852454,[],"[960, 540]",ColorTask,1.0,3.0,,,HRV,HRV_0202,2022-11-30 19:10:00
,wl-rdm,11,106879,0.0-6.3-0.3,0.0,12.0,,,,,,,[],,,,,,87.9,0.0,u,0.0,True,1654.0000002384186,100.0,60.0,40.0,False,,360.80135262636867,[],"[960, 540]",ColorTask,2.0,4.0,,,HRV,HRV_0202,2022-11-30 19:10:00
,wl-rdm,12,109762,0.0-6.4-0.4,0.0,13.0,,,,,,,[],,,,,,87.9,0.0,u,0.0,True,1548.6000001430511,93.0,60.0,40.0,False,,271.57121726458803,[],"[960, 540]",ColorTask,3.0,5.0,,,HRV,HRV_0202,2022-11-30 19:10:00
,wl-rdm,13,113663,0.0-6.5-0.5,0.0,14.0,,,,,,,[],,,,,,50.0,0.0,i,1.0,False,2554.9000000953674,154.0,60.0,40.0,False,,275.920149653289,[],"[960, 540]",ColorTask,2.0,6.0,,,HRV,HRV_0202,2022-11-30 19:10:00
,wl-rdm,14,117296,0.0-6.6-0.6,0.0,15.0,,,,,,,[],,,,,,53.2,0.0,i,1.0,False,2210.2000000476837,133.0,60.0,40.0,False,,348.9414262657507,[],"[960, 540]",ColorTask,1.0,7.0,,,HRV,HRV_0202,2022-11-30 19:10:00
,wl-rdm,15,121763,0.0-6.7-0.7,0.0,15.0,,,,,,,[],,,,,,50.0,1.0,,,,,179.0,60.0,40.0,True,RT_timeout ,369.081700074087,[],"[960, 540]",ColorTask,0.0,8.0,,,HRV,HRV_0202,2022-11-30 19:10:00
,wl-rdm,16,124280,0.0-6.8-0.8,0.0,16.0,,,,,,,[],,,,,,56.4,0.0,u,0.0,True,1226.7999999523163,74.0,60.0,40.0,False,,208.76210486984203,[],"[960, 540]",ColorTask,1.0,9.0,,,HRV,HRV_0202,2022-11-30 19:10:00
,wl-rdm,17,127147,0.0-6.9-0.9,0.0,17.0,,,,,,,[],,,,,,62.5,0.0,u,0.0,True,1422.7000002861023,86.0,60.0,40.0,False,,369.5711684564631,[],"[960, 540]",ColorTask,2.0,10.0,,,HRV,HRV_0202,2022-11-30 19:10:00
,wl-rdm,18,130230,0.0-6.10-0.10,0.0,18.0,,,,,,,[],,,,,,56.4,0.0,u,0.0,True,1805.3000001907349,108.0,60.0,40.0,False,,212.89606883773342,[],"[960, 540]",ColorTask,3.0,11.0,,,HRV,HRV_0202,2022-11-30 19:10:00
,wl-rdm,19,132979,0.0-6.11-0.11,0.0,19.0,,,,,,,[],,,,,,87.9,0.0,u,0.0,True,1456.0,88.0,60.0,40.0,False,,216.3258781071398,[],"[960, 540]",ColorTask,4.0,12.0,,,HRV,HRV_0202,2022-11-30 19:10:00
,wl-rdm,20,135947,0.0-6.12-0.12,0.0,20.0,,,,,,,[],,,,,,87.9,0.0,u,0.0,True,1648.8000001907349,98.0,60.0,40.0,False,,239.71131669798808,[],"[960, 540]",ColorTask,5.0,13.0,,,HRV,HRV_0202,2022-11-30 19:10:00
,wl-rdm,21,138847,0.0-6.13-0.13,0.0,21.0,,,,,,,[],,,,,,56.4,0.0,i,1.0,False,1626.7999999523163,98.0,60.0,40.0,False,,202.37639413971027,[],"[960, 540]",ColorTask,4.0,14.0,,,HRV,HRV_0202,2022-11-30 19:10:00
,wl-rdm,22,141864,0.0-6.14-0.14,0.0,22.0,,,,,,,[],,,,,,50.0,1.0,i,1.0,True,1669.2000000476837,99.0,60.0,40.0,False,,267.430367027049,[],"[960, 540]",ColorTask,5.0,15.0,,,HRV,HRV_0202,2022-11-30 19:10:00
,wl-rdm,23,144830,0.0-6.15-0.15,0.0,23.0,,,,,,,[],,,,,,50.0,1.0,i,1.0,True,1604.3000001907349,96.0,60.0,40.0,False,,271.54927454650715,[],"[960, 540]",ColorTask,6.0,16.0,,,HRV,HRV_0202,2022-11-30 19:10:00
,wl-rdm,24,148014,0.0-6.16-0.16,0.0,24.0,,,,,,,[],,,,,,50.0,0.0,i,1.0,False,1844.8000001907349,111.0,60.0,40.0,False,,272.9584935727514,[],"[960, 540]",ColorTask,5.0,17.0,,,HRV,HRV_0202,2022-11-30 19:10:00
,wl-rdm,25,150981,0.0-6.17-0.17,0.0,25.0,,,,,,,[],,,,,,53.2,1.0,i,1.0,True,1537.4000000953674,93.0,60.0,40.0,False,,357.75560311643744,[],"[960, 540]",ColorTask,6.0,18.0,,,HRV,HRV_0202,2022-11-30 19:10:00
,wl-rdm,26,153963,0.0-6.18-0.18,0.0,26.0,,,,,,,[],,,,,,87.9,1.0,i,1.0,True,1606.2000000476837,97.0,60.0,40.0,False,,296.9501040415789,[],"[960, 540]",ColorTask,7.0,19.0,,,HRV,HRV_0202,2022-11-30 19:10:00
,wl-rdm,27,156964,0.0-6.19-0.19,0.0,27.0,,,,,,,[],,,,,,53.2,1.0,i,1.0,True,1723.0999999046326,104.0,60.0,40.0,False,,213.9786888250053,[],"[960, 540]",ColorTask,8.0,20.0,,,HRV,HRV_0202,2022-11-30 19:10:00
,wl-rdm,28,160281,0.0-6.20-0.20,0.0,28.0,,,,,,,[],,,,,,56.4,1.0,i,1.0,True,1950.3999998569489,117.0,60.0,40.0,False,,284.2213858009624,[],"[960, 540]",ColorTask,9.0,21.0,,,HRV,HRV_0202,2022-11-30 19:10:00
,wl-rdm,29,163648,0.0-6.21-0.21,0.0,29.0,,,,,,,[],,,,,,73.6,1.0,i,1.0,True,2035.4999997615814,122.0,60.0,40.0,False,,265.26879961517506,[],"[960, 540]",ColorTask,10.0,22.0,,,HRV,HRV_0202,2022-11-30 19:10:00
,wl-rdm,30,167081,0.0-6.22-0.22,0.0,30.0,,,,,,,[],,,,,,53.2,0.0,u,0.0,True,1967.0000002384186,118.0,60.0,40.0,False,,387.5569952112047,[],"[960, 540]",ColorTask,11.0,23.0,,,HRV,HRV_0202,2022-11-30 19:10:00
,wl-rdm,31,170281,0.0-6.23-0.23,0.0,31.0,,,,,,,[],,,,,,73.6,0.0,u,0.0,True,1915.7999999523163,115.0,60.0,40.0,False,,217.07278621123987,[],"[960, 540]",ColorTask,12.0,24.0,,,HRV,HRV_0202,2022-11-30 19:10:00
,wl-rdm,32,174115,0.0-6.24-0.24,0.0,32.0,,,,,,,[],,,,,,53.2,0.0,i,1.0,False,2398.300000190735,144.0,60.0,40.0,False,,363.6956418624866,[],"[960, 540]",ColorTask,11.0,25.0,,,HRV,HRV_0202,2022-11-30 19:10:00
,wl-rdm,33,177282,0.0-6.25-0.25,0.0,33.0,,,,,,,[],,,,,,87.9,0.0,u,0.0,True,1767.2000000476837,106.0,60.0,40.0,False,,330.9215813166898,[],"[960, 540]",ColorTask,12.0,26.0,,,HRV,HRV_0202,2022-11-30 19:10:00
,wl-rdm,34,180149,0.0-6.26-0.26,0.0,34.0,,,,,,,[],,,,,,73.6,0.0,u,0.0,True,1572.1000001430511,95.0,60.0,40.0,False,,216.03332447123267,[],"[960, 540]",ColorTask,13.0,27.0,,,HRV,HRV_0202,2022-11-30 19:10:00
,wl-rdm,35,183349,0.0-6.27-0.27,0.0,35.0,,,,,,,[],,,,,,53.2,1.0,i,1.0,True,1863.2999997138977,112.0,60.0,40.0,False,,257.1471849586965,[],"[960, 540]",ColorTask,14.0,28.0,,,HRV,HRV_0202,2022-11-30 19:10:00
,wl-rdm,36,186866,0.0-6.28-0.28,0.0,36.0,,,,,,,[],,,,,,53.2,0.0,i,1.0,False,2173.7000000476837,130.0,60.0,40.0,False,,273.92650979173345,[],"[960, 540]",ColorTask,13.0,29.0,,,HRV,HRV_0202,2022-11-30 19:10:00
,wl-rdm,37,189933,0.0-6.29-0.29,0.0,37.0,,,,,,,[],,,,,,53.2,1.0,i,1.0,True,1795.9000000953674,108.0,60.0,40.0,False,,215.60058730600227,[],"[960, 540]",ColorTask,14.0,30.0,,,HRV,HRV_0202,2022-11-30 19:10:00
,wl-rdm,38,192950,0.0-6.30-0.30,0.0,38.0,,,,,,,[],,,,,,62.5,0.0,i,1.0,False,1671.7000000476837,100.0,60.0,40.0,False,,251.59835475571555,[],"[960, 540]",ColorTask,13.0,31.0,,,HRV,HRV_0202,2022-11-30 19:10:00
,wl-rdm,39,196000,0.0-6.31-0.31,0.0,39.0,,,,,,,[],,,,,,56.4,1.0,u,0.0,False,1769.0,106.0,60.0,40.0,False,,201.153239905446,[],"[960, 540]",ColorTask,12.0,32.0,,,HRV,HRV_0202,2022-11-30 19:10:00
,wl-rdm,40,198900,0.0-6.32-0.32,0.0,40.0,,,,,,,[],,,,,,87.9,1.0,i,1.0,True,1613.8999998569489,97.0,60.0,40.0,False,,226.7309231105656,[],"[960, 540]",ColorTask,13.0,33.0,,,HRV,HRV_0202,2022-11-30 19:10:00
,wl-rdm,41,202017,0.0-6.33-0.33,0.0,41.0,,,,,,,[],,,,,,53.2,0.0,i,1.0,False,1801.1999998092651,107.0,60.0,40.0,False,,238.04221682915897,[],"[960, 540]",ColorTask,12.0,34.0,,,HRV,HRV_0202,2022-11-30 19:10:00
,wl-rdm,42,204900,0.0-6.34-0.34,0.0,42.0,,,,,,,[],,,,,,56.4,1.0,i,1.0,True,1529.7000000476837,92.0,60.0,40.0,False,,285.1462479343474,[],"[960, 540]",ColorTask,13.0,35.0,,,HRV,HRV_0202,2022-11-30 19:10:00
,wl-rdm,43,208383,0.0-6.35-0.35,0.0,43.0,,,,,,,[],,,,,,50.0,0.0,i,1.0,False,2126.5,128.0,60.0,40.0,False,,288.52031337331607,[],"[960, 540]",ColorTask,12.0,36.0,,,HRV,HRV_0202,2022-11-30 19:10:00
,wl-rdm,44,211651,0.0-6.36-0.36,0.0,44.0,,,,,,,[],,,,,,50.0,1.0,u,0.0,False,1965.0999999046326,117.0,60.0,40.0,False,,221.0324300020045,[],"[960, 540]",ColorTask,11.0,37.0,,,HRV,HRV_0202,2022-11-30 19:10:00
,wl-rdm,45,214784,0.0-6.37-0.37,0.0,45.0,,,,,,,[],,,,,,53.2,1.0,i,1.0,True,1825.9000000953674,110.0,60.0,40.0,False,,237.30012183620408,[],"[960, 540]",ColorTask,12.0,38.0,,,HRV,HRV_0202,2022-11-30 19:10:00
,wl-rdm,46,217834,0.0-6.38-0.38,0.0,46.0,,,,,,,[],,,,,,73.6,1.0,i,1.0,True,1589.7999999523163,96.0,60.0,40.0,False,,395.53520005360076,[],"[960, 540]",ColorTask,13.0,39.0,,,HRV,HRV_0202,2022-11-30 19:10:00
,wl-rdm,47,220718,0.0-6.39-0.39,0.0,47.0,,,,,,,[],,,,,,87.9,1.0,i,1.0,True,1579.5999999046326,95.0,60.0,40.0,False,,230.0335723274181,[],"[960, 540]",ColorTask,14.0,40.0,,,HRV,HRV_0202,2022-11-30 19:10:00
,wl-rdm,48,223684,0.0-6.40-0.40,0.0,48.0,,,,,,,[],,,,,,73.6,1.0,i,1.0,True,1513.9000000953674,91.0,60.0,40.0,False,,382.5101139373289,[],"[960, 540]",ColorTask,15.0,41.0,,,HRV,HRV_0202,2022-11-30 19:10:00
,wl-rdm,49,226668,0.0-6.41-0.41,0.0,49.0,,,,,,,[],,,,,,50.0,0.0,i,1.0,False,1631.1000001430511,98.0,60.0,40.0,False,,268.92165566918675,[],"[960, 540]",ColorTask,14.0,42.0,,,HRV,HRV_0202,2022-11-30 19:10:00
,wl-rdm,50,229968,0.0-6.42-0.42,0.0,50.0,,,,,,,[],,,,,,56.4,0.0,i,1.0,False,2009.2000000476837,121.0,60.0,40.0,False,,229.85928381939914,[],"[960, 540]",ColorTask,13.0,43.0,,,HRV,HRV_0202,2022-11-30 19:10:00
,wl-rdm,51,232985,0.0-6.43-0.43,0.0,51.0,,,,,,,[],,,,,,62.5,0.0,u,0.0,True,1735.6999998092651,104.0,60.0,40.0,False,,210.22194405916798,[],"[960, 540]",ColorTask,14.0,44.0,,,HRV,HRV_0202,2022-11-30 19:10:00
,wl-rdm,52,235985,0.0-6.44-0.44,0.0,52.0,,,,,,,[],,,,,,73.6,0.0,u,0.0,True,1541.5000002384186,92.0,60.0,40.0,False,,398.7083154599236,[],"[960, 540]",ColorTask,15.0,45.0,,,HRV,HRV_0202,2022-11-30 19:10:00
,wl-rdm,53,238919,0.0-6.45-0.45,0.0,53.0,,,,,,,[],,,,,,73.6,0.0,u,0.0,True,1537.5,93.0,60.0,40.0,False,,313.95871886735546,[],"[960, 540]",ColorTask,16.0,46.0,,,HRV,HRV_0202,2022-11-30 19:10:00
,wl-rdm,54,242185,0.0-6.46-0.46,0.0,54.0,,,,,,,[],,,,,,53.2,1.0,i,1.0,True,1899.2000000476837,113.0,60.0,40.0,False,,309.97456047104043,[],"[960, 540]",ColorTask,17.0,47.0,,,HRV,HRV_0202,2022-11-30 19:10:00
,wl-rdm,55,245302,0.0-6.47-0.47,0.0,55.0,,,,,,,[],,,,,,53.2,0.0,u,0.0,True,1705.3999998569489,103.0,60.0,40.0,False,,327.1819535056571,[],"[960, 540]",ColorTask,18.0,48.0,,,HRV,HRV_0202,2022-11-30 19:10:00
,wl-rdm,56,248168,0.0-6.48-0.48,0.0,56.0,,,,,,,[],,,,,,87.9,1.0,i,1.0,True,1485.4000000953674,89.0,60.0,40.0,False,,301.2876691418235,[],"[960, 540]",ColorTask,19.0,49.0,,,HRV,HRV_0202,2022-11-30 19:10:00
,wl-rdm,57,251435,0.0-6.49-0.49,0.0,57.0,,,,,,,[],,,,,,53.2,1.0,u,0.0,False,1965.0,117.0,60.0,40.0,False,,223.24237998980882,[],"[960, 540]",ColorTask,18.0,50.0,,,HRV,HRV_0202,2022-11-30 19:10:00
,wl-rdm,58,254585,0.0-6.50-0.50,0.0,58.0,,,,,,,[],,,,,,50.0,0.0,u,0.0,True,1815.0999999046326,109.0,60.0,40.0,False,,276.8382369482235,[],"[960, 540]",ColorTask,19.0,51.0,,,HRV,HRV_0202,2022-11-30 19:10:00
,wl-rdm,59,257285,0.0-6.51-0.51,0.0,59.0,,,,,,,[],,,,,,62.5,0.0,u,0.0,True,1428.4999997615814,86.0,60.0,40.0,False,,206.55172253510077,[],"[960, 540]",ColorTask,20.0,52.0,,,HRV,HRV_0202,2022-11-30 19:10:00
,wl-rdm,60,260152,0.0-6.52-0.52,0.0,60.0,,,,,,,[],,,,,,50.0,1.0,u,0.0,False,1402.0999999046326,84.0,60.0,40.0,False,,385.9071675372843,[],"[960, 540]",ColorTask,19.0,53.0,,,HRV,HRV_0202,2022-11-30 19:10:00
,wl-rdm,61,263102,0.0-6.53-0.53,0.0,61.0,,,,,,,[],,,,,,87.9,0.0,u,0.0,True,1544.0000002384186,92.0,60.0,40.0,False,,336.933810253116,[],"[960, 540]",ColorTask,20.0,54.0,,,HRV,HRV_0202,2022-11-30 19:10:00
,wl-rdm,62,266036,0.0-6.54-0.54,0.0,62.0,,,,,,,[],,,,,,87.9,1.0,i,1.0,True,1547.1000001430511,93.0,60.0,40.0,False,,320.97411594893697,[],"[960, 540]",ColorTask,21.0,55.0,,,HRV,HRV_0202,2022-11-30 19:10:00
,wl-rdm,63,269403,0.0-6.55-0.55,0.0,63.0,,,,,,,[],,,,,,50.0,1.0,u,0.0,False,1956.3999998569489,118.0,60.0,40.0,False,,350.1613712254688,[],"[960, 540]",ColorTask,20.0,56.0,,,HRV,HRV_0202,2022-11-30 19:10:00
,wl-rdm,64,272403,0.0-6.56-0.56,0.0,64.0,,,,,,,[],,,,,,56.4,0.0,u,0.0,True,1714.8000001907349,103.0,60.0,40.0,False,,222.5961231951339,[],"[960, 540]",ColorTask,21.0,57.0,,,HRV,HRV_0202,2022-11-30 19:10:00
,wl-rdm,65,275603,0.0-6.57-0.57,0.0,65.0,,,,,,,[],,,,,,50.0,1.0,i,1.0,True,1749.2000000476837,105.0,60.0,40.0,False,,368.39208647514624,[],"[960, 540]",ColorTask,22.0,58.0,,,HRV,HRV_0202,2022-11-30 19:10:00
,wl-rdm,66,278603,0.0-6.58-0.58,0.0,66.0,,,,,,,[],,,,,,56.4,1.0,i,1.0,True,1672.9000000953674,101.0,60.0,40.0,False,,256.1921099095377,[],"[960, 540]",ColorTask,23.0,59.0,,,HRV,HRV_0202,2022-11-30 19:10:00
,wl-rdm,67,281487,0.0-6.59-0.59,0.0,67.0,,,,,,,[],,,,,,73.6,1.0,i,1.0,True,1577.7999999523163,94.0,60.0,40.0,False,,230.7445758265675,[],"[960, 540]",ColorTask,24.0,60.0,,,HRV,HRV_0202,2022-11-30 19:10:00
,wl-rdm,68,284487,0.0-6.60-0.60,0.0,68.0,,,,,,,[],,,,,,73.6,1.0,i,1.0,True,1677.9000000953674,100.0,60.0,40.0,False,,241.58311392653425,[],"[960, 540]",ColorTask,25.0,61.0,,,HRV,HRV_0202,2022-11-30 19:10:00
,wl-rdm,69,287553,0.0-6.61-0.61,0.0,69.0,,,,,,,[],,,,,,87.9,1.0,i,1.0,True,1641.6999998092651,98.0,60.0,40.0,False,,339.4724039561735,[],"[960, 540]",ColorTask,26.0,62.0,,,HRV,HRV_0202,2022-11-30 19:10:00
,wl-rdm,70,290554,0.0-6.62-0.62,0.0,70.0,,,,,,,[],,,,,,73.6,0.0,u,0.0,True,1654.0999999046326,100.0,60.0,40.0,False,,259.5509167337114,[],"[960, 540]",ColorTask,27.0,63.0,,,HRV,HRV_0202,2022-11-30 19:10:00
,wl-rdm,71,293370,0.0-6.63-0.63,0.0,71.0,,,,,,,[],,,,,,87.9,0.0,u,0.0,True,1515.1000001430511,91.0,60.0,40.0,False,,247.9762956952176,[],"[960, 540]",ColorTask,28.0,64.0,,,HRV,HRV_0202,2022-11-30 19:10:00
,wl-rdm,72,296437,0.0-6.64-0.64,0.0,72.0,,,,,,,[],,,,,,73.6,0.0,u,0.0,True,1605.0,97.0,60.0,40.0,False,,369.06581210913805,[],"[960, 540]",ColorTask,29.0,65.0,,,HRV,HRV_0202,2022-11-30 19:10:00
,wl-rdm,73,299521,0.0-6.65-0.65,0.0,73.0,,,,,,,[],,,,,,56.4,0.0,u,0.0,True,1618.7000000476837,97.0,60.0,40.0,False,,393.29585813611925,[],"[960, 540]",ColorTask,30.0,66.0,,,HRV,HRV_0202,2022-11-30 19:10:00
,wl-rdm,74,302471,0.0-6.66-0.66,0.0,74.0,,,,,,,[],,,,,,62.5,1.0,i,1.0,True,1654.1000001430511,100.0,60.0,40.0,False,,216.86029395919047,[],"[960, 540]",ColorTask,31.0,67.0,,,HRV,HRV_0202,2022-11-30 19:10:00
,wl-rdm,75,305022,0.0-6.67-0.67,0.0,75.0,,,,,,,[],,,,,,87.9,1.0,i,1.0,True,1204.1999998092651,73.0,60.0,40.0,False,,267.9278933984978,[],"[960, 540]",ColorTask,32.0,68.0,,,HRV,HRV_0202,2022-11-30 19:10:00
,wl-rdm,76,308071,0.0-6.68-0.68,0.0,76.0,,,,,,,[],,,,,,73.6,1.0,i,1.0,True,1626.0,97.0,60.0,40.0,False,,339.8430358211902,[],"[960, 540]",ColorTask,33.0,69.0,,,HRV,HRV_0202,2022-11-30 19:10:00
,wl-rdm,77,311138,0.0-6.69-0.69,0.0,77.0,,,,,,,[],,,,,,56.4,1.0,i,1.0,True,1704.0,103.0,60.0,40.0,False,,280.12966625850873,[],"[960, 540]",ColorTask,34.0,70.0,,,HRV,HRV_0202,2022-11-30 19:10:00
,wl-rdm,78,314172,0.0-6.70-0.70,0.0,78.0,,,,,,,[],,,,,,50.0,1.0,u,0.0,False,1739.8000001907349,105.0,60.0,40.0,False,,206.8251500051289,[],"[960, 540]",ColorTask,33.0,71.0,,,HRV,HRV_0202,2022-11-30 19:10:00
,wl-rdm,79,316988,0.0-6.71-0.71,0.0,79.0,,,,,,,[],,,,,,87.9,1.0,i,1.0,True,1496.0999999046326,90.0,60.0,40.0,False,,251.01863674048286,[],"[960, 540]",ColorTask,34.0,72.0,,,HRV,HRV_0202,2022-11-30 19:10:00
,wl-rdm,80,319839,0.0-6.72-0.72,0.0,80.0,,,,,,,[],,,,,,73.6,0.0,u,0.0,True,1388.7000000476837,84.0,60.0,40.0,False,,383.2217438063349,[],"[960, 540]",ColorTask,35.0,73.0,,,HRV,HRV_0202,2022-11-30 19:10:00
,wl-rdm,81,322906,0.0-6.73-0.73,0.0,81.0,,,,,,,[],,,,,,73.6,1.0,i,1.0,True,1657.8000001907349,99.0,60.0,40.0,False,,335.0405464583249,[],"[960, 540]",ColorTask,36.0,74.0,,,HRV,HRV_0202,2022-11-30 19:10:00
,wl-rdm,82,325822,0.0-6.74-0.74,0.0,82.0,,,,,,,[],,,,,,56.4,0.0,u,0.0,True,1627.6000001430511,98.0,60.0,40.0,False,,229.80375581596357,[],"[960, 540]",ColorTask,37.0,75.0,,,HRV,HRV_0202,2022-11-30 19:10:00
,wl-rdm,83,328605,0.0-6.75-0.75,0.0,83.0,,,,,,,[],,,,,,56.4,0.0,u,0.0,True,1445.0999999046326,87.0,60.0,40.0,False,,263.53465989228135,[],"[960, 540]",ColorTask,38.0,76.0,,,HRV,HRV_0202,2022-11-30 19:10:00
,wl-rdm,84,331456,0.0-6.76-0.76,0.0,84.0,,,,,,,[],,,,,,73.6,0.0,u,0.0,True,1405.2999999523163,84.0,60.0,40.0,False,,354.6131669134733,[],"[960, 540]",ColorTask,39.0,77.0,,,HRV,HRV_0202,2022-11-30 19:10:00
,wl-rdm,85,334189,0.0-6.77-0.77,0.0,85.0,,,,,,,[],,,,,,87.9,0.0,u,0.0,True,1304.0999999046326,79.0,60.0,40.0,False,,365.0487401570629,[],"[960, 540]",ColorTask,40.0,78.0,,,HRV,HRV_0202,2022-11-30 19:10:00
,wl-rdm,86,337658,0.0-6.78-0.78,0.0,86.0,,,,,,,[],,,,,,53.2,1.0,u,0.0,False,2002.2999999523163,120.0,60.0,40.0,False,,398.94361576508265,[],"[960, 540]",ColorTask,39.0,79.0,,,HRV,HRV_0202,2022-11-30 19:10:00
,wl-rdm,87,340625,0.0-6.79-0.79,0.0,87.0,,,,,,,[],,,,,,62.5,0.0,u,0.0,True,1538.2999999523163,93.0,60.0,40.0,False,,354.817935140891,[],"[960, 540]",ColorTask,40.0,80.0,,,HRV,HRV_0202,2022-11-30 19:10:00
,wl-rdm,88,343756,0.0-6.80-0.80,0.0,88.0,,,,,,,[],,,,,,56.4,1.0,i,1.0,True,1829.1000001430511,110.0,60.0,40.0,False,,248.61850347004898,[],"[960, 540]",ColorTask,41.0,81.0,,,HRV,HRV_0202,2022-11-30 19:10:00
,wl-rdm,89,346873,0.0-6.81-0.81,0.0,89.0,,,,,,,[],,,,,,53.2,0.0,u,0.0,True,1684.0000002384186,100.0,60.0,40.0,False,,351.1917883003798,[],"[960, 540]",ColorTask,42.0,82.0,,,HRV,HRV_0202,2022-11-30 19:10:00
,wl-rdm,90,350257,0.0-6.82-0.82,0.0,90.0,,,,,,,[],,,,,,62.5,1.0,u,0.0,False,1935.0,116.0,60.0,40.0,False,,378.8287347706065,[],"[960, 540]",ColorTask,41.0,83.0,,,HRV,HRV_0202,2022-11-30 19:10:00
,wl-rdm,91,352824,0.0-6.83-0.83,0.0,91.0,,,,,,,[],,,,,,62.5,1.0,i,1.0,True,1276.2000002861023,77.0,60.0,40.0,False,,219.3869558666473,[],"[960, 540]",ColorTask,42.0,84.0,,,HRV,HRV_0202,2022-11-30 19:10:00
,wl-rdm,92,355524,0.0-6.84-0.84,0.0,92.0,,,,,,,[],,,,,,62.5,1.0,i,1.0,True,1273.1000001430511,76.0,60.0,40.0,False,,348.7054602066505,[],"[960, 540]",ColorTask,43.0,85.0,,,HRV,HRV_0202,2022-11-30 19:10:00
,wl-rdm,93,358474,0.0-6.85-0.85,0.0,93.0,,,,,,,[],,,,,,50.0,1.0,i,1.0,True,1624.2000000476837,98.0,60.0,40.0,False,,262.0986998960975,[],"[960, 540]",ColorTask,44.0,86.0,,,HRV,HRV_0202,2022-11-30 19:10:00
,wl-rdm,94,361324,0.0-6.86-0.86,0.0,94.0,,,,,,,[],,,,,,73.6,0.0,u,0.0,True,1430.1999998092651,86.0,60.0,40.0,False,,360.1932415564763,[],"[960, 540]",ColorTask,45.0,87.0,,,HRV,HRV_0202,2022-11-30 19:10:00
,wl-rdm,95,364290,0.0-6.87-0.87,0.0,95.0,,,,,,,[],,,,,,62.5,1.0,i,1.0,True,1515.7999999523163,91.0,60.0,40.0,False,,371.3043067612048,[],"[960, 540]",ColorTask,46.0,88.0,,,HRV,HRV_0202,2022-11-30 19:10:00
,wl-rdm,96,367224,0.0-6.88-0.88,0.0,96.0,,,,,,,[],,,,,,50.0,0.0,u,0.0,True,1610.1999998092651,97.0,60.0,40.0,False,,248.88331029712637,[],"[960, 540]",ColorTask,47.0,89.0,,,HRV,HRV_0202,2022-11-30 19:10:00
,wl-rdm,97,370191,0.0-6.89-0.89,0.0,97.0,,,,,,,[],,,,,,87.9,1.0,i,1.0,True,1538.2000002861023,93.0,60.0,40.0,False,,341.60054338962755,[],"[960, 540]",ColorTask,48.0,90.0,,,HRV,HRV_0202,2022-11-30 19:10:00
,wl-rdm,98,373508,0.0-6.90-0.90,0.0,98.0,,,,,,,[],,,,,,56.4,1.0,u,0.0,False,1912.0,114.0,60.0,40.0,False,,319.14315346069736,[],"[960, 540]",ColorTask,47.0,91.0,,,HRV,HRV_0202,2022-11-30 19:10:00
,wl-rdm,99,376558,0.0-6.91-0.91,0.0,99.0,,,,,,,[],,,,,,73.6,1.0,i,1.0,True,1662.8000001907349,100.0,60.0,40.0,False,,304.3476907730692,[],"[960, 540]",ColorTask,48.0,92.0,,,HRV,HRV_0202,2022-11-30 19:10:00
,wl-rdm,100,380108,0.0-6.92-0.92,0.0,100.0,,,,,,,[],,,,,,50.0,0.0,u,0.0,True,2106.4000000953674,127.0,60.0,40.0,False,,362.983318561904,[],"[960, 540]",ColorTask,49.0,93.0,,,HRV,HRV_0202,2022-11-30 19:10:00
,wl-rdm,101,383191,0.0-6.93-0.93,0.0,101.0,,,,,,,[],,,,,,50.0,0.0,u,0.0,True,1794.2999999523163,108.0,60.0,40.0,False,,211.68894255267094,[],"[960, 540]",ColorTask,50.0,94.0,,,HRV,HRV_0202,2022-11-30 19:10:00
,wl-rdm,102,386358,0.0-6.94-0.94,0.0,102.0,,,,,,,[],,,,,,62.5,1.0,i,1.0,True,1804.9000000953674,109.0,60.0,40.0,False,,284.4304710929543,[],"[960, 540]",ColorTask,51.0,95.0,,,HRV,HRV_0202,2022-11-30 19:10:00
,wl-rdm,103,389725,0.0-6.95-0.95,0.0,103.0,,,,,,,[],,,,,,62.5,1.0,i,1.0,True,1987.8999998569489,120.0,60.0,40.0,False,,308.8485286374193,[],"[960, 540]",ColorTask,52.0,96.0,,,HRV,HRV_0202,2022-11-30 19:10:00
,wl-rdm,104,392759,0.0-6.96-0.96,0.0,104.0,,,,,,,[],,,,,,62.5,0.0,u,0.0,True,1694.0999999046326,102.0,60.0,40.0,False,,271.36634945211495,[],"[960, 540]",ColorTask,53.0,97.0,,,HRV,HRV_0202,2022-11-30 19:10:00
,wl-rdm,105,395925,0.0-6.97-0.97,0.0,105.0,,,,,,,[],,,,,,56.4,1.0,i,1.0,True,1846.1000001430511,110.0,60.0,40.0,False,,257.8334918494844,[],"[960, 540]",ColorTask,54.0,98.0,,,HRV,HRV_0202,2022-11-30 19:10:00
,wl-rdm,106,398942,0.0-6.98-0.98,0.0,106.0,,,,,,,[],,,,,,62.5,0.0,u,0.0,True,1604.7000000476837,96.0,60.0,40.0,False,,321.0000252339279,[],"[960, 540]",ColorTask,55.0,99.0,,,HRV,HRV_0202,2022-11-30 19:10:00
,wl-rdm,107,401892,0.0-6.99-0.99,0.0,107.0,,,,,,,[],,,,,,73.6,1.0,i,1.0,True,1663.4000000953674,100.0,60.0,40.0,False,,221.1785361846019,[],"[960, 540]",ColorTask,56.0,100.0,,,HRV,HRV_0202,2022-11-30 19:10:00
,wl-rdm,108,404842,0.0-6.100-0.100,0.0,108.0,,,,,,,[],,,,,,53.2,1.0,u,0.0,False,1682.2999997138977,101.0,60.0,40.0,False,,215.21276838549187,[],"[960, 540]",ColorTask,55.0,101.0,,,HRV,HRV_0202,2022-11-30 19:10:00
,wl-rdm,109,407743,0.0-6.101-0.101,0.0,109.0,,,,,,,[],,,,,,56.4,0.0,u,0.0,True,1627.0999999046326,98.0,60.0,40.0,False,,215.8758844319909,[],"[960, 540]",ColorTask,56.0,102.0,,,HRV,HRV_0202,2022-11-30 19:10:00
,wl-rdm,110,410776,0.0-6.102-0.102,0.0,110.0,,,,,,,[],,,,,,62.5,1.0,i,1.0,True,1635.5,98.0,60.0,40.0,False,,328.1474357585847,[],"[960, 540]",ColorTask,57.0,103.0,,,HRV,HRV_0202,2022-11-30 19:10:00
,wl-rdm,111,413876,0.0-6.103-0.103,0.0,111.0,,,,,,,[],,,,,,50.0,0.0,u,0.0,True,1697.2000000476837,101.0,60.0,40.0,False,,330.6005029664825,[],"[960, 540]",ColorTask,58.0,104.0,,,HRV,HRV_0202,2022-11-30 19:10:00
,wl-rdm,112,416910,0.0-6.104-0.104,0.0,112.0,,,,,,,[],,,,,,53.2,0.0,u,0.0,True,1662.2000002861023,100.0,60.0,40.0,False,,314.88619852866714,[],"[960, 540]",ColorTask,59.0,105.0,,,HRV,HRV_0202,2022-11-30 19:10:00
,wl-rdm,113,419860,0.0-6.105-0.105,0.0,113.0,,,,,,,[],,,,,,62.5,1.0,i,1.0,True,1614.0999999046326,96.0,60.0,40.0,False,,269.7561681328505,[],"[960, 540]",ColorTask,60.0,106.0,,,HRV,HRV_0202,2022-11-30 19:10:00
,wl-rdm,114,423377,0.0-6.106-0.106,0.0,114.0,,,,,,,[],,,,,,50.0,1.0,u,0.0,False,2101.5,126.0,60.0,40.0,False,,340.23663321014783,[],"[960, 540]",ColorTask,59.0,107.0,,,HRV,HRV_0202,2022-11-30 19:10:00
,wl-rdm,115,426128,0.0-6.107-0.107,0.0,115.0,,,,,,,[],,,,,,87.9,0.0,u,0.0,True,1443.5,87.0,60.0,40.0,False,,233.13671982494617,[],"[960, 540]",ColorTask,60.0,108.0,,,HRV,HRV_0202,2022-11-30 19:10:00
,wl-rdm,116,429160,0.0-6.108-0.108,0.0,116.0,,,,,,,[],,,,,,53.2,0.0,u,0.0,True,1593.5,96.0,60.0,40.0,False,,360.89039982067663,[],"[960, 540]",ColorTask,61.0,109.0,,,HRV,HRV_0202,2022-11-30 19:10:00
,wl-html-keyboard-response,117,446592,0.0-7.0-0.0,1.0,117.0,,,,,,,,15423.400000095367,1.0,0,,,,,,,,,,,,,,,,,,,,,,HRV,HRV_0202,2022-11-30 19:10:00
,wl-rdm,118,449611,0.0-8.0-0.0,1.0,118.0,,,,,,,[],,,,,,62.5,0.0,u,0.0,True,1663.5999999046326,100.0,60.0,40.0,False,,295.6615071411623,[],"[960, 540]",ColorTask,62.0,1.0,,,HRV,HRV_0202,2022-11-30 19:10:00
,wl-rdm,119,452728,0.0-8.1-0.1,1.0,119.0,,,,,,,[],,,,,,50.0,1.0,u,0.0,False,1668.2999999523163,100.0,60.0,40.0,False,,370.8757996548158,[],"[960, 540]",ColorTask,61.0,2.0,,,HRV,HRV_0202,2022-11-30 19:10:00
,wl-rdm,120,455744,0.0-8.2-0.2,1.0,120.0,,,,,,,[],,,,,,56.4,0.0,u,0.0,True,1718.0999999046326,103.0,60.0,40.0,False,,220.75303293086654,[],"[960, 540]",ColorTask,62.0,3.0,,,HRV,HRV_0202,2022-11-30 19:10:00
,wl-rdm,121,458728,0.0-8.3-0.3,1.0,121.0,,,,,,,[],,,,,,73.6,0.0,u,0.0,True,1675.5999999046326,101.0,60.0,40.0,False,,242.69726572275164,[],"[960, 540]",ColorTask,63.0,4.0,,,HRV,HRV_0202,2022-11-30 19:10:00
,wl-rdm,122,461794,0.0-8.4-0.4,1.0,122.0,,,,,,,[],,,,,,50.0,0.0,u,0.0,True,1614.3000001907349,97.0,60.0,40.0,False,,397.22722858453426,[],"[960, 540]",ColorTask,64.0,5.0,,,HRV,HRV_0202,2022-11-30 19:10:00
,wl-rdm,123,464628,0.0-8.5-0.5,1.0,123.0,,,,,,,[],,,,,,56.4,0.0,u,0.0,True,1563.5999999046326,94.0,60.0,40.0,False,,211.67724755130536,[],"[960, 540]",ColorTask,65.0,6.0,,,HRV,HRV_0202,2022-11-30 19:10:00
,wl-rdm,124,467078,0.0-8.6-0.6,1.0,124.0,,,,,,,[],,,,,,87.9,1.0,i,1.0,True,1144.8999998569489,69.0,60.0,40.0,False,,248.2246646184558,[],"[960, 540]",ColorTask,66.0,7.0,,,HRV,HRV_0202,2022-11-30 19:10:00
,wl-rdm,125,469562,0.0-8.7-0.7,1.0,125.0,,,,,,,[],,,,,,73.6,1.0,i,1.0,True,1157.4000000953674,69.0,60.0,40.0,False,,263.7475850816105,[],"[960, 540]",ColorTask,67.0,8.0,,,HRV,HRV_0202,2022-11-30 19:10:00
,wl-rdm,126,472195,0.0-8.8-0.8,1.0,126.0,,,,,,,[],,,,,,87.9,1.0,i,1.0,True,1361.3999998569489,82.0,60.0,40.0,False,,210.64589550952363,[],"[960, 540]",ColorTask,68.0,9.0,,,HRV,HRV_0202,2022-11-30 19:10:00
,wl-rdm,127,475045,0.0-8.9-0.9,1.0,127.0,,,,,,,[],,,,,,53.2,1.0,u,0.0,False,1438.1999998092651,87.0,60.0,40.0,False,,338.98138712693475,[],"[960, 540]",ColorTask,67.0,10.0,,,HRV,HRV_0202,2022-11-30 19:10:00
,wl-rdm,128,478195,0.0-8.10-0.10,1.0,128.0,,,,,,,[],,,,,,53.2,0.0,u,0.0,True,1839.7000000476837,111.0,60.0,40.0,False,,216.82167985929792,[],"[960, 540]",ColorTask,68.0,11.0,,,HRV,HRV_0202,2022-11-30 19:10:00
,wl-rdm,129,481145,0.0-8.11-0.11,1.0,129.0,,,,,,,[],,,,,,53.2,0.0,u,0.0,True,1620.2000000476837,98.0,60.0,40.0,False,,234.67562292143626,[],"[960, 540]",ColorTask,69.0,12.0,,,HRV,HRV_0202,2022-11-30 19:10:00
,wl-rdm,130,483929,0.0-8.12-0.12,1.0,130.0,,,,,,,[],,,,,,87.9,0.0,u,0.0,True,1503.5999999046326,90.0,60.0,40.0,False,,208.3030862955338,[],"[960, 540]",ColorTask,70.0,13.0,,,HRV,HRV_0202,2022-11-30 19:10:00
,wl-rdm,131,486329,0.0-8.13-0.13,1.0,131.0,,,,,,,[],,,,,,87.9,0.0,u,0.0,True,1065.9000000953674,64.0,60.0,40.0,False,,274.75430520416865,[],"[960, 540]",ColorTask,71.0,14.0,,,HRV,HRV_0202,2022-11-30 19:10:00
,wl-rdm,132,488929,0.0-8.14-0.14,1.0,132.0,,,,,,,[],,,,,,73.6,0.0,u,0.0,True,1207.3999998569489,73.0,60.0,40.0,False,,332.1920081235966,[],"[960, 540]",ColorTask,72.0,15.0,,,HRV,HRV_0202,2022-11-30 19:10:00
,wl-rdm,133,491362,0.0-8.15-0.15,1.0,133.0,,,,,,,[],,,,,,62.5,1.0,i,1.0,True,1119.4999997615814,66.0,60.0,40.0,False,,248.28439406851044,[],"[960, 540]",ColorTask,73.0,16.0,,,HRV,HRV_0202,2022-11-30 19:10:00
,wl-rdm,134,493946,0.0-8.16-0.16,1.0,134.0,,,,,,,[],,,,,,73.6,1.0,i,1.0,True,1299.4000000953674,78.0,60.0,40.0,False,,209.72445447868617,[],"[960, 540]",ColorTask,74.0,17.0,,,HRV,HRV_0202,2022-11-30 19:10:00
,wl-rdm,135,497080,0.0-8.17-0.17,1.0,135.0,,,,,,,[],,,,,,53.2,1.0,i,1.0,True,1735.4000000953674,104.0,60.0,40.0,False,,330.12132117172007,[],"[960, 540]",ColorTask,75.0,18.0,,,HRV,HRV_0202,2022-11-30 19:10:00
,wl-rdm,136,500213,0.0-8.18-0.18,1.0,136.0,,,,,,,[],,,,,,50.0,0.0,u,0.0,True,1763.0,105.0,60.0,40.0,False,,293.69088891866465,[],"[960, 540]",ColorTask,76.0,19.0,,,HRV,HRV_0202,2022-11-30 19:10:00
,wl-rdm,137,502879,0.0-8.19-0.19,1.0,137.0,,,,,,,[],,,,,,62.5,0.0,u,0.0,True,1335.5,80.0,60.0,40.0,False,,266.2718230262413,[],"[960, 540]",ColorTask,77.0,20.0,,,HRV,HRV_0202,2022-11-30 19:10:00
,wl-rdm,138,505981,0.0-8.20-0.20,1.0,138.0,,,,,,,[],,,,,,53.2,1.0,u,0.0,False,1738.0,105.0,60.0,40.0,False,,284.6228256544385,[],"[960, 540]",ColorTask,76.0,21.0,,,HRV,HRV_0202,2022-11-30 19:10:00
,wl-rdm,139,508830,0.0-8.21-0.21,1.0,139.0,,,,,,,[],,,,,,62.5,0.0,u,0.0,True,1504.1000001430511,91.0,60.0,40.0,False,,273.5622678507965,[],"[960, 540]",ColorTask,77.0,22.0,,,HRV,HRV_0202,2022-11-30 19:10:00
,wl-rdm,140,511497,0.0-8.22-0.22,1.0,140.0,,,,,,,[],,,,,,87.9,1.0,i,1.0,True,1368.6000001430511,82.0,60.0,40.0,False,,226.4831886419337,[],"[960, 540]",ColorTask,78.0,23.0,,,HRV,HRV_0202,2022-11-30 19:10:00
,wl-rdm,141,514113,0.0-8.23-0.23,1.0,141.0,,,,,,,[],,,,,,73.6,1.0,i,1.0,True,1289.9999997615814,78.0,60.0,40.0,False,,261.9251345336472,[],"[960, 540]",ColorTask,79.0,24.0,,,HRV,HRV_0202,2022-11-30 19:10:00
,wl-rdm,142,516964,0.0-8.24-0.24,1.0,142.0,,,,,,,[],,,,,,56.4,0.0,u,0.0,True,1538.2000000476837,93.0,60.0,40.0,False,,244.63702721783108,[],"[960, 540]",ColorTask,80.0,25.0,,,HRV,HRV_0202,2022-11-30 19:10:00
,wl-rdm,143,520198,0.0-8.25-0.25,1.0,143.0,,,,,,,[],,,,,,56.4,1.0,i,1.0,True,1812.7999999523163,109.0,60.0,40.0,False,,345.9435483226829,[],"[960, 540]",ColorTask,81.0,26.0,,,HRV,HRV_0202,2022-11-30 19:10:00
,wl-rdm,144,523264,0.0-8.26-0.26,1.0,144.0,,,,,,,[],,,,,,56.4,1.0,i,1.0,True,1609.7999999523163,97.0,60.0,40.0,False,,383.15504521144567,[],"[960, 540]",ColorTask,82.0,27.0,,,HRV,HRV_0202,2022-11-30 19:10:00
,wl-rdm,145,526414,0.0-8.27-0.27,1.0,145.0,,,,,,,[],,,,,,50.0,0.0,u,0.0,True,1794.0999999046326,108.0,60.0,40.0,False,,292.7153600026346,[],"[960, 540]",ColorTask,83.0,28.0,,,HRV,HRV_0202,2022-11-30 19:10:00
,wl-rdm,146,529164,0.0-8.28-0.28,1.0,146.0,,,,,,,[],,,,,,87.9,0.0,u,0.0,True,1405.4000000953674,85.0,60.0,40.0,False,,255.86990584038304,[],"[960, 540]",ColorTask,84.0,29.0,,,HRV,HRV_0202,2022-11-30 19:10:00
,wl-rdm,147,531781,0.0-8.29-0.29,1.0,147.0,,,,,,,[],,,,,,73.6,0.0,u,0.0,True,1254.5999999046326,75.0,60.0,40.0,False,,292.71073530596317,[],"[960, 540]",ColorTask,85.0,30.0,,,HRV,HRV_0202,2022-11-30 19:10:00
,wl-rdm,148,534564,0.0-8.30-0.30,1.0,148.0,,,,,,,[],,,,,,62.5,0.0,u,0.0,True,1471.6999998092651,89.0,60.0,40.0,False,,217.03774499696118,[],"[960, 540]",ColorTask,86.0,31.0,,,HRV,HRV_0202,2022-11-30 19:10:00
,wl-rdm,149,537248,0.0-8.31-0.31,1.0,149.0,,,,,,,[],,,,,,56.4,1.0,i,1.0,True,1325.7000000476837,79.0,60.0,40.0,False,,295.5230163235312,[],"[960, 540]",ColorTask,87.0,32.0,,,HRV,HRV_0202,2022-11-30 19:10:00
,wl-rdm,150,540198,0.0-8.32-0.32,1.0,150.0,,,,,,,[],,,,,,56.4,0.0,u,0.0,True,1504.3999998569489,90.0,60.0,40.0,False,,358.41895097022217,[],"[960, 540]",ColorTask,88.0,33.0,,,HRV,HRV_0202,2022-11-30 19:10:00
,wl-rdm,151,543148,0.0-8.33-0.33,1.0,151.0,,,,,,,[],,,,,,53.2,0.0,u,0.0,True,1514.0000002384186,90.0,60.0,40.0,False,,359.5211256666021,[],"[960, 540]",ColorTask,89.0,34.0,,,HRV,HRV_0202,2022-11-30 19:10:00
,wl-rdm,152,545965,0.0-8.34-0.34,1.0,152.0,,,,,,,[],,,,,,50.0,0.0,u,0.0,True,1521.2999997138977,92.0,60.0,40.0,False,,201.74271348802972,[],"[960, 540]",ColorTask,90.0,35.0,,,HRV,HRV_0202,2022-11-30 19:10:00
,wl-rdm,153,548682,0.0-8.35-0.35,1.0,153.0,,,,,,,[],,,,,,73.6,1.0,i,1.0,True,1448.7000000476837,86.0,60.0,40.0,False,,201.95586849647322,[],"[960, 540]",ColorTask,91.0,36.0,,,HRV,HRV_0202,2022-11-30 19:10:00
,wl-rdm,154,551331,0.0-8.36-0.36,1.0,154.0,,,,,,,[],,,,,,87.9,1.0,i,1.0,True,1354.7999997138977,81.0,60.0,40.0,False,,223.9779051139221,[],"[960, 540]",ColorTask,92.0,37.0,,,HRV,HRV_0202,2022-11-30 19:10:00
,wl-rdm,155,554016,0.0-8.37-0.37,1.0,155.0,,,,,,,[],,,,,,53.2,0.0,u,0.0,True,1374.3000001907349,83.0,60.0,40.0,False,,233.82577471241697,[],"[960, 540]",ColorTask,93.0,38.0,,,HRV,HRV_0202,2022-11-30 19:10:00
,wl-rdm,156,557100,0.0-8.38-0.38,1.0,156.0,,,,,,,[],,,,,,73.6,1.0,i,1.0,True,1739.0999999046326,105.0,60.0,40.0,False,,254.92798414367616,[],"[960, 540]",ColorTask,94.0,39.0,,,HRV,HRV_0202,2022-11-30 19:10:00
,wl-rdm,157,560132,0.0-8.39-0.39,1.0,157.0,,,,,,,[],,,,,,50.0,1.0,i,1.0,True,1612.3000001907349,97.0,60.0,40.0,False,,343.5242348199027,[],"[960, 540]",ColorTask,95.0,40.0,,,HRV,HRV_0202,2022-11-30 19:10:00
,wl-rdm,158,563082,0.0-8.40-0.40,1.0,158.0,,,,,,,[],,,,,,50.0,1.0,u,0.0,False,1555.7000002861023,93.0,60.0,40.0,False,,311.05107878078616,[],"[960, 540]",ColorTask,94.0,41.0,,,HRV,HRV_0202,2022-11-30 19:10:00
,wl-rdm,159,565849,0.0-8.41-0.41,1.0,159.0,,,,,,,[],,,,,,50.0,0.0,u,0.0,True,1424.2999999523163,86.0,60.0,40.0,False,,279.16093553732856,[],"[960, 540]",ColorTask,95.0,42.0,,,HRV,HRV_0202,2022-11-30 19:10:00
,wl-rdm,160,568766,0.0-8.42-0.42,1.0,160.0,,,,,,,[],,,,,,62.5,0.0,u,0.0,True,1611.7999999523163,96.0,60.0,40.0,False,,227.6159711252063,[],"[960, 540]",ColorTask,96.0,43.0,,,HRV,HRV_0202,2022-11-30 19:10:00
,wl-rdm,161,571516,0.0-8.43-0.43,1.0,161.0,,,,,,,[],,,,,,53.2,0.0,u,0.0,True,1463.4000000953674,87.0,60.0,40.0,False,,228.68498951966905,[],"[960, 540]",ColorTask,97.0,44.0,,,HRV,HRV_0202,2022-11-30 19:10:00
,wl-rdm,162,574316,0.0-8.44-0.44,1.0,162.0,,,,,,,[],,,,,,62.5,1.0,i,1.0,True,1497.0999999046326,90.0,60.0,40.0,False,,231.74451475421222,[],"[960, 540]",ColorTask,98.0,45.0,,,HRV,HRV_0202,2022-11-30 19:10:00
,wl-rdm,163,577200,0.0-8.45-0.45,1.0,163.0,,,,,,,[],,,,,,87.9,0.0,u,0.0,True,1422.6000001430511,85.0,60.0,40.0,False,,376.67469291459076,[],"[960, 540]",ColorTask,99.0,46.0,,,HRV,HRV_0202,2022-11-30 19:10:00
,wl-rdm,164,579883,0.0-8.46-0.46,1.0,164.0,,,,,,,[],,,,,,62.5,1.0,u,0.0,False,1380.8999998569489,83.0,60.0,40.0,False,,236.10302947028305,[],"[960, 540]",ColorTask,98.0,47.0,,,HRV,HRV_0202,2022-11-30 19:10:00
,wl-rdm,165,582716,0.0-8.47-0.47,1.0,165.0,,,,,,,[],,,,,,62.5,0.0,u,0.0,True,1355.4000000953674,81.0,60.0,40.0,False,,394.99026602129055,[],"[960, 540]",ColorTask,99.0,48.0,,,HRV,HRV_0202,2022-11-30 19:10:00
,wl-rdm,166,585383,0.0-8.48-0.48,1.0,166.0,,,,,,,[],,,,,,73.6,1.0,i,1.0,True,1301.2999999523163,78.0,60.0,40.0,False,,300.5196133742051,[],"[960, 540]",ColorTask,100.0,49.0,,,HRV,HRV_0202,2022-11-30 19:10:00
,wl-rdm,167,588250,0.0-8.49-0.49,1.0,167.0,,,,,,,[],,,,,,73.6,0.0,u,0.0,True,1397.4999997615814,84.0,60.0,40.0,False,,392.4497707493067,[],"[960, 540]",ColorTask,101.0,50.0,,,HRV,HRV_0202,2022-11-30 19:10:00
,wl-rdm,168,591050,0.0-8.50-0.50,1.0,168.0,,,,,,,[],,,,,,53.2,1.0,u,0.0,False,1515.7999999523163,91.0,60.0,40.0,False,,214.4542690201973,[],"[960, 540]",ColorTask,100.0,51.0,,,HRV,HRV_0202,2022-11-30 19:10:00
,wl-rdm,169,593833,0.0-8.51-0.51,1.0,169.0,,,,,,,[],,,,,,62.5,0.0,u,0.0,True,1365.0,82.0,60.0,40.0,False,,356.9895872055379,[],"[960, 540]",ColorTask,101.0,52.0,,,HRV,HRV_0202,2022-11-30 19:10:00
,wl-rdm,170,596767,0.0-8.52-0.52,1.0,170.0,,,,,,,[],,,,,,53.2,0.0,u,0.0,True,1577.0,95.0,60.0,40.0,False,,280.5567286933169,[],"[960, 540]",ColorTask,102.0,53.0,,,HRV,HRV_0202,2022-11-30 19:10:00
,wl-rdm,171,600134,0.0-8.53-0.53,1.0,171.0,,,,,,,[],,,,,,50.0,1.0,u,0.0,False,1911.7999999523163,115.0,60.0,40.0,False,,380.319012507116,[],"[960, 540]",ColorTask,101.0,54.0,,,HRV,HRV_0202,2022-11-30 19:10:00
,wl-rdm,172,602718,0.0-8.54-0.54,1.0,172.0,,,,,,,[],,,,,,62.5,1.0,i,1.0,True,1178.5,71.0,60.0,40.0,False,,343.2759682349894,[],"[960, 540]",ColorTask,102.0,55.0,,,HRV,HRV_0202,2022-11-30 19:10:00
,wl-rdm,173,605434,0.0-8.55-0.55,1.0,173.0,,,,,,,[],,,,,,62.5,1.0,i,1.0,True,1298.2999999523163,78.0,60.0,40.0,False,,356.69650533113975,[],"[960, 540]",ColorTask,103.0,56.0,,,HRV,HRV_0202,2022-11-30 19:10:00
,wl-rdm,174,608302,0.0-8.56-0.56,1.0,174.0,,,,,,,[],,,,,,53.2,0.0,u,0.0,True,1536.8000001907349,93.0,60.0,40.0,False,,251.8269694952005,[],"[960, 540]",ColorTask,104.0,57.0,,,HRV,HRV_0202,2022-11-30 19:10:00
,wl-rdm,175,610918,0.0-8.57-0.57,1.0,175.0,,,,,,,[],,,,,,73.6,1.0,i,1.0,True,1261.0000002384186,76.0,60.0,40.0,False,,285.4008600611708,[],"[960, 540]",ColorTask,105.0,58.0,,,HRV,HRV_0202,2022-11-30 19:10:00
,wl-rdm,176,613568,0.0-8.58-0.58,1.0,176.0,,,,,,,[],,,,,,73.6,0.0,u,0.0,True,1369.6000001430511,82.0,60.0,40.0,False,,211.12274084040362,[],"[960, 540]",ColorTask,106.0,59.0,,,HRV,HRV_0202,2022-11-30 19:10:00
,wl-rdm,177,616101,0.0-8.59-0.59,1.0,177.0,,,,,,,[],,,,,,53.2,0.0,u,0.0,True,1222.3000001907349,74.0,60.0,40.0,False,,220.65246522194056,[],"[960, 540]",ColorTask,107.0,60.0,,,HRV,HRV_0202,2022-11-30 19:10:00
,wl-rdm,178,618718,0.0-8.60-0.60,1.0,178.0,,,,,,,[],,,,,,50.0,0.0,u,0.0,True,1319.599999666214,79.0,60.0,40.0,False,,216.8284000102668,[],"[960, 540]",ColorTask,108.0,61.0,,,HRV,HRV_0202,2022-11-30 19:10:00
,wl-rdm,179,621218,0.0-8.61-0.61,1.0,179.0,,,,,,,[],,,,,,87.9,0.0,u,0.0,True,1214.5999999046326,73.0,60.0,40.0,False,,227.54135041333137,[],"[960, 540]",ColorTask,109.0,62.0,,,HRV,HRV_0202,2022-11-30 19:10:00
,wl-rdm,180,623735,0.0-8.62-0.62,1.0,180.0,,,,,,,[],,,,,,73.6,1.0,i,1.0,True,1205.2999999523163,72.0,60.0,40.0,False,,221.97833595728991,[],"[960, 540]",ColorTask,110.0,63.0,,,HRV,HRV_0202,2022-11-30 19:10:00
,wl-rdm,181,626335,0.0-8.63-0.63,1.0,181.0,,,,,,,[],,,,,,87.9,0.0,u,0.0,True,1277.1000001430511,77.0,60.0,40.0,False,,235.63635859510998,[],"[960, 540]",ColorTask,111.0,64.0,,,HRV,HRV_0202,2022-11-30 19:10:00
,wl-rdm,182,629335,0.0-8.64-0.64,1.0,182.0,,,,,,,[],,,,,,56.4,1.0,i,1.0,True,1621.2999999523163,98.0,60.0,40.0,False,,293.24059437987097,[],"[960, 540]",ColorTask,112.0,65.0,,,HRV,HRV_0202,2022-11-30 19:10:00
,wl-rdm,183,632055,0.0-8.65-0.65,1.0,183.0,,,,,,,[],,,,,,56.4,0.0,u,0.0,True,1438.5999999046326,87.0,60.0,40.0,False,,210.92001873357913,[],"[960, 540]",ColorTask,113.0,66.0,,,HRV,HRV_0202,2022-11-30 19:10:00
,wl-rdm,184,634919,0.0-8.66-0.66,1.0,184.0,,,,,,,[],,,,,,53.2,1.0,i,1.0,True,1543.6999998092651,92.0,60.0,40.0,False,,266.4351589377435,[],"[960, 540]",ColorTask,114.0,67.0,,,HRV,HRV_0202,2022-11-30 19:10:00
,wl-rdm,185,637619,0.0-8.67-0.67,1.0,185.0,,,,,,,[],,,,,,73.6,0.0,u,0.0,True,1414.7000000476837,85.0,60.0,40.0,False,,202.4314596125436,[],"[960, 540]",ColorTask,115.0,68.0,,,HRV,HRV_0202,2022-11-30 19:10:00
,wl-rdm,186,640286,0.0-8.68-0.68,1.0,186.0,,,,,,,[],,,,,,87.9,1.0,i,1.0,True,1287.6999998092651,78.0,60.0,40.0,False,,315.4985119714622,[],"[960, 540]",ColorTask,116.0,69.0,,,HRV,HRV_0202,2022-11-30 19:10:00
,wl-rdm,187,643036,0.0-8.69-0.69,1.0,187.0,,,,,,,[],,,,,,62.5,1.0,i,1.0,True,1472.2000000476837,89.0,60.0,40.0,False,,211.99050801109036,[],"[960, 540]",ColorTask,117.0,70.0,,,HRV,HRV_0202,2022-11-30 19:10:00
,wl-rdm,188,645703,0.0-8.70-0.70,1.0,188.0,,,,,,,[],,,,,,53.2,1.0,i,1.0,True,1355.3999998569489,82.0,60.0,40.0,False,,234.86344608764375,[],"[960, 540]",ColorTask,118.0,71.0,,,HRV,HRV_0202,2022-11-30 19:10:00
,wl-rdm,189,648786,0.0-8.71-0.71,1.0,189.0,,,,,,,[],,,,,,56.4,1.0,i,1.0,True,1748.5,105.0,60.0,40.0,False,,279.4835929750275,[],"[960, 540]",ColorTask,119.0,72.0,,,HRV,HRV_0202,2022-11-30 19:10:00
,wl-rdm,190,651720,0.0-8.72-0.72,1.0,190.0,,,,,,,[],,,,,,56.4,1.0,u,0.0,False,1635.3999998569489,98.0,60.0,40.0,False,,217.21508658154335,[],"[960, 540]",ColorTask,118.0,73.0,,,HRV,HRV_0202,2022-11-30 19:10:00
,wl-rdm,191,654837,0.0-8.73-0.73,1.0,191.0,,,,,,,[],,,,,,50.0,1.0,i,1.0,True,1738.6000001430511,105.0,60.0,40.0,False,,287.48358373928994,[],"[960, 540]",ColorTask,119.0,74.0,,,HRV,HRV_0202,2022-11-30 19:10:00
,wl-rdm,192,657603,0.0-8.74-0.74,1.0,192.0,,,,,,,[],,,,,,87.9,0.0,u,0.0,True,1396.4000000953674,84.0,60.0,40.0,False,,302.6025915469832,[],"[960, 540]",ColorTask,120.0,75.0,,,HRV,HRV_0202,2022-11-30 19:10:00
,wl-rdm,193,660287,0.0-8.75-0.75,1.0,193.0,,,,,,,[],,,,,,87.9,1.0,i,1.0,True,1376.3999998569489,83.0,60.0,40.0,False,,245.84638386720405,[],"[960, 540]",ColorTask,121.0,76.0,,,HRV,HRV_0202,2022-11-30 19:10:00
,wl-rdm,194,663588,0.0-8.76-0.76,1.0,194.0,,,,,,,[],,,,,,53.2,0.0,i,1.0,False,1955.7999999523163,118.0,60.0,40.0,False,,271.8374400498507,[],"[960, 540]",ColorTask,120.0,77.0,,,HRV,HRV_0202,2022-11-30 19:10:00
,wl-rdm,195,666705,0.0-8.77-0.77,1.0,195.0,,,,,,,[],,,,,,62.5,0.0,u,0.0,True,1725.3999998569489,104.0,60.0,40.0,False,,299.88784807211323,[],"[960, 540]",ColorTask,121.0,78.0,,,HRV,HRV_0202,2022-11-30 19:10:00
,wl-rdm,196,669638,0.0-8.78-0.78,1.0,196.0,,,,,,,[],,,,,,50.0,1.0,u,0.0,False,1643.8999998569489,99.0,60.0,40.0,False,,220.62617542520923,[],"[960, 540]",ColorTask,120.0,79.0,,,HRV,HRV_0202,2022-11-30 19:10:00
,wl-rdm,197,672538,0.0-8.79-0.79,1.0,197.0,,,,,,,[],,,,,,73.6,0.0,u,0.0,True,1617.0,97.0,60.0,40.0,False,,210.3074482109061,[],"[960, 540]",ColorTask,121.0,80.0,,,HRV,HRV_0202,2022-11-30 19:10:00
,wl-rdm,198,675637,0.0-8.80-0.80,1.0,198.0,,,,,,,[],,,,,,53.2,1.0,u,0.0,False,1688.7000000476837,102.0,60.0,40.0,False,,323.0142039745018,[],"[960, 540]",ColorTask,120.0,81.0,,,HRV,HRV_0202,2022-11-30 19:10:00
,wl-rdm,199,678371,0.0-8.81-0.81,1.0,199.0,,,,,,,[],,,,,,87.9,0.0,u,0.0,True,1390.2000002861023,84.0,60.0,40.0,False,,259.7031651676962,[],"[960, 540]",ColorTask,121.0,82.0,,,HRV,HRV_0202,2022-11-30 19:10:00
,wl-rdm,200,681088,0.0-8.82-0.82,1.0,200.0,,,,,,,[],,,,,,87.9,1.0,i,1.0,True,1376.5999999046326,82.0,60.0,40.0,False,,279.8047244211323,[],"[960, 540]",ColorTask,122.0,83.0,,,HRV,HRV_0202,2022-11-30 19:10:00
,wl-rdm,201,684338,0.0-8.83-0.83,1.0,201.0,,,,,,,[],,,,,,62.5,0.0,u,0.0,True,1798.5999999046326,108.0,60.0,40.0,False,,389.1067339111509,[],"[960, 540]",ColorTask,123.0,84.0,,,HRV,HRV_0202,2022-11-30 19:10:00
,wl-rdm,202,687204,0.0-8.84-0.84,1.0,202.0,,,,,,,[],,,,,,73.6,1.0,i,1.0,True,1471.7999999523163,89.0,60.0,40.0,False,,300.1149402699656,[],"[960, 540]",ColorTask,124.0,85.0,,,HRV,HRV_0202,2022-11-30 19:10:00
,wl-rdm,203,690038,0.0-8.85-0.85,1.0,203.0,,,,,,,[],,,,,,87.9,1.0,i,1.0,True,1388.2000000476837,84.0,60.0,40.0,False,,364.6696976055322,[],"[960, 540]",ColorTask,125.0,86.0,,,HRV,HRV_0202,2022-11-30 19:10:00
,wl-rdm,204,693055,0.0-8.86-0.86,1.0,204.0,,,,,,,[],,,,,,56.4,0.0,u,0.0,True,1644.4000000953674,99.0,60.0,40.0,False,,294.31551619758795,[],"[960, 540]",ColorTask,126.0,87.0,,,HRV,HRV_0202,2022-11-30 19:10:00
,wl-rdm,205,696338,0.0-8.87-0.87,1.0,205.0,,,,,,,[],,,,,,50.0,0.0,u,0.0,True,1880.8999998569489,113.0,60.0,40.0,False,,336.14029162644226,[],"[960, 540]",ColorTask,127.0,88.0,,,HRV,HRV_0202,2022-11-30 19:10:00
,wl-rdm,206,699305,0.0-8.88-0.88,1.0,206.0,,,,,,,[],,,,,,62.5,1.0,i,1.0,True,1517.6999998092651,90.0,60.0,40.0,False,,379.4058664916803,[],"[960, 540]",ColorTask,128.0,89.0,,,HRV,HRV_0202,2022-11-30 19:10:00
,wl-rdm,207,702523,0.0-8.89-0.89,1.0,207.0,,,,,,,[],,,,,,56.4,0.0,u,0.0,True,1831.2000000476837,110.0,60.0,40.0,False,,319.6147678020497,[],"[960, 540]",ColorTask,129.0,90.0,,,HRV,HRV_0202,2022-11-30 19:10:00
,wl-rdm,208,705155,0.0-8.90-0.90,1.0,208.0,,,,,,,[],,,,,,62.5,1.0,i,1.0,True,1337.8999998569489,81.0,60.0,40.0,False,,212.43665855011534,[],"[960, 540]",ColorTask,130.0,91.0,,,HRV,HRV_0202,2022-11-30 19:10:00
,wl-rdm,209,708039,0.0-8.91-0.91,1.0,209.0,,,,,,,[],,,,,,50.0,0.0,i,1.0,False,1544.7999999523163,93.0,60.0,40.0,False,,265.4533359457708,[],"[960, 540]",ColorTask,129.0,92.0,,,HRV,HRV_0202,2022-11-30 19:10:00
,wl-rdm,210,711089,0.0-8.92-0.92,1.0,210.0,,,,,,,[],,,,,,53.2,1.0,i,1.0,True,1724.0,104.0,60.0,40.0,False,,250.8159850562435,[],"[960, 540]",ColorTask,130.0,93.0,,,HRV,HRV_0202,2022-11-30 19:10:00
,wl-rdm,211,714225,0.0-8.93-0.93,1.0,211.0,,,,,,,[],,,,,,50.0,1.0,u,0.0,False,1854.7000000476837,112.0,60.0,40.0,False,,210.51496270823353,[],"[960, 540]",ColorTask,129.0,94.0,,,HRV,HRV_0202,2022-11-30 19:10:00
,wl-rdm,212,717123,0.0-8.94-0.94,1.0,212.0,,,,,,,[],,,,,,56.4,0.0,u,0.0,True,1520.0000002384186,92.0,60.0,40.0,False,,306.7673718659053,[],"[960, 540]",ColorTask,130.0,95.0,,,HRV,HRV_0202,2022-11-30 19:10:00
,wl-rdm,213,720523,0.0-8.95-0.95,1.0,213.0,,,,,,,[],,,,,,56.4,1.0,i,1.0,True,1980.3000001907349,118.0,60.0,40.0,False,,365.4577281470375,[],"[960, 540]",ColorTask,131.0,96.0,,,HRV,HRV_0202,2022-11-30 19:10:00
,wl-rdm,214,723589,0.0-8.96-0.96,1.0,214.0,,,,,,,[],,,,,,50.0,1.0,i,1.0,True,1721.8999998569489,104.0,60.0,40.0,False,,257.95247230858,[],"[960, 540]",ColorTask,132.0,97.0,,,HRV,HRV_0202,2022-11-30 19:10:00
,wl-rdm,215,726656,0.0-8.97-0.97,1.0,215.0,,,,,,,[],,,,,,56.4,1.0,i,1.0,True,1783.5999999046326,107.0,60.0,40.0,False,,200.1418743386052,[],"[960, 540]",ColorTask,133.0,98.0,,,HRV,HRV_0202,2022-11-30 19:10:00
,wl-rdm,216,729590,0.0-8.98-0.98,1.0,216.0,,,,,,,[],,,,,,87.9,1.0,i,1.0,True,1505.4999997615814,91.0,60.0,40.0,False,,348.6887027339943,[],"[960, 540]",ColorTask,134.0,99.0,,,HRV,HRV_0202,2022-11-30 19:10:00
,wl-rdm,217,732590,0.0-8.99-0.99,1.0,217.0,,,,,,,[],,,,,,56.4,1.0,i,1.0,True,1652.2999999523163,100.0,60.0,40.0,False,,256.7843510716392,[],"[960, 540]",ColorTask,135.0,100.0,,,HRV,HRV_0202,2022-11-30 19:10:00
,wl-rdm,218,735257,0.0-8.100-0.100,1.0,218.0,,,,,,,[],,,,,,87.9,0.0,u,0.0,True,1301.3000001907349,78.0,60.0,40.0,False,,287.32353280664853,[],"[960, 540]",ColorTask,136.0,101.0,,,HRV,HRV_0202,2022-11-30 19:10:00
,wl-rdm,219,738290,0.0-8.101-0.101,1.0,219.0,,,,,,,[],,,,,,73.6,0.0,u,0.0,True,1706.7000000476837,102.0,60.0,40.0,False,,255.0866522149486,[],"[960, 540]",ColorTask,137.0,102.0,,,HRV,HRV_0202,2022-11-30 19:10:00
,wl-rdm,220,741240,0.0-8.102-0.102,1.0,220.0,,,,,,,[],,,,,,56.4,0.0,i,1.0,False,1509.0,91.0,60.0,40.0,False,,352.2611691369802,[],"[960, 540]",ColorTask,136.0,103.0,,,HRV,HRV_0202,2022-11-30 19:10:00
,wl-rdm,221,743974,0.0-8.103-0.103,1.0,221.0,,,,,,,[],,,,,,73.6,0.0,u,0.0,True,1327.5999999046326,80.0,60.0,40.0,False,,337.54656884103315,[],"[960, 540]",ColorTask,137.0,104.0,,,HRV,HRV_0202,2022-11-30 19:10:00
,wl-rdm,222,746774,0.0-8.104-0.104,1.0,222.0,,,,,,,[],,,,,,53.2,1.0,u,0.0,False,1502.7000000476837,91.0,60.0,40.0,False,,223.60932837934797,[],"[960, 540]",ColorTask,136.0,105.0,,,HRV,HRV_0202,2022-11-30 19:10:00
,wl-rdm,223,749808,0.0-8.105-0.105,1.0,223.0,,,,,,,[],,,,,,50.0,1.0,i,1.0,True,1742.1000001430511,105.0,60.0,40.0,False,,222.92962132339815,[],"[960, 540]",ColorTask,137.0,106.0,,,HRV,HRV_0202,2022-11-30 19:10:00
,wl-rdm,224,752558,0.0-8.106-0.106,1.0,224.0,,,,,,,[],,,,,,62.5,1.0,i,1.0,True,1477.9000000953674,89.0,60.0,40.0,False,,201.43380767868928,[],"[960, 540]",ColorTask,138.0,107.0,,,HRV,HRV_0202,2022-11-30 19:10:00
,wl-rdm,225,755608,0.0-8.107-0.107,1.0,225.0,,,,,,,[],,,,,,50.0,0.0,u,0.0,True,1666.2000000476837,102.0,60.0,40.0,False,,288.6102132088051,[],"[960, 540]",ColorTask,139.0,108.0,,,HRV,HRV_0202,2022-11-30 19:10:00
,wl-html-button-response,226,761837,0.0-9.0-0.0,,,,,,,,,,6221.5,,0,,,,,,,,,,,,,,,,,,,,<h3>End of this session. Thank you!</h3><br>,['Close window'],HRV,HRV_0202,2022-11-30 19:10:00
