trialN,stimuli,trialStartTime,trialStartTime_UNIX,stimulus1,stimulus2,stimulus1Bid,stimulus2Bid,delta,selected,rt,rt_UNIX,rt_perfnow,receivedResponse,rsp,trialEndTime,trialDuration,trialEndTime_UNIX,trialDuration_UNIX,exp,subjectId,date
0,"[{'imgObject': {}, 'id': 'rigatoni and sauce', 'src': '/static/foodstim60/rigatoni and sauce.jpg', 'key': 'u', 'origWidth': 410, 'origHeight': 411, 'width': 410, 'height': 411, 'widthPercent': 0.45, 'rescaleHeight': False, 'trialN': 0, 'loaded': True, 'loadedTime': 2750, 'positionName': 'LEFT', 'positionCoords': [511.6, 334.5], 'bid': 0.77}, {'imgObject': {}, 'id': 'olives', 'src': '/static/foodstim60/olives.jpg', 'key': 'i', 'origWidth': 410, 'origHeight': 410, 'width': 410, 'height': 410, 'widthPercent': 0.45, 'rescaleHeight': False, 'trialN': 0, 'loaded': True, 'loadedTime': 2947.0999999046326, 'positionName': 'RIGHT', 'positionCoords': [998.4, 335], 'bid': 5.01}]",7241.200000047684,1669833279683,rigatoni and sauce,olives,0.77,5.01,4.24,rigatoni and sauce,1861.7000000476837,1878,1878.5999999046326,True,u,9630.900000095367,2389.7000000476837,1669833282072,2389,HRV,HRV_0202,2022-11-30 18:41:14
1,"[{'imgObject': {}, 'id': 'rigatoni and sauce', 'src': '/static/foodstim60/rigatoni and sauce.jpg', 'key': 'u', 'origWidth': 410, 'origHeight': 411, 'width': 410, 'height': 411, 'widthPercent': 0.45, 'rescaleHeight': False, 'trialN': 1, 'loaded': True, 'loadedTime': 2835.2999999523163, 'positionName': 'LEFT', 'positionCoords': [511.6, 334.5], 'bid': 0.77}, {'imgObject': {}, 'id': 'seaweed', 'src': '/static/foodstim60/seaweed.jpg', 'key': 'i', 'origWidth': 410, 'origHeight': 410, 'width': 410, 'height': 410, 'widthPercent': 0.45, 'rescaleHeight': False, 'trialN': 1, 'loaded': True, 'loadedTime': 3033.9000000953674, 'positionName': 'RIGHT', 'positionCoords': [998.4, 335], 'bid': 0.15}]",9632.799999952316,1669833282074,rigatoni and sauce,seaweed,0.77,0.15,-0.62,rigatoni and sauce,1661.0,1663,1662.2999999523163,True,u,11805.700000047684,2172.9000000953674,1669833284247,2173,HRV,HRV_0202,2022-11-30 18:41:14
2,"[{'imgObject': {}, 'id': 'Grapes', 'src': '/static/foodstim60/Grapes.jpg', 'key': 'u', 'origWidth': 411, 'origHeight': 411, 'width': 411, 'height': 411, 'widthPercent': 0.45, 'rescaleHeight': False, 'trialN': 2, 'loaded': True, 'loadedTime': 3088.2000000476837, 'positionName': 'LEFT', 'positionCoords': [510.6, 334.5], 'bid': 9.82}, {'imgObject': {}, 'id': 'mango', 'src': '/static/foodstim60/mango.jpg', 'key': 'i', 'origWidth': 411, 'origHeight': 411, 'width': 411, 'height': 411, 'widthPercent': 0.45, 'rescaleHeight': False, 'trialN': 2, 'loaded': True, 'loadedTime': 3173.9000000953674, 'positionName': 'RIGHT', 'positionCoords': [998.4, 334.5], 'bid': 9.14}]",11806.599999904633,1669833284248,Grapes,mango,9.82,9.14,-0.6799999999999997,Grapes,2199.0,2200,2200.0,True,u,14522.700000047684,2716.100000143051,1669833286964,2716,HRV,HRV_0202,2022-11-30 18:41:14
3,"[{'imgObject': {}, 'id': 'ice cream sundae 002', 'src': '/static/foodstim60/ice cream sundae 002.jpg', 'key': 'u', 'origWidth': 409, 'origHeight': 409, 'width': 409, 'height': 409, 'widthPercent': 0.45, 'rescaleHeight': False, 'trialN': 3, 'loaded': True, 'loadedTime': 3231.2000000476837, 'positionName': 'LEFT', 'positionCoords': [512.6, 335.5], 'bid': 0.16}, {'imgObject': {}, 'id': 'shreddedwheatwithmilk', 'src': '/static/foodstim60/shreddedwheatwithmilk.jpg', 'key': 'i', 'origWidth': 410, 'origHeight': 410, 'width': 410, 'height': 410, 'widthPercent': 0.45, 'rescaleHeight': False, 'trialN': 3, 'loaded': True, 'loadedTime': 3262.4000000953674, 'positionName': 'RIGHT', 'positionCoords': [998.4, 335], 'bid': 0.15}]",14523.5,1669833286965,ice cream sundae 002,shreddedwheatwithmilk,0.16,0.15,-0.010000000000000009,shreddedwheatwithmilk,1770.2000000476837,1771,1771.4000000953674,True,i,16806.299999952316,2282.7999999523163,1669833289248,2283,HRV,HRV_0202,2022-11-30 18:41:14
4,"[{'imgObject': {}, 'id': 'banana', 'src': '/static/foodstim60/banana.jpg', 'key': 'u', 'origWidth': 410, 'origHeight': 410, 'width': 410, 'height': 410, 'widthPercent': 0.45, 'rescaleHeight': False, 'trialN': 4, 'loaded': True, 'loadedTime': 3304.0999999046326, 'positionName': 'LEFT', 'positionCoords': [511.6, 335], 'bid': 9.25}, {'imgObject': {}, 'id': 'steak', 'src': '/static/foodstim60/steak.jpg', 'key': 'i', 'origWidth': 410, 'origHeight': 410, 'width': 410, 'height': 410, 'widthPercent': 0.45, 'rescaleHeight': False, 'trialN': 4, 'loaded': True, 'loadedTime': 3443.4000000953674, 'positionName': 'RIGHT', 'positionCoords': [998.4, 335], 'bid': 9.82}]",16808.200000047684,1669833289250,banana,steak,9.25,9.82,0.5700000000000003,steak,2132.399999856949,2133,2133.399999856949,True,i,19457.5,2649.2999999523163,1669833291899,2649,HRV,HRV_0202,2022-11-30 18:41:14
5,"[{'imgObject': {}, 'id': 'baked potato', 'src': '/static/foodstim60/baked potato.jpg', 'key': 'u', 'origWidth': 409, 'origHeight': 410, 'width': 409, 'height': 410, 'widthPercent': 0.45, 'rescaleHeight': False, 'trialN': 5, 'loaded': True, 'loadedTime': 3457.7999999523163, 'positionName': 'LEFT', 'positionCoords': [512.6, 335], 'bid': 3.33}, {'imgObject': {}, 'id': 'fruitsalad', 'src': '/static/foodstim60/fruitsalad.jpg', 'key': 'i', 'origWidth': 410, 'origHeight': 410, 'width': 410, 'height': 410, 'widthPercent': 0.45, 'rescaleHeight': False, 'trialN': 5, 'loaded': True, 'loadedTime': 3621.5999999046326, 'positionName': 'RIGHT', 'positionCoords': [998.4, 335], 'bid': 9.83}]",19458.400000095367,1669833291900,baked potato,fruitsalad,3.33,9.83,6.5,fruitsalad,1706.0999999046326,1707,1706.7999999523163,True,i,21670.5,2212.0999999046326,1669833294112,2212,HRV,HRV_0202,2022-11-30 18:41:14
6,"[{'imgObject': {}, 'id': 'edamame', 'src': '/static/foodstim60/edamame.jpg', 'key': 'u', 'origWidth': 409, 'origHeight': 410, 'width': 409, 'height': 410, 'widthPercent': 0.45, 'rescaleHeight': False, 'trialN': 6, 'loaded': True, 'loadedTime': 4653.5, 'positionName': 'LEFT', 'positionCoords': [512.6, 335], 'bid': 0.13}, {'imgObject': {}, 'id': 'raisin bran w milk', 'src': '/static/foodstim60/raisin bran w milk.jpg', 'key': 'i', 'origWidth': 411, 'origHeight': 411, 'width': 411, 'height': 411, 'widthPercent': 0.45, 'rescaleHeight': False, 'trialN': 6, 'loaded': True, 'loadedTime': 4987.799999952316, 'positionName': 'RIGHT', 'positionCoords': [998.4, 334.5], 'bid': 0.16}]",21671.299999952316,1669833294113,edamame,raisin bran w milk,0.13,0.16,0.03,raisin bran w milk,1677.6000001430511,1678,1678.1000001430511,True,i,23855.099999904633,2183.7999999523163,1669833296297,2184,HRV,HRV_0202,2022-11-30 18:41:14
7,"[{'imgObject': {}, 'id': 'burger', 'src': '/static/foodstim60/burger.jpg', 'key': 'u', 'origWidth': 409, 'origHeight': 409, 'width': 409, 'height': 409, 'widthPercent': 0.45, 'rescaleHeight': False, 'trialN': 7, 'loaded': True, 'loadedTime': 5052, 'positionName': 'LEFT', 'positionCoords': [512.6, 335.5], 'bid': 0.43}, {'imgObject': {}, 'id': 'chicken nuggets2', 'src': '/static/foodstim60/chicken nuggets2.jpg', 'key': 'i', 'origWidth': 410, 'origHeight': 409, 'width': 410, 'height': 409, 'widthPercent': 0.45, 'rescaleHeight': False, 'trialN': 7, 'loaded': True, 'loadedTime': 5085.799999952316, 'positionName': 'RIGHT', 'positionCoords': [998.4, 335.5], 'bid': 0.15}]",23855.700000047684,1669833296297,burger,chicken nuggets2,0.43,0.15,-0.28,burger,1516.8999998569489,1519,1518.3999998569489,True,u,25882.0,2026.2999999523163,1669833298324,2027,HRV,HRV_0202,2022-11-30 18:41:14
8,"[{'imgObject': {}, 'id': 'edamame', 'src': '/static/foodstim60/edamame.jpg', 'key': 'u', 'origWidth': 409, 'origHeight': 410, 'width': 409, 'height': 410, 'widthPercent': 0.45, 'rescaleHeight': False, 'trialN': 8, 'loaded': True, 'loadedTime': 4679.5, 'positionName': 'LEFT', 'positionCoords': [512.6, 335], 'bid': 0.13}, {'imgObject': {}, 'id': 'eggsalad', 'src': '/static/foodstim60/eggsalad.jpg', 'key': 'i', 'origWidth': 410, 'origHeight': 409, 'width': 410, 'height': 409, 'widthPercent': 0.45, 'rescaleHeight': False, 'trialN': 8, 'loaded': True, 'loadedTime': 5086.299999952316, 'positionName': 'RIGHT', 'positionCoords': [998.4, 335.5], 'bid': 0.14}]",25882.900000095367,1669833298324,edamame,eggsalad,0.13,0.14,0.010000000000000009,eggsalad,1483.0,1485,1484.5999999046326,True,i,27877.599999904633,1994.6999998092651,1669833300319,1995,HRV,HRV_0202,2022-11-30 18:41:14
9,"[{'imgObject': {}, 'id': 'hotdog w must', 'src': '/static/foodstim60/hotdog w must.jpg', 'key': 'u', 'origWidth': 409, 'origHeight': 409, 'width': 409, 'height': 409, 'widthPercent': 0.45, 'rescaleHeight': False, 'trialN': 9, 'loaded': True, 'loadedTime': 5089.400000095367, 'positionName': 'LEFT', 'positionCoords': [512.6, 335.5], 'bid': 0.15}, {'imgObject': {}, 'id': 'rigatoni', 'src': '/static/foodstim60/rigatoni.jpg', 'key': 'i', 'origWidth': 411, 'origHeight': 411, 'width': 411, 'height': 411, 'widthPercent': 0.45, 'rescaleHeight': False, 'trialN': 9, 'loaded': True, 'loadedTime': 5142.299999952316, 'positionName': 'RIGHT', 'positionCoords': [998.4, 334.5], 'bid': 0.15}]",27878.099999904633,1669833300320,hotdog w must,rigatoni,0.15,0.15,0.0,hotdog w must,1663.1000001430511,1664,1664.1000001430511,True,u,30054.5,2176.4000000953674,1669833302496,2176,HRV,HRV_0202,2022-11-30 18:41:14
10,"[{'imgObject': {}, 'id': 'strawberries', 'src': '/static/foodstim60/strawberries.jpg', 'key': 'u', 'origWidth': 410, 'origHeight': 410, 'width': 410, 'height': 410, 'widthPercent': 0.45, 'rescaleHeight': False, 'trialN': 10, 'loaded': True, 'loadedTime': 5198.599999904633, 'positionName': 'LEFT', 'positionCoords': [511.6, 335], 'bid': 9.83}, {'imgObject': {}, 'id': 'pear', 'src': '/static/foodstim60/pear.jpg', 'key': 'i', 'origWidth': 411, 'origHeight': 410, 'width': 411, 'height': 410, 'widthPercent': 0.45, 'rescaleHeight': False, 'trialN': 10, 'loaded': True, 'loadedTime': 5227, 'positionName': 'RIGHT', 'positionCoords': [998.4, 335], 'bid': 9.44}]",30099.0,1669833302541,strawberries,pear,9.83,9.44,-0.39000000000000057,strawberries,1633.5999999046326,1634,1634.0999999046326,True,u,32242.299999952316,2143.2999999523163,1669833304684,2143,HRV,HRV_0202,2022-11-30 18:41:14
11,"[{'imgObject': {}, 'id': 'olives', 'src': '/static/foodstim60/olives.jpg', 'key': 'u', 'origWidth': 410, 'origHeight': 410, 'width': 410, 'height': 410, 'widthPercent': 0.45, 'rescaleHeight': False, 'trialN': 11, 'loaded': True, 'loadedTime': 2956.5, 'positionName': 'LEFT', 'positionCoords': [511.6, 335], 'bid': 5.01}, {'imgObject': {}, 'id': 'roastedpotatoes', 'src': '/static/foodstim60/roastedpotatoes.jpg', 'key': 'i', 'origWidth': 409, 'origHeight': 410, 'width': 409, 'height': 410, 'widthPercent': 0.45, 'rescaleHeight': False, 'trialN': 11, 'loaded': True, 'loadedTime': 5270.900000095367, 'positionName': 'RIGHT', 'positionCoords': [998.4, 335], 'bid': 5.19}]",32243.700000047684,1669833304685,olives,roastedpotatoes,5.01,5.19,0.1800000000000006,roastedpotatoes,1599.2999999523163,1602,1601.7000000476837,True,i,34360.0,2116.2999999523163,1669833306802,2117,HRV,HRV_0202,2022-11-30 18:41:14
12,"[{'imgObject': {}, 'id': 'Tribe humus pita', 'src': '/static/foodstim60/Tribe humus pita.jpg', 'key': 'u', 'origWidth': 411, 'origHeight': 411, 'width': 411, 'height': 411, 'widthPercent': 0.45, 'rescaleHeight': False, 'trialN': 12, 'loaded': True, 'loadedTime': 5323.799999952316, 'positionName': 'LEFT', 'positionCoords': [510.6, 334.5], 'bid': 5.0600000000000005}, {'imgObject': {}, 'id': 'lox', 'src': '/static/foodstim60/lox.jpg', 'key': 'i', 'origWidth': 410, 'origHeight': 411, 'width': 410, 'height': 411, 'widthPercent': 0.45, 'rescaleHeight': False, 'trialN': 12, 'loaded': True, 'loadedTime': 5372.900000095367, 'positionName': 'RIGHT', 'positionCoords': [998.4, 334.5], 'bid': 0.18}]",34360.799999952316,1669833306802,Tribe humus pita,lox,5.0600000000000005,0.18,-4.880000000000001,Tribe humus pita,1572.2999999523163,1574,1573.4000000953674,True,u,36442.799999952316,2082.0,1669833308884,2082,HRV,HRV_0202,2022-11-30 18:41:14
13,"[{'imgObject': {}, 'id': 'blueberries', 'src': '/static/foodstim60/blueberries.jpg', 'key': 'u', 'origWidth': 411, 'origHeight': 411, 'width': 411, 'height': 411, 'widthPercent': 0.45, 'rescaleHeight': False, 'trialN': 13, 'loaded': True, 'loadedTime': 5432, 'positionName': 'LEFT', 'positionCoords': [510.6, 334.5], 'bid': 0.18}, {'imgObject': {}, 'id': 'olives', 'src': '/static/foodstim60/olives.jpg', 'key': 'i', 'origWidth': 410, 'origHeight': 410, 'width': 410, 'height': 410, 'widthPercent': 0.45, 'rescaleHeight': False, 'trialN': 13, 'loaded': True, 'loadedTime': 2947.2999999523163, 'positionName': 'RIGHT', 'positionCoords': [998.4, 335], 'bid': 5.01}]",36443.299999952316,1669833308885,blueberries,olives,0.18,5.01,4.83,olives,1306.0,1307,1306.9000000953674,True,i,38257.0,1813.7000000476837,1669833310699,1814,HRV,HRV_0202,2022-11-30 18:41:14
14,"[{'imgObject': {}, 'id': 'blueberries', 'src': '/static/foodstim60/blueberries.jpg', 'key': 'u', 'origWidth': 411, 'origHeight': 411, 'width': 411, 'height': 411, 'widthPercent': 0.45, 'rescaleHeight': False, 'trialN': 14, 'loaded': True, 'loadedTime': 5445.299999952316, 'positionName': 'LEFT', 'positionCoords': [510.6, 334.5], 'bid': 0.18}, {'imgObject': {}, 'id': 'lox', 'src': '/static/foodstim60/lox.jpg', 'key': 'i', 'origWidth': 410, 'origHeight': 411, 'width': 410, 'height': 411, 'widthPercent': 0.45, 'rescaleHeight': False, 'trialN': 14, 'loaded': True, 'loadedTime': 5377.799999952316, 'positionName': 'RIGHT', 'positionCoords': [998.4, 334.5], 'bid': 0.18}]",38258.5,1669833310700,blueberries,lox,0.18,0.18,0.0,lox,1411.0,1413,1412.5,True,i,40175.799999952316,1917.2999999523163,1669833312617,1917,HRV,HRV_0202,2022-11-30 18:41:14
15,"[{'imgObject': {}, 'id': 'yogurt no spoon', 'src': '/static/foodstim60/yogurt no spoon.jpg', 'key': 'u', 'origWidth': 411, 'origHeight': 410, 'width': 411, 'height': 410, 'widthPercent': 0.45, 'rescaleHeight': False, 'trialN': 15, 'loaded': True, 'loadedTime': 5550.900000095367, 'positionName': 'LEFT', 'positionCoords': [510.6, 335], 'bid': 6.16}, {'imgObject': {}, 'id': 'baked potato', 'src': '/static/foodstim60/baked potato.jpg', 'key': 'i', 'origWidth': 409, 'origHeight': 410, 'width': 409, 'height': 410, 'widthPercent': 0.45, 'rescaleHeight': False, 'trialN': 15, 'loaded': True, 'loadedTime': 3443.9000000953674, 'positionName': 'RIGHT', 'positionCoords': [998.4, 335], 'bid': 3.33}]",40178.09999990463,1669833312620,yogurt no spoon,baked potato,6.16,3.33,-2.83,yogurt no spoon,1444.1000001430511,1445,1445.1000001430511,True,u,42134.5,1956.4000000953674,1669833314576,1956,HRV,HRV_0202,2022-11-30 18:41:14
16,"[{'imgObject': {}, 'id': 'avocado', 'src': '/static/foodstim60/avocado.jpg', 'key': 'u', 'origWidth': 409, 'origHeight': 409, 'width': 409, 'height': 409, 'widthPercent': 0.45, 'rescaleHeight': False, 'trialN': 16, 'loaded': True, 'loadedTime': 5588.599999904633, 'positionName': 'LEFT', 'positionCoords': [512.6, 335.5], 'bid': 0.16}, {'imgObject': {}, 'id': 'blackbeanswithrice', 'src': '/static/foodstim60/blackbeanswithrice.jpg', 'key': 'i', 'origWidth': 410, 'origHeight': 410, 'width': 410, 'height': 410, 'widthPercent': 0.45, 'rescaleHeight': False, 'trialN': 16, 'loaded': True, 'loadedTime': 5608, 'positionName': 'RIGHT', 'positionCoords': [998.4, 335], 'bid': 0.14}]",42134.799999952316,1669833314576,avocado,blackbeanswithrice,0.16,0.14,-0.01999999999999999,blackbeanswithrice,1463.2000000476837,1465,1464.7000000476837,True,i,44109.59999990463,1974.7999999523163,1669833316551,1975,HRV,HRV_0202,2022-11-30 18:41:14
17,"[{'imgObject': {}, 'id': 'corn cob', 'src': '/static/foodstim60/corn cob.jpg', 'key': 'u', 'origWidth': 411, 'origHeight': 411, 'width': 411, 'height': 411, 'widthPercent': 0.45, 'rescaleHeight': False, 'trialN': 17, 'loaded': True, 'loadedTime': 5644, 'positionName': 'LEFT', 'positionCoords': [510.6, 334.5], 'bid': 1.26}, {'imgObject': {}, 'id': 'sushi w_condiments', 'src': '/static/foodstim60/sushi w_condiments.jpg', 'key': 'i', 'origWidth': 410, 'origHeight': 410, 'width': 410, 'height': 410, 'widthPercent': 0.45, 'rescaleHeight': False, 'trialN': 17, 'loaded': True, 'loadedTime': 5716.099999904633, 'positionName': 'RIGHT', 'positionCoords': [998.4, 335], 'bid': 6.42}]",44110.5,1669833316552,corn cob,sushi w_condiments,1.26,6.42,5.16,sushi w_condiments,1551.7999999523163,1553,1553.2000000476837,True,i,46176.59999990463,2066.0999999046326,1669833318618,2066,HRV,HRV_0202,2022-11-30 18:41:14
18,"[{'imgObject': {}, 'id': 'chickenfingers', 'src': '/static/foodstim60/chickenfingers.jpg', 'key': 'u', 'origWidth': 410, 'origHeight': 410, 'width': 410, 'height': 410, 'widthPercent': 0.45, 'rescaleHeight': False, 'trialN': 18, 'loaded': True, 'loadedTime': 5784.799999952316, 'positionName': 'LEFT', 'positionCoords': [511.6, 335], 'bid': 4.94}, {'imgObject': {}, 'id': 'sweetpotato', 'src': '/static/foodstim60/sweetpotato.jpg', 'key': 'i', 'origWidth': 410, 'origHeight': 410, 'width': 410, 'height': 410, 'widthPercent': 0.45, 'rescaleHeight': False, 'trialN': 18, 'loaded': True, 'loadedTime': 5861.5, 'positionName': 'RIGHT', 'positionCoords': [998.4, 335], 'bid': 0.17}]",46177.5,1669833318619,chickenfingers,sweetpotato,4.94,0.17,-4.7700000000000005,chickenfingers,1389.0999999046326,1390,1390.2999999523163,True,u,48094.09999990463,1916.5999999046326,1669833320536,1917,HRV,HRV_0202,2022-11-30 18:41:14
19,"[{'imgObject': {}, 'id': 'ice cream sundae 002', 'src': '/static/foodstim60/ice cream sundae 002.jpg', 'key': 'u', 'origWidth': 409, 'origHeight': 409, 'width': 409, 'height': 409, 'widthPercent': 0.45, 'rescaleHeight': False, 'trialN': 19, 'loaded': True, 'loadedTime': 3176, 'positionName': 'LEFT', 'positionCoords': [512.6, 335.5], 'bid': 0.16}, {'imgObject': {}, 'id': 'corn cob', 'src': '/static/foodstim60/corn cob.jpg', 'key': 'i', 'origWidth': 411, 'origHeight': 411, 'width': 411, 'height': 411, 'widthPercent': 0.45, 'rescaleHeight': False, 'trialN': 19, 'loaded': True, 'loadedTime': 5660.200000047684, 'positionName': 'RIGHT', 'positionCoords': [998.4, 334.5], 'bid': 1.26}]",48094.5,1669833320536,ice cream sundae 002,corn cob,0.16,1.26,1.1,corn cob,1326.2000000476837,1327,1326.7000000476837,True,i,49924.5,1830.0,1669833322366,1830,HRV,HRV_0202,2022-11-30 18:41:14
20,"[{'imgObject': {}, 'id': 'edamame', 'src': '/static/foodstim60/edamame.jpg', 'key': 'u', 'origWidth': 409, 'origHeight': 410, 'width': 409, 'height': 410, 'widthPercent': 0.45, 'rescaleHeight': False, 'trialN': 20, 'loaded': True, 'loadedTime': 4777.599999904633, 'positionName': 'LEFT', 'positionCoords': [512.6, 335], 'bid': 0.13}, {'imgObject': {}, 'id': 'hotdog w must', 'src': '/static/foodstim60/hotdog w must.jpg', 'key': 'i', 'origWidth': 409, 'origHeight': 409, 'width': 409, 'height': 409, 'widthPercent': 0.45, 'rescaleHeight': False, 'trialN': 20, 'loaded': True, 'loadedTime': 5089, 'positionName': 'RIGHT', 'positionCoords': [998.4, 335.5], 'bid': 0.15}]",49927.90000009537,1669833322369,edamame,hotdog w must,0.13,0.15,0.01999999999999999,hotdog w must,1558.5999999046326,1560,1560.0999999046326,True,i,52010.200000047684,2082.2999999523163,1669833324452,2083,HRV,HRV_0202,2022-11-30 18:41:14
21,"[{'imgObject': {}, 'id': 'fruitsalad', 'src': '/static/foodstim60/fruitsalad.jpg', 'key': 'u', 'origWidth': 410, 'origHeight': 410, 'width': 410, 'height': 410, 'widthPercent': 0.45, 'rescaleHeight': False, 'trialN': 21, 'loaded': True, 'loadedTime': 3622.5, 'positionName': 'LEFT', 'positionCoords': [511.6, 335], 'bid': 9.83}, {'imgObject': {}, 'id': 'salad w chicken', 'src': '/static/foodstim60/salad w chicken.jpg', 'key': 'i', 'origWidth': 411, 'origHeight': 411, 'width': 411, 'height': 411, 'widthPercent': 0.45, 'rescaleHeight': False, 'trialN': 21, 'loaded': True, 'loadedTime': 6448.400000095367, 'positionName': 'RIGHT', 'positionCoords': [998.4, 334.5], 'bid': 8.71}]",52015.0,1669833324457,fruitsalad,salad w chicken,9.83,8.71,-1.1199999999999992,fruitsalad,1575.0,1576,1576.5,True,u,54110.700000047684,2095.7000000476837,1669833326552,2095,HRV,HRV_0202,2022-11-30 18:41:14
22,"[{'imgObject': {}, 'id': 'chickenfingers', 'src': '/static/foodstim60/chickenfingers.jpg', 'key': 'u', 'origWidth': 410, 'origHeight': 410, 'width': 410, 'height': 410, 'widthPercent': 0.45, 'rescaleHeight': False, 'trialN': 22, 'loaded': True, 'loadedTime': 5785, 'positionName': 'LEFT', 'positionCoords': [511.6, 335], 'bid': 4.94}, {'imgObject': {}, 'id': 'eggs', 'src': '/static/foodstim60/eggs.jpg', 'key': 'i', 'origWidth': 409, 'origHeight': 409, 'width': 409, 'height': 409, 'widthPercent': 0.45, 'rescaleHeight': False, 'trialN': 22, 'loaded': True, 'loadedTime': 6463.700000047684, 'positionName': 'RIGHT', 'positionCoords': [998.4, 335.5], 'bid': 0.7000000000000001}]",54111.09999990463,1669833326553,chickenfingers,eggs,4.94,0.7000000000000001,-4.24,chickenfingers,1679.6000001430511,1681,1681.0,True,u,56310.700000047684,2199.600000143051,1669833328752,2199,HRV,HRV_0202,2022-11-30 18:41:14
23,"[{'imgObject': {}, 'id': 'eggs', 'src': '/static/foodstim60/eggs.jpg', 'key': 'u', 'origWidth': 409, 'origHeight': 409, 'width': 409, 'height': 409, 'widthPercent': 0.45, 'rescaleHeight': False, 'trialN': 23, 'loaded': True, 'loadedTime': 6684.5, 'positionName': 'LEFT', 'positionCoords': [512.6, 335.5], 'bid': 0.7000000000000001}, {'imgObject': {}, 'id': 'bagel and cc', 'src': '/static/foodstim60/bagel and cc.jpg', 'key': 'i', 'origWidth': 410, 'origHeight': 410, 'width': 410, 'height': 410, 'widthPercent': 0.45, 'rescaleHeight': False, 'trialN': 23, 'loaded': True, 'loadedTime': 6859.599999904633, 'positionName': 'RIGHT', 'positionCoords': [998.4, 335], 'bid': 0.15}]",56311.5,1669833328753,eggs,bagel and cc,0.7000000000000001,0.15,-0.55,eggs,1493.7000000476837,1495,1494.5999999046326,True,u,58309.299999952316,1997.7999999523163,1669833330751,1998,HRV,HRV_0202,2022-11-30 18:41:14
24,"[{'imgObject': {}, 'id': 'Tribe humus pita', 'src': '/static/foodstim60/Tribe humus pita.jpg', 'key': 'u', 'origWidth': 411, 'origHeight': 411, 'width': 411, 'height': 411, 'widthPercent': 0.45, 'rescaleHeight': False, 'trialN': 24, 'loaded': True, 'loadedTime': 5320.400000095367, 'positionName': 'LEFT', 'positionCoords': [510.6, 334.5], 'bid': 5.0600000000000005}, {'imgObject': {}, 'id': 'burrito', 'src': '/static/foodstim60/burrito.jpg', 'key': 'i', 'origWidth': 410, 'origHeight': 410, 'width': 410, 'height': 410, 'widthPercent': 0.45, 'rescaleHeight': False, 'trialN': 24, 'loaded': True, 'loadedTime': 6860, 'positionName': 'RIGHT', 'positionCoords': [998.4, 335], 'bid': 0.9}]",58310.59999990463,1669833330752,Tribe humus pita,burrito,5.0600000000000005,0.9,-4.16,Tribe humus pita,1607.4000000953674,1609,1609.0,True,u,60426.799999952316,2116.2000000476837,1669833332869,2117,HRV,HRV_0202,2022-11-30 18:41:14
25,"[{'imgObject': {}, 'id': 'lox', 'src': '/static/foodstim60/lox.jpg', 'key': 'u', 'origWidth': 410, 'origHeight': 411, 'width': 410, 'height': 411, 'widthPercent': 0.45, 'rescaleHeight': False, 'trialN': 25, 'loaded': True, 'loadedTime': 5427.400000095367, 'positionName': 'LEFT', 'positionCoords': [511.6, 334.5], 'bid': 0.18}, {'imgObject': {}, 'id': 'hashbrowns', 'src': '/static/foodstim60/hashbrowns.jpg', 'key': 'i', 'origWidth': 411, 'origHeight': 410, 'width': 411, 'height': 410, 'widthPercent': 0.45, 'rescaleHeight': False, 'trialN': 25, 'loaded': True, 'loadedTime': 2854.2000000476837, 'positionName': 'RIGHT', 'positionCoords': [998.4, 335], 'bid': 0.15}]",60428.799999952316,1669833332871,lox,hashbrowns,0.18,0.15,-0.03,lox,1529.0,1530,1530.1000001430511,True,u,62476.40000009537,2047.6000001430511,1669833334918,2047,HRV,HRV_0202,2022-11-30 18:41:14
26,"[{'imgObject': {}, 'id': 'burger', 'src': '/static/foodstim60/burger.jpg', 'key': 'u', 'origWidth': 409, 'origHeight': 409, 'width': 409, 'height': 409, 'widthPercent': 0.45, 'rescaleHeight': False, 'trialN': 26, 'loaded': True, 'loadedTime': 5051.599999904633, 'positionName': 'LEFT', 'positionCoords': [512.6, 335.5], 'bid': 0.43}, {'imgObject': {}, 'id': 'veggieswithdip', 'src': '/static/foodstim60/veggieswithdip.jpg', 'key': 'i', 'origWidth': 409, 'origHeight': 409, 'width': 409, 'height': 409, 'widthPercent': 0.45, 'rescaleHeight': False, 'trialN': 26, 'loaded': True, 'loadedTime': 2933.9000000953674, 'positionName': 'RIGHT', 'positionCoords': [998.4, 335.5], 'bid': 9.82}]",62478.40000009537,1669833334920,burger,veggieswithdip,0.43,9.82,9.39,veggieswithdip,1479.0999999046326,1480,1480.0999999046326,True,i,64460.59999990463,1982.1999998092651,1669833336902,1982,HRV,HRV_0202,2022-11-30 18:41:14
27,"[{'imgObject': {}, 'id': 'sweetpotato', 'src': '/static/foodstim60/sweetpotato.jpg', 'key': 'u', 'origWidth': 410, 'origHeight': 410, 'width': 410, 'height': 410, 'widthPercent': 0.45, 'rescaleHeight': False, 'trialN': 27, 'loaded': True, 'loadedTime': 5858.099999904633, 'positionName': 'LEFT', 'positionCoords': [511.6, 335], 'bid': 0.17}, {'imgObject': {}, 'id': 'orange slices', 'src': '/static/foodstim60/orange slices.jpg', 'key': 'i', 'origWidth': 409, 'origHeight': 410, 'width': 409, 'height': 410, 'widthPercent': 0.45, 'rescaleHeight': False, 'trialN': 27, 'loaded': True, 'loadedTime': 3001.2999999523163, 'positionName': 'RIGHT', 'positionCoords': [998.4, 335], 'bid': 9.8}]",64461.200000047684,1669833336903,sweetpotato,orange slices,0.17,9.8,9.63,orange slices,1264.0999999046326,1274,1274.0999999046326,True,i,66248.0,1786.7999999523163,1669833338690,1787,HRV,HRV_0202,2022-11-30 18:41:14
28,"[{'imgObject': {}, 'id': 'salad w chicken', 'src': '/static/foodstim60/salad w chicken.jpg', 'key': 'u', 'origWidth': 411, 'origHeight': 411, 'width': 411, 'height': 411, 'widthPercent': 0.45, 'rescaleHeight': False, 'trialN': 28, 'loaded': True, 'loadedTime': 6448.200000047684, 'positionName': 'LEFT', 'positionCoords': [510.6, 334.5], 'bid': 8.71}, {'imgObject': {}, 'id': 'veggieswithdip', 'src': '/static/foodstim60/veggieswithdip.jpg', 'key': 'i', 'origWidth': 409, 'origHeight': 409, 'width': 409, 'height': 409, 'widthPercent': 0.45, 'rescaleHeight': False, 'trialN': 28, 'loaded': True, 'loadedTime': 2929.7999999523163, 'positionName': 'RIGHT', 'positionCoords': [998.4, 335.5], 'bid': 9.82}]",66255.79999995232,1669833338698,salad w chicken,veggieswithdip,8.71,9.82,1.1099999999999994,veggieswithdip,1550.0,1551,1551.4000000953674,True,i,68327.09999990463,2071.2999999523163,1669833340769,2071,HRV,HRV_0202,2022-11-30 18:41:14
29,"[{'imgObject': {}, 'id': 'eggs', 'src': '/static/foodstim60/eggs.jpg', 'key': 'u', 'origWidth': 409, 'origHeight': 409, 'width': 409, 'height': 409, 'widthPercent': 0.45, 'rescaleHeight': False, 'trialN': 29, 'loaded': True, 'loadedTime': 6473, 'positionName': 'LEFT', 'positionCoords': [512.6, 335.5], 'bid': 0.7000000000000001}, {'imgObject': {}, 'id': 'burrito', 'src': '/static/foodstim60/burrito.jpg', 'key': 'i', 'origWidth': 410, 'origHeight': 410, 'width': 410, 'height': 410, 'widthPercent': 0.45, 'rescaleHeight': False, 'trialN': 29, 'loaded': True, 'loadedTime': 6885.700000047684, 'positionName': 'RIGHT', 'positionCoords': [998.4, 335], 'bid': 0.9}]",68328.29999995232,1669833340770,eggs,burrito,0.7000000000000001,0.9,0.19999999999999996,eggs,1357.0,1358,1357.7999999523163,True,u,70192.5,1864.2000000476837,1669833342634,1864,HRV,HRV_0202,2022-11-30 18:41:14
30,"[{'imgObject': {}, 'id': 'salmon', 'src': '/static/foodstim60/salmon.jpg', 'key': 'u', 'origWidth': 410, 'origHeight': 409, 'width': 410, 'height': 409, 'widthPercent': 0.45, 'rescaleHeight': False, 'trialN': 30, 'loaded': True, 'loadedTime': 3581.5999999046326, 'positionName': 'LEFT', 'positionCoords': [511.6, 335.5], 'bid': 9.26}, {'imgObject': {}, 'id': 'banana', 'src': '/static/foodstim60/banana.jpg', 'key': 'i', 'origWidth': 410, 'origHeight': 410, 'width': 410, 'height': 410, 'widthPercent': 0.45, 'rescaleHeight': False, 'trialN': 30, 'loaded': True, 'loadedTime': 3315.7999999523163, 'positionName': 'RIGHT', 'positionCoords': [998.4, 335], 'bid': 9.25}]",70193.20000004768,1669833342635,salmon,banana,9.26,9.25,-0.009999999999999787,salmon,1652.0,1653,1652.7000000476837,True,u,72349.5,2156.2999999523163,1669833344791,2156,HRV,HRV_0202,2022-11-30 18:41:14
31,"[{'imgObject': {}, 'id': 'eggsalad', 'src': '/static/foodstim60/eggsalad.jpg', 'key': 'u', 'origWidth': 410, 'origHeight': 409, 'width': 410, 'height': 409, 'widthPercent': 0.45, 'rescaleHeight': False, 'trialN': 31, 'loaded': True, 'loadedTime': 5087.200000047684, 'positionName': 'LEFT', 'positionCoords': [511.6, 335.5], 'bid': 0.14}, {'imgObject': {}, 'id': 'froot loops w milk', 'src': '/static/foodstim60/froot loops w milk.jpg', 'key': 'i', 'origWidth': 410, 'origHeight': 410, 'width': 410, 'height': 410, 'widthPercent': 0.45, 'rescaleHeight': False, 'trialN': 31, 'loaded': True, 'loadedTime': 3636.7000000476837, 'positionName': 'RIGHT', 'positionCoords': [998.4, 335], 'bid': 0.15}]",72350.29999995232,1669833344792,eggsalad,froot loops w milk,0.14,0.15,0.009999999999999981,eggsalad,1799.0,1800,1799.9000000953674,True,u,74659.0,2308.7000000476837,1669833347101,2309,HRV,HRV_0202,2022-11-30 18:41:14
32,"[{'imgObject': {}, 'id': 'tacos', 'src': '/static/foodstim60/tacos.jpg', 'key': 'u', 'origWidth': 411, 'origHeight': 411, 'width': 411, 'height': 411, 'widthPercent': 0.45, 'rescaleHeight': False, 'trialN': 32, 'loaded': True, 'loadedTime': 3823.5999999046326, 'positionName': 'LEFT', 'positionCoords': [510.6, 334.5], 'bid': 6.2}, {'imgObject': {}, 'id': 'orange slices', 'src': '/static/foodstim60/orange slices.jpg', 'key': 'i', 'origWidth': 409, 'origHeight': 410, 'width': 409, 'height': 410, 'widthPercent': 0.45, 'rescaleHeight': False, 'trialN': 32, 'loaded': True, 'loadedTime': 3003.5, 'positionName': 'RIGHT', 'positionCoords': [998.4, 335], 'bid': 9.8}]",74660.29999995232,1669833347102,tacos,orange slices,6.2,9.8,3.6000000000000005,orange slices,1504.7999999523163,1506,1505.7999999523163,True,i,76676.09999990463,2015.7999999523163,1669833349118,2016,HRV,HRV_0202,2022-11-30 18:41:14
33,"[{'imgObject': {}, 'id': 'fried eggs', 'src': '/static/foodstim60/fried eggs.jpg', 'key': 'u', 'origWidth': 410, 'origHeight': 410, 'width': 410, 'height': 410, 'widthPercent': 0.45, 'rescaleHeight': False, 'trialN': 33, 'loaded': True, 'loadedTime': 4598.200000047684, 'positionName': 'LEFT', 'positionCoords': [511.6, 335], 'bid': 0.16}, {'imgObject': {}, 'id': 'bagel plain', 'src': '/static/foodstim60/bagel plain.jpg', 'key': 'i', 'origWidth': 410, 'origHeight': 410, 'width': 410, 'height': 410, 'widthPercent': 0.45, 'rescaleHeight': False, 'trialN': 33, 'loaded': True, 'loadedTime': 4903.599999904633, 'positionName': 'RIGHT', 'positionCoords': [998.4, 335], 'bid': 0.15}]",76678.70000004768,1669833349120,fried eggs,bagel plain,0.16,0.15,-0.010000000000000009,bagel plain,1975.0,1976,1975.7999999523163,True,i,79177.09999990463,2498.399999856949,1669833351619,2499,HRV,HRV_0202,2022-11-30 18:41:14
34,"[{'imgObject': {}, 'id': 'turkeysandwich', 'src': '/static/foodstim60/turkeysandwich.jpg', 'key': 'u', 'origWidth': 409, 'origHeight': 409, 'width': 409, 'height': 409, 'widthPercent': 0.45, 'rescaleHeight': False, 'trialN': 34, 'loaded': True, 'loadedTime': 4932.700000047684, 'positionName': 'LEFT', 'positionCoords': [512.6, 335.5], 'bid': 8.09}, {'imgObject': {}, 'id': 'apple slices', 'src': '/static/foodstim60/apple slices.jpg', 'key': 'i', 'origWidth': 409, 'origHeight': 410, 'width': 409, 'height': 410, 'widthPercent': 0.45, 'rescaleHeight': False, 'trialN': 34, 'loaded': True, 'loadedTime': 4962.299999952316, 'positionName': 'RIGHT', 'positionCoords': [998.4, 335], 'bid': 8.42}]",79177.40000009537,1669833351619,turkeysandwich,apple slices,8.09,8.42,0.33000000000000007,turkeysandwich,1611.8999998569489,1613,1612.7999999523163,True,u,81294.90000009537,2117.5,1669833353737,2118,HRV,HRV_0202,2022-11-30 18:41:14
35,"[{'imgObject': {}, 'id': 'edamame', 'src': '/static/foodstim60/edamame.jpg', 'key': 'u', 'origWidth': 409, 'origHeight': 410, 'width': 409, 'height': 410, 'widthPercent': 0.45, 'rescaleHeight': False, 'trialN': 35, 'loaded': True, 'loadedTime': 4629.900000095367, 'positionName': 'LEFT', 'positionCoords': [512.6, 335], 'bid': 0.13}, {'imgObject': {}, 'id': 'blackbeanswithrice', 'src': '/static/foodstim60/blackbeanswithrice.jpg', 'key': 'i', 'origWidth': 410, 'origHeight': 410, 'width': 410, 'height': 410, 'widthPercent': 0.45, 'rescaleHeight': False, 'trialN': 35, 'loaded': True, 'loadedTime': 5643.900000095367, 'positionName': 'RIGHT', 'positionCoords': [998.4, 335], 'bid': 0.14}]",81295.90000009537,1669833353738,edamame,blackbeanswithrice,0.13,0.14,0.010000000000000009,blackbeanswithrice,1549.2999999523163,1550,1550.1999998092651,True,i,83359.5,2063.5999999046326,1669833355801,2063,HRV,HRV_0202,2022-11-30 18:41:14
36,"[{'imgObject': {}, 'id': 'veggieswithdip', 'src': '/static/foodstim60/veggieswithdip.jpg', 'key': 'u', 'origWidth': 409, 'origHeight': 409, 'width': 409, 'height': 409, 'widthPercent': 0.45, 'rescaleHeight': False, 'trialN': 36, 'loaded': True, 'loadedTime': 2932.5999999046326, 'positionName': 'LEFT', 'positionCoords': [512.6, 335.5], 'bid': 9.82}, {'imgObject': {}, 'id': 'pear', 'src': '/static/foodstim60/pear.jpg', 'key': 'i', 'origWidth': 411, 'origHeight': 410, 'width': 411, 'height': 410, 'widthPercent': 0.45, 'rescaleHeight': False, 'trialN': 36, 'loaded': True, 'loadedTime': 5199, 'positionName': 'RIGHT', 'positionCoords': [998.4, 335], 'bid': 9.44}]",83360.40000009537,1669833355802,veggieswithdip,pear,9.82,9.44,-0.3800000000000008,veggieswithdip,1548.6999998092651,1550,1549.5,True,u,85425.90000009537,2065.5,1669833357868,2066,HRV,HRV_0202,2022-11-30 18:41:14
37,"[{'imgObject': {}, 'id': 'granola w milk', 'src': '/static/foodstim60/granola w milk.jpg', 'key': 'u', 'origWidth': 410, 'origHeight': 410, 'width': 410, 'height': 410, 'widthPercent': 0.45, 'rescaleHeight': False, 'trialN': 37, 'loaded': True, 'loadedTime': 5870.700000047684, 'positionName': 'LEFT', 'positionCoords': [511.6, 335], 'bid': 0.17}, {'imgObject': {}, 'id': 'blueberries', 'src': '/static/foodstim60/blueberries.jpg', 'key': 'i', 'origWidth': 411, 'origHeight': 411, 'width': 411, 'height': 411, 'widthPercent': 0.45, 'rescaleHeight': False, 'trialN': 37, 'loaded': True, 'loadedTime': 5433.099999904633, 'positionName': 'RIGHT', 'positionCoords': [998.4, 334.5], 'bid': 0.18}]",85426.59999990463,1669833357868,granola w milk,blueberries,0.17,0.18,0.009999999999999981,granola w milk,1682.8000001907349,1684,1683.8000001907349,True,u,87612.0,2185.4000000953674,1669833360054,2186,HRV,HRV_0202,2022-11-30 18:41:14
38,"[{'imgObject': {}, 'id': 'cherry tomato', 'src': '/static/foodstim60/cherry tomato.jpg', 'key': 'u', 'origWidth': 410, 'origHeight': 410, 'width': 410, 'height': 410, 'widthPercent': 0.45, 'rescaleHeight': False, 'trialN': 38, 'loaded': True, 'loadedTime': 6406.400000095367, 'positionName': 'LEFT', 'positionCoords': [511.6, 335], 'bid': 0.16}, {'imgObject': {}, 'id': 'granola w milk', 'src': '/static/foodstim60/granola w milk.jpg', 'key': 'i', 'origWidth': 410, 'origHeight': 410, 'width': 410, 'height': 410, 'widthPercent': 0.45, 'rescaleHeight': False, 'trialN': 38, 'loaded': True, 'loadedTime': 5913.799999952316, 'positionName': 'RIGHT', 'positionCoords': [998.4, 335], 'bid': 0.17}]",87613.90000009537,1669833360056,cherry tomato,granola w milk,0.16,0.17,0.010000000000000009,cherry tomato,1792.1999998092651,1793,1793.1999998092651,True,u,89929.20000004768,2315.2999999523163,1669833362371,2315,HRV,HRV_0202,2022-11-30 18:41:14
39,"[{'imgObject': {}, 'id': 'pear', 'src': '/static/foodstim60/pear.jpg', 'key': 'u', 'origWidth': 411, 'origHeight': 410, 'width': 411, 'height': 410, 'widthPercent': 0.45, 'rescaleHeight': False, 'trialN': 39, 'loaded': True, 'loadedTime': 5227.099999904633, 'positionName': 'LEFT', 'positionCoords': [510.6, 335], 'bid': 9.44}, {'imgObject': {}, 'id': 'Tribe humus pita', 'src': '/static/foodstim60/Tribe humus pita.jpg', 'key': 'i', 'origWidth': 411, 'origHeight': 411, 'width': 411, 'height': 411, 'widthPercent': 0.45, 'rescaleHeight': False, 'trialN': 39, 'loaded': True, 'loadedTime': 5317.5, 'positionName': 'RIGHT', 'positionCoords': [998.4, 334.5], 'bid': 5.0600000000000005}]",89929.79999995232,1669833362372,pear,Tribe humus pita,9.44,5.0600000000000005,-4.379999999999999,pear,1763.6000001430511,1764,1764.4000000953674,True,u,92210.09999990463,2280.2999999523163,1669833364652,2280,HRV,HRV_0202,2022-11-30 18:41:14
40,"[{'imgObject': {}, 'id': 'mango', 'src': '/static/foodstim60/mango.jpg', 'key': 'u', 'origWidth': 411, 'origHeight': 411, 'width': 411, 'height': 411, 'widthPercent': 0.45, 'rescaleHeight': False, 'trialN': 40, 'loaded': True, 'loadedTime': 3145.7999999523163, 'positionName': 'LEFT', 'positionCoords': [510.6, 334.5], 'bid': 9.14}, {'imgObject': {}, 'id': 'salad w chicken', 'src': '/static/foodstim60/salad w chicken.jpg', 'key': 'i', 'origWidth': 411, 'origHeight': 411, 'width': 411, 'height': 411, 'widthPercent': 0.45, 'rescaleHeight': False, 'trialN': 40, 'loaded': True, 'loadedTime': 6448.5, 'positionName': 'RIGHT', 'positionCoords': [998.4, 334.5], 'bid': 8.71}]",92210.70000004768,1669833364652,mango,salad w chicken,9.14,8.71,-0.4299999999999997,salad w chicken,1593.7000000476837,1595,1594.2999999523163,True,i,94310.40000009537,2099.7000000476837,1669833366752,2100,HRV,HRV_0202,2022-11-30 18:41:14
41,"[{'imgObject': {}, 'id': 'cheerios', 'src': '/static/foodstim60/cheerios.jpg', 'key': 'u', 'origWidth': 409, 'origHeight': 410, 'width': 409, 'height': 410, 'widthPercent': 0.45, 'rescaleHeight': False, 'trialN': 41, 'loaded': True, 'loadedTime': 6887.299999952316, 'positionName': 'LEFT', 'positionCoords': [512.6, 335], 'bid': 0.17}, {'imgObject': {}, 'id': 'fried eggs', 'src': '/static/foodstim60/fried eggs.jpg', 'key': 'i', 'origWidth': 410, 'origHeight': 410, 'width': 410, 'height': 410, 'widthPercent': 0.45, 'rescaleHeight': False, 'trialN': 41, 'loaded': True, 'loadedTime': 4559, 'positionName': 'RIGHT', 'positionCoords': [998.4, 335], 'bid': 0.16}]",94310.70000004768,1669833366752,cheerios,fried eggs,0.17,0.16,-0.010000000000000009,cheerios,1423.0,1425,1424.5,True,u,96243.40000009537,1932.7000000476837,1669833368685,1933,HRV,HRV_0202,2022-11-30 18:41:14
42,"[{'imgObject': {}, 'id': 'avocado', 'src': '/static/foodstim60/avocado.jpg', 'key': 'u', 'origWidth': 409, 'origHeight': 409, 'width': 409, 'height': 409, 'widthPercent': 0.45, 'rescaleHeight': False, 'trialN': 42, 'loaded': True, 'loadedTime': 5606, 'positionName': 'LEFT', 'positionCoords': [512.6, 335.5], 'bid': 0.16}, {'imgObject': {}, 'id': 'blueberries', 'src': '/static/foodstim60/blueberries.jpg', 'key': 'i', 'origWidth': 411, 'origHeight': 411, 'width': 411, 'height': 411, 'widthPercent': 0.45, 'rescaleHeight': False, 'trialN': 42, 'loaded': True, 'loadedTime': 5445.599999904633, 'positionName': 'RIGHT', 'positionCoords': [998.4, 334.5], 'bid': 0.18}]",96243.79999995232,1669833368686,avocado,blueberries,0.16,0.18,0.01999999999999999,avocado,1498.2999999523163,1499,1499.4000000953674,True,u,98262.0,2018.2000000476837,1669833370704,2018,HRV,HRV_0202,2022-11-30 18:41:14
43,"[{'imgObject': {}, 'id': 'apple slices', 'src': '/static/foodstim60/apple slices.jpg', 'key': 'u', 'origWidth': 409, 'origHeight': 410, 'width': 409, 'height': 410, 'widthPercent': 0.45, 'rescaleHeight': False, 'trialN': 43, 'loaded': True, 'loadedTime': 4986.299999952316, 'positionName': 'LEFT', 'positionCoords': [512.6, 335], 'bid': 8.42}, {'imgObject': {}, 'id': 'froot loops w milk', 'src': '/static/foodstim60/froot loops w milk.jpg', 'key': 'i', 'origWidth': 410, 'origHeight': 410, 'width': 410, 'height': 410, 'widthPercent': 0.45, 'rescaleHeight': False, 'trialN': 43, 'loaded': True, 'loadedTime': 3819.5999999046326, 'positionName': 'RIGHT', 'positionCoords': [998.4, 335], 'bid': 0.15}]",98263.09999990463,1669833370705,apple slices,froot loops w milk,8.42,0.15,-8.27,apple slices,1263.4000000953674,1264,1264.5,True,u,100044.40000009537,1781.3000001907349,1669833372486,1781,HRV,HRV_0202,2022-11-30 18:41:14
44,"[{'imgObject': {}, 'id': 'Tribe humus pita', 'src': '/static/foodstim60/Tribe humus pita.jpg', 'key': 'u', 'origWidth': 411, 'origHeight': 411, 'width': 411, 'height': 411, 'widthPercent': 0.45, 'rescaleHeight': False, 'trialN': 44, 'loaded': True, 'loadedTime': 5316.5, 'positionName': 'LEFT', 'positionCoords': [510.6, 334.5], 'bid': 5.0600000000000005}, {'imgObject': {}, 'id': 'yogurt no spoon', 'src': '/static/foodstim60/yogurt no spoon.jpg', 'key': 'i', 'origWidth': 411, 'origHeight': 410, 'width': 411, 'height': 410, 'widthPercent': 0.45, 'rescaleHeight': False, 'trialN': 44, 'loaded': True, 'loadedTime': 5588.200000047684, 'positionName': 'RIGHT', 'positionCoords': [998.4, 335], 'bid': 6.16}]",100044.59999990463,1669833372486,Tribe humus pita,yogurt no spoon,5.0600000000000005,6.16,1.0999999999999996,yogurt no spoon,1552.8000001907349,1554,1553.7000000476837,True,i,102112.5,2067.9000000953674,1669833374554,2068,HRV,HRV_0202,2022-11-30 18:41:14
45,"[{'imgObject': {}, 'id': 'froot loops w milk', 'src': '/static/foodstim60/froot loops w milk.jpg', 'key': 'u', 'origWidth': 410, 'origHeight': 410, 'width': 410, 'height': 410, 'widthPercent': 0.45, 'rescaleHeight': False, 'trialN': 45, 'loaded': True, 'loadedTime': 3819.7999999523163, 'positionName': 'LEFT', 'positionCoords': [511.6, 335], 'bid': 0.15}, {'imgObject': {}, 'id': 'luckycharms', 'src': '/static/foodstim60/luckycharms.jpg', 'key': 'i', 'origWidth': 410, 'origHeight': 409, 'width': 410, 'height': 409, 'widthPercent': 0.45, 'rescaleHeight': False, 'trialN': 45, 'loaded': True, 'loadedTime': 7018.5, 'positionName': 'RIGHT', 'positionCoords': [998.4, 335.5], 'bid': 0.16}]",102114.79999995232,1669833374557,froot loops w milk,luckycharms,0.15,0.16,0.010000000000000009,luckycharms,1674.6000001430511,1675,1675.6000001430511,True,i,104295.0,2180.2000000476837,1669833376737,2180,HRV,HRV_0202,2022-11-30 18:41:14
46,"[{'imgObject': {}, 'id': 'eggs', 'src': '/static/foodstim60/eggs.jpg', 'key': 'u', 'origWidth': 409, 'origHeight': 409, 'width': 409, 'height': 409, 'widthPercent': 0.45, 'rescaleHeight': False, 'trialN': 46, 'loaded': True, 'loadedTime': 6706.099999904633, 'positionName': 'LEFT', 'positionCoords': [512.6, 335.5], 'bid': 0.7000000000000001}, {'imgObject': {}, 'id': 'Grapes', 'src': '/static/foodstim60/Grapes.jpg', 'key': 'i', 'origWidth': 411, 'origHeight': 411, 'width': 411, 'height': 411, 'widthPercent': 0.45, 'rescaleHeight': False, 'trialN': 46, 'loaded': True, 'loadedTime': 3088.5999999046326, 'positionName': 'RIGHT', 'positionCoords': [998.4, 334.5], 'bid': 9.82}]",104295.70000004768,1669833376737,eggs,Grapes,0.7000000000000001,9.82,9.120000000000001,Grapes,1381.3999998569489,1383,1382.3999998569489,True,i,106194.40000009537,1898.7000000476837,1669833378636,1899,HRV,HRV_0202,2022-11-30 18:41:14
47,"[{'imgObject': {}, 'id': 'tacos', 'src': '/static/foodstim60/tacos.jpg', 'key': 'u', 'origWidth': 411, 'origHeight': 411, 'width': 411, 'height': 411, 'widthPercent': 0.45, 'rescaleHeight': False, 'trialN': 47, 'loaded': True, 'loadedTime': 3823.7000000476837, 'positionName': 'LEFT', 'positionCoords': [510.6, 334.5], 'bid': 6.2}, {'imgObject': {}, 'id': 'apple slices', 'src': '/static/foodstim60/apple slices.jpg', 'key': 'i', 'origWidth': 409, 'origHeight': 410, 'width': 409, 'height': 410, 'widthPercent': 0.45, 'rescaleHeight': False, 'trialN': 47, 'loaded': True, 'loadedTime': 4963, 'positionName': 'RIGHT', 'positionCoords': [998.4, 335], 'bid': 8.42}]",106194.59999990463,1669833378636,tacos,apple slices,6.2,8.42,2.2199999999999998,apple slices,1330.5,1332,1331.4000000953674,True,i,108028.20000004768,1833.6000001430511,1669833380470,1834,HRV,HRV_0202,2022-11-30 18:41:14
48,"[{'imgObject': {}, 'id': 'shreddedwheatwithmilk', 'src': '/static/foodstim60/shreddedwheatwithmilk.jpg', 'key': 'u', 'origWidth': 410, 'origHeight': 410, 'width': 410, 'height': 410, 'widthPercent': 0.45, 'rescaleHeight': False, 'trialN': 48, 'loaded': True, 'loadedTime': 3290.5, 'positionName': 'LEFT', 'positionCoords': [511.6, 335], 'bid': 0.15}, {'imgObject': {}, 'id': 'chicken nuggets2', 'src': '/static/foodstim60/chicken nuggets2.jpg', 'key': 'i', 'origWidth': 410, 'origHeight': 409, 'width': 410, 'height': 409, 'widthPercent': 0.45, 'rescaleHeight': False, 'trialN': 48, 'loaded': True, 'loadedTime': 5085.299999952316, 'positionName': 'RIGHT', 'positionCoords': [998.4, 335.5], 'bid': 0.15}]",108028.79999995232,1669833380471,shreddedwheatwithmilk,chicken nuggets2,0.15,0.15,0.0,chicken nuggets2,1865.2999999523163,1866,1866.2999999523163,True,i,110403.40000009537,2374.600000143051,1669833382845,2374,HRV,HRV_0202,2022-11-30 18:41:14
49,"[{'imgObject': {}, 'id': 'chickenfingers', 'src': '/static/foodstim60/chickenfingers.jpg', 'key': 'u', 'origWidth': 410, 'origHeight': 410, 'width': 410, 'height': 410, 'widthPercent': 0.45, 'rescaleHeight': False, 'trialN': 49, 'loaded': True, 'loadedTime': 5733.900000095367, 'positionName': 'LEFT', 'positionCoords': [511.6, 335], 'bid': 4.94}, {'imgObject': {}, 'id': 'omelette', 'src': '/static/foodstim60/omelette.jpg', 'key': 'i', 'origWidth': 410, 'origHeight': 409, 'width': 410, 'height': 409, 'widthPercent': 0.45, 'rescaleHeight': False, 'trialN': 49, 'loaded': True, 'loadedTime': 7022, 'positionName': 'RIGHT', 'positionCoords': [998.4, 335.5], 'bid': 3.92}]",110404.09999990463,1669833382846,chickenfingers,omelette,4.94,3.92,-1.0200000000000005,chickenfingers,1577.1000001430511,1578,1578.0,True,u,112494.90000009537,2090.800000190735,1669833384936,2090,HRV,HRV_0202,2022-11-30 18:41:14
50,"[{'imgObject': {}, 'id': 'raisin bran w milk', 'src': '/static/foodstim60/raisin bran w milk.jpg', 'key': 'u', 'origWidth': 411, 'origHeight': 411, 'width': 411, 'height': 411, 'widthPercent': 0.45, 'rescaleHeight': False, 'trialN': 50, 'loaded': True, 'loadedTime': 4986.5, 'positionName': 'LEFT', 'positionCoords': [510.6, 334.5], 'bid': 0.16}, {'imgObject': {}, 'id': 'sweetpotato', 'src': '/static/foodstim60/sweetpotato.jpg', 'key': 'i', 'origWidth': 410, 'origHeight': 410, 'width': 410, 'height': 410, 'widthPercent': 0.45, 'rescaleHeight': False, 'trialN': 50, 'loaded': True, 'loadedTime': 5858, 'positionName': 'RIGHT', 'positionCoords': [998.4, 335], 'bid': 0.17}]",112496.0,1669833384938,raisin bran w milk,sweetpotato,0.16,0.17,0.010000000000000009,raisin bran w milk,1549.5,1550,1550.2000000476837,True,u,114561.20000004768,2065.2000000476837,1669833387003,2065,HRV,HRV_0202,2022-11-30 18:41:14
51,"[{'imgObject': {}, 'id': 'corn cob', 'src': '/static/foodstim60/corn cob.jpg', 'key': 'u', 'origWidth': 411, 'origHeight': 411, 'width': 411, 'height': 411, 'widthPercent': 0.45, 'rescaleHeight': False, 'trialN': 51, 'loaded': True, 'loadedTime': 5662, 'positionName': 'LEFT', 'positionCoords': [510.6, 334.5], 'bid': 1.26}, {'imgObject': {}, 'id': 'strawberries', 'src': '/static/foodstim60/strawberries.jpg', 'key': 'i', 'origWidth': 410, 'origHeight': 410, 'width': 410, 'height': 410, 'widthPercent': 0.45, 'rescaleHeight': False, 'trialN': 51, 'loaded': True, 'loadedTime': 5171.200000047684, 'positionName': 'RIGHT', 'positionCoords': [998.4, 335], 'bid': 9.83}]",114561.79999995232,1669833387003,corn cob,strawberries,1.26,9.83,8.57,strawberries,1299.4000000953674,1301,1300.6000001430511,True,i,116367.70000004768,1805.9000000953674,1669833388809,1806,HRV,HRV_0202,2022-11-30 18:41:14
52,"[{'imgObject': {}, 'id': 'fried eggs', 'src': '/static/foodstim60/fried eggs.jpg', 'key': 'u', 'origWidth': 410, 'origHeight': 410, 'width': 410, 'height': 410, 'widthPercent': 0.45, 'rescaleHeight': False, 'trialN': 52, 'loaded': True, 'loadedTime': 4559.799999952316, 'positionName': 'LEFT', 'positionCoords': [511.6, 335], 'bid': 0.16}, {'imgObject': {}, 'id': 'eggsalad', 'src': '/static/foodstim60/eggsalad.jpg', 'key': 'i', 'origWidth': 410, 'origHeight': 409, 'width': 410, 'height': 409, 'widthPercent': 0.45, 'rescaleHeight': False, 'trialN': 52, 'loaded': True, 'loadedTime': 5087.700000047684, 'positionName': 'RIGHT', 'positionCoords': [998.4, 335.5], 'bid': 0.14}]",116368.70000004768,1669833388810,fried eggs,eggsalad,0.16,0.14,-0.01999999999999999,eggsalad,1789.2999999523163,1791,1790.7000000476837,True,i,118668.40000009537,2299.7000000476837,1669833391110,2300,HRV,HRV_0202,2022-11-30 18:41:14
53,"[{'imgObject': {}, 'id': 'bagel plain', 'src': '/static/foodstim60/bagel plain.jpg', 'key': 'u', 'origWidth': 410, 'origHeight': 410, 'width': 410, 'height': 410, 'widthPercent': 0.45, 'rescaleHeight': False, 'trialN': 53, 'loaded': True, 'loadedTime': 4819.400000095367, 'positionName': 'LEFT', 'positionCoords': [511.6, 335], 'bid': 0.15}, {'imgObject': {}, 'id': 'hotdog w must', 'src': '/static/foodstim60/hotdog w must.jpg', 'key': 'i', 'origWidth': 409, 'origHeight': 409, 'width': 409, 'height': 409, 'widthPercent': 0.45, 'rescaleHeight': False, 'trialN': 53, 'loaded': True, 'loadedTime': 5089.099999904633, 'positionName': 'RIGHT', 'positionCoords': [998.4, 335.5], 'bid': 0.15}]",118671.79999995232,1669833391113,bagel plain,hotdog w must,0.15,0.15,0.0,hotdog w must,1589.2000000476837,1590,1589.6000001430511,True,i,120768.5,2096.7000000476837,1669833393210,2097,HRV,HRV_0202,2022-11-30 18:41:14
54,"[{'imgObject': {}, 'id': 'raspberries', 'src': '/static/foodstim60/raspberries.jpg', 'key': 'u', 'origWidth': 411, 'origHeight': 411, 'width': 411, 'height': 411, 'widthPercent': 0.45, 'rescaleHeight': False, 'trialN': 54, 'loaded': True, 'loadedTime': 7031.700000047684, 'positionName': 'LEFT', 'positionCoords': [510.6, 334.5], 'bid': 9.8}, {'imgObject': {}, 'id': 'orange slices', 'src': '/static/foodstim60/orange slices.jpg', 'key': 'i', 'origWidth': 409, 'origHeight': 410, 'width': 409, 'height': 410, 'widthPercent': 0.45, 'rescaleHeight': False, 'trialN': 54, 'loaded': True, 'loadedTime': 2956.7999999523163, 'positionName': 'RIGHT', 'positionCoords': [998.4, 335], 'bid': 9.8}]",120769.20000004768,1669833393211,raspberries,orange slices,9.8,9.8,0.0,orange slices,1996.8999998569489,1998,1998.3999998569489,True,i,123288.90000009537,2519.7000000476837,1669833395730,2519,HRV,HRV_0202,2022-11-30 18:41:14
55,"[{'imgObject': {}, 'id': 'burrito', 'src': '/static/foodstim60/burrito.jpg', 'key': 'u', 'origWidth': 410, 'origHeight': 410, 'width': 410, 'height': 410, 'widthPercent': 0.45, 'rescaleHeight': False, 'trialN': 55, 'loaded': True, 'loadedTime': 6860.799999952316, 'positionName': 'LEFT', 'positionCoords': [511.6, 335], 'bid': 0.9}, {'imgObject': {}, 'id': 'rigatoni and sauce', 'src': '/static/foodstim60/rigatoni and sauce.jpg', 'key': 'i', 'origWidth': 410, 'origHeight': 411, 'width': 410, 'height': 411, 'widthPercent': 0.45, 'rescaleHeight': False, 'trialN': 55, 'loaded': True, 'loadedTime': 2790.0999999046326, 'positionName': 'RIGHT', 'positionCoords': [998.4, 334.5], 'bid': 0.77}]",123289.40000009537,1669833395731,burrito,rigatoni and sauce,0.9,0.77,-0.13,rigatoni and sauce,1940.6999998092651,1942,1942.0999999046326,True,i,125747.70000004768,2458.2999999523163,1669833398189,2458,HRV,HRV_0202,2022-11-30 18:41:14
56,"[{'imgObject': {}, 'id': 'yogurt no spoon', 'src': '/static/foodstim60/yogurt no spoon.jpg', 'key': 'u', 'origWidth': 411, 'origHeight': 410, 'width': 411, 'height': 410, 'widthPercent': 0.45, 'rescaleHeight': False, 'trialN': 56, 'loaded': True, 'loadedTime': 5525.900000095367, 'positionName': 'LEFT', 'positionCoords': [510.6, 335], 'bid': 6.16}, {'imgObject': {}, 'id': 'raspberries', 'src': '/static/foodstim60/raspberries.jpg', 'key': 'i', 'origWidth': 411, 'origHeight': 411, 'width': 411, 'height': 411, 'widthPercent': 0.45, 'rescaleHeight': False, 'trialN': 56, 'loaded': True, 'loadedTime': 7029.299999952316, 'positionName': 'RIGHT', 'positionCoords': [998.4, 334.5], 'bid': 9.8}]",125750.79999995232,1669833398192,yogurt no spoon,raspberries,6.16,9.8,3.6400000000000006,raspberries,1718.7000000476837,1720,1719.5,True,i,127981.0,2230.2000000476837,1669833400423,2231,HRV,HRV_0202,2022-11-30 18:41:14
57,"[{'imgObject': {}, 'id': 'rigatoni', 'src': '/static/foodstim60/rigatoni.jpg', 'key': 'u', 'origWidth': 411, 'origHeight': 411, 'width': 411, 'height': 411, 'widthPercent': 0.45, 'rescaleHeight': False, 'trialN': 57, 'loaded': True, 'loadedTime': 5143.400000095367, 'positionName': 'LEFT', 'positionCoords': [510.6, 334.5], 'bid': 0.15}, {'imgObject': {}, 'id': 'roastedpotatoes', 'src': '/static/foodstim60/roastedpotatoes.jpg', 'key': 'i', 'origWidth': 409, 'origHeight': 410, 'width': 409, 'height': 410, 'widthPercent': 0.45, 'rescaleHeight': False, 'trialN': 57, 'loaded': True, 'loadedTime': 5273.799999952316, 'positionName': 'RIGHT', 'positionCoords': [998.4, 335], 'bid': 5.19}]",127981.79999995232,1669833400423,rigatoni,roastedpotatoes,0.15,5.19,5.04,roastedpotatoes,1575.7999999523163,1577,1576.7000000476837,True,i,130081.0,2099.2000000476837,1669833402523,2100,HRV,HRV_0202,2022-11-30 18:41:14
58,"[{'imgObject': {}, 'id': 'turkeysandwich', 'src': '/static/foodstim60/turkeysandwich.jpg', 'key': 'u', 'origWidth': 409, 'origHeight': 409, 'width': 409, 'height': 409, 'widthPercent': 0.45, 'rescaleHeight': False, 'trialN': 58, 'loaded': True, 'loadedTime': 4932.900000095367, 'positionName': 'LEFT', 'positionCoords': [512.6, 335.5], 'bid': 8.09}, {'imgObject': {}, 'id': 'Grapes', 'src': '/static/foodstim60/Grapes.jpg', 'key': 'i', 'origWidth': 411, 'origHeight': 411, 'width': 411, 'height': 411, 'widthPercent': 0.45, 'rescaleHeight': False, 'trialN': 58, 'loaded': True, 'loadedTime': 3089.0999999046326, 'positionName': 'RIGHT', 'positionCoords': [998.4, 334.5], 'bid': 9.82}]",130081.79999995232,1669833402523,turkeysandwich,Grapes,8.09,9.82,1.7300000000000004,Grapes,2077.2000000476837,2079,2078.7999999523163,True,i,132681.5,2599.7000000476837,1669833405123,2600,HRV,HRV_0202,2022-11-30 18:41:14
59,"[{'imgObject': {}, 'id': 'bagel and cc', 'src': '/static/foodstim60/bagel and cc.jpg', 'key': 'u', 'origWidth': 410, 'origHeight': 410, 'width': 410, 'height': 410, 'widthPercent': 0.45, 'rescaleHeight': False, 'trialN': 59, 'loaded': True, 'loadedTime': 6859.700000047684, 'positionName': 'LEFT', 'positionCoords': [511.6, 335], 'bid': 0.15}, {'imgObject': {}, 'id': 'hashbrowns', 'src': '/static/foodstim60/hashbrowns.jpg', 'key': 'i', 'origWidth': 411, 'origHeight': 410, 'width': 411, 'height': 410, 'widthPercent': 0.45, 'rescaleHeight': False, 'trialN': 59, 'loaded': True, 'loadedTime': 2909.4000000953674, 'positionName': 'RIGHT', 'positionCoords': [998.4, 335], 'bid': 0.15}]",132682.90000009537,1669833405124,bagel and cc,hashbrowns,0.15,0.15,0.0,bagel and cc,1811.1999998092651,1813,1812.5999999046326,True,u,135012.40000009537,2329.5,1669833407454,2330,HRV,HRV_0202,2022-11-30 18:41:14
60,"[{'imgObject': {}, 'id': 'orange slices', 'src': '/static/foodstim60/orange slices.jpg', 'key': 'u', 'origWidth': 409, 'origHeight': 410, 'width': 409, 'height': 410, 'widthPercent': 0.45, 'rescaleHeight': False, 'trialN': 60, 'loaded': True, 'loadedTime': 3005.7999999523163, 'positionName': 'LEFT', 'positionCoords': [512.6, 335], 'bid': 9.8}, {'imgObject': {}, 'id': 'cocktailshrimp', 'src': '/static/foodstim60/cocktailshrimp.jpg', 'key': 'i', 'origWidth': 410, 'origHeight': 410, 'width': 410, 'height': 410, 'widthPercent': 0.45, 'rescaleHeight': False, 'trialN': 60, 'loaded': True, 'loadedTime': 7039.099999904633, 'positionName': 'RIGHT', 'positionCoords': [998.4, 335], 'bid': 9.8}]",135013.40000009537,1669833407455,orange slices,cocktailshrimp,9.8,9.8,0.0,cocktailshrimp,1720.0999999046326,1721,1721.0,True,i,137245.90000009537,2232.5,1669833409688,2233,HRV,HRV_0202,2022-11-30 18:41:14
61,"[{'imgObject': {}, 'id': 'froot loops w milk', 'src': '/static/foodstim60/froot loops w milk.jpg', 'key': 'u', 'origWidth': 410, 'origHeight': 410, 'width': 410, 'height': 410, 'widthPercent': 0.45, 'rescaleHeight': False, 'trialN': 61, 'loaded': True, 'loadedTime': 3822.5999999046326, 'positionName': 'LEFT', 'positionCoords': [511.6, 335], 'bid': 0.15}, {'imgObject': {}, 'id': 'burrito', 'src': '/static/foodstim60/burrito.jpg', 'key': 'i', 'origWidth': 410, 'origHeight': 410, 'width': 410, 'height': 410, 'widthPercent': 0.45, 'rescaleHeight': False, 'trialN': 61, 'loaded': True, 'loadedTime': 6886, 'positionName': 'RIGHT', 'positionCoords': [998.4, 335], 'bid': 0.9}]",137246.40000009537,1669833409688,froot loops w milk,burrito,0.15,0.9,0.75,burrito,1622.6999998092651,1624,1624.0,True,i,139378.09999990463,2131.699999809265,1669833411820,2132,HRV,HRV_0202,2022-11-30 18:41:14
62,"[{'imgObject': {}, 'id': 'turkeysandwich', 'src': '/static/foodstim60/turkeysandwich.jpg', 'key': 'u', 'origWidth': 409, 'origHeight': 409, 'width': 409, 'height': 409, 'widthPercent': 0.45, 'rescaleHeight': False, 'trialN': 62, 'loaded': True, 'loadedTime': 4932.099999904633, 'positionName': 'LEFT', 'positionCoords': [512.6, 335.5], 'bid': 8.09}, {'imgObject': {}, 'id': 'raspberries', 'src': '/static/foodstim60/raspberries.jpg', 'key': 'i', 'origWidth': 411, 'origHeight': 411, 'width': 411, 'height': 411, 'widthPercent': 0.45, 'rescaleHeight': False, 'trialN': 62, 'loaded': True, 'loadedTime': 7025.299999952316, 'positionName': 'RIGHT', 'positionCoords': [998.4, 334.5], 'bid': 9.8}]",139378.79999995232,1669833411820,turkeysandwich,raspberries,8.09,9.8,1.7100000000000009,raspberries,1738.5,1740,1739.2999999523163,True,i,141628.70000004768,2249.9000000953674,1669833414070,2250,HRV,HRV_0202,2022-11-30 18:41:14
63,"[{'imgObject': {}, 'id': 'mango', 'src': '/static/foodstim60/mango.jpg', 'key': 'u', 'origWidth': 411, 'origHeight': 411, 'width': 411, 'height': 411, 'widthPercent': 0.45, 'rescaleHeight': False, 'trialN': 63, 'loaded': True, 'loadedTime': 3116.2999999523163, 'positionName': 'LEFT', 'positionCoords': [510.6, 334.5], 'bid': 9.14}, {'imgObject': {}, 'id': 'salmon', 'src': '/static/foodstim60/salmon.jpg', 'key': 'i', 'origWidth': 410, 'origHeight': 409, 'width': 410, 'height': 409, 'widthPercent': 0.45, 'rescaleHeight': False, 'trialN': 63, 'loaded': True, 'loadedTime': 3601.9000000953674, 'positionName': 'RIGHT', 'positionCoords': [998.4, 335.5], 'bid': 9.26}]",141629.29999995232,1669833414071,mango,salmon,9.14,9.26,0.11999999999999922,salmon,1648.6000001430511,1649,1649.5,True,i,143796.40000009537,2167.100000143051,1669833416238,2167,HRV,HRV_0202,2022-11-30 18:41:14
64,"[{'imgObject': {}, 'id': 'tacos', 'src': '/static/foodstim60/tacos.jpg', 'key': 'u', 'origWidth': 411, 'origHeight': 411, 'width': 411, 'height': 411, 'widthPercent': 0.45, 'rescaleHeight': False, 'trialN': 64, 'loaded': True, 'loadedTime': 4365.5, 'positionName': 'LEFT', 'positionCoords': [510.6, 334.5], 'bid': 6.2}, {'imgObject': {}, 'id': 'mashed potato', 'src': '/static/foodstim60/mashed potato.jpg', 'key': 'i', 'origWidth': 409, 'origHeight': 409, 'width': 409, 'height': 409, 'widthPercent': 0.45, 'rescaleHeight': False, 'trialN': 64, 'loaded': True, 'loadedTime': 7039.900000095367, 'positionName': 'RIGHT', 'positionCoords': [998.4, 335.5], 'bid': 6.33}]",143797.20000004768,1669833416239,tacos,mashed potato,6.2,6.33,0.1299999999999999,mashed potato,1481.0,1483,1482.7000000476837,True,i,145791.5,1994.2999999523163,1669833418233,1994,HRV,HRV_0202,2022-11-30 18:41:14
65,"[{'imgObject': {}, 'id': 'omelette', 'src': '/static/foodstim60/omelette.jpg', 'key': 'u', 'origWidth': 410, 'origHeight': 409, 'width': 410, 'height': 409, 'widthPercent': 0.45, 'rescaleHeight': False, 'trialN': 65, 'loaded': True, 'loadedTime': 7023.900000095367, 'positionName': 'LEFT', 'positionCoords': [511.6, 335.5], 'bid': 3.92}, {'imgObject': {}, 'id': 'edamame', 'src': '/static/foodstim60/edamame.jpg', 'key': 'i', 'origWidth': 409, 'origHeight': 410, 'width': 409, 'height': 410, 'widthPercent': 0.45, 'rescaleHeight': False, 'trialN': 65, 'loaded': True, 'loadedTime': 4721.799999952316, 'positionName': 'RIGHT', 'positionCoords': [998.4, 335], 'bid': 0.13}]",145794.29999995232,1669833418236,omelette,edamame,3.92,0.13,-3.79,omelette,1444.0,1445,1445.6000001430511,True,u,147750.5,1956.2000000476837,1669833420192,1956,HRV,HRV_0202,2022-11-30 18:41:14
66,"[{'imgObject': {}, 'id': 'fried eggs', 'src': '/static/foodstim60/fried eggs.jpg', 'key': 'u', 'origWidth': 410, 'origHeight': 410, 'width': 410, 'height': 410, 'widthPercent': 0.45, 'rescaleHeight': False, 'trialN': 66, 'loaded': True, 'loadedTime': 4560.099999904633, 'positionName': 'LEFT', 'positionCoords': [511.6, 335], 'bid': 0.16}, {'imgObject': {}, 'id': 'lox', 'src': '/static/foodstim60/lox.jpg', 'key': 'i', 'origWidth': 410, 'origHeight': 411, 'width': 410, 'height': 411, 'widthPercent': 0.45, 'rescaleHeight': False, 'trialN': 66, 'loaded': True, 'loadedTime': 5427.599999904633, 'positionName': 'RIGHT', 'positionCoords': [998.4, 334.5], 'bid': 0.18}]",147752.40000009537,1669833420194,fried eggs,lox,0.16,0.18,0.01999999999999999,lox,1598.0999999046326,1601,1600.5999999046326,True,i,149871.40000009537,2119.0,1669833422313,2119,HRV,HRV_0202,2022-11-30 18:41:14
67,"[{'imgObject': {}, 'id': 'avocado', 'src': '/static/foodstim60/avocado.jpg', 'key': 'u', 'origWidth': 409, 'origHeight': 409, 'width': 409, 'height': 409, 'widthPercent': 0.45, 'rescaleHeight': False, 'trialN': 67, 'loaded': True, 'loadedTime': 5595.400000095367, 'positionName': 'LEFT', 'positionCoords': [512.6, 335.5], 'bid': 0.16}, {'imgObject': {}, 'id': 'banana', 'src': '/static/foodstim60/banana.jpg', 'key': 'i', 'origWidth': 410, 'origHeight': 410, 'width': 410, 'height': 410, 'widthPercent': 0.45, 'rescaleHeight': False, 'trialN': 67, 'loaded': True, 'loadedTime': 3341.2000000476837, 'positionName': 'RIGHT', 'positionCoords': [998.4, 335], 'bid': 9.25}]",149872.40000009537,1669833422314,avocado,banana,0.16,9.25,9.09,banana,1501.0999999046326,1502,1502.0999999046326,True,i,151880.40000009537,2008.0,1669833424322,2008,HRV,HRV_0202,2022-11-30 18:41:14
68,"[{'imgObject': {}, 'id': 'strawberries', 'src': '/static/foodstim60/strawberries.jpg', 'key': 'u', 'origWidth': 410, 'origHeight': 410, 'width': 410, 'height': 410, 'widthPercent': 0.45, 'rescaleHeight': False, 'trialN': 68, 'loaded': True, 'loadedTime': 5197.700000047684, 'positionName': 'LEFT', 'positionCoords': [511.6, 335], 'bid': 9.83}, {'imgObject': {}, 'id': 'steak', 'src': '/static/foodstim60/steak.jpg', 'key': 'i', 'origWidth': 410, 'origHeight': 410, 'width': 410, 'height': 410, 'widthPercent': 0.45, 'rescaleHeight': False, 'trialN': 68, 'loaded': True, 'loadedTime': 3404.4000000953674, 'positionName': 'RIGHT', 'positionCoords': [998.4, 335], 'bid': 9.82}]",151881.5,1669833424323,strawberries,steak,9.83,9.82,-0.009999999999999787,strawberries,1932.7000000476837,1934,1933.9000000953674,True,u,154333.5,2452.0,1669833426775,2452,HRV,HRV_0202,2022-11-30 18:41:14
69,"[{'imgObject': {}, 'id': 'cherry tomato', 'src': '/static/foodstim60/cherry tomato.jpg', 'key': 'u', 'origWidth': 410, 'origHeight': 410, 'width': 410, 'height': 410, 'widthPercent': 0.45, 'rescaleHeight': False, 'trialN': 69, 'loaded': True, 'loadedTime': 5921.299999952316, 'positionName': 'LEFT', 'positionCoords': [511.6, 335], 'bid': 0.16}, {'imgObject': {}, 'id': 'salad w chicken', 'src': '/static/foodstim60/salad w chicken.jpg', 'key': 'i', 'origWidth': 411, 'origHeight': 411, 'width': 411, 'height': 411, 'widthPercent': 0.45, 'rescaleHeight': False, 'trialN': 69, 'loaded': True, 'loadedTime': 6411, 'positionName': 'RIGHT', 'positionCoords': [998.4, 334.5], 'bid': 8.71}]",154333.79999995232,1669833426775,cherry tomato,salad w chicken,0.16,8.71,8.55,salad w chicken,1320.2000000476837,1322,1321.9000000953674,True,i,156164.70000004768,1830.9000000953674,1669833428606,1831,HRV,HRV_0202,2022-11-30 18:41:14
70,"[{'imgObject': {}, 'id': 'grilled chicken strips', 'src': '/static/foodstim60/grilled chicken strips.jpg', 'key': 'u', 'origWidth': 410, 'origHeight': 411, 'width': 410, 'height': 411, 'widthPercent': 0.45, 'rescaleHeight': False, 'trialN': 70, 'loaded': True, 'loadedTime': 7124.599999904633, 'positionName': 'LEFT', 'positionCoords': [511.6, 334.5], 'bid': 8.47}, {'imgObject': {}, 'id': 'mac & cheese', 'src': '/static/foodstim60/mac & cheese.jpg', 'key': 'i', 'origWidth': 410, 'origHeight': 410, 'width': 410, 'height': 410, 'widthPercent': 0.45, 'rescaleHeight': False, 'trialN': 70, 'loaded': True, 'loadedTime': 7136.299999952316, 'positionName': 'RIGHT', 'positionCoords': [998.4, 335], 'bid': 8.19}]",156168.40000009537,1669833428610,grilled chicken strips,mac & cheese,8.47,8.19,-0.28000000000000114,grilled chicken strips,1573.6999998092651,1575,1575.2999999523163,True,u,158266.29999995232,2097.899999856949,1669833430708,2098,HRV,HRV_0202,2022-11-30 18:41:14
71,"[{'imgObject': {}, 'id': 'blackbeanswithrice', 'src': '/static/foodstim60/blackbeanswithrice.jpg', 'key': 'u', 'origWidth': 410, 'origHeight': 410, 'width': 410, 'height': 410, 'widthPercent': 0.45, 'rescaleHeight': False, 'trialN': 71, 'loaded': True, 'loadedTime': 5643.5, 'positionName': 'LEFT', 'positionCoords': [511.6, 335], 'bid': 0.14}, {'imgObject': {}, 'id': 'shreddedwheatwithmilk', 'src': '/static/foodstim60/shreddedwheatwithmilk.jpg', 'key': 'i', 'origWidth': 410, 'origHeight': 410, 'width': 410, 'height': 410, 'widthPercent': 0.45, 'rescaleHeight': False, 'trialN': 71, 'loaded': True, 'loadedTime': 3262.9000000953674, 'positionName': 'RIGHT', 'positionCoords': [998.4, 335], 'bid': 0.15}]",158267.29999995232,1669833430709,blackbeanswithrice,shreddedwheatwithmilk,0.14,0.15,0.009999999999999981,blackbeanswithrice,1546.2999999523163,1547,1547.4000000953674,True,u,160332.59999990463,2065.2999999523163,1669833432774,2065,HRV,HRV_0202,2022-11-30 18:41:14
72,"[{'imgObject': {}, 'id': 'raspberries', 'src': '/static/foodstim60/raspberries.jpg', 'key': 'u', 'origWidth': 411, 'origHeight': 411, 'width': 411, 'height': 411, 'widthPercent': 0.45, 'rescaleHeight': False, 'trialN': 72, 'loaded': True, 'loadedTime': 7027.099999904633, 'positionName': 'LEFT', 'positionCoords': [510.6, 334.5], 'bid': 9.8}, {'imgObject': {}, 'id': 'granola w milk', 'src': '/static/foodstim60/granola w milk.jpg', 'key': 'i', 'origWidth': 410, 'origHeight': 410, 'width': 410, 'height': 410, 'widthPercent': 0.45, 'rescaleHeight': False, 'trialN': 72, 'loaded': True, 'loadedTime': 5864.400000095367, 'positionName': 'RIGHT', 'positionCoords': [998.4, 335], 'bid': 0.17}]",160333.20000004768,1669833432775,raspberries,granola w milk,9.8,0.17,-9.63,raspberries,1272.0999999046326,1273,1273.0,True,u,162114.20000004768,1781.0,1669833434556,1781,HRV,HRV_0202,2022-11-30 18:41:14
73,"[{'imgObject': {}, 'id': 'chickenfingers', 'src': '/static/foodstim60/chickenfingers.jpg', 'key': 'u', 'origWidth': 410, 'origHeight': 410, 'width': 410, 'height': 410, 'widthPercent': 0.45, 'rescaleHeight': False, 'trialN': 73, 'loaded': True, 'loadedTime': 5727.5, 'positionName': 'LEFT', 'positionCoords': [511.6, 335], 'bid': 4.94}, {'imgObject': {}, 'id': 'blackbeanswithrice', 'src': '/static/foodstim60/blackbeanswithrice.jpg', 'key': 'i', 'origWidth': 410, 'origHeight': 410, 'width': 410, 'height': 410, 'widthPercent': 0.45, 'rescaleHeight': False, 'trialN': 73, 'loaded': True, 'loadedTime': 5610.799999952316, 'positionName': 'RIGHT', 'positionCoords': [998.4, 335], 'bid': 0.14}]",162114.79999995232,1669833434556,chickenfingers,blackbeanswithrice,4.94,0.14,-4.800000000000001,chickenfingers,1474.5,1476,1475.2999999523163,True,u,164096.59999990463,1981.7999999523163,1669833436538,1982,HRV,HRV_0202,2022-11-30 18:41:14
74,"[{'imgObject': {}, 'id': 'omelette', 'src': '/static/foodstim60/omelette.jpg', 'key': 'u', 'origWidth': 410, 'origHeight': 409, 'width': 410, 'height': 409, 'widthPercent': 0.45, 'rescaleHeight': False, 'trialN': 74, 'loaded': True, 'loadedTime': 7024.700000047684, 'positionName': 'LEFT', 'positionCoords': [511.6, 335.5], 'bid': 3.92}, {'imgObject': {}, 'id': 'granola w milk', 'src': '/static/foodstim60/granola w milk.jpg', 'key': 'i', 'origWidth': 410, 'origHeight': 410, 'width': 410, 'height': 410, 'widthPercent': 0.45, 'rescaleHeight': False, 'trialN': 74, 'loaded': True, 'loadedTime': 5870.900000095367, 'positionName': 'RIGHT', 'positionCoords': [998.4, 335], 'bid': 0.17}]",164097.29999995232,1669833436539,omelette,granola w milk,3.92,0.17,-3.75,omelette,1411.6000001430511,1412,1412.0,True,u,166017.09999990463,1919.7999999523163,1669833438459,1920,HRV,HRV_0202,2022-11-30 18:41:14
75,"[{'imgObject': {}, 'id': 'bagel plain', 'src': '/static/foodstim60/bagel plain.jpg', 'key': 'u', 'origWidth': 410, 'origHeight': 410, 'width': 410, 'height': 410, 'widthPercent': 0.45, 'rescaleHeight': False, 'trialN': 75, 'loaded': True, 'loadedTime': 4904.900000095367, 'positionName': 'LEFT', 'positionCoords': [511.6, 335], 'bid': 0.15}, {'imgObject': {}, 'id': 'popsicles', 'src': '/static/foodstim60/popsicles.jpg', 'key': 'i', 'origWidth': 410, 'origHeight': 410, 'width': 410, 'height': 410, 'widthPercent': 0.45, 'rescaleHeight': False, 'trialN': 75, 'loaded': True, 'loadedTime': 7236.5, 'positionName': 'RIGHT', 'positionCoords': [998.4, 335], 'bid': 0.15}]",166017.79999995232,1669833438459,bagel plain,popsicles,0.15,0.15,0.0,bagel plain,1555.2999999523163,1557,1556.5,True,u,168082.5,2064.7000000476837,1669833440524,2065,HRV,HRV_0202,2022-11-30 18:41:14
76,"[{'imgObject': {}, 'id': 'seaweed', 'src': '/static/foodstim60/seaweed.jpg', 'key': 'u', 'origWidth': 410, 'origHeight': 410, 'width': 410, 'height': 410, 'widthPercent': 0.45, 'rescaleHeight': False, 'trialN': 76, 'loaded': True, 'loadedTime': 3034, 'positionName': 'LEFT', 'positionCoords': [511.6, 335], 'bid': 0.15}, {'imgObject': {}, 'id': 'popsicles', 'src': '/static/foodstim60/popsicles.jpg', 'key': 'i', 'origWidth': 410, 'origHeight': 410, 'width': 410, 'height': 410, 'widthPercent': 0.45, 'rescaleHeight': False, 'trialN': 76, 'loaded': True, 'loadedTime': 7235.299999952316, 'positionName': 'RIGHT', 'positionCoords': [998.4, 335], 'bid': 0.15}]",168084.0,1669833440526,seaweed,popsicles,0.15,0.15,0.0,popsicles,1401.4000000953674,1402,1402.2000000476837,True,i,169996.79999995232,1912.7999999523163,1669833442438,1912,HRV,HRV_0202,2022-11-30 18:41:14
77,"[{'imgObject': {}, 'id': 'cocktailshrimp', 'src': '/static/foodstim60/cocktailshrimp.jpg', 'key': 'u', 'origWidth': 410, 'origHeight': 410, 'width': 410, 'height': 410, 'widthPercent': 0.45, 'rescaleHeight': False, 'trialN': 77, 'loaded': True, 'loadedTime': 7037.599999904633, 'positionName': 'LEFT', 'positionCoords': [511.6, 335], 'bid': 9.8}, {'imgObject': {}, 'id': 'roastedpotatoes', 'src': '/static/foodstim60/roastedpotatoes.jpg', 'key': 'i', 'origWidth': 409, 'origHeight': 410, 'width': 409, 'height': 410, 'widthPercent': 0.45, 'rescaleHeight': False, 'trialN': 77, 'loaded': True, 'loadedTime': 5275.200000047684, 'positionName': 'RIGHT', 'positionCoords': [998.4, 335], 'bid': 5.19}]",169997.40000009537,1669833442439,cocktailshrimp,roastedpotatoes,9.8,5.19,-4.61,cocktailshrimp,1455.6999998092651,1456,1456.2999999523163,True,u,171963.79999995232,1966.3999998569489,1669833444405,1966,HRV,HRV_0202,2022-11-30 18:41:14
78,"[{'imgObject': {}, 'id': 'rigatoni', 'src': '/static/foodstim60/rigatoni.jpg', 'key': 'u', 'origWidth': 411, 'origHeight': 411, 'width': 411, 'height': 411, 'widthPercent': 0.45, 'rescaleHeight': False, 'trialN': 78, 'loaded': True, 'loadedTime': 5131.099999904633, 'positionName': 'LEFT', 'positionCoords': [510.6, 334.5], 'bid': 0.15}, {'imgObject': {}, 'id': 'bagel and cc', 'src': '/static/foodstim60/bagel and cc.jpg', 'key': 'i', 'origWidth': 410, 'origHeight': 410, 'width': 410, 'height': 410, 'widthPercent': 0.45, 'rescaleHeight': False, 'trialN': 78, 'loaded': True, 'loadedTime': 6859.5, 'positionName': 'RIGHT', 'positionCoords': [998.4, 335], 'bid': 0.15}]",171964.09999990463,1669833444406,rigatoni,bagel and cc,0.15,0.15,0.0,bagel and cc,1825.3000001907349,1816,1826.1000001430511,True,i,174297.20000004768,2333.100000143051,1669833446729,2323,HRV,HRV_0202,2022-11-30 18:41:14
79,"[{'imgObject': {}, 'id': 'cherries', 'src': '/static/foodstim60/cherries.jpg', 'key': 'u', 'origWidth': 410, 'origHeight': 411, 'width': 410, 'height': 411, 'widthPercent': 0.45, 'rescaleHeight': False, 'trialN': 79, 'loaded': True, 'loadedTime': 7213.099999904633, 'positionName': 'LEFT', 'positionCoords': [511.6, 334.5], 'bid': 9.82}, {'imgObject': {}, 'id': 'sushi w_condiments', 'src': '/static/foodstim60/sushi w_condiments.jpg', 'key': 'i', 'origWidth': 410, 'origHeight': 410, 'width': 410, 'height': 410, 'widthPercent': 0.45, 'rescaleHeight': False, 'trialN': 79, 'loaded': True, 'loadedTime': 5716.299999952316, 'positionName': 'RIGHT', 'positionCoords': [998.4, 335], 'bid': 6.42}]",174299.70000004768,1669833446731,cherries,sushi w_condiments,9.82,6.42,-3.4000000000000004,cherries,1354.0999999046326,1355,1354.7000000476837,True,u,176164.79999995232,1865.0999999046326,1669833448596,1865,HRV,HRV_0202,2022-11-30 18:41:14
80,"[{'imgObject': {}, 'id': 'strawberries', 'src': '/static/foodstim60/strawberries.jpg', 'key': 'u', 'origWidth': 410, 'origHeight': 410, 'width': 410, 'height': 410, 'widthPercent': 0.45, 'rescaleHeight': False, 'trialN': 80, 'loaded': True, 'loadedTime': 5198, 'positionName': 'LEFT', 'positionCoords': [511.6, 335], 'bid': 9.83}, {'imgObject': {}, 'id': 'fruitsalad', 'src': '/static/foodstim60/fruitsalad.jpg', 'key': 'i', 'origWidth': 410, 'origHeight': 410, 'width': 410, 'height': 410, 'widthPercent': 0.45, 'rescaleHeight': False, 'trialN': 80, 'loaded': True, 'loadedTime': 3636.2000000476837, 'positionName': 'RIGHT', 'positionCoords': [998.4, 335], 'bid': 9.83}]",176164.90000009537,1669833448597,strawberries,fruitsalad,9.83,9.83,0.0,fruitsalad,1680.5999999046326,1681,1681.3999998569489,True,i,178347.70000004768,2182.7999999523163,1669833450779,2182,HRV,HRV_0202,2022-11-30 18:41:14
81,"[{'imgObject': {}, 'id': 'popsicles', 'src': '/static/foodstim60/popsicles.jpg', 'key': 'u', 'origWidth': 410, 'origHeight': 410, 'width': 410, 'height': 410, 'widthPercent': 0.45, 'rescaleHeight': False, 'trialN': 81, 'loaded': True, 'loadedTime': 7237.5, 'positionName': 'LEFT', 'positionCoords': [511.6, 335], 'bid': 0.15}, {'imgObject': {}, 'id': 'raisin bran w milk', 'src': '/static/foodstim60/raisin bran w milk.jpg', 'key': 'i', 'origWidth': 411, 'origHeight': 411, 'width': 411, 'height': 411, 'widthPercent': 0.45, 'rescaleHeight': False, 'trialN': 81, 'loaded': True, 'loadedTime': 5024.400000095367, 'positionName': 'RIGHT', 'positionCoords': [998.4, 334.5], 'bid': 0.16}]",178348.5,1669833450780,popsicles,raisin bran w milk,0.15,0.16,0.010000000000000009,raisin bran w milk,1432.9000000953674,1434,1433.5,True,i,180288.40000009537,1939.9000000953674,1669833452720,1940,HRV,HRV_0202,2022-11-30 18:41:14
82,"[{'imgObject': {}, 'id': 'chicken nuggets2', 'src': '/static/foodstim60/chicken nuggets2.jpg', 'key': 'u', 'origWidth': 410, 'origHeight': 409, 'width': 410, 'height': 409, 'widthPercent': 0.45, 'rescaleHeight': False, 'trialN': 82, 'loaded': True, 'loadedTime': 5085.5, 'positionName': 'LEFT', 'positionCoords': [511.6, 335.5], 'bid': 0.15}, {'imgObject': {}, 'id': 'hashbrowns', 'src': '/static/foodstim60/hashbrowns.jpg', 'key': 'i', 'origWidth': 411, 'origHeight': 410, 'width': 411, 'height': 410, 'widthPercent': 0.45, 'rescaleHeight': False, 'trialN': 82, 'loaded': True, 'loadedTime': 2881.4000000953674, 'positionName': 'RIGHT', 'positionCoords': [998.4, 335], 'bid': 0.15}]",180289.09999990463,1669833452721,chicken nuggets2,hashbrowns,0.15,0.15,0.0,chicken nuggets2,1611.6000001430511,1612,1612.2000000476837,True,u,182414.59999990463,2125.5,1669833454846,2125,HRV,HRV_0202,2022-11-30 18:41:14
83,"[{'imgObject': {}, 'id': 'luckycharms', 'src': '/static/foodstim60/luckycharms.jpg', 'key': 'u', 'origWidth': 410, 'origHeight': 409, 'width': 410, 'height': 409, 'widthPercent': 0.45, 'rescaleHeight': False, 'trialN': 83, 'loaded': True, 'loadedTime': 7006.700000047684, 'positionName': 'LEFT', 'positionCoords': [511.6, 335.5], 'bid': 0.16}, {'imgObject': {}, 'id': 'shreddedwheatwithmilk', 'src': '/static/foodstim60/shreddedwheatwithmilk.jpg', 'key': 'i', 'origWidth': 410, 'origHeight': 410, 'width': 410, 'height': 410, 'widthPercent': 0.45, 'rescaleHeight': False, 'trialN': 83, 'loaded': True, 'loadedTime': 3262.7000000476837, 'positionName': 'RIGHT', 'positionCoords': [998.4, 335], 'bid': 0.15}]",182415.20000004768,1669833454847,luckycharms,shreddedwheatwithmilk,0.16,0.15,-0.010000000000000009,shreddedwheatwithmilk,1302.0999999046326,1303,1302.8999998569489,True,i,184230.79999995232,1815.5999999046326,1669833456662,1815,HRV,HRV_0202,2022-11-30 18:41:14
84,"[{'imgObject': {}, 'id': 'orange slices', 'src': '/static/foodstim60/orange slices.jpg', 'key': 'u', 'origWidth': 409, 'origHeight': 410, 'width': 409, 'height': 410, 'widthPercent': 0.45, 'rescaleHeight': False, 'trialN': 84, 'loaded': True, 'loadedTime': 2983.2999999523163, 'positionName': 'LEFT', 'positionCoords': [512.6, 335], 'bid': 9.8}, {'imgObject': {}, 'id': 'mac & cheese', 'src': '/static/foodstim60/mac & cheese.jpg', 'key': 'i', 'origWidth': 410, 'origHeight': 410, 'width': 410, 'height': 410, 'widthPercent': 0.45, 'rescaleHeight': False, 'trialN': 84, 'loaded': True, 'loadedTime': 7126.5, 'positionName': 'RIGHT', 'positionCoords': [998.4, 335], 'bid': 8.19}]",184231.5,1669833456663,orange slices,mac & cheese,9.8,8.19,-1.6100000000000012,orange slices,1894.2000000476837,1895,1895.0999999046326,True,u,186650.09999990463,2418.5999999046326,1669833459082,2419,HRV,HRV_0202,2022-11-30 18:41:14
85,"[{'imgObject': {}, 'id': 'steak', 'src': '/static/foodstim60/steak.jpg', 'key': 'u', 'origWidth': 410, 'origHeight': 410, 'width': 410, 'height': 410, 'widthPercent': 0.45, 'rescaleHeight': False, 'trialN': 85, 'loaded': True, 'loadedTime': 3368, 'positionName': 'LEFT', 'positionCoords': [511.6, 335], 'bid': 9.82}, {'imgObject': {}, 'id': 'mac & cheese', 'src': '/static/foodstim60/mac & cheese.jpg', 'key': 'i', 'origWidth': 410, 'origHeight': 410, 'width': 410, 'height': 410, 'widthPercent': 0.45, 'rescaleHeight': False, 'trialN': 85, 'loaded': True, 'loadedTime': 7137.200000047684, 'positionName': 'RIGHT', 'positionCoords': [998.4, 335], 'bid': 8.19}]",186650.90000009537,1669833459082,steak,mac & cheese,9.82,8.19,-1.6300000000000008,steak,1770.6999998092651,1772,1771.3999998569489,True,u,188930.70000004768,2279.7999999523163,1669833461362,2280,HRV,HRV_0202,2022-11-30 18:41:14
86,"[{'imgObject': {}, 'id': 'hotdog w must', 'src': '/static/foodstim60/hotdog w must.jpg', 'key': 'u', 'origWidth': 409, 'origHeight': 409, 'width': 409, 'height': 409, 'widthPercent': 0.45, 'rescaleHeight': False, 'trialN': 86, 'loaded': True, 'loadedTime': 5088.099999904633, 'positionName': 'LEFT', 'positionCoords': [512.6, 335.5], 'bid': 0.15}, {'imgObject': {}, 'id': 'tacos', 'src': '/static/foodstim60/tacos.jpg', 'key': 'i', 'origWidth': 411, 'origHeight': 411, 'width': 411, 'height': 411, 'widthPercent': 0.45, 'rescaleHeight': False, 'trialN': 86, 'loaded': True, 'loadedTime': 4449.700000047684, 'positionName': 'RIGHT', 'positionCoords': [998.4, 334.5], 'bid': 6.2}]",188931.29999995232,1669833461363,hotdog w must,tacos,0.15,6.2,6.05,hotdog w must,1553.9000000953674,1555,1554.9000000953674,True,u,190998.40000009537,2067.100000143051,1669833463430,2067,HRV,HRV_0202,2022-11-30 18:41:14
87,"[{'imgObject': {}, 'id': 'edamame', 'src': '/static/foodstim60/edamame.jpg', 'key': 'u', 'origWidth': 409, 'origHeight': 410, 'width': 409, 'height': 410, 'widthPercent': 0.45, 'rescaleHeight': False, 'trialN': 87, 'loaded': True, 'loadedTime': 4613.400000095367, 'positionName': 'LEFT', 'positionCoords': [512.6, 335], 'bid': 0.13}, {'imgObject': {}, 'id': 'bagel and cc', 'src': '/static/foodstim60/bagel and cc.jpg', 'key': 'i', 'origWidth': 410, 'origHeight': 410, 'width': 410, 'height': 410, 'widthPercent': 0.45, 'rescaleHeight': False, 'trialN': 87, 'loaded': True, 'loadedTime': 6858.299999952316, 'positionName': 'RIGHT', 'positionCoords': [998.4, 335], 'bid': 0.15}]",190999.0,1669833463431,edamame,bagel and cc,0.13,0.15,0.01999999999999999,bagel and cc,1734.2000000476837,1735,1735.0,True,i,193248.79999995232,2249.7999999523163,1669833465680,2249,HRV,HRV_0202,2022-11-30 18:41:14
88,"[{'imgObject': {}, 'id': 'turkey sandwich', 'src': '/static/foodstim60/turkey sandwich.jpg', 'key': 'u', 'origWidth': 409, 'origHeight': 409, 'width': 409, 'height': 409, 'widthPercent': 0.45, 'rescaleHeight': False, 'trialN': 88, 'loaded': True, 'loadedTime': 7215, 'positionName': 'LEFT', 'positionCoords': [512.6, 335.5], 'bid': 7.72}, {'imgObject': {}, 'id': 'mango', 'src': '/static/foodstim60/mango.jpg', 'key': 'i', 'origWidth': 411, 'origHeight': 411, 'width': 411, 'height': 411, 'widthPercent': 0.45, 'rescaleHeight': False, 'trialN': 88, 'loaded': True, 'loadedTime': 3115, 'positionName': 'RIGHT', 'positionCoords': [998.4, 334.5], 'bid': 9.14}]",193249.09999990463,1669833465681,turkey sandwich,mango,7.72,9.14,1.4200000000000008,mango,1620.3000001907349,1621,1621.0,True,i,195381.5,2132.4000000953674,1669833467813,2132,HRV,HRV_0202,2022-11-30 18:41:14
89,"[{'imgObject': {}, 'id': 'corn cob', 'src': '/static/foodstim60/corn cob.jpg', 'key': 'u', 'origWidth': 411, 'origHeight': 411, 'width': 411, 'height': 411, 'widthPercent': 0.45, 'rescaleHeight': False, 'trialN': 89, 'loaded': True, 'loadedTime': 5661.900000095367, 'positionName': 'LEFT', 'positionCoords': [510.6, 334.5], 'bid': 1.26}, {'imgObject': {}, 'id': 'baked potato', 'src': '/static/foodstim60/baked potato.jpg', 'key': 'i', 'origWidth': 409, 'origHeight': 410, 'width': 409, 'height': 410, 'widthPercent': 0.45, 'rescaleHeight': False, 'trialN': 89, 'loaded': True, 'loadedTime': 3501.2999999523163, 'positionName': 'RIGHT', 'positionCoords': [998.4, 335], 'bid': 3.33}]",195382.20000004768,1669833467814,corn cob,baked potato,1.26,3.33,2.0700000000000003,corn cob,1559.3999998569489,1560,1560.2000000476837,True,u,197449.29999995232,2067.0999999046326,1669833469881,2067,HRV,HRV_0202,2022-11-30 18:41:14
90,"[{'imgObject': {}, 'id': 'fried eggs', 'src': '/static/foodstim60/fried eggs.jpg', 'key': 'u', 'origWidth': 410, 'origHeight': 410, 'width': 410, 'height': 410, 'widthPercent': 0.45, 'rescaleHeight': False, 'trialN': 90, 'loaded': True, 'loadedTime': 4558.599999904633, 'positionName': 'LEFT', 'positionCoords': [511.6, 335], 'bid': 0.16}, {'imgObject': {}, 'id': 'salmon', 'src': '/static/foodstim60/salmon.jpg', 'key': 'i', 'origWidth': 410, 'origHeight': 409, 'width': 410, 'height': 409, 'widthPercent': 0.45, 'rescaleHeight': False, 'trialN': 90, 'loaded': True, 'loadedTime': 3587, 'positionName': 'RIGHT', 'positionCoords': [998.4, 335.5], 'bid': 9.26}]",212990.5,1669833485422,fried eggs,salmon,0.16,9.26,9.1,salmon,1399.0,1400,1400.4000000953674,True,i,214899.5,1909.0,1669833487331,1909,HRV,HRV_0202,2022-11-30 18:41:14
91,"[{'imgObject': {}, 'id': 'roastedpotatoes', 'src': '/static/foodstim60/roastedpotatoes.jpg', 'key': 'u', 'origWidth': 409, 'origHeight': 410, 'width': 409, 'height': 410, 'widthPercent': 0.45, 'rescaleHeight': False, 'trialN': 91, 'loaded': True, 'loadedTime': 5271.900000095367, 'positionName': 'LEFT', 'positionCoords': [512.6, 335], 'bid': 5.19}, {'imgObject': {}, 'id': 'corn cob', 'src': '/static/foodstim60/corn cob.jpg', 'key': 'i', 'origWidth': 411, 'origHeight': 411, 'width': 411, 'height': 411, 'widthPercent': 0.45, 'rescaleHeight': False, 'trialN': 91, 'loaded': True, 'loadedTime': 5654.299999952316, 'positionName': 'RIGHT', 'positionCoords': [998.4, 334.5], 'bid': 1.26}]",214900.29999995232,1669833487332,roastedpotatoes,corn cob,5.19,1.26,-3.9300000000000006,roastedpotatoes,1457.1000001430511,1458,1457.7999999523163,True,u,216866.29999995232,1966.0,1669833489298,1966,HRV,HRV_0202,2022-11-30 18:41:14
92,"[{'imgObject': {}, 'id': 'grilled chicken strips', 'src': '/static/foodstim60/grilled chicken strips.jpg', 'key': 'u', 'origWidth': 410, 'origHeight': 411, 'width': 410, 'height': 411, 'widthPercent': 0.45, 'rescaleHeight': False, 'trialN': 92, 'loaded': True, 'loadedTime': 7126.200000047684, 'positionName': 'LEFT', 'positionCoords': [511.6, 334.5], 'bid': 8.47}, {'imgObject': {}, 'id': 'ice cream sundae 002', 'src': '/static/foodstim60/ice cream sundae 002.jpg', 'key': 'i', 'origWidth': 409, 'origHeight': 409, 'width': 409, 'height': 409, 'widthPercent': 0.45, 'rescaleHeight': False, 'trialN': 92, 'loaded': True, 'loadedTime': 3223.5999999046326, 'positionName': 'RIGHT', 'positionCoords': [998.4, 335.5], 'bid': 0.16}]",216867.0,1669833489299,grilled chicken strips,ice cream sundae 002,8.47,0.16,-8.31,grilled chicken strips,1330.2000000476837,1330,1330.9000000953674,True,u,218700.79999995232,1833.7999999523163,1669833491132,1833,HRV,HRV_0202,2022-11-30 18:41:14
93,"[{'imgObject': {}, 'id': 'olives', 'src': '/static/foodstim60/olives.jpg', 'key': 'u', 'origWidth': 410, 'origHeight': 410, 'width': 410, 'height': 410, 'widthPercent': 0.45, 'rescaleHeight': False, 'trialN': 93, 'loaded': True, 'loadedTime': 2942.0999999046326, 'positionName': 'LEFT', 'positionCoords': [511.6, 335], 'bid': 5.01}, {'imgObject': {}, 'id': 'salmon', 'src': '/static/foodstim60/salmon.jpg', 'key': 'i', 'origWidth': 410, 'origHeight': 409, 'width': 410, 'height': 409, 'widthPercent': 0.45, 'rescaleHeight': False, 'trialN': 93, 'loaded': True, 'loadedTime': 3602.5, 'positionName': 'RIGHT', 'positionCoords': [998.4, 335.5], 'bid': 9.26}]",218701.40000009537,1669833491133,olives,salmon,5.01,9.26,4.25,salmon,1264.0,1265,1264.8999998569489,True,i,220467.5,1766.0999999046326,1669833492899,1766,HRV,HRV_0202,2022-11-30 18:41:14
94,"[{'imgObject': {}, 'id': 'burger', 'src': '/static/foodstim60/burger.jpg', 'key': 'u', 'origWidth': 409, 'origHeight': 409, 'width': 409, 'height': 409, 'widthPercent': 0.45, 'rescaleHeight': False, 'trialN': 94, 'loaded': True, 'loadedTime': 5052.400000095367, 'positionName': 'LEFT', 'positionCoords': [512.6, 335.5], 'bid': 0.43}, {'imgObject': {}, 'id': 'roastedpotatoes', 'src': '/static/foodstim60/roastedpotatoes.jpg', 'key': 'i', 'origWidth': 409, 'origHeight': 410, 'width': 409, 'height': 410, 'widthPercent': 0.45, 'rescaleHeight': False, 'trialN': 94, 'loaded': True, 'loadedTime': 5279.900000095367, 'positionName': 'RIGHT', 'positionCoords': [998.4, 335], 'bid': 5.19}]",220468.29999995232,1669833492900,burger,roastedpotatoes,0.43,5.19,4.760000000000001,roastedpotatoes,1328.4000000953674,1329,1328.9000000953674,True,i,222302.0,1833.7000000476837,1669833494734,1834,HRV,HRV_0202,2022-11-30 18:41:14
95,"[{'imgObject': {}, 'id': 'Tribe humus pita', 'src': '/static/foodstim60/Tribe humus pita.jpg', 'key': 'u', 'origWidth': 411, 'origHeight': 411, 'width': 411, 'height': 411, 'widthPercent': 0.45, 'rescaleHeight': False, 'trialN': 95, 'loaded': True, 'loadedTime': 5315.599999904633, 'positionName': 'LEFT', 'positionCoords': [510.6, 334.5], 'bid': 5.0600000000000005}, {'imgObject': {}, 'id': 'olives', 'src': '/static/foodstim60/olives.jpg', 'key': 'i', 'origWidth': 410, 'origHeight': 410, 'width': 410, 'height': 410, 'widthPercent': 0.45, 'rescaleHeight': False, 'trialN': 95, 'loaded': True, 'loadedTime': 2937.5999999046326, 'positionName': 'RIGHT', 'positionCoords': [998.4, 335], 'bid': 5.01}]",222302.09999990463,1669833494734,Tribe humus pita,olives,5.0600000000000005,5.01,-0.05000000000000071,Tribe humus pita,1303.4000000953674,1304,1304.0,True,u,224115.59999990463,1813.5,1669833496547,1813,HRV,HRV_0202,2022-11-30 18:41:14
96,"[{'imgObject': {}, 'id': 'grilled chicken strips', 'src': '/static/foodstim60/grilled chicken strips.jpg', 'key': 'u', 'origWidth': 410, 'origHeight': 411, 'width': 410, 'height': 411, 'widthPercent': 0.45, 'rescaleHeight': False, 'trialN': 96, 'loaded': True, 'loadedTime': 7126.200000047684, 'positionName': 'LEFT', 'positionCoords': [511.6, 334.5], 'bid': 8.47}, {'imgObject': {}, 'id': 'cherries', 'src': '/static/foodstim60/cherries.jpg', 'key': 'i', 'origWidth': 410, 'origHeight': 411, 'width': 410, 'height': 411, 'widthPercent': 0.45, 'rescaleHeight': False, 'trialN': 96, 'loaded': True, 'loadedTime': 7213.099999904633, 'positionName': 'RIGHT', 'positionCoords': [998.4, 334.5], 'bid': 9.82}]",224116.20000004768,1669833496548,grilled chicken strips,cherries,8.47,9.82,1.3499999999999996,grilled chicken strips,1936.5999999046326,1937,1937.0,True,u,226566.40000009537,2450.2000000476837,1669833498998,2450,HRV,HRV_0202,2022-11-30 18:41:14
97,"[{'imgObject': {}, 'id': 'steak', 'src': '/static/foodstim60/steak.jpg', 'key': 'u', 'origWidth': 410, 'origHeight': 410, 'width': 410, 'height': 410, 'widthPercent': 0.45, 'rescaleHeight': False, 'trialN': 97, 'loaded': True, 'loadedTime': 3427.5999999046326, 'positionName': 'LEFT', 'positionCoords': [511.6, 335], 'bid': 9.82}, {'imgObject': {}, 'id': 'raspberries', 'src': '/static/foodstim60/raspberries.jpg', 'key': 'i', 'origWidth': 411, 'origHeight': 411, 'width': 411, 'height': 411, 'widthPercent': 0.45, 'rescaleHeight': False, 'trialN': 97, 'loaded': True, 'loadedTime': 7028.799999952316, 'positionName': 'RIGHT', 'positionCoords': [998.4, 334.5], 'bid': 9.8}]",226567.09999990463,1669833498999,steak,raspberries,9.82,9.8,-0.019999999999999574,steak,1846.1000001430511,1847,1846.9000000953674,True,u,228918.09999990463,2351.0,1669833501350,2351,HRV,HRV_0202,2022-11-30 18:41:14
98,"[{'imgObject': {}, 'id': 'sweetpotato', 'src': '/static/foodstim60/sweetpotato.jpg', 'key': 'u', 'origWidth': 410, 'origHeight': 410, 'width': 410, 'height': 410, 'widthPercent': 0.45, 'rescaleHeight': False, 'trialN': 98, 'loaded': True, 'loadedTime': 5861.700000047684, 'positionName': 'LEFT', 'positionCoords': [511.6, 335], 'bid': 0.17}, {'imgObject': {}, 'id': 'lox', 'src': '/static/foodstim60/lox.jpg', 'key': 'i', 'origWidth': 410, 'origHeight': 411, 'width': 410, 'height': 411, 'widthPercent': 0.45, 'rescaleHeight': False, 'trialN': 98, 'loaded': True, 'loadedTime': 5377.599999904633, 'positionName': 'RIGHT', 'positionCoords': [998.4, 334.5], 'bid': 0.18}]",228918.79999995232,1669833501350,sweetpotato,lox,0.17,0.18,0.009999999999999981,lox,1494.2000000476837,1495,1495.0,True,i,230917.70000004768,1998.9000000953674,1669833503349,1999,HRV,HRV_0202,2022-11-30 18:41:14
99,"[{'imgObject': {}, 'id': 'raisin bran w milk', 'src': '/static/foodstim60/raisin bran w milk.jpg', 'key': 'u', 'origWidth': 411, 'origHeight': 411, 'width': 411, 'height': 411, 'widthPercent': 0.45, 'rescaleHeight': False, 'trialN': 99, 'loaded': True, 'loadedTime': 4988, 'positionName': 'LEFT', 'positionCoords': [510.6, 334.5], 'bid': 0.16}, {'imgObject': {}, 'id': 'cherry tomato', 'src': '/static/foodstim60/cherry tomato.jpg', 'key': 'i', 'origWidth': 410, 'origHeight': 410, 'width': 410, 'height': 410, 'widthPercent': 0.45, 'rescaleHeight': False, 'trialN': 99, 'loaded': True, 'loadedTime': 6402.200000047684, 'positionName': 'RIGHT', 'positionCoords': [998.4, 335], 'bid': 0.16}]",230918.29999995232,1669833503350,raisin bran w milk,cherry tomato,0.16,0.16,0.0,raisin bran w milk,1727.0,1728,1727.9000000953674,True,u,233153.0,2234.7000000476837,1669833505585,2235,HRV,HRV_0202,2022-11-30 18:41:14
100,"[{'imgObject': {}, 'id': 'rigatoni and sauce', 'src': '/static/foodstim60/rigatoni and sauce.jpg', 'key': 'u', 'origWidth': 410, 'origHeight': 411, 'width': 410, 'height': 411, 'widthPercent': 0.45, 'rescaleHeight': False, 'trialN': 100, 'loaded': True, 'loadedTime': 2790.4000000953674, 'positionName': 'LEFT', 'positionCoords': [511.6, 334.5], 'bid': 0.77}, {'imgObject': {}, 'id': 'steak', 'src': '/static/foodstim60/steak.jpg', 'key': 'i', 'origWidth': 410, 'origHeight': 410, 'width': 410, 'height': 410, 'widthPercent': 0.45, 'rescaleHeight': False, 'trialN': 100, 'loaded': True, 'loadedTime': 3369.7999999523163, 'positionName': 'RIGHT', 'positionCoords': [998.4, 335], 'bid': 9.82}]",233153.70000004768,1669833505585,rigatoni and sauce,steak,0.77,9.82,9.05,steak,1436.0,1446,1436.7999999523163,True,i,235099.70000004768,1946.0,1669833507540,1955,HRV,HRV_0202,2022-11-30 18:41:14
101,"[{'imgObject': {}, 'id': 'seaweed', 'src': '/static/foodstim60/seaweed.jpg', 'key': 'u', 'origWidth': 410, 'origHeight': 410, 'width': 410, 'height': 410, 'widthPercent': 0.45, 'rescaleHeight': False, 'trialN': 101, 'loaded': True, 'loadedTime': 3032.5, 'positionName': 'LEFT', 'positionCoords': [511.6, 335], 'bid': 0.15}, {'imgObject': {}, 'id': 'bagel and cc', 'src': '/static/foodstim60/bagel and cc.jpg', 'key': 'i', 'origWidth': 410, 'origHeight': 410, 'width': 410, 'height': 410, 'widthPercent': 0.45, 'rescaleHeight': False, 'trialN': 101, 'loaded': True, 'loadedTime': 6859.299999952316, 'positionName': 'RIGHT', 'positionCoords': [998.4, 335], 'bid': 0.15}]",235100.40000009537,1669833507541,seaweed,bagel and cc,0.15,0.15,0.0,bagel and cc,1513.0,1514,1513.8999998569489,True,i,237119.29999995232,2018.8999998569489,1669833509560,2019,HRV,HRV_0202,2022-11-30 18:41:14
102,"[{'imgObject': {}, 'id': 'hashbrowns', 'src': '/static/foodstim60/hashbrowns.jpg', 'key': 'u', 'origWidth': 411, 'origHeight': 410, 'width': 411, 'height': 410, 'widthPercent': 0.45, 'rescaleHeight': False, 'trialN': 102, 'loaded': True, 'loadedTime': 2853.2000000476837, 'positionName': 'LEFT', 'positionCoords': [510.6, 335], 'bid': 0.15}, {'imgObject': {}, 'id': 'eggsalad', 'src': '/static/foodstim60/eggsalad.jpg', 'key': 'i', 'origWidth': 410, 'origHeight': 409, 'width': 410, 'height': 409, 'widthPercent': 0.45, 'rescaleHeight': False, 'trialN': 102, 'loaded': True, 'loadedTime': 5088.099999904633, 'positionName': 'RIGHT', 'positionCoords': [998.4, 335.5], 'bid': 0.14}]",237120.09999990463,1669833509561,hashbrowns,eggsalad,0.15,0.14,-0.009999999999999981,eggsalad,1677.3000001907349,1678,1678.1000001430511,True,i,239301.5,2181.4000000953674,1669833511742,2181,HRV,HRV_0202,2022-11-30 18:41:14
103,"[{'imgObject': {}, 'id': 'cantaloupe', 'src': '/static/foodstim60/cantaloupe.jpg', 'key': 'u', 'origWidth': 409, 'origHeight': 409, 'width': 409, 'height': 409, 'widthPercent': 0.45, 'rescaleHeight': False, 'trialN': 103, 'loaded': True, 'loadedTime': 7217.5, 'positionName': 'LEFT', 'positionCoords': [512.6, 335.5], 'bid': 9.82}, {'imgObject': {}, 'id': 'steak', 'src': '/static/foodstim60/steak.jpg', 'key': 'i', 'origWidth': 410, 'origHeight': 410, 'width': 410, 'height': 410, 'widthPercent': 0.45, 'rescaleHeight': False, 'trialN': 103, 'loaded': True, 'loadedTime': 3370.0999999046326, 'positionName': 'RIGHT', 'positionCoords': [998.4, 335], 'bid': 9.82}]",239302.20000004768,1669833511743,cantaloupe,steak,9.82,9.82,0.0,steak,1863.2000000476837,1864,1864.0999999046326,True,i,241668.29999995232,2366.0999999046326,1669833514109,2366,HRV,HRV_0202,2022-11-30 18:41:14
104,"[{'imgObject': {}, 'id': 'fruitsalad', 'src': '/static/foodstim60/fruitsalad.jpg', 'key': 'u', 'origWidth': 410, 'origHeight': 410, 'width': 410, 'height': 410, 'widthPercent': 0.45, 'rescaleHeight': False, 'trialN': 104, 'loaded': True, 'loadedTime': 3613.7000000476837, 'positionName': 'LEFT', 'positionCoords': [511.6, 335], 'bid': 9.83}, {'imgObject': {}, 'id': 'cherries', 'src': '/static/foodstim60/cherries.jpg', 'key': 'i', 'origWidth': 410, 'origHeight': 411, 'width': 410, 'height': 411, 'widthPercent': 0.45, 'rescaleHeight': False, 'trialN': 104, 'loaded': True, 'loadedTime': 7211.599999904633, 'positionName': 'RIGHT', 'positionCoords': [998.4, 334.5], 'bid': 9.82}]",241669.0,1669833514110,fruitsalad,cherries,9.83,9.82,-0.009999999999999787,fruitsalad,1544.5999999046326,1545,1545.5,True,u,243717.29999995232,2048.2999999523163,1669833516158,2048,HRV,HRV_0202,2022-11-30 18:41:14
105,"[{'imgObject': {}, 'id': 'apple slices', 'src': '/static/foodstim60/apple slices.jpg', 'key': 'u', 'origWidth': 409, 'origHeight': 410, 'width': 409, 'height': 410, 'widthPercent': 0.45, 'rescaleHeight': False, 'trialN': 105, 'loaded': True, 'loadedTime': 4985.799999952316, 'positionName': 'LEFT', 'positionCoords': [512.6, 335], 'bid': 8.42}, {'imgObject': {}, 'id': 'grilled chicken strips', 'src': '/static/foodstim60/grilled chicken strips.jpg', 'key': 'i', 'origWidth': 410, 'origHeight': 411, 'width': 410, 'height': 411, 'widthPercent': 0.45, 'rescaleHeight': False, 'trialN': 105, 'loaded': True, 'loadedTime': 7126, 'positionName': 'RIGHT', 'positionCoords': [998.4, 334.5], 'bid': 8.47}]",243718.09999990463,1669833516159,apple slices,grilled chicken strips,8.42,8.47,0.05000000000000071,grilled chicken strips,1567.6000001430511,1568,1568.4000000953674,True,i,245800.59999990463,2082.5,1669833518241,2082,HRV,HRV_0202,2022-11-30 18:41:14
106,"[{'imgObject': {}, 'id': 'granola w milk', 'src': '/static/foodstim60/granola w milk.jpg', 'key': 'u', 'origWidth': 410, 'origHeight': 410, 'width': 410, 'height': 410, 'widthPercent': 0.45, 'rescaleHeight': False, 'trialN': 106, 'loaded': True, 'loadedTime': 5862, 'positionName': 'LEFT', 'positionCoords': [511.6, 335], 'bid': 0.17}, {'imgObject': {}, 'id': 'sweetpotato', 'src': '/static/foodstim60/sweetpotato.jpg', 'key': 'i', 'origWidth': 410, 'origHeight': 410, 'width': 410, 'height': 410, 'widthPercent': 0.45, 'rescaleHeight': False, 'trialN': 106, 'loaded': True, 'loadedTime': 5797.400000095367, 'positionName': 'RIGHT', 'positionCoords': [998.4, 335], 'bid': 0.17}]",245801.20000004768,1669833518242,granola w milk,sweetpotato,0.17,0.17,0.0,granola w milk,1524.2000000476837,1525,1525.2000000476837,True,u,247834.40000009537,2033.2000000476837,1669833520275,2033,HRV,HRV_0202,2022-11-30 18:41:14
107,"[{'imgObject': {}, 'id': 'fruitsalad', 'src': '/static/foodstim60/fruitsalad.jpg', 'key': 'u', 'origWidth': 410, 'origHeight': 410, 'width': 410, 'height': 410, 'widthPercent': 0.45, 'rescaleHeight': False, 'trialN': 107, 'loaded': True, 'loadedTime': 3622.0999999046326, 'positionName': 'LEFT', 'positionCoords': [511.6, 335], 'bid': 9.83}, {'imgObject': {}, 'id': 'cantaloupe', 'src': '/static/foodstim60/cantaloupe.jpg', 'key': 'i', 'origWidth': 409, 'origHeight': 409, 'width': 409, 'height': 409, 'widthPercent': 0.45, 'rescaleHeight': False, 'trialN': 107, 'loaded': True, 'loadedTime': 7217.299999952316, 'positionName': 'RIGHT', 'positionCoords': [998.4, 335.5], 'bid': 9.82}]",247835.0,1669833520276,fruitsalad,cantaloupe,9.83,9.82,-0.009999999999999787,fruitsalad,1466.2000000476837,1467,1466.9000000953674,True,u,249818.09999990463,1983.0999999046326,1669833522259,1983,HRV,HRV_0202,2022-11-30 18:41:14
108,"[{'imgObject': {}, 'id': 'cocktailshrimp', 'src': '/static/foodstim60/cocktailshrimp.jpg', 'key': 'u', 'origWidth': 410, 'origHeight': 410, 'width': 410, 'height': 410, 'widthPercent': 0.45, 'rescaleHeight': False, 'trialN': 108, 'loaded': True, 'loadedTime': 7039.700000047684, 'positionName': 'LEFT', 'positionCoords': [511.6, 335], 'bid': 9.8}, {'imgObject': {}, 'id': 'cheerios', 'src': '/static/foodstim60/cheerios.jpg', 'key': 'i', 'origWidth': 409, 'origHeight': 410, 'width': 409, 'height': 410, 'widthPercent': 0.45, 'rescaleHeight': False, 'trialN': 108, 'loaded': True, 'loadedTime': 6887.299999952316, 'positionName': 'RIGHT', 'positionCoords': [998.4, 335], 'bid': 0.17}]",249818.90000009537,1669833522260,cocktailshrimp,cheerios,9.8,0.17,-9.63,cocktailshrimp,1186.5,1187,1187.5,True,u,251519.5,1700.5999999046326,1669833523960,1700,HRV,HRV_0202,2022-11-30 18:41:14
