trialN,stimuli,trialStartTime,trialStartTime_UNIX,stimulus1,stimulus2,stimulus1Bid,stimulus2Bid,delta,selected,rt,rt_UNIX,rt_perfnow,receivedResponse,rsp,trialEndTime,trialDuration,trialEndTime_UNIX,trialDuration_UNIX,exp,subjectId,date
0,"[{'imgObject': {}, 'id': 'ice cream sundae 002', 'src': '/static/foodstim60/ice cream sundae 002.jpg', 'key': 'u', 'origWidth': 409, 'origHeight': 409, 'width': 409, 'height': 409, 'widthPercent': 0.45, 'rescaleHeight': False, 'trialN': 0, 'loaded': True, 'loadedTime': 3823, 'positionName': 'LEFT', 'positionCoords': [512.6, 335.5], 'bid': 9.44}, {'imgObject': {}, 'id': 'rigatoni and sauce', 'src': '/static/foodstim60/rigatoni and sauce.jpg', 'key': 'i', 'origWidth': 410, 'origHeight': 411, 'width': 410, 'height': 411, 'widthPercent': 0.45, 'rescaleHeight': False, 'trialN': 0, 'loaded': True, 'loadedTime': 3835, 'positionName': 'RIGHT', 'positionCoords': [998.4, 334.5], 'bid': 8.81}]",4806,1669836446510,ice cream sundae 002,rigatoni and sauce,9.44,8.81,-0.629999999999999,rigatoni and sauce,1363,1377,1377,True,i,6691,1885,1669836448394,1884,HRV,HRV_0220,2022-11-30 19:33:25
1,"[{'imgObject': {}, 'id': 'olives', 'src': '/static/foodstim60/olives.jpg', 'key': 'u', 'origWidth': 410, 'origHeight': 410, 'width': 410, 'height': 410, 'widthPercent': 0.45, 'rescaleHeight': False, 'trialN': 1, 'loaded': True, 'loadedTime': 4806, 'positionName': 'LEFT', 'positionCoords': [511.6, 335], 'bid': 2.1}, {'imgObject': {}, 'id': 'salmon', 'src': '/static/foodstim60/salmon.jpg', 'key': 'i', 'origWidth': 410, 'origHeight': 409, 'width': 410, 'height': 409, 'widthPercent': 0.45, 'rescaleHeight': False, 'trialN': 1, 'loaded': True, 'loadedTime': 4231, 'positionName': 'RIGHT', 'positionCoords': [998.4, 335.5], 'bid': 5.57}]",6691,1669836448394,olives,salmon,2.1,5.57,3.47,salmon,1150,1158,1156,True,i,8356,1665,1669836450059,1665,HRV,HRV_0220,2022-11-30 19:33:25
2,"[{'imgObject': {}, 'id': 'roastedpotatoes', 'src': '/static/foodstim60/roastedpotatoes.jpg', 'key': 'u', 'origWidth': 409, 'origHeight': 410, 'width': 409, 'height': 410, 'widthPercent': 0.45, 'rescaleHeight': False, 'trialN': 2, 'loaded': True, 'loadedTime': 4225, 'positionName': 'LEFT', 'positionCoords': [512.6, 335], 'bid': 9.54}, {'imgObject': {}, 'id': 'corn cob', 'src': '/static/foodstim60/corn cob.jpg', 'key': 'i', 'origWidth': 411, 'origHeight': 411, 'width': 411, 'height': 411, 'widthPercent': 0.45, 'rescaleHeight': False, 'trialN': 2, 'loaded': True, 'loadedTime': 4106, 'positionName': 'RIGHT', 'positionCoords': [998.4, 334.5], 'bid': 8.59}]",8356,1669836450060,roastedpotatoes,corn cob,9.54,8.59,-0.9499999999999993,roastedpotatoes,766,779,779,True,u,9651,1295,1669836451354,1294,HRV,HRV_0220,2022-11-30 19:33:25
3,"[{'imgObject': {}, 'id': 'rigatoni and sauce', 'src': '/static/foodstim60/rigatoni and sauce.jpg', 'key': 'u', 'origWidth': 410, 'origHeight': 411, 'width': 410, 'height': 411, 'widthPercent': 0.45, 'rescaleHeight': False, 'trialN': 3, 'loaded': True, 'loadedTime': 3834, 'positionName': 'LEFT', 'positionCoords': [511.6, 334.5], 'bid': 8.81}, {'imgObject': {}, 'id': 'mashed potato', 'src': '/static/foodstim60/mashed potato.jpg', 'key': 'i', 'origWidth': 409, 'origHeight': 409, 'width': 409, 'height': 409, 'widthPercent': 0.45, 'rescaleHeight': False, 'trialN': 3, 'loaded': True, 'loadedTime': 4238, 'positionName': 'RIGHT', 'positionCoords': [998.4, 335.5], 'bid': 8.28}]",9651,1669836451355,rigatoni and sauce,mashed potato,8.81,8.28,-0.5300000000000011,rigatoni and sauce,1049,1061,1061,True,u,11218,1567,1669836452922,1567,HRV,HRV_0220,2022-11-30 19:33:25
4,"[{'imgObject': {}, 'id': 'omelette', 'src': '/static/foodstim60/omelette.jpg', 'key': 'u', 'origWidth': 410, 'origHeight': 409, 'width': 410, 'height': 409, 'widthPercent': 0.45, 'rescaleHeight': False, 'trialN': 4, 'loaded': True, 'loadedTime': 4241, 'positionName': 'LEFT', 'positionCoords': [511.6, 335.5], 'bid': 6.83}, {'imgObject': {}, 'id': 'tacos', 'src': '/static/foodstim60/tacos.jpg', 'key': 'i', 'origWidth': 411, 'origHeight': 411, 'width': 411, 'height': 411, 'widthPercent': 0.45, 'rescaleHeight': False, 'trialN': 4, 'loaded': True, 'loadedTime': 4243, 'positionName': 'RIGHT', 'positionCoords': [998.4, 334.5], 'bid': 7.42}]",11218,1669836452922,omelette,tacos,6.83,7.42,0.5899999999999999,tacos,1107,1118,1119,True,i,12844,1626,1669836454548,1626,HRV,HRV_0220,2022-11-30 19:33:25
5,"[{'imgObject': {}, 'id': 'yogurt no spoon', 'src': '/static/foodstim60/yogurt no spoon.jpg', 'key': 'u', 'origWidth': 411, 'origHeight': 410, 'width': 411, 'height': 410, 'widthPercent': 0.45, 'rescaleHeight': False, 'trialN': 5, 'loaded': True, 'loadedTime': 4167, 'positionName': 'LEFT', 'positionCoords': [510.6, 335], 'bid': 8.540000000000001}, {'imgObject': {}, 'id': 'blueberries', 'src': '/static/foodstim60/blueberries.jpg', 'key': 'i', 'origWidth': 411, 'origHeight': 411, 'width': 411, 'height': 411, 'widthPercent': 0.45, 'rescaleHeight': False, 'trialN': 5, 'loaded': True, 'loadedTime': 4216, 'positionName': 'RIGHT', 'positionCoords': [998.4, 334.5], 'bid': 8.540000000000001}]",12844,1669836454548,yogurt no spoon,blueberries,8.540000000000001,8.540000000000001,0.0,blueberries,1387,1393,1394,True,i,14750,1906,1669836456454,1906,HRV,HRV_0220,2022-11-30 19:33:25
6,"[{'imgObject': {}, 'id': 'apple slices', 'src': '/static/foodstim60/apple slices.jpg', 'key': 'u', 'origWidth': 409, 'origHeight': 410, 'width': 409, 'height': 410, 'widthPercent': 0.45, 'rescaleHeight': False, 'trialN': 6, 'loaded': True, 'loadedTime': 4286, 'positionName': 'LEFT', 'positionCoords': [512.6, 335], 'bid': 7.68}, {'imgObject': {}, 'id': 'mango', 'src': '/static/foodstim60/mango.jpg', 'key': 'i', 'origWidth': 411, 'origHeight': 411, 'width': 411, 'height': 411, 'widthPercent': 0.45, 'rescaleHeight': False, 'trialN': 6, 'loaded': True, 'loadedTime': 4312, 'positionName': 'RIGHT', 'positionCoords': [998.4, 334.5], 'bid': 6.3500000000000005}]",14750,1669836456454,apple slices,mango,7.68,6.3500000000000005,-1.3299999999999992,apple slices,934,936,937,True,u,16200,1450,1669836457904,1450,HRV,HRV_0220,2022-11-30 19:33:25
7,"[{'imgObject': {}, 'id': 'tacos', 'src': '/static/foodstim60/tacos.jpg', 'key': 'u', 'origWidth': 411, 'origHeight': 411, 'width': 411, 'height': 411, 'widthPercent': 0.45, 'rescaleHeight': False, 'trialN': 7, 'loaded': True, 'loadedTime': 4243, 'positionName': 'LEFT', 'positionCoords': [510.6, 334.5], 'bid': 7.42}, {'imgObject': {}, 'id': 'turkeysandwich', 'src': '/static/foodstim60/turkeysandwich.jpg', 'key': 'i', 'origWidth': 409, 'origHeight': 409, 'width': 409, 'height': 409, 'widthPercent': 0.45, 'rescaleHeight': False, 'trialN': 7, 'loaded': True, 'loadedTime': 4282, 'positionName': 'RIGHT', 'positionCoords': [998.4, 335.5], 'bid': 3.34}]",16200,1669836457904,tacos,turkeysandwich,7.42,3.34,-4.08,tacos,1109,1118,1118,True,u,17821,1621,1669836459525,1621,HRV,HRV_0220,2022-11-30 19:33:25
8,"[{'imgObject': {}, 'id': 'eggs', 'src': '/static/foodstim60/eggs.jpg', 'key': 'u', 'origWidth': 409, 'origHeight': 409, 'width': 409, 'height': 409, 'widthPercent': 0.45, 'rescaleHeight': False, 'trialN': 8, 'loaded': True, 'loadedTime': 4299, 'positionName': 'LEFT', 'positionCoords': [512.6, 335.5], 'bid': 6.03}, {'imgObject': {}, 'id': 'rigatoni and sauce', 'src': '/static/foodstim60/rigatoni and sauce.jpg', 'key': 'i', 'origWidth': 410, 'origHeight': 411, 'width': 410, 'height': 411, 'widthPercent': 0.45, 'rescaleHeight': False, 'trialN': 8, 'loaded': True, 'loadedTime': 3834, 'positionName': 'RIGHT', 'positionCoords': [998.4, 334.5], 'bid': 8.81}]",17822,1669836459525,eggs,rigatoni and sauce,6.03,8.81,2.7800000000000002,rigatoni and sauce,628,643,642,True,i,18976,1154,1669836460679,1154,HRV,HRV_0220,2022-11-30 19:33:25
9,"[{'imgObject': {}, 'id': 'pear', 'src': '/static/foodstim60/pear.jpg', 'key': 'u', 'origWidth': 411, 'origHeight': 410, 'width': 411, 'height': 410, 'widthPercent': 0.45, 'rescaleHeight': False, 'trialN': 9, 'loaded': True, 'loadedTime': 4296, 'positionName': 'LEFT', 'positionCoords': [510.6, 335], 'bid': 6.58}, {'imgObject': {}, 'id': 'mango', 'src': '/static/foodstim60/mango.jpg', 'key': 'i', 'origWidth': 411, 'origHeight': 411, 'width': 411, 'height': 411, 'widthPercent': 0.45, 'rescaleHeight': False, 'trialN': 9, 'loaded': True, 'loadedTime': 4314, 'positionName': 'RIGHT', 'positionCoords': [998.4, 334.5], 'bid': 6.3500000000000005}]",18976,1669836460679,pear,mango,6.58,6.3500000000000005,-0.22999999999999954,pear,1037,1039,1039,True,u,20523,1547,1669836462226,1547,HRV,HRV_0220,2022-11-30 19:33:25
10,"[{'imgObject': {}, 'id': 'cherries', 'src': '/static/foodstim60/cherries.jpg', 'key': 'u', 'origWidth': 410, 'origHeight': 411, 'width': 410, 'height': 411, 'widthPercent': 0.45, 'rescaleHeight': False, 'trialN': 10, 'loaded': True, 'loadedTime': 4293, 'positionName': 'LEFT', 'positionCoords': [511.6, 334.5], 'bid': 9.12}, {'imgObject': {}, 'id': 'froot loops w milk', 'src': '/static/foodstim60/froot loops w milk.jpg', 'key': 'i', 'origWidth': 410, 'origHeight': 410, 'width': 410, 'height': 410, 'widthPercent': 0.45, 'rescaleHeight': False, 'trialN': 10, 'loaded': True, 'loadedTime': 4357, 'positionName': 'RIGHT', 'positionCoords': [998.4, 335], 'bid': 9.21}]",20524,1669836462226,cherries,froot loops w milk,9.12,9.21,0.09000000000000163,froot loops w milk,973,979,978,True,i,22013,1489,1669836463717,1491,HRV,HRV_0220,2022-11-30 19:33:25
11,"[{'imgObject': {}, 'id': 'corn cob', 'src': '/static/foodstim60/corn cob.jpg', 'key': 'u', 'origWidth': 411, 'origHeight': 411, 'width': 411, 'height': 411, 'widthPercent': 0.45, 'rescaleHeight': False, 'trialN': 11, 'loaded': True, 'loadedTime': 4106, 'positionName': 'LEFT', 'positionCoords': [510.6, 334.5], 'bid': 8.59}, {'imgObject': {}, 'id': 'cheerios', 'src': '/static/foodstim60/cheerios.jpg', 'key': 'i', 'origWidth': 409, 'origHeight': 410, 'width': 409, 'height': 410, 'widthPercent': 0.45, 'rescaleHeight': False, 'trialN': 11, 'loaded': True, 'loadedTime': 4358, 'positionName': 'RIGHT', 'positionCoords': [998.4, 335], 'bid': 8.89}]",22014,1669836463718,corn cob,cheerios,8.59,8.89,0.3000000000000007,cheerios,1342,1352,1353,True,i,23881,1867,1669836465584,1866,HRV,HRV_0220,2022-11-30 19:33:25
12,"[{'imgObject': {}, 'id': 'steak', 'src': '/static/foodstim60/steak.jpg', 'key': 'u', 'origWidth': 410, 'origHeight': 410, 'width': 410, 'height': 410, 'widthPercent': 0.45, 'rescaleHeight': False, 'trialN': 12, 'loaded': True, 'loadedTime': 4343, 'positionName': 'LEFT', 'positionCoords': [511.6, 335], 'bid': 9.48}, {'imgObject': {}, 'id': 'ice cream sundae 002', 'src': '/static/foodstim60/ice cream sundae 002.jpg', 'key': 'i', 'origWidth': 409, 'origHeight': 409, 'width': 409, 'height': 409, 'widthPercent': 0.45, 'rescaleHeight': False, 'trialN': 12, 'loaded': True, 'loadedTime': 3823, 'positionName': 'RIGHT', 'positionCoords': [998.4, 335.5], 'bid': 9.44}]",23881,1669836465584,steak,ice cream sundae 002,9.48,9.44,-0.040000000000000924,steak,1022,1038,1037,True,u,25422,1541,1669836467126,1542,HRV,HRV_0220,2022-11-30 19:33:25
13,"[{'imgObject': {}, 'id': 'mashed potato', 'src': '/static/foodstim60/mashed potato.jpg', 'key': 'u', 'origWidth': 409, 'origHeight': 409, 'width': 409, 'height': 409, 'widthPercent': 0.45, 'rescaleHeight': False, 'trialN': 13, 'loaded': True, 'loadedTime': 4238, 'positionName': 'LEFT', 'positionCoords': [512.6, 335.5], 'bid': 8.28}, {'imgObject': {}, 'id': 'chicken nuggets2', 'src': '/static/foodstim60/chicken nuggets2.jpg', 'key': 'i', 'origWidth': 410, 'origHeight': 409, 'width': 410, 'height': 409, 'widthPercent': 0.45, 'rescaleHeight': False, 'trialN': 13, 'loaded': True, 'loadedTime': 4351, 'positionName': 'RIGHT', 'positionCoords': [998.4, 335.5], 'bid': 8.370000000000001}]",25423,1669836467126,mashed potato,chicken nuggets2,8.28,8.370000000000001,0.09000000000000163,mashed potato,1105,1113,1113,True,u,27044,1621,1669836468747,1621,HRV,HRV_0220,2022-11-30 19:33:25
14,"[{'imgObject': {}, 'id': 'turkeysandwich', 'src': '/static/foodstim60/turkeysandwich.jpg', 'key': 'u', 'origWidth': 409, 'origHeight': 409, 'width': 409, 'height': 409, 'widthPercent': 0.45, 'rescaleHeight': False, 'trialN': 14, 'loaded': True, 'loadedTime': 4280, 'positionName': 'LEFT', 'positionCoords': [512.6, 335.5], 'bid': 3.34}, {'imgObject': {}, 'id': 'bagel and cc', 'src': '/static/foodstim60/bagel and cc.jpg', 'key': 'i', 'origWidth': 410, 'origHeight': 410, 'width': 410, 'height': 410, 'widthPercent': 0.45, 'rescaleHeight': False, 'trialN': 14, 'loaded': True, 'loadedTime': 4360, 'positionName': 'RIGHT', 'positionCoords': [998.4, 335], 'bid': 2.75}]",27044,1669836468747,turkeysandwich,bagel and cc,3.34,2.75,-0.5899999999999999,bagel and cc,875,885,884,True,i,28434,1390,1669836470138,1391,HRV,HRV_0220,2022-11-30 19:33:25
15,"[{'imgObject': {}, 'id': 'cocktailshrimp', 'src': '/static/foodstim60/cocktailshrimp.jpg', 'key': 'u', 'origWidth': 410, 'origHeight': 410, 'width': 410, 'height': 410, 'widthPercent': 0.45, 'rescaleHeight': False, 'trialN': 15, 'loaded': True, 'loadedTime': 4361, 'positionName': 'LEFT', 'positionCoords': [511.6, 335], 'bid': 6.09}, {'imgObject': {}, 'id': 'burrito', 'src': '/static/foodstim60/burrito.jpg', 'key': 'i', 'origWidth': 410, 'origHeight': 410, 'width': 410, 'height': 410, 'widthPercent': 0.45, 'rescaleHeight': False, 'trialN': 15, 'loaded': True, 'loadedTime': 4390, 'positionName': 'RIGHT', 'positionCoords': [998.4, 335], 'bid': 5.72}]",28434,1669836470138,cocktailshrimp,burrito,6.09,5.72,-0.3700000000000001,cocktailshrimp,969,980,980,True,u,29924,1490,1669836471628,1490,HRV,HRV_0220,2022-11-30 19:33:25
16,"[{'imgObject': {}, 'id': 'hashbrowns', 'src': '/static/foodstim60/hashbrowns.jpg', 'key': 'u', 'origWidth': 411, 'origHeight': 410, 'width': 411, 'height': 410, 'widthPercent': 0.45, 'rescaleHeight': False, 'trialN': 16, 'loaded': True, 'loadedTime': 4399, 'positionName': 'LEFT', 'positionCoords': [510.6, 335], 'bid': 4.53}, {'imgObject': {}, 'id': 'hotdog w must', 'src': '/static/foodstim60/hotdog w must.jpg', 'key': 'i', 'origWidth': 409, 'origHeight': 409, 'width': 409, 'height': 409, 'widthPercent': 0.45, 'rescaleHeight': False, 'trialN': 16, 'loaded': True, 'loadedTime': 4426, 'positionName': 'RIGHT', 'positionCoords': [998.4, 335.5], 'bid': 1.29}]",29924,1669836471628,hashbrowns,hotdog w must,4.53,1.29,-3.24,hashbrowns,932,938,939,True,u,31376,1452,1669836473079,1451,HRV,HRV_0220,2022-11-30 19:33:25
17,"[{'imgObject': {}, 'id': 'sweetpotato', 'src': '/static/foodstim60/sweetpotato.jpg', 'key': 'u', 'origWidth': 410, 'origHeight': 410, 'width': 410, 'height': 410, 'widthPercent': 0.45, 'rescaleHeight': False, 'trialN': 17, 'loaded': True, 'loadedTime': 4409, 'positionName': 'LEFT', 'positionCoords': [511.6, 335], 'bid': 8.23}, {'imgObject': {}, 'id': 'raspberries', 'src': '/static/foodstim60/raspberries.jpg', 'key': 'i', 'origWidth': 411, 'origHeight': 411, 'width': 411, 'height': 411, 'widthPercent': 0.45, 'rescaleHeight': False, 'trialN': 17, 'loaded': True, 'loadedTime': 4414, 'positionName': 'RIGHT', 'positionCoords': [998.4, 334.5], 'bid': 9.17}]",31376,1669836473079,sweetpotato,raspberries,8.23,9.17,0.9399999999999995,raspberries,715,721,721,True,i,32599,1223,1669836474303,1224,HRV,HRV_0220,2022-11-30 19:33:25
18,"[{'imgObject': {}, 'id': 'sushi w_condiments', 'src': '/static/foodstim60/sushi w_condiments.jpg', 'key': 'u', 'origWidth': 410, 'origHeight': 410, 'width': 410, 'height': 410, 'widthPercent': 0.45, 'rescaleHeight': False, 'trialN': 18, 'loaded': True, 'loadedTime': 4431, 'positionName': 'LEFT', 'positionCoords': [511.6, 335], 'bid': 7.890000000000001}, {'imgObject': {}, 'id': 'fruitsalad', 'src': '/static/foodstim60/fruitsalad.jpg', 'key': 'i', 'origWidth': 410, 'origHeight': 410, 'width': 410, 'height': 410, 'widthPercent': 0.45, 'rescaleHeight': False, 'trialN': 18, 'loaded': True, 'loadedTime': 4438, 'positionName': 'RIGHT', 'positionCoords': [998.4, 335], 'bid': 4.97}]",32599,1669836474303,sushi w_condiments,fruitsalad,7.890000000000001,4.97,-2.920000000000001,sushi w_condiments,960,976,977,True,u,34088,1489,1669836475791,1488,HRV,HRV_0220,2022-11-30 19:33:25
19,"[{'imgObject': {}, 'id': 'hashbrowns', 'src': '/static/foodstim60/hashbrowns.jpg', 'key': 'u', 'origWidth': 411, 'origHeight': 410, 'width': 411, 'height': 410, 'widthPercent': 0.45, 'rescaleHeight': False, 'trialN': 19, 'loaded': True, 'loadedTime': 4402, 'positionName': 'LEFT', 'positionCoords': [510.6, 335], 'bid': 4.53}, {'imgObject': {}, 'id': 'apple slices', 'src': '/static/foodstim60/apple slices.jpg', 'key': 'i', 'origWidth': 409, 'origHeight': 410, 'width': 409, 'height': 410, 'widthPercent': 0.45, 'rescaleHeight': False, 'trialN': 19, 'loaded': True, 'loadedTime': 4284, 'positionName': 'RIGHT', 'positionCoords': [998.4, 335], 'bid': 7.68}]",34088,1669836475792,hashbrowns,apple slices,4.53,7.68,3.1499999999999995,apple slices,925,936,937,True,i,35526,1438,1669836477230,1438,HRV,HRV_0220,2022-11-30 19:33:25
20,"[{'imgObject': {}, 'id': 'turkey sandwich', 'src': '/static/foodstim60/turkey sandwich.jpg', 'key': 'u', 'origWidth': 409, 'origHeight': 409, 'width': 409, 'height': 409, 'widthPercent': 0.45, 'rescaleHeight': False, 'trialN': 20, 'loaded': True, 'loadedTime': 4450, 'positionName': 'LEFT', 'positionCoords': [512.6, 335.5], 'bid': 2.33}, {'imgObject': {}, 'id': 'grilled chicken strips', 'src': '/static/foodstim60/grilled chicken strips.jpg', 'key': 'i', 'origWidth': 410, 'origHeight': 411, 'width': 410, 'height': 411, 'widthPercent': 0.45, 'rescaleHeight': False, 'trialN': 20, 'loaded': True, 'loadedTime': 4459, 'positionName': 'RIGHT', 'positionCoords': [998.4, 334.5], 'bid': 5.07}]",35526,1669836477230,turkey sandwich,grilled chicken strips,2.33,5.07,2.74,grilled chicken strips,1737,1746,1747,True,i,37776,2250,1669836479480,2250,HRV,HRV_0220,2022-11-30 19:33:25
21,"[{'imgObject': {}, 'id': 'chicken nuggets2', 'src': '/static/foodstim60/chicken nuggets2.jpg', 'key': 'u', 'origWidth': 410, 'origHeight': 409, 'width': 410, 'height': 409, 'widthPercent': 0.45, 'rescaleHeight': False, 'trialN': 21, 'loaded': True, 'loadedTime': 4348, 'positionName': 'LEFT', 'positionCoords': [511.6, 335.5], 'bid': 8.370000000000001}, {'imgObject': {}, 'id': 'ice cream sundae 002', 'src': '/static/foodstim60/ice cream sundae 002.jpg', 'key': 'i', 'origWidth': 409, 'origHeight': 409, 'width': 409, 'height': 409, 'widthPercent': 0.45, 'rescaleHeight': False, 'trialN': 21, 'loaded': True, 'loadedTime': 3823, 'positionName': 'RIGHT', 'positionCoords': [998.4, 335.5], 'bid': 9.44}]",37776,1669836479480,chicken nuggets2,ice cream sundae 002,8.370000000000001,9.44,1.0699999999999985,ice cream sundae 002,1221,1223,1224,True,i,39509,1733,1669836481213,1733,HRV,HRV_0220,2022-11-30 19:33:25
22,"[{'imgObject': {}, 'id': 'granola w milk', 'src': '/static/foodstim60/granola w milk.jpg', 'key': 'u', 'origWidth': 410, 'origHeight': 410, 'width': 410, 'height': 410, 'widthPercent': 0.45, 'rescaleHeight': False, 'trialN': 22, 'loaded': True, 'loadedTime': 4463, 'positionName': 'LEFT', 'positionCoords': [511.6, 335], 'bid': 5.91}, {'imgObject': {}, 'id': 'Grapes', 'src': '/static/foodstim60/Grapes.jpg', 'key': 'i', 'origWidth': 411, 'origHeight': 411, 'width': 411, 'height': 411, 'widthPercent': 0.45, 'rescaleHeight': False, 'trialN': 22, 'loaded': True, 'loadedTime': 4475, 'positionName': 'RIGHT', 'positionCoords': [998.4, 334.5], 'bid': 8.55}]",39509,1669836481213,granola w milk,Grapes,5.91,8.55,2.6400000000000006,granola w milk,879,883,884,True,u,40895,1386,1669836482599,1386,HRV,HRV_0220,2022-11-30 19:33:25
23,"[{'imgObject': {}, 'id': 'mango', 'src': '/static/foodstim60/mango.jpg', 'key': 'u', 'origWidth': 411, 'origHeight': 411, 'width': 411, 'height': 411, 'widthPercent': 0.45, 'rescaleHeight': False, 'trialN': 23, 'loaded': True, 'loadedTime': 4314, 'positionName': 'LEFT', 'positionCoords': [510.6, 334.5], 'bid': 6.3500000000000005}, {'imgObject': {}, 'id': 'ice cream sundae 002', 'src': '/static/foodstim60/ice cream sundae 002.jpg', 'key': 'i', 'origWidth': 409, 'origHeight': 409, 'width': 409, 'height': 409, 'widthPercent': 0.45, 'rescaleHeight': False, 'trialN': 23, 'loaded': True, 'loadedTime': 3823, 'positionName': 'RIGHT', 'positionCoords': [998.4, 335.5], 'bid': 9.44}]",40895,1669836482599,mango,ice cream sundae 002,6.3500000000000005,9.44,3.089999999999999,ice cream sundae 002,758,760,761,True,i,42164,1269,1669836483867,1268,HRV,HRV_0220,2022-11-30 19:33:25
24,"[{'imgObject': {}, 'id': 'luckycharms', 'src': '/static/foodstim60/luckycharms.jpg', 'key': 'u', 'origWidth': 410, 'origHeight': 409, 'width': 410, 'height': 409, 'widthPercent': 0.45, 'rescaleHeight': False, 'trialN': 24, 'loaded': True, 'loadedTime': 4471, 'positionName': 'LEFT', 'positionCoords': [511.6, 335.5], 'bid': 8.42}, {'imgObject': {}, 'id': 'baked potato', 'src': '/static/foodstim60/baked potato.jpg', 'key': 'i', 'origWidth': 409, 'origHeight': 410, 'width': 409, 'height': 410, 'widthPercent': 0.45, 'rescaleHeight': False, 'trialN': 24, 'loaded': True, 'loadedTime': 4485, 'positionName': 'RIGHT', 'positionCoords': [998.4, 335], 'bid': 9.46}]",42164,1669836483868,luckycharms,baked potato,8.42,9.46,1.040000000000001,baked potato,849,860,861,True,i,43529,1365,1669836485232,1364,HRV,HRV_0220,2022-11-30 19:33:25
25,"[{'imgObject': {}, 'id': 'banana', 'src': '/static/foodstim60/banana.jpg', 'key': 'u', 'origWidth': 410, 'origHeight': 410, 'width': 410, 'height': 410, 'widthPercent': 0.45, 'rescaleHeight': False, 'trialN': 25, 'loaded': True, 'loadedTime': 4500, 'positionName': 'LEFT', 'positionCoords': [511.6, 335], 'bid': 8.47}, {'imgObject': {}, 'id': 'raisin bran w milk', 'src': '/static/foodstim60/raisin bran w milk.jpg', 'key': 'i', 'origWidth': 411, 'origHeight': 411, 'width': 411, 'height': 411, 'widthPercent': 0.45, 'rescaleHeight': False, 'trialN': 25, 'loaded': True, 'loadedTime': 4503, 'positionName': 'RIGHT', 'positionCoords': [998.4, 334.5], 'bid': 7.8}]",43529,1669836485232,banana,raisin bran w milk,8.47,7.8,-0.6700000000000008,banana,1265,1280,1280,True,u,45311,1782,1669836487015,1783,HRV,HRV_0220,2022-11-30 19:33:25
26,"[{'imgObject': {}, 'id': 'kiwi', 'src': '/static/foodstim60/kiwi.jpg', 'key': 'u', 'origWidth': 410, 'origHeight': 410, 'width': 410, 'height': 410, 'widthPercent': 0.45, 'rescaleHeight': False, 'trialN': 26, 'loaded': True, 'loadedTime': 4509, 'positionName': 'LEFT', 'positionCoords': [511.6, 335], 'bid': 6.28}, {'imgObject': {}, 'id': 'cocktailshrimp', 'src': '/static/foodstim60/cocktailshrimp.jpg', 'key': 'i', 'origWidth': 410, 'origHeight': 410, 'width': 410, 'height': 410, 'widthPercent': 0.45, 'rescaleHeight': False, 'trialN': 26, 'loaded': True, 'loadedTime': 4360, 'positionName': 'RIGHT', 'positionCoords': [998.4, 335], 'bid': 6.09}]",45311,1669836487015,kiwi,cocktailshrimp,6.28,6.09,-0.1900000000000004,kiwi,967,978,978,True,u,46794,1483,1669836488497,1482,HRV,HRV_0220,2022-11-30 19:33:25
27,"[{'imgObject': {}, 'id': 'grilled chicken strips', 'src': '/static/foodstim60/grilled chicken strips.jpg', 'key': 'u', 'origWidth': 410, 'origHeight': 411, 'width': 410, 'height': 411, 'widthPercent': 0.45, 'rescaleHeight': False, 'trialN': 27, 'loaded': True, 'loadedTime': 4458, 'positionName': 'LEFT', 'positionCoords': [511.6, 334.5], 'bid': 5.07}, {'imgObject': {}, 'id': 'sweetpotato', 'src': '/static/foodstim60/sweetpotato.jpg', 'key': 'i', 'origWidth': 410, 'origHeight': 410, 'width': 410, 'height': 410, 'widthPercent': 0.45, 'rescaleHeight': False, 'trialN': 27, 'loaded': True, 'loadedTime': 4409, 'positionName': 'RIGHT', 'positionCoords': [998.4, 335], 'bid': 8.23}]",46794,1669836488497,grilled chicken strips,sweetpotato,5.07,8.23,3.16,sweetpotato,906,911,910,True,i,48219,1425,1669836489922,1425,HRV,HRV_0220,2022-11-30 19:33:25
28,"[{'imgObject': {}, 'id': 'bagel and cc', 'src': '/static/foodstim60/bagel and cc.jpg', 'key': 'u', 'origWidth': 410, 'origHeight': 410, 'width': 410, 'height': 410, 'widthPercent': 0.45, 'rescaleHeight': False, 'trialN': 28, 'loaded': True, 'loadedTime': 4358, 'positionName': 'LEFT', 'positionCoords': [511.6, 335], 'bid': 2.75}, {'imgObject': {}, 'id': 'blackbeanswithrice', 'src': '/static/foodstim60/blackbeanswithrice.jpg', 'key': 'i', 'origWidth': 410, 'origHeight': 410, 'width': 410, 'height': 410, 'widthPercent': 0.45, 'rescaleHeight': False, 'trialN': 28, 'loaded': True, 'loadedTime': 4516, 'positionName': 'RIGHT', 'positionCoords': [998.4, 335], 'bid': 5.71}]",48220,1669836489922,bagel and cc,blackbeanswithrice,2.75,5.71,2.96,bagel and cc,1511,1526,1525,True,u,50260,2040,1669836491963,2041,HRV,HRV_0220,2022-11-30 19:33:25
29,"[{'imgObject': {}, 'id': 'eggsalad', 'src': '/static/foodstim60/eggsalad.jpg', 'key': 'u', 'origWidth': 410, 'origHeight': 409, 'width': 410, 'height': 409, 'widthPercent': 0.45, 'rescaleHeight': False, 'trialN': 29, 'loaded': True, 'loadedTime': 4519, 'positionName': 'LEFT', 'positionCoords': [511.6, 335.5], 'bid': 7.0200000000000005}, {'imgObject': {}, 'id': 'strawberries', 'src': '/static/foodstim60/strawberries.jpg', 'key': 'i', 'origWidth': 410, 'origHeight': 410, 'width': 410, 'height': 410, 'widthPercent': 0.45, 'rescaleHeight': False, 'trialN': 29, 'loaded': True, 'loadedTime': 4532, 'positionName': 'RIGHT', 'positionCoords': [998.4, 335], 'bid': 8.540000000000001}]",50260,1669836491964,eggsalad,strawberries,7.0200000000000005,8.540000000000001,1.5200000000000005,strawberries,909,924,926,True,i,51688,1428,1669836493391,1427,HRV,HRV_0220,2022-11-30 19:33:25
30,"[{'imgObject': {}, 'id': 'tacos', 'src': '/static/foodstim60/tacos.jpg', 'key': 'u', 'origWidth': 411, 'origHeight': 411, 'width': 411, 'height': 411, 'widthPercent': 0.45, 'rescaleHeight': False, 'trialN': 30, 'loaded': True, 'loadedTime': 4243, 'positionName': 'LEFT', 'positionCoords': [510.6, 334.5], 'bid': 7.42}, {'imgObject': {}, 'id': 'avocado', 'src': '/static/foodstim60/avocado.jpg', 'key': 'i', 'origWidth': 409, 'origHeight': 409, 'width': 409, 'height': 409, 'widthPercent': 0.45, 'rescaleHeight': False, 'trialN': 30, 'loaded': True, 'loadedTime': 4545, 'positionName': 'RIGHT', 'positionCoords': [998.4, 335.5], 'bid': 6.33}]",51688,1669836493391,tacos,avocado,7.42,6.33,-1.0899999999999999,avocado,1309,1312,1313,True,i,53506,1818,1669836495210,1819,HRV,HRV_0220,2022-11-30 19:33:25
31,"[{'imgObject': {}, 'id': 'omelette', 'src': '/static/foodstim60/omelette.jpg', 'key': 'u', 'origWidth': 410, 'origHeight': 409, 'width': 410, 'height': 409, 'widthPercent': 0.45, 'rescaleHeight': False, 'trialN': 31, 'loaded': True, 'loadedTime': 4241, 'positionName': 'LEFT', 'positionCoords': [511.6, 335.5], 'bid': 6.83}, {'imgObject': {}, 'id': 'roastedpotatoes', 'src': '/static/foodstim60/roastedpotatoes.jpg', 'key': 'i', 'origWidth': 409, 'origHeight': 410, 'width': 409, 'height': 410, 'widthPercent': 0.45, 'rescaleHeight': False, 'trialN': 31, 'loaded': True, 'loadedTime': 4225, 'positionName': 'RIGHT', 'positionCoords': [998.4, 335], 'bid': 9.54}]",53506,1669836495210,omelette,roastedpotatoes,6.83,9.54,2.709999999999999,roastedpotatoes,1022,1039,1039,True,i,55052,1546,1669836496755,1545,HRV,HRV_0220,2022-11-30 19:33:25
32,"[{'imgObject': {}, 'id': 'cantaloupe', 'src': '/static/foodstim60/cantaloupe.jpg', 'key': 'u', 'origWidth': 409, 'origHeight': 409, 'width': 409, 'height': 409, 'widthPercent': 0.45, 'rescaleHeight': False, 'trialN': 32, 'loaded': True, 'loadedTime': 4556, 'positionName': 'LEFT', 'positionCoords': [512.6, 335.5], 'bid': 5.68}, {'imgObject': {}, 'id': 'banana', 'src': '/static/foodstim60/banana.jpg', 'key': 'i', 'origWidth': 410, 'origHeight': 410, 'width': 410, 'height': 410, 'widthPercent': 0.45, 'rescaleHeight': False, 'trialN': 32, 'loaded': True, 'loadedTime': 4500, 'positionName': 'RIGHT', 'positionCoords': [998.4, 335], 'bid': 8.47}]",55052,1669836496755,cantaloupe,banana,5.68,8.47,2.790000000000001,banana,1007,1020,1020,True,i,56580,1528,1669836498284,1529,HRV,HRV_0220,2022-11-30 19:33:25
33,"[{'imgObject': {}, 'id': 'turkey sandwich', 'src': '/static/foodstim60/turkey sandwich.jpg', 'key': 'u', 'origWidth': 409, 'origHeight': 409, 'width': 409, 'height': 409, 'widthPercent': 0.45, 'rescaleHeight': False, 'trialN': 33, 'loaded': True, 'loadedTime': 4448, 'positionName': 'LEFT', 'positionCoords': [512.6, 335.5], 'bid': 2.33}, {'imgObject': {}, 'id': 'granola w milk', 'src': '/static/foodstim60/granola w milk.jpg', 'key': 'i', 'origWidth': 410, 'origHeight': 410, 'width': 410, 'height': 410, 'widthPercent': 0.45, 'rescaleHeight': False, 'trialN': 33, 'loaded': True, 'loadedTime': 4463, 'positionName': 'RIGHT', 'positionCoords': [998.4, 335], 'bid': 5.91}]",56580,1669836498284,turkey sandwich,granola w milk,2.33,5.91,3.58,granola w milk,1073,1084,1085,True,i,58173,1593,1669836499877,1593,HRV,HRV_0220,2022-11-30 19:33:25
34,"[{'imgObject': {}, 'id': 'eggsalad', 'src': '/static/foodstim60/eggsalad.jpg', 'key': 'u', 'origWidth': 410, 'origHeight': 409, 'width': 410, 'height': 409, 'widthPercent': 0.45, 'rescaleHeight': False, 'trialN': 34, 'loaded': True, 'loadedTime': 4519, 'positionName': 'LEFT', 'positionCoords': [511.6, 335.5], 'bid': 7.0200000000000005}, {'imgObject': {}, 'id': 'cherry tomato', 'src': '/static/foodstim60/cherry tomato.jpg', 'key': 'i', 'origWidth': 410, 'origHeight': 410, 'width': 410, 'height': 410, 'widthPercent': 0.45, 'rescaleHeight': False, 'trialN': 34, 'loaded': True, 'loadedTime': 4562, 'positionName': 'RIGHT', 'positionCoords': [998.4, 335], 'bid': 6.7}]",58174,1669836499877,eggsalad,cherry tomato,7.0200000000000005,6.7,-0.3200000000000003,cherry tomato,1182,1185,1184,True,i,59871,1697,1669836501574,1697,HRV,HRV_0220,2022-11-30 19:33:25
35,"[{'imgObject': {}, 'id': 'cantaloupe', 'src': '/static/foodstim60/cantaloupe.jpg', 'key': 'u', 'origWidth': 409, 'origHeight': 409, 'width': 409, 'height': 409, 'widthPercent': 0.45, 'rescaleHeight': False, 'trialN': 35, 'loaded': True, 'loadedTime': 4556, 'positionName': 'LEFT', 'positionCoords': [512.6, 335.5], 'bid': 5.68}, {'imgObject': {}, 'id': 'burrito', 'src': '/static/foodstim60/burrito.jpg', 'key': 'i', 'origWidth': 410, 'origHeight': 410, 'width': 410, 'height': 410, 'widthPercent': 0.45, 'rescaleHeight': False, 'trialN': 35, 'loaded': True, 'loadedTime': 4389, 'positionName': 'RIGHT', 'positionCoords': [998.4, 335], 'bid': 5.72}]",59871,1669836501574,cantaloupe,burrito,5.68,5.72,0.040000000000000036,cantaloupe,1032,1039,1038,True,u,61417,1546,1669836503120,1546,HRV,HRV_0220,2022-11-30 19:33:25
36,"[{'imgObject': {}, 'id': 'popsicles', 'src': '/static/foodstim60/popsicles.jpg', 'key': 'u', 'origWidth': 410, 'origHeight': 410, 'width': 410, 'height': 410, 'widthPercent': 0.45, 'rescaleHeight': False, 'trialN': 36, 'loaded': True, 'loadedTime': 4056, 'positionName': 'LEFT', 'positionCoords': [511.6, 335], 'bid': 8.52}, {'imgObject': {}, 'id': 'blueberries', 'src': '/static/foodstim60/blueberries.jpg', 'key': 'i', 'origWidth': 411, 'origHeight': 411, 'width': 411, 'height': 411, 'widthPercent': 0.45, 'rescaleHeight': False, 'trialN': 36, 'loaded': True, 'loadedTime': 4216, 'positionName': 'RIGHT', 'positionCoords': [998.4, 334.5], 'bid': 8.540000000000001}]",61418,1669836503121,popsicles,blueberries,8.52,8.540000000000001,0.02000000000000135,blueberries,1126,1144,1143,True,i,63063,1645,1669836504765,1644,HRV,HRV_0220,2022-11-30 19:33:25
37,"[{'imgObject': {}, 'id': 'veggieswithdip', 'src': '/static/foodstim60/veggieswithdip.jpg', 'key': 'u', 'origWidth': 409, 'origHeight': 409, 'width': 409, 'height': 409, 'widthPercent': 0.45, 'rescaleHeight': False, 'trialN': 37, 'loaded': True, 'loadedTime': 4567, 'positionName': 'LEFT', 'positionCoords': [512.6, 335.5], 'bid': 4.96}, {'imgObject': {}, 'id': 'burger', 'src': '/static/foodstim60/burger.jpg', 'key': 'i', 'origWidth': 409, 'origHeight': 409, 'width': 409, 'height': 409, 'widthPercent': 0.45, 'rescaleHeight': False, 'trialN': 37, 'loaded': True, 'loadedTime': 4569, 'positionName': 'RIGHT', 'positionCoords': [998.4, 335.5], 'bid': 6.12}]",63063,1669836504766,veggieswithdip,burger,4.96,6.12,1.1600000000000001,burger,1887,1898,1898,True,i,65468,2405,1669836507171,2405,HRV,HRV_0220,2022-11-30 19:33:25
38,"[{'imgObject': {}, 'id': 'veggieswithdip', 'src': '/static/foodstim60/veggieswithdip.jpg', 'key': 'u', 'origWidth': 409, 'origHeight': 409, 'width': 409, 'height': 409, 'widthPercent': 0.45, 'rescaleHeight': False, 'trialN': 38, 'loaded': True, 'loadedTime': 4567, 'positionName': 'LEFT', 'positionCoords': [512.6, 335.5], 'bid': 4.96}, {'imgObject': {}, 'id': 'hashbrowns', 'src': '/static/foodstim60/hashbrowns.jpg', 'key': 'i', 'origWidth': 411, 'origHeight': 410, 'width': 411, 'height': 410, 'widthPercent': 0.45, 'rescaleHeight': False, 'trialN': 38, 'loaded': True, 'loadedTime': 4402, 'positionName': 'RIGHT', 'positionCoords': [998.4, 335], 'bid': 4.53}]",65468,1669836507171,veggieswithdip,hashbrowns,4.96,4.53,-0.4299999999999997,hashbrowns,701,717,716,True,i,66692,1224,1669836508395,1224,HRV,HRV_0220,2022-11-30 19:33:25
39,"[{'imgObject': {}, 'id': 'fried eggs', 'src': '/static/foodstim60/fried eggs.jpg', 'key': 'u', 'origWidth': 410, 'origHeight': 410, 'width': 410, 'height': 410, 'widthPercent': 0.45, 'rescaleHeight': False, 'trialN': 39, 'loaded': True, 'loadedTime': 4674, 'positionName': 'LEFT', 'positionCoords': [511.6, 335], 'bid': 5.89}, {'imgObject': {}, 'id': 'olives', 'src': '/static/foodstim60/olives.jpg', 'key': 'i', 'origWidth': 410, 'origHeight': 410, 'width': 410, 'height': 410, 'widthPercent': 0.45, 'rescaleHeight': False, 'trialN': 39, 'loaded': True, 'loadedTime': 4806, 'positionName': 'RIGHT', 'positionCoords': [998.4, 335], 'bid': 2.1}]",66692,1669836508395,fried eggs,olives,5.89,2.1,-3.7899999999999996,fried eggs,1071,1077,1077,True,u,68276,1584,1669836509978,1583,HRV,HRV_0220,2022-11-30 19:33:25
40,"[{'imgObject': {}, 'id': 'raspberries', 'src': '/static/foodstim60/raspberries.jpg', 'key': 'u', 'origWidth': 411, 'origHeight': 411, 'width': 411, 'height': 411, 'widthPercent': 0.45, 'rescaleHeight': False, 'trialN': 40, 'loaded': True, 'loadedTime': 4414, 'positionName': 'LEFT', 'positionCoords': [510.6, 334.5], 'bid': 9.17}, {'imgObject': {}, 'id': 'froot loops w milk', 'src': '/static/foodstim60/froot loops w milk.jpg', 'key': 'i', 'origWidth': 410, 'origHeight': 410, 'width': 410, 'height': 410, 'widthPercent': 0.45, 'rescaleHeight': False, 'trialN': 40, 'loaded': True, 'loadedTime': 4357, 'positionName': 'RIGHT', 'positionCoords': [998.4, 335], 'bid': 9.21}]",68276,1669836509978,raspberries,froot loops w milk,9.17,9.21,0.040000000000000924,froot loops w milk,783,789,789,True,i,69574,1298,1669836511277,1299,HRV,HRV_0220,2022-11-30 19:33:25
41,"[{'imgObject': {}, 'id': 'Tribe humus pita', 'src': '/static/foodstim60/Tribe humus pita.jpg', 'key': 'u', 'origWidth': 411, 'origHeight': 411, 'width': 411, 'height': 411, 'widthPercent': 0.45, 'rescaleHeight': False, 'trialN': 41, 'loaded': True, 'loadedTime': 4689, 'positionName': 'LEFT', 'positionCoords': [510.6, 334.5], 'bid': 6.3100000000000005}, {'imgObject': {}, 'id': 'mango', 'src': '/static/foodstim60/mango.jpg', 'key': 'i', 'origWidth': 411, 'origHeight': 411, 'width': 411, 'height': 411, 'widthPercent': 0.45, 'rescaleHeight': False, 'trialN': 41, 'loaded': True, 'loadedTime': 4314, 'positionName': 'RIGHT', 'positionCoords': [998.4, 334.5], 'bid': 6.3500000000000005}]",69574,1669836511277,Tribe humus pita,mango,6.3100000000000005,6.3500000000000005,0.040000000000000036,Tribe humus pita,1282,1299,1298,True,u,71381,1807,1669836513085,1808,HRV,HRV_0220,2022-11-30 19:33:25
42,"[{'imgObject': {}, 'id': 'blueberries', 'src': '/static/foodstim60/blueberries.jpg', 'key': 'u', 'origWidth': 411, 'origHeight': 411, 'width': 411, 'height': 411, 'widthPercent': 0.45, 'rescaleHeight': False, 'trialN': 42, 'loaded': True, 'loadedTime': 4215, 'positionName': 'LEFT', 'positionCoords': [510.6, 334.5], 'bid': 8.540000000000001}, {'imgObject': {}, 'id': 'ice cream sundae 002', 'src': '/static/foodstim60/ice cream sundae 002.jpg', 'key': 'i', 'origWidth': 409, 'origHeight': 409, 'width': 409, 'height': 409, 'widthPercent': 0.45, 'rescaleHeight': False, 'trialN': 42, 'loaded': True, 'loadedTime': 3821, 'positionName': 'RIGHT', 'positionCoords': [998.4, 335.5], 'bid': 9.44}]",71382,1669836513086,blueberries,ice cream sundae 002,8.540000000000001,9.44,0.8999999999999986,blueberries,912,914,915,True,u,72801,1419,1669836514505,1419,HRV,HRV_0220,2022-11-30 19:33:25
43,"[{'imgObject': {}, 'id': 'chickenfingers', 'src': '/static/foodstim60/chickenfingers.jpg', 'key': 'u', 'origWidth': 410, 'origHeight': 410, 'width': 410, 'height': 410, 'widthPercent': 0.45, 'rescaleHeight': False, 'trialN': 43, 'loaded': True, 'loadedTime': 4683, 'positionName': 'LEFT', 'positionCoords': [511.6, 335], 'bid': 7.03}, {'imgObject': {}, 'id': 'avocado', 'src': '/static/foodstim60/avocado.jpg', 'key': 'i', 'origWidth': 409, 'origHeight': 409, 'width': 409, 'height': 409, 'widthPercent': 0.45, 'rescaleHeight': False, 'trialN': 43, 'loaded': True, 'loadedTime': 4548, 'positionName': 'RIGHT', 'positionCoords': [998.4, 335.5], 'bid': 6.33}]",72801,1669836514506,chickenfingers,avocado,7.03,6.33,-0.7000000000000002,chickenfingers,1133,1135,1136,True,u,74442,1641,1669836516145,1639,HRV,HRV_0220,2022-11-30 19:33:25
44,"[{'imgObject': {}, 'id': 'yogurt no spoon', 'src': '/static/foodstim60/yogurt no spoon.jpg', 'key': 'u', 'origWidth': 411, 'origHeight': 410, 'width': 411, 'height': 410, 'widthPercent': 0.45, 'rescaleHeight': False, 'trialN': 44, 'loaded': True, 'loadedTime': 4168, 'positionName': 'LEFT', 'positionCoords': [510.6, 335], 'bid': 8.540000000000001}, {'imgObject': {}, 'id': 'shreddedwheatwithmilk', 'src': '/static/foodstim60/shreddedwheatwithmilk.jpg', 'key': 'i', 'origWidth': 410, 'origHeight': 410, 'width': 410, 'height': 410, 'widthPercent': 0.45, 'rescaleHeight': False, 'trialN': 44, 'loaded': True, 'loadedTime': 4683, 'positionName': 'RIGHT', 'positionCoords': [998.4, 335], 'bid': 7.22}]",74442,1669836516145,yogurt no spoon,shreddedwheatwithmilk,8.540000000000001,7.22,-1.3200000000000012,shreddedwheatwithmilk,1274,1285,1285,True,i,76236,1794,1669836517940,1795,HRV,HRV_0220,2022-11-30 19:33:25
45,"[{'imgObject': {}, 'id': 'burrito', 'src': '/static/foodstim60/burrito.jpg', 'key': 'u', 'origWidth': 410, 'origHeight': 410, 'width': 410, 'height': 410, 'widthPercent': 0.45, 'rescaleHeight': False, 'trialN': 45, 'loaded': True, 'loadedTime': 4390, 'positionName': 'LEFT', 'positionCoords': [511.6, 335], 'bid': 5.72}, {'imgObject': {}, 'id': 'turkeysandwich', 'src': '/static/foodstim60/turkeysandwich.jpg', 'key': 'i', 'origWidth': 409, 'origHeight': 409, 'width': 409, 'height': 409, 'widthPercent': 0.45, 'rescaleHeight': False, 'trialN': 45, 'loaded': True, 'loadedTime': 4281, 'positionName': 'RIGHT', 'positionCoords': [998.4, 335.5], 'bid': 3.34}]",76237,1669836517940,burrito,turkeysandwich,5.72,3.34,-2.38,turkeysandwich,1057,1061,1060,True,i,77807,1570,1669836519510,1570,HRV,HRV_0220,2022-11-30 19:33:25
46,"[{'imgObject': {}, 'id': 'sushi w_condiments', 'src': '/static/foodstim60/sushi w_condiments.jpg', 'key': 'u', 'origWidth': 410, 'origHeight': 410, 'width': 410, 'height': 410, 'widthPercent': 0.45, 'rescaleHeight': False, 'trialN': 46, 'loaded': True, 'loadedTime': 4432, 'positionName': 'LEFT', 'positionCoords': [511.6, 335], 'bid': 7.890000000000001}, {'imgObject': {}, 'id': 'popsicles', 'src': '/static/foodstim60/popsicles.jpg', 'key': 'i', 'origWidth': 410, 'origHeight': 410, 'width': 410, 'height': 410, 'widthPercent': 0.45, 'rescaleHeight': False, 'trialN': 46, 'loaded': True, 'loadedTime': 4056, 'positionName': 'RIGHT', 'positionCoords': [998.4, 335], 'bid': 8.52}]",77807,1669836519510,sushi w_condiments,popsicles,7.890000000000001,8.52,0.629999999999999,popsicles,674,690,690,True,i,79001,1194,1669836520705,1195,HRV,HRV_0220,2022-11-30 19:33:25
47,"[{'imgObject': {}, 'id': 'raisin bran w milk', 'src': '/static/foodstim60/raisin bran w milk.jpg', 'key': 'u', 'origWidth': 411, 'origHeight': 411, 'width': 411, 'height': 411, 'widthPercent': 0.45, 'rescaleHeight': False, 'trialN': 47, 'loaded': True, 'loadedTime': 4505, 'positionName': 'LEFT', 'positionCoords': [510.6, 334.5], 'bid': 7.8}, {'imgObject': {}, 'id': 'sweetpotato', 'src': '/static/foodstim60/sweetpotato.jpg', 'key': 'i', 'origWidth': 410, 'origHeight': 410, 'width': 410, 'height': 410, 'widthPercent': 0.45, 'rescaleHeight': False, 'trialN': 47, 'loaded': True, 'loadedTime': 4409, 'positionName': 'RIGHT', 'positionCoords': [998.4, 335], 'bid': 8.23}]",79001,1669836520705,raisin bran w milk,sweetpotato,7.8,8.23,0.4300000000000006,sweetpotato,996,1000,1000,True,i,80504,1503,1669836522207,1502,HRV,HRV_0220,2022-11-30 19:33:25
48,"[{'imgObject': {}, 'id': 'cheerios', 'src': '/static/foodstim60/cheerios.jpg', 'key': 'u', 'origWidth': 409, 'origHeight': 410, 'width': 409, 'height': 410, 'widthPercent': 0.45, 'rescaleHeight': False, 'trialN': 48, 'loaded': True, 'loadedTime': 4357, 'positionName': 'LEFT', 'positionCoords': [512.6, 335], 'bid': 8.89}, {'imgObject': {}, 'id': 'apple slices', 'src': '/static/foodstim60/apple slices.jpg', 'key': 'i', 'origWidth': 409, 'origHeight': 410, 'width': 409, 'height': 410, 'widthPercent': 0.45, 'rescaleHeight': False, 'trialN': 48, 'loaded': True, 'loadedTime': 4286, 'positionName': 'RIGHT', 'positionCoords': [998.4, 335], 'bid': 7.68}]",80504,1669836522207,cheerios,apple slices,8.89,7.68,-1.2100000000000009,cheerios,884,890,890,True,u,81898,1394,1669836523602,1395,HRV,HRV_0220,2022-11-30 19:33:25
49,"[{'imgObject': {}, 'id': 'olives', 'src': '/static/foodstim60/olives.jpg', 'key': 'u', 'origWidth': 410, 'origHeight': 410, 'width': 410, 'height': 410, 'widthPercent': 0.45, 'rescaleHeight': False, 'trialN': 49, 'loaded': True, 'loadedTime': 4806, 'positionName': 'LEFT', 'positionCoords': [511.6, 335], 'bid': 2.1}, {'imgObject': {}, 'id': 'hotdog w must', 'src': '/static/foodstim60/hotdog w must.jpg', 'key': 'i', 'origWidth': 409, 'origHeight': 409, 'width': 409, 'height': 409, 'widthPercent': 0.45, 'rescaleHeight': False, 'trialN': 49, 'loaded': True, 'loadedTime': 4426, 'positionName': 'RIGHT', 'positionCoords': [998.4, 335.5], 'bid': 1.29}]",81898,1669836523602,olives,hotdog w must,2.1,1.29,-0.81,olives,1255,1262,1263,True,u,83673,1775,1669836525377,1775,HRV,HRV_0220,2022-11-30 19:33:25
50,"[{'imgObject': {}, 'id': 'popsicles', 'src': '/static/foodstim60/popsicles.jpg', 'key': 'u', 'origWidth': 410, 'origHeight': 410, 'width': 410, 'height': 410, 'widthPercent': 0.45, 'rescaleHeight': False, 'trialN': 50, 'loaded': True, 'loadedTime': 4054, 'positionName': 'LEFT', 'positionCoords': [511.6, 335], 'bid': 8.52}, {'imgObject': {}, 'id': 'blackbeanswithrice', 'src': '/static/foodstim60/blackbeanswithrice.jpg', 'key': 'i', 'origWidth': 410, 'origHeight': 410, 'width': 410, 'height': 410, 'widthPercent': 0.45, 'rescaleHeight': False, 'trialN': 50, 'loaded': True, 'loadedTime': 4516, 'positionName': 'RIGHT', 'positionCoords': [998.4, 335], 'bid': 5.71}]",83673,1669836525377,popsicles,blackbeanswithrice,8.52,5.71,-2.8099999999999996,popsicles,965,967,968,True,u,85155,1482,1669836526859,1482,HRV,HRV_0220,2022-11-30 19:33:25
51,"[{'imgObject': {}, 'id': 'cheerios', 'src': '/static/foodstim60/cheerios.jpg', 'key': 'u', 'origWidth': 409, 'origHeight': 410, 'width': 409, 'height': 410, 'widthPercent': 0.45, 'rescaleHeight': False, 'trialN': 51, 'loaded': True, 'loadedTime': 4358, 'positionName': 'LEFT', 'positionCoords': [512.6, 335], 'bid': 8.89}, {'imgObject': {}, 'id': 'rigatoni and sauce', 'src': '/static/foodstim60/rigatoni and sauce.jpg', 'key': 'i', 'origWidth': 410, 'origHeight': 411, 'width': 410, 'height': 411, 'widthPercent': 0.45, 'rescaleHeight': False, 'trialN': 51, 'loaded': True, 'loadedTime': 3834, 'positionName': 'RIGHT', 'positionCoords': [998.4, 334.5], 'bid': 8.81}]",85156,1669836526859,cheerios,rigatoni and sauce,8.89,8.81,-0.08000000000000007,rigatoni and sauce,1075,1085,1085,True,i,86750,1594,1669836528454,1595,HRV,HRV_0220,2022-11-30 19:33:25
52,"[{'imgObject': {}, 'id': 'shreddedwheatwithmilk', 'src': '/static/foodstim60/shreddedwheatwithmilk.jpg', 'key': 'u', 'origWidth': 410, 'origHeight': 410, 'width': 410, 'height': 410, 'widthPercent': 0.45, 'rescaleHeight': False, 'trialN': 52, 'loaded': True, 'loadedTime': 4686, 'positionName': 'LEFT', 'positionCoords': [511.6, 335], 'bid': 7.22}, {'imgObject': {}, 'id': 'burger', 'src': '/static/foodstim60/burger.jpg', 'key': 'i', 'origWidth': 409, 'origHeight': 409, 'width': 409, 'height': 409, 'widthPercent': 0.45, 'rescaleHeight': False, 'trialN': 52, 'loaded': True, 'loadedTime': 4569, 'positionName': 'RIGHT', 'positionCoords': [998.4, 335.5], 'bid': 6.12}]",86750,1669836528454,shreddedwheatwithmilk,burger,7.22,6.12,-1.0999999999999996,shreddedwheatwithmilk,997,1003,1003,True,u,88259,1509,1669836529963,1509,HRV,HRV_0220,2022-11-30 19:33:25
53,"[{'imgObject': {}, 'id': 'cocktailshrimp', 'src': '/static/foodstim60/cocktailshrimp.jpg', 'key': 'u', 'origWidth': 410, 'origHeight': 410, 'width': 410, 'height': 410, 'widthPercent': 0.45, 'rescaleHeight': False, 'trialN': 53, 'loaded': True, 'loadedTime': 4361, 'positionName': 'LEFT', 'positionCoords': [511.6, 335], 'bid': 6.09}, {'imgObject': {}, 'id': 'hashbrowns', 'src': '/static/foodstim60/hashbrowns.jpg', 'key': 'i', 'origWidth': 411, 'origHeight': 410, 'width': 411, 'height': 410, 'widthPercent': 0.45, 'rescaleHeight': False, 'trialN': 53, 'loaded': True, 'loadedTime': 4402, 'positionName': 'RIGHT', 'positionCoords': [998.4, 335], 'bid': 4.53}]",88260,1669836529963,cocktailshrimp,hashbrowns,6.09,4.53,-1.5599999999999996,cocktailshrimp,1112,1114,1114,True,u,89881,1621,1669836531585,1622,HRV,HRV_0220,2022-11-30 19:33:25
54,"[{'imgObject': {}, 'id': 'blackbeanswithrice', 'src': '/static/foodstim60/blackbeanswithrice.jpg', 'key': 'u', 'origWidth': 410, 'origHeight': 410, 'width': 410, 'height': 410, 'widthPercent': 0.45, 'rescaleHeight': False, 'trialN': 54, 'loaded': True, 'loadedTime': 4516, 'positionName': 'LEFT', 'positionCoords': [511.6, 335], 'bid': 5.71}, {'imgObject': {}, 'id': 'omelette', 'src': '/static/foodstim60/omelette.jpg', 'key': 'i', 'origWidth': 410, 'origHeight': 409, 'width': 410, 'height': 409, 'widthPercent': 0.45, 'rescaleHeight': False, 'trialN': 54, 'loaded': True, 'loadedTime': 4241, 'positionName': 'RIGHT', 'positionCoords': [998.4, 335.5], 'bid': 6.83}]",89881,1669836531585,blackbeanswithrice,omelette,5.71,6.83,1.12,blackbeanswithrice,1147,1151,1151,True,u,91544,1663,1669836533248,1663,HRV,HRV_0220,2022-11-30 19:33:25
55,"[{'imgObject': {}, 'id': 'mac & cheese', 'src': '/static/foodstim60/mac & cheese.jpg', 'key': 'u', 'origWidth': 410, 'origHeight': 410, 'width': 410, 'height': 410, 'widthPercent': 0.45, 'rescaleHeight': False, 'trialN': 55, 'loaded': True, 'loadedTime': 4677, 'positionName': 'LEFT', 'positionCoords': [511.6, 335], 'bid': 8.89}, {'imgObject': {}, 'id': 'raisin bran w milk', 'src': '/static/foodstim60/raisin bran w milk.jpg', 'key': 'i', 'origWidth': 411, 'origHeight': 411, 'width': 411, 'height': 411, 'widthPercent': 0.45, 'rescaleHeight': False, 'trialN': 55, 'loaded': True, 'loadedTime': 4505, 'positionName': 'RIGHT', 'positionCoords': [998.4, 334.5], 'bid': 7.8}]",91545,1669836533248,mac & cheese,raisin bran w milk,8.89,7.8,-1.0900000000000007,mac & cheese,1046,1056,1055,True,u,93112,1567,1669836534815,1567,HRV,HRV_0220,2022-11-30 19:33:25
56,"[{'imgObject': {}, 'id': 'froot loops w milk', 'src': '/static/foodstim60/froot loops w milk.jpg', 'key': 'u', 'origWidth': 410, 'origHeight': 410, 'width': 410, 'height': 410, 'widthPercent': 0.45, 'rescaleHeight': False, 'trialN': 56, 'loaded': True, 'loadedTime': 4354, 'positionName': 'LEFT', 'positionCoords': [511.6, 335], 'bid': 9.21}, {'imgObject': {}, 'id': 'corn cob', 'src': '/static/foodstim60/corn cob.jpg', 'key': 'i', 'origWidth': 411, 'origHeight': 411, 'width': 411, 'height': 411, 'widthPercent': 0.45, 'rescaleHeight': False, 'trialN': 56, 'loaded': True, 'loadedTime': 4104, 'positionName': 'RIGHT', 'positionCoords': [998.4, 334.5], 'bid': 8.59}]",93112,1669836534815,froot loops w milk,corn cob,9.21,8.59,-0.620000000000001,corn cob,963,968,968,True,i,94586,1474,1669836536288,1473,HRV,HRV_0220,2022-11-30 19:33:25
57,"[{'imgObject': {}, 'id': 'orange slices', 'src': '/static/foodstim60/orange slices.jpg', 'key': 'u', 'origWidth': 409, 'origHeight': 410, 'width': 409, 'height': 410, 'widthPercent': 0.45, 'rescaleHeight': False, 'trialN': 57, 'loaded': True, 'loadedTime': 4677, 'positionName': 'LEFT', 'positionCoords': [512.6, 335], 'bid': 7.28}, {'imgObject': {}, 'id': 'turkey sandwich', 'src': '/static/foodstim60/turkey sandwich.jpg', 'key': 'i', 'origWidth': 409, 'origHeight': 409, 'width': 409, 'height': 409, 'widthPercent': 0.45, 'rescaleHeight': False, 'trialN': 57, 'loaded': True, 'loadedTime': 4450, 'positionName': 'RIGHT', 'positionCoords': [998.4, 335.5], 'bid': 2.33}]",94586,1669836536288,orange slices,turkey sandwich,7.28,2.33,-4.95,orange slices,880,888,887,True,u,95977,1391,1669836537681,1393,HRV,HRV_0220,2022-11-30 19:33:25
58,"[{'imgObject': {}, 'id': 'corn cob', 'src': '/static/foodstim60/corn cob.jpg', 'key': 'u', 'origWidth': 411, 'origHeight': 411, 'width': 411, 'height': 411, 'widthPercent': 0.45, 'rescaleHeight': False, 'trialN': 58, 'loaded': True, 'loadedTime': 4106, 'positionName': 'LEFT', 'positionCoords': [510.6, 334.5], 'bid': 8.59}, {'imgObject': {}, 'id': 'salad w chicken', 'src': '/static/foodstim60/salad w chicken.jpg', 'key': 'i', 'origWidth': 411, 'origHeight': 411, 'width': 411, 'height': 411, 'widthPercent': 0.45, 'rescaleHeight': False, 'trialN': 58, 'loaded': True, 'loadedTime': 4692, 'positionName': 'RIGHT', 'positionCoords': [998.4, 334.5], 'bid': 7.28}]",95977,1669836537681,corn cob,salad w chicken,8.59,7.28,-1.3099999999999996,corn cob,786,798,799,True,u,97288,1311,1669836538991,1310,HRV,HRV_0220,2022-11-30 19:33:25
59,"[{'imgObject': {}, 'id': 'cocktailshrimp', 'src': '/static/foodstim60/cocktailshrimp.jpg', 'key': 'u', 'origWidth': 410, 'origHeight': 410, 'width': 410, 'height': 410, 'widthPercent': 0.45, 'rescaleHeight': False, 'trialN': 59, 'loaded': True, 'loadedTime': 4361, 'positionName': 'LEFT', 'positionCoords': [511.6, 335], 'bid': 6.09}, {'imgObject': {}, 'id': 'eggs', 'src': '/static/foodstim60/eggs.jpg', 'key': 'i', 'origWidth': 409, 'origHeight': 409, 'width': 409, 'height': 409, 'widthPercent': 0.45, 'rescaleHeight': False, 'trialN': 59, 'loaded': True, 'loadedTime': 4299, 'positionName': 'RIGHT', 'positionCoords': [998.4, 335.5], 'bid': 6.03}]",97288,1669836538991,cocktailshrimp,eggs,6.09,6.03,-0.05999999999999961,cocktailshrimp,1101,1113,1113,True,u,98911,1623,1669836540614,1623,HRV,HRV_0220,2022-11-30 19:33:25
60,"[{'imgObject': {}, 'id': 'Grapes', 'src': '/static/foodstim60/Grapes.jpg', 'key': 'u', 'origWidth': 411, 'origHeight': 411, 'width': 411, 'height': 411, 'widthPercent': 0.45, 'rescaleHeight': False, 'trialN': 60, 'loaded': True, 'loadedTime': 4475, 'positionName': 'LEFT', 'positionCoords': [510.6, 334.5], 'bid': 8.55}, {'imgObject': {}, 'id': 'raspberries', 'src': '/static/foodstim60/raspberries.jpg', 'key': 'i', 'origWidth': 411, 'origHeight': 411, 'width': 411, 'height': 411, 'widthPercent': 0.45, 'rescaleHeight': False, 'trialN': 60, 'loaded': True, 'loadedTime': 4414, 'positionName': 'RIGHT', 'positionCoords': [998.4, 334.5], 'bid': 9.17}]",98911,1669836540614,Grapes,raspberries,8.55,9.17,0.6199999999999992,raspberries,1070,1082,1081,True,i,100505,1594,1669836542208,1594,HRV,HRV_0220,2022-11-30 19:33:25
61,"[{'imgObject': {}, 'id': 'roastedpotatoes', 'src': '/static/foodstim60/roastedpotatoes.jpg', 'key': 'u', 'origWidth': 409, 'origHeight': 410, 'width': 409, 'height': 410, 'widthPercent': 0.45, 'rescaleHeight': False, 'trialN': 61, 'loaded': True, 'loadedTime': 4225, 'positionName': 'LEFT', 'positionCoords': [512.6, 335], 'bid': 9.54}, {'imgObject': {}, 'id': 'baked potato', 'src': '/static/foodstim60/baked potato.jpg', 'key': 'i', 'origWidth': 409, 'origHeight': 410, 'width': 409, 'height': 410, 'widthPercent': 0.45, 'rescaleHeight': False, 'trialN': 61, 'loaded': True, 'loadedTime': 4485, 'positionName': 'RIGHT', 'positionCoords': [998.4, 335], 'bid': 9.46}]",100505,1669836542208,roastedpotatoes,baked potato,9.54,9.46,-0.0799999999999983,roastedpotatoes,726,736,736,True,u,101752,1247,1669836543455,1247,HRV,HRV_0220,2022-11-30 19:33:25
62,"[{'imgObject': {}, 'id': 'eggs', 'src': '/static/foodstim60/eggs.jpg', 'key': 'u', 'origWidth': 409, 'origHeight': 409, 'width': 409, 'height': 409, 'widthPercent': 0.45, 'rescaleHeight': False, 'trialN': 62, 'loaded': True, 'loadedTime': 4300, 'positionName': 'LEFT', 'positionCoords': [512.6, 335.5], 'bid': 6.03}, {'imgObject': {}, 'id': 'eggsalad', 'src': '/static/foodstim60/eggsalad.jpg', 'key': 'i', 'origWidth': 410, 'origHeight': 409, 'width': 410, 'height': 409, 'widthPercent': 0.45, 'rescaleHeight': False, 'trialN': 62, 'loaded': True, 'loadedTime': 4517, 'positionName': 'RIGHT', 'positionCoords': [998.4, 335.5], 'bid': 7.0200000000000005}]",101752,1669836543456,eggs,eggsalad,6.03,7.0200000000000005,0.9900000000000002,eggs,2011,2016,2016,True,u,104276,2524,1669836545979,2523,HRV,HRV_0220,2022-11-30 19:33:25
63,"[{'imgObject': {}, 'id': 'popsicles', 'src': '/static/foodstim60/popsicles.jpg', 'key': 'u', 'origWidth': 410, 'origHeight': 410, 'width': 410, 'height': 410, 'widthPercent': 0.45, 'rescaleHeight': False, 'trialN': 63, 'loaded': True, 'loadedTime': 4057, 'positionName': 'LEFT', 'positionCoords': [511.6, 335], 'bid': 8.52}, {'imgObject': {}, 'id': 'raspberries', 'src': '/static/foodstim60/raspberries.jpg', 'key': 'i', 'origWidth': 411, 'origHeight': 411, 'width': 411, 'height': 411, 'widthPercent': 0.45, 'rescaleHeight': False, 'trialN': 63, 'loaded': True, 'loadedTime': 4413, 'positionName': 'RIGHT', 'positionCoords': [998.4, 334.5], 'bid': 9.17}]",104276,1669836545979,popsicles,raspberries,8.52,9.17,0.6500000000000004,popsicles,799,805,805,True,u,105593,1317,1669836547297,1318,HRV,HRV_0220,2022-11-30 19:33:25
64,"[{'imgObject': {}, 'id': 'rigatoni', 'src': '/static/foodstim60/rigatoni.jpg', 'key': 'u', 'origWidth': 411, 'origHeight': 411, 'width': 411, 'height': 411, 'widthPercent': 0.45, 'rescaleHeight': False, 'trialN': 64, 'loaded': True, 'loadedTime': 4705, 'positionName': 'LEFT', 'positionCoords': [510.6, 334.5], 'bid': 5.5}, {'imgObject': {}, 'id': 'chicken nuggets2', 'src': '/static/foodstim60/chicken nuggets2.jpg', 'key': 'i', 'origWidth': 410, 'origHeight': 409, 'width': 410, 'height': 409, 'widthPercent': 0.45, 'rescaleHeight': False, 'trialN': 64, 'loaded': True, 'loadedTime': 4351, 'positionName': 'RIGHT', 'positionCoords': [998.4, 335.5], 'bid': 8.370000000000001}]",105593,1669836547297,rigatoni,chicken nuggets2,5.5,8.370000000000001,2.870000000000001,rigatoni,2013,2023,2024,True,u,108120,2527,1669836549823,2526,HRV,HRV_0220,2022-11-30 19:33:25
65,"[{'imgObject': {}, 'id': 'veggieswithdip', 'src': '/static/foodstim60/veggieswithdip.jpg', 'key': 'u', 'origWidth': 409, 'origHeight': 409, 'width': 409, 'height': 409, 'widthPercent': 0.45, 'rescaleHeight': False, 'trialN': 65, 'loaded': True, 'loadedTime': 4567, 'positionName': 'LEFT', 'positionCoords': [512.6, 335.5], 'bid': 4.96}, {'imgObject': {}, 'id': 'bagel plain', 'src': '/static/foodstim60/bagel plain.jpg', 'key': 'i', 'origWidth': 410, 'origHeight': 410, 'width': 410, 'height': 410, 'widthPercent': 0.45, 'rescaleHeight': False, 'trialN': 65, 'loaded': True, 'loadedTime': 4708, 'positionName': 'RIGHT', 'positionCoords': [998.4, 335], 'bid': 1.85}]",108120,1669836549823,veggieswithdip,bagel plain,4.96,1.85,-3.11,bagel plain,877,881,880,True,i,109513,1393,1669836551216,1393,HRV,HRV_0220,2022-11-30 19:33:25
66,"[{'imgObject': {}, 'id': 'seaweed', 'src': '/static/foodstim60/seaweed.jpg', 'key': 'u', 'origWidth': 410, 'origHeight': 410, 'width': 410, 'height': 410, 'widthPercent': 0.45, 'rescaleHeight': False, 'trialN': 66, 'loaded': True, 'loadedTime': 4715, 'positionName': 'LEFT', 'positionCoords': [511.6, 335], 'bid': 5.43}, {'imgObject': {}, 'id': 'avocado', 'src': '/static/foodstim60/avocado.jpg', 'key': 'i', 'origWidth': 409, 'origHeight': 409, 'width': 409, 'height': 409, 'widthPercent': 0.45, 'rescaleHeight': False, 'trialN': 66, 'loaded': True, 'loadedTime': 4548, 'positionName': 'RIGHT', 'positionCoords': [998.4, 335.5], 'bid': 6.33}]",109513,1669836551217,seaweed,avocado,5.43,6.33,0.9000000000000004,seaweed,1015,1031,1032,True,u,111052,1539,1669836552755,1538,HRV,HRV_0220,2022-11-30 19:33:25
67,"[{'imgObject': {}, 'id': 'froot loops w milk', 'src': '/static/foodstim60/froot loops w milk.jpg', 'key': 'u', 'origWidth': 410, 'origHeight': 410, 'width': 410, 'height': 410, 'widthPercent': 0.45, 'rescaleHeight': False, 'trialN': 67, 'loaded': True, 'loadedTime': 4355, 'positionName': 'LEFT', 'positionCoords': [511.6, 335], 'bid': 9.21}, {'imgObject': {}, 'id': 'strawberries', 'src': '/static/foodstim60/strawberries.jpg', 'key': 'i', 'origWidth': 410, 'origHeight': 410, 'width': 410, 'height': 410, 'widthPercent': 0.45, 'rescaleHeight': False, 'trialN': 67, 'loaded': True, 'loadedTime': 4532, 'positionName': 'RIGHT', 'positionCoords': [998.4, 335], 'bid': 8.540000000000001}]",111052,1669836552755,froot loops w milk,strawberries,9.21,8.540000000000001,-0.6699999999999999,strawberries,757,765,764,True,i,112330,1278,1669836554033,1278,HRV,HRV_0220,2022-11-30 19:33:25
68,"[{'imgObject': {}, 'id': 'blueberries', 'src': '/static/foodstim60/blueberries.jpg', 'key': 'u', 'origWidth': 411, 'origHeight': 411, 'width': 411, 'height': 411, 'widthPercent': 0.45, 'rescaleHeight': False, 'trialN': 68, 'loaded': True, 'loadedTime': 4214, 'positionName': 'LEFT', 'positionCoords': [510.6, 334.5], 'bid': 8.540000000000001}, {'imgObject': {}, 'id': 'mashed potato', 'src': '/static/foodstim60/mashed potato.jpg', 'key': 'i', 'origWidth': 409, 'origHeight': 409, 'width': 409, 'height': 409, 'widthPercent': 0.45, 'rescaleHeight': False, 'trialN': 68, 'loaded': True, 'loadedTime': 4238, 'positionName': 'RIGHT', 'positionCoords': [998.4, 335.5], 'bid': 8.28}]",112330,1669836554033,blueberries,mashed potato,8.540000000000001,8.28,-0.26000000000000156,blueberries,1058,1064,1063,True,u,113902,1572,1669836555605,1572,HRV,HRV_0220,2022-11-30 19:33:25
69,"[{'imgObject': {}, 'id': 'bagel plain', 'src': '/static/foodstim60/bagel plain.jpg', 'key': 'u', 'origWidth': 410, 'origHeight': 410, 'width': 410, 'height': 410, 'widthPercent': 0.45, 'rescaleHeight': False, 'trialN': 69, 'loaded': True, 'loadedTime': 4708, 'positionName': 'LEFT', 'positionCoords': [511.6, 335], 'bid': 1.85}, {'imgObject': {}, 'id': 'lox', 'src': '/static/foodstim60/lox.jpg', 'key': 'i', 'origWidth': 410, 'origHeight': 411, 'width': 410, 'height': 411, 'widthPercent': 0.45, 'rescaleHeight': False, 'trialN': 69, 'loaded': True, 'loadedTime': 4736, 'positionName': 'RIGHT', 'positionCoords': [998.4, 334.5], 'bid': 5.79}]",113902,1669836555605,bagel plain,lox,1.85,5.79,3.94,lox,1220,1226,1226,True,i,115641,1739,1669836557345,1740,HRV,HRV_0220,2022-11-30 19:33:25
70,"[{'imgObject': {}, 'id': 'rigatoni and sauce', 'src': '/static/foodstim60/rigatoni and sauce.jpg', 'key': 'u', 'origWidth': 410, 'origHeight': 411, 'width': 410, 'height': 411, 'widthPercent': 0.45, 'rescaleHeight': False, 'trialN': 70, 'loaded': True, 'loadedTime': 3830, 'positionName': 'LEFT', 'positionCoords': [511.6, 334.5], 'bid': 8.81}, {'imgObject': {}, 'id': 'Grapes', 'src': '/static/foodstim60/Grapes.jpg', 'key': 'i', 'origWidth': 411, 'origHeight': 411, 'width': 411, 'height': 411, 'widthPercent': 0.45, 'rescaleHeight': False, 'trialN': 70, 'loaded': True, 'loadedTime': 4475, 'positionName': 'RIGHT', 'positionCoords': [998.4, 334.5], 'bid': 8.55}]",115641,1669836557345,rigatoni and sauce,Grapes,8.81,8.55,-0.2599999999999998,rigatoni and sauce,825,839,840,True,u,116989,1348,1669836558693,1348,HRV,HRV_0220,2022-11-30 19:33:25
71,"[{'imgObject': {}, 'id': 'pear', 'src': '/static/foodstim60/pear.jpg', 'key': 'u', 'origWidth': 411, 'origHeight': 410, 'width': 411, 'height': 410, 'widthPercent': 0.45, 'rescaleHeight': False, 'trialN': 71, 'loaded': True, 'loadedTime': 4296, 'positionName': 'LEFT', 'positionCoords': [510.6, 335], 'bid': 6.58}, {'imgObject': {}, 'id': 'avocado', 'src': '/static/foodstim60/avocado.jpg', 'key': 'i', 'origWidth': 409, 'origHeight': 409, 'width': 409, 'height': 409, 'widthPercent': 0.45, 'rescaleHeight': False, 'trialN': 71, 'loaded': True, 'loadedTime': 4548, 'positionName': 'RIGHT', 'positionCoords': [998.4, 335.5], 'bid': 6.33}]",116989,1669836558693,pear,avocado,6.58,6.33,-0.25,pear,899,907,907,True,u,118402,1413,1669836560106,1413,HRV,HRV_0220,2022-11-30 19:33:25
72,"[{'imgObject': {}, 'id': 'edamame', 'src': '/static/foodstim60/edamame.jpg', 'key': 'u', 'origWidth': 409, 'origHeight': 410, 'width': 409, 'height': 410, 'widthPercent': 0.45, 'rescaleHeight': False, 'trialN': 72, 'loaded': True, 'loadedTime': 4719, 'positionName': 'LEFT', 'positionCoords': [512.6, 335], 'bid': 5.96}, {'imgObject': {}, 'id': 'cantaloupe', 'src': '/static/foodstim60/cantaloupe.jpg', 'key': 'i', 'origWidth': 409, 'origHeight': 409, 'width': 409, 'height': 409, 'widthPercent': 0.45, 'rescaleHeight': False, 'trialN': 72, 'loaded': True, 'loadedTime': 4556, 'positionName': 'RIGHT', 'positionCoords': [998.4, 335.5], 'bid': 5.68}]",118402,1669836560106,edamame,cantaloupe,5.96,5.68,-0.28000000000000025,edamame,1407,1414,1414,True,u,120326,1924,1669836562030,1924,HRV,HRV_0220,2022-11-30 19:33:25
73,"[{'imgObject': {}, 'id': 'chicken nuggets2', 'src': '/static/foodstim60/chicken nuggets2.jpg', 'key': 'u', 'origWidth': 410, 'origHeight': 409, 'width': 410, 'height': 409, 'widthPercent': 0.45, 'rescaleHeight': False, 'trialN': 73, 'loaded': True, 'loadedTime': 4351, 'positionName': 'LEFT', 'positionCoords': [511.6, 335.5], 'bid': 8.370000000000001}, {'imgObject': {}, 'id': 'banana', 'src': '/static/foodstim60/banana.jpg', 'key': 'i', 'origWidth': 410, 'origHeight': 410, 'width': 410, 'height': 410, 'widthPercent': 0.45, 'rescaleHeight': False, 'trialN': 73, 'loaded': True, 'loadedTime': 4500, 'positionName': 'RIGHT', 'positionCoords': [998.4, 335], 'bid': 8.47}]",120326,1669836562030,chicken nuggets2,banana,8.370000000000001,8.47,0.09999999999999964,banana,983,987,987,True,i,121817,1491,1669836563521,1491,HRV,HRV_0220,2022-11-30 19:33:25
74,"[{'imgObject': {}, 'id': 'Tribe humus pita', 'src': '/static/foodstim60/Tribe humus pita.jpg', 'key': 'u', 'origWidth': 411, 'origHeight': 411, 'width': 411, 'height': 411, 'widthPercent': 0.45, 'rescaleHeight': False, 'trialN': 74, 'loaded': True, 'loadedTime': 4689, 'positionName': 'LEFT', 'positionCoords': [510.6, 334.5], 'bid': 6.3100000000000005}, {'imgObject': {}, 'id': 'eggsalad', 'src': '/static/foodstim60/eggsalad.jpg', 'key': 'i', 'origWidth': 410, 'origHeight': 409, 'width': 410, 'height': 409, 'widthPercent': 0.45, 'rescaleHeight': False, 'trialN': 74, 'loaded': True, 'loadedTime': 4519, 'positionName': 'RIGHT', 'positionCoords': [998.4, 335.5], 'bid': 7.0200000000000005}]",121817,1669836563521,Tribe humus pita,eggsalad,6.3100000000000005,7.0200000000000005,0.71,Tribe humus pita,1149,1151,1151,True,u,123473,1656,1669836565177,1656,HRV,HRV_0220,2022-11-30 19:33:25
75,"[{'imgObject': {}, 'id': 'Grapes', 'src': '/static/foodstim60/Grapes.jpg', 'key': 'u', 'origWidth': 411, 'origHeight': 411, 'width': 411, 'height': 411, 'widthPercent': 0.45, 'rescaleHeight': False, 'trialN': 75, 'loaded': True, 'loadedTime': 4475, 'positionName': 'LEFT', 'positionCoords': [510.6, 334.5], 'bid': 8.55}, {'imgObject': {}, 'id': 'steak', 'src': '/static/foodstim60/steak.jpg', 'key': 'i', 'origWidth': 410, 'origHeight': 410, 'width': 410, 'height': 410, 'widthPercent': 0.45, 'rescaleHeight': False, 'trialN': 75, 'loaded': True, 'loadedTime': 4340, 'positionName': 'RIGHT', 'positionCoords': [998.4, 335], 'bid': 9.48}]",123473,1669836565177,Grapes,steak,8.55,9.48,0.9299999999999997,steak,696,704,704,True,i,124681,1208,1669836566384,1207,HRV,HRV_0220,2022-11-30 19:33:25
76,"[{'imgObject': {}, 'id': 'blueberries', 'src': '/static/foodstim60/blueberries.jpg', 'key': 'u', 'origWidth': 411, 'origHeight': 411, 'width': 411, 'height': 411, 'widthPercent': 0.45, 'rescaleHeight': False, 'trialN': 76, 'loaded': True, 'loadedTime': 4216, 'positionName': 'LEFT', 'positionCoords': [510.6, 334.5], 'bid': 8.540000000000001}, {'imgObject': {}, 'id': 'chickenfingers', 'src': '/static/foodstim60/chickenfingers.jpg', 'key': 'i', 'origWidth': 410, 'origHeight': 410, 'width': 410, 'height': 410, 'widthPercent': 0.45, 'rescaleHeight': False, 'trialN': 76, 'loaded': True, 'loadedTime': 4683, 'positionName': 'RIGHT', 'positionCoords': [998.4, 335], 'bid': 7.03}]",124681,1669836566385,blueberries,chickenfingers,8.540000000000001,7.03,-1.5100000000000007,blueberries,988,998,1000,True,u,126194,1513,1669836567897,1512,HRV,HRV_0220,2022-11-30 19:33:25
77,"[{'imgObject': {}, 'id': 'apple slices', 'src': '/static/foodstim60/apple slices.jpg', 'key': 'u', 'origWidth': 409, 'origHeight': 410, 'width': 409, 'height': 410, 'widthPercent': 0.45, 'rescaleHeight': False, 'trialN': 77, 'loaded': True, 'loadedTime': 4286, 'positionName': 'LEFT', 'positionCoords': [512.6, 335], 'bid': 7.68}, {'imgObject': {}, 'id': 'luckycharms', 'src': '/static/foodstim60/luckycharms.jpg', 'key': 'i', 'origWidth': 410, 'origHeight': 409, 'width': 410, 'height': 409, 'widthPercent': 0.45, 'rescaleHeight': False, 'trialN': 77, 'loaded': True, 'loadedTime': 4468, 'positionName': 'RIGHT', 'positionCoords': [998.4, 335.5], 'bid': 8.42}]",126194,1669836567897,apple slices,luckycharms,7.68,8.42,0.7400000000000002,luckycharms,1147,1150,1150,True,i,127859,1665,1669836569563,1666,HRV,HRV_0220,2022-11-30 19:33:25
78,"[{'imgObject': {}, 'id': 'omelette', 'src': '/static/foodstim60/omelette.jpg', 'key': 'u', 'origWidth': 410, 'origHeight': 409, 'width': 410, 'height': 409, 'widthPercent': 0.45, 'rescaleHeight': False, 'trialN': 78, 'loaded': True, 'loadedTime': 4238, 'positionName': 'LEFT', 'positionCoords': [511.6, 335.5], 'bid': 6.83}, {'imgObject': {}, 'id': 'sweetpotato', 'src': '/static/foodstim60/sweetpotato.jpg', 'key': 'i', 'origWidth': 410, 'origHeight': 410, 'width': 410, 'height': 410, 'widthPercent': 0.45, 'rescaleHeight': False, 'trialN': 78, 'loaded': True, 'loadedTime': 4408, 'positionName': 'RIGHT', 'positionCoords': [998.4, 335], 'bid': 8.23}]",127859,1669836569563,omelette,sweetpotato,6.83,8.23,1.4000000000000004,sweetpotato,966,980,982,True,i,129353,1494,1669836571056,1493,HRV,HRV_0220,2022-11-30 19:33:25
79,"[{'imgObject': {}, 'id': 'rigatoni', 'src': '/static/foodstim60/rigatoni.jpg', 'key': 'u', 'origWidth': 411, 'origHeight': 411, 'width': 411, 'height': 411, 'widthPercent': 0.45, 'rescaleHeight': False, 'trialN': 79, 'loaded': True, 'loadedTime': 4705, 'positionName': 'LEFT', 'positionCoords': [510.6, 334.5], 'bid': 5.5}, {'imgObject': {}, 'id': 'seaweed', 'src': '/static/foodstim60/seaweed.jpg', 'key': 'i', 'origWidth': 410, 'origHeight': 410, 'width': 410, 'height': 410, 'widthPercent': 0.45, 'rescaleHeight': False, 'trialN': 79, 'loaded': True, 'loadedTime': 4715, 'positionName': 'RIGHT', 'positionCoords': [998.4, 335], 'bid': 5.43}]",129353,1669836571056,rigatoni,seaweed,5.5,5.43,-0.07000000000000028,rigatoni,1113,1120,1119,True,u,130979,1626,1669836572683,1627,HRV,HRV_0220,2022-11-30 19:33:25
80,"[{'imgObject': {}, 'id': 'mac & cheese', 'src': '/static/foodstim60/mac & cheese.jpg', 'key': 'u', 'origWidth': 410, 'origHeight': 410, 'width': 410, 'height': 410, 'widthPercent': 0.45, 'rescaleHeight': False, 'trialN': 80, 'loaded': True, 'loadedTime': 4677, 'positionName': 'LEFT', 'positionCoords': [511.6, 335], 'bid': 8.89}, {'imgObject': {}, 'id': 'luckycharms', 'src': '/static/foodstim60/luckycharms.jpg', 'key': 'i', 'origWidth': 410, 'origHeight': 409, 'width': 410, 'height': 409, 'widthPercent': 0.45, 'rescaleHeight': False, 'trialN': 80, 'loaded': True, 'loadedTime': 4471, 'positionName': 'RIGHT', 'positionCoords': [998.4, 335.5], 'bid': 8.42}]",130979,1669836572683,mac & cheese,luckycharms,8.89,8.42,-0.47000000000000064,mac & cheese,830,836,837,True,u,132327,1348,1669836574030,1347,HRV,HRV_0220,2022-11-30 19:33:25
81,"[{'imgObject': {}, 'id': 'Tribe humus pita', 'src': '/static/foodstim60/Tribe humus pita.jpg', 'key': 'u', 'origWidth': 411, 'origHeight': 411, 'width': 411, 'height': 411, 'widthPercent': 0.45, 'rescaleHeight': False, 'trialN': 81, 'loaded': True, 'loadedTime': 4689, 'positionName': 'LEFT', 'positionCoords': [510.6, 334.5], 'bid': 6.3100000000000005}, {'imgObject': {}, 'id': 'grilled chicken strips', 'src': '/static/foodstim60/grilled chicken strips.jpg', 'key': 'i', 'origWidth': 410, 'origHeight': 411, 'width': 410, 'height': 411, 'widthPercent': 0.45, 'rescaleHeight': False, 'trialN': 81, 'loaded': True, 'loadedTime': 4459, 'positionName': 'RIGHT', 'positionCoords': [998.4, 334.5], 'bid': 5.07}]",132327,1669836574030,Tribe humus pita,grilled chicken strips,6.3100000000000005,5.07,-1.2400000000000002,grilled chicken strips,1154,1162,1161,True,i,133996,1669,1669836575700,1670,HRV,HRV_0220,2022-11-30 19:33:25
82,"[{'imgObject': {}, 'id': 'burrito', 'src': '/static/foodstim60/burrito.jpg', 'key': 'u', 'origWidth': 410, 'origHeight': 410, 'width': 410, 'height': 410, 'widthPercent': 0.45, 'rescaleHeight': False, 'trialN': 82, 'loaded': True, 'loadedTime': 4390, 'positionName': 'LEFT', 'positionCoords': [511.6, 335], 'bid': 5.72}, {'imgObject': {}, 'id': 'hotdog w must', 'src': '/static/foodstim60/hotdog w must.jpg', 'key': 'i', 'origWidth': 409, 'origHeight': 409, 'width': 409, 'height': 409, 'widthPercent': 0.45, 'rescaleHeight': False, 'trialN': 82, 'loaded': True, 'loadedTime': 4424, 'positionName': 'RIGHT', 'positionCoords': [998.4, 335.5], 'bid': 1.29}]",133996,1669836575700,burrito,hotdog w must,5.72,1.29,-4.43,burrito,1282,1284,1286,True,u,135790,1794,1669836577494,1794,HRV,HRV_0220,2022-11-30 19:33:25
83,"[{'imgObject': {}, 'id': 'veggieswithdip', 'src': '/static/foodstim60/veggieswithdip.jpg', 'key': 'u', 'origWidth': 409, 'origHeight': 409, 'width': 409, 'height': 409, 'widthPercent': 0.45, 'rescaleHeight': False, 'trialN': 83, 'loaded': True, 'loadedTime': 4564, 'positionName': 'LEFT', 'positionCoords': [512.6, 335.5], 'bid': 4.96}, {'imgObject': {}, 'id': 'turkeysandwich', 'src': '/static/foodstim60/turkeysandwich.jpg', 'key': 'i', 'origWidth': 409, 'origHeight': 409, 'width': 409, 'height': 409, 'widthPercent': 0.45, 'rescaleHeight': False, 'trialN': 83, 'loaded': True, 'loadedTime': 4282, 'positionName': 'RIGHT', 'positionCoords': [998.4, 335.5], 'bid': 3.34}]",135790,1669836577495,veggieswithdip,turkeysandwich,4.96,3.34,-1.62,veggieswithdip,1660,1665,1667,True,u,137966,2176,1669836579670,2175,HRV,HRV_0220,2022-11-30 19:33:25
84,"[{'imgObject': {}, 'id': 'burger', 'src': '/static/foodstim60/burger.jpg', 'key': 'u', 'origWidth': 409, 'origHeight': 409, 'width': 409, 'height': 409, 'widthPercent': 0.45, 'rescaleHeight': False, 'trialN': 84, 'loaded': True, 'loadedTime': 4567, 'positionName': 'LEFT', 'positionCoords': [512.6, 335.5], 'bid': 6.12}, {'imgObject': {}, 'id': 'kiwi', 'src': '/static/foodstim60/kiwi.jpg', 'key': 'i', 'origWidth': 410, 'origHeight': 410, 'width': 410, 'height': 410, 'widthPercent': 0.45, 'rescaleHeight': False, 'trialN': 84, 'loaded': True, 'loadedTime': 4507, 'positionName': 'RIGHT', 'positionCoords': [998.4, 335], 'bid': 6.28}]",137967,1669836579670,burger,kiwi,6.12,6.28,0.16000000000000014,kiwi,983,1001,1001,True,i,139483,1516,1669836581186,1516,HRV,HRV_0220,2022-11-30 19:33:25
85,"[{'imgObject': {}, 'id': 'grilled chicken strips', 'src': '/static/foodstim60/grilled chicken strips.jpg', 'key': 'u', 'origWidth': 410, 'origHeight': 411, 'width': 410, 'height': 411, 'widthPercent': 0.45, 'rescaleHeight': False, 'trialN': 85, 'loaded': True, 'loadedTime': 4459, 'positionName': 'LEFT', 'positionCoords': [511.6, 334.5], 'bid': 5.07}, {'imgObject': {}, 'id': 'rigatoni', 'src': '/static/foodstim60/rigatoni.jpg', 'key': 'i', 'origWidth': 411, 'origHeight': 411, 'width': 411, 'height': 411, 'widthPercent': 0.45, 'rescaleHeight': False, 'trialN': 85, 'loaded': True, 'loadedTime': 4705, 'positionName': 'RIGHT', 'positionCoords': [998.4, 334.5], 'bid': 5.5}]",139483,1669836581187,grilled chicken strips,rigatoni,5.07,5.5,0.4299999999999997,rigatoni,670,678,678,True,i,140674,1191,1669836582377,1190,HRV,HRV_0220,2022-11-30 19:33:25
86,"[{'imgObject': {}, 'id': 'cocktailshrimp', 'src': '/static/foodstim60/cocktailshrimp.jpg', 'key': 'u', 'origWidth': 410, 'origHeight': 410, 'width': 410, 'height': 410, 'widthPercent': 0.45, 'rescaleHeight': False, 'trialN': 86, 'loaded': True, 'loadedTime': 4361, 'positionName': 'LEFT', 'positionCoords': [511.6, 335], 'bid': 6.09}, {'imgObject': {}, 'id': 'cheerios', 'src': '/static/foodstim60/cheerios.jpg', 'key': 'i', 'origWidth': 409, 'origHeight': 410, 'width': 409, 'height': 410, 'widthPercent': 0.45, 'rescaleHeight': False, 'trialN': 86, 'loaded': True, 'loadedTime': 4358, 'positionName': 'RIGHT', 'positionCoords': [998.4, 335], 'bid': 8.89}]",140674,1669836582377,cocktailshrimp,cheerios,6.09,8.89,2.8000000000000007,cocktailshrimp,870,879,879,True,u,142063,1389,1669836583766,1389,HRV,HRV_0220,2022-11-30 19:33:25
87,"[{'imgObject': {}, 'id': 'orange slices', 'src': '/static/foodstim60/orange slices.jpg', 'key': 'u', 'origWidth': 409, 'origHeight': 410, 'width': 409, 'height': 410, 'widthPercent': 0.45, 'rescaleHeight': False, 'trialN': 87, 'loaded': True, 'loadedTime': 4679, 'positionName': 'LEFT', 'positionCoords': [512.6, 335], 'bid': 7.28}, {'imgObject': {}, 'id': 'kiwi', 'src': '/static/foodstim60/kiwi.jpg', 'key': 'i', 'origWidth': 410, 'origHeight': 410, 'width': 410, 'height': 410, 'widthPercent': 0.45, 'rescaleHeight': False, 'trialN': 87, 'loaded': True, 'loadedTime': 4509, 'positionName': 'RIGHT', 'positionCoords': [998.4, 335], 'bid': 6.28}]",142063,1669836583766,orange slices,kiwi,7.28,6.28,-1.0,orange slices,700,714,713,True,u,143279,1216,1669836584983,1217,HRV,HRV_0220,2022-11-30 19:33:25
88,"[{'imgObject': {}, 'id': 'hotdog w must', 'src': '/static/foodstim60/hotdog w must.jpg', 'key': 'u', 'origWidth': 409, 'origHeight': 409, 'width': 409, 'height': 409, 'widthPercent': 0.45, 'rescaleHeight': False, 'trialN': 88, 'loaded': True, 'loadedTime': 4425, 'positionName': 'LEFT', 'positionCoords': [512.6, 335.5], 'bid': 1.29}, {'imgObject': {}, 'id': 'bagel plain', 'src': '/static/foodstim60/bagel plain.jpg', 'key': 'i', 'origWidth': 410, 'origHeight': 410, 'width': 410, 'height': 410, 'widthPercent': 0.45, 'rescaleHeight': False, 'trialN': 88, 'loaded': True, 'loadedTime': 4708, 'positionName': 'RIGHT', 'positionCoords': [998.4, 335], 'bid': 1.85}]",143279,1669836584983,hotdog w must,bagel plain,1.29,1.85,0.56,bagel plain,859,865,865,True,i,144652,1373,1669836586356,1373,HRV,HRV_0220,2022-11-30 19:33:25
89,"[{'imgObject': {}, 'id': 'fried eggs', 'src': '/static/foodstim60/fried eggs.jpg', 'key': 'u', 'origWidth': 410, 'origHeight': 410, 'width': 410, 'height': 410, 'widthPercent': 0.45, 'rescaleHeight': False, 'trialN': 89, 'loaded': True, 'loadedTime': 4673, 'positionName': 'LEFT', 'positionCoords': [511.6, 335], 'bid': 5.89}, {'imgObject': {}, 'id': 'kiwi', 'src': '/static/foodstim60/kiwi.jpg', 'key': 'i', 'origWidth': 410, 'origHeight': 410, 'width': 410, 'height': 410, 'widthPercent': 0.45, 'rescaleHeight': False, 'trialN': 89, 'loaded': True, 'loadedTime': 4509, 'positionName': 'RIGHT', 'positionCoords': [998.4, 335], 'bid': 6.28}]",144653,1669836586356,fried eggs,kiwi,5.89,6.28,0.39000000000000057,kiwi,781,788,787,True,i,145951,1298,1669836587654,1298,HRV,HRV_0220,2022-11-30 19:33:25
90,"[{'imgObject': {}, 'id': 'bagel plain', 'src': '/static/foodstim60/bagel plain.jpg', 'key': 'u', 'origWidth': 410, 'origHeight': 410, 'width': 410, 'height': 410, 'widthPercent': 0.45, 'rescaleHeight': False, 'trialN': 90, 'loaded': True, 'loadedTime': 4708, 'positionName': 'LEFT', 'positionCoords': [511.6, 335], 'bid': 1.85}, {'imgObject': {}, 'id': 'rigatoni', 'src': '/static/foodstim60/rigatoni.jpg', 'key': 'i', 'origWidth': 411, 'origHeight': 411, 'width': 411, 'height': 411, 'widthPercent': 0.45, 'rescaleHeight': False, 'trialN': 90, 'loaded': True, 'loadedTime': 4705, 'positionName': 'RIGHT', 'positionCoords': [998.4, 334.5], 'bid': 5.5}]",218301,1669836660004,bagel plain,rigatoni,1.85,5.5,3.65,rigatoni,1493,1508,1508,True,i,220318,2017,1669836662022,2018,HRV,HRV_0220,2022-11-30 19:33:25
91,"[{'imgObject': {}, 'id': 'seaweed', 'src': '/static/foodstim60/seaweed.jpg', 'key': 'u', 'origWidth': 410, 'origHeight': 410, 'width': 410, 'height': 410, 'widthPercent': 0.45, 'rescaleHeight': False, 'trialN': 91, 'loaded': True, 'loadedTime': 4715, 'positionName': 'LEFT', 'positionCoords': [511.6, 335], 'bid': 5.43}, {'imgObject': {}, 'id': 'hotdog w must', 'src': '/static/foodstim60/hotdog w must.jpg', 'key': 'i', 'origWidth': 409, 'origHeight': 409, 'width': 409, 'height': 409, 'widthPercent': 0.45, 'rescaleHeight': False, 'trialN': 91, 'loaded': True, 'loadedTime': 4426, 'positionName': 'RIGHT', 'positionCoords': [998.4, 335.5], 'bid': 1.29}]",220318,1669836662022,seaweed,hotdog w must,5.43,1.29,-4.14,seaweed,820,834,835,True,u,221662,1344,1669836663366,1344,HRV,HRV_0220,2022-11-30 19:33:25
92,"[{'imgObject': {}, 'id': 'fruitsalad', 'src': '/static/foodstim60/fruitsalad.jpg', 'key': 'u', 'origWidth': 410, 'origHeight': 410, 'width': 410, 'height': 410, 'widthPercent': 0.45, 'rescaleHeight': False, 'trialN': 92, 'loaded': True, 'loadedTime': 4438, 'positionName': 'LEFT', 'positionCoords': [511.6, 335], 'bid': 4.97}, {'imgObject': {}, 'id': 'seaweed', 'src': '/static/foodstim60/seaweed.jpg', 'key': 'i', 'origWidth': 410, 'origHeight': 410, 'width': 410, 'height': 410, 'widthPercent': 0.45, 'rescaleHeight': False, 'trialN': 92, 'loaded': True, 'loadedTime': 4715, 'positionName': 'RIGHT', 'positionCoords': [998.4, 335], 'bid': 5.43}]",221663,1669836663366,fruitsalad,seaweed,4.97,5.43,0.45999999999999996,seaweed,1053,1058,1057,True,i,223232,1569,1669836664935,1569,HRV,HRV_0220,2022-11-30 19:33:25
93,"[{'imgObject': {}, 'id': 'cantaloupe', 'src': '/static/foodstim60/cantaloupe.jpg', 'key': 'u', 'origWidth': 409, 'origHeight': 409, 'width': 409, 'height': 409, 'widthPercent': 0.45, 'rescaleHeight': False, 'trialN': 93, 'loaded': True, 'loadedTime': 4556, 'positionName': 'LEFT', 'positionCoords': [512.6, 335.5], 'bid': 5.68}, {'imgObject': {}, 'id': 'cherry tomato', 'src': '/static/foodstim60/cherry tomato.jpg', 'key': 'i', 'origWidth': 410, 'origHeight': 410, 'width': 410, 'height': 410, 'widthPercent': 0.45, 'rescaleHeight': False, 'trialN': 93, 'loaded': True, 'loadedTime': 4563, 'positionName': 'RIGHT', 'positionCoords': [998.4, 335], 'bid': 6.7}]",223232,1669836664935,cantaloupe,cherry tomato,5.68,6.7,1.0200000000000005,cherry tomato,827,840,841,True,i,224585,1353,1669836666288,1353,HRV,HRV_0220,2022-11-30 19:33:25
94,"[{'imgObject': {}, 'id': 'fruitsalad', 'src': '/static/foodstim60/fruitsalad.jpg', 'key': 'u', 'origWidth': 410, 'origHeight': 410, 'width': 410, 'height': 410, 'widthPercent': 0.45, 'rescaleHeight': False, 'trialN': 94, 'loaded': True, 'loadedTime': 4438, 'positionName': 'LEFT', 'positionCoords': [511.6, 335], 'bid': 4.97}, {'imgObject': {}, 'id': 'grilled chicken strips', 'src': '/static/foodstim60/grilled chicken strips.jpg', 'key': 'i', 'origWidth': 410, 'origHeight': 411, 'width': 410, 'height': 411, 'widthPercent': 0.45, 'rescaleHeight': False, 'trialN': 94, 'loaded': True, 'loadedTime': 4455, 'positionName': 'RIGHT', 'positionCoords': [998.4, 334.5], 'bid': 5.07}]",224585,1669836666288,fruitsalad,grilled chicken strips,4.97,5.07,0.10000000000000053,grilled chicken strips,1271,1289,1288,True,i,226387,1802,1669836668091,1803,HRV,HRV_0220,2022-11-30 19:33:25
95,"[{'imgObject': {}, 'id': 'shreddedwheatwithmilk', 'src': '/static/foodstim60/shreddedwheatwithmilk.jpg', 'key': 'u', 'origWidth': 410, 'origHeight': 410, 'width': 410, 'height': 410, 'widthPercent': 0.45, 'rescaleHeight': False, 'trialN': 95, 'loaded': True, 'loadedTime': 4686, 'positionName': 'LEFT', 'positionCoords': [511.6, 335], 'bid': 7.22}, {'imgObject': {}, 'id': 'salad w chicken', 'src': '/static/foodstim60/salad w chicken.jpg', 'key': 'i', 'origWidth': 411, 'origHeight': 411, 'width': 411, 'height': 411, 'widthPercent': 0.45, 'rescaleHeight': False, 'trialN': 95, 'loaded': True, 'loadedTime': 4692, 'positionName': 'RIGHT', 'positionCoords': [998.4, 334.5], 'bid': 7.28}]",226388,1669836668091,shreddedwheatwithmilk,salad w chicken,7.22,7.28,0.0600000000000005,shreddedwheatwithmilk,1812,1828,1828,True,u,228731,2343,1669836670434,2343,HRV,HRV_0220,2022-11-30 19:33:25
96,"[{'imgObject': {}, 'id': 'cherries', 'src': '/static/foodstim60/cherries.jpg', 'key': 'u', 'origWidth': 410, 'origHeight': 411, 'width': 410, 'height': 411, 'widthPercent': 0.45, 'rescaleHeight': False, 'trialN': 96, 'loaded': True, 'loadedTime': 4293, 'positionName': 'LEFT', 'positionCoords': [511.6, 334.5], 'bid': 9.12}, {'imgObject': {}, 'id': 'roastedpotatoes', 'src': '/static/foodstim60/roastedpotatoes.jpg', 'key': 'i', 'origWidth': 409, 'origHeight': 410, 'width': 409, 'height': 410, 'widthPercent': 0.45, 'rescaleHeight': False, 'trialN': 96, 'loaded': True, 'loadedTime': 4223, 'positionName': 'RIGHT', 'positionCoords': [998.4, 335], 'bid': 9.54}]",228731,1669836670434,cherries,roastedpotatoes,9.12,9.54,0.41999999999999993,roastedpotatoes,953,966,966,True,i,230198,1467,1669836671902,1468,HRV,HRV_0220,2022-11-30 19:33:25
97,"[{'imgObject': {}, 'id': 'omelette', 'src': '/static/foodstim60/omelette.jpg', 'key': 'u', 'origWidth': 410, 'origHeight': 409, 'width': 410, 'height': 409, 'widthPercent': 0.45, 'rescaleHeight': False, 'trialN': 97, 'loaded': True, 'loadedTime': 4241, 'positionName': 'LEFT', 'positionCoords': [511.6, 335.5], 'bid': 6.83}, {'imgObject': {}, 'id': 'chickenfingers', 'src': '/static/foodstim60/chickenfingers.jpg', 'key': 'i', 'origWidth': 410, 'origHeight': 410, 'width': 410, 'height': 410, 'widthPercent': 0.45, 'rescaleHeight': False, 'trialN': 97, 'loaded': True, 'loadedTime': 4683, 'positionName': 'RIGHT', 'positionCoords': [998.4, 335], 'bid': 7.03}]",230198,1669836671902,omelette,chickenfingers,6.83,7.03,0.20000000000000018,chickenfingers,955,962,962,True,i,231668,1470,1669836673372,1470,HRV,HRV_0220,2022-11-30 19:33:25
98,"[{'imgObject': {}, 'id': 'pear', 'src': '/static/foodstim60/pear.jpg', 'key': 'u', 'origWidth': 411, 'origHeight': 410, 'width': 411, 'height': 410, 'widthPercent': 0.45, 'rescaleHeight': False, 'trialN': 98, 'loaded': True, 'loadedTime': 4296, 'positionName': 'LEFT', 'positionCoords': [510.6, 335], 'bid': 6.58}, {'imgObject': {}, 'id': 'salmon', 'src': '/static/foodstim60/salmon.jpg', 'key': 'i', 'origWidth': 410, 'origHeight': 409, 'width': 410, 'height': 409, 'widthPercent': 0.45, 'rescaleHeight': False, 'trialN': 98, 'loaded': True, 'loadedTime': 4232, 'positionName': 'RIGHT', 'positionCoords': [998.4, 335.5], 'bid': 5.57}]",231668,1669836673372,pear,salmon,6.58,5.57,-1.0099999999999998,salmon,1423,1428,1428,True,i,233611,1943,1669836675314,1942,HRV,HRV_0220,2022-11-30 19:33:25
99,"[{'imgObject': {}, 'id': 'chickenfingers', 'src': '/static/foodstim60/chickenfingers.jpg', 'key': 'u', 'origWidth': 410, 'origHeight': 410, 'width': 410, 'height': 410, 'widthPercent': 0.45, 'rescaleHeight': False, 'trialN': 99, 'loaded': True, 'loadedTime': 4683, 'positionName': 'LEFT', 'positionCoords': [511.6, 335], 'bid': 7.03}, {'imgObject': {}, 'id': 'bagel plain', 'src': '/static/foodstim60/bagel plain.jpg', 'key': 'i', 'origWidth': 410, 'origHeight': 410, 'width': 410, 'height': 410, 'widthPercent': 0.45, 'rescaleHeight': False, 'trialN': 99, 'loaded': True, 'loadedTime': 4705, 'positionName': 'RIGHT', 'positionCoords': [998.4, 335], 'bid': 1.85}]",233611,1669836675314,chickenfingers,bagel plain,7.03,1.85,-5.18,chickenfingers,1120,1127,1127,True,u,235238,1627,1669836676942,1628,HRV,HRV_0220,2022-11-30 19:33:25
100,"[{'imgObject': {}, 'id': 'salmon', 'src': '/static/foodstim60/salmon.jpg', 'key': 'u', 'origWidth': 410, 'origHeight': 409, 'width': 410, 'height': 409, 'widthPercent': 0.45, 'rescaleHeight': False, 'trialN': 100, 'loaded': True, 'loadedTime': 4232, 'positionName': 'LEFT', 'positionCoords': [511.6, 335.5], 'bid': 5.57}, {'imgObject': {}, 'id': 'cantaloupe', 'src': '/static/foodstim60/cantaloupe.jpg', 'key': 'i', 'origWidth': 409, 'origHeight': 409, 'width': 409, 'height': 409, 'widthPercent': 0.45, 'rescaleHeight': False, 'trialN': 100, 'loaded': True, 'loadedTime': 4556, 'positionName': 'RIGHT', 'positionCoords': [998.4, 335.5], 'bid': 5.68}]",235238,1669836676942,salmon,cantaloupe,5.57,5.68,0.10999999999999943,salmon,853,866,867,True,u,236618,1380,1669836678322,1380,HRV,HRV_0220,2022-11-30 19:33:25
101,"[{'imgObject': {}, 'id': 'rigatoni and sauce', 'src': '/static/foodstim60/rigatoni and sauce.jpg', 'key': 'u', 'origWidth': 410, 'origHeight': 411, 'width': 410, 'height': 411, 'widthPercent': 0.45, 'rescaleHeight': False, 'trialN': 101, 'loaded': True, 'loadedTime': 3834, 'positionName': 'LEFT', 'positionCoords': [511.6, 334.5], 'bid': 8.81}, {'imgObject': {}, 'id': 'tacos', 'src': '/static/foodstim60/tacos.jpg', 'key': 'i', 'origWidth': 411, 'origHeight': 411, 'width': 411, 'height': 411, 'widthPercent': 0.45, 'rescaleHeight': False, 'trialN': 101, 'loaded': True, 'loadedTime': 4243, 'positionName': 'RIGHT', 'positionCoords': [998.4, 334.5], 'bid': 7.42}]",236618,1669836678322,rigatoni and sauce,tacos,8.81,7.42,-1.3900000000000006,rigatoni and sauce,988,990,990,True,u,238108,1490,1669836679812,1490,HRV,HRV_0220,2022-11-30 19:33:25
102,"[{'imgObject': {}, 'id': 'salad w chicken', 'src': '/static/foodstim60/salad w chicken.jpg', 'key': 'u', 'origWidth': 411, 'origHeight': 411, 'width': 411, 'height': 411, 'widthPercent': 0.45, 'rescaleHeight': False, 'trialN': 102, 'loaded': True, 'loadedTime': 4692, 'positionName': 'LEFT', 'positionCoords': [510.6, 334.5], 'bid': 7.28}, {'imgObject': {}, 'id': 'cherry tomato', 'src': '/static/foodstim60/cherry tomato.jpg', 'key': 'i', 'origWidth': 410, 'origHeight': 410, 'width': 410, 'height': 410, 'widthPercent': 0.45, 'rescaleHeight': False, 'trialN': 102, 'loaded': True, 'loadedTime': 4562, 'positionName': 'RIGHT', 'positionCoords': [998.4, 335], 'bid': 6.7}]",238109,1669836679812,salad w chicken,cherry tomato,7.28,6.7,-0.5800000000000001,cherry tomato,888,900,899,True,i,239520,1411,1669836681224,1412,HRV,HRV_0220,2022-11-30 19:33:25
103,"[{'imgObject': {}, 'id': 'granola w milk', 'src': '/static/foodstim60/granola w milk.jpg', 'key': 'u', 'origWidth': 410, 'origHeight': 410, 'width': 410, 'height': 410, 'widthPercent': 0.45, 'rescaleHeight': False, 'trialN': 103, 'loaded': True, 'loadedTime': 4463, 'positionName': 'LEFT', 'positionCoords': [511.6, 335], 'bid': 5.91}, {'imgObject': {}, 'id': 'edamame', 'src': '/static/foodstim60/edamame.jpg', 'key': 'i', 'origWidth': 409, 'origHeight': 410, 'width': 409, 'height': 410, 'widthPercent': 0.45, 'rescaleHeight': False, 'trialN': 103, 'loaded': True, 'loadedTime': 4719, 'positionName': 'RIGHT', 'positionCoords': [998.4, 335], 'bid': 5.96}]",239520,1669836681224,granola w milk,edamame,5.91,5.96,0.04999999999999982,granola w milk,993,1008,1008,True,u,241042,1522,1669836682745,1521,HRV,HRV_0220,2022-11-30 19:33:25
104,"[{'imgObject': {}, 'id': 'baked potato', 'src': '/static/foodstim60/baked potato.jpg', 'key': 'u', 'origWidth': 409, 'origHeight': 410, 'width': 409, 'height': 410, 'widthPercent': 0.45, 'rescaleHeight': False, 'trialN': 104, 'loaded': True, 'loadedTime': 4485, 'positionName': 'LEFT', 'positionCoords': [512.6, 335], 'bid': 9.46}, {'imgObject': {}, 'id': 'yogurt no spoon', 'src': '/static/foodstim60/yogurt no spoon.jpg', 'key': 'i', 'origWidth': 411, 'origHeight': 410, 'width': 411, 'height': 410, 'widthPercent': 0.45, 'rescaleHeight': False, 'trialN': 104, 'loaded': True, 'loadedTime': 4168, 'positionName': 'RIGHT', 'positionCoords': [998.4, 335], 'bid': 8.540000000000001}]",241042,1669836682745,baked potato,yogurt no spoon,9.46,8.540000000000001,-0.9199999999999999,baked potato,1721,1734,1735,True,u,243285,2243,1669836684989,2244,HRV,HRV_0220,2022-11-30 19:33:25
105,"[{'imgObject': {}, 'id': 'mac & cheese', 'src': '/static/foodstim60/mac & cheese.jpg', 'key': 'u', 'origWidth': 410, 'origHeight': 410, 'width': 410, 'height': 410, 'widthPercent': 0.45, 'rescaleHeight': False, 'trialN': 105, 'loaded': True, 'loadedTime': 4677, 'positionName': 'LEFT', 'positionCoords': [511.6, 335], 'bid': 8.89}, {'imgObject': {}, 'id': 'raspberries', 'src': '/static/foodstim60/raspberries.jpg', 'key': 'i', 'origWidth': 411, 'origHeight': 411, 'width': 411, 'height': 411, 'widthPercent': 0.45, 'rescaleHeight': False, 'trialN': 105, 'loaded': True, 'loadedTime': 4414, 'positionName': 'RIGHT', 'positionCoords': [998.4, 334.5], 'bid': 9.17}]",243286,1669836684989,mac & cheese,raspberries,8.89,9.17,0.27999999999999936,mac & cheese,1039,1051,1050,True,u,244838,1552,1669836686541,1552,HRV,HRV_0220,2022-11-30 19:33:25
106,"[{'imgObject': {}, 'id': 'mashed potato', 'src': '/static/foodstim60/mashed potato.jpg', 'key': 'u', 'origWidth': 409, 'origHeight': 409, 'width': 409, 'height': 409, 'widthPercent': 0.45, 'rescaleHeight': False, 'trialN': 106, 'loaded': True, 'loadedTime': 4238, 'positionName': 'LEFT', 'positionCoords': [512.6, 335.5], 'bid': 8.28}, {'imgObject': {}, 'id': 'seaweed', 'src': '/static/foodstim60/seaweed.jpg', 'key': 'i', 'origWidth': 410, 'origHeight': 410, 'width': 410, 'height': 410, 'widthPercent': 0.45, 'rescaleHeight': False, 'trialN': 106, 'loaded': True, 'loadedTime': 4715, 'positionName': 'RIGHT', 'positionCoords': [998.4, 335], 'bid': 5.43}]",244838,1669836686542,mashed potato,seaweed,8.28,5.43,-2.8499999999999996,mashed potato,956,970,971,True,u,246320,1482,1669836688024,1482,HRV,HRV_0220,2022-11-30 19:33:25
107,"[{'imgObject': {}, 'id': 'lox', 'src': '/static/foodstim60/lox.jpg', 'key': 'u', 'origWidth': 410, 'origHeight': 411, 'width': 410, 'height': 411, 'widthPercent': 0.45, 'rescaleHeight': False, 'trialN': 107, 'loaded': True, 'loadedTime': 4736, 'positionName': 'LEFT', 'positionCoords': [511.6, 334.5], 'bid': 5.79}, {'imgObject': {}, 'id': 'blueberries', 'src': '/static/foodstim60/blueberries.jpg', 'key': 'i', 'origWidth': 411, 'origHeight': 411, 'width': 411, 'height': 411, 'widthPercent': 0.45, 'rescaleHeight': False, 'trialN': 107, 'loaded': True, 'loadedTime': 4216, 'positionName': 'RIGHT', 'positionCoords': [998.4, 334.5], 'bid': 8.540000000000001}]",246321,1669836688024,lox,blueberries,5.79,8.540000000000001,2.750000000000001,blueberries,895,904,904,True,i,247732,1411,1669836689435,1411,HRV,HRV_0220,2022-11-30 19:33:25
108,"[{'imgObject': {}, 'id': 'cherry tomato', 'src': '/static/foodstim60/cherry tomato.jpg', 'key': 'u', 'origWidth': 410, 'origHeight': 410, 'width': 410, 'height': 410, 'widthPercent': 0.45, 'rescaleHeight': False, 'trialN': 108, 'loaded': True, 'loadedTime': 4563, 'positionName': 'LEFT', 'positionCoords': [511.6, 335], 'bid': 6.7}, {'imgObject': {}, 'id': 'sushi w_condiments', 'src': '/static/foodstim60/sushi w_condiments.jpg', 'key': 'i', 'origWidth': 410, 'origHeight': 410, 'width': 410, 'height': 410, 'widthPercent': 0.45, 'rescaleHeight': False, 'trialN': 108, 'loaded': True, 'loadedTime': 4428, 'positionName': 'RIGHT', 'positionCoords': [998.4, 335], 'bid': 7.890000000000001}]",247732,1669836689435,cherry tomato,sushi w_condiments,6.7,7.890000000000001,1.1900000000000004,cherry tomato,1062,1069,1069,True,u,249303,1571,1669836691006,1571,HRV,HRV_0220,2022-11-30 19:33:25
109,"[{'imgObject': {}, 'id': 'fruitsalad', 'src': '/static/foodstim60/fruitsalad.jpg', 'key': 'u', 'origWidth': 410, 'origHeight': 410, 'width': 410, 'height': 410, 'widthPercent': 0.45, 'rescaleHeight': False, 'trialN': 109, 'loaded': True, 'loadedTime': 4438, 'positionName': 'LEFT', 'positionCoords': [511.6, 335], 'bid': 4.97}, {'imgObject': {}, 'id': 'olives', 'src': '/static/foodstim60/olives.jpg', 'key': 'i', 'origWidth': 410, 'origHeight': 410, 'width': 410, 'height': 410, 'widthPercent': 0.45, 'rescaleHeight': False, 'trialN': 109, 'loaded': True, 'loadedTime': 4805, 'positionName': 'RIGHT', 'positionCoords': [998.4, 335], 'bid': 2.1}]",249303,1669836691006,fruitsalad,olives,4.97,2.1,-2.8699999999999997,fruitsalad,1444,1450,1450,True,u,251255,1952,1669836692960,1954,HRV,HRV_0220,2022-11-30 19:33:25
110,"[{'imgObject': {}, 'id': 'chickenfingers', 'src': '/static/foodstim60/chickenfingers.jpg', 'key': 'u', 'origWidth': 410, 'origHeight': 410, 'width': 410, 'height': 410, 'widthPercent': 0.45, 'rescaleHeight': False, 'trialN': 110, 'loaded': True, 'loadedTime': 4679, 'positionName': 'LEFT', 'positionCoords': [511.6, 335], 'bid': 7.03}, {'imgObject': {}, 'id': 'eggsalad', 'src': '/static/foodstim60/eggsalad.jpg', 'key': 'i', 'origWidth': 410, 'origHeight': 409, 'width': 410, 'height': 409, 'widthPercent': 0.45, 'rescaleHeight': False, 'trialN': 110, 'loaded': True, 'loadedTime': 4519, 'positionName': 'RIGHT', 'positionCoords': [998.4, 335.5], 'bid': 7.0200000000000005}]",251256,1669836692960,chickenfingers,eggsalad,7.03,7.0200000000000005,-0.009999999999999787,chickenfingers,1303,1320,1320,True,u,253081,1825,1669836694785,1825,HRV,HRV_0220,2022-11-30 19:33:25
111,"[{'imgObject': {}, 'id': 'grilled chicken strips', 'src': '/static/foodstim60/grilled chicken strips.jpg', 'key': 'u', 'origWidth': 410, 'origHeight': 411, 'width': 410, 'height': 411, 'widthPercent': 0.45, 'rescaleHeight': False, 'trialN': 111, 'loaded': True, 'loadedTime': 4459, 'positionName': 'LEFT', 'positionCoords': [511.6, 334.5], 'bid': 5.07}, {'imgObject': {}, 'id': 'edamame', 'src': '/static/foodstim60/edamame.jpg', 'key': 'i', 'origWidth': 409, 'origHeight': 410, 'width': 409, 'height': 410, 'widthPercent': 0.45, 'rescaleHeight': False, 'trialN': 111, 'loaded': True, 'loadedTime': 4719, 'positionName': 'RIGHT', 'positionCoords': [998.4, 335], 'bid': 5.96}]",253082,1669836694785,grilled chicken strips,edamame,5.07,5.96,0.8899999999999997,grilled chicken strips,946,951,951,True,u,254542,1460,1669836696246,1461,HRV,HRV_0220,2022-11-30 19:33:25
112,"[{'imgObject': {}, 'id': 'burger', 'src': '/static/foodstim60/burger.jpg', 'key': 'u', 'origWidth': 409, 'origHeight': 409, 'width': 409, 'height': 409, 'widthPercent': 0.45, 'rescaleHeight': False, 'trialN': 112, 'loaded': True, 'loadedTime': 4569, 'positionName': 'LEFT', 'positionCoords': [512.6, 335.5], 'bid': 6.12}, {'imgObject': {}, 'id': 'eggs', 'src': '/static/foodstim60/eggs.jpg', 'key': 'i', 'origWidth': 409, 'origHeight': 409, 'width': 409, 'height': 409, 'widthPercent': 0.45, 'rescaleHeight': False, 'trialN': 112, 'loaded': True, 'loadedTime': 4297, 'positionName': 'RIGHT', 'positionCoords': [998.4, 335.5], 'bid': 6.03}]",254543,1669836696246,burger,eggs,6.12,6.03,-0.08999999999999986,eggs,1579,1593,1594,True,i,256644,2101,1669836698348,2102,HRV,HRV_0220,2022-11-30 19:33:25
113,"[{'imgObject': {}, 'id': 'edamame', 'src': '/static/foodstim60/edamame.jpg', 'key': 'u', 'origWidth': 409, 'origHeight': 410, 'width': 409, 'height': 410, 'widthPercent': 0.45, 'rescaleHeight': False, 'trialN': 113, 'loaded': True, 'loadedTime': 4715, 'positionName': 'LEFT', 'positionCoords': [512.6, 335], 'bid': 5.96}, {'imgObject': {}, 'id': 'fried eggs', 'src': '/static/foodstim60/fried eggs.jpg', 'key': 'i', 'origWidth': 410, 'origHeight': 410, 'width': 410, 'height': 410, 'widthPercent': 0.45, 'rescaleHeight': False, 'trialN': 113, 'loaded': True, 'loadedTime': 4670, 'positionName': 'RIGHT', 'positionCoords': [998.4, 335], 'bid': 5.89}]",256645,1669836698348,edamame,fried eggs,5.96,5.89,-0.07000000000000028,fried eggs,993,996,996,True,i,258149,1504,1669836699852,1504,HRV,HRV_0220,2022-11-30 19:33:25
114,"[{'imgObject': {}, 'id': 'kiwi', 'src': '/static/foodstim60/kiwi.jpg', 'key': 'u', 'origWidth': 410, 'origHeight': 410, 'width': 410, 'height': 410, 'widthPercent': 0.45, 'rescaleHeight': False, 'trialN': 114, 'loaded': True, 'loadedTime': 4509, 'positionName': 'LEFT', 'positionCoords': [511.6, 335], 'bid': 6.28}, {'imgObject': {}, 'id': 'cherries', 'src': '/static/foodstim60/cherries.jpg', 'key': 'i', 'origWidth': 410, 'origHeight': 411, 'width': 410, 'height': 411, 'widthPercent': 0.45, 'rescaleHeight': False, 'trialN': 114, 'loaded': True, 'loadedTime': 4293, 'positionName': 'RIGHT', 'positionCoords': [998.4, 334.5], 'bid': 9.12}]",258149,1669836699852,kiwi,cherries,6.28,9.12,2.839999999999999,kiwi,910,924,924,True,u,259583,1434,1669836701286,1434,HRV,HRV_0220,2022-11-30 19:33:25
115,"[{'imgObject': {}, 'id': 'fried eggs', 'src': '/static/foodstim60/fried eggs.jpg', 'key': 'u', 'origWidth': 410, 'origHeight': 410, 'width': 410, 'height': 410, 'widthPercent': 0.45, 'rescaleHeight': False, 'trialN': 115, 'loaded': True, 'loadedTime': 4674, 'positionName': 'LEFT', 'positionCoords': [511.6, 335], 'bid': 5.89}, {'imgObject': {}, 'id': 'yogurt no spoon', 'src': '/static/foodstim60/yogurt no spoon.jpg', 'key': 'i', 'origWidth': 411, 'origHeight': 410, 'width': 411, 'height': 410, 'widthPercent': 0.45, 'rescaleHeight': False, 'trialN': 115, 'loaded': True, 'loadedTime': 4168, 'positionName': 'RIGHT', 'positionCoords': [998.4, 335], 'bid': 8.540000000000001}]",259583,1669836701286,fried eggs,yogurt no spoon,5.89,8.540000000000001,2.6500000000000012,yogurt no spoon,945,963,962,True,i,261052,1469,1669836702756,1470,HRV,HRV_0220,2022-11-30 19:33:25
116,"[{'imgObject': {}, 'id': 'raisin bran w milk', 'src': '/static/foodstim60/raisin bran w milk.jpg', 'key': 'u', 'origWidth': 411, 'origHeight': 411, 'width': 411, 'height': 411, 'widthPercent': 0.45, 'rescaleHeight': False, 'trialN': 116, 'loaded': True, 'loadedTime': 4505, 'positionName': 'LEFT', 'positionCoords': [510.6, 334.5], 'bid': 7.8}, {'imgObject': {}, 'id': 'pear', 'src': '/static/foodstim60/pear.jpg', 'key': 'i', 'origWidth': 411, 'origHeight': 410, 'width': 411, 'height': 410, 'widthPercent': 0.45, 'rescaleHeight': False, 'trialN': 116, 'loaded': True, 'loadedTime': 4293, 'positionName': 'RIGHT', 'positionCoords': [998.4, 335], 'bid': 6.58}]",261052,1669836702756,raisin bran w milk,pear,7.8,6.58,-1.2199999999999998,raisin bran w milk,1179,1188,1188,True,u,262753,1701,1669836704456,1700,HRV,HRV_0220,2022-11-30 19:33:25
117,"[{'imgObject': {}, 'id': 'burger', 'src': '/static/foodstim60/burger.jpg', 'key': 'u', 'origWidth': 409, 'origHeight': 409, 'width': 409, 'height': 409, 'widthPercent': 0.45, 'rescaleHeight': False, 'trialN': 117, 'loaded': True, 'loadedTime': 4569, 'positionName': 'LEFT', 'positionCoords': [512.6, 335.5], 'bid': 6.12}, {'imgObject': {}, 'id': 'lox', 'src': '/static/foodstim60/lox.jpg', 'key': 'i', 'origWidth': 410, 'origHeight': 411, 'width': 410, 'height': 411, 'widthPercent': 0.45, 'rescaleHeight': False, 'trialN': 117, 'loaded': True, 'loadedTime': 4736, 'positionName': 'RIGHT', 'positionCoords': [998.4, 334.5], 'bid': 5.79}]",262753,1669836704457,burger,lox,6.12,5.79,-0.33000000000000007,lox,838,847,848,True,i,264105,1352,1669836705809,1352,HRV,HRV_0220,2022-11-30 19:33:25
