success,trial_type,trial_index,time_elapsed,internal_node_id,Block,TrialNumber,TrialTime,trialTimeDiff,FPS_avg,FPS_med,FPS_mode,TrialDur,winResizeTime,rt,block,button_pressed,MotCoh,MotDir,ColCoh,Color,ChoiceKey,Choice,Accuracy,RT,nFrames,FPS,PPD,missTrial,missTrialMsg,onsetDelay,fullScreenExitTime,canvCenter,TrialType,Score,BlockTrial,stimulus,button_labels,exp,subjectId,date
True,fullscreen,0,2148,0.0-0.0,0.0,1.0,,,,,,,,,,,,,,,,,,,,,,,,,,,,,,,,HRV,HRV_0220,2022-11-30 20:00:51
,wl-check-fps,1,7152,0.0-1.0,0.0,2.0,"[2529.1, 2540.7, 2557.5, 2574, 2590.7, 2607.5, 2624.3, 2640.9, 2657.7, 2674.2, 2690.8, 2707.6, 2724.4, 2740.9, 2757.7, 2774.2, 2790.9, 2807.8, 2824.3, 2841, 2857.9, 2874.3, 2891.2, 2907.9, 2924.6, 2941.3, 2958, 2974.7, 2991.4, 3007.8, 3024.4, 3041.2, 3058, 3074.6, 3091.4, 3108, 3124.8, 3141.4, 3158, 3174.8, 3191.4, 3208.2, 3224.8, 3241.3, 3258.1, 3274.8, 3291.6, 3308.2, 3324.9, 3341.7, 3358.3, 3375.2, 3391.6, 3408.4, 3425, 3441.5, 3458.5, 3475.1, 3491.6, 3508.6, 3525, 3541.8, 3558.4, 3575.1, 3591.7, 3608.4, 3625.3, 3641.8, 3658.5, 3675.3, 3691.8, 3708.7, 3725.3, 3741.9, 3758.7, 3775.2, 3792, 3808.7, 3825.5, 3842.2, 3858.9, 3875.5, 3892.3, 3909, 3925.6, 3942.1, 3959, 3975.7, 3992.3, 4009, 4025.7, 4042.3, 4059.1, 4075.8, 4092.4, 4109.2, 4125.9, 4142.4, 4159.3, 4175.9, 4192.5, 4209.2, 4225.8, 4242.6, 4259.2, 4275.9, 4292.6, 4309.2, 4325.9, 4342.6, 4359.4, 4375.9, 4392.7, 4409.3, 4426.1, 4442.6, 4459.3, 4476, 4492.7, 4509.4, 4526.1, 4542.8, 4559.5, 4576.1, 4592.7, 4609.6, 4626.3, 4642.9, 4659.6, 4676.2, 4692.9, 4709.8, 4726.2, 4742.9, 4759.5, 4776.3, 4793.1, 4809.7, 4826.5, 4843.1, 4859.8, 4876.5, 4893.2, 4909.9, 4926.5, 4943.2, 4960, 4976.6, 4993.3, 5009.8, 5026.5, 5043.3, 5059.9, 5076.7, 5093.2, 5110, 5126.6, 5143.5, 5160, 5176.9, 5193.5, 5209.9, 5226.6, 5243.9, 5260.5, 5276.9, 5293.8, 5310.5, 5327.1, 5343.8, 5360.6, 5377.2, 5394, 5410.8, 5427.4, 5443.9, 5460.8, 5477.4, 5494, 5510.6, 5527.5, 5544, 5560.7, 5577.4, 5594.1, 5610.9, 5627.6, 5644.2, 5661, 5677.6, 5694.2, 5711.1, 5727.6, 5744.3, 5761, 5777.7, 5794.1, 5811, 5827.7, 5844.3, 5861.1, 5877.8, 5894.2, 5911, 5927.6, 5944.3, 5960.9, 5977.7, 5994.3, 6010.9, 6027.7, 6044.4, 6061, 6077.7, 6094.4, 6111, 6127.8, 6144.4, 6161.1, 6177.7, 6194.5, 6211.2, 6227.9, 6244.4, 6261.4, 6278.4, 6294.8, 6311.6, 6328.3, 6344.7, 6361.8, 6378.6, 6395.1, 6411.7, 6428.2, 6445, 6461.6, 6478.2, 6495, 6511.7, 6528.4, 6545, 6561.9, 6578.5, 6595.2, 6611.8, 6628.6, 6645, 6662, 6678.6, 6695.2, 6712.1, 6728.8, 6745.3, 6762, 6778.9, 6795.4, 6812.1, 6828.8, 6845.4, 6862.2, 6878.8, 6895.6, 6912, 6928.9, 6945.6, 6962.2, 6978.9, 6995.6, 7012.1, 7028.8, 7045.5, 7062.2, 7078.9, 7095.6, 7112.3, 7129.1, 7145.8, 7162.5, 7179, 7195.7, 7212.4, 7229.2, 7245.9, 7262.4, 7279.3, 7295.7, 7312.5, 7329.2, 7345.8, 7362.4, 7379, 7395.9, 7412.4, 7429.1, 7445.6, 7462.4, 7479, 7495.9, 7512.5]","[1.4, 11.6, 16.8, 16.5, 16.7, 16.8, 16.8, 16.6, 16.8, 16.5, 16.6, 16.8, 16.8, 16.5, 16.8, 16.5, 16.7, 16.9, 16.5, 16.7, 16.9, 16.4, 16.9, 16.7, 16.7, 16.7, 16.7, 16.7, 16.7, 16.4, 16.6, 16.8, 16.8, 16.6, 16.8, 16.6, 16.8, 16.6, 16.6, 16.8, 16.6, 16.8, 16.6, 16.5, 16.8, 16.7, 16.8, 16.6, 16.7, 16.8, 16.6, 16.9, 16.4, 16.8, 16.6, 16.5, 17, 16.6, 16.5, 17, 16.4, 16.8, 16.6, 16.7, 16.6, 16.7, 16.9, 16.5, 16.7, 16.8, 16.5, 16.9, 16.6, 16.6, 16.8, 16.5, 16.8, 16.7, 16.8, 16.7, 16.7, 16.6, 16.8, 16.7, 16.6, 16.5, 16.9, 16.7, 16.6, 16.7, 16.7, 16.6, 16.8, 16.7, 16.6, 16.8, 16.7, 16.5, 16.9, 16.6, 16.6, 16.7, 16.6, 16.8, 16.6, 16.7, 16.7, 16.6, 16.7, 16.7, 16.8, 16.5, 16.8, 16.6, 16.8, 16.5, 16.7, 16.7, 16.7, 16.7, 16.7, 16.7, 16.7, 16.6, 16.6, 16.9, 16.7, 16.6, 16.7, 16.6, 16.7, 16.9, 16.4, 16.7, 16.6, 16.8, 16.8, 16.6, 16.8, 16.6, 16.7, 16.7, 16.7, 16.7, 16.6, 16.7, 16.8, 16.6, 16.7, 16.5, 16.7, 16.8, 16.6, 16.8, 16.5, 16.8, 16.6, 16.9, 16.5, 16.9, 16.6, 16.4, 16.7, 17.3, 16.6, 16.4, 16.9, 16.7, 16.6, 16.7, 16.8, 16.6, 16.8, 16.8, 16.6, 16.5, 16.9, 16.6, 16.6, 16.6, 16.9, 16.5, 16.7, 16.7, 16.7, 16.8, 16.7, 16.6, 16.8, 16.6, 16.6, 16.9, 16.5, 16.7, 16.7, 16.7, 16.4, 16.9, 16.7, 16.6, 16.8, 16.7, 16.4, 16.8, 16.6, 16.7, 16.6, 16.8, 16.6, 16.6, 16.8, 16.7, 16.6, 16.7, 16.7, 16.6, 16.8, 16.6, 16.7, 16.6, 16.8, 16.7, 16.7, 16.5, 17, 17, 16.4, 16.8, 16.7, 16.4, 17.1, 16.8, 16.5, 16.6, 16.5, 16.8, 16.6, 16.6, 16.8, 16.7, 16.7, 16.6, 16.9, 16.6, 16.7, 16.6, 16.8, 16.4, 17, 16.6, 16.6, 16.9, 16.7, 16.5, 16.7, 16.9, 16.5, 16.7, 16.7, 16.6, 16.8, 16.6, 16.8, 16.4, 16.9, 16.7, 16.6, 16.7, 16.7, 16.5, 16.7, 16.7, 16.7, 16.7, 16.7, 16.7, 16.8, 16.7, 16.7, 16.5, 16.7, 16.7, 16.8, 16.7, 16.5, 16.9, 16.4, 16.8, 16.7, 16.6, 16.6, 16.6, 16.9, 16.5, 16.7, 16.5, 16.8, 16.6, 16.9, 16.6]",60.0,60.0,60.0,5001.6,[],,,,,,,,,,,,,,,,,,,,,,,,,HRV,HRV_0220,2022-11-30 20:00:51
,wl-html-keyboard-response,2,17004,0.0-2.0-0.0,0.0,3.0,,,,,,,,7842.100000000093,0.0,0,,,,,,,,,,,,,,,,,,,,,,HRV,HRV_0220,2022-11-30 20:00:51
,wl-rdm,3,24068,0.0-3.0-0.0,0.0,4.0,,,,,,,[],,,,0.0,0.0,87.9,0.0,u,0.0,True,1498.5,90.0,60.0,40.0,False,,3000.0,[],"[640, 512]",ColorTask_Demo,,,,,HRV,HRV_0220,2022-11-30 20:00:51
,wl-rdm,4,28889,0.0-3.0-1.0,0.0,5.0,,,,,,,[],,,,0.0,0.0,87.9,1.0,i,1.0,True,754.3000000002794,46.0,60.0,40.0,False,,2000.0,[],"[640, 512]",ColorTask_Demo,,,,,HRV,HRV_0220,2022-11-30 20:00:51
,wl-html-keyboard-response,5,35555,0.0-3.0-2.0,0.0,6.0,,,,,,,,4658.5,0.0,1,,,,,,,,,,,,,,,,,,,,,,HRV,HRV_0220,2022-11-30 20:00:51
,wl-html-keyboard-response,6,43169,0.0-4.0-0.0,0.0,7.0,,,,,,,,5590.5,0.0,0,,,,,,,,,,,,,,,,,,,,,,HRV,HRV_0220,2022-11-30 20:00:51
,wl-html-keyboard-response,7,51085,0.0-5.0-0.0,0.0,8.0,,,,,,,,5905.699999999721,0.0,0,,,,,,,,,,,,,,,,,,,,,,HRV,HRV_0220,2022-11-30 20:00:51
,wl-rdm,8,53364,0.0-6.0-0.0,0.0,9.0,,,,,,,[],,,,,,87.9,0.0,u,0.0,True,1000.6999999997206,60.0,60.0,40.0,False,,223.3142608665369,[],"[640, 512]",ColorTask,1.0,1.0,,,HRV,HRV_0220,2022-11-30 20:00:51
,wl-rdm,9,55766,0.0-6.1-0.1,0.0,10.0,,,,,,,[],,,,,,56.4,1.0,i,1.0,True,1006.6000000000931,61.0,60.0,40.0,False,,320.7741537488716,[],"[640, 512]",ColorTask,2.0,2.0,,,HRV,HRV_0220,2022-11-30 20:00:51
,wl-rdm,10,57785,0.0-6.2-0.2,0.0,11.0,,,,,,,[],,,,,,73.6,0.0,u,0.0,True,636.8000000002794,39.0,60.0,40.0,False,,308.6082961425959,[],"[640, 512]",ColorTask,3.0,3.0,,,HRV,HRV_0220,2022-11-30 20:00:51
,wl-rdm,11,59754,0.0-6.3-0.3,0.0,12.0,,,,,,,[],,,,,,56.4,1.0,i,1.0,True,660.7000000001863,40.0,60.0,40.0,False,,238.8163631407866,[],"[640, 512]",ColorTask,4.0,4.0,,,HRV,HRV_0220,2022-11-30 20:00:51
,wl-rdm,12,62240,0.0-6.4-0.4,0.0,13.0,,,,,,,[],,,,,,62.5,0.0,u,0.0,True,1205.299999999348,73.0,60.0,40.0,False,,216.64422807622742,[],"[640, 512]",ColorTask,5.0,5.0,,,HRV,HRV_0220,2022-11-30 20:00:51
,wl-rdm,13,64341,0.0-6.5-0.5,0.0,14.0,,,,,,,[],,,,,,53.2,1.0,i,1.0,True,806.5,44.0,60.0,40.0,False,,223.94420729901614,[],"[640, 512]",ColorTask,6.0,6.0,,,HRV,HRV_0220,2022-11-30 20:00:51
,wl-rdm,14,66327,0.0-6.6-0.6,0.0,15.0,,,,,,,[],,,,,,73.6,1.0,i,1.0,True,646.8999999999069,39.0,60.0,40.0,False,,272.3398446699701,[],"[640, 512]",ColorTask,7.0,7.0,,,HRV,HRV_0220,2022-11-30 20:00:51
,wl-rdm,15,68262,0.0-6.7-0.7,0.0,16.0,,,,,,,[],,,,,,87.9,0.0,u,0.0,True,530.7000000001863,32.0,60.0,40.0,False,,334.48003767475683,[],"[640, 512]",ColorTask,8.0,8.0,,,HRV,HRV_0220,2022-11-30 20:00:51
,wl-rdm,16,70615,0.0-6.8-0.8,0.0,17.0,,,,,,,[],,,,,,62.5,0.0,u,0.0,True,946.8999999999069,57.0,60.0,40.0,False,,334.5533506124352,[],"[640, 512]",ColorTask,9.0,9.0,,,HRV,HRV_0220,2022-11-30 20:00:51
,wl-rdm,17,72750,0.0-6.9-0.9,0.0,18.0,,,,,,,[],,,,,,87.9,1.0,i,1.0,True,697.6999999992549,42.0,60.0,40.0,False,,367.1545373068104,[],"[640, 512]",ColorTask,10.0,10.0,,,HRV,HRV_0220,2022-11-30 20:00:51
,wl-rdm,18,75185,0.0-6.10-0.10,0.0,19.0,,,,,,,[],,,,,,73.6,1.0,i,1.0,True,1103.4999999995343,67.0,60.0,40.0,False,,250.59578574984914,[],"[640, 512]",ColorTask,11.0,11.0,,,HRV,HRV_0220,2022-11-30 20:00:51
,wl-rdm,19,77955,0.0-6.11-0.11,0.0,20.0,,,,,,,[],,,,,,56.4,1.0,i,1.0,True,1434.4000000003725,86.0,60.0,40.0,False,,270.202082857282,[],"[640, 512]",ColorTask,12.0,12.0,,,HRV,HRV_0220,2022-11-30 20:00:51
,wl-rdm,20,79924,0.0-6.12-0.12,0.0,21.0,,,,,,,[],,,,,,73.6,0.0,u,0.0,True,635.6000000000931,39.0,60.0,40.0,False,,256.84691815844366,[],"[640, 512]",ColorTask,13.0,13.0,,,HRV,HRV_0220,2022-11-30 20:00:51
,wl-rdm,21,81909,0.0-6.13-0.13,0.0,22.0,,,,,,,[],,,,,,87.9,1.0,i,1.0,True,707.2000000001863,43.0,60.0,40.0,False,,202.0183674847328,[],"[640, 512]",ColorTask,14.0,14.0,,,HRV,HRV_0220,2022-11-30 20:00:51
,wl-rdm,22,83944,0.0-6.14-0.14,0.0,23.0,,,,,,,[],,,,,,73.6,0.0,u,0.0,True,761.8999999994412,46.0,60.0,40.0,False,,205.40228053196267,[],"[640, 512]",ColorTask,15.0,15.0,,,HRV,HRV_0220,2022-11-30 20:00:51
,wl-rdm,23,86380,0.0-6.15-0.15,0.0,24.0,,,,,,,[],,,,,,62.5,1.0,i,1.0,True,1117.3999999999069,67.0,60.0,40.0,False,,237.77996426716786,[],"[640, 512]",ColorTask,16.0,16.0,,,HRV,HRV_0220,2022-11-30 20:00:51
,wl-rdm,24,89149,0.0-6.16-0.16,0.0,25.0,,,,,,,[],,,,,,56.4,0.0,u,0.0,True,1491.2000000001863,90.0,60.0,40.0,False,,213.35678034859424,[],"[640, 512]",ColorTask,17.0,17.0,,,HRV,HRV_0220,2022-11-30 20:00:51
,wl-rdm,25,91635,0.0-6.17-0.17,0.0,26.0,,,,,,,[],,,,,,62.5,1.0,i,1.0,True,1119.2999999998137,68.0,60.0,40.0,False,,291.4501317150597,[],"[640, 512]",ColorTask,18.0,18.0,,,HRV,HRV_0220,2022-11-30 20:00:51
,wl-rdm,26,94889,0.0-6.18-0.18,0.0,27.0,,,,,,,[],,,,,,53.2,1.0,i,1.0,True,1972.3999999999069,119.0,60.0,40.0,False,,212.85741153863296,[],"[640, 512]",ColorTask,19.0,19.0,,,HRV,HRV_0220,2022-11-30 20:00:51
,wl-rdm,27,97792,0.0-6.19-0.19,0.0,28.0,,,,,,,[],,,,,,56.4,1.0,i,1.0,True,1513.8999999999069,91.0,60.0,40.0,False,,326.38694116998283,[],"[640, 512]",ColorTask,20.0,20.0,,,HRV,HRV_0220,2022-11-30 20:00:51
,wl-rdm,28,100511,0.0-6.20-0.20,0.0,29.0,,,,,,,[],,,,,,56.4,0.0,u,0.0,True,1307.3000000002794,79.0,60.0,40.0,False,,322.40041152215906,[],"[640, 512]",ColorTask,21.0,21.0,,,HRV,HRV_0220,2022-11-30 20:00:51
,wl-rdm,29,103330,0.0-6.21-0.21,0.0,30.0,,,,,,,[],,,,,,62.5,0.0,u,0.0,True,1453.5,88.0,60.0,40.0,False,,288.7548543032341,[],"[640, 512]",ColorTask,22.0,22.0,,,HRV,HRV_0220,2022-11-30 20:00:51
,wl-rdm,30,106233,0.0-6.22-0.22,0.0,31.0,,,,,,,[],,,,,,53.2,0.0,u,0.0,True,1544.2999999998137,93.0,60.0,40.0,False,,294.2100997048254,[],"[640, 512]",ColorTask,23.0,23.0,,,HRV,HRV_0220,2022-11-30 20:00:51
,wl-rdm,31,108903,0.0-6.23-0.23,0.0,32.0,,,,,,,[],,,,,,50.0,0.0,i,1.0,False,1356.6000000000931,82.0,60.0,40.0,False,,234.09086482824517,[],"[640, 512]",ColorTask,22.0,24.0,,,HRV,HRV_0220,2022-11-30 20:00:51
,wl-rdm,32,111221,0.0-6.24-0.24,0.0,33.0,,,,,,,[],,,,,,87.9,1.0,i,1.0,True,1014.7000000001863,61.0,60.0,40.0,False,,219.58266119840232,[],"[640, 512]",ColorTask,23.0,25.0,,,HRV,HRV_0220,2022-11-30 20:00:51
,wl-rdm,33,114124,0.0-6.25-0.25,0.0,34.0,,,,,,,[],,,,,,62.5,1.0,i,1.0,True,1566.6000000000931,94.0,60.0,40.0,False,,281.4624577266028,[],"[640, 512]",ColorTask,24.0,26.0,,,HRV,HRV_0220,2022-11-30 20:00:51
,wl-rdm,34,117344,0.0-6.26-0.26,0.0,35.0,,,,,,,[],,,,,,50.0,1.0,i,1.0,True,1778.7999999998137,107.0,60.0,40.0,False,,380.84000447826014,[],"[640, 512]",ColorTask,25.0,27.0,,,HRV,HRV_0220,2022-11-30 20:00:51
,wl-rdm,35,120014,0.0-6.27-0.27,0.0,36.0,,,,,,,[],,,,,,73.6,0.0,u,0.0,True,1264.8000000002794,76.0,60.0,40.0,False,,341.6147909632368,[],"[640, 512]",ColorTask,26.0,28.0,,,HRV,HRV_0220,2022-11-30 20:00:51
,wl-rdm,36,122649,0.0-6.28-0.28,0.0,37.0,,,,,,,[],,,,,,73.6,0.0,u,0.0,True,1276.9000000003725,77.0,60.0,40.0,False,,296.3608538839766,[],"[640, 512]",ColorTask,27.0,29.0,,,HRV,HRV_0220,2022-11-30 20:00:51
,wl-rdm,37,125385,0.0-6.29-0.29,0.0,38.0,,,,,,,[],,,,,,53.2,0.0,i,1.0,False,1427.2999999998137,86.0,60.0,40.0,False,,236.97912372362998,[],"[640, 512]",ColorTask,26.0,30.0,,,HRV,HRV_0220,2022-11-30 20:00:51
,wl-rdm,38,127504,0.0-6.30-0.30,0.0,39.0,,,,,,,[],,,,,,53.2,0.0,i,1.0,False,844.3000000002794,51.0,60.0,40.0,False,,212.3680982846797,[],"[640, 512]",ColorTask,25.0,31.0,,,HRV,HRV_0220,2022-11-30 20:00:51
,wl-rdm,39,129339,0.0-6.31-0.31,0.0,40.0,,,,,,,[],,,,,,87.9,1.0,i,1.0,True,559.1000000000931,34.0,60.0,40.0,False,,214.79103800186368,[],"[640, 512]",ColorTask,26.0,32.0,,,HRV,HRV_0220,2022-11-30 20:00:51
,wl-rdm,40,131793,0.0-6.32-0.32,0.0,41.0,,,,,,,[],,,,,,53.2,1.0,u,0.0,False,1062.8000000002794,64.0,60.0,40.0,False,,326.659236659827,[],"[640, 512]",ColorTask,25.0,33.0,,,HRV,HRV_0220,2022-11-30 20:00:51
,wl-rdm,41,133744,0.0-6.33-0.33,0.0,42.0,,,,,,,[],,,,,,53.2,0.0,i,1.0,False,645.1999999997206,39.0,60.0,40.0,False,,240.33155181470838,[],"[640, 512]",ColorTask,24.0,34.0,,,HRV,HRV_0220,2022-11-30 20:00:51
,wl-rdm,42,136030,0.0-6.34-0.34,0.0,43.0,,,,,,,[],,,,,,87.9,0.0,u,0.0,True,930.5,56.0,60.0,40.0,False,,290.91165663008144,[],"[640, 512]",ColorTask,25.0,35.0,,,HRV,HRV_0220,2022-11-30 20:00:51
,wl-rdm,43,138399,0.0-6.35-0.35,0.0,44.0,,,,,,,[],,,,,,50.0,0.0,i,1.0,False,1063.8000000002794,64.0,60.0,40.0,False,,243.72184287844078,[],"[640, 512]",ColorTask,24.0,36.0,,,HRV,HRV_0220,2022-11-30 20:00:51
,wl-rdm,44,140668,0.0-6.36-0.36,0.0,45.0,,,,,,,[],,,,,,56.4,1.0,i,1.0,True,976.3000000002794,59.0,60.0,40.0,False,,233.46509933167047,[],"[640, 512]",ColorTask,25.0,37.0,,,HRV,HRV_0220,2022-11-30 20:00:51
,wl-rdm,45,144255,0.0-6.37-0.37,0.0,46.0,,,,,,,[],,,,,,56.4,1.0,i,1.0,True,2265.6999999997206,136.0,60.0,40.0,False,,254.40665920020945,[],"[640, 512]",ColorTask,26.0,38.0,,,HRV,HRV_0220,2022-11-30 20:00:51
,wl-rdm,46,146840,0.0-6.38-0.38,0.0,47.0,,,,,,,[],,,,,,56.4,0.0,u,0.0,True,1204.2999999998137,73.0,60.0,40.0,False,,307.1891602937927,[],"[640, 512]",ColorTask,27.0,39.0,,,HRV,HRV_0220,2022-11-30 20:00:51
,wl-rdm,47,149126,0.0-6.39-0.39,0.0,48.0,,,,,,,[],,,,,,87.9,0.0,u,0.0,True,822.6999999997206,50.0,60.0,40.0,False,,395.9822753336457,[],"[640, 512]",ColorTask,28.0,40.0,,,HRV,HRV_0220,2022-11-30 20:00:51
,wl-rdm,48,152463,0.0-6.40-0.40,0.0,49.0,,,,,,,[],,,,,,56.4,0.0,i,1.0,False,1864.3000000002794,112.0,60.0,40.0,False,,387.3931368939626,[],"[640, 512]",ColorTask,27.0,41.0,,,HRV,HRV_0220,2022-11-30 20:00:51
,wl-rdm,49,154982,0.0-6.41-0.41,0.0,50.0,,,,,,,[],,,,,,50.0,0.0,u,0.0,True,1180.8000000002794,71.0,60.0,40.0,False,,271.1831363737676,[],"[640, 512]",ColorTask,28.0,42.0,,,HRV,HRV_0220,2022-11-30 20:00:51
,wl-rdm,50,157484,0.0-6.42-0.42,0.0,51.0,,,,,,,[],,,,,,87.9,0.0,u,0.0,True,1133.0,68.0,60.0,40.0,False,,304.87498327973753,[],"[640, 512]",ColorTask,29.0,43.0,,,HRV,HRV_0220,2022-11-30 20:00:51
,wl-rdm,51,159737,0.0-6.43-0.43,0.0,52.0,,,,,,,[],,,,,,73.6,1.0,i,1.0,True,827.6999999997206,50.0,60.0,40.0,False,,364.32620446457554,[],"[640, 512]",ColorTask,30.0,44.0,,,HRV,HRV_0220,2022-11-30 20:00:51
,wl-rdm,52,161956,0.0-6.44-0.44,0.0,53.0,,,,,,,[],,,,,,87.9,1.0,i,1.0,True,858.6999999997206,52.0,60.0,40.0,False,,292.3053590089588,[],"[640, 512]",ColorTask,31.0,45.0,,,HRV,HRV_0220,2022-11-30 20:00:51
,wl-rdm,53,164174,0.0-6.45-0.45,0.0,54.0,,,,,,,[],,,,,,73.6,1.0,i,1.0,True,880.6000000000931,53.0,60.0,40.0,False,,267.82191829428876,[],"[640, 512]",ColorTask,32.0,46.0,,,HRV,HRV_0220,2022-11-30 20:00:51
,wl-rdm,54,166477,0.0-6.46-0.46,0.0,55.0,,,,,,,[],,,,,,53.2,0.0,i,1.0,False,849.1000000000931,51.0,60.0,40.0,False,,392.22547235259196,[],"[640, 512]",ColorTask,31.0,47.0,,,HRV,HRV_0220,2022-11-30 20:00:51
,wl-rdm,55,168445,0.0-6.47-0.47,0.0,56.0,,,,,,,[],,,,,,87.9,0.0,u,0.0,True,598.0,36.0,60.0,40.0,False,,311.71366870288347,[],"[640, 512]",ColorTask,32.0,48.0,,,HRV,HRV_0220,2022-11-30 20:00:51
,wl-rdm,56,170714,0.0-6.48-0.48,0.0,57.0,,,,,,,[],,,,,,53.2,1.0,i,1.0,True,993.3999999999069,60.0,60.0,40.0,False,,203.61358663267532,[],"[640, 512]",ColorTask,33.0,49.0,,,HRV,HRV_0220,2022-11-30 20:00:51
,wl-rdm,57,173433,0.0-6.49-0.49,0.0,58.0,,,,,,,[],,,,,,53.2,1.0,i,1.0,True,1360.8999999999069,82.0,60.0,40.0,False,,284.63080570866884,[],"[640, 512]",ColorTask,34.0,50.0,,,HRV,HRV_0220,2022-11-30 20:00:51
,wl-rdm,58,176387,0.0-6.50-0.50,0.0,59.0,,,,,,,[],,,,,,50.0,0.0,u,0.0,True,1670.1000000000931,101.0,60.0,40.0,False,,216.9382465683014,[],"[640, 512]",ColorTask,35.0,51.0,,,HRV,HRV_0220,2022-11-30 20:00:51
,wl-rdm,59,179339,0.0-6.51-0.51,0.0,60.0,,,,,,,[],,,,,,62.5,1.0,i,1.0,True,1619.8999999994412,98.0,60.0,40.0,False,,262.98919748502004,[],"[640, 512]",ColorTask,36.0,52.0,,,HRV,HRV_0220,2022-11-30 20:00:51
,wl-rdm,60,182076,0.0-6.52-0.52,0.0,61.0,,,,,,,[],,,,,,50.0,0.0,u,0.0,True,1383.7999999998137,83.0,60.0,40.0,False,,297.673299565671,[],"[640, 512]",ColorTask,37.0,53.0,,,HRV,HRV_0220,2022-11-30 20:00:51
,wl-rdm,61,184378,0.0-6.53-0.53,0.0,62.0,,,,,,,[],,,,,,62.5,1.0,i,1.0,True,910.2000000001863,55.0,60.0,40.0,False,,324.7823583345878,[],"[640, 512]",ColorTask,38.0,54.0,,,HRV,HRV_0220,2022-11-30 20:00:51
,wl-rdm,62,186580,0.0-6.54-0.54,0.0,63.0,,,,,,,[],,,,,,87.9,0.0,u,0.0,True,819.3000000002794,49.0,60.0,40.0,False,,307.5179538616082,[],"[640, 512]",ColorTask,39.0,55.0,,,HRV,HRV_0220,2022-11-30 20:00:51
,wl-rdm,63,188682,0.0-6.55-0.55,0.0,64.0,,,,,,,[],,,,,,73.6,1.0,i,1.0,True,826.6000000000931,50.0,60.0,40.0,False,,206.77431394798086,[],"[640, 512]",ColorTask,40.0,56.0,,,HRV,HRV_0220,2022-11-30 20:00:51
,wl-rdm,64,192019,0.0-6.56-0.56,0.0,65.0,,,,,,,[],,,,,,53.2,1.0,i,1.0,True,1893.8999999999069,114.0,60.0,40.0,False,,373.4526221734793,[],"[640, 512]",ColorTask,41.0,57.0,,,HRV,HRV_0220,2022-11-30 20:00:51
,wl-rdm,65,195222,0.0-6.57-0.57,0.0,66.0,,,,,,,[],,,,,,62.5,0.0,u,0.0,True,1907.2000000001863,115.0,60.0,40.0,False,,231.29073891745526,[],"[640, 512]",ColorTask,42.0,58.0,,,HRV,HRV_0220,2022-11-30 20:00:51
,wl-rdm,66,198242,0.0-6.58-0.58,0.0,67.0,,,,,,,[],,,,,,50.0,1.0,i,1.0,True,1620.8999999994412,98.0,60.0,40.0,False,,323.5243725982222,[],"[640, 512]",ColorTask,43.0,59.0,,,HRV,HRV_0220,2022-11-30 20:00:51
,wl-rdm,67,201228,0.0-6.59-0.59,0.0,68.0,,,,,,,[],,,,,,56.4,1.0,i,1.0,True,1675.2999999998137,101.0,60.0,40.0,False,,240.6392966309631,[],"[640, 512]",ColorTask,44.0,60.0,,,HRV,HRV_0220,2022-11-30 20:00:51
,wl-rdm,68,203564,0.0-6.60-0.60,0.0,69.0,,,,,,,[],,,,,,73.6,1.0,i,1.0,True,1050.6000000000931,63.0,60.0,40.0,False,,220.17121080647013,[],"[640, 512]",ColorTask,45.0,61.0,,,HRV,HRV_0220,2022-11-30 20:00:51
,wl-rdm,69,205649,0.0-6.61-0.61,0.0,70.0,,,,,,,[],,,,,,56.4,0.0,u,0.0,True,711.2999999998137,43.0,60.0,40.0,False,,314.62034256441,[],"[640, 512]",ColorTask,46.0,62.0,,,HRV,HRV_0220,2022-11-30 20:00:51
,wl-rdm,70,208419,0.0-6.62-0.62,0.0,71.0,,,,,,,[],,,,,,50.0,0.0,u,0.0,True,1403.4000000003725,85.0,60.0,40.0,False,,286.629525772709,[],"[640, 512]",ColorTask,47.0,63.0,,,HRV,HRV_0220,2022-11-30 20:00:51
,wl-rdm,71,210770,0.0-6.63-0.63,0.0,72.0,,,,,,,[],,,,,,62.5,0.0,u,0.0,True,1068.4000000003725,65.0,60.0,40.0,False,,212.38460326796934,[],"[640, 512]",ColorTask,48.0,64.0,,,HRV,HRV_0220,2022-11-30 20:00:51
,wl-rdm,72,213907,0.0-6.64-0.64,0.0,73.0,,,,,,,[],,,,,,50.0,0.0,i,1.0,False,1820.2999999998137,110.0,60.0,40.0,False,,240.01452548568756,[],"[640, 512]",ColorTask,47.0,65.0,,,HRV,HRV_0220,2022-11-30 20:00:51
,wl-rdm,73,217144,0.0-6.65-0.65,0.0,74.0,,,,,,,[],,,,,,56.4,0.0,i,1.0,False,1822.6000000000931,110.0,60.0,40.0,False,,339.1165742386137,[],"[640, 512]",ColorTask,46.0,66.0,,,HRV,HRV_0220,2022-11-30 20:00:51
,wl-rdm,74,219079,0.0-6.66-0.66,0.0,75.0,,,,,,,[],,,,,,73.6,1.0,i,1.0,True,605.1000000000931,37.0,60.0,40.0,False,,253.6621278206479,[],"[640, 512]",ColorTask,47.0,67.0,,,HRV,HRV_0220,2022-11-30 20:00:51
,wl-rdm,75,221865,0.0-6.67-0.67,0.0,76.0,,,,,,,[],,,,,,53.2,0.0,i,1.0,False,1470.4000000003725,89.0,60.0,40.0,False,,246.3800805532676,[],"[640, 512]",ColorTask,46.0,68.0,,,HRV,HRV_0220,2022-11-30 20:00:51
,wl-rdm,76,224501,0.0-6.68-0.68,0.0,77.0,,,,,,,[],,,,,,50.0,1.0,i,1.0,True,1241.0999999996275,75.0,60.0,40.0,False,,327.16274197074006,[],"[640, 512]",ColorTask,47.0,69.0,,,HRV,HRV_0220,2022-11-30 20:00:51
,wl-rdm,77,227087,0.0-6.69-0.69,0.0,78.0,,,,,,,[],,,,,,56.4,1.0,i,1.0,True,1263.3999999999069,76.0,60.0,40.0,False,,263.63517655815355,[],"[640, 512]",ColorTask,48.0,70.0,,,HRV,HRV_0220,2022-11-30 20:00:51
,wl-rdm,78,229623,0.0-6.70-0.70,0.0,79.0,,,,,,,[],,,,,,73.6,0.0,u,0.0,True,1129.9999999995343,68.0,60.0,40.0,False,,348.0202529545611,[],"[640, 512]",ColorTask,49.0,71.0,,,HRV,HRV_0220,2022-11-30 20:00:51
,wl-rdm,79,232859,0.0-6.71-0.71,0.0,80.0,,,,,,,[],,,,,,50.0,1.0,u,0.0,False,1918.7000000001863,115.0,60.0,40.0,False,,247.88731959984568,[],"[640, 512]",ColorTask,48.0,72.0,,,HRV,HRV_0220,2022-11-30 20:00:51
,wl-rdm,80,235412,0.0-6.72-0.72,0.0,81.0,,,,,,,[],,,,,,50.0,1.0,u,0.0,False,1126.6000000000931,68.0,60.0,40.0,False,,338.7077249554928,[],"[640, 512]",ColorTask,47.0,73.0,,,HRV,HRV_0220,2022-11-30 20:00:51
,wl-rdm,81,238065,0.0-6.73-0.73,0.0,82.0,,,,,,,[],,,,,,56.4,0.0,u,0.0,True,1254.0000000004657,76.0,60.0,40.0,False,,323.78839282290363,[],"[640, 512]",ColorTask,48.0,74.0,,,HRV,HRV_0220,2022-11-30 20:00:51
,wl-rdm,82,240600,0.0-6.74-0.74,0.0,83.0,,,,,,,[],,,,,,56.4,0.0,u,0.0,True,1111.7999999998137,67.0,60.0,40.0,False,,359.72534341456446,[],"[640, 512]",ColorTask,49.0,75.0,,,HRV,HRV_0220,2022-11-30 20:00:51
,wl-rdm,83,242619,0.0-6.75-0.75,0.0,84.0,,,,,,,[],,,,,,73.6,1.0,i,1.0,True,642.5999999996275,39.0,60.0,40.0,False,,315.00052374495664,[],"[640, 512]",ColorTask,50.0,76.0,,,HRV,HRV_0220,2022-11-30 20:00:51
,wl-rdm,84,245606,0.0-6.76-0.76,0.0,85.0,,,,,,,[],,,,,,53.2,1.0,i,1.0,True,1624.2000000001863,98.0,60.0,40.0,False,,291.54771133783527,[],"[640, 512]",ColorTask,51.0,77.0,,,HRV,HRV_0220,2022-11-30 20:00:51
,wl-rdm,85,247808,0.0-6.77-0.77,0.0,86.0,,,,,,,[],,,,,,87.9,0.0,u,0.0,True,795.8000000002794,48.0,60.0,40.0,False,,346.17930335107866,[],"[640, 512]",ColorTask,52.0,78.0,,,HRV,HRV_0220,2022-11-30 20:00:51
,wl-rdm,86,250811,0.0-6.78-0.78,0.0,87.0,,,,,,,[],,,,,,53.2,0.0,i,1.0,False,1626.6000000000931,98.0,60.0,40.0,False,,316.0938773628456,[],"[640, 512]",ColorTask,51.0,79.0,,,HRV,HRV_0220,2022-11-30 20:00:51
,wl-rdm,87,253063,0.0-6.79-0.79,0.0,88.0,,,,,,,[],,,,,,53.2,1.0,i,1.0,True,971.6999999997206,59.0,60.0,40.0,False,,211.10795098257134,[],"[640, 512]",ColorTask,52.0,80.0,,,HRV,HRV_0220,2022-11-30 20:00:51
,wl-rdm,88,255265,0.0-6.80-0.80,0.0,89.0,,,,,,,[],,,,,,87.9,1.0,i,1.0,True,919.7000000001863,56.0,60.0,40.0,False,,200.62231360044228,[],"[640, 512]",ColorTask,53.0,81.0,,,HRV,HRV_0220,2022-11-30 20:00:51
,wl-rdm,89,257851,0.0-6.81-0.81,0.0,90.0,,,,,,,[],,,,,,53.2,1.0,i,1.0,True,1200.8000000002794,72.0,60.0,40.0,False,,318.33642364334185,[],"[640, 512]",ColorTask,54.0,82.0,,,HRV,HRV_0220,2022-11-30 20:00:51
,wl-rdm,90,260771,0.0-6.82-0.82,0.0,91.0,,,,,,,[],,,,,,53.2,0.0,i,1.0,False,1609.8999999999069,97.0,60.0,40.0,False,,245.6384890171276,[],"[640, 512]",ColorTask,53.0,83.0,,,HRV,HRV_0220,2022-11-30 20:00:51
,wl-rdm,91,263107,0.0-6.83-0.83,0.0,92.0,,,,,,,[],,,,,,62.5,1.0,i,1.0,True,969.6000000000931,59.0,60.0,40.0,False,,291.6820236719807,[],"[640, 512]",ColorTask,54.0,84.0,,,HRV,HRV_0220,2022-11-30 20:00:51
,wl-rdm,92,265659,0.0-6.84-0.84,0.0,93.0,,,,,,,[],,,,,,62.5,0.0,u,0.0,True,1167.1000000000931,70.0,60.0,40.0,False,,327.63696147293206,[],"[640, 512]",ColorTask,55.0,85.0,,,HRV,HRV_0220,2022-11-30 20:00:51
,wl-rdm,93,267945,0.0-6.85-0.85,0.0,94.0,,,,,,,[],,,,,,73.6,0.0,u,0.0,True,987.1000000000931,60.0,60.0,40.0,False,,222.25170669487315,[],"[640, 512]",ColorTask,56.0,86.0,,,HRV,HRV_0220,2022-11-30 20:00:51
,wl-rdm,94,270964,0.0-6.86-0.86,0.0,95.0,,,,,,,[],,,,,,62.5,0.0,u,0.0,True,1609.0,97.0,60.0,40.0,False,,340.8783366768265,[],"[640, 512]",ColorTask,57.0,87.0,,,HRV,HRV_0220,2022-11-30 20:00:51
,wl-rdm,95,274034,0.0-6.87-0.87,0.0,96.0,,,,,,,[],,,,,,62.5,0.0,u,0.0,True,1754.0,106.0,60.0,40.0,False,,236.1772809023142,[],"[640, 512]",ColorTask,58.0,88.0,,,HRV,HRV_0220,2022-11-30 20:00:51
,wl-rdm,96,276186,0.0-6.88-0.88,0.0,97.0,,,,,,,[],,,,,,87.9,1.0,i,1.0,True,786.4000000003725,48.0,60.0,40.0,False,,294.7934770032098,[],"[640, 512]",ColorTask,59.0,89.0,,,HRV,HRV_0220,2022-11-30 20:00:51
,wl-rdm,97,278355,0.0-6.89-0.89,0.0,98.0,,,,,,,[],,,,,,62.5,1.0,i,1.0,True,869.1000000000931,53.0,60.0,40.0,False,,217.4838648559471,[],"[640, 512]",ColorTask,60.0,90.0,,,HRV,HRV_0220,2022-11-30 20:00:51
,wl-rdm,98,281041,0.0-6.90-0.90,0.0,99.0,,,,,,,[],,,,,,50.0,0.0,i,1.0,False,1411.6000000000931,85.0,60.0,40.0,False,,204.15337532598807,[],"[640, 512]",ColorTask,59.0,91.0,,,HRV,HRV_0220,2022-11-30 20:00:51
,wl-rdm,99,283343,0.0-6.91-0.91,0.0,100.0,,,,,,,[],,,,,,56.4,0.0,u,0.0,True,1022.1000000000931,62.0,60.0,40.0,False,,215.4188194407865,[],"[640, 512]",ColorTask,60.0,92.0,,,HRV,HRV_0220,2022-11-30 20:00:51
,wl-rdm,100,285996,0.0-6.92-0.92,0.0,101.0,,,,,,,[],,,,,,53.2,0.0,u,0.0,True,1258.5,76.0,60.0,40.0,False,,317.12732156519917,[],"[640, 512]",ColorTask,61.0,93.0,,,HRV,HRV_0220,2022-11-30 20:00:51
,wl-rdm,101,288415,0.0-6.93-0.93,0.0,102.0,,,,,,,[],,,,,,50.0,1.0,u,0.0,False,1072.6000000000931,65.0,60.0,40.0,False,,275.0110581795401,[],"[640, 512]",ColorTask,60.0,94.0,,,HRV,HRV_0220,2022-11-30 20:00:51
,wl-rdm,102,290416,0.0-6.94-0.94,0.0,103.0,,,,,,,[],,,,,,87.9,1.0,i,1.0,True,542.9999999995343,33.0,60.0,40.0,False,,398.5495618422689,[],"[640, 512]",ColorTask,61.0,95.0,,,HRV,HRV_0220,2022-11-30 20:00:51
,wl-rdm,103,292369,0.0-6.95-0.95,0.0,104.0,,,,,,,[],,,,,,87.9,1.0,i,1.0,True,576.6000000000931,35.0,60.0,40.0,False,,314.33744844763834,[],"[640, 512]",ColorTask,62.0,96.0,,,HRV,HRV_0220,2022-11-30 20:00:51
,wl-rdm,104,294454,0.0-6.96-0.96,0.0,105.0,,,,,,,[],,,,,,73.6,0.0,u,0.0,True,680.1000000000931,41.0,60.0,40.0,False,,338.35265585442994,[],"[640, 512]",ColorTask,63.0,97.0,,,HRV,HRV_0220,2022-11-30 20:00:51
,wl-rdm,105,296890,0.0-6.97-0.97,0.0,106.0,,,,,,,[],,,,,,50.0,1.0,u,0.0,False,1002.9999999995343,61.0,60.0,40.0,False,,365.10843035945794,[],"[640, 512]",ColorTask,62.0,98.0,,,HRV,HRV_0220,2022-11-30 20:00:51
,wl-rdm,106,299142,0.0-6.98-0.98,0.0,107.0,,,,,,,[],,,,,,50.0,1.0,i,1.0,True,939.6000000000931,57.0,60.0,40.0,False,,247.2024926952985,[],"[640, 512]",ColorTask,63.0,99.0,,,HRV,HRV_0220,2022-11-30 20:00:51
,wl-rdm,107,301244,0.0-6.99-0.99,0.0,108.0,,,,,,,[],,,,,,62.5,1.0,i,1.0,True,649.0,39.0,60.0,40.0,False,,389.0034805486538,[],"[640, 512]",ColorTask,64.0,100.0,,,HRV,HRV_0220,2022-11-30 20:00:51
,wl-rdm,108,303246,0.0-6.100-0.100,0.0,109.0,,,,,,,[],,,,,,87.9,0.0,u,0.0,True,646.8000000002794,39.0,60.0,40.0,False,,284.522131819737,[],"[640, 512]",ColorTask,65.0,101.0,,,HRV,HRV_0220,2022-11-30 20:00:51
,wl-rdm,109,305832,0.0-6.101-0.101,0.0,110.0,,,,,,,[],,,,,,56.4,1.0,i,1.0,True,1295.6999999997206,78.0,60.0,40.0,False,,226.48001134572488,[],"[640, 512]",ColorTask,66.0,102.0,,,HRV,HRV_0220,2022-11-30 20:00:51
,wl-rdm,110,308852,0.0-6.102-0.102,0.0,111.0,,,,,,,[],,,,,,50.0,1.0,i,1.0,True,1683.5,101.0,60.0,40.0,False,,269.21336952261254,[],"[640, 512]",ColorTask,67.0,103.0,,,HRV,HRV_0220,2022-11-30 20:00:51
,wl-rdm,111,312372,0.0-6.103-0.103,0.0,112.0,,,,,,,[],,,,,,62.5,0.0,u,0.0,True,2117.0,127.0,60.0,40.0,False,,343.34319675450223,[],"[640, 512]",ColorTask,68.0,104.0,,,HRV,HRV_0220,2022-11-30 20:00:51
,wl-rdm,112,314891,0.0-6.104-0.104,0.0,113.0,,,,,,,[],,,,,,73.6,0.0,u,0.0,True,1117.8999999999069,67.0,60.0,40.0,False,,331.5137247234404,[],"[640, 512]",ColorTask,69.0,105.0,,,HRV,HRV_0220,2022-11-30 20:00:51
,wl-rdm,113,317294,0.0-6.105-0.105,0.0,114.0,,,,,,,[],,,,,,62.5,1.0,i,1.0,True,1131.1999999997206,68.0,60.0,40.0,False,,207.79295327172272,[],"[640, 512]",ColorTask,70.0,106.0,,,HRV,HRV_0220,2022-11-30 20:00:51
,wl-rdm,114,320464,0.0-6.106-0.106,0.0,115.0,,,,,,,[],,,,,,50.0,0.0,i,1.0,False,1746.9000000003725,105.0,60.0,40.0,False,,354.1751866268467,[],"[640, 512]",ColorTask,69.0,107.0,,,HRV,HRV_0220,2022-11-30 20:00:51
,wl-rdm,115,322932,0.0-6.107-0.107,0.0,116.0,,,,,,,[],,,,,,73.6,1.0,i,1.0,True,1191.2999999998137,72.0,60.0,40.0,False,,201.59859521818373,[],"[640, 512]",ColorTask,70.0,108.0,,,HRV,HRV_0220,2022-11-30 20:00:51
,wl-html-keyboard-response,116,361259,0.0-7.0-0.0,1.0,116.0,,,,,,,,36313.69999999972,1.0,0,,,,,,,,,,,,True,undefinedblurEvent ,,,,,,,,,HRV,HRV_0220,2022-11-30 20:00:51
,wl-rdm,117,364223,0.0-8.0-0.0,1.0,117.0,,,,,,,[],,,,,,73.6,1.0,i,1.0,True,1638.8000000002794,99.0,60.0,40.0,False,,254.03016191420514,[],"[640, 512]",ColorTask,71.0,1.0,,,HRV,HRV_0220,2022-11-30 20:00:51
,wl-rdm,118,366226,0.0-8.1-0.1,1.0,118.0,,,,,,,[],,,,,,73.6,1.0,i,1.0,True,726.0,44.0,60.0,40.0,False,,211.80667114227205,[],"[640, 512]",ColorTask,72.0,2.0,,,HRV,HRV_0220,2022-11-30 20:00:51
,wl-rdm,119,369211,0.0-8.2-0.2,1.0,119.0,,,,,,,[],,,,,,56.4,1.0,i,1.0,True,1541.1000000000931,93.0,60.0,40.0,False,,378.05909210164623,[],"[640, 512]",ColorTask,73.0,3.0,,,HRV,HRV_0220,2022-11-30 20:00:51
,wl-rdm,120,371064,0.0-8.3-0.3,1.0,120.0,,,,,,,[],,,,,,87.9,0.0,u,0.0,True,537.7000000001863,33.0,60.0,40.0,False,,233.61374462496633,[],"[640, 512]",ColorTask,74.0,4.0,,,HRV,HRV_0220,2022-11-30 20:00:51
,wl-rdm,121,373582,0.0-8.4-0.4,1.0,121.0,,,,,,,[],,,,,,50.0,0.0,u,0.0,True,1162.1999999997206,70.0,60.0,40.0,False,,291.79819430659717,[],"[640, 512]",ColorTask,75.0,5.0,,,HRV,HRV_0220,2022-11-30 20:00:51
,wl-rdm,122,375885,0.0-8.5-0.5,1.0,122.0,,,,,,,[],,,,,,73.6,0.0,u,0.0,True,889.0,54.0,60.0,40.0,False,,335.1567502833722,[],"[640, 512]",ColorTask,76.0,6.0,,,HRV,HRV_0220,2022-11-30 20:00:51
,wl-rdm,123,378421,0.0-8.6-0.6,1.0,123.0,,,,,,,[],,,,,,62.5,1.0,i,1.0,True,1256.8000000002794,76.0,60.0,40.0,False,,205.47057238377218,[],"[640, 512]",ColorTask,77.0,7.0,,,HRV,HRV_0220,2022-11-30 20:00:51
,wl-rdm,124,380523,0.0-8.7-0.7,1.0,124.0,,,,,,,[],,,,,,87.9,1.0,i,1.0,True,741.0999999996275,45.0,60.0,40.0,False,,292.7135505509845,[],"[640, 512]",ColorTask,78.0,8.0,,,HRV,HRV_0220,2022-11-30 20:00:51
,wl-rdm,125,383393,0.0-8.8-0.8,1.0,125.0,,,,,,,[],,,,,,56.4,1.0,i,1.0,True,1478.2999999998137,89.0,60.0,40.0,False,,332.28125018056926,[],"[640, 512]",ColorTask,79.0,9.0,,,HRV,HRV_0220,2022-11-30 20:00:51
,wl-rdm,126,386246,0.0-8.9-0.9,1.0,126.0,,,,,,,[],,,,,,50.0,1.0,i,1.0,True,1540.0,93.0,60.0,40.0,False,,234.68615418707844,[],"[640, 512]",ColorTask,80.0,10.0,,,HRV,HRV_0220,2022-11-30 20:00:51
,wl-rdm,127,388298,0.0-8.10-0.10,1.0,127.0,,,,,,,[],,,,,,62.5,0.0,u,0.0,True,658.8999999999069,40.0,60.0,40.0,False,,319.4204042479527,[],"[640, 512]",ColorTask,81.0,11.0,,,HRV,HRV_0220,2022-11-30 20:00:51
,wl-rdm,128,390850,0.0-8.11-0.11,1.0,128.0,,,,,,,[],,,,,,50.0,0.0,u,0.0,True,1267.8000000002794,76.0,60.0,40.0,False,,228.42935043523914,[],"[640, 512]",ColorTask,82.0,12.0,,,HRV,HRV_0220,2022-11-30 20:00:51
,wl-rdm,129,393152,0.0-8.12-0.12,1.0,129.0,,,,,,,[],,,,,,50.0,0.0,i,1.0,False,903.6000000000931,55.0,60.0,40.0,False,,332.4483559481341,[],"[640, 512]",ColorTask,81.0,13.0,,,HRV,HRV_0220,2022-11-30 20:00:51
,wl-rdm,130,395488,0.0-8.13-0.13,1.0,130.0,,,,,,,[],,,,,,56.4,0.0,u,0.0,True,1012.1000000000931,61.0,60.0,40.0,False,,266.04369887045834,[],"[640, 512]",ColorTask,82.0,14.0,,,HRV,HRV_0220,2022-11-30 20:00:51
,wl-rdm,131,398658,0.0-8.14-0.14,1.0,131.0,,,,,,,[],,,,,,53.2,0.0,i,1.0,False,1710.2999999998137,103.0,60.0,40.0,False,,385.20090627457887,[],"[640, 512]",ColorTask,81.0,15.0,,,HRV,HRV_0220,2022-11-30 20:00:51
,wl-rdm,132,401210,0.0-8.15-0.15,1.0,132.0,,,,,,,[],,,,,,53.2,1.0,i,1.0,True,1236.3999999999069,75.0,60.0,40.0,False,,247.18240219843761,[],"[640, 512]",ColorTask,82.0,16.0,,,HRV,HRV_0220,2022-11-30 20:00:51
,wl-rdm,133,405432,0.0-8.16-0.16,1.0,133.0,,,,,,,[],,,,,,50.0,1.0,u,0.0,False,2764.2999999998137,166.0,60.0,40.0,False,,395.5499782471585,[],"[640, 512]",ColorTask,81.0,17.0,,,HRV,HRV_0220,2022-11-30 20:00:51
,wl-rdm,134,407417,0.0-8.17-0.17,1.0,134.0,,,,,,,[],,,,,,87.9,0.0,u,0.0,True,702.4000000003725,43.0,60.0,40.0,False,,202.672515451227,[],"[640, 512]",ColorTask,82.0,18.0,,,HRV,HRV_0220,2022-11-30 20:00:51
,wl-rdm,135,410386,0.0-8.18-0.18,1.0,135.0,,,,,,,[],,,,,,53.2,1.0,i,1.0,True,1670.0,101.0,60.0,40.0,False,,224.99719333799845,[],"[640, 512]",ColorTask,83.0,19.0,,,HRV,HRV_0220,2022-11-30 20:00:51
,wl-rdm,136,413423,0.0-8.19-0.19,1.0,136.0,,,,,,,[],,,,,,56.4,0.0,u,0.0,True,1689.6000000005588,102.0,60.0,40.0,False,,272.16907935386314,[],"[640, 512]",ColorTask,84.0,20.0,,,HRV,HRV_0220,2022-11-30 20:00:51
,wl-rdm,137,415909,0.0-8.20-0.20,1.0,137.0,,,,,,,[],,,,,,53.2,0.0,i,1.0,False,1114.8000000002794,67.0,60.0,40.0,False,,312.5681569048305,[],"[640, 512]",ColorTask,83.0,21.0,,,HRV,HRV_0220,2022-11-30 20:00:51
,wl-rdm,138,417911,0.0-8.21-0.21,1.0,138.0,,,,,,,[],,,,,,87.9,0.0,u,0.0,True,680.5,41.0,60.0,40.0,False,,249.79443125597982,[],"[640, 512]",ColorTask,84.0,22.0,,,HRV,HRV_0220,2022-11-30 20:00:51
,wl-rdm,139,420680,0.0-8.22-0.22,1.0,139.0,,,,,,,[],,,,,,62.5,0.0,u,0.0,True,1479.2000000001863,89.0,60.0,40.0,False,,229.11723602348476,[],"[640, 512]",ColorTask,85.0,23.0,,,HRV,HRV_0220,2022-11-30 20:00:51
,wl-rdm,140,423650,0.0-8.23-0.23,1.0,140.0,,,,,,,[],,,,,,53.2,1.0,i,1.0,True,1660.2000000001863,100.0,60.0,40.0,False,,238.19510759185408,[],"[640, 512]",ColorTask,86.0,24.0,,,HRV,HRV_0220,2022-11-30 20:00:51
,wl-rdm,141,425685,0.0-8.24-0.24,1.0,141.0,,,,,,,[],,,,,,73.6,1.0,i,1.0,True,640.0,39.0,60.0,40.0,False,,329.26025079938205,[],"[640, 512]",ColorTask,87.0,25.0,,,HRV,HRV_0220,2022-11-30 20:00:51
,wl-rdm,142,427637,0.0-8.25-0.25,1.0,142.0,,,,,,,[],,,,,,73.6,1.0,i,1.0,True,573.1000000000931,35.0,60.0,40.0,False,,309.59258765634553,[],"[640, 512]",ColorTask,88.0,26.0,,,HRV,HRV_0220,2022-11-30 20:00:51
,wl-rdm,143,430123,0.0-8.26-0.26,1.0,143.0,,,,,,,[],,,,,,62.5,0.0,u,0.0,True,1202.9000000003725,73.0,60.0,40.0,False,,202.9925566836205,[],"[640, 512]",ColorTask,89.0,27.0,,,HRV,HRV_0220,2022-11-30 20:00:51
,wl-rdm,144,432258,0.0-8.27-0.27,1.0,144.0,,,,,,,[],,,,,,87.9,0.0,u,0.0,True,692.7000000001863,42.0,60.0,40.0,False,,381.6358478910696,[],"[640, 512]",ColorTask,90.0,28.0,,,HRV,HRV_0220,2022-11-30 20:00:51
,wl-rdm,145,434460,0.0-8.28-0.28,1.0,145.0,,,,,,,[],,,,,,56.4,1.0,i,1.0,True,865.5000000004657,52.0,60.0,40.0,False,,277.40271769701803,[],"[640, 512]",ColorTask,91.0,29.0,,,HRV,HRV_0220,2022-11-30 20:00:51
,wl-rdm,146,436463,0.0-8.29-0.29,1.0,146.0,,,,,,,[],,,,,,73.6,1.0,i,1.0,True,638.0,39.0,60.0,40.0,False,,287.7336006876723,[],"[640, 512]",ColorTask,92.0,30.0,,,HRV,HRV_0220,2022-11-30 20:00:51
,wl-rdm,147,438915,0.0-8.30-0.30,1.0,147.0,,,,,,,[],,,,,,56.4,0.0,u,0.0,True,999.6000000000931,60.0,60.0,40.0,False,,385.0019529579185,[],"[640, 512]",ColorTask,93.0,31.0,,,HRV,HRV_0220,2022-11-30 20:00:51
,wl-rdm,148,441501,0.0-8.31-0.31,1.0,148.0,,,,,,,[],,,,,,62.5,0.0,u,0.0,True,1156.8000000002794,70.0,60.0,40.0,False,,352.17602729461163,[],"[640, 512]",ColorTask,94.0,32.0,,,HRV,HRV_0220,2022-11-30 20:00:51
,wl-rdm,149,444204,0.0-8.32-0.32,1.0,149.0,,,,,,,[],,,,,,56.4,0.0,u,0.0,True,1366.0,82.0,60.0,40.0,False,,280.66038197928214,[],"[640, 512]",ColorTask,95.0,33.0,,,HRV,HRV_0220,2022-11-30 20:00:51
,wl-rdm,150,446605,0.0-8.33-0.33,1.0,150.0,,,,,,,[],,,,,,62.5,0.0,u,0.0,True,1080.6000000000931,65.0,60.0,40.0,False,,252.9539014740679,[],"[640, 512]",ColorTask,96.0,34.0,,,HRV,HRV_0220,2022-11-30 20:00:51
,wl-rdm,151,448925,0.0-8.34-0.34,1.0,151.0,,,,,,,[],,,,,,62.5,0.0,i,1.0,False,990.3000000002794,60.0,60.0,40.0,False,,266.3331684974181,[],"[640, 512]",ColorTask,95.0,35.0,,,HRV,HRV_0220,2022-11-30 20:00:51
,wl-rdm,152,451044,0.0-8.35-0.35,1.0,152.0,,,,,,,[],,,,,,56.4,0.0,u,0.0,True,799.2000000001863,48.0,60.0,40.0,False,,266.64420499909,[],"[640, 512]",ColorTask,96.0,36.0,,,HRV,HRV_0220,2022-11-30 20:00:51
,wl-rdm,153,453463,0.0-8.36-0.36,1.0,153.0,,,,,,,[],,,,,,73.6,0.0,u,0.0,True,1028.8000000002794,62.0,60.0,40.0,False,,321.18092906091346,[],"[640, 512]",ColorTask,97.0,37.0,,,HRV,HRV_0220,2022-11-30 20:00:51
,wl-rdm,154,455398,0.0-8.37-0.37,1.0,154.0,,,,,,,[],,,,,,56.4,1.0,i,1.0,True,530.1999999997206,32.0,60.0,40.0,False,,344.1391637416317,[],"[640, 512]",ColorTask,98.0,38.0,,,HRV,HRV_0220,2022-11-30 20:00:51
,wl-rdm,155,458101,0.0-8.38-0.38,1.0,155.0,,,,,,,[],,,,,,56.4,0.0,i,1.0,False,1399.3999999994412,84.0,60.0,40.0,False,,241.50361400214115,[],"[640, 512]",ColorTask,97.0,39.0,,,HRV,HRV_0220,2022-11-30 20:00:51
,wl-rdm,156,460086,0.0-8.39-0.39,1.0,156.0,,,,,,,[],,,,,,62.5,1.0,i,1.0,True,638.1000000000931,39.0,60.0,40.0,False,,281.3272887928656,[],"[640, 512]",ColorTask,98.0,40.0,,,HRV,HRV_0220,2022-11-30 20:00:51
,wl-rdm,157,462238,0.0-8.40-0.40,1.0,157.0,,,,,,,[],,,,,,53.2,0.0,i,1.0,False,838.2000000001863,51.0,60.0,40.0,False,,234.75499764117407,[],"[640, 512]",ColorTask,97.0,41.0,,,HRV,HRV_0220,2022-11-30 20:00:51
,wl-rdm,158,464691,0.0-8.41-0.41,1.0,158.0,,,,,,,[],,,,,,73.6,0.0,u,0.0,True,1051.0,63.0,60.0,40.0,False,,335.01722978342804,[],"[640, 512]",ColorTask,98.0,42.0,,,HRV,HRV_0220,2022-11-30 20:00:51
,wl-rdm,159,467777,0.0-8.42-0.42,1.0,159.0,,,,,,,[],,,,,,50.0,0.0,i,1.0,False,1786.6999999997206,108.0,60.0,40.0,False,,220.60226250349362,[],"[640, 512]",ColorTask,97.0,43.0,,,HRV,HRV_0220,2022-11-30 20:00:51
,wl-rdm,160,470330,0.0-8.43-0.43,1.0,160.0,,,,,,,[],,,,,,62.5,0.0,u,0.0,True,1170.1000000000931,71.0,60.0,40.0,False,,306.0371240055892,[],"[640, 512]",ColorTask,98.0,44.0,,,HRV,HRV_0220,2022-11-30 20:00:51
,wl-rdm,161,472933,0.0-8.44-0.44,1.0,161.0,,,,,,,[],,,,,,56.4,1.0,u,0.0,False,1224.6999999997206,74.0,60.0,40.0,False,,303.2673071535976,[],"[640, 512]",ColorTask,97.0,45.0,,,HRV,HRV_0220,2022-11-30 20:00:51
,wl-rdm,162,476286,0.0-8.45-0.45,1.0,162.0,,,,,,,[],,,,,,53.2,0.0,i,1.0,False,1991.3999999994412,120.0,60.0,40.0,False,,287.7731002921281,[],"[640, 512]",ColorTask,96.0,46.0,,,HRV,HRV_0220,2022-11-30 20:00:51
,wl-rdm,163,479222,0.0-8.46-0.46,1.0,163.0,,,,,,,[],,,,,,53.2,1.0,i,1.0,True,1664.0,100.0,60.0,40.0,False,,203.54870607317872,[],"[640, 512]",ColorTask,97.0,47.0,,,HRV,HRV_0220,2022-11-30 20:00:51
,wl-rdm,164,481158,0.0-8.47-0.47,1.0,164.0,,,,,,,[],,,,,,73.6,1.0,i,1.0,True,613.4999999995343,37.0,60.0,40.0,False,,260.7298648277525,[],"[640, 512]",ColorTask,98.0,48.0,,,HRV,HRV_0220,2022-11-30 20:00:51
,wl-rdm,165,483276,0.0-8.48-0.48,1.0,165.0,,,,,,,[],,,,,,73.6,0.0,u,0.0,True,765.2999999998137,46.0,60.0,40.0,False,,285.1059417613691,[],"[640, 512]",ColorTask,99.0,49.0,,,HRV,HRV_0220,2022-11-30 20:00:51
,wl-rdm,166,485362,0.0-8.49-0.49,1.0,166.0,,,,,,,[],,,,,,56.4,1.0,i,1.0,True,793.1000000000931,48.0,60.0,40.0,False,,226.45955689931458,[],"[640, 512]",ColorTask,100.0,50.0,,,HRV,HRV_0220,2022-11-30 20:00:51
,wl-rdm,167,487497,0.0-8.50-0.50,1.0,167.0,,,,,,,[],,,,,,73.6,1.0,i,1.0,True,819.8000000002794,50.0,60.0,40.0,False,,248.0983793217684,[],"[640, 512]",ColorTask,101.0,51.0,,,HRV,HRV_0220,2022-11-30 20:00:51
,wl-rdm,168,490584,0.0-8.51-0.51,1.0,168.0,,,,,,,[],,,,,,53.2,1.0,i,1.0,True,1671.8000000002794,101.0,60.0,40.0,False,,339.27860000912153,[],"[640, 512]",ColorTask,102.0,52.0,,,HRV,HRV_0220,2022-11-30 20:00:51
,wl-rdm,169,492652,0.0-8.52-0.52,1.0,169.0,,,,,,,[],,,,,,87.9,1.0,i,1.0,True,657.3999999994412,40.0,60.0,40.0,False,,340.62207632817,[],"[640, 512]",ColorTask,103.0,53.0,,,HRV,HRV_0220,2022-11-30 20:00:51
,wl-rdm,170,495272,0.0-8.53-0.53,1.0,170.0,,,,,,,[],,,,,,50.0,0.0,u,0.0,True,1338.5,81.0,60.0,40.0,False,,204.0838605146304,[],"[640, 512]",ColorTask,104.0,54.0,,,HRV,HRV_0220,2022-11-30 20:00:51
,wl-rdm,171,497707,0.0-8.54-0.54,1.0,171.0,,,,,,,[],,,,,,62.5,1.0,u,0.0,False,1076.0,65.0,60.0,40.0,False,,295.88049859562756,[],"[640, 512]",ColorTask,103.0,55.0,,,HRV,HRV_0220,2022-11-30 20:00:51
,wl-rdm,172,499643,0.0-8.55-0.55,1.0,172.0,,,,,,,[],,,,,,87.9,1.0,i,1.0,True,609.1000000000931,37.0,60.0,40.0,False,,251.20026343986052,[],"[640, 512]",ColorTask,104.0,56.0,,,HRV,HRV_0220,2022-11-30 20:00:51
,wl-rdm,173,502212,0.0-8.56-0.56,1.0,173.0,,,,,,,[],,,,,,53.2,0.0,i,1.0,False,1266.3999999999069,76.0,60.0,40.0,False,,238.2108198087749,[],"[640, 512]",ColorTask,103.0,57.0,,,HRV,HRV_0220,2022-11-30 20:00:51
,wl-rdm,174,504698,0.0-8.57-0.57,1.0,174.0,,,,,,,[],,,,,,50.0,0.0,u,0.0,True,1211.1000000000931,73.0,60.0,40.0,False,,200.5706114056437,[],"[640, 512]",ColorTask,104.0,58.0,,,HRV,HRV_0220,2022-11-30 20:00:51
,wl-rdm,175,507917,0.0-8.58-0.58,1.0,175.0,,,,,,,[],,,,,,53.2,1.0,i,1.0,True,1916.3999999999069,115.0,60.0,40.0,False,,225.86151520471472,[],"[640, 512]",ColorTask,105.0,59.0,,,HRV,HRV_0220,2022-11-30 20:00:51
,wl-rdm,176,510987,0.0-8.59-0.59,1.0,176.0,,,,,,,[],,,,,,73.6,0.0,u,0.0,True,1693.1000000000931,102.0,60.0,40.0,False,,302.32357385981726,[],"[640, 512]",ColorTask,106.0,60.0,,,HRV,HRV_0220,2022-11-30 20:00:51
,wl-rdm,177,514190,0.0-8.60-0.60,1.0,177.0,,,,,,,[],,,,,,62.5,0.0,u,0.0,True,1931.2000000001863,116.0,60.0,40.0,False,,206.85274145732637,[],"[640, 512]",ColorTask,107.0,61.0,,,HRV,HRV_0220,2022-11-30 20:00:51
,wl-rdm,178,516910,0.0-8.61-0.61,1.0,178.0,,,,,,,[],,,,,,73.6,0.0,u,0.0,True,1331.3000000002794,80.0,60.0,40.0,False,,329.9537954362883,[],"[640, 512]",ColorTask,108.0,62.0,,,HRV,HRV_0220,2022-11-30 20:00:51
,wl-rdm,179,518862,0.0-8.62-0.62,1.0,179.0,,,,,,,[],,,,,,87.9,1.0,i,1.0,True,630.9999999995343,38.0,60.0,40.0,False,,255.33237415111486,[],"[640, 512]",ColorTask,109.0,63.0,,,HRV,HRV_0220,2022-11-30 20:00:51
,wl-rdm,180,522015,0.0-8.63-0.63,1.0,180.0,,,,,,,[],,,,,,50.0,0.0,i,1.0,False,1790.1999999997206,108.0,60.0,40.0,False,,295.99355057262983,[],"[640, 512]",ColorTask,108.0,64.0,,,HRV,HRV_0220,2022-11-30 20:00:51
,wl-rdm,181,524634,0.0-8.64-0.64,1.0,181.0,,,,,,,[],,,,,,50.0,1.0,u,0.0,False,1343.6999999997206,81.0,60.0,40.0,False,,207.78480436348607,[],"[640, 512]",ColorTask,107.0,65.0,,,HRV,HRV_0220,2022-11-30 20:00:51
,wl-rdm,182,526569,0.0-8.65-0.65,1.0,182.0,,,,,,,[],,,,,,87.9,1.0,i,1.0,True,643.7999999998137,39.0,60.0,40.0,False,,232.77485447006865,[],"[640, 512]",ColorTask,108.0,66.0,,,HRV,HRV_0220,2022-11-30 20:00:51
,wl-rdm,183,529722,0.0-8.66-0.66,1.0,183.0,,,,,,,[],,,,,,50.0,1.0,u,0.0,False,1860.6000000000931,112.0,60.0,40.0,False,,218.83892479822518,[],"[640, 512]",ColorTask,107.0,67.0,,,HRV,HRV_0220,2022-11-30 20:00:51
,wl-rdm,184,531875,0.0-8.67-0.67,1.0,184.0,,,,,,,[],,,,,,87.9,0.0,u,0.0,True,733.3000000002794,44.0,60.0,40.0,False,,350.7670169826783,[],"[640, 512]",ColorTask,108.0,68.0,,,HRV,HRV_0220,2022-11-30 20:00:51
,wl-rdm,185,534294,0.0-8.68-0.68,1.0,185.0,,,,,,,[],,,,,,53.2,1.0,i,1.0,True,1013.3999999999069,61.0,60.0,40.0,False,,337.22121710325007,[],"[640, 512]",ColorTask,109.0,69.0,,,HRV,HRV_0220,2022-11-30 20:00:51
,wl-rdm,186,537364,0.0-8.69-0.69,1.0,186.0,,,,,,,[],,,,,,56.4,0.0,i,1.0,False,1650.6999999997206,99.0,60.0,40.0,False,,357.4205595832235,[],"[640, 512]",ColorTask,108.0,70.0,,,HRV,HRV_0220,2022-11-30 20:00:51
,wl-rdm,187,539482,0.0-8.70-0.70,1.0,187.0,,,,,,,[],,,,,,56.4,0.0,u,0.0,True,851.0000000004657,51.0,60.0,40.0,False,,213.70290208903475,[],"[640, 512]",ColorTask,109.0,71.0,,,HRV,HRV_0220,2022-11-30 20:00:51
,wl-rdm,188,541401,0.0-8.71-0.71,1.0,188.0,,,,,,,[],,,,,,87.9,0.0,u,0.0,True,636.5,39.0,60.0,40.0,False,,201.17391875182292,[],"[640, 512]",ColorTask,110.0,72.0,,,HRV,HRV_0220,2022-11-30 20:00:51
,wl-rdm,189,543720,0.0-8.72-0.72,1.0,189.0,,,,,,,[],,,,,,62.5,1.0,i,1.0,True,978.1000000000931,59.0,60.0,40.0,False,,273.9104711410765,[],"[640, 512]",ColorTask,111.0,73.0,,,HRV,HRV_0220,2022-11-30 20:00:51
,wl-rdm,190,545805,0.0-8.73-0.73,1.0,190.0,,,,,,,[],,,,,,73.6,1.0,i,1.0,True,723.6000000000931,44.0,60.0,40.0,False,,286.2603643081386,[],"[640, 512]",ColorTask,112.0,74.0,,,HRV,HRV_0220,2022-11-30 20:00:51
,wl-rdm,191,547740,0.0-8.74-0.74,1.0,191.0,,,,,,,[],,,,,,62.5,1.0,i,1.0,True,598.0,36.0,60.0,40.0,False,,280.65262018760967,[],"[640, 512]",ColorTask,113.0,75.0,,,HRV,HRV_0220,2022-11-30 20:00:51
,wl-rdm,192,549676,0.0-8.75-0.75,1.0,192.0,,,,,,,[],,,,,,50.0,0.0,i,1.0,False,557.4999999995343,34.0,60.0,40.0,False,,315.7943922440644,[],"[640, 512]",ColorTask,112.0,76.0,,,HRV,HRV_0220,2022-11-30 20:00:51
,wl-rdm,193,552729,0.0-8.76-0.76,1.0,193.0,,,,,,,[],,,,,,56.4,1.0,i,1.0,True,1711.7999999998137,103.0,60.0,40.0,False,,268.6171453814628,[],"[640, 512]",ColorTask,113.0,77.0,,,HRV,HRV_0220,2022-11-30 20:00:51
,wl-rdm,194,556132,0.0-8.77-0.77,1.0,194.0,,,,,,,[],,,,,,50.0,1.0,i,1.0,True,2033.0,122.0,60.0,40.0,False,,309.88298961925057,[],"[640, 512]",ColorTask,114.0,78.0,,,HRV,HRV_0220,2022-11-30 20:00:51
,wl-rdm,195,558368,0.0-8.78-0.78,1.0,195.0,,,,,,,[],,,,,,56.4,1.0,i,1.0,True,911.4000000003725,55.0,60.0,40.0,False,,253.31652619311356,[],"[640, 512]",ColorTask,115.0,79.0,,,HRV,HRV_0220,2022-11-30 20:00:51
,wl-rdm,196,560287,0.0-8.79-0.79,1.0,196.0,,,,,,,[],,,,,,73.6,0.0,u,0.0,True,622.2999999993481,38.0,60.0,40.0,False,,217.59445090296435,[],"[640, 512]",ColorTask,116.0,80.0,,,HRV,HRV_0220,2022-11-30 20:00:51
,wl-rdm,197,562188,0.0-8.80-0.80,1.0,197.0,,,,,,,[],,,,,,53.2,1.0,i,1.0,True,623.0,38.0,60.0,40.0,False,,217.24992846442257,[],"[640, 512]",ColorTask,117.0,81.0,,,HRV,HRV_0220,2022-11-30 20:00:51
,wl-rdm,198,564407,0.0-8.81-0.81,1.0,198.0,,,,,,,[],,,,,,87.9,1.0,i,1.0,True,887.8999999999069,54.0,60.0,40.0,False,,265.83626443457206,[],"[640, 512]",ColorTask,118.0,82.0,,,HRV,HRV_0220,2022-11-30 20:00:51
,wl-rdm,199,567360,0.0-8.82-0.82,1.0,199.0,,,,,,,[],,,,,,62.5,1.0,i,1.0,True,1621.2999999998137,98.0,60.0,40.0,False,,262.56952732710437,[],"[640, 512]",ColorTask,119.0,83.0,,,HRV,HRV_0220,2022-11-30 20:00:51
,wl-rdm,200,569746,0.0-8.83-0.83,1.0,200.0,,,,,,,[],,,,,,73.6,0.0,u,0.0,True,1043.7999999998137,63.0,60.0,40.0,False,,273.8805400987892,[],"[640, 512]",ColorTask,120.0,84.0,,,HRV,HRV_0220,2022-11-30 20:00:51
,wl-rdm,201,572165,0.0-8.84-0.84,1.0,201.0,,,,,,,[],,,,,,53.2,0.0,i,1.0,False,1098.1000000000931,66.0,60.0,40.0,False,,263.1357718607466,[],"[640, 512]",ColorTask,119.0,85.0,,,HRV,HRV_0220,2022-11-30 20:00:51
,wl-rdm,202,574167,0.0-8.85-0.85,1.0,202.0,,,,,,,[],,,,,,62.5,1.0,i,1.0,True,704.2999999998137,43.0,60.0,40.0,False,,231.35732483606472,[],"[640, 512]",ColorTask,120.0,86.0,,,HRV,HRV_0220,2022-11-30 20:00:51
,wl-rdm,203,578038,0.0-8.86-0.86,1.0,203.0,,,,,,,[],,,,,,56.4,1.0,i,1.0,True,2458.4000000003725,148.0,60.0,40.0,False,,336.7972984989625,[],"[640, 512]",ColorTask,121.0,87.0,,,HRV,HRV_0220,2022-11-30 20:00:51
,wl-rdm,204,580423,0.0-8.87-0.87,1.0,204.0,,,,,,,[],,,,,,62.5,1.0,i,1.0,True,1053.6000000000931,64.0,60.0,40.0,False,,262.02422679966804,[],"[640, 512]",ColorTask,122.0,88.0,,,HRV,HRV_0220,2022-11-30 20:00:51
,wl-rdm,205,583093,0.0-8.88-0.88,1.0,205.0,,,,,,,[],,,,,,62.5,0.0,u,0.0,True,1323.8000000002794,80.0,60.0,40.0,False,,267.6018759032961,[],"[640, 512]",ColorTask,123.0,89.0,,,HRV,HRV_0220,2022-11-30 20:00:51
,wl-rdm,206,585979,0.0-8.89-0.89,1.0,206.0,,,,,,,[],,,,,,50.0,0.0,u,0.0,True,1576.799999999348,95.0,60.0,40.0,False,,243.46639289615453,[],"[640, 512]",ColorTask,124.0,90.0,,,HRV,HRV_0220,2022-11-30 20:00:51
,wl-rdm,207,588414,0.0-8.90-0.90,1.0,207.0,,,,,,,[],,,,,,87.9,0.0,u,0.0,True,980.5,59.0,60.0,40.0,False,,399.8383239867927,[],"[640, 512]",ColorTask,125.0,91.0,,,HRV,HRV_0220,2022-11-30 20:00:51
,wl-rdm,208,590633,0.0-8.91-0.91,1.0,208.0,,,,,,,[],,,,,,87.9,0.0,u,0.0,True,836.3999999999069,51.0,60.0,40.0,False,,314.5868406662685,[],"[640, 512]",ColorTask,126.0,92.0,,,HRV,HRV_0220,2022-11-30 20:00:51
,wl-rdm,209,592668,0.0-8.92-0.92,1.0,209.0,,,,,,,[],,,,,,87.9,1.0,i,1.0,True,606.4000000003725,37.0,60.0,40.0,False,,366.116707312731,[],"[640, 512]",ColorTask,127.0,93.0,,,HRV,HRV_0220,2022-11-30 20:00:51
,wl-rdm,210,595271,0.0-8.93-0.93,1.0,210.0,,,,,,,[],,,,,,53.2,0.0,u,0.0,True,1271.699999999255,77.0,60.0,40.0,False,,262.66647123422285,[],"[640, 512]",ColorTask,128.0,94.0,,,HRV,HRV_0220,2022-11-30 20:00:51
,wl-rdm,211,597223,0.0-8.94-0.94,1.0,211.0,,,,,,,[],,,,,,87.9,1.0,i,1.0,True,638.6000000000931,39.0,60.0,40.0,False,,235.1561118355286,[],"[640, 512]",ColorTask,129.0,95.0,,,HRV,HRV_0220,2022-11-30 20:00:51
,wl-rdm,212,600210,0.0-8.95-0.95,1.0,212.0,,,,,,,[],,,,,,53.2,0.0,u,0.0,True,1711.8000000002794,103.0,60.0,40.0,False,,208.926238593916,[],"[640, 512]",ColorTask,130.0,96.0,,,HRV,HRV_0220,2022-11-30 20:00:51
,wl-rdm,213,602896,0.0-8.96-0.96,1.0,213.0,,,,,,,[],,,,,,53.2,1.0,i,1.0,True,1221.8999999994412,74.0,60.0,40.0,False,,398.6205199561312,[],"[640, 512]",ColorTask,131.0,97.0,,,HRV,HRV_0220,2022-11-30 20:00:51
,wl-rdm,214,605131,0.0-8.97-0.97,1.0,214.0,,,,,,,[],,,,,,73.6,0.0,u,0.0,True,958.6000000000931,58.0,60.0,40.0,False,,208.0666471953621,[],"[640, 512]",ColorTask,132.0,98.0,,,HRV,HRV_0220,2022-11-30 20:00:51
,wl-rdm,215,607650,0.0-8.98-0.98,1.0,215.0,,,,,,,[],,,,,,50.0,1.0,u,0.0,False,1152.3000000002794,70.0,60.0,40.0,False,,286.92718128936656,[],"[640, 512]",ColorTask,131.0,99.0,,,HRV,HRV_0220,2022-11-30 20:00:51
,wl-rdm,216,610336,0.0-8.99-0.99,1.0,216.0,,,,,,,[],,,,,,50.0,1.0,i,1.0,True,1295.1000000000931,78.0,60.0,40.0,False,,312.2001658404648,[],"[640, 512]",ColorTask,132.0,100.0,,,HRV,HRV_0220,2022-11-30 20:00:51
,wl-rdm,217,613423,0.0-8.100-0.100,1.0,217.0,,,,,,,[],,,,,,56.4,0.0,u,0.0,True,1739.6000000000931,105.0,60.0,40.0,False,,277.0175663408861,[],"[640, 512]",ColorTask,133.0,101.0,,,HRV,HRV_0220,2022-11-30 20:00:51
,wl-rdm,218,615942,0.0-8.101-0.101,1.0,218.0,,,,,,,[],,,,,,62.5,1.0,i,1.0,True,1139.6999999997206,69.0,60.0,40.0,False,,304.903715722491,[],"[640, 512]",ColorTask,134.0,102.0,,,HRV,HRV_0220,2022-11-30 20:00:51
,wl-rdm,219,618261,0.0-8.102-0.102,1.0,219.0,,,,,,,[],,,,,,73.6,1.0,i,1.0,True,1040.8000000002794,63.0,60.0,40.0,False,,201.09761504330376,[],"[640, 512]",ColorTask,135.0,103.0,,,HRV,HRV_0220,2022-11-30 20:00:51
,wl-rdm,220,620380,0.0-8.103-0.103,1.0,220.0,,,,,,,[],,,,,,87.9,0.0,u,0.0,True,707.5999999996275,43.0,60.0,40.0,False,,335.59237839470313,[],"[640, 512]",ColorTask,136.0,104.0,,,HRV,HRV_0220,2022-11-30 20:00:51
,wl-rdm,221,622916,0.0-8.104-0.104,1.0,221.0,,,,,,,[],,,,,,53.2,0.0,i,1.0,False,1166.6000000000931,70.0,60.0,40.0,False,,312.1369280291368,[],"[640, 512]",ColorTask,135.0,105.0,,,HRV,HRV_0220,2022-11-30 20:00:51
,wl-rdm,222,625752,0.0-8.105-0.105,1.0,222.0,,,,,,,[],,,,,,50.0,1.0,u,0.0,False,1402.1999999997206,85.0,60.0,40.0,False,,364.03730644765915,[],"[640, 512]",ColorTask,134.0,106.0,,,HRV,HRV_0220,2022-11-30 20:00:51
,wl-rdm,223,627653,0.0-8.106-0.106,1.0,223.0,,,,,,,[],,,,,,87.9,1.0,i,1.0,True,572.8999999999069,35.0,60.0,40.0,False,,260.9335383208806,[],"[640, 512]",ColorTask,135.0,107.0,,,HRV,HRV_0220,2022-11-30 20:00:51
,wl-rdm,224,630407,0.0-8.107-0.107,1.0,224.0,,,,,,,[],,,,,,50.0,1.0,i,1.0,True,1472.8000000002794,89.0,60.0,40.0,False,,205.0565328774819,[],"[640, 512]",ColorTask,136.0,108.0,,,HRV,HRV_0220,2022-11-30 20:00:51
,wl-html-button-response,225,632790,0.0-9.0-0.0,,,,,,,,,,2376.2999999998137,,0,,,,,,,,,,,,,,,,,,,,<h3>End of this session. Thank you!</h3><br>,['Close window'],HRV,HRV_0220,2022-11-30 20:00:51
