success,trial_type,trial_index,time_elapsed,internal_node_id,Block,TrialNumber,TrialTime,trialTimeDiff,FPS_avg,FPS_med,FPS_mode,TrialDur,winResizeTime,rt,block,button_pressed,MotCoh,MotDir,ColCoh,Color,ChoiceKey,Choice,Accuracy,RT,nFrames,FPS,PPD,missTrial,missTrialMsg,onsetDelay,fullScreenExitTime,canvCenter,TrialType,Score,BlockTrial,stimulus,button_labels,exp,subjectId,date
True,fullscreen,0,2096,0.0-0.0,0.0,1.0,,,,,,,,,,,,,,,,,,,,,,,,,,,,,,,,HRV,HRV_0137,2022-11-30 18:22:31
,wl-check-fps,1,7005,0.0-1.0,0.0,2.0,"[2713.9, 2714.9, 2726.1, 2744.2, 2762.5, 2786.8, 2805.2, 2825.3, 2842.1, 2858.3, 2874.7, 2890.6, 2906.7, 2922.8, 2939.9, 2956, 2972.1, 2988.2, 3004.4, 3020.6, 3036.7, 3052.8, 3068.9, 3085, 3101.2, 3117.5, 3133.6, 3149.7, 3166.2, 3182.5, 3198.8, 3214.8, 3231, 3247, 3263.1, 3279.3, 3296.4, 3312.4, 3328.4, 3344.5, 3360.6, 3376.7, 3406.6, 3423.7, 3440.4, 3457.6, 3475.1, 3492, 3509.5, 3526.7, 3544.2, 3547.2, 3562, 3582.5, 3599.4, 3616, 3633.1, 3649.2, 3665.3, 3681.6, 3698.2, 3714.8, 3731.5, 3747.8, 3764.3, 3780.6, 3797.5, 3814.4, 3831.6, 3848, 3864.2, 3880.4, 3896.5, 3912.5, 3928.7, 3944.8, 3961, 3977.3, 3993.5, 4009.8, 4026.1, 4042.2, 4058.5, 4074.5, 4090.7, 4106.9, 4123.1, 4139.2, 4154.8, 4171, 4187.2, 4203.6, 4220.1, 4236.2, 4251.8, 4268.7, 4285.6, 4302.1, 4321.5, 4338.7, 4354.5, 4370.4, 4386.2, 4402.1, 4418.6, 4435.2, 4451.6, 4468.5, 4485.2, 4502.5, 4519.3, 4536.2, 4553.5, 4570.2, 4586.9, 4603.7, 4620.2, 4648.9, 4665, 4682, 4698.1, 4714.3, 4730.4, 4746.5, 4762.6, 4778.7, 4794.9, 4811.2, 4827, 4842.7, 4859, 4874.9, 4890.9, 4906.8, 4922.5, 4938.4, 4954.1, 4983, 4998.9, 5014.9, 5030.9, 5047, 5062.9, 5078.9, 5094.9, 5111.1, 5127.2, 5143.1, 5159.2, 5175.1, 5191.3, 5207.5, 5223.5, 5239.5, 5255.4, 5271.6, 5287.7, 5290.9, 5305.1, 5322.4, 5339.7, 5355.9, 5372.1, 5388.2, 5404.3, 5421.5, 5438.2, 5454.8, 5472.4, 5488.9, 5506.6, 5523.4, 5539.9, 5556.7, 5573.3, 5590.1, 5606.7, 5622.9, 5638.9, 5654.9, 5670.7, 5686.5, 5702.3, 5718.3, 5734.2, 5750.1, 5766.2, 5781.8, 5797.7, 5813.7, 5829, 5845, 5860.9, 5876.8, 5892.7, 5908.5, 5924.5, 5940.2, 5956, 5971.8, 5987.9, 6003.6, 6019.6, 6034.8, 6050.9, 6066.9, 6082.4, 6098.1, 6114.3, 6130.3, 6146.3, 6162.1, 6178, 6194.2, 6210.2, 6226.1, 6241.9, 6257.8, 6273.6, 6289.5, 6305.5, 6321.5, 6350.5, 6366.7, 6382.8, 6399, 6415.4, 6432.6, 6450.4, 6467.5, 6484.8, 6501.8, 6519.2, 6536.1, 6553.2, 6570.4, 6587.5, 6604.4, 6622.1, 6625.9, 6639.6, 6659.8, 6676.5, 6693.3, 6710.1, 6727.3, 6743.1, 6759.5, 6775.6, 6791.6, 6807.9, 6823.9, 6840.2, 6856.6, 6872.4, 6889.4, 6905.6, 6921.8, 6938.1, 6953.9, 6969.9, 6985.8, 7001.9, 7017.8, 7033.9, 7049.8, 7065.7, 7081.5, 7097.3, 7113, 7128.9, 7144.8, 7160.5, 7176.4, 7192.7, 7208.8, 7224.6, 7240.4, 7256.2, 7272, 7287.8, 7303.6, 7319.6, 7335.4, 7351.2, 7367.1, 7383, 7399.5, 7415.9, 7432, 7448.7, 7465.3, 7482, 7499.4, 7516.4, 7534, 7550.5, 7567.1, 7583.7, 7601.1]","[3.5, 1, 11.2, 18.1, 18.3, 24.3, 18.4, 20.1, 16.8, 16.2, 16.4, 15.9, 16.1, 16.1, 17.1, 16.1, 16.1, 16.1, 16.2, 16.2, 16.1, 16.1, 16.1, 16.1, 16.2, 16.3, 16.1, 16.1, 16.5, 16.3, 16.3, 16, 16.2, 16, 16.1, 16.2, 17.1, 16, 16, 16.1, 16.1, 16.1, 29.9, 17.1, 16.7, 17.2, 17.5, 16.9, 17.5, 17.2, 17.5, 3, 14.8, 20.5, 16.9, 16.6, 17.1, 16.1, 16.1, 16.3, 16.6, 16.6, 16.7, 16.3, 16.5, 16.3, 16.9, 16.9, 17.2, 16.4, 16.2, 16.2, 16.1, 16, 16.2, 16.1, 16.2, 16.3, 16.2, 16.3, 16.3, 16.1, 16.3, 16, 16.2, 16.2, 16.2, 16.1, 15.6, 16.2, 16.2, 16.4, 16.5, 16.1, 15.6, 16.9, 16.9, 16.5, 19.4, 17.2, 15.8, 15.9, 15.8, 15.9, 16.5, 16.6, 16.4, 16.9, 16.7, 17.3, 16.8, 16.9, 17.3, 16.7, 16.7, 16.8, 16.5, 28.7, 16.1, 17, 16.1, 16.2, 16.1, 16.1, 16.1, 16.1, 16.2, 16.3, 15.8, 15.7, 16.3, 15.9, 16, 15.9, 15.7, 15.9, 15.7, 28.9, 15.9, 16, 16, 16.1, 15.9, 16, 16, 16.2, 16.1, 15.9, 16.1, 15.9, 16.2, 16.2, 16, 16, 15.9, 16.2, 16.1, 3.2, 14.2, 17.3, 17.3, 16.2, 16.2, 16.1, 16.1, 17.2, 16.7, 16.6, 17.6, 16.5, 17.7, 16.8, 16.5, 16.8, 16.6, 16.8, 16.6, 16.2, 16, 16, 15.8, 15.8, 15.8, 16, 15.9, 15.9, 16.1, 15.6, 15.9, 16, 15.3, 16, 15.9, 15.9, 15.9, 15.8, 16, 15.7, 15.8, 15.8, 16.1, 15.7, 16, 15.2, 16.1, 16, 15.5, 15.7, 16.2, 16, 16, 15.8, 15.9, 16.2, 16, 15.9, 15.8, 15.9, 15.8, 15.9, 16, 16, 29, 16.2, 16.1, 16.2, 16.4, 17.2, 17.8, 17.1, 17.3, 17, 17.4, 16.9, 17.1, 17.2, 17.1, 16.9, 17.7, 3.8, 13.7, 20.2, 16.7, 16.8, 16.8, 17.2, 15.8, 16.4, 16.1, 16, 16.3, 16, 16.3, 16.4, 15.8, 17, 16.2, 16.2, 16.3, 15.8, 16, 15.9, 16.1, 15.9, 16.1, 15.9, 15.9, 15.8, 15.8, 15.7, 15.9, 15.9, 15.7, 15.9, 16.3, 16.1, 15.8, 15.8, 15.8, 15.8, 15.8, 15.8, 16, 15.8, 15.8, 15.9, 15.9, 16.5, 16.4, 16.1, 16.7, 16.6, 16.7, 17.4, 17, 17.6, 16.5, 16.6, 16.6, 17.4]",61.0,62.0,62.0,4907.2,[],,,,,,,,,,,,,,,,,,,,,,,,,HRV,HRV_0137,2022-11-30 18:22:31
,wl-html-keyboard-response,2,25437,0.0-2.0-0.0,0.0,3.0,,,,,,,,16422.699999999255,0.0,0,,,,,,,,,,,,,,,,,,,,,,HRV,HRV_0137,2022-11-30 18:22:31
,wl-rdm,3,33515,0.0-3.0-0.0,0.0,4.0,,,,,,,[],,,,0.0,0.0,87.9,0.0,u,0.0,True,2516.400000002235,156.0,62.0,40.0,False,,3000.0,[],"[960, 540]",ColorTask_Demo,,,,,HRV,HRV_0137,2022-11-30 18:22:31
,wl-rdm,4,38611,0.0-3.0-1.0,0.0,5.0,,,,,,,[],,,,0.0,0.0,87.9,1.0,i,1.0,True,1036.9000000022352,63.0,62.0,40.0,False,,2000.0,[],"[960, 540]",ColorTask_Demo,,,,,HRV,HRV_0137,2022-11-30 18:22:31
,wl-html-keyboard-response,5,44054,0.0-3.0-2.0,0.0,6.0,,,,,,,,3440.60000000149,0.0,1,,,,,,,,,,,,,,,,,,,,,,HRV,HRV_0137,2022-11-30 18:22:31
,wl-html-keyboard-response,6,53381,0.0-4.0-0.0,0.0,7.0,,,,,,,,7325.900000002235,0.0,0,,,,,,,,,,,,,,,,,,,,,,HRV,HRV_0137,2022-11-30 18:22:31
,wl-html-keyboard-response,7,65613,0.0-5.0-0.0,0.0,8.0,,,,,,,,10229.400000002235,0.0,0,,,,,,,,,,,,,,,,,,,,,,HRV,HRV_0137,2022-11-30 18:22:31
,wl-rdm,8,67934,0.0-6.0-0.0,0.0,9.0,,,,,,,[],,,,,,53.2,0.0,i,1.0,False,993.8000000007451,61.0,62.0,40.0,False,,246.90271644333203,[],"[960, 540]",ColorTask,-1.0,1.0,,,HRV,HRV_0137,2022-11-30 18:22:31
,wl-rdm,9,70085,0.0-6.1-0.1,0.0,10.0,,,,,,,[],,,,,,62.5,1.0,i,1.0,True,808.4000000022352,51.0,62.0,40.0,False,,284.81362109833,[],"[960, 540]",ColorTask,0.0,2.0,,,HRV,HRV_0137,2022-11-30 18:22:31
,wl-rdm,10,72376,0.0-6.2-0.2,0.0,11.0,,,,,,,[],,,,,,53.2,0.0,i,1.0,False,1016.1000000014901,64.0,62.0,40.0,False,,200.2162347865691,[],"[960, 540]",ColorTask,-1.0,3.0,,,HRV,HRV_0137,2022-11-30 18:22:31
,wl-rdm,11,74502,0.0-6.3-0.3,0.0,12.0,,,,,,,[],,,,,,73.6,0.0,i,1.0,False,837.4000000022352,52.0,62.0,40.0,False,,215.51321812033024,[],"[960, 540]",ColorTask,-2.0,4.0,,,HRV,HRV_0137,2022-11-30 18:22:31
,wl-rdm,12,76976,0.0-6.4-0.4,0.0,13.0,,,,,,,[],,,,,,53.2,1.0,i,1.0,True,1103.3999999985099,68.0,62.0,40.0,False,,291.3082616321053,[],"[960, 540]",ColorTask,-1.0,5.0,,,HRV,HRV_0137,2022-11-30 18:22:31
,wl-rdm,13,80197,0.0-6.5-0.5,0.0,14.0,,,,,,,[],,,,,,50.0,0.0,i,1.0,False,1783.5,111.0,62.0,40.0,False,,383.47951707962216,[],"[960, 540]",ColorTask,-2.0,6.0,,,HRV,HRV_0137,2022-11-30 18:22:31
,wl-rdm,14,82540,0.0-6.6-0.6,0.0,15.0,,,,,,,[],,,,,,87.9,1.0,i,1.0,True,963.1999999992549,60.0,62.0,40.0,False,,309.9945454290784,[],"[960, 540]",ColorTask,-1.0,7.0,,,HRV,HRV_0137,2022-11-30 18:22:31
,wl-rdm,15,85008,0.0-6.7-0.7,0.0,16.0,,,,,,,[],,,,,,50.0,0.0,u,0.0,True,1093.800000000745,68.0,62.0,40.0,False,,296.5272971245794,[],"[960, 540]",ColorTask,0.0,8.0,,,HRV,HRV_0137,2022-11-30 18:22:31
,wl-rdm,16,87345,0.0-6.8-0.8,0.0,17.0,,,,,,,[],,,,,,50.0,0.0,i,1.0,False,1072.0,67.0,62.0,40.0,False,,203.70708777758708,[],"[960, 540]",ColorTask,-1.0,9.0,,,HRV,HRV_0137,2022-11-30 18:22:31
,wl-rdm,17,89554,0.0-6.9-0.9,0.0,18.0,,,,,,,[],,,,,,73.6,1.0,i,1.0,True,827.5,52.0,62.0,40.0,False,,319.75873284008776,[],"[960, 540]",ColorTask,0.0,10.0,,,HRV,HRV_0137,2022-11-30 18:22:31
,wl-rdm,18,91867,0.0-6.10-0.10,0.0,19.0,,,,,,,[],,,,,,56.4,0.0,u,0.0,True,912.4000000022352,56.0,62.0,40.0,False,,341.78449717287106,[],"[960, 540]",ColorTask,1.0,11.0,,,HRV,HRV_0137,2022-11-30 18:22:31
,wl-rdm,19,94001,0.0-6.11-0.11,0.0,20.0,,,,,,,[],,,,,,73.6,1.0,i,1.0,True,804.2000000029802,50.0,62.0,40.0,False,,259.5260948052056,[],"[960, 540]",ColorTask,2.0,12.0,,,HRV,HRV_0137,2022-11-30 18:22:31
,wl-rdm,20,96102,0.0-6.12-0.12,0.0,21.0,,,,,,,[],,,,,,87.9,1.0,i,1.0,True,721.0999999977648,45.0,62.0,40.0,False,,318.21726335177766,[],"[960, 540]",ColorTask,3.0,13.0,,,HRV,HRV_0137,2022-11-30 18:22:31
,wl-rdm,21,98169,0.0-6.13-0.13,0.0,22.0,,,,,,,[],,,,,,62.5,0.0,u,0.0,True,786.3000000007451,49.0,62.0,40.0,False,,209.65976813460244,[],"[960, 540]",ColorTask,4.0,14.0,,,HRV,HRV_0137,2022-11-30 18:22:31
,wl-rdm,22,100542,0.0-6.14-0.14,0.0,23.0,,,,,,,[],,,,,,56.4,1.0,u,0.0,False,1052.0,65.0,62.0,40.0,False,,264.1705083637428,[],"[960, 540]",ColorTask,3.0,15.0,,,HRV,HRV_0137,2022-11-30 18:22:31
,wl-rdm,23,103067,0.0-6.15-0.15,0.0,24.0,,,,,,,[],,,,,,50.0,1.0,u,0.0,False,1160.4000000022352,72.0,62.0,40.0,False,,301.926701646512,[],"[960, 540]",ColorTask,2.0,16.0,,,HRV,HRV_0137,2022-11-30 18:22:31
,wl-rdm,24,105673,0.0-6.16-0.16,0.0,25.0,,,,,,,[],,,,,,73.6,0.0,u,0.0,True,1311.5,81.0,62.0,40.0,False,,238.78104492610277,[],"[960, 540]",ColorTask,3.0,17.0,,,HRV,HRV_0137,2022-11-30 18:22:31
,wl-rdm,25,108327,0.0-6.17-0.17,0.0,26.0,,,,,,,[],,,,,,53.2,0.0,i,1.0,False,1351.199999999255,84.0,62.0,40.0,False,,235.97973136697965,[],"[960, 540]",ColorTask,2.0,18.0,,,HRV,HRV_0137,2022-11-30 18:22:31
,wl-rdm,26,110417,0.0-6.18-0.18,0.0,27.0,,,,,,,[],,,,,,50.0,0.0,i,1.0,False,807.0999999977648,51.0,62.0,40.0,False,,224.91848312092094,[],"[960, 540]",ColorTask,1.0,19.0,,,HRV,HRV_0137,2022-11-30 18:22:31
,wl-rdm,27,113019,0.0-6.19-0.19,0.0,28.0,,,,,,,[],,,,,,56.4,1.0,i,1.0,True,1210.0,74.0,62.0,40.0,False,,327.3273940208632,[],"[960, 540]",ColorTask,2.0,20.0,,,HRV,HRV_0137,2022-11-30 18:22:31
,wl-rdm,28,115361,0.0-6.20-0.20,0.0,29.0,,,,,,,[],,,,,,50.0,0.0,i,1.0,False,967.5,60.0,62.0,40.0,False,,300.4072052744659,[],"[960, 540]",ColorTask,1.0,21.0,,,HRV,HRV_0137,2022-11-30 18:22:31
,wl-rdm,29,118668,0.0-6.21-0.21,0.0,30.0,,,,,,,[],,,,,,53.2,0.0,u,0.0,True,2031.0,124.0,62.0,40.0,False,,211.84023660109784,[],"[960, 540]",ColorTask,2.0,22.0,,,HRV,HRV_0137,2022-11-30 18:22:31
,wl-rdm,30,121269,0.0-6.22-0.22,0.0,31.0,,,,,,,[],,,,,,62.5,1.0,i,1.0,True,1293.5000000037253,80.0,62.0,40.0,False,,222.75596644916058,[],"[960, 540]",ColorTask,3.0,23.0,,,HRV,HRV_0137,2022-11-30 18:22:31
,wl-rdm,31,124251,0.0-6.23-0.23,0.0,32.0,,,,,,,[],,,,,,56.4,0.0,u,0.0,True,1711.0,105.0,62.0,40.0,False,,221.05495255472033,[],"[960, 540]",ColorTask,4.0,24.0,,,HRV,HRV_0137,2022-11-30 18:22:31
,wl-rdm,32,127278,0.0-6.24-0.24,0.0,33.0,,,,,,,[],,,,,,56.4,0.0,i,1.0,False,1656.7000000029802,103.0,62.0,40.0,False,,311.87978033500457,[],"[960, 540]",ColorTask,3.0,25.0,,,HRV,HRV_0137,2022-11-30 18:22:31
,wl-rdm,33,130379,0.0-6.25-0.25,0.0,34.0,,,,,,,[],,,,,,50.0,0.0,i,1.0,False,1643.5,102.0,62.0,40.0,False,,380.558275313492,[],"[960, 540]",ColorTask,2.0,26.0,,,HRV,HRV_0137,2022-11-30 18:22:31
,wl-rdm,34,133625,0.0-6.26-0.26,0.0,35.0,,,,,,,[],,,,,,53.2,0.0,i,1.0,False,1835.7000000029802,114.0,62.0,40.0,False,,334.3303582690646,[],"[960, 540]",ColorTask,1.0,27.0,,,HRV,HRV_0137,2022-11-30 18:22:31
,wl-rdm,35,136983,0.0-6.27-0.27,0.0,36.0,,,,,,,[],,,,,,50.0,1.0,u,0.0,False,2014.0999999977648,125.0,62.0,40.0,False,,285.5933095776903,[],"[960, 540]",ColorTask,0.0,28.0,,,HRV,HRV_0137,2022-11-30 18:22:31
,wl-rdm,36,139478,0.0-6.28-0.28,0.0,37.0,,,,,,,[],,,,,,62.5,1.0,i,1.0,True,1188.0,74.0,62.0,40.0,False,,239.12232594006753,[],"[960, 540]",ColorTask,1.0,29.0,,,HRV,HRV_0137,2022-11-30 18:22:31
,wl-rdm,37,141875,0.0-6.29-0.29,0.0,38.0,,,,,,,[],,,,,,62.5,1.0,i,1.0,True,1013.1000000014901,62.0,62.0,40.0,False,,313.90586680125193,[],"[960, 540]",ColorTask,2.0,30.0,,,HRV,HRV_0137,2022-11-30 18:22:31
,wl-rdm,38,145466,0.0-6.30-0.30,0.0,39.0,,,,,,,[],,,,,,53.2,0.0,i,1.0,False,2258.800000000745,139.0,62.0,40.0,False,,257.42180162497624,[],"[960, 540]",ColorTask,1.0,31.0,,,HRV,HRV_0137,2022-11-30 18:22:31
,wl-rdm,39,147945,0.0-6.31-0.31,0.0,40.0,,,,,,,[],,,,,,87.9,0.0,u,0.0,True,1185.3999999985099,74.0,62.0,40.0,False,,223.38346918128855,[],"[960, 540]",ColorTask,2.0,32.0,,,HRV,HRV_0137,2022-11-30 18:22:31
,wl-rdm,40,150279,0.0-6.32-0.32,0.0,41.0,,,,,,,[],,,,,,56.4,1.0,i,1.0,True,1038.5999999977648,65.0,62.0,40.0,False,,213.05198317436705,[],"[960, 540]",ColorTask,3.0,33.0,,,HRV,HRV_0137,2022-11-30 18:22:31
,wl-rdm,41,153018,0.0-6.33-0.33,0.0,42.0,,,,,,,[],,,,,,53.2,1.0,i,1.0,True,1436.5,88.0,62.0,40.0,False,,244.73630879754543,[],"[960, 540]",ColorTask,4.0,34.0,,,HRV,HRV_0137,2022-11-30 18:22:31
,wl-rdm,42,155953,0.0-6.34-0.34,0.0,43.0,,,,,,,[],,,,,,56.4,1.0,i,1.0,True,1485.8999999985099,92.0,62.0,40.0,False,,397.2363841417083,[],"[960, 540]",ColorTask,5.0,35.0,,,HRV,HRV_0137,2022-11-30 18:22:31
,wl-rdm,43,158345,0.0-6.35-0.35,0.0,44.0,,,,,,,[],,,,,,73.6,0.0,u,0.0,True,1072.699999999255,66.0,62.0,40.0,False,,239.83588262156988,[],"[960, 540]",ColorTask,6.0,36.0,,,HRV,HRV_0137,2022-11-30 18:22:31
,wl-rdm,44,160668,0.0-6.36-0.36,0.0,45.0,,,,,,,[],,,,,,62.5,0.0,u,0.0,True,1047.1000000014901,65.0,62.0,40.0,False,,202.98731536032727,[],"[960, 540]",ColorTask,7.0,37.0,,,HRV,HRV_0137,2022-11-30 18:22:31
,wl-rdm,45,162904,0.0-6.37-0.37,0.0,46.0,,,,,,,[],,,,,,62.5,1.0,i,1.0,True,858.5999999977648,54.0,62.0,40.0,False,,299.98751942261765,[],"[960, 540]",ColorTask,8.0,38.0,,,HRV,HRV_0137,2022-11-30 18:22:31
,wl-rdm,46,165176,0.0-6.38-0.38,0.0,47.0,,,,,,,[],,,,,,73.6,1.0,i,1.0,True,878.6999999992549,54.0,62.0,40.0,False,,322.83447227094,[],"[960, 540]",ColorTask,9.0,39.0,,,HRV,HRV_0137,2022-11-30 18:22:31
,wl-rdm,47,168432,0.0-6.39-0.39,0.0,48.0,,,,,,,[],,,,,,62.5,0.0,u,0.0,True,1977.0999999977648,123.0,62.0,40.0,False,,215.21739360947942,[],"[960, 540]",ColorTask,10.0,40.0,,,HRV,HRV_0137,2022-11-30 18:22:31
,wl-rdm,48,170813,0.0-6.40-0.40,0.0,49.0,,,,,,,[],,,,,,87.9,1.0,i,1.0,True,1061.6000000014901,65.0,62.0,40.0,False,,265.5747069991678,[],"[960, 540]",ColorTask,11.0,41.0,,,HRV,HRV_0137,2022-11-30 18:22:31
,wl-rdm,49,173521,0.0-6.41-0.41,0.0,50.0,,,,,,,[],,,,,,56.4,0.0,u,0.0,True,1322.5,81.0,62.0,40.0,False,,325.76800775006495,[],"[960, 540]",ColorTask,12.0,42.0,,,HRV,HRV_0137,2022-11-30 18:22:31
,wl-rdm,50,176749,0.0-6.42-0.42,0.0,51.0,,,,,,,[],,,,,,50.0,1.0,i,1.0,True,1923.8999999985099,118.0,62.0,40.0,False,,238.64836553173333,[],"[960, 540]",ColorTask,13.0,43.0,,,HRV,HRV_0137,2022-11-30 18:22:31
,wl-rdm,51,179250,0.0-6.43-0.43,0.0,52.0,,,,,,,[],,,,,,73.6,0.0,u,0.0,True,1232.0999999977648,75.0,62.0,40.0,False,,201.87936488060984,[],"[960, 540]",ColorTask,14.0,44.0,,,HRV,HRV_0137,2022-11-30 18:22:31
,wl-rdm,52,181653,0.0-6.44-0.44,0.0,53.0,,,,,,,[],,,,,,87.9,0.0,u,0.0,True,1085.800000000745,68.0,62.0,40.0,False,,235.22417895175684,[],"[960, 540]",ColorTask,15.0,45.0,,,HRV,HRV_0137,2022-11-30 18:22:31
,wl-rdm,53,184739,0.0-6.45-0.45,0.0,54.0,,,,,,,[],,,,,,56.4,0.0,i,1.0,False,1678.800000000745,104.0,62.0,40.0,False,,347.52653405333365,[],"[960, 540]",ColorTask,14.0,46.0,,,HRV,HRV_0137,2022-11-30 18:22:31
,wl-rdm,54,187598,0.0-6.46-0.46,0.0,55.0,,,,,,,[],,,,,,62.5,1.0,i,1.0,True,1487.6000000014901,92.0,62.0,40.0,False,,321.12979229422893,[],"[960, 540]",ColorTask,15.0,47.0,,,HRV,HRV_0137,2022-11-30 18:22:31
,wl-rdm,55,190610,0.0-6.47-0.47,0.0,56.0,,,,,,,[],,,,,,53.2,1.0,i,1.0,True,1613.199999999255,99.0,62.0,40.0,False,,349.399896093636,[],"[960, 540]",ColorTask,16.0,48.0,,,HRV,HRV_0137,2022-11-30 18:22:31
,wl-rdm,56,193821,0.0-6.48-0.48,0.0,57.0,,,,,,,[],,,,,,50.0,1.0,i,1.0,True,1849.5999999977648,114.0,62.0,40.0,False,,278.37500934986065,[],"[960, 540]",ColorTask,17.0,49.0,,,HRV,HRV_0137,2022-11-30 18:22:31
,wl-rdm,57,196547,0.0-6.49-0.49,0.0,58.0,,,,,,,[],,,,,,62.5,0.0,u,0.0,True,1392.9000000022352,87.0,62.0,40.0,False,,257.7163933362771,[],"[960, 540]",ColorTask,18.0,50.0,,,HRV,HRV_0137,2022-11-30 18:22:31
,wl-rdm,58,199161,0.0-6.50-0.50,0.0,59.0,,,,,,,[],,,,,,62.5,1.0,i,1.0,True,1163.8000000044703,73.0,62.0,40.0,False,,374.4038965189169,[],"[960, 540]",ColorTask,19.0,51.0,,,HRV,HRV_0137,2022-11-30 18:22:31
,wl-rdm,59,202258,0.0-6.51-0.51,0.0,60.0,,,,,,,[],,,,,,50.0,1.0,i,1.0,True,1680.199999999255,105.0,62.0,40.0,False,,346.3086552669883,[],"[960, 540]",ColorTask,20.0,52.0,,,HRV,HRV_0137,2022-11-30 18:22:31
,wl-rdm,60,205009,0.0-6.52-0.52,0.0,61.0,,,,,,,[],,,,,,53.2,1.0,i,1.0,True,1454.0999999977648,90.0,62.0,40.0,False,,220.36557415306427,[],"[960, 540]",ColorTask,21.0,53.0,,,HRV,HRV_0137,2022-11-30 18:22:31
,wl-rdm,61,207615,0.0-6.53-0.53,0.0,62.0,,,,,,,[],,,,,,87.9,0.0,u,0.0,True,1302.5,80.0,62.0,40.0,False,,232.82509104249434,[],"[960, 540]",ColorTask,22.0,54.0,,,HRV,HRV_0137,2022-11-30 18:22:31
,wl-rdm,62,209943,0.0-6.54-0.54,0.0,63.0,,,,,,,[],,,,,,87.9,0.0,u,0.0,True,946.5,58.0,62.0,40.0,False,,310.7506003838367,[],"[960, 540]",ColorTask,23.0,55.0,,,HRV,HRV_0137,2022-11-30 18:22:31
,wl-rdm,63,212869,0.0-6.55-0.55,0.0,64.0,,,,,,,[],,,,,,73.6,0.0,i,1.0,False,1544.5999999977648,95.0,62.0,40.0,False,,323.812387523436,[],"[960, 540]",ColorTask,22.0,56.0,,,HRV,HRV_0137,2022-11-30 18:22:31
,wl-rdm,64,215410,0.0-6.56-0.56,0.0,65.0,,,,,,,[],,,,,,62.5,0.0,u,0.0,True,1166.5,73.0,62.0,40.0,False,,315.5303616879093,[],"[960, 540]",ColorTask,23.0,57.0,,,HRV,HRV_0137,2022-11-30 18:22:31
,wl-rdm,65,217938,0.0-6.57-0.57,0.0,66.0,,,,,,,[],,,,,,56.4,1.0,i,1.0,True,1147.2999999970198,70.0,62.0,40.0,False,,311.2480794103045,[],"[960, 540]",ColorTask,24.0,58.0,,,HRV,HRV_0137,2022-11-30 18:22:31
,wl-rdm,66,221359,0.0-6.58-0.58,0.0,67.0,,,,,,,[],,,,,,53.2,1.0,i,1.0,True,2108.199999999255,129.0,62.0,40.0,False,,247.00812448941264,[],"[960, 540]",ColorTask,25.0,59.0,,,HRV,HRV_0137,2022-11-30 18:22:31
,wl-rdm,67,224936,0.0-6.59-0.59,0.0,68.0,,,,,,,[],,,,,,73.6,0.0,u,0.0,True,2126.0,130.0,62.0,40.0,False,,397.1667804939011,[],"[960, 540]",ColorTask,26.0,60.0,,,HRV,HRV_0137,2022-11-30 18:22:31
,wl-rdm,68,228159,0.0-6.60-0.60,0.0,69.0,,,,,,,[],,,,,,73.6,0.0,u,0.0,True,1920.2000000029802,119.0,62.0,40.0,False,,239.94646959498428,[],"[960, 540]",ColorTask,27.0,61.0,,,HRV,HRV_0137,2022-11-30 18:22:31
,wl-rdm,69,230708,0.0-6.61-0.61,0.0,70.0,,,,,,,[],,,,,,56.4,1.0,i,1.0,True,1191.699999999255,73.0,62.0,40.0,False,,278.3882011159184,[],"[960, 540]",ColorTask,28.0,62.0,,,HRV,HRV_0137,2022-11-30 18:22:31
,wl-rdm,70,233449,0.0-6.62-0.62,0.0,71.0,,,,,,,[],,,,,,50.0,1.0,i,1.0,True,1453.0,90.0,62.0,40.0,False,,209.29971486009651,[],"[960, 540]",ColorTask,29.0,63.0,,,HRV,HRV_0137,2022-11-30 18:22:31
,wl-rdm,71,235809,0.0-6.63-0.63,0.0,72.0,,,,,,,[],,,,,,73.6,1.0,i,1.0,True,1021.2000000029802,63.0,62.0,40.0,False,,243.51894016697554,[],"[960, 540]",ColorTask,30.0,64.0,,,HRV,HRV_0137,2022-11-30 18:22:31
,wl-rdm,72,239421,0.0-6.64-0.64,0.0,73.0,,,,,,,[],,,,,,50.0,0.0,i,1.0,False,2327.7000000029802,145.0,62.0,40.0,False,,212.48046691401873,[],"[960, 540]",ColorTask,29.0,65.0,,,HRV,HRV_0137,2022-11-30 18:22:31
,wl-rdm,73,241836,0.0-6.65-0.65,0.0,74.0,,,,,,,[],,,,,,73.6,1.0,i,1.0,True,976.6999999955297,60.0,62.0,40.0,False,,366.77148401719415,[],"[960, 540]",ColorTask,30.0,66.0,,,HRV,HRV_0137,2022-11-30 18:22:31
,wl-rdm,74,244084,0.0-6.66-0.66,0.0,75.0,,,,,,,[],,,,,,87.9,1.0,i,1.0,True,896.8000000007451,55.0,62.0,40.0,False,,285.1349172857799,[],"[960, 540]",ColorTask,31.0,67.0,,,HRV,HRV_0137,2022-11-30 18:22:31
,wl-rdm,75,246748,0.0-6.67-0.67,0.0,76.0,,,,,,,[],,,,,,50.0,1.0,i,1.0,True,1315.0,81.0,62.0,40.0,False,,277.46898254775806,[],"[960, 540]",ColorTask,32.0,68.0,,,HRV,HRV_0137,2022-11-30 18:22:31
,wl-rdm,76,249269,0.0-6.68-0.68,0.0,77.0,,,,,,,[],,,,,,56.4,0.0,u,0.0,True,1149.4000000022352,71.0,62.0,40.0,False,,305.06116437552697,[],"[960, 540]",ColorTask,33.0,69.0,,,HRV,HRV_0137,2022-11-30 18:22:31
,wl-rdm,77,251954,0.0-6.69-0.69,0.0,78.0,,,,,,,[],,,,,,50.0,1.0,i,1.0,True,1292.699999999255,81.0,62.0,40.0,False,,318.60677459337313,[],"[960, 540]",ColorTask,34.0,70.0,,,HRV,HRV_0137,2022-11-30 18:22:31
,wl-rdm,78,254276,0.0-6.70-0.70,0.0,79.0,,,,,,,[],,,,,,56.4,1.0,i,1.0,True,1061.0999999977648,66.0,62.0,40.0,False,,204.7773390390395,[],"[960, 540]",ColorTask,35.0,71.0,,,HRV,HRV_0137,2022-11-30 18:22:31
,wl-rdm,79,256478,0.0-6.71-0.71,0.0,80.0,,,,,,,[],,,,,,56.4,1.0,i,1.0,True,886.3000000007451,55.0,62.0,40.0,False,,247.19754994638916,[],"[960, 540]",ColorTask,36.0,72.0,,,HRV,HRV_0137,2022-11-30 18:22:31
,wl-rdm,80,258939,0.0-6.72-0.72,0.0,81.0,,,,,,,[],,,,,,73.6,1.0,i,1.0,True,1152.300000000745,72.0,62.0,40.0,False,,237.89228020716413,[],"[960, 540]",ColorTask,37.0,73.0,,,HRV,HRV_0137,2022-11-30 18:22:31
,wl-rdm,81,261375,0.0-6.73-0.73,0.0,82.0,,,,,,,[],,,,,,56.4,0.0,u,0.0,True,1088.1000000014901,68.0,62.0,40.0,False,,271.93683567564744,[],"[960, 540]",ColorTask,38.0,74.0,,,HRV,HRV_0137,2022-11-30 18:22:31
,wl-rdm,82,264138,0.0-6.74-0.74,0.0,83.0,,,,,,,[],,,,,,73.6,1.0,i,1.0,True,1480.7999999970198,93.0,62.0,40.0,False,,203.61233583647785,[],"[960, 540]",ColorTask,39.0,75.0,,,HRV,HRV_0137,2022-11-30 18:22:31
,wl-rdm,83,266911,0.0-6.75-0.75,0.0,84.0,,,,,,,[],,,,,,53.2,1.0,i,1.0,True,1430.1000000014901,89.0,62.0,40.0,False,,264.5224067025983,[],"[960, 540]",ColorTask,40.0,76.0,,,HRV,HRV_0137,2022-11-30 18:22:31
,wl-rdm,84,269644,0.0-6.76-0.76,0.0,85.0,,,,,,,[],,,,,,62.5,0.0,u,0.0,True,1314.9000000022352,80.0,62.0,40.0,False,,354.7395879396373,[],"[960, 540]",ColorTask,41.0,77.0,,,HRV,HRV_0137,2022-11-30 18:22:31
,wl-rdm,85,272376,0.0-6.77-0.77,0.0,86.0,,,,,,,[],,,,,,73.6,0.0,u,0.0,True,1380.9000000022352,85.0,62.0,40.0,False,,293.85262186243676,[],"[960, 540]",ColorTask,42.0,78.0,,,HRV,HRV_0137,2022-11-30 18:22:31
,wl-rdm,86,274648,0.0-6.78-0.78,0.0,87.0,,,,,,,[],,,,,,87.9,1.0,i,1.0,True,1010.6000000014901,62.0,62.0,40.0,False,,216.44358189232653,[],"[960, 540]",ColorTask,43.0,79.0,,,HRV,HRV_0137,2022-11-30 18:22:31
,wl-rdm,87,276717,0.0-6.79-0.79,0.0,88.0,,,,,,,[],,,,,,87.9,1.0,i,1.0,True,770.2999999970198,47.0,62.0,40.0,False,,244.73875091515058,[],"[960, 540]",ColorTask,44.0,80.0,,,HRV,HRV_0137,2022-11-30 18:22:31
,wl-rdm,88,279220,0.0-6.80-0.80,0.0,89.0,,,,,,,[],,,,,,62.5,1.0,i,1.0,True,1210.3999999985099,75.0,62.0,40.0,False,,238.44042408469426,[],"[960, 540]",ColorTask,45.0,81.0,,,HRV,HRV_0137,2022-11-30 18:22:31
,wl-rdm,89,282033,0.0-6.81-0.81,0.0,90.0,,,,,,,[],,,,,,56.4,0.0,u,0.0,True,1463.2999999970198,91.0,62.0,40.0,False,,294.70425442523174,[],"[960, 540]",ColorTask,46.0,82.0,,,HRV,HRV_0137,2022-11-30 18:22:31
,wl-rdm,90,284397,0.0-6.82-0.82,0.0,91.0,,,,,,,[],,,,,,62.5,0.0,u,0.0,True,1054.699999999255,64.0,62.0,40.0,False,,249.38126245635004,[],"[960, 540]",ColorTask,47.0,83.0,,,HRV,HRV_0137,2022-11-30 18:22:31
,wl-rdm,91,286519,0.0-6.83-0.83,0.0,92.0,,,,,,,[],,,,,,87.9,1.0,i,1.0,True,807.0,50.0,62.0,40.0,False,,271.4947847392966,[],"[960, 540]",ColorTask,48.0,84.0,,,HRV,HRV_0137,2022-11-30 18:22:31
,wl-rdm,92,289046,0.0-6.84-0.84,0.0,93.0,,,,,,,[],,,,,,87.9,0.0,u,0.0,True,1097.0,67.0,62.0,40.0,False,,356.93897198333553,[],"[960, 540]",ColorTask,49.0,85.0,,,HRV,HRV_0137,2022-11-30 18:22:31
,wl-rdm,93,291196,0.0-6.85-0.85,0.0,94.0,,,,,,,[],,,,,,53.2,0.0,u,0.0,True,882.1000000014901,55.0,62.0,40.0,False,,209.40714269611183,[],"[960, 540]",ColorTask,50.0,86.0,,,HRV,HRV_0137,2022-11-30 18:22:31
,wl-rdm,94,293366,0.0-6.86-0.86,0.0,95.0,,,,,,,[],,,,,,87.9,1.0,i,1.0,True,730.1999999992549,45.0,62.0,40.0,False,,393.1344504110132,[],"[960, 540]",ColorTask,51.0,87.0,,,HRV,HRV_0137,2022-11-30 18:22:31
,wl-rdm,95,295471,0.0-6.87-0.87,0.0,96.0,,,,,,,[],,,,,,53.2,0.0,i,1.0,False,753.8000000007451,47.0,62.0,40.0,False,,294.77613332309835,[],"[960, 540]",ColorTask,50.0,88.0,,,HRV,HRV_0137,2022-11-30 18:22:31
,wl-rdm,96,297649,0.0-6.88-0.88,0.0,97.0,,,,,,,[],,,,,,87.9,1.0,i,1.0,True,866.0,53.0,62.0,40.0,False,,258.8356122835822,[],"[960, 540]",ColorTask,51.0,89.0,,,HRV,HRV_0137,2022-11-30 18:22:31
,wl-rdm,97,300092,0.0-6.89-0.89,0.0,98.0,,,,,,,[],,,,,,56.4,1.0,i,1.0,True,1188.3999999985099,74.0,62.0,40.0,False,,203.1642444117891,[],"[960, 540]",ColorTask,52.0,90.0,,,HRV,HRV_0137,2022-11-30 18:22:31
,wl-rdm,98,302706,0.0-6.90-0.90,0.0,99.0,,,,,,,[],,,,,,50.0,1.0,u,0.0,False,1308.6999999955297,81.0,62.0,40.0,False,,219.52173959681562,[],"[960, 540]",ColorTask,51.0,91.0,,,HRV,HRV_0137,2022-11-30 18:22:31
,wl-rdm,99,304887,0.0-6.91-0.91,0.0,100.0,,,,,,,[],,,,,,87.9,0.0,u,0.0,True,770.6999999992549,48.0,62.0,40.0,False,,339.9318384242328,[],"[960, 540]",ColorTask,52.0,92.0,,,HRV,HRV_0137,2022-11-30 18:22:31
,wl-rdm,100,307647,0.0-6.92-0.92,0.0,101.0,,,,,,,[],,,,,,53.2,1.0,i,1.0,True,1446.300000000745,89.0,62.0,40.0,False,,266.60013487366535,[],"[960, 540]",ColorTask,53.0,93.0,,,HRV,HRV_0137,2022-11-30 18:22:31
,wl-rdm,101,310350,0.0-6.93-0.93,0.0,102.0,,,,,,,[],,,,,,53.2,1.0,i,1.0,True,1349.199999999255,83.0,62.0,40.0,False,,284.94612797675325,[],"[960, 540]",ColorTask,54.0,94.0,,,HRV,HRV_0137,2022-11-30 18:22:31
,wl-rdm,102,312544,0.0-6.94-0.94,0.0,103.0,,,,,,,[],,,,,,73.6,1.0,i,1.0,True,862.6999999992549,54.0,62.0,40.0,False,,279.3852659406683,[],"[960, 540]",ColorTask,55.0,95.0,,,HRV,HRV_0137,2022-11-30 18:22:31
,wl-rdm,103,314733,0.0-6.95-0.95,0.0,104.0,,,,,,,[],,,,,,73.6,1.0,i,1.0,True,752.6999999992549,47.0,62.0,40.0,False,,367.566179013918,[],"[960, 540]",ColorTask,56.0,96.0,,,HRV,HRV_0137,2022-11-30 18:22:31
,wl-rdm,104,317293,0.0-6.96-0.96,0.0,105.0,,,,,,,[],,,,,,62.5,0.0,u,0.0,True,1292.9000000022352,80.0,62.0,40.0,False,,203.9270141671351,[],"[960, 540]",ColorTask,57.0,97.0,,,HRV,HRV_0137,2022-11-30 18:22:31
,wl-rdm,105,320644,0.0-6.97-0.97,0.0,106.0,,,,,,,[],,,,,,62.5,1.0,i,1.0,True,2014.5000000037253,123.0,62.0,40.0,False,,287.3826667138888,[],"[960, 540]",ColorTask,58.0,98.0,,,HRV,HRV_0137,2022-11-30 18:22:31
,wl-rdm,106,323046,0.0-6.98-0.98,0.0,107.0,,,,,,,[],,,,,,87.9,0.0,u,0.0,True,968.8999999985099,60.0,62.0,40.0,False,,356.4037959000086,[],"[960, 540]",ColorTask,59.0,99.0,,,HRV,HRV_0137,2022-11-30 18:22:31
,wl-rdm,107,325770,0.0-6.99-0.99,0.0,108.0,,,,,,,[],,,,,,53.2,0.0,i,1.0,False,1429.8999999985099,87.0,62.0,40.0,False,,230.54215548735243,[],"[960, 540]",ColorTask,58.0,100.0,,,HRV,HRV_0137,2022-11-30 18:22:31
,wl-rdm,108,328648,0.0-6.100-0.100,0.0,109.0,,,,,,,[],,,,,,53.2,1.0,u,0.0,False,1514.300000000745,94.0,62.0,40.0,False,,286.9781169409956,[],"[960, 540]",ColorTask,57.0,101.0,,,HRV,HRV_0137,2022-11-30 18:22:31
,wl-rdm,109,331083,0.0-6.101-0.101,0.0,110.0,,,,,,,[],,,,,,87.9,0.0,u,0.0,True,1088.5,67.0,62.0,40.0,False,,279.8567562073032,[],"[960, 540]",ColorTask,58.0,102.0,,,HRV,HRV_0137,2022-11-30 18:22:31
,wl-rdm,110,333827,0.0-6.102-0.102,0.0,111.0,,,,,,,[],,,,,,56.4,0.0,u,0.0,True,1299.3999999985099,81.0,62.0,40.0,False,,369.4576889397248,[],"[960, 540]",ColorTask,59.0,103.0,,,HRV,HRV_0137,2022-11-30 18:22:31
,wl-rdm,111,337308,0.0-6.103-0.103,0.0,112.0,,,,,,,[],,,,,,50.0,0.0,u,0.0,True,2058.300000000745,127.0,62.0,40.0,False,,371.0537055753989,[],"[960, 540]",ColorTask,60.0,104.0,,,HRV,HRV_0137,2022-11-30 18:22:31
,wl-rdm,112,339685,0.0-6.104-0.104,0.0,113.0,,,,,,,[],,,,,,50.0,0.0,i,1.0,False,1024.3000000044703,64.0,62.0,40.0,False,,287.64892626524073,[],"[960, 540]",ColorTask,59.0,105.0,,,HRV,HRV_0137,2022-11-30 18:22:31
,wl-rdm,113,342084,0.0-6.105-0.105,0.0,114.0,,,,,,,[],,,,,,87.9,0.0,u,0.0,True,964.3000000007451,60.0,62.0,40.0,False,,357.6984983511003,[],"[960, 540]",ColorTask,60.0,106.0,,,HRV,HRV_0137,2022-11-30 18:22:31
,wl-rdm,114,344821,0.0-6.106-0.106,0.0,115.0,,,,,,,[],,,,,,62.5,0.0,u,0.0,True,1408.8000000044703,86.0,62.0,40.0,False,,263.7034584558012,[],"[960, 540]",ColorTask,61.0,107.0,,,HRV,HRV_0137,2022-11-30 18:22:31
,wl-rdm,115,347136,0.0-6.107-0.107,0.0,116.0,,,,,,,[],,,,,,73.6,0.0,u,0.0,True,988.0999999977648,61.0,62.0,40.0,False,,256.6123207374394,[],"[960, 540]",ColorTask,62.0,108.0,,,HRV,HRV_0137,2022-11-30 18:22:31
,wl-html-keyboard-response,116,369261,0.0-7.0-0.0,1.0,117.0,,,,,,,,20123.099999997765,1.0,0,,,,,,,,,,,,,,,,,,,,,,HRV,HRV_0137,2022-11-30 18:22:31
,wl-rdm,117,371582,0.0-8.0-0.0,1.0,118.0,,,,,,,[],,,,,,62.5,1.0,i,1.0,True,934.5,59.0,62.0,40.0,False,,304.04041859272775,[],"[960, 540]",ColorTask,63.0,1.0,,,HRV,HRV_0137,2022-11-30 18:22:31
,wl-rdm,118,373887,0.0-8.1-0.1,1.0,119.0,,,,,,,[],,,,,,50.0,0.0,i,1.0,False,886.4000000022352,56.0,62.0,40.0,False,,352.1933046647665,[],"[960, 540]",ColorTask,62.0,2.0,,,HRV,HRV_0137,2022-11-30 18:22:31
,wl-rdm,119,375947,0.0-8.2-0.2,1.0,120.0,,,,,,,[],,,,,,73.6,0.0,u,0.0,True,752.3000000007451,48.0,62.0,40.0,False,,232.0110570361263,[],"[960, 540]",ColorTask,63.0,3.0,,,HRV,HRV_0137,2022-11-30 18:22:31
,wl-rdm,120,377907,0.0-8.3-0.3,1.0,121.0,,,,,,,[],,,,,,87.9,0.0,u,0.0,True,556.8000000044703,34.0,62.0,40.0,False,,344.1845786486607,[],"[960, 540]",ColorTask,64.0,4.0,,,HRV,HRV_0137,2022-11-30 18:22:31
,wl-rdm,121,379786,0.0-8.4-0.4,1.0,122.0,,,,,,,[],,,,,,50.0,0.0,i,1.0,False,607.8000000007451,38.0,62.0,40.0,False,,207.1535228637767,[],"[960, 540]",ColorTask,63.0,5.0,,,HRV,HRV_0137,2022-11-30 18:22:31
,wl-rdm,122,381984,0.0-8.5-0.5,1.0,123.0,,,,,,,[],,,,,,53.2,1.0,i,1.0,True,831.5,52.0,62.0,40.0,False,,306.9104093529707,[],"[960, 540]",ColorTask,64.0,6.0,,,HRV,HRV_0137,2022-11-30 18:22:31
,wl-rdm,123,384086,0.0-8.6-0.6,1.0,124.0,,,,,,,[],,,,,,56.4,0.0,u,0.0,True,809.4000000022352,50.0,62.0,40.0,False,,225.67613877657487,[],"[960, 540]",ColorTask,65.0,7.0,,,HRV,HRV_0137,2022-11-30 18:22:31
,wl-rdm,124,386144,0.0-8.7-0.7,1.0,125.0,,,,,,,[],,,,,,87.9,1.0,i,1.0,True,650.4000000022352,40.0,62.0,40.0,False,,342.9328943392252,[],"[960, 540]",ColorTask,66.0,8.0,,,HRV,HRV_0137,2022-11-30 18:22:31
,wl-rdm,125,388286,0.0-8.8-0.8,1.0,126.0,,,,,,,[],,,,,,73.6,0.0,u,0.0,True,763.6000000014901,48.0,62.0,40.0,False,,305.38990926366694,[],"[960, 540]",ColorTask,67.0,9.0,,,HRV,HRV_0137,2022-11-30 18:22:31
,wl-rdm,126,390462,0.0-8.9-0.9,1.0,127.0,,,,,,,[],,,,,,50.0,1.0,i,1.0,True,787.2000000029802,48.0,62.0,40.0,False,,324.4421345855554,[],"[960, 540]",ColorTask,68.0,10.0,,,HRV,HRV_0137,2022-11-30 18:22:31
,wl-rdm,127,392896,0.0-8.10-0.10,1.0,128.0,,,,,,,[],,,,,,56.4,0.0,u,0.0,True,1039.0,65.0,62.0,40.0,False,,335.7975945278009,[],"[960, 540]",ColorTask,69.0,11.0,,,HRV,HRV_0137,2022-11-30 18:22:31
,wl-rdm,128,395321,0.0-8.11-0.11,1.0,129.0,,,,,,,[],,,,,,53.2,1.0,i,1.0,True,1114.300000000745,69.0,62.0,40.0,False,,251.12141365183788,[],"[960, 540]",ColorTask,70.0,12.0,,,HRV,HRV_0137,2022-11-30 18:22:31
,wl-rdm,129,397487,0.0-8.12-0.12,1.0,130.0,,,,,,,[],,,,,,62.5,1.0,i,1.0,True,750.8999999985099,46.0,62.0,40.0,False,,347.45732718714225,[],"[960, 540]",ColorTask,71.0,13.0,,,HRV,HRV_0137,2022-11-30 18:22:31
,wl-rdm,130,399531,0.0-8.13-0.13,1.0,131.0,,,,,,,[],,,,,,87.9,1.0,i,1.0,True,767.1999999992549,48.0,62.0,40.0,False,,222.3754457997656,[],"[960, 540]",ColorTask,72.0,14.0,,,HRV,HRV_0137,2022-11-30 18:22:31
,wl-rdm,131,401739,0.0-8.14-0.14,1.0,132.0,,,,,,,[],,,,,,53.2,1.0,i,1.0,True,866.6999999992549,54.0,62.0,40.0,False,,278.01461053486526,[],"[960, 540]",ColorTask,73.0,15.0,,,HRV,HRV_0137,2022-11-30 18:22:31
,wl-rdm,132,403858,0.0-8.15-0.15,1.0,133.0,,,,,,,[],,,,,,87.9,0.0,u,0.0,True,722.0,46.0,62.0,40.0,False,,341.3777780527343,[],"[960, 540]",ColorTask,74.0,16.0,,,HRV,HRV_0137,2022-11-30 18:22:31
,wl-rdm,133,407404,0.0-8.16-0.16,1.0,134.0,,,,,,,[],,,,,,62.5,0.0,u,0.0,True,2229.699999999255,139.0,62.0,40.0,False,,256.25050717648793,[],"[960, 540]",ColorTask,75.0,17.0,,,HRV,HRV_0137,2022-11-30 18:22:31
,wl-rdm,134,410253,0.0-8.17-0.17,1.0,135.0,,,,,,,[],,,,,,73.6,0.0,u,0.0,True,1531.699999999255,94.0,62.0,40.0,False,,247.73451544005607,[],"[960, 540]",ColorTask,76.0,18.0,,,HRV,HRV_0137,2022-11-30 18:22:31
,wl-rdm,135,413666,0.0-8.18-0.18,1.0,136.0,,,,,,,[],,,,,,50.0,1.0,u,0.0,False,2054.800000000745,126.0,62.0,40.0,False,,307.5365314972446,[],"[960, 540]",ColorTask,75.0,19.0,,,HRV,HRV_0137,2022-11-30 18:22:31
,wl-rdm,136,415973,0.0-8.19-0.19,1.0,137.0,,,,,,,[],,,,,,56.4,1.0,i,1.0,True,958.8000000007451,60.0,62.0,40.0,False,,254.68249260346283,[],"[960, 540]",ColorTask,76.0,20.0,,,HRV,HRV_0137,2022-11-30 18:22:31
,wl-rdm,137,418337,0.0-8.20-0.20,1.0,138.0,,,,,,,[],,,,,,73.6,0.0,u,0.0,True,936.0999999977648,59.0,62.0,40.0,False,,341.1698456617248,[],"[960, 540]",ColorTask,77.0,21.0,,,HRV,HRV_0137,2022-11-30 18:22:31
,wl-rdm,138,420435,0.0-8.21-0.21,1.0,139.0,,,,,,,[],,,,,,56.4,0.0,u,0.0,True,762.4000000022352,48.0,62.0,40.0,False,,276.3793803516761,[],"[960, 540]",ColorTask,78.0,22.0,,,HRV,HRV_0137,2022-11-30 18:22:31
,wl-rdm,139,422762,0.0-8.22-0.22,1.0,140.0,,,,,,,[],,,,,,62.5,0.0,i,1.0,False,878.3999999985099,54.0,62.0,40.0,False,,380.5320214325875,[],"[960, 540]",ColorTask,77.0,23.0,,,HRV,HRV_0137,2022-11-30 18:22:31
,wl-rdm,140,425417,0.0-8.23-0.23,1.0,141.0,,,,,,,[],,,,,,50.0,1.0,i,1.0,True,1256.0,78.0,62.0,40.0,False,,331.4477584369444,[],"[960, 540]",ColorTask,78.0,24.0,,,HRV,HRV_0137,2022-11-30 18:22:31
,wl-rdm,141,427399,0.0-8.24-0.24,1.0,142.0,,,,,,,[],,,,,,73.6,1.0,i,1.0,True,682.1999999992549,42.0,62.0,40.0,False,,237.32434456917923,[],"[960, 540]",ColorTask,79.0,25.0,,,HRV,HRV_0137,2022-11-30 18:22:31
,wl-rdm,142,429449,0.0-8.25-0.25,1.0,143.0,,,,,,,[],,,,,,50.0,0.0,i,1.0,False,750.0,47.0,62.0,40.0,False,,237.96784200953908,[],"[960, 540]",ColorTask,78.0,26.0,,,HRV,HRV_0137,2022-11-30 18:22:31
,wl-rdm,143,431541,0.0-8.26-0.26,1.0,144.0,,,,,,,[],,,,,,73.6,1.0,i,1.0,True,802.3000000007451,50.0,62.0,40.0,False,,230.83768319255833,[],"[960, 540]",ColorTask,79.0,27.0,,,HRV,HRV_0137,2022-11-30 18:22:31
,wl-rdm,144,434549,0.0-8.27-0.27,1.0,145.0,,,,,,,[],,,,,,50.0,1.0,u,0.0,False,1683.1000000014901,104.0,62.0,40.0,False,,248.7453890840846,[],"[960, 540]",ColorTask,78.0,28.0,,,HRV,HRV_0137,2022-11-30 18:22:31
,wl-rdm,145,436738,0.0-8.28-0.28,1.0,146.0,,,,,,,[],,,,,,87.9,1.0,i,1.0,True,817.4000000022352,50.0,62.0,40.0,False,,293.2161033484907,[],"[960, 540]",ColorTask,79.0,29.0,,,HRV,HRV_0137,2022-11-30 18:22:31
,wl-rdm,146,439153,0.0-8.29-0.29,1.0,147.0,,,,,,,[],,,,,,50.0,1.0,u,0.0,False,1081.699999999255,67.0,62.0,40.0,False,,269.02636917385524,[],"[960, 540]",ColorTask,78.0,30.0,,,HRV,HRV_0137,2022-11-30 18:22:31
,wl-rdm,147,441807,0.0-8.30-0.30,1.0,148.0,,,,,,,[],,,,,,56.4,1.0,i,1.0,True,1345.3999999985099,84.0,62.0,40.0,False,,240.30799930736558,[],"[960, 540]",ColorTask,79.0,31.0,,,HRV,HRV_0137,2022-11-30 18:22:31
,wl-rdm,148,444880,0.0-8.31-0.31,1.0,149.0,,,,,,,[],,,,,,62.5,0.0,i,1.0,False,1684.6000000014901,104.0,62.0,40.0,False,,314.5264967135512,[],"[960, 540]",ColorTask,78.0,32.0,,,HRV,HRV_0137,2022-11-30 18:22:31
,wl-rdm,149,446874,0.0-8.32-0.32,1.0,150.0,,,,,,,[],,,,,,87.9,1.0,i,1.0,True,728.5,46.0,62.0,40.0,False,,200.5965447208825,[],"[960, 540]",ColorTask,79.0,33.0,,,HRV,HRV_0137,2022-11-30 18:22:31
,wl-rdm,150,450289,0.0-8.33-0.33,1.0,151.0,,,,,,,[],,,,,,56.4,1.0,i,1.0,True,2141.199999999255,134.0,62.0,40.0,False,,205.95660431344922,[],"[960, 540]",ColorTask,80.0,34.0,,,HRV,HRV_0137,2022-11-30 18:22:31
,wl-rdm,151,453128,0.0-8.34-0.34,1.0,152.0,,,,,,,[],,,,,,53.2,1.0,u,0.0,False,1541.0999999977648,96.0,62.0,40.0,False,,230.86875512275645,[],"[960, 540]",ColorTask,79.0,35.0,,,HRV,HRV_0137,2022-11-30 18:22:31
,wl-rdm,152,455395,0.0-8.35-0.35,1.0,153.0,,,,,,,[],,,,,,50.0,1.0,u,0.0,False,982.4000000022352,60.0,62.0,40.0,False,,228.49802775008357,[],"[960, 540]",ColorTask,78.0,36.0,,,HRV,HRV_0137,2022-11-30 18:22:31
,wl-rdm,153,458165,0.0-8.36-0.36,1.0,154.0,,,,,,,[],,,,,,53.2,1.0,u,0.0,False,1440.5,88.0,62.0,40.0,False,,245.21673751810198,[],"[960, 540]",ColorTask,77.0,37.0,,,HRV,HRV_0137,2022-11-30 18:22:31
,wl-rdm,154,460382,0.0-8.37-0.37,1.0,155.0,,,,,,,[],,,,,,62.5,1.0,i,1.0,True,921.9000000022352,57.0,62.0,40.0,False,,230.03911272652152,[],"[960, 540]",ColorTask,78.0,38.0,,,HRV,HRV_0137,2022-11-30 18:22:31
,wl-rdm,155,462984,0.0-8.38-0.38,1.0,156.0,,,,,,,[],,,,,,56.4,0.0,i,1.0,False,1198.1000000014901,74.0,62.0,40.0,False,,346.54242953598083,[],"[960, 540]",ColorTask,77.0,39.0,,,HRV,HRV_0137,2022-11-30 18:22:31
,wl-rdm,156,465286,0.0-8.39-0.39,1.0,157.0,,,,,,,[],,,,,,56.4,1.0,i,1.0,True,924.1999999992549,57.0,62.0,40.0,False,,309.71384021836934,[],"[960, 540]",ColorTask,78.0,40.0,,,HRV,HRV_0137,2022-11-30 18:22:31
,wl-rdm,157,467561,0.0-8.40-0.40,1.0,158.0,,,,,,,[],,,,,,73.6,0.0,u,0.0,True,830.3000000007451,52.0,62.0,40.0,False,,377.4516309732643,[],"[960, 540]",ColorTask,79.0,41.0,,,HRV,HRV_0137,2022-11-30 18:22:31
,wl-rdm,158,470380,0.0-8.41-0.41,1.0,159.0,,,,,,,[],,,,,,50.0,0.0,i,1.0,False,1552.0,96.0,62.0,40.0,False,,219.00264129336662,[],"[960, 540]",ColorTask,78.0,42.0,,,HRV,HRV_0137,2022-11-30 18:22:31
,wl-rdm,159,472538,0.0-8.42-0.42,1.0,160.0,,,,,,,[],,,,,,87.9,0.0,u,0.0,True,797.0,49.0,62.0,40.0,False,,300.4169490390819,[],"[960, 540]",ColorTask,79.0,43.0,,,HRV,HRV_0137,2022-11-30 18:22:31
,wl-rdm,160,475696,0.0-8.43-0.43,1.0,161.0,,,,,,,[],,,,,,62.5,1.0,i,1.0,True,1763.800000000745,108.0,62.0,40.0,False,,324.1350597505187,[],"[960, 540]",ColorTask,80.0,44.0,,,HRV,HRV_0137,2022-11-30 18:22:31
,wl-rdm,161,477849,0.0-8.44-0.44,1.0,162.0,,,,,,,[],,,,,,56.4,1.0,i,1.0,True,886.3000000007451,56.0,62.0,40.0,False,,206.57275488078264,[],"[960, 540]",ColorTask,81.0,45.0,,,HRV,HRV_0137,2022-11-30 18:22:31
,wl-rdm,162,479852,0.0-8.45-0.45,1.0,163.0,,,,,,,[],,,,,,87.9,1.0,i,1.0,True,663.5,42.0,62.0,40.0,False,,273.25861110637163,[],"[960, 540]",ColorTask,82.0,46.0,,,HRV,HRV_0137,2022-11-30 18:22:31
,wl-rdm,163,481853,0.0-8.46-0.46,1.0,164.0,,,,,,,[],,,,,,53.2,0.0,i,1.0,False,714.1000000014901,45.0,62.0,40.0,False,,207.5881691070795,[],"[960, 540]",ColorTask,81.0,47.0,,,HRV,HRV_0137,2022-11-30 18:22:31
,wl-rdm,164,483943,0.0-8.47-0.47,1.0,165.0,,,,,,,[],,,,,,53.2,0.0,i,1.0,False,761.1999999992549,47.0,62.0,40.0,False,,264.6417953144975,[],"[960, 540]",ColorTask,80.0,48.0,,,HRV,HRV_0137,2022-11-30 18:22:31
,wl-rdm,165,486077,0.0-8.48-0.48,1.0,166.0,,,,,,,[],,,,,,53.2,0.0,u,0.0,True,797.1999999992549,50.0,62.0,40.0,False,,271.0380007372021,[],"[960, 540]",ColorTask,81.0,49.0,,,HRV,HRV_0137,2022-11-30 18:22:31
,wl-rdm,166,488646,0.0-8.49-0.49,1.0,167.0,,,,,,,[],,,,,,53.2,1.0,u,0.0,False,1274.699999999255,79.0,62.0,40.0,False,,222.31195330120855,[],"[960, 540]",ColorTask,80.0,50.0,,,HRV,HRV_0137,2022-11-30 18:22:31
,wl-rdm,167,490861,0.0-8.50-0.50,1.0,168.0,,,,,,,[],,,,,,73.6,1.0,i,1.0,True,744.8999999985099,46.0,62.0,40.0,False,,394.87377828626416,[],"[960, 540]",ColorTask,81.0,51.0,,,HRV,HRV_0137,2022-11-30 18:22:31
,wl-rdm,168,492943,0.0-8.51-0.51,1.0,169.0,,,,,,,[],,,,,,73.6,0.0,u,0.0,True,663.7000000029802,41.0,62.0,40.0,False,,351.57198564796545,[],"[960, 540]",ColorTask,82.0,52.0,,,HRV,HRV_0137,2022-11-30 18:22:31
,wl-rdm,169,495373,0.0-8.52-0.52,1.0,170.0,,,,,,,[],,,,,,73.6,0.0,u,0.0,True,985.8999999985099,61.0,62.0,40.0,False,,388.0425998820925,[],"[960, 540]",ColorTask,83.0,53.0,,,HRV,HRV_0137,2022-11-30 18:22:31
,wl-rdm,170,497746,0.0-8.53-0.53,1.0,171.0,,,,,,,[],,,,,,50.0,0.0,u,0.0,True,1072.6000000014901,66.0,62.0,40.0,False,,237.27986444055125,[],"[960, 540]",ColorTask,84.0,54.0,,,HRV,HRV_0137,2022-11-30 18:22:31
,wl-rdm,171,499751,0.0-8.54-0.54,1.0,172.0,,,,,,,[],,,,,,73.6,0.0,u,0.0,True,705.0,43.0,62.0,40.0,False,,237.79965422077308,[],"[960, 540]",ColorTask,85.0,55.0,,,HRV,HRV_0137,2022-11-30 18:22:31
,wl-rdm,172,501889,0.0-8.55-0.55,1.0,173.0,,,,,,,[],,,,,,53.2,1.0,i,1.0,True,829.8999999985099,51.0,62.0,40.0,False,,244.14918384802004,[],"[960, 540]",ColorTask,86.0,56.0,,,HRV,HRV_0137,2022-11-30 18:22:31
,wl-rdm,173,504000,0.0-8.56-0.56,1.0,174.0,,,,,,,[],,,,,,87.9,1.0,i,1.0,True,653.5,40.0,62.0,40.0,False,,393.9275848962076,[],"[960, 540]",ColorTask,87.0,57.0,,,HRV,HRV_0137,2022-11-30 18:22:31
,wl-rdm,174,506315,0.0-8.57-0.57,1.0,175.0,,,,,,,[],,,,,,56.4,0.0,u,0.0,True,914.6000000014901,56.0,62.0,40.0,False,,324.0478629860613,[],"[960, 540]",ColorTask,88.0,58.0,,,HRV,HRV_0137,2022-11-30 18:22:31
,wl-rdm,175,508359,0.0-8.58-0.58,1.0,176.0,,,,,,,[],,,,,,87.9,0.0,u,0.0,True,578.0,36.0,62.0,40.0,False,,393.06799608383045,[],"[960, 540]",ColorTask,89.0,59.0,,,HRV,HRV_0137,2022-11-30 18:22:31
,wl-rdm,176,510336,0.0-8.59-0.59,1.0,177.0,,,,,,,[],,,,,,50.0,0.0,i,1.0,False,665.5,42.0,62.0,40.0,False,,253.26362009771418,[],"[960, 540]",ColorTask,88.0,60.0,,,HRV,HRV_0137,2022-11-30 18:22:31
,wl-rdm,177,512267,0.0-8.60-0.60,1.0,178.0,,,,,,,[],,,,,,87.9,0.0,u,0.0,True,647.5999999977648,40.0,62.0,40.0,False,,223.93279887778283,[],"[960, 540]",ColorTask,89.0,61.0,,,HRV,HRV_0137,2022-11-30 18:22:31
,wl-rdm,178,514534,0.0-8.61-0.61,1.0,179.0,,,,,,,[],,,,,,62.5,0.0,u,0.0,True,985.1000000014901,61.0,62.0,40.0,False,,223.04981781358575,[],"[960, 540]",ColorTask,90.0,62.0,,,HRV,HRV_0137,2022-11-30 18:22:31
,wl-rdm,179,516688,0.0-8.62-0.62,1.0,180.0,,,,,,,[],,,,,,62.5,0.0,u,0.0,True,835.1000000014901,52.0,62.0,40.0,False,,245.85711819337928,[],"[960, 540]",ColorTask,91.0,63.0,,,HRV,HRV_0137,2022-11-30 18:22:31
,wl-rdm,180,518690,0.0-8.63-0.63,1.0,181.0,,,,,,,[],,,,,,50.0,1.0,u,0.0,False,712.0999999977648,45.0,62.0,40.0,False,,228.48516114310286,[],"[960, 540]",ColorTask,90.0,64.0,,,HRV,HRV_0137,2022-11-30 18:22:31
,wl-rdm,181,520722,0.0-8.64-0.64,1.0,182.0,,,,,,,[],,,,,,62.5,1.0,i,1.0,True,734.3000000007451,46.0,62.0,40.0,False,,244.20695785216483,[],"[960, 540]",ColorTask,91.0,65.0,,,HRV,HRV_0137,2022-11-30 18:22:31
,wl-rdm,182,523075,0.0-8.65-0.65,1.0,183.0,,,,,,,[],,,,,,62.5,1.0,i,1.0,True,986.3000000007451,61.0,62.0,40.0,False,,275.62833232227706,[],"[960, 540]",ColorTask,92.0,66.0,,,HRV,HRV_0137,2022-11-30 18:22:31
,wl-rdm,183,525075,0.0-8.66-0.66,1.0,184.0,,,,,,,[],,,,,,56.4,0.0,u,0.0,True,588.0,37.0,62.0,40.0,False,,349.9754920179902,[],"[960, 540]",ColorTask,93.0,67.0,,,HRV,HRV_0137,2022-11-30 18:22:31
,wl-rdm,184,527077,0.0-8.67-0.67,1.0,185.0,,,,,,,[],,,,,,50.0,1.0,u,0.0,False,671.9000000022352,42.0,62.0,40.0,False,,264.91964152523633,[],"[960, 540]",ColorTask,92.0,68.0,,,HRV,HRV_0137,2022-11-30 18:22:31
,wl-rdm,185,529190,0.0-8.68-0.68,1.0,186.0,,,,,,,[],,,,,,73.6,1.0,i,1.0,True,788.0,49.0,62.0,40.0,False,,246.38461591078584,[],"[960, 540]",ColorTask,93.0,69.0,,,HRV,HRV_0137,2022-11-30 18:22:31
,wl-rdm,186,531309,0.0-8.69-0.69,1.0,187.0,,,,,,,[],,,,,,62.5,1.0,i,1.0,True,773.7000000029802,48.0,62.0,40.0,False,,264.6245284021985,[],"[960, 540]",ColorTask,94.0,70.0,,,HRV,HRV_0137,2022-11-30 18:22:31
,wl-rdm,187,533479,0.0-8.70-0.70,1.0,188.0,,,,,,,[],,,,,,56.4,1.0,i,1.0,True,747.6999999992549,47.0,62.0,40.0,False,,346.96972243576647,[],"[960, 540]",ColorTask,95.0,71.0,,,HRV,HRV_0137,2022-11-30 18:22:31
,wl-rdm,188,535629,0.0-8.71-0.71,1.0,189.0,,,,,,,[],,,,,,73.6,1.0,i,1.0,True,776.6000000014901,48.0,62.0,40.0,False,,304.77367342307707,[],"[960, 540]",ColorTask,96.0,72.0,,,HRV,HRV_0137,2022-11-30 18:22:31
,wl-rdm,189,537613,0.0-8.72-0.72,1.0,190.0,,,,,,,[],,,,,,62.5,0.0,u,0.0,True,655.8999999985099,41.0,62.0,40.0,False,,265.3409168006638,[],"[960, 540]",ColorTask,97.0,73.0,,,HRV,HRV_0137,2022-11-30 18:22:31
,wl-rdm,190,539677,0.0-8.73-0.73,1.0,191.0,,,,,,,[],,,,,,62.5,1.0,i,1.0,True,729.0,46.0,62.0,40.0,False,,265.8456761006403,[],"[960, 540]",ColorTask,98.0,74.0,,,HRV,HRV_0137,2022-11-30 18:22:31
,wl-rdm,191,542676,0.0-8.74-0.74,1.0,192.0,,,,,,,[],,,,,,53.2,0.0,u,0.0,True,1657.300000000745,103.0,62.0,40.0,False,,263.7744641912617,[],"[960, 540]",ColorTask,99.0,75.0,,,HRV,HRV_0137,2022-11-30 18:22:31
,wl-rdm,192,544714,0.0-8.75-0.75,1.0,193.0,,,,,,,[],,,,,,87.9,0.0,u,0.0,True,638.6999999992549,40.0,62.0,40.0,False,,322.6406620832928,[],"[960, 540]",ColorTask,100.0,76.0,,,HRV,HRV_0137,2022-11-30 18:22:31
,wl-rdm,193,547880,0.0-8.76-0.76,1.0,194.0,,,,,,,[],,,,,,56.4,1.0,i,1.0,True,1738.5999999977648,108.0,62.0,40.0,False,,382.4563440503109,[],"[960, 540]",ColorTask,101.0,77.0,,,HRV,HRV_0137,2022-11-30 18:22:31
,wl-rdm,194,550254,0.0-8.77-0.77,1.0,195.0,,,,,,,[],,,,,,56.4,0.0,u,0.0,True,1079.5,67.0,62.0,40.0,False,,214.16437573051684,[],"[960, 540]",ColorTask,102.0,78.0,,,HRV,HRV_0137,2022-11-30 18:22:31
,wl-rdm,195,552571,0.0-8.78-0.78,1.0,196.0,,,,,,,[],,,,,,62.5,0.0,u,0.0,True,890.1000000014901,56.0,62.0,40.0,False,,370.14623234869737,[],"[960, 540]",ColorTask,103.0,79.0,,,HRV,HRV_0137,2022-11-30 18:22:31
,wl-rdm,196,554559,0.0-8.79-0.79,1.0,197.0,,,,,,,[],,,,,,56.4,0.0,u,0.0,True,687.5,42.0,62.0,40.0,False,,242.15700502805956,[],"[960, 540]",ColorTask,104.0,80.0,,,HRV,HRV_0137,2022-11-30 18:22:31
,wl-rdm,197,556488,0.0-8.80-0.80,1.0,198.0,,,,,,,[],,,,,,56.4,0.0,u,0.0,True,643.3000000007451,40.0,62.0,40.0,False,,225.360575011044,[],"[960, 540]",ColorTask,105.0,81.0,,,HRV,HRV_0137,2022-11-30 18:22:31
,wl-rdm,198,558749,0.0-8.81-0.81,1.0,199.0,,,,,,,[],,,,,,73.6,1.0,u,0.0,False,820.8999999985099,51.0,62.0,40.0,False,,358.92214937935927,[],"[960, 540]",ColorTask,104.0,82.0,,,HRV,HRV_0137,2022-11-30 18:22:31
,wl-rdm,199,560854,0.0-8.82-0.82,1.0,200.0,,,,,,,[],,,,,,62.5,0.0,u,0.0,True,779.1000000014901,49.0,62.0,40.0,False,,260.2264030387272,[],"[960, 540]",ColorTask,105.0,83.0,,,HRV,HRV_0137,2022-11-30 18:22:31
,wl-rdm,200,562996,0.0-8.83-0.83,1.0,201.0,,,,,,,[],,,,,,87.9,0.0,u,0.0,True,815.0999999977648,50.0,62.0,40.0,False,,281.0549210887962,[],"[960, 540]",ColorTask,106.0,84.0,,,HRV,HRV_0137,2022-11-30 18:22:31
,wl-rdm,201,565867,0.0-8.84-0.84,1.0,202.0,,,,,,,[],,,,,,53.2,0.0,u,0.0,True,1568.6000000014901,96.0,62.0,40.0,False,,248.38559888439568,[],"[960, 540]",ColorTask,107.0,85.0,,,HRV,HRV_0137,2022-11-30 18:22:31
,wl-rdm,202,568175,0.0-8.85-0.85,1.0,203.0,,,,,,,[],,,,,,53.2,1.0,i,1.0,True,1026.199999999255,64.0,62.0,40.0,False,,227.1285039147095,[],"[960, 540]",ColorTask,108.0,86.0,,,HRV,HRV_0137,2022-11-30 18:22:31
,wl-rdm,203,570262,0.0-8.86-0.86,1.0,204.0,,,,,,,[],,,,,,73.6,1.0,i,1.0,True,619.5999999977648,39.0,62.0,40.0,False,,388.1019707813514,[],"[960, 540]",ColorTask,109.0,87.0,,,HRV,HRV_0137,2022-11-30 18:22:31
,wl-rdm,204,572182,0.0-8.87-0.87,1.0,205.0,,,,,,,[],,,,,,87.9,0.0,u,0.0,True,608.0,37.0,62.0,40.0,False,,251.7582247381639,[],"[960, 540]",ColorTask,110.0,88.0,,,HRV,HRV_0137,2022-11-30 18:22:31
,wl-rdm,205,574099,0.0-8.88-0.88,1.0,206.0,,,,,,,[],,,,,,50.0,0.0,i,1.0,False,567.0,36.0,62.0,40.0,False,,277.7250234295444,[],"[960, 540]",ColorTask,109.0,89.0,,,HRV,HRV_0137,2022-11-30 18:22:31
,wl-rdm,206,576332,0.0-8.89-0.89,1.0,207.0,,,,,,,[],,,,,,53.2,0.0,u,0.0,True,910.1000000014901,57.0,62.0,40.0,False,,255.77953560365455,[],"[960, 540]",ColorTask,110.0,90.0,,,HRV,HRV_0137,2022-11-30 18:22:31
,wl-rdm,207,578820,0.0-8.90-0.90,1.0,208.0,,,,,,,[],,,,,,56.4,1.0,i,1.0,True,1166.800000000745,72.0,62.0,40.0,False,,264.7347695136378,[],"[960, 540]",ColorTask,111.0,91.0,,,HRV,HRV_0137,2022-11-30 18:22:31
,wl-rdm,208,581829,0.0-8.91-0.91,1.0,209.0,,,,,,,[],,,,,,62.5,0.0,u,0.0,True,1648.300000000745,102.0,62.0,40.0,False,,283.4611922844472,[],"[960, 540]",ColorTask,112.0,92.0,,,HRV,HRV_0137,2022-11-30 18:22:31
,wl-rdm,209,585040,0.0-8.92-0.92,1.0,210.0,,,,,,,[],,,,,,53.2,0.0,u,0.0,True,1922.0,119.0,62.0,40.0,False,,221.4578985948308,[],"[960, 540]",ColorTask,113.0,93.0,,,HRV,HRV_0137,2022-11-30 18:22:31
,wl-rdm,210,587766,0.0-8.93-0.93,1.0,211.0,,,,,,,[],,,,,,53.2,1.0,i,1.0,True,1312.0,81.0,62.0,40.0,False,,346.31646053370025,[],"[960, 540]",ColorTask,114.0,94.0,,,HRV,HRV_0137,2022-11-30 18:22:31
,wl-rdm,211,589852,0.0-8.94-0.94,1.0,212.0,,,,,,,[],,,,,,56.4,1.0,i,1.0,True,795.8000000007451,49.0,62.0,40.0,False,,223.16115382964745,[],"[960, 540]",ColorTask,115.0,95.0,,,HRV,HRV_0137,2022-11-30 18:22:31
,wl-rdm,212,592048,0.0-8.95-0.95,1.0,213.0,,,,,,,[],,,,,,73.6,0.0,u,0.0,True,874.6999999992549,54.0,62.0,40.0,False,,253.93731256383305,[],"[960, 540]",ColorTask,116.0,96.0,,,HRV,HRV_0137,2022-11-30 18:22:31
,wl-rdm,213,594607,0.0-8.96-0.96,1.0,214.0,,,,,,,[],,,,,,50.0,1.0,u,0.0,False,1257.3999999985099,78.0,62.0,40.0,False,,237.54856578986332,[],"[960, 540]",ColorTask,115.0,97.0,,,HRV,HRV_0137,2022-11-30 18:22:31
,wl-rdm,214,596692,0.0-8.97-0.97,1.0,215.0,,,,,,,[],,,,,,87.9,1.0,i,1.0,True,672.2000000029802,42.0,62.0,40.0,False,,328.8611856519624,[],"[960, 540]",ColorTask,116.0,98.0,,,HRV,HRV_0137,2022-11-30 18:22:31
,wl-rdm,215,599008,0.0-8.98-0.98,1.0,216.0,,,,,,,[],,,,,,50.0,0.0,i,1.0,False,990.9000000022352,61.0,62.0,40.0,False,,280.0880607506324,[],"[960, 540]",ColorTask,115.0,99.0,,,HRV,HRV_0137,2022-11-30 18:22:31
,wl-rdm,216,601055,0.0-8.99-0.99,1.0,217.0,,,,,,,[],,,,,,53.2,0.0,i,1.0,False,739.5,46.0,62.0,40.0,False,,247.01073491777117,[],"[960, 540]",ColorTask,114.0,100.0,,,HRV,HRV_0137,2022-11-30 18:22:31
,wl-rdm,217,603694,0.0-8.100-0.100,1.0,218.0,,,,,,,[],,,,,,62.5,1.0,i,1.0,True,1290.0999999977648,80.0,62.0,40.0,False,,291.4093979547662,[],"[960, 540]",ColorTask,115.0,101.0,,,HRV,HRV_0137,2022-11-30 18:22:31
,wl-rdm,218,605807,0.0-8.101-0.101,1.0,219.0,,,,,,,[],,,,,,87.9,1.0,i,1.0,True,806.3000000007451,51.0,62.0,40.0,False,,245.22013570112284,[],"[960, 540]",ColorTask,116.0,102.0,,,HRV,HRV_0137,2022-11-30 18:22:31
,wl-rdm,219,607854,0.0-8.102-0.102,1.0,220.0,,,,,,,[],,,,,,87.9,0.0,u,0.0,True,705.5,45.0,62.0,40.0,False,,265.6259823666728,[],"[960, 540]",ColorTask,117.0,103.0,,,HRV,HRV_0137,2022-11-30 18:22:31
,wl-rdm,220,610329,0.0-8.103-0.103,1.0,221.0,,,,,,,[],,,,,,53.2,0.0,i,1.0,False,1009.4000000022352,63.0,62.0,40.0,False,,381.2784645292305,[],"[960, 540]",ColorTask,116.0,104.0,,,HRV,HRV_0137,2022-11-30 18:22:31
,wl-rdm,221,612303,0.0-8.104-0.104,1.0,222.0,,,,,,,[],,,,,,73.6,1.0,i,1.0,True,695.7000000029802,43.0,62.0,40.0,False,,216.44434486699558,[],"[960, 540]",ColorTask,117.0,105.0,,,HRV,HRV_0137,2022-11-30 18:22:31
,wl-rdm,222,614536,0.0-8.105-0.105,1.0,223.0,,,,,,,[],,,,,,50.0,0.0,u,0.0,True,871.5,54.0,62.0,40.0,False,,281.1738022656285,[],"[960, 540]",ColorTask,118.0,106.0,,,HRV,HRV_0137,2022-11-30 18:22:31
,wl-rdm,223,617111,0.0-8.106-0.106,1.0,224.0,,,,,,,[],,,,,,73.6,1.0,i,1.0,True,1191.300000000745,73.0,62.0,40.0,False,,307.1069475873103,[],"[960, 540]",ColorTask,119.0,107.0,,,HRV,HRV_0137,2022-11-30 18:22:31
,wl-rdm,224,619523,0.0-8.107-0.107,1.0,225.0,,,,,,,[],,,,,,87.9,1.0,i,1.0,True,1136.5999999977648,70.0,62.0,40.0,False,,213.50131279826604,[],"[960, 540]",ColorTask,120.0,108.0,,,HRV,HRV_0137,2022-11-30 18:22:31
,wl-html-button-response,225,622261,0.0-9.0-0.0,,,,,,,,,,2735.699999999255,,0,,,,,,,,,,,,,,,,,,,,<h3>End of this session. Thank you!</h3><br>,['Close window'],HRV,HRV_0137,2022-11-30 18:22:31
