trialN,stimuli,trialStartTime,trialStartTime_UNIX,stimulus1,stimulus2,stimulus1Bid,stimulus2Bid,delta,selected,rt,rt_UNIX,rt_perfnow,receivedResponse,rsp,trialEndTime,trialDuration,trialEndTime_UNIX,trialDuration_UNIX,exp,subjectId,date
0,"[{'imgObject': {}, 'id': 'orange slices', 'src': '/static/foodstim60/orange slices.jpg', 'key': 'u', 'origWidth': 409, 'origHeight': 410, 'width': 409, 'height': 410, 'widthPercent': 0.45, 'rescaleHeight': False, 'trialN': 0, 'loaded': True, 'loadedTime': 2036.8999999985099, 'positionName': 'LEFT', 'positionCoords': [512.6, 335], 'bid': 7.7}, {'imgObject': {}, 'id': 'raspberries', 'src': '/static/foodstim60/raspberries.jpg', 'key': 'i', 'origWidth': 411, 'origHeight': 411, 'width': 411, 'height': 411, 'widthPercent': 0.45, 'rescaleHeight': False, 'trialN': 0, 'loaded': True, 'loadedTime': 2075.89999999851, 'positionName': 'RIGHT', 'positionCoords': [998.4, 334.5], 'bid': 8.13}]",2703.800000000745,1669831643051,orange slices,raspberries,7.7,8.13,0.4300000000000006,raspberries,1882.3999999985099,1883,1882.699999999255,True,i,5093.099999997765,2389.2999999970198,1669831645440,2389,HRV,HRV_0137,2022-11-30 18:12:04
1,"[{'imgObject': {}, 'id': 'shreddedwheatwithmilk', 'src': '/static/foodstim60/shreddedwheatwithmilk.jpg', 'key': 'u', 'origWidth': 410, 'origHeight': 410, 'width': 410, 'height': 410, 'widthPercent': 0.45, 'rescaleHeight': False, 'trialN': 1, 'loaded': True, 'loadedTime': 2093.39999999851, 'positionName': 'LEFT', 'positionCoords': [511.6, 335], 'bid': 9.47}, {'imgObject': {}, 'id': 'salad w chicken', 'src': '/static/foodstim60/salad w chicken.jpg', 'key': 'i', 'origWidth': 411, 'origHeight': 411, 'width': 411, 'height': 411, 'widthPercent': 0.45, 'rescaleHeight': False, 'trialN': 1, 'loaded': True, 'loadedTime': 2115.199999999255, 'positionName': 'RIGHT', 'positionCoords': [998.4, 334.5], 'bid': 9.23}]",5093.199999999255,1669831645440,shreddedwheatwithmilk,salad w chicken,9.47,9.23,-0.2400000000000002,salad w chicken,1092.8999999985099,1093,1093.1000000014901,True,i,6692.89999999851,1599.699999999255,1669831647040,1600,HRV,HRV_0137,2022-11-30 18:12:04
2,"[{'imgObject': {}, 'id': 'blueberries', 'src': '/static/foodstim60/blueberries.jpg', 'key': 'u', 'origWidth': 411, 'origHeight': 411, 'width': 411, 'height': 411, 'widthPercent': 0.45, 'rescaleHeight': False, 'trialN': 2, 'loaded': True, 'loadedTime': 2127.599999997765, 'positionName': 'LEFT', 'positionCoords': [510.6, 334.5], 'bid': 10}, {'imgObject': {}, 'id': 'lox', 'src': '/static/foodstim60/lox.jpg', 'key': 'i', 'origWidth': 410, 'origHeight': 411, 'width': 410, 'height': 411, 'widthPercent': 0.45, 'rescaleHeight': False, 'trialN': 2, 'loaded': True, 'loadedTime': 2140.39999999851, 'positionName': 'RIGHT', 'positionCoords': [998.4, 334.5], 'bid': 10}]",6693.0,1669831647040,blueberries,lox,10.0,10.0,0.0,lox,1036.8999999985099,1037,1037.0,True,i,8238.800000000745,1545.800000000745,1669831648586,1546,HRV,HRV_0137,2022-11-30 18:12:04
3,"[{'imgObject': {}, 'id': 'orange slices', 'src': '/static/foodstim60/orange slices.jpg', 'key': 'u', 'origWidth': 409, 'origHeight': 410, 'width': 409, 'height': 410, 'widthPercent': 0.45, 'rescaleHeight': False, 'trialN': 3, 'loaded': True, 'loadedTime': 2049.699999999255, 'positionName': 'LEFT', 'positionCoords': [512.6, 335], 'bid': 7.7}, {'imgObject': {}, 'id': 'lox', 'src': '/static/foodstim60/lox.jpg', 'key': 'i', 'origWidth': 410, 'origHeight': 411, 'width': 410, 'height': 411, 'widthPercent': 0.45, 'rescaleHeight': False, 'trialN': 3, 'loaded': True, 'loadedTime': 2138, 'positionName': 'RIGHT', 'positionCoords': [998.4, 334.5], 'bid': 10}]",8238.89999999851,1669831648586,orange slices,lox,7.7,10.0,2.3,lox,899.0,899,899.3000000007451,True,i,9644.699999999255,1405.800000000745,1669831649992,1406,HRV,HRV_0137,2022-11-30 18:12:04
4,"[{'imgObject': {}, 'id': 'mango', 'src': '/static/foodstim60/mango.jpg', 'key': 'u', 'origWidth': 411, 'origHeight': 411, 'width': 411, 'height': 411, 'widthPercent': 0.45, 'rescaleHeight': False, 'trialN': 4, 'loaded': True, 'loadedTime': 2156.300000000745, 'positionName': 'LEFT', 'positionCoords': [510.6, 334.5], 'bid': 6.62}, {'imgObject': {}, 'id': 'raspberries', 'src': '/static/foodstim60/raspberries.jpg', 'key': 'i', 'origWidth': 411, 'origHeight': 411, 'width': 411, 'height': 411, 'widthPercent': 0.45, 'rescaleHeight': False, 'trialN': 4, 'loaded': True, 'loadedTime': 2082.39999999851, 'positionName': 'RIGHT', 'positionCoords': [998.4, 334.5], 'bid': 8.13}]",9644.699999999255,1669831649992,mango,raspberries,6.62,8.13,1.5100000000000007,raspberries,1741.6000000014901,1742,1741.800000000745,True,i,11898.599999997765,2253.89999999851,1669831652246,2254,HRV,HRV_0137,2022-11-30 18:12:04
5,"[{'imgObject': {}, 'id': 'Grapes', 'src': '/static/foodstim60/Grapes.jpg', 'key': 'u', 'origWidth': 411, 'origHeight': 411, 'width': 411, 'height': 411, 'widthPercent': 0.45, 'rescaleHeight': False, 'trialN': 5, 'loaded': True, 'loadedTime': 2156.5, 'positionName': 'LEFT', 'positionCoords': [510.6, 334.5], 'bid': 8.57}, {'imgObject': {}, 'id': 'banana', 'src': '/static/foodstim60/banana.jpg', 'key': 'i', 'origWidth': 410, 'origHeight': 410, 'width': 410, 'height': 410, 'widthPercent': 0.45, 'rescaleHeight': False, 'trialN': 5, 'loaded': True, 'loadedTime': 2226.099999997765, 'positionName': 'RIGHT', 'positionCoords': [998.4, 335], 'bid': 8.64}]",11898.800000000745,1669831652246,Grapes,banana,8.57,8.64,0.07000000000000028,Grapes,1063.199999999255,1063,1063.5999999977648,True,u,13472.39999999851,1573.5999999977648,1669831653819,1573,HRV,HRV_0137,2022-11-30 18:12:04
6,"[{'imgObject': {}, 'id': 'chicken nuggets2', 'src': '/static/foodstim60/chicken nuggets2.jpg', 'key': 'u', 'origWidth': 410, 'origHeight': 409, 'width': 410, 'height': 409, 'widthPercent': 0.45, 'rescaleHeight': False, 'trialN': 6, 'loaded': True, 'loadedTime': 2226.199999999255, 'positionName': 'LEFT', 'positionCoords': [511.6, 335.5], 'bid': 9.6}, {'imgObject': {}, 'id': 'bagel and cc', 'src': '/static/foodstim60/bagel and cc.jpg', 'key': 'i', 'origWidth': 410, 'origHeight': 410, 'width': 410, 'height': 410, 'widthPercent': 0.45, 'rescaleHeight': False, 'trialN': 6, 'loaded': True, 'loadedTime': 2275.599999997765, 'positionName': 'RIGHT', 'positionCoords': [998.4, 335], 'bid': 9.72}]",13472.39999999851,1669831653820,chicken nuggets2,bagel and cc,9.6,9.72,0.120000000000001,chicken nuggets2,1033.6000000014901,1033,1033.800000000745,True,u,15008.199999999255,1535.800000000745,1669831655355,1535,HRV,HRV_0137,2022-11-30 18:12:04
7,"[{'imgObject': {}, 'id': 'yogurt no spoon', 'src': '/static/foodstim60/yogurt no spoon.jpg', 'key': 'u', 'origWidth': 411, 'origHeight': 410, 'width': 411, 'height': 410, 'widthPercent': 0.45, 'rescaleHeight': False, 'trialN': 7, 'loaded': True, 'loadedTime': 2304.699999999255, 'positionName': 'LEFT', 'positionCoords': [510.6, 335], 'bid': 0.29}, {'imgObject': {}, 'id': 'rigatoni and sauce', 'src': '/static/foodstim60/rigatoni and sauce.jpg', 'key': 'i', 'origWidth': 410, 'origHeight': 411, 'width': 410, 'height': 411, 'widthPercent': 0.45, 'rescaleHeight': False, 'trialN': 7, 'loaded': True, 'loadedTime': 2336.800000000745, 'positionName': 'RIGHT', 'positionCoords': [998.4, 334.5], 'bid': 1.68}]",15008.39999999851,1669831655355,yogurt no spoon,rigatoni and sauce,0.29,1.68,1.39,yogurt no spoon,913.5,914,913.6999999992549,True,u,16431.800000000745,1423.4000000022352,1669831656779,1424,HRV,HRV_0137,2022-11-30 18:12:04
8,"[{'imgObject': {}, 'id': 'granola w milk', 'src': '/static/foodstim60/granola w milk.jpg', 'key': 'u', 'origWidth': 410, 'origHeight': 410, 'width': 410, 'height': 410, 'widthPercent': 0.45, 'rescaleHeight': False, 'trialN': 8, 'loaded': True, 'loadedTime': 2344.800000000745, 'positionName': 'LEFT', 'positionCoords': [511.6, 335], 'bid': 5.36}, {'imgObject': {}, 'id': 'tacos', 'src': '/static/foodstim60/tacos.jpg', 'key': 'i', 'origWidth': 411, 'origHeight': 411, 'width': 411, 'height': 411, 'widthPercent': 0.45, 'rescaleHeight': False, 'trialN': 8, 'loaded': True, 'loadedTime': 2415.099999997765, 'positionName': 'RIGHT', 'positionCoords': [998.4, 334.5], 'bid': 9.91}]",16431.89999999851,1669831656779,granola w milk,tacos,5.36,9.91,4.55,tacos,713.5,714,713.6999999992549,True,i,17655.89999999851,1224.0,1669831658003,1224,HRV,HRV_0137,2022-11-30 18:12:04
9,"[{'imgObject': {}, 'id': 'raspberries', 'src': '/static/foodstim60/raspberries.jpg', 'key': 'u', 'origWidth': 411, 'origHeight': 411, 'width': 411, 'height': 411, 'widthPercent': 0.45, 'rescaleHeight': False, 'trialN': 9, 'loaded': True, 'loadedTime': 2084.800000000745, 'positionName': 'LEFT', 'positionCoords': [510.6, 334.5], 'bid': 8.13}, {'imgObject': {}, 'id': 'seaweed', 'src': '/static/foodstim60/seaweed.jpg', 'key': 'i', 'origWidth': 410, 'origHeight': 410, 'width': 410, 'height': 410, 'widthPercent': 0.45, 'rescaleHeight': False, 'trialN': 9, 'loaded': True, 'loadedTime': 2431.099999997765, 'positionName': 'RIGHT', 'positionCoords': [998.4, 335], 'bid': 5.4}]",17656.099999997765,1669831658003,raspberries,seaweed,8.13,5.4,-2.7300000000000004,raspberries,1113.800000000745,1114,1114.0,True,u,19281.300000000745,1625.2000000029802,1669831659628,1625,HRV,HRV_0137,2022-11-30 18:12:04
10,"[{'imgObject': {}, 'id': 'blueberries', 'src': '/static/foodstim60/blueberries.jpg', 'key': 'u', 'origWidth': 411, 'origHeight': 411, 'width': 411, 'height': 411, 'widthPercent': 0.45, 'rescaleHeight': False, 'trialN': 10, 'loaded': True, 'loadedTime': 2130.099999997765, 'positionName': 'LEFT', 'positionCoords': [510.6, 334.5], 'bid': 10}, {'imgObject': {}, 'id': 'cherries', 'src': '/static/foodstim60/cherries.jpg', 'key': 'i', 'origWidth': 410, 'origHeight': 411, 'width': 410, 'height': 411, 'widthPercent': 0.45, 'rescaleHeight': False, 'trialN': 10, 'loaded': True, 'loadedTime': 2445.89999999851, 'positionName': 'RIGHT', 'positionCoords': [998.4, 334.5], 'bid': 9.92}]",19281.39999999851,1669831659629,blueberries,cherries,10.0,9.92,-0.08000000000000007,cherries,1031.9000000022352,1032,1032.0,True,i,20816.599999997765,1535.199999999255,1669831661164,1535,HRV,HRV_0137,2022-11-30 18:12:04
11,"[{'imgObject': {}, 'id': 'blueberries', 'src': '/static/foodstim60/blueberries.jpg', 'key': 'u', 'origWidth': 411, 'origHeight': 411, 'width': 411, 'height': 411, 'widthPercent': 0.45, 'rescaleHeight': False, 'trialN': 11, 'loaded': True, 'loadedTime': 2121, 'positionName': 'LEFT', 'positionCoords': [510.6, 334.5], 'bid': 10}, {'imgObject': {}, 'id': 'eggs', 'src': '/static/foodstim60/eggs.jpg', 'key': 'i', 'origWidth': 409, 'origHeight': 409, 'width': 409, 'height': 409, 'widthPercent': 0.45, 'rescaleHeight': False, 'trialN': 11, 'loaded': True, 'loadedTime': 2458, 'positionName': 'RIGHT', 'positionCoords': [998.4, 335.5], 'bid': 10}]",20816.699999999255,1669831661164,blueberries,eggs,10.0,10.0,0.0,eggs,785.1000000014901,785,785.3000000007451,True,i,22117.0,1300.300000000745,1669831662464,1300,HRV,HRV_0137,2022-11-30 18:12:04
12,"[{'imgObject': {}, 'id': 'cheerios', 'src': '/static/foodstim60/cheerios.jpg', 'key': 'u', 'origWidth': 409, 'origHeight': 410, 'width': 409, 'height': 410, 'widthPercent': 0.45, 'rescaleHeight': False, 'trialN': 12, 'loaded': True, 'loadedTime': 2470.89999999851, 'positionName': 'LEFT', 'positionCoords': [512.6, 335], 'bid': 7.61}, {'imgObject': {}, 'id': 'roastedpotatoes', 'src': '/static/foodstim60/roastedpotatoes.jpg', 'key': 'i', 'origWidth': 409, 'origHeight': 410, 'width': 409, 'height': 410, 'widthPercent': 0.45, 'rescaleHeight': False, 'trialN': 12, 'loaded': True, 'loadedTime': 2068.099999997765, 'positionName': 'RIGHT', 'positionCoords': [998.4, 335], 'bid': 10}]",22117.099999997765,1669831662464,cheerios,roastedpotatoes,7.61,10.0,2.3899999999999997,roastedpotatoes,940.5,941,940.8000000007451,True,i,23568.199999999255,1451.1000000014901,1669831663915,1451,HRV,HRV_0137,2022-11-30 18:12:04
13,"[{'imgObject': {}, 'id': 'sushi w_condiments', 'src': '/static/foodstim60/sushi w_condiments.jpg', 'key': 'u', 'origWidth': 410, 'origHeight': 410, 'width': 410, 'height': 410, 'widthPercent': 0.45, 'rescaleHeight': False, 'trialN': 13, 'loaded': True, 'loadedTime': 2188.39999999851, 'positionName': 'LEFT', 'positionCoords': [511.6, 335], 'bid': 9.94}, {'imgObject': {}, 'id': 'roastedpotatoes', 'src': '/static/foodstim60/roastedpotatoes.jpg', 'key': 'i', 'origWidth': 409, 'origHeight': 410, 'width': 409, 'height': 410, 'widthPercent': 0.45, 'rescaleHeight': False, 'trialN': 13, 'loaded': True, 'loadedTime': 2073.300000000745, 'positionName': 'RIGHT', 'positionCoords': [998.4, 335], 'bid': 10}]",23568.300000000745,1669831663915,sushi w_condiments,roastedpotatoes,9.94,10.0,0.0600000000000005,sushi w_condiments,952.7999999970198,953,953.0,True,u,25036.199999999255,1467.8999999985099,1669831665383,1468,HRV,HRV_0137,2022-11-30 18:12:04
14,"[{'imgObject': {}, 'id': 'grilled chicken strips', 'src': '/static/foodstim60/grilled chicken strips.jpg', 'key': 'u', 'origWidth': 410, 'origHeight': 411, 'width': 410, 'height': 411, 'widthPercent': 0.45, 'rescaleHeight': False, 'trialN': 14, 'loaded': True, 'loadedTime': 2202.800000000745, 'positionName': 'LEFT', 'positionCoords': [511.6, 334.5], 'bid': 10}, {'imgObject': {}, 'id': 'burger', 'src': '/static/foodstim60/burger.jpg', 'key': 'i', 'origWidth': 409, 'origHeight': 409, 'width': 409, 'height': 409, 'widthPercent': 0.45, 'rescaleHeight': False, 'trialN': 14, 'loaded': True, 'loadedTime': 2257.199999999255, 'positionName': 'RIGHT', 'positionCoords': [998.4, 335.5], 'bid': 9.96}]",25036.300000000745,1669831665383,grilled chicken strips,burger,10.0,9.96,-0.03999999999999915,burger,1061.199999999255,1062,1061.3999999985099,True,i,26600.199999999255,1563.8999999985099,1669831666947,1564,HRV,HRV_0137,2022-11-30 18:12:04
15,"[{'imgObject': {}, 'id': 'steak', 'src': '/static/foodstim60/steak.jpg', 'key': 'u', 'origWidth': 410, 'origHeight': 410, 'width': 410, 'height': 410, 'widthPercent': 0.45, 'rescaleHeight': False, 'trialN': 15, 'loaded': True, 'loadedTime': 2257.599999997765, 'positionName': 'LEFT', 'positionCoords': [511.6, 335], 'bid': 9.87}, {'imgObject': {}, 'id': 'corn cob', 'src': '/static/foodstim60/corn cob.jpg', 'key': 'i', 'origWidth': 411, 'origHeight': 411, 'width': 411, 'height': 411, 'widthPercent': 0.45, 'rescaleHeight': False, 'trialN': 15, 'loaded': True, 'loadedTime': 2287.89999999851, 'positionName': 'RIGHT', 'positionCoords': [998.4, 334.5], 'bid': 3.41}]",26600.300000000745,1669831666947,steak,corn cob,9.87,3.41,-6.459999999999999,steak,744.6999999992549,745,744.7999999970198,True,u,27854.39999999851,1254.0999999977648,1669831668202,1255,HRV,HRV_0137,2022-11-30 18:12:04
16,"[{'imgObject': {}, 'id': 'raisin bran w milk', 'src': '/static/foodstim60/raisin bran w milk.jpg', 'key': 'u', 'origWidth': 411, 'origHeight': 411, 'width': 411, 'height': 411, 'widthPercent': 0.45, 'rescaleHeight': False, 'trialN': 16, 'loaded': True, 'loadedTime': 2309.099999997765, 'positionName': 'LEFT', 'positionCoords': [510.6, 334.5], 'bid': 6.4}, {'imgObject': {}, 'id': 'froot loops w milk', 'src': '/static/foodstim60/froot loops w milk.jpg', 'key': 'i', 'origWidth': 410, 'origHeight': 410, 'width': 410, 'height': 410, 'widthPercent': 0.45, 'rescaleHeight': False, 'trialN': 16, 'loaded': True, 'loadedTime': 2366, 'positionName': 'RIGHT', 'positionCoords': [998.4, 335], 'bid': 1.69}]",27854.5,1669831668202,raisin bran w milk,froot loops w milk,6.4,1.69,-4.710000000000001,raisin bran w milk,1202.800000000745,1203,1203.0,True,u,29565.5,1711.0,1669831669913,1711,HRV,HRV_0137,2022-11-30 18:12:04
17,"[{'imgObject': {}, 'id': 'mac & cheese', 'src': '/static/foodstim60/mac & cheese.jpg', 'key': 'u', 'origWidth': 410, 'origHeight': 410, 'width': 410, 'height': 410, 'widthPercent': 0.45, 'rescaleHeight': False, 'trialN': 17, 'loaded': True, 'loadedTime': 2375.099999997765, 'positionName': 'LEFT', 'positionCoords': [511.6, 335], 'bid': 0}, {'imgObject': {}, 'id': 'luckycharms', 'src': '/static/foodstim60/luckycharms.jpg', 'key': 'i', 'origWidth': 410, 'origHeight': 409, 'width': 410, 'height': 409, 'widthPercent': 0.45, 'rescaleHeight': False, 'trialN': 17, 'loaded': True, 'loadedTime': 2386.300000000745, 'positionName': 'RIGHT', 'positionCoords': [998.4, 335.5], 'bid': 1.26}]",29565.699999999255,1669831669913,mac & cheese,luckycharms,0.0,1.26,1.26,mac & cheese,1955.5,1956,1955.800000000745,True,u,32031.699999999255,2466.0,1669831672379,2466,HRV,HRV_0137,2022-11-30 18:12:04
18,"[{'imgObject': {}, 'id': 'hotdog w must', 'src': '/static/foodstim60/hotdog w must.jpg', 'key': 'u', 'origWidth': 409, 'origHeight': 409, 'width': 409, 'height': 409, 'widthPercent': 0.45, 'rescaleHeight': False, 'trialN': 18, 'loaded': True, 'loadedTime': 2435.5, 'positionName': 'LEFT', 'positionCoords': [512.6, 335.5], 'bid': 6.29}, {'imgObject': {}, 'id': 'apple slices', 'src': '/static/foodstim60/apple slices.jpg', 'key': 'i', 'origWidth': 409, 'origHeight': 410, 'width': 409, 'height': 410, 'widthPercent': 0.45, 'rescaleHeight': False, 'trialN': 18, 'loaded': True, 'loadedTime': 2453.599999997765, 'positionName': 'RIGHT', 'positionCoords': [998.4, 335], 'bid': 6.3100000000000005}]",32031.800000000745,1669831672379,hotdog w must,apple slices,6.29,6.3100000000000005,0.020000000000000462,hotdog w must,2017.3999999985099,2018,2017.5999999977648,True,u,34551.89999999851,2520.099999997765,1669831674899,2520,HRV,HRV_0137,2022-11-30 18:12:04
19,"[{'imgObject': {}, 'id': 'burrito', 'src': '/static/foodstim60/burrito.jpg', 'key': 'u', 'origWidth': 410, 'origHeight': 410, 'width': 410, 'height': 410, 'widthPercent': 0.45, 'rescaleHeight': False, 'trialN': 19, 'loaded': True, 'loadedTime': 2492.300000000745, 'positionName': 'LEFT', 'positionCoords': [511.6, 335], 'bid': 2.4}, {'imgObject': {}, 'id': 'avocado', 'src': '/static/foodstim60/avocado.jpg', 'key': 'i', 'origWidth': 409, 'origHeight': 409, 'width': 409, 'height': 409, 'widthPercent': 0.45, 'rescaleHeight': False, 'trialN': 19, 'loaded': True, 'loadedTime': 2507.800000000745, 'positionName': 'RIGHT', 'positionCoords': [998.4, 335.5], 'bid': 9.81}]",34552.099999997765,1669831674899,burrito,avocado,2.4,9.81,7.41,avocado,1080.9000000022352,1081,1081.1000000014901,True,i,36136.099999997765,1584.0,1669831676483,1584,HRV,HRV_0137,2022-11-30 18:12:04
20,"[{'imgObject': {}, 'id': 'roastedpotatoes', 'src': '/static/foodstim60/roastedpotatoes.jpg', 'key': 'u', 'origWidth': 409, 'origHeight': 410, 'width': 409, 'height': 410, 'widthPercent': 0.45, 'rescaleHeight': False, 'trialN': 20, 'loaded': True, 'loadedTime': 2064.800000000745, 'positionName': 'LEFT', 'positionCoords': [512.6, 335], 'bid': 10}, {'imgObject': {}, 'id': 'lox', 'src': '/static/foodstim60/lox.jpg', 'key': 'i', 'origWidth': 410, 'origHeight': 411, 'width': 410, 'height': 411, 'widthPercent': 0.45, 'rescaleHeight': False, 'trialN': 20, 'loaded': True, 'loadedTime': 2135.699999999255, 'positionName': 'RIGHT', 'positionCoords': [998.4, 334.5], 'bid': 10}]",36136.099999997765,1669831676483,roastedpotatoes,lox,10.0,10.0,0.0,roastedpotatoes,1656.800000000745,1657,1657.0,True,u,38306.699999999255,2170.60000000149,1669831678654,2171,HRV,HRV_0137,2022-11-30 18:12:04
21,"[{'imgObject': {}, 'id': 'seaweed', 'src': '/static/foodstim60/seaweed.jpg', 'key': 'u', 'origWidth': 410, 'origHeight': 410, 'width': 410, 'height': 410, 'widthPercent': 0.45, 'rescaleHeight': False, 'trialN': 21, 'loaded': True, 'loadedTime': 2422.300000000745, 'positionName': 'LEFT', 'positionCoords': [511.6, 335], 'bid': 5.4}, {'imgObject': {}, 'id': 'omelette', 'src': '/static/foodstim60/omelette.jpg', 'key': 'i', 'origWidth': 410, 'origHeight': 409, 'width': 410, 'height': 409, 'widthPercent': 0.45, 'rescaleHeight': False, 'trialN': 21, 'loaded': True, 'loadedTime': 2510.89999999851, 'positionName': 'RIGHT', 'positionCoords': [998.4, 335.5], 'bid': 1.19}]",38306.800000000745,1669831678654,seaweed,omelette,5.4,1.19,-4.210000000000001,seaweed,1166.0,1166,1166.199999999255,True,u,39974.300000000745,1667.5,1669831680321,1667,HRV,HRV_0137,2022-11-30 18:12:04
22,"[{'imgObject': {}, 'id': 'tacos', 'src': '/static/foodstim60/tacos.jpg', 'key': 'u', 'origWidth': 411, 'origHeight': 411, 'width': 411, 'height': 411, 'widthPercent': 0.45, 'rescaleHeight': False, 'trialN': 22, 'loaded': True, 'loadedTime': 2412.300000000745, 'positionName': 'LEFT', 'positionCoords': [510.6, 334.5], 'bid': 9.91}, {'imgObject': {}, 'id': 'cherries', 'src': '/static/foodstim60/cherries.jpg', 'key': 'i', 'origWidth': 410, 'origHeight': 411, 'width': 410, 'height': 411, 'widthPercent': 0.45, 'rescaleHeight': False, 'trialN': 22, 'loaded': True, 'loadedTime': 2445.699999999255, 'positionName': 'RIGHT', 'positionCoords': [998.4, 334.5], 'bid': 9.92}]",39974.39999999851,1669831680322,tacos,cherries,9.91,9.92,0.009999999999999787,tacos,850.3000000007451,850,850.6000000014901,True,u,41333.0,1358.6000000014901,1669831681680,1358,HRV,HRV_0137,2022-11-30 18:12:04
23,"[{'imgObject': {}, 'id': 'banana', 'src': '/static/foodstim60/banana.jpg', 'key': 'u', 'origWidth': 410, 'origHeight': 410, 'width': 410, 'height': 410, 'widthPercent': 0.45, 'rescaleHeight': False, 'trialN': 23, 'loaded': True, 'loadedTime': 2212, 'positionName': 'LEFT', 'positionCoords': [511.6, 335], 'bid': 8.64}, {'imgObject': {}, 'id': 'edamame', 'src': '/static/foodstim60/edamame.jpg', 'key': 'i', 'origWidth': 409, 'origHeight': 410, 'width': 409, 'height': 410, 'widthPercent': 0.45, 'rescaleHeight': False, 'trialN': 23, 'loaded': True, 'loadedTime': 2525, 'positionName': 'RIGHT', 'positionCoords': [998.4, 335], 'bid': 0.43}]",41333.0,1669831681680,banana,edamame,8.64,0.43,-8.21,banana,1003.3000000007451,1004,1003.5,True,u,42846.89999999851,1513.8999999985099,1669831683194,1514,HRV,HRV_0137,2022-11-30 18:12:04
24,"[{'imgObject': {}, 'id': 'blueberries', 'src': '/static/foodstim60/blueberries.jpg', 'key': 'u', 'origWidth': 411, 'origHeight': 411, 'width': 411, 'height': 411, 'widthPercent': 0.45, 'rescaleHeight': False, 'trialN': 24, 'loaded': True, 'loadedTime': 2117.5, 'positionName': 'LEFT', 'positionCoords': [510.6, 334.5], 'bid': 10}, {'imgObject': {}, 'id': 'steak', 'src': '/static/foodstim60/steak.jpg', 'key': 'i', 'origWidth': 410, 'origHeight': 410, 'width': 410, 'height': 410, 'widthPercent': 0.45, 'rescaleHeight': False, 'trialN': 24, 'loaded': True, 'loadedTime': 2263.800000000745, 'positionName': 'RIGHT', 'positionCoords': [998.4, 335], 'bid': 9.87}]",42847.0,1669831683194,blueberries,steak,10.0,9.87,-0.13000000000000078,steak,697.5,698,697.8000000007451,True,i,44059.0,1212.0,1669831684406,1212,HRV,HRV_0137,2022-11-30 18:12:04
25,"[{'imgObject': {}, 'id': 'cheerios', 'src': '/static/foodstim60/cheerios.jpg', 'key': 'u', 'origWidth': 409, 'origHeight': 410, 'width': 409, 'height': 410, 'widthPercent': 0.45, 'rescaleHeight': False, 'trialN': 25, 'loaded': True, 'loadedTime': 2469.699999999255, 'positionName': 'LEFT', 'positionCoords': [512.6, 335], 'bid': 7.61}, {'imgObject': {}, 'id': 'orange slices', 'src': '/static/foodstim60/orange slices.jpg', 'key': 'i', 'origWidth': 409, 'origHeight': 410, 'width': 409, 'height': 410, 'widthPercent': 0.45, 'rescaleHeight': False, 'trialN': 25, 'loaded': True, 'loadedTime': 2045.0999999977648, 'positionName': 'RIGHT', 'positionCoords': [998.4, 335], 'bid': 7.7}]",44059.099999997765,1669831684406,cheerios,orange slices,7.61,7.7,0.08999999999999986,orange slices,989.5,990,989.8000000007451,True,i,45560.800000000745,1501.7000000029802,1669831685908,1502,HRV,HRV_0137,2022-11-30 18:12:04
26,"[{'imgObject': {}, 'id': 'Grapes', 'src': '/static/foodstim60/Grapes.jpg', 'key': 'u', 'origWidth': 411, 'origHeight': 411, 'width': 411, 'height': 411, 'widthPercent': 0.45, 'rescaleHeight': False, 'trialN': 26, 'loaded': True, 'loadedTime': 2162.099999997765, 'positionName': 'LEFT', 'positionCoords': [510.6, 334.5], 'bid': 8.57}, {'imgObject': {}, 'id': 'cherry tomato', 'src': '/static/foodstim60/cherry tomato.jpg', 'key': 'i', 'origWidth': 410, 'origHeight': 410, 'width': 410, 'height': 410, 'widthPercent': 0.45, 'rescaleHeight': False, 'trialN': 26, 'loaded': True, 'loadedTime': 2543.5, 'positionName': 'RIGHT', 'positionCoords': [998.4, 335], 'bid': 8.8}]",45560.89999999851,1669831685908,Grapes,cherry tomato,8.57,8.8,0.23000000000000043,Grapes,951.5,952,951.6999999992549,True,u,47018.89999999851,1458.0,1669831687366,1458,HRV,HRV_0137,2022-11-30 18:12:04
27,"[{'imgObject': {}, 'id': 'bagel and cc', 'src': '/static/foodstim60/bagel and cc.jpg', 'key': 'u', 'origWidth': 410, 'origHeight': 410, 'width': 410, 'height': 410, 'widthPercent': 0.45, 'rescaleHeight': False, 'trialN': 27, 'loaded': True, 'loadedTime': 2274.5, 'positionName': 'LEFT', 'positionCoords': [511.6, 335], 'bid': 9.72}, {'imgObject': {}, 'id': 'salad w chicken', 'src': '/static/foodstim60/salad w chicken.jpg', 'key': 'i', 'origWidth': 411, 'origHeight': 411, 'width': 411, 'height': 411, 'widthPercent': 0.45, 'rescaleHeight': False, 'trialN': 27, 'loaded': True, 'loadedTime': 2115.300000000745, 'positionName': 'RIGHT', 'positionCoords': [998.4, 334.5], 'bid': 9.23}]",47018.89999999851,1669831687366,bagel and cc,salad w chicken,9.72,9.23,-0.4900000000000002,salad w chicken,1117.199999999255,1117,1117.4000000022352,True,i,48649.800000000745,1630.9000000022352,1669831688997,1631,HRV,HRV_0137,2022-11-30 18:12:04
28,"[{'imgObject': {}, 'id': 'yogurt no spoon', 'src': '/static/foodstim60/yogurt no spoon.jpg', 'key': 'u', 'origWidth': 411, 'origHeight': 410, 'width': 411, 'height': 410, 'widthPercent': 0.45, 'rescaleHeight': False, 'trialN': 28, 'loaded': True, 'loadedTime': 2304.5, 'positionName': 'LEFT', 'positionCoords': [510.6, 335], 'bid': 0.29}, {'imgObject': {}, 'id': 'Grapes', 'src': '/static/foodstim60/Grapes.jpg', 'key': 'i', 'origWidth': 411, 'origHeight': 411, 'width': 411, 'height': 411, 'widthPercent': 0.45, 'rescaleHeight': False, 'trialN': 28, 'loaded': True, 'loadedTime': 2169, 'positionName': 'RIGHT', 'positionCoords': [998.4, 334.5], 'bid': 8.57}]",48649.800000000745,1669831688997,yogurt no spoon,Grapes,0.29,8.57,8.280000000000001,Grapes,1030.5,1031,1030.7999999970198,True,i,50188.699999999255,1538.8999999985099,1669831690536,1539,HRV,HRV_0137,2022-11-30 18:12:04
29,"[{'imgObject': {}, 'id': 'cocktailshrimp', 'src': '/static/foodstim60/cocktailshrimp.jpg', 'key': 'u', 'origWidth': 410, 'origHeight': 410, 'width': 410, 'height': 410, 'widthPercent': 0.45, 'rescaleHeight': False, 'trialN': 29, 'loaded': True, 'loadedTime': 2553.800000000745, 'positionName': 'LEFT', 'positionCoords': [511.6, 335], 'bid': 9.82}, {'imgObject': {}, 'id': 'grilled chicken strips', 'src': '/static/foodstim60/grilled chicken strips.jpg', 'key': 'i', 'origWidth': 410, 'origHeight': 411, 'width': 410, 'height': 411, 'widthPercent': 0.45, 'rescaleHeight': False, 'trialN': 29, 'loaded': True, 'loadedTime': 2197.39999999851, 'positionName': 'RIGHT', 'positionCoords': [998.4, 334.5], 'bid': 10}]",50188.800000000745,1669831690536,cocktailshrimp,grilled chicken strips,9.82,10.0,0.17999999999999972,cocktailshrimp,1067.0,1067,1067.199999999255,True,u,51768.39999999851,1579.5999999977648,1669831692116,1580,HRV,HRV_0137,2022-11-30 18:12:04
30,"[{'imgObject': {}, 'id': 'pear', 'src': '/static/foodstim60/pear.jpg', 'key': 'u', 'origWidth': 411, 'origHeight': 410, 'width': 411, 'height': 410, 'widthPercent': 0.45, 'rescaleHeight': False, 'trialN': 30, 'loaded': True, 'loadedTime': 2553.89999999851, 'positionName': 'LEFT', 'positionCoords': [510.6, 335], 'bid': 5.28}, {'imgObject': {}, 'id': 'froot loops w milk', 'src': '/static/foodstim60/froot loops w milk.jpg', 'key': 'i', 'origWidth': 410, 'origHeight': 410, 'width': 410, 'height': 410, 'widthPercent': 0.45, 'rescaleHeight': False, 'trialN': 30, 'loaded': True, 'loadedTime': 2363.5, 'positionName': 'RIGHT', 'positionCoords': [998.4, 335], 'bid': 1.69}]",51768.5,1669831692116,pear,froot loops w milk,5.28,1.69,-3.5900000000000003,pear,927.5,927,927.8000000007451,True,u,53201.89999999851,1433.3999999985099,1669831693549,1433,HRV,HRV_0137,2022-11-30 18:12:04
31,"[{'imgObject': {}, 'id': 'bagel plain', 'src': '/static/foodstim60/bagel plain.jpg', 'key': 'u', 'origWidth': 410, 'origHeight': 410, 'width': 410, 'height': 410, 'widthPercent': 0.45, 'rescaleHeight': False, 'trialN': 31, 'loaded': True, 'loadedTime': 2566.199999999255, 'positionName': 'LEFT', 'positionCoords': [511.6, 335], 'bid': 9.2}, {'imgObject': {}, 'id': 'banana', 'src': '/static/foodstim60/banana.jpg', 'key': 'i', 'origWidth': 410, 'origHeight': 410, 'width': 410, 'height': 410, 'widthPercent': 0.45, 'rescaleHeight': False, 'trialN': 31, 'loaded': True, 'loadedTime': 2223.699999999255, 'positionName': 'RIGHT', 'positionCoords': [998.4, 335], 'bid': 8.64}]",53202.0,1669831693549,bagel plain,banana,9.2,8.64,-0.5599999999999987,bagel plain,902.1999999992549,903,902.3999999985099,True,u,54606.800000000745,1404.800000000745,1669831694954,1405,HRV,HRV_0137,2022-11-30 18:12:04
32,"[{'imgObject': {}, 'id': 'sushi w_condiments', 'src': '/static/foodstim60/sushi w_condiments.jpg', 'key': 'u', 'origWidth': 410, 'origHeight': 410, 'width': 410, 'height': 410, 'widthPercent': 0.45, 'rescaleHeight': False, 'trialN': 32, 'loaded': True, 'loadedTime': 2180.099999997765, 'positionName': 'LEFT', 'positionCoords': [511.6, 335], 'bid': 9.94}, {'imgObject': {}, 'id': 'hotdog w must', 'src': '/static/foodstim60/hotdog w must.jpg', 'key': 'i', 'origWidth': 409, 'origHeight': 409, 'width': 409, 'height': 409, 'widthPercent': 0.45, 'rescaleHeight': False, 'trialN': 32, 'loaded': True, 'loadedTime': 2438.300000000745, 'positionName': 'RIGHT', 'positionCoords': [998.4, 335.5], 'bid': 6.29}]",54606.89999999851,1669831694954,sushi w_condiments,hotdog w must,9.94,6.29,-3.6499999999999995,sushi w_condiments,689.4000000022352,690,689.5,True,u,55803.39999999851,1196.5,1669831696151,1197,HRV,HRV_0137,2022-11-30 18:12:04
33,"[{'imgObject': {}, 'id': 'cantaloupe', 'src': '/static/foodstim60/cantaloupe.jpg', 'key': 'u', 'origWidth': 409, 'origHeight': 409, 'width': 409, 'height': 409, 'widthPercent': 0.45, 'rescaleHeight': False, 'trialN': 33, 'loaded': True, 'loadedTime': 2581.199999999255, 'positionName': 'LEFT', 'positionCoords': [512.6, 335.5], 'bid': 2.21}, {'imgObject': {}, 'id': 'cheerios', 'src': '/static/foodstim60/cheerios.jpg', 'key': 'i', 'origWidth': 409, 'origHeight': 410, 'width': 409, 'height': 410, 'widthPercent': 0.45, 'rescaleHeight': False, 'trialN': 33, 'loaded': True, 'loadedTime': 2476.800000000745, 'positionName': 'RIGHT', 'positionCoords': [998.4, 335], 'bid': 7.61}]",55803.5,1669831696151,cantaloupe,cheerios,2.21,7.61,5.4,cheerios,1756.0,1756,1756.199999999255,True,i,58064.199999999255,2260.699999999255,1669831698411,2260,HRV,HRV_0137,2022-11-30 18:12:04
34,"[{'imgObject': {}, 'id': 'olives', 'src': '/static/foodstim60/olives.jpg', 'key': 'u', 'origWidth': 410, 'origHeight': 410, 'width': 410, 'height': 410, 'widthPercent': 0.45, 'rescaleHeight': False, 'trialN': 34, 'loaded': True, 'loadedTime': 2588.89999999851, 'positionName': 'LEFT', 'positionCoords': [511.6, 335], 'bid': 8.040000000000001}, {'imgObject': {}, 'id': 'granola w milk', 'src': '/static/foodstim60/granola w milk.jpg', 'key': 'i', 'origWidth': 410, 'origHeight': 410, 'width': 410, 'height': 410, 'widthPercent': 0.45, 'rescaleHeight': False, 'trialN': 34, 'loaded': True, 'loadedTime': 2346.89999999851, 'positionName': 'RIGHT', 'positionCoords': [998.4, 335], 'bid': 5.36}]",58064.300000000745,1669831698412,olives,granola w milk,8.040000000000001,5.36,-2.6800000000000006,olives,1567.5999999977648,1567,1567.699999999255,True,u,60133.300000000745,2069.0,1669831700481,2069,HRV,HRV_0137,2022-11-30 18:12:04
35,"[{'imgObject': {}, 'id': 'sushi w_condiments', 'src': '/static/foodstim60/sushi w_condiments.jpg', 'key': 'u', 'origWidth': 410, 'origHeight': 410, 'width': 410, 'height': 410, 'widthPercent': 0.45, 'rescaleHeight': False, 'trialN': 35, 'loaded': True, 'loadedTime': 2186.099999997765, 'positionName': 'LEFT', 'positionCoords': [511.6, 335], 'bid': 9.94}, {'imgObject': {}, 'id': 'bagel and cc', 'src': '/static/foodstim60/bagel and cc.jpg', 'key': 'i', 'origWidth': 410, 'origHeight': 410, 'width': 410, 'height': 410, 'widthPercent': 0.45, 'rescaleHeight': False, 'trialN': 35, 'loaded': True, 'loadedTime': 2277.89999999851, 'positionName': 'RIGHT', 'positionCoords': [998.4, 335], 'bid': 9.72}]",60133.39999999851,1669831700481,sushi w_condiments,bagel and cc,9.94,9.72,-0.21999999999999886,sushi w_condiments,802.3000000007451,802,802.5,True,u,61445.39999999851,1312.0,1669831701793,1312,HRV,HRV_0137,2022-11-30 18:12:04
36,"[{'imgObject': {}, 'id': 'hashbrowns', 'src': '/static/foodstim60/hashbrowns.jpg', 'key': 'u', 'origWidth': 411, 'origHeight': 410, 'width': 411, 'height': 410, 'widthPercent': 0.45, 'rescaleHeight': False, 'trialN': 36, 'loaded': True, 'loadedTime': 2602.599999997765, 'positionName': 'LEFT', 'positionCoords': [510.6, 335], 'bid': 3.8}, {'imgObject': {}, 'id': 'pear', 'src': '/static/foodstim60/pear.jpg', 'key': 'i', 'origWidth': 411, 'origHeight': 410, 'width': 411, 'height': 410, 'widthPercent': 0.45, 'rescaleHeight': False, 'trialN': 36, 'loaded': True, 'loadedTime': 2557.89999999851, 'positionName': 'RIGHT', 'positionCoords': [998.4, 335], 'bid': 5.28}]",61445.39999999851,1669831701793,hashbrowns,pear,3.8,5.28,1.4800000000000004,hashbrowns,1138.300000000745,1138,1138.6000000014901,True,u,63099.099999997765,1653.699999999255,1669831703446,1653,HRV,HRV_0137,2022-11-30 18:12:04
37,"[{'imgObject': {}, 'id': 'bagel and cc', 'src': '/static/foodstim60/bagel and cc.jpg', 'key': 'u', 'origWidth': 410, 'origHeight': 410, 'width': 410, 'height': 410, 'widthPercent': 0.45, 'rescaleHeight': False, 'trialN': 37, 'loaded': True, 'loadedTime': 2278, 'positionName': 'LEFT', 'positionCoords': [511.6, 335], 'bid': 9.72}, {'imgObject': {}, 'id': 'blueberries', 'src': '/static/foodstim60/blueberries.jpg', 'key': 'i', 'origWidth': 411, 'origHeight': 411, 'width': 411, 'height': 411, 'widthPercent': 0.45, 'rescaleHeight': False, 'trialN': 37, 'loaded': True, 'loadedTime': 2123.099999997765, 'positionName': 'RIGHT', 'positionCoords': [998.4, 334.5], 'bid': 10}]",63099.199999999255,1669831703446,bagel and cc,blueberries,9.72,10.0,0.27999999999999936,bagel and cc,1052.0,1053,1052.199999999255,True,u,64664.39999999851,1565.199999999255,1669831705012,1566,HRV,HRV_0137,2022-11-30 18:12:04
38,"[{'imgObject': {}, 'id': 'blueberries', 'src': '/static/foodstim60/blueberries.jpg', 'key': 'u', 'origWidth': 411, 'origHeight': 411, 'width': 411, 'height': 411, 'widthPercent': 0.45, 'rescaleHeight': False, 'trialN': 38, 'loaded': True, 'loadedTime': 2125.5, 'positionName': 'LEFT', 'positionCoords': [510.6, 334.5], 'bid': 10}, {'imgObject': {}, 'id': 'kiwi', 'src': '/static/foodstim60/kiwi.jpg', 'key': 'i', 'origWidth': 410, 'origHeight': 410, 'width': 410, 'height': 410, 'widthPercent': 0.45, 'rescaleHeight': False, 'trialN': 38, 'loaded': True, 'loadedTime': 2615.39999999851, 'positionName': 'RIGHT', 'positionCoords': [998.4, 335], 'bid': 7.1000000000000005}]",64664.5,1669831705012,blueberries,kiwi,10.0,7.1000000000000005,-2.8999999999999995,kiwi,1687.0999999977648,1687,1687.3999999985099,True,i,66865.69999999925,2201.199999999255,1669831707213,2201,HRV,HRV_0137,2022-11-30 18:12:04
39,"[{'imgObject': {}, 'id': 'Grapes', 'src': '/static/foodstim60/Grapes.jpg', 'key': 'u', 'origWidth': 411, 'origHeight': 411, 'width': 411, 'height': 411, 'widthPercent': 0.45, 'rescaleHeight': False, 'trialN': 39, 'loaded': True, 'loadedTime': 2166.699999999255, 'positionName': 'LEFT', 'positionCoords': [510.6, 334.5], 'bid': 8.57}, {'imgObject': {}, 'id': 'steak', 'src': '/static/foodstim60/steak.jpg', 'key': 'i', 'origWidth': 410, 'origHeight': 410, 'width': 410, 'height': 410, 'widthPercent': 0.45, 'rescaleHeight': False, 'trialN': 39, 'loaded': True, 'loadedTime': 2274.199999999255, 'positionName': 'RIGHT', 'positionCoords': [998.4, 335], 'bid': 9.87}]",66865.89999999851,1669831707213,Grapes,steak,8.57,9.87,1.299999999999999,steak,845.5,846,845.6999999992549,True,i,68224.89999999851,1359.0,1669831708572,1359,HRV,HRV_0137,2022-11-30 18:12:04
40,"[{'imgObject': {}, 'id': 'Tribe humus pita', 'src': '/static/foodstim60/Tribe humus pita.jpg', 'key': 'u', 'origWidth': 411, 'origHeight': 411, 'width': 411, 'height': 411, 'widthPercent': 0.45, 'rescaleHeight': False, 'trialN': 40, 'loaded': True, 'loadedTime': 2620.199999999255, 'positionName': 'LEFT', 'positionCoords': [510.6, 334.5], 'bid': 9.86}, {'imgObject': {}, 'id': 'eggs', 'src': '/static/foodstim60/eggs.jpg', 'key': 'i', 'origWidth': 409, 'origHeight': 409, 'width': 409, 'height': 409, 'widthPercent': 0.45, 'rescaleHeight': False, 'trialN': 40, 'loaded': True, 'loadedTime': 2458.300000000745, 'positionName': 'RIGHT', 'positionCoords': [998.4, 335.5], 'bid': 10}]",68224.89999999851,1669831708572,Tribe humus pita,eggs,9.86,10.0,0.14000000000000057,eggs,982.1000000014901,982,982.1999999992549,True,i,69712.69999999925,1487.800000000745,1669831710060,1488,HRV,HRV_0137,2022-11-30 18:12:04
41,"[{'imgObject': {}, 'id': 'hashbrowns', 'src': '/static/foodstim60/hashbrowns.jpg', 'key': 'u', 'origWidth': 411, 'origHeight': 410, 'width': 411, 'height': 410, 'widthPercent': 0.45, 'rescaleHeight': False, 'trialN': 41, 'loaded': True, 'loadedTime': 2599.099999997765, 'positionName': 'LEFT', 'positionCoords': [510.6, 335], 'bid': 3.8}, {'imgObject': {}, 'id': 'rigatoni and sauce', 'src': '/static/foodstim60/rigatoni and sauce.jpg', 'key': 'i', 'origWidth': 410, 'origHeight': 411, 'width': 410, 'height': 411, 'widthPercent': 0.45, 'rescaleHeight': False, 'trialN': 41, 'loaded': True, 'loadedTime': 2336.89999999851, 'positionName': 'RIGHT', 'positionCoords': [998.4, 334.5], 'bid': 1.68}]",69712.80000000075,1669831710060,hashbrowns,rigatoni and sauce,3.8,1.68,-2.12,hashbrowns,974.5999999977648,975,974.7999999970198,True,u,71203.0,1490.199999999255,1669831711550,1490,HRV,HRV_0137,2022-11-30 18:12:04
42,"[{'imgObject': {}, 'id': 'cocktailshrimp', 'src': '/static/foodstim60/cocktailshrimp.jpg', 'key': 'u', 'origWidth': 410, 'origHeight': 410, 'width': 410, 'height': 410, 'widthPercent': 0.45, 'rescaleHeight': False, 'trialN': 42, 'loaded': True, 'loadedTime': 2543.89999999851, 'positionName': 'LEFT', 'positionCoords': [511.6, 335], 'bid': 9.82}, {'imgObject': {}, 'id': 'olives', 'src': '/static/foodstim60/olives.jpg', 'key': 'i', 'origWidth': 410, 'origHeight': 410, 'width': 410, 'height': 410, 'widthPercent': 0.45, 'rescaleHeight': False, 'trialN': 42, 'loaded': True, 'loadedTime': 2591.89999999851, 'positionName': 'RIGHT', 'positionCoords': [998.4, 335], 'bid': 8.040000000000001}]",71203.09999999776,1669831711550,cocktailshrimp,olives,9.82,8.040000000000001,-1.7799999999999994,cocktailshrimp,876.1000000014901,877,876.3000000007451,True,u,72592.0,1388.9000000022352,1669831712939,1389,HRV,HRV_0137,2022-11-30 18:12:04
43,"[{'imgObject': {}, 'id': 'popsicles', 'src': '/static/foodstim60/popsicles.jpg', 'key': 'u', 'origWidth': 410, 'origHeight': 410, 'width': 410, 'height': 410, 'widthPercent': 0.45, 'rescaleHeight': False, 'trialN': 43, 'loaded': True, 'loadedTime': 2627.800000000745, 'positionName': 'LEFT', 'positionCoords': [511.6, 335], 'bid': 0.62}, {'imgObject': {}, 'id': 'cherry tomato', 'src': '/static/foodstim60/cherry tomato.jpg', 'key': 'i', 'origWidth': 410, 'origHeight': 410, 'width': 410, 'height': 410, 'widthPercent': 0.45, 'rescaleHeight': False, 'trialN': 43, 'loaded': True, 'loadedTime': 2531.89999999851, 'positionName': 'RIGHT', 'positionCoords': [998.4, 335], 'bid': 8.8}]",72592.0,1669831712939,popsicles,cherry tomato,0.62,8.8,8.180000000000001,cherry tomato,855.3000000007451,856,855.3999999985099,True,i,73957.89999999851,1365.8999999985099,1669831714305,1366,HRV,HRV_0137,2022-11-30 18:12:04
44,"[{'imgObject': {}, 'id': 'bagel plain', 'src': '/static/foodstim60/bagel plain.jpg', 'key': 'u', 'origWidth': 410, 'origHeight': 410, 'width': 410, 'height': 410, 'widthPercent': 0.45, 'rescaleHeight': False, 'trialN': 44, 'loaded': True, 'loadedTime': 2568, 'positionName': 'LEFT', 'positionCoords': [511.6, 335], 'bid': 9.2}, {'imgObject': {}, 'id': 'blackbeanswithrice', 'src': '/static/foodstim60/blackbeanswithrice.jpg', 'key': 'i', 'origWidth': 410, 'origHeight': 410, 'width': 410, 'height': 410, 'widthPercent': 0.45, 'rescaleHeight': False, 'trialN': 44, 'loaded': True, 'loadedTime': 2635.599999997765, 'positionName': 'RIGHT', 'positionCoords': [998.4, 335], 'bid': 0.67}]",73958.0,1669831714305,bagel plain,blackbeanswithrice,9.2,0.67,-8.53,bagel plain,1048.699999999255,1049,1049.0,True,u,75520.80000000075,1562.800000000745,1669831715868,1563,HRV,HRV_0137,2022-11-30 18:12:04
45,"[{'imgObject': {}, 'id': 'eggsalad', 'src': '/static/foodstim60/eggsalad.jpg', 'key': 'u', 'origWidth': 410, 'origHeight': 409, 'width': 410, 'height': 409, 'widthPercent': 0.45, 'rescaleHeight': False, 'trialN': 45, 'loaded': True, 'loadedTime': 2640, 'positionName': 'LEFT', 'positionCoords': [511.6, 335.5], 'bid': 2.64}, {'imgObject': {}, 'id': 'cocktailshrimp', 'src': '/static/foodstim60/cocktailshrimp.jpg', 'key': 'i', 'origWidth': 410, 'origHeight': 410, 'width': 410, 'height': 410, 'widthPercent': 0.45, 'rescaleHeight': False, 'trialN': 45, 'loaded': True, 'loadedTime': 2550.800000000745, 'positionName': 'RIGHT', 'positionCoords': [998.4, 335], 'bid': 9.82}]",75520.89999999851,1669831715868,eggsalad,cocktailshrimp,2.64,9.82,7.18,cocktailshrimp,1021.6999999992549,1022,1021.9000000022352,True,i,77050.80000000075,1529.9000000022352,1669831717398,1530,HRV,HRV_0137,2022-11-30 18:12:04
46,"[{'imgObject': {}, 'id': 'luckycharms', 'src': '/static/foodstim60/luckycharms.jpg', 'key': 'u', 'origWidth': 410, 'origHeight': 409, 'width': 410, 'height': 409, 'widthPercent': 0.45, 'rescaleHeight': False, 'trialN': 46, 'loaded': True, 'loadedTime': 2399.199999999255, 'positionName': 'LEFT', 'positionCoords': [511.6, 335.5], 'bid': 1.26}, {'imgObject': {}, 'id': 'omelette', 'src': '/static/foodstim60/omelette.jpg', 'key': 'i', 'origWidth': 410, 'origHeight': 409, 'width': 410, 'height': 409, 'widthPercent': 0.45, 'rescaleHeight': False, 'trialN': 46, 'loaded': True, 'loadedTime': 2515, 'positionName': 'RIGHT', 'positionCoords': [998.4, 335.5], 'bid': 1.19}]",77050.89999999851,1669831717398,luckycharms,omelette,1.26,1.19,-0.07000000000000006,luckycharms,892.1999999992549,892,892.3000000007451,True,u,78455.39999999851,1404.5,1669831718803,1405,HRV,HRV_0137,2022-11-30 18:12:04
47,"[{'imgObject': {}, 'id': 'fried eggs', 'src': '/static/foodstim60/fried eggs.jpg', 'key': 'u', 'origWidth': 410, 'origHeight': 410, 'width': 410, 'height': 410, 'widthPercent': 0.45, 'rescaleHeight': False, 'trialN': 47, 'loaded': True, 'loadedTime': 2641.39999999851, 'positionName': 'LEFT', 'positionCoords': [511.6, 335], 'bid': 2.11}, {'imgObject': {}, 'id': 'hashbrowns', 'src': '/static/foodstim60/hashbrowns.jpg', 'key': 'i', 'origWidth': 411, 'origHeight': 410, 'width': 411, 'height': 410, 'widthPercent': 0.45, 'rescaleHeight': False, 'trialN': 47, 'loaded': True, 'loadedTime': 2596, 'positionName': 'RIGHT', 'positionCoords': [998.4, 335], 'bid': 3.8}]",78455.5,1669831718803,fried eggs,hashbrowns,2.11,3.8,1.69,fried eggs,1479.3999999985099,1479,1479.699999999255,True,u,80447.59999999776,1992.0999999977648,1669831720795,1992,HRV,HRV_0137,2022-11-30 18:12:04
48,"[{'imgObject': {}, 'id': 'lox', 'src': '/static/foodstim60/lox.jpg', 'key': 'u', 'origWidth': 410, 'origHeight': 411, 'width': 410, 'height': 411, 'widthPercent': 0.45, 'rescaleHeight': False, 'trialN': 48, 'loaded': True, 'loadedTime': 2138.199999999255, 'positionName': 'LEFT', 'positionCoords': [511.6, 334.5], 'bid': 10}, {'imgObject': {}, 'id': 'ice cream sundae 002', 'src': '/static/foodstim60/ice cream sundae 002.jpg', 'key': 'i', 'origWidth': 409, 'origHeight': 409, 'width': 409, 'height': 409, 'widthPercent': 0.45, 'rescaleHeight': False, 'trialN': 48, 'loaded': True, 'loadedTime': 2643.39999999851, 'positionName': 'RIGHT', 'positionCoords': [998.4, 335.5], 'bid': 9.9}]",80447.59999999776,1669831720795,lox,ice cream sundae 002,10.0,9.9,-0.09999999999999964,ice cream sundae 002,742.7000000029802,743,742.9000000022352,True,i,81700.0,1252.4000000022352,1669831722047,1252,HRV,HRV_0137,2022-11-30 18:12:04
49,"[{'imgObject': {}, 'id': 'cheerios', 'src': '/static/foodstim60/cheerios.jpg', 'key': 'u', 'origWidth': 409, 'origHeight': 410, 'width': 409, 'height': 410, 'widthPercent': 0.45, 'rescaleHeight': False, 'trialN': 49, 'loaded': True, 'loadedTime': 2479.599999997765, 'positionName': 'LEFT', 'positionCoords': [512.6, 335], 'bid': 7.61}, {'imgObject': {}, 'id': 'cherry tomato', 'src': '/static/foodstim60/cherry tomato.jpg', 'key': 'i', 'origWidth': 410, 'origHeight': 410, 'width': 410, 'height': 410, 'widthPercent': 0.45, 'rescaleHeight': False, 'trialN': 49, 'loaded': True, 'loadedTime': 2543.699999999255, 'positionName': 'RIGHT', 'positionCoords': [998.4, 335], 'bid': 8.8}]",81700.09999999776,1669831722047,cheerios,cherry tomato,7.61,8.8,1.1900000000000004,cheerios,1218.6000000014901,1219,1218.800000000745,True,u,83419.69999999925,1719.6000000014901,1669831723767,1720,HRV,HRV_0137,2022-11-30 18:12:04
50,"[{'imgObject': {}, 'id': 'tacos', 'src': '/static/foodstim60/tacos.jpg', 'key': 'u', 'origWidth': 411, 'origHeight': 411, 'width': 411, 'height': 411, 'widthPercent': 0.45, 'rescaleHeight': False, 'trialN': 50, 'loaded': True, 'loadedTime': 2415.300000000745, 'positionName': 'LEFT', 'positionCoords': [510.6, 334.5], 'bid': 9.91}, {'imgObject': {}, 'id': 'chicken nuggets2', 'src': '/static/foodstim60/chicken nuggets2.jpg', 'key': 'i', 'origWidth': 410, 'origHeight': 409, 'width': 410, 'height': 409, 'widthPercent': 0.45, 'rescaleHeight': False, 'trialN': 50, 'loaded': True, 'loadedTime': 2232.39999999851, 'positionName': 'RIGHT', 'positionCoords': [998.4, 335.5], 'bid': 9.6}]",83419.69999999925,1669831723767,tacos,chicken nuggets2,9.91,9.6,-0.3100000000000005,tacos,1642.8999999985099,1643,1643.199999999255,True,u,85570.69999999925,2151.0,1669831725918,2151,HRV,HRV_0137,2022-11-30 18:12:04
51,"[{'imgObject': {}, 'id': 'strawberries', 'src': '/static/foodstim60/strawberries.jpg', 'key': 'u', 'origWidth': 410, 'origHeight': 410, 'width': 410, 'height': 410, 'widthPercent': 0.45, 'rescaleHeight': False, 'trialN': 51, 'loaded': True, 'loadedTime': 2646.39999999851, 'positionName': 'LEFT', 'positionCoords': [511.6, 335], 'bid': 1.92}, {'imgObject': {}, 'id': 'rigatoni', 'src': '/static/foodstim60/rigatoni.jpg', 'key': 'i', 'origWidth': 411, 'origHeight': 411, 'width': 411, 'height': 411, 'widthPercent': 0.45, 'rescaleHeight': False, 'trialN': 51, 'loaded': True, 'loadedTime': 2664.300000000745, 'positionName': 'RIGHT', 'positionCoords': [998.4, 334.5], 'bid': 1.71}]",85570.69999999925,1669831725918,strawberries,rigatoni,1.92,1.71,-0.20999999999999996,strawberries,1251.699999999255,1252,1252.0,True,u,87333.19999999925,1762.5,1669831727680,1762,HRV,HRV_0137,2022-11-30 18:12:04
52,"[{'imgObject': {}, 'id': 'banana', 'src': '/static/foodstim60/banana.jpg', 'key': 'u', 'origWidth': 410, 'origHeight': 410, 'width': 410, 'height': 410, 'widthPercent': 0.45, 'rescaleHeight': False, 'trialN': 52, 'loaded': True, 'loadedTime': 2215.800000000745, 'positionName': 'LEFT', 'positionCoords': [511.6, 335], 'bid': 8.64}, {'imgObject': {}, 'id': 'kiwi', 'src': '/static/foodstim60/kiwi.jpg', 'key': 'i', 'origWidth': 410, 'origHeight': 410, 'width': 410, 'height': 410, 'widthPercent': 0.45, 'rescaleHeight': False, 'trialN': 52, 'loaded': True, 'loadedTime': 2602.699999999255, 'positionName': 'RIGHT', 'positionCoords': [998.4, 335], 'bid': 7.1000000000000005}]",87333.30000000075,1669831727680,banana,kiwi,8.64,7.1000000000000005,-1.54,kiwi,832.7999999970198,833,833.0,True,i,88680.19999999925,1346.8999999985099,1669831729027,1347,HRV,HRV_0137,2022-11-30 18:12:04
53,"[{'imgObject': {}, 'id': 'pear', 'src': '/static/foodstim60/pear.jpg', 'key': 'u', 'origWidth': 411, 'origHeight': 410, 'width': 411, 'height': 410, 'widthPercent': 0.45, 'rescaleHeight': False, 'trialN': 53, 'loaded': True, 'loadedTime': 2563.39999999851, 'positionName': 'LEFT', 'positionCoords': [510.6, 335], 'bid': 5.28}, {'imgObject': {}, 'id': 'popsicles', 'src': '/static/foodstim60/popsicles.jpg', 'key': 'i', 'origWidth': 410, 'origHeight': 410, 'width': 410, 'height': 410, 'widthPercent': 0.45, 'rescaleHeight': False, 'trialN': 53, 'loaded': True, 'loadedTime': 2624.5, 'positionName': 'RIGHT', 'positionCoords': [998.4, 335], 'bid': 0.62}]",88680.30000000075,1669831729028,pear,popsicles,5.28,0.62,-4.66,popsicles,3110.0,3110,3110.2999999970198,True,i,92301.39999999851,3621.099999997765,1669831732649,3621,HRV,HRV_0137,2022-11-30 18:12:04
54,"[{'imgObject': {}, 'id': 'mango', 'src': '/static/foodstim60/mango.jpg', 'key': 'u', 'origWidth': 411, 'origHeight': 411, 'width': 411, 'height': 411, 'widthPercent': 0.45, 'rescaleHeight': False, 'trialN': 54, 'loaded': True, 'loadedTime': 2153.89999999851, 'positionName': 'LEFT', 'positionCoords': [510.6, 334.5], 'bid': 6.62}, {'imgObject': {}, 'id': 'grilled chicken strips', 'src': '/static/foodstim60/grilled chicken strips.jpg', 'key': 'i', 'origWidth': 410, 'origHeight': 411, 'width': 410, 'height': 411, 'widthPercent': 0.45, 'rescaleHeight': False, 'trialN': 54, 'loaded': True, 'loadedTime': 2211.800000000745, 'positionName': 'RIGHT', 'positionCoords': [998.4, 334.5], 'bid': 10}]",92301.5,1669831732649,mango,grilled chicken strips,6.62,10.0,3.38,grilled chicken strips,824.5999999977648,825,824.8000000007451,True,i,93630.39999999851,1328.8999999985099,1669831733978,1329,HRV,HRV_0137,2022-11-30 18:12:04
55,"[{'imgObject': {}, 'id': 'turkey sandwich', 'src': '/static/foodstim60/turkey sandwich.jpg', 'key': 'u', 'origWidth': 409, 'origHeight': 409, 'width': 409, 'height': 409, 'widthPercent': 0.45, 'rescaleHeight': False, 'trialN': 55, 'loaded': True, 'loadedTime': 2668.5, 'positionName': 'LEFT', 'positionCoords': [512.6, 335.5], 'bid': 9.79}, {'imgObject': {}, 'id': 'cantaloupe', 'src': '/static/foodstim60/cantaloupe.jpg', 'key': 'i', 'origWidth': 409, 'origHeight': 409, 'width': 409, 'height': 409, 'widthPercent': 0.45, 'rescaleHeight': False, 'trialN': 55, 'loaded': True, 'loadedTime': 2581.300000000745, 'positionName': 'RIGHT', 'positionCoords': [998.4, 335.5], 'bid': 2.21}]",93630.39999999851,1669831733978,turkey sandwich,cantaloupe,9.79,2.21,-7.579999999999999,turkey sandwich,1223.699999999255,1224,1224.0,True,u,95358.0,1727.6000000014901,1669831735705,1727,HRV,HRV_0137,2022-11-30 18:12:04
56,"[{'imgObject': {}, 'id': 'mashed potato', 'src': '/static/foodstim60/mashed potato.jpg', 'key': 'u', 'origWidth': 409, 'origHeight': 409, 'width': 409, 'height': 409, 'widthPercent': 0.45, 'rescaleHeight': False, 'trialN': 56, 'loaded': True, 'loadedTime': 2676.099999997765, 'positionName': 'LEFT', 'positionCoords': [512.6, 335.5], 'bid': 0}, {'imgObject': {}, 'id': 'eggsalad', 'src': '/static/foodstim60/eggsalad.jpg', 'key': 'i', 'origWidth': 410, 'origHeight': 409, 'width': 410, 'height': 409, 'widthPercent': 0.45, 'rescaleHeight': False, 'trialN': 56, 'loaded': True, 'loadedTime': 2637.39999999851, 'positionName': 'RIGHT', 'positionCoords': [998.4, 335.5], 'bid': 2.64}]",95358.09999999776,1669831735705,mashed potato,eggsalad,0.0,2.64,2.64,eggsalad,1871.7000000029802,1861,1872.0,True,i,97733.69999999925,2375.60000000149,1669831738069,2364,HRV,HRV_0137,2022-11-30 18:12:04
57,"[{'imgObject': {}, 'id': 'apple slices', 'src': '/static/foodstim60/apple slices.jpg', 'key': 'u', 'origWidth': 409, 'origHeight': 410, 'width': 409, 'height': 410, 'widthPercent': 0.45, 'rescaleHeight': False, 'trialN': 57, 'loaded': True, 'loadedTime': 2453.89999999851, 'positionName': 'LEFT', 'positionCoords': [512.6, 335], 'bid': 6.3100000000000005}, {'imgObject': {}, 'id': 'rigatoni and sauce', 'src': '/static/foodstim60/rigatoni and sauce.jpg', 'key': 'i', 'origWidth': 410, 'origHeight': 411, 'width': 410, 'height': 411, 'widthPercent': 0.45, 'rescaleHeight': False, 'trialN': 57, 'loaded': True, 'loadedTime': 2334.300000000745, 'positionName': 'RIGHT', 'positionCoords': [998.4, 334.5], 'bid': 1.68}]",97733.89999999851,1669831738069,apple slices,rigatoni and sauce,6.3100000000000005,1.68,-4.630000000000001,apple slices,1000.1000000014901,1001,1000.1999999992549,True,u,99244.69999999925,1510.800000000745,1669831739580,1511,HRV,HRV_0137,2022-11-30 18:12:04
58,"[{'imgObject': {}, 'id': 'roastedpotatoes', 'src': '/static/foodstim60/roastedpotatoes.jpg', 'key': 'u', 'origWidth': 409, 'origHeight': 410, 'width': 409, 'height': 410, 'widthPercent': 0.45, 'rescaleHeight': False, 'trialN': 58, 'loaded': True, 'loadedTime': 2062.099999997765, 'positionName': 'LEFT', 'positionCoords': [512.6, 335], 'bid': 10}, {'imgObject': {}, 'id': 'turkey sandwich', 'src': '/static/foodstim60/turkey sandwich.jpg', 'key': 'i', 'origWidth': 409, 'origHeight': 409, 'width': 409, 'height': 409, 'widthPercent': 0.45, 'rescaleHeight': False, 'trialN': 58, 'loaded': True, 'loadedTime': 2671.800000000745, 'positionName': 'RIGHT', 'positionCoords': [998.4, 335.5], 'bid': 9.79}]",99244.80000000075,1669831739580,roastedpotatoes,turkey sandwich,10.0,9.79,-0.21000000000000085,roastedpotatoes,1809.0,1810,1809.199999999255,True,u,101558.5,2313.699999999255,1669831741894,2314,HRV,HRV_0137,2022-11-30 18:12:04
59,"[{'imgObject': {}, 'id': 'salmon', 'src': '/static/foodstim60/salmon.jpg', 'key': 'u', 'origWidth': 410, 'origHeight': 409, 'width': 410, 'height': 409, 'widthPercent': 0.45, 'rescaleHeight': False, 'trialN': 59, 'loaded': True, 'loadedTime': 2676.800000000745, 'positionName': 'LEFT', 'positionCoords': [511.6, 335.5], 'bid': 9.53}, {'imgObject': {}, 'id': 'fruitsalad', 'src': '/static/foodstim60/fruitsalad.jpg', 'key': 'i', 'origWidth': 410, 'origHeight': 410, 'width': 410, 'height': 410, 'widthPercent': 0.45, 'rescaleHeight': False, 'trialN': 59, 'loaded': True, 'loadedTime': 2681.599999997765, 'positionName': 'RIGHT', 'positionCoords': [998.4, 335], 'bid': 9.51}]",101558.69999999925,1669831741894,salmon,fruitsalad,9.53,9.51,-0.019999999999999574,salmon,1135.1000000014901,1136,1135.300000000745,True,u,103198.19999999925,1639.5,1669831743534,1640,HRV,HRV_0137,2022-11-30 18:12:04
60,"[{'imgObject': {}, 'id': 'salad w chicken', 'src': '/static/foodstim60/salad w chicken.jpg', 'key': 'u', 'origWidth': 411, 'origHeight': 411, 'width': 411, 'height': 411, 'widthPercent': 0.45, 'rescaleHeight': False, 'trialN': 60, 'loaded': True, 'loadedTime': 2112.800000000745, 'positionName': 'LEFT', 'positionCoords': [510.6, 334.5], 'bid': 9.23}, {'imgObject': {}, 'id': 'omelette', 'src': '/static/foodstim60/omelette.jpg', 'key': 'i', 'origWidth': 410, 'origHeight': 409, 'width': 410, 'height': 409, 'widthPercent': 0.45, 'rescaleHeight': False, 'trialN': 60, 'loaded': True, 'loadedTime': 2520.699999999255, 'positionName': 'RIGHT', 'positionCoords': [998.4, 335.5], 'bid': 1.19}]",103198.30000000075,1669831743534,salad w chicken,omelette,9.23,1.19,-8.040000000000001,salad w chicken,1007.0,1007,1007.1999999992549,True,u,104714.39999999851,1516.0999999977648,1669831745050,1516,HRV,HRV_0137,2022-11-30 18:12:04
61,"[{'imgObject': {}, 'id': 'ice cream sundae 002', 'src': '/static/foodstim60/ice cream sundae 002.jpg', 'key': 'u', 'origWidth': 409, 'origHeight': 409, 'width': 409, 'height': 409, 'widthPercent': 0.45, 'rescaleHeight': False, 'trialN': 61, 'loaded': True, 'loadedTime': 2643.099999997765, 'positionName': 'LEFT', 'positionCoords': [512.6, 335.5], 'bid': 9.9}, {'imgObject': {}, 'id': 'grilled chicken strips', 'src': '/static/foodstim60/grilled chicken strips.jpg', 'key': 'i', 'origWidth': 410, 'origHeight': 411, 'width': 410, 'height': 411, 'widthPercent': 0.45, 'rescaleHeight': False, 'trialN': 61, 'loaded': True, 'loadedTime': 2200.099999997765, 'positionName': 'RIGHT', 'positionCoords': [998.4, 334.5], 'bid': 10}]",104714.5,1669831745050,ice cream sundae 002,grilled chicken strips,9.9,10.0,0.09999999999999964,grilled chicken strips,2627.199999999255,2628,2627.39999999851,True,i,107842.89999999851,3128.39999999851,1669831748179,3129,HRV,HRV_0137,2022-11-30 18:12:04
62,"[{'imgObject': {}, 'id': 'burrito', 'src': '/static/foodstim60/burrito.jpg', 'key': 'u', 'origWidth': 410, 'origHeight': 410, 'width': 410, 'height': 410, 'widthPercent': 0.45, 'rescaleHeight': False, 'trialN': 62, 'loaded': True, 'loadedTime': 2486.599999997765, 'positionName': 'LEFT', 'positionCoords': [511.6, 335], 'bid': 2.4}, {'imgObject': {}, 'id': 'fried eggs', 'src': '/static/foodstim60/fried eggs.jpg', 'key': 'i', 'origWidth': 410, 'origHeight': 410, 'width': 410, 'height': 410, 'widthPercent': 0.45, 'rescaleHeight': False, 'trialN': 62, 'loaded': True, 'loadedTime': 2640.300000000745, 'positionName': 'RIGHT', 'positionCoords': [998.4, 335], 'bid': 2.11}]",107843.0,1669831748179,burrito,fried eggs,2.4,2.11,-0.29000000000000004,fried eggs,1962.3999999985099,1962,1962.699999999255,True,i,110319.0,2476.0,1669831750655,2476,HRV,HRV_0137,2022-11-30 18:12:04
63,"[{'imgObject': {}, 'id': 'baked potato', 'src': '/static/foodstim60/baked potato.jpg', 'key': 'u', 'origWidth': 409, 'origHeight': 410, 'width': 409, 'height': 410, 'widthPercent': 0.45, 'rescaleHeight': False, 'trialN': 63, 'loaded': True, 'loadedTime': 2686.300000000745, 'positionName': 'LEFT', 'positionCoords': [512.6, 335], 'bid': 9.89}, {'imgObject': {}, 'id': 'hashbrowns', 'src': '/static/foodstim60/hashbrowns.jpg', 'key': 'i', 'origWidth': 411, 'origHeight': 410, 'width': 411, 'height': 410, 'widthPercent': 0.45, 'rescaleHeight': False, 'trialN': 63, 'loaded': True, 'loadedTime': 2592.199999999255, 'positionName': 'RIGHT', 'positionCoords': [998.4, 335], 'bid': 3.8}]",110319.09999999776,1669831750655,baked potato,hashbrowns,9.89,3.8,-6.090000000000001,baked potato,1110.300000000745,1110,1110.5,True,u,111937.69999999925,1618.6000000014901,1669831752273,1618,HRV,HRV_0137,2022-11-30 18:12:04
64,"[{'imgObject': {}, 'id': 'raisin bran w milk', 'src': '/static/foodstim60/raisin bran w milk.jpg', 'key': 'u', 'origWidth': 411, 'origHeight': 411, 'width': 411, 'height': 411, 'widthPercent': 0.45, 'rescaleHeight': False, 'trialN': 64, 'loaded': True, 'loadedTime': 2318.89999999851, 'positionName': 'LEFT', 'positionCoords': [510.6, 334.5], 'bid': 6.4}, {'imgObject': {}, 'id': 'burger', 'src': '/static/foodstim60/burger.jpg', 'key': 'i', 'origWidth': 409, 'origHeight': 409, 'width': 409, 'height': 409, 'widthPercent': 0.45, 'rescaleHeight': False, 'trialN': 64, 'loaded': True, 'loadedTime': 2254.39999999851, 'positionName': 'RIGHT', 'positionCoords': [998.4, 335.5], 'bid': 9.96}]",111937.80000000075,1669831752273,raisin bran w milk,burger,6.4,9.96,3.5600000000000005,burger,1003.5,1004,1003.5999999977648,True,i,113449.09999999776,1511.2999999970198,1669831753785,1512,HRV,HRV_0137,2022-11-30 18:12:04
65,"[{'imgObject': {}, 'id': 'seaweed', 'src': '/static/foodstim60/seaweed.jpg', 'key': 'u', 'origWidth': 410, 'origHeight': 410, 'width': 410, 'height': 410, 'widthPercent': 0.45, 'rescaleHeight': False, 'trialN': 65, 'loaded': True, 'loadedTime': 2419.39999999851, 'positionName': 'LEFT', 'positionCoords': [511.6, 335], 'bid': 5.4}, {'imgObject': {}, 'id': 'apple slices', 'src': '/static/foodstim60/apple slices.jpg', 'key': 'i', 'origWidth': 409, 'origHeight': 410, 'width': 409, 'height': 410, 'widthPercent': 0.45, 'rescaleHeight': False, 'trialN': 65, 'loaded': True, 'loadedTime': 2454, 'positionName': 'RIGHT', 'positionCoords': [998.4, 335], 'bid': 6.3100000000000005}]",113449.19999999925,1669831753785,seaweed,apple slices,5.4,6.3100000000000005,0.9100000000000001,seaweed,1875.6000000014901,1876,1875.800000000745,True,u,115834.19999999925,2385.0,1669831756170,2385,HRV,HRV_0137,2022-11-30 18:12:04
66,"[{'imgObject': {}, 'id': 'avocado', 'src': '/static/foodstim60/avocado.jpg', 'key': 'u', 'origWidth': 409, 'origHeight': 409, 'width': 409, 'height': 409, 'widthPercent': 0.45, 'rescaleHeight': False, 'trialN': 66, 'loaded': True, 'loadedTime': 2495.300000000745, 'positionName': 'LEFT', 'positionCoords': [512.6, 335.5], 'bid': 9.81}, {'imgObject': {}, 'id': 'Tribe humus pita', 'src': '/static/foodstim60/Tribe humus pita.jpg', 'key': 'i', 'origWidth': 411, 'origHeight': 411, 'width': 411, 'height': 411, 'widthPercent': 0.45, 'rescaleHeight': False, 'trialN': 66, 'loaded': True, 'loadedTime': 2620.199999999255, 'positionName': 'RIGHT', 'positionCoords': [998.4, 334.5], 'bid': 9.86}]",115834.30000000075,1669831756170,avocado,Tribe humus pita,9.81,9.86,0.049999999999998934,avocado,1530.8999999985099,1531,1531.0999999977648,True,u,117873.69999999925,2039.3999999985099,1669831758209,2039,HRV,HRV_0137,2022-11-30 18:12:04
67,"[{'imgObject': {}, 'id': 'kiwi', 'src': '/static/foodstim60/kiwi.jpg', 'key': 'u', 'origWidth': 410, 'origHeight': 410, 'width': 410, 'height': 410, 'widthPercent': 0.45, 'rescaleHeight': False, 'trialN': 67, 'loaded': True, 'loadedTime': 2606.699999999255, 'positionName': 'LEFT', 'positionCoords': [511.6, 335], 'bid': 7.1000000000000005}, {'imgObject': {}, 'id': 'veggieswithdip', 'src': '/static/foodstim60/veggieswithdip.jpg', 'key': 'i', 'origWidth': 409, 'origHeight': 409, 'width': 409, 'height': 409, 'widthPercent': 0.45, 'rescaleHeight': False, 'trialN': 67, 'loaded': True, 'loadedTime': 2688, 'positionName': 'RIGHT', 'positionCoords': [998.4, 335.5], 'bid': 6.69}]",117873.69999999925,1669831758209,kiwi,veggieswithdip,7.1000000000000005,6.69,-0.41000000000000014,kiwi,899.3999999985099,900,899.6000000014901,True,u,119274.09999999776,1400.3999999985099,1669831759610,1401,HRV,HRV_0137,2022-11-30 18:12:04
68,"[{'imgObject': {}, 'id': 'salmon', 'src': '/static/foodstim60/salmon.jpg', 'key': 'u', 'origWidth': 410, 'origHeight': 409, 'width': 410, 'height': 409, 'widthPercent': 0.45, 'rescaleHeight': False, 'trialN': 68, 'loaded': True, 'loadedTime': 2681.099999997765, 'positionName': 'LEFT', 'positionCoords': [511.6, 335.5], 'bid': 9.53}, {'imgObject': {}, 'id': 'shreddedwheatwithmilk', 'src': '/static/foodstim60/shreddedwheatwithmilk.jpg', 'key': 'i', 'origWidth': 410, 'origHeight': 410, 'width': 410, 'height': 410, 'widthPercent': 0.45, 'rescaleHeight': False, 'trialN': 68, 'loaded': True, 'loadedTime': 2089.89999999851, 'positionName': 'RIGHT', 'positionCoords': [998.4, 335], 'bid': 9.47}]",119274.09999999776,1669831759610,salmon,shreddedwheatwithmilk,9.53,9.47,-0.05999999999999872,salmon,1042.300000000745,1042,1042.6000000014901,True,u,120821.19999999925,1547.1000000014901,1669831761157,1547,HRV,HRV_0137,2022-11-30 18:12:04
69,"[{'imgObject': {}, 'id': 'seaweed', 'src': '/static/foodstim60/seaweed.jpg', 'key': 'u', 'origWidth': 410, 'origHeight': 410, 'width': 410, 'height': 410, 'widthPercent': 0.45, 'rescaleHeight': False, 'trialN': 69, 'loaded': True, 'loadedTime': 2415.5, 'positionName': 'LEFT', 'positionCoords': [511.6, 335], 'bid': 5.4}, {'imgObject': {}, 'id': 'eggsalad', 'src': '/static/foodstim60/eggsalad.jpg', 'key': 'i', 'origWidth': 410, 'origHeight': 409, 'width': 410, 'height': 409, 'widthPercent': 0.45, 'rescaleHeight': False, 'trialN': 69, 'loaded': True, 'loadedTime': 2640.099999997765, 'positionName': 'RIGHT', 'positionCoords': [998.4, 335.5], 'bid': 2.64}]",120821.30000000075,1669831761157,seaweed,eggsalad,5.4,2.64,-2.7600000000000002,seaweed,903.6999999992549,904,903.7999999970198,True,u,122236.69999999925,1415.3999999985099,1669831762572,1415,HRV,HRV_0137,2022-11-30 18:12:04
70,"[{'imgObject': {}, 'id': 'veggieswithdip', 'src': '/static/foodstim60/veggieswithdip.jpg', 'key': 'u', 'origWidth': 409, 'origHeight': 409, 'width': 409, 'height': 409, 'widthPercent': 0.45, 'rescaleHeight': False, 'trialN': 70, 'loaded': True, 'loadedTime': 2689.199999999255, 'positionName': 'LEFT', 'positionCoords': [512.6, 335.5], 'bid': 6.69}, {'imgObject': {}, 'id': 'salad w chicken', 'src': '/static/foodstim60/salad w chicken.jpg', 'key': 'i', 'origWidth': 411, 'origHeight': 411, 'width': 411, 'height': 411, 'widthPercent': 0.45, 'rescaleHeight': False, 'trialN': 70, 'loaded': True, 'loadedTime': 2104.89999999851, 'positionName': 'RIGHT', 'positionCoords': [998.4, 334.5], 'bid': 9.23}]",122236.80000000075,1669831762572,veggieswithdip,salad w chicken,6.69,9.23,2.54,salad w chicken,720.1999999992549,721,720.2999999970198,True,i,123465.69999999925,1228.8999999985099,1669831763801,1229,HRV,HRV_0137,2022-11-30 18:12:04
71,"[{'imgObject': {}, 'id': 'raisin bran w milk', 'src': '/static/foodstim60/raisin bran w milk.jpg', 'key': 'u', 'origWidth': 411, 'origHeight': 411, 'width': 411, 'height': 411, 'widthPercent': 0.45, 'rescaleHeight': False, 'trialN': 71, 'loaded': True, 'loadedTime': 2312.300000000745, 'positionName': 'LEFT', 'positionCoords': [510.6, 334.5], 'bid': 6.4}, {'imgObject': {}, 'id': 'mango', 'src': '/static/foodstim60/mango.jpg', 'key': 'i', 'origWidth': 411, 'origHeight': 411, 'width': 411, 'height': 411, 'widthPercent': 0.45, 'rescaleHeight': False, 'trialN': 71, 'loaded': True, 'loadedTime': 2140.599999997765, 'positionName': 'RIGHT', 'positionCoords': [998.4, 334.5], 'bid': 6.62}]",123465.80000000075,1669831763801,raisin bran w milk,mango,6.4,6.62,0.21999999999999975,raisin bran w milk,1250.8999999985099,1252,1251.199999999255,True,u,125229.80000000075,1764.0,1669831765565,1764,HRV,HRV_0137,2022-11-30 18:12:04
72,"[{'imgObject': {}, 'id': 'salmon', 'src': '/static/foodstim60/salmon.jpg', 'key': 'u', 'origWidth': 410, 'origHeight': 409, 'width': 410, 'height': 409, 'widthPercent': 0.45, 'rescaleHeight': False, 'trialN': 72, 'loaded': True, 'loadedTime': 2681.5, 'positionName': 'LEFT', 'positionCoords': [511.6, 335.5], 'bid': 9.53}, {'imgObject': {}, 'id': 'cocktailshrimp', 'src': '/static/foodstim60/cocktailshrimp.jpg', 'key': 'i', 'origWidth': 410, 'origHeight': 410, 'width': 410, 'height': 410, 'widthPercent': 0.45, 'rescaleHeight': False, 'trialN': 72, 'loaded': True, 'loadedTime': 2548.099999997765, 'positionName': 'RIGHT', 'positionCoords': [998.4, 335], 'bid': 9.82}]",125229.89999999851,1669831765566,salmon,cocktailshrimp,9.53,9.82,0.2900000000000009,salmon,982.4000000022352,982,982.5,True,u,126720.39999999851,1490.5,1669831767056,1490,HRV,HRV_0137,2022-11-30 18:12:04
73,"[{'imgObject': {}, 'id': 'shreddedwheatwithmilk', 'src': '/static/foodstim60/shreddedwheatwithmilk.jpg', 'key': 'u', 'origWidth': 410, 'origHeight': 410, 'width': 410, 'height': 410, 'widthPercent': 0.45, 'rescaleHeight': False, 'trialN': 73, 'loaded': True, 'loadedTime': 2102.39999999851, 'positionName': 'LEFT', 'positionCoords': [511.6, 335], 'bid': 9.47}, {'imgObject': {}, 'id': 'luckycharms', 'src': '/static/foodstim60/luckycharms.jpg', 'key': 'i', 'origWidth': 410, 'origHeight': 409, 'width': 410, 'height': 409, 'widthPercent': 0.45, 'rescaleHeight': False, 'trialN': 73, 'loaded': True, 'loadedTime': 2402.300000000745, 'positionName': 'RIGHT', 'positionCoords': [998.4, 335.5], 'bid': 1.26}]",126720.39999999851,1669831767056,shreddedwheatwithmilk,luckycharms,9.47,1.26,-8.21,shreddedwheatwithmilk,1044.4000000022352,1045,1044.5,True,u,128279.5,1559.1000000014901,1669831768615,1559,HRV,HRV_0137,2022-11-30 18:12:04
74,"[{'imgObject': {}, 'id': 'fruitsalad', 'src': '/static/foodstim60/fruitsalad.jpg', 'key': 'u', 'origWidth': 410, 'origHeight': 410, 'width': 410, 'height': 410, 'widthPercent': 0.45, 'rescaleHeight': False, 'trialN': 74, 'loaded': True, 'loadedTime': 2686, 'positionName': 'LEFT', 'positionCoords': [511.6, 335], 'bid': 9.51}, {'imgObject': {}, 'id': 'cheerios', 'src': '/static/foodstim60/cheerios.jpg', 'key': 'i', 'origWidth': 409, 'origHeight': 410, 'width': 409, 'height': 410, 'widthPercent': 0.45, 'rescaleHeight': False, 'trialN': 74, 'loaded': True, 'loadedTime': 2471.099999997765, 'positionName': 'RIGHT', 'positionCoords': [998.4, 335], 'bid': 7.61}]",128279.5,1669831768615,fruitsalad,cheerios,9.51,7.61,-1.8999999999999995,fruitsalad,1596.8999999985099,1597,1597.199999999255,True,u,130390.5,2111.0,1669831770726,2111,HRV,HRV_0137,2022-11-30 18:12:04
75,"[{'imgObject': {}, 'id': 'avocado', 'src': '/static/foodstim60/avocado.jpg', 'key': 'u', 'origWidth': 409, 'origHeight': 409, 'width': 409, 'height': 409, 'widthPercent': 0.45, 'rescaleHeight': False, 'trialN': 75, 'loaded': True, 'loadedTime': 2504.599999997765, 'positionName': 'LEFT', 'positionCoords': [512.6, 335.5], 'bid': 9.81}, {'imgObject': {}, 'id': 'fruitsalad', 'src': '/static/foodstim60/fruitsalad.jpg', 'key': 'i', 'origWidth': 410, 'origHeight': 410, 'width': 410, 'height': 410, 'widthPercent': 0.45, 'rescaleHeight': False, 'trialN': 75, 'loaded': True, 'loadedTime': 2686.199999999255, 'positionName': 'RIGHT', 'positionCoords': [998.4, 335], 'bid': 9.51}]",130390.59999999776,1669831770726,avocado,fruitsalad,9.81,9.51,-0.3000000000000007,fruitsalad,757.4000000022352,758,757.6000000014901,True,i,131655.80000000075,1265.2000000029802,1669831771991,1265,HRV,HRV_0137,2022-11-30 18:12:04
76,"[{'imgObject': {}, 'id': 'banana', 'src': '/static/foodstim60/banana.jpg', 'key': 'u', 'origWidth': 410, 'origHeight': 410, 'width': 410, 'height': 410, 'widthPercent': 0.45, 'rescaleHeight': False, 'trialN': 76, 'loaded': True, 'loadedTime': 2221.300000000745, 'positionName': 'LEFT', 'positionCoords': [511.6, 335], 'bid': 8.64}, {'imgObject': {}, 'id': 'apple slices', 'src': '/static/foodstim60/apple slices.jpg', 'key': 'i', 'origWidth': 409, 'origHeight': 410, 'width': 409, 'height': 410, 'widthPercent': 0.45, 'rescaleHeight': False, 'trialN': 76, 'loaded': True, 'loadedTime': 2454.099999997765, 'positionName': 'RIGHT', 'positionCoords': [998.4, 335], 'bid': 6.3100000000000005}]",131655.80000000075,1669831771991,banana,apple slices,8.64,6.3100000000000005,-2.33,banana,860.5999999977648,861,860.7999999970198,True,u,133030.09999999776,1374.2999999970198,1669831773366,1375,HRV,HRV_0137,2022-11-30 18:12:04
77,"[{'imgObject': {}, 'id': 'Grapes', 'src': '/static/foodstim60/Grapes.jpg', 'key': 'u', 'origWidth': 411, 'origHeight': 411, 'width': 411, 'height': 411, 'widthPercent': 0.45, 'rescaleHeight': False, 'trialN': 77, 'loaded': True, 'loadedTime': 2164.300000000745, 'positionName': 'LEFT', 'positionCoords': [510.6, 334.5], 'bid': 8.57}, {'imgObject': {}, 'id': 'veggieswithdip', 'src': '/static/foodstim60/veggieswithdip.jpg', 'key': 'i', 'origWidth': 409, 'origHeight': 409, 'width': 409, 'height': 409, 'widthPercent': 0.45, 'rescaleHeight': False, 'trialN': 77, 'loaded': True, 'loadedTime': 2689.39999999851, 'positionName': 'RIGHT', 'positionCoords': [998.4, 335.5], 'bid': 6.69}]",133030.30000000075,1669831773366,Grapes,veggieswithdip,8.57,6.69,-1.88,Grapes,726.0999999977648,726,726.0999999977648,True,u,134272.0,1241.699999999255,1669831774608,1242,HRV,HRV_0137,2022-11-30 18:12:04
78,"[{'imgObject': {}, 'id': 'baked potato', 'src': '/static/foodstim60/baked potato.jpg', 'key': 'u', 'origWidth': 409, 'origHeight': 410, 'width': 409, 'height': 410, 'widthPercent': 0.45, 'rescaleHeight': False, 'trialN': 78, 'loaded': True, 'loadedTime': 2687.699999999255, 'positionName': 'LEFT', 'positionCoords': [512.6, 335], 'bid': 9.89}, {'imgObject': {}, 'id': 'tacos', 'src': '/static/foodstim60/tacos.jpg', 'key': 'i', 'origWidth': 411, 'origHeight': 411, 'width': 411, 'height': 411, 'widthPercent': 0.45, 'rescaleHeight': False, 'trialN': 78, 'loaded': True, 'loadedTime': 2406.300000000745, 'positionName': 'RIGHT', 'positionCoords': [998.4, 334.5], 'bid': 9.91}]",134272.09999999776,1669831774608,baked potato,tacos,9.89,9.91,0.019999999999999574,tacos,620.2000000029802,620,620.4000000022352,True,i,135398.59999999776,1126.5,1669831775734,1126,HRV,HRV_0137,2022-11-30 18:12:04
79,"[{'imgObject': {}, 'id': 'burrito', 'src': '/static/foodstim60/burrito.jpg', 'key': 'u', 'origWidth': 410, 'origHeight': 410, 'width': 410, 'height': 410, 'widthPercent': 0.45, 'rescaleHeight': False, 'trialN': 79, 'loaded': True, 'loadedTime': 2489.39999999851, 'positionName': 'LEFT', 'positionCoords': [511.6, 335], 'bid': 2.4}, {'imgObject': {}, 'id': 'popsicles', 'src': '/static/foodstim60/popsicles.jpg', 'key': 'i', 'origWidth': 410, 'origHeight': 410, 'width': 410, 'height': 410, 'widthPercent': 0.45, 'rescaleHeight': False, 'trialN': 79, 'loaded': True, 'loadedTime': 2628, 'positionName': 'RIGHT', 'positionCoords': [998.4, 335], 'bid': 0.62}]",135398.80000000075,1669831775734,burrito,popsicles,2.4,0.62,-1.7799999999999998,popsicles,901.3999999985099,902,901.5999999977648,True,i,136808.5,1409.699999999255,1669831777144,1410,HRV,HRV_0137,2022-11-30 18:12:04
80,"[{'imgObject': {}, 'id': 'veggieswithdip', 'src': '/static/foodstim60/veggieswithdip.jpg', 'key': 'u', 'origWidth': 409, 'origHeight': 409, 'width': 409, 'height': 409, 'widthPercent': 0.45, 'rescaleHeight': False, 'trialN': 80, 'loaded': True, 'loadedTime': 2689.5, 'positionName': 'LEFT', 'positionCoords': [512.6, 335.5], 'bid': 6.69}, {'imgObject': {}, 'id': 'strawberries', 'src': '/static/foodstim60/strawberries.jpg', 'key': 'i', 'origWidth': 410, 'origHeight': 410, 'width': 410, 'height': 410, 'widthPercent': 0.45, 'rescaleHeight': False, 'trialN': 80, 'loaded': True, 'loadedTime': 2650.199999999255, 'positionName': 'RIGHT', 'positionCoords': [998.4, 335], 'bid': 1.92}]",136808.5,1669831777144,veggieswithdip,strawberries,6.69,1.92,-4.7700000000000005,strawberries,867.6999999992549,868,867.8999999985099,True,i,138184.8999999985,1376.3999999985099,1669831778521,1377,HRV,HRV_0137,2022-11-30 18:12:04
81,"[{'imgObject': {}, 'id': 'cheerios', 'src': '/static/foodstim60/cheerios.jpg', 'key': 'u', 'origWidth': 409, 'origHeight': 410, 'width': 409, 'height': 410, 'widthPercent': 0.45, 'rescaleHeight': False, 'trialN': 81, 'loaded': True, 'loadedTime': 2473.800000000745, 'positionName': 'LEFT', 'positionCoords': [512.6, 335], 'bid': 7.61}, {'imgObject': {}, 'id': 'olives', 'src': '/static/foodstim60/olives.jpg', 'key': 'i', 'origWidth': 410, 'origHeight': 410, 'width': 410, 'height': 410, 'widthPercent': 0.45, 'rescaleHeight': False, 'trialN': 81, 'loaded': True, 'loadedTime': 2587.599999997765, 'positionName': 'RIGHT', 'positionCoords': [998.4, 335], 'bid': 8.040000000000001}]",138185.0,1669831778521,cheerios,olives,7.61,8.040000000000001,0.4300000000000006,cheerios,1050.699999999255,1051,1050.8999999985099,True,u,139745.09999999776,1560.0999999977648,1669831780081,1560,HRV,HRV_0137,2022-11-30 18:12:04
82,"[{'imgObject': {}, 'id': 'bagel plain', 'src': '/static/foodstim60/bagel plain.jpg', 'key': 'u', 'origWidth': 410, 'origHeight': 410, 'width': 410, 'height': 410, 'widthPercent': 0.45, 'rescaleHeight': False, 'trialN': 82, 'loaded': True, 'loadedTime': 2567.699999999255, 'positionName': 'LEFT', 'positionCoords': [511.6, 335], 'bid': 9.2}, {'imgObject': {}, 'id': 'orange slices', 'src': '/static/foodstim60/orange slices.jpg', 'key': 'i', 'origWidth': 409, 'origHeight': 410, 'width': 409, 'height': 410, 'widthPercent': 0.45, 'rescaleHeight': False, 'trialN': 82, 'loaded': True, 'loadedTime': 2047.5, 'positionName': 'RIGHT', 'positionCoords': [998.4, 335], 'bid': 7.7}]",139745.09999999776,1669831780081,bagel plain,orange slices,9.2,7.7,-1.4999999999999991,orange slices,706.8000000007451,707,707.1000000014901,True,i,140967.80000000075,1222.7000000029802,1669831781303,1222,HRV,HRV_0137,2022-11-30 18:12:04
83,"[{'imgObject': {}, 'id': 'cherry tomato', 'src': '/static/foodstim60/cherry tomato.jpg', 'key': 'u', 'origWidth': 410, 'origHeight': 410, 'width': 410, 'height': 410, 'widthPercent': 0.45, 'rescaleHeight': False, 'trialN': 83, 'loaded': True, 'loadedTime': 2543.800000000745, 'positionName': 'LEFT', 'positionCoords': [511.6, 335], 'bid': 8.8}, {'imgObject': {}, 'id': 'raisin bran w milk', 'src': '/static/foodstim60/raisin bran w milk.jpg', 'key': 'i', 'origWidth': 411, 'origHeight': 411, 'width': 411, 'height': 411, 'widthPercent': 0.45, 'rescaleHeight': False, 'trialN': 83, 'loaded': True, 'loadedTime': 2312.5, 'positionName': 'RIGHT', 'positionCoords': [998.4, 334.5], 'bid': 6.4}]",140968.0,1669831781304,cherry tomato,raisin bran w milk,8.8,6.4,-2.4000000000000004,raisin bran w milk,899.8000000007451,900,899.8999999985099,True,i,142383.30000000075,1415.300000000745,1669831782719,1415,HRV,HRV_0137,2022-11-30 18:12:04
84,"[{'imgObject': {}, 'id': 'luckycharms', 'src': '/static/foodstim60/luckycharms.jpg', 'key': 'u', 'origWidth': 410, 'origHeight': 409, 'width': 410, 'height': 409, 'widthPercent': 0.45, 'rescaleHeight': False, 'trialN': 84, 'loaded': True, 'loadedTime': 2402.099999997765, 'positionName': 'LEFT', 'positionCoords': [511.6, 335.5], 'bid': 1.26}, {'imgObject': {}, 'id': 'corn cob', 'src': '/static/foodstim60/corn cob.jpg', 'key': 'i', 'origWidth': 411, 'origHeight': 411, 'width': 411, 'height': 411, 'widthPercent': 0.45, 'rescaleHeight': False, 'trialN': 84, 'loaded': True, 'loadedTime': 2290.199999999255, 'positionName': 'RIGHT', 'positionCoords': [998.4, 334.5], 'bid': 3.41}]",142383.5,1669831782719,luckycharms,corn cob,1.26,3.41,2.1500000000000004,corn cob,860.0,860,860.0999999977648,True,i,143744.0,1360.5,1669831784080,1361,HRV,HRV_0137,2022-11-30 18:12:04
85,"[{'imgObject': {}, 'id': 'mac & cheese', 'src': '/static/foodstim60/mac & cheese.jpg', 'key': 'u', 'origWidth': 410, 'origHeight': 410, 'width': 410, 'height': 410, 'widthPercent': 0.45, 'rescaleHeight': False, 'trialN': 85, 'loaded': True, 'loadedTime': 2378, 'positionName': 'LEFT', 'positionCoords': [511.6, 335], 'bid': 0}, {'imgObject': {}, 'id': 'strawberries', 'src': '/static/foodstim60/strawberries.jpg', 'key': 'i', 'origWidth': 410, 'origHeight': 410, 'width': 410, 'height': 410, 'widthPercent': 0.45, 'rescaleHeight': False, 'trialN': 85, 'loaded': True, 'loadedTime': 2662.800000000745, 'positionName': 'RIGHT', 'positionCoords': [998.4, 335], 'bid': 1.92}]",143744.09999999776,1669831784080,mac & cheese,strawberries,0.0,1.92,1.92,mac & cheese,795.7000000029802,796,796.0,True,u,145046.5,1302.4000000022352,1669831785382,1302,HRV,HRV_0137,2022-11-30 18:12:04
86,"[{'imgObject': {}, 'id': 'baked potato', 'src': '/static/foodstim60/baked potato.jpg', 'key': 'u', 'origWidth': 409, 'origHeight': 410, 'width': 409, 'height': 410, 'widthPercent': 0.45, 'rescaleHeight': False, 'trialN': 86, 'loaded': True, 'loadedTime': 2688, 'positionName': 'LEFT', 'positionCoords': [512.6, 335], 'bid': 9.89}, {'imgObject': {}, 'id': 'banana', 'src': '/static/foodstim60/banana.jpg', 'key': 'i', 'origWidth': 410, 'origHeight': 410, 'width': 410, 'height': 410, 'widthPercent': 0.45, 'rescaleHeight': False, 'trialN': 86, 'loaded': True, 'loadedTime': 2218.5, 'positionName': 'RIGHT', 'positionCoords': [998.4, 335], 'bid': 8.64}]",145046.59999999776,1669831785382,baked potato,banana,9.89,8.64,-1.25,baked potato,725.2000000029802,726,725.4000000022352,True,u,146275.59999999776,1229.0,1669831786611,1229,HRV,HRV_0137,2022-11-30 18:12:04
87,"[{'imgObject': {}, 'id': 'sushi w_condiments', 'src': '/static/foodstim60/sushi w_condiments.jpg', 'key': 'u', 'origWidth': 410, 'origHeight': 410, 'width': 410, 'height': 410, 'widthPercent': 0.45, 'rescaleHeight': False, 'trialN': 87, 'loaded': True, 'loadedTime': 2188.599999997765, 'positionName': 'LEFT', 'positionCoords': [511.6, 335], 'bid': 9.94}, {'imgObject': {}, 'id': 'shreddedwheatwithmilk', 'src': '/static/foodstim60/shreddedwheatwithmilk.jpg', 'key': 'i', 'origWidth': 410, 'origHeight': 410, 'width': 410, 'height': 410, 'widthPercent': 0.45, 'rescaleHeight': False, 'trialN': 87, 'loaded': True, 'loadedTime': 2097.800000000745, 'positionName': 'RIGHT', 'positionCoords': [998.4, 335], 'bid': 9.47}]",146275.69999999925,1669831786611,sushi w_condiments,shreddedwheatwithmilk,9.94,9.47,-0.46999999999999886,sushi w_condiments,728.0,729,728.1999999992549,True,u,147512.09999999776,1236.3999999985099,1669831787848,1237,HRV,HRV_0137,2022-11-30 18:12:04
88,"[{'imgObject': {}, 'id': 'burger', 'src': '/static/foodstim60/burger.jpg', 'key': 'u', 'origWidth': 409, 'origHeight': 409, 'width': 409, 'height': 409, 'widthPercent': 0.45, 'rescaleHeight': False, 'trialN': 88, 'loaded': True, 'loadedTime': 2249.300000000745, 'positionName': 'LEFT', 'positionCoords': [512.6, 335.5], 'bid': 9.96}, {'imgObject': {}, 'id': 'baked potato', 'src': '/static/foodstim60/baked potato.jpg', 'key': 'i', 'origWidth': 409, 'origHeight': 410, 'width': 409, 'height': 410, 'widthPercent': 0.45, 'rescaleHeight': False, 'trialN': 88, 'loaded': True, 'loadedTime': 2687.5, 'positionName': 'RIGHT', 'positionCoords': [998.4, 335], 'bid': 9.89}]",147512.19999999925,1669831787848,burger,baked potato,9.96,9.89,-0.07000000000000028,burger,627.1000000014901,627,627.1999999992549,True,u,148642.80000000075,1130.6000000014901,1669831788978,1130,HRV,HRV_0137,2022-11-30 18:12:04
89,"[{'imgObject': {}, 'id': 'pear', 'src': '/static/foodstim60/pear.jpg', 'key': 'u', 'origWidth': 411, 'origHeight': 410, 'width': 411, 'height': 410, 'widthPercent': 0.45, 'rescaleHeight': False, 'trialN': 89, 'loaded': True, 'loadedTime': 2555, 'positionName': 'LEFT', 'positionCoords': [510.6, 335], 'bid': 5.28}, {'imgObject': {}, 'id': 'ice cream sundae 002', 'src': '/static/foodstim60/ice cream sundae 002.jpg', 'key': 'i', 'origWidth': 409, 'origHeight': 409, 'width': 409, 'height': 409, 'widthPercent': 0.45, 'rescaleHeight': False, 'trialN': 89, 'loaded': True, 'loadedTime': 2642.199999999255, 'positionName': 'RIGHT', 'positionCoords': [998.4, 335.5], 'bid': 9.9}]",148642.8999999985,1669831788978,pear,ice cream sundae 002,5.28,9.9,4.62,ice cream sundae 002,1024.800000000745,1026,1025.0,True,i,150178.8999999985,1536.0,1669831790514,1536,HRV,HRV_0137,2022-11-30 18:12:04
90,"[{'imgObject': {}, 'id': 'fried eggs', 'src': '/static/foodstim60/fried eggs.jpg', 'key': 'u', 'origWidth': 410, 'origHeight': 410, 'width': 410, 'height': 410, 'widthPercent': 0.45, 'rescaleHeight': False, 'trialN': 90, 'loaded': True, 'loadedTime': 2642, 'positionName': 'LEFT', 'positionCoords': [511.6, 335], 'bid': 2.11}, {'imgObject': {}, 'id': 'bagel and cc', 'src': '/static/foodstim60/bagel and cc.jpg', 'key': 'i', 'origWidth': 410, 'origHeight': 410, 'width': 410, 'height': 410, 'widthPercent': 0.45, 'rescaleHeight': False, 'trialN': 90, 'loaded': True, 'loadedTime': 2278.099999997765, 'positionName': 'RIGHT', 'positionCoords': [998.4, 335], 'bid': 9.72}]",153580.19999999925,1669831793916,fried eggs,bagel and cc,2.11,9.72,7.610000000000001,bagel and cc,1311.1000000014901,1311,1311.300000000745,True,i,155404.09999999776,1823.8999999985099,1669831795740,1824,HRV,HRV_0137,2022-11-30 18:12:04
91,"[{'imgObject': {}, 'id': 'turkey sandwich', 'src': '/static/foodstim60/turkey sandwich.jpg', 'key': 'u', 'origWidth': 409, 'origHeight': 409, 'width': 409, 'height': 409, 'widthPercent': 0.45, 'rescaleHeight': False, 'trialN': 91, 'loaded': True, 'loadedTime': 2671.89999999851, 'positionName': 'LEFT', 'positionCoords': [512.6, 335.5], 'bid': 9.79}, {'imgObject': {}, 'id': 'chickenfingers', 'src': '/static/foodstim60/chickenfingers.jpg', 'key': 'i', 'origWidth': 410, 'origHeight': 410, 'width': 410, 'height': 410, 'widthPercent': 0.45, 'rescaleHeight': False, 'trialN': 91, 'loaded': True, 'loadedTime': 2691.099999997765, 'positionName': 'RIGHT', 'positionCoords': [998.4, 335], 'bid': 9.95}]",155404.19999999925,1669831795740,turkey sandwich,chickenfingers,9.79,9.95,0.16000000000000014,chickenfingers,2031.0,2029,2031.199999999255,True,i,157941.3999999985,2537.199999999255,1669831798275,2535,HRV,HRV_0137,2022-11-30 18:12:04
92,"[{'imgObject': {}, 'id': 'strawberries', 'src': '/static/foodstim60/strawberries.jpg', 'key': 'u', 'origWidth': 410, 'origHeight': 410, 'width': 410, 'height': 410, 'widthPercent': 0.45, 'rescaleHeight': False, 'trialN': 92, 'loaded': True, 'loadedTime': 2662.699999999255, 'positionName': 'LEFT', 'positionCoords': [511.6, 335], 'bid': 1.92}, {'imgObject': {}, 'id': 'froot loops w milk', 'src': '/static/foodstim60/froot loops w milk.jpg', 'key': 'i', 'origWidth': 410, 'origHeight': 410, 'width': 410, 'height': 410, 'widthPercent': 0.45, 'rescaleHeight': False, 'trialN': 92, 'loaded': True, 'loadedTime': 2355.199999999255, 'positionName': 'RIGHT', 'positionCoords': [998.4, 335], 'bid': 1.69}]",157941.5,1669831798275,strawberries,froot loops w milk,1.92,1.69,-0.22999999999999998,strawberries,893.3000000007451,894,893.3999999985099,True,u,159336.0,1394.5,1669831799670,1395,HRV,HRV_0137,2022-11-30 18:12:04
93,"[{'imgObject': {}, 'id': 'kiwi', 'src': '/static/foodstim60/kiwi.jpg', 'key': 'u', 'origWidth': 410, 'origHeight': 410, 'width': 410, 'height': 410, 'widthPercent': 0.45, 'rescaleHeight': False, 'trialN': 93, 'loaded': True, 'loadedTime': 2615.5, 'positionName': 'LEFT', 'positionCoords': [511.6, 335], 'bid': 7.1000000000000005}, {'imgObject': {}, 'id': 'mango', 'src': '/static/foodstim60/mango.jpg', 'key': 'i', 'origWidth': 411, 'origHeight': 411, 'width': 411, 'height': 411, 'widthPercent': 0.45, 'rescaleHeight': False, 'trialN': 93, 'loaded': True, 'loadedTime': 2149, 'positionName': 'RIGHT', 'positionCoords': [998.4, 334.5], 'bid': 6.62}]",159336.09999999776,1669831799670,kiwi,mango,7.1000000000000005,6.62,-0.4800000000000004,kiwi,834.7000000029802,835,834.9000000022352,True,u,160675.30000000075,1339.2000000029802,1669831801009,1339,HRV,HRV_0137,2022-11-30 18:12:04
94,"[{'imgObject': {}, 'id': 'raspberries', 'src': '/static/foodstim60/raspberries.jpg', 'key': 'u', 'origWidth': 411, 'origHeight': 411, 'width': 411, 'height': 411, 'widthPercent': 0.45, 'rescaleHeight': False, 'trialN': 94, 'loaded': True, 'loadedTime': 2087.39999999851, 'positionName': 'LEFT', 'positionCoords': [510.6, 334.5], 'bid': 8.13}, {'imgObject': {}, 'id': 'olives', 'src': '/static/foodstim60/olives.jpg', 'key': 'i', 'origWidth': 410, 'origHeight': 410, 'width': 410, 'height': 410, 'widthPercent': 0.45, 'rescaleHeight': False, 'trialN': 94, 'loaded': True, 'loadedTime': 2592.099999997765, 'positionName': 'RIGHT', 'positionCoords': [998.4, 335], 'bid': 8.040000000000001}]",160675.30000000075,1669831801009,raspberries,olives,8.13,8.040000000000001,-0.08999999999999986,olives,1407.699999999255,1408,1407.8999999985099,True,i,162589.5,1914.199999999255,1669831802923,1914,HRV,HRV_0137,2022-11-30 18:12:04
95,"[{'imgObject': {}, 'id': 'veggieswithdip', 'src': '/static/foodstim60/veggieswithdip.jpg', 'key': 'u', 'origWidth': 409, 'origHeight': 409, 'width': 409, 'height': 409, 'widthPercent': 0.45, 'rescaleHeight': False, 'trialN': 95, 'loaded': True, 'loadedTime': 2689.599999997765, 'positionName': 'LEFT', 'positionCoords': [512.6, 335.5], 'bid': 6.69}, {'imgObject': {}, 'id': 'raisin bran w milk', 'src': '/static/foodstim60/raisin bran w milk.jpg', 'key': 'i', 'origWidth': 411, 'origHeight': 411, 'width': 411, 'height': 411, 'widthPercent': 0.45, 'rescaleHeight': False, 'trialN': 95, 'loaded': True, 'loadedTime': 2314.599999997765, 'positionName': 'RIGHT', 'positionCoords': [998.4, 334.5], 'bid': 6.4}]",162589.59999999776,1669831802923,veggieswithdip,raisin bran w milk,6.69,6.4,-0.29000000000000004,raisin bran w milk,653.3000000007451,654,653.5,True,i,163753.59999999776,1164.0,1669831804087,1164,HRV,HRV_0137,2022-11-30 18:12:04
96,"[{'imgObject': {}, 'id': 'lox', 'src': '/static/foodstim60/lox.jpg', 'key': 'u', 'origWidth': 410, 'origHeight': 411, 'width': 410, 'height': 411, 'widthPercent': 0.45, 'rescaleHeight': False, 'trialN': 96, 'loaded': True, 'loadedTime': 2132.199999999255, 'positionName': 'LEFT', 'positionCoords': [511.6, 334.5], 'bid': 10}, {'imgObject': {}, 'id': 'chickenfingers', 'src': '/static/foodstim60/chickenfingers.jpg', 'key': 'i', 'origWidth': 410, 'origHeight': 410, 'width': 410, 'height': 410, 'widthPercent': 0.45, 'rescaleHeight': False, 'trialN': 96, 'loaded': True, 'loadedTime': 2689.800000000745, 'positionName': 'RIGHT', 'positionCoords': [998.4, 335], 'bid': 9.95}]",163753.59999999776,1669831804088,lox,chickenfingers,10.0,9.95,-0.05000000000000071,chickenfingers,641.3000000007451,641,641.6000000014901,True,i,164902.5,1148.9000000022352,1669831805236,1148,HRV,HRV_0137,2022-11-30 18:12:04
97,"[{'imgObject': {}, 'id': 'mashed potato', 'src': '/static/foodstim60/mashed potato.jpg', 'key': 'u', 'origWidth': 409, 'origHeight': 409, 'width': 409, 'height': 409, 'widthPercent': 0.45, 'rescaleHeight': False, 'trialN': 97, 'loaded': True, 'loadedTime': 2676.39999999851, 'positionName': 'LEFT', 'positionCoords': [512.6, 335.5], 'bid': 0}, {'imgObject': {}, 'id': 'olives', 'src': '/static/foodstim60/olives.jpg', 'key': 'i', 'origWidth': 410, 'origHeight': 410, 'width': 410, 'height': 410, 'widthPercent': 0.45, 'rescaleHeight': False, 'trialN': 97, 'loaded': True, 'loadedTime': 2589.099999997765, 'positionName': 'RIGHT', 'positionCoords': [998.4, 335], 'bid': 8.040000000000001}]",164902.59999999776,1669831805236,mashed potato,olives,0.0,8.040000000000001,8.040000000000001,olives,748.2000000029802,749,748.4000000022352,True,i,166160.80000000075,1258.2000000029802,1669831806495,1259,HRV,HRV_0137,2022-11-30 18:12:04
98,"[{'imgObject': {}, 'id': 'rigatoni', 'src': '/static/foodstim60/rigatoni.jpg', 'key': 'u', 'origWidth': 411, 'origHeight': 411, 'width': 411, 'height': 411, 'widthPercent': 0.45, 'rescaleHeight': False, 'trialN': 98, 'loaded': True, 'loadedTime': 2662.89999999851, 'positionName': 'LEFT', 'positionCoords': [510.6, 334.5], 'bid': 1.71}, {'imgObject': {}, 'id': 'popsicles', 'src': '/static/foodstim60/popsicles.jpg', 'key': 'i', 'origWidth': 410, 'origHeight': 410, 'width': 410, 'height': 410, 'widthPercent': 0.45, 'rescaleHeight': False, 'trialN': 98, 'loaded': True, 'loadedTime': 2620.300000000745, 'positionName': 'RIGHT', 'positionCoords': [998.4, 335], 'bid': 0.62}]",166160.80000000075,1669831806495,rigatoni,popsicles,1.71,0.62,-1.0899999999999999,rigatoni,785.6999999992549,786,785.7999999970198,True,u,167459.59999999776,1298.7999999970198,1669831807793,1298,HRV,HRV_0137,2022-11-30 18:12:04
99,"[{'imgObject': {}, 'id': 'grilled chicken strips', 'src': '/static/foodstim60/grilled chicken strips.jpg', 'key': 'u', 'origWidth': 410, 'origHeight': 411, 'width': 410, 'height': 411, 'widthPercent': 0.45, 'rescaleHeight': False, 'trialN': 99, 'loaded': True, 'loadedTime': 2191.300000000745, 'positionName': 'LEFT', 'positionCoords': [511.6, 334.5], 'bid': 10}, {'imgObject': {}, 'id': 'chicken nuggets2', 'src': '/static/foodstim60/chicken nuggets2.jpg', 'key': 'i', 'origWidth': 410, 'origHeight': 409, 'width': 410, 'height': 409, 'widthPercent': 0.45, 'rescaleHeight': False, 'trialN': 99, 'loaded': True, 'loadedTime': 2229.89999999851, 'positionName': 'RIGHT', 'positionCoords': [998.4, 335.5], 'bid': 9.6}]",167459.59999999776,1669831807794,grilled chicken strips,chicken nuggets2,10.0,9.6,-0.40000000000000036,chicken nuggets2,631.0,631,631.2000000029802,True,i,168598.30000000075,1138.7000000029802,1669831808932,1138,HRV,HRV_0137,2022-11-30 18:12:04
100,"[{'imgObject': {}, 'id': 'chicken nuggets2', 'src': '/static/foodstim60/chicken nuggets2.jpg', 'key': 'u', 'origWidth': 410, 'origHeight': 409, 'width': 410, 'height': 409, 'widthPercent': 0.45, 'rescaleHeight': False, 'trialN': 100, 'loaded': True, 'loadedTime': 2243.5, 'positionName': 'LEFT', 'positionCoords': [511.6, 335.5], 'bid': 9.6}, {'imgObject': {}, 'id': 'rigatoni', 'src': '/static/foodstim60/rigatoni.jpg', 'key': 'i', 'origWidth': 411, 'origHeight': 411, 'width': 411, 'height': 411, 'widthPercent': 0.45, 'rescaleHeight': False, 'trialN': 100, 'loaded': True, 'loadedTime': 2667.199999999255, 'positionName': 'RIGHT', 'positionCoords': [998.4, 334.5], 'bid': 1.71}]",168598.3999999985,1669831808932,chicken nuggets2,rigatoni,9.6,1.71,-7.89,chicken nuggets2,659.8000000007451,660,659.9000000022352,True,u,169769.09999999776,1170.699999999255,1669831810103,1171,HRV,HRV_0137,2022-11-30 18:12:04
101,"[{'imgObject': {}, 'id': 'strawberries', 'src': '/static/foodstim60/strawberries.jpg', 'key': 'u', 'origWidth': 410, 'origHeight': 410, 'width': 410, 'height': 410, 'widthPercent': 0.45, 'rescaleHeight': False, 'trialN': 101, 'loaded': True, 'loadedTime': 2659.300000000745, 'positionName': 'LEFT', 'positionCoords': [511.6, 335], 'bid': 1.92}, {'imgObject': {}, 'id': 'turkeysandwich', 'src': '/static/foodstim60/turkeysandwich.jpg', 'key': 'i', 'origWidth': 409, 'origHeight': 409, 'width': 409, 'height': 409, 'widthPercent': 0.45, 'rescaleHeight': False, 'trialN': 101, 'loaded': True, 'loadedTime': 2693, 'positionName': 'RIGHT', 'positionCoords': [998.4, 335.5], 'bid': 9.7}]",169769.19999999925,1669831810103,strawberries,turkeysandwich,1.92,9.7,7.779999999999999,turkeysandwich,721.5,722,721.6000000014901,True,i,171002.09999999776,1232.8999999985099,1669831811336,1233,HRV,HRV_0137,2022-11-30 18:12:04
102,"[{'imgObject': {}, 'id': 'steak', 'src': '/static/foodstim60/steak.jpg', 'key': 'u', 'origWidth': 410, 'origHeight': 410, 'width': 410, 'height': 410, 'widthPercent': 0.45, 'rescaleHeight': False, 'trialN': 102, 'loaded': True, 'loadedTime': 2266.39999999851, 'positionName': 'LEFT', 'positionCoords': [511.6, 335], 'bid': 9.87}, {'imgObject': {}, 'id': 'turkeysandwich', 'src': '/static/foodstim60/turkeysandwich.jpg', 'key': 'i', 'origWidth': 409, 'origHeight': 409, 'width': 409, 'height': 409, 'widthPercent': 0.45, 'rescaleHeight': False, 'trialN': 102, 'loaded': True, 'loadedTime': 2692.699999999255, 'positionName': 'RIGHT', 'positionCoords': [998.4, 335.5], 'bid': 9.7}]",171002.19999999925,1669831811336,steak,turkeysandwich,9.87,9.7,-0.16999999999999993,steak,776.3000000007451,777,776.5,True,u,172291.0,1288.800000000745,1669831812625,1289,HRV,HRV_0137,2022-11-30 18:12:04
103,"[{'imgObject': {}, 'id': 'eggs', 'src': '/static/foodstim60/eggs.jpg', 'key': 'u', 'origWidth': 409, 'origHeight': 409, 'width': 409, 'height': 409, 'widthPercent': 0.45, 'rescaleHeight': False, 'trialN': 103, 'loaded': True, 'loadedTime': 2454.300000000745, 'positionName': 'LEFT', 'positionCoords': [512.6, 335.5], 'bid': 10}, {'imgObject': {}, 'id': 'roastedpotatoes', 'src': '/static/foodstim60/roastedpotatoes.jpg', 'key': 'i', 'origWidth': 409, 'origHeight': 410, 'width': 409, 'height': 410, 'widthPercent': 0.45, 'rescaleHeight': False, 'trialN': 103, 'loaded': True, 'loadedTime': 2070.699999999255, 'positionName': 'RIGHT', 'positionCoords': [998.4, 335], 'bid': 10}]",172291.09999999776,1669831812625,eggs,roastedpotatoes,10.0,10.0,0.0,roastedpotatoes,607.4000000022352,608,607.6000000014901,True,i,173401.8999999985,1110.800000000745,1669831813736,1111,HRV,HRV_0137,2022-11-30 18:12:04
104,"[{'imgObject': {}, 'id': 'chickenfingers', 'src': '/static/foodstim60/chickenfingers.jpg', 'key': 'u', 'origWidth': 410, 'origHeight': 410, 'width': 410, 'height': 410, 'widthPercent': 0.45, 'rescaleHeight': False, 'trialN': 104, 'loaded': True, 'loadedTime': 2691.39999999851, 'positionName': 'LEFT', 'positionCoords': [511.6, 335], 'bid': 9.95}, {'imgObject': {}, 'id': 'grilled chicken strips', 'src': '/static/foodstim60/grilled chicken strips.jpg', 'key': 'i', 'origWidth': 410, 'origHeight': 411, 'width': 410, 'height': 411, 'widthPercent': 0.45, 'rescaleHeight': False, 'trialN': 104, 'loaded': True, 'loadedTime': 2194.800000000745, 'positionName': 'RIGHT', 'positionCoords': [998.4, 334.5], 'bid': 10}]",173401.8999999985,1669831813736,chickenfingers,grilled chicken strips,9.95,10.0,0.05000000000000071,chickenfingers,736.0,736,736.1000000014901,True,u,174643.0,1241.1000000014901,1669831814977,1241,HRV,HRV_0137,2022-11-30 18:12:04
105,"[{'imgObject': {}, 'id': 'edamame', 'src': '/static/foodstim60/edamame.jpg', 'key': 'u', 'origWidth': 409, 'origHeight': 410, 'width': 409, 'height': 410, 'widthPercent': 0.45, 'rescaleHeight': False, 'trialN': 105, 'loaded': True, 'loadedTime': 2525.099999997765, 'positionName': 'LEFT', 'positionCoords': [512.6, 335], 'bid': 0.43}, {'imgObject': {}, 'id': 'mac & cheese', 'src': '/static/foodstim60/mac & cheese.jpg', 'key': 'i', 'origWidth': 410, 'origHeight': 410, 'width': 410, 'height': 410, 'widthPercent': 0.45, 'rescaleHeight': False, 'trialN': 105, 'loaded': True, 'loadedTime': 2371.300000000745, 'positionName': 'RIGHT', 'positionCoords': [998.4, 335], 'bid': 0}]",174643.09999999776,1669831814977,edamame,mac & cheese,0.43,0.0,-0.43,mac & cheese,815.3000000007451,815,815.4000000022352,True,i,175967.0,1323.9000000022352,1669831816301,1324,HRV,HRV_0137,2022-11-30 18:12:04
106,"[{'imgObject': {}, 'id': 'sweetpotato', 'src': '/static/foodstim60/sweetpotato.jpg', 'key': 'u', 'origWidth': 410, 'origHeight': 410, 'width': 410, 'height': 410, 'widthPercent': 0.45, 'rescaleHeight': False, 'trialN': 106, 'loaded': True, 'loadedTime': 2694.5, 'positionName': 'LEFT', 'positionCoords': [511.6, 335], 'bid': 3.02}, {'imgObject': {}, 'id': 'Tribe humus pita', 'src': '/static/foodstim60/Tribe humus pita.jpg', 'key': 'i', 'origWidth': 411, 'origHeight': 411, 'width': 411, 'height': 411, 'widthPercent': 0.45, 'rescaleHeight': False, 'trialN': 106, 'loaded': True, 'loadedTime': 2617.39999999851, 'positionName': 'RIGHT', 'positionCoords': [998.4, 334.5], 'bid': 9.86}]",175967.09999999776,1669831816301,sweetpotato,Tribe humus pita,3.02,9.86,6.84,Tribe humus pita,1035.1000000014901,1035,1035.4000000022352,True,i,177507.80000000075,1540.7000000029802,1669831817842,1541,HRV,HRV_0137,2022-11-30 18:12:04
107,"[{'imgObject': {}, 'id': 'tacos', 'src': '/static/foodstim60/tacos.jpg', 'key': 'u', 'origWidth': 411, 'origHeight': 411, 'width': 411, 'height': 411, 'widthPercent': 0.45, 'rescaleHeight': False, 'trialN': 107, 'loaded': True, 'loadedTime': 2409.300000000745, 'positionName': 'LEFT', 'positionCoords': [510.6, 334.5], 'bid': 9.91}, {'imgObject': {}, 'id': 'bagel plain', 'src': '/static/foodstim60/bagel plain.jpg', 'key': 'i', 'origWidth': 410, 'origHeight': 410, 'width': 410, 'height': 410, 'widthPercent': 0.45, 'rescaleHeight': False, 'trialN': 107, 'loaded': True, 'loadedTime': 2567.89999999851, 'positionName': 'RIGHT', 'positionCoords': [998.4, 335], 'bid': 9.2}]",177507.8999999985,1669831817842,tacos,bagel plain,9.91,9.2,-0.7100000000000009,tacos,653.8000000007451,654,653.9000000022352,True,u,178666.3999999985,1158.5,1669831819000,1158,HRV,HRV_0137,2022-11-30 18:12:04
108,"[{'imgObject': {}, 'id': 'apple slices', 'src': '/static/foodstim60/apple slices.jpg', 'key': 'u', 'origWidth': 409, 'origHeight': 410, 'width': 409, 'height': 410, 'widthPercent': 0.45, 'rescaleHeight': False, 'trialN': 108, 'loaded': True, 'loadedTime': 2449.300000000745, 'positionName': 'LEFT', 'positionCoords': [512.6, 335], 'bid': 6.3100000000000005}, {'imgObject': {}, 'id': 'chickenfingers', 'src': '/static/foodstim60/chickenfingers.jpg', 'key': 'i', 'origWidth': 410, 'origHeight': 410, 'width': 410, 'height': 410, 'widthPercent': 0.45, 'rescaleHeight': False, 'trialN': 108, 'loaded': True, 'loadedTime': 2690.89999999851, 'positionName': 'RIGHT', 'positionCoords': [998.4, 335], 'bid': 9.95}]",178666.5,1669831819000,apple slices,chickenfingers,6.3100000000000005,9.95,3.639999999999999,chickenfingers,623.6999999992549,624,623.8999999985099,True,i,179803.69999999925,1137.199999999255,1669831820138,1138,HRV,HRV_0137,2022-11-30 18:12:04
