success,trial_type,trial_index,time_elapsed,internal_node_id,Block,TrialNumber,TrialTime,trialTimeDiff,FPS_avg,FPS_med,FPS_mode,TrialDur,winResizeTime,rt,block,button_pressed,MotCoh,MotDir,ColCoh,Color,ChoiceKey,Choice,Accuracy,RT,nFrames,FPS,PPD,missTrial,missTrialMsg,onsetDelay,fullScreenExitTime,canvCenter,TrialType,Score,BlockTrial,stimulus,button_labels,exp,subjectId,date
True,fullscreen,0,3186,0.0-0.0,0.0,1.0,,,,,,,,,,,,,,,,,,,,,,,,,,,,,,,,HRV,HRV_0208,2022-11-30 19:02:28
,wl-check-fps,1,8188,0.0-1.0,0.0,2.0,"[3718.6, 3731.2, 3748, 3767.6, 3780.9, 3797.5, 3814.3, 3830.9, 3847.5, 3864.4, 3881, 3897.4, 3914.2, 3930.8, 3947.4, 3964.1, 3981, 3997.7, 4014.4, 4031, 4047.4, 4064.3, 4080.9, 4097.4, 4114.2, 4130.9, 4147.4, 4164.1, 4180.9, 4197.3, 4214.3, 4231, 4247.4, 4264.2, 4280.9, 4297.4, 4314.1, 4331, 4347.4, 4364.3, 4380.9, 4397.4, 4414.2, 4431, 4447.4, 4464.2, 4481, 4497.4, 4514.3, 4531, 4547.4, 4564.1, 4580.8, 4597.4, 4614.2, 4630.9, 4647.4, 4664.3, 4680.9, 4697.5, 4714.1, 4730.9, 4747.4, 4764.2, 4780.9, 4797.6, 4814.4, 4831.4, 4847.6, 4864.5, 4881.1, 4897.6, 4914.3, 4931.1, 4947.5, 4964.4, 4981.1, 4997.5, 5014.5, 5030.8, 5047.4, 5064.4, 5081.1, 5097.5, 5114.3, 5130.9, 5147.4, 5164.4, 5180.8, 5197.5, 5214.2, 5231, 5247.4, 5264.2, 5280.9, 5297.4, 5314.3, 5331, 5347.4, 5364.3, 5380.8, 5397.3, 5414.2, 5430.8, 5447.3, 5464.3, 5481.1, 5497.4, 5514.1, 5530.9, 5547.4, 5564.1, 5580.9, 5597.4, 5614.1, 5630.9, 5647.4, 5664.1, 5680.9, 5697.4, 5714.3, 5731, 5747.4, 5764.1, 5781, 5797.4, 5814.8, 5831, 5847.4, 5864.2, 5880.8, 5897.4, 5914.3, 5930.9, 5947.3, 5964.3, 5980.9, 5997.4, 6014.2, 6030.9, 6047.4, 6064.1, 6080.9, 6097.5, 6114.3, 6130.8, 6147.5, 6164.2, 6181, 6197.5, 6214.2, 6231, 6247.5, 6264.3, 6280.9, 6297.4, 6314.2, 6330.7, 6347.5, 6364.3, 6380.8, 6397.4, 6414.3, 6430.7, 6447.5, 6464.2, 6481, 6497.6, 6514.3, 6531, 6547.6, 6564.6, 6581, 6597.7, 6614.4, 6631.1, 6647.5, 6664.4, 6680.8, 6697.8, 6714.6, 6731, 6747.7, 6764.4, 6781.1, 6797.5, 6814.3, 6830.9, 6847.6, 6864.2, 6881, 6897.5, 6914.2, 6931, 6947.5, 6964.3, 6981.1, 6997.5, 7014.4, 7030.9, 7047.6, 7064.3, 7081.1, 7097.5, 7114.3, 7131, 7147.5, 7164.3, 7180.8, 7197.6, 7214.3, 7231, 7247.5, 7264.4, 7281.1, 7297.5, 7314.4, 7331.2, 7347.5, 7364.3, 7381, 7397.8, 7414.4, 7431.1, 7447.7, 7464.8, 7481.4, 7497.6, 7514.5, 7531.5, 7547.6, 7564.4, 7581.2, 7597.6, 7614.4, 7631.2, 7647.7, 7664.6, 7681.3, 7697.7, 7714.5, 7731.2, 7747.8, 7764.6, 7781.1, 7799.2, 7814.4, 7831.1, 7847.7, 7864.5, 7881.2, 7897.8, 7914.6, 7931.1, 7947.7, 7964.6, 7981.4, 7998.5, 8014.4, 8030.9, 8047.7, 8064.3, 8081, 8097.6, 8114.2, 8130.9, 8147.6, 8164.3, 8180.9, 8197.6, 8214.4, 8231, 8247.6, 8264.3, 8281.2, 8297.6, 8314.5, 8331.1, 8347.5, 8364.4, 8381.1, 8397.6, 8414.2, 8431.1, 8447.6, 8464.3, 8481, 8497.4, 8514.2, 8531, 8547.5, 8564.1, 8580.9, 8597.5, 8614.1, 8631, 8647.4, 8664.2, 8680.7, 8697.5]","[1.7, 12.6, 16.8, 19.6, 13.3, 16.6, 16.8, 16.6, 16.6, 16.9, 16.6, 16.4, 16.8, 16.6, 16.6, 16.7, 16.9, 16.7, 16.7, 16.6, 16.4, 16.9, 16.6, 16.5, 16.8, 16.7, 16.5, 16.7, 16.8, 16.4, 17, 16.7, 16.4, 16.8, 16.7, 16.5, 16.7, 16.9, 16.4, 16.9, 16.6, 16.5, 16.8, 16.8, 16.4, 16.8, 16.8, 16.4, 16.9, 16.7, 16.4, 16.7, 16.7, 16.6, 16.8, 16.7, 16.5, 16.9, 16.6, 16.6, 16.6, 16.8, 16.5, 16.8, 16.7, 16.7, 16.8, 17, 16.2, 16.9, 16.6, 16.5, 16.7, 16.8, 16.4, 16.9, 16.7, 16.4, 17, 16.3, 16.6, 17, 16.7, 16.4, 16.8, 16.6, 16.5, 17, 16.4, 16.7, 16.7, 16.8, 16.4, 16.8, 16.7, 16.5, 16.9, 16.7, 16.4, 16.9, 16.5, 16.5, 16.9, 16.6, 16.5, 17, 16.8, 16.3, 16.7, 16.8, 16.5, 16.7, 16.8, 16.5, 16.7, 16.8, 16.5, 16.7, 16.8, 16.5, 16.9, 16.7, 16.4, 16.7, 16.9, 16.4, 17.4, 16.2, 16.4, 16.8, 16.6, 16.6, 16.9, 16.6, 16.4, 17, 16.6, 16.5, 16.8, 16.7, 16.5, 16.7, 16.8, 16.6, 16.8, 16.5, 16.7, 16.7, 16.8, 16.5, 16.7, 16.8, 16.5, 16.8, 16.6, 16.5, 16.8, 16.5, 16.8, 16.8, 16.5, 16.6, 16.9, 16.4, 16.8, 16.7, 16.8, 16.6, 16.7, 16.7, 16.6, 17, 16.4, 16.7, 16.7, 16.7, 16.4, 16.9, 16.4, 17, 16.8, 16.4, 16.7, 16.7, 16.7, 16.4, 16.8, 16.6, 16.7, 16.6, 16.8, 16.5, 16.7, 16.8, 16.5, 16.8, 16.8, 16.4, 16.9, 16.5, 16.7, 16.7, 16.8, 16.4, 16.8, 16.7, 16.5, 16.8, 16.5, 16.8, 16.7, 16.7, 16.5, 16.9, 16.7, 16.4, 16.9, 16.8, 16.3, 16.8, 16.7, 16.8, 16.6, 16.7, 16.6, 17.1, 16.6, 16.2, 16.9, 17, 16.1, 16.8, 16.8, 16.4, 16.8, 16.8, 16.5, 16.9, 16.7, 16.4, 16.8, 16.7, 16.6, 16.8, 16.5, 18.1, 15.2, 16.7, 16.6, 16.8, 16.7, 16.6, 16.8, 16.5, 16.6, 16.9, 16.8, 17.1, 15.9, 16.5, 16.8, 16.6, 16.7, 16.6, 16.6, 16.7, 16.7, 16.7, 16.6, 16.7, 16.8, 16.6, 16.6, 16.7, 16.9, 16.4, 16.9, 16.6, 16.4, 16.9, 16.7, 16.5, 16.6, 16.9, 16.5, 16.7, 16.7, 16.4, 16.8, 16.8, 16.5, 16.6, 16.8, 16.6, 16.6, 16.9, 16.4, 16.8, 16.5, 16.8]",60.0,60.0,60.0,4997.5,[],,,,,,,,,,,,,,,,,,,,,,,,,HRV,HRV_0208,2022-11-30 19:02:28
,wl-html-keyboard-response,2,25638,0.0-2.0-0.0,0.0,3.0,,,,,,,,15435.39999999851,0.0,0,,,,,,,,,,,,,,,,,,,,,,HRV,HRV_0208,2022-11-30 19:02:28
,wl-rdm,3,32255,0.0-3.0-0.0,0.0,4.0,,,,,,,[],,,,0.0,0.0,87.9,0.0,u,0.0,True,997.2000000029802,60.0,60.0,40.0,False,,3000.0,[],"[960, 540]",ColorTask_Demo,,,,,HRV,HRV_0208,2022-11-30 19:02:28
,wl-rdm,4,37788,0.0-3.0-1.0,0.0,5.0,,,,,,,[],,,,0.0,0.0,87.9,1.0,i,1.0,True,1445.1000000014901,87.0,60.0,40.0,False,,2000.0,[],"[960, 540]",ColorTask_Demo,,,,,HRV,HRV_0208,2022-11-30 19:02:28
,wl-html-keyboard-response,5,43599,0.0-3.0-2.0,0.0,6.0,,,,,,,,3799.5,0.0,1,,,,,,,,,,,,,,,,,,,,,,HRV,HRV_0208,2022-11-30 19:02:28
,wl-html-keyboard-response,6,54631,0.0-4.0-0.0,0.0,7.0,,,,,,,,9023.0,0.0,0,,,,,,,,,,,,,,,,,,,,,,HRV,HRV_0208,2022-11-30 19:02:28
,wl-html-keyboard-response,7,68470,0.0-5.0-0.0,0.0,8.0,,,,,,,,11831.70000000298,0.0,0,,,,,,,,,,,,,,,,,,,,,,HRV,HRV_0208,2022-11-30 19:02:28
,wl-rdm,8,70921,0.0-6.0-0.0,0.0,9.0,,,,,,,[],,,,,,62.5,0.0,u,0.0,True,1129.5999999940395,68.0,60.0,40.0,False,,259.2570692619688,[],"[960, 540]",ColorTask,1.0,1.0,,,HRV,HRV_0208,2022-11-30 19:02:28
,wl-rdm,9,73204,0.0-6.1-0.1,0.0,10.0,,,,,,,[],,,,,,73.6,0.0,u,0.0,True,986.2999999970198,60.0,60.0,40.0,False,,201.73709832080618,[],"[960, 540]",ColorTask,2.0,2.0,,,HRV,HRV_0208,2022-11-30 19:02:28
,wl-rdm,10,75654,0.0-6.2-0.2,0.0,11.0,,,,,,,[],,,,,,50.0,0.0,i,1.0,False,974.7000000029802,59.0,60.0,40.0,False,,389.133702835954,[],"[960, 540]",ColorTask,1.0,3.0,,,HRV,HRV_0208,2022-11-30 19:02:28
,wl-rdm,11,78438,0.0-6.3-0.3,0.0,12.0,,,,,,,[],,,,,,53.2,0.0,i,1.0,False,1375.8000000044703,83.0,60.0,40.0,False,,326.8056027619239,[],"[960, 540]",ColorTask,0.0,4.0,,,HRV,HRV_0208,2022-11-30 19:02:28
,wl-rdm,12,80804,0.0-6.4-0.4,0.0,13.0,,,,,,,[],,,,,,62.5,0.0,u,0.0,True,1027.0,62.0,60.0,40.0,False,,252.18877912960062,[],"[960, 540]",ColorTask,1.0,5.0,,,HRV,HRV_0208,2022-11-30 19:02:28
,wl-rdm,13,83038,0.0-6.5-0.5,0.0,14.0,,,,,,,[],,,,,,87.9,0.0,u,0.0,True,858.0,52.0,60.0,40.0,False,,311.12024638853524,[],"[960, 540]",ColorTask,2.0,6.0,,,HRV,HRV_0208,2022-11-30 19:02:28
,wl-rdm,14,85138,0.0-6.6-0.6,0.0,15.0,,,,,,,[],,,,,,56.4,1.0,i,1.0,True,805.5,49.0,60.0,40.0,False,,215.11944200603162,[],"[960, 540]",ColorTask,3.0,7.0,,,HRV,HRV_0208,2022-11-30 19:02:28
,wl-rdm,15,87254,0.0-6.7-0.7,0.0,16.0,,,,,,,[],,,,,,53.2,0.0,i,1.0,False,841.0999999940395,51.0,60.0,40.0,False,,212.97104092538257,[],"[960, 540]",ColorTask,2.0,8.0,,,HRV,HRV_0208,2022-11-30 19:02:28
,wl-rdm,16,89888,0.0-6.8-0.8,0.0,17.0,,,,,,,[],,,,,,62.5,0.0,i,1.0,False,1247.3999999985099,75.0,60.0,40.0,False,,322.8780971009664,[],"[960, 540]",ColorTask,1.0,9.0,,,HRV,HRV_0208,2022-11-30 19:02:28
,wl-rdm,17,91954,0.0-6.9-0.9,0.0,18.0,,,,,,,[],,,,,,62.5,1.0,i,1.0,True,762.3000000044703,46.0,60.0,40.0,False,,219.22663199071837,[],"[960, 540]",ColorTask,2.0,10.0,,,HRV,HRV_0208,2022-11-30 19:02:28
,wl-rdm,18,94305,0.0-6.10-0.10,0.0,19.0,,,,,,,[],,,,,,62.5,1.0,i,1.0,True,989.2000000029802,60.0,60.0,40.0,False,,291.7301393625476,[],"[960, 540]",ColorTask,3.0,11.0,,,HRV,HRV_0208,2022-11-30 19:02:28
,wl-rdm,19,96404,0.0-6.11-0.11,0.0,20.0,,,,,,,[],,,,,,62.5,0.0,u,0.0,True,705.6999999955297,43.0,60.0,40.0,False,,318.3305056655545,[],"[960, 540]",ColorTask,4.0,12.0,,,HRV,HRV_0208,2022-11-30 19:02:28
,wl-rdm,20,98437,0.0-6.12-0.12,0.0,21.0,,,,,,,[],,,,,,87.9,0.0,u,0.0,True,653.2999999970198,40.0,60.0,40.0,False,,284.1547636546901,[],"[960, 540]",ColorTask,5.0,13.0,,,HRV,HRV_0208,2022-11-30 19:02:28
,wl-rdm,21,100570,0.0-6.13-0.13,0.0,22.0,,,,,,,[],,,,,,73.6,0.0,u,0.0,True,705.6999999955297,43.0,60.0,40.0,False,,345.65974122568105,[],"[960, 540]",ColorTask,6.0,14.0,,,HRV,HRV_0208,2022-11-30 19:02:28
,wl-rdm,22,102920,0.0-6.14-0.14,0.0,23.0,,,,,,,[],,,,,,56.4,0.0,i,1.0,False,1005.7000000029802,61.0,60.0,40.0,False,,265.3414593935567,[],"[960, 540]",ColorTask,5.0,15.0,,,HRV,HRV_0208,2022-11-30 19:02:28
,wl-rdm,23,104837,0.0-6.15-0.15,0.0,24.0,,,,,,,[],,,,,,73.6,0.0,u,0.0,True,648.5,39.0,60.0,40.0,False,,212.4923146766676,[],"[960, 540]",ColorTask,6.0,16.0,,,HRV,HRV_0208,2022-11-30 19:02:28
,wl-rdm,24,106753,0.0-6.16-0.16,0.0,25.0,,,,,,,[],,,,,,73.6,1.0,i,1.0,True,587.8000000044703,36.0,60.0,40.0,False,,246.25024298691164,[],"[960, 540]",ColorTask,7.0,17.0,,,HRV,HRV_0208,2022-11-30 19:02:28
,wl-rdm,25,108854,0.0-6.17-0.17,0.0,26.0,,,,,,,[],,,,,,53.2,0.0,u,0.0,True,736.3999999985099,45.0,60.0,40.0,False,,280.01469939376693,[],"[960, 540]",ColorTask,8.0,18.0,,,HRV,HRV_0208,2022-11-30 19:02:28
,wl-rdm,26,110837,0.0-6.18-0.18,0.0,27.0,,,,,,,[],,,,,,62.5,1.0,i,1.0,True,618.8999999985099,38.0,60.0,40.0,False,,286.70934340498326,[],"[960, 540]",ColorTask,9.0,19.0,,,HRV,HRV_0208,2022-11-30 19:02:28
,wl-rdm,27,113020,0.0-6.19-0.19,0.0,28.0,,,,,,,[],,,,,,50.0,1.0,i,1.0,True,893.0,54.0,60.0,40.0,False,,205.31985001446088,[],"[960, 540]",ColorTask,10.0,20.0,,,HRV,HRV_0208,2022-11-30 19:02:28
,wl-rdm,28,115204,0.0-6.20-0.20,0.0,29.0,,,,,,,[],,,,,,87.9,0.0,u,0.0,True,794.0,48.0,60.0,40.0,False,,314.4510109137287,[],"[960, 540]",ColorTask,11.0,21.0,,,HRV,HRV_0208,2022-11-30 19:02:28
,wl-rdm,29,117104,0.0-6.21-0.21,0.0,30.0,,,,,,,[],,,,,,73.6,0.0,u,0.0,True,597.7000000029802,36.0,60.0,40.0,False,,224.18600013879131,[],"[960, 540]",ColorTask,12.0,22.0,,,HRV,HRV_0208,2022-11-30 19:02:28
,wl-rdm,30,119054,0.0-6.22-0.22,0.0,31.0,,,,,,,[],,,,,,53.2,1.0,u,0.0,False,641.6000000014901,39.0,60.0,40.0,False,,225.11013911194246,[],"[960, 540]",ColorTask,11.0,23.0,,,HRV,HRV_0208,2022-11-30 19:02:28
,wl-rdm,31,121203,0.0-6.23-0.23,0.0,32.0,,,,,,,[],,,,,,56.4,1.0,i,1.0,True,853.6999999955297,52.0,60.0,40.0,False,,217.24429569339938,[],"[960, 540]",ColorTask,12.0,24.0,,,HRV,HRV_0208,2022-11-30 19:02:28
,wl-rdm,32,123054,0.0-6.24-0.24,0.0,33.0,,,,,,,[],,,,,,62.5,1.0,i,1.0,True,533.5999999940395,32.0,60.0,40.0,False,,244.42212704437327,[],"[960, 540]",ColorTask,13.0,25.0,,,HRV,HRV_0208,2022-11-30 19:02:28
,wl-rdm,33,124987,0.0-6.25-0.25,0.0,34.0,,,,,,,[],,,,,,50.0,1.0,i,1.0,True,652.6000000014901,40.0,60.0,40.0,False,,206.78202661227033,[],"[960, 540]",ColorTask,14.0,26.0,,,HRV,HRV_0208,2022-11-30 19:02:28
,wl-rdm,34,127121,0.0-6.26-0.26,0.0,35.0,,,,,,,[],,,,,,53.2,0.0,i,1.0,False,663.8000000044703,40.0,60.0,40.0,False,,388.6081909501146,[],"[960, 540]",ColorTask,13.0,27.0,,,HRV,HRV_0208,2022-11-30 19:02:28
,wl-rdm,35,129404,0.0-6.27-0.27,0.0,36.0,,,,,,,[],,,,,,53.2,0.0,i,1.0,False,910.3000000044703,55.0,60.0,40.0,False,,285.01983644442595,[],"[960, 540]",ColorTask,12.0,28.0,,,HRV,HRV_0208,2022-11-30 19:02:28
,wl-rdm,36,131437,0.0-6.28-0.28,0.0,37.0,,,,,,,[],,,,,,56.4,0.0,i,1.0,False,659.5999999940395,40.0,60.0,40.0,False,,294.29437917637955,[],"[960, 540]",ColorTask,11.0,29.0,,,HRV,HRV_0208,2022-11-30 19:02:28
,wl-rdm,37,133537,0.0-6.29-0.29,0.0,38.0,,,,,,,[],,,,,,50.0,1.0,u,0.0,False,761.7000000029802,46.0,60.0,40.0,False,,282.8344843249876,[],"[960, 540]",ColorTask,10.0,30.0,,,HRV,HRV_0208,2022-11-30 19:02:28
,wl-rdm,38,135487,0.0-6.30-0.30,0.0,39.0,,,,,,,[],,,,,,56.4,1.0,i,1.0,True,590.1000000014901,36.0,60.0,40.0,False,,297.0009370545722,[],"[960, 540]",ColorTask,11.0,31.0,,,HRV,HRV_0208,2022-11-30 19:02:28
,wl-rdm,39,137521,0.0-6.31-0.31,0.0,40.0,,,,,,,[],,,,,,50.0,0.0,i,1.0,False,588.1000000014901,36.0,60.0,40.0,False,,376.3416099994067,[],"[960, 540]",ColorTask,10.0,32.0,,,HRV,HRV_0208,2022-11-30 19:02:28
,wl-rdm,40,139437,0.0-6.32-0.32,0.0,41.0,,,,,,,[],,,,,,87.9,1.0,i,1.0,True,554.8999999910593,34.0,60.0,40.0,False,,287.88765701282966,[],"[960, 540]",ColorTask,11.0,33.0,,,HRV,HRV_0208,2022-11-30 19:02:28
,wl-rdm,41,141404,0.0-6.33-0.33,0.0,42.0,,,,,,,[],,,,,,87.9,1.0,i,1.0,True,509.6000000014901,31.0,60.0,40.0,False,,385.1325358492447,[],"[960, 540]",ColorTask,12.0,34.0,,,HRV,HRV_0208,2022-11-30 19:02:28
,wl-rdm,42,143703,0.0-6.34-0.34,0.0,43.0,,,,,,,[],,,,,,50.0,1.0,u,0.0,False,864.7000000029802,52.0,60.0,40.0,False,,363.0460061457226,[],"[960, 540]",ColorTask,11.0,35.0,,,HRV,HRV_0208,2022-11-30 19:02:28
,wl-rdm,43,146104,0.0-6.35-0.35,0.0,44.0,,,,,,,[],,,,,,53.2,0.0,u,0.0,True,987.7999999970198,60.0,60.0,40.0,False,,335.98521447104616,[],"[960, 540]",ColorTask,12.0,36.0,,,HRV,HRV_0208,2022-11-30 19:02:28
,wl-rdm,44,148137,0.0-6.36-0.36,0.0,45.0,,,,,,,[],,,,,,53.2,1.0,i,1.0,True,688.7000000029802,42.0,60.0,40.0,False,,264.11182808540053,[],"[960, 540]",ColorTask,13.0,37.0,,,HRV,HRV_0208,2022-11-30 19:02:28
,wl-rdm,45,150154,0.0-6.37-0.37,0.0,46.0,,,,,,,[],,,,,,87.9,0.0,u,0.0,True,572.7000000029802,35.0,60.0,40.0,False,,369.11455492339644,[],"[960, 540]",ColorTask,14.0,38.0,,,HRV,HRV_0208,2022-11-30 19:02:28
,wl-rdm,46,152054,0.0-6.38-0.38,0.0,47.0,,,,,,,[],,,,,,62.5,1.0,i,1.0,True,557.9000000059605,34.0,60.0,40.0,False,,259.47594641045174,[],"[960, 540]",ColorTask,15.0,39.0,,,HRV,HRV_0208,2022-11-30 19:02:28
,wl-rdm,47,153887,0.0-6.39-0.39,0.0,48.0,,,,,,,[],,,,,,73.6,1.0,i,1.0,True,548.0,33.0,60.0,40.0,False,,214.3119522448199,[],"[960, 540]",ColorTask,16.0,40.0,,,HRV,HRV_0208,2022-11-30 19:02:28
,wl-rdm,48,156154,0.0-6.40-0.40,0.0,49.0,,,,,,,[],,,,,,56.4,0.0,u,0.0,True,828.0000000074506,50.0,60.0,40.0,False,,335.54452993716535,[],"[960, 540]",ColorTask,17.0,41.0,,,HRV,HRV_0208,2022-11-30 19:02:28
,wl-rdm,49,158088,0.0-6.41-0.41,0.0,50.0,,,,,,,[],,,,,,56.4,1.0,u,0.0,False,622.9000000059605,38.0,60.0,40.0,False,,242.19035802856587,[],"[960, 540]",ColorTask,16.0,42.0,,,HRV,HRV_0208,2022-11-30 19:02:28
,wl-rdm,50,160338,0.0-6.42-0.42,0.0,51.0,,,,,,,[],,,,,,56.4,0.0,u,0.0,True,949.3000000044703,58.0,60.0,40.0,False,,221.19944840588508,[],"[960, 540]",ColorTask,17.0,43.0,,,HRV,HRV_0208,2022-11-30 19:02:28
,wl-rdm,51,162521,0.0-6.43-0.43,0.0,52.0,,,,,,,[],,,,,,62.5,0.0,u,0.0,True,806.0999999940395,49.0,60.0,40.0,False,,285.78178636689506,[],"[960, 540]",ColorTask,18.0,44.0,,,HRV,HRV_0208,2022-11-30 19:02:28
,wl-rdm,52,164571,0.0-6.44-0.44,0.0,53.0,,,,,,,[],,,,,,53.2,0.0,i,1.0,False,605.5,37.0,60.0,40.0,False,,360.4616129061724,[],"[960, 540]",ColorTask,17.0,45.0,,,HRV,HRV_0208,2022-11-30 19:02:28
,wl-rdm,53,166671,0.0-6.45-0.45,0.0,54.0,,,,,,,[],,,,,,62.5,1.0,i,1.0,True,706.2999999970198,43.0,60.0,40.0,False,,326.195857685919,[],"[960, 540]",ColorTask,18.0,46.0,,,HRV,HRV_0208,2022-11-30 19:02:28
,wl-rdm,54,168721,0.0-6.46-0.46,0.0,55.0,,,,,,,[],,,,,,62.5,0.0,i,1.0,False,613.3999999985099,37.0,60.0,40.0,False,,360.74307268546886,[],"[960, 540]",ColorTask,17.0,47.0,,,HRV,HRV_0208,2022-11-30 19:02:28
,wl-rdm,55,170839,0.0-6.47-0.47,0.0,56.0,,,,,,,[],,,,,,62.5,0.0,u,0.0,True,730.0,43.0,60.0,40.0,False,,319.57411143503555,[],"[960, 540]",ColorTask,18.0,48.0,,,HRV,HRV_0208,2022-11-30 19:02:28
,wl-rdm,56,172871,0.0-6.48-0.48,0.0,57.0,,,,,,,[],,,,,,87.9,1.0,i,1.0,True,581.6000000014901,35.0,60.0,40.0,False,,391.10088266439504,[],"[960, 540]",ColorTask,19.0,49.0,,,HRV,HRV_0208,2022-11-30 19:02:28
,wl-rdm,57,174871,0.0-6.49-0.49,0.0,58.0,,,,,,,[],,,,,,87.9,0.0,u,0.0,True,557.0000000074506,34.0,60.0,40.0,False,,374.2190536686446,[],"[960, 540]",ColorTask,20.0,50.0,,,HRV,HRV_0208,2022-11-30 19:02:28
,wl-rdm,58,176938,0.0-6.50-0.50,0.0,59.0,,,,,,,[],,,,,,73.6,0.0,u,0.0,True,695.2000000029802,42.0,60.0,40.0,False,,307.2303929281734,[],"[960, 540]",ColorTask,21.0,51.0,,,HRV,HRV_0208,2022-11-30 19:02:28
,wl-rdm,59,179004,0.0-6.51-0.51,0.0,60.0,,,,,,,[],,,,,,62.5,0.0,u,0.0,True,669.8999999985099,41.0,60.0,40.0,False,,306.18530238444254,[],"[960, 540]",ColorTask,22.0,52.0,,,HRV,HRV_0208,2022-11-30 19:02:28
,wl-rdm,60,181005,0.0-6.52-0.52,0.0,61.0,,,,,,,[],,,,,,73.6,1.0,i,1.0,True,542.7999999970198,33.0,60.0,40.0,False,,392.28679877399486,[],"[960, 540]",ColorTask,23.0,53.0,,,HRV,HRV_0208,2022-11-30 19:02:28
,wl-rdm,61,183154,0.0-6.53-0.53,0.0,62.0,,,,,,,[],,,,,,50.0,0.0,i,1.0,False,810.4000000059605,49.0,60.0,40.0,False,,263.8767176879809,[],"[960, 540]",ColorTask,22.0,54.0,,,HRV,HRV_0208,2022-11-30 19:02:28
,wl-rdm,62,185171,0.0-6.54-0.54,0.0,63.0,,,,,,,[],,,,,,56.4,0.0,i,1.0,False,689.2000000029802,42.0,60.0,40.0,False,,248.44631934570515,[],"[960, 540]",ColorTask,21.0,55.0,,,HRV,HRV_0208,2022-11-30 19:02:28
,wl-rdm,63,187171,0.0-6.55-0.55,0.0,64.0,,,,,,,[],,,,,,50.0,1.0,i,1.0,True,604.1999999955297,37.0,60.0,40.0,False,,308.0090110245236,[],"[960, 540]",ColorTask,22.0,56.0,,,HRV,HRV_0208,2022-11-30 19:02:28
,wl-rdm,64,189138,0.0-6.56-0.56,0.0,65.0,,,,,,,[],,,,,,53.2,1.0,i,1.0,True,562.1000000014901,34.0,60.0,40.0,False,,337.35728557975125,[],"[960, 540]",ColorTask,23.0,57.0,,,HRV,HRV_0208,2022-11-30 19:02:28
,wl-rdm,65,191204,0.0-6.57-0.57,0.0,66.0,,,,,,,[],,,,,,62.5,1.0,i,1.0,True,769.2999999970198,47.0,60.0,40.0,False,,220.59500407905566,[],"[960, 540]",ColorTask,24.0,58.0,,,HRV,HRV_0208,2022-11-30 19:02:28
,wl-rdm,66,193421,0.0-6.58-0.58,0.0,67.0,,,,,,,[],,,,,,56.4,0.0,u,0.0,True,887.3999999985099,54.0,60.0,40.0,False,,234.25435884696614,[],"[960, 540]",ColorTask,25.0,59.0,,,HRV,HRV_0208,2022-11-30 19:02:28
,wl-rdm,67,195287,0.0-6.59-0.59,0.0,68.0,,,,,,,[],,,,,,73.6,1.0,i,1.0,True,548.2000000029802,33.0,60.0,40.0,False,,242.88344113149446,[],"[960, 540]",ColorTask,26.0,60.0,,,HRV,HRV_0208,2022-11-30 19:02:28
,wl-rdm,68,197155,0.0-6.60-0.60,0.0,69.0,,,,,,,[],,,,,,53.2,1.0,i,1.0,True,578.2000000029802,35.0,60.0,40.0,False,,209.66833987276794,[],"[960, 540]",ColorTask,27.0,61.0,,,HRV,HRV_0208,2022-11-30 19:02:28
,wl-rdm,69,199204,0.0-6.61-0.61,0.0,70.0,,,,,,,[],,,,,,53.2,1.0,u,0.0,False,725.5,44.0,60.0,40.0,False,,262.23390198117943,[],"[960, 540]",ColorTask,26.0,62.0,,,HRV,HRV_0208,2022-11-30 19:02:28
,wl-rdm,70,201188,0.0-6.62-0.62,0.0,71.0,,,,,,,[],,,,,,73.6,0.0,u,0.0,True,553.2999999895692,34.0,60.0,40.0,False,,354.31123106708446,[],"[960, 540]",ColorTask,27.0,63.0,,,HRV,HRV_0208,2022-11-30 19:02:28
,wl-rdm,71,203271,0.0-6.63-0.63,0.0,72.0,,,,,,,[],,,,,,56.4,0.0,u,0.0,True,798.6999999955297,48.0,60.0,40.0,False,,228.68693683418252,[],"[960, 540]",ColorTask,28.0,64.0,,,HRV,HRV_0208,2022-11-30 19:02:28
,wl-rdm,72,205221,0.0-6.64-0.64,0.0,73.0,,,,,,,[],,,,,,73.6,1.0,i,1.0,True,604.5,37.0,60.0,40.0,False,,265.6666073181269,[],"[960, 540]",ColorTask,29.0,65.0,,,HRV,HRV_0208,2022-11-30 19:02:28
,wl-rdm,73,207138,0.0-6.65-0.65,0.0,74.0,,,,,,,[],,,,,,87.9,0.0,u,0.0,True,551.5999999940395,34.0,60.0,40.0,False,,287.5675181314589,[],"[960, 540]",ColorTask,30.0,66.0,,,HRV,HRV_0208,2022-11-30 19:02:28
,wl-rdm,74,209121,0.0-6.66-0.66,0.0,75.0,,,,,,,[],,,,,,50.0,0.0,i,1.0,False,696.3999999910593,42.0,60.0,40.0,False,,209.13846727354263,[],"[960, 540]",ColorTask,29.0,67.0,,,HRV,HRV_0208,2022-11-30 19:02:28
,wl-rdm,75,211288,0.0-6.67-0.67,0.0,76.0,,,,,,,[],,,,,,50.0,0.0,u,0.0,True,848.3999999985099,51.0,60.0,40.0,False,,249.30777192498053,[],"[960, 540]",ColorTask,30.0,68.0,,,HRV,HRV_0208,2022-11-30 19:02:28
,wl-rdm,76,213454,0.0-6.68-0.68,0.0,77.0,,,,,,,[],,,,,,53.2,0.0,i,1.0,False,758.2000000029802,46.0,60.0,40.0,False,,329.6938165146891,[],"[960, 540]",ColorTask,29.0,69.0,,,HRV,HRV_0208,2022-11-30 19:02:28
,wl-rdm,77,215438,0.0-6.69-0.69,0.0,78.0,,,,,,,[],,,,,,87.9,0.0,u,0.0,True,702.3999999985099,43.0,60.0,40.0,False,,203.0424570300916,[],"[960, 540]",ColorTask,30.0,70.0,,,HRV,HRV_0208,2022-11-30 19:02:28
,wl-rdm,78,217404,0.0-6.70-0.70,0.0,79.0,,,,,,,[],,,,,,56.4,1.0,i,1.0,True,643.2000000029802,39.0,60.0,40.0,False,,257.8460452902212,[],"[960, 540]",ColorTask,31.0,71.0,,,HRV,HRV_0208,2022-11-30 19:02:28
,wl-rdm,79,219271,0.0-6.71-0.71,0.0,80.0,,,,,,,[],,,,,,87.9,1.0,i,1.0,True,598.2999999970198,36.0,60.0,40.0,False,,200.1228169824924,[],"[960, 540]",ColorTask,32.0,72.0,,,HRV,HRV_0208,2022-11-30 19:02:28
,wl-rdm,80,221171,0.0-6.72-0.72,0.0,81.0,,,,,,,[],,,,,,73.6,0.0,u,0.0,True,604.3999999985099,37.0,60.0,40.0,False,,213.63809944970134,[],"[960, 540]",ColorTask,33.0,73.0,,,HRV,HRV_0208,2022-11-30 19:02:28
,wl-rdm,81,223105,0.0-6.73-0.73,0.0,82.0,,,,,,,[],,,,,,87.9,0.0,u,0.0,True,563.8999999985099,34.0,60.0,40.0,False,,299.7011404294781,[],"[960, 540]",ColorTask,34.0,74.0,,,HRV,HRV_0208,2022-11-30 19:02:28
,wl-rdm,82,225004,0.0-6.74-0.74,0.0,83.0,,,,,,,[],,,,,,87.9,1.0,i,1.0,True,568.1000000014901,34.0,60.0,40.0,False,,265.4403693847261,[],"[960, 540]",ColorTask,35.0,75.0,,,HRV,HRV_0208,2022-11-30 19:02:28
,wl-rdm,83,227004,0.0-6.75-0.75,0.0,84.0,,,,,,,[],,,,,,56.4,1.0,i,1.0,True,668.1000000014901,40.0,60.0,40.0,False,,251.35361533013116,[],"[960, 540]",ColorTask,36.0,76.0,,,HRV,HRV_0208,2022-11-30 19:02:28
,wl-rdm,84,228905,0.0-6.76-0.76,0.0,85.0,,,,,,,[],,,,,,50.0,0.0,i,1.0,False,597.7000000029802,36.0,60.0,40.0,False,,215.90983761025953,[],"[960, 540]",ColorTask,35.0,77.0,,,HRV,HRV_0208,2022-11-30 19:02:28
,wl-rdm,85,230788,0.0-6.77-0.77,0.0,86.0,,,,,,,[],,,,,,62.5,0.0,i,1.0,False,577.8000000044703,35.0,60.0,40.0,False,,224.23720934532446,[],"[960, 540]",ColorTask,34.0,78.0,,,HRV,HRV_0208,2022-11-30 19:02:28
,wl-rdm,86,232854,0.0-6.78-0.78,0.0,87.0,,,,,,,[],,,,,,50.0,0.0,i,1.0,False,733.4000000059605,44.0,60.0,40.0,False,,251.20039531427278,[],"[960, 540]",ColorTask,33.0,79.0,,,HRV,HRV_0208,2022-11-30 19:02:28
,wl-rdm,87,234988,0.0-6.79-0.79,0.0,88.0,,,,,,,[],,,,,,50.0,1.0,i,1.0,True,859.5,52.0,60.0,40.0,False,,205.86417376680697,[],"[960, 540]",ColorTask,34.0,80.0,,,HRV,HRV_0208,2022-11-30 19:02:28
,wl-rdm,88,237104,0.0-6.80-0.80,0.0,89.0,,,,,,,[],,,,,,73.6,0.0,u,0.0,True,706.7000000029802,43.0,60.0,40.0,False,,320.3559249768878,[],"[960, 540]",ColorTask,35.0,81.0,,,HRV,HRV_0208,2022-11-30 19:02:28
,wl-rdm,89,239704,0.0-6.81-0.81,0.0,90.0,,,,,,,[],,,,,,56.4,1.0,u,0.0,False,1271.7999999970198,77.0,60.0,40.0,False,,265.36877250153964,[],"[960, 540]",ColorTask,34.0,82.0,,,HRV,HRV_0208,2022-11-30 19:02:28
,wl-rdm,90,241771,0.0-6.82-0.82,0.0,91.0,,,,,,,[],,,,,,73.6,1.0,i,1.0,True,619.7999999970198,38.0,60.0,40.0,False,,368.7646876939514,[],"[960, 540]",ColorTask,35.0,83.0,,,HRV,HRV_0208,2022-11-30 19:02:28
,wl-rdm,91,243788,0.0-6.83-0.83,0.0,92.0,,,,,,,[],,,,,,62.5,1.0,i,1.0,True,732.7999999970198,45.0,60.0,40.0,False,,214.84108852830354,[],"[960, 540]",ColorTask,36.0,84.0,,,HRV,HRV_0208,2022-11-30 19:02:28
,wl-rdm,92,245638,0.0-6.84-0.84,0.0,93.0,,,,,,,[],,,,,,73.6,1.0,i,1.0,True,549.1999999955297,33.0,60.0,40.0,False,,241.0656785918917,[],"[960, 540]",ColorTask,37.0,85.0,,,HRV,HRV_0208,2022-11-30 19:02:28
,wl-rdm,93,247687,0.0-6.85-0.85,0.0,94.0,,,,,,,[],,,,,,56.4,1.0,i,1.0,True,729.5,44.0,60.0,40.0,False,,254.48457902064982,[],"[960, 540]",ColorTask,38.0,86.0,,,HRV,HRV_0208,2022-11-30 19:02:28
,wl-rdm,94,249538,0.0-6.86-0.86,0.0,95.0,,,,,,,[],,,,,,87.9,1.0,i,1.0,True,562.1000000014901,34.0,60.0,40.0,False,,216.21491865108268,[],"[960, 540]",ColorTask,39.0,87.0,,,HRV,HRV_0208,2022-11-30 19:02:28
,wl-rdm,95,251771,0.0-6.87-0.87,0.0,96.0,,,,,,,[],,,,,,53.2,1.0,i,1.0,True,804.5999999940395,49.0,60.0,40.0,False,,348.9491903247083,[],"[960, 540]",ColorTask,40.0,88.0,,,HRV,HRV_0208,2022-11-30 19:02:28
,wl-rdm,96,253837,0.0-6.88-0.88,0.0,97.0,,,,,,,[],,,,,,50.0,0.0,i,1.0,False,608.1000000014901,37.0,60.0,40.0,False,,398.9061715727748,[],"[960, 540]",ColorTask,39.0,89.0,,,HRV,HRV_0208,2022-11-30 19:02:28
,wl-rdm,97,255788,0.0-6.89-0.89,0.0,98.0,,,,,,,[],,,,,,87.9,1.0,i,1.0,True,560.6999999955297,34.0,60.0,40.0,False,,316.1381768320859,[],"[960, 540]",ColorTask,40.0,90.0,,,HRV,HRV_0208,2022-11-30 19:02:28
,wl-rdm,98,258021,0.0-6.90-0.90,0.0,99.0,,,,,,,[],,,,,,53.2,0.0,u,0.0,True,787.5,48.0,60.0,40.0,False,,368.4911064211644,[],"[960, 540]",ColorTask,41.0,91.0,,,HRV,HRV_0208,2022-11-30 19:02:28
,wl-rdm,99,260104,0.0-6.91-0.91,0.0,100.0,,,,,,,[],,,,,,50.0,1.0,i,1.0,True,738.9000000059605,45.0,60.0,40.0,False,,259.7603439194916,[],"[960, 540]",ColorTask,42.0,92.0,,,HRV,HRV_0208,2022-11-30 19:02:28
,wl-rdm,100,262171,0.0-6.92-0.92,0.0,101.0,,,,,,,[],,,,,,87.9,1.0,i,1.0,True,677.0,41.0,60.0,40.0,False,,318.012678675654,[],"[960, 540]",ColorTask,43.0,93.0,,,HRV,HRV_0208,2022-11-30 19:02:28
,wl-rdm,101,264221,0.0-6.93-0.93,0.0,102.0,,,,,,,[],,,,,,56.4,1.0,u,0.0,False,725.3999999985099,44.0,60.0,40.0,False,,248.20021299641968,[],"[960, 540]",ColorTask,42.0,94.0,,,HRV,HRV_0208,2022-11-30 19:02:28
,wl-rdm,102,266371,0.0-6.94-0.94,0.0,103.0,,,,,,,[],,,,,,73.6,1.0,i,1.0,True,719.2000000029802,44.0,60.0,40.0,False,,340.4004539891936,[],"[960, 540]",ColorTask,43.0,95.0,,,HRV,HRV_0208,2022-11-30 19:02:28
,wl-rdm,103,268488,0.0-6.95-0.95,0.0,104.0,,,,,,,[],,,,,,56.4,0.0,u,0.0,True,706.2000000029802,43.0,60.0,40.0,False,,327.08495920645476,[],"[960, 540]",ColorTask,44.0,96.0,,,HRV,HRV_0208,2022-11-30 19:02:28
,wl-rdm,104,270587,0.0-6.96-0.96,0.0,105.0,,,,,,,[],,,,,,50.0,1.0,u,0.0,False,787.6999999955297,48.0,60.0,40.0,False,,230.8441234238077,[],"[960, 540]",ColorTask,43.0,97.0,,,HRV,HRV_0208,2022-11-30 19:02:28
,wl-rdm,105,273071,0.0-6.97-0.97,0.0,106.0,,,,,,,[],,,,,,62.5,1.0,i,1.0,True,1181.6000000014901,71.0,60.0,40.0,False,,247.65167136765155,[],"[960, 540]",ColorTask,44.0,98.0,,,HRV,HRV_0208,2022-11-30 19:02:28
,wl-rdm,106,275238,0.0-6.98-0.98,0.0,107.0,,,,,,,[],,,,,,73.6,0.0,u,0.0,True,720.5,44.0,60.0,40.0,False,,359.8789036310678,[],"[960, 540]",ColorTask,45.0,99.0,,,HRV,HRV_0208,2022-11-30 19:02:28
,wl-rdm,107,277254,0.0-6.99-0.99,0.0,108.0,,,,,,,[],,,,,,73.6,1.0,i,1.0,True,649.2000000029802,39.0,60.0,40.0,False,,290.27087909562135,[],"[960, 540]",ColorTask,46.0,100.0,,,HRV,HRV_0208,2022-11-30 19:02:28
,wl-rdm,108,279288,0.0-6.100-0.100,0.0,109.0,,,,,,,[],,,,,,87.9,0.0,u,0.0,True,597.4000000059605,36.0,60.0,40.0,False,,372.6739777006858,[],"[960, 540]",ColorTask,47.0,101.0,,,HRV,HRV_0208,2022-11-30 19:02:28
,wl-rdm,109,281388,0.0-6.101-0.101,0.0,110.0,,,,,,,[],,,,,,53.2,1.0,u,0.0,False,753.6999999955297,46.0,60.0,40.0,False,,271.2943744445278,[],"[960, 540]",ColorTask,46.0,102.0,,,HRV,HRV_0208,2022-11-30 19:02:28
,wl-rdm,110,283355,0.0-6.102-0.102,0.0,111.0,,,,,,,[],,,,,,53.2,1.0,i,1.0,True,661.8000000044703,40.0,60.0,40.0,False,,238.3112564561612,[],"[960, 540]",ColorTask,47.0,103.0,,,HRV,HRV_0208,2022-11-30 19:02:28
,wl-rdm,111,285588,0.0-6.103-0.103,0.0,112.0,,,,,,,[],,,,,,53.2,1.0,i,1.0,True,843.8999999985099,51.0,60.0,40.0,False,,302.3366475069606,[],"[960, 540]",ColorTask,48.0,104.0,,,HRV,HRV_0208,2022-11-30 19:02:28
,wl-rdm,112,287554,0.0-6.104-0.104,0.0,113.0,,,,,,,[],,,,,,87.9,1.0,i,1.0,True,594.8000000044703,36.0,60.0,40.0,False,,303.63066897211365,[],"[960, 540]",ColorTask,49.0,105.0,,,HRV,HRV_0208,2022-11-30 19:02:28
,wl-rdm,113,289688,0.0-6.105-0.105,0.0,114.0,,,,,,,[],,,,,,50.0,1.0,i,1.0,True,822.5,50.0,60.0,40.0,False,,234.0195342979977,[],"[960, 540]",ColorTask,50.0,106.0,,,HRV,HRV_0208,2022-11-30 19:02:28
,wl-rdm,114,292121,0.0-6.106-0.106,0.0,115.0,,,,,,,[],,,,,,50.0,0.0,u,0.0,True,988.9000000059605,60.0,60.0,40.0,False,,351.1333383185702,[],"[960, 540]",ColorTask,51.0,107.0,,,HRV,HRV_0208,2022-11-30 19:02:28
,wl-rdm,115,294338,0.0-6.107-0.107,0.0,116.0,,,,,,,[],,,,,,56.4,0.0,u,0.0,True,937.7999999970198,57.0,60.0,40.0,False,,209.89125252782367,[],"[960, 540]",ColorTask,52.0,108.0,,,HRV,HRV_0208,2022-11-30 19:02:28
,wl-html-keyboard-response,116,302070,0.0-7.0-0.0,1.0,117.0,,,,,,,,5719.5,1.0,0,,,,,,,,,,,,,,,,,,,,,,HRV,HRV_0208,2022-11-30 19:02:28
,wl-rdm,117,304187,0.0-8.0-0.0,1.0,118.0,,,,,,,[],,,,,,62.5,0.0,u,0.0,True,777.0,47.0,60.0,40.0,False,,278.4831238887235,[],"[960, 540]",ColorTask,53.0,1.0,,,HRV,HRV_0208,2022-11-30 19:02:28
,wl-rdm,118,306438,0.0-8.1-0.1,1.0,119.0,,,,,,,[],,,,,,53.2,0.0,u,0.0,True,858.2000000029802,52.0,60.0,40.0,False,,322.7264301767948,[],"[960, 540]",ColorTask,54.0,2.0,,,HRV,HRV_0208,2022-11-30 19:02:28
,wl-rdm,119,308638,0.0-8.2-0.2,1.0,120.0,,,,,,,[],,,,,,50.0,1.0,u,0.0,False,852.7999999970198,52.0,60.0,40.0,False,,264.2773932319885,[],"[960, 540]",ColorTask,53.0,3.0,,,HRV,HRV_0208,2022-11-30 19:02:28
,wl-rdm,120,310588,0.0-8.3-0.3,1.0,121.0,,,,,,,[],,,,,,87.9,1.0,i,1.0,True,655.2999999970198,40.0,60.0,40.0,False,,212.68798072256044,[],"[960, 540]",ColorTask,54.0,4.0,,,HRV,HRV_0208,2022-11-30 19:02:28
,wl-rdm,121,312671,0.0-8.4-0.4,1.0,122.0,,,,,,,[],,,,,,73.6,0.0,u,0.0,True,639.1000000014901,39.0,60.0,40.0,False,,378.4258261783871,[],"[960, 540]",ColorTask,55.0,5.0,,,HRV,HRV_0208,2022-11-30 19:02:28
,wl-rdm,122,314721,0.0-8.5-0.5,1.0,123.0,,,,,,,[],,,,,,53.2,0.0,u,0.0,True,655.5,40.0,60.0,40.0,False,,333.2088292199406,[],"[960, 540]",ColorTask,56.0,6.0,,,HRV,HRV_0208,2022-11-30 19:02:28
,wl-rdm,123,316771,0.0-8.6-0.6,1.0,124.0,,,,,,,[],,,,,,50.0,0.0,u,0.0,True,761.6999999880791,46.0,60.0,40.0,False,,205.77426269795507,[],"[960, 540]",ColorTask,57.0,7.0,,,HRV,HRV_0208,2022-11-30 19:02:28
,wl-rdm,124,318787,0.0-8.7-0.7,1.0,125.0,,,,,,,[],,,,,,62.5,1.0,i,1.0,True,570.0999999940395,35.0,60.0,40.0,False,,356.8414332006886,[],"[960, 540]",ColorTask,58.0,8.0,,,HRV,HRV_0208,2022-11-30 19:02:28
,wl-rdm,125,320638,0.0-8.8-0.8,1.0,126.0,,,,,,,[],,,,,,73.6,1.0,i,1.0,True,532.7999999970198,32.0,60.0,40.0,False,,258.45567950512213,[],"[960, 540]",ColorTask,59.0,9.0,,,HRV,HRV_0208,2022-11-30 19:02:28
,wl-rdm,126,322671,0.0-8.9-0.9,1.0,127.0,,,,,,,[],,,,,,56.4,0.0,u,0.0,True,748.1000000014901,45.0,60.0,40.0,False,,232.65178840469207,[],"[960, 540]",ColorTask,60.0,10.0,,,HRV,HRV_0208,2022-11-30 19:02:28
,wl-rdm,127,324654,0.0-8.10-0.10,1.0,128.0,,,,,,,[],,,,,,50.0,1.0,i,1.0,True,665.4000000059605,40.0,60.0,40.0,False,,247.4998682539745,[],"[960, 540]",ColorTask,61.0,11.0,,,HRV,HRV_0208,2022-11-30 19:02:28
,wl-rdm,128,326787,0.0-8.11-0.11,1.0,129.0,,,,,,,[],,,,,,53.2,0.0,u,0.0,True,794.4000000059605,48.0,60.0,40.0,False,,256.94463772306773,[],"[960, 540]",ColorTask,62.0,12.0,,,HRV,HRV_0208,2022-11-30 19:02:28
,wl-rdm,129,328838,0.0-8.12-0.12,1.0,130.0,,,,,,,[],,,,,,50.0,1.0,u,0.0,False,731.8000000044703,44.0,60.0,40.0,False,,235.94983033481205,[],"[960, 540]",ColorTask,61.0,13.0,,,HRV,HRV_0208,2022-11-30 19:02:28
,wl-rdm,130,330904,0.0-8.13-0.13,1.0,131.0,,,,,,,[],,,,,,87.9,1.0,i,1.0,True,598.7000000029802,36.0,60.0,40.0,False,,389.629470878187,[],"[960, 540]",ColorTask,62.0,14.0,,,HRV,HRV_0208,2022-11-30 19:02:28
,wl-rdm,131,332788,0.0-8.14-0.14,1.0,132.0,,,,,,,[],,,,,,73.6,1.0,i,1.0,True,537.7999999970198,33.0,60.0,40.0,False,,269.26921695648576,[],"[960, 540]",ColorTask,63.0,15.0,,,HRV,HRV_0208,2022-11-30 19:02:28
,wl-rdm,132,334738,0.0-8.15-0.15,1.0,133.0,,,,,,,[],,,,,,62.5,0.0,u,0.0,True,645.9000000059605,39.0,60.0,40.0,False,,229.13669988091436,[],"[960, 540]",ColorTask,64.0,16.0,,,HRV,HRV_0208,2022-11-30 19:02:28
,wl-rdm,133,336705,0.0-8.16-0.16,1.0,134.0,,,,,,,[],,,,,,56.4,0.0,u,0.0,True,696.6000000014901,42.0,60.0,40.0,False,,201.2705309364665,[],"[960, 540]",ColorTask,65.0,17.0,,,HRV,HRV_0208,2022-11-30 19:02:28
,wl-rdm,134,338688,0.0-8.17-0.17,1.0,135.0,,,,,,,[],,,,,,73.6,0.0,u,0.0,True,573.0,35.0,60.0,40.0,False,,335.43416078326095,[],"[960, 540]",ColorTask,66.0,18.0,,,HRV,HRV_0208,2022-11-30 19:02:28
,wl-rdm,135,340589,0.0-8.18-0.18,1.0,136.0,,,,,,,[],,,,,,87.9,0.0,u,0.0,True,570.2999999970198,35.0,60.0,40.0,False,,254.12675529695818,[],"[960, 540]",ColorTask,67.0,19.0,,,HRV,HRV_0208,2022-11-30 19:02:28
,wl-rdm,136,342522,0.0-8.19-0.19,1.0,137.0,,,,,,,[],,,,,,56.4,1.0,i,1.0,True,554.9000000059605,34.0,60.0,40.0,False,,302.1250384446481,[],"[960, 540]",ColorTask,68.0,20.0,,,HRV,HRV_0208,2022-11-30 19:02:28
,wl-rdm,137,344538,0.0-8.20-0.20,1.0,138.0,,,,,,,[],,,,,,73.6,1.0,i,1.0,True,571.6000000014901,35.0,60.0,40.0,False,,352.40365668856293,[],"[960, 540]",ColorTask,69.0,21.0,,,HRV,HRV_0208,2022-11-30 19:02:28
,wl-rdm,138,346655,0.0-8.21-0.21,1.0,139.0,,,,,,,[],,,,,,73.6,0.0,u,0.0,True,698.9000000059605,42.0,60.0,40.0,False,,353.1192173817026,[],"[960, 540]",ColorTask,70.0,22.0,,,HRV,HRV_0208,2022-11-30 19:02:28
,wl-rdm,139,348721,0.0-8.22-0.22,1.0,140.0,,,,,,,[],,,,,,62.5,0.0,u,0.0,True,706.3000000044703,43.0,60.0,40.0,False,,275.8941887120572,[],"[960, 540]",ColorTask,71.0,23.0,,,HRV,HRV_0208,2022-11-30 19:02:28
,wl-rdm,140,350873,0.0-8.23-0.23,1.0,141.0,,,,,,,[],,,,,,53.2,1.0,i,1.0,True,798.4000000059605,48.0,60.0,40.0,False,,285.5793139255369,[],"[960, 540]",ColorTask,72.0,24.0,,,HRV,HRV_0208,2022-11-30 19:02:28
,wl-rdm,141,353305,0.0-8.24-0.24,1.0,142.0,,,,,,,[],,,,,,50.0,0.0,i,1.0,False,973.0,59.0,60.0,40.0,False,,382.92632981294116,[],"[960, 540]",ColorTask,71.0,25.0,,,HRV,HRV_0208,2022-11-30 19:02:28
,wl-rdm,142,355439,0.0-8.25-0.25,1.0,143.0,,,,,,,[],,,,,,62.5,0.0,u,0.0,True,777.0,47.0,60.0,40.0,False,,295.08601744250166,[],"[960, 540]",ColorTask,72.0,26.0,,,HRV,HRV_0208,2022-11-30 19:02:28
,wl-rdm,143,357738,0.0-8.26-0.26,1.0,144.0,,,,,,,[],,,,,,62.5,0.0,u,0.0,True,937.5000000074506,57.0,60.0,40.0,False,,288.98374089187905,[],"[960, 540]",ColorTask,73.0,27.0,,,HRV,HRV_0208,2022-11-30 19:02:28
,wl-rdm,144,359755,0.0-8.27-0.27,1.0,145.0,,,,,,,[],,,,,,87.9,0.0,u,0.0,True,705.4000000059605,43.0,60.0,40.0,False,,241.2324275723276,[],"[960, 540]",ColorTask,74.0,28.0,,,HRV,HRV_0208,2022-11-30 19:02:28
,wl-rdm,145,362356,0.0-8.28-0.28,1.0,146.0,,,,,,,[],,,,,,50.0,0.0,i,1.0,False,1171.2000000029802,71.0,60.0,40.0,False,,340.22733306269345,[],"[960, 540]",ColorTask,73.0,29.0,,,HRV,HRV_0208,2022-11-30 19:02:28
,wl-rdm,146,364705,0.0-8.29-0.29,1.0,147.0,,,,,,,[],,,,,,50.0,1.0,u,0.0,False,964.1000000014901,57.0,60.0,40.0,False,,308.52934394135264,[],"[960, 540]",ColorTask,72.0,30.0,,,HRV,HRV_0208,2022-11-30 19:02:28
,wl-rdm,147,366739,0.0-8.30-0.30,1.0,148.0,,,,,,,[],,,,,,53.2,0.0,u,0.0,True,679.3000000044703,41.0,60.0,40.0,False,,278.05264053403147,[],"[960, 540]",ColorTask,73.0,31.0,,,HRV,HRV_0208,2022-11-30 19:02:28
,wl-rdm,148,368655,0.0-8.31-0.31,1.0,149.0,,,,,,,[],,,,,,73.6,1.0,i,1.0,True,586.0,36.0,60.0,40.0,False,,243.5480219532701,[],"[960, 540]",ColorTask,74.0,32.0,,,HRV,HRV_0208,2022-11-30 19:02:28
,wl-rdm,149,370489,0.0-8.32-0.32,1.0,150.0,,,,,,,[],,,,,,53.2,1.0,i,1.0,True,538.3999999910593,33.0,60.0,40.0,False,,227.2730048615926,[],"[960, 540]",ColorTask,75.0,33.0,,,HRV,HRV_0208,2022-11-30 19:02:28
,wl-rdm,150,372373,0.0-8.33-0.33,1.0,151.0,,,,,,,[],,,,,,62.5,0.0,u,0.0,True,570.4000000059605,35.0,60.0,40.0,False,,225.69122290047716,[],"[960, 540]",ColorTask,76.0,34.0,,,HRV,HRV_0208,2022-11-30 19:02:28
,wl-rdm,151,374689,0.0-8.34-0.34,1.0,152.0,,,,,,,[],,,,,,56.4,0.0,u,0.0,True,906.5,55.0,60.0,40.0,False,,318.2446402322687,[],"[960, 540]",ColorTask,77.0,35.0,,,HRV,HRV_0208,2022-11-30 19:02:28
,wl-rdm,152,376839,0.0-8.35-0.35,1.0,153.0,,,,,,,[],,,,,,50.0,0.0,u,0.0,True,873.8999999910593,53.0,60.0,40.0,False,,200.85848450759215,[],"[960, 540]",ColorTask,78.0,36.0,,,HRV,HRV_0208,2022-11-30 19:02:28
,wl-rdm,153,378922,0.0-8.36-0.36,1.0,154.0,,,,,,,[],,,,,,56.4,0.0,u,0.0,True,662.6000000014901,40.0,60.0,40.0,False,,346.56781245140064,[],"[960, 540]",ColorTask,79.0,37.0,,,HRV,HRV_0208,2022-11-30 19:02:28
,wl-rdm,154,380905,0.0-8.37-0.37,1.0,155.0,,,,,,,[],,,,,,87.9,0.0,u,0.0,True,589.2999999970198,36.0,60.0,40.0,False,,305.2722845430842,[],"[960, 540]",ColorTask,80.0,38.0,,,HRV,HRV_0208,2022-11-30 19:02:28
,wl-rdm,155,382939,0.0-8.38-0.38,1.0,156.0,,,,,,,[],,,,,,62.5,1.0,i,1.0,True,638.2000000029802,39.0,60.0,40.0,False,,312.9630668156376,[],"[960, 540]",ColorTask,81.0,39.0,,,HRV,HRV_0208,2022-11-30 19:02:28
,wl-rdm,156,385022,0.0-8.39-0.39,1.0,157.0,,,,,,,[],,,,,,73.6,0.0,u,0.0,True,675.0,41.0,60.0,40.0,False,,335.1619382744171,[],"[960, 540]",ColorTask,82.0,40.0,,,HRV,HRV_0208,2022-11-30 19:02:28
,wl-rdm,157,387106,0.0-8.40-0.40,1.0,158.0,,,,,,,[],,,,,,73.6,0.0,u,0.0,True,622.3999999985099,38.0,60.0,40.0,False,,398.8897693546235,[],"[960, 540]",ColorTask,83.0,41.0,,,HRV,HRV_0208,2022-11-30 19:02:28
,wl-rdm,158,389039,0.0-8.41-0.41,1.0,159.0,,,,,,,[],,,,,,87.9,0.0,u,0.0,True,516.8999999985099,31.0,60.0,40.0,False,,325.0126361383716,[],"[960, 540]",ColorTask,84.0,42.0,,,HRV,HRV_0208,2022-11-30 19:02:28
,wl-rdm,159,391155,0.0-8.42-0.42,1.0,160.0,,,,,,,[],,,,,,56.4,1.0,u,0.0,False,637.7000000029802,39.0,60.0,40.0,False,,399.6388361975328,[],"[960, 540]",ColorTask,83.0,43.0,,,HRV,HRV_0208,2022-11-30 19:02:28
,wl-rdm,160,393139,0.0-8.43-0.43,1.0,161.0,,,,,,,[],,,,,,87.9,0.0,u,0.0,True,672.0,41.0,60.0,40.0,False,,246.56818702101776,[],"[960, 540]",ColorTask,84.0,44.0,,,HRV,HRV_0208,2022-11-30 19:02:28
,wl-rdm,161,395155,0.0-8.44-0.44,1.0,162.0,,,,,,,[],,,,,,62.5,1.0,i,1.0,True,638.2000000029802,39.0,60.0,40.0,False,,294.9164896347993,[],"[960, 540]",ColorTask,85.0,45.0,,,HRV,HRV_0208,2022-11-30 19:02:28
,wl-rdm,162,397005,0.0-8.45-0.45,1.0,163.0,,,,,,,[],,,,,,73.6,1.0,i,1.0,True,520.0,32.0,60.0,40.0,False,,234.61086077814088,[],"[960, 540]",ColorTask,86.0,46.0,,,HRV,HRV_0208,2022-11-30 19:02:28
,wl-rdm,163,398954,0.0-8.46-0.46,1.0,164.0,,,,,,,[],,,,,,62.5,1.0,i,1.0,True,553.8999999985099,34.0,60.0,40.0,False,,308.01924674940255,[],"[960, 540]",ColorTask,87.0,47.0,,,HRV,HRV_0208,2022-11-30 19:02:28
,wl-rdm,164,401038,0.0-8.47-0.47,1.0,165.0,,,,,,,[],,,,,,62.5,1.0,i,1.0,True,666.8999999985099,40.0,60.0,40.0,False,,344.358498135922,[],"[960, 540]",ColorTask,88.0,48.0,,,HRV,HRV_0208,2022-11-30 19:02:28
,wl-rdm,165,403254,0.0-8.48-0.48,1.0,166.0,,,,,,,[],,,,,,56.4,1.0,i,1.0,True,833.7999999895692,51.0,60.0,40.0,False,,294.68296680062906,[],"[960, 540]",ColorTask,89.0,49.0,,,HRV,HRV_0208,2022-11-30 19:02:28
,wl-rdm,166,405121,0.0-8.49-0.49,1.0,167.0,,,,,,,[],,,,,,87.9,0.0,u,0.0,True,538.8000000044703,33.0,60.0,40.0,False,,252.91793090545502,[],"[960, 540]",ColorTask,90.0,50.0,,,HRV,HRV_0208,2022-11-30 19:02:28
,wl-rdm,167,407038,0.0-8.50-0.50,1.0,168.0,,,,,,,[],,,,,,73.6,0.0,u,0.0,True,582.3000000044703,35.0,60.0,40.0,False,,278.979661748045,[],"[960, 540]",ColorTask,91.0,51.0,,,HRV,HRV_0208,2022-11-30 19:02:28
,wl-rdm,168,409205,0.0-8.51-0.51,1.0,169.0,,,,,,,[],,,,,,50.0,1.0,i,1.0,True,720.3000000044703,44.0,60.0,40.0,False,,373.9288906074405,[],"[960, 540]",ColorTask,92.0,52.0,,,HRV,HRV_0208,2022-11-30 19:02:28
,wl-rdm,169,411255,0.0-8.52-0.52,1.0,170.0,,,,,,,[],,,,,,87.9,1.0,i,1.0,True,757.2999999970198,46.0,60.0,40.0,False,,223.386457975362,[],"[960, 540]",ColorTask,93.0,53.0,,,HRV,HRV_0208,2022-11-30 19:02:28
,wl-rdm,170,413204,0.0-8.53-0.53,1.0,171.0,,,,,,,[],,,,,,56.4,0.0,u,0.0,True,675.8000000044703,41.0,60.0,40.0,False,,213.57131675640517,[],"[960, 540]",ColorTask,94.0,54.0,,,HRV,HRV_0208,2022-11-30 19:02:28
,wl-rdm,171,415388,0.0-8.54-0.54,1.0,172.0,,,,,,,[],,,,,,87.9,1.0,i,1.0,True,818.8999999910593,50.0,60.0,40.0,False,,268.0355076369135,[],"[960, 540]",ColorTask,95.0,55.0,,,HRV,HRV_0208,2022-11-30 19:02:28
,wl-rdm,172,417438,0.0-8.55-0.55,1.0,173.0,,,,,,,[],,,,,,73.6,0.0,u,0.0,True,758.5999999940395,46.0,60.0,40.0,False,,213.74870458849006,[],"[960, 540]",ColorTask,96.0,56.0,,,HRV,HRV_0208,2022-11-30 19:02:28
,wl-rdm,173,419388,0.0-8.56-0.56,1.0,174.0,,,,,,,[],,,,,,56.4,1.0,i,1.0,True,619.0999999940395,38.0,60.0,40.0,False,,249.81476987089144,[],"[960, 540]",ColorTask,97.0,57.0,,,HRV,HRV_0208,2022-11-30 19:02:28
,wl-rdm,174,421504,0.0-8.57-0.57,1.0,175.0,,,,,,,[],,,,,,73.6,1.0,i,1.0,True,646.3000000044703,39.0,60.0,40.0,False,,383.31957011124496,[],"[960, 540]",ColorTask,98.0,58.0,,,HRV,HRV_0208,2022-11-30 19:02:28
,wl-rdm,175,423605,0.0-8.58-0.58,1.0,176.0,,,,,,,[],,,,,,53.2,0.0,u,0.0,True,708.8999999985099,43.0,60.0,40.0,False,,317.2916446462792,[],"[960, 540]",ColorTask,99.0,59.0,,,HRV,HRV_0208,2022-11-30 19:02:28
,wl-rdm,176,425755,0.0-8.59-0.59,1.0,177.0,,,,,,,[],,,,,,53.2,1.0,u,0.0,False,812.2999999895692,49.0,60.0,40.0,False,,278.53035459605917,[],"[960, 540]",ColorTask,98.0,60.0,,,HRV,HRV_0208,2022-11-30 19:02:28
,wl-rdm,177,427722,0.0-8.60-0.60,1.0,178.0,,,,,,,[],,,,,,56.4,0.0,u,0.0,True,554.8999999985099,34.0,60.0,40.0,False,,332.7187697937457,[],"[960, 540]",ColorTask,99.0,61.0,,,HRV,HRV_0208,2022-11-30 19:02:28
,wl-rdm,178,429688,0.0-8.61-0.61,1.0,179.0,,,,,,,[],,,,,,87.9,1.0,i,1.0,True,539.7000000029802,33.0,60.0,40.0,False,,350.02621158538955,[],"[960, 540]",ColorTask,100.0,62.0,,,HRV,HRV_0208,2022-11-30 19:02:28
,wl-rdm,179,431488,0.0-8.62-0.62,1.0,180.0,,,,,,,[],,,,,,87.9,1.0,i,1.0,True,514.8999999985099,31.0,60.0,40.0,False,,203.89032448655024,[],"[960, 540]",ColorTask,101.0,63.0,,,HRV,HRV_0208,2022-11-30 19:02:28
,wl-rdm,180,433621,0.0-8.63-0.63,1.0,181.0,,,,,,,[],,,,,,53.2,0.0,i,1.0,False,742.1999999955297,45.0,60.0,40.0,False,,316.45529357486566,[],"[960, 540]",ColorTask,100.0,64.0,,,HRV,HRV_0208,2022-11-30 19:02:28
,wl-rdm,181,435738,0.0-8.64-0.64,1.0,182.0,,,,,,,[],,,,,,73.6,1.0,i,1.0,True,638.2000000029802,39.0,60.0,40.0,False,,389.7996738964826,[],"[960, 540]",ColorTask,101.0,65.0,,,HRV,HRV_0208,2022-11-30 19:02:28
,wl-rdm,182,437889,0.0-8.65-0.65,1.0,183.0,,,,,,,[],,,,,,53.2,0.0,i,1.0,False,856.9999999925494,52.0,60.0,40.0,False,,210.83294198491055,[],"[960, 540]",ColorTask,100.0,66.0,,,HRV,HRV_0208,2022-11-30 19:02:28
,wl-rdm,183,440154,0.0-8.66-0.66,1.0,184.0,,,,,,,[],,,,,,50.0,1.0,u,0.0,False,890.0,54.0,60.0,40.0,False,,291.89412402546964,[],"[960, 540]",ColorTask,99.0,67.0,,,HRV,HRV_0208,2022-11-30 19:02:28
,wl-rdm,184,442221,0.0-8.67-0.67,1.0,185.0,,,,,,,[],,,,,,56.4,1.0,i,1.0,True,753.2999999970198,46.0,60.0,40.0,False,,247.77958816813242,[],"[960, 540]",ColorTask,100.0,68.0,,,HRV,HRV_0208,2022-11-30 19:02:28
,wl-rdm,185,444354,0.0-8.68-0.68,1.0,186.0,,,,,,,[],,,,,,62.5,1.0,i,1.0,True,828.5,50.0,60.0,40.0,False,,220.65891592232583,[],"[960, 540]",ColorTask,101.0,69.0,,,HRV,HRV_0208,2022-11-30 19:02:28
,wl-rdm,186,446338,0.0-8.69-0.69,1.0,187.0,,,,,,,[],,,,,,62.5,0.0,u,0.0,True,671.5999999940395,41.0,60.0,40.0,False,,224.91812310469703,[],"[960, 540]",ColorTask,102.0,70.0,,,HRV,HRV_0208,2022-11-30 19:02:28
,wl-rdm,187,448504,0.0-8.70-0.70,1.0,188.0,,,,,,,[],,,,,,53.2,1.0,u,0.0,False,814.0,49.0,60.0,40.0,False,,275.67003731729085,[],"[960, 540]",ColorTask,101.0,71.0,,,HRV,HRV_0208,2022-11-30 19:02:28
,wl-rdm,188,450822,0.0-8.71-0.71,1.0,189.0,,,,,,,[],,,,,,53.2,1.0,u,0.0,False,925.0,56.0,60.0,40.0,False,,333.1842367927828,[],"[960, 540]",ColorTask,100.0,72.0,,,HRV,HRV_0208,2022-11-30 19:02:28
,wl-rdm,189,453421,0.0-8.72-0.72,1.0,190.0,,,,,,,[],,,,,,53.2,1.0,u,0.0,False,1275.8999999985099,77.0,60.0,40.0,False,,245.77392363183498,[],"[960, 540]",ColorTask,99.0,73.0,,,HRV,HRV_0208,2022-11-30 19:02:28
,wl-rdm,190,455438,0.0-8.73-0.73,1.0,191.0,,,,,,,[],,,,,,62.5,0.0,u,0.0,True,732.8999999985099,44.0,60.0,40.0,False,,219.1215406166821,[],"[960, 540]",ColorTask,100.0,74.0,,,HRV,HRV_0208,2022-11-30 19:02:28
,wl-rdm,191,457488,0.0-8.74-0.74,1.0,192.0,,,,,,,[],,,,,,62.5,1.0,i,1.0,True,757.3999999985099,46.0,60.0,40.0,False,,209.4472123055773,[],"[960, 540]",ColorTask,101.0,75.0,,,HRV,HRV_0208,2022-11-30 19:02:28
,wl-rdm,192,459438,0.0-8.75-0.75,1.0,193.0,,,,,,,[],,,,,,87.9,0.0,u,0.0,True,633.7999999970198,38.0,60.0,40.0,False,,239.6929483781189,[],"[960, 540]",ColorTask,102.0,76.0,,,HRV,HRV_0208,2022-11-30 19:02:28
,wl-rdm,193,461804,0.0-8.76-0.76,1.0,194.0,,,,,,,[],,,,,,56.4,0.0,u,0.0,True,888.4999999925494,54.0,60.0,40.0,False,,395.8848247305978,[],"[960, 540]",ColorTask,103.0,77.0,,,HRV,HRV_0208,2022-11-30 19:02:28
,wl-rdm,194,463922,0.0-8.77-0.77,1.0,195.0,,,,,,,[],,,,,,53.2,1.0,u,0.0,False,821.6000000014901,50.0,60.0,40.0,False,,205.97755280635815,[],"[960, 540]",ColorTask,102.0,78.0,,,HRV,HRV_0208,2022-11-30 19:02:28
,wl-rdm,195,465988,0.0-8.78-0.78,1.0,196.0,,,,,,,[],,,,,,87.9,0.0,u,0.0,True,744.5999999940395,45.0,60.0,40.0,False,,232.81405172981061,[],"[960, 540]",ColorTask,103.0,79.0,,,HRV,HRV_0208,2022-11-30 19:02:28
,wl-rdm,196,467938,0.0-8.79-0.79,1.0,197.0,,,,,,,[],,,,,,73.6,1.0,i,1.0,True,662.0,40.0,60.0,40.0,False,,206.60328583183167,[],"[960, 540]",ColorTask,104.0,80.0,,,HRV,HRV_0208,2022-11-30 19:02:28
,wl-rdm,197,470005,0.0-8.80-0.80,1.0,198.0,,,,,,,[],,,,,,50.0,1.0,i,1.0,True,776.1000000014901,47.0,60.0,40.0,False,,210.94922009844413,[],"[960, 540]",ColorTask,105.0,81.0,,,HRV,HRV_0208,2022-11-30 19:02:28
,wl-rdm,198,471938,0.0-8.81-0.81,1.0,199.0,,,,,,,[],,,,,,62.5,1.0,i,1.0,True,646.1000000014901,39.0,60.0,40.0,False,,202.18569597521324,[],"[960, 540]",ColorTask,106.0,82.0,,,HRV,HRV_0208,2022-11-30 19:02:28
,wl-rdm,199,474155,0.0-8.82-0.82,1.0,200.0,,,,,,,[],,,,,,56.4,0.0,u,0.0,True,771.6000000014901,47.0,60.0,40.0,False,,352.8497071861777,[],"[960, 540]",ColorTask,107.0,83.0,,,HRV,HRV_0208,2022-11-30 19:02:28
,wl-rdm,200,476039,0.0-8.83-0.83,1.0,201.0,,,,,,,[],,,,,,53.2,0.0,u,0.0,True,591.9000000059605,36.0,60.0,40.0,False,,207.87204948174647,[],"[960, 540]",ColorTask,108.0,84.0,,,HRV,HRV_0208,2022-11-30 19:02:28
,wl-rdm,201,478055,0.0-8.84-0.84,1.0,202.0,,,,,,,[],,,,,,53.2,1.0,u,0.0,False,724.7999999970198,44.0,60.0,40.0,False,,209.73078429603723,[],"[960, 540]",ColorTask,107.0,85.0,,,HRV,HRV_0208,2022-11-30 19:02:28
,wl-rdm,202,480471,0.0-8.85-0.85,1.0,203.0,,,,,,,[],,,,,,50.0,0.0,u,0.0,True,924.2999999970198,56.0,60.0,40.0,False,,388.05219581293403,[],"[960, 540]",ColorTask,108.0,86.0,,,HRV,HRV_0208,2022-11-30 19:02:28
,wl-rdm,203,483155,0.0-8.86-0.86,1.0,204.0,,,,,,,[],,,,,,50.0,0.0,u,0.0,True,1320.3000000044703,80.0,60.0,40.0,False,,288.6188571465385,[],"[960, 540]",ColorTask,109.0,87.0,,,HRV,HRV_0208,2022-11-30 19:02:28
,wl-rdm,204,485205,0.0-8.87-0.87,1.0,205.0,,,,,,,[],,,,,,56.4,1.0,i,1.0,True,592.3000000044703,36.0,60.0,40.0,False,,370.63704289535,[],"[960, 540]",ColorTask,110.0,88.0,,,HRV,HRV_0208,2022-11-30 19:02:28
,wl-rdm,205,487538,0.0-8.88-0.88,1.0,206.0,,,,,,,[],,,,,,62.5,0.0,u,0.0,True,1012.5,61.0,60.0,40.0,False,,248.01952381820314,[],"[960, 540]",ColorTask,111.0,89.0,,,HRV,HRV_0208,2022-11-30 19:02:28
,wl-rdm,206,489838,0.0-8.89-0.89,1.0,207.0,,,,,,,[],,,,,,56.4,1.0,i,1.0,True,858.3999999985099,52.0,60.0,40.0,False,,357.33584698046946,[],"[960, 540]",ColorTask,112.0,90.0,,,HRV,HRV_0208,2022-11-30 19:02:28
,wl-rdm,207,491839,0.0-8.90-0.90,1.0,208.0,,,,,,,[],,,,,,87.9,1.0,i,1.0,True,597.6000000014901,35.0,60.0,40.0,False,,340.84029856766165,[],"[960, 540]",ColorTask,113.0,91.0,,,HRV,HRV_0208,2022-11-30 19:02:28
,wl-rdm,208,493939,0.0-8.91-0.91,1.0,209.0,,,,,,,[],,,,,,50.0,1.0,u,0.0,False,712.1999999955297,43.0,60.0,40.0,False,,315.7062021494929,[],"[960, 540]",ColorTask,112.0,92.0,,,HRV,HRV_0208,2022-11-30 19:02:28
,wl-rdm,209,496038,0.0-8.92-0.92,1.0,210.0,,,,,,,[],,,,,,56.4,1.0,u,0.0,False,775.3999999985099,47.0,60.0,40.0,False,,238.58878295268508,[],"[960, 540]",ColorTask,111.0,93.0,,,HRV,HRV_0208,2022-11-30 19:02:28
,wl-rdm,210,498138,0.0-8.93-0.93,1.0,211.0,,,,,,,[],,,,,,73.6,0.0,u,0.0,True,779.2999999895692,47.0,60.0,40.0,False,,246.8996964385563,[],"[960, 540]",ColorTask,112.0,94.0,,,HRV,HRV_0208,2022-11-30 19:02:28
,wl-rdm,211,500105,0.0-8.94-0.94,1.0,212.0,,,,,,,[],,,,,,87.9,1.0,i,1.0,True,622.3000000044703,38.0,60.0,40.0,False,,253.6462998812055,[],"[960, 540]",ColorTask,113.0,95.0,,,HRV,HRV_0208,2022-11-30 19:02:28
,wl-rdm,212,502388,0.0-8.95-0.95,1.0,213.0,,,,,,,[],,,,,,50.0,0.0,u,0.0,True,893.6000000014901,54.0,60.0,40.0,False,,311.4551664260586,[],"[960, 540]",ColorTask,114.0,96.0,,,HRV,HRV_0208,2022-11-30 19:02:28
,wl-rdm,213,504371,0.0-8.96-0.96,1.0,214.0,,,,,,,[],,,,,,87.9,0.0,u,0.0,True,620.2000000029802,38.0,60.0,40.0,False,,283.06397562961666,[],"[960, 540]",ColorTask,115.0,97.0,,,HRV,HRV_0208,2022-11-30 19:02:28
,wl-rdm,214,506422,0.0-8.97-0.97,1.0,215.0,,,,,,,[],,,,,,62.5,1.0,i,1.0,True,675.2000000029802,41.0,60.0,40.0,False,,297.69760581613434,[],"[960, 540]",ColorTask,116.0,98.0,,,HRV,HRV_0208,2022-11-30 19:02:28
,wl-rdm,215,508355,0.0-8.98-0.98,1.0,216.0,,,,,,,[],,,,,,50.0,1.0,i,1.0,True,603.8999999985099,37.0,60.0,40.0,False,,240.4025931327897,[],"[960, 540]",ColorTask,117.0,99.0,,,HRV,HRV_0208,2022-11-30 19:02:28
,wl-rdm,216,510405,0.0-8.99-0.99,1.0,217.0,,,,,,,[],,,,,,53.2,0.0,i,1.0,False,759.7999999970198,46.0,60.0,40.0,False,,215.48895374417742,[],"[960, 540]",ColorTask,116.0,100.0,,,HRV,HRV_0208,2022-11-30 19:02:28
,wl-rdm,217,512455,0.0-8.100-0.100,1.0,218.0,,,,,,,[],,,,,,73.6,1.0,i,1.0,True,637.2999999970198,39.0,60.0,40.0,False,,323.6814046184638,[],"[960, 540]",ColorTask,117.0,101.0,,,HRV,HRV_0208,2022-11-30 19:02:28
,wl-rdm,218,514788,0.0-8.101-0.101,1.0,219.0,,,,,,,[],,,,,,56.4,1.0,u,0.0,False,903.3999999985099,55.0,60.0,40.0,False,,354.5303460919432,[],"[960, 540]",ColorTask,116.0,102.0,,,HRV,HRV_0208,2022-11-30 19:02:28
,wl-rdm,219,516688,0.0-8.102-0.102,1.0,220.0,,,,,,,[],,,,,,56.4,0.0,u,0.0,True,622.5,38.0,60.0,40.0,False,,204.44420143691963,[],"[960, 540]",ColorTask,117.0,103.0,,,HRV,HRV_0208,2022-11-30 19:02:28
,wl-rdm,220,518604,0.0-8.103-0.103,1.0,221.0,,,,,,,[],,,,,,73.6,0.0,u,0.0,True,592.9000000059605,36.0,60.0,40.0,False,,246.41501922872686,[],"[960, 540]",ColorTask,118.0,104.0,,,HRV,HRV_0208,2022-11-30 19:02:28
,wl-rdm,221,520704,0.0-8.104-0.104,1.0,222.0,,,,,,,[],,,,,,50.0,0.0,u,0.0,True,723.0,44.0,60.0,40.0,False,,297.31106530106496,[],"[960, 540]",ColorTask,119.0,105.0,,,HRV,HRV_0208,2022-11-30 19:02:28
,wl-rdm,222,522755,0.0-8.105-0.105,1.0,223.0,,,,,,,[],,,,,,53.2,1.0,i,1.0,True,611.5,37.0,60.0,40.0,False,,369.0140248317748,[],"[960, 540]",ColorTask,120.0,106.0,,,HRV,HRV_0208,2022-11-30 19:02:28
,wl-rdm,223,525038,0.0-8.106-0.106,1.0,224.0,,,,,,,[],,,,,,50.0,0.0,u,0.0,True,915.8000000044703,55.0,60.0,40.0,False,,307.65489373047785,[],"[960, 540]",ColorTask,121.0,107.0,,,HRV,HRV_0208,2022-11-30 19:02:28
,wl-rdm,224,527121,0.0-8.107-0.107,1.0,225.0,,,,,,,[],,,,,,87.9,1.0,i,1.0,True,637.7999999970198,39.0,60.0,40.0,False,,378.9973743728585,[],"[960, 540]",ColorTask,122.0,108.0,,,HRV,HRV_0208,2022-11-30 19:02:28
,wl-html-button-response,225,529472,0.0-9.0-0.0,,,,,,,,,,2340.89999999851,,0,,,,,,,,,,,,,,,,,,,,<h3>End of this session. Thank you!</h3><br>,['Close window'],HRV,HRV_0208,2022-11-30 19:02:28
