trialN,stimuli,trialStartTime,trialStartTime_UNIX,stimulus1,stimulus2,stimulus1Bid,stimulus2Bid,delta,selected,rt,rt_UNIX,rt_perfnow,receivedResponse,rsp,trialEndTime,trialDuration,trialEndTime_UNIX,trialDuration_UNIX,exp,subjectId,date
0,"[{'imgObject': {}, 'id': 'cheerios', 'src': '/static/foodstim60/cheerios.jpg', 'key': 'u', 'origWidth': 409, 'origHeight': 410, 'width': 409, 'height': 410, 'widthPercent': 0.45, 'rescaleHeight': False, 'trialN': 0, 'loaded': True, 'loadedTime': 4058.2999999970198, 'positionName': 'LEFT', 'positionCoords': [512.6, 335], 'bid': 0}, {'imgObject': {}, 'id': 'froot loops w milk', 'src': '/static/foodstim60/froot loops w milk.jpg', 'key': 'i', 'origWidth': 410, 'origHeight': 410, 'width': 410, 'height': 410, 'widthPercent': 0.45, 'rescaleHeight': False, 'trialN': 0, 'loaded': True, 'loadedTime': 4068, 'positionName': 'RIGHT', 'positionCoords': [998.4, 335], 'bid': 0}]",4657.5,1669833280953,cheerios,froot loops w milk,0.0,0.0,0.0,cheerios,1373.6999999955297,1374,1374.3999999985099,True,u,6547.39999999851,1889.8999999985099,1669833282843,1890,HRV,HRV_0208,2022-11-30 18:40:15
1,"[{'imgObject': {}, 'id': 'chicken nuggets2', 'src': '/static/foodstim60/chicken nuggets2.jpg', 'key': 'u', 'origWidth': 410, 'origHeight': 409, 'width': 410, 'height': 409, 'widthPercent': 0.45, 'rescaleHeight': False, 'trialN': 1, 'loaded': True, 'loadedTime': 4089.5, 'positionName': 'LEFT', 'positionCoords': [511.6, 335.5], 'bid': 8.07}, {'imgObject': {}, 'id': 'orange slices', 'src': '/static/foodstim60/orange slices.jpg', 'key': 'i', 'origWidth': 409, 'origHeight': 410, 'width': 409, 'height': 410, 'widthPercent': 0.45, 'rescaleHeight': False, 'trialN': 1, 'loaded': True, 'loadedTime': 4109.79999999702, 'positionName': 'RIGHT', 'positionCoords': [998.4, 335], 'bid': 8.07}]",6548.5,1669833282844,chicken nuggets2,orange slices,8.07,8.07,0.0,chicken nuggets2,1474.8999999985099,1475,1475.2999999970198,True,u,8533.19999999553,1984.6999999955297,1669833284828,1984,HRV,HRV_0208,2022-11-30 18:40:15
2,"[{'imgObject': {}, 'id': 'hotdog w must', 'src': '/static/foodstim60/hotdog w must.jpg', 'key': 'u', 'origWidth': 409, 'origHeight': 409, 'width': 409, 'height': 409, 'widthPercent': 0.45, 'rescaleHeight': False, 'trialN': 2, 'loaded': True, 'loadedTime': 4136, 'positionName': 'LEFT', 'positionCoords': [512.6, 335.5], 'bid': 4.22}, {'imgObject': {}, 'id': 'seaweed', 'src': '/static/foodstim60/seaweed.jpg', 'key': 'i', 'origWidth': 410, 'origHeight': 410, 'width': 410, 'height': 410, 'widthPercent': 0.45, 'rescaleHeight': False, 'trialN': 2, 'loaded': True, 'loadedTime': 4156.89999999851, 'positionName': 'RIGHT', 'positionCoords': [998.4, 335], 'bid': 2.63}]",8533.59999999404,1669833284829,hotdog w must,seaweed,4.22,2.63,-1.5899999999999999,hotdog w must,1377.5,1378,1377.9000000059605,True,u,10428.69999999553,1895.1000000014901,1669833286724,1895,HRV,HRV_0208,2022-11-30 18:40:15
3,"[{'imgObject': {}, 'id': 'salad w chicken', 'src': '/static/foodstim60/salad w chicken.jpg', 'key': 'u', 'origWidth': 411, 'origHeight': 411, 'width': 411, 'height': 411, 'widthPercent': 0.45, 'rescaleHeight': False, 'trialN': 3, 'loaded': True, 'loadedTime': 4166.0999999940395, 'positionName': 'LEFT', 'positionCoords': [510.6, 334.5], 'bid': 9.96}, {'imgObject': {}, 'id': 'fruitsalad', 'src': '/static/foodstim60/fruitsalad.jpg', 'key': 'i', 'origWidth': 410, 'origHeight': 410, 'width': 410, 'height': 410, 'widthPercent': 0.45, 'rescaleHeight': False, 'trialN': 3, 'loaded': True, 'loadedTime': 4196.5999999940395, 'positionName': 'RIGHT', 'positionCoords': [998.4, 335], 'bid': 10}]",10428.79999999702,1669833286724,salad w chicken,fruitsalad,9.96,10.0,0.03999999999999915,salad w chicken,843.1000000014901,844,843.6000000014901,True,u,11777.69999999553,1348.8999999985099,1669833288073,1349,HRV,HRV_0208,2022-11-30 18:40:15
4,"[{'imgObject': {}, 'id': 'cocktailshrimp', 'src': '/static/foodstim60/cocktailshrimp.jpg', 'key': 'u', 'origWidth': 410, 'origHeight': 410, 'width': 410, 'height': 410, 'widthPercent': 0.45, 'rescaleHeight': False, 'trialN': 4, 'loaded': True, 'loadedTime': 4196.69999999553, 'positionName': 'LEFT', 'positionCoords': [511.6, 335], 'bid': 0}, {'imgObject': {}, 'id': 'yogurt no spoon', 'src': '/static/foodstim60/yogurt no spoon.jpg', 'key': 'i', 'origWidth': 411, 'origHeight': 410, 'width': 411, 'height': 410, 'widthPercent': 0.45, 'rescaleHeight': False, 'trialN': 4, 'loaded': True, 'loadedTime': 4213.69999999553, 'positionName': 'RIGHT', 'positionCoords': [998.4, 335], 'bid': 6.96}]",11778.29999999702,1669833288074,cocktailshrimp,yogurt no spoon,0.0,6.96,6.96,yogurt no spoon,1004.7999999970198,1005,1005.3999999985099,True,i,13290.39999999851,1512.1000000014901,1669833289586,1512,HRV,HRV_0208,2022-11-30 18:40:15
5,"[{'imgObject': {}, 'id': 'baked potato', 'src': '/static/foodstim60/baked potato.jpg', 'key': 'u', 'origWidth': 409, 'origHeight': 410, 'width': 409, 'height': 410, 'widthPercent': 0.45, 'rescaleHeight': False, 'trialN': 5, 'loaded': True, 'loadedTime': 4239.19999999553, 'positionName': 'LEFT', 'positionCoords': [512.6, 335], 'bid': 5.83}, {'imgObject': {}, 'id': 'blackbeanswithrice', 'src': '/static/foodstim60/blackbeanswithrice.jpg', 'key': 'i', 'origWidth': 410, 'origHeight': 410, 'width': 410, 'height': 410, 'widthPercent': 0.45, 'rescaleHeight': False, 'trialN': 5, 'loaded': True, 'loadedTime': 4248.89999999851, 'positionName': 'RIGHT', 'positionCoords': [998.4, 335], 'bid': 0}]",13290.79999999702,1669833289586,baked potato,blackbeanswithrice,5.83,0.0,-5.83,baked potato,1300.6000000014901,1301,1301.1000000014901,True,u,15109.19999999553,1818.3999999985099,1669833291404,1818,HRV,HRV_0208,2022-11-30 18:40:15
6,"[{'imgObject': {}, 'id': 'strawberries', 'src': '/static/foodstim60/strawberries.jpg', 'key': 'u', 'origWidth': 410, 'origHeight': 410, 'width': 410, 'height': 410, 'widthPercent': 0.45, 'rescaleHeight': False, 'trialN': 6, 'loaded': True, 'loadedTime': 4257.79999999702, 'positionName': 'LEFT', 'positionCoords': [511.6, 335], 'bid': 9.19}, {'imgObject': {}, 'id': 'raspberries', 'src': '/static/foodstim60/raspberries.jpg', 'key': 'i', 'origWidth': 411, 'origHeight': 411, 'width': 411, 'height': 411, 'widthPercent': 0.45, 'rescaleHeight': False, 'trialN': 6, 'loaded': True, 'loadedTime': 4267.39999999851, 'positionName': 'RIGHT', 'positionCoords': [998.4, 334.5], 'bid': 9.59}]",15109.79999999702,1669833291405,strawberries,raspberries,9.19,9.59,0.40000000000000036,strawberries,1305.2000000029802,1306,1305.6000000014901,True,u,16924.59999999404,1814.7999999970198,1669833293220,1815,HRV,HRV_0208,2022-11-30 18:40:15
7,"[{'imgObject': {}, 'id': 'shreddedwheatwithmilk', 'src': '/static/foodstim60/shreddedwheatwithmilk.jpg', 'key': 'u', 'origWidth': 410, 'origHeight': 410, 'width': 410, 'height': 410, 'widthPercent': 0.45, 'rescaleHeight': False, 'trialN': 7, 'loaded': True, 'loadedTime': 4294.29999999702, 'positionName': 'LEFT', 'positionCoords': [511.6, 335], 'bid': 0}, {'imgObject': {}, 'id': 'blackbeanswithrice', 'src': '/static/foodstim60/blackbeanswithrice.jpg', 'key': 'i', 'origWidth': 410, 'origHeight': 410, 'width': 410, 'height': 410, 'widthPercent': 0.45, 'rescaleHeight': False, 'trialN': 7, 'loaded': True, 'loadedTime': 4249, 'positionName': 'RIGHT', 'positionCoords': [998.4, 335], 'bid': 0}]",16924.89999999851,1669833293220,shreddedwheatwithmilk,blackbeanswithrice,0.0,0.0,0.0,shreddedwheatwithmilk,1090.2999999970198,1091,1090.8999999985099,True,u,18530.79999999702,1605.8999999985099,1669833294826,1606,HRV,HRV_0208,2022-11-30 18:40:15
8,"[{'imgObject': {}, 'id': 'steak', 'src': '/static/foodstim60/steak.jpg', 'key': 'u', 'origWidth': 410, 'origHeight': 410, 'width': 410, 'height': 410, 'widthPercent': 0.45, 'rescaleHeight': False, 'trialN': 8, 'loaded': True, 'loadedTime': 4304.89999999851, 'positionName': 'LEFT', 'positionCoords': [511.6, 335], 'bid': 8.41}, {'imgObject': {}, 'id': 'avocado', 'src': '/static/foodstim60/avocado.jpg', 'key': 'i', 'origWidth': 409, 'origHeight': 409, 'width': 409, 'height': 409, 'widthPercent': 0.45, 'rescaleHeight': False, 'trialN': 8, 'loaded': True, 'loadedTime': 4314.89999999851, 'positionName': 'RIGHT', 'positionCoords': [998.4, 335.5], 'bid': 9.72}]",18531.39999999851,1669833294827,steak,avocado,8.41,9.72,1.3100000000000005,avocado,1667.6000000014901,1668,1668.0,True,i,20711.79999999702,2180.39999999851,1669833297007,2180,HRV,HRV_0208,2022-11-30 18:40:15
9,"[{'imgObject': {}, 'id': 'mashed potato', 'src': '/static/foodstim60/mashed potato.jpg', 'key': 'u', 'origWidth': 409, 'origHeight': 409, 'width': 409, 'height': 409, 'widthPercent': 0.45, 'rescaleHeight': False, 'trialN': 9, 'loaded': True, 'loadedTime': 4335.0999999940395, 'positionName': 'LEFT', 'positionCoords': [512.6, 335.5], 'bid': 1.37}, {'imgObject': {}, 'id': 'kiwi', 'src': '/static/foodstim60/kiwi.jpg', 'key': 'i', 'origWidth': 410, 'origHeight': 410, 'width': 410, 'height': 410, 'widthPercent': 0.45, 'rescaleHeight': False, 'trialN': 9, 'loaded': True, 'loadedTime': 4336.29999999702, 'positionName': 'RIGHT', 'positionCoords': [998.4, 335], 'bid': 8.870000000000001}]",20712.09999999404,1669833297007,mashed potato,kiwi,1.37,8.870000000000001,7.500000000000001,kiwi,1119.7000000029802,1121,1120.6000000014901,True,i,22345.5,1633.4000000059605,1669833298641,1634,HRV,HRV_0208,2022-11-30 18:40:15
10,"[{'imgObject': {}, 'id': 'popsicles', 'src': '/static/foodstim60/popsicles.jpg', 'key': 'u', 'origWidth': 410, 'origHeight': 410, 'width': 410, 'height': 410, 'widthPercent': 0.45, 'rescaleHeight': False, 'trialN': 10, 'loaded': True, 'loadedTime': 4656.89999999851, 'positionName': 'LEFT', 'positionCoords': [511.6, 335], 'bid': 6.45}, {'imgObject': {}, 'id': 'eggsalad', 'src': '/static/foodstim60/eggsalad.jpg', 'key': 'i', 'origWidth': 410, 'origHeight': 409, 'width': 410, 'height': 409, 'widthPercent': 0.45, 'rescaleHeight': False, 'trialN': 10, 'loaded': True, 'loadedTime': 4353.29999999702, 'positionName': 'RIGHT', 'positionCoords': [998.4, 335.5], 'bid': 0}]",22345.79999999702,1669833298641,popsicles,eggsalad,6.45,0.0,-6.45,popsicles,1277.5,1278,1277.8999999985099,True,u,24141.09999999404,1795.2999999970198,1669833300436,1795,HRV,HRV_0208,2022-11-30 18:40:15
11,"[{'imgObject': {}, 'id': 'veggieswithdip', 'src': '/static/foodstim60/veggieswithdip.jpg', 'key': 'u', 'origWidth': 409, 'origHeight': 409, 'width': 409, 'height': 409, 'widthPercent': 0.45, 'rescaleHeight': False, 'trialN': 11, 'loaded': True, 'loadedTime': 4362.79999999702, 'positionName': 'LEFT', 'positionCoords': [512.6, 335.5], 'bid': 2.83}, {'imgObject': {}, 'id': 'popsicles', 'src': '/static/foodstim60/popsicles.jpg', 'key': 'i', 'origWidth': 410, 'origHeight': 410, 'width': 410, 'height': 410, 'widthPercent': 0.45, 'rescaleHeight': False, 'trialN': 11, 'loaded': True, 'loadedTime': 4656.79999999702, 'positionName': 'RIGHT', 'positionCoords': [998.4, 335], 'bid': 6.45}]",24141.79999999702,1669833300437,veggieswithdip,popsicles,2.83,6.45,3.62,popsicles,1185.6000000014901,1186,1186.0,True,i,25845.19999999553,1703.3999999985099,1669833302140,1703,HRV,HRV_0208,2022-11-30 18:40:15
12,"[{'imgObject': {}, 'id': 'blueberries', 'src': '/static/foodstim60/blueberries.jpg', 'key': 'u', 'origWidth': 411, 'origHeight': 411, 'width': 411, 'height': 411, 'widthPercent': 0.45, 'rescaleHeight': False, 'trialN': 12, 'loaded': True, 'loadedTime': 4372.69999999553, 'positionName': 'LEFT', 'positionCoords': [510.6, 334.5], 'bid': 2.08}, {'imgObject': {}, 'id': 'banana', 'src': '/static/foodstim60/banana.jpg', 'key': 'i', 'origWidth': 410, 'origHeight': 410, 'width': 410, 'height': 410, 'widthPercent': 0.45, 'rescaleHeight': False, 'trialN': 12, 'loaded': True, 'loadedTime': 4388.39999999851, 'positionName': 'RIGHT', 'positionCoords': [998.4, 335], 'bid': 6.8}]",25845.69999999553,1669833302141,blueberries,banana,2.08,6.8,4.72,banana,993.3999999985099,994,994.0,True,i,27363.19999999553,1517.5,1669833303658,1517,HRV,HRV_0208,2022-11-30 18:40:15
13,"[{'imgObject': {}, 'id': 'grilled chicken strips', 'src': '/static/foodstim60/grilled chicken strips.jpg', 'key': 'u', 'origWidth': 410, 'origHeight': 411, 'width': 410, 'height': 411, 'widthPercent': 0.45, 'rescaleHeight': False, 'trialN': 13, 'loaded': True, 'loadedTime': 4402.39999999851, 'positionName': 'LEFT', 'positionCoords': [511.6, 334.5], 'bid': 1.43}, {'imgObject': {}, 'id': 'rigatoni', 'src': '/static/foodstim60/rigatoni.jpg', 'key': 'i', 'origWidth': 411, 'origHeight': 411, 'width': 411, 'height': 411, 'widthPercent': 0.45, 'rescaleHeight': False, 'trialN': 13, 'loaded': True, 'loadedTime': 4409.39999999851, 'positionName': 'RIGHT', 'positionCoords': [998.4, 334.5], 'bid': 0.16}]",27363.39999999851,1669833303659,grilled chicken strips,rigatoni,1.43,0.16,-1.27,grilled chicken strips,1780.0,1780,1780.5,True,u,29654.0,2290.60000000149,1669833305949,2290,HRV,HRV_0208,2022-11-30 18:40:15
14,"[{'imgObject': {}, 'id': 'fried eggs', 'src': '/static/foodstim60/fried eggs.jpg', 'key': 'u', 'origWidth': 410, 'origHeight': 410, 'width': 410, 'height': 410, 'widthPercent': 0.45, 'rescaleHeight': False, 'trialN': 14, 'loaded': True, 'loadedTime': 4428.19999999553, 'positionName': 'LEFT', 'positionCoords': [511.6, 335], 'bid': 0}, {'imgObject': {}, 'id': 'eggsalad', 'src': '/static/foodstim60/eggsalad.jpg', 'key': 'i', 'origWidth': 410, 'origHeight': 409, 'width': 410, 'height': 409, 'widthPercent': 0.45, 'rescaleHeight': False, 'trialN': 14, 'loaded': True, 'loadedTime': 4345.79999999702, 'positionName': 'RIGHT', 'positionCoords': [998.4, 335.5], 'bid': 0}]",29654.29999999702,1669833305950,fried eggs,eggsalad,0.0,0.0,0.0,eggsalad,1881.1000000014901,1881,1881.5,True,i,32053.0,2398.7000000029802,1669833308348,2398,HRV,HRV_0208,2022-11-30 18:40:15
15,"[{'imgObject': {}, 'id': 'eggsalad', 'src': '/static/foodstim60/eggsalad.jpg', 'key': 'u', 'origWidth': 410, 'origHeight': 409, 'width': 410, 'height': 409, 'widthPercent': 0.45, 'rescaleHeight': False, 'trialN': 15, 'loaded': True, 'loadedTime': 4352.89999999851, 'positionName': 'LEFT', 'positionCoords': [511.6, 335.5], 'bid': 0}, {'imgObject': {}, 'id': 'eggs', 'src': '/static/foodstim60/eggs.jpg', 'key': 'i', 'origWidth': 409, 'origHeight': 409, 'width': 409, 'height': 409, 'widthPercent': 0.45, 'rescaleHeight': False, 'trialN': 15, 'loaded': True, 'loadedTime': 4428.5999999940395, 'positionName': 'RIGHT', 'positionCoords': [998.4, 335.5], 'bid': 0}]",32053.5,1669833308349,eggsalad,eggs,0.0,0.0,0.0,eggsalad,1930.2999999970198,1930,1930.6999999955297,True,u,34497.59999999404,2444.0999999940395,1669833310793,2444,HRV,HRV_0208,2022-11-30 18:40:15
16,"[{'imgObject': {}, 'id': 'blueberries', 'src': '/static/foodstim60/blueberries.jpg', 'key': 'u', 'origWidth': 411, 'origHeight': 411, 'width': 411, 'height': 411, 'widthPercent': 0.45, 'rescaleHeight': False, 'trialN': 16, 'loaded': True, 'loadedTime': 4372.5, 'positionName': 'LEFT', 'positionCoords': [510.6, 334.5], 'bid': 2.08}, {'imgObject': {}, 'id': 'seaweed', 'src': '/static/foodstim60/seaweed.jpg', 'key': 'i', 'origWidth': 410, 'origHeight': 410, 'width': 410, 'height': 410, 'widthPercent': 0.45, 'rescaleHeight': False, 'trialN': 16, 'loaded': True, 'loadedTime': 4148.39999999851, 'positionName': 'RIGHT', 'positionCoords': [998.4, 335], 'bid': 2.63}]",34498.19999999553,1669833310793,blueberries,seaweed,2.08,2.63,0.5499999999999998,blueberries,1645.1000000014901,1646,1645.6000000014901,True,u,36652.19999999553,2154.0,1669833312948,2155,HRV,HRV_0208,2022-11-30 18:40:15
17,"[{'imgObject': {}, 'id': 'raspberries', 'src': '/static/foodstim60/raspberries.jpg', 'key': 'u', 'origWidth': 411, 'origHeight': 411, 'width': 411, 'height': 411, 'widthPercent': 0.45, 'rescaleHeight': False, 'trialN': 17, 'loaded': True, 'loadedTime': 4267.5, 'positionName': 'LEFT', 'positionCoords': [510.6, 334.5], 'bid': 9.59}, {'imgObject': {}, 'id': 'turkey sandwich', 'src': '/static/foodstim60/turkey sandwich.jpg', 'key': 'i', 'origWidth': 409, 'origHeight': 409, 'width': 409, 'height': 409, 'widthPercent': 0.45, 'rescaleHeight': False, 'trialN': 17, 'loaded': True, 'loadedTime': 4448.69999999553, 'positionName': 'RIGHT', 'positionCoords': [998.4, 335.5], 'bid': 8.77}]",36652.69999999553,1669833312948,raspberries,turkey sandwich,9.59,8.77,-0.8200000000000003,turkey sandwich,1330.3999999985099,1331,1330.8999999985099,True,i,38497.09999999404,1844.3999999985099,1669833314792,1844,HRV,HRV_0208,2022-11-30 18:40:15
18,"[{'imgObject': {}, 'id': 'salmon', 'src': '/static/foodstim60/salmon.jpg', 'key': 'u', 'origWidth': 410, 'origHeight': 409, 'width': 410, 'height': 409, 'widthPercent': 0.45, 'rescaleHeight': False, 'trialN': 18, 'loaded': True, 'loadedTime': 4457.19999999553, 'positionName': 'LEFT', 'positionCoords': [511.6, 335.5], 'bid': 8.19}, {'imgObject': {}, 'id': 'steak', 'src': '/static/foodstim60/steak.jpg', 'key': 'i', 'origWidth': 410, 'origHeight': 410, 'width': 410, 'height': 410, 'widthPercent': 0.45, 'rescaleHeight': False, 'trialN': 18, 'loaded': True, 'loadedTime': 4304.5999999940395, 'positionName': 'RIGHT', 'positionCoords': [998.4, 335], 'bid': 8.41}]",38497.5,1669833314793,salmon,steak,8.19,8.41,0.22000000000000064,steak,1653.3999999985099,1654,1654.2999999970198,True,i,40664.0,2166.5,1669833316959,2166,HRV,HRV_0208,2022-11-30 18:40:15
19,"[{'imgObject': {}, 'id': 'froot loops w milk', 'src': '/static/foodstim60/froot loops w milk.jpg', 'key': 'u', 'origWidth': 410, 'origHeight': 410, 'width': 410, 'height': 410, 'widthPercent': 0.45, 'rescaleHeight': False, 'trialN': 19, 'loaded': True, 'loadedTime': 4069, 'positionName': 'LEFT', 'positionCoords': [511.6, 335], 'bid': 0}, {'imgObject': {}, 'id': 'cocktailshrimp', 'src': '/static/foodstim60/cocktailshrimp.jpg', 'key': 'i', 'origWidth': 410, 'origHeight': 410, 'width': 410, 'height': 410, 'widthPercent': 0.45, 'rescaleHeight': False, 'trialN': 19, 'loaded': True, 'loadedTime': 4212.5999999940395, 'positionName': 'RIGHT', 'positionCoords': [998.4, 335], 'bid': 0}]",40664.19999999553,1669833316959,froot loops w milk,cocktailshrimp,0.0,0.0,0.0,froot loops w milk,1335.8000000044703,1337,1336.2000000029802,True,u,42517.5,1853.3000000044703,1669833318813,1854,HRV,HRV_0208,2022-11-30 18:40:15
20,"[{'imgObject': {}, 'id': 'Grapes', 'src': '/static/foodstim60/Grapes.jpg', 'key': 'u', 'origWidth': 411, 'origHeight': 411, 'width': 411, 'height': 411, 'widthPercent': 0.45, 'rescaleHeight': False, 'trialN': 20, 'loaded': True, 'loadedTime': 4458, 'positionName': 'LEFT', 'positionCoords': [510.6, 334.5], 'bid': 8.1}, {'imgObject': {}, 'id': 'cherries', 'src': '/static/foodstim60/cherries.jpg', 'key': 'i', 'origWidth': 410, 'origHeight': 411, 'width': 410, 'height': 411, 'widthPercent': 0.45, 'rescaleHeight': False, 'trialN': 20, 'loaded': True, 'loadedTime': 4468.79999999702, 'positionName': 'RIGHT', 'positionCoords': [998.4, 334.5], 'bid': 8.13}]",42518.09999999404,1669833318813,Grapes,cherries,8.1,8.13,0.030000000000001137,Grapes,1473.3000000044703,1474,1473.7000000029802,True,u,44506.39999999851,1988.3000000044703,1669833320802,1989,HRV,HRV_0208,2022-11-30 18:40:15
21,"[{'imgObject': {}, 'id': 'cheerios', 'src': '/static/foodstim60/cheerios.jpg', 'key': 'u', 'origWidth': 409, 'origHeight': 410, 'width': 409, 'height': 410, 'widthPercent': 0.45, 'rescaleHeight': False, 'trialN': 21, 'loaded': True, 'loadedTime': 4051.0999999940395, 'positionName': 'LEFT', 'positionCoords': [512.6, 335], 'bid': 0}, {'imgObject': {}, 'id': 'corn cob', 'src': '/static/foodstim60/corn cob.jpg', 'key': 'i', 'origWidth': 411, 'origHeight': 411, 'width': 411, 'height': 411, 'widthPercent': 0.45, 'rescaleHeight': False, 'trialN': 21, 'loaded': True, 'loadedTime': 4478.69999999553, 'positionName': 'RIGHT', 'positionCoords': [998.4, 334.5], 'bid': 7.1000000000000005}]",44506.59999999404,1669833320802,cheerios,corn cob,0.0,7.1000000000000005,7.1000000000000005,cheerios,2173.10000000149,2173,2173.5,True,u,47187.59999999404,2681.0,1669833323483,2681,HRV,HRV_0208,2022-11-30 18:40:15
22,"[{'imgObject': {}, 'id': 'bagel and cc', 'src': '/static/foodstim60/bagel and cc.jpg', 'key': 'u', 'origWidth': 410, 'origHeight': 410, 'width': 410, 'height': 410, 'widthPercent': 0.45, 'rescaleHeight': False, 'trialN': 22, 'loaded': True, 'loadedTime': 4488.29999999702, 'positionName': 'LEFT', 'positionCoords': [511.6, 335], 'bid': 0.01}, {'imgObject': {}, 'id': 'burger', 'src': '/static/foodstim60/burger.jpg', 'key': 'i', 'origWidth': 409, 'origHeight': 409, 'width': 409, 'height': 409, 'widthPercent': 0.45, 'rescaleHeight': False, 'trialN': 22, 'loaded': True, 'loadedTime': 4499, 'positionName': 'RIGHT', 'positionCoords': [998.4, 335.5], 'bid': 0.8}]",47188.09999999404,1669833323483,bagel and cc,burger,0.01,0.8,0.79,burger,1883.2000000029802,1884,1883.5,True,i,49582.19999999553,2394.10000000149,1669833325877,2394,HRV,HRV_0208,2022-11-30 18:40:15
23,"[{'imgObject': {}, 'id': 'strawberries', 'src': '/static/foodstim60/strawberries.jpg', 'key': 'u', 'origWidth': 410, 'origHeight': 410, 'width': 410, 'height': 410, 'widthPercent': 0.45, 'rescaleHeight': False, 'trialN': 23, 'loaded': True, 'loadedTime': 4258, 'positionName': 'LEFT', 'positionCoords': [511.6, 335], 'bid': 9.19}, {'imgObject': {}, 'id': 'turkeysandwich', 'src': '/static/foodstim60/turkeysandwich.jpg', 'key': 'i', 'origWidth': 409, 'origHeight': 409, 'width': 409, 'height': 409, 'widthPercent': 0.45, 'rescaleHeight': False, 'trialN': 23, 'loaded': True, 'loadedTime': 4508.79999999702, 'positionName': 'RIGHT', 'positionCoords': [998.4, 335.5], 'bid': 7.66}]",49582.69999999553,1669833325878,strawberries,turkeysandwich,9.19,7.66,-1.5299999999999994,turkeysandwich,1424.5,1425,1425.1000000014901,True,i,51511.19999999553,1928.5,1669833327806,1928,HRV,HRV_0208,2022-11-30 18:40:15
24,"[{'imgObject': {}, 'id': 'Grapes', 'src': '/static/foodstim60/Grapes.jpg', 'key': 'u', 'origWidth': 411, 'origHeight': 411, 'width': 411, 'height': 411, 'widthPercent': 0.45, 'rescaleHeight': False, 'trialN': 24, 'loaded': True, 'loadedTime': 4467.5999999940395, 'positionName': 'LEFT', 'positionCoords': [510.6, 334.5], 'bid': 8.1}, {'imgObject': {}, 'id': 'avocado', 'src': '/static/foodstim60/avocado.jpg', 'key': 'i', 'origWidth': 409, 'origHeight': 409, 'width': 409, 'height': 409, 'widthPercent': 0.45, 'rescaleHeight': False, 'trialN': 24, 'loaded': True, 'loadedTime': 4314.79999999702, 'positionName': 'RIGHT', 'positionCoords': [998.4, 335.5], 'bid': 9.72}]",51511.5,1669833327807,Grapes,avocado,8.1,9.72,1.620000000000001,avocado,1311.8999999985099,1312,1312.1999999955297,True,i,53341.79999999702,1830.2999999970198,1669833329637,1830,HRV,HRV_0208,2022-11-30 18:40:15
25,"[{'imgObject': {}, 'id': 'eggs', 'src': '/static/foodstim60/eggs.jpg', 'key': 'u', 'origWidth': 409, 'origHeight': 409, 'width': 409, 'height': 409, 'widthPercent': 0.45, 'rescaleHeight': False, 'trialN': 25, 'loaded': True, 'loadedTime': 4439.29999999702, 'positionName': 'LEFT', 'positionCoords': [512.6, 335.5], 'bid': 0}, {'imgObject': {}, 'id': 'hotdog w must', 'src': '/static/foodstim60/hotdog w must.jpg', 'key': 'i', 'origWidth': 409, 'origHeight': 409, 'width': 409, 'height': 409, 'widthPercent': 0.45, 'rescaleHeight': False, 'trialN': 25, 'loaded': True, 'loadedTime': 4148.0999999940395, 'positionName': 'RIGHT', 'positionCoords': [998.4, 335.5], 'bid': 4.22}]",53342.0,1669833329637,eggs,hotdog w must,0.0,4.22,4.22,hotdog w must,1217.3999999985099,1218,1217.7999999970198,True,i,55065.39999999851,1723.3999999985099,1669833331361,1724,HRV,HRV_0208,2022-11-30 18:40:15
26,"[{'imgObject': {}, 'id': 'cocktailshrimp', 'src': '/static/foodstim60/cocktailshrimp.jpg', 'key': 'u', 'origWidth': 410, 'origHeight': 410, 'width': 410, 'height': 410, 'widthPercent': 0.45, 'rescaleHeight': False, 'trialN': 26, 'loaded': True, 'loadedTime': 4212.79999999702, 'positionName': 'LEFT', 'positionCoords': [511.6, 335], 'bid': 0}, {'imgObject': {}, 'id': 'luckycharms', 'src': '/static/foodstim60/luckycharms.jpg', 'key': 'i', 'origWidth': 410, 'origHeight': 409, 'width': 410, 'height': 409, 'widthPercent': 0.45, 'rescaleHeight': False, 'trialN': 26, 'loaded': True, 'loadedTime': 4519.39999999851, 'positionName': 'RIGHT', 'positionCoords': [998.4, 335.5], 'bid': 0}]",55065.59999999404,1669833331361,cocktailshrimp,luckycharms,0.0,0.0,0.0,luckycharms,1293.7000000029802,1294,1294.2000000029802,True,i,56866.39999999851,1800.8000000044703,1669833333162,1801,HRV,HRV_0208,2022-11-30 18:40:15
27,"[{'imgObject': {}, 'id': 'mac & cheese', 'src': '/static/foodstim60/mac & cheese.jpg', 'key': 'u', 'origWidth': 410, 'origHeight': 410, 'width': 410, 'height': 410, 'widthPercent': 0.45, 'rescaleHeight': False, 'trialN': 27, 'loaded': True, 'loadedTime': 4538.69999999553, 'positionName': 'LEFT', 'positionCoords': [511.6, 335], 'bid': 8.790000000000001}, {'imgObject': {}, 'id': 'chickenfingers', 'src': '/static/foodstim60/chickenfingers.jpg', 'key': 'i', 'origWidth': 410, 'origHeight': 410, 'width': 410, 'height': 410, 'widthPercent': 0.45, 'rescaleHeight': False, 'trialN': 27, 'loaded': True, 'loadedTime': 4548.69999999553, 'positionName': 'RIGHT', 'positionCoords': [998.4, 335], 'bid': 8.46}]",56866.69999999553,1669833333162,mac & cheese,chickenfingers,8.790000000000001,8.46,-0.33000000000000007,mac & cheese,1325.2000000029802,1326,1325.6000000014901,True,u,58696.89999999851,1830.2000000029802,1669833334992,1830,HRV,HRV_0208,2022-11-30 18:40:15
28,"[{'imgObject': {}, 'id': 'chickenfingers', 'src': '/static/foodstim60/chickenfingers.jpg', 'key': 'u', 'origWidth': 410, 'origHeight': 410, 'width': 410, 'height': 410, 'widthPercent': 0.45, 'rescaleHeight': False, 'trialN': 28, 'loaded': True, 'loadedTime': 4540.29999999702, 'positionName': 'LEFT', 'positionCoords': [511.6, 335], 'bid': 8.46}, {'imgObject': {}, 'id': 'turkey sandwich', 'src': '/static/foodstim60/turkey sandwich.jpg', 'key': 'i', 'origWidth': 409, 'origHeight': 409, 'width': 409, 'height': 409, 'widthPercent': 0.45, 'rescaleHeight': False, 'trialN': 28, 'loaded': True, 'loadedTime': 4448.79999999702, 'positionName': 'RIGHT', 'positionCoords': [998.4, 335.5], 'bid': 8.77}]",58697.19999999553,1669833334992,chickenfingers,turkey sandwich,8.46,8.77,0.3099999999999987,turkey sandwich,1189.8000000044703,1191,1190.6000000014901,True,i,60391.59999999404,1694.3999999985099,1669833336687,1695,HRV,HRV_0208,2022-11-30 18:40:15
29,"[{'imgObject': {}, 'id': 'blackbeanswithrice', 'src': '/static/foodstim60/blackbeanswithrice.jpg', 'key': 'u', 'origWidth': 410, 'origHeight': 410, 'width': 410, 'height': 410, 'widthPercent': 0.45, 'rescaleHeight': False, 'trialN': 29, 'loaded': True, 'loadedTime': 4239.29999999702, 'positionName': 'LEFT', 'positionCoords': [511.6, 335], 'bid': 0}, {'imgObject': {}, 'id': 'cheerios', 'src': '/static/foodstim60/cheerios.jpg', 'key': 'i', 'origWidth': 409, 'origHeight': 410, 'width': 409, 'height': 410, 'widthPercent': 0.45, 'rescaleHeight': False, 'trialN': 29, 'loaded': True, 'loadedTime': 3964.5, 'positionName': 'RIGHT', 'positionCoords': [998.4, 335], 'bid': 0}]",60391.79999999702,1669833336687,blackbeanswithrice,cheerios,0.0,0.0,0.0,cheerios,1047.7000000029802,1048,1048.0,True,i,61949.09999999404,1557.2999999970198,1669833338244,1557,HRV,HRV_0208,2022-11-30 18:40:15
30,"[{'imgObject': {}, 'id': 'turkey sandwich', 'src': '/static/foodstim60/turkey sandwich.jpg', 'key': 'u', 'origWidth': 409, 'origHeight': 409, 'width': 409, 'height': 409, 'widthPercent': 0.45, 'rescaleHeight': False, 'trialN': 30, 'loaded': True, 'loadedTime': 4439.39999999851, 'positionName': 'LEFT', 'positionCoords': [512.6, 335.5], 'bid': 8.77}, {'imgObject': {}, 'id': 'olives', 'src': '/static/foodstim60/olives.jpg', 'key': 'i', 'origWidth': 410, 'origHeight': 410, 'width': 410, 'height': 410, 'widthPercent': 0.45, 'rescaleHeight': False, 'trialN': 30, 'loaded': True, 'loadedTime': 4549.5, 'positionName': 'RIGHT', 'positionCoords': [998.4, 335], 'bid': 8.83}]",61949.39999999851,1669833338245,turkey sandwich,olives,8.77,8.83,0.0600000000000005,turkey sandwich,1209.8999999985099,1210,1210.3999999985099,True,u,63664.79999999702,1715.3999999985099,1669833339960,1715,HRV,HRV_0208,2022-11-30 18:40:15
31,"[{'imgObject': {}, 'id': 'edamame', 'src': '/static/foodstim60/edamame.jpg', 'key': 'u', 'origWidth': 409, 'origHeight': 410, 'width': 409, 'height': 410, 'widthPercent': 0.45, 'rescaleHeight': False, 'trialN': 31, 'loaded': True, 'loadedTime': 4550.5999999940395, 'positionName': 'LEFT', 'positionCoords': [512.6, 335], 'bid': 6.46}, {'imgObject': {}, 'id': 'yogurt no spoon', 'src': '/static/foodstim60/yogurt no spoon.jpg', 'key': 'i', 'origWidth': 411, 'origHeight': 410, 'width': 411, 'height': 410, 'widthPercent': 0.45, 'rescaleHeight': False, 'trialN': 31, 'loaded': True, 'loadedTime': 4220.5, 'positionName': 'RIGHT', 'positionCoords': [998.4, 335], 'bid': 6.96}]",63665.19999999553,1669833339960,edamame,yogurt no spoon,6.46,6.96,0.5,yogurt no spoon,1702.2000000029802,1704,1703.5,True,i,65871.59999999404,2206.39999999851,1669833342167,2207,HRV,HRV_0208,2022-11-30 18:40:15
32,"[{'imgObject': {}, 'id': 'salmon', 'src': '/static/foodstim60/salmon.jpg', 'key': 'u', 'origWidth': 410, 'origHeight': 409, 'width': 410, 'height': 409, 'widthPercent': 0.45, 'rescaleHeight': False, 'trialN': 32, 'loaded': True, 'loadedTime': 4449.69999999553, 'positionName': 'LEFT', 'positionCoords': [511.6, 335.5], 'bid': 8.19}, {'imgObject': {}, 'id': 'tacos', 'src': '/static/foodstim60/tacos.jpg', 'key': 'i', 'origWidth': 411, 'origHeight': 411, 'width': 411, 'height': 411, 'widthPercent': 0.45, 'rescaleHeight': False, 'trialN': 32, 'loaded': True, 'loadedTime': 4561.5, 'positionName': 'RIGHT', 'positionCoords': [998.4, 334.5], 'bid': 7.85}]",65871.89999999851,1669833342167,salmon,tacos,8.19,7.85,-0.33999999999999986,salmon,1495.5,1496,1496.1000000014901,True,u,67873.79999999702,2001.8999999985099,1669833344169,2002,HRV,HRV_0208,2022-11-30 18:40:15
33,"[{'imgObject': {}, 'id': 'veggieswithdip', 'src': '/static/foodstim60/veggieswithdip.jpg', 'key': 'u', 'origWidth': 409, 'origHeight': 409, 'width': 409, 'height': 409, 'widthPercent': 0.45, 'rescaleHeight': False, 'trialN': 33, 'loaded': True, 'loadedTime': 4362.89999999851, 'positionName': 'LEFT', 'positionCoords': [512.6, 335.5], 'bid': 2.83}, {'imgObject': {}, 'id': 'hotdog w must', 'src': '/static/foodstim60/hotdog w must.jpg', 'key': 'i', 'origWidth': 409, 'origHeight': 409, 'width': 409, 'height': 409, 'widthPercent': 0.45, 'rescaleHeight': False, 'trialN': 33, 'loaded': True, 'loadedTime': 4136.29999999702, 'positionName': 'RIGHT', 'positionCoords': [998.4, 335.5], 'bid': 4.22}]",67874.0,1669833344169,veggieswithdip,hotdog w must,2.83,4.22,1.3899999999999997,hotdog w must,1517.7999999970198,1518,1518.2999999970198,True,i,69897.69999999553,2023.6999999955297,1669833346193,2024,HRV,HRV_0208,2022-11-30 18:40:15
34,"[{'imgObject': {}, 'id': 'ice cream sundae 002', 'src': '/static/foodstim60/ice cream sundae 002.jpg', 'key': 'u', 'origWidth': 409, 'origHeight': 409, 'width': 409, 'height': 409, 'widthPercent': 0.45, 'rescaleHeight': False, 'trialN': 34, 'loaded': True, 'loadedTime': 4572.79999999702, 'positionName': 'LEFT', 'positionCoords': [512.6, 335.5], 'bid': 7.46}, {'imgObject': {}, 'id': 'corn cob', 'src': '/static/foodstim60/corn cob.jpg', 'key': 'i', 'origWidth': 411, 'origHeight': 411, 'width': 411, 'height': 411, 'widthPercent': 0.45, 'rescaleHeight': False, 'trialN': 34, 'loaded': True, 'loadedTime': 4478.69999999553, 'positionName': 'RIGHT', 'positionCoords': [998.4, 334.5], 'bid': 7.1000000000000005}]",69898.19999999553,1669833346193,ice cream sundae 002,corn cob,7.46,7.1000000000000005,-0.35999999999999943,corn cob,1220.7000000029802,1222,1221.6000000014901,True,i,71629.69999999553,1731.5,1669833347925,1732,HRV,HRV_0208,2022-11-30 18:40:15
35,"[{'imgObject': {}, 'id': 'raisin bran w milk', 'src': '/static/foodstim60/raisin bran w milk.jpg', 'key': 'u', 'origWidth': 411, 'origHeight': 411, 'width': 411, 'height': 411, 'widthPercent': 0.45, 'rescaleHeight': False, 'trialN': 35, 'loaded': True, 'loadedTime': 4573.89999999851, 'positionName': 'LEFT', 'positionCoords': [510.6, 334.5], 'bid': 0.01}, {'imgObject': {}, 'id': 'mango', 'src': '/static/foodstim60/mango.jpg', 'key': 'i', 'origWidth': 411, 'origHeight': 411, 'width': 411, 'height': 411, 'widthPercent': 0.45, 'rescaleHeight': False, 'trialN': 35, 'loaded': True, 'loadedTime': 4589.79999999702, 'positionName': 'RIGHT', 'positionCoords': [998.4, 334.5], 'bid': 8.19}]",71629.89999999851,1669833347925,raisin bran w milk,mango,0.01,8.19,8.18,mango,1233.2999999970198,1234,1233.6999999955297,True,i,73381.59999999404,1751.6999999955297,1669833349677,1752,HRV,HRV_0208,2022-11-30 18:40:15
36,"[{'imgObject': {}, 'id': 'turkey sandwich', 'src': '/static/foodstim60/turkey sandwich.jpg', 'key': 'u', 'origWidth': 409, 'origHeight': 409, 'width': 409, 'height': 409, 'widthPercent': 0.45, 'rescaleHeight': False, 'trialN': 36, 'loaded': True, 'loadedTime': 4448.5, 'positionName': 'LEFT', 'positionCoords': [512.6, 335.5], 'bid': 8.77}, {'imgObject': {}, 'id': 'banana', 'src': '/static/foodstim60/banana.jpg', 'key': 'i', 'origWidth': 410, 'origHeight': 410, 'width': 410, 'height': 410, 'widthPercent': 0.45, 'rescaleHeight': False, 'trialN': 36, 'loaded': True, 'loadedTime': 4388.79999999702, 'positionName': 'RIGHT', 'positionCoords': [998.4, 335], 'bid': 6.8}]",73382.0,1669833349677,turkey sandwich,banana,8.77,6.8,-1.9699999999999998,turkey sandwich,969.2999999970198,970,969.6999999955297,True,u,74863.19999999553,1481.1999999955297,1669833351158,1481,HRV,HRV_0208,2022-11-30 18:40:15
37,"[{'imgObject': {}, 'id': 'mango', 'src': '/static/foodstim60/mango.jpg', 'key': 'u', 'origWidth': 411, 'origHeight': 411, 'width': 411, 'height': 411, 'widthPercent': 0.45, 'rescaleHeight': False, 'trialN': 37, 'loaded': True, 'loadedTime': 4581.79999999702, 'positionName': 'LEFT', 'positionCoords': [510.6, 334.5], 'bid': 8.19}, {'imgObject': {}, 'id': 'fruitsalad', 'src': '/static/foodstim60/fruitsalad.jpg', 'key': 'i', 'origWidth': 410, 'origHeight': 410, 'width': 410, 'height': 410, 'widthPercent': 0.45, 'rescaleHeight': False, 'trialN': 37, 'loaded': True, 'loadedTime': 4195.29999999702, 'positionName': 'RIGHT', 'positionCoords': [998.4, 335], 'bid': 10}]",74863.59999999404,1669833351159,mango,fruitsalad,8.19,10.0,1.8100000000000005,fruitsalad,1127.1000000014901,1127,1127.3000000044703,True,i,76497.39999999851,1633.8000000044703,1669833352793,1634,HRV,HRV_0208,2022-11-30 18:40:15
38,"[{'imgObject': {}, 'id': 'fried eggs', 'src': '/static/foodstim60/fried eggs.jpg', 'key': 'u', 'origWidth': 410, 'origHeight': 410, 'width': 410, 'height': 410, 'widthPercent': 0.45, 'rescaleHeight': False, 'trialN': 38, 'loaded': True, 'loadedTime': 4420.89999999851, 'positionName': 'LEFT', 'positionCoords': [511.6, 335], 'bid': 0}, {'imgObject': {}, 'id': 'hashbrowns', 'src': '/static/foodstim60/hashbrowns.jpg', 'key': 'i', 'origWidth': 411, 'origHeight': 410, 'width': 411, 'height': 410, 'widthPercent': 0.45, 'rescaleHeight': False, 'trialN': 38, 'loaded': True, 'loadedTime': 4591.29999999702, 'positionName': 'RIGHT', 'positionCoords': [998.4, 335], 'bid': 0.21}]",76497.59999999404,1669833352793,fried eggs,hashbrowns,0.0,0.21,0.21,hashbrowns,1701.8000000044703,1702,1702.6000000014901,True,i,78708.69999999553,2211.10000000149,1669833355003,2210,HRV,HRV_0208,2022-11-30 18:40:15
39,"[{'imgObject': {}, 'id': 'cantaloupe', 'src': '/static/foodstim60/cantaloupe.jpg', 'key': 'u', 'origWidth': 409, 'origHeight': 409, 'width': 409, 'height': 409, 'widthPercent': 0.45, 'rescaleHeight': False, 'trialN': 39, 'loaded': True, 'loadedTime': 4601.39999999851, 'positionName': 'LEFT', 'positionCoords': [512.6, 335.5], 'bid': 9.26}, {'imgObject': {}, 'id': 'blueberries', 'src': '/static/foodstim60/blueberries.jpg', 'key': 'i', 'origWidth': 411, 'origHeight': 411, 'width': 411, 'height': 411, 'widthPercent': 0.45, 'rescaleHeight': False, 'trialN': 39, 'loaded': True, 'loadedTime': 4380.39999999851, 'positionName': 'RIGHT', 'positionCoords': [998.4, 334.5], 'bid': 2.08}]",78709.29999999702,1669833355004,cantaloupe,blueberries,9.26,2.08,-7.18,cantaloupe,994.7000000029802,995,995.2000000029802,True,u,80220.5,1511.2000000029802,1669833356515,1511,HRV,HRV_0208,2022-11-30 18:40:15
40,"[{'imgObject': {}, 'id': 'chicken nuggets2', 'src': '/static/foodstim60/chicken nuggets2.jpg', 'key': 'u', 'origWidth': 410, 'origHeight': 409, 'width': 410, 'height': 409, 'widthPercent': 0.45, 'rescaleHeight': False, 'trialN': 40, 'loaded': True, 'loadedTime': 4088.1999999955297, 'positionName': 'LEFT', 'positionCoords': [511.6, 335.5], 'bid': 8.07}, {'imgObject': {}, 'id': 'olives', 'src': '/static/foodstim60/olives.jpg', 'key': 'i', 'origWidth': 410, 'origHeight': 410, 'width': 410, 'height': 410, 'widthPercent': 0.45, 'rescaleHeight': False, 'trialN': 40, 'loaded': True, 'loadedTime': 4549.29999999702, 'positionName': 'RIGHT', 'positionCoords': [998.4, 335], 'bid': 8.83}]",80220.89999999851,1669833356516,chicken nuggets2,olives,8.07,8.83,0.7599999999999998,chicken nuggets2,1018.3999999985099,1019,1018.8999999985099,True,u,81745.59999999404,1524.6999999955297,1669833358040,1524,HRV,HRV_0208,2022-11-30 18:40:15
41,"[{'imgObject': {}, 'id': 'bagel plain', 'src': '/static/foodstim60/bagel plain.jpg', 'key': 'u', 'origWidth': 410, 'origHeight': 410, 'width': 410, 'height': 410, 'widthPercent': 0.45, 'rescaleHeight': False, 'trialN': 41, 'loaded': True, 'loadedTime': 4602.19999999553, 'positionName': 'LEFT', 'positionCoords': [511.6, 335], 'bid': 0}, {'imgObject': {}, 'id': 'omelette', 'src': '/static/foodstim60/omelette.jpg', 'key': 'i', 'origWidth': 410, 'origHeight': 409, 'width': 410, 'height': 409, 'widthPercent': 0.45, 'rescaleHeight': False, 'trialN': 41, 'loaded': True, 'loadedTime': 4617, 'positionName': 'RIGHT', 'positionCoords': [998.4, 335.5], 'bid': 0}]",81745.89999999851,1669833358041,bagel plain,omelette,0.0,0.0,0.0,omelette,1397.2999999970198,1398,1397.8999999985099,True,i,83657.09999999404,1911.1999999955297,1669833359952,1911,HRV,HRV_0208,2022-11-30 18:40:15
42,"[{'imgObject': {}, 'id': 'veggieswithdip', 'src': '/static/foodstim60/veggieswithdip.jpg', 'key': 'u', 'origWidth': 409, 'origHeight': 409, 'width': 409, 'height': 409, 'widthPercent': 0.45, 'rescaleHeight': False, 'trialN': 42, 'loaded': True, 'loadedTime': 4370.79999999702, 'positionName': 'LEFT', 'positionCoords': [512.6, 335.5], 'bid': 2.83}, {'imgObject': {}, 'id': 'pear', 'src': '/static/foodstim60/pear.jpg', 'key': 'i', 'origWidth': 411, 'origHeight': 410, 'width': 411, 'height': 410, 'widthPercent': 0.45, 'rescaleHeight': False, 'trialN': 42, 'loaded': True, 'loadedTime': 4618.19999999553, 'positionName': 'RIGHT', 'positionCoords': [998.4, 335], 'bid': 9.66}]",83657.39999999851,1669833359952,veggieswithdip,pear,2.83,9.66,6.83,pear,1413.7999999970198,1415,1414.5,True,i,85584.39999999851,1927.0,1669833361879,1927,HRV,HRV_0208,2022-11-30 18:40:15
43,"[{'imgObject': {}, 'id': 'granola w milk', 'src': '/static/foodstim60/granola w milk.jpg', 'key': 'u', 'origWidth': 410, 'origHeight': 410, 'width': 410, 'height': 410, 'widthPercent': 0.45, 'rescaleHeight': False, 'trialN': 43, 'loaded': True, 'loadedTime': 4618.89999999851, 'positionName': 'LEFT', 'positionCoords': [511.6, 335], 'bid': 0}, {'imgObject': {}, 'id': 'eggsalad', 'src': '/static/foodstim60/eggsalad.jpg', 'key': 'i', 'origWidth': 410, 'origHeight': 409, 'width': 410, 'height': 409, 'widthPercent': 0.45, 'rescaleHeight': False, 'trialN': 43, 'loaded': True, 'loadedTime': 4344.79999999702, 'positionName': 'RIGHT', 'positionCoords': [998.4, 335.5], 'bid': 0}]",85584.79999999702,1669833361880,granola w milk,eggsalad,0.0,0.0,0.0,eggsalad,2014.2999999970198,2014,2014.8999999985099,True,i,88102.09999999404,2517.2999999970198,1669833364397,2517,HRV,HRV_0208,2022-11-30 18:40:15
44,"[{'imgObject': {}, 'id': 'cherry tomato', 'src': '/static/foodstim60/cherry tomato.jpg', 'key': 'u', 'origWidth': 410, 'origHeight': 410, 'width': 410, 'height': 410, 'widthPercent': 0.45, 'rescaleHeight': False, 'trialN': 44, 'loaded': True, 'loadedTime': 4628.19999999553, 'positionName': 'LEFT', 'positionCoords': [511.6, 335], 'bid': 0}, {'imgObject': {}, 'id': 'lox', 'src': '/static/foodstim60/lox.jpg', 'key': 'i', 'origWidth': 410, 'origHeight': 411, 'width': 410, 'height': 411, 'widthPercent': 0.45, 'rescaleHeight': False, 'trialN': 44, 'loaded': True, 'loadedTime': 4628.89999999851, 'positionName': 'RIGHT', 'positionCoords': [998.4, 334.5], 'bid': 4.38}]",88102.5,1669833364397,cherry tomato,lox,0.0,4.38,4.38,lox,1048.7999999970198,1050,1049.2999999970198,True,i,89661.39999999851,1558.8999999985099,1669833365956,1559,HRV,HRV_0208,2022-11-30 18:40:15
45,"[{'imgObject': {}, 'id': 'eggs', 'src': '/static/foodstim60/eggs.jpg', 'key': 'u', 'origWidth': 409, 'origHeight': 409, 'width': 409, 'height': 409, 'widthPercent': 0.45, 'rescaleHeight': False, 'trialN': 45, 'loaded': True, 'loadedTime': 4429.89999999851, 'positionName': 'LEFT', 'positionCoords': [512.6, 335.5], 'bid': 0}, {'imgObject': {}, 'id': 'hashbrowns', 'src': '/static/foodstim60/hashbrowns.jpg', 'key': 'i', 'origWidth': 411, 'origHeight': 410, 'width': 411, 'height': 410, 'widthPercent': 0.45, 'rescaleHeight': False, 'trialN': 45, 'loaded': True, 'loadedTime': 4591.19999999553, 'positionName': 'RIGHT', 'positionCoords': [998.4, 335], 'bid': 0.21}]",89661.79999999702,1669833365957,eggs,hashbrowns,0.0,0.21,0.21,hashbrowns,914.0,914,914.5,True,i,91088.5,1426.7000000029802,1669833367383,1426,HRV,HRV_0208,2022-11-30 18:40:15
46,"[{'imgObject': {}, 'id': 'salmon', 'src': '/static/foodstim60/salmon.jpg', 'key': 'u', 'origWidth': 410, 'origHeight': 409, 'width': 410, 'height': 409, 'widthPercent': 0.45, 'rescaleHeight': False, 'trialN': 46, 'loaded': True, 'loadedTime': 4457.5, 'positionName': 'LEFT', 'positionCoords': [511.6, 335.5], 'bid': 8.19}, {'imgObject': {}, 'id': 'raspberries', 'src': '/static/foodstim60/raspberries.jpg', 'key': 'i', 'origWidth': 411, 'origHeight': 411, 'width': 411, 'height': 411, 'widthPercent': 0.45, 'rescaleHeight': False, 'trialN': 46, 'loaded': True, 'loadedTime': 4276.19999999553, 'positionName': 'RIGHT', 'positionCoords': [998.4, 334.5], 'bid': 9.59}]",91089.09999999404,1669833367384,salmon,raspberries,8.19,9.59,1.4000000000000004,raspberries,1310.5,1311,1311.0,True,i,92910.19999999553,1821.1000000014901,1669833369205,1821,HRV,HRV_0208,2022-11-30 18:40:15
47,"[{'imgObject': {}, 'id': 'cherries', 'src': '/static/foodstim60/cherries.jpg', 'key': 'u', 'origWidth': 410, 'origHeight': 411, 'width': 410, 'height': 411, 'widthPercent': 0.45, 'rescaleHeight': False, 'trialN': 47, 'loaded': True, 'loadedTime': 4468.69999999553, 'positionName': 'LEFT', 'positionCoords': [511.6, 334.5], 'bid': 8.13}, {'imgObject': {}, 'id': 'cherry tomato', 'src': '/static/foodstim60/cherry tomato.jpg', 'key': 'i', 'origWidth': 410, 'origHeight': 410, 'width': 410, 'height': 410, 'widthPercent': 0.45, 'rescaleHeight': False, 'trialN': 47, 'loaded': True, 'loadedTime': 4628.5999999940395, 'positionName': 'RIGHT', 'positionCoords': [998.4, 335], 'bid': 0}]",92910.59999999404,1669833369205,cherries,cherry tomato,8.13,0.0,-8.13,cherries,904.7000000029802,906,905.6000000014901,True,u,94320.69999999553,1410.1000000014901,1669833370615,1410,HRV,HRV_0208,2022-11-30 18:40:15
48,"[{'imgObject': {}, 'id': 'grilled chicken strips', 'src': '/static/foodstim60/grilled chicken strips.jpg', 'key': 'u', 'origWidth': 410, 'origHeight': 411, 'width': 410, 'height': 411, 'widthPercent': 0.45, 'rescaleHeight': False, 'trialN': 48, 'loaded': True, 'loadedTime': 4409, 'positionName': 'LEFT', 'positionCoords': [511.6, 334.5], 'bid': 1.43}, {'imgObject': {}, 'id': 'mashed potato', 'src': '/static/foodstim60/mashed potato.jpg', 'key': 'i', 'origWidth': 409, 'origHeight': 409, 'width': 409, 'height': 409, 'widthPercent': 0.45, 'rescaleHeight': False, 'trialN': 48, 'loaded': True, 'loadedTime': 4315.0999999940395, 'positionName': 'RIGHT', 'positionCoords': [998.4, 335.5], 'bid': 1.37}]",94321.0,1669833370616,grilled chicken strips,mashed potato,1.43,1.37,-0.05999999999999983,grilled chicken strips,1366.0999999940395,1366,1366.5,True,u,96215.0,1894.0,1669833372510,1894,HRV,HRV_0208,2022-11-30 18:40:15
49,"[{'imgObject': {}, 'id': 'Grapes', 'src': '/static/foodstim60/Grapes.jpg', 'key': 'u', 'origWidth': 411, 'origHeight': 411, 'width': 411, 'height': 411, 'widthPercent': 0.45, 'rescaleHeight': False, 'trialN': 49, 'loaded': True, 'loadedTime': 4467.89999999851, 'positionName': 'LEFT', 'positionCoords': [510.6, 334.5], 'bid': 8.1}, {'imgObject': {}, 'id': 'orange slices', 'src': '/static/foodstim60/orange slices.jpg', 'key': 'i', 'origWidth': 409, 'origHeight': 410, 'width': 409, 'height': 410, 'widthPercent': 0.45, 'rescaleHeight': False, 'trialN': 49, 'loaded': True, 'loadedTime': 4110.5999999940395, 'positionName': 'RIGHT', 'positionCoords': [998.4, 335], 'bid': 8.07}]",96215.29999999702,1669833372510,Grapes,orange slices,8.1,8.07,-0.02999999999999936,Grapes,1776.1000000014901,1777,1776.6000000014901,True,u,98506.69999999553,2291.39999999851,1669833374801,2291,HRV,HRV_0208,2022-11-30 18:40:15
50,"[{'imgObject': {}, 'id': 'Tribe humus pita', 'src': '/static/foodstim60/Tribe humus pita.jpg', 'key': 'u', 'origWidth': 411, 'origHeight': 411, 'width': 411, 'height': 411, 'widthPercent': 0.45, 'rescaleHeight': False, 'trialN': 50, 'loaded': True, 'loadedTime': 4638.5, 'positionName': 'LEFT', 'positionCoords': [510.6, 334.5], 'bid': 0}, {'imgObject': {}, 'id': 'seaweed', 'src': '/static/foodstim60/seaweed.jpg', 'key': 'i', 'origWidth': 410, 'origHeight': 410, 'width': 410, 'height': 410, 'widthPercent': 0.45, 'rescaleHeight': False, 'trialN': 50, 'loaded': True, 'loadedTime': 4156.5999999940395, 'positionName': 'RIGHT', 'positionCoords': [998.4, 335], 'bid': 2.63}]",98506.79999999702,1669833374802,Tribe humus pita,seaweed,0.0,2.63,2.63,seaweed,1292.7000000029802,1293,1293.2000000029802,True,i,100303.29999999702,1796.5,1669833376598,1796,HRV,HRV_0208,2022-11-30 18:40:15
51,"[{'imgObject': {}, 'id': 'chickenfingers', 'src': '/static/foodstim60/chickenfingers.jpg', 'key': 'u', 'origWidth': 410, 'origHeight': 410, 'width': 410, 'height': 410, 'widthPercent': 0.45, 'rescaleHeight': False, 'trialN': 51, 'loaded': True, 'loadedTime': 4548.29999999702, 'positionName': 'LEFT', 'positionCoords': [511.6, 335], 'bid': 8.46}, {'imgObject': {}, 'id': 'edamame', 'src': '/static/foodstim60/edamame.jpg', 'key': 'i', 'origWidth': 409, 'origHeight': 410, 'width': 409, 'height': 410, 'widthPercent': 0.45, 'rescaleHeight': False, 'trialN': 51, 'loaded': True, 'loadedTime': 4549.5999999940395, 'positionName': 'RIGHT', 'positionCoords': [998.4, 335], 'bid': 6.46}]",100303.59999999404,1669833376598,chickenfingers,edamame,8.46,6.46,-2.000000000000001,chickenfingers,1224.3000000044703,1225,1224.8000000044703,True,u,102035.79999999702,1732.2000000029802,1669833378330,1732,HRV,HRV_0208,2022-11-30 18:40:15
52,"[{'imgObject': {}, 'id': 'salmon', 'src': '/static/foodstim60/salmon.jpg', 'key': 'u', 'origWidth': 410, 'origHeight': 409, 'width': 410, 'height': 409, 'widthPercent': 0.45, 'rescaleHeight': False, 'trialN': 52, 'loaded': True, 'loadedTime': 4449.0999999940395, 'positionName': 'LEFT', 'positionCoords': [511.6, 335.5], 'bid': 8.19}, {'imgObject': {}, 'id': 'baked potato', 'src': '/static/foodstim60/baked potato.jpg', 'key': 'i', 'origWidth': 409, 'origHeight': 410, 'width': 409, 'height': 410, 'widthPercent': 0.45, 'rescaleHeight': False, 'trialN': 52, 'loaded': True, 'loadedTime': 4237.89999999851, 'positionName': 'RIGHT', 'positionCoords': [998.4, 335], 'bid': 5.83}]",102036.79999999702,1669833378332,salmon,baked potato,8.19,5.83,-2.3599999999999994,salmon,1890.5,1890,1890.8999999985099,True,u,104443.69999999553,2406.89999999851,1669833380739,2407,HRV,HRV_0208,2022-11-30 18:40:15
53,"[{'imgObject': {}, 'id': 'hashbrowns', 'src': '/static/foodstim60/hashbrowns.jpg', 'key': 'u', 'origWidth': 411, 'origHeight': 410, 'width': 411, 'height': 410, 'widthPercent': 0.45, 'rescaleHeight': False, 'trialN': 53, 'loaded': True, 'loadedTime': 4591.5, 'positionName': 'LEFT', 'positionCoords': [510.6, 335], 'bid': 0.21}, {'imgObject': {}, 'id': 'granola w milk', 'src': '/static/foodstim60/granola w milk.jpg', 'key': 'i', 'origWidth': 410, 'origHeight': 410, 'width': 410, 'height': 410, 'widthPercent': 0.45, 'rescaleHeight': False, 'trialN': 53, 'loaded': True, 'loadedTime': 4627.29999999702, 'positionName': 'RIGHT', 'positionCoords': [998.4, 335], 'bid': 0}]",104444.0,1669833380739,hashbrowns,granola w milk,0.21,0.0,-0.21,hashbrowns,1403.1999999955297,1403,1403.7999999970198,True,u,106355.79999999702,1911.7999999970198,1669833382651,1912,HRV,HRV_0208,2022-11-30 18:40:15
54,"[{'imgObject': {}, 'id': 'granola w milk', 'src': '/static/foodstim60/granola w milk.jpg', 'key': 'u', 'origWidth': 410, 'origHeight': 410, 'width': 410, 'height': 410, 'widthPercent': 0.45, 'rescaleHeight': False, 'trialN': 54, 'loaded': True, 'loadedTime': 4627.29999999702, 'positionName': 'LEFT', 'positionCoords': [511.6, 335], 'bid': 0}, {'imgObject': {}, 'id': 'omelette', 'src': '/static/foodstim60/omelette.jpg', 'key': 'i', 'origWidth': 410, 'origHeight': 409, 'width': 410, 'height': 409, 'widthPercent': 0.45, 'rescaleHeight': False, 'trialN': 54, 'loaded': True, 'loadedTime': 4617, 'positionName': 'RIGHT', 'positionCoords': [998.4, 335.5], 'bid': 0}]",106356.0,1669833382651,granola w milk,omelette,0.0,0.0,0.0,granola w milk,2195.39999999851,2196,2196.0,True,u,109055.69999999553,2699.6999999955297,1669833385351,2700,HRV,HRV_0208,2022-11-30 18:40:15
55,"[{'imgObject': {}, 'id': 'lox', 'src': '/static/foodstim60/lox.jpg', 'key': 'u', 'origWidth': 410, 'origHeight': 411, 'width': 410, 'height': 411, 'widthPercent': 0.45, 'rescaleHeight': False, 'trialN': 55, 'loaded': True, 'loadedTime': 4637.5, 'positionName': 'LEFT', 'positionCoords': [511.6, 334.5], 'bid': 4.38}, {'imgObject': {}, 'id': 'baked potato', 'src': '/static/foodstim60/baked potato.jpg', 'key': 'i', 'origWidth': 409, 'origHeight': 410, 'width': 409, 'height': 410, 'widthPercent': 0.45, 'rescaleHeight': False, 'trialN': 55, 'loaded': True, 'loadedTime': 4230.89999999851, 'positionName': 'RIGHT', 'positionCoords': [998.4, 335], 'bid': 5.83}]",109056.19999999553,1669833385351,lox,baked potato,4.38,5.83,1.4500000000000002,baked potato,1759.1000000014901,1760,1759.7000000029802,True,i,111321.39999999851,2265.2000000029802,1669833387616,2265,HRV,HRV_0208,2022-11-30 18:40:15
56,"[{'imgObject': {}, 'id': 'cantaloupe', 'src': '/static/foodstim60/cantaloupe.jpg', 'key': 'u', 'origWidth': 409, 'origHeight': 409, 'width': 409, 'height': 409, 'widthPercent': 0.45, 'rescaleHeight': False, 'trialN': 56, 'loaded': True, 'loadedTime': 4600.39999999851, 'positionName': 'LEFT', 'positionCoords': [512.6, 335.5], 'bid': 9.26}, {'imgObject': {}, 'id': 'mango', 'src': '/static/foodstim60/mango.jpg', 'key': 'i', 'origWidth': 411, 'origHeight': 411, 'width': 411, 'height': 411, 'widthPercent': 0.45, 'rescaleHeight': False, 'trialN': 56, 'loaded': True, 'loadedTime': 4583.0999999940395, 'positionName': 'RIGHT', 'positionCoords': [998.4, 334.5], 'bid': 8.19}]",111321.79999999702,1669833387617,cantaloupe,mango,9.26,8.19,-1.0700000000000003,cantaloupe,1222.0,1222,1222.5,True,u,113051.0,1729.2000000029802,1669833389346,1729,HRV,HRV_0208,2022-11-30 18:40:15
57,"[{'imgObject': {}, 'id': 'burger', 'src': '/static/foodstim60/burger.jpg', 'key': 'u', 'origWidth': 409, 'origHeight': 409, 'width': 409, 'height': 409, 'widthPercent': 0.45, 'rescaleHeight': False, 'trialN': 57, 'loaded': True, 'loadedTime': 4499.19999999553, 'positionName': 'LEFT', 'positionCoords': [512.6, 335.5], 'bid': 0.8}, {'imgObject': {}, 'id': 'rigatoni and sauce', 'src': '/static/foodstim60/rigatoni and sauce.jpg', 'key': 'i', 'origWidth': 410, 'origHeight': 411, 'width': 410, 'height': 411, 'widthPercent': 0.45, 'rescaleHeight': False, 'trialN': 57, 'loaded': True, 'loadedTime': 4640.5999999940395, 'positionName': 'RIGHT', 'positionCoords': [998.4, 334.5], 'bid': 0.54}]",113051.79999999702,1669833389346,burger,rigatoni and sauce,0.8,0.54,-0.26,rigatoni and sauce,1987.7000000029802,1989,1988.2000000029802,True,i,115543.09999999404,2491.2999999970198,1669833391838,2492,HRV,HRV_0208,2022-11-30 18:40:15
58,"[{'imgObject': {}, 'id': 'grilled chicken strips', 'src': '/static/foodstim60/grilled chicken strips.jpg', 'key': 'u', 'origWidth': 410, 'origHeight': 411, 'width': 410, 'height': 411, 'widthPercent': 0.45, 'rescaleHeight': False, 'trialN': 58, 'loaded': True, 'loadedTime': 4409.19999999553, 'positionName': 'LEFT', 'positionCoords': [511.6, 334.5], 'bid': 1.43}, {'imgObject': {}, 'id': 'burger', 'src': '/static/foodstim60/burger.jpg', 'key': 'i', 'origWidth': 409, 'origHeight': 409, 'width': 409, 'height': 409, 'widthPercent': 0.45, 'rescaleHeight': False, 'trialN': 58, 'loaded': True, 'loadedTime': 4499.29999999702, 'positionName': 'RIGHT', 'positionCoords': [998.4, 335.5], 'bid': 0.8}]",115543.39999999851,1669833391838,grilled chicken strips,burger,1.43,0.8,-0.6299999999999999,grilled chicken strips,2864.0,2865,2864.5,True,u,118920.39999999851,3377.0,1669833395215,3377,HRV,HRV_0208,2022-11-30 18:40:15
59,"[{'imgObject': {}, 'id': 'granola w milk', 'src': '/static/foodstim60/granola w milk.jpg', 'key': 'u', 'origWidth': 410, 'origHeight': 410, 'width': 410, 'height': 410, 'widthPercent': 0.45, 'rescaleHeight': False, 'trialN': 59, 'loaded': True, 'loadedTime': 4619, 'positionName': 'LEFT', 'positionCoords': [511.6, 335], 'bid': 0}, {'imgObject': {}, 'id': 'cherry tomato', 'src': '/static/foodstim60/cherry tomato.jpg', 'key': 'i', 'origWidth': 410, 'origHeight': 410, 'width': 410, 'height': 410, 'widthPercent': 0.45, 'rescaleHeight': False, 'trialN': 59, 'loaded': True, 'loadedTime': 4628.5999999940395, 'positionName': 'RIGHT', 'positionCoords': [998.4, 335], 'bid': 0}]",118920.69999999553,1669833395215,granola w milk,cherry tomato,0.0,0.0,0.0,granola w milk,1197.8999999985099,1199,1198.3000000044703,True,u,120630.29999999702,1709.6000000014901,1669833396925,1710,HRV,HRV_0208,2022-11-30 18:40:15
60,"[{'imgObject': {}, 'id': 'banana', 'src': '/static/foodstim60/banana.jpg', 'key': 'u', 'origWidth': 410, 'origHeight': 410, 'width': 410, 'height': 410, 'widthPercent': 0.45, 'rescaleHeight': False, 'trialN': 60, 'loaded': True, 'loadedTime': 4388.69999999553, 'positionName': 'LEFT', 'positionCoords': [511.6, 335], 'bid': 6.8}, {'imgObject': {}, 'id': 'yogurt no spoon', 'src': '/static/foodstim60/yogurt no spoon.jpg', 'key': 'i', 'origWidth': 411, 'origHeight': 410, 'width': 411, 'height': 410, 'widthPercent': 0.45, 'rescaleHeight': False, 'trialN': 60, 'loaded': True, 'loadedTime': 4213.69999999553, 'positionName': 'RIGHT', 'positionCoords': [998.4, 335], 'bid': 6.96}]",120630.5,1669833396925,banana,yogurt no spoon,6.8,6.96,0.16000000000000014,yogurt no spoon,1368.7999999970198,1370,1369.2999999970198,True,i,122515.29999999702,1884.7999999970198,1669833398810,1885,HRV,HRV_0208,2022-11-30 18:40:15
61,"[{'imgObject': {}, 'id': 'popsicles', 'src': '/static/foodstim60/popsicles.jpg', 'key': 'u', 'origWidth': 410, 'origHeight': 410, 'width': 410, 'height': 410, 'widthPercent': 0.45, 'rescaleHeight': False, 'trialN': 61, 'loaded': True, 'loadedTime': 4656.89999999851, 'positionName': 'LEFT', 'positionCoords': [511.6, 335], 'bid': 6.45}, {'imgObject': {}, 'id': 'steak', 'src': '/static/foodstim60/steak.jpg', 'key': 'i', 'origWidth': 410, 'origHeight': 410, 'width': 410, 'height': 410, 'widthPercent': 0.45, 'rescaleHeight': False, 'trialN': 61, 'loaded': True, 'loadedTime': 4296.0999999940395, 'positionName': 'RIGHT', 'positionCoords': [998.4, 335], 'bid': 8.41}]",122515.5,1669833398810,popsicles,steak,6.45,8.41,1.96,steak,1524.2999999970198,1525,1524.7999999970198,True,i,124543.89999999851,2028.3999999985099,1669833400839,2029,HRV,HRV_0208,2022-11-30 18:40:15
62,"[{'imgObject': {}, 'id': 'popsicles', 'src': '/static/foodstim60/popsicles.jpg', 'key': 'u', 'origWidth': 410, 'origHeight': 410, 'width': 410, 'height': 410, 'widthPercent': 0.45, 'rescaleHeight': False, 'trialN': 62, 'loaded': True, 'loadedTime': 4656.0999999940395, 'positionName': 'LEFT', 'positionCoords': [511.6, 335], 'bid': 6.45}, {'imgObject': {}, 'id': 'mashed potato', 'src': '/static/foodstim60/mashed potato.jpg', 'key': 'i', 'origWidth': 409, 'origHeight': 409, 'width': 409, 'height': 409, 'widthPercent': 0.45, 'rescaleHeight': False, 'trialN': 62, 'loaded': True, 'loadedTime': 4323.79999999702, 'positionName': 'RIGHT', 'positionCoords': [998.4, 335.5], 'bid': 1.37}]",124544.19999999553,1669833400839,popsicles,mashed potato,6.45,1.37,-5.08,popsicles,1295.1000000014901,1296,1295.7000000029802,True,u,126342.5,1798.3000000044703,1669833402637,1798,HRV,HRV_0208,2022-11-30 18:40:15
63,"[{'imgObject': {}, 'id': 'sweetpotato', 'src': '/static/foodstim60/sweetpotato.jpg', 'key': 'u', 'origWidth': 410, 'origHeight': 410, 'width': 410, 'height': 410, 'widthPercent': 0.45, 'rescaleHeight': False, 'trialN': 63, 'loaded': True, 'loadedTime': 4642.29999999702, 'positionName': 'LEFT', 'positionCoords': [511.6, 335], 'bid': 0.46}, {'imgObject': {}, 'id': 'omelette', 'src': '/static/foodstim60/omelette.jpg', 'key': 'i', 'origWidth': 410, 'origHeight': 409, 'width': 410, 'height': 409, 'widthPercent': 0.45, 'rescaleHeight': False, 'trialN': 63, 'loaded': True, 'loadedTime': 4602.5, 'positionName': 'RIGHT', 'positionCoords': [998.4, 335.5], 'bid': 0}]",126342.79999999702,1669833402637,sweetpotato,omelette,0.46,0.0,-0.46,omelette,1352.3999999985099,1353,1352.8999999985099,True,i,128211.09999999404,1868.2999999970198,1669833404506,1869,HRV,HRV_0208,2022-11-30 18:40:15
64,"[{'imgObject': {}, 'id': 'pear', 'src': '/static/foodstim60/pear.jpg', 'key': 'u', 'origWidth': 411, 'origHeight': 410, 'width': 411, 'height': 410, 'widthPercent': 0.45, 'rescaleHeight': False, 'trialN': 64, 'loaded': True, 'loadedTime': 4617.29999999702, 'positionName': 'LEFT', 'positionCoords': [510.6, 335], 'bid': 9.66}, {'imgObject': {}, 'id': 'avocado', 'src': '/static/foodstim60/avocado.jpg', 'key': 'i', 'origWidth': 409, 'origHeight': 409, 'width': 409, 'height': 409, 'widthPercent': 0.45, 'rescaleHeight': False, 'trialN': 64, 'loaded': True, 'loadedTime': 4305.0999999940395, 'positionName': 'RIGHT', 'positionCoords': [998.4, 335.5], 'bid': 9.72}]",128211.39999999851,1669833404506,pear,avocado,9.66,9.72,0.0600000000000005,avocado,1339.5,1340,1340.0,True,i,130061.5,1850.1000000014901,1669833406356,1850,HRV,HRV_0208,2022-11-30 18:40:15
65,"[{'imgObject': {}, 'id': 'cocktailshrimp', 'src': '/static/foodstim60/cocktailshrimp.jpg', 'key': 'u', 'origWidth': 410, 'origHeight': 410, 'width': 410, 'height': 410, 'widthPercent': 0.45, 'rescaleHeight': False, 'trialN': 65, 'loaded': True, 'loadedTime': 4203.5999999940395, 'positionName': 'LEFT', 'positionCoords': [511.6, 335], 'bid': 0}, {'imgObject': {}, 'id': 'bagel and cc', 'src': '/static/foodstim60/bagel and cc.jpg', 'key': 'i', 'origWidth': 410, 'origHeight': 410, 'width': 410, 'height': 410, 'widthPercent': 0.45, 'rescaleHeight': False, 'trialN': 65, 'loaded': True, 'loadedTime': 4488.29999999702, 'positionName': 'RIGHT', 'positionCoords': [998.4, 335], 'bid': 0.01}]",130061.89999999851,1669833406357,cocktailshrimp,bagel and cc,0.0,0.01,0.01,bagel and cc,1440.7999999970198,1441,1441.1999999955297,True,i,132014.09999999404,1952.1999999955297,1669833408309,1952,HRV,HRV_0208,2022-11-30 18:40:15
66,"[{'imgObject': {}, 'id': 'seaweed', 'src': '/static/foodstim60/seaweed.jpg', 'key': 'u', 'origWidth': 410, 'origHeight': 410, 'width': 410, 'height': 410, 'widthPercent': 0.45, 'rescaleHeight': False, 'trialN': 66, 'loaded': True, 'loadedTime': 4157.19999999553, 'positionName': 'LEFT', 'positionCoords': [511.6, 335], 'bid': 2.63}, {'imgObject': {}, 'id': 'yogurt no spoon', 'src': '/static/foodstim60/yogurt no spoon.jpg', 'key': 'i', 'origWidth': 411, 'origHeight': 410, 'width': 411, 'height': 410, 'widthPercent': 0.45, 'rescaleHeight': False, 'trialN': 66, 'loaded': True, 'loadedTime': 4220.29999999702, 'positionName': 'RIGHT', 'positionCoords': [998.4, 335], 'bid': 6.96}]",132014.8999999985,1669833408310,seaweed,yogurt no spoon,2.63,6.96,4.33,yogurt no spoon,1080.5,1081,1081.0,True,i,133598.79999999702,1583.8999999985099,1669833409894,1584,HRV,HRV_0208,2022-11-30 18:40:15
67,"[{'imgObject': {}, 'id': 'sweetpotato', 'src': '/static/foodstim60/sweetpotato.jpg', 'key': 'u', 'origWidth': 410, 'origHeight': 410, 'width': 410, 'height': 410, 'widthPercent': 0.45, 'rescaleHeight': False, 'trialN': 67, 'loaded': True, 'loadedTime': 4641.89999999851, 'positionName': 'LEFT', 'positionCoords': [511.6, 335], 'bid': 0.46}, {'imgObject': {}, 'id': 'cherry tomato', 'src': '/static/foodstim60/cherry tomato.jpg', 'key': 'i', 'origWidth': 410, 'origHeight': 410, 'width': 410, 'height': 410, 'widthPercent': 0.45, 'rescaleHeight': False, 'trialN': 67, 'loaded': True, 'loadedTime': 4628.5, 'positionName': 'RIGHT', 'positionCoords': [998.4, 335], 'bid': 0}]",133599.09999999404,1669833409894,sweetpotato,cherry tomato,0.46,0.0,-0.46,sweetpotato,2032.7000000029802,2033,2033.5,True,u,136145.69999999553,2546.60000000149,1669833412440,2546,HRV,HRV_0208,2022-11-30 18:40:15
68,"[{'imgObject': {}, 'id': 'salad w chicken', 'src': '/static/foodstim60/salad w chicken.jpg', 'key': 'u', 'origWidth': 411, 'origHeight': 411, 'width': 411, 'height': 411, 'widthPercent': 0.45, 'rescaleHeight': False, 'trialN': 68, 'loaded': True, 'loadedTime': 4175.89999999851, 'positionName': 'LEFT', 'positionCoords': [510.6, 334.5], 'bid': 9.96}, {'imgObject': {}, 'id': 'cherries', 'src': '/static/foodstim60/cherries.jpg', 'key': 'i', 'origWidth': 410, 'origHeight': 411, 'width': 410, 'height': 411, 'widthPercent': 0.45, 'rescaleHeight': False, 'trialN': 68, 'loaded': True, 'loadedTime': 4468.79999999702, 'positionName': 'RIGHT', 'positionCoords': [998.4, 334.5], 'bid': 8.13}]",136146.19999999553,1669833412441,salad w chicken,cherries,9.96,8.13,-1.83,salad w chicken,917.0,917,917.3999999985099,True,u,137569.5,1423.3000000044703,1669833413864,1423,HRV,HRV_0208,2022-11-30 18:40:15
69,"[{'imgObject': {}, 'id': 'banana', 'src': '/static/foodstim60/banana.jpg', 'key': 'u', 'origWidth': 410, 'origHeight': 410, 'width': 410, 'height': 410, 'widthPercent': 0.45, 'rescaleHeight': False, 'trialN': 69, 'loaded': True, 'loadedTime': 4388.89999999851, 'positionName': 'LEFT', 'positionCoords': [511.6, 335], 'bid': 6.8}, {'imgObject': {}, 'id': 'popsicles', 'src': '/static/foodstim60/popsicles.jpg', 'key': 'i', 'origWidth': 410, 'origHeight': 410, 'width': 410, 'height': 410, 'widthPercent': 0.45, 'rescaleHeight': False, 'trialN': 69, 'loaded': True, 'loadedTime': 4657, 'positionName': 'RIGHT', 'positionCoords': [998.4, 335], 'bid': 6.45}]",137569.79999999702,1669833413865,banana,popsicles,6.8,6.45,-0.34999999999999964,popsicles,1277.6000000014901,1278,1278.1000000014901,True,i,139356.3999999985,1786.6000000014901,1669833415651,1786,HRV,HRV_0208,2022-11-30 18:40:15
70,"[{'imgObject': {}, 'id': 'blackbeanswithrice', 'src': '/static/foodstim60/blackbeanswithrice.jpg', 'key': 'u', 'origWidth': 410, 'origHeight': 410, 'width': 410, 'height': 410, 'widthPercent': 0.45, 'rescaleHeight': False, 'trialN': 70, 'loaded': True, 'loadedTime': 4248.79999999702, 'positionName': 'LEFT', 'positionCoords': [511.6, 335], 'bid': 0}, {'imgObject': {}, 'id': 'eggsalad', 'src': '/static/foodstim60/eggsalad.jpg', 'key': 'i', 'origWidth': 410, 'origHeight': 409, 'width': 410, 'height': 409, 'widthPercent': 0.45, 'rescaleHeight': False, 'trialN': 70, 'loaded': True, 'loadedTime': 4361.19999999553, 'positionName': 'RIGHT', 'positionCoords': [998.4, 335.5], 'bid': 0}]",139356.8999999985,1669833415652,blackbeanswithrice,eggsalad,0.0,0.0,0.0,eggsalad,2194.2999999970198,2195,2195.1999999955297,True,i,142059.09999999404,2702.1999999955297,1669833418354,2702,HRV,HRV_0208,2022-11-30 18:40:15
71,"[{'imgObject': {}, 'id': 'orange slices', 'src': '/static/foodstim60/orange slices.jpg', 'key': 'u', 'origWidth': 409, 'origHeight': 410, 'width': 409, 'height': 410, 'widthPercent': 0.45, 'rescaleHeight': False, 'trialN': 71, 'loaded': True, 'loadedTime': 4118.19999999553, 'positionName': 'LEFT', 'positionCoords': [512.6, 335], 'bid': 8.07}, {'imgObject': {}, 'id': 'raspberries', 'src': '/static/foodstim60/raspberries.jpg', 'key': 'i', 'origWidth': 411, 'origHeight': 411, 'width': 411, 'height': 411, 'widthPercent': 0.45, 'rescaleHeight': False, 'trialN': 71, 'loaded': True, 'loadedTime': 4274.79999999702, 'positionName': 'RIGHT', 'positionCoords': [998.4, 334.5], 'bid': 9.59}]",142059.69999999553,1669833418354,orange slices,raspberries,8.07,9.59,1.5199999999999996,raspberries,931.8999999985099,933,932.3999999985099,True,i,143509.5,1449.8000000044703,1669833419804,1450,HRV,HRV_0208,2022-11-30 18:40:15
72,"[{'imgObject': {}, 'id': 'burger', 'src': '/static/foodstim60/burger.jpg', 'key': 'u', 'origWidth': 409, 'origHeight': 409, 'width': 409, 'height': 409, 'widthPercent': 0.45, 'rescaleHeight': False, 'trialN': 72, 'loaded': True, 'loadedTime': 4499.29999999702, 'positionName': 'LEFT', 'positionCoords': [512.6, 335.5], 'bid': 0.8}, {'imgObject': {}, 'id': 'olives', 'src': '/static/foodstim60/olives.jpg', 'key': 'i', 'origWidth': 410, 'origHeight': 410, 'width': 410, 'height': 410, 'widthPercent': 0.45, 'rescaleHeight': False, 'trialN': 72, 'loaded': True, 'loadedTime': 4549.5999999940395, 'positionName': 'RIGHT', 'positionCoords': [998.4, 335], 'bid': 8.83}]",143510.0,1669833419805,burger,olives,0.8,8.83,8.03,olives,961.1999999955297,961,961.6999999955297,True,i,144987.59999999404,1477.5999999940395,1669833421282,1477,HRV,HRV_0208,2022-11-30 18:40:15
73,"[{'imgObject': {}, 'id': 'popsicles', 'src': '/static/foodstim60/popsicles.jpg', 'key': 'u', 'origWidth': 410, 'origHeight': 410, 'width': 410, 'height': 410, 'widthPercent': 0.45, 'rescaleHeight': False, 'trialN': 73, 'loaded': True, 'loadedTime': 4656.89999999851, 'positionName': 'LEFT', 'positionCoords': [511.6, 335], 'bid': 6.45}, {'imgObject': {}, 'id': 'edamame', 'src': '/static/foodstim60/edamame.jpg', 'key': 'i', 'origWidth': 409, 'origHeight': 410, 'width': 409, 'height': 410, 'widthPercent': 0.45, 'rescaleHeight': False, 'trialN': 73, 'loaded': True, 'loadedTime': 4550.39999999851, 'positionName': 'RIGHT', 'positionCoords': [998.4, 335], 'bid': 6.46}]",144987.8999999985,1669833421283,popsicles,edamame,6.45,6.46,0.009999999999999787,popsicles,1219.8999999985099,1220,1220.6999999955297,True,u,146713.3999999985,1725.5,1669833423008,1725,HRV,HRV_0208,2022-11-30 18:40:15
74,"[{'imgObject': {}, 'id': 'sweetpotato', 'src': '/static/foodstim60/sweetpotato.jpg', 'key': 'u', 'origWidth': 410, 'origHeight': 410, 'width': 410, 'height': 410, 'widthPercent': 0.45, 'rescaleHeight': False, 'trialN': 74, 'loaded': True, 'loadedTime': 4641.69999999553, 'positionName': 'LEFT', 'positionCoords': [511.6, 335], 'bid': 0.46}, {'imgObject': {}, 'id': 'hashbrowns', 'src': '/static/foodstim60/hashbrowns.jpg', 'key': 'i', 'origWidth': 411, 'origHeight': 410, 'width': 411, 'height': 410, 'widthPercent': 0.45, 'rescaleHeight': False, 'trialN': 74, 'loaded': True, 'loadedTime': 4591.19999999553, 'positionName': 'RIGHT', 'positionCoords': [998.4, 335], 'bid': 0.21}]",146713.59999999404,1669833423008,sweetpotato,hashbrowns,0.46,0.21,-0.25,hashbrowns,1549.6000000014901,1550,1550.0,True,i,148779.69999999553,2066.10000000149,1669833425074,2066,HRV,HRV_0208,2022-11-30 18:40:15
75,"[{'imgObject': {}, 'id': 'bagel and cc', 'src': '/static/foodstim60/bagel and cc.jpg', 'key': 'u', 'origWidth': 410, 'origHeight': 410, 'width': 410, 'height': 410, 'widthPercent': 0.45, 'rescaleHeight': False, 'trialN': 75, 'loaded': True, 'loadedTime': 4488.19999999553, 'positionName': 'LEFT', 'positionCoords': [511.6, 335], 'bid': 0.01}, {'imgObject': {}, 'id': 'blackbeanswithrice', 'src': '/static/foodstim60/blackbeanswithrice.jpg', 'key': 'i', 'origWidth': 410, 'origHeight': 410, 'width': 410, 'height': 410, 'widthPercent': 0.45, 'rescaleHeight': False, 'trialN': 75, 'loaded': True, 'loadedTime': 4240.0999999940395, 'positionName': 'RIGHT', 'positionCoords': [998.4, 335], 'bid': 0}]",148779.8999999985,1669833425075,bagel and cc,blackbeanswithrice,0.01,0.0,-0.01,bagel and cc,1523.1999999955297,1523,1523.8999999985099,True,u,150815.19999999553,2035.2999999970198,1669833427110,2035,HRV,HRV_0208,2022-11-30 18:40:15
76,"[{'imgObject': {}, 'id': 'Tribe humus pita', 'src': '/static/foodstim60/Tribe humus pita.jpg', 'key': 'u', 'origWidth': 411, 'origHeight': 411, 'width': 411, 'height': 411, 'widthPercent': 0.45, 'rescaleHeight': False, 'trialN': 76, 'loaded': True, 'loadedTime': 4638.39999999851, 'positionName': 'LEFT', 'positionCoords': [510.6, 334.5], 'bid': 0}, {'imgObject': {}, 'id': 'blackbeanswithrice', 'src': '/static/foodstim60/blackbeanswithrice.jpg', 'key': 'i', 'origWidth': 410, 'origHeight': 410, 'width': 410, 'height': 410, 'widthPercent': 0.45, 'rescaleHeight': False, 'trialN': 76, 'loaded': True, 'loadedTime': 4247.39999999851, 'positionName': 'RIGHT', 'positionCoords': [998.4, 335], 'bid': 0}]",150815.5,1669833427110,Tribe humus pita,blackbeanswithrice,0.0,0.0,0.0,blackbeanswithrice,1656.0999999940395,1657,1656.6999999955297,True,i,152982.09999999404,2166.5999999940395,1669833429277,2167,HRV,HRV_0208,2022-11-30 18:40:15
77,"[{'imgObject': {}, 'id': 'burger', 'src': '/static/foodstim60/burger.jpg', 'key': 'u', 'origWidth': 409, 'origHeight': 409, 'width': 409, 'height': 409, 'widthPercent': 0.45, 'rescaleHeight': False, 'trialN': 77, 'loaded': True, 'loadedTime': 4498.29999999702, 'positionName': 'LEFT', 'positionCoords': [512.6, 335.5], 'bid': 0.8}, {'imgObject': {}, 'id': 'cheerios', 'src': '/static/foodstim60/cheerios.jpg', 'key': 'i', 'origWidth': 409, 'origHeight': 410, 'width': 409, 'height': 410, 'widthPercent': 0.45, 'rescaleHeight': False, 'trialN': 77, 'loaded': True, 'loadedTime': 4050.7999999970198, 'positionName': 'RIGHT', 'positionCoords': [998.4, 335], 'bid': 0}]",152982.3999999985,1669833429277,burger,cheerios,0.8,0.0,-0.8,cheerios,1657.1000000014901,1658,1657.5,True,i,155156.29999999702,2173.89999999851,1669833431451,2174,HRV,HRV_0208,2022-11-30 18:40:15
78,"[{'imgObject': {}, 'id': 'eggsalad', 'src': '/static/foodstim60/eggsalad.jpg', 'key': 'u', 'origWidth': 410, 'origHeight': 409, 'width': 410, 'height': 409, 'widthPercent': 0.45, 'rescaleHeight': False, 'trialN': 78, 'loaded': True, 'loadedTime': 4353.19999999553, 'positionName': 'LEFT', 'positionCoords': [511.6, 335.5], 'bid': 0}, {'imgObject': {}, 'id': 'rigatoni', 'src': '/static/foodstim60/rigatoni.jpg', 'key': 'i', 'origWidth': 411, 'origHeight': 411, 'width': 411, 'height': 411, 'widthPercent': 0.45, 'rescaleHeight': False, 'trialN': 78, 'loaded': True, 'loadedTime': 4410.79999999702, 'positionName': 'RIGHT', 'positionCoords': [998.4, 334.5], 'bid': 0.16}]",155156.69999999553,1669833431451,eggsalad,rigatoni,0.0,0.16,0.16,eggsalad,1362.8999999985099,1364,1363.3999999985099,True,u,157031.0,1874.3000000044703,1669833433326,1875,HRV,HRV_0208,2022-11-30 18:40:15
79,"[{'imgObject': {}, 'id': 'Grapes', 'src': '/static/foodstim60/Grapes.jpg', 'key': 'u', 'origWidth': 411, 'origHeight': 411, 'width': 411, 'height': 411, 'widthPercent': 0.45, 'rescaleHeight': False, 'trialN': 79, 'loaded': True, 'loadedTime': 4467.69999999553, 'positionName': 'LEFT', 'positionCoords': [510.6, 334.5], 'bid': 8.1}, {'imgObject': {}, 'id': 'eggs', 'src': '/static/foodstim60/eggs.jpg', 'key': 'i', 'origWidth': 409, 'origHeight': 409, 'width': 409, 'height': 409, 'widthPercent': 0.45, 'rescaleHeight': False, 'trialN': 79, 'loaded': True, 'loadedTime': 4438.89999999851, 'positionName': 'RIGHT', 'positionCoords': [998.4, 335.5], 'bid': 0}]",157031.29999999702,1669833433326,Grapes,eggs,8.1,0.0,-8.1,Grapes,1016.0,1016,1016.5,True,u,158555.0,1523.7000000029802,1669833434850,1524,HRV,HRV_0208,2022-11-30 18:40:15
80,"[{'imgObject': {}, 'id': 'seaweed', 'src': '/static/foodstim60/seaweed.jpg', 'key': 'u', 'origWidth': 410, 'origHeight': 410, 'width': 410, 'height': 410, 'widthPercent': 0.45, 'rescaleHeight': False, 'trialN': 80, 'loaded': True, 'loadedTime': 4156.89999999851, 'positionName': 'LEFT', 'positionCoords': [511.6, 335], 'bid': 2.63}, {'imgObject': {}, 'id': 'roastedpotatoes', 'src': '/static/foodstim60/roastedpotatoes.jpg', 'key': 'i', 'origWidth': 409, 'origHeight': 410, 'width': 409, 'height': 410, 'widthPercent': 0.45, 'rescaleHeight': False, 'trialN': 80, 'loaded': True, 'loadedTime': 4644.19999999553, 'positionName': 'RIGHT', 'positionCoords': [998.4, 335], 'bid': 6.18}]",158555.19999999553,1669833434850,seaweed,roastedpotatoes,2.63,6.18,3.55,roastedpotatoes,1372.1000000014901,1372,1372.5,True,i,160430.09999999404,1874.8999999985099,1669833436725,1875,HRV,HRV_0208,2022-11-30 18:40:15
81,"[{'imgObject': {}, 'id': 'salad w chicken', 'src': '/static/foodstim60/salad w chicken.jpg', 'key': 'u', 'origWidth': 411, 'origHeight': 411, 'width': 411, 'height': 411, 'widthPercent': 0.45, 'rescaleHeight': False, 'trialN': 81, 'loaded': True, 'loadedTime': 4175.5999999940395, 'positionName': 'LEFT', 'positionCoords': [510.6, 334.5], 'bid': 9.96}, {'imgObject': {}, 'id': 'chickenfingers', 'src': '/static/foodstim60/chickenfingers.jpg', 'key': 'i', 'origWidth': 410, 'origHeight': 410, 'width': 410, 'height': 410, 'widthPercent': 0.45, 'rescaleHeight': False, 'trialN': 81, 'loaded': True, 'loadedTime': 4540.0999999940395, 'positionName': 'RIGHT', 'positionCoords': [998.4, 335], 'bid': 8.46}]",160430.5,1669833436725,salad w chicken,chickenfingers,9.96,8.46,-1.5,salad w chicken,1072.6999999955297,1073,1073.2999999970198,True,u,162020.3999999985,1589.8999999985099,1669833438315,1590,HRV,HRV_0208,2022-11-30 18:40:15
82,"[{'imgObject': {}, 'id': 'apple slices', 'src': '/static/foodstim60/apple slices.jpg', 'key': 'u', 'origWidth': 409, 'origHeight': 410, 'width': 409, 'height': 410, 'widthPercent': 0.45, 'rescaleHeight': False, 'trialN': 82, 'loaded': True, 'loadedTime': 4653.19999999553, 'positionName': 'LEFT', 'positionCoords': [512.6, 335], 'bid': 8.3}, {'imgObject': {}, 'id': 'orange slices', 'src': '/static/foodstim60/orange slices.jpg', 'key': 'i', 'origWidth': 409, 'origHeight': 410, 'width': 409, 'height': 410, 'widthPercent': 0.45, 'rescaleHeight': False, 'trialN': 82, 'loaded': True, 'loadedTime': 4119.0999999940395, 'positionName': 'RIGHT', 'positionCoords': [998.4, 335], 'bid': 8.07}]",162020.69999999553,1669833438315,apple slices,orange slices,8.3,8.07,-0.23000000000000043,apple slices,2138.60000000149,2140,2139.3000000044703,True,u,164676.79999999702,2656.10000000149,1669833440971,2656,HRV,HRV_0208,2022-11-30 18:40:15
83,"[{'imgObject': {}, 'id': 'cherry tomato', 'src': '/static/foodstim60/cherry tomato.jpg', 'key': 'u', 'origWidth': 410, 'origHeight': 410, 'width': 410, 'height': 410, 'widthPercent': 0.45, 'rescaleHeight': False, 'trialN': 83, 'loaded': True, 'loadedTime': 4628.69999999553, 'positionName': 'LEFT', 'positionCoords': [511.6, 335], 'bid': 0}, {'imgObject': {}, 'id': 'eggs', 'src': '/static/foodstim60/eggs.jpg', 'key': 'i', 'origWidth': 409, 'origHeight': 409, 'width': 409, 'height': 409, 'widthPercent': 0.45, 'rescaleHeight': False, 'trialN': 83, 'loaded': True, 'loadedTime': 4439.0999999940395, 'positionName': 'RIGHT', 'positionCoords': [998.4, 335.5], 'bid': 0}]",164677.09999999404,1669833440972,cherry tomato,eggs,0.0,0.0,0.0,cherry tomato,1666.3000000044703,1666,1666.7000000029802,True,u,166853.19999999553,2176.10000000149,1669833443148,2176,HRV,HRV_0208,2022-11-30 18:40:15
84,"[{'imgObject': {}, 'id': 'strawberries', 'src': '/static/foodstim60/strawberries.jpg', 'key': 'u', 'origWidth': 410, 'origHeight': 410, 'width': 410, 'height': 410, 'widthPercent': 0.45, 'rescaleHeight': False, 'trialN': 84, 'loaded': True, 'loadedTime': 4266.0999999940395, 'positionName': 'LEFT', 'positionCoords': [511.6, 335], 'bid': 9.19}, {'imgObject': {}, 'id': 'grilled chicken strips', 'src': '/static/foodstim60/grilled chicken strips.jpg', 'key': 'i', 'origWidth': 410, 'origHeight': 411, 'width': 410, 'height': 411, 'widthPercent': 0.45, 'rescaleHeight': False, 'trialN': 84, 'loaded': True, 'loadedTime': 4401.39999999851, 'positionName': 'RIGHT', 'positionCoords': [998.4, 334.5], 'bid': 1.43}]",166853.3999999985,1669833443148,strawberries,grilled chicken strips,9.19,1.43,-7.76,strawberries,1210.3999999985099,1211,1211.1000000014901,True,u,168573.3999999985,1720.0,1669833444868,1720,HRV,HRV_0208,2022-11-30 18:40:15
85,"[{'imgObject': {}, 'id': 'omelette', 'src': '/static/foodstim60/omelette.jpg', 'key': 'u', 'origWidth': 410, 'origHeight': 409, 'width': 410, 'height': 409, 'widthPercent': 0.45, 'rescaleHeight': False, 'trialN': 85, 'loaded': True, 'loadedTime': 4616.69999999553, 'positionName': 'LEFT', 'positionCoords': [511.6, 335.5], 'bid': 0}, {'imgObject': {}, 'id': 'blueberries', 'src': '/static/foodstim60/blueberries.jpg', 'key': 'i', 'origWidth': 411, 'origHeight': 411, 'width': 411, 'height': 411, 'widthPercent': 0.45, 'rescaleHeight': False, 'trialN': 85, 'loaded': True, 'loadedTime': 4380.69999999553, 'positionName': 'RIGHT', 'positionCoords': [998.4, 334.5], 'bid': 2.08}]",168573.79999999702,1669833444868,omelette,blueberries,0.0,2.08,2.08,blueberries,1465.7000000029802,1467,1466.2000000029802,True,i,170553.59999999404,1979.7999999970198,1669833446848,1980,HRV,HRV_0208,2022-11-30 18:40:15
86,"[{'imgObject': {}, 'id': 'corn cob', 'src': '/static/foodstim60/corn cob.jpg', 'key': 'u', 'origWidth': 411, 'origHeight': 411, 'width': 411, 'height': 411, 'widthPercent': 0.45, 'rescaleHeight': False, 'trialN': 86, 'loaded': True, 'loadedTime': 4478.5999999940395, 'positionName': 'LEFT', 'positionCoords': [510.6, 334.5], 'bid': 7.1000000000000005}, {'imgObject': {}, 'id': 'Grapes', 'src': '/static/foodstim60/Grapes.jpg', 'key': 'i', 'origWidth': 411, 'origHeight': 411, 'width': 411, 'height': 411, 'widthPercent': 0.45, 'rescaleHeight': False, 'trialN': 86, 'loaded': True, 'loadedTime': 4467.79999999702, 'positionName': 'RIGHT', 'positionCoords': [998.4, 334.5], 'bid': 8.1}]",170553.8999999985,1669833446849,corn cob,Grapes,7.1000000000000005,8.1,0.9999999999999991,Grapes,1581.3999999985099,1582,1582.0,True,i,172638.79999999702,2084.89999999851,1669833448933,2084,HRV,HRV_0208,2022-11-30 18:40:15
87,"[{'imgObject': {}, 'id': 'ice cream sundae 002', 'src': '/static/foodstim60/ice cream sundae 002.jpg', 'key': 'u', 'origWidth': 409, 'origHeight': 409, 'width': 409, 'height': 409, 'widthPercent': 0.45, 'rescaleHeight': False, 'trialN': 87, 'loaded': True, 'loadedTime': 4573, 'positionName': 'LEFT', 'positionCoords': [512.6, 335.5], 'bid': 7.46}, {'imgObject': {}, 'id': 'hotdog w must', 'src': '/static/foodstim60/hotdog w must.jpg', 'key': 'i', 'origWidth': 409, 'origHeight': 409, 'width': 409, 'height': 409, 'widthPercent': 0.45, 'rescaleHeight': False, 'trialN': 87, 'loaded': True, 'loadedTime': 4136.19999999553, 'positionName': 'RIGHT', 'positionCoords': [998.4, 335.5], 'bid': 4.22}]",172639.09999999404,1669833448934,ice cream sundae 002,hotdog w must,7.46,4.22,-3.24,hotdog w must,1256.3000000044703,1256,1256.7000000029802,True,i,174413.3999999985,1774.3000000044703,1669833450708,1774,HRV,HRV_0208,2022-11-30 18:40:15
88,"[{'imgObject': {}, 'id': 'orange slices', 'src': '/static/foodstim60/orange slices.jpg', 'key': 'u', 'origWidth': 409, 'origHeight': 410, 'width': 409, 'height': 410, 'widthPercent': 0.45, 'rescaleHeight': False, 'trialN': 88, 'loaded': True, 'loadedTime': 4127.0999999940395, 'positionName': 'LEFT', 'positionCoords': [512.6, 335], 'bid': 8.07}, {'imgObject': {}, 'id': 'mac & cheese', 'src': '/static/foodstim60/mac & cheese.jpg', 'key': 'i', 'origWidth': 410, 'origHeight': 410, 'width': 410, 'height': 410, 'widthPercent': 0.45, 'rescaleHeight': False, 'trialN': 88, 'loaded': True, 'loadedTime': 4538.5, 'positionName': 'RIGHT', 'positionCoords': [998.4, 335], 'bid': 8.790000000000001}]",174413.69999999553,1669833450708,orange slices,mac & cheese,8.07,8.790000000000001,0.7200000000000006,mac & cheese,953.8000000044703,955,954.8999999985099,True,i,175879.8999999985,1466.2000000029802,1669833452175,1467,HRV,HRV_0208,2022-11-30 18:40:15
89,"[{'imgObject': {}, 'id': 'mac & cheese', 'src': '/static/foodstim60/mac & cheese.jpg', 'key': 'u', 'origWidth': 410, 'origHeight': 410, 'width': 410, 'height': 410, 'widthPercent': 0.45, 'rescaleHeight': False, 'trialN': 89, 'loaded': True, 'loadedTime': 4531.79999999702, 'positionName': 'LEFT', 'positionCoords': [511.6, 335], 'bid': 8.790000000000001}, {'imgObject': {}, 'id': 'pear', 'src': '/static/foodstim60/pear.jpg', 'key': 'i', 'origWidth': 411, 'origHeight': 410, 'width': 411, 'height': 410, 'widthPercent': 0.45, 'rescaleHeight': False, 'trialN': 89, 'loaded': True, 'loadedTime': 4618.0999999940395, 'positionName': 'RIGHT', 'positionCoords': [998.4, 335], 'bid': 9.66}]",175880.29999999702,1669833452175,mac & cheese,pear,8.790000000000001,9.66,0.8699999999999992,mac & cheese,1175.7999999970198,1176,1176.2000000029802,True,u,177559.29999999702,1679.0,1669833453854,1679,HRV,HRV_0208,2022-11-30 18:40:15
90,"[{'imgObject': {}, 'id': 'sweetpotato', 'src': '/static/foodstim60/sweetpotato.jpg', 'key': 'u', 'origWidth': 410, 'origHeight': 410, 'width': 410, 'height': 410, 'widthPercent': 0.45, 'rescaleHeight': False, 'trialN': 90, 'loaded': True, 'loadedTime': 4640.69999999553, 'positionName': 'LEFT', 'positionCoords': [511.6, 335], 'bid': 0.46}, {'imgObject': {}, 'id': 'rigatoni', 'src': '/static/foodstim60/rigatoni.jpg', 'key': 'i', 'origWidth': 411, 'origHeight': 411, 'width': 411, 'height': 411, 'widthPercent': 0.45, 'rescaleHeight': False, 'trialN': 90, 'loaded': True, 'loadedTime': 4410.5, 'positionName': 'RIGHT', 'positionCoords': [998.4, 334.5], 'bid': 0.16}]",181296.0,1669833457591,sweetpotato,rigatoni,0.46,0.16,-0.30000000000000004,rigatoni,1215.2999999970198,1216,1216.0,True,i,183025.0,1729.0,1669833459320,1729,HRV,HRV_0208,2022-11-30 18:40:15
91,"[{'imgObject': {}, 'id': 'luckycharms', 'src': '/static/foodstim60/luckycharms.jpg', 'key': 'u', 'origWidth': 410, 'origHeight': 409, 'width': 410, 'height': 409, 'widthPercent': 0.45, 'rescaleHeight': False, 'trialN': 91, 'loaded': True, 'loadedTime': 4521.39999999851, 'positionName': 'LEFT', 'positionCoords': [511.6, 335.5], 'bid': 0}, {'imgObject': {}, 'id': 'Tribe humus pita', 'src': '/static/foodstim60/Tribe humus pita.jpg', 'key': 'i', 'origWidth': 411, 'origHeight': 411, 'width': 411, 'height': 411, 'widthPercent': 0.45, 'rescaleHeight': False, 'trialN': 91, 'loaded': True, 'loadedTime': 4638.5999999940395, 'positionName': 'RIGHT', 'positionCoords': [998.4, 334.5], 'bid': 0}]",183025.19999999553,1669833459320,luckycharms,Tribe humus pita,0.0,0.0,0.0,luckycharms,1141.7000000029802,1142,1142.1000000014901,True,u,184679.5,1654.3000000044703,1669833460974,1654,HRV,HRV_0208,2022-11-30 18:40:15
92,"[{'imgObject': {}, 'id': 'blueberries', 'src': '/static/foodstim60/blueberries.jpg', 'key': 'u', 'origWidth': 411, 'origHeight': 411, 'width': 411, 'height': 411, 'widthPercent': 0.45, 'rescaleHeight': False, 'trialN': 92, 'loaded': True, 'loadedTime': 4371.89999999851, 'positionName': 'LEFT', 'positionCoords': [510.6, 334.5], 'bid': 2.08}, {'imgObject': {}, 'id': 'baked potato', 'src': '/static/foodstim60/baked potato.jpg', 'key': 'i', 'origWidth': 409, 'origHeight': 410, 'width': 409, 'height': 410, 'widthPercent': 0.45, 'rescaleHeight': False, 'trialN': 92, 'loaded': True, 'loadedTime': 4230.5, 'positionName': 'RIGHT', 'positionCoords': [998.4, 335], 'bid': 5.83}]",184679.69999999553,1669833460974,blueberries,baked potato,2.08,5.83,3.75,baked potato,991.8000000044703,993,992.1000000014901,True,i,186177.79999999702,1498.1000000014901,1669833462472,1498,HRV,HRV_0208,2022-11-30 18:40:15
93,"[{'imgObject': {}, 'id': 'bagel and cc', 'src': '/static/foodstim60/bagel and cc.jpg', 'key': 'u', 'origWidth': 410, 'origHeight': 410, 'width': 410, 'height': 410, 'widthPercent': 0.45, 'rescaleHeight': False, 'trialN': 93, 'loaded': True, 'loadedTime': 4488.5, 'positionName': 'LEFT', 'positionCoords': [511.6, 335], 'bid': 0.01}, {'imgObject': {}, 'id': 'raisin bran w milk', 'src': '/static/foodstim60/raisin bran w milk.jpg', 'key': 'i', 'origWidth': 411, 'origHeight': 411, 'width': 411, 'height': 411, 'widthPercent': 0.45, 'rescaleHeight': False, 'trialN': 93, 'loaded': True, 'loadedTime': 4581.39999999851, 'positionName': 'RIGHT', 'positionCoords': [998.4, 334.5], 'bid': 0.01}]",186178.0,1669833462473,bagel and cc,raisin bran w milk,0.01,0.01,0.0,raisin bran w milk,1029.2999999970198,1029,1029.7999999970198,True,i,187714.69999999553,1536.6999999955297,1669833464009,1536,HRV,HRV_0208,2022-11-30 18:40:15
94,"[{'imgObject': {}, 'id': 'rigatoni and sauce', 'src': '/static/foodstim60/rigatoni and sauce.jpg', 'key': 'u', 'origWidth': 410, 'origHeight': 411, 'width': 410, 'height': 411, 'widthPercent': 0.45, 'rescaleHeight': False, 'trialN': 94, 'loaded': True, 'loadedTime': 4639.89999999851, 'positionName': 'LEFT', 'positionCoords': [511.6, 334.5], 'bid': 0.54}, {'imgObject': {}, 'id': 'raisin bran w milk', 'src': '/static/foodstim60/raisin bran w milk.jpg', 'key': 'i', 'origWidth': 411, 'origHeight': 411, 'width': 411, 'height': 411, 'widthPercent': 0.45, 'rescaleHeight': False, 'trialN': 94, 'loaded': True, 'loadedTime': 4581.5999999940395, 'positionName': 'RIGHT', 'positionCoords': [998.4, 334.5], 'bid': 0.01}]",187715.29999999702,1669833464010,rigatoni and sauce,raisin bran w milk,0.54,0.01,-0.53,rigatoni and sauce,2004.0,2004,2004.5,True,u,190225.09999999404,2509.7999999970198,1669833466520,2510,HRV,HRV_0208,2022-11-30 18:40:15
95,"[{'imgObject': {}, 'id': 'apple slices', 'src': '/static/foodstim60/apple slices.jpg', 'key': 'u', 'origWidth': 409, 'origHeight': 410, 'width': 409, 'height': 410, 'widthPercent': 0.45, 'rescaleHeight': False, 'trialN': 95, 'loaded': True, 'loadedTime': 4651.69999999553, 'positionName': 'LEFT', 'positionCoords': [512.6, 335], 'bid': 8.3}, {'imgObject': {}, 'id': 'mango', 'src': '/static/foodstim60/mango.jpg', 'key': 'i', 'origWidth': 411, 'origHeight': 411, 'width': 411, 'height': 411, 'widthPercent': 0.45, 'rescaleHeight': False, 'trialN': 95, 'loaded': True, 'loadedTime': 4582.79999999702, 'positionName': 'RIGHT', 'positionCoords': [998.4, 334.5], 'bid': 8.19}]",190225.3999999985,1669833466520,apple slices,mango,8.3,8.19,-0.11000000000000121,apple slices,1038.6999999955297,1039,1039.1000000014901,True,u,191772.59999999404,1547.1999999955297,1669833468067,1547,HRV,HRV_0208,2022-11-30 18:40:15
96,"[{'imgObject': {}, 'id': 'raspberries', 'src': '/static/foodstim60/raspberries.jpg', 'key': 'u', 'origWidth': 411, 'origHeight': 411, 'width': 411, 'height': 411, 'widthPercent': 0.45, 'rescaleHeight': False, 'trialN': 96, 'loaded': True, 'loadedTime': 4266.69999999553, 'positionName': 'LEFT', 'positionCoords': [510.6, 334.5], 'bid': 9.59}, {'imgObject': {}, 'id': 'seaweed', 'src': '/static/foodstim60/seaweed.jpg', 'key': 'i', 'origWidth': 410, 'origHeight': 410, 'width': 410, 'height': 410, 'widthPercent': 0.45, 'rescaleHeight': False, 'trialN': 96, 'loaded': True, 'loadedTime': 4149.29999999702, 'positionName': 'RIGHT', 'positionCoords': [998.4, 335], 'bid': 2.63}]",191772.79999999702,1669833468067,raspberries,seaweed,9.59,2.63,-6.96,raspberries,834.3999999985099,835,834.8999999985099,True,u,193125.19999999553,1352.3999999985099,1669833469420,1353,HRV,HRV_0208,2022-11-30 18:40:15
97,"[{'imgObject': {}, 'id': 'rigatoni and sauce', 'src': '/static/foodstim60/rigatoni and sauce.jpg', 'key': 'u', 'origWidth': 410, 'origHeight': 411, 'width': 410, 'height': 411, 'widthPercent': 0.45, 'rescaleHeight': False, 'trialN': 97, 'loaded': True, 'loadedTime': 4638.79999999702, 'positionName': 'LEFT', 'positionCoords': [511.6, 334.5], 'bid': 0.54}, {'imgObject': {}, 'id': 'mashed potato', 'src': '/static/foodstim60/mashed potato.jpg', 'key': 'i', 'origWidth': 409, 'origHeight': 409, 'width': 409, 'height': 409, 'widthPercent': 0.45, 'rescaleHeight': False, 'trialN': 97, 'loaded': True, 'loadedTime': 4324.29999999702, 'positionName': 'RIGHT', 'positionCoords': [998.4, 335.5], 'bid': 1.37}]",193125.5,1669833469420,rigatoni and sauce,mashed potato,0.54,1.37,0.8300000000000001,rigatoni and sauce,1681.7999999970198,1683,1682.3999999985099,True,u,195322.8999999985,2197.39999999851,1669833471618,2198,HRV,HRV_0208,2022-11-30 18:40:15
98,"[{'imgObject': {}, 'id': 'cantaloupe', 'src': '/static/foodstim60/cantaloupe.jpg', 'key': 'u', 'origWidth': 409, 'origHeight': 409, 'width': 409, 'height': 409, 'widthPercent': 0.45, 'rescaleHeight': False, 'trialN': 98, 'loaded': True, 'loadedTime': 4601.29999999702, 'positionName': 'LEFT', 'positionCoords': [512.6, 335.5], 'bid': 9.26}, {'imgObject': {}, 'id': 'raspberries', 'src': '/static/foodstim60/raspberries.jpg', 'key': 'i', 'origWidth': 411, 'origHeight': 411, 'width': 411, 'height': 411, 'widthPercent': 0.45, 'rescaleHeight': False, 'trialN': 98, 'loaded': True, 'loadedTime': 4276, 'positionName': 'RIGHT', 'positionCoords': [998.4, 334.5], 'bid': 9.59}]",195323.19999999553,1669833471618,cantaloupe,raspberries,9.26,9.59,0.33000000000000007,cantaloupe,1620.2000000029802,1621,1620.7000000029802,True,u,197451.09999999404,2127.89999999851,1669833473746,2128,HRV,HRV_0208,2022-11-30 18:40:15
99,"[{'imgObject': {}, 'id': 'Tribe humus pita', 'src': '/static/foodstim60/Tribe humus pita.jpg', 'key': 'u', 'origWidth': 411, 'origHeight': 411, 'width': 411, 'height': 411, 'widthPercent': 0.45, 'rescaleHeight': False, 'trialN': 99, 'loaded': True, 'loadedTime': 4638.5999999940395, 'positionName': 'LEFT', 'positionCoords': [510.6, 334.5], 'bid': 0}, {'imgObject': {}, 'id': 'bagel plain', 'src': '/static/foodstim60/bagel plain.jpg', 'key': 'i', 'origWidth': 410, 'origHeight': 410, 'width': 410, 'height': 410, 'widthPercent': 0.45, 'rescaleHeight': False, 'trialN': 99, 'loaded': True, 'loadedTime': 4601.39999999851, 'positionName': 'RIGHT', 'positionCoords': [998.4, 335], 'bid': 0}]",197451.5,1669833473746,Tribe humus pita,bagel plain,0.0,0.0,0.0,bagel plain,1556.0,1547,1556.3999999985099,True,i,199525.69999999553,2074.1999999955297,1669833475811,2065,HRV,HRV_0208,2022-11-30 18:40:15
100,"[{'imgObject': {}, 'id': 'fried eggs', 'src': '/static/foodstim60/fried eggs.jpg', 'key': 'u', 'origWidth': 410, 'origHeight': 410, 'width': 410, 'height': 410, 'widthPercent': 0.45, 'rescaleHeight': False, 'trialN': 100, 'loaded': True, 'loadedTime': 4428.5, 'positionName': 'LEFT', 'positionCoords': [511.6, 335], 'bid': 0}, {'imgObject': {}, 'id': 'Tribe humus pita', 'src': '/static/foodstim60/Tribe humus pita.jpg', 'key': 'i', 'origWidth': 411, 'origHeight': 411, 'width': 411, 'height': 411, 'widthPercent': 0.45, 'rescaleHeight': False, 'trialN': 100, 'loaded': True, 'loadedTime': 4638.79999999702, 'positionName': 'RIGHT', 'positionCoords': [998.4, 334.5], 'bid': 0}]",199525.8999999985,1669833475811,fried eggs,Tribe humus pita,0.0,0.0,0.0,Tribe humus pita,1673.6000000014901,1674,1674.1000000014901,True,i,201715.19999999553,2189.2999999970198,1669833478001,2190,HRV,HRV_0208,2022-11-30 18:40:15
101,"[{'imgObject': {}, 'id': 'steak', 'src': '/static/foodstim60/steak.jpg', 'key': 'u', 'origWidth': 410, 'origHeight': 410, 'width': 410, 'height': 410, 'widthPercent': 0.45, 'rescaleHeight': False, 'trialN': 101, 'loaded': True, 'loadedTime': 4304.89999999851, 'positionName': 'LEFT', 'positionCoords': [511.6, 335], 'bid': 8.41}, {'imgObject': {}, 'id': 'chicken nuggets2', 'src': '/static/foodstim60/chicken nuggets2.jpg', 'key': 'i', 'origWidth': 410, 'origHeight': 409, 'width': 410, 'height': 409, 'widthPercent': 0.45, 'rescaleHeight': False, 'trialN': 101, 'loaded': True, 'loadedTime': 4097.89999999851, 'positionName': 'RIGHT', 'positionCoords': [998.4, 335.5], 'bid': 8.07}]",201715.8999999985,1669833478001,steak,chicken nuggets2,8.41,8.07,-0.33999999999999986,steak,2019.8999999985099,2021,2020.2999999970198,True,u,204251.29999999702,2535.39999999851,1669833480537,2536,HRV,HRV_0208,2022-11-30 18:40:15
102,"[{'imgObject': {}, 'id': 'shreddedwheatwithmilk', 'src': '/static/foodstim60/shreddedwheatwithmilk.jpg', 'key': 'u', 'origWidth': 410, 'origHeight': 410, 'width': 410, 'height': 410, 'widthPercent': 0.45, 'rescaleHeight': False, 'trialN': 102, 'loaded': True, 'loadedTime': 4286.89999999851, 'positionName': 'LEFT', 'positionCoords': [511.6, 335], 'bid': 0}, {'imgObject': {}, 'id': 'bagel plain', 'src': '/static/foodstim60/bagel plain.jpg', 'key': 'i', 'origWidth': 410, 'origHeight': 410, 'width': 410, 'height': 410, 'widthPercent': 0.45, 'rescaleHeight': False, 'trialN': 102, 'loaded': True, 'loadedTime': 4602.5, 'positionName': 'RIGHT', 'positionCoords': [998.4, 335], 'bid': 0}]",204251.59999999404,1669833480537,shreddedwheatwithmilk,bagel plain,0.0,0.0,0.0,shreddedwheatwithmilk,1683.5,1684,1684.1000000014901,True,u,206448.0,2196.4000000059605,1669833482733,2196,HRV,HRV_0208,2022-11-30 18:40:15
103,"[{'imgObject': {}, 'id': 'burrito', 'src': '/static/foodstim60/burrito.jpg', 'key': 'u', 'origWidth': 410, 'origHeight': 410, 'width': 410, 'height': 410, 'widthPercent': 0.45, 'rescaleHeight': False, 'trialN': 103, 'loaded': True, 'loadedTime': 4654.39999999851, 'positionName': 'LEFT', 'positionCoords': [511.6, 335], 'bid': 0.07}, {'imgObject': {}, 'id': 'hashbrowns', 'src': '/static/foodstim60/hashbrowns.jpg', 'key': 'i', 'origWidth': 411, 'origHeight': 410, 'width': 411, 'height': 410, 'widthPercent': 0.45, 'rescaleHeight': False, 'trialN': 103, 'loaded': True, 'loadedTime': 4591, 'positionName': 'RIGHT', 'positionCoords': [998.4, 335], 'bid': 0.21}]",206448.3999999985,1669833482734,burrito,hashbrowns,0.07,0.21,0.13999999999999999,hashbrowns,1206.8999999985099,1207,1207.2999999970198,True,i,208164.59999999404,1716.1999999955297,1669833484450,1716,HRV,HRV_0208,2022-11-30 18:40:15
104,"[{'imgObject': {}, 'id': 'turkey sandwich', 'src': '/static/foodstim60/turkey sandwich.jpg', 'key': 'u', 'origWidth': 409, 'origHeight': 409, 'width': 409, 'height': 409, 'widthPercent': 0.45, 'rescaleHeight': False, 'trialN': 104, 'loaded': True, 'loadedTime': 4448.89999999851, 'positionName': 'LEFT', 'positionCoords': [512.6, 335.5], 'bid': 8.77}, {'imgObject': {}, 'id': 'sweetpotato', 'src': '/static/foodstim60/sweetpotato.jpg', 'key': 'i', 'origWidth': 410, 'origHeight': 410, 'width': 410, 'height': 410, 'widthPercent': 0.45, 'rescaleHeight': False, 'trialN': 104, 'loaded': True, 'loadedTime': 4642.89999999851, 'positionName': 'RIGHT', 'positionCoords': [998.4, 335], 'bid': 0.46}]",208165.29999999702,1669833484451,turkey sandwich,sweetpotato,8.77,0.46,-8.309999999999999,turkey sandwich,1018.2999999970198,1018,1018.7999999970198,True,u,209689.69999999553,1524.3999999985099,1669833485975,1524,HRV,HRV_0208,2022-11-30 18:40:15
105,"[{'imgObject': {}, 'id': 'lox', 'src': '/static/foodstim60/lox.jpg', 'key': 'u', 'origWidth': 410, 'origHeight': 411, 'width': 410, 'height': 411, 'widthPercent': 0.45, 'rescaleHeight': False, 'trialN': 105, 'loaded': True, 'loadedTime': 4629.79999999702, 'positionName': 'LEFT', 'positionCoords': [511.6, 334.5], 'bid': 4.38}, {'imgObject': {}, 'id': 'turkeysandwich', 'src': '/static/foodstim60/turkeysandwich.jpg', 'key': 'i', 'origWidth': 409, 'origHeight': 409, 'width': 409, 'height': 409, 'widthPercent': 0.45, 'rescaleHeight': False, 'trialN': 105, 'loaded': True, 'loadedTime': 4508.5, 'positionName': 'RIGHT', 'positionCoords': [998.4, 335.5], 'bid': 7.66}]",209689.8999999985,1669833485975,lox,turkeysandwich,4.38,7.66,3.2800000000000002,turkeysandwich,1125.6000000014901,1126,1126.1999999955297,True,i,211322.79999999702,1632.8999999985099,1669833487608,1633,HRV,HRV_0208,2022-11-30 18:40:15
106,"[{'imgObject': {}, 'id': 'edamame', 'src': '/static/foodstim60/edamame.jpg', 'key': 'u', 'origWidth': 409, 'origHeight': 410, 'width': 409, 'height': 410, 'widthPercent': 0.45, 'rescaleHeight': False, 'trialN': 106, 'loaded': True, 'loadedTime': 4550.5, 'positionName': 'LEFT', 'positionCoords': [512.6, 335], 'bid': 6.46}, {'imgObject': {}, 'id': 'hotdog w must', 'src': '/static/foodstim60/hotdog w must.jpg', 'key': 'i', 'origWidth': 409, 'origHeight': 409, 'width': 409, 'height': 409, 'widthPercent': 0.45, 'rescaleHeight': False, 'trialN': 106, 'loaded': True, 'loadedTime': 4127.5, 'positionName': 'RIGHT', 'positionCoords': [998.4, 335.5], 'bid': 4.22}]",211323.09999999404,1669833487608,edamame,hotdog w must,6.46,4.22,-2.24,hotdog w must,1012.1000000014901,1013,1012.7000000029802,True,i,212846.8999999985,1523.8000000044703,1669833489132,1524,HRV,HRV_0208,2022-11-30 18:40:15
107,"[{'imgObject': {}, 'id': 'blueberries', 'src': '/static/foodstim60/blueberries.jpg', 'key': 'u', 'origWidth': 411, 'origHeight': 411, 'width': 411, 'height': 411, 'widthPercent': 0.45, 'rescaleHeight': False, 'trialN': 107, 'loaded': True, 'loadedTime': 4380.69999999553, 'positionName': 'LEFT', 'positionCoords': [510.6, 334.5], 'bid': 2.08}, {'imgObject': {}, 'id': 'veggieswithdip', 'src': '/static/foodstim60/veggieswithdip.jpg', 'key': 'i', 'origWidth': 409, 'origHeight': 409, 'width': 409, 'height': 409, 'widthPercent': 0.45, 'rescaleHeight': False, 'trialN': 107, 'loaded': True, 'loadedTime': 4361.39999999851, 'positionName': 'RIGHT', 'positionCoords': [998.4, 335.5], 'bid': 2.83}]",212847.09999999404,1669833489132,blueberries,veggieswithdip,2.08,2.83,0.75,veggieswithdip,1879.9000000059605,1881,1880.3000000044703,True,i,215240.8999999985,2393.8000000044703,1669833491526,2394,HRV,HRV_0208,2022-11-30 18:40:15
108,"[{'imgObject': {}, 'id': 'cocktailshrimp', 'src': '/static/foodstim60/cocktailshrimp.jpg', 'key': 'u', 'origWidth': 410, 'origHeight': 410, 'width': 410, 'height': 410, 'widthPercent': 0.45, 'rescaleHeight': False, 'trialN': 108, 'loaded': True, 'loadedTime': 4204.0999999940395, 'positionName': 'LEFT', 'positionCoords': [511.6, 335], 'bid': 0}, {'imgObject': {}, 'id': 'bagel plain', 'src': '/static/foodstim60/bagel plain.jpg', 'key': 'i', 'origWidth': 410, 'origHeight': 410, 'width': 410, 'height': 410, 'widthPercent': 0.45, 'rescaleHeight': False, 'trialN': 108, 'loaded': True, 'loadedTime': 4602.39999999851, 'positionName': 'RIGHT', 'positionCoords': [998.4, 335], 'bid': 0}]",215241.09999999404,1669833491526,cocktailshrimp,bagel plain,0.0,0.0,0.0,bagel plain,1070.2000000029802,1071,1070.7000000029802,True,i,216831.79999999702,1590.7000000029802,1669833493117,1591,HRV,HRV_0208,2022-11-30 18:40:15
109,"[{'imgObject': {}, 'id': 'fruitsalad', 'src': '/static/foodstim60/fruitsalad.jpg', 'key': 'u', 'origWidth': 410, 'origHeight': 410, 'width': 410, 'height': 410, 'widthPercent': 0.45, 'rescaleHeight': False, 'trialN': 109, 'loaded': True, 'loadedTime': 4184.69999999553, 'positionName': 'LEFT', 'positionCoords': [511.6, 335], 'bid': 10}, {'imgObject': {}, 'id': 'sushi w_condiments', 'src': '/static/foodstim60/sushi w_condiments.jpg', 'key': 'i', 'origWidth': 410, 'origHeight': 410, 'width': 410, 'height': 410, 'widthPercent': 0.45, 'rescaleHeight': False, 'trialN': 109, 'loaded': True, 'loadedTime': 4654.39999999851, 'positionName': 'RIGHT', 'positionCoords': [998.4, 335], 'bid': 5.26}]",216832.19999999553,1669833493117,fruitsalad,sushi w_condiments,10.0,5.26,-4.74,fruitsalad,1039.1000000014901,1040,1039.8000000044703,True,u,218382.0,1549.8000000044703,1669833494667,1550,HRV,HRV_0208,2022-11-30 18:40:15
