success,trial_type,trial_index,time_elapsed,internal_node_id,Block,TrialNumber,TrialTime,trialTimeDiff,FPS_avg,FPS_med,FPS_mode,TrialDur,winResizeTime,rt,block,button_pressed,MotCoh,MotDir,ColCoh,Color,ChoiceKey,Choice,Accuracy,RT,nFrames,FPS,PPD,missTrial,missTrialMsg,onsetDelay,fullScreenExitTime,canvCenter,TrialType,Score,BlockTrial,stimulus,button_labels,exp,subjectId,date
True,fullscreen,0,1688,0.0-0.0,0.0,1.0,,,,,,,,,,,,,,,,,,,,,,,,,,,,,,,,HRV,HRV_0294,2022-11-30 21:01:04
,wl-check-fps,1,6686,0.0-1.0,0.0,2.0,"[2405.8, 2412.1, 2429.8, 2445.7, 2462.6, 2480.8, 2496.1, 2513.7, 2529.6, 2552, 2562.6, 2580.3, 2596, 2613.1, 2628.7, 2646, 2663.4, 2678.8, 2696.5, 2712.7, 2729.7, 2746.5, 2763, 2779.5, 2795, 2813.1, 2829.4, 2846, 2863.1, 2878.6, 2895.8, 2912.3, 2929.1, 2945.6, 2963.3, 2980.1, 2996.7, 3013.2, 3028.8, 3046.8, 3062.9, 3078.9, 3096.9, 3113, 3129.6, 3147.3, 3162.3, 3179.4, 3196.2, 3213.4, 3229.8, 3246.2, 3263.1, 3280.1, 3296.9, 3312.8, 3330.2, 3347.1, 3363.5, 3380.1, 3396, 3412.7, 3429.6, 3446.2, 3463.3, 3479.6, 3496.9, 3512.8, 3528.8, 3546.3, 3563.1, 3580.1, 3596, 3613.1, 3630.1, 3646.2, 3663.2, 3680.9, 3696.1, 3713.2, 3729.2, 3746.1, 3763, 3779.6, 3796.7, 3812.1, 3829.9, 3846.2, 3863.3, 3878.9, 3896.3, 3913.3, 3929.4, 3945.9, 3963.1, 3980.2, 3996.2, 4013.4, 4030.7, 4046.4, 4063.4, 4079.8, 4095.3, 4112.6, 4130, 4146.5, 4163.6, 4179.3, 4196.7, 4212.8, 4230.2, 4246.7, 4266.9, 4280.4, 4295.4, 4312.6, 4329.8, 4346.8, 4363, 4378.8, 4395.3, 4412.5, 4429.5, 4446.1, 4463.7, 4479.5, 4495.8, 4512.7, 4530, 4545.9, 4563.2, 4579.9, 4596.5, 4613.2, 4629.2, 4646.7, 4663.5, 4679.8, 4696.1, 4712.8, 4729.5, 4746.9, 4762.8, 4779.9, 4796.4, 4812.2, 4829.6, 4846, 4862.5, 4879.8, 4895.6, 4913.3, 4929.6, 4945.5, 4962.7, 4979.6, 4996.2, 5013, 5029.7, 5046.7, 5062, 5079.3, 5096, 5112.4, 5129.6, 5146.1, 5163.5, 5180.2, 5196.1, 5213.5, 5229.5, 5247, 5263.4, 5279.4, 5297, 5313.5, 5330.1, 5346.3, 5363.6, 5379.8, 5396, 5412.2, 5429, 5446.7, 5462.7, 5479.5, 5496.6, 5512.7, 5529.8, 5546.9, 5563.1, 5580.2, 5597, 5613.3, 5628.9, 5646.2, 5663.3, 5678.9, 5696.4, 5712.8, 5730.1, 5746.5, 5762.8, 5780.1, 5796.4, 5813.6, 5829.7, 5847, 5862.9, 5878.9, 5896.5, 5913.3, 5930.2, 5946.4, 5963.5, 5979, 5996.2, 6013.6, 6030.5, 6046.5, 6063.5, 6079.5, 6096.7, 6112.7, 6130.5, 6146.2, 6162.8, 6179.4, 6195.6, 6212.8, 6229.5, 6246.6, 6263.1, 6279.4, 6295.5, 6312.4, 6330.1, 6346.8, 6363.3, 6379.5, 6396.3, 6412.6, 6430.2, 6446.5, 6462.7, 6480, 6496.5, 6513.4, 6530.1, 6546.2, 6563.5, 6579.5, 6596.2, 6613.3, 6629.4, 6646.2, 6662.3, 6679.6, 6696.8, 6712.1, 6728.9, 6746.3, 6762.8, 6780.3, 6796.2, 6812.1, 6829.9, 6846, 6863.8, 6880.3, 6896.7, 6912.7, 6929.9, 6946, 6963.3, 6979.4, 6996.2, 7012.6, 7030, 7046.9, 7063, 7080, 7096, 7113, 7129.9, 7147, 7163.3, 7179.4, 7196.8, 7213, 7229.6, 7246.1, 7262.7, 7280.3, 7296.6, 7313.1, 7330.1, 7346, 7363.2, 7379.7]","[3.3, 6.3, 17.7, 15.9, 16.9, 18.2, 15.3, 17.6, 15.9, 22.4, 10.6, 17.7, 15.7, 17.1, 15.6, 17.3, 17.4, 15.4, 17.7, 16.2, 17, 16.8, 16.5, 16.5, 15.5, 18.1, 16.3, 16.6, 17.1, 15.5, 17.2, 16.5, 16.8, 16.5, 17.7, 16.8, 16.6, 16.5, 15.6, 18, 16.1, 16, 18, 16.1, 16.6, 17.7, 15, 17.1, 16.8, 17.2, 16.4, 16.4, 16.9, 17, 16.8, 15.9, 17.4, 16.9, 16.4, 16.6, 15.9, 16.7, 16.9, 16.6, 17.1, 16.3, 17.3, 15.9, 16, 17.5, 16.8, 17, 15.9, 17.1, 17, 16.1, 17, 17.7, 15.2, 17.1, 16, 16.9, 16.9, 16.6, 17.1, 15.4, 17.8, 16.3, 17.1, 15.6, 17.4, 17, 16.1, 16.5, 17.2, 17.1, 16, 17.2, 17.3, 15.7, 17, 16.4, 15.5, 17.3, 17.4, 16.5, 17.1, 15.7, 17.4, 16.1, 17.4, 16.5, 20.2, 13.5, 15, 17.2, 17.2, 17, 16.2, 15.8, 16.5, 17.2, 17, 16.6, 17.6, 15.8, 16.3, 16.9, 17.3, 15.9, 17.3, 16.7, 16.6, 16.7, 16, 17.5, 16.8, 16.3, 16.3, 16.7, 16.7, 17.4, 15.9, 17.1, 16.5, 15.8, 17.4, 16.4, 16.5, 17.3, 15.8, 17.7, 16.3, 15.9, 17.2, 16.9, 16.6, 16.8, 16.7, 17, 15.3, 17.3, 16.7, 16.4, 17.2, 16.5, 17.4, 16.7, 15.9, 17.4, 16, 17.5, 16.4, 16, 17.6, 16.5, 16.6, 16.2, 17.3, 16.2, 16.2, 16.2, 16.8, 17.7, 16, 16.8, 17.1, 16.1, 17.1, 17.1, 16.2, 17.1, 16.8, 16.3, 15.6, 17.3, 17.1, 15.6, 17.5, 16.4, 17.3, 16.4, 16.3, 17.3, 16.3, 17.2, 16.1, 17.3, 15.9, 16, 17.6, 16.8, 16.9, 16.2, 17.1, 15.5, 17.2, 17.4, 16.9, 16, 17, 16, 17.2, 16, 17.8, 15.7, 16.6, 16.6, 16.2, 17.2, 16.7, 17.1, 16.5, 16.3, 16.1, 16.9, 17.7, 16.7, 16.5, 16.2, 16.8, 16.3, 17.6, 16.3, 16.2, 17.3, 16.5, 16.9, 16.7, 16.1, 17.3, 16, 16.7, 17.1, 16.1, 16.8, 16.1, 17.3, 17.2, 15.3, 16.8, 17.4, 16.5, 17.5, 15.9, 15.9, 17.8, 16.1, 17.8, 16.5, 16.4, 16, 17.2, 16.1, 17.3, 16.1, 16.8, 16.4, 17.4, 16.9, 16.1, 17, 16, 17, 16.9, 17.1, 16.3, 16.1, 17.4, 16.2, 16.6, 16.5, 16.6, 17.6, 16.3, 16.5, 17, 15.9, 17.2, 16.5]",60.0,60.0,61.0,4994.5,[],,,,,,,,,,,,,,,,,,,,,,,,,HRV,HRV_0294,2022-11-30 21:01:04
,wl-html-keyboard-response,2,19545,0.0-2.0-0.0,0.0,3.0,,,,,,,,10850.200000047684,0.0,0,,,,,,,,,,,,,,,,,,,,,,HRV,HRV_0294,2022-11-30 21:01:04
,wl-rdm,3,26333,0.0-3.0-0.0,0.0,4.0,,,,,,,[],,,,0.0,0.0,87.9,0.0,u,0.0,True,1197.5,72.0,61.0,40.0,False,,3000.0,[],"[720, 450]",ColorTask_Demo,,,,,HRV,HRV_0294,2022-11-30 21:01:04
,wl-rdm,4,31033,0.0-3.0-1.0,0.0,5.0,,,,,,,[],,,,0.0,0.0,87.9,1.0,i,1.0,True,628.8000000715256,38.0,61.0,40.0,False,,2000.0,[],"[720, 450]",ColorTask_Demo,,,,,HRV,HRV_0294,2022-11-30 21:01:04
,wl-html-keyboard-response,5,36113,0.0-3.0-2.0,0.0,6.0,,,,,,,,3075.7999999523163,0.0,1,,,,,,,,,,,,,,,,,,,,,,HRV,HRV_0294,2022-11-30 21:01:04
,wl-html-keyboard-response,6,43481,0.0-4.0-0.0,0.0,7.0,,,,,,,,5360.699999928474,0.0,0,,,,,,,,,,,,,,,,,,,,,,HRV,HRV_0294,2022-11-30 21:01:04
,wl-html-keyboard-response,7,57519,0.0-5.0-0.0,0.0,8.0,,,,,,,,12032.200000047684,0.0,0,,,,,,,,,,,,,,,,,,,,,,HRV,HRV_0294,2022-11-30 21:01:04
,wl-rdm,8,60983,0.0-6.0-0.0,0.0,9.0,,,,,,,[],,,,,,53.2,1.0,i,1.0,True,2072.0,125.0,61.0,40.0,False,,321.5702906476029,[],"[720, 450]",ColorTask,1.0,1.0,,,HRV,HRV_0294,2022-11-30 21:01:04
,wl-rdm,9,63450,0.0-6.1-0.1,0.0,10.0,,,,,,,[],,,,,,50.0,1.0,i,1.0,True,1066.3999999761581,64.0,61.0,40.0,False,,326.324016565038,[],"[720, 450]",ColorTask,2.0,2.0,,,HRV,HRV_0294,2022-11-30 21:01:04
,wl-rdm,10,66400,0.0-6.2-0.2,0.0,11.0,,,,,,,[],,,,,,73.6,1.0,i,1.0,True,1472.0,89.0,61.0,40.0,False,,383.6500290202474,[],"[720, 450]",ColorTask,3.0,3.0,,,HRV,HRV_0294,2022-11-30 21:01:04
,wl-rdm,11,69567,0.0-6.3-0.3,0.0,12.0,,,,,,,[],,,,,,50.0,0.0,i,1.0,False,1705.1999999284744,103.0,61.0,40.0,False,,386.1137702587041,[],"[720, 450]",ColorTask,2.0,4.0,,,HRV,HRV_0294,2022-11-30 21:01:04
,wl-rdm,12,71683,0.0-6.4-0.4,0.0,13.0,,,,,,,[],,,,,,73.6,0.0,u,0.0,True,824.2999999523163,50.0,61.0,40.0,False,,207.32987459654055,[],"[720, 450]",ColorTask,3.0,5.0,,,HRV,HRV_0294,2022-11-30 21:01:04
,wl-rdm,13,74201,0.0-6.5-0.5,0.0,14.0,,,,,,,[],,,,,,50.0,1.0,i,1.0,True,1241.0,75.0,61.0,40.0,False,,203.93980468705237,[],"[720, 450]",ColorTask,4.0,6.0,,,HRV,HRV_0294,2022-11-30 21:01:04
,wl-rdm,14,76250,0.0-6.6-0.6,0.0,15.0,,,,,,,[],,,,,,73.6,1.0,i,1.0,True,666.6000000238419,40.0,61.0,40.0,False,,304.7824182817227,[],"[720, 450]",ColorTask,5.0,7.0,,,HRV,HRV_0294,2022-11-30 21:01:04
,wl-rdm,15,79001,0.0-6.7-0.7,0.0,16.0,,,,,,,[],,,,,,56.4,1.0,i,1.0,True,1315.799999833107,79.0,61.0,40.0,False,,373.9643175356085,[],"[720, 450]",ColorTask,6.0,8.0,,,HRV,HRV_0294,2022-11-30 21:01:04
,wl-rdm,16,81100,0.0-6.8-0.8,0.0,17.0,,,,,,,[],,,,,,62.5,0.0,u,0.0,True,763.5999999046326,46.0,61.0,40.0,False,,282.8764859725646,[],"[720, 450]",ColorTask,7.0,9.0,,,HRV,HRV_0294,2022-11-30 21:01:04
,wl-rdm,17,83184,0.0-6.9-0.9,0.0,18.0,,,,,,,[],,,,,,56.4,0.0,u,0.0,True,724.1000000238419,44.0,61.0,40.0,False,,281.0981255082837,[],"[720, 450]",ColorTask,8.0,10.0,,,HRV,HRV_0294,2022-11-30 21:01:04
,wl-rdm,18,85200,0.0-6.10-0.10,0.0,19.0,,,,,,,[],,,,,,87.9,1.0,i,1.0,True,716.3999999761581,43.0,61.0,40.0,False,,227.94576503449179,[],"[720, 450]",ColorTask,9.0,11.0,,,HRV,HRV_0294,2022-11-30 21:01:04
,wl-rdm,19,88184,0.0-6.11-0.11,0.0,20.0,,,,,,,[],,,,,,56.4,0.0,u,0.0,True,1641.1999999284744,99.0,61.0,40.0,False,,255.02865167975392,[],"[720, 450]",ColorTask,10.0,12.0,,,HRV,HRV_0294,2022-11-30 21:01:04
,wl-rdm,20,90484,0.0-6.12-0.12,0.0,21.0,,,,,,,[],,,,,,62.5,1.0,i,1.0,True,1018.0,62.0,61.0,40.0,False,,204.53640496701288,[],"[720, 450]",ColorTask,11.0,13.0,,,HRV,HRV_0294,2022-11-30 21:01:04
,wl-rdm,21,92400,0.0-6.13-0.13,0.0,22.0,,,,,,,[],,,,,,87.9,0.0,u,0.0,True,628.5999999046326,38.0,61.0,40.0,False,,226.714794706366,[],"[720, 450]",ColorTask,12.0,14.0,,,HRV,HRV_0294,2022-11-30 21:01:04
,wl-rdm,22,94966,0.0-6.14-0.14,0.0,23.0,,,,,,,[],,,,,,56.4,0.0,u,0.0,True,1191.7999999523163,72.0,61.0,40.0,False,,291.85930152845935,[],"[720, 450]",ColorTask,13.0,15.0,,,HRV,HRV_0294,2022-11-30 21:01:04
,wl-rdm,23,97084,0.0-6.15-0.15,0.0,24.0,,,,,,,[],,,,,,87.9,1.0,i,1.0,True,757.3000000715256,46.0,61.0,40.0,False,,285.6526268199669,[],"[720, 450]",ColorTask,14.0,16.0,,,HRV,HRV_0294,2022-11-30 21:01:04
,wl-rdm,24,99300,0.0-6.16-0.16,0.0,25.0,,,,,,,[],,,,,,62.5,1.0,i,1.0,True,863.6000000238419,52.0,61.0,40.0,False,,287.2349725724239,[],"[720, 450]",ColorTask,15.0,17.0,,,HRV,HRV_0294,2022-11-30 21:01:04
,wl-rdm,25,101216,0.0-6.17-0.17,0.0,26.0,,,,,,,[],,,,,,87.9,1.0,i,1.0,True,630.1000000238419,38.0,61.0,40.0,False,,211.02892601534836,[],"[720, 450]",ColorTask,16.0,18.0,,,HRV,HRV_0294,2022-11-30 21:01:04
,wl-rdm,26,103550,0.0-6.18-0.18,0.0,27.0,,,,,,,[],,,,,,73.6,0.0,u,0.0,True,1056.2000000476837,64.0,61.0,40.0,False,,208.67810626731728,[],"[720, 450]",ColorTask,17.0,19.0,,,HRV,HRV_0294,2022-11-30 21:01:04
,wl-rdm,27,106233,0.0-6.19-0.19,0.0,28.0,,,,,,,[],,,,,,50.0,1.0,u,0.0,False,1354.4000000953674,82.0,61.0,40.0,False,,247.62715080469087,[],"[720, 450]",ColorTask,16.0,20.0,,,HRV,HRV_0294,2022-11-30 21:01:04
,wl-rdm,28,108234,0.0-6.20-0.20,0.0,29.0,,,,,,,[],,,,,,73.6,0.0,u,0.0,True,638.3999999761581,39.0,61.0,40.0,False,,267.0340443793458,[],"[720, 450]",ColorTask,17.0,21.0,,,HRV,HRV_0294,2022-11-30 21:01:04
,wl-rdm,29,110966,0.0-6.21-0.21,0.0,30.0,,,,,,,[],,,,,,50.0,0.0,i,1.0,False,1403.2000000476837,85.0,61.0,40.0,False,,243.9076102559721,[],"[720, 450]",ColorTask,16.0,22.0,,,HRV,HRV_0294,2022-11-30 21:01:04
,wl-rdm,30,113299,0.0-6.22-0.22,0.0,31.0,,,,,,,[],,,,,,87.9,0.0,u,0.0,True,935.0999999046326,57.0,61.0,40.0,False,,313.4599648080567,[],"[720, 450]",ColorTask,17.0,23.0,,,HRV,HRV_0294,2022-11-30 21:01:04
,wl-rdm,31,116417,0.0-6.23-0.23,0.0,32.0,,,,,,,[],,,,,,50.0,1.0,i,1.0,True,1724.0,104.0,61.0,40.0,False,,318.92711665488787,[],"[720, 450]",ColorTask,18.0,24.0,,,HRV,HRV_0294,2022-11-30 21:01:04
,wl-rdm,32,119117,0.0-6.24-0.24,0.0,33.0,,,,,,,[],,,,,,53.2,1.0,i,1.0,True,1305.2000000476837,79.0,61.0,40.0,False,,321.9455759816152,[],"[720, 450]",ColorTask,19.0,25.0,,,HRV,HRV_0294,2022-11-30 21:01:04
,wl-rdm,33,121399,0.0-6.25-0.25,0.0,34.0,,,,,,,[],,,,,,87.9,0.0,u,0.0,True,845.8000000715256,51.0,61.0,40.0,False,,376.5556225193676,[],"[720, 450]",ColorTask,20.0,26.0,,,HRV,HRV_0294,2022-11-30 21:01:04
,wl-rdm,34,123666,0.0-6.26-0.26,0.0,35.0,,,,,,,[],,,,,,62.5,0.0,u,0.0,True,974.3000000715256,59.0,61.0,40.0,False,,223.9960591665501,[],"[720, 450]",ColorTask,21.0,27.0,,,HRV,HRV_0294,2022-11-30 21:01:04
,wl-rdm,35,128050,0.0-6.27-0.27,0.0,35.0,,,,,,,[],,,,,,50.0,1.0,,,,,182.0,61.0,40.0,True,RT_timeout ,278.40392750235895,[],"[720, 450]",ColorTask,20.0,28.0,,,HRV,HRV_0294,2022-11-30 21:01:04
,wl-rdm,36,130633,0.0-6.28-0.28,0.0,36.0,,,,,,,[],,,,,,53.2,1.0,i,1.0,True,1124.2000000476837,68.0,61.0,40.0,False,,369.2842376919839,[],"[720, 450]",ColorTask,21.0,29.0,,,HRV,HRV_0294,2022-11-30 21:01:04
,wl-rdm,37,133050,0.0-6.29-0.29,0.0,37.0,,,,,,,[],,,,,,62.5,0.0,u,0.0,True,979.0,59.0,61.0,40.0,False,,362.5120745167177,[],"[720, 450]",ColorTask,22.0,30.0,,,HRV,HRV_0294,2022-11-30 21:01:04
,wl-rdm,38,135283,0.0-6.30-0.30,0.0,38.0,,,,,,,[],,,,,,62.5,1.0,i,1.0,True,960.3999999761581,58.0,61.0,40.0,False,,209.15427739255662,[],"[720, 450]",ColorTask,23.0,31.0,,,HRV,HRV_0294,2022-11-30 21:01:04
,wl-rdm,39,137333,0.0-6.31-0.31,0.0,39.0,,,,,,,[],,,,,,87.9,1.0,i,1.0,True,646.8999999761581,39.0,61.0,40.0,False,,326.85282735832067,[],"[720, 450]",ColorTask,24.0,32.0,,,HRV,HRV_0294,2022-11-30 21:01:04
,wl-rdm,40,140066,0.0-6.32-0.32,0.0,40.0,,,,,,,[],,,,,,53.2,0.0,i,1.0,False,1393.5,84.0,61.0,40.0,False,,255.7802033200253,[],"[720, 450]",ColorTask,23.0,33.0,,,HRV,HRV_0294,2022-11-30 21:01:04
,wl-rdm,41,142483,0.0-6.33-0.33,0.0,41.0,,,,,,,[],,,,,,62.5,0.0,u,0.0,True,981.7000000476837,59.0,61.0,40.0,False,,357.54043659589615,[],"[720, 450]",ColorTask,24.0,34.0,,,HRV,HRV_0294,2022-11-30 21:01:04
,wl-rdm,42,144534,0.0-6.34-0.34,0.0,42.0,,,,,,,[],,,,,,87.9,1.0,i,1.0,True,738.3999999761581,45.0,61.0,40.0,False,,225.02395568108994,[],"[720, 450]",ColorTask,25.0,35.0,,,HRV,HRV_0294,2022-11-30 21:01:04
,wl-rdm,43,146550,0.0-6.35-0.35,0.0,43.0,,,,,,,[],,,,,,50.0,1.0,u,0.0,False,722.5,44.0,61.0,40.0,False,,202.69173350814228,[],"[720, 450]",ColorTask,24.0,36.0,,,HRV,HRV_0294,2022-11-30 21:01:04
,wl-rdm,44,148967,0.0-6.36-0.36,0.0,44.0,,,,,,,[],,,,,,53.2,0.0,u,0.0,True,1123.8999999761581,68.0,61.0,40.0,False,,228.29627054273493,[],"[720, 450]",ColorTask,25.0,37.0,,,HRV,HRV_0294,2022-11-30 21:01:04
,wl-rdm,45,151433,0.0-6.37-0.37,0.0,45.0,,,,,,,[],,,,,,62.5,0.0,u,0.0,True,1084.0,66.0,61.0,40.0,False,,290.50987490240266,[],"[720, 450]",ColorTask,26.0,38.0,,,HRV,HRV_0294,2022-11-30 21:01:04
,wl-rdm,46,153583,0.0-6.38-0.38,0.0,46.0,,,,,,,[],,,,,,73.6,1.0,i,1.0,True,721.3999999761581,44.0,61.0,40.0,False,,360.8222794192154,[],"[720, 450]",ColorTask,27.0,39.0,,,HRV,HRV_0294,2022-11-30 21:01:04
,wl-rdm,47,156651,0.0-6.39-0.39,0.0,47.0,,,,,,,[],,,,,,53.2,1.0,u,0.0,False,1639.8999999761581,99.0,61.0,40.0,False,,338.9420260789144,[],"[720, 450]",ColorTask,26.0,40.0,,,HRV,HRV_0294,2022-11-30 21:01:04
,wl-rdm,48,158950,0.0-6.40-0.40,0.0,48.0,,,,,,,[],,,,,,56.4,1.0,i,1.0,True,975.5,59.0,61.0,40.0,False,,265.00835730448136,[],"[720, 450]",ColorTask,27.0,41.0,,,HRV,HRV_0294,2022-11-30 21:01:04
,wl-rdm,49,161016,0.0-6.41-0.41,0.0,49.0,,,,,,,[],,,,,,62.5,1.0,i,1.0,True,720.6999999284744,44.0,61.0,40.0,False,,265.8192225168589,[],"[720, 450]",ColorTask,28.0,42.0,,,HRV,HRV_0294,2022-11-30 21:01:04
,wl-rdm,50,162983,0.0-6.42-0.42,0.0,50.0,,,,,,,[],,,,,,87.9,1.0,i,1.0,True,682.1000000238419,41.0,61.0,40.0,False,,217.23321142255074,[],"[720, 450]",ColorTask,29.0,43.0,,,HRV,HRV_0294,2022-11-30 21:01:04
,wl-rdm,51,165100,0.0-6.43-0.43,0.0,51.0,,,,,,,[],,,,,,87.9,0.0,u,0.0,True,749.7000000476837,45.0,61.0,40.0,False,,306.6714677198164,[],"[720, 450]",ColorTask,30.0,44.0,,,HRV,HRV_0294,2022-11-30 21:01:04
,wl-rdm,52,167283,0.0-6.44-0.44,0.0,52.0,,,,,,,[],,,,,,50.0,1.0,u,0.0,False,783.7000000476837,47.0,61.0,40.0,False,,323.14539365821173,[],"[720, 450]",ColorTask,29.0,45.0,,,HRV,HRV_0294,2022-11-30 21:01:04
,wl-rdm,53,169750,0.0-6.45-0.45,0.0,53.0,,,,,,,[],,,,,,53.2,1.0,u,0.0,False,1095.7999999523163,66.0,61.0,40.0,False,,310.9281367373552,[],"[720, 450]",ColorTask,28.0,46.0,,,HRV,HRV_0294,2022-11-30 21:01:04
,wl-rdm,54,171817,0.0-6.46-0.46,0.0,54.0,,,,,,,[],,,,,,56.4,1.0,i,1.0,True,724.1000000238419,44.0,61.0,40.0,False,,255.2470847658489,[],"[720, 450]",ColorTask,29.0,47.0,,,HRV,HRV_0294,2022-11-30 21:01:04
,wl-rdm,55,174084,0.0-6.47-0.47,0.0,55.0,,,,,,,[],,,,,,50.0,0.0,u,0.0,True,829.3999999761581,50.0,61.0,40.0,False,,350.1202020022689,[],"[720, 450]",ColorTask,30.0,48.0,,,HRV,HRV_0294,2022-11-30 21:01:04
,wl-rdm,56,176117,0.0-6.48-0.48,0.0,56.0,,,,,,,[],,,,,,56.4,0.0,u,0.0,True,727.8999999761581,44.0,61.0,40.0,False,,232.41869551301386,[],"[720, 450]",ColorTask,31.0,49.0,,,HRV,HRV_0294,2022-11-30 21:01:04
,wl-rdm,57,178567,0.0-6.49-0.49,0.0,57.0,,,,,,,[],,,,,,50.0,0.0,i,1.0,False,1042.6999999284744,63.0,61.0,40.0,False,,330.87194772947925,[],"[720, 450]",ColorTask,30.0,50.0,,,HRV,HRV_0294,2022-11-30 21:01:04
,wl-rdm,58,180617,0.0-6.50-0.50,0.0,58.0,,,,,,,[],,,,,,73.6,1.0,i,1.0,True,729.8000000715256,44.0,61.0,40.0,False,,258.0254846989346,[],"[720, 450]",ColorTask,31.0,51.0,,,HRV,HRV_0294,2022-11-30 21:01:04
,wl-rdm,59,182867,0.0-6.51-0.51,0.0,59.0,,,,,,,[],,,,,,73.6,1.0,i,1.0,True,889.5,54.0,61.0,40.0,False,,272.473974384184,[],"[720, 450]",ColorTask,32.0,52.0,,,HRV,HRV_0294,2022-11-30 21:01:04
,wl-rdm,60,184999,0.0-6.52-0.52,0.0,60.0,,,,,,,[],,,,,,87.9,1.0,i,1.0,True,722.1999999284744,44.0,61.0,40.0,False,,329.19305315559643,[],"[720, 450]",ColorTask,33.0,53.0,,,HRV,HRV_0294,2022-11-30 21:01:04
,wl-rdm,61,187966,0.0-6.53-0.53,0.0,61.0,,,,,,,[],,,,,,53.2,0.0,i,1.0,False,1544.5,93.0,61.0,40.0,False,,339.8915509441324,[],"[720, 450]",ColorTask,32.0,54.0,,,HRV,HRV_0294,2022-11-30 21:01:04
,wl-rdm,62,190517,0.0-6.54-0.54,0.0,62.0,,,,,,,[],,,,,,56.4,0.0,i,1.0,False,1188.2999999523163,72.0,61.0,40.0,False,,293.2347187026361,[],"[720, 450]",ColorTask,31.0,55.0,,,HRV,HRV_0294,2022-11-30 21:01:04
,wl-rdm,63,192750,0.0-6.55-0.55,0.0,63.0,,,,,,,[],,,,,,53.2,1.0,i,1.0,True,906.6000000238419,55.0,61.0,40.0,False,,239.80490868721964,[],"[720, 450]",ColorTask,32.0,56.0,,,HRV,HRV_0294,2022-11-30 21:01:04
,wl-rdm,64,195100,0.0-6.56-0.56,0.0,64.0,,,,,,,[],,,,,,56.4,1.0,i,1.0,True,1056.5000001192093,64.0,61.0,40.0,False,,212.6750123303221,[],"[720, 450]",ColorTask,33.0,57.0,,,HRV,HRV_0294,2022-11-30 21:01:04
,wl-rdm,65,197167,0.0-6.57-0.57,0.0,65.0,,,,,,,[],,,,,,62.5,0.0,u,0.0,True,644.6000000238419,39.0,61.0,40.0,False,,343.124785357193,[],"[720, 450]",ColorTask,34.0,58.0,,,HRV,HRV_0294,2022-11-30 21:01:04
,wl-rdm,66,199417,0.0-6.58-0.58,0.0,66.0,,,,,,,[],,,,,,50.0,0.0,u,0.0,True,872.8999999761581,53.0,61.0,40.0,False,,287.0191648605071,[],"[720, 450]",ColorTask,35.0,59.0,,,HRV,HRV_0294,2022-11-30 21:01:04
,wl-rdm,67,202500,0.0-6.59-0.59,0.0,67.0,,,,,,,[],,,,,,50.0,1.0,u,0.0,False,1738.2999999523163,105.0,61.0,40.0,False,,283.2193103719521,[],"[720, 450]",ColorTask,34.0,60.0,,,HRV,HRV_0294,2022-11-30 21:01:04
,wl-rdm,68,204617,0.0-6.60-0.60,0.0,68.0,,,,,,,[],,,,,,73.6,0.0,u,0.0,True,735.2000000476837,45.0,61.0,40.0,False,,300.838247544751,[],"[720, 450]",ColorTask,35.0,61.0,,,HRV,HRV_0294,2022-11-30 21:01:04
,wl-rdm,69,206917,0.0-6.61-0.61,0.0,69.0,,,,,,,[],,,,,,62.5,1.0,i,1.0,True,996.7000000476837,60.0,61.0,40.0,False,,247.23267435069843,[],"[720, 450]",ColorTask,36.0,62.0,,,HRV,HRV_0294,2022-11-30 21:01:04
,wl-rdm,70,209301,0.0-6.62-0.62,0.0,70.0,,,,,,,[],,,,,,50.0,0.0,i,1.0,False,1078.2000000476837,65.0,61.0,40.0,False,,231.2929141973338,[],"[720, 450]",ColorTask,35.0,63.0,,,HRV,HRV_0294,2022-11-30 21:01:04
,wl-rdm,71,212066,0.0-6.63-0.63,0.0,71.0,,,,,,,[],,,,,,56.4,0.0,i,1.0,False,1407.1000000238419,85.0,61.0,40.0,False,,294.8639684760368,[],"[720, 450]",ColorTask,34.0,64.0,,,HRV,HRV_0294,2022-11-30 21:01:04
,wl-rdm,72,214666,0.0-6.64-0.64,0.0,72.0,,,,,,,[],,,,,,53.2,1.0,i,1.0,True,1278.2999999523163,77.0,61.0,40.0,False,,256.6128331686988,[],"[720, 450]",ColorTask,35.0,65.0,,,HRV,HRV_0294,2022-11-30 21:01:04
,wl-rdm,73,216717,0.0-6.65-0.65,0.0,73.0,,,,,,,[],,,,,,50.0,1.0,i,1.0,True,771.5,47.0,61.0,40.0,False,,201.98693408777544,[],"[720, 450]",ColorTask,36.0,66.0,,,HRV,HRV_0294,2022-11-30 21:01:04
,wl-rdm,74,218817,0.0-6.66-0.66,0.0,74.0,,,,,,,[],,,,,,56.4,1.0,i,1.0,True,693.5000001192093,42.0,61.0,40.0,False,,347.0885196008235,[],"[720, 450]",ColorTask,37.0,67.0,,,HRV,HRV_0294,2022-11-30 21:01:04
,wl-rdm,75,220917,0.0-6.67-0.67,0.0,75.0,,,,,,,[],,,,,,56.4,0.0,i,1.0,False,778.7000000476837,47.0,61.0,40.0,False,,260.92751505071857,[],"[720, 450]",ColorTask,36.0,68.0,,,HRV,HRV_0294,2022-11-30 21:01:04
,wl-rdm,76,222950,0.0-6.68-0.68,0.0,76.0,,,,,,,[],,,,,,56.4,1.0,i,1.0,True,661.0,40.0,61.0,40.0,False,,290.721544551915,[],"[720, 450]",ColorTask,37.0,69.0,,,HRV,HRV_0294,2022-11-30 21:01:04
,wl-rdm,77,224850,0.0-6.69-0.69,0.0,77.0,,,,,,,[],,,,,,73.6,1.0,i,1.0,True,605.7999999523163,37.0,61.0,40.0,False,,201.03546664935809,[],"[720, 450]",ColorTask,38.0,70.0,,,HRV,HRV_0294,2022-11-30 21:01:04
,wl-rdm,78,227433,0.0-6.70-0.70,0.0,78.0,,,,,,,[],,,,,,53.2,0.0,u,0.0,True,1222.6000000238419,74.0,61.0,40.0,False,,298.9856448540681,[],"[720, 450]",ColorTask,39.0,71.0,,,HRV,HRV_0294,2022-11-30 21:01:04
,wl-rdm,79,229400,0.0-6.71-0.71,0.0,79.0,,,,,,,[],,,,,,73.6,0.0,u,0.0,True,673.2999999523163,41.0,61.0,40.0,False,,201.49208278592943,[],"[720, 450]",ColorTask,40.0,72.0,,,HRV,HRV_0294,2022-11-30 21:01:04
,wl-rdm,80,232633,0.0-6.72-0.72,0.0,80.0,,,,,,,[],,,,,,53.2,0.0,u,0.0,True,1846.8999999761581,111.0,61.0,40.0,False,,312.16713187315185,[],"[720, 450]",ColorTask,41.0,73.0,,,HRV,HRV_0294,2022-11-30 21:01:04
,wl-rdm,81,235066,0.0-6.73-0.73,0.0,81.0,,,,,,,[],,,,,,56.4,0.0,u,0.0,True,1037.6999999284744,63.0,61.0,40.0,False,,316.8887040978319,[],"[720, 450]",ColorTask,42.0,74.0,,,HRV,HRV_0294,2022-11-30 21:01:04
,wl-rdm,82,237483,0.0-6.74-0.74,0.0,82.0,,,,,,,[],,,,,,50.0,1.0,i,1.0,True,975.5,59.0,61.0,40.0,False,,352.7598871289167,[],"[720, 450]",ColorTask,43.0,75.0,,,HRV,HRV_0294,2022-11-30 21:01:04
,wl-rdm,83,240200,0.0-6.75-0.75,0.0,83.0,,,,,,,[],,,,,,62.5,1.0,i,1.0,True,1240.7000000476837,75.0,61.0,40.0,False,,386.157374984141,[],"[720, 450]",ColorTask,44.0,76.0,,,HRV,HRV_0294,2022-11-30 21:01:04
,wl-rdm,84,242283,0.0-6.76-0.76,0.0,84.0,,,,,,,[],,,,,,62.5,1.0,i,1.0,True,715.0999999046326,43.0,61.0,40.0,False,,295.6963158355144,[],"[720, 450]",ColorTask,45.0,77.0,,,HRV,HRV_0294,2022-11-30 21:01:04
,wl-rdm,85,243350,0.0-6.77-0.77,0.0,84.0,,,,,,,[],,,,,,73.6,0.0,i,,,26.600000023841858,0.0,61.0,40.0,True,too_early ,264.7077858736468,[],"[720, 450]",ColorTask,44.0,78.0,,,HRV,HRV_0294,2022-11-30 21:01:04
,wl-rdm,86,245649,0.0-6.78-0.78,0.0,85.0,,,,,,,[],,,,,,62.5,0.0,u,0.0,True,928.7999999523163,56.0,61.0,40.0,False,,300.5623335483358,[],"[720, 450]",ColorTask,45.0,79.0,,,HRV,HRV_0294,2022-11-30 21:01:04
,wl-rdm,87,247700,0.0-6.79-0.79,0.0,86.0,,,,,,,[],,,,,,87.9,0.0,u,0.0,True,676.7999999523163,41.0,61.0,40.0,False,,309.76709705082413,[],"[720, 450]",ColorTask,46.0,80.0,,,HRV,HRV_0294,2022-11-30 21:01:04
,wl-rdm,88,249866,0.0-6.80-0.80,0.0,87.0,,,,,,,[],,,,,,73.6,1.0,i,1.0,True,748.0,45.0,61.0,40.0,False,,353.7130565232475,[],"[720, 450]",ColorTask,47.0,81.0,,,HRV,HRV_0294,2022-11-30 21:01:04
,wl-rdm,89,252950,0.0-6.81-0.81,0.0,88.0,,,,,,,[],,,,,,50.0,0.0,u,0.0,True,1655.6000000238419,100.0,61.0,40.0,False,,360.8773452081299,[],"[720, 450]",ColorTask,48.0,82.0,,,HRV,HRV_0294,2022-11-30 21:01:04
,wl-rdm,90,254883,0.0-6.82-0.82,0.0,89.0,,,,,,,[],,,,,,62.5,1.0,i,1.0,True,595.3000000715256,36.0,61.0,40.0,False,,273.86049291982073,[],"[720, 450]",ColorTask,49.0,83.0,,,HRV,HRV_0294,2022-11-30 21:01:04
,wl-rdm,91,256917,0.0-6.83-0.83,0.0,90.0,,,,,,,[],,,,,,87.9,0.0,u,0.0,True,607.6000000238419,37.0,61.0,40.0,False,,352.3188279879616,[],"[720, 450]",ColorTask,50.0,84.0,,,HRV,HRV_0294,2022-11-30 21:01:04
,wl-rdm,92,259151,0.0-6.84-0.84,0.0,91.0,,,,,,,[],,,,,,56.4,1.0,i,1.0,True,921.7000000476837,56.0,61.0,40.0,False,,235.52480749882045,[],"[720, 450]",ColorTask,51.0,85.0,,,HRV,HRV_0294,2022-11-30 21:01:04
,wl-rdm,93,261099,0.0-6.85-0.85,0.0,92.0,,,,,,,[],,,,,,56.4,1.0,i,1.0,True,660.7000000476837,40.0,61.0,40.0,False,,231.4841505033393,[],"[720, 450]",ColorTask,52.0,86.0,,,HRV,HRV_0294,2022-11-30 21:01:04
,wl-rdm,94,263151,0.0-6.86-0.86,0.0,93.0,,,,,,,[],,,,,,87.9,0.0,u,0.0,True,615.3000000715256,37.0,61.0,40.0,False,,372.6718496524925,[],"[720, 450]",ColorTask,53.0,87.0,,,HRV,HRV_0294,2022-11-30 21:01:04
,wl-rdm,95,265684,0.0-6.87-0.87,0.0,94.0,,,,,,,[],,,,,,53.2,0.0,u,0.0,True,1104.4000000953674,67.0,61.0,40.0,False,,354.65275544367097,[],"[720, 450]",ColorTask,54.0,88.0,,,HRV,HRV_0294,2022-11-30 21:01:04
,wl-rdm,96,267534,0.0-6.88-0.88,0.0,95.0,,,,,,,[],,,,,,87.9,0.0,u,0.0,True,538.3000000715256,33.0,61.0,40.0,False,,238.92273910695957,[],"[720, 450]",ColorTask,55.0,89.0,,,HRV,HRV_0294,2022-11-30 21:01:04
,wl-rdm,97,269483,0.0-6.89-0.89,0.0,96.0,,,,,,,[],,,,,,62.5,1.0,i,1.0,True,590.6999999284744,36.0,61.0,40.0,False,,273.14730021088536,[],"[720, 450]",ColorTask,56.0,90.0,,,HRV,HRV_0294,2022-11-30 21:01:04
,wl-rdm,98,271583,0.0-6.90-0.90,0.0,97.0,,,,,,,[],,,,,,50.0,0.0,i,1.0,False,772.9000000953674,47.0,61.0,40.0,False,,234.572963661031,[],"[720, 450]",ColorTask,55.0,91.0,,,HRV,HRV_0294,2022-11-30 21:01:04
,wl-rdm,99,273567,0.0-6.91-0.91,0.0,98.0,,,,,,,[],,,,,,73.6,1.0,i,1.0,True,689.2000000476837,42.0,61.0,40.0,False,,225.72951595411087,[],"[720, 450]",ColorTask,56.0,92.0,,,HRV,HRV_0294,2022-11-30 21:01:04
,wl-rdm,100,275633,0.0-6.92-0.92,0.0,99.0,,,,,,,[],,,,,,53.2,0.0,u,0.0,True,788.2000000476837,48.0,61.0,40.0,False,,208.69585839837941,[],"[720, 450]",ColorTask,57.0,93.0,,,HRV,HRV_0294,2022-11-30 21:01:04
,wl-rdm,101,278267,0.0-6.93-0.93,0.0,100.0,,,,,,,[],,,,,,53.2,1.0,u,0.0,False,1238.8000000715256,75.0,61.0,40.0,False,,327.7180565210598,[],"[720, 450]",ColorTask,56.0,94.0,,,HRV,HRV_0294,2022-11-30 21:01:04
,wl-rdm,102,280150,0.0-6.94-0.94,0.0,101.0,,,,,,,[],,,,,,87.9,0.0,u,0.0,True,528.7999999523163,32.0,61.0,40.0,False,,272.2528418896566,[],"[720, 450]",ColorTask,57.0,95.0,,,HRV,HRV_0294,2022-11-30 21:01:04
,wl-rdm,103,282134,0.0-6.95-0.95,0.0,102.0,,,,,,,[],,,,,,87.9,1.0,i,1.0,True,546.7999999523163,33.0,61.0,40.0,False,,380.79239098498635,[],"[720, 450]",ColorTask,58.0,96.0,,,HRV,HRV_0294,2022-11-30 21:01:04
,wl-rdm,104,283967,0.0-6.96-0.96,0.0,103.0,,,,,,,[],,,,,,87.9,1.0,i,1.0,True,511.40000009536743,31.0,61.0,40.0,False,,245.6835498485565,[],"[720, 450]",ColorTask,59.0,97.0,,,HRV,HRV_0294,2022-11-30 21:01:04
,wl-rdm,105,285983,0.0-6.97-0.97,0.0,104.0,,,,,,,[],,,,,,73.6,0.0,u,0.0,True,649.4000000953674,39.0,61.0,40.0,False,,307.778453956926,[],"[720, 450]",ColorTask,60.0,98.0,,,HRV,HRV_0294,2022-11-30 21:01:04
,wl-rdm,106,287967,0.0-6.98-0.98,0.0,105.0,,,,,,,[],,,,,,73.6,0.0,u,0.0,True,623.7000000476837,38.0,61.0,40.0,False,,282.63662949235004,[],"[720, 450]",ColorTask,61.0,99.0,,,HRV,HRV_0294,2022-11-30 21:01:04
,wl-rdm,107,289701,0.0-6.99-0.99,0.0,106.0,,,,,,,[],,,,,,56.4,0.0,u,0.0,True,458.0,28.0,61.0,40.0,False,,207.45040493561203,[],"[720, 450]",ColorTask,62.0,100.0,,,HRV,HRV_0294,2022-11-30 21:01:04
,wl-rdm,108,292550,0.0-6.100-0.100,0.0,107.0,,,,,,,[],,,,,,53.2,0.0,u,0.0,True,1472.0,89.0,61.0,40.0,False,,307.19581600971105,[],"[720, 450]",ColorTask,63.0,101.0,,,HRV,HRV_0294,2022-11-30 21:01:04
,wl-rdm,109,294766,0.0-6.101-0.101,0.0,108.0,,,,,,,[],,,,,,53.2,0.0,u,0.0,True,820.7000000476837,50.0,61.0,40.0,False,,308.55880464357796,[],"[720, 450]",ColorTask,64.0,102.0,,,HRV,HRV_0294,2022-11-30 21:01:04
,wl-rdm,110,296583,0.0-6.102-0.102,0.0,109.0,,,,,,,[],,,,,,73.6,0.0,u,0.0,True,550.5,33.0,61.0,40.0,False,,208.88590362383783,[],"[720, 450]",ColorTask,65.0,103.0,,,HRV,HRV_0294,2022-11-30 21:01:04
,wl-rdm,111,298633,0.0-6.103-0.103,0.0,110.0,,,,,,,[],,,,,,50.0,0.0,u,0.0,True,754.1000000238419,46.0,61.0,40.0,False,,224.4372187518634,[],"[720, 450]",ColorTask,66.0,104.0,,,HRV,HRV_0294,2022-11-30 21:01:04
,wl-rdm,112,308434,0.0-6.104-0.104,0.0,110.0,,,,,,,[],,,,,,73.6,0.0,,,,,110.0,61.0,40.0,True,RT_timeout blurEvent ,238.47426118543316,[],"[720, 450]",ColorTask,65.0,105.0,,,HRV,HRV_0294,2022-11-30 21:01:04
,wl-rdm,113,311200,0.0-6.105-0.105,0.0,111.0,,,,,,,[],,,,,,53.2,1.0,i,1.0,True,1495.0,90.0,61.0,40.0,False,,207.2453921801441,[],"[720, 450]",ColorTask,66.0,106.0,,,HRV,HRV_0294,2022-11-30 21:01:04
,wl-rdm,114,313367,0.0-6.106-0.106,0.0,112.0,,,,,,,[],,,,,,73.6,0.0,u,0.0,True,715.6000000238419,43.0,61.0,40.0,False,,377.9903409497301,[],"[720, 450]",ColorTask,67.0,107.0,,,HRV,HRV_0294,2022-11-30 21:01:04
,wl-rdm,115,315684,0.0-6.107-0.107,0.0,113.0,,,,,,,[],,,,,,62.5,0.0,u,0.0,True,890.2999999523163,54.0,61.0,40.0,False,,334.3930231820693,[],"[720, 450]",ColorTask,68.0,108.0,,,HRV,HRV_0294,2022-11-30 21:01:04
,wl-rdm,116,317550,0.0-6.108-0.108,0.0,114.0,,,,,,,[],,,,,,62.5,0.0,u,0.0,True,539.1999999284744,33.0,61.0,40.0,False,,257.5629356183007,[],"[720, 450]",ColorTask,69.0,109.0,,,HRV,HRV_0294,2022-11-30 21:01:04
,wl-rdm,117,319683,0.0-6.109-0.109,0.0,115.0,,,,,,,[],,,,,,73.6,1.0,i,1.0,True,690.8000000715256,42.0,61.0,40.0,False,,351.1615930583236,[],"[720, 450]",ColorTask,70.0,110.0,,,HRV,HRV_0294,2022-11-30 21:01:04
,wl-rdm,118,321934,0.0-6.110-0.110,0.0,116.0,,,,,,,[],,,,,,56.4,1.0,i,1.0,True,957.6000000238419,58.0,61.0,40.0,False,,218.54757527062645,[],"[720, 450]",ColorTask,71.0,111.0,,,HRV,HRV_0294,2022-11-30 21:01:04
,wl-html-keyboard-response,119,383808,0.0-7.0-0.0,1.0,117.0,,,,,,,,59869.89999997616,1.0,0,,,,,,,,,,,,,,,,,,,,,,HRV,HRV_0294,2022-11-30 21:01:04
,wl-rdm,120,385983,0.0-8.0-0.0,1.0,118.0,,,,,,,[],,,,,,50.0,0.0,i,1.0,False,908.5,55.0,61.0,40.0,False,,206.00843708785982,[],"[720, 450]",ColorTask,70.0,1.0,,,HRV,HRV_0294,2022-11-30 21:01:04
,wl-rdm,121,388450,0.0-8.1-0.1,1.0,119.0,,,,,,,[],,,,,,73.6,0.0,u,0.0,True,1046.5999999046326,63.0,61.0,40.0,False,,359.67269178298557,[],"[720, 450]",ColorTask,71.0,2.0,,,HRV,HRV_0294,2022-11-30 21:01:04
,wl-rdm,122,390699,0.0-8.2-0.2,1.0,120.0,,,,,,,[],,,,,,62.5,0.0,u,0.0,True,810.5999999046326,49.0,61.0,40.0,False,,376.69621029184134,[],"[720, 450]",ColorTask,72.0,3.0,,,HRV,HRV_0294,2022-11-30 21:01:04
,wl-rdm,123,393500,0.0-8.3-0.3,1.0,121.0,,,,,,,[],,,,,,56.4,1.0,i,1.0,True,1459.2999999523163,88.0,61.0,40.0,False,,261.78824140708605,[],"[720, 450]",ColorTask,73.0,4.0,,,HRV,HRV_0294,2022-11-30 21:01:04
,wl-rdm,124,395966,0.0-8.4-0.4,1.0,122.0,,,,,,,[],,,,,,62.5,1.0,i,1.0,True,1076.5999999046326,65.0,61.0,40.0,False,,332.490102712639,[],"[720, 450]",ColorTask,74.0,5.0,,,HRV,HRV_0294,2022-11-30 21:01:04
,wl-rdm,125,398166,0.0-8.5-0.5,1.0,123.0,,,,,,,[],,,,,,73.6,1.0,i,1.0,True,730.9000000953674,44.0,61.0,40.0,False,,395.44859229069,[],"[720, 450]",ColorTask,75.0,6.0,,,HRV,HRV_0294,2022-11-30 21:01:04
,wl-rdm,126,400433,0.0-8.6-0.6,1.0,124.0,,,,,,,[],,,,,,53.2,0.0,i,1.0,False,988.4000000953674,60.0,61.0,40.0,False,,209.52883718388324,[],"[720, 450]",ColorTask,74.0,7.0,,,HRV,HRV_0294,2022-11-30 21:01:04
,wl-rdm,127,402500,0.0-8.7-0.7,1.0,125.0,,,,,,,[],,,,,,73.6,1.0,i,1.0,True,790.3000000715256,48.0,61.0,40.0,False,,200.93156552015645,[],"[720, 450]",ColorTask,75.0,8.0,,,HRV,HRV_0294,2022-11-30 21:01:04
,wl-rdm,128,405483,0.0-8.8-0.8,1.0,126.0,,,,,,,[],,,,,,53.2,0.0,u,0.0,True,1666.3000000715256,100.0,61.0,40.0,False,,235.50698218634506,[],"[720, 450]",ColorTask,76.0,9.0,,,HRV,HRV_0294,2022-11-30 21:01:04
,wl-rdm,129,407751,0.0-8.9-0.9,1.0,127.0,,,,,,,[],,,,,,53.2,0.0,u,0.0,True,900.0000001192093,54.0,61.0,40.0,False,,297.33814152492994,[],"[720, 450]",ColorTask,77.0,10.0,,,HRV,HRV_0294,2022-11-30 21:01:04
,wl-rdm,130,409850,0.0-8.10-0.10,1.0,128.0,,,,,,,[],,,,,,56.4,0.0,u,0.0,True,806.8999998569489,49.0,61.0,40.0,False,,221.1582272218566,[],"[720, 450]",ColorTask,78.0,11.0,,,HRV,HRV_0294,2022-11-30 21:01:04
,wl-rdm,131,412483,0.0-8.11-0.11,1.0,129.0,,,,,,,[],,,,,,56.4,1.0,u,0.0,False,1339.6000000238419,81.0,61.0,40.0,False,,225.90855895271548,[],"[720, 450]",ColorTask,77.0,12.0,,,HRV,HRV_0294,2022-11-30 21:01:04
,wl-rdm,132,415184,0.0-8.12-0.12,1.0,130.0,,,,,,,[],,,,,,53.2,0.0,u,0.0,True,1273.0,77.0,61.0,40.0,False,,355.862935459247,[],"[720, 450]",ColorTask,78.0,13.0,,,HRV,HRV_0294,2022-11-30 21:01:04
,wl-rdm,133,417900,0.0-8.13-0.13,1.0,131.0,,,,,,,[],,,,,,53.2,1.0,i,1.0,True,1333.1000000238419,80.0,61.0,40.0,False,,310.0790295374111,[],"[720, 450]",ColorTask,79.0,14.0,,,HRV,HRV_0294,2022-11-30 21:01:04
,wl-rdm,134,419899,0.0-8.14-0.14,1.0,132.0,,,,,,,[],,,,,,73.6,1.0,i,1.0,True,590.6000000238419,36.0,61.0,40.0,False,,347.5272525887465,[],"[720, 450]",ColorTask,80.0,15.0,,,HRV,HRV_0294,2022-11-30 21:01:04
,wl-rdm,135,422017,0.0-8.15-0.15,1.0,133.0,,,,,,,[],,,,,,56.4,1.0,i,1.0,True,839.5,51.0,61.0,40.0,False,,211.98633328479258,[],"[720, 450]",ColorTask,81.0,16.0,,,HRV,HRV_0294,2022-11-30 21:01:04
,wl-rdm,136,424001,0.0-8.16-0.16,1.0,134.0,,,,,,,[],,,,,,56.4,0.0,i,1.0,False,612.0999999046326,37.0,61.0,40.0,False,,286.38601747928794,[],"[720, 450]",ColorTask,80.0,17.0,,,HRV,HRV_0294,2022-11-30 21:01:04
,wl-rdm,137,426433,0.0-8.17-0.17,1.0,135.0,,,,,,,[],,,,,,50.0,1.0,u,0.0,False,979.7999999523163,59.0,61.0,40.0,False,,394.2984873963586,[],"[720, 450]",ColorTask,79.0,18.0,,,HRV,HRV_0294,2022-11-30 21:01:04
,wl-rdm,138,428733,0.0-8.18-0.18,1.0,136.0,,,,,,,[],,,,,,53.2,1.0,u,0.0,False,859.3000000715256,52.0,61.0,40.0,False,,373.249367991997,[],"[720, 450]",ColorTask,78.0,19.0,,,HRV,HRV_0294,2022-11-30 21:01:04
,wl-rdm,139,430799,0.0-8.19-0.19,1.0,137.0,,,,,,,[],,,,,,73.6,1.0,i,1.0,True,763.9999998807907,46.0,61.0,40.0,False,,229.9155047127774,[],"[720, 450]",ColorTask,79.0,20.0,,,HRV,HRV_0294,2022-11-30 21:01:04
,wl-rdm,140,432900,0.0-8.20-0.20,1.0,138.0,,,,,,,[],,,,,,73.6,1.0,i,1.0,True,687.7999999523163,42.0,61.0,40.0,False,,335.0630759726068,[],"[720, 450]",ColorTask,80.0,21.0,,,HRV,HRV_0294,2022-11-30 21:01:04
,wl-rdm,141,434816,0.0-8.21-0.21,1.0,139.0,,,,,,,[],,,,,,87.9,1.0,i,1.0,True,521.3999998569489,32.0,61.0,40.0,False,,308.57622953444945,[],"[720, 450]",ColorTask,81.0,22.0,,,HRV,HRV_0294,2022-11-30 21:01:04
,wl-rdm,142,436850,0.0-8.22-0.22,1.0,140.0,,,,,,,[],,,,,,62.5,0.0,u,0.0,True,742.5,45.0,61.0,40.0,False,,219.13733018987128,[],"[720, 450]",ColorTask,82.0,23.0,,,HRV,HRV_0294,2022-11-30 21:01:04
,wl-rdm,143,438933,0.0-8.23-0.23,1.0,141.0,,,,,,,[],,,,,,53.2,1.0,u,0.0,False,791.1999999284744,48.0,61.0,40.0,False,,203.48848147774925,[],"[720, 450]",ColorTask,81.0,24.0,,,HRV,HRV_0294,2022-11-30 21:01:04
,wl-rdm,144,441100,0.0-8.24-0.24,1.0,142.0,,,,,,,[],,,,,,53.2,0.0,u,0.0,True,713.3999998569489,43.0,61.0,40.0,False,,397.8084409346912,[],"[720, 450]",ColorTask,82.0,25.0,,,HRV,HRV_0294,2022-11-30 21:01:04
,wl-rdm,145,443383,0.0-8.25-0.25,1.0,143.0,,,,,,,[],,,,,,50.0,1.0,u,0.0,False,957.0,58.0,61.0,40.0,False,,235.11051619779977,[],"[720, 450]",ColorTask,81.0,26.0,,,HRV,HRV_0294,2022-11-30 21:01:04
,wl-rdm,146,445567,0.0-8.26-0.26,1.0,144.0,,,,,,,[],,,,,,73.6,0.0,u,0.0,True,758.2000000476837,46.0,61.0,40.0,False,,356.4490965694979,[],"[720, 450]",ColorTask,82.0,27.0,,,HRV,HRV_0294,2022-11-30 21:01:04
,wl-rdm,147,447567,0.0-8.27-0.27,1.0,145.0,,,,,,,[],,,,,,87.9,0.0,u,0.0,True,573.8999999761581,35.0,61.0,40.0,False,,345.15782860907643,[],"[720, 450]",ColorTask,83.0,28.0,,,HRV,HRV_0294,2022-11-30 21:01:04
,wl-rdm,148,449967,0.0-8.28-0.28,1.0,146.0,,,,,,,[],,,,,,50.0,0.0,u,0.0,True,972.2999999523163,59.0,61.0,40.0,False,,341.0675183673833,[],"[720, 450]",ColorTask,84.0,29.0,,,HRV,HRV_0294,2022-11-30 21:01:04
,wl-rdm,149,452033,0.0-8.29-0.29,1.0,147.0,,,,,,,[],,,,,,53.2,0.0,u,0.0,True,756.2000000476837,46.0,61.0,40.0,False,,238.01827501939314,[],"[720, 450]",ColorTask,85.0,30.0,,,HRV,HRV_0294,2022-11-30 21:01:04
,wl-rdm,150,453917,0.0-8.30-0.30,1.0,148.0,,,,,,,[],,,,,,87.9,0.0,u,0.0,True,510.60000002384186,31.0,61.0,40.0,False,,313.5401572063294,[],"[720, 450]",ColorTask,86.0,31.0,,,HRV,HRV_0294,2022-11-30 21:01:04
,wl-rdm,151,455833,0.0-8.31-0.31,1.0,149.0,,,,,,,[],,,,,,87.9,0.0,u,0.0,True,473.2000000476837,29.0,61.0,40.0,False,,364.1351780665246,[],"[720, 450]",ColorTask,87.0,32.0,,,HRV,HRV_0294,2022-11-30 21:01:04
,wl-rdm,152,457767,0.0-8.32-0.32,1.0,150.0,,,,,,,[],,,,,,87.9,0.0,u,0.0,True,583.3000000715256,35.0,61.0,40.0,False,,279.82151461638443,[],"[720, 450]",ColorTask,88.0,33.0,,,HRV,HRV_0294,2022-11-30 21:01:04
,wl-rdm,153,459883,0.0-8.33-0.33,1.0,151.0,,,,,,,[],,,,,,56.4,0.0,u,0.0,True,761.7000000476837,46.0,61.0,40.0,False,,277.6738115838296,[],"[720, 450]",ColorTask,89.0,34.0,,,HRV,HRV_0294,2022-11-30 21:01:04
,wl-rdm,154,461816,0.0-8.34-0.34,1.0,152.0,,,,,,,[],,,,,,87.9,0.0,u,0.0,True,633.1999999284744,38.0,61.0,40.0,False,,228.64411992995312,[],"[720, 450]",ColorTask,90.0,35.0,,,HRV,HRV_0294,2022-11-30 21:01:04
,wl-rdm,155,464100,0.0-8.35-0.35,1.0,153.0,,,,,,,[],,,,,,53.2,0.0,u,0.0,True,924.3000000715256,56.0,61.0,40.0,False,,291.9468954741641,[],"[720, 450]",ColorTask,91.0,36.0,,,HRV,HRV_0294,2022-11-30 21:01:04
,wl-rdm,156,466950,0.0-8.36-0.36,1.0,154.0,,,,,,,[],,,,,,62.5,1.0,i,1.0,True,1557.3000000715256,94.0,61.0,40.0,False,,211.6491273050453,[],"[720, 450]",ColorTask,92.0,37.0,,,HRV,HRV_0294,2022-11-30 21:01:04
,wl-rdm,157,469084,0.0-8.37-0.37,1.0,155.0,,,,,,,[],,,,,,56.4,0.0,i,1.0,False,821.5999999046326,50.0,61.0,40.0,False,,247.64959817133715,[],"[720, 450]",ColorTask,91.0,38.0,,,HRV,HRV_0294,2022-11-30 21:01:04
,wl-rdm,158,471100,0.0-8.38-0.38,1.0,156.0,,,,,,,[],,,,,,73.6,0.0,u,0.0,True,715.5,43.0,61.0,40.0,False,,238.5265967699592,[],"[720, 450]",ColorTask,92.0,39.0,,,HRV,HRV_0294,2022-11-30 21:01:04
,wl-rdm,159,473300,0.0-8.39-0.39,1.0,157.0,,,,,,,[],,,,,,73.6,1.0,i,1.0,True,758.3999999761581,46.0,61.0,40.0,False,,359.11706408316405,[],"[720, 450]",ColorTask,93.0,40.0,,,HRV,HRV_0294,2022-11-30 21:01:04
,wl-rdm,160,475383,0.0-8.40-0.40,1.0,158.0,,,,,,,[],,,,,,87.9,0.0,u,0.0,True,739.5,45.0,61.0,40.0,False,,258.7024213692714,[],"[720, 450]",ColorTask,94.0,41.0,,,HRV,HRV_0294,2022-11-30 21:01:04
,wl-rdm,161,477383,0.0-8.41-0.41,1.0,159.0,,,,,,,[],,,,,,56.4,0.0,u,0.0,True,588.5,36.0,61.0,40.0,False,,316.8476135420341,[],"[720, 450]",ColorTask,95.0,42.0,,,HRV,HRV_0294,2022-11-30 21:01:04
,wl-rdm,162,479350,0.0-8.42-0.42,1.0,160.0,,,,,,,[],,,,,,73.6,0.0,u,0.0,True,574.1999999284744,35.0,61.0,40.0,False,,316.1237875632246,[],"[720, 450]",ColorTask,96.0,43.0,,,HRV,HRV_0294,2022-11-30 21:01:04
,wl-rdm,163,481733,0.0-8.43-0.43,1.0,161.0,,,,,,,[],,,,,,73.6,1.0,i,1.0,True,1033.7999999523163,62.0,61.0,40.0,False,,269.43804360998615,[],"[720, 450]",ColorTask,97.0,44.0,,,HRV,HRV_0294,2022-11-30 21:01:04
,wl-rdm,164,483684,0.0-8.44-0.44,1.0,162.0,,,,,,,[],,,,,,87.9,0.0,u,0.0,True,652.0,40.0,61.0,40.0,False,,203.952689238098,[],"[720, 450]",ColorTask,98.0,45.0,,,HRV,HRV_0294,2022-11-30 21:01:04
,wl-rdm,165,485899,0.0-8.45-0.45,1.0,163.0,,,,,,,[],,,,,,62.5,1.0,i,1.0,True,888.5,54.0,61.0,40.0,False,,264.77583324473443,[],"[720, 450]",ColorTask,99.0,46.0,,,HRV,HRV_0294,2022-11-30 21:01:04
,wl-rdm,166,488616,0.0-8.46-0.46,1.0,164.0,,,,,,,[],,,,,,62.5,0.0,u,0.0,True,1339.3999999761581,81.0,61.0,40.0,False,,299.9975638345329,[],"[720, 450]",ColorTask,100.0,47.0,,,HRV,HRV_0294,2022-11-30 21:01:04
,wl-rdm,167,490666,0.0-8.47-0.47,1.0,165.0,,,,,,,[],,,,,,73.6,1.0,i,1.0,True,612.7000000476837,37.0,61.0,40.0,False,,354.8736571530203,[],"[720, 450]",ColorTask,101.0,48.0,,,HRV,HRV_0294,2022-11-30 21:01:04
,wl-rdm,168,492533,0.0-8.48-0.48,1.0,166.0,,,,,,,[],,,,,,62.5,1.0,i,1.0,True,541.5,33.0,61.0,40.0,False,,262.83995706362634,[],"[720, 450]",ColorTask,102.0,49.0,,,HRV,HRV_0294,2022-11-30 21:01:04
,wl-rdm,169,494882,0.0-8.49-0.49,1.0,167.0,,,,,,,[],,,,,,50.0,0.0,u,0.0,True,1047.7000000476837,63.0,61.0,40.0,False,,236.81089393488537,[],"[720, 450]",ColorTask,103.0,50.0,,,HRV,HRV_0294,2022-11-30 21:01:04
,wl-rdm,170,496749,0.0-8.50-0.50,1.0,168.0,,,,,,,[],,,,,,73.6,0.0,u,0.0,True,481.3000000715256,29.0,61.0,40.0,False,,317.0378682982203,[],"[720, 450]",ColorTask,104.0,51.0,,,HRV,HRV_0294,2022-11-30 21:01:04
,wl-rdm,171,498800,0.0-8.51-0.51,1.0,169.0,,,,,,,[],,,,,,73.6,1.0,i,1.0,True,745.3999999761581,45.0,61.0,40.0,False,,223.2778233047087,[],"[720, 450]",ColorTask,105.0,52.0,,,HRV,HRV_0294,2022-11-30 21:01:04
,wl-rdm,172,501017,0.0-8.52-0.52,1.0,170.0,,,,,,,[],,,,,,73.6,0.0,u,0.0,True,756.7000000476837,46.0,61.0,40.0,False,,383.8171671239928,[],"[720, 450]",ColorTask,106.0,53.0,,,HRV,HRV_0294,2022-11-30 21:01:04
,wl-rdm,173,503601,0.0-8.53-0.53,1.0,171.0,,,,,,,[],,,,,,62.5,1.0,i,1.0,True,1182.3000000715256,71.0,61.0,40.0,False,,328.5013223333139,[],"[720, 450]",ColorTask,107.0,54.0,,,HRV,HRV_0294,2022-11-30 21:01:04
,wl-rdm,174,505884,0.0-8.54-0.54,1.0,172.0,,,,,,,[],,,,,,53.2,1.0,i,1.0,True,992.8999999761581,60.0,61.0,40.0,False,,228.7542998299529,[],"[720, 450]",ColorTask,108.0,55.0,,,HRV,HRV_0294,2022-11-30 21:01:04
,wl-rdm,175,507983,0.0-8.55-0.55,1.0,173.0,,,,,,,[],,,,,,50.0,0.0,u,0.0,True,690.2000000476837,42.0,61.0,40.0,False,,327.1657315754847,[],"[720, 450]",ColorTask,109.0,56.0,,,HRV,HRV_0294,2022-11-30 21:01:04
,wl-rdm,176,510484,0.0-8.56-0.56,1.0,174.0,,,,,,,[],,,,,,56.4,1.0,i,1.0,True,1171.8000000715256,71.0,61.0,40.0,False,,259.1415594433642,[],"[720, 450]",ColorTask,110.0,57.0,,,HRV,HRV_0294,2022-11-30 21:01:04
,wl-rdm,177,512600,0.0-8.57-0.57,1.0,175.0,,,,,,,[],,,,,,87.9,1.0,i,1.0,True,707.3999999761581,43.0,61.0,40.0,False,,334.8925906505364,[],"[720, 450]",ColorTask,111.0,58.0,,,HRV,HRV_0294,2022-11-30 21:01:04
,wl-rdm,178,514617,0.0-8.58-0.58,1.0,176.0,,,,,,,[],,,,,,87.9,1.0,i,1.0,True,607.299999833107,37.0,61.0,40.0,False,,316.86491697236,[],"[720, 450]",ColorTask,112.0,59.0,,,HRV,HRV_0294,2022-11-30 21:01:04
,wl-rdm,179,517167,0.0-8.59-0.59,1.0,177.0,,,,,,,[],,,,,,56.4,0.0,u,0.0,True,1141.2999999523163,69.0,61.0,40.0,False,,317.02407913765506,[],"[720, 450]",ColorTask,113.0,60.0,,,HRV,HRV_0294,2022-11-30 21:01:04
,wl-rdm,180,519350,0.0-8.60-0.60,1.0,178.0,,,,,,,[],,,,,,50.0,1.0,u,0.0,False,867.2999999523163,52.0,61.0,40.0,False,,264.14624435617225,[],"[720, 450]",ColorTask,112.0,61.0,,,HRV,HRV_0294,2022-11-30 21:01:04
,wl-rdm,181,521816,0.0-8.61-0.61,1.0,179.0,,,,,,,[],,,,,,50.0,0.0,i,1.0,False,1037.3000000715256,63.0,61.0,40.0,False,,360.0417614665937,[],"[720, 450]",ColorTask,111.0,62.0,,,HRV,HRV_0294,2022-11-30 21:01:04
,wl-rdm,182,523700,0.0-8.62-0.62,1.0,180.0,,,,,,,[],,,,,,87.9,1.0,i,1.0,True,561.3000000715256,34.0,61.0,40.0,False,,242.5574095444276,[],"[720, 450]",ColorTask,112.0,63.0,,,HRV,HRV_0294,2022-11-30 21:01:04
,wl-rdm,183,525717,0.0-8.63-0.63,1.0,181.0,,,,,,,[],,,,,,87.9,0.0,u,0.0,True,604.9000000953674,37.0,61.0,40.0,False,,336.72272397540166,[],"[720, 450]",ColorTask,113.0,64.0,,,HRV,HRV_0294,2022-11-30 21:01:04
,wl-rdm,184,527667,0.0-8.64-0.64,1.0,182.0,,,,,,,[],,,,,,53.2,1.0,u,0.0,False,657.7000000476837,40.0,61.0,40.0,False,,208.0291006186829,[],"[720, 450]",ColorTask,112.0,65.0,,,HRV,HRV_0294,2022-11-30 21:01:04
,wl-rdm,185,529899,0.0-8.65-0.65,1.0,183.0,,,,,,,[],,,,,,50.0,0.0,u,0.0,True,873.6999999284744,53.0,61.0,40.0,False,,297.17270747927614,[],"[720, 450]",ColorTask,113.0,66.0,,,HRV,HRV_0294,2022-11-30 21:01:04
,wl-rdm,186,532034,0.0-8.66-0.66,1.0,184.0,,,,,,,[],,,,,,62.5,1.0,i,1.0,True,837.5999999046326,51.0,61.0,40.0,False,,207.10904166437044,[],"[720, 450]",ColorTask,114.0,67.0,,,HRV,HRV_0294,2022-11-30 21:01:04
,wl-rdm,187,534083,0.0-8.67-0.67,1.0,185.0,,,,,,,[],,,,,,73.6,0.0,u,0.0,True,729.6000000238419,44.0,61.0,40.0,False,,262.6198205388147,[],"[720, 450]",ColorTask,115.0,68.0,,,HRV,HRV_0294,2022-11-30 21:01:04
,wl-rdm,188,536283,0.0-8.68-0.68,1.0,186.0,,,,,,,[],,,,,,50.0,0.0,u,0.0,True,849.0,51.0,61.0,40.0,False,,278.53628160741096,[],"[720, 450]",ColorTask,116.0,69.0,,,HRV,HRV_0294,2022-11-30 21:01:04
,wl-rdm,189,538367,0.0-8.69-0.69,1.0,187.0,,,,,,,[],,,,,,56.4,1.0,u,0.0,False,723.1999998092651,44.0,61.0,40.0,False,,269.73062156137473,[],"[720, 450]",ColorTask,115.0,70.0,,,HRV,HRV_0294,2022-11-30 21:01:04
,wl-rdm,190,540450,0.0-8.70-0.70,1.0,188.0,,,,,,,[],,,,,,56.4,1.0,i,1.0,True,775.1999999284744,47.0,61.0,40.0,False,,240.8983278729279,[],"[720, 450]",ColorTask,116.0,71.0,,,HRV,HRV_0294,2022-11-30 21:01:04
,wl-rdm,191,542417,0.0-8.71-0.71,1.0,189.0,,,,,,,[],,,,,,87.9,1.0,i,1.0,True,688.5,42.0,61.0,40.0,False,,214.73982655584143,[],"[720, 450]",ColorTask,117.0,72.0,,,HRV,HRV_0294,2022-11-30 21:01:04
,wl-rdm,192,544316,0.0-8.72-0.72,1.0,190.0,,,,,,,[],,,,,,87.9,0.0,u,0.0,True,630.5,38.0,61.0,40.0,False,,208.59369925130315,[],"[720, 450]",ColorTask,118.0,73.0,,,HRV,HRV_0294,2022-11-30 21:01:04
,wl-rdm,193,546617,0.0-8.73-0.73,1.0,191.0,,,,,,,[],,,,,,50.0,1.0,u,0.0,False,908.3000000715256,55.0,61.0,40.0,False,,310.99961178441515,[],"[720, 450]",ColorTask,117.0,74.0,,,HRV,HRV_0294,2022-11-30 21:01:04
,wl-rdm,194,549268,0.0-8.74-0.74,1.0,192.0,,,,,,,[],,,,,,50.0,1.0,i,1.0,True,1273.2000000476837,77.0,61.0,40.0,False,,298.012878824695,[],"[720, 450]",ColorTask,118.0,75.0,,,HRV,HRV_0294,2022-11-30 21:01:04
,wl-rdm,195,551999,0.0-8.75-0.75,1.0,193.0,,,,,,,[],,,,,,53.2,1.0,u,0.0,False,1464.5999999046326,88.0,61.0,40.0,False,,208.89478950351105,[],"[720, 450]",ColorTask,117.0,76.0,,,HRV,HRV_0294,2022-11-30 21:01:04
,wl-rdm,196,554183,0.0-8.76-0.76,1.0,194.0,,,,,,,[],,,,,,62.5,0.0,u,0.0,True,729.8000000715256,44.0,61.0,40.0,False,,392.7714334444136,[],"[720, 450]",ColorTask,118.0,77.0,,,HRV,HRV_0294,2022-11-30 21:01:04
,wl-rdm,197,556383,0.0-8.77-0.77,1.0,195.0,,,,,,,[],,,,,,53.2,0.0,u,0.0,True,758.7000000476837,46.0,61.0,40.0,False,,355.8279637920323,[],"[720, 450]",ColorTask,119.0,78.0,,,HRV,HRV_0294,2022-11-30 21:01:04
,wl-rdm,198,558600,0.0-8.78-0.78,1.0,196.0,,,,,,,[],,,,,,62.5,1.0,i,1.0,True,774.1000000238419,47.0,61.0,40.0,False,,361.9047766722977,[],"[720, 450]",ColorTask,120.0,79.0,,,HRV,HRV_0294,2022-11-30 21:01:04
,wl-rdm,199,560500,0.0-8.79-0.79,1.0,197.0,,,,,,,[],,,,,,87.9,1.0,i,1.0,True,589.5,36.0,61.0,40.0,False,,235.78556127780334,[],"[720, 450]",ColorTask,121.0,80.0,,,HRV,HRV_0294,2022-11-30 21:01:04
,wl-rdm,200,562467,0.0-8.80-0.80,1.0,198.0,,,,,,,[],,,,,,56.4,0.0,u,0.0,True,658.7000000476837,40.0,61.0,40.0,False,,240.43930649754776,[],"[720, 450]",ColorTask,122.0,81.0,,,HRV,HRV_0294,2022-11-30 21:01:04
,wl-rdm,201,564799,0.0-8.81-0.81,1.0,199.0,,,,,,,[],,,,,,56.4,1.0,i,1.0,True,993.8000000715256,60.0,61.0,40.0,False,,261.0947738004125,[],"[720, 450]",ColorTask,123.0,82.0,,,HRV,HRV_0294,2022-11-30 21:01:04
,wl-rdm,202,566833,0.0-8.82-0.82,1.0,200.0,,,,,,,[],,,,,,50.0,1.0,i,1.0,True,637.7000000476837,39.0,61.0,40.0,False,,323.0933597149108,[],"[720, 450]",ColorTask,124.0,83.0,,,HRV,HRV_0294,2022-11-30 21:01:04
,wl-rdm,203,569166,0.0-8.83-0.83,1.0,201.0,,,,,,,[],,,,,,62.5,0.0,u,0.0,True,978.7999999523163,59.0,61.0,40.0,False,,271.482695736846,[],"[720, 450]",ColorTask,125.0,84.0,,,HRV,HRV_0294,2022-11-30 21:01:04
,wl-rdm,204,571101,0.0-8.84-0.84,1.0,202.0,,,,,,,[],,,,,,62.5,0.0,u,0.0,True,555.3000000715256,34.0,61.0,40.0,False,,295.0948928699021,[],"[720, 450]",ColorTask,126.0,85.0,,,HRV,HRV_0294,2022-11-30 21:01:04
,wl-rdm,205,573084,0.0-8.85-0.85,1.0,203.0,,,,,,,[],,,,,,62.5,0.0,u,0.0,True,589.8999999761581,36.0,61.0,40.0,False,,309.8692453244462,[],"[720, 450]",ColorTask,127.0,86.0,,,HRV,HRV_0294,2022-11-30 21:01:04
,wl-rdm,206,575150,0.0-8.86-0.86,1.0,204.0,,,,,,,[],,,,,,73.6,0.0,u,0.0,True,672.2999999523163,41.0,61.0,40.0,False,,309.78621281615875,[],"[720, 450]",ColorTask,128.0,87.0,,,HRV,HRV_0294,2022-11-30 21:01:04
,wl-rdm,207,577617,0.0-8.87-0.87,1.0,205.0,,,,,,,[],,,,,,53.2,1.0,i,1.0,True,987.6999999284744,60.0,61.0,40.0,False,,391.0784022521792,[],"[720, 450]",ColorTask,129.0,88.0,,,HRV,HRV_0294,2022-11-30 21:01:04
,wl-rdm,208,579699,0.0-8.88-0.88,1.0,206.0,,,,,,,[],,,,,,73.6,0.0,u,0.0,True,776.0,47.0,61.0,40.0,False,,240.12092699095774,[],"[720, 450]",ColorTask,130.0,89.0,,,HRV,HRV_0294,2022-11-30 21:01:04
,wl-rdm,209,581750,0.0-8.89-0.89,1.0,207.0,,,,,,,[],,,,,,56.4,0.0,u,0.0,True,590.6000000238419,36.0,61.0,40.0,False,,377.19411610731447,[],"[720, 450]",ColorTask,131.0,90.0,,,HRV,HRV_0294,2022-11-30 21:01:04
,wl-rdm,210,583983,0.0-8.90-0.90,1.0,208.0,,,,,,,[],,,,,,56.4,1.0,i,1.0,True,890.1000000238419,54.0,61.0,40.0,False,,254.6901527444748,[],"[720, 450]",ColorTask,132.0,91.0,,,HRV,HRV_0294,2022-11-30 21:01:04
,wl-rdm,211,586133,0.0-8.91-0.91,1.0,209.0,,,,,,,[],,,,,,56.4,0.0,u,0.0,True,690.0,42.0,61.0,40.0,False,,378.921378205098,[],"[720, 450]",ColorTask,133.0,92.0,,,HRV,HRV_0294,2022-11-30 21:01:04
,wl-rdm,212,588134,0.0-8.92-0.92,1.0,210.0,,,,,,,[],,,,,,62.5,0.0,u,0.0,True,589.1999999284744,36.0,61.0,40.0,False,,320.94029260063996,[],"[720, 450]",ColorTask,134.0,93.0,,,HRV,HRV_0294,2022-11-30 21:01:04
,wl-rdm,213,590633,0.0-8.93-0.93,1.0,211.0,,,,,,,[],,,,,,50.0,1.0,i,1.0,True,1224.2000000476837,74.0,61.0,40.0,False,,214.07116305696138,[],"[720, 450]",ColorTask,135.0,94.0,,,HRV,HRV_0294,2022-11-30 21:01:04
,wl-rdm,214,592650,0.0-8.94-0.94,1.0,212.0,,,,,,,[],,,,,,53.2,0.0,u,0.0,True,741.2000000476837,45.0,61.0,40.0,False,,210.56142670668459,[],"[720, 450]",ColorTask,136.0,95.0,,,HRV,HRV_0294,2022-11-30 21:01:04
,wl-rdm,215,594849,0.0-8.95-0.95,1.0,213.0,,,,,,,[],,,,,,50.0,0.0,i,1.0,False,818.8999999761581,50.0,61.0,40.0,False,,290.18244538041836,[],"[720, 450]",ColorTask,135.0,96.0,,,HRV,HRV_0294,2022-11-30 21:01:04
,wl-rdm,216,596950,0.0-8.96-0.96,1.0,214.0,,,,,,,[],,,,,,56.4,1.0,i,1.0,True,713.2000000476837,43.0,61.0,40.0,False,,314.99574789402783,[],"[720, 450]",ColorTask,136.0,97.0,,,HRV,HRV_0294,2022-11-30 21:01:04
,wl-rdm,217,598900,0.0-8.97-0.97,1.0,215.0,,,,,,,[],,,,,,87.9,1.0,i,1.0,True,506.5,31.0,61.0,40.0,False,,355.3976897678764,[],"[720, 450]",ColorTask,137.0,98.0,,,HRV,HRV_0294,2022-11-30 21:01:04
,wl-rdm,218,600850,0.0-8.98-0.98,1.0,216.0,,,,,,,[],,,,,,62.5,0.0,u,0.0,True,662.0,40.0,61.0,40.0,False,,203.36042394023204,[],"[720, 450]",ColorTask,138.0,99.0,,,HRV,HRV_0294,2022-11-30 21:01:04
,wl-rdm,219,602766,0.0-8.99-0.99,1.0,217.0,,,,,,,[],,,,,,87.9,1.0,i,1.0,True,623.8999999761581,38.0,61.0,40.0,False,,217.27397115959377,[],"[720, 450]",ColorTask,139.0,100.0,,,HRV,HRV_0294,2022-11-30 21:01:04
,wl-rdm,220,605000,0.0-8.100-0.100,1.0,218.0,,,,,,,[],,,,,,50.0,1.0,u,0.0,False,889.6999999284744,54.0,61.0,40.0,False,,257.14593466788415,[],"[720, 450]",ColorTask,138.0,101.0,,,HRV,HRV_0294,2022-11-30 21:01:04
,wl-rdm,221,607184,0.0-8.101-0.101,1.0,219.0,,,,,,,[],,,,,,53.2,1.0,u,0.0,False,892.5,54.0,61.0,40.0,False,,202.287015057078,[],"[720, 450]",ColorTask,137.0,102.0,,,HRV,HRV_0294,2022-11-30 21:01:04
,wl-rdm,222,609350,0.0-8.102-0.102,1.0,220.0,,,,,,,[],,,,,,62.5,1.0,i,1.0,True,754.8999999761581,46.0,61.0,40.0,False,,318.7511432557613,[],"[720, 450]",ColorTask,138.0,103.0,,,HRV,HRV_0294,2022-11-30 21:01:04
,wl-rdm,223,612317,0.0-8.103-0.103,1.0,221.0,,,,,,,[],,,,,,50.0,1.0,u,0.0,False,1656.8000000715256,100.0,61.0,40.0,False,,244.10190881081041,[],"[720, 450]",ColorTask,137.0,104.0,,,HRV,HRV_0294,2022-11-30 21:01:04
,wl-rdm,224,614416,0.0-8.104-0.104,1.0,222.0,,,,,,,[],,,,,,53.2,1.0,i,1.0,True,804.3000000715256,49.0,61.0,40.0,False,,223.35730492177206,[],"[720, 450]",ColorTask,138.0,105.0,,,HRV,HRV_0294,2022-11-30 21:01:04
,wl-rdm,225,616450,0.0-8.105-0.105,1.0,223.0,,,,,,,[],,,,,,62.5,1.0,i,1.0,True,574.7000000476837,35.0,61.0,40.0,False,,372.3742731812251,[],"[720, 450]",ColorTask,139.0,106.0,,,HRV,HRV_0294,2022-11-30 21:01:04
,wl-rdm,226,618583,0.0-8.106-0.106,1.0,224.0,,,,,,,[],,,,,,50.0,0.0,i,1.0,False,773.9000000953674,47.0,61.0,40.0,False,,300.1667366586974,[],"[720, 450]",ColorTask,138.0,107.0,,,HRV,HRV_0294,2022-11-30 21:01:04
,wl-rdm,227,620549,0.0-8.107-0.107,1.0,225.0,,,,,,,[],,,,,,87.9,1.0,u,0.0,False,526.0999999046326,32.0,61.0,40.0,False,,357.3831917102755,[],"[720, 450]",ColorTask,137.0,108.0,,,HRV,HRV_0294,2022-11-30 21:01:04
,wl-html-button-response,228,623103,0.0-9.0-0.0,,,,,,,,,,2546.5,,0,,,,,,,,,,,,,,,,,,,,<h3>End of this session. Thank you!</h3><br>,['Close window'],HRV,HRV_0294,2022-11-30 21:01:04
