trialN,stimuli,trialStartTime,trialStartTime_UNIX,stimulus1,stimulus2,stimulus1Bid,stimulus2Bid,delta,selected,rt,rt_UNIX,rt_perfnow,receivedResponse,rsp,trialEndTime,trialDuration,trialEndTime_UNIX,trialDuration_UNIX,exp,subjectId,date
0,"[{'imgObject': {}, 'id': 'edamame', 'src': '/static/foodstim60/edamame.jpg', 'key': 'u', 'origWidth': 409, 'origHeight': 410, 'width': 409, 'height': 410, 'widthPercent': 0.45, 'rescaleHeight': False, 'trialN': 0, 'loaded': True, 'loadedTime': 2877, 'positionName': 'LEFT', 'positionCoords': [282.2, 245], 'bid': 6.8}, {'imgObject': {}, 'id': 'ice cream sundae 002', 'src': '/static/foodstim60/ice cream sundae 002.jpg', 'key': 'i', 'origWidth': 409, 'origHeight': 409, 'width': 409, 'height': 409, 'widthPercent': 0.45, 'rescaleHeight': False, 'trialN': 0, 'loaded': True, 'loadedTime': 2877, 'positionName': 'RIGHT', 'positionCoords': [748.8, 245.5], 'bid': 6.8100000000000005}]",2867.5,1669840246540,edamame,ice cream sundae 002,6.8,6.8100000000000005,0.010000000000000675,edamame,1360.8000000715256,1376,1375.7000000476837,True,u,4745.100000023842,1877.6000000238419,1669840248418,1878,HRV,HRV_0294,2022-11-30 20:35:19
1,"[{'imgObject': {}, 'id': 'baked potato', 'src': '/static/foodstim60/baked potato.jpg', 'key': 'u', 'origWidth': 409, 'origHeight': 410, 'width': 409, 'height': 410, 'widthPercent': 0.45, 'rescaleHeight': False, 'trialN': 1, 'loaded': True, 'loadedTime': 4747.700000047684, 'positionName': 'LEFT', 'positionCoords': [282.2, 245], 'bid': 5.15}, {'imgObject': {}, 'id': 'rigatoni', 'src': '/static/foodstim60/rigatoni.jpg', 'key': 'i', 'origWidth': 411, 'origHeight': 411, 'width': 411, 'height': 411, 'widthPercent': 0.45, 'rescaleHeight': False, 'trialN': 1, 'loaded': True, 'loadedTime': 4748, 'positionName': 'RIGHT', 'positionCoords': [748.8, 244.5], 'bid': 6.76}]",4745.899999976158,1669840248418,baked potato,rigatoni,5.15,6.76,1.6099999999999994,rigatoni,940.2000000476837,945,945.0,True,i,6195.300000071526,1449.4000000953674,1669840249868,1450,HRV,HRV_0294,2022-11-30 20:35:19
2,"[{'imgObject': {}, 'id': 'turkeysandwich', 'src': '/static/foodstim60/turkeysandwich.jpg', 'key': 'u', 'origWidth': 409, 'origHeight': 409, 'width': 409, 'height': 409, 'widthPercent': 0.45, 'rescaleHeight': False, 'trialN': 2, 'loaded': True, 'loadedTime': 6198.600000023842, 'positionName': 'LEFT', 'positionCoords': [282.2, 245.5], 'bid': 7.62}, {'imgObject': {}, 'id': 'seaweed', 'src': '/static/foodstim60/seaweed.jpg', 'key': 'i', 'origWidth': 410, 'origHeight': 410, 'width': 410, 'height': 410, 'widthPercent': 0.45, 'rescaleHeight': False, 'trialN': 2, 'loaded': True, 'loadedTime': 6198.899999976158, 'positionName': 'RIGHT', 'positionCoords': [748.8, 245], 'bid': 7.55}]",6196.200000047684,1669840249869,turkeysandwich,seaweed,7.62,7.55,-0.07000000000000028,turkeysandwich,1235.6999999284744,1239,1239.8999999761581,True,u,7937.200000047684,1741.0,1669840251610,1741,HRV,HRV_0294,2022-11-30 20:35:19
3,"[{'imgObject': {}, 'id': 'cherry tomato', 'src': '/static/foodstim60/cherry tomato.jpg', 'key': 'u', 'origWidth': 410, 'origHeight': 410, 'width': 410, 'height': 410, 'widthPercent': 0.45, 'rescaleHeight': False, 'trialN': 3, 'loaded': True, 'loadedTime': 7941.100000023842, 'positionName': 'LEFT', 'positionCoords': [281.2, 245], 'bid': 2.9}, {'imgObject': {}, 'id': 'eggsalad', 'src': '/static/foodstim60/eggsalad.jpg', 'key': 'i', 'origWidth': 410, 'origHeight': 409, 'width': 410, 'height': 409, 'widthPercent': 0.45, 'rescaleHeight': False, 'trialN': 3, 'loaded': True, 'loadedTime': 7941.399999976158, 'positionName': 'RIGHT', 'positionCoords': [748.8, 245.5], 'bid': 2.48}]",7938.300000071526,1669840251611,cherry tomato,eggsalad,2.9,2.48,-0.41999999999999993,eggsalad,1082.6999999284744,1086,1086.3999999761581,True,i,9528.200000047684,1589.8999999761581,1669840253201,1590,HRV,HRV_0294,2022-11-30 20:35:19
4,"[{'imgObject': {}, 'id': 'blackbeanswithrice', 'src': '/static/foodstim60/blackbeanswithrice.jpg', 'key': 'u', 'origWidth': 410, 'origHeight': 410, 'width': 410, 'height': 410, 'widthPercent': 0.45, 'rescaleHeight': False, 'trialN': 4, 'loaded': True, 'loadedTime': 9532.200000047684, 'positionName': 'LEFT', 'positionCoords': [281.2, 245], 'bid': 5.61}, {'imgObject': {}, 'id': 'kiwi', 'src': '/static/foodstim60/kiwi.jpg', 'key': 'i', 'origWidth': 410, 'origHeight': 410, 'width': 410, 'height': 410, 'widthPercent': 0.45, 'rescaleHeight': False, 'trialN': 4, 'loaded': True, 'loadedTime': 9532.800000071526, 'positionName': 'RIGHT', 'positionCoords': [748.8, 245], 'bid': 8.11}]",9529.100000023842,1669840253201,blackbeanswithrice,kiwi,5.61,8.11,2.499999999999999,blackbeanswithrice,917.1000000238419,923,922.7000000476837,True,u,10953.100000023842,1424.0,1669840254625,1424,HRV,HRV_0294,2022-11-30 20:35:19
5,"[{'imgObject': {}, 'id': 'pear', 'src': '/static/foodstim60/pear.jpg', 'key': 'u', 'origWidth': 411, 'origHeight': 410, 'width': 411, 'height': 410, 'widthPercent': 0.45, 'rescaleHeight': False, 'trialN': 5, 'loaded': True, 'loadedTime': 10957.100000023842, 'positionName': 'LEFT', 'positionCoords': [280.2, 245], 'bid': 7.2}, {'imgObject': {}, 'id': 'roastedpotatoes', 'src': '/static/foodstim60/roastedpotatoes.jpg', 'key': 'i', 'origWidth': 409, 'origHeight': 410, 'width': 409, 'height': 410, 'widthPercent': 0.45, 'rescaleHeight': False, 'trialN': 5, 'loaded': True, 'loadedTime': 10957.399999976158, 'positionName': 'RIGHT', 'positionCoords': [748.8, 245], 'bid': 6.55}]",10954.100000023842,1669840254626,pear,roastedpotatoes,7.2,6.55,-0.6500000000000004,pear,860.7999999523163,866,865.3999999761581,True,u,12320.0,1365.8999999761581,1669840255992,1366,HRV,HRV_0294,2022-11-30 20:35:19
6,"[{'imgObject': {}, 'id': 'eggsalad', 'src': '/static/foodstim60/eggsalad.jpg', 'key': 'u', 'origWidth': 410, 'origHeight': 409, 'width': 410, 'height': 409, 'widthPercent': 0.45, 'rescaleHeight': False, 'trialN': 6, 'loaded': True, 'loadedTime': 12323.899999976158, 'positionName': 'LEFT', 'positionCoords': [281.2, 245.5], 'bid': 2.48}, {'imgObject': {}, 'id': 'mango', 'src': '/static/foodstim60/mango.jpg', 'key': 'i', 'origWidth': 411, 'origHeight': 411, 'width': 411, 'height': 411, 'widthPercent': 0.45, 'rescaleHeight': False, 'trialN': 6, 'loaded': True, 'loadedTime': 12324.300000071526, 'positionName': 'RIGHT', 'positionCoords': [748.8, 244.5], 'bid': 3.45}]",12320.899999976158,1669840255993,eggsalad,mango,2.48,3.45,0.9700000000000002,mango,845.0,850,849.6000000238419,True,i,13675.5,1354.6000000238419,1669840257348,1355,HRV,HRV_0294,2022-11-30 20:35:19
7,"[{'imgObject': {}, 'id': 'veggieswithdip', 'src': '/static/foodstim60/veggieswithdip.jpg', 'key': 'u', 'origWidth': 409, 'origHeight': 409, 'width': 409, 'height': 409, 'widthPercent': 0.45, 'rescaleHeight': False, 'trialN': 7, 'loaded': True, 'loadedTime': 13679.5, 'positionName': 'LEFT', 'positionCoords': [282.2, 245.5], 'bid': 5.3100000000000005}, {'imgObject': {}, 'id': 'cheerios', 'src': '/static/foodstim60/cheerios.jpg', 'key': 'i', 'origWidth': 409, 'origHeight': 410, 'width': 409, 'height': 410, 'widthPercent': 0.45, 'rescaleHeight': False, 'trialN': 7, 'loaded': True, 'loadedTime': 13679.899999976158, 'positionName': 'RIGHT', 'positionCoords': [748.8, 245], 'bid': 5.5}]",13676.5,1669840257349,veggieswithdip,cheerios,5.3100000000000005,5.5,0.1899999999999995,veggieswithdip,1447.5,1451,1451.8999999761581,True,u,15629.600000023842,1953.1000000238419,1669840259302,1953,HRV,HRV_0294,2022-11-30 20:35:19
8,"[{'imgObject': {}, 'id': 'eggs', 'src': '/static/foodstim60/eggs.jpg', 'key': 'u', 'origWidth': 409, 'origHeight': 409, 'width': 409, 'height': 409, 'widthPercent': 0.45, 'rescaleHeight': False, 'trialN': 8, 'loaded': True, 'loadedTime': 15634.600000023842, 'positionName': 'LEFT', 'positionCoords': [282.2, 245.5], 'bid': 3.79}, {'imgObject': {}, 'id': 'bagel and cc', 'src': '/static/foodstim60/bagel and cc.jpg', 'key': 'i', 'origWidth': 410, 'origHeight': 410, 'width': 410, 'height': 410, 'widthPercent': 0.45, 'rescaleHeight': False, 'trialN': 8, 'loaded': True, 'loadedTime': 15635.100000023842, 'positionName': 'RIGHT', 'positionCoords': [748.8, 245], 'bid': 6.41}]",15630.5,1669840259303,eggs,bagel and cc,3.79,6.41,2.62,bagel and cc,947.5,952,952.1000000238419,True,i,17086.5,1456.0,1669840260758,1455,HRV,HRV_0294,2022-11-30 20:35:19
9,"[{'imgObject': {}, 'id': 'strawberries', 'src': '/static/foodstim60/strawberries.jpg', 'key': 'u', 'origWidth': 410, 'origHeight': 410, 'width': 410, 'height': 410, 'widthPercent': 0.45, 'rescaleHeight': False, 'trialN': 9, 'loaded': True, 'loadedTime': 17090.5, 'positionName': 'LEFT', 'positionCoords': [281.2, 245], 'bid': 8.06}, {'imgObject': {}, 'id': 'kiwi', 'src': '/static/foodstim60/kiwi.jpg', 'key': 'i', 'origWidth': 410, 'origHeight': 410, 'width': 410, 'height': 410, 'widthPercent': 0.45, 'rescaleHeight': False, 'trialN': 9, 'loaded': True, 'loadedTime': 17090.899999976158, 'positionName': 'RIGHT', 'positionCoords': [748.8, 245], 'bid': 8.11}]",17087.399999976158,1669840260759,strawberries,kiwi,8.06,8.11,0.049999999999998934,kiwi,1300.7000000476837,1306,1305.2000000476837,True,i,18894.5,1807.1000000238419,1669840262566,1807,HRV,HRV_0294,2022-11-30 20:35:19
10,"[{'imgObject': {}, 'id': 'blueberries', 'src': '/static/foodstim60/blueberries.jpg', 'key': 'u', 'origWidth': 411, 'origHeight': 411, 'width': 411, 'height': 411, 'widthPercent': 0.45, 'rescaleHeight': False, 'trialN': 10, 'loaded': True, 'loadedTime': 18898.600000023842, 'positionName': 'LEFT', 'positionCoords': [280.2, 244.5], 'bid': 6.15}, {'imgObject': {}, 'id': 'lox', 'src': '/static/foodstim60/lox.jpg', 'key': 'i', 'origWidth': 410, 'origHeight': 411, 'width': 410, 'height': 411, 'widthPercent': 0.45, 'rescaleHeight': False, 'trialN': 10, 'loaded': True, 'loadedTime': 18899.5, 'positionName': 'RIGHT', 'positionCoords': [748.8, 244.5], 'bid': 8.26}]",18895.600000023842,1669840262567,blueberries,lox,6.15,8.26,2.1099999999999994,lox,1160.6000000238419,1165,1164.7999999523163,True,i,20561.0,1665.3999999761581,1669840264233,1666,HRV,HRV_0294,2022-11-30 20:35:19
11,"[{'imgObject': {}, 'id': 'sushi w_condiments', 'src': '/static/foodstim60/sushi w_condiments.jpg', 'key': 'u', 'origWidth': 410, 'origHeight': 410, 'width': 410, 'height': 410, 'widthPercent': 0.45, 'rescaleHeight': False, 'trialN': 11, 'loaded': True, 'loadedTime': 20564.800000071526, 'positionName': 'LEFT', 'positionCoords': [281.2, 245], 'bid': 8.540000000000001}, {'imgObject': {}, 'id': 'burger', 'src': '/static/foodstim60/burger.jpg', 'key': 'i', 'origWidth': 409, 'origHeight': 409, 'width': 409, 'height': 409, 'widthPercent': 0.45, 'rescaleHeight': False, 'trialN': 11, 'loaded': True, 'loadedTime': 20565.200000047684, 'positionName': 'RIGHT', 'positionCoords': [748.8, 245.5], 'bid': 6.5200000000000005}]",20561.800000071526,1669840264234,sushi w_condiments,burger,8.540000000000001,6.5200000000000005,-2.0200000000000005,sushi w_condiments,929.3999999761581,934,934.7999999523163,True,u,22001.700000047684,1439.8999999761581,1669840265673,1439,HRV,HRV_0294,2022-11-30 20:35:19
12,"[{'imgObject': {}, 'id': 'raisin bran w milk', 'src': '/static/foodstim60/raisin bran w milk.jpg', 'key': 'u', 'origWidth': 411, 'origHeight': 411, 'width': 411, 'height': 411, 'widthPercent': 0.45, 'rescaleHeight': False, 'trialN': 12, 'loaded': True, 'loadedTime': 22005.600000023842, 'positionName': 'LEFT', 'positionCoords': [280.2, 244.5], 'bid': 3.7}, {'imgObject': {}, 'id': 'blueberries', 'src': '/static/foodstim60/blueberries.jpg', 'key': 'i', 'origWidth': 411, 'origHeight': 411, 'width': 411, 'height': 411, 'widthPercent': 0.45, 'rescaleHeight': False, 'trialN': 12, 'loaded': True, 'loadedTime': 22006, 'positionName': 'RIGHT', 'positionCoords': [748.8, 244.5], 'bid': 6.15}]",22002.5,1669840265674,raisin bran w milk,blueberries,3.7,6.15,2.45,blueberries,839.8000000715256,845,844.6000000238419,True,i,23350.800000071526,1348.3000000715256,1669840267023,1349,HRV,HRV_0294,2022-11-30 20:35:19
13,"[{'imgObject': {}, 'id': 'baked potato', 'src': '/static/foodstim60/baked potato.jpg', 'key': 'u', 'origWidth': 409, 'origHeight': 410, 'width': 409, 'height': 410, 'widthPercent': 0.45, 'rescaleHeight': False, 'trialN': 13, 'loaded': True, 'loadedTime': 23354.700000047684, 'positionName': 'LEFT', 'positionCoords': [282.2, 245], 'bid': 5.15}, {'imgObject': {}, 'id': 'popsicles', 'src': '/static/foodstim60/popsicles.jpg', 'key': 'i', 'origWidth': 410, 'origHeight': 410, 'width': 410, 'height': 410, 'widthPercent': 0.45, 'rescaleHeight': False, 'trialN': 13, 'loaded': True, 'loadedTime': 23355.200000047684, 'positionName': 'RIGHT', 'positionCoords': [748.8, 245], 'bid': 4.91}]",23351.700000047684,1669840267023,baked potato,popsicles,5.15,4.91,-0.2400000000000002,baked potato,855.6000000238419,860,859.5,True,u,24715.0,1363.2999999523163,1669840268387,1364,HRV,HRV_0294,2022-11-30 20:35:19
14,"[{'imgObject': {}, 'id': 'orange slices', 'src': '/static/foodstim60/orange slices.jpg', 'key': 'u', 'origWidth': 409, 'origHeight': 410, 'width': 409, 'height': 410, 'widthPercent': 0.45, 'rescaleHeight': False, 'trialN': 14, 'loaded': True, 'loadedTime': 24718.800000071526, 'positionName': 'LEFT', 'positionCoords': [282.2, 245], 'bid': 6.79}, {'imgObject': {}, 'id': 'sweetpotato', 'src': '/static/foodstim60/sweetpotato.jpg', 'key': 'i', 'origWidth': 410, 'origHeight': 410, 'width': 410, 'height': 410, 'widthPercent': 0.45, 'rescaleHeight': False, 'trialN': 14, 'loaded': True, 'loadedTime': 24719.200000047684, 'positionName': 'RIGHT', 'positionCoords': [748.8, 245], 'bid': 5.2700000000000005}]",24715.899999976158,1669840268388,orange slices,sweetpotato,6.79,5.2700000000000005,-1.5199999999999996,orange slices,876.4000000953674,880,880.9000000953674,True,u,26099.0,1383.1000000238419,1669840269771,1383,HRV,HRV_0294,2022-11-30 20:35:19
15,"[{'imgObject': {}, 'id': 'mashed potato', 'src': '/static/foodstim60/mashed potato.jpg', 'key': 'u', 'origWidth': 409, 'origHeight': 409, 'width': 409, 'height': 409, 'widthPercent': 0.45, 'rescaleHeight': False, 'trialN': 15, 'loaded': True, 'loadedTime': 26101.5, 'positionName': 'LEFT', 'positionCoords': [282.2, 245.5], 'bid': 6.73}, {'imgObject': {}, 'id': 'roastedpotatoes', 'src': '/static/foodstim60/roastedpotatoes.jpg', 'key': 'i', 'origWidth': 409, 'origHeight': 410, 'width': 409, 'height': 410, 'widthPercent': 0.45, 'rescaleHeight': False, 'trialN': 15, 'loaded': True, 'loadedTime': 26101.700000047684, 'positionName': 'RIGHT', 'positionCoords': [748.8, 245], 'bid': 6.55}]",26099.700000047684,1669840269771,mashed potato,roastedpotatoes,6.73,6.55,-0.1800000000000006,mashed potato,1182.3999999761581,1186,1185.7999999523163,True,u,27790.200000047684,1690.5,1669840271462,1691,HRV,HRV_0294,2022-11-30 20:35:19
16,"[{'imgObject': {}, 'id': 'raisin bran w milk', 'src': '/static/foodstim60/raisin bran w milk.jpg', 'key': 'u', 'origWidth': 411, 'origHeight': 411, 'width': 411, 'height': 411, 'widthPercent': 0.45, 'rescaleHeight': False, 'trialN': 16, 'loaded': True, 'loadedTime': 27793.399999976158, 'positionName': 'LEFT', 'positionCoords': [280.2, 244.5], 'bid': 3.7}, {'imgObject': {}, 'id': 'veggieswithdip', 'src': '/static/foodstim60/veggieswithdip.jpg', 'key': 'i', 'origWidth': 409, 'origHeight': 409, 'width': 409, 'height': 409, 'widthPercent': 0.45, 'rescaleHeight': False, 'trialN': 16, 'loaded': True, 'loadedTime': 27793.800000071526, 'positionName': 'RIGHT', 'positionCoords': [748.8, 245.5], 'bid': 5.3100000000000005}]",27790.899999976158,1669840271462,raisin bran w milk,veggieswithdip,3.7,5.3100000000000005,1.6100000000000003,veggieswithdip,848.6000000238419,853,853.0,True,i,29147.700000047684,1356.8000000715256,1669840272819,1357,HRV,HRV_0294,2022-11-30 20:35:19
17,"[{'imgObject': {}, 'id': 'pear', 'src': '/static/foodstim60/pear.jpg', 'key': 'u', 'origWidth': 411, 'origHeight': 410, 'width': 411, 'height': 410, 'widthPercent': 0.45, 'rescaleHeight': False, 'trialN': 17, 'loaded': True, 'loadedTime': 29149.5, 'positionName': 'LEFT', 'positionCoords': [280.2, 245], 'bid': 7.2}, {'imgObject': {}, 'id': 'fruitsalad', 'src': '/static/foodstim60/fruitsalad.jpg', 'key': 'i', 'origWidth': 410, 'origHeight': 410, 'width': 410, 'height': 410, 'widthPercent': 0.45, 'rescaleHeight': False, 'trialN': 17, 'loaded': True, 'loadedTime': 29149.700000047684, 'positionName': 'RIGHT', 'positionCoords': [748.8, 245], 'bid': 7.22}]",29148.200000047684,1669840272820,pear,fruitsalad,7.2,7.22,0.019999999999999574,fruitsalad,935.1000000238419,939,939.6999999284744,True,i,30592.899999976158,1444.6999999284744,1669840274264,1444,HRV,HRV_0294,2022-11-30 20:35:19
18,"[{'imgObject': {}, 'id': 'luckycharms', 'src': '/static/foodstim60/luckycharms.jpg', 'key': 'u', 'origWidth': 410, 'origHeight': 409, 'width': 410, 'height': 409, 'widthPercent': 0.45, 'rescaleHeight': False, 'trialN': 18, 'loaded': True, 'loadedTime': 30596.899999976158, 'positionName': 'LEFT', 'positionCoords': [281.2, 245.5], 'bid': 6.55}, {'imgObject': {}, 'id': 'granola w milk', 'src': '/static/foodstim60/granola w milk.jpg', 'key': 'i', 'origWidth': 410, 'origHeight': 410, 'width': 410, 'height': 410, 'widthPercent': 0.45, 'rescaleHeight': False, 'trialN': 18, 'loaded': True, 'loadedTime': 30597.399999976158, 'positionName': 'RIGHT', 'positionCoords': [748.8, 245], 'bid': 4.13}]",30593.899999976158,1669840274265,luckycharms,granola w milk,6.55,4.13,-2.42,luckycharms,856.1000000238419,859,859.2000000476837,True,u,31956.300000071526,1362.4000000953674,1669840275628,1363,HRV,HRV_0294,2022-11-30 20:35:19
19,"[{'imgObject': {}, 'id': 'seaweed', 'src': '/static/foodstim60/seaweed.jpg', 'key': 'u', 'origWidth': 410, 'origHeight': 410, 'width': 410, 'height': 410, 'widthPercent': 0.45, 'rescaleHeight': False, 'trialN': 19, 'loaded': True, 'loadedTime': 31960.200000047684, 'positionName': 'LEFT', 'positionCoords': [281.2, 245], 'bid': 7.55}, {'imgObject': {}, 'id': 'fried eggs', 'src': '/static/foodstim60/fried eggs.jpg', 'key': 'i', 'origWidth': 410, 'origHeight': 410, 'width': 410, 'height': 410, 'widthPercent': 0.45, 'rescaleHeight': False, 'trialN': 19, 'loaded': True, 'loadedTime': 31960.600000023842, 'positionName': 'RIGHT', 'positionCoords': [748.8, 245], 'bid': 8}]",31957.200000047684,1669840275629,seaweed,fried eggs,7.55,8.0,0.4500000000000002,seaweed,772.0,777,777.0,True,u,33237.10000002384,1279.8999999761581,1669840276908,1279,HRV,HRV_0294,2022-11-30 20:35:19
20,"[{'imgObject': {}, 'id': 'luckycharms', 'src': '/static/foodstim60/luckycharms.jpg', 'key': 'u', 'origWidth': 410, 'origHeight': 409, 'width': 410, 'height': 409, 'widthPercent': 0.45, 'rescaleHeight': False, 'trialN': 20, 'loaded': True, 'loadedTime': 33240.89999997616, 'positionName': 'LEFT', 'positionCoords': [281.2, 245.5], 'bid': 6.55}, {'imgObject': {}, 'id': 'mashed potato', 'src': '/static/foodstim60/mashed potato.jpg', 'key': 'i', 'origWidth': 409, 'origHeight': 409, 'width': 409, 'height': 409, 'widthPercent': 0.45, 'rescaleHeight': False, 'trialN': 20, 'loaded': True, 'loadedTime': 33241.10000002384, 'positionName': 'RIGHT', 'positionCoords': [748.8, 245.5], 'bid': 6.73}]",33237.89999997616,1669840276909,luckycharms,mashed potato,6.55,6.73,0.1800000000000006,mashed potato,1453.3000000715256,1458,1458.2000000476837,True,i,35201.0,1963.1000000238419,1669840278872,1963,HRV,HRV_0294,2022-11-30 20:35:19
21,"[{'imgObject': {}, 'id': 'Tribe humus pita', 'src': '/static/foodstim60/Tribe humus pita.jpg', 'key': 'u', 'origWidth': 411, 'origHeight': 411, 'width': 411, 'height': 411, 'widthPercent': 0.45, 'rescaleHeight': False, 'trialN': 21, 'loaded': True, 'loadedTime': 35205, 'positionName': 'LEFT', 'positionCoords': [280.2, 244.5], 'bid': 6.7700000000000005}, {'imgObject': {}, 'id': 'hashbrowns', 'src': '/static/foodstim60/hashbrowns.jpg', 'key': 'i', 'origWidth': 411, 'origHeight': 410, 'width': 411, 'height': 410, 'widthPercent': 0.45, 'rescaleHeight': False, 'trialN': 21, 'loaded': True, 'loadedTime': 35205.39999997616, 'positionName': 'RIGHT', 'positionCoords': [748.8, 245], 'bid': 5.16}]",35201.89999997616,1669840278873,Tribe humus pita,hashbrowns,6.7700000000000005,5.16,-1.6100000000000003,hashbrowns,1407.3000000715256,1411,1411.1000000238419,True,i,37114.89999997616,1913.0,1669840280786,1913,HRV,HRV_0294,2022-11-30 20:35:19
22,"[{'imgObject': {}, 'id': 'hashbrowns', 'src': '/static/foodstim60/hashbrowns.jpg', 'key': 'u', 'origWidth': 411, 'origHeight': 410, 'width': 411, 'height': 410, 'widthPercent': 0.45, 'rescaleHeight': False, 'trialN': 22, 'loaded': True, 'loadedTime': 37118.89999997616, 'positionName': 'LEFT', 'positionCoords': [280.2, 245], 'bid': 5.16}, {'imgObject': {}, 'id': 'turkey sandwich', 'src': '/static/foodstim60/turkey sandwich.jpg', 'key': 'i', 'origWidth': 409, 'origHeight': 409, 'width': 409, 'height': 409, 'widthPercent': 0.45, 'rescaleHeight': False, 'trialN': 22, 'loaded': True, 'loadedTime': 37119.200000047684, 'positionName': 'RIGHT', 'positionCoords': [748.8, 245.5], 'bid': 7.75}]",37115.800000071526,1669840280787,hashbrowns,turkey sandwich,5.16,7.75,2.59,turkey sandwich,780.0999999046326,783,782.7999999523163,True,i,38401.39999997616,1285.5999999046326,1669840282073,1286,HRV,HRV_0294,2022-11-30 20:35:19
23,"[{'imgObject': {}, 'id': 'salmon', 'src': '/static/foodstim60/salmon.jpg', 'key': 'u', 'origWidth': 410, 'origHeight': 409, 'width': 410, 'height': 409, 'widthPercent': 0.45, 'rescaleHeight': False, 'trialN': 23, 'loaded': True, 'loadedTime': 38403.700000047684, 'positionName': 'LEFT', 'positionCoords': [281.2, 245.5], 'bid': 7.73}, {'imgObject': {}, 'id': 'turkey sandwich', 'src': '/static/foodstim60/turkey sandwich.jpg', 'key': 'i', 'origWidth': 409, 'origHeight': 409, 'width': 409, 'height': 409, 'widthPercent': 0.45, 'rescaleHeight': False, 'trialN': 23, 'loaded': True, 'loadedTime': 38404.10000002384, 'positionName': 'RIGHT', 'positionCoords': [748.8, 245.5], 'bid': 7.75}]",38402.10000002384,1669840282073,salmon,turkey sandwich,7.73,7.75,0.019999999999999574,salmon,994.5,999,998.7000000476837,True,u,39901.5,1499.3999999761581,1669840283573,1500,HRV,HRV_0294,2022-11-30 20:35:19
24,"[{'imgObject': {}, 'id': 'cocktailshrimp', 'src': '/static/foodstim60/cocktailshrimp.jpg', 'key': 'u', 'origWidth': 410, 'origHeight': 410, 'width': 410, 'height': 410, 'widthPercent': 0.45, 'rescaleHeight': False, 'trialN': 24, 'loaded': True, 'loadedTime': 39905.200000047684, 'positionName': 'LEFT', 'positionCoords': [281.2, 245], 'bid': 8.73}, {'imgObject': {}, 'id': 'fried eggs', 'src': '/static/foodstim60/fried eggs.jpg', 'key': 'i', 'origWidth': 410, 'origHeight': 410, 'width': 410, 'height': 410, 'widthPercent': 0.45, 'rescaleHeight': False, 'trialN': 24, 'loaded': True, 'loadedTime': 39905.60000002384, 'positionName': 'RIGHT', 'positionCoords': [748.8, 245], 'bid': 8}]",39902.39999997616,1669840283574,cocktailshrimp,fried eggs,8.73,8.0,-0.7300000000000004,cocktailshrimp,787.0,791,791.6000000238419,True,u,41196.700000047684,1294.3000000715256,1669840284868,1294,HRV,HRV_0294,2022-11-30 20:35:19
25,"[{'imgObject': {}, 'id': 'granola w milk', 'src': '/static/foodstim60/granola w milk.jpg', 'key': 'u', 'origWidth': 410, 'origHeight': 410, 'width': 410, 'height': 410, 'widthPercent': 0.45, 'rescaleHeight': False, 'trialN': 25, 'loaded': True, 'loadedTime': 41201, 'positionName': 'LEFT', 'positionCoords': [281.2, 245], 'bid': 4.13}, {'imgObject': {}, 'id': 'blackbeanswithrice', 'src': '/static/foodstim60/blackbeanswithrice.jpg', 'key': 'i', 'origWidth': 410, 'origHeight': 410, 'width': 410, 'height': 410, 'widthPercent': 0.45, 'rescaleHeight': False, 'trialN': 25, 'loaded': True, 'loadedTime': 41201.300000071526, 'positionName': 'RIGHT', 'positionCoords': [748.8, 245], 'bid': 5.61}]",41197.5,1669840284869,granola w milk,blackbeanswithrice,4.13,5.61,1.4800000000000004,blackbeanswithrice,949.8000000715256,953,953.3999999761581,True,i,42651.200000047684,1453.7000000476837,1669840286322,1453,HRV,HRV_0294,2022-11-30 20:35:19
26,"[{'imgObject': {}, 'id': 'bagel plain', 'src': '/static/foodstim60/bagel plain.jpg', 'key': 'u', 'origWidth': 410, 'origHeight': 410, 'width': 410, 'height': 410, 'widthPercent': 0.45, 'rescaleHeight': False, 'trialN': 26, 'loaded': True, 'loadedTime': 42654.89999997616, 'positionName': 'LEFT', 'positionCoords': [281.2, 245], 'bid': 6.75}, {'imgObject': {}, 'id': 'rigatoni', 'src': '/static/foodstim60/rigatoni.jpg', 'key': 'i', 'origWidth': 411, 'origHeight': 411, 'width': 411, 'height': 411, 'widthPercent': 0.45, 'rescaleHeight': False, 'trialN': 26, 'loaded': True, 'loadedTime': 42655.200000047684, 'positionName': 'RIGHT', 'positionCoords': [748.8, 244.5], 'bid': 6.76}]",42652.0,1669840286323,bagel plain,rigatoni,6.75,6.76,0.009999999999999787,bagel plain,929.3999999761581,935,934.8000000715256,True,u,44089.300000071526,1437.3000000715256,1669840287760,1437,HRV,HRV_0294,2022-11-30 20:35:19
27,"[{'imgObject': {}, 'id': 'edamame', 'src': '/static/foodstim60/edamame.jpg', 'key': 'u', 'origWidth': 409, 'origHeight': 410, 'width': 409, 'height': 410, 'widthPercent': 0.45, 'rescaleHeight': False, 'trialN': 27, 'loaded': True, 'loadedTime': 44092.10000002384, 'positionName': 'LEFT', 'positionCoords': [282.2, 245], 'bid': 6.8}, {'imgObject': {}, 'id': 'corn cob', 'src': '/static/foodstim60/corn cob.jpg', 'key': 'i', 'origWidth': 411, 'origHeight': 411, 'width': 411, 'height': 411, 'widthPercent': 0.45, 'rescaleHeight': False, 'trialN': 27, 'loaded': True, 'loadedTime': 44092.5, 'positionName': 'RIGHT', 'positionCoords': [748.8, 244.5], 'bid': 7.34}]",44090.0,1669840287761,edamame,corn cob,6.8,7.34,0.54,edamame,819.3000000715256,824,823.8999999761581,True,u,45414.89999997616,1324.8999999761581,1669840289086,1325,HRV,HRV_0294,2022-11-30 20:35:19
28,"[{'imgObject': {}, 'id': 'chicken nuggets2', 'src': '/static/foodstim60/chicken nuggets2.jpg', 'key': 'u', 'origWidth': 410, 'origHeight': 409, 'width': 410, 'height': 409, 'widthPercent': 0.45, 'rescaleHeight': False, 'trialN': 28, 'loaded': True, 'loadedTime': 45418.89999997616, 'positionName': 'LEFT', 'positionCoords': [281.2, 245.5], 'bid': 8.56}, {'imgObject': {}, 'id': 'tacos', 'src': '/static/foodstim60/tacos.jpg', 'key': 'i', 'origWidth': 411, 'origHeight': 411, 'width': 411, 'height': 411, 'widthPercent': 0.45, 'rescaleHeight': False, 'trialN': 28, 'loaded': True, 'loadedTime': 45419.300000071526, 'positionName': 'RIGHT', 'positionCoords': [748.8, 244.5], 'bid': 9.27}]",45415.800000071526,1669840289087,chicken nuggets2,tacos,8.56,9.27,0.7099999999999991,chicken nuggets2,983.5999999046326,988,988.0999999046326,True,u,46904.300000071526,1488.5,1669840290575,1488,HRV,HRV_0294,2022-11-30 20:35:19
29,"[{'imgObject': {}, 'id': 'corn cob', 'src': '/static/foodstim60/corn cob.jpg', 'key': 'u', 'origWidth': 411, 'origHeight': 411, 'width': 411, 'height': 411, 'widthPercent': 0.45, 'rescaleHeight': False, 'trialN': 29, 'loaded': True, 'loadedTime': 46908.200000047684, 'positionName': 'LEFT', 'positionCoords': [280.2, 244.5], 'bid': 7.34}, {'imgObject': {}, 'id': 'bagel plain', 'src': '/static/foodstim60/bagel plain.jpg', 'key': 'i', 'origWidth': 410, 'origHeight': 410, 'width': 410, 'height': 410, 'widthPercent': 0.45, 'rescaleHeight': False, 'trialN': 29, 'loaded': True, 'loadedTime': 46908.5, 'positionName': 'RIGHT', 'positionCoords': [748.8, 245], 'bid': 6.75}]",46905.10000002384,1669840290576,corn cob,bagel plain,7.34,6.75,-0.5899999999999999,corn cob,925.5,930,929.8999999761581,True,u,48339.39999997616,1434.2999999523163,1669840292010,1434,HRV,HRV_0294,2022-11-30 20:35:19
30,"[{'imgObject': {}, 'id': 'sweetpotato', 'src': '/static/foodstim60/sweetpotato.jpg', 'key': 'u', 'origWidth': 410, 'origHeight': 410, 'width': 410, 'height': 410, 'widthPercent': 0.45, 'rescaleHeight': False, 'trialN': 30, 'loaded': True, 'loadedTime': 48342.89999997616, 'positionName': 'LEFT', 'positionCoords': [281.2, 245], 'bid': 5.2700000000000005}, {'imgObject': {}, 'id': 'veggieswithdip', 'src': '/static/foodstim60/veggieswithdip.jpg', 'key': 'i', 'origWidth': 409, 'origHeight': 409, 'width': 409, 'height': 409, 'widthPercent': 0.45, 'rescaleHeight': False, 'trialN': 30, 'loaded': True, 'loadedTime': 48343.39999997616, 'positionName': 'RIGHT', 'positionCoords': [748.8, 245.5], 'bid': 5.3100000000000005}]",48340.200000047684,1669840292011,sweetpotato,veggieswithdip,5.2700000000000005,5.3100000000000005,0.040000000000000036,sweetpotato,964.5,968,968.3999999761581,True,u,49813.5,1473.2999999523163,1669840293484,1473,HRV,HRV_0294,2022-11-30 20:35:19
31,"[{'imgObject': {}, 'id': 'lox', 'src': '/static/foodstim60/lox.jpg', 'key': 'u', 'origWidth': 410, 'origHeight': 411, 'width': 410, 'height': 411, 'widthPercent': 0.45, 'rescaleHeight': False, 'trialN': 31, 'loaded': True, 'loadedTime': 49817.39999997616, 'positionName': 'LEFT', 'positionCoords': [281.2, 244.5], 'bid': 8.26}, {'imgObject': {}, 'id': 'fruitsalad', 'src': '/static/foodstim60/fruitsalad.jpg', 'key': 'i', 'origWidth': 410, 'origHeight': 410, 'width': 410, 'height': 410, 'widthPercent': 0.45, 'rescaleHeight': False, 'trialN': 31, 'loaded': True, 'loadedTime': 49818, 'positionName': 'RIGHT', 'positionCoords': [748.8, 245], 'bid': 7.22}]",49814.39999997616,1669840293485,lox,fruitsalad,8.26,7.22,-1.04,fruitsalad,1060.9000000953674,1065,1065.1000000238419,True,i,51384.5,1570.1000000238419,1669840295055,1570,HRV,HRV_0294,2022-11-30 20:35:19
32,"[{'imgObject': {}, 'id': 'omelette', 'src': '/static/foodstim60/omelette.jpg', 'key': 'u', 'origWidth': 410, 'origHeight': 409, 'width': 410, 'height': 409, 'widthPercent': 0.45, 'rescaleHeight': False, 'trialN': 32, 'loaded': True, 'loadedTime': 51387.89999997616, 'positionName': 'LEFT', 'positionCoords': [281.2, 245.5], 'bid': 8.51}, {'imgObject': {}, 'id': 'lox', 'src': '/static/foodstim60/lox.jpg', 'key': 'i', 'origWidth': 410, 'origHeight': 411, 'width': 410, 'height': 411, 'widthPercent': 0.45, 'rescaleHeight': False, 'trialN': 32, 'loaded': True, 'loadedTime': 51388.200000047684, 'positionName': 'RIGHT', 'positionCoords': [748.8, 244.5], 'bid': 8.26}]",51385.300000071526,1669840295056,omelette,lox,8.51,8.26,-0.25,omelette,917.3999999761581,922,921.8999999761581,True,u,52811.5,1426.1999999284744,1669840296482,1426,HRV,HRV_0294,2022-11-30 20:35:19
33,"[{'imgObject': {}, 'id': 'Grapes', 'src': '/static/foodstim60/Grapes.jpg', 'key': 'u', 'origWidth': 411, 'origHeight': 411, 'width': 411, 'height': 411, 'widthPercent': 0.45, 'rescaleHeight': False, 'trialN': 33, 'loaded': True, 'loadedTime': 52815.700000047684, 'positionName': 'LEFT', 'positionCoords': [280.2, 244.5], 'bid': 5.3100000000000005}, {'imgObject': {}, 'id': 'sweetpotato', 'src': '/static/foodstim60/sweetpotato.jpg', 'key': 'i', 'origWidth': 410, 'origHeight': 410, 'width': 410, 'height': 410, 'widthPercent': 0.45, 'rescaleHeight': False, 'trialN': 33, 'loaded': True, 'loadedTime': 52816.200000047684, 'positionName': 'RIGHT', 'positionCoords': [748.8, 245], 'bid': 5.2700000000000005}]",52812.39999997616,1669840296483,Grapes,sweetpotato,5.3100000000000005,5.2700000000000005,-0.040000000000000036,sweetpotato,1326.0,1331,1331.4000000953674,True,i,54647.700000047684,1835.3000000715256,1669840298318,1835,HRV,HRV_0294,2022-11-30 20:35:19
34,"[{'imgObject': {}, 'id': 'ice cream sundae 002', 'src': '/static/foodstim60/ice cream sundae 002.jpg', 'key': 'u', 'origWidth': 409, 'origHeight': 409, 'width': 409, 'height': 409, 'widthPercent': 0.45, 'rescaleHeight': False, 'trialN': 34, 'loaded': True, 'loadedTime': 54651.5, 'positionName': 'LEFT', 'positionCoords': [282.2, 245.5], 'bid': 6.8100000000000005}, {'imgObject': {}, 'id': 'apple slices', 'src': '/static/foodstim60/apple slices.jpg', 'key': 'i', 'origWidth': 409, 'origHeight': 410, 'width': 409, 'height': 410, 'widthPercent': 0.45, 'rescaleHeight': False, 'trialN': 34, 'loaded': True, 'loadedTime': 54652, 'positionName': 'RIGHT', 'positionCoords': [748.8, 245], 'bid': 7.18}]",54648.60000002384,1669840298319,ice cream sundae 002,apple slices,6.8100000000000005,7.18,0.3699999999999992,ice cream sundae 002,1412.8999999761581,1417,1417.3999999761581,True,u,56571.0,1922.3999999761581,1669840300241,1922,HRV,HRV_0294,2022-11-30 20:35:19
35,"[{'imgObject': {}, 'id': 'Tribe humus pita', 'src': '/static/foodstim60/Tribe humus pita.jpg', 'key': 'u', 'origWidth': 411, 'origHeight': 411, 'width': 411, 'height': 411, 'widthPercent': 0.45, 'rescaleHeight': False, 'trialN': 35, 'loaded': True, 'loadedTime': 56574.700000047684, 'positionName': 'LEFT', 'positionCoords': [280.2, 244.5], 'bid': 6.7700000000000005}, {'imgObject': {}, 'id': 'hotdog w must', 'src': '/static/foodstim60/hotdog w must.jpg', 'key': 'i', 'origWidth': 409, 'origHeight': 409, 'width': 409, 'height': 409, 'widthPercent': 0.45, 'rescaleHeight': False, 'trialN': 35, 'loaded': True, 'loadedTime': 56575.10000002384, 'positionName': 'RIGHT', 'positionCoords': [748.8, 245.5], 'bid': 9.26}]",56571.800000071526,1669840300242,Tribe humus pita,hotdog w must,6.7700000000000005,9.26,2.4899999999999993,hotdog w must,972.6999999284744,977,977.0999999046326,True,i,58053.800000071526,1482.0,1669840301724,1482,HRV,HRV_0294,2022-11-30 20:35:19
36,"[{'imgObject': {}, 'id': 'eggsalad', 'src': '/static/foodstim60/eggsalad.jpg', 'key': 'u', 'origWidth': 410, 'origHeight': 409, 'width': 410, 'height': 409, 'widthPercent': 0.45, 'rescaleHeight': False, 'trialN': 36, 'loaded': True, 'loadedTime': 58057.700000047684, 'positionName': 'LEFT', 'positionCoords': [281.2, 245.5], 'bid': 2.48}, {'imgObject': {}, 'id': 'baked potato', 'src': '/static/foodstim60/baked potato.jpg', 'key': 'i', 'origWidth': 409, 'origHeight': 410, 'width': 409, 'height': 410, 'widthPercent': 0.45, 'rescaleHeight': False, 'trialN': 36, 'loaded': True, 'loadedTime': 58058.10000002384, 'positionName': 'RIGHT', 'positionCoords': [748.8, 245], 'bid': 5.15}]",58054.60000002384,1669840301725,eggsalad,baked potato,2.48,5.15,2.6700000000000004,baked potato,834.8999999761581,839,839.3999999761581,True,i,59396.700000047684,1342.1000000238419,1669840303067,1342,HRV,HRV_0294,2022-11-30 20:35:19
37,"[{'imgObject': {}, 'id': 'fruitsalad', 'src': '/static/foodstim60/fruitsalad.jpg', 'key': 'u', 'origWidth': 410, 'origHeight': 410, 'width': 410, 'height': 410, 'widthPercent': 0.45, 'rescaleHeight': False, 'trialN': 37, 'loaded': True, 'loadedTime': 59400.39999997616, 'positionName': 'LEFT', 'positionCoords': [281.2, 245], 'bid': 7.22}, {'imgObject': {}, 'id': 'orange slices', 'src': '/static/foodstim60/orange slices.jpg', 'key': 'i', 'origWidth': 409, 'origHeight': 410, 'width': 409, 'height': 410, 'widthPercent': 0.45, 'rescaleHeight': False, 'trialN': 37, 'loaded': True, 'loadedTime': 59400.800000071526, 'positionName': 'RIGHT', 'positionCoords': [748.8, 245], 'bid': 6.79}]",59397.60000002384,1669840303068,fruitsalad,orange slices,7.22,6.79,-0.4299999999999997,fruitsalad,668.8999999761581,673,673.2999999523163,True,u,60575.800000071526,1178.2000000476837,1669840304246,1178,HRV,HRV_0294,2022-11-30 20:35:19
38,"[{'imgObject': {}, 'id': 'cantaloupe', 'src': '/static/foodstim60/cantaloupe.jpg', 'key': 'u', 'origWidth': 409, 'origHeight': 409, 'width': 409, 'height': 409, 'widthPercent': 0.45, 'rescaleHeight': False, 'trialN': 38, 'loaded': True, 'loadedTime': 60579.60000002384, 'positionName': 'LEFT', 'positionCoords': [282.2, 245.5], 'bid': 7.9}, {'imgObject': {}, 'id': 'sweetpotato', 'src': '/static/foodstim60/sweetpotato.jpg', 'key': 'i', 'origWidth': 410, 'origHeight': 410, 'width': 410, 'height': 410, 'widthPercent': 0.45, 'rescaleHeight': False, 'trialN': 38, 'loaded': True, 'loadedTime': 60580, 'positionName': 'RIGHT', 'positionCoords': [748.8, 245], 'bid': 5.2700000000000005}]",60576.60000002384,1669840304247,cantaloupe,sweetpotato,7.9,5.2700000000000005,-2.63,cantaloupe,992.2999999523163,997,997.1000000238419,True,u,62075.10000002384,1498.5,1669840305745,1498,HRV,HRV_0294,2022-11-30 20:35:19
39,"[{'imgObject': {}, 'id': 'Grapes', 'src': '/static/foodstim60/Grapes.jpg', 'key': 'u', 'origWidth': 411, 'origHeight': 411, 'width': 411, 'height': 411, 'widthPercent': 0.45, 'rescaleHeight': False, 'trialN': 39, 'loaded': True, 'loadedTime': 62078.700000047684, 'positionName': 'LEFT', 'positionCoords': [280.2, 244.5], 'bid': 5.3100000000000005}, {'imgObject': {}, 'id': 'strawberries', 'src': '/static/foodstim60/strawberries.jpg', 'key': 'i', 'origWidth': 410, 'origHeight': 410, 'width': 410, 'height': 410, 'widthPercent': 0.45, 'rescaleHeight': False, 'trialN': 39, 'loaded': True, 'loadedTime': 62078.89999997616, 'positionName': 'RIGHT', 'positionCoords': [748.8, 245], 'bid': 8.06}]",62075.89999997616,1669840305746,Grapes,strawberries,5.3100000000000005,8.06,2.75,strawberries,858.3000000715256,863,862.6000000238419,True,i,63443.200000047684,1367.3000000715256,1669840307113,1367,HRV,HRV_0294,2022-11-30 20:35:19
40,"[{'imgObject': {}, 'id': 'orange slices', 'src': '/static/foodstim60/orange slices.jpg', 'key': 'u', 'origWidth': 409, 'origHeight': 410, 'width': 409, 'height': 410, 'widthPercent': 0.45, 'rescaleHeight': False, 'trialN': 40, 'loaded': True, 'loadedTime': 63447.10000002384, 'positionName': 'LEFT', 'positionCoords': [282.2, 245], 'bid': 6.79}, {'imgObject': {}, 'id': 'seaweed', 'src': '/static/foodstim60/seaweed.jpg', 'key': 'i', 'origWidth': 410, 'origHeight': 410, 'width': 410, 'height': 410, 'widthPercent': 0.45, 'rescaleHeight': False, 'trialN': 40, 'loaded': True, 'loadedTime': 63447.39999997616, 'positionName': 'RIGHT', 'positionCoords': [748.8, 245], 'bid': 7.55}]",63444.10000002384,1669840307114,orange slices,seaweed,6.79,7.55,0.7599999999999998,seaweed,864.6000000238419,870,869.8999999761581,True,i,64814.39999997616,1370.2999999523163,1669840308484,1370,HRV,HRV_0294,2022-11-30 20:35:19
41,"[{'imgObject': {}, 'id': 'hotdog w must', 'src': '/static/foodstim60/hotdog w must.jpg', 'key': 'u', 'origWidth': 409, 'origHeight': 409, 'width': 409, 'height': 409, 'widthPercent': 0.45, 'rescaleHeight': False, 'trialN': 41, 'loaded': True, 'loadedTime': 64818.300000071526, 'positionName': 'LEFT', 'positionCoords': [282.2, 245.5], 'bid': 9.26}, {'imgObject': {}, 'id': 'tacos', 'src': '/static/foodstim60/tacos.jpg', 'key': 'i', 'origWidth': 411, 'origHeight': 411, 'width': 411, 'height': 411, 'widthPercent': 0.45, 'rescaleHeight': False, 'trialN': 41, 'loaded': True, 'loadedTime': 64818.700000047684, 'positionName': 'RIGHT', 'positionCoords': [748.8, 244.5], 'bid': 9.27}]",64815.200000047684,1669840308485,hotdog w must,tacos,9.26,9.27,0.009999999999999787,hotdog w must,979.5,984,984.1999999284744,True,u,66301.5,1486.2999999523163,1669840309972,1487,HRV,HRV_0294,2022-11-30 20:35:19
42,"[{'imgObject': {}, 'id': 'cantaloupe', 'src': '/static/foodstim60/cantaloupe.jpg', 'key': 'u', 'origWidth': 409, 'origHeight': 409, 'width': 409, 'height': 409, 'widthPercent': 0.45, 'rescaleHeight': False, 'trialN': 42, 'loaded': True, 'loadedTime': 66304.89999997616, 'positionName': 'LEFT', 'positionCoords': [282.2, 245.5], 'bid': 7.9}, {'imgObject': {}, 'id': 'chickenfingers', 'src': '/static/foodstim60/chickenfingers.jpg', 'key': 'i', 'origWidth': 410, 'origHeight': 410, 'width': 410, 'height': 410, 'widthPercent': 0.45, 'rescaleHeight': False, 'trialN': 42, 'loaded': True, 'loadedTime': 66305.30000007153, 'positionName': 'RIGHT', 'positionCoords': [748.8, 245], 'bid': 8.69}]",66302.39999997616,1669840309972,cantaloupe,chickenfingers,7.9,8.69,0.7899999999999991,chickenfingers,898.3000000715256,903,902.7000000476837,True,i,67707.80000007153,1405.4000000953674,1669840311378,1406,HRV,HRV_0294,2022-11-30 20:35:19
43,"[{'imgObject': {}, 'id': 'burger', 'src': '/static/foodstim60/burger.jpg', 'key': 'u', 'origWidth': 409, 'origHeight': 409, 'width': 409, 'height': 409, 'widthPercent': 0.45, 'rescaleHeight': False, 'trialN': 43, 'loaded': True, 'loadedTime': 67711.70000004768, 'positionName': 'LEFT', 'positionCoords': [282.2, 245.5], 'bid': 6.5200000000000005}, {'imgObject': {}, 'id': 'Grapes', 'src': '/static/foodstim60/Grapes.jpg', 'key': 'i', 'origWidth': 411, 'origHeight': 411, 'width': 411, 'height': 411, 'widthPercent': 0.45, 'rescaleHeight': False, 'trialN': 43, 'loaded': True, 'loadedTime': 67712.20000004768, 'positionName': 'RIGHT', 'positionCoords': [748.8, 244.5], 'bid': 5.3100000000000005}]",67708.70000004768,1669840311379,burger,Grapes,6.5200000000000005,5.3100000000000005,-1.21,Grapes,800.0,804,804.3999999761581,True,i,69013.5,1304.7999999523163,1669840312684,1305,HRV,HRV_0294,2022-11-30 20:35:19
44,"[{'imgObject': {}, 'id': 'granola w milk', 'src': '/static/foodstim60/granola w milk.jpg', 'key': 'u', 'origWidth': 410, 'origHeight': 410, 'width': 410, 'height': 410, 'widthPercent': 0.45, 'rescaleHeight': False, 'trialN': 44, 'loaded': True, 'loadedTime': 69017.5, 'positionName': 'LEFT', 'positionCoords': [281.2, 245], 'bid': 4.13}, {'imgObject': {}, 'id': 'eggs', 'src': '/static/foodstim60/eggs.jpg', 'key': 'i', 'origWidth': 409, 'origHeight': 409, 'width': 409, 'height': 409, 'widthPercent': 0.45, 'rescaleHeight': False, 'trialN': 44, 'loaded': True, 'loadedTime': 69017.89999997616, 'positionName': 'RIGHT', 'positionCoords': [748.8, 245.5], 'bid': 3.79}]",69014.39999997616,1669840312684,granola w milk,eggs,4.13,3.79,-0.33999999999999986,eggs,1010.3000000715256,1015,1014.8000000715256,True,i,70533.20000004768,1518.8000000715256,1669840314203,1519,HRV,HRV_0294,2022-11-30 20:35:19
45,"[{'imgObject': {}, 'id': 'avocado', 'src': '/static/foodstim60/avocado.jpg', 'key': 'u', 'origWidth': 409, 'origHeight': 409, 'width': 409, 'height': 409, 'widthPercent': 0.45, 'rescaleHeight': False, 'trialN': 45, 'loaded': True, 'loadedTime': 70534.70000004768, 'positionName': 'LEFT', 'positionCoords': [282.2, 245.5], 'bid': 5.62}, {'imgObject': {}, 'id': 'mashed potato', 'src': '/static/foodstim60/mashed potato.jpg', 'key': 'i', 'origWidth': 409, 'origHeight': 409, 'width': 409, 'height': 409, 'widthPercent': 0.45, 'rescaleHeight': False, 'trialN': 45, 'loaded': True, 'loadedTime': 70535, 'positionName': 'RIGHT', 'positionCoords': [748.8, 245.5], 'bid': 6.73}]",70533.70000004768,1669840314204,avocado,mashed potato,5.62,6.73,1.1100000000000003,mashed potato,1203.1000000238419,1207,1207.8999999761581,True,i,72246.10000002384,1712.3999999761581,1669840315916,1712,HRV,HRV_0294,2022-11-30 20:35:19
46,"[{'imgObject': {}, 'id': 'cantaloupe', 'src': '/static/foodstim60/cantaloupe.jpg', 'key': 'u', 'origWidth': 409, 'origHeight': 409, 'width': 409, 'height': 409, 'widthPercent': 0.45, 'rescaleHeight': False, 'trialN': 46, 'loaded': True, 'loadedTime': 72249.89999997616, 'positionName': 'LEFT', 'positionCoords': [282.2, 245.5], 'bid': 7.9}, {'imgObject': {}, 'id': 'raspberries', 'src': '/static/foodstim60/raspberries.jpg', 'key': 'i', 'origWidth': 411, 'origHeight': 411, 'width': 411, 'height': 411, 'widthPercent': 0.45, 'rescaleHeight': False, 'trialN': 46, 'loaded': True, 'loadedTime': 72250.39999997616, 'positionName': 'RIGHT', 'positionCoords': [748.8, 244.5], 'bid': 7.54}]",72246.89999997616,1669840315917,cantaloupe,raspberries,7.9,7.54,-0.3600000000000003,cantaloupe,672.0,676,676.7000000476837,True,u,73426.10000002384,1179.2000000476837,1669840317096,1179,HRV,HRV_0294,2022-11-30 20:35:19
47,"[{'imgObject': {}, 'id': 'avocado', 'src': '/static/foodstim60/avocado.jpg', 'key': 'u', 'origWidth': 409, 'origHeight': 409, 'width': 409, 'height': 409, 'widthPercent': 0.45, 'rescaleHeight': False, 'trialN': 47, 'loaded': True, 'loadedTime': 73429.70000004768, 'positionName': 'LEFT', 'positionCoords': [282.2, 245.5], 'bid': 5.62}, {'imgObject': {}, 'id': 'bagel and cc', 'src': '/static/foodstim60/bagel and cc.jpg', 'key': 'i', 'origWidth': 410, 'origHeight': 410, 'width': 410, 'height': 410, 'widthPercent': 0.45, 'rescaleHeight': False, 'trialN': 47, 'loaded': True, 'loadedTime': 73430.10000002384, 'positionName': 'RIGHT', 'positionCoords': [748.8, 245], 'bid': 6.41}]",73427.0,1669840317097,avocado,bagel and cc,5.62,6.41,0.79,bagel and cc,1040.2000000476837,1045,1045.3999999761581,True,i,74974.0,1547.0,1669840318644,1547,HRV,HRV_0294,2022-11-30 20:35:19
48,"[{'imgObject': {}, 'id': 'mango', 'src': '/static/foodstim60/mango.jpg', 'key': 'u', 'origWidth': 411, 'origHeight': 411, 'width': 411, 'height': 411, 'widthPercent': 0.45, 'rescaleHeight': False, 'trialN': 48, 'loaded': True, 'loadedTime': 74977.20000004768, 'positionName': 'LEFT', 'positionCoords': [280.2, 244.5], 'bid': 3.45}, {'imgObject': {}, 'id': 'popsicles', 'src': '/static/foodstim60/popsicles.jpg', 'key': 'i', 'origWidth': 410, 'origHeight': 410, 'width': 410, 'height': 410, 'widthPercent': 0.45, 'rescaleHeight': False, 'trialN': 48, 'loaded': True, 'loadedTime': 74977.60000002384, 'positionName': 'RIGHT', 'positionCoords': [748.8, 245], 'bid': 4.91}]",74974.80000007153,1669840318645,mango,popsicles,3.45,4.91,1.46,popsicles,837.0,842,842.0,True,i,76317.70000004768,1342.8999999761581,1669840319987,1342,HRV,HRV_0294,2022-11-30 20:35:19
49,"[{'imgObject': {}, 'id': 'kiwi', 'src': '/static/foodstim60/kiwi.jpg', 'key': 'u', 'origWidth': 410, 'origHeight': 410, 'width': 410, 'height': 410, 'widthPercent': 0.45, 'rescaleHeight': False, 'trialN': 49, 'loaded': True, 'loadedTime': 76321.30000007153, 'positionName': 'LEFT', 'positionCoords': [281.2, 245], 'bid': 8.11}, {'imgObject': {}, 'id': 'salmon', 'src': '/static/foodstim60/salmon.jpg', 'key': 'i', 'origWidth': 410, 'origHeight': 409, 'width': 410, 'height': 409, 'widthPercent': 0.45, 'rescaleHeight': False, 'trialN': 49, 'loaded': True, 'loadedTime': 76322, 'positionName': 'RIGHT', 'positionCoords': [748.8, 245.5], 'bid': 7.73}]",76318.5,1669840319988,kiwi,salmon,8.11,7.73,-0.379999999999999,kiwi,1018.1000000238419,1023,1022.5,True,u,77846.0,1527.5,1669840321516,1528,HRV,HRV_0294,2022-11-30 20:35:19
50,"[{'imgObject': {}, 'id': 'sushi w_condiments', 'src': '/static/foodstim60/sushi w_condiments.jpg', 'key': 'u', 'origWidth': 410, 'origHeight': 410, 'width': 410, 'height': 410, 'widthPercent': 0.45, 'rescaleHeight': False, 'trialN': 50, 'loaded': True, 'loadedTime': 77850, 'positionName': 'LEFT', 'positionCoords': [281.2, 245], 'bid': 8.540000000000001}, {'imgObject': {}, 'id': 'chicken nuggets2', 'src': '/static/foodstim60/chicken nuggets2.jpg', 'key': 'i', 'origWidth': 410, 'origHeight': 409, 'width': 410, 'height': 409, 'widthPercent': 0.45, 'rescaleHeight': False, 'trialN': 50, 'loaded': True, 'loadedTime': 77850.39999997616, 'positionName': 'RIGHT', 'positionCoords': [748.8, 245.5], 'bid': 8.56}]",77846.89999997616,1669840321517,sushi w_condiments,chicken nuggets2,8.540000000000001,8.56,0.019999999999999574,sushi w_condiments,934.7000000476837,939,939.1000000238419,True,u,79291.10000002384,1444.2000000476837,1669840322961,1444,HRV,HRV_0294,2022-11-30 20:35:19
51,"[{'imgObject': {}, 'id': 'ice cream sundae 002', 'src': '/static/foodstim60/ice cream sundae 002.jpg', 'key': 'u', 'origWidth': 409, 'origHeight': 409, 'width': 409, 'height': 409, 'widthPercent': 0.45, 'rescaleHeight': False, 'trialN': 51, 'loaded': True, 'loadedTime': 79294.89999997616, 'positionName': 'LEFT', 'positionCoords': [282.2, 245.5], 'bid': 6.8100000000000005}, {'imgObject': {}, 'id': 'mac & cheese', 'src': '/static/foodstim60/mac & cheese.jpg', 'key': 'i', 'origWidth': 410, 'origHeight': 410, 'width': 410, 'height': 410, 'widthPercent': 0.45, 'rescaleHeight': False, 'trialN': 51, 'loaded': True, 'loadedTime': 79295.30000007153, 'positionName': 'RIGHT', 'positionCoords': [748.8, 245], 'bid': 9.91}]",79291.89999997616,1669840322961,ice cream sundae 002,mac & cheese,6.8100000000000005,9.91,3.0999999999999996,mac & cheese,714.9000000953674,720,719.4000000953674,True,i,80513.0,1221.1000000238419,1669840324183,1222,HRV,HRV_0294,2022-11-30 20:35:19
52,"[{'imgObject': {}, 'id': 'cocktailshrimp', 'src': '/static/foodstim60/cocktailshrimp.jpg', 'key': 'u', 'origWidth': 410, 'origHeight': 410, 'width': 410, 'height': 410, 'widthPercent': 0.45, 'rescaleHeight': False, 'trialN': 52, 'loaded': True, 'loadedTime': 80516.89999997616, 'positionName': 'LEFT', 'positionCoords': [281.2, 245], 'bid': 8.73}, {'imgObject': {}, 'id': 'mac & cheese', 'src': '/static/foodstim60/mac & cheese.jpg', 'key': 'i', 'origWidth': 410, 'origHeight': 410, 'width': 410, 'height': 410, 'widthPercent': 0.45, 'rescaleHeight': False, 'trialN': 52, 'loaded': True, 'loadedTime': 80517.30000007153, 'positionName': 'RIGHT', 'positionCoords': [748.8, 245], 'bid': 9.91}]",80513.89999997616,1669840324183,cocktailshrimp,mac & cheese,8.73,9.91,1.1799999999999997,mac & cheese,1305.6000000238419,1310,1309.4000000953674,True,i,82324.0,1810.1000000238419,1669840325993,1810,HRV,HRV_0294,2022-11-30 20:35:19
53,"[{'imgObject': {}, 'id': 'froot loops w milk', 'src': '/static/foodstim60/froot loops w milk.jpg', 'key': 'u', 'origWidth': 410, 'origHeight': 410, 'width': 410, 'height': 410, 'widthPercent': 0.45, 'rescaleHeight': False, 'trialN': 53, 'loaded': True, 'loadedTime': 82327.60000002384, 'positionName': 'LEFT', 'positionCoords': [281.2, 245], 'bid': 6.9}, {'imgObject': {}, 'id': 'burger', 'src': '/static/foodstim60/burger.jpg', 'key': 'i', 'origWidth': 409, 'origHeight': 409, 'width': 409, 'height': 409, 'widthPercent': 0.45, 'rescaleHeight': False, 'trialN': 53, 'loaded': True, 'loadedTime': 82328, 'positionName': 'RIGHT', 'positionCoords': [748.8, 245.5], 'bid': 6.5200000000000005}]",82324.80000007153,1669840325994,froot loops w milk,burger,6.9,6.5200000000000005,-0.3799999999999999,froot loops w milk,1093.7999999523163,1097,1096.8999999761581,True,u,83923.60000002384,1598.7999999523163,1669840327593,1599,HRV,HRV_0294,2022-11-30 20:35:19
54,"[{'imgObject': {}, 'id': 'ice cream sundae 002', 'src': '/static/foodstim60/ice cream sundae 002.jpg', 'key': 'u', 'origWidth': 409, 'origHeight': 409, 'width': 409, 'height': 409, 'widthPercent': 0.45, 'rescaleHeight': False, 'trialN': 54, 'loaded': True, 'loadedTime': 83927.39999997616, 'positionName': 'LEFT', 'positionCoords': [282.2, 245.5], 'bid': 6.8100000000000005}, {'imgObject': {}, 'id': 'turkeysandwich', 'src': '/static/foodstim60/turkeysandwich.jpg', 'key': 'i', 'origWidth': 409, 'origHeight': 409, 'width': 409, 'height': 409, 'widthPercent': 0.45, 'rescaleHeight': False, 'trialN': 54, 'loaded': True, 'loadedTime': 83927.80000007153, 'positionName': 'RIGHT', 'positionCoords': [748.8, 245.5], 'bid': 7.62}]",83924.5,1669840327594,ice cream sundae 002,turkeysandwich,6.8100000000000005,7.62,0.8099999999999996,turkeysandwich,1146.8999999761581,1151,1151.2000000476837,True,i,85580.70000004768,1656.2000000476837,1669840329250,1656,HRV,HRV_0294,2022-11-30 20:35:19
55,"[{'imgObject': {}, 'id': 'orange slices', 'src': '/static/foodstim60/orange slices.jpg', 'key': 'u', 'origWidth': 409, 'origHeight': 410, 'width': 409, 'height': 410, 'widthPercent': 0.45, 'rescaleHeight': False, 'trialN': 55, 'loaded': True, 'loadedTime': 85584.70000004768, 'positionName': 'LEFT', 'positionCoords': [282.2, 245], 'bid': 6.79}, {'imgObject': {}, 'id': 'tacos', 'src': '/static/foodstim60/tacos.jpg', 'key': 'i', 'origWidth': 411, 'origHeight': 411, 'width': 411, 'height': 411, 'widthPercent': 0.45, 'rescaleHeight': False, 'trialN': 55, 'loaded': True, 'loadedTime': 85585.10000002384, 'positionName': 'RIGHT', 'positionCoords': [748.8, 244.5], 'bid': 9.27}]",85581.60000002384,1669840329251,orange slices,tacos,6.79,9.27,2.4799999999999995,tacos,890.2999999523163,895,894.8999999761581,True,i,86979.89999997616,1398.2999999523163,1669840330649,1398,HRV,HRV_0294,2022-11-30 20:35:19
56,"[{'imgObject': {}, 'id': 'roastedpotatoes', 'src': '/static/foodstim60/roastedpotatoes.jpg', 'key': 'u', 'origWidth': 409, 'origHeight': 410, 'width': 409, 'height': 410, 'widthPercent': 0.45, 'rescaleHeight': False, 'trialN': 56, 'loaded': True, 'loadedTime': 86983.89999997616, 'positionName': 'LEFT', 'positionCoords': [282.2, 245], 'bid': 6.55}, {'imgObject': {}, 'id': 'blackbeanswithrice', 'src': '/static/foodstim60/blackbeanswithrice.jpg', 'key': 'i', 'origWidth': 410, 'origHeight': 410, 'width': 410, 'height': 410, 'widthPercent': 0.45, 'rescaleHeight': False, 'trialN': 56, 'loaded': True, 'loadedTime': 86984.30000007153, 'positionName': 'RIGHT', 'positionCoords': [748.8, 245], 'bid': 5.61}]",86980.89999997616,1669840330650,roastedpotatoes,blackbeanswithrice,6.55,5.61,-0.9399999999999995,roastedpotatoes,1146.0,1150,1149.9000000953674,True,u,88635.5,1654.6000000238419,1669840332305,1655,HRV,HRV_0294,2022-11-30 20:35:19
57,"[{'imgObject': {}, 'id': 'cocktailshrimp', 'src': '/static/foodstim60/cocktailshrimp.jpg', 'key': 'u', 'origWidth': 410, 'origHeight': 410, 'width': 410, 'height': 410, 'widthPercent': 0.45, 'rescaleHeight': False, 'trialN': 57, 'loaded': True, 'loadedTime': 88636.80000007153, 'positionName': 'LEFT', 'positionCoords': [281.2, 245], 'bid': 8.73}, {'imgObject': {}, 'id': 'chickenfingers', 'src': '/static/foodstim60/chickenfingers.jpg', 'key': 'i', 'origWidth': 410, 'origHeight': 410, 'width': 410, 'height': 410, 'widthPercent': 0.45, 'rescaleHeight': False, 'trialN': 57, 'loaded': True, 'loadedTime': 88637, 'positionName': 'RIGHT', 'positionCoords': [748.8, 245], 'bid': 8.69}]",88635.89999997616,1669840332305,cocktailshrimp,chickenfingers,8.73,8.69,-0.040000000000000924,chickenfingers,1082.0,1086,1086.3000000715256,True,i,90223.89999997616,1588.0,1669840333893,1588,HRV,HRV_0294,2022-11-30 20:35:19
58,"[{'imgObject': {}, 'id': 'steak', 'src': '/static/foodstim60/steak.jpg', 'key': 'u', 'origWidth': 410, 'origHeight': 410, 'width': 410, 'height': 410, 'widthPercent': 0.45, 'rescaleHeight': False, 'trialN': 58, 'loaded': True, 'loadedTime': 90227.80000007153, 'positionName': 'LEFT', 'positionCoords': [281.2, 245], 'bid': 9.83}, {'imgObject': {}, 'id': 'chickenfingers', 'src': '/static/foodstim60/chickenfingers.jpg', 'key': 'i', 'origWidth': 410, 'origHeight': 410, 'width': 410, 'height': 410, 'widthPercent': 0.45, 'rescaleHeight': False, 'trialN': 58, 'loaded': True, 'loadedTime': 90228.20000004768, 'positionName': 'RIGHT', 'positionCoords': [748.8, 245], 'bid': 8.69}]",90224.89999997616,1669840333894,steak,chickenfingers,9.83,8.69,-1.1400000000000006,steak,668.8000000715256,673,673.1000000238419,True,u,91403.0,1178.1000000238419,1669840335072,1178,HRV,HRV_0294,2022-11-30 20:35:19
59,"[{'imgObject': {}, 'id': 'hotdog w must', 'src': '/static/foodstim60/hotdog w must.jpg', 'key': 'u', 'origWidth': 409, 'origHeight': 409, 'width': 409, 'height': 409, 'widthPercent': 0.45, 'rescaleHeight': False, 'trialN': 59, 'loaded': True, 'loadedTime': 91406.30000007153, 'positionName': 'LEFT', 'positionCoords': [282.2, 245.5], 'bid': 9.26}, {'imgObject': {}, 'id': 'sushi w_condiments', 'src': '/static/foodstim60/sushi w_condiments.jpg', 'key': 'i', 'origWidth': 410, 'origHeight': 410, 'width': 410, 'height': 410, 'widthPercent': 0.45, 'rescaleHeight': False, 'trialN': 59, 'loaded': True, 'loadedTime': 91406.80000007153, 'positionName': 'RIGHT', 'positionCoords': [748.8, 245], 'bid': 8.540000000000001}]",91403.80000007153,1669840335073,hotdog w must,sushi w_condiments,9.26,8.540000000000001,-0.7199999999999989,sushi w_condiments,1195.5999999046326,1199,1199.0999999046326,True,i,93107.0,1703.1999999284744,1669840336776,1703,HRV,HRV_0294,2022-11-30 20:35:19
60,"[{'imgObject': {}, 'id': 'chicken nuggets2', 'src': '/static/foodstim60/chicken nuggets2.jpg', 'key': 'u', 'origWidth': 410, 'origHeight': 409, 'width': 410, 'height': 409, 'widthPercent': 0.45, 'rescaleHeight': False, 'trialN': 60, 'loaded': True, 'loadedTime': 93110.80000007153, 'positionName': 'LEFT', 'positionCoords': [281.2, 245.5], 'bid': 8.56}, {'imgObject': {}, 'id': 'omelette', 'src': '/static/foodstim60/omelette.jpg', 'key': 'i', 'origWidth': 410, 'origHeight': 409, 'width': 410, 'height': 409, 'widthPercent': 0.45, 'rescaleHeight': False, 'trialN': 60, 'loaded': True, 'loadedTime': 93111.20000004768, 'positionName': 'RIGHT', 'positionCoords': [748.8, 245.5], 'bid': 8.51}]",93107.89999997616,1669840336777,chicken nuggets2,omelette,8.56,8.51,-0.05000000000000071,chicken nuggets2,887.9000000953674,892,892.2000000476837,True,u,94503.0,1395.1000000238419,1669840338172,1395,HRV,HRV_0294,2022-11-30 20:35:19
61,"[{'imgObject': {}, 'id': 'Grapes', 'src': '/static/foodstim60/Grapes.jpg', 'key': 'u', 'origWidth': 411, 'origHeight': 411, 'width': 411, 'height': 411, 'widthPercent': 0.45, 'rescaleHeight': False, 'trialN': 61, 'loaded': True, 'loadedTime': 94506.80000007153, 'positionName': 'LEFT', 'positionCoords': [280.2, 244.5], 'bid': 5.3100000000000005}, {'imgObject': {}, 'id': 'eggs', 'src': '/static/foodstim60/eggs.jpg', 'key': 'i', 'origWidth': 409, 'origHeight': 409, 'width': 409, 'height': 409, 'widthPercent': 0.45, 'rescaleHeight': False, 'trialN': 61, 'loaded': True, 'loadedTime': 94507.20000004768, 'positionName': 'RIGHT', 'positionCoords': [748.8, 245.5], 'bid': 3.79}]",94503.80000007153,1669840338173,Grapes,eggs,5.3100000000000005,3.79,-1.5200000000000005,Grapes,1252.0,1257,1256.7999999523163,True,u,96265.60000002384,1761.7999999523163,1669840339935,1762,HRV,HRV_0294,2022-11-30 20:35:19
62,"[{'imgObject': {}, 'id': 'raspberries', 'src': '/static/foodstim60/raspberries.jpg', 'key': 'u', 'origWidth': 411, 'origHeight': 411, 'width': 411, 'height': 411, 'widthPercent': 0.45, 'rescaleHeight': False, 'trialN': 62, 'loaded': True, 'loadedTime': 96269.39999997616, 'positionName': 'LEFT', 'positionCoords': [280.2, 244.5], 'bid': 7.54}, {'imgObject': {}, 'id': 'granola w milk', 'src': '/static/foodstim60/granola w milk.jpg', 'key': 'i', 'origWidth': 410, 'origHeight': 410, 'width': 410, 'height': 410, 'widthPercent': 0.45, 'rescaleHeight': False, 'trialN': 62, 'loaded': True, 'loadedTime': 96269.80000007153, 'positionName': 'RIGHT', 'positionCoords': [748.8, 245], 'bid': 4.13}]",96266.5,1669840339935,raspberries,granola w milk,7.54,4.13,-3.41,raspberries,1277.1000000238419,1281,1280.8000000715256,True,u,98051.10000002384,1784.6000000238419,1669840341720,1785,HRV,HRV_0294,2022-11-30 20:35:19
63,"[{'imgObject': {}, 'id': 'omelette', 'src': '/static/foodstim60/omelette.jpg', 'key': 'u', 'origWidth': 410, 'origHeight': 409, 'width': 410, 'height': 409, 'widthPercent': 0.45, 'rescaleHeight': False, 'trialN': 63, 'loaded': True, 'loadedTime': 98055, 'positionName': 'LEFT', 'positionCoords': [281.2, 245.5], 'bid': 8.51}, {'imgObject': {}, 'id': 'mac & cheese', 'src': '/static/foodstim60/mac & cheese.jpg', 'key': 'i', 'origWidth': 410, 'origHeight': 410, 'width': 410, 'height': 410, 'widthPercent': 0.45, 'rescaleHeight': False, 'trialN': 63, 'loaded': True, 'loadedTime': 98055.5, 'positionName': 'RIGHT', 'positionCoords': [748.8, 245], 'bid': 9.91}]",98052.10000002384,1669840341721,omelette,mac & cheese,8.51,9.91,1.4000000000000004,mac & cheese,845.0,849,848.8999999761581,True,i,99405.39999997616,1353.2999999523163,1669840343074,1353,HRV,HRV_0294,2022-11-30 20:35:19
64,"[{'imgObject': {}, 'id': 'chicken nuggets2', 'src': '/static/foodstim60/chicken nuggets2.jpg', 'key': 'u', 'origWidth': 410, 'origHeight': 409, 'width': 410, 'height': 409, 'widthPercent': 0.45, 'rescaleHeight': False, 'trialN': 64, 'loaded': True, 'loadedTime': 99409.30000007153, 'positionName': 'LEFT', 'positionCoords': [281.2, 245.5], 'bid': 8.56}, {'imgObject': {}, 'id': 'turkey sandwich', 'src': '/static/foodstim60/turkey sandwich.jpg', 'key': 'i', 'origWidth': 409, 'origHeight': 409, 'width': 409, 'height': 409, 'widthPercent': 0.45, 'rescaleHeight': False, 'trialN': 64, 'loaded': True, 'loadedTime': 99409.80000007153, 'positionName': 'RIGHT', 'positionCoords': [748.8, 245.5], 'bid': 7.75}]",99406.30000007153,1669840343075,chicken nuggets2,turkey sandwich,8.56,7.75,-0.8100000000000005,chicken nuggets2,1461.5999999046326,1466,1466.1999999284744,True,u,101374.0,1967.6999999284744,1669840345043,1968,HRV,HRV_0294,2022-11-30 20:35:19
65,"[{'imgObject': {}, 'id': 'salad w chicken', 'src': '/static/foodstim60/salad w chicken.jpg', 'key': 'u', 'origWidth': 411, 'origHeight': 411, 'width': 411, 'height': 411, 'widthPercent': 0.45, 'rescaleHeight': False, 'trialN': 65, 'loaded': True, 'loadedTime': 101377.60000002384, 'positionName': 'LEFT', 'positionCoords': [280.2, 244.5], 'bid': 9.15}, {'imgObject': {}, 'id': 'lox', 'src': '/static/foodstim60/lox.jpg', 'key': 'i', 'origWidth': 410, 'origHeight': 411, 'width': 410, 'height': 411, 'widthPercent': 0.45, 'rescaleHeight': False, 'trialN': 65, 'loaded': True, 'loadedTime': 101378.10000002384, 'positionName': 'RIGHT', 'positionCoords': [748.8, 244.5], 'bid': 8.26}]",101374.80000007153,1669840345044,salad w chicken,lox,9.15,8.26,-0.8900000000000006,salad w chicken,734.2999999523163,738,738.8999999761581,True,u,102615.10000002384,1240.2999999523163,1669840346284,1240,HRV,HRV_0294,2022-11-30 20:35:19
66,"[{'imgObject': {}, 'id': 'banana', 'src': '/static/foodstim60/banana.jpg', 'key': 'u', 'origWidth': 410, 'origHeight': 410, 'width': 410, 'height': 410, 'widthPercent': 0.45, 'rescaleHeight': False, 'trialN': 66, 'loaded': True, 'loadedTime': 102618.89999997616, 'positionName': 'LEFT', 'positionCoords': [281.2, 245], 'bid': 7.59}, {'imgObject': {}, 'id': 'popsicles', 'src': '/static/foodstim60/popsicles.jpg', 'key': 'i', 'origWidth': 410, 'origHeight': 410, 'width': 410, 'height': 410, 'widthPercent': 0.45, 'rescaleHeight': False, 'trialN': 66, 'loaded': True, 'loadedTime': 102619.30000007153, 'positionName': 'RIGHT', 'positionCoords': [748.8, 245], 'bid': 4.91}]",102615.89999997616,1669840346285,banana,popsicles,7.59,4.91,-2.6799999999999997,banana,814.1000000238419,818,818.7000000476837,True,u,103936.80000007153,1320.9000000953674,1669840347605,1320,HRV,HRV_0294,2022-11-30 20:35:19
67,"[{'imgObject': {}, 'id': 'cherries', 'src': '/static/foodstim60/cherries.jpg', 'key': 'u', 'origWidth': 410, 'origHeight': 411, 'width': 410, 'height': 411, 'widthPercent': 0.45, 'rescaleHeight': False, 'trialN': 67, 'loaded': True, 'loadedTime': 103941.20000004768, 'positionName': 'LEFT', 'positionCoords': [281.2, 244.5], 'bid': 3.91}, {'imgObject': {}, 'id': 'cheerios', 'src': '/static/foodstim60/cheerios.jpg', 'key': 'i', 'origWidth': 409, 'origHeight': 410, 'width': 409, 'height': 410, 'widthPercent': 0.45, 'rescaleHeight': False, 'trialN': 67, 'loaded': True, 'loadedTime': 103941.89999997616, 'positionName': 'RIGHT', 'positionCoords': [748.8, 245], 'bid': 5.5}]",103937.70000004768,1669840347606,cherries,cheerios,3.91,5.5,1.5899999999999999,cheerios,953.1999999284744,957,957.1999999284744,True,i,105396.60000002384,1458.8999999761581,1669840349065,1459,HRV,HRV_0294,2022-11-30 20:35:19
68,"[{'imgObject': {}, 'id': 'sushi w_condiments', 'src': '/static/foodstim60/sushi w_condiments.jpg', 'key': 'u', 'origWidth': 410, 'origHeight': 410, 'width': 410, 'height': 410, 'widthPercent': 0.45, 'rescaleHeight': False, 'trialN': 68, 'loaded': True, 'loadedTime': 105400.5, 'positionName': 'LEFT', 'positionCoords': [281.2, 245], 'bid': 8.540000000000001}, {'imgObject': {}, 'id': 'yogurt no spoon', 'src': '/static/foodstim60/yogurt no spoon.jpg', 'key': 'i', 'origWidth': 411, 'origHeight': 410, 'width': 411, 'height': 410, 'widthPercent': 0.45, 'rescaleHeight': False, 'trialN': 68, 'loaded': True, 'loadedTime': 105400.80000007153, 'positionName': 'RIGHT', 'positionCoords': [748.8, 245], 'bid': 7.48}]",105397.39999997616,1669840349066,sushi w_condiments,yogurt no spoon,8.540000000000001,7.48,-1.0600000000000005,sushi w_condiments,1048.7000000476837,1053,1053.5,True,u,106954.60000002384,1557.2000000476837,1669840350623,1557,HRV,HRV_0294,2022-11-30 20:35:19
69,"[{'imgObject': {}, 'id': 'salad w chicken', 'src': '/static/foodstim60/salad w chicken.jpg', 'key': 'u', 'origWidth': 411, 'origHeight': 411, 'width': 411, 'height': 411, 'widthPercent': 0.45, 'rescaleHeight': False, 'trialN': 69, 'loaded': True, 'loadedTime': 106958.5, 'positionName': 'LEFT', 'positionCoords': [280.2, 244.5], 'bid': 9.15}, {'imgObject': {}, 'id': 'burrito', 'src': '/static/foodstim60/burrito.jpg', 'key': 'i', 'origWidth': 410, 'origHeight': 410, 'width': 410, 'height': 410, 'widthPercent': 0.45, 'rescaleHeight': False, 'trialN': 69, 'loaded': True, 'loadedTime': 106958.89999997616, 'positionName': 'RIGHT', 'positionCoords': [748.8, 245], 'bid': 9.26}]",106955.5,1669840350624,salad w chicken,burrito,9.15,9.26,0.10999999999999943,burrito,1319.7000000476837,1324,1323.8000000715256,True,i,108780.10000002384,1824.6000000238419,1669840352449,1825,HRV,HRV_0294,2022-11-30 20:35:19
70,"[{'imgObject': {}, 'id': 'edamame', 'src': '/static/foodstim60/edamame.jpg', 'key': 'u', 'origWidth': 409, 'origHeight': 410, 'width': 409, 'height': 410, 'widthPercent': 0.45, 'rescaleHeight': False, 'trialN': 70, 'loaded': True, 'loadedTime': 108783.89999997616, 'positionName': 'LEFT', 'positionCoords': [282.2, 245], 'bid': 6.8}, {'imgObject': {}, 'id': 'banana', 'src': '/static/foodstim60/banana.jpg', 'key': 'i', 'origWidth': 410, 'origHeight': 410, 'width': 410, 'height': 410, 'widthPercent': 0.45, 'rescaleHeight': False, 'trialN': 70, 'loaded': True, 'loadedTime': 108784.30000007153, 'positionName': 'RIGHT', 'positionCoords': [748.8, 245], 'bid': 7.59}]",108781.0,1669840352449,edamame,banana,6.8,7.59,0.79,edamame,796.0,801,800.3999999761581,True,u,110086.39999997616,1305.3999999761581,1669840353755,1306,HRV,HRV_0294,2022-11-30 20:35:19
71,"[{'imgObject': {}, 'id': 'rigatoni and sauce', 'src': '/static/foodstim60/rigatoni and sauce.jpg', 'key': 'u', 'origWidth': 410, 'origHeight': 411, 'width': 410, 'height': 411, 'widthPercent': 0.45, 'rescaleHeight': False, 'trialN': 71, 'loaded': True, 'loadedTime': 110090.30000007153, 'positionName': 'LEFT', 'positionCoords': [281.2, 244.5], 'bid': 8.120000000000001}, {'imgObject': {}, 'id': 'kiwi', 'src': '/static/foodstim60/kiwi.jpg', 'key': 'i', 'origWidth': 410, 'origHeight': 410, 'width': 410, 'height': 410, 'widthPercent': 0.45, 'rescaleHeight': False, 'trialN': 71, 'loaded': True, 'loadedTime': 110090.60000002384, 'positionName': 'RIGHT', 'positionCoords': [748.8, 245], 'bid': 8.11}]",110087.39999997616,1669840353756,rigatoni and sauce,kiwi,8.120000000000001,8.11,-0.010000000000001563,kiwi,1231.8000000715256,1236,1236.1000000238419,True,i,111825.89999997616,1738.5,1669840355494,1738,HRV,HRV_0294,2022-11-30 20:35:19
72,"[{'imgObject': {}, 'id': 'omelette', 'src': '/static/foodstim60/omelette.jpg', 'key': 'u', 'origWidth': 410, 'origHeight': 409, 'width': 410, 'height': 409, 'widthPercent': 0.45, 'rescaleHeight': False, 'trialN': 72, 'loaded': True, 'loadedTime': 111829.80000007153, 'positionName': 'LEFT', 'positionCoords': [281.2, 245.5], 'bid': 8.51}, {'imgObject': {}, 'id': 'burrito', 'src': '/static/foodstim60/burrito.jpg', 'key': 'i', 'origWidth': 410, 'origHeight': 410, 'width': 410, 'height': 410, 'widthPercent': 0.45, 'rescaleHeight': False, 'trialN': 72, 'loaded': True, 'loadedTime': 111830.20000004768, 'positionName': 'RIGHT', 'positionCoords': [748.8, 245], 'bid': 9.26}]",111826.80000007153,1669840355495,omelette,burrito,8.51,9.26,0.75,burrito,1010.5999999046326,1016,1015.6999999284744,True,i,113345.60000002384,1518.7999999523163,1669840357014,1519,HRV,HRV_0294,2022-11-30 20:35:19
73,"[{'imgObject': {}, 'id': 'strawberries', 'src': '/static/foodstim60/strawberries.jpg', 'key': 'u', 'origWidth': 410, 'origHeight': 410, 'width': 410, 'height': 410, 'widthPercent': 0.45, 'rescaleHeight': False, 'trialN': 73, 'loaded': True, 'loadedTime': 113349.5, 'positionName': 'LEFT', 'positionCoords': [281.2, 245], 'bid': 8.06}, {'imgObject': {}, 'id': 'grilled chicken strips', 'src': '/static/foodstim60/grilled chicken strips.jpg', 'key': 'i', 'origWidth': 410, 'origHeight': 411, 'width': 410, 'height': 411, 'widthPercent': 0.45, 'rescaleHeight': False, 'trialN': 73, 'loaded': True, 'loadedTime': 113350, 'positionName': 'RIGHT', 'positionCoords': [748.8, 244.5], 'bid': 8.08}]",113346.5,1669840357015,strawberries,grilled chicken strips,8.06,8.08,0.019999999999999574,strawberries,1440.7000000476837,1445,1444.8999999761581,True,u,115291.80000007153,1945.3000000715256,1669840358960,1945,HRV,HRV_0294,2022-11-30 20:35:19
74,"[{'imgObject': {}, 'id': 'apple slices', 'src': '/static/foodstim60/apple slices.jpg', 'key': 'u', 'origWidth': 409, 'origHeight': 410, 'width': 409, 'height': 410, 'widthPercent': 0.45, 'rescaleHeight': False, 'trialN': 74, 'loaded': True, 'loadedTime': 115295.5, 'positionName': 'LEFT', 'positionCoords': [282.2, 245], 'bid': 7.18}, {'imgObject': {}, 'id': 'luckycharms', 'src': '/static/foodstim60/luckycharms.jpg', 'key': 'i', 'origWidth': 410, 'origHeight': 409, 'width': 410, 'height': 409, 'widthPercent': 0.45, 'rescaleHeight': False, 'trialN': 74, 'loaded': True, 'loadedTime': 115295.89999997616, 'positionName': 'RIGHT', 'positionCoords': [748.8, 245.5], 'bid': 6.55}]",115292.60000002384,1669840358961,apple slices,luckycharms,7.18,6.55,-0.6299999999999999,apple slices,1152.5,1157,1156.8999999761581,True,u,116950.20000004768,1657.6000000238419,1669840360618,1657,HRV,HRV_0294,2022-11-30 20:35:19
75,"[{'imgObject': {}, 'id': 'turkey sandwich', 'src': '/static/foodstim60/turkey sandwich.jpg', 'key': 'u', 'origWidth': 409, 'origHeight': 409, 'width': 409, 'height': 409, 'widthPercent': 0.45, 'rescaleHeight': False, 'trialN': 75, 'loaded': True, 'loadedTime': 116954.10000002384, 'positionName': 'LEFT', 'positionCoords': [282.2, 245.5], 'bid': 7.75}, {'imgObject': {}, 'id': 'fried eggs', 'src': '/static/foodstim60/fried eggs.jpg', 'key': 'i', 'origWidth': 410, 'origHeight': 410, 'width': 410, 'height': 410, 'widthPercent': 0.45, 'rescaleHeight': False, 'trialN': 75, 'loaded': True, 'loadedTime': 116954.39999997616, 'positionName': 'RIGHT', 'positionCoords': [748.8, 245], 'bid': 8}]",116951.0,1669840360619,turkey sandwich,fried eggs,7.75,8.0,0.25,fried eggs,1759.5,1765,1764.8000000715256,True,i,119216.10000002384,2265.100000023842,1669840362884,2265,HRV,HRV_0294,2022-11-30 20:35:19
76,"[{'imgObject': {}, 'id': 'burger', 'src': '/static/foodstim60/burger.jpg', 'key': 'u', 'origWidth': 409, 'origHeight': 409, 'width': 409, 'height': 409, 'widthPercent': 0.45, 'rescaleHeight': False, 'trialN': 76, 'loaded': True, 'loadedTime': 119220.20000004768, 'positionName': 'LEFT', 'positionCoords': [282.2, 245.5], 'bid': 6.5200000000000005}, {'imgObject': {}, 'id': 'cherries', 'src': '/static/foodstim60/cherries.jpg', 'key': 'i', 'origWidth': 410, 'origHeight': 411, 'width': 410, 'height': 411, 'widthPercent': 0.45, 'rescaleHeight': False, 'trialN': 76, 'loaded': True, 'loadedTime': 119220.70000004768, 'positionName': 'RIGHT', 'positionCoords': [748.8, 244.5], 'bid': 3.91}]",119217.0,1669840362885,burger,cherries,6.5200000000000005,3.91,-2.6100000000000003,cherries,925.6000000238419,930,930.3000000715256,True,i,120652.30000007153,1435.3000000715256,1669840364320,1435,HRV,HRV_0294,2022-11-30 20:35:19
77,"[{'imgObject': {}, 'id': 'cocktailshrimp', 'src': '/static/foodstim60/cocktailshrimp.jpg', 'key': 'u', 'origWidth': 410, 'origHeight': 410, 'width': 410, 'height': 410, 'widthPercent': 0.45, 'rescaleHeight': False, 'trialN': 77, 'loaded': True, 'loadedTime': 120655.30000007153, 'positionName': 'LEFT', 'positionCoords': [281.2, 245], 'bid': 8.73}, {'imgObject': {}, 'id': 'banana', 'src': '/static/foodstim60/banana.jpg', 'key': 'i', 'origWidth': 410, 'origHeight': 410, 'width': 410, 'height': 410, 'widthPercent': 0.45, 'rescaleHeight': False, 'trialN': 77, 'loaded': True, 'loadedTime': 120655.5, 'positionName': 'RIGHT', 'positionCoords': [748.8, 245], 'bid': 7.59}]",120652.89999997616,1669840364321,cocktailshrimp,banana,8.73,7.59,-1.1400000000000006,cocktailshrimp,612.2000000476837,617,616.6000000238419,True,u,121773.10000002384,1120.2000000476837,1669840365441,1120,HRV,HRV_0294,2022-11-30 20:35:19
78,"[{'imgObject': {}, 'id': 'fried eggs', 'src': '/static/foodstim60/fried eggs.jpg', 'key': 'u', 'origWidth': 410, 'origHeight': 410, 'width': 410, 'height': 410, 'widthPercent': 0.45, 'rescaleHeight': False, 'trialN': 78, 'loaded': True, 'loadedTime': 121774.60000002384, 'positionName': 'LEFT', 'positionCoords': [281.2, 245], 'bid': 8}, {'imgObject': {}, 'id': 'veggieswithdip', 'src': '/static/foodstim60/veggieswithdip.jpg', 'key': 'i', 'origWidth': 409, 'origHeight': 409, 'width': 409, 'height': 409, 'widthPercent': 0.45, 'rescaleHeight': False, 'trialN': 78, 'loaded': True, 'loadedTime': 121774.89999997616, 'positionName': 'RIGHT', 'positionCoords': [748.8, 245.5], 'bid': 5.3100000000000005}]",121773.60000002384,1669840365441,fried eggs,veggieswithdip,8.0,5.3100000000000005,-2.6899999999999995,fried eggs,604.5,609,608.8999999761581,True,u,122883.70000004768,1110.1000000238419,1669840366552,1111,HRV,HRV_0294,2022-11-30 20:35:19
79,"[{'imgObject': {}, 'id': 'mashed potato', 'src': '/static/foodstim60/mashed potato.jpg', 'key': 'u', 'origWidth': 409, 'origHeight': 409, 'width': 409, 'height': 409, 'widthPercent': 0.45, 'rescaleHeight': False, 'trialN': 79, 'loaded': True, 'loadedTime': 122887.60000002384, 'positionName': 'LEFT', 'positionCoords': [282.2, 245.5], 'bid': 6.73}, {'imgObject': {}, 'id': 'cocktailshrimp', 'src': '/static/foodstim60/cocktailshrimp.jpg', 'key': 'i', 'origWidth': 410, 'origHeight': 410, 'width': 410, 'height': 410, 'widthPercent': 0.45, 'rescaleHeight': False, 'trialN': 79, 'loaded': True, 'loadedTime': 122888.10000002384, 'positionName': 'RIGHT', 'positionCoords': [748.8, 245], 'bid': 8.73}]",122884.5,1669840366552,mashed potato,cocktailshrimp,6.73,8.73,2.0,mashed potato,1654.0,1658,1657.3999999761581,True,u,125043.10000002384,2158.600000023842,1669840368711,2159,HRV,HRV_0294,2022-11-30 20:35:19
80,"[{'imgObject': {}, 'id': 'cheerios', 'src': '/static/foodstim60/cheerios.jpg', 'key': 'u', 'origWidth': 409, 'origHeight': 410, 'width': 409, 'height': 410, 'widthPercent': 0.45, 'rescaleHeight': False, 'trialN': 80, 'loaded': True, 'loadedTime': 125046.70000004768, 'positionName': 'LEFT', 'positionCoords': [282.2, 245], 'bid': 5.5}, {'imgObject': {}, 'id': 'luckycharms', 'src': '/static/foodstim60/luckycharms.jpg', 'key': 'i', 'origWidth': 410, 'origHeight': 409, 'width': 410, 'height': 409, 'widthPercent': 0.45, 'rescaleHeight': False, 'trialN': 80, 'loaded': True, 'loadedTime': 125047.20000004768, 'positionName': 'RIGHT', 'positionCoords': [748.8, 245.5], 'bid': 6.55}]",125043.89999997616,1669840368712,cheerios,luckycharms,5.5,6.55,1.0499999999999998,luckycharms,1237.2000000476837,1241,1240.9000000953674,True,i,126785.5,1741.6000000238419,1669840370453,1741,HRV,HRV_0294,2022-11-30 20:35:19
81,"[{'imgObject': {}, 'id': 'sushi w_condiments', 'src': '/static/foodstim60/sushi w_condiments.jpg', 'key': 'u', 'origWidth': 410, 'origHeight': 410, 'width': 410, 'height': 410, 'widthPercent': 0.45, 'rescaleHeight': False, 'trialN': 81, 'loaded': True, 'loadedTime': 126789.39999997616, 'positionName': 'LEFT', 'positionCoords': [281.2, 245], 'bid': 8.540000000000001}, {'imgObject': {}, 'id': 'lox', 'src': '/static/foodstim60/lox.jpg', 'key': 'i', 'origWidth': 410, 'origHeight': 411, 'width': 410, 'height': 411, 'widthPercent': 0.45, 'rescaleHeight': False, 'trialN': 81, 'loaded': True, 'loadedTime': 126789.80000007153, 'positionName': 'RIGHT', 'positionCoords': [748.8, 244.5], 'bid': 8.26}]",126786.30000007153,1669840370454,sushi w_condiments,lox,8.540000000000001,8.26,-0.28000000000000114,lox,1011.0,1015,1015.5,True,i,128304.30000007153,1518.0,1669840371972,1518,HRV,HRV_0294,2022-11-30 20:35:19
82,"[{'imgObject': {}, 'id': 'granola w milk', 'src': '/static/foodstim60/granola w milk.jpg', 'key': 'u', 'origWidth': 410, 'origHeight': 410, 'width': 410, 'height': 410, 'widthPercent': 0.45, 'rescaleHeight': False, 'trialN': 82, 'loaded': True, 'loadedTime': 128308, 'positionName': 'LEFT', 'positionCoords': [281.2, 245], 'bid': 4.13}, {'imgObject': {}, 'id': 'shreddedwheatwithmilk', 'src': '/static/foodstim60/shreddedwheatwithmilk.jpg', 'key': 'i', 'origWidth': 410, 'origHeight': 410, 'width': 410, 'height': 410, 'widthPercent': 0.45, 'rescaleHeight': False, 'trialN': 82, 'loaded': True, 'loadedTime': 128308.39999997616, 'positionName': 'RIGHT', 'positionCoords': [748.8, 245], 'bid': 4.25}]",128305.10000002384,1669840371973,granola w milk,shreddedwheatwithmilk,4.13,4.25,0.1200000000000001,shreddedwheatwithmilk,1554.1000000238419,1559,1559.2999999523163,True,i,130369.5,2064.399999976158,1669840374037,2064,HRV,HRV_0294,2022-11-30 20:35:19
83,"[{'imgObject': {}, 'id': 'raspberries', 'src': '/static/foodstim60/raspberries.jpg', 'key': 'u', 'origWidth': 411, 'origHeight': 411, 'width': 411, 'height': 411, 'widthPercent': 0.45, 'rescaleHeight': False, 'trialN': 83, 'loaded': True, 'loadedTime': 130373.10000002384, 'positionName': 'LEFT', 'positionCoords': [280.2, 244.5], 'bid': 7.54}, {'imgObject': {}, 'id': 'chicken nuggets2', 'src': '/static/foodstim60/chicken nuggets2.jpg', 'key': 'i', 'origWidth': 410, 'origHeight': 409, 'width': 410, 'height': 409, 'widthPercent': 0.45, 'rescaleHeight': False, 'trialN': 83, 'loaded': True, 'loadedTime': 130373.5, 'positionName': 'RIGHT', 'positionCoords': [748.8, 245.5], 'bid': 8.56}]",130370.20000004768,1669840374038,raspberries,chicken nuggets2,7.54,8.56,1.0200000000000005,chicken nuggets2,661.0,665,665.1999999284744,True,i,131537.10000002384,1166.8999999761581,1669840375205,1167,HRV,HRV_0294,2022-11-30 20:35:19
84,"[{'imgObject': {}, 'id': 'rigatoni', 'src': '/static/foodstim60/rigatoni.jpg', 'key': 'u', 'origWidth': 411, 'origHeight': 411, 'width': 411, 'height': 411, 'widthPercent': 0.45, 'rescaleHeight': False, 'trialN': 84, 'loaded': True, 'loadedTime': 131540.30000007153, 'positionName': 'LEFT', 'positionCoords': [280.2, 244.5], 'bid': 6.76}, {'imgObject': {}, 'id': 'apple slices', 'src': '/static/foodstim60/apple slices.jpg', 'key': 'i', 'origWidth': 409, 'origHeight': 410, 'width': 409, 'height': 410, 'widthPercent': 0.45, 'rescaleHeight': False, 'trialN': 84, 'loaded': True, 'loadedTime': 131540.70000004768, 'positionName': 'RIGHT', 'positionCoords': [748.8, 245], 'bid': 7.18}]",131537.80000007153,1669840375205,rigatoni,apple slices,6.76,7.18,0.41999999999999993,apple slices,877.3999999761581,881,881.0999999046326,True,i,132920.30000007153,1382.5,1669840376588,1383,HRV,HRV_0294,2022-11-30 20:35:19
85,"[{'imgObject': {}, 'id': 'blueberries', 'src': '/static/foodstim60/blueberries.jpg', 'key': 'u', 'origWidth': 411, 'origHeight': 411, 'width': 411, 'height': 411, 'widthPercent': 0.45, 'rescaleHeight': False, 'trialN': 85, 'loaded': True, 'loadedTime': 132923.60000002384, 'positionName': 'LEFT', 'positionCoords': [280.2, 244.5], 'bid': 6.15}, {'imgObject': {}, 'id': 'popsicles', 'src': '/static/foodstim60/popsicles.jpg', 'key': 'i', 'origWidth': 410, 'origHeight': 410, 'width': 410, 'height': 410, 'widthPercent': 0.45, 'rescaleHeight': False, 'trialN': 85, 'loaded': True, 'loadedTime': 132923.89999997616, 'positionName': 'RIGHT', 'positionCoords': [748.8, 245], 'bid': 4.91}]",132921.10000002384,1669840376589,blueberries,popsicles,6.15,4.91,-1.2400000000000002,blueberries,660.2999999523163,664,664.7000000476837,True,u,134087.10000002384,1166.0,1669840377755,1166,HRV,HRV_0294,2022-11-30 20:35:19
86,"[{'imgObject': {}, 'id': 'bagel plain', 'src': '/static/foodstim60/bagel plain.jpg', 'key': 'u', 'origWidth': 410, 'origHeight': 410, 'width': 410, 'height': 410, 'widthPercent': 0.45, 'rescaleHeight': False, 'trialN': 86, 'loaded': True, 'loadedTime': 134090.39999997616, 'positionName': 'LEFT', 'positionCoords': [281.2, 245], 'bid': 6.75}, {'imgObject': {}, 'id': 'Tribe humus pita', 'src': '/static/foodstim60/Tribe humus pita.jpg', 'key': 'i', 'origWidth': 411, 'origHeight': 411, 'width': 411, 'height': 411, 'widthPercent': 0.45, 'rescaleHeight': False, 'trialN': 86, 'loaded': True, 'loadedTime': 134090.89999997616, 'positionName': 'RIGHT', 'positionCoords': [748.8, 244.5], 'bid': 6.7700000000000005}]",134087.89999997616,1669840377755,bagel plain,Tribe humus pita,6.75,6.7700000000000005,0.020000000000000462,bagel plain,784.6000000238419,789,789.1000000238419,True,u,135378.0,1290.1000000238419,1669840379045,1290,HRV,HRV_0294,2022-11-30 20:35:19
87,"[{'imgObject': {}, 'id': 'baked potato', 'src': '/static/foodstim60/baked potato.jpg', 'key': 'u', 'origWidth': 409, 'origHeight': 410, 'width': 409, 'height': 410, 'widthPercent': 0.45, 'rescaleHeight': False, 'trialN': 87, 'loaded': True, 'loadedTime': 135381.30000007153, 'positionName': 'LEFT', 'positionCoords': [282.2, 245], 'bid': 5.15}, {'imgObject': {}, 'id': 'salmon', 'src': '/static/foodstim60/salmon.jpg', 'key': 'i', 'origWidth': 410, 'origHeight': 409, 'width': 410, 'height': 409, 'widthPercent': 0.45, 'rescaleHeight': False, 'trialN': 87, 'loaded': True, 'loadedTime': 135381.89999997616, 'positionName': 'RIGHT', 'positionCoords': [748.8, 245.5], 'bid': 7.73}]",135378.89999997616,1669840379046,baked potato,salmon,5.15,7.73,2.58,salmon,887.5,892,891.7000000476837,True,i,136771.70000004768,1392.8000000715256,1669840380439,1393,HRV,HRV_0294,2022-11-30 20:35:19
88,"[{'imgObject': {}, 'id': 'froot loops w milk', 'src': '/static/foodstim60/froot loops w milk.jpg', 'key': 'u', 'origWidth': 410, 'origHeight': 410, 'width': 410, 'height': 410, 'widthPercent': 0.45, 'rescaleHeight': False, 'trialN': 88, 'loaded': True, 'loadedTime': 136775.39999997616, 'positionName': 'LEFT', 'positionCoords': [281.2, 245], 'bid': 6.9}, {'imgObject': {}, 'id': 'bagel plain', 'src': '/static/foodstim60/bagel plain.jpg', 'key': 'i', 'origWidth': 410, 'origHeight': 410, 'width': 410, 'height': 410, 'widthPercent': 0.45, 'rescaleHeight': False, 'trialN': 88, 'loaded': True, 'loadedTime': 136775.80000007153, 'positionName': 'RIGHT', 'positionCoords': [748.8, 245], 'bid': 6.75}]",136772.5,1669840380440,froot loops w milk,bagel plain,6.9,6.75,-0.15000000000000036,froot loops w milk,651.2000000476837,655,655.3999999761581,True,u,137931.0,1158.5,1669840381598,1158,HRV,HRV_0294,2022-11-30 20:35:19
89,"[{'imgObject': {}, 'id': 'roastedpotatoes', 'src': '/static/foodstim60/roastedpotatoes.jpg', 'key': 'u', 'origWidth': 409, 'origHeight': 410, 'width': 409, 'height': 410, 'widthPercent': 0.45, 'rescaleHeight': False, 'trialN': 89, 'loaded': True, 'loadedTime': 137934.60000002384, 'positionName': 'LEFT', 'positionCoords': [282.2, 245], 'bid': 6.55}, {'imgObject': {}, 'id': 'burger', 'src': '/static/foodstim60/burger.jpg', 'key': 'i', 'origWidth': 409, 'origHeight': 409, 'width': 409, 'height': 409, 'widthPercent': 0.45, 'rescaleHeight': False, 'trialN': 89, 'loaded': True, 'loadedTime': 137935.10000002384, 'positionName': 'RIGHT', 'positionCoords': [748.8, 245.5], 'bid': 6.5200000000000005}]",137931.80000007153,1669840381599,roastedpotatoes,burger,6.55,6.5200000000000005,-0.02999999999999936,roastedpotatoes,1138.7999999523163,1143,1143.2999999523163,True,u,139580.10000002384,1648.2999999523163,1669840383247,1648,HRV,HRV_0294,2022-11-30 20:35:19
90,"[{'imgObject': {}, 'id': 'rigatoni and sauce', 'src': '/static/foodstim60/rigatoni and sauce.jpg', 'key': 'u', 'origWidth': 410, 'origHeight': 411, 'width': 410, 'height': 411, 'widthPercent': 0.45, 'rescaleHeight': False, 'trialN': 90, 'loaded': True, 'loadedTime': 141979.30000007153, 'positionName': 'LEFT', 'positionCoords': [281.2, 244.5], 'bid': 8.120000000000001}, {'imgObject': {}, 'id': 'grilled chicken strips', 'src': '/static/foodstim60/grilled chicken strips.jpg', 'key': 'i', 'origWidth': 410, 'origHeight': 411, 'width': 410, 'height': 411, 'widthPercent': 0.45, 'rescaleHeight': False, 'trialN': 90, 'loaded': True, 'loadedTime': 141979.70000004768, 'positionName': 'RIGHT', 'positionCoords': [748.8, 244.5], 'bid': 8.08}]",141977.5,1669840385645,rigatoni and sauce,grilled chicken strips,8.120000000000001,8.08,-0.040000000000000924,rigatoni and sauce,2664.100000023842,2668,2668.7000000476837,True,u,145146.5,3169.0,1669840388814,3169,HRV,HRV_0294,2022-11-30 20:35:19
91,"[{'imgObject': {}, 'id': 'omelette', 'src': '/static/foodstim60/omelette.jpg', 'key': 'u', 'origWidth': 410, 'origHeight': 409, 'width': 410, 'height': 409, 'widthPercent': 0.45, 'rescaleHeight': False, 'trialN': 91, 'loaded': True, 'loadedTime': 145150.39999997616, 'positionName': 'LEFT', 'positionCoords': [281.2, 245.5], 'bid': 8.51}, {'imgObject': {}, 'id': 'bagel and cc', 'src': '/static/foodstim60/bagel and cc.jpg', 'key': 'i', 'origWidth': 410, 'origHeight': 410, 'width': 410, 'height': 410, 'widthPercent': 0.45, 'rescaleHeight': False, 'trialN': 91, 'loaded': True, 'loadedTime': 145150.89999997616, 'positionName': 'RIGHT', 'positionCoords': [748.8, 245], 'bid': 6.41}]",145147.30000007153,1669840388814,omelette,bagel and cc,8.51,6.41,-2.0999999999999996,omelette,805.1999999284744,810,809.5,True,u,146461.80000007153,1314.5,1669840390129,1315,HRV,HRV_0294,2022-11-30 20:35:19
92,"[{'imgObject': {}, 'id': 'rigatoni', 'src': '/static/foodstim60/rigatoni.jpg', 'key': 'u', 'origWidth': 411, 'origHeight': 411, 'width': 411, 'height': 411, 'widthPercent': 0.45, 'rescaleHeight': False, 'trialN': 92, 'loaded': True, 'loadedTime': 146465.5, 'positionName': 'LEFT', 'positionCoords': [280.2, 244.5], 'bid': 6.76}, {'imgObject': {}, 'id': 'orange slices', 'src': '/static/foodstim60/orange slices.jpg', 'key': 'i', 'origWidth': 409, 'origHeight': 410, 'width': 409, 'height': 410, 'widthPercent': 0.45, 'rescaleHeight': False, 'trialN': 92, 'loaded': True, 'loadedTime': 146465.89999997616, 'positionName': 'RIGHT', 'positionCoords': [748.8, 245], 'bid': 6.79}]",146462.5,1669840390130,rigatoni,orange slices,6.76,6.79,0.03000000000000025,orange slices,1173.8000000715256,1177,1177.3999999761581,True,i,148141.5,1679.0,1669840391808,1678,HRV,HRV_0294,2022-11-30 20:35:19
93,"[{'imgObject': {}, 'id': 'avocado', 'src': '/static/foodstim60/avocado.jpg', 'key': 'u', 'origWidth': 409, 'origHeight': 409, 'width': 409, 'height': 409, 'widthPercent': 0.45, 'rescaleHeight': False, 'trialN': 93, 'loaded': True, 'loadedTime': 148145.39999997616, 'positionName': 'LEFT', 'positionCoords': [282.2, 245.5], 'bid': 5.62}, {'imgObject': {}, 'id': 'blackbeanswithrice', 'src': '/static/foodstim60/blackbeanswithrice.jpg', 'key': 'i', 'origWidth': 410, 'origHeight': 410, 'width': 410, 'height': 410, 'widthPercent': 0.45, 'rescaleHeight': False, 'trialN': 93, 'loaded': True, 'loadedTime': 148145.70000004768, 'positionName': 'RIGHT', 'positionCoords': [748.8, 245], 'bid': 5.61}]",148142.30000007153,1669840391809,avocado,blackbeanswithrice,5.62,5.61,-0.009999999999999787,blackbeanswithrice,885.1999999284744,890,889.6999999284744,True,i,149533.70000004768,1391.3999999761581,1669840393201,1392,HRV,HRV_0294,2022-11-30 20:35:19
94,"[{'imgObject': {}, 'id': 'chickenfingers', 'src': '/static/foodstim60/chickenfingers.jpg', 'key': 'u', 'origWidth': 410, 'origHeight': 410, 'width': 410, 'height': 410, 'widthPercent': 0.45, 'rescaleHeight': False, 'trialN': 94, 'loaded': True, 'loadedTime': 149537.60000002384, 'positionName': 'LEFT', 'positionCoords': [281.2, 245], 'bid': 8.69}, {'imgObject': {}, 'id': 'roastedpotatoes', 'src': '/static/foodstim60/roastedpotatoes.jpg', 'key': 'i', 'origWidth': 409, 'origHeight': 410, 'width': 409, 'height': 410, 'widthPercent': 0.45, 'rescaleHeight': False, 'trialN': 94, 'loaded': True, 'loadedTime': 149538, 'positionName': 'RIGHT', 'positionCoords': [748.8, 245], 'bid': 6.55}]",149534.5,1669840393201,chickenfingers,roastedpotatoes,8.69,6.55,-2.1399999999999997,chickenfingers,866.8000000715256,869,869.1000000238419,True,u,150904.0,1369.5,1669840394571,1370,HRV,HRV_0294,2022-11-30 20:35:19
95,"[{'imgObject': {}, 'id': 'shreddedwheatwithmilk', 'src': '/static/foodstim60/shreddedwheatwithmilk.jpg', 'key': 'u', 'origWidth': 410, 'origHeight': 410, 'width': 410, 'height': 410, 'widthPercent': 0.45, 'rescaleHeight': False, 'trialN': 95, 'loaded': True, 'loadedTime': 150907.70000004768, 'positionName': 'LEFT', 'positionCoords': [281.2, 245], 'bid': 4.25}, {'imgObject': {}, 'id': 'roastedpotatoes', 'src': '/static/foodstim60/roastedpotatoes.jpg', 'key': 'i', 'origWidth': 409, 'origHeight': 410, 'width': 409, 'height': 410, 'widthPercent': 0.45, 'rescaleHeight': False, 'trialN': 95, 'loaded': True, 'loadedTime': 150908.10000002384, 'positionName': 'RIGHT', 'positionCoords': [748.8, 245], 'bid': 6.55}]",150904.89999997616,1669840394572,shreddedwheatwithmilk,roastedpotatoes,4.25,6.55,2.3,roastedpotatoes,858.9000000953674,864,864.0,True,i,152272.5,1367.6000000238419,1669840395939,1367,HRV,HRV_0294,2022-11-30 20:35:19
96,"[{'imgObject': {}, 'id': 'strawberries', 'src': '/static/foodstim60/strawberries.jpg', 'key': 'u', 'origWidth': 410, 'origHeight': 410, 'width': 410, 'height': 410, 'widthPercent': 0.45, 'rescaleHeight': False, 'trialN': 96, 'loaded': True, 'loadedTime': 152276.30000007153, 'positionName': 'LEFT', 'positionCoords': [281.2, 245], 'bid': 8.06}, {'imgObject': {}, 'id': 'banana', 'src': '/static/foodstim60/banana.jpg', 'key': 'i', 'origWidth': 410, 'origHeight': 410, 'width': 410, 'height': 410, 'widthPercent': 0.45, 'rescaleHeight': False, 'trialN': 96, 'loaded': True, 'loadedTime': 152276.80000007153, 'positionName': 'RIGHT', 'positionCoords': [748.8, 245], 'bid': 7.59}]",152273.39999997616,1669840395940,strawberries,banana,8.06,7.59,-0.47000000000000064,strawberries,1010.1000000238419,1015,1014.7000000476837,True,u,153788.39999997616,1515.0,1669840397455,1515,HRV,HRV_0294,2022-11-30 20:35:19
97,"[{'imgObject': {}, 'id': 'seaweed', 'src': '/static/foodstim60/seaweed.jpg', 'key': 'u', 'origWidth': 410, 'origHeight': 410, 'width': 410, 'height': 410, 'widthPercent': 0.45, 'rescaleHeight': False, 'trialN': 97, 'loaded': True, 'loadedTime': 153792.20000004768, 'positionName': 'LEFT', 'positionCoords': [281.2, 245], 'bid': 7.55}, {'imgObject': {}, 'id': 'chickenfingers', 'src': '/static/foodstim60/chickenfingers.jpg', 'key': 'i', 'origWidth': 410, 'origHeight': 410, 'width': 410, 'height': 410, 'widthPercent': 0.45, 'rescaleHeight': False, 'trialN': 97, 'loaded': True, 'loadedTime': 153792.70000004768, 'positionName': 'RIGHT', 'positionCoords': [748.8, 245], 'bid': 8.69}]",153789.30000007153,1669840397456,seaweed,chickenfingers,7.55,8.69,1.1399999999999997,chickenfingers,1077.5,1082,1082.2999999523163,True,i,155373.20000004768,1583.8999999761581,1669840399040,1584,HRV,HRV_0294,2022-11-30 20:35:19
98,"[{'imgObject': {}, 'id': 'apple slices', 'src': '/static/foodstim60/apple slices.jpg', 'key': 'u', 'origWidth': 409, 'origHeight': 410, 'width': 409, 'height': 410, 'widthPercent': 0.45, 'rescaleHeight': False, 'trialN': 98, 'loaded': True, 'loadedTime': 155377.20000004768, 'positionName': 'LEFT', 'positionCoords': [282.2, 245], 'bid': 7.18}, {'imgObject': {}, 'id': 'cherry tomato', 'src': '/static/foodstim60/cherry tomato.jpg', 'key': 'i', 'origWidth': 410, 'origHeight': 410, 'width': 410, 'height': 410, 'widthPercent': 0.45, 'rescaleHeight': False, 'trialN': 98, 'loaded': True, 'loadedTime': 155377.80000007153, 'positionName': 'RIGHT', 'positionCoords': [748.8, 245], 'bid': 2.9}]",155374.10000002384,1669840399041,apple slices,cherry tomato,7.18,2.9,-4.279999999999999,apple slices,755.8999999761581,760,760.7999999523163,True,u,156637.60000002384,1263.5,1669840400304,1263,HRV,HRV_0294,2022-11-30 20:35:19
99,"[{'imgObject': {}, 'id': 'bagel plain', 'src': '/static/foodstim60/bagel plain.jpg', 'key': 'u', 'origWidth': 410, 'origHeight': 410, 'width': 410, 'height': 410, 'widthPercent': 0.45, 'rescaleHeight': False, 'trialN': 99, 'loaded': True, 'loadedTime': 156640.30000007153, 'positionName': 'LEFT', 'positionCoords': [281.2, 245], 'bid': 6.75}, {'imgObject': {}, 'id': 'olives', 'src': '/static/foodstim60/olives.jpg', 'key': 'i', 'origWidth': 410, 'origHeight': 410, 'width': 410, 'height': 410, 'widthPercent': 0.45, 'rescaleHeight': False, 'trialN': 99, 'loaded': True, 'loadedTime': 156640.80000007153, 'positionName': 'RIGHT', 'positionCoords': [748.8, 245], 'bid': 5}]",156638.20000004768,1669840400305,bagel plain,olives,6.75,5.0,-1.75,bagel plain,804.2999999523163,808,808.2999999523163,True,u,157950.5,1312.2999999523163,1669840401617,1312,HRV,HRV_0294,2022-11-30 20:35:19
100,"[{'imgObject': {}, 'id': 'fried eggs', 'src': '/static/foodstim60/fried eggs.jpg', 'key': 'u', 'origWidth': 410, 'origHeight': 410, 'width': 410, 'height': 410, 'widthPercent': 0.45, 'rescaleHeight': False, 'trialN': 100, 'loaded': True, 'loadedTime': 157954.20000004768, 'positionName': 'LEFT', 'positionCoords': [281.2, 245], 'bid': 8}, {'imgObject': {}, 'id': 'steak', 'src': '/static/foodstim60/steak.jpg', 'key': 'i', 'origWidth': 410, 'origHeight': 410, 'width': 410, 'height': 410, 'widthPercent': 0.45, 'rescaleHeight': False, 'trialN': 100, 'loaded': True, 'loadedTime': 157954.89999997616, 'positionName': 'RIGHT', 'positionCoords': [748.8, 245], 'bid': 9.83}]",157951.39999997616,1669840401618,fried eggs,steak,8.0,9.83,1.83,steak,800.3000000715256,804,804.1000000238419,True,i,159260.0,1308.6000000238419,1669840402927,1309,HRV,HRV_0294,2022-11-30 20:35:19
101,"[{'imgObject': {}, 'id': 'baked potato', 'src': '/static/foodstim60/baked potato.jpg', 'key': 'u', 'origWidth': 409, 'origHeight': 410, 'width': 409, 'height': 410, 'widthPercent': 0.45, 'rescaleHeight': False, 'trialN': 101, 'loaded': True, 'loadedTime': 159264, 'positionName': 'LEFT', 'positionCoords': [282.2, 245], 'bid': 5.15}, {'imgObject': {}, 'id': 'hashbrowns', 'src': '/static/foodstim60/hashbrowns.jpg', 'key': 'i', 'origWidth': 411, 'origHeight': 410, 'width': 411, 'height': 410, 'widthPercent': 0.45, 'rescaleHeight': False, 'trialN': 101, 'loaded': True, 'loadedTime': 159264.39999997616, 'positionName': 'RIGHT', 'positionCoords': [748.8, 245], 'bid': 5.16}]",159261.0,1669840402927,baked potato,hashbrowns,5.15,5.16,0.009999999999999787,baked potato,1731.7000000476837,1737,1736.3999999761581,True,u,161497.60000002384,2236.600000023842,1669840405164,2237,HRV,HRV_0294,2022-11-30 20:35:19
102,"[{'imgObject': {}, 'id': 'blackbeanswithrice', 'src': '/static/foodstim60/blackbeanswithrice.jpg', 'key': 'u', 'origWidth': 410, 'origHeight': 410, 'width': 410, 'height': 410, 'widthPercent': 0.45, 'rescaleHeight': False, 'trialN': 102, 'loaded': True, 'loadedTime': 161500.60000002384, 'positionName': 'LEFT', 'positionCoords': [281.2, 245], 'bid': 5.61}, {'imgObject': {}, 'id': 'cherry tomato', 'src': '/static/foodstim60/cherry tomato.jpg', 'key': 'i', 'origWidth': 410, 'origHeight': 410, 'width': 410, 'height': 410, 'widthPercent': 0.45, 'rescaleHeight': False, 'trialN': 102, 'loaded': True, 'loadedTime': 161500.89999997616, 'positionName': 'RIGHT', 'positionCoords': [748.8, 245], 'bid': 2.9}]",161498.20000004768,1669840405165,blackbeanswithrice,cherry tomato,5.61,2.9,-2.7100000000000004,blackbeanswithrice,985.5,991,991.5,True,u,162994.5,1496.2999999523163,1669840406661,1496,HRV,HRV_0294,2022-11-30 20:35:19
103,"[{'imgObject': {}, 'id': 'apple slices', 'src': '/static/foodstim60/apple slices.jpg', 'key': 'u', 'origWidth': 409, 'origHeight': 410, 'width': 409, 'height': 410, 'widthPercent': 0.45, 'rescaleHeight': False, 'trialN': 103, 'loaded': True, 'loadedTime': 162998.39999997616, 'positionName': 'LEFT', 'positionCoords': [282.2, 245], 'bid': 7.18}, {'imgObject': {}, 'id': 'kiwi', 'src': '/static/foodstim60/kiwi.jpg', 'key': 'i', 'origWidth': 410, 'origHeight': 410, 'width': 410, 'height': 410, 'widthPercent': 0.45, 'rescaleHeight': False, 'trialN': 103, 'loaded': True, 'loadedTime': 162998.70000004768, 'positionName': 'RIGHT', 'positionCoords': [748.8, 245], 'bid': 8.11}]",162995.5,1669840406662,apple slices,kiwi,7.18,8.11,0.9299999999999997,kiwi,1013.1000000238419,1017,1016.8000000715256,True,i,164512.60000002384,1517.1000000238419,1669840408179,1517,HRV,HRV_0294,2022-11-30 20:35:19
104,"[{'imgObject': {}, 'id': 'corn cob', 'src': '/static/foodstim60/corn cob.jpg', 'key': 'u', 'origWidth': 411, 'origHeight': 411, 'width': 411, 'height': 411, 'widthPercent': 0.45, 'rescaleHeight': False, 'trialN': 104, 'loaded': True, 'loadedTime': 164516.30000007153, 'positionName': 'LEFT', 'positionCoords': [280.2, 244.5], 'bid': 7.34}, {'imgObject': {}, 'id': 'pear', 'src': '/static/foodstim60/pear.jpg', 'key': 'i', 'origWidth': 411, 'origHeight': 410, 'width': 411, 'height': 410, 'widthPercent': 0.45, 'rescaleHeight': False, 'trialN': 104, 'loaded': True, 'loadedTime': 164516.60000002384, 'positionName': 'RIGHT', 'positionCoords': [748.8, 245], 'bid': 7.2}]",164513.5,1669840408180,corn cob,pear,7.34,7.2,-0.13999999999999968,corn cob,825.3999999761581,830,830.3000000715256,True,u,165848.60000002384,1335.1000000238419,1669840409515,1335,HRV,HRV_0294,2022-11-30 20:35:19
105,"[{'imgObject': {}, 'id': 'raspberries', 'src': '/static/foodstim60/raspberries.jpg', 'key': 'u', 'origWidth': 411, 'origHeight': 411, 'width': 411, 'height': 411, 'widthPercent': 0.45, 'rescaleHeight': False, 'trialN': 105, 'loaded': True, 'loadedTime': 165852.39999997616, 'positionName': 'LEFT', 'positionCoords': [280.2, 244.5], 'bid': 7.54}, {'imgObject': {}, 'id': 'seaweed', 'src': '/static/foodstim60/seaweed.jpg', 'key': 'i', 'origWidth': 410, 'origHeight': 410, 'width': 410, 'height': 410, 'widthPercent': 0.45, 'rescaleHeight': False, 'trialN': 105, 'loaded': True, 'loadedTime': 165852.80000007153, 'positionName': 'RIGHT', 'positionCoords': [748.8, 245], 'bid': 7.55}]",165849.39999997616,1669840409516,raspberries,seaweed,7.54,7.55,0.009999999999999787,raspberries,654.3000000715256,658,658.5,True,u,167009.30000007153,1159.9000000953674,1669840410675,1159,HRV,HRV_0294,2022-11-30 20:35:19
106,"[{'imgObject': {}, 'id': 'eggs', 'src': '/static/foodstim60/eggs.jpg', 'key': 'u', 'origWidth': 409, 'origHeight': 409, 'width': 409, 'height': 409, 'widthPercent': 0.45, 'rescaleHeight': False, 'trialN': 106, 'loaded': True, 'loadedTime': 167013, 'positionName': 'LEFT', 'positionCoords': [282.2, 245.5], 'bid': 3.79}, {'imgObject': {}, 'id': 'corn cob', 'src': '/static/foodstim60/corn cob.jpg', 'key': 'i', 'origWidth': 411, 'origHeight': 411, 'width': 411, 'height': 411, 'widthPercent': 0.45, 'rescaleHeight': False, 'trialN': 106, 'loaded': True, 'loadedTime': 167013.5, 'positionName': 'RIGHT', 'positionCoords': [748.8, 244.5], 'bid': 7.34}]",167010.20000004768,1669840410676,eggs,corn cob,3.79,7.34,3.55,corn cob,827.6000000238419,832,832.0,True,i,168346.70000004768,1336.5,1669840412013,1337,HRV,HRV_0294,2022-11-30 20:35:19
107,"[{'imgObject': {}, 'id': 'turkeysandwich', 'src': '/static/foodstim60/turkeysandwich.jpg', 'key': 'u', 'origWidth': 409, 'origHeight': 409, 'width': 409, 'height': 409, 'widthPercent': 0.45, 'rescaleHeight': False, 'trialN': 107, 'loaded': True, 'loadedTime': 168349.70000004768, 'positionName': 'LEFT', 'positionCoords': [282.2, 245.5], 'bid': 7.62}, {'imgObject': {}, 'id': 'banana', 'src': '/static/foodstim60/banana.jpg', 'key': 'i', 'origWidth': 410, 'origHeight': 410, 'width': 410, 'height': 410, 'widthPercent': 0.45, 'rescaleHeight': False, 'trialN': 107, 'loaded': True, 'loadedTime': 168350.20000004768, 'positionName': 'RIGHT', 'positionCoords': [748.8, 245], 'bid': 7.59}]",168347.39999997616,1669840412013,turkeysandwich,banana,7.62,7.59,-0.03000000000000025,turkeysandwich,724.3000000715256,729,728.9000000953674,True,u,169581.20000004768,1233.8000000715256,1669840413247,1234,HRV,HRV_0294,2022-11-30 20:35:19
