success,trial_type,trial_index,time_elapsed,internal_node_id,Block,TrialNumber,TrialTime,trialTimeDiff,FPS_avg,FPS_med,FPS_mode,TrialDur,winResizeTime,rt,block,button_pressed,MotCoh,MotDir,ColCoh,Color,ChoiceKey,Choice,Accuracy,RT,nFrames,FPS,PPD,missTrial,missTrialMsg,onsetDelay,fullScreenExitTime,canvCenter,TrialType,Score,BlockTrial,stimulus,button_labels,exp,subjectId,date
True,fullscreen,0,1403,0.0-0.0,0.0,1.0,,,,,,,,,,,,,,,,,,,,,,,,,,,,,,,,HRV,HRV_0260,2022-11-30 19:56:55
,wl-check-fps,1,6403,0.0-1.0,0.0,2.0,"[1860.3, 1871.8, 1888.1, 1908.8, 1929.1, 1938.7, 1954.4, 1971, 1988.9, 2004.2, 2021.5, 2037.4, 2055.3, 2071.5, 2088.6, 2104.7, 2122, 2137.2, 2155.6, 2171.5, 2188.6, 2205.5, 2221.9, 2238.8, 2254, 2271.4, 2288.9, 2305, 2321.6, 2339, 2355.7, 2371.5, 2387.5, 2406.6, 2421.7, 2438.6, 2455, 2471.6, 2488.5, 2505.1, 2520.9, 2538.3, 2554.5, 2571.9, 2588.4, 2604.4, 2622.1, 2638.1, 2654.7, 2672.1, 2688.3, 2704.1, 2720.9, 2737.6, 2755.4, 2772.1, 2787.9, 2805.4, 2821.6, 2837.2, 2855.5, 2871.7, 2888.4, 2904.1, 2921.2, 2937.7, 2955, 2972.4, 2988.9, 3005.1, 3021.7, 3037.5, 3054.9, 3071.4, 3088.6, 3105.1, 3121.4, 3138.6, 3155.5, 3171.5, 3188.5, 3204.5, 3221.6, 3238.9, 3255.6, 3271.8, 3288.5, 3304.5, 3321.5, 3338.1, 3354.1, 3371.8, 3388.8, 3405.6, 3422.2, 3438, 3455.5, 3471.7, 3488.6, 3505.1, 3521.3, 3538.1, 3555.4, 3571.7, 3588.7, 3605.2, 3621.7, 3638.2, 3655, 3672.1, 3687.8, 3705.1, 3721.2, 3738.7, 3754.4, 3771.6, 3788.4, 3805.1, 3821.2, 3838.6, 3854.8, 3871.7, 3889.3, 3905.2, 3921.5, 3938.1, 3954.7, 3972.1, 3988.5, 4004.9, 4022.4, 4039.1, 4055.3, 4071.3, 4089.3, 4105, 4121.8, 4139.2, 4154.7, 4171.7, 4188.3, 4204, 4221.7, 4239.2, 4255.3, 4271.8, 4288.4, 4305.5, 4322.3, 4338, 4355.3, 4371.7, 4388.8, 4405.1, 4421.2, 4438.9, 4455.7, 4472.2, 4487.7, 4505, 4522.4, 4538.1, 4555.8, 4572.6, 4588.8, 4604.9, 4622.4, 4639, 4655, 4671.7, 4688.5, 4705.2, 4721.2, 4737.8, 4754.5, 4771.9, 4788.3, 4805.1, 4821.7, 4838.4, 4855.9, 4871.7, 4888.3, 4905.6, 4921.5, 4938.6, 4955.3, 4971.7, 4988, 5005.1, 5021.7, 5039, 5055.5, 5071.8, 5088.4, 5104.9, 5121.4, 5138.1, 5155.5, 5171.9, 5188.4, 5205.1, 5221.8, 5237.6, 5255, 5272.5, 5288.7, 5305, 5322.7, 5339.3, 5355.4, 5371.3, 5388.6, 5404.5, 5422.1, 5437.7, 5454.6, 5474.4, 5488.5, 5504.5, 5520.8, 5538.2, 5555.7, 5572.1, 5588.7, 5605.3, 5620.8, 5638.4, 5655.7, 5671.8, 5688.4, 5705, 5721.3, 5739, 5755.7, 5771.7, 5789.2, 5805.5, 5821.9, 5838.5, 5855.1, 5871, 5888.3, 5905.2, 5921.2, 5937.7, 5955.3, 5971.9, 5989.4, 6006, 6022.7, 6038.7, 6055, 6072.4, 6088.6, 6105.6, 6121.2, 6138.7, 6154.6, 6171.2, 6188.5, 6205.9, 6222.4, 6238.8, 6255.4, 6271, 6288.4, 6305.8, 6321.6, 6338.1, 6355.8, 6372.3, 6388.8, 6404.6, 6421.9, 6439.2, 6455.6, 6471.2, 6488.6, 6505.3, 6520.9, 6538.1, 6555.4, 6571.6, 6588.6, 6606.1, 6622.6, 6638.9, 6655.5, 6671.3, 6688.5, 6705.2, 6722, 6739.5, 6756, 6772.2, 6788.7, 6804.5, 6821.9, 6838.7]","[2.5, 11.5, 16.3, 20.7, 20.3, 9.6, 15.7, 16.6, 17.9, 15.3, 17.3, 15.9, 17.9, 16.2, 17.1, 16.1, 17.3, 15.2, 18.4, 15.9, 17.1, 16.9, 16.4, 16.9, 15.2, 17.4, 17.5, 16.1, 16.6, 17.4, 16.7, 15.8, 16, 19.1, 15.1, 16.9, 16.4, 16.6, 16.9, 16.6, 15.8, 17.4, 16.2, 17.4, 16.5, 16, 17.7, 16, 16.6, 17.4, 16.2, 15.8, 16.8, 16.7, 17.8, 16.7, 15.8, 17.5, 16.2, 15.6, 18.3, 16.2, 16.7, 15.7, 17.1, 16.5, 17.3, 17.4, 16.5, 16.2, 16.6, 15.8, 17.4, 16.5, 17.2, 16.5, 16.3, 17.2, 16.9, 16, 17, 16, 17.1, 17.3, 16.7, 16.2, 16.7, 16, 17, 16.6, 16, 17.7, 17, 16.8, 16.6, 15.8, 17.5, 16.2, 16.9, 16.5, 16.2, 16.8, 17.3, 16.3, 17, 16.5, 16.5, 16.5, 16.8, 17.1, 15.7, 17.3, 16.1, 17.5, 15.7, 17.2, 16.8, 16.7, 16.1, 17.4, 16.2, 16.9, 17.6, 15.9, 16.3, 16.6, 16.6, 17.4, 16.4, 16.4, 17.5, 16.7, 16.2, 16, 18, 15.7, 16.8, 17.4, 15.5, 17, 16.6, 15.7, 17.7, 17.5, 16.1, 16.5, 16.6, 17.1, 16.8, 15.7, 17.3, 16.4, 17.1, 16.3, 16.1, 17.7, 16.8, 16.5, 15.5, 17.3, 17.4, 15.7, 17.7, 16.8, 16.2, 16.1, 17.5, 16.6, 16, 16.7, 16.8, 16.7, 16, 16.6, 16.7, 17.4, 16.4, 16.8, 16.6, 16.7, 17.5, 15.8, 16.6, 17.3, 15.9, 17.1, 16.7, 16.4, 16.3, 17.1, 16.6, 17.3, 16.5, 16.3, 16.6, 16.5, 16.5, 16.7, 17.4, 16.4, 16.5, 16.7, 16.7, 15.8, 17.4, 17.5, 16.2, 16.3, 17.7, 16.6, 16.1, 15.9, 17.3, 15.9, 17.6, 15.6, 16.9, 19.8, 14.1, 16, 16.3, 17.4, 17.5, 16.4, 16.6, 16.6, 15.5, 17.6, 17.3, 16.1, 16.6, 16.6, 16.3, 17.7, 16.7, 16, 17.5, 16.3, 16.4, 16.6, 16.6, 15.9, 17.3, 16.9, 16, 16.5, 17.6, 16.6, 17.5, 16.6, 16.7, 16, 16.3, 17.4, 16.2, 17, 15.6, 17.5, 15.9, 16.6, 17.3, 17.4, 16.5, 16.4, 16.6, 15.6, 17.4, 17.4, 15.8, 16.5, 17.7, 16.5, 16.5, 15.8, 17.3, 17.3, 16.4, 15.6, 17.4, 16.7, 15.6, 17.2, 17.3, 16.2, 17, 17.5, 16.5, 16.3, 16.6, 15.8, 17.2, 16.7, 16.8, 17.5, 16.5, 16.2, 16.5, 15.8, 17.4, 16.8]",60.0,61.0,60.0,4997.3,[],,,,,,,,,,,,,,,,,,,,,,,,,HRV,HRV_0260,2022-11-30 19:56:55
,wl-html-keyboard-response,2,18836,0.0-2.0-0.0,0.0,3.0,,,,,,,,10495.700000047684,0.0,0,,,,,,,,,,,,,,,,,,,,,,HRV,HRV_0260,2022-11-30 19:56:55
,wl-rdm,3,26376,0.0-3.0-0.0,0.0,4.0,,,,,,,[],,,,0.0,0.0,87.9,0.0,u,0.0,True,1959.5999999046326,118.0,60.0,40.0,False,,3000.0,[],"[1280, 720]",ColorTask_Demo,,,,,HRV,HRV_0260,2022-11-30 19:56:55
,wl-rdm,4,31478,0.0-3.0-1.0,0.0,5.0,,,,,,,[],,,,0.0,0.0,87.9,1.0,i,1.0,True,1033.7000000476837,62.0,60.0,40.0,False,,2000.0,[],"[1280, 720]",ColorTask_Demo,,,,,HRV,HRV_0260,2022-11-30 19:56:55
,wl-html-keyboard-response,5,36994,0.0-3.0-2.0,0.0,6.0,,,,,,,,3511.7000000476837,0.0,1,,,,,,,,,,,,,,,,,,,,,,HRV,HRV_0260,2022-11-30 19:56:55
,wl-html-keyboard-response,6,46265,0.0-4.0-0.0,0.0,7.0,,,,,,,,7267.299999952316,0.0,0,,,,,,,,,,,,,,,,,,,,,,HRV,HRV_0260,2022-11-30 19:56:55
,wl-html-keyboard-response,7,58937,0.0-5.0-0.0,0.0,8.0,,,,,,,,10669.300000071526,0.0,0,,,,,,,,,,,,,,,,,,,,,,HRV,HRV_0260,2022-11-30 19:56:55
,wl-rdm,8,61134,0.0-6.0-0.0,0.0,9.0,,,,,,,[],,,,,,73.6,1.0,i,1.0,True,822.3999999761581,50.0,60.0,40.0,False,,288.27389153353045,[],"[1280, 720]",ColorTask,1.0,1.0,,,HRV,HRV_0260,2022-11-30 19:56:55
,wl-rdm,9,63134,0.0-6.1-0.1,0.0,10.0,,,,,,,[],,,,,,62.5,0.0,u,0.0,True,682.8999999761581,42.0,60.0,40.0,False,,222.23165962544897,[],"[1280, 720]",ColorTask,2.0,2.0,,,HRV,HRV_0260,2022-11-30 19:56:55
,wl-rdm,10,65434,0.0-6.2-0.2,0.0,11.0,,,,,,,[],,,,,,50.0,1.0,u,0.0,False,966.8000000715256,59.0,60.0,40.0,False,,249.48121942576154,[],"[1280, 720]",ColorTask,1.0,3.0,,,HRV,HRV_0260,2022-11-30 19:56:55
,wl-rdm,11,67451,0.0-6.3-0.3,0.0,12.0,,,,,,,[],,,,,,50.0,1.0,u,0.0,False,683.8999999761581,41.0,60.0,40.0,False,,282.22375214058303,[],"[1280, 720]",ColorTask,0.0,4.0,,,HRV,HRV_0260,2022-11-30 19:56:55
,wl-rdm,12,69501,0.0-6.4-0.4,0.0,13.0,,,,,,,[],,,,,,87.9,1.0,i,1.0,True,630.5,38.0,60.0,40.0,False,,363.09151942479707,[],"[1280, 720]",ColorTask,1.0,5.0,,,HRV,HRV_0260,2022-11-30 19:56:55
,wl-rdm,13,71751,0.0-6.5-0.5,0.0,14.0,,,,,,,[],,,,,,50.0,0.0,u,0.0,True,780.0,47.0,60.0,40.0,False,,395.0474474283152,[],"[1280, 720]",ColorTask,2.0,6.0,,,HRV,HRV_0260,2022-11-30 19:56:55
,wl-rdm,14,73519,0.0-6.6-0.6,0.0,15.0,,,,,,,[],,,,,,56.4,0.0,u,0.0,True,453.5,28.0,60.0,40.0,False,,234.86864890359777,[],"[1280, 720]",ColorTask,3.0,7.0,,,HRV,HRV_0260,2022-11-30 19:56:55
,wl-rdm,15,75469,0.0-6.7-0.7,0.0,16.0,,,,,,,[],,,,,,53.2,0.0,u,0.0,True,638.6000000238419,39.0,60.0,40.0,False,,243.629705280424,[],"[1280, 720]",ColorTask,4.0,8.0,,,HRV,HRV_0260,2022-11-30 19:56:55
,wl-rdm,16,77453,0.0-6.8-0.8,0.0,17.0,,,,,,,[],,,,,,56.4,1.0,u,0.0,False,664.3000000715256,40.0,60.0,40.0,False,,247.78280794570372,[],"[1280, 720]",ColorTask,3.0,9.0,,,HRV,HRV_0260,2022-11-30 19:56:55
,wl-rdm,17,79486,0.0-6.9-0.9,0.0,18.0,,,,,,,[],,,,,,53.2,1.0,i,1.0,True,695.2000000476837,42.0,60.0,40.0,False,,264.29381396833736,[],"[1280, 720]",ColorTask,4.0,10.0,,,HRV,HRV_0260,2022-11-30 19:56:55
,wl-rdm,18,81236,0.0-6.10-0.10,0.0,19.0,,,,,,,[],,,,,,56.4,0.0,i,1.0,False,463.7000000476837,28.0,60.0,40.0,False,,223.88722568968637,[],"[1280, 720]",ColorTask,3.0,11.0,,,HRV,HRV_0260,2022-11-30 19:56:55
,wl-rdm,19,83172,0.0-6.11-0.11,0.0,20.0,,,,,,,[],,,,,,53.2,1.0,u,0.0,False,507.8000000715256,31.0,60.0,40.0,False,,351.97343862290336,[],"[1280, 720]",ColorTask,2.0,12.0,,,HRV,HRV_0260,2022-11-30 19:56:55
,wl-rdm,20,85205,0.0-6.12-0.12,0.0,21.0,,,,,,,[],,,,,,56.4,1.0,u,0.0,False,647.5,39.0,60.0,40.0,False,,304.48329554822243,[],"[1280, 720]",ColorTask,1.0,13.0,,,HRV,HRV_0260,2022-11-30 19:56:55
,wl-rdm,21,87256,0.0-6.13-0.13,0.0,22.0,,,,,,,[],,,,,,53.2,1.0,i,1.0,True,677.6999999284744,41.0,60.0,40.0,False,,308.2199849853041,[],"[1280, 720]",ColorTask,2.0,14.0,,,HRV,HRV_0260,2022-11-30 19:56:55
,wl-rdm,22,89456,0.0-6.14-0.14,0.0,23.0,,,,,,,[],,,,,,62.5,1.0,i,1.0,True,786.8000000715256,48.0,60.0,40.0,False,,343.1165086710637,[],"[1280, 720]",ColorTask,3.0,15.0,,,HRV,HRV_0260,2022-11-30 19:56:55
,wl-rdm,23,91505,0.0-6.15-0.15,0.0,24.0,,,,,,,[],,,,,,87.9,0.0,i,1.0,False,682.3000000715256,41.0,60.0,40.0,False,,299.19355189670796,[],"[1280, 720]",ColorTask,2.0,16.0,,,HRV,HRV_0260,2022-11-30 19:56:55
,wl-rdm,24,93975,0.0-6.16-0.16,0.0,25.0,,,,,,,[],,,,,,56.4,0.0,u,0.0,True,1137.0,69.0,60.0,40.0,False,,264.25155779855345,[],"[1280, 720]",ColorTask,3.0,17.0,,,HRV,HRV_0260,2022-11-30 19:56:55
,wl-rdm,25,95775,0.0-6.17-0.17,0.0,26.0,,,,,,,[],,,,,,73.6,0.0,u,0.0,True,411.2999999523163,25.0,60.0,40.0,False,,309.52719584780044,[],"[1280, 720]",ColorTask,4.0,18.0,,,HRV,HRV_0260,2022-11-30 19:56:55
,wl-rdm,26,97725,0.0-6.18-0.18,0.0,27.0,,,,,,,[],,,,,,50.0,1.0,u,0.0,False,562.6000000238419,34.0,60.0,40.0,False,,324.41258421974925,[],"[1280, 720]",ColorTask,3.0,19.0,,,HRV,HRV_0260,2022-11-30 19:56:55
,wl-rdm,27,99442,0.0-6.19-0.19,0.0,28.0,,,,,,,[],,,,,,87.9,0.0,i,1.0,False,433.5,26.0,60.0,40.0,False,,211.40056109669368,[],"[1280, 720]",ColorTask,2.0,20.0,,,HRV,HRV_0260,2022-11-30 19:56:55
,wl-rdm,28,101207,0.0-6.20-0.20,0.0,29.0,,,,,,,[],,,,,,53.2,0.0,i,1.0,False,351.7000000476837,22.0,60.0,40.0,False,,348.7302303050292,[],"[1280, 720]",ColorTask,1.0,21.0,,,HRV,HRV_0260,2022-11-30 19:56:55
,wl-rdm,29,102911,0.0-6.21-0.21,0.0,30.0,,,,,,,[],,,,,,87.9,1.0,u,0.0,False,412.8000000715256,25.0,60.0,40.0,False,,222.97426014410985,[],"[1280, 720]",ColorTask,0.0,22.0,,,HRV,HRV_0260,2022-11-30 19:56:55
,wl-rdm,30,104611,0.0-6.22-0.22,0.0,31.0,,,,,,,[],,,,,,53.2,0.0,u,0.0,True,341.1999999284744,21.0,60.0,40.0,False,,277.9811865121828,[],"[1280, 720]",ColorTask,1.0,23.0,,,HRV,HRV_0260,2022-11-30 19:56:55
,wl-rdm,31,106077,0.0-6.23-0.23,0.0,32.0,,,,,,,[],,,,,,73.6,0.0,u,0.0,True,178.20000004768372,11.0,60.0,40.0,False,,204.51764149407163,[],"[1280, 720]",ColorTask,2.0,24.0,,,HRV,HRV_0260,2022-11-30 19:56:55
,wl-rdm,32,107961,0.0-6.24-0.24,0.0,33.0,,,,,,,[],,,,,,62.5,0.0,u,0.0,True,483.8000000715256,29.0,60.0,40.0,False,,320.36276146327094,[],"[1280, 720]",ColorTask,3.0,25.0,,,HRV,HRV_0260,2022-11-30 19:56:55
,wl-rdm,33,110045,0.0-6.25-0.25,0.0,34.0,,,,,,,[],,,,,,50.0,1.0,i,1.0,True,705.0,43.0,60.0,40.0,False,,294.4066707497653,[],"[1280, 720]",ColorTask,4.0,26.0,,,HRV,HRV_0260,2022-11-30 19:56:55
,wl-rdm,34,112080,0.0-6.26-0.26,0.0,35.0,,,,,,,[],,,,,,53.2,0.0,u,0.0,True,686.8999999761581,43.0,60.0,40.0,False,,258.8333160659044,[],"[1280, 720]",ColorTask,5.0,27.0,,,HRV,HRV_0260,2022-11-30 19:56:55
,wl-rdm,35,113947,0.0-6.27-0.27,0.0,36.0,,,,,,,[],,,,,,56.4,0.0,u,0.0,True,481.1999999284744,29.0,60.0,40.0,False,,313.76611267164037,[],"[1280, 720]",ColorTask,6.0,28.0,,,HRV,HRV_0260,2022-11-30 19:56:55
,wl-rdm,36,115864,0.0-6.28-0.28,0.0,37.0,,,,,,,[],,,,,,87.9,1.0,u,0.0,False,551.8999999761581,34.0,60.0,40.0,False,,276.2509418621869,[],"[1280, 720]",ColorTask,5.0,29.0,,,HRV,HRV_0260,2022-11-30 19:56:55
,wl-rdm,37,117982,0.0-6.29-0.29,0.0,38.0,,,,,,,[],,,,,,62.5,1.0,u,0.0,False,678.3000000715256,41.0,60.0,40.0,False,,368.9560489554587,[],"[1280, 720]",ColorTask,4.0,30.0,,,HRV,HRV_0260,2022-11-30 19:56:55
,wl-rdm,38,119781,0.0-6.30-0.30,0.0,39.0,,,,,,,[],,,,,,73.6,1.0,i,1.0,True,454.3000000715256,28.0,60.0,40.0,False,,282.7271053723517,[],"[1280, 720]",ColorTask,5.0,31.0,,,HRV,HRV_0260,2022-11-30 19:56:55
,wl-rdm,39,121498,0.0-6.31-0.31,0.0,40.0,,,,,,,[],,,,,,73.6,0.0,u,0.0,True,432.59999990463257,26.0,60.0,40.0,False,,200.42524249582516,[],"[1280, 720]",ColorTask,6.0,32.0,,,HRV,HRV_0260,2022-11-30 19:56:55
,wl-rdm,40,123183,0.0-6.32-0.32,0.0,41.0,,,,,,,[],,,,,,56.4,1.0,u,0.0,False,326.60000002384186,20.0,60.0,40.0,False,,292.80196281114354,[],"[1280, 720]",ColorTask,5.0,33.0,,,HRV,HRV_0260,2022-11-30 19:56:55
,wl-rdm,41,125032,0.0-6.33-0.33,0.0,42.0,,,,,,,[],,,,,,62.5,0.0,i,1.0,False,475.89999997615814,29.0,60.0,40.0,False,,302.41077063331426,[],"[1280, 720]",ColorTask,4.0,34.0,,,HRV,HRV_0260,2022-11-30 19:56:55
,wl-rdm,42,127002,0.0-6.34-0.34,0.0,43.0,,,,,,,[],,,,,,53.2,0.0,i,1.0,False,632.1000000238419,37.0,60.0,40.0,False,,267.2852440637743,[],"[1280, 720]",ColorTask,3.0,35.0,,,HRV,HRV_0260,2022-11-30 19:56:55
,wl-rdm,43,128684,0.0-6.35-0.35,0.0,44.0,,,,,,,[],,,,,,87.9,0.0,u,0.0,True,396.7999999523163,24.0,60.0,40.0,False,,203.3985097054692,[],"[1280, 720]",ColorTask,4.0,36.0,,,HRV,HRV_0260,2022-11-30 19:56:55
,wl-rdm,44,130132,0.0-6.36-0.36,0.0,44.0,,,,,,,[],,,,,,62.5,1.0,u,0.0,False,88.60000002384186,6.0,60.0,40.0,True,too_early ,269.36953658012044,[],"[1280, 720]",ColorTask,3.0,37.0,,,HRV,HRV_0260,2022-11-30 19:56:55
,wl-rdm,45,131284,0.0-6.37-0.37,0.0,44.0,,,,,,,[],,,,,,73.6,0.0,u,,,629.2000000476837,0.0,60.0,40.0,True,too_early ,241.89705038465198,[],"[1280, 720]",ColorTask,2.0,38.0,,,HRV,HRV_0260,2022-11-30 19:56:55
,wl-rdm,46,132368,0.0-6.38-0.38,0.0,44.0,,,,,,,[],,,,,,50.0,0.0,u,,,539.5999999046326,0.0,60.0,40.0,True,too_early ,227.3831046192752,[],"[1280, 720]",ColorTask,1.0,39.0,,,HRV,HRV_0260,2022-11-30 19:56:55
,wl-rdm,47,133502,0.0-6.39-0.39,0.0,44.0,,,,,,,[],,,,,,56.4,1.0,i,,,608.7999999523163,0.0,60.0,40.0,True,too_early ,358.1048768584835,[],"[1280, 720]",ColorTask,0.0,40.0,,,HRV,HRV_0260,2022-11-30 19:56:55
,wl-rdm,48,134584,0.0-6.40-0.40,0.0,44.0,,,,,,,[],,,,,,87.9,0.0,i,,,386.7999999523163,0.0,60.0,40.0,True,too_early ,316.3055692520869,[],"[1280, 720]",ColorTask,-1.0,41.0,,,HRV,HRV_0260,2022-11-30 19:56:55
,wl-rdm,49,135651,0.0-6.41-0.41,0.0,44.0,,,,,,,[],,,,,,62.5,0.0,u,,,104.59999990463257,0.0,60.0,40.0,True,too_early ,367.78550239157573,[],"[1280, 720]",ColorTask,-2.0,42.0,,,HRV,HRV_0260,2022-11-30 19:56:55
,wl-rdm,50,137719,0.0-6.42-0.42,0.0,45.0,,,,,,,[],,,,,,53.2,1.0,u,0.0,False,684.4000000953674,42.0,60.0,40.0,False,,289.1031524500319,[],"[1280, 720]",ColorTask,-3.0,43.0,,,HRV,HRV_0260,2022-11-30 19:56:55
,wl-rdm,51,139651,0.0-6.43-0.43,0.0,46.0,,,,,,,[],,,,,,53.2,1.0,i,1.0,True,653.7999999523163,40.0,60.0,40.0,False,,200.90069437572262,[],"[1280, 720]",ColorTask,-2.0,44.0,,,HRV,HRV_0260,2022-11-30 19:56:55
,wl-rdm,52,141619,0.0-6.44-0.44,0.0,47.0,,,,,,,[],,,,,,56.4,1.0,i,1.0,True,656.0,40.0,60.0,40.0,False,,220.27795505203497,[],"[1280, 720]",ColorTask,-1.0,45.0,,,HRV,HRV_0260,2022-11-30 19:56:55
,wl-rdm,53,144088,0.0-6.45-0.45,0.0,48.0,,,,,,,[],,,,,,87.9,1.0,u,0.0,False,1092.4000000953674,66.0,60.0,40.0,False,,332.96315191236073,[],"[1280, 720]",ColorTask,-2.0,46.0,,,HRV,HRV_0260,2022-11-30 19:56:55
,wl-rdm,54,145971,0.0-6.46-0.46,0.0,49.0,,,,,,,[],,,,,,56.4,0.0,i,1.0,False,529.1999999284744,32.0,60.0,40.0,False,,291.498034930571,[],"[1280, 720]",ColorTask,-3.0,47.0,,,HRV,HRV_0260,2022-11-30 19:56:55
,wl-rdm,55,147572,0.0-6.47-0.47,0.0,50.0,,,,,,,[],,,,,,62.5,1.0,u,0.0,False,322.10000002384186,20.0,60.0,40.0,False,,206.8839757876172,[],"[1280, 720]",ColorTask,-4.0,48.0,,,HRV,HRV_0260,2022-11-30 19:56:55
,wl-rdm,56,149088,0.0-6.48-0.48,0.0,51.0,,,,,,,[],,,,,,56.4,1.0,i,1.0,True,207.10000002384186,13.0,60.0,40.0,False,,243.65863674500903,[],"[1280, 720]",ColorTask,-3.0,49.0,,,HRV,HRV_0260,2022-11-30 19:56:55
,wl-rdm,57,151105,0.0-6.49-0.49,0.0,52.0,,,,,,,[],,,,,,62.5,0.0,i,1.0,False,641.6000000238419,39.0,60.0,40.0,False,,272.79373746060844,[],"[1280, 720]",ColorTask,-4.0,50.0,,,HRV,HRV_0260,2022-11-30 19:56:55
,wl-rdm,58,152672,0.0-6.50-0.50,0.0,52.0,,,,,,,[],,,,,,73.6,0.0,u,0.0,True,92.10000002384186,6.0,60.0,40.0,True,too_early ,396.6477328834453,[],"[1280, 720]",ColorTask,-3.0,51.0,,,HRV,HRV_0260,2022-11-30 19:56:55
,wl-rdm,59,154173,0.0-6.51-0.51,0.0,52.0,,,,,,,[],,,,,,62.5,0.0,i,1.0,False,69.59999990463257,5.0,60.0,40.0,True,too_early ,359.7001229321081,[],"[1280, 720]",ColorTask,-4.0,52.0,,,HRV,HRV_0260,2022-11-30 19:56:55
,wl-rdm,60,155422,0.0-6.52-0.52,0.0,52.0,,,,,,,[],,,,,,50.0,1.0,u,,,729.8999999761581,0.0,60.0,40.0,True,too_early ,262.77147708791904,[],"[1280, 720]",ColorTask,-5.0,53.0,,,HRV,HRV_0260,2022-11-30 19:56:55
,wl-rdm,61,157706,0.0-6.53-0.53,0.0,53.0,,,,,,,[],,,,,,73.6,0.0,u,0.0,True,994.5999999046326,60.0,60.0,40.0,False,,232.8793480990795,[],"[1280, 720]",ColorTask,-4.0,54.0,,,HRV,HRV_0260,2022-11-30 19:56:55
,wl-rdm,62,158774,0.0-6.54-0.54,0.0,53.0,,,,,,,[],,,,,,56.4,1.0,u,,,421.10000002384186,0.0,60.0,40.0,True,too_early ,245.86657272545864,[],"[1280, 720]",ColorTask,-5.0,55.0,,,HRV,HRV_0260,2022-11-30 19:56:55
,wl-rdm,63,160456,0.0-6.55-0.55,0.0,54.0,,,,,,,[],,,,,,56.4,0.0,i,1.0,False,390.59999990463257,24.0,60.0,40.0,False,,209.3365007178103,[],"[1280, 720]",ColorTask,-6.0,56.0,,,HRV,HRV_0260,2022-11-30 19:56:55
,wl-rdm,64,162056,0.0-6.56-0.56,0.0,55.0,,,,,,,[],,,,,,56.4,1.0,u,0.0,False,291.2000000476837,18.0,60.0,40.0,False,,217.71955981065528,[],"[1280, 720]",ColorTask,-7.0,57.0,,,HRV,HRV_0260,2022-11-30 19:56:55
,wl-rdm,65,163676,0.0-6.57-0.57,0.0,56.0,,,,,,,[],,,,,,50.0,1.0,i,1.0,True,304.7000000476837,19.0,60.0,40.0,False,,239.06792774595067,[],"[1280, 720]",ColorTask,-6.0,58.0,,,HRV,HRV_0260,2022-11-30 19:56:55
,wl-rdm,66,165426,0.0-6.58-0.58,0.0,57.0,,,,,,,[],,,,,,73.6,1.0,u,0.0,False,329.40000009536743,20.0,60.0,40.0,False,,359.5345633821048,[],"[1280, 720]",ColorTask,-7.0,59.0,,,HRV,HRV_0260,2022-11-30 19:56:55
,wl-rdm,67,167477,0.0-6.59-0.59,0.0,58.0,,,,,,,[],,,,,,73.6,0.0,i,1.0,False,705.0,43.0,60.0,40.0,False,,265.52734184512394,[],"[1280, 720]",ColorTask,-8.0,60.0,,,HRV,HRV_0260,2022-11-30 19:56:55
,wl-rdm,68,169042,0.0-6.60-0.60,0.0,59.0,,,,,,,[],,,,,,50.0,1.0,u,0.0,False,246.10000002384186,15.0,60.0,40.0,False,,234.1375294354392,[],"[1280, 720]",ColorTask,-9.0,61.0,,,HRV,HRV_0260,2022-11-30 19:56:55
,wl-rdm,69,171076,0.0-6.61-0.61,0.0,60.0,,,,,,,[],,,,,,87.9,0.0,i,1.0,False,670.1999999284744,41.0,60.0,40.0,False,,267.3869560622629,[],"[1280, 720]",ColorTask,-10.0,62.0,,,HRV,HRV_0260,2022-11-30 19:56:55
,wl-rdm,70,172795,0.0-6.62-0.62,0.0,61.0,,,,,,,[],,,,,,50.0,1.0,u,0.0,False,430.39999997615814,26.0,60.0,40.0,False,,215.43034764400429,[],"[1280, 720]",ColorTask,-11.0,63.0,,,HRV,HRV_0260,2022-11-30 19:56:55
,wl-rdm,71,174627,0.0-6.63-0.63,0.0,62.0,,,,,,,[],,,,,,53.2,0.0,u,0.0,True,477.5,29.0,60.0,40.0,False,,287.43628565844705,[],"[1280, 720]",ColorTask,-10.0,64.0,,,HRV,HRV_0260,2022-11-30 19:56:55
,wl-rdm,72,176444,0.0-6.64-0.64,0.0,63.0,,,,,,,[],,,,,,50.0,0.0,u,0.0,True,386.60000002384186,24.0,60.0,40.0,False,,343.867922279272,[],"[1280, 720]",ColorTask,-9.0,65.0,,,HRV,HRV_0260,2022-11-30 19:56:55
,wl-rdm,73,178377,0.0-6.65-0.65,0.0,64.0,,,,,,,[],,,,,,73.6,0.0,u,0.0,True,553.7999999523163,34.0,60.0,40.0,False,,316.15764828337814,[],"[1280, 720]",ColorTask,-8.0,66.0,,,HRV,HRV_0260,2022-11-30 19:56:55
,wl-rdm,74,180394,0.0-6.66-0.66,0.0,65.0,,,,,,,[],,,,,,62.5,1.0,u,0.0,False,595.2999999523163,36.0,60.0,40.0,False,,352.66382642762665,[],"[1280, 720]",ColorTask,-9.0,67.0,,,HRV,HRV_0260,2022-11-30 19:56:55
,wl-rdm,75,182797,0.0-6.67-0.67,0.0,66.0,,,,,,,[],,,,,,50.0,0.0,i,1.0,False,1037.2000000476837,63.0,60.0,40.0,False,,299.5508297883924,[],"[1280, 720]",ColorTask,-10.0,68.0,,,HRV,HRV_0260,2022-11-30 19:56:55
,wl-rdm,76,185164,0.0-6.68-0.68,0.0,67.0,,,,,,,[],,,,,,87.9,0.0,u,0.0,True,1067.8999999761581,65.0,60.0,40.0,False,,218.43870977971616,[],"[1280, 720]",ColorTask,-9.0,69.0,,,HRV,HRV_0260,2022-11-30 19:56:55
,wl-rdm,77,187297,0.0-6.69-0.69,0.0,68.0,,,,,,,[],,,,,,50.0,0.0,i,1.0,False,812.2000000476837,49.0,60.0,40.0,False,,263.52653204788203,[],"[1280, 720]",ColorTask,-10.0,70.0,,,HRV,HRV_0260,2022-11-30 19:56:55
,wl-rdm,78,189147,0.0-6.70-0.70,0.0,69.0,,,,,,,[],,,,,,87.9,1.0,u,0.0,False,503.60000002384186,31.0,60.0,40.0,False,,258.36502677271653,[],"[1280, 720]",ColorTask,-11.0,71.0,,,HRV,HRV_0260,2022-11-30 19:56:55
,wl-rdm,79,190865,0.0-6.71-0.71,0.0,70.0,,,,,,,[],,,,,,56.4,1.0,u,0.0,False,387.3000000715256,24.0,60.0,40.0,False,,263.0187370211326,[],"[1280, 720]",ColorTask,-12.0,72.0,,,HRV,HRV_0260,2022-11-30 19:56:55
,wl-rdm,80,192532,0.0-6.72-0.72,0.0,71.0,,,,,,,[],,,,,,53.2,1.0,i,1.0,True,326.40000009536743,20.0,60.0,40.0,False,,279.6193934090603,[],"[1280, 720]",ColorTask,-11.0,73.0,,,HRV,HRV_0260,2022-11-30 19:56:55
,wl-rdm,81,193997,0.0-6.73-0.73,0.0,71.0,,,,,,,[],,,,,,50.0,1.0,u,,,922.1999999284744,0.0,60.0,40.0,True,too_early ,387.6744922653256,[],"[1280, 720]",ColorTask,-12.0,74.0,,,HRV,HRV_0260,2022-11-30 19:56:55
,wl-rdm,82,195416,0.0-6.74-0.74,0.0,71.0,,,,,,,[],,,,,,87.9,0.0,i,1.0,False,31.300000071525574,2.0,60.0,40.0,True,too_early ,307.98684886144025,[],"[1280, 720]",ColorTask,-13.0,75.0,,,HRV,HRV_0260,2022-11-30 19:56:55
,wl-rdm,83,196581,0.0-6.75-0.75,0.0,71.0,,,,,,,[],,,,,,73.6,0.0,i,,,621.0999999046326,0.0,60.0,40.0,True,too_early ,316.4993736116148,[],"[1280, 720]",ColorTask,-14.0,76.0,,,HRV,HRV_0260,2022-11-30 19:56:55
,wl-rdm,84,199598,0.0-6.76-0.76,0.0,72.0,,,,,,,[],,,,,,73.6,1.0,u,0.0,False,1649.2999999523163,100.0,60.0,40.0,False,,272.0050000937954,[],"[1280, 720]",ColorTask,-15.0,77.0,,,HRV,HRV_0260,2022-11-30 19:56:55
,wl-rdm,85,201615,0.0-6.77-0.77,0.0,73.0,,,,,,,[],,,,,,73.6,0.0,i,1.0,False,598.2000000476837,36.0,60.0,40.0,False,,341.3050612615881,[],"[1280, 720]",ColorTask,-16.0,78.0,,,HRV,HRV_0260,2022-11-30 19:56:55
,wl-rdm,86,203684,0.0-6.78-0.78,0.0,74.0,,,,,,,[],,,,,,62.5,0.0,u,0.0,True,642.7000000476837,39.0,60.0,40.0,False,,343.54924681972693,[],"[1280, 720]",ColorTask,-15.0,79.0,,,HRV,HRV_0260,2022-11-30 19:56:55
,wl-rdm,87,205851,0.0-6.79-0.79,0.0,75.0,,,,,,,[],,,,,,56.4,0.0,u,0.0,True,743.8000000715256,45.0,60.0,40.0,False,,359.92213788546417,[],"[1280, 720]",ColorTask,-14.0,80.0,,,HRV,HRV_0260,2022-11-30 19:56:55
,wl-rdm,88,208051,0.0-6.80-0.80,0.0,76.0,,,,,,,[],,,,,,87.9,1.0,i,1.0,True,918.7999999523163,56.0,60.0,40.0,False,,208.39058491144087,[],"[1280, 720]",ColorTask,-13.0,81.0,,,HRV,HRV_0260,2022-11-30 19:56:55
,wl-rdm,89,209934,0.0-6.81-0.81,0.0,77.0,,,,,,,[],,,,,,87.9,1.0,i,1.0,True,574.0,35.0,60.0,40.0,False,,218.76754154754835,[],"[1280, 720]",ColorTask,-12.0,82.0,,,HRV,HRV_0260,2022-11-30 19:56:55
,wl-rdm,90,212002,0.0-6.82-0.82,0.0,78.0,,,,,,,[],,,,,,73.6,1.0,u,0.0,False,737.7999999523163,45.0,60.0,40.0,False,,258.6093893717018,[],"[1280, 720]",ColorTask,-13.0,83.0,,,HRV,HRV_0260,2022-11-30 19:56:55
,wl-rdm,91,214303,0.0-6.83-0.83,0.0,79.0,,,,,,,[],,,,,,62.5,1.0,i,1.0,True,964.4999998807907,58.0,60.0,40.0,False,,255.62866954457328,[],"[1280, 720]",ColorTask,-12.0,84.0,,,HRV,HRV_0260,2022-11-30 19:56:55
,wl-rdm,92,216621,0.0-6.84-0.84,0.0,80.0,,,,,,,[],,,,,,73.6,0.0,i,1.0,False,967.6000000238419,59.0,60.0,40.0,False,,269.680313466848,[],"[1280, 720]",ColorTask,-13.0,85.0,,,HRV,HRV_0260,2022-11-30 19:56:55
,wl-rdm,93,218637,0.0-6.85-0.85,0.0,81.0,,,,,,,[],,,,,,56.4,1.0,u,0.0,False,732.0,44.0,60.0,40.0,False,,229.56709973321833,[],"[1280, 720]",ColorTask,-14.0,86.0,,,HRV,HRV_0260,2022-11-30 19:56:55
,wl-rdm,94,220671,0.0-6.86-0.86,0.0,82.0,,,,,,,[],,,,,,53.2,1.0,i,1.0,True,714.8999999761581,43.0,60.0,40.0,False,,237.0190892164769,[],"[1280, 720]",ColorTask,-13.0,87.0,,,HRV,HRV_0260,2022-11-30 19:56:55
,wl-rdm,95,222405,0.0-6.87-0.87,0.0,83.0,,,,,,,[],,,,,,87.9,0.0,u,0.0,True,450.0000001192093,27.0,60.0,40.0,False,,217.2265216004472,[],"[1280, 720]",ColorTask,-12.0,88.0,,,HRV,HRV_0260,2022-11-30 19:56:55
,wl-rdm,96,224372,0.0-6.88-0.88,0.0,84.0,,,,,,,[],,,,,,62.5,1.0,i,1.0,True,550.5999999046326,33.0,60.0,40.0,False,,333.84527697646706,[],"[1280, 720]",ColorTask,-11.0,89.0,,,HRV,HRV_0260,2022-11-30 19:56:55
,wl-rdm,97,226339,0.0-6.89-0.89,0.0,85.0,,,,,,,[],,,,,,73.6,1.0,u,0.0,False,652.7000000476837,40.0,60.0,40.0,False,,223.43395517221546,[],"[1280, 720]",ColorTask,-12.0,90.0,,,HRV,HRV_0260,2022-11-30 19:56:55
,wl-rdm,98,228722,0.0-6.90-0.90,0.0,86.0,,,,,,,[],,,,,,87.9,0.0,u,0.0,True,952.5,58.0,60.0,40.0,False,,336.7502454296408,[],"[1280, 720]",ColorTask,-11.0,91.0,,,HRV,HRV_0260,2022-11-30 19:56:55
,wl-rdm,99,230639,0.0-6.91-0.91,0.0,87.0,,,,,,,[],,,,,,87.9,0.0,i,1.0,False,572.5000001192093,35.0,60.0,40.0,False,,275.44641273444665,[],"[1280, 720]",ColorTask,-12.0,92.0,,,HRV,HRV_0260,2022-11-30 19:56:55
,wl-rdm,100,232991,0.0-6.92-0.92,0.0,88.0,,,,,,,[],,,,,,50.0,0.0,i,1.0,False,955.7999999523163,58.0,60.0,40.0,False,,319.29622327955803,[],"[1280, 720]",ColorTask,-13.0,93.0,,,HRV,HRV_0260,2022-11-30 19:56:55
,wl-rdm,101,235025,0.0-6.93-0.93,0.0,89.0,,,,,,,[],,,,,,62.5,0.0,u,0.0,True,694.7000000476837,42.0,60.0,40.0,False,,251.44297452003252,[],"[1280, 720]",ColorTask,-12.0,94.0,,,HRV,HRV_0260,2022-11-30 19:56:55
,wl-rdm,102,236591,0.0-6.94-0.94,0.0,90.0,,,,,,,[],,,,,,73.6,1.0,u,0.0,False,196.20000004768372,12.0,60.0,40.0,False,,304.4887153692528,[],"[1280, 720]",ColorTask,-13.0,95.0,,,HRV,HRV_0260,2022-11-30 19:56:55
,wl-rdm,103,237659,0.0-6.95-0.95,0.0,90.0,,,,,,,[],,,,,,62.5,1.0,u,,,477.59999990463257,0.0,60.0,40.0,True,too_early ,252.92137150616034,[],"[1280, 720]",ColorTask,-14.0,96.0,,,HRV,HRV_0260,2022-11-30 19:56:55
,wl-rdm,104,239858,0.0-6.96-0.96,0.0,91.0,,,,,,,[],,,,,,53.2,0.0,u,0.0,True,852.1999999284744,52.0,60.0,40.0,False,,267.4594841458656,[],"[1280, 720]",ColorTask,-13.0,97.0,,,HRV,HRV_0260,2022-11-30 19:56:55
,wl-rdm,105,241758,0.0-6.97-0.97,0.0,92.0,,,,,,,[],,,,,,53.2,0.0,u,0.0,True,588.1000000238419,36.0,60.0,40.0,False,,237.45966820996347,[],"[1280, 720]",ColorTask,-12.0,98.0,,,HRV,HRV_0260,2022-11-30 19:56:55
,wl-rdm,106,244562,0.0-6.98-0.98,0.0,93.0,,,,,,,[],,,,,,53.2,1.0,i,1.0,True,1503.2000000476837,91.0,60.0,40.0,False,,218.0201128058086,[],"[1280, 720]",ColorTask,-11.0,99.0,,,HRV,HRV_0260,2022-11-30 19:56:55
,wl-rdm,107,246662,0.0-6.99-0.99,0.0,94.0,,,,,,,[],,,,,,53.2,1.0,i,1.0,True,788.7999999523163,48.0,60.0,40.0,False,,237.43529930778067,[],"[1280, 720]",ColorTask,-10.0,100.0,,,HRV,HRV_0260,2022-11-30 19:56:55
,wl-rdm,108,247827,0.0-6.100-0.100,0.0,94.0,,,,,,,[],,,,,,62.5,1.0,u,,,614.3999999761581,0.0,60.0,40.0,True,too_early ,256.5406615388638,[],"[1280, 720]",ColorTask,-11.0,101.0,,,HRV,HRV_0260,2022-11-30 19:56:55
,wl-rdm,109,250712,0.0-6.101-0.101,0.0,95.0,,,,,,,[],,,,,,62.5,0.0,u,0.0,True,1504.3000000715256,91.0,60.0,40.0,False,,326.3698121391634,[],"[1280, 720]",ColorTask,-10.0,102.0,,,HRV,HRV_0260,2022-11-30 19:56:55
,wl-rdm,110,255148,0.0-6.102-0.102,0.0,95.0,,,,,,,[],,,,,,73.6,0.0,u,,,3378.2999999523163,179.0,60.0,40.0,True,RT_timeout ,336.44363977835565,[],"[1280, 720]",ColorTask,-11.0,103.0,,,HRV,HRV_0260,2022-11-30 19:56:55
,wl-rdm,111,257631,0.0-6.103-0.103,0.0,96.0,,,,,,,[],,,,,,62.5,0.0,u,0.0,True,1121.0999999046326,68.0,60.0,40.0,False,,298.1245254362606,[],"[1280, 720]",ColorTask,-10.0,104.0,,,HRV,HRV_0260,2022-11-30 19:56:55
,wl-rdm,112,259364,0.0-6.104-0.104,0.0,97.0,,,,,,,[],,,,,,87.9,1.0,i,1.0,True,390.60000002384186,24.0,60.0,40.0,False,,252.4250279252919,[],"[1280, 720]",ColorTask,-9.0,105.0,,,HRV,HRV_0260,2022-11-30 19:56:55
,wl-rdm,113,261697,0.0-6.105-0.105,0.0,98.0,,,,,,,[],,,,,,56.4,0.0,u,0.0,True,926.2999999523163,56.0,60.0,40.0,False,,323.0060185136723,[],"[1280, 720]",ColorTask,-8.0,106.0,,,HRV,HRV_0260,2022-11-30 19:56:55
,wl-rdm,114,263300,0.0-6.106-0.106,0.0,99.0,,,,,,,[],,,,,,50.0,1.0,u,0.0,False,250.30000007152557,15.0,60.0,40.0,False,,285.33481170331083,[],"[1280, 720]",ColorTask,-9.0,107.0,,,HRV,HRV_0260,2022-11-30 19:56:55
,wl-rdm,115,264550,0.0-6.107-0.107,0.0,99.0,,,,,,,[],,,,,,50.0,0.0,u,,,727.6000000238419,0.0,60.0,40.0,True,too_early ,260.38982639877435,[],"[1280, 720]",ColorTask,-10.0,108.0,,,HRV,HRV_0260,2022-11-30 19:56:55
,wl-rdm,116,266850,0.0-6.108-0.108,0.0,100.0,,,,,,,[],,,,,,50.0,0.0,u,0.0,True,944.2000000476837,57.0,60.0,40.0,False,,280.7678845915779,[],"[1280, 720]",ColorTask,-9.0,109.0,,,HRV,HRV_0260,2022-11-30 19:56:55
,wl-rdm,117,268900,0.0-6.109-0.109,0.0,101.0,,,,,,,[],,,,,,50.0,0.0,u,0.0,True,690.8000000715256,42.0,60.0,40.0,False,,270.50906059840247,[],"[1280, 720]",ColorTask,-8.0,110.0,,,HRV,HRV_0260,2022-11-30 19:56:55
,wl-rdm,118,273319,0.0-6.110-0.110,0.0,101.0,,,,,,,[],,,,,,73.6,1.0,u,,,3263.0,179.0,60.0,40.0,True,RT_timeout ,319.2580012889599,[],"[1280, 720]",ColorTask,-9.0,111.0,,,HRV,HRV_0260,2022-11-30 19:56:55
,wl-rdm,119,276369,0.0-6.111-0.111,0.0,102.0,,,,,,,[],,,,,,73.6,0.0,u,0.0,True,1742.7000000476837,105.0,60.0,40.0,False,,240.51344364337487,[],"[1280, 720]",ColorTask,-8.0,112.0,,,HRV,HRV_0260,2022-11-30 19:56:55
,wl-rdm,120,277985,0.0-6.112-0.112,0.0,103.0,,,,,,,[],,,,,,73.6,1.0,u,0.0,False,292.2000000476837,18.0,60.0,40.0,False,,253.71925464103114,[],"[1280, 720]",ColorTask,-9.0,113.0,,,HRV,HRV_0260,2022-11-30 19:56:55
,wl-rdm,121,282338,0.0-6.113-0.113,0.0,103.0,,,,,,,[],,,,,,62.5,0.0,u,,,3267.4999998807907,179.0,60.0,40.0,True,RT_timeout ,279.3014834394136,[],"[1280, 720]",ColorTask,-10.0,114.0,,,HRV,HRV_0260,2022-11-30 19:56:55
,wl-rdm,122,284459,0.0-6.114-0.114,0.0,104.0,,,,,,,[],,,,,,50.0,0.0,u,0.0,True,828.6000000238419,50.0,60.0,40.0,False,,216.409442380284,[],"[1280, 720]",ColorTask,-9.0,115.0,,,HRV,HRV_0260,2022-11-30 19:56:55
,wl-rdm,123,285972,0.0-6.115-0.115,0.0,104.0,,,,,,,[],,,,,,62.5,1.0,i,1.0,True,97.39999997615814,6.0,60.0,40.0,True,too_early ,351.05047155952184,[],"[1280, 720]",ColorTask,-8.0,116.0,,,HRV,HRV_0260,2022-11-30 19:56:55
,wl-rdm,124,288021,0.0-6.116-0.116,0.0,105.0,,,,,,,[],,,,,,56.4,1.0,u,0.0,False,738.0999999046326,45.0,60.0,40.0,False,,231.57584766801995,[],"[1280, 720]",ColorTask,-9.0,117.0,,,HRV,HRV_0260,2022-11-30 19:56:55
,wl-rdm,125,290172,0.0-6.117-0.117,0.0,106.0,,,,,,,[],,,,,,56.4,0.0,i,1.0,False,864.2999999523163,52.0,60.0,40.0,False,,218.20936484561483,[],"[1280, 720]",ColorTask,-10.0,118.0,,,HRV,HRV_0260,2022-11-30 19:56:55
,wl-rdm,126,293974,0.0-6.118-0.118,0.0,107.0,,,,,,,[],,,,,,87.9,0.0,u,0.0,True,2481.5999999046326,149.0,60.0,40.0,False,,242.9312650363142,[],"[1280, 720]",ColorTask,-9.0,119.0,,,HRV,HRV_0260,2022-11-30 19:56:55
,wl-rdm,127,298308,0.0-6.119-0.119,0.0,107.0,,,,,,,[],,,,,,62.5,0.0,,,,,179.0,60.0,40.0,True,RT_timeout ,250.4630826449471,[],"[1280, 720]",ColorTask,-10.0,120.0,,,HRV,HRV_0260,2022-11-30 19:56:55
,wl-rdm,128,299375,0.0-6.120-0.120,0.0,107.0,,,,,,,[],,,,,,62.5,1.0,u,,,118.60000002384186,0.0,60.0,40.0,True,too_early ,363.0685653097905,[],"[1280, 720]",ColorTask,-11.0,121.0,,,HRV,HRV_0260,2022-11-30 19:56:55
,wl-rdm,129,301274,0.0-6.121-0.121,0.0,108.0,,,,,,,[],,,,,,50.0,0.0,i,1.0,False,547.5,33.0,60.0,40.0,False,,297.6274303717272,[],"[1280, 720]",ColorTask,-12.0,122.0,,,HRV,HRV_0260,2022-11-30 19:56:55
,wl-rdm,130,304157,0.0-6.122-0.122,0.0,109.0,,,,,,,[],,,,,,62.5,1.0,i,1.0,True,1594.3000000715256,95.0,60.0,40.0,False,,202.82629610985518,[],"[1280, 720]",ColorTask,-11.0,123.0,,,HRV,HRV_0260,2022-11-30 19:56:55
,wl-rdm,131,308125,0.0-6.123-0.123,0.0,110.0,,,,,,,[],,,,,,62.5,0.0,u,0.0,True,2688.6999999284744,162.0,60.0,40.0,False,,203.0737632997637,[],"[1280, 720]",ColorTask,-10.0,124.0,,,HRV,HRV_0260,2022-11-30 19:56:55
,wl-rdm,132,312494,0.0-6.124-0.124,0.0,110.0,,,,,,,[],,,,,,53.2,0.0,u,,,3317.2999999523163,179.0,60.0,40.0,True,RT_timeout ,294.01212587949504,[],"[1280, 720]",ColorTask,-11.0,125.0,,,HRV,HRV_0260,2022-11-30 19:56:55
,wl-rdm,133,314811,0.0-6.125-0.125,0.0,111.0,,,,,,,[],,,,,,62.5,1.0,u,0.0,False,856.3999999761581,52.0,60.0,40.0,False,,379.5526654962388,[],"[1280, 720]",ColorTask,-12.0,126.0,,,HRV,HRV_0260,2022-11-30 19:56:55
,wl-rdm,134,317011,0.0-6.126-0.126,0.0,112.0,,,,,,,[],,,,,,87.9,1.0,i,1.0,True,896.6999999284744,54.0,60.0,40.0,False,,236.5582007420405,[],"[1280, 720]",ColorTask,-11.0,127.0,,,HRV,HRV_0260,2022-11-30 19:56:55
,wl-rdm,135,319011,0.0-6.127-0.127,0.0,113.0,,,,,,,[],,,,,,73.6,1.0,u,0.0,False,581.1000000238419,35.0,60.0,40.0,False,,358.12899918285325,[],"[1280, 720]",ColorTask,-12.0,128.0,,,HRV,HRV_0260,2022-11-30 19:56:55
,wl-rdm,136,321012,0.0-6.128-0.128,0.0,114.0,,,,,,,[],,,,,,53.2,0.0,i,1.0,False,572.8000000715256,35.0,60.0,40.0,False,,364.9096681103827,[],"[1280, 720]",ColorTask,-13.0,129.0,,,HRV,HRV_0260,2022-11-30 19:56:55
,wl-rdm,137,322912,0.0-6.129-0.129,0.0,115.0,,,,,,,[],,,,,,62.5,1.0,u,0.0,False,601.6000000238419,36.0,60.0,40.0,False,,238.66690565899677,[],"[1280, 720]",ColorTask,-14.0,130.0,,,HRV,HRV_0260,2022-11-30 19:56:55
,wl-rdm,138,324231,0.0-6.130-0.130,0.0,115.0,,,,,,,[],,,,,,50.0,1.0,u,,,776.7999999523163,0.0,60.0,40.0,True,too_early ,276.44911894180615,[],"[1280, 720]",ColorTask,-15.0,131.0,,,HRV,HRV_0260,2022-11-30 19:56:55
,wl-rdm,139,326846,0.0-6.131-0.131,0.0,116.0,,,,,,,[],,,,,,50.0,1.0,u,0.0,False,1320.6000000238419,80.0,60.0,40.0,False,,201.4614117232272,[],"[1280, 720]",ColorTask,-16.0,132.0,,,HRV,HRV_0260,2022-11-30 19:56:55
,wl-html-keyboard-response,140,398875,0.0-7.0-0.0,1.0,117.0,,,,,,,,70028.19999992847,1.0,0,,,,,,,,,,,,,,,,,,,,,,HRV,HRV_0260,2022-11-30 19:56:55
,wl-rdm,141,401332,0.0-8.0-0.0,1.0,118.0,,,,,,,[],,,,,,53.2,1.0,i,1.0,True,1035.3000000715256,63.0,60.0,40.0,False,,360.3480179635499,[],"[1280, 720]",ColorTask,-15.0,1.0,,,HRV,HRV_0260,2022-11-30 19:56:55
,wl-rdm,142,403382,0.0-8.1-0.1,1.0,119.0,,,,,,,[],,,,,,56.4,0.0,i,1.0,False,723.6000000238419,44.0,60.0,40.0,False,,240.98965429926238,[],"[1280, 720]",ColorTask,-16.0,2.0,,,HRV,HRV_0260,2022-11-30 19:56:55
,wl-rdm,143,405899,0.0-8.2-0.2,1.0,120.0,,,,,,,[],,,,,,56.4,0.0,i,1.0,False,1187.0,72.0,60.0,40.0,False,,234.8238489159557,[],"[1280, 720]",ColorTask,-17.0,3.0,,,HRV,HRV_0260,2022-11-30 19:56:55
,wl-rdm,144,407552,0.0-8.3-0.3,1.0,121.0,,,,,,,[],,,,,,56.4,0.0,u,0.0,True,297.90000009536743,18.0,60.0,40.0,False,,298.32763139035137,[],"[1280, 720]",ColorTask,-16.0,4.0,,,HRV,HRV_0260,2022-11-30 19:56:55
,wl-rdm,145,409034,0.0-8.4-0.4,1.0,121.0,,,,,,,[],,,,,,87.9,1.0,i,1.0,True,35.89999997615814,3.0,60.0,40.0,True,too_early ,372.5997119517351,[],"[1280, 720]",ColorTask,-15.0,5.0,,,HRV,HRV_0260,2022-11-30 19:56:55
,wl-rdm,146,410935,0.0-8.5-0.5,1.0,122.0,,,,,,,[],,,,,,73.6,0.0,i,1.0,False,473.1999999284744,29.0,60.0,40.0,False,,334.43290352223744,[],"[1280, 720]",ColorTask,-16.0,6.0,,,HRV,HRV_0260,2022-11-30 19:56:55
,wl-rdm,147,413385,0.0-8.6-0.6,1.0,123.0,,,,,,,[],,,,,,73.6,1.0,u,0.0,False,1163.5,70.0,60.0,40.0,False,,213.6665215562791,[],"[1280, 720]",ColorTask,-17.0,7.0,,,HRV,HRV_0260,2022-11-30 19:56:55
,wl-rdm,148,414469,0.0-8.7-0.7,1.0,123.0,,,,,,,[],,,,,,50.0,1.0,u,,,532.5,0.0,60.0,40.0,True,too_early ,202.88496154709253,[],"[1280, 720]",ColorTask,-18.0,8.0,,,HRV,HRV_0260,2022-11-30 19:56:55
,wl-rdm,149,416320,0.0-8.8-0.8,1.0,124.0,,,,,,,[],,,,,,87.9,0.0,u,0.0,True,439.89999997615814,27.0,60.0,40.0,False,,346.16787999667264,[],"[1280, 720]",ColorTask,-17.0,9.0,,,HRV,HRV_0260,2022-11-30 19:56:55
,wl-rdm,150,418654,0.0-8.9-0.9,1.0,125.0,,,,,,,[],,,,,,62.5,1.0,i,1.0,True,1030.5000001192093,61.0,60.0,40.0,False,,230.7544649421511,[],"[1280, 720]",ColorTask,-16.0,10.0,,,HRV,HRV_0260,2022-11-30 19:56:55
,wl-rdm,151,421154,0.0-8.10-0.10,1.0,126.0,,,,,,,[],,,,,,73.6,0.0,i,1.0,False,1220.3000000715256,74.0,60.0,40.0,False,,210.67214300899164,[],"[1280, 720]",ColorTask,-17.0,11.0,,,HRV,HRV_0260,2022-11-30 19:56:55
,wl-rdm,152,422987,0.0-8.11-0.11,1.0,127.0,,,,,,,[],,,,,,87.9,1.0,u,0.0,False,409.7999999523163,25.0,60.0,40.0,False,,337.81339530385355,[],"[1280, 720]",ColorTask,-18.0,12.0,,,HRV,HRV_0260,2022-11-30 19:56:55
,wl-rdm,153,424753,0.0-8.12-0.12,1.0,128.0,,,,,,,[],,,,,,87.9,0.0,u,0.0,True,460.10000002384186,28.0,60.0,40.0,False,,241.1042390760628,[],"[1280, 720]",ColorTask,-17.0,13.0,,,HRV,HRV_0260,2022-11-30 19:56:55
,wl-rdm,154,428922,0.0-8.13-0.13,1.0,129.0,,,,,,,[],,,,,,87.9,1.0,u,0.0,False,2878.899999856949,173.0,60.0,40.0,False,,227.56212968436984,[],"[1280, 720]",ColorTask,-18.0,14.0,,,HRV,HRV_0260,2022-11-30 19:56:55
,wl-rdm,155,430857,0.0-8.14-0.14,1.0,130.0,,,,,,,[],,,,,,62.5,1.0,i,1.0,True,661.799999833107,40.0,60.0,40.0,False,,200.86553984352105,[],"[1280, 720]",ColorTask,-17.0,15.0,,,HRV,HRV_0260,2022-11-30 19:56:55
,wl-rdm,156,432975,0.0-8.15-0.15,1.0,131.0,,,,,,,[],,,,,,62.5,1.0,i,1.0,True,832.5,50.0,60.0,40.0,False,,201.68391930972948,[],"[1280, 720]",ColorTask,-16.0,16.0,,,HRV,HRV_0260,2022-11-30 19:56:55
,wl-rdm,157,434559,0.0-8.16-0.16,1.0,132.0,,,,,,,[],,,,,,62.5,1.0,u,0.0,False,167.39999997615814,11.0,60.0,40.0,False,,329.6793170577473,[],"[1280, 720]",ColorTask,-17.0,17.0,,,HRV,HRV_0260,2022-11-30 19:56:55
,wl-rdm,158,436813,0.0-8.17-0.17,1.0,133.0,,,,,,,[],,,,,,87.9,1.0,u,0.0,False,856.1000000238419,52.0,60.0,40.0,False,,311.5187484816337,[],"[1280, 720]",ColorTask,-18.0,18.0,,,HRV,HRV_0260,2022-11-30 19:56:55
,wl-rdm,159,437897,0.0-8.18-0.18,1.0,133.0,,,,,,,[],,,,,,56.4,1.0,u,,,324.5,0.0,60.0,40.0,True,too_early ,206.86076043163524,[],"[1280, 720]",ColorTask,-19.0,19.0,,,HRV,HRV_0260,2022-11-30 19:56:55
,wl-rdm,160,439798,0.0-8.19-0.19,1.0,134.0,,,,,,,[],,,,,,50.0,1.0,u,0.0,False,594.1000000238419,35.0,60.0,40.0,False,,238.17951696948782,[],"[1280, 720]",ColorTask,-20.0,20.0,,,HRV,HRV_0260,2022-11-30 19:56:55
,wl-rdm,161,440897,0.0-8.20-0.20,1.0,134.0,,,,,,,[],,,,,,73.6,0.0,u,,,580.1000000238419,0.0,60.0,40.0,True,too_early ,262.5362399241401,[],"[1280, 720]",ColorTask,-21.0,21.0,,,HRV,HRV_0260,2022-11-30 19:56:55
,wl-rdm,162,442598,0.0-8.21-0.21,1.0,135.0,,,,,,,[],,,,,,62.5,1.0,u,0.0,False,319.59999990463257,20.0,60.0,40.0,False,,308.14956019596593,[],"[1280, 720]",ColorTask,-22.0,22.0,,,HRV,HRV_0260,2022-11-30 19:56:55
,wl-rdm,163,444200,0.0-8.22-0.22,1.0,136.0,,,,,,,[],,,,,,56.4,0.0,u,0.0,True,244.39999985694885,15.0,60.0,40.0,False,,289.91968110290645,[],"[1280, 720]",ColorTask,-21.0,23.0,,,HRV,HRV_0260,2022-11-30 19:56:55
,wl-rdm,164,446067,0.0-8.23-0.23,1.0,137.0,,,,,,,[],,,,,,56.4,0.0,u,0.0,True,542.1000000238419,33.0,60.0,40.0,False,,248.20454993621246,[],"[1280, 720]",ColorTask,-20.0,24.0,,,HRV,HRV_0260,2022-11-30 19:56:55
,wl-rdm,165,448065,0.0-8.24-0.24,1.0,138.0,,,,,,,[],,,,,,73.6,0.0,u,0.0,True,559.6999999284744,34.0,60.0,40.0,False,,340.194173462345,[],"[1280, 720]",ColorTask,-19.0,25.0,,,HRV,HRV_0260,2022-11-30 19:56:55
,wl-rdm,166,449385,0.0-8.25-0.25,1.0,138.0,,,,,,,[],,,,,,62.5,0.0,u,,,795.0999999046326,0.0,60.0,40.0,True,too_early ,399.9702125539459,[],"[1280, 720]",ColorTask,-20.0,26.0,,,HRV,HRV_0260,2022-11-30 19:56:55
,wl-rdm,167,450702,0.0-8.26-0.26,1.0,138.0,,,,,,,[],,,,,,50.0,0.0,u,,,772.2000000476837,0.0,60.0,40.0,True,too_early ,258.9550986636927,[],"[1280, 720]",ColorTask,-21.0,27.0,,,HRV,HRV_0260,2022-11-30 19:56:55
,wl-rdm,168,452585,0.0-8.27-0.27,1.0,139.0,,,,,,,[],,,,,,53.2,1.0,u,0.0,False,506.39999985694885,31.0,60.0,40.0,False,,289.5163345977037,[],"[1280, 720]",ColorTask,-22.0,28.0,,,HRV,HRV_0260,2022-11-30 19:56:55
,wl-rdm,169,454353,0.0-8.28-0.28,1.0,140.0,,,,,,,[],,,,,,50.0,1.0,u,0.0,False,356.10000002384186,22.0,60.0,40.0,False,,324.67188484257224,[],"[1280, 720]",ColorTask,-23.0,29.0,,,HRV,HRV_0260,2022-11-30 19:56:55
,wl-rdm,170,456205,0.0-8.29-0.29,1.0,141.0,,,,,,,[],,,,,,62.5,1.0,u,0.0,False,428.39999997615814,26.0,60.0,40.0,False,,357.10007620900717,[],"[1280, 720]",ColorTask,-24.0,30.0,,,HRV,HRV_0260,2022-11-30 19:56:55
,wl-rdm,171,457745,0.0-8.30-0.30,1.0,142.0,,,,,,,[],,,,,,50.0,0.0,u,0.0,True,252.70000004768372,15.0,60.0,40.0,False,,207.1871886861233,[],"[1280, 720]",ColorTask,-23.0,31.0,,,HRV,HRV_0260,2022-11-30 19:56:55
,wl-rdm,172,459606,0.0-8.31-0.31,1.0,143.0,,,,,,,[],,,,,,50.0,1.0,u,0.0,False,449.60000002384186,28.0,60.0,40.0,False,,297.70342733830375,[],"[1280, 720]",ColorTask,-24.0,32.0,,,HRV,HRV_0260,2022-11-30 19:56:55
,wl-rdm,173,461290,0.0-8.32-0.32,1.0,144.0,,,,,,,[],,,,,,87.9,1.0,u,0.0,False,381.0,23.0,60.0,40.0,False,,219.2189957354367,[],"[1280, 720]",ColorTask,-25.0,33.0,,,HRV,HRV_0260,2022-11-30 19:56:55
,wl-rdm,174,463057,0.0-8.33-0.33,1.0,145.0,,,,,,,[],,,,,,53.2,0.0,u,0.0,True,430.5,26.0,60.0,40.0,False,,272.126058956763,[],"[1280, 720]",ColorTask,-24.0,34.0,,,HRV,HRV_0260,2022-11-30 19:56:55
,wl-rdm,175,464791,0.0-8.34-0.34,1.0,146.0,,,,,,,[],,,,,,50.0,1.0,i,1.0,True,316.5,20.0,60.0,40.0,False,,335.01951285565605,[],"[1280, 720]",ColorTask,-23.0,35.0,,,HRV,HRV_0260,2022-11-30 19:56:55
,wl-rdm,176,467593,0.0-8.35-0.35,1.0,147.0,,,,,,,[],,,,,,87.9,0.0,u,0.0,True,1358.1999999284744,82.0,60.0,40.0,False,,353.8861250336935,[],"[1280, 720]",ColorTask,-22.0,36.0,,,HRV,HRV_0260,2022-11-30 19:56:55
,wl-rdm,177,469076,0.0-8.36-0.36,1.0,148.0,,,,,,,[],,,,,,56.4,0.0,u,0.0,True,159.79999995231628,10.0,60.0,40.0,False,,262.7706042843515,[],"[1280, 720]",ColorTask,-21.0,37.0,,,HRV,HRV_0260,2022-11-30 19:56:55
,wl-rdm,178,471092,0.0-8.37-0.37,1.0,149.0,,,,,,,[],,,,,,87.9,1.0,u,0.0,False,725.2999999523163,44.0,60.0,40.0,False,,224.17849728013624,[],"[1280, 720]",ColorTask,-22.0,38.0,,,HRV,HRV_0260,2022-11-30 19:56:55
,wl-rdm,179,473109,0.0-8.38-0.38,1.0,150.0,,,,,,,[],,,,,,73.6,1.0,i,1.0,True,635.1000000238419,39.0,60.0,40.0,False,,296.9543575927652,[],"[1280, 720]",ColorTask,-21.0,39.0,,,HRV,HRV_0260,2022-11-30 19:56:55
,wl-rdm,180,474177,0.0-8.39-0.39,1.0,150.0,,,,,,,[],,,,,,53.2,1.0,i,,,297.7999999523163,0.0,60.0,40.0,True,too_early ,357.0041829162233,[],"[1280, 720]",ColorTask,-22.0,40.0,,,HRV,HRV_0260,2022-11-30 19:56:55
,wl-rdm,181,476363,0.0-8.40-0.40,1.0,151.0,,,,,,,[],,,,,,73.6,1.0,i,1.0,True,746.7999999523163,45.0,60.0,40.0,False,,373.55756740242316,[],"[1280, 720]",ColorTask,-21.0,41.0,,,HRV,HRV_0260,2022-11-30 19:56:55
,wl-rdm,182,478397,0.0-8.41-0.41,1.0,152.0,,,,,,,[],,,,,,62.5,1.0,i,1.0,True,628.6000000238419,38.0,60.0,40.0,False,,331.8952010549356,[],"[1280, 720]",ColorTask,-20.0,42.0,,,HRV,HRV_0260,2022-11-30 19:56:55
,wl-rdm,183,480496,0.0-8.42-0.42,1.0,153.0,,,,,,,[],,,,,,50.0,0.0,u,0.0,True,763.7000000476837,46.0,60.0,40.0,False,,275.21967867277436,[],"[1280, 720]",ColorTask,-19.0,43.0,,,HRV,HRV_0260,2022-11-30 19:56:55
,wl-rdm,184,482647,0.0-8.43-0.43,1.0,154.0,,,,,,,[],,,,,,53.2,0.0,u,0.0,True,735.3999998569489,45.0,60.0,40.0,False,,320.1835009698963,[],"[1280, 720]",ColorTask,-18.0,44.0,,,HRV,HRV_0260,2022-11-30 19:56:55
,wl-rdm,185,484513,0.0-8.44-0.44,1.0,155.0,,,,,,,[],,,,,,87.9,1.0,i,1.0,True,439.0,27.0,60.0,40.0,False,,340.05599898915136,[],"[1280, 720]",ColorTask,-17.0,45.0,,,HRV,HRV_0260,2022-11-30 19:56:55
,wl-rdm,186,486732,0.0-8.45-0.45,1.0,156.0,,,,,,,[],,,,,,56.4,1.0,u,0.0,False,929.1000000238419,56.0,60.0,40.0,False,,204.91083103272308,[],"[1280, 720]",ColorTask,-18.0,46.0,,,HRV,HRV_0260,2022-11-30 19:56:55
,wl-rdm,187,488165,0.0-8.46-0.46,1.0,156.0,,,,,,,[],,,,,,50.0,1.0,i,1.0,True,42.700000047683716,3.0,60.0,40.0,True,too_early ,316.4443810822703,[],"[1280, 720]",ColorTask,-17.0,47.0,,,HRV,HRV_0260,2022-11-30 19:56:55
,wl-rdm,188,490148,0.0-8.47-0.47,1.0,157.0,,,,,,,[],,,,,,50.0,1.0,i,1.0,True,577.8999999761581,35.0,60.0,40.0,False,,307.5175879479944,[],"[1280, 720]",ColorTask,-16.0,48.0,,,HRV,HRV_0260,2022-11-30 19:56:55
,wl-rdm,189,491699,0.0-8.48-0.48,1.0,158.0,,,,,,,[],,,,,,73.6,0.0,u,0.0,True,212.29999995231628,13.0,60.0,40.0,False,,254.04424411862382,[],"[1280, 720]",ColorTask,-15.0,49.0,,,HRV,HRV_0260,2022-11-30 19:56:55
,wl-rdm,190,493699,0.0-8.49-0.49,1.0,159.0,,,,,,,[],,,,,,62.5,1.0,i,1.0,True,561.1000000238419,33.0,60.0,40.0,False,,363.4367834765135,[],"[1280, 720]",ColorTask,-14.0,50.0,,,HRV,HRV_0260,2022-11-30 19:56:55
,wl-rdm,191,495732,0.0-8.50-0.50,1.0,160.0,,,,,,,[],,,,,,87.9,0.0,i,1.0,False,569.1999999284744,35.0,60.0,40.0,False,,379.5314978170967,[],"[1280, 720]",ColorTask,-15.0,51.0,,,HRV,HRV_0260,2022-11-30 19:56:55
,wl-rdm,192,498152,0.0-8.51-0.51,1.0,161.0,,,,,,,[],,,,,,62.5,0.0,i,1.0,False,1091.1000000238419,66.0,60.0,40.0,False,,277.97070688663257,[],"[1280, 720]",ColorTask,-16.0,52.0,,,HRV,HRV_0260,2022-11-30 19:56:55
,wl-rdm,193,499719,0.0-8.52-0.52,1.0,162.0,,,,,,,[],,,,,,87.9,0.0,u,0.0,True,116.10000002384186,7.0,60.0,40.0,False,,390.7444517482042,[],"[1280, 720]",ColorTask,-15.0,53.0,,,HRV,HRV_0260,2022-11-30 19:56:55
,wl-rdm,194,501669,0.0-8.53-0.53,1.0,163.0,,,,,,,[],,,,,,53.2,1.0,u,0.0,False,558.7999999523163,34.0,60.0,40.0,False,,318.72060102024636,[],"[1280, 720]",ColorTask,-16.0,54.0,,,HRV,HRV_0260,2022-11-30 19:56:55
,wl-rdm,195,504151,0.0-8.54-0.54,1.0,164.0,,,,,,,[],,,,,,62.5,0.0,i,1.0,False,1072.2999999523163,65.0,60.0,40.0,False,,343.1536687399248,[],"[1280, 720]",ColorTask,-17.0,55.0,,,HRV,HRV_0260,2022-11-30 19:56:55
,wl-rdm,196,505885,0.0-8.55-0.55,1.0,165.0,,,,,,,[],,,,,,73.6,0.0,u,0.0,True,418.2000000476837,26.0,60.0,40.0,False,,216.61858498377288,[],"[1280, 720]",ColorTask,-16.0,56.0,,,HRV,HRV_0260,2022-11-30 19:56:55
,wl-rdm,197,508388,0.0-8.56-0.56,1.0,166.0,,,,,,,[],,,,,,87.9,0.0,u,0.0,True,1220.7999999523163,73.0,60.0,40.0,False,,205.17085350397434,[],"[1280, 720]",ColorTask,-15.0,57.0,,,HRV,HRV_0260,2022-11-30 19:56:55
,wl-rdm,198,510622,0.0-8.57-0.57,1.0,167.0,,,,,,,[],,,,,,56.4,1.0,i,1.0,True,850.5,52.0,60.0,40.0,False,,301.07573613939576,[],"[1280, 720]",ColorTask,-14.0,58.0,,,HRV,HRV_0260,2022-11-30 19:56:55
,wl-rdm,199,512438,0.0-8.58-0.58,1.0,168.0,,,,,,,[],,,,,,56.4,1.0,u,0.0,False,433.3000000715256,26.0,60.0,40.0,False,,301.5616464397911,[],"[1280, 720]",ColorTask,-15.0,59.0,,,HRV,HRV_0260,2022-11-30 19:56:55
,wl-rdm,200,514539,0.0-8.59-0.59,1.0,169.0,,,,,,,[],,,,,,73.6,1.0,u,0.0,False,694.6000000238419,42.0,60.0,40.0,False,,326.0242585678325,[],"[1280, 720]",ColorTask,-16.0,60.0,,,HRV,HRV_0260,2022-11-30 19:56:55
,wl-rdm,201,516223,0.0-8.60-0.60,1.0,170.0,,,,,,,[],,,,,,50.0,1.0,u,0.0,False,359.2000000476837,22.0,60.0,40.0,False,,247.1292781251913,[],"[1280, 720]",ColorTask,-17.0,61.0,,,HRV,HRV_0260,2022-11-30 19:56:55
,wl-rdm,202,517291,0.0-8.61-0.61,1.0,170.0,,,,,,,[],,,,,,87.9,1.0,u,,,302.89999997615814,0.0,60.0,40.0,True,too_early ,353.6578267180201,[],"[1280, 720]",ColorTask,-18.0,62.0,,,HRV,HRV_0260,2022-11-30 19:56:55
,wl-rdm,203,519340,0.0-8.62-0.62,1.0,171.0,,,,,,,[],,,,,,62.5,0.0,u,0.0,True,691.5000001192093,41.0,60.0,40.0,False,,282.18261561223113,[],"[1280, 720]",ColorTask,-17.0,63.0,,,HRV,HRV_0260,2022-11-30 19:56:55
,wl-rdm,204,520509,0.0-8.63-0.63,1.0,171.0,,,,,,,[],,,,,,56.4,1.0,u,,,618.2000000476837,0.0,60.0,40.0,True,too_early ,249.19755993173948,[],"[1280, 720]",ColorTask,-18.0,64.0,,,HRV,HRV_0260,2022-11-30 19:56:55
,wl-rdm,205,522573,0.0-8.64-0.64,1.0,172.0,,,,,,,[],,,,,,87.9,1.0,i,1.0,True,681.8999999761581,42.0,60.0,40.0,False,,305.15099561767505,[],"[1280, 720]",ColorTask,-17.0,65.0,,,HRV,HRV_0260,2022-11-30 19:56:55
,wl-rdm,206,525858,0.0-8.65-0.65,1.0,173.0,,,,,,,[],,,,,,62.5,0.0,u,0.0,True,2011.0,121.0,60.0,40.0,False,,203.0608004977612,[],"[1280, 720]",ColorTask,-16.0,66.0,,,HRV,HRV_0260,2022-11-30 19:56:55
,wl-rdm,207,527993,0.0-8.66-0.66,1.0,174.0,,,,,,,[],,,,,,87.9,0.0,u,0.0,True,854.2000000476837,52.0,60.0,40.0,False,,205.97946796638894,[],"[1280, 720]",ColorTask,-15.0,67.0,,,HRV,HRV_0260,2022-11-30 19:56:55
,wl-rdm,208,529078,0.0-8.67-0.67,1.0,174.0,,,,,,,[],,,,,,53.2,1.0,i,,,388.60000002384186,0.0,60.0,40.0,True,too_early ,266.95332137460326,[],"[1280, 720]",ColorTask,-16.0,68.0,,,HRV,HRV_0260,2022-11-30 19:56:55
,wl-rdm,209,530677,0.0-8.68-0.68,1.0,175.0,,,,,,,[],,,,,,50.0,0.0,i,1.0,False,275.90000009536743,17.0,60.0,40.0,False,,240.75015471756058,[],"[1280, 720]",ColorTask,-17.0,69.0,,,HRV,HRV_0260,2022-11-30 19:56:55
,wl-rdm,210,531760,0.0-8.69-0.69,1.0,175.0,,,,,,,[],,,,,,53.2,0.0,u,,,433.09999990463257,0.0,60.0,40.0,True,too_early ,252.10638482939578,[],"[1280, 720]",ColorTask,-18.0,70.0,,,HRV,HRV_0260,2022-11-30 19:56:55
,wl-rdm,211,533560,0.0-8.70-0.70,1.0,176.0,,,,,,,[],,,,,,53.2,1.0,i,1.0,True,404.3000000715256,25.0,60.0,40.0,False,,324.120477491671,[],"[1280, 720]",ColorTask,-17.0,71.0,,,HRV,HRV_0260,2022-11-30 19:56:55
,wl-rdm,212,534994,0.0-8.71-0.71,1.0,176.0,,,,,,,[],,,,,,62.5,0.0,u,0.0,True,4.200000047683716,2.0,60.0,40.0,True,too_early ,320.4221957071749,[],"[1280, 720]",ColorTask,-16.0,72.0,,,HRV,HRV_0260,2022-11-30 19:56:55
,wl-rdm,213,536145,0.0-8.72-0.72,1.0,176.0,,,,,,,[],,,,,,53.2,1.0,u,,,603.1000000238419,0.0,60.0,40.0,True,too_early ,326.2179078462808,[],"[1280, 720]",ColorTask,-17.0,73.0,,,HRV,HRV_0260,2022-11-30 19:56:55
,wl-rdm,214,537228,0.0-8.73-0.73,1.0,176.0,,,,,,,[],,,,,,56.4,1.0,u,,,475.2999999523163,0.0,60.0,40.0,True,too_early ,242.1660080255475,[],"[1280, 720]",ColorTask,-18.0,74.0,,,HRV,HRV_0260,2022-11-30 19:56:55
,wl-rdm,215,538312,0.0-8.74-0.74,1.0,176.0,,,,,,,[],,,,,,53.2,1.0,u,,,337.60000002384186,0.0,60.0,40.0,True,too_early ,317.16104483432684,[],"[1280, 720]",ColorTask,-19.0,75.0,,,HRV,HRV_0260,2022-11-30 19:56:55
,wl-rdm,216,540195,0.0-8.75-0.75,1.0,177.0,,,,,,,[],,,,,,73.6,1.0,u,0.0,False,426.10000002384186,26.0,60.0,40.0,False,,373.0591279262228,[],"[1280, 720]",ColorTask,-20.0,76.0,,,HRV,HRV_0260,2022-11-30 19:56:55
,wl-rdm,217,541263,0.0-8.76-0.76,1.0,177.0,,,,,,,[],,,,,,56.4,1.0,u,,,450.5,0.0,60.0,40.0,True,too_early ,353.21455765605214,[],"[1280, 720]",ColorTask,-21.0,77.0,,,HRV,HRV_0260,2022-11-30 19:56:55
,wl-rdm,218,542428,0.0-8.77-0.77,1.0,177.0,,,,,,,[],,,,,,56.4,1.0,u,,,630.7000000476837,0.0,60.0,40.0,True,too_early ,288.3952263726168,[],"[1280, 720]",ColorTask,-22.0,78.0,,,HRV,HRV_0260,2022-11-30 19:56:55
,wl-rdm,219,544511,0.0-8.78-0.78,1.0,178.0,,,,,,,[],,,,,,56.4,0.0,u,0.0,True,805.5999999046326,48.0,60.0,40.0,False,,212.29360045300044,[],"[1280, 720]",ColorTask,-21.0,79.0,,,HRV,HRV_0260,2022-11-30 19:56:55
,wl-rdm,220,548381,0.0-8.79-0.79,1.0,179.0,,,,,,,[],,,,,,56.4,1.0,u,0.0,False,2502.899999976158,151.0,60.0,40.0,False,,272.3799046108897,[],"[1280, 720]",ColorTask,-22.0,80.0,,,HRV,HRV_0260,2022-11-30 19:56:55
,wl-rdm,221,550898,0.0-8.80-0.80,1.0,180.0,,,,,,,[],,,,,,62.5,1.0,u,0.0,False,1227.0,74.0,60.0,40.0,False,,229.09002471731253,[],"[1280, 720]",ColorTask,-23.0,81.0,,,HRV,HRV_0260,2022-11-30 19:56:55
,wl-rdm,222,554597,0.0-8.81-0.81,1.0,181.0,,,,,,,[],,,,,,53.2,1.0,u,0.0,False,2406.100000023842,145.0,60.0,40.0,False,,234.01737264583807,[],"[1280, 720]",ColorTask,-24.0,82.0,,,HRV,HRV_0260,2022-11-30 19:56:55
,wl-rdm,223,556448,0.0-8.82-0.82,1.0,182.0,,,,,,,[],,,,,,87.9,1.0,i,1.0,True,444.10000002384186,27.0,60.0,40.0,False,,339.35197063805276,[],"[1280, 720]",ColorTask,-23.0,83.0,,,HRV,HRV_0260,2022-11-30 19:56:55
,wl-rdm,224,558664,0.0-8.83-0.83,1.0,183.0,,,,,,,[],,,,,,56.4,1.0,i,1.0,True,821.6000000238419,50.0,60.0,40.0,False,,304.9768287776859,[],"[1280, 720]",ColorTask,-22.0,84.0,,,HRV,HRV_0260,2022-11-30 19:56:55
,wl-rdm,225,561014,0.0-8.84-0.84,1.0,184.0,,,,,,,[],,,,,,50.0,0.0,u,0.0,True,922.8000000715256,56.0,60.0,40.0,False,,358.11104224260896,[],"[1280, 720]",ColorTask,-21.0,85.0,,,HRV,HRV_0260,2022-11-30 19:56:55
,wl-rdm,226,562714,0.0-8.85-0.85,1.0,185.0,,,,,,,[],,,,,,50.0,0.0,i,1.0,False,375.89999997615814,23.0,60.0,40.0,False,,235.8792781071889,[],"[1280, 720]",ColorTask,-22.0,86.0,,,HRV,HRV_0260,2022-11-30 19:56:55
,wl-rdm,227,563782,0.0-8.86-0.86,1.0,185.0,,,,,,,[],,,,,,73.6,0.0,i,,,185.60000002384186,0.0,60.0,40.0,True,too_early ,361.46718808227854,[],"[1280, 720]",ColorTask,-23.0,87.0,,,HRV,HRV_0260,2022-11-30 19:56:55
,wl-rdm,228,564849,0.0-8.87-0.87,1.0,185.0,,,,,,,[],,,,,,53.2,1.0,u,,,430.5,0.0,60.0,40.0,True,too_early ,247.7858010438058,[],"[1280, 720]",ColorTask,-24.0,88.0,,,HRV,HRV_0260,2022-11-30 19:56:55
,wl-rdm,229,568968,0.0-8.88-0.88,1.0,186.0,,,,,,,[],,,,,,53.2,1.0,u,0.0,False,2764.2000000476837,166.0,60.0,40.0,False,,269.34313804366934,[],"[1280, 720]",ColorTask,-25.0,89.0,,,HRV,HRV_0260,2022-11-30 19:56:55
,wl-rdm,230,570869,0.0-8.89-0.89,1.0,187.0,,,,,,,[],,,,,,53.2,1.0,i,1.0,True,624.5,38.0,60.0,40.0,False,,200.04308768551132,[],"[1280, 720]",ColorTask,-24.0,90.0,,,HRV,HRV_0260,2022-11-30 19:56:55
,wl-rdm,231,572419,0.0-8.90-0.90,1.0,188.0,,,,,,,[],,,,,,53.2,0.0,u,0.0,True,219.20000004768372,14.0,60.0,40.0,False,,232.86743834113867,[],"[1280, 720]",ColorTask,-23.0,91.0,,,HRV,HRV_0260,2022-11-30 19:56:55
,wl-rdm,232,573486,0.0-8.91-0.91,1.0,188.0,,,,,,,[],,,,,,87.9,0.0,u,,,248.5,0.0,60.0,40.0,True,too_early ,271.8082644387682,[],"[1280, 720]",ColorTask,-24.0,92.0,,,HRV,HRV_0260,2022-11-30 19:56:55
,wl-rdm,233,574551,0.0-8.92-0.92,1.0,188.0,,,,,,,[],,,,,,53.2,0.0,u,,,365.90000009536743,0.0,60.0,40.0,True,too_early ,213.87510328667992,[],"[1280, 720]",ColorTask,-25.0,93.0,,,HRV,HRV_0260,2022-11-30 19:56:55
,wl-rdm,234,575618,0.0-8.93-0.93,1.0,188.0,,,,,,,[],,,,,,73.6,0.0,u,,,125.20000004768372,0.0,60.0,40.0,True,too_early ,281.299042426347,[],"[1280, 720]",ColorTask,-26.0,94.0,,,HRV,HRV_0260,2022-11-30 19:56:55
,wl-rdm,235,579339,0.0-8.94-0.94,1.0,189.0,,,,,,,[],,,,,,73.6,1.0,u,0.0,False,2275.899999976158,137.0,60.0,40.0,False,,388.3647551545391,[],"[1280, 720]",ColorTask,-27.0,95.0,,,HRV,HRV_0260,2022-11-30 19:56:55
,wl-rdm,236,583755,0.0-8.95-0.95,1.0,189.0,,,,,,,[],,,,,,73.6,0.0,u,,,3280.5,179.0,60.0,40.0,True,RT_timeout ,314.80105213328557,[],"[1280, 720]",ColorTask,-28.0,96.0,,,HRV,HRV_0260,2022-11-30 19:56:55
,wl-rdm,237,585755,0.0-8.96-0.96,1.0,190.0,,,,,,,[],,,,,,56.4,1.0,i,1.0,True,665.2000000476837,40.0,60.0,40.0,False,,282.2314649511613,[],"[1280, 720]",ColorTask,-27.0,97.0,,,HRV,HRV_0260,2022-11-30 19:56:55
,wl-rdm,238,588708,0.0-8.97-0.97,1.0,191.0,,,,,,,[],,,,,,50.0,1.0,u,0.0,False,1516.9999998807907,92.0,60.0,40.0,False,,369.0121253543584,[],"[1280, 720]",ColorTask,-28.0,98.0,,,HRV,HRV_0260,2022-11-30 19:56:55
,wl-rdm,239,590892,0.0-8.98-0.98,1.0,192.0,,,,,,,[],,,,,,53.2,0.0,u,0.0,True,792.3999999761581,48.0,60.0,40.0,False,,301.4580859941575,[],"[1280, 720]",ColorTask,-27.0,99.0,,,HRV,HRV_0260,2022-11-30 19:56:55
,wl-rdm,240,592874,0.0-8.99-0.99,1.0,193.0,,,,,,,[],,,,,,50.0,1.0,i,1.0,True,526.8000000715256,32.0,60.0,40.0,False,,381.10587291738597,[],"[1280, 720]",ColorTask,-26.0,100.0,,,HRV,HRV_0260,2022-11-30 19:56:55
,wl-rdm,241,595907,0.0-8.100-0.100,1.0,194.0,,,,,,,[],,,,,,62.5,0.0,u,0.0,True,1724.7999999523163,104.0,60.0,40.0,False,,222.24953946772717,[],"[1280, 720]",ColorTask,-25.0,101.0,,,HRV,HRV_0260,2022-11-30 19:56:55
,wl-rdm,242,597810,0.0-8.101-0.101,1.0,195.0,,,,,,,[],,,,,,73.6,0.0,u,0.0,True,558.8999999761581,34.0,60.0,40.0,False,,294.09740597055077,[],"[1280, 720]",ColorTask,-24.0,102.0,,,HRV,HRV_0260,2022-11-30 19:56:55
,wl-rdm,243,599927,0.0-8.102-0.102,1.0,196.0,,,,,,,[],,,,,,62.5,0.0,u,0.0,True,771.6000000238419,47.0,60.0,40.0,False,,251.502788857276,[],"[1280, 720]",ColorTask,-23.0,103.0,,,HRV,HRV_0260,2022-11-30 19:56:55
,wl-rdm,244,602093,0.0-8.103-0.103,1.0,197.0,,,,,,,[],,,,,,56.4,1.0,i,1.0,True,755.1000000238419,46.0,60.0,40.0,False,,338.2819929863517,[],"[1280, 720]",ColorTask,-22.0,104.0,,,HRV,HRV_0260,2022-11-30 19:56:55
,wl-rdm,245,604509,0.0-8.104-0.104,1.0,198.0,,,,,,,[],,,,,,50.0,1.0,i,1.0,True,1078.5999999046326,65.0,60.0,40.0,False,,267.4499061346603,[],"[1280, 720]",ColorTask,-21.0,105.0,,,HRV,HRV_0260,2022-11-30 19:56:55
,wl-rdm,246,607463,0.0-8.105-0.105,1.0,199.0,,,,,,,[],,,,,,56.4,0.0,i,1.0,False,1580.2000000476837,95.0,60.0,40.0,False,,303.1470359502815,[],"[1280, 720]",ColorTask,-22.0,106.0,,,HRV,HRV_0260,2022-11-30 19:56:55
,wl-rdm,247,609163,0.0-8.106-0.106,1.0,200.0,,,,,,,[],,,,,,87.9,0.0,u,0.0,True,286.59999990463257,17.0,60.0,40.0,False,,343.9213383845729,[],"[1280, 720]",ColorTask,-21.0,107.0,,,HRV,HRV_0260,2022-11-30 19:56:55
,wl-rdm,248,613479,0.0-8.107-0.107,1.0,200.0,,,,,,,[],,,,,,56.4,1.0,u,,,3252.6999999284744,179.0,60.0,40.0,True,RT_timeout ,217.1989377381697,[],"[1280, 720]",ColorTask,-22.0,108.0,,,HRV,HRV_0260,2022-11-30 19:56:55
,wl-rdm,249,615328,0.0-8.108-0.108,1.0,201.0,,,,,,,[],,,,,,73.6,1.0,i,1.0,True,501.6999999284744,31.0,60.0,40.0,False,,258.23128834406054,[],"[1280, 720]",ColorTask,-21.0,109.0,,,HRV,HRV_0260,2022-11-30 19:56:55
,wl-rdm,250,617013,0.0-8.109-0.109,1.0,202.0,,,,,,,[],,,,,,62.5,0.0,u,0.0,True,279.8000000715256,17.0,60.0,40.0,False,,329.103624035326,[],"[1280, 720]",ColorTask,-20.0,110.0,,,HRV,HRV_0260,2022-11-30 19:56:55
,wl-rdm,251,619129,0.0-8.110-0.110,1.0,203.0,,,,,,,[],,,,,,53.2,0.0,u,0.0,True,801.0999999046326,49.0,60.0,40.0,False,,223.33269636646102,[],"[1280, 720]",ColorTask,-19.0,111.0,,,HRV,HRV_0260,2022-11-30 19:56:55
,wl-rdm,252,620347,0.0-8.111-0.111,1.0,203.0,,,,,,,[],,,,,,73.6,0.0,u,,,696.7999999523163,0.0,60.0,40.0,True,too_early ,229.86913106154168,[],"[1280, 720]",ColorTask,-20.0,112.0,,,HRV,HRV_0260,2022-11-30 19:56:55
,wl-rdm,253,622264,0.0-8.112-0.112,1.0,204.0,,,,,,,[],,,,,,56.4,1.0,u,0.0,False,644.5,39.0,60.0,40.0,False,,207.209396014754,[],"[1280, 720]",ColorTask,-21.0,113.0,,,HRV,HRV_0260,2022-11-30 19:56:55
,wl-rdm,254,626149,0.0-8.113-0.113,1.0,205.0,,,,,,,[],,,,,,50.0,0.0,u,0.0,True,2506.899999976158,151.0,60.0,40.0,False,,315.3000836568635,[],"[1280, 720]",ColorTask,-20.0,114.0,,,HRV,HRV_0260,2022-11-30 19:56:55
,wl-rdm,255,627668,0.0-8.114-0.114,1.0,206.0,,,,,,,[],,,,,,56.4,0.0,i,1.0,False,166.0,10.0,60.0,40.0,False,,286.919083230264,[],"[1280, 720]",ColorTask,-21.0,115.0,,,HRV,HRV_0260,2022-11-30 19:56:55
,wl-rdm,256,630516,0.0-8.115-0.115,1.0,207.0,,,,,,,[],,,,,,53.2,1.0,u,0.0,False,1372.1000000238419,83.0,60.0,40.0,False,,388.0060498139394,[],"[1280, 720]",ColorTask,-22.0,116.0,,,HRV,HRV_0260,2022-11-30 19:56:55
,wl-rdm,257,632750,0.0-8.116-0.116,1.0,208.0,,,,,,,[],,,,,,50.0,0.0,i,1.0,False,787.7999999523163,48.0,60.0,40.0,False,,357.72633152033654,[],"[1280, 720]",ColorTask,-23.0,117.0,,,HRV,HRV_0260,2022-11-30 19:56:55
,wl-rdm,258,634599,0.0-8.117-0.117,1.0,209.0,,,,,,,[],,,,,,53.2,1.0,u,0.0,False,519.0,32.0,60.0,40.0,False,,244.45591118590113,[],"[1280, 720]",ColorTask,-24.0,118.0,,,HRV,HRV_0260,2022-11-30 19:56:55
,wl-rdm,259,636652,0.0-8.118-0.118,1.0,210.0,,,,,,,[],,,,,,73.6,1.0,u,0.0,False,740.3999999761581,45.0,60.0,40.0,False,,220.5952313780993,[],"[1280, 720]",ColorTask,-25.0,119.0,,,HRV,HRV_0260,2022-11-30 19:56:55
,wl-rdm,260,639519,0.0-8.119-0.119,1.0,211.0,,,,,,,[],,,,,,53.2,0.0,i,1.0,False,1459.7000000476837,88.0,60.0,40.0,False,,338.6234723801347,[],"[1280, 720]",ColorTask,-26.0,120.0,,,HRV,HRV_0260,2022-11-30 19:56:55
,wl-rdm,261,641070,0.0-8.120-0.120,1.0,212.0,,,,,,,[],,,,,,73.6,0.0,u,0.0,True,245.39999997615814,15.0,60.0,40.0,False,,247.26830916486583,[],"[1280, 720]",ColorTask,-25.0,121.0,,,HRV,HRV_0260,2022-11-30 19:56:55
,wl-rdm,262,642386,0.0-8.121-0.121,1.0,212.0,,,,,,,[],,,,,,53.2,0.0,u,0.0,True,40.40000009536743,3.0,60.0,40.0,True,too_early ,207.44140701216875,[],"[1280, 720]",ColorTask,-24.0,122.0,,,HRV,HRV_0260,2022-11-30 19:56:55
,wl-rdm,263,644436,0.0-8.122-0.122,1.0,213.0,,,,,,,[],,,,,,62.5,0.0,i,1.0,False,706.3000000715256,43.0,60.0,40.0,False,,281.1722267731984,[],"[1280, 720]",ColorTask,-25.0,123.0,,,HRV,HRV_0260,2022-11-30 19:56:55
,wl-rdm,264,646322,0.0-8.123-0.123,1.0,214.0,,,,,,,[],,,,,,50.0,0.0,u,0.0,True,485.8000000715256,30.0,60.0,40.0,False,,308.5614516997397,[],"[1280, 720]",ColorTask,-24.0,124.0,,,HRV,HRV_0260,2022-11-30 19:56:55
,wl-rdm,265,648155,0.0-8.124-0.124,1.0,215.0,,,,,,,[],,,,,,62.5,0.0,u,0.0,True,471.89999997615814,29.0,60.0,40.0,False,,299.7907961294424,[],"[1280, 720]",ColorTask,-23.0,125.0,,,HRV,HRV_0260,2022-11-30 19:56:55
,wl-rdm,266,649722,0.0-8.125-0.125,1.0,216.0,,,,,,,[],,,,,,73.6,0.0,u,0.0,True,290.0,18.0,60.0,40.0,False,,202.02838171505456,[],"[1280, 720]",ColorTask,-22.0,126.0,,,HRV,HRV_0260,2022-11-30 19:56:55
,wl-rdm,267,651655,0.0-8.126-0.126,1.0,217.0,,,,,,,[],,,,,,87.9,0.0,i,1.0,False,660.3999999761581,40.0,60.0,40.0,False,,208.3939634799897,[],"[1280, 720]",ColorTask,-23.0,127.0,,,HRV,HRV_0260,2022-11-30 19:56:55
,wl-rdm,268,653623,0.0-8.127-0.127,1.0,218.0,,,,,,,[],,,,,,73.6,1.0,u,0.0,False,654.5,40.0,60.0,40.0,False,,231.4564457179209,[],"[1280, 720]",ColorTask,-24.0,128.0,,,HRV,HRV_0260,2022-11-30 19:56:55
,wl-rdm,269,657106,0.0-8.128-0.128,1.0,219.0,,,,,,,[],,,,,,73.6,0.0,i,1.0,False,2190.899999976158,132.0,60.0,40.0,False,,206.8006355561286,[],"[1280, 720]",ColorTask,-25.0,129.0,,,HRV,HRV_0260,2022-11-30 19:56:55
,wl-rdm,270,658624,0.0-8.129-0.129,1.0,219.0,,,,,,,[],,,,,,53.2,0.0,u,0.0,True,85.70000004768372,6.0,60.0,40.0,True,too_early ,360.5589451885593,[],"[1280, 720]",ColorTask,-24.0,130.0,,,HRV,HRV_0260,2022-11-30 19:56:55
,wl-rdm,271,659691,0.0-8.130-0.130,1.0,219.0,,,,,,,[],,,,,,53.2,0.0,u,,,257.1999999284744,0.0,60.0,40.0,True,too_early ,311.1111568563753,[],"[1280, 720]",ColorTask,-25.0,131.0,,,HRV,HRV_0260,2022-11-30 19:56:55
,wl-rdm,272,661257,0.0-8.131-0.131,1.0,220.0,,,,,,,[],,,,,,53.2,0.0,u,0.0,True,256.7000000476837,16.0,60.0,40.0,False,,218.41128860615842,[],"[1280, 720]",ColorTask,-24.0,132.0,,,HRV,HRV_0260,2022-11-30 19:56:55
,wl-rdm,273,663107,0.0-8.132-0.132,1.0,221.0,,,,,,,[],,,,,,53.2,0.0,u,0.0,True,506.10000002384186,31.0,60.0,40.0,False,,263.36265618831084,[],"[1280, 720]",ColorTask,-23.0,133.0,,,HRV,HRV_0260,2022-11-30 19:56:55
,wl-rdm,274,665243,0.0-8.133-0.133,1.0,222.0,,,,,,,[],,,,,,53.2,0.0,u,0.0,True,799.1000000238419,48.0,60.0,40.0,False,,289.9193051447325,[],"[1280, 720]",ColorTask,-22.0,134.0,,,HRV,HRV_0260,2022-11-30 19:56:55
,wl-rdm,275,667011,0.0-8.134-0.134,1.0,223.0,,,,,,,[],,,,,,50.0,0.0,i,1.0,False,407.89999997615814,25.0,60.0,40.0,False,,286.2784488387664,[],"[1280, 720]",ColorTask,-23.0,135.0,,,HRV,HRV_0260,2022-11-30 19:56:55
,wl-rdm,276,668261,0.0-8.135-0.135,1.0,223.0,,,,,,,[],,,,,,87.9,1.0,u,,,709.6999999284744,0.0,60.0,40.0,True,too_early ,324.13615385960725,[],"[1280, 720]",ColorTask,-24.0,136.0,,,HRV,HRV_0260,2022-11-30 19:56:55
,wl-rdm,277,670028,0.0-8.136-0.136,1.0,224.0,,,,,,,[],,,,,,56.4,1.0,u,0.0,False,487.09999990463257,30.0,60.0,40.0,False,,213.26622180166007,[],"[1280, 720]",ColorTask,-25.0,137.0,,,HRV,HRV_0260,2022-11-30 19:56:55
,wl-rdm,278,671845,0.0-8.137-0.137,1.0,225.0,,,,,,,[],,,,,,87.9,1.0,i,1.0,True,496.7999999523163,30.0,60.0,40.0,False,,245.04908331989435,[],"[1280, 720]",ColorTask,-24.0,138.0,,,HRV,HRV_0260,2022-11-30 19:56:55
,wl-html-button-response,279,675388,0.0-9.0-0.0,,,,,,,,,,3540.899999976158,,0,,,,,,,,,,,,,,,,,,,,<h3>End of this session. Thank you!</h3><br>,['Close window'],HRV,HRV_0260,2022-11-30 19:56:55
