trialN,stimuli,trialStartTime,trialStartTime_UNIX,stimulus1,stimulus2,stimulus1Bid,stimulus2Bid,delta,selected,rt,rt_UNIX,rt_perfnow,receivedResponse,rsp,trialEndTime,trialDuration,trialEndTime_UNIX,trialDuration_UNIX,exp,subjectId,date
0,"[{'imgObject': {}, 'id': 'omelette', 'src': '/static/foodstim60/omelette.jpg', 'key': 'u', 'origWidth': 410, 'origHeight': 409, 'width': 410, 'height': 409, 'widthPercent': 0.45, 'rescaleHeight': False, 'trialN': 0, 'loaded': True, 'loadedTime': 2286.399999976158, 'positionName': 'LEFT', 'positionCoords': [818.8, 499], 'bid': 2.27}, {'imgObject': {}, 'id': 'salad w chicken', 'src': '/static/foodstim60/salad w chicken.jpg', 'key': 'i', 'origWidth': 411, 'origHeight': 411, 'width': 411, 'height': 411, 'widthPercent': 0.45, 'rescaleHeight': False, 'trialN': 0, 'loaded': True, 'loadedTime': 2306.399999976158, 'positionName': 'RIGHT', 'positionCoords': [1331.2, 498], 'bid': 2.72}]",2755.2000000476837,1669836530729,omelette,salad w chicken,2.27,2.72,0.4500000000000002,salad w chicken,3298.100000023842,3302,3302.100000023842,True,i,6563.800000071526,3808.600000023842,1669836534537,3808,HRV,HRV_0260,2022-11-30 19:32:53
1,"[{'imgObject': {}, 'id': 'shreddedwheatwithmilk', 'src': '/static/foodstim60/shreddedwheatwithmilk.jpg', 'key': 'u', 'origWidth': 410, 'origHeight': 410, 'width': 410, 'height': 410, 'widthPercent': 0.45, 'rescaleHeight': False, 'trialN': 1, 'loaded': True, 'loadedTime': 6565.600000023842, 'positionName': 'LEFT', 'positionCoords': [818.8, 515], 'bid': 1.88}, {'imgObject': {}, 'id': 'rigatoni and sauce', 'src': '/static/foodstim60/rigatoni and sauce.jpg', 'key': 'i', 'origWidth': 410, 'origHeight': 411, 'width': 410, 'height': 411, 'widthPercent': 0.45, 'rescaleHeight': False, 'trialN': 1, 'loaded': True, 'loadedTime': 6565.700000047684, 'positionName': 'RIGHT', 'positionCoords': [1331.2, 514.5], 'bid': 2.43}]",6564.200000047684,1669836534538,shreddedwheatwithmilk,rigatoni and sauce,1.88,2.43,0.5500000000000003,rigatoni and sauce,713.1000000238419,716,716.1000000238419,True,i,7781.0,1216.7999999523163,1669836535754,1216,HRV,HRV_0260,2022-11-30 19:32:53
2,"[{'imgObject': {}, 'id': 'edamame', 'src': '/static/foodstim60/edamame.jpg', 'key': 'u', 'origWidth': 409, 'origHeight': 410, 'width': 409, 'height': 410, 'widthPercent': 0.45, 'rescaleHeight': False, 'trialN': 2, 'loaded': True, 'loadedTime': 7782.399999976158, 'positionName': 'LEFT', 'positionCoords': [819.8, 515], 'bid': 3.88}, {'imgObject': {}, 'id': 'Tribe humus pita', 'src': '/static/foodstim60/Tribe humus pita.jpg', 'key': 'i', 'origWidth': 411, 'origHeight': 411, 'width': 411, 'height': 411, 'widthPercent': 0.45, 'rescaleHeight': False, 'trialN': 2, 'loaded': True, 'loadedTime': 7782.700000047684, 'positionName': 'RIGHT', 'positionCoords': [1331.2, 514.5], 'bid': 7.25}]",7781.300000071526,1669836535755,edamame,Tribe humus pita,3.88,7.25,3.37,Tribe humus pita,1152,1155,1156.0,True,i,9444.899999976158,1663.5999999046326,1669836537418,1663,HRV,HRV_0260,2022-11-30 19:32:53
3,"[{'imgObject': {}, 'id': 'chicken nuggets2', 'src': '/static/foodstim60/chicken nuggets2.jpg', 'key': 'u', 'origWidth': 410, 'origHeight': 409, 'width': 410, 'height': 409, 'widthPercent': 0.45, 'rescaleHeight': False, 'trialN': 3, 'loaded': True, 'loadedTime': 9446.5, 'positionName': 'LEFT', 'positionCoords': [818.8, 515.5], 'bid': 6.8100000000000005}, {'imgObject': {}, 'id': 'burger', 'src': '/static/foodstim60/burger.jpg', 'key': 'i', 'origWidth': 409, 'origHeight': 409, 'width': 409, 'height': 409, 'widthPercent': 0.45, 'rescaleHeight': False, 'trialN': 3, 'loaded': True, 'loadedTime': 9446.800000071526, 'positionName': 'RIGHT', 'positionCoords': [1331.2, 515.5], 'bid': 5.64}]",9445.300000071526,1669836537418,chicken nuggets2,burger,6.8100000000000005,5.64,-1.1700000000000008,chicken nuggets2,896,900,899.5999999046326,True,u,10847.899999976158,1402.5999999046326,1669836538821,1403,HRV,HRV_0260,2022-11-30 19:32:53
4,"[{'imgObject': {}, 'id': 'pear', 'src': '/static/foodstim60/pear.jpg', 'key': 'u', 'origWidth': 411, 'origHeight': 410, 'width': 411, 'height': 410, 'widthPercent': 0.45, 'rescaleHeight': False, 'trialN': 4, 'loaded': True, 'loadedTime': 10849.399999976158, 'positionName': 'LEFT', 'positionCoords': [817.8, 515], 'bid': 3.88}, {'imgObject': {}, 'id': 'eggs', 'src': '/static/foodstim60/eggs.jpg', 'key': 'i', 'origWidth': 409, 'origHeight': 409, 'width': 409, 'height': 409, 'widthPercent': 0.45, 'rescaleHeight': False, 'trialN': 4, 'loaded': True, 'loadedTime': 10849.700000047684, 'positionName': 'RIGHT', 'positionCoords': [1331.2, 515.5], 'bid': 3.36}]",10848.300000071526,1669836538821,pear,eggs,3.88,3.36,-0.52,eggs,1173,1177,1176.5999999046326,True,i,12525.899999976158,1677.5999999046326,1669836540499,1678,HRV,HRV_0260,2022-11-30 19:32:53
5,"[{'imgObject': {}, 'id': 'tacos', 'src': '/static/foodstim60/tacos.jpg', 'key': 'u', 'origWidth': 411, 'origHeight': 411, 'width': 411, 'height': 411, 'widthPercent': 0.45, 'rescaleHeight': False, 'trialN': 5, 'loaded': True, 'loadedTime': 12528.100000023842, 'positionName': 'LEFT', 'positionCoords': [817.8, 514.5], 'bid': 3.77}, {'imgObject': {}, 'id': 'cherries', 'src': '/static/foodstim60/cherries.jpg', 'key': 'i', 'origWidth': 410, 'origHeight': 411, 'width': 410, 'height': 411, 'widthPercent': 0.45, 'rescaleHeight': False, 'trialN': 5, 'loaded': True, 'loadedTime': 12528.600000023842, 'positionName': 'RIGHT', 'positionCoords': [1331.2, 514.5], 'bid': 3.82}]",12526.300000071526,1669836540499,tacos,cherries,3.77,3.82,0.04999999999999982,tacos,831,835,834.3999999761581,True,u,13868.300000071526,1342.0,1669836541841,1342,HRV,HRV_0260,2022-11-30 19:32:53
6,"[{'imgObject': {}, 'id': 'mac & cheese', 'src': '/static/foodstim60/mac & cheese.jpg', 'key': 'u', 'origWidth': 410, 'origHeight': 410, 'width': 410, 'height': 410, 'widthPercent': 0.45, 'rescaleHeight': False, 'trialN': 6, 'loaded': True, 'loadedTime': 13869.800000071526, 'positionName': 'LEFT', 'positionCoords': [818.8, 515], 'bid': 8.09}, {'imgObject': {}, 'id': 'salmon', 'src': '/static/foodstim60/salmon.jpg', 'key': 'i', 'origWidth': 410, 'origHeight': 409, 'width': 410, 'height': 409, 'widthPercent': 0.45, 'rescaleHeight': False, 'trialN': 6, 'loaded': True, 'loadedTime': 13870.100000023842, 'positionName': 'RIGHT', 'positionCoords': [1331.2, 515.5], 'bid': 3.89}]",13868.600000023842,1669836541842,mac & cheese,salmon,8.09,3.89,-4.199999999999999,mac & cheese,816.7999999523163,819,819.7999999523163,True,u,15195.700000047684,1327.1000000238419,1669836543169,1327,HRV,HRV_0260,2022-11-30 19:32:53
7,"[{'imgObject': {}, 'id': 'pear', 'src': '/static/foodstim60/pear.jpg', 'key': 'u', 'origWidth': 411, 'origHeight': 410, 'width': 411, 'height': 410, 'widthPercent': 0.45, 'rescaleHeight': False, 'trialN': 7, 'loaded': True, 'loadedTime': 15197.5, 'positionName': 'LEFT', 'positionCoords': [817.8, 515], 'bid': 3.88}, {'imgObject': {}, 'id': 'banana', 'src': '/static/foodstim60/banana.jpg', 'key': 'i', 'origWidth': 410, 'origHeight': 410, 'width': 410, 'height': 410, 'widthPercent': 0.45, 'rescaleHeight': False, 'trialN': 7, 'loaded': True, 'loadedTime': 15197.800000071526, 'positionName': 'RIGHT', 'positionCoords': [1331.2, 515], 'bid': 7.42}]",15196.100000023842,1669836543169,pear,banana,3.88,7.42,3.54,banana,1361.2000000476837,1364,1364.3999999761581,True,i,17064.5,1868.3999999761581,1669836545037,1868,HRV,HRV_0260,2022-11-30 19:32:53
8,"[{'imgObject': {}, 'id': 'yogurt no spoon', 'src': '/static/foodstim60/yogurt no spoon.jpg', 'key': 'u', 'origWidth': 411, 'origHeight': 410, 'width': 411, 'height': 410, 'widthPercent': 0.45, 'rescaleHeight': False, 'trialN': 8, 'loaded': True, 'loadedTime': 17065.899999976158, 'positionName': 'LEFT', 'positionCoords': [817.8, 515], 'bid': 3.13}, {'imgObject': {}, 'id': 'seaweed', 'src': '/static/foodstim60/seaweed.jpg', 'key': 'i', 'origWidth': 410, 'origHeight': 410, 'width': 410, 'height': 410, 'widthPercent': 0.45, 'rescaleHeight': False, 'trialN': 8, 'loaded': True, 'loadedTime': 17066, 'positionName': 'RIGHT', 'positionCoords': [1331.2, 515], 'bid': 3.61}]",17064.899999976158,1669836545038,yogurt no spoon,seaweed,3.13,3.61,0.48,yogurt no spoon,1300.4000000953674,1303,1303.5,True,u,18877.0,1812.1000000238419,1669836546850,1812,HRV,HRV_0260,2022-11-30 19:32:53
9,"[{'imgObject': {}, 'id': 'cherries', 'src': '/static/foodstim60/cherries.jpg', 'key': 'u', 'origWidth': 410, 'origHeight': 411, 'width': 410, 'height': 411, 'widthPercent': 0.45, 'rescaleHeight': False, 'trialN': 9, 'loaded': True, 'loadedTime': 18878.100000023842, 'positionName': 'LEFT', 'positionCoords': [818.8, 514.5], 'bid': 3.82}, {'imgObject': {}, 'id': 'raisin bran w milk', 'src': '/static/foodstim60/raisin bran w milk.jpg', 'key': 'i', 'origWidth': 411, 'origHeight': 411, 'width': 411, 'height': 411, 'widthPercent': 0.45, 'rescaleHeight': False, 'trialN': 9, 'loaded': True, 'loadedTime': 18878.300000071526, 'positionName': 'RIGHT', 'positionCoords': [1331.2, 514.5], 'bid': 3.91}]",18877.300000071526,1669836546850,cherries,raisin bran w milk,3.82,3.91,0.0900000000000003,raisin bran w milk,1023.8999999761581,1027,1027.1999999284744,True,i,20413.700000047684,1536.3999999761581,1669836548386,1536,HRV,HRV_0260,2022-11-30 19:32:53
10,"[{'imgObject': {}, 'id': 'bagel plain', 'src': '/static/foodstim60/bagel plain.jpg', 'key': 'u', 'origWidth': 410, 'origHeight': 410, 'width': 410, 'height': 410, 'widthPercent': 0.45, 'rescaleHeight': False, 'trialN': 10, 'loaded': True, 'loadedTime': 20415.300000071526, 'positionName': 'LEFT', 'positionCoords': [818.8, 515], 'bid': 6.1000000000000005}, {'imgObject': {}, 'id': 'chicken nuggets2', 'src': '/static/foodstim60/chicken nuggets2.jpg', 'key': 'i', 'origWidth': 410, 'origHeight': 409, 'width': 410, 'height': 409, 'widthPercent': 0.45, 'rescaleHeight': False, 'trialN': 10, 'loaded': True, 'loadedTime': 20415.399999976158, 'positionName': 'RIGHT', 'positionCoords': [1331.2, 515.5], 'bid': 6.8100000000000005}]",20414.0,1669836548387,bagel plain,chicken nuggets2,6.1000000000000005,6.8100000000000005,0.71,chicken nuggets2,671.3000000715256,675,674.8999999761581,True,i,21596.899999976158,1182.8999999761581,1669836549570,1183,HRV,HRV_0260,2022-11-30 19:32:53
11,"[{'imgObject': {}, 'id': 'roastedpotatoes', 'src': '/static/foodstim60/roastedpotatoes.jpg', 'key': 'u', 'origWidth': 409, 'origHeight': 410, 'width': 409, 'height': 410, 'widthPercent': 0.45, 'rescaleHeight': False, 'trialN': 11, 'loaded': True, 'loadedTime': 21598.5, 'positionName': 'LEFT', 'positionCoords': [819.8, 515], 'bid': 6.0200000000000005}, {'imgObject': {}, 'id': 'turkey sandwich', 'src': '/static/foodstim60/turkey sandwich.jpg', 'key': 'i', 'origWidth': 409, 'origHeight': 409, 'width': 409, 'height': 409, 'widthPercent': 0.45, 'rescaleHeight': False, 'trialN': 11, 'loaded': True, 'loadedTime': 21598.700000047684, 'positionName': 'RIGHT', 'positionCoords': [1331.2, 515.5], 'bid': 6.5600000000000005}]",21597.200000047684,1669836549570,roastedpotatoes,turkey sandwich,6.0200000000000005,6.5600000000000005,0.54,roastedpotatoes,1128.1000000238419,1131,1131.1000000238419,True,u,23228.800000071526,1631.6000000238419,1669836551201,1631,HRV,HRV_0260,2022-11-30 19:32:53
12,"[{'imgObject': {}, 'id': 'fried eggs', 'src': '/static/foodstim60/fried eggs.jpg', 'key': 'u', 'origWidth': 410, 'origHeight': 410, 'width': 410, 'height': 410, 'widthPercent': 0.45, 'rescaleHeight': False, 'trialN': 12, 'loaded': True, 'loadedTime': 23230.200000047684, 'positionName': 'LEFT', 'positionCoords': [818.8, 515], 'bid': 6.12}, {'imgObject': {}, 'id': 'grilled chicken strips', 'src': '/static/foodstim60/grilled chicken strips.jpg', 'key': 'i', 'origWidth': 410, 'origHeight': 411, 'width': 410, 'height': 411, 'widthPercent': 0.45, 'rescaleHeight': False, 'trialN': 12, 'loaded': True, 'loadedTime': 23230.399999976158, 'positionName': 'RIGHT', 'positionCoords': [1331.2, 514.5], 'bid': 6.12}]",23229.0,1669836551202,fried eggs,grilled chicken strips,6.12,6.12,0.0,fried eggs,672.3000000715256,677,677.2000000476837,True,u,24413.600000023842,1184.6000000238419,1669836552386,1184,HRV,HRV_0260,2022-11-30 19:32:53
13,"[{'imgObject': {}, 'id': 'blueberries', 'src': '/static/foodstim60/blueberries.jpg', 'key': 'u', 'origWidth': 411, 'origHeight': 411, 'width': 411, 'height': 411, 'widthPercent': 0.45, 'rescaleHeight': False, 'trialN': 13, 'loaded': True, 'loadedTime': 24415.100000023842, 'positionName': 'LEFT', 'positionCoords': [817.8, 514.5], 'bid': 2.79}, {'imgObject': {}, 'id': 'sushi w_condiments', 'src': '/static/foodstim60/sushi w_condiments.jpg', 'key': 'i', 'origWidth': 410, 'origHeight': 410, 'width': 410, 'height': 410, 'widthPercent': 0.45, 'rescaleHeight': False, 'trialN': 13, 'loaded': True, 'loadedTime': 24415.200000047684, 'positionName': 'RIGHT', 'positionCoords': [1331.2, 515], 'bid': 3.25}]",24413.899999976158,1669836552386,blueberries,sushi w_condiments,2.79,3.25,0.45999999999999996,sushi w_condiments,1391.4000000953674,1395,1394.7000000476837,True,i,26315.800000071526,1901.9000000953674,1669836554288,1902,HRV,HRV_0260,2022-11-30 19:32:53
14,"[{'imgObject': {}, 'id': 'shreddedwheatwithmilk', 'src': '/static/foodstim60/shreddedwheatwithmilk.jpg', 'key': 'u', 'origWidth': 410, 'origHeight': 410, 'width': 410, 'height': 410, 'widthPercent': 0.45, 'rescaleHeight': False, 'trialN': 14, 'loaded': True, 'loadedTime': 26318.5, 'positionName': 'LEFT', 'positionCoords': [818.8, 515], 'bid': 1.88}, {'imgObject': {}, 'id': 'sushi w_condiments', 'src': '/static/foodstim60/sushi w_condiments.jpg', 'key': 'i', 'origWidth': 410, 'origHeight': 410, 'width': 410, 'height': 410, 'widthPercent': 0.45, 'rescaleHeight': False, 'trialN': 14, 'loaded': True, 'loadedTime': 26318.899999976158, 'positionName': 'RIGHT', 'positionCoords': [1331.2, 515], 'bid': 3.25}]",26316.200000047684,1669836554289,shreddedwheatwithmilk,sushi w_condiments,1.88,3.25,1.37,sushi w_condiments,617.1000000238419,620,620.3999999761581,True,i,27437.100000023842,1120.8999999761581,1669836555410,1121,HRV,HRV_0260,2022-11-30 19:32:53
15,"[{'imgObject': {}, 'id': 'grilled chicken strips', 'src': '/static/foodstim60/grilled chicken strips.jpg', 'key': 'u', 'origWidth': 410, 'origHeight': 411, 'width': 410, 'height': 411, 'widthPercent': 0.45, 'rescaleHeight': False, 'trialN': 15, 'loaded': True, 'loadedTime': 27438.600000023842, 'positionName': 'LEFT', 'positionCoords': [818.8, 514.5], 'bid': 6.12}, {'imgObject': {}, 'id': 'bagel plain', 'src': '/static/foodstim60/bagel plain.jpg', 'key': 'i', 'origWidth': 410, 'origHeight': 410, 'width': 410, 'height': 410, 'widthPercent': 0.45, 'rescaleHeight': False, 'trialN': 15, 'loaded': True, 'loadedTime': 27438.800000071526, 'positionName': 'RIGHT', 'positionCoords': [1331.2, 515], 'bid': 6.1000000000000005}]",27437.399999976158,1669836555410,grilled chicken strips,bagel plain,6.12,6.1000000000000005,-0.019999999999999574,grilled chicken strips,720,723,723.6000000238419,True,u,28661.100000023842,1223.7000000476837,1669836556634,1224,HRV,HRV_0260,2022-11-30 19:32:53
16,"[{'imgObject': {}, 'id': 'rigatoni', 'src': '/static/foodstim60/rigatoni.jpg', 'key': 'u', 'origWidth': 411, 'origHeight': 411, 'width': 411, 'height': 411, 'widthPercent': 0.45, 'rescaleHeight': False, 'trialN': 16, 'loaded': True, 'loadedTime': 28662.600000023842, 'positionName': 'LEFT', 'positionCoords': [817.8, 514.5], 'bid': 3.33}, {'imgObject': {}, 'id': 'eggs', 'src': '/static/foodstim60/eggs.jpg', 'key': 'i', 'origWidth': 409, 'origHeight': 409, 'width': 409, 'height': 409, 'widthPercent': 0.45, 'rescaleHeight': False, 'trialN': 16, 'loaded': True, 'loadedTime': 28662.899999976158, 'positionName': 'RIGHT', 'positionCoords': [1331.2, 515.5], 'bid': 3.36}]",28661.399999976158,1669836556634,rigatoni,eggs,3.33,3.36,0.029999999999999805,rigatoni,2192,2195,2195.2000000476837,True,u,31356.899999976158,2695.5,1669836559329,2695,HRV,HRV_0260,2022-11-30 19:32:53
17,"[{'imgObject': {}, 'id': 'fruitsalad', 'src': '/static/foodstim60/fruitsalad.jpg', 'key': 'u', 'origWidth': 410, 'origHeight': 410, 'width': 410, 'height': 410, 'widthPercent': 0.45, 'rescaleHeight': False, 'trialN': 17, 'loaded': True, 'loadedTime': 31358.399999976158, 'positionName': 'LEFT', 'positionCoords': [818.8, 515], 'bid': 3.14}, {'imgObject': {}, 'id': 'turkeysandwich', 'src': '/static/foodstim60/turkeysandwich.jpg', 'key': 'i', 'origWidth': 409, 'origHeight': 409, 'width': 409, 'height': 409, 'widthPercent': 0.45, 'rescaleHeight': False, 'trialN': 17, 'loaded': True, 'loadedTime': 31358.700000047684, 'positionName': 'RIGHT', 'positionCoords': [1331.2, 515.5], 'bid': 3.73}]",31357.200000047684,1669836559329,fruitsalad,turkeysandwich,3.14,3.73,0.5899999999999999,NaN,NaN,NaN,,False,NaN,35365.10000002384,4007.899999976158,1669836563337,4008,HRV,HRV_0260,2022-11-30 19:32:53
18,"[{'imgObject': {}, 'id': 'edamame', 'src': '/static/foodstim60/edamame.jpg', 'key': 'u', 'origWidth': 409, 'origHeight': 410, 'width': 409, 'height': 410, 'widthPercent': 0.45, 'rescaleHeight': False, 'trialN': 18, 'loaded': True, 'loadedTime': 35366.700000047684, 'positionName': 'LEFT', 'positionCoords': [819.8, 515], 'bid': 3.88}, {'imgObject': {}, 'id': 'hotdog w must', 'src': '/static/foodstim60/hotdog w must.jpg', 'key': 'i', 'origWidth': 409, 'origHeight': 409, 'width': 409, 'height': 409, 'widthPercent': 0.45, 'rescaleHeight': False, 'trialN': 18, 'loaded': True, 'loadedTime': 35366.89999997616, 'positionName': 'RIGHT', 'positionCoords': [1331.2, 515.5], 'bid': 4.01}]",35365.5,1669836563338,edamame,hotdog w must,3.88,4.01,0.1299999999999999,hotdog w must,1311.8000000715256,1314,1314.8999999761581,True,i,37189.300000071526,1823.8000000715256,1669836565161,1823,HRV,HRV_0260,2022-11-30 19:32:53
19,"[{'imgObject': {}, 'id': 'strawberries', 'src': '/static/foodstim60/strawberries.jpg', 'key': 'u', 'origWidth': 410, 'origHeight': 410, 'width': 410, 'height': 410, 'widthPercent': 0.45, 'rescaleHeight': False, 'trialN': 19, 'loaded': True, 'loadedTime': 37190.89999997616, 'positionName': 'LEFT', 'positionCoords': [818.8, 515], 'bid': 3.73}, {'imgObject': {}, 'id': 'Grapes', 'src': '/static/foodstim60/Grapes.jpg', 'key': 'i', 'origWidth': 411, 'origHeight': 411, 'width': 411, 'height': 411, 'widthPercent': 0.45, 'rescaleHeight': False, 'trialN': 19, 'loaded': True, 'loadedTime': 37191.10000002384, 'positionName': 'RIGHT', 'positionCoords': [1331.2, 514.5], 'bid': 6.43}]",37189.60000002384,1669836565162,strawberries,Grapes,3.73,6.43,2.6999999999999997,Grapes,1191.7000000476837,1195,1195.0,True,i,38891.5,1701.8999999761581,1669836566863,1701,HRV,HRV_0260,2022-11-30 19:32:53
20,"[{'imgObject': {}, 'id': 'banana', 'src': '/static/foodstim60/banana.jpg', 'key': 'u', 'origWidth': 410, 'origHeight': 410, 'width': 410, 'height': 410, 'widthPercent': 0.45, 'rescaleHeight': False, 'trialN': 20, 'loaded': True, 'loadedTime': 38893.200000047684, 'positionName': 'LEFT', 'positionCoords': [818.8, 515], 'bid': 7.42}, {'imgObject': {}, 'id': 'chickenfingers', 'src': '/static/foodstim60/chickenfingers.jpg', 'key': 'i', 'origWidth': 410, 'origHeight': 410, 'width': 410, 'height': 410, 'widthPercent': 0.45, 'rescaleHeight': False, 'trialN': 20, 'loaded': True, 'loadedTime': 38893.39999997616, 'positionName': 'RIGHT', 'positionCoords': [1331.2, 515], 'bid': 6.23}]",38891.800000071526,1669836566864,banana,chickenfingers,7.42,6.23,-1.1899999999999995,chickenfingers,681.5,685,684.6999999284744,True,i,40084.39999997616,1192.5999999046326,1669836568056,1192,HRV,HRV_0260,2022-11-30 19:32:53
21,"[{'imgObject': {}, 'id': 'froot loops w milk', 'src': '/static/foodstim60/froot loops w milk.jpg', 'key': 'u', 'origWidth': 410, 'origHeight': 410, 'width': 410, 'height': 410, 'widthPercent': 0.45, 'rescaleHeight': False, 'trialN': 21, 'loaded': True, 'loadedTime': 40086, 'positionName': 'LEFT', 'positionCoords': [818.8, 515], 'bid': 6.3}, {'imgObject': {}, 'id': 'chickenfingers', 'src': '/static/foodstim60/chickenfingers.jpg', 'key': 'i', 'origWidth': 410, 'origHeight': 410, 'width': 410, 'height': 410, 'widthPercent': 0.45, 'rescaleHeight': False, 'trialN': 21, 'loaded': True, 'loadedTime': 40086.200000047684, 'positionName': 'RIGHT', 'positionCoords': [1331.2, 515], 'bid': 6.23}]",40084.700000047684,1669836568057,froot loops w milk,chickenfingers,6.3,6.23,-0.0699999999999994,chickenfingers,720.6000000238419,723,723.7999999523163,True,i,41316.60000002384,1231.8999999761581,1669836569289,1232,HRV,HRV_0260,2022-11-30 19:32:53
22,"[{'imgObject': {}, 'id': 'blackbeanswithrice', 'src': '/static/foodstim60/blackbeanswithrice.jpg', 'key': 'u', 'origWidth': 410, 'origHeight': 410, 'width': 410, 'height': 410, 'widthPercent': 0.45, 'rescaleHeight': False, 'trialN': 22, 'loaded': True, 'loadedTime': 41318.200000047684, 'positionName': 'LEFT', 'positionCoords': [818.8, 515], 'bid': 3.9}, {'imgObject': {}, 'id': 'tacos', 'src': '/static/foodstim60/tacos.jpg', 'key': 'i', 'origWidth': 411, 'origHeight': 411, 'width': 411, 'height': 411, 'widthPercent': 0.45, 'rescaleHeight': False, 'trialN': 22, 'loaded': True, 'loadedTime': 41318.39999997616, 'positionName': 'RIGHT', 'positionCoords': [1331.2, 514.5], 'bid': 3.77}]",41316.89999997616,1669836569289,blackbeanswithrice,tacos,3.9,3.77,-0.1299999999999999,blackbeanswithrice,1040.3000000715256,1043,1043.3000000715256,True,u,42868.200000047684,1551.3000000715256,1669836570840,1551,HRV,HRV_0260,2022-11-30 19:32:53
23,"[{'imgObject': {}, 'id': 'froot loops w milk', 'src': '/static/foodstim60/froot loops w milk.jpg', 'key': 'u', 'origWidth': 410, 'origHeight': 410, 'width': 410, 'height': 410, 'widthPercent': 0.45, 'rescaleHeight': False, 'trialN': 23, 'loaded': True, 'loadedTime': 42870, 'positionName': 'LEFT', 'positionCoords': [818.8, 515], 'bid': 6.3}, {'imgObject': {}, 'id': 'burger', 'src': '/static/foodstim60/burger.jpg', 'key': 'i', 'origWidth': 409, 'origHeight': 409, 'width': 409, 'height': 409, 'widthPercent': 0.45, 'rescaleHeight': False, 'trialN': 23, 'loaded': True, 'loadedTime': 42870.300000071526, 'positionName': 'RIGHT', 'positionCoords': [1331.2, 515.5], 'bid': 5.64}]",42868.60000002384,1669836570840,froot loops w milk,burger,6.3,5.64,-0.6600000000000001,burger,648.6000000238419,652,651.6000000238419,True,i,44021.5,1152.8999999761581,1669836571993,1153,HRV,HRV_0260,2022-11-30 19:32:53
24,"[{'imgObject': {}, 'id': 'bagel and cc', 'src': '/static/foodstim60/bagel and cc.jpg', 'key': 'u', 'origWidth': 410, 'origHeight': 410, 'width': 410, 'height': 410, 'widthPercent': 0.45, 'rescaleHeight': False, 'trialN': 24, 'loaded': True, 'loadedTime': 44023.300000071526, 'positionName': 'LEFT', 'positionCoords': [818.8, 515], 'bid': 6.28}, {'imgObject': {}, 'id': 'chickenfingers', 'src': '/static/foodstim60/chickenfingers.jpg', 'key': 'i', 'origWidth': 410, 'origHeight': 410, 'width': 410, 'height': 410, 'widthPercent': 0.45, 'rescaleHeight': False, 'trialN': 24, 'loaded': True, 'loadedTime': 44023.39999997616, 'positionName': 'RIGHT', 'positionCoords': [1331.2, 515], 'bid': 6.23}]",44021.89999997616,1669836571994,bagel and cc,chickenfingers,6.28,6.23,-0.04999999999999982,chickenfingers,687.5,690,690.7000000476837,True,i,45213.700000047684,1191.8000000715256,1669836573185,1191,HRV,HRV_0260,2022-11-30 19:32:53
25,"[{'imgObject': {}, 'id': 'shreddedwheatwithmilk', 'src': '/static/foodstim60/shreddedwheatwithmilk.jpg', 'key': 'u', 'origWidth': 410, 'origHeight': 410, 'width': 410, 'height': 410, 'widthPercent': 0.45, 'rescaleHeight': False, 'trialN': 25, 'loaded': True, 'loadedTime': 45215.200000047684, 'positionName': 'LEFT', 'positionCoords': [818.8, 515], 'bid': 1.88}, {'imgObject': {}, 'id': 'blackbeanswithrice', 'src': '/static/foodstim60/blackbeanswithrice.jpg', 'key': 'i', 'origWidth': 410, 'origHeight': 410, 'width': 410, 'height': 410, 'widthPercent': 0.45, 'rescaleHeight': False, 'trialN': 25, 'loaded': True, 'loadedTime': 45215.5, 'positionName': 'RIGHT', 'positionCoords': [1331.2, 515], 'bid': 3.9}]",45214.0,1669836573186,shreddedwheatwithmilk,blackbeanswithrice,1.88,3.9,2.02,blackbeanswithrice,847.3000000715256,850,850.7000000476837,True,i,46568.700000047684,1354.7000000476837,1669836574540,1354,HRV,HRV_0260,2022-11-30 19:32:53
26,"[{'imgObject': {}, 'id': 'salmon', 'src': '/static/foodstim60/salmon.jpg', 'key': 'u', 'origWidth': 410, 'origHeight': 409, 'width': 410, 'height': 409, 'widthPercent': 0.45, 'rescaleHeight': False, 'trialN': 26, 'loaded': True, 'loadedTime': 46569.800000071526, 'positionName': 'LEFT', 'positionCoords': [818.8, 515.5], 'bid': 3.89}, {'imgObject': {}, 'id': 'luckycharms', 'src': '/static/foodstim60/luckycharms.jpg', 'key': 'i', 'origWidth': 410, 'origHeight': 409, 'width': 410, 'height': 409, 'widthPercent': 0.45, 'rescaleHeight': False, 'trialN': 26, 'loaded': True, 'loadedTime': 46569.89999997616, 'positionName': 'RIGHT', 'positionCoords': [1331.2, 515.5], 'bid': 5.57}]",46569.0,1669836574541,salmon,luckycharms,3.89,5.57,1.6800000000000002,luckycharms,620.3999999761581,624,624.2000000476837,True,i,47700.800000071526,1131.8000000715256,1669836575673,1132,HRV,HRV_0260,2022-11-30 19:32:53
27,"[{'imgObject': {}, 'id': 'cantaloupe', 'src': '/static/foodstim60/cantaloupe.jpg', 'key': 'u', 'origWidth': 409, 'origHeight': 409, 'width': 409, 'height': 409, 'widthPercent': 0.45, 'rescaleHeight': False, 'trialN': 27, 'loaded': True, 'loadedTime': 47702.5, 'positionName': 'LEFT', 'positionCoords': [819.8, 515.5], 'bid': 5.76}, {'imgObject': {}, 'id': 'cocktailshrimp', 'src': '/static/foodstim60/cocktailshrimp.jpg', 'key': 'i', 'origWidth': 410, 'origHeight': 410, 'width': 410, 'height': 410, 'widthPercent': 0.45, 'rescaleHeight': False, 'trialN': 27, 'loaded': True, 'loadedTime': 47702.60000002384, 'positionName': 'RIGHT', 'positionCoords': [1331.2, 515], 'bid': 5.76}]",47701.200000047684,1669836575673,cantaloupe,cocktailshrimp,5.76,5.76,0.0,cantaloupe,576.1000000238419,579,579.0,True,u,48780.39999997616,1079.1999999284744,1669836576752,1079,HRV,HRV_0260,2022-11-30 19:32:53
28,"[{'imgObject': {}, 'id': 'salad w chicken', 'src': '/static/foodstim60/salad w chicken.jpg', 'key': 'u', 'origWidth': 411, 'origHeight': 411, 'width': 411, 'height': 411, 'widthPercent': 0.45, 'rescaleHeight': False, 'trialN': 28, 'loaded': True, 'loadedTime': 48781.800000071526, 'positionName': 'LEFT', 'positionCoords': [817.8, 514.5], 'bid': 2.72}, {'imgObject': {}, 'id': 'eggs', 'src': '/static/foodstim60/eggs.jpg', 'key': 'i', 'origWidth': 409, 'origHeight': 409, 'width': 409, 'height': 409, 'widthPercent': 0.45, 'rescaleHeight': False, 'trialN': 28, 'loaded': True, 'loadedTime': 48782.10000002384, 'positionName': 'RIGHT', 'positionCoords': [1331.2, 515.5], 'bid': 3.36}]",48780.60000002384,1669836576752,salad w chicken,eggs,2.72,3.36,0.6399999999999997,salad w chicken,512.7000000476837,516,515.7999999523163,True,u,49797.200000047684,1016.6000000238419,1669836577769,1017,HRV,HRV_0260,2022-11-30 19:32:53
29,"[{'imgObject': {}, 'id': 'tacos', 'src': '/static/foodstim60/tacos.jpg', 'key': 'u', 'origWidth': 411, 'origHeight': 411, 'width': 411, 'height': 411, 'widthPercent': 0.45, 'rescaleHeight': False, 'trialN': 29, 'loaded': True, 'loadedTime': 49798.700000047684, 'positionName': 'LEFT', 'positionCoords': [817.8, 514.5], 'bid': 3.77}, {'imgObject': {}, 'id': 'veggieswithdip', 'src': '/static/foodstim60/veggieswithdip.jpg', 'key': 'i', 'origWidth': 409, 'origHeight': 409, 'width': 409, 'height': 409, 'widthPercent': 0.45, 'rescaleHeight': False, 'trialN': 29, 'loaded': True, 'loadedTime': 49798.89999997616, 'positionName': 'RIGHT', 'positionCoords': [1331.2, 515.5], 'bid': 3.17}]",49797.39999997616,1669836577769,tacos,veggieswithdip,3.77,3.17,-0.6000000000000001,tacos,1159.8000000715256,1163,1163.3000000715256,True,u,51461.5,1664.1000000238419,1669836579433,1664,HRV,HRV_0260,2022-11-30 19:32:53
30,"[{'imgObject': {}, 'id': 'granola w milk', 'src': '/static/foodstim60/granola w milk.jpg', 'key': 'u', 'origWidth': 410, 'origHeight': 410, 'width': 410, 'height': 410, 'widthPercent': 0.45, 'rescaleHeight': False, 'trialN': 30, 'loaded': True, 'loadedTime': 51462.89999997616, 'positionName': 'LEFT', 'positionCoords': [818.8, 515], 'bid': 3.72}, {'imgObject': {}, 'id': 'popsicles', 'src': '/static/foodstim60/popsicles.jpg', 'key': 'i', 'origWidth': 410, 'origHeight': 410, 'width': 410, 'height': 410, 'widthPercent': 0.45, 'rescaleHeight': False, 'trialN': 30, 'loaded': True, 'loadedTime': 51463.200000047684, 'positionName': 'RIGHT', 'positionCoords': [1331.2, 515], 'bid': 6.3500000000000005}]",51461.800000071526,1669836579433,granola w milk,popsicles,3.72,6.3500000000000005,2.6300000000000003,popsicles,727.5,731,730.5,True,i,52700.5,1238.6999999284744,1669836580672,1239,HRV,HRV_0260,2022-11-30 19:32:53
31,"[{'imgObject': {}, 'id': 'cantaloupe', 'src': '/static/foodstim60/cantaloupe.jpg', 'key': 'u', 'origWidth': 409, 'origHeight': 409, 'width': 409, 'height': 409, 'widthPercent': 0.45, 'rescaleHeight': False, 'trialN': 31, 'loaded': True, 'loadedTime': 52702, 'positionName': 'LEFT', 'positionCoords': [819.8, 515.5], 'bid': 5.76}, {'imgObject': {}, 'id': 'apple slices', 'src': '/static/foodstim60/apple slices.jpg', 'key': 'i', 'origWidth': 409, 'origHeight': 410, 'width': 409, 'height': 410, 'widthPercent': 0.45, 'rescaleHeight': False, 'trialN': 31, 'loaded': True, 'loadedTime': 52702.200000047684, 'positionName': 'RIGHT', 'positionCoords': [1331.2, 515], 'bid': 4.26}]",52700.800000071526,1669836580672,cantaloupe,apple slices,5.76,4.26,-1.5,apple slices,648.5,652,651.7999999523163,True,i,53853.0,1152.1999999284744,1669836581824,1152,HRV,HRV_0260,2022-11-30 19:32:53
32,"[{'imgObject': {}, 'id': 'popsicles', 'src': '/static/foodstim60/popsicles.jpg', 'key': 'u', 'origWidth': 410, 'origHeight': 410, 'width': 410, 'height': 410, 'widthPercent': 0.45, 'rescaleHeight': False, 'trialN': 32, 'loaded': True, 'loadedTime': 53854.60000002384, 'positionName': 'LEFT', 'positionCoords': [818.8, 515], 'bid': 6.3500000000000005}, {'imgObject': {}, 'id': 'ice cream sundae 002', 'src': '/static/foodstim60/ice cream sundae 002.jpg', 'key': 'i', 'origWidth': 409, 'origHeight': 409, 'width': 409, 'height': 409, 'widthPercent': 0.45, 'rescaleHeight': False, 'trialN': 32, 'loaded': True, 'loadedTime': 53854.800000071526, 'positionName': 'RIGHT', 'positionCoords': [1331.2, 515.5], 'bid': 5.74}]",53853.300000071526,1669836581825,popsicles,ice cream sundae 002,6.3500000000000005,5.74,-0.6100000000000003,popsicles,608,611,611.2999999523163,True,u,54971.60000002384,1118.2999999523163,1669836582943,1118,HRV,HRV_0260,2022-11-30 19:32:53
33,"[{'imgObject': {}, 'id': 'raspberries', 'src': '/static/foodstim60/raspberries.jpg', 'key': 'u', 'origWidth': 411, 'origHeight': 411, 'width': 411, 'height': 411, 'widthPercent': 0.45, 'rescaleHeight': False, 'trialN': 33, 'loaded': True, 'loadedTime': 54973.10000002384, 'positionName': 'LEFT', 'positionCoords': [817.8, 514.5], 'bid': 3.1}, {'imgObject': {}, 'id': 'yogurt no spoon', 'src': '/static/foodstim60/yogurt no spoon.jpg', 'key': 'i', 'origWidth': 411, 'origHeight': 410, 'width': 411, 'height': 410, 'widthPercent': 0.45, 'rescaleHeight': False, 'trialN': 33, 'loaded': True, 'loadedTime': 54973.300000071526, 'positionName': 'RIGHT', 'positionCoords': [1331.2, 515], 'bid': 3.13}]",54971.89999997616,1669836582943,raspberries,yogurt no spoon,3.1,3.13,0.029999999999999805,yogurt no spoon,697.5,701,700.6000000238419,True,i,56172.89999997616,1201.0,1669836584144,1201,HRV,HRV_0260,2022-11-30 19:32:53
34,"[{'imgObject': {}, 'id': 'corn cob', 'src': '/static/foodstim60/corn cob.jpg', 'key': 'u', 'origWidth': 411, 'origHeight': 411, 'width': 411, 'height': 411, 'widthPercent': 0.45, 'rescaleHeight': False, 'trialN': 34, 'loaded': True, 'loadedTime': 56174.300000071526, 'positionName': 'LEFT', 'positionCoords': [817.8, 514.5], 'bid': 2.96}, {'imgObject': {}, 'id': 'blueberries', 'src': '/static/foodstim60/blueberries.jpg', 'key': 'i', 'origWidth': 411, 'origHeight': 411, 'width': 411, 'height': 411, 'widthPercent': 0.45, 'rescaleHeight': False, 'trialN': 34, 'loaded': True, 'loadedTime': 56174.5, 'positionName': 'RIGHT', 'positionCoords': [1331.2, 514.5], 'bid': 2.79}]",56173.200000047684,1669836584144,corn cob,blueberries,2.96,2.79,-0.16999999999999993,corn cob,688.1999999284744,692,691.6000000238419,True,u,57365.700000047684,1192.5,1669836585337,1193,HRV,HRV_0260,2022-11-30 19:32:53
35,"[{'imgObject': {}, 'id': 'mashed potato', 'src': '/static/foodstim60/mashed potato.jpg', 'key': 'u', 'origWidth': 409, 'origHeight': 409, 'width': 409, 'height': 409, 'widthPercent': 0.45, 'rescaleHeight': False, 'trialN': 35, 'loaded': True, 'loadedTime': 57367.200000047684, 'positionName': 'LEFT', 'positionCoords': [819.8, 515.5], 'bid': 3.97}, {'imgObject': {}, 'id': 'strawberries', 'src': '/static/foodstim60/strawberries.jpg', 'key': 'i', 'origWidth': 410, 'origHeight': 410, 'width': 410, 'height': 410, 'widthPercent': 0.45, 'rescaleHeight': False, 'trialN': 35, 'loaded': True, 'loadedTime': 57367.300000071526, 'positionName': 'RIGHT', 'positionCoords': [1331.2, 515], 'bid': 3.73}]",57365.89999997616,1669836585337,mashed potato,strawberries,3.97,3.73,-0.2400000000000002,strawberries,783.3000000715256,788,788.1000000238419,True,i,58661.0,1295.1000000238419,1669836586632,1295,HRV,HRV_0260,2022-11-30 19:32:53
36,"[{'imgObject': {}, 'id': 'hashbrowns', 'src': '/static/foodstim60/hashbrowns.jpg', 'key': 'u', 'origWidth': 411, 'origHeight': 410, 'width': 411, 'height': 410, 'widthPercent': 0.45, 'rescaleHeight': False, 'trialN': 36, 'loaded': True, 'loadedTime': 58662.700000047684, 'positionName': 'LEFT', 'positionCoords': [817.8, 515], 'bid': 6.47}, {'imgObject': {}, 'id': 'chicken nuggets2', 'src': '/static/foodstim60/chicken nuggets2.jpg', 'key': 'i', 'origWidth': 410, 'origHeight': 409, 'width': 410, 'height': 409, 'widthPercent': 0.45, 'rescaleHeight': False, 'trialN': 36, 'loaded': True, 'loadedTime': 58662.89999997616, 'positionName': 'RIGHT', 'positionCoords': [1331.2, 515.5], 'bid': 6.8100000000000005}]",58661.39999997616,1669836586633,hashbrowns,chicken nuggets2,6.47,6.8100000000000005,0.34000000000000075,chicken nuggets2,631.9000000953674,635,635.6000000238419,True,i,59804.39999997616,1143.0,1669836587776,1143,HRV,HRV_0260,2022-11-30 19:32:53
37,"[{'imgObject': {}, 'id': 'raspberries', 'src': '/static/foodstim60/raspberries.jpg', 'key': 'u', 'origWidth': 411, 'origHeight': 411, 'width': 411, 'height': 411, 'widthPercent': 0.45, 'rescaleHeight': False, 'trialN': 37, 'loaded': True, 'loadedTime': 59805.89999997616, 'positionName': 'LEFT', 'positionCoords': [817.8, 514.5], 'bid': 3.1}, {'imgObject': {}, 'id': 'burrito', 'src': '/static/foodstim60/burrito.jpg', 'key': 'i', 'origWidth': 410, 'origHeight': 410, 'width': 410, 'height': 410, 'widthPercent': 0.45, 'rescaleHeight': False, 'trialN': 37, 'loaded': True, 'loadedTime': 59806.10000002384, 'positionName': 'RIGHT', 'positionCoords': [1331.2, 515], 'bid': 3.6}]",59804.60000002384,1669836587776,raspberries,burrito,3.1,3.6,0.5,raspberries,880.7999999523163,884,883.7999999523163,True,u,61189.700000047684,1385.1000000238419,1669836589161,1385,HRV,HRV_0260,2022-11-30 19:32:53
38,"[{'imgObject': {}, 'id': 'raspberries', 'src': '/static/foodstim60/raspberries.jpg', 'key': 'u', 'origWidth': 411, 'origHeight': 411, 'width': 411, 'height': 411, 'widthPercent': 0.45, 'rescaleHeight': False, 'trialN': 38, 'loaded': True, 'loadedTime': 61191.300000071526, 'positionName': 'LEFT', 'positionCoords': [817.8, 514.5], 'bid': 3.1}, {'imgObject': {}, 'id': 'blueberries', 'src': '/static/foodstim60/blueberries.jpg', 'key': 'i', 'origWidth': 411, 'origHeight': 411, 'width': 411, 'height': 411, 'widthPercent': 0.45, 'rescaleHeight': False, 'trialN': 38, 'loaded': True, 'loadedTime': 61191.60000002384, 'positionName': 'RIGHT', 'positionCoords': [1331.2, 514.5], 'bid': 2.79}]",61190.0,1669836589161,raspberries,blueberries,3.1,2.79,-0.31000000000000005,raspberries,1199.3000000715256,1202,1202.2000000476837,True,u,62901.10000002384,1711.1000000238419,1669836590872,1711,HRV,HRV_0260,2022-11-30 19:32:53
39,"[{'imgObject': {}, 'id': 'seaweed', 'src': '/static/foodstim60/seaweed.jpg', 'key': 'u', 'origWidth': 410, 'origHeight': 410, 'width': 410, 'height': 410, 'widthPercent': 0.45, 'rescaleHeight': False, 'trialN': 39, 'loaded': True, 'loadedTime': 62902.700000047684, 'positionName': 'LEFT', 'positionCoords': [818.8, 515], 'bid': 3.61}, {'imgObject': {}, 'id': 'rigatoni and sauce', 'src': '/static/foodstim60/rigatoni and sauce.jpg', 'key': 'i', 'origWidth': 410, 'origHeight': 411, 'width': 410, 'height': 411, 'widthPercent': 0.45, 'rescaleHeight': False, 'trialN': 39, 'loaded': True, 'loadedTime': 62903, 'positionName': 'RIGHT', 'positionCoords': [1331.2, 514.5], 'bid': 2.43}]",62901.5,1669836590872,seaweed,rigatoni and sauce,3.61,2.43,-1.1799999999999997,rigatoni and sauce,799.7000000476837,803,802.7000000476837,True,i,64213.10000002384,1311.6000000238419,1669836592184,1312,HRV,HRV_0260,2022-11-30 19:32:53
40,"[{'imgObject': {}, 'id': 'sweetpotato', 'src': '/static/foodstim60/sweetpotato.jpg', 'key': 'u', 'origWidth': 410, 'origHeight': 410, 'width': 410, 'height': 410, 'widthPercent': 0.45, 'rescaleHeight': False, 'trialN': 40, 'loaded': True, 'loadedTime': 64214.60000002384, 'positionName': 'LEFT', 'positionCoords': [818.8, 515], 'bid': 3.46}, {'imgObject': {}, 'id': 'mango', 'src': '/static/foodstim60/mango.jpg', 'key': 'i', 'origWidth': 411, 'origHeight': 411, 'width': 411, 'height': 411, 'widthPercent': 0.45, 'rescaleHeight': False, 'trialN': 40, 'loaded': True, 'loadedTime': 64214.89999997616, 'positionName': 'RIGHT', 'positionCoords': [1331.2, 514.5], 'bid': 3.67}]",64213.39999997616,1669836592184,sweetpotato,mango,3.46,3.67,0.20999999999999996,mango,703.9000000953674,708,708.1000000238419,True,i,65427.700000047684,1214.3000000715256,1669836593399,1215,HRV,HRV_0260,2022-11-30 19:32:53
41,"[{'imgObject': {}, 'id': 'fried eggs', 'src': '/static/foodstim60/fried eggs.jpg', 'key': 'u', 'origWidth': 410, 'origHeight': 410, 'width': 410, 'height': 410, 'widthPercent': 0.45, 'rescaleHeight': False, 'trialN': 41, 'loaded': True, 'loadedTime': 65429.300000071526, 'positionName': 'LEFT', 'positionCoords': [818.8, 515], 'bid': 6.12}, {'imgObject': {}, 'id': 'burger', 'src': '/static/foodstim60/burger.jpg', 'key': 'i', 'origWidth': 409, 'origHeight': 409, 'width': 409, 'height': 409, 'widthPercent': 0.45, 'rescaleHeight': False, 'trialN': 41, 'loaded': True, 'loadedTime': 65429.5, 'positionName': 'RIGHT', 'positionCoords': [1331.2, 515.5], 'bid': 5.64}]",65428.0,1669836593399,fried eggs,burger,6.12,5.64,-0.4800000000000004,fried eggs,825.3999999761581,828,828.6000000238419,True,u,66765.20000004768,1337.2000000476837,1669836594736,1337,HRV,HRV_0260,2022-11-30 19:32:53
42,"[{'imgObject': {}, 'id': 'hashbrowns', 'src': '/static/foodstim60/hashbrowns.jpg', 'key': 'u', 'origWidth': 411, 'origHeight': 410, 'width': 411, 'height': 410, 'widthPercent': 0.45, 'rescaleHeight': False, 'trialN': 42, 'loaded': True, 'loadedTime': 66766.70000004768, 'positionName': 'LEFT', 'positionCoords': [817.8, 515], 'bid': 6.47}, {'imgObject': {}, 'id': 'mac & cheese', 'src': '/static/foodstim60/mac & cheese.jpg', 'key': 'i', 'origWidth': 410, 'origHeight': 410, 'width': 410, 'height': 410, 'widthPercent': 0.45, 'rescaleHeight': False, 'trialN': 42, 'loaded': True, 'loadedTime': 66766.89999997616, 'positionName': 'RIGHT', 'positionCoords': [1331.2, 515], 'bid': 8.09}]",66765.5,1669836594736,hashbrowns,mac & cheese,6.47,8.09,1.62,mac & cheese,639.7000000476837,643,643.1000000238419,True,i,67916.0,1150.5,1669836595887,1151,HRV,HRV_0260,2022-11-30 19:32:53
43,"[{'imgObject': {}, 'id': 'steak', 'src': '/static/foodstim60/steak.jpg', 'key': 'u', 'origWidth': 410, 'origHeight': 410, 'width': 410, 'height': 410, 'widthPercent': 0.45, 'rescaleHeight': False, 'trialN': 43, 'loaded': True, 'loadedTime': 67917.60000002384, 'positionName': 'LEFT', 'positionCoords': [818.8, 515], 'bid': 6.82}, {'imgObject': {}, 'id': 'froot loops w milk', 'src': '/static/foodstim60/froot loops w milk.jpg', 'key': 'i', 'origWidth': 410, 'origHeight': 410, 'width': 410, 'height': 410, 'widthPercent': 0.45, 'rescaleHeight': False, 'trialN': 43, 'loaded': True, 'loadedTime': 67917.80000007153, 'positionName': 'RIGHT', 'positionCoords': [1331.2, 515], 'bid': 6.3}]",67916.39999997616,1669836595887,steak,froot loops w milk,6.82,6.3,-0.5200000000000005,steak,680.8000000715256,684,684.1000000238419,True,u,69101.70000004768,1185.3000000715256,1669836597073,1186,HRV,HRV_0260,2022-11-30 19:32:53
44,"[{'imgObject': {}, 'id': 'burrito', 'src': '/static/foodstim60/burrito.jpg', 'key': 'u', 'origWidth': 410, 'origHeight': 410, 'width': 410, 'height': 410, 'widthPercent': 0.45, 'rescaleHeight': False, 'trialN': 44, 'loaded': True, 'loadedTime': 69103.20000004768, 'positionName': 'LEFT', 'positionCoords': [818.8, 515], 'bid': 3.6}, {'imgObject': {}, 'id': 'seaweed', 'src': '/static/foodstim60/seaweed.jpg', 'key': 'i', 'origWidth': 410, 'origHeight': 410, 'width': 410, 'height': 410, 'widthPercent': 0.45, 'rescaleHeight': False, 'trialN': 44, 'loaded': True, 'loadedTime': 69103.30000007153, 'positionName': 'RIGHT', 'positionCoords': [1331.2, 515], 'bid': 3.61}]",69102.0,1669836597073,burrito,seaweed,3.6,3.61,0.009999999999999787,burrito,871.3999999761581,875,874.8000000715256,True,u,70484.30000007153,1382.3000000715256,1669836598455,1382,HRV,HRV_0260,2022-11-30 19:32:53
45,"[{'imgObject': {}, 'id': 'sushi w_condiments', 'src': '/static/foodstim60/sushi w_condiments.jpg', 'key': 'u', 'origWidth': 410, 'origHeight': 410, 'width': 410, 'height': 410, 'widthPercent': 0.45, 'rescaleHeight': False, 'trialN': 45, 'loaded': True, 'loadedTime': 70485.80000007153, 'positionName': 'LEFT', 'positionCoords': [818.8, 515], 'bid': 3.25}, {'imgObject': {}, 'id': 'cherries', 'src': '/static/foodstim60/cherries.jpg', 'key': 'i', 'origWidth': 410, 'origHeight': 411, 'width': 410, 'height': 411, 'widthPercent': 0.45, 'rescaleHeight': False, 'trialN': 45, 'loaded': True, 'loadedTime': 70486.10000002384, 'positionName': 'RIGHT', 'positionCoords': [1331.2, 514.5], 'bid': 3.82}]",70484.60000002384,1669836598455,sushi w_condiments,cherries,3.25,3.82,0.5699999999999998,cherries,464.7000000476837,468,467.89999997615814,True,i,71459.39999997616,974.7999999523163,1669836599430,975,HRV,HRV_0260,2022-11-30 19:32:53
46,"[{'imgObject': {}, 'id': 'granola w milk', 'src': '/static/foodstim60/granola w milk.jpg', 'key': 'u', 'origWidth': 410, 'origHeight': 410, 'width': 410, 'height': 410, 'widthPercent': 0.45, 'rescaleHeight': False, 'trialN': 46, 'loaded': True, 'loadedTime': 71460.89999997616, 'positionName': 'LEFT', 'positionCoords': [818.8, 515], 'bid': 3.72}, {'imgObject': {}, 'id': 'turkeysandwich', 'src': '/static/foodstim60/turkeysandwich.jpg', 'key': 'i', 'origWidth': 409, 'origHeight': 409, 'width': 409, 'height': 409, 'widthPercent': 0.45, 'rescaleHeight': False, 'trialN': 46, 'loaded': True, 'loadedTime': 71461, 'positionName': 'RIGHT', 'positionCoords': [1331.2, 515.5], 'bid': 3.73}]",71459.70000004768,1669836599430,granola w milk,turkeysandwich,3.72,3.73,0.009999999999999787,granola w milk,753.6000000238419,757,756.7999999523163,True,u,72717.0,1257.2999999523163,1669836600688,1258,HRV,HRV_0260,2022-11-30 19:32:53
47,"[{'imgObject': {}, 'id': 'cheerios', 'src': '/static/foodstim60/cheerios.jpg', 'key': 'u', 'origWidth': 409, 'origHeight': 410, 'width': 409, 'height': 410, 'widthPercent': 0.45, 'rescaleHeight': False, 'trialN': 47, 'loaded': True, 'loadedTime': 72718.5, 'positionName': 'LEFT', 'positionCoords': [819.8, 515], 'bid': 4.22}, {'imgObject': {}, 'id': 'eggsalad', 'src': '/static/foodstim60/eggsalad.jpg', 'key': 'i', 'origWidth': 410, 'origHeight': 409, 'width': 410, 'height': 409, 'widthPercent': 0.45, 'rescaleHeight': False, 'trialN': 47, 'loaded': True, 'loadedTime': 72718.70000004768, 'positionName': 'RIGHT', 'positionCoords': [1331.2, 515.5], 'bid': 4.04}]",72717.30000007153,1669836600688,cheerios,eggsalad,4.22,4.04,-0.17999999999999972,cheerios,896,899,899.0,True,u,74116.5,1399.1999999284744,1669836602087,1399,HRV,HRV_0260,2022-11-30 19:32:53
48,"[{'imgObject': {}, 'id': 'avocado', 'src': '/static/foodstim60/avocado.jpg', 'key': 'u', 'origWidth': 409, 'origHeight': 409, 'width': 409, 'height': 409, 'widthPercent': 0.45, 'rescaleHeight': False, 'trialN': 48, 'loaded': True, 'loadedTime': 74118, 'positionName': 'LEFT', 'positionCoords': [819.8, 515.5], 'bid': 4.33}, {'imgObject': {}, 'id': 'edamame', 'src': '/static/foodstim60/edamame.jpg', 'key': 'i', 'origWidth': 409, 'origHeight': 410, 'width': 409, 'height': 410, 'widthPercent': 0.45, 'rescaleHeight': False, 'trialN': 48, 'loaded': True, 'loadedTime': 74118.20000004768, 'positionName': 'RIGHT', 'positionCoords': [1331.2, 515], 'bid': 3.88}]",74116.80000007153,1669836602087,avocado,edamame,4.33,3.88,-0.4500000000000002,avocado,336.39999997615814,340,339.59999990463257,True,u,74957.80000007153,841.0,1669836602928,841,HRV,HRV_0260,2022-11-30 19:32:53
49,"[{'imgObject': {}, 'id': 'popsicles', 'src': '/static/foodstim60/popsicles.jpg', 'key': 'u', 'origWidth': 410, 'origHeight': 410, 'width': 410, 'height': 410, 'widthPercent': 0.45, 'rescaleHeight': False, 'trialN': 49, 'loaded': True, 'loadedTime': 74959.20000004768, 'positionName': 'LEFT', 'positionCoords': [818.8, 515], 'bid': 6.3500000000000005}, {'imgObject': {}, 'id': 'froot loops w milk', 'src': '/static/foodstim60/froot loops w milk.jpg', 'key': 'i', 'origWidth': 410, 'origHeight': 410, 'width': 410, 'height': 410, 'widthPercent': 0.45, 'rescaleHeight': False, 'trialN': 49, 'loaded': True, 'loadedTime': 74959.5, 'positionName': 'RIGHT', 'positionCoords': [1331.2, 515], 'bid': 6.3}]",74958.0,1669836602929,popsicles,froot loops w milk,6.3500000000000005,6.3,-0.05000000000000071,popsicles,887.2000000476837,890,890.1000000238419,True,u,76348.30000007153,1390.3000000715256,1669836604319,1390,HRV,HRV_0260,2022-11-30 19:32:53
50,"[{'imgObject': {}, 'id': 'edamame', 'src': '/static/foodstim60/edamame.jpg', 'key': 'u', 'origWidth': 409, 'origHeight': 410, 'width': 409, 'height': 410, 'widthPercent': 0.45, 'rescaleHeight': False, 'trialN': 50, 'loaded': True, 'loadedTime': 76350, 'positionName': 'LEFT', 'positionCoords': [819.8, 515], 'bid': 3.88}, {'imgObject': {}, 'id': 'cherries', 'src': '/static/foodstim60/cherries.jpg', 'key': 'i', 'origWidth': 410, 'origHeight': 411, 'width': 410, 'height': 411, 'widthPercent': 0.45, 'rescaleHeight': False, 'trialN': 50, 'loaded': True, 'loadedTime': 76350.20000004768, 'positionName': 'RIGHT', 'positionCoords': [1331.2, 514.5], 'bid': 3.82}]",76348.60000002384,1669836604319,edamame,cherries,3.88,3.82,-0.06000000000000005,edamame,672.7000000476837,676,676.0,True,u,77525.89999997616,1177.2999999523163,1669836605496,1177,HRV,HRV_0260,2022-11-30 19:32:53
51,"[{'imgObject': {}, 'id': 'fruitsalad', 'src': '/static/foodstim60/fruitsalad.jpg', 'key': 'u', 'origWidth': 410, 'origHeight': 410, 'width': 410, 'height': 410, 'widthPercent': 0.45, 'rescaleHeight': False, 'trialN': 51, 'loaded': True, 'loadedTime': 77527.60000002384, 'positionName': 'LEFT', 'positionCoords': [818.8, 515], 'bid': 3.14}, {'imgObject': {}, 'id': 'sushi w_condiments', 'src': '/static/foodstim60/sushi w_condiments.jpg', 'key': 'i', 'origWidth': 410, 'origHeight': 410, 'width': 410, 'height': 410, 'widthPercent': 0.45, 'rescaleHeight': False, 'trialN': 51, 'loaded': True, 'loadedTime': 77527.89999997616, 'positionName': 'RIGHT', 'positionCoords': [1331.2, 515], 'bid': 3.25}]",77526.20000004768,1669836605497,fruitsalad,sushi w_condiments,3.14,3.25,0.10999999999999988,sushi w_condiments,495,498,498.0,True,i,78524.70000004768,998.5,1669836606495,998,HRV,HRV_0260,2022-11-30 19:32:53
52,"[{'imgObject': {}, 'id': 'steak', 'src': '/static/foodstim60/steak.jpg', 'key': 'u', 'origWidth': 410, 'origHeight': 410, 'width': 410, 'height': 410, 'widthPercent': 0.45, 'rescaleHeight': False, 'trialN': 52, 'loaded': True, 'loadedTime': 78526.39999997616, 'positionName': 'LEFT', 'positionCoords': [818.8, 515], 'bid': 6.82}, {'imgObject': {}, 'id': 'Tribe humus pita', 'src': '/static/foodstim60/Tribe humus pita.jpg', 'key': 'i', 'origWidth': 411, 'origHeight': 411, 'width': 411, 'height': 411, 'widthPercent': 0.45, 'rescaleHeight': False, 'trialN': 52, 'loaded': True, 'loadedTime': 78526.60000002384, 'positionName': 'RIGHT', 'positionCoords': [1331.2, 514.5], 'bid': 7.25}]",78525.0,1669836606495,steak,Tribe humus pita,6.82,7.25,0.4299999999999997,Tribe humus pita,552.3000000715256,571,571.0,True,i,79596.30000007153,1071.3000000715256,1669836607567,1072,HRV,HRV_0260,2022-11-30 19:32:53
53,"[{'imgObject': {}, 'id': 'grilled chicken strips', 'src': '/static/foodstim60/grilled chicken strips.jpg', 'key': 'u', 'origWidth': 410, 'origHeight': 411, 'width': 410, 'height': 411, 'widthPercent': 0.45, 'rescaleHeight': False, 'trialN': 53, 'loaded': True, 'loadedTime': 79597.89999997616, 'positionName': 'LEFT', 'positionCoords': [818.8, 514.5], 'bid': 6.12}, {'imgObject': {}, 'id': 'mashed potato', 'src': '/static/foodstim60/mashed potato.jpg', 'key': 'i', 'origWidth': 409, 'origHeight': 409, 'width': 409, 'height': 409, 'widthPercent': 0.45, 'rescaleHeight': False, 'trialN': 53, 'loaded': True, 'loadedTime': 79598, 'positionName': 'RIGHT', 'positionCoords': [1331.2, 515.5], 'bid': 3.97}]",79596.60000002384,1669836607567,grilled chicken strips,mashed potato,6.12,3.97,-2.15,grilled chicken strips,560.7000000476837,564,563.6000000238419,True,u,80661.20000004768,1064.6000000238419,1669836608632,1065,HRV,HRV_0260,2022-11-30 19:32:53
54,"[{'imgObject': {}, 'id': 'shreddedwheatwithmilk', 'src': '/static/foodstim60/shreddedwheatwithmilk.jpg', 'key': 'u', 'origWidth': 410, 'origHeight': 410, 'width': 410, 'height': 410, 'widthPercent': 0.45, 'rescaleHeight': False, 'trialN': 54, 'loaded': True, 'loadedTime': 80662.89999997616, 'positionName': 'LEFT', 'positionCoords': [818.8, 515], 'bid': 1.88}, {'imgObject': {}, 'id': 'raspberries', 'src': '/static/foodstim60/raspberries.jpg', 'key': 'i', 'origWidth': 411, 'origHeight': 411, 'width': 411, 'height': 411, 'widthPercent': 0.45, 'rescaleHeight': False, 'trialN': 54, 'loaded': True, 'loadedTime': 80663, 'positionName': 'RIGHT', 'positionCoords': [1331.2, 514.5], 'bid': 3.1}]",80661.5,1669836608632,shreddedwheatwithmilk,raspberries,1.88,3.1,1.2200000000000002,shreddedwheatwithmilk,607.8000000715256,611,611.1000000238419,True,u,81773.70000004768,1112.2000000476837,1669836609744,1112,HRV,HRV_0260,2022-11-30 19:32:53
55,"[{'imgObject': {}, 'id': 'eggs', 'src': '/static/foodstim60/eggs.jpg', 'key': 'u', 'origWidth': 409, 'origHeight': 409, 'width': 409, 'height': 409, 'widthPercent': 0.45, 'rescaleHeight': False, 'trialN': 55, 'loaded': True, 'loadedTime': 81775.30000007153, 'positionName': 'LEFT', 'positionCoords': [819.8, 515.5], 'bid': 3.36}, {'imgObject': {}, 'id': 'cocktailshrimp', 'src': '/static/foodstim60/cocktailshrimp.jpg', 'key': 'i', 'origWidth': 410, 'origHeight': 410, 'width': 410, 'height': 410, 'widthPercent': 0.45, 'rescaleHeight': False, 'trialN': 55, 'loaded': True, 'loadedTime': 81775.39999997616, 'positionName': 'RIGHT', 'positionCoords': [1331.2, 515], 'bid': 5.76}]",81774.10000002384,1669836609744,eggs,cocktailshrimp,3.36,5.76,2.4,cocktailshrimp,615.2000000476837,619,618.2999999523163,True,i,82894.60000002384,1120.5,1669836610865,1121,HRV,HRV_0260,2022-11-30 19:32:53
56,"[{'imgObject': {}, 'id': 'veggieswithdip', 'src': '/static/foodstim60/veggieswithdip.jpg', 'key': 'u', 'origWidth': 409, 'origHeight': 409, 'width': 409, 'height': 409, 'widthPercent': 0.45, 'rescaleHeight': False, 'trialN': 56, 'loaded': True, 'loadedTime': 82896.39999997616, 'positionName': 'LEFT', 'positionCoords': [819.8, 515.5], 'bid': 3.17}, {'imgObject': {}, 'id': 'salad w chicken', 'src': '/static/foodstim60/salad w chicken.jpg', 'key': 'i', 'origWidth': 411, 'origHeight': 411, 'width': 411, 'height': 411, 'widthPercent': 0.45, 'rescaleHeight': False, 'trialN': 56, 'loaded': True, 'loadedTime': 82896.60000002384, 'positionName': 'RIGHT', 'positionCoords': [1331.2, 514.5], 'bid': 2.72}]",82894.89999997616,1669836610865,veggieswithdip,salad w chicken,3.17,2.72,-0.44999999999999973,salad w chicken,662.4000000953674,666,665.5,True,i,84061.80000007153,1166.9000000953674,1669836612032,1167,HRV,HRV_0260,2022-11-30 19:32:53
57,"[{'imgObject': {}, 'id': 'salad w chicken', 'src': '/static/foodstim60/salad w chicken.jpg', 'key': 'u', 'origWidth': 411, 'origHeight': 411, 'width': 411, 'height': 411, 'widthPercent': 0.45, 'rescaleHeight': False, 'trialN': 57, 'loaded': True, 'loadedTime': 84063.30000007153, 'positionName': 'LEFT', 'positionCoords': [817.8, 514.5], 'bid': 2.72}, {'imgObject': {}, 'id': 'orange slices', 'src': '/static/foodstim60/orange slices.jpg', 'key': 'i', 'origWidth': 409, 'origHeight': 410, 'width': 409, 'height': 410, 'widthPercent': 0.45, 'rescaleHeight': False, 'trialN': 57, 'loaded': True, 'loadedTime': 84063.5, 'positionName': 'RIGHT', 'positionCoords': [1331.2, 515], 'bid': 3.63}]",84062.0,1669836612032,salad w chicken,orange slices,2.72,3.63,0.9099999999999997,salad w chicken,871.3000000715256,875,875.2000000476837,True,u,85437.60000002384,1375.6000000238419,1669836613408,1376,HRV,HRV_0260,2022-11-30 19:32:53
58,"[{'imgObject': {}, 'id': 'baked potato', 'src': '/static/foodstim60/baked potato.jpg', 'key': 'u', 'origWidth': 409, 'origHeight': 410, 'width': 409, 'height': 410, 'widthPercent': 0.45, 'rescaleHeight': False, 'trialN': 58, 'loaded': True, 'loadedTime': 85439.20000004768, 'positionName': 'LEFT', 'positionCoords': [819.8, 515], 'bid': 3.53}, {'imgObject': {}, 'id': 'granola w milk', 'src': '/static/foodstim60/granola w milk.jpg', 'key': 'i', 'origWidth': 410, 'origHeight': 410, 'width': 410, 'height': 410, 'widthPercent': 0.45, 'rescaleHeight': False, 'trialN': 58, 'loaded': True, 'loadedTime': 85439.39999997616, 'positionName': 'RIGHT', 'positionCoords': [1331.2, 515], 'bid': 3.72}]",85438.0,1669836613408,baked potato,granola w milk,3.53,3.72,0.1900000000000004,granola w milk,735.2000000476837,738,738.3000000715256,True,i,86677.70000004768,1239.7000000476837,1669836614648,1240,HRV,HRV_0260,2022-11-30 19:32:53
59,"[{'imgObject': {}, 'id': 'corn cob', 'src': '/static/foodstim60/corn cob.jpg', 'key': 'u', 'origWidth': 411, 'origHeight': 411, 'width': 411, 'height': 411, 'widthPercent': 0.45, 'rescaleHeight': False, 'trialN': 59, 'loaded': True, 'loadedTime': 86679.30000007153, 'positionName': 'LEFT', 'positionCoords': [817.8, 514.5], 'bid': 2.96}, {'imgObject': {}, 'id': 'cheerios', 'src': '/static/foodstim60/cheerios.jpg', 'key': 'i', 'origWidth': 409, 'origHeight': 410, 'width': 409, 'height': 410, 'widthPercent': 0.45, 'rescaleHeight': False, 'trialN': 59, 'loaded': True, 'loadedTime': 86679.5, 'positionName': 'RIGHT', 'positionCoords': [1331.2, 515], 'bid': 4.22}]",86678.0,1669836614648,corn cob,cheerios,2.96,4.22,1.2599999999999998,cheerios,799.3000000715256,802,802.3999999761581,True,i,87982.60000002384,1304.6000000238419,1669836615953,1305,HRV,HRV_0260,2022-11-30 19:32:53
60,"[{'imgObject': {}, 'id': 'olives', 'src': '/static/foodstim60/olives.jpg', 'key': 'u', 'origWidth': 410, 'origHeight': 410, 'width': 410, 'height': 410, 'widthPercent': 0.45, 'rescaleHeight': False, 'trialN': 60, 'loaded': True, 'loadedTime': 87983.70000004768, 'positionName': 'LEFT', 'positionCoords': [818.8, 515], 'bid': 3.29}, {'imgObject': {}, 'id': 'sushi w_condiments', 'src': '/static/foodstim60/sushi w_condiments.jpg', 'key': 'i', 'origWidth': 410, 'origHeight': 410, 'width': 410, 'height': 410, 'widthPercent': 0.45, 'rescaleHeight': False, 'trialN': 60, 'loaded': True, 'loadedTime': 87983.80000007153, 'positionName': 'RIGHT', 'positionCoords': [1331.2, 515], 'bid': 3.25}]",87982.89999997616,1669836615953,olives,sushi w_condiments,3.29,3.25,-0.040000000000000036,olives,526.4000000953674,529,529.4000000953674,True,u,89013.39999997616,1030.5,1669836616983,1030,HRV,HRV_0260,2022-11-30 19:32:53
61,"[{'imgObject': {}, 'id': 'strawberries', 'src': '/static/foodstim60/strawberries.jpg', 'key': 'u', 'origWidth': 410, 'origHeight': 410, 'width': 410, 'height': 410, 'widthPercent': 0.45, 'rescaleHeight': False, 'trialN': 61, 'loaded': True, 'loadedTime': 89014.89999997616, 'positionName': 'LEFT', 'positionCoords': [818.8, 515], 'bid': 3.73}, {'imgObject': {}, 'id': 'turkeysandwich', 'src': '/static/foodstim60/turkeysandwich.jpg', 'key': 'i', 'origWidth': 409, 'origHeight': 409, 'width': 409, 'height': 409, 'widthPercent': 0.45, 'rescaleHeight': False, 'trialN': 61, 'loaded': True, 'loadedTime': 89015.20000004768, 'positionName': 'RIGHT', 'positionCoords': [1331.2, 515.5], 'bid': 3.73}]",89013.70000004768,1669836616984,strawberries,turkeysandwich,3.73,3.73,0.0,turkeysandwich,735.6999999284744,738,738.7999999523163,True,i,90252.80000007153,1239.1000000238419,1669836618223,1239,HRV,HRV_0260,2022-11-30 19:32:53
62,"[{'imgObject': {}, 'id': 'rigatoni', 'src': '/static/foodstim60/rigatoni.jpg', 'key': 'u', 'origWidth': 411, 'origHeight': 411, 'width': 411, 'height': 411, 'widthPercent': 0.45, 'rescaleHeight': False, 'trialN': 62, 'loaded': True, 'loadedTime': 90255, 'positionName': 'LEFT', 'positionCoords': [817.8, 514.5], 'bid': 3.33}, {'imgObject': {}, 'id': 'sweetpotato', 'src': '/static/foodstim60/sweetpotato.jpg', 'key': 'i', 'origWidth': 410, 'origHeight': 410, 'width': 410, 'height': 410, 'widthPercent': 0.45, 'rescaleHeight': False, 'trialN': 62, 'loaded': True, 'loadedTime': 90255.39999997616, 'positionName': 'RIGHT', 'positionCoords': [1331.2, 515], 'bid': 3.46}]",90253.20000004768,1669836618223,rigatoni,sweetpotato,3.33,3.46,0.1299999999999999,rigatoni,640.1000000238419,643,643.1999999284744,True,u,91397.80000007153,1144.6000000238419,1669836619368,1145,HRV,HRV_0260,2022-11-30 19:32:53
63,"[{'imgObject': {}, 'id': 'edamame', 'src': '/static/foodstim60/edamame.jpg', 'key': 'u', 'origWidth': 409, 'origHeight': 410, 'width': 409, 'height': 410, 'widthPercent': 0.45, 'rescaleHeight': False, 'trialN': 63, 'loaded': True, 'loadedTime': 91399.39999997616, 'positionName': 'LEFT', 'positionCoords': [819.8, 515], 'bid': 3.88}, {'imgObject': {}, 'id': 'cherry tomato', 'src': '/static/foodstim60/cherry tomato.jpg', 'key': 'i', 'origWidth': 410, 'origHeight': 410, 'width': 410, 'height': 410, 'widthPercent': 0.45, 'rescaleHeight': False, 'trialN': 63, 'loaded': True, 'loadedTime': 91399.5, 'positionName': 'RIGHT', 'positionCoords': [1331.2, 515], 'bid': 3.85}]",91398.10000002384,1669836619368,edamame,cherry tomato,3.88,3.85,-0.029999999999999805,cherry tomato,919.2000000476837,923,922.7000000476837,True,i,92821.60000002384,1423.5,1669836620791,1423,HRV,HRV_0260,2022-11-30 19:32:53
64,"[{'imgObject': {}, 'id': 'omelette', 'src': '/static/foodstim60/omelette.jpg', 'key': 'u', 'origWidth': 410, 'origHeight': 409, 'width': 410, 'height': 409, 'widthPercent': 0.45, 'rescaleHeight': False, 'trialN': 64, 'loaded': True, 'loadedTime': 92823.30000007153, 'positionName': 'LEFT', 'positionCoords': [818.8, 515.5], 'bid': 2.27}, {'imgObject': {}, 'id': 'olives', 'src': '/static/foodstim60/olives.jpg', 'key': 'i', 'origWidth': 410, 'origHeight': 410, 'width': 410, 'height': 410, 'widthPercent': 0.45, 'rescaleHeight': False, 'trialN': 64, 'loaded': True, 'loadedTime': 92823.39999997616, 'positionName': 'RIGHT', 'positionCoords': [1331.2, 515], 'bid': 3.29}]",92821.89999997616,1669836620792,omelette,olives,2.27,3.29,1.02,olives,551.4000000953674,554,554.5,True,i,93876.5,1054.6000000238419,1669836621846,1054,HRV,HRV_0260,2022-11-30 19:32:53
65,"[{'imgObject': {}, 'id': 'ice cream sundae 002', 'src': '/static/foodstim60/ice cream sundae 002.jpg', 'key': 'u', 'origWidth': 409, 'origHeight': 409, 'width': 409, 'height': 409, 'widthPercent': 0.45, 'rescaleHeight': False, 'trialN': 65, 'loaded': True, 'loadedTime': 93877.89999997616, 'positionName': 'LEFT', 'positionCoords': [819.8, 515.5], 'bid': 5.74}, {'imgObject': {}, 'id': 'cocktailshrimp', 'src': '/static/foodstim60/cocktailshrimp.jpg', 'key': 'i', 'origWidth': 410, 'origHeight': 410, 'width': 410, 'height': 410, 'widthPercent': 0.45, 'rescaleHeight': False, 'trialN': 65, 'loaded': True, 'loadedTime': 93878.10000002384, 'positionName': 'RIGHT', 'positionCoords': [1331.2, 515], 'bid': 5.76}]",93876.80000007153,1669836621847,ice cream sundae 002,cocktailshrimp,5.74,5.76,0.019999999999999574,ice cream sundae 002,736.5999999046326,739,739.5,True,u,95124.39999997616,1247.5999999046326,1669836623094,1247,HRV,HRV_0260,2022-11-30 19:32:53
66,"[{'imgObject': {}, 'id': 'olives', 'src': '/static/foodstim60/olives.jpg', 'key': 'u', 'origWidth': 410, 'origHeight': 410, 'width': 410, 'height': 410, 'widthPercent': 0.45, 'rescaleHeight': False, 'trialN': 66, 'loaded': True, 'loadedTime': 95125.89999997616, 'positionName': 'LEFT', 'positionCoords': [818.8, 515], 'bid': 3.29}, {'imgObject': {}, 'id': 'ice cream sundae 002', 'src': '/static/foodstim60/ice cream sundae 002.jpg', 'key': 'i', 'origWidth': 409, 'origHeight': 409, 'width': 409, 'height': 409, 'widthPercent': 0.45, 'rescaleHeight': False, 'trialN': 66, 'loaded': True, 'loadedTime': 95127.30000007153, 'positionName': 'RIGHT', 'positionCoords': [1331.2, 515.5], 'bid': 5.74}]",95124.60000002384,1669836623094,olives,ice cream sundae 002,3.29,5.74,2.45,olives,656.7000000476837,660,659.7000000476837,True,u,96285.89999997616,1161.2999999523163,1669836624256,1162,HRV,HRV_0260,2022-11-30 19:32:53
67,"[{'imgObject': {}, 'id': 'ice cream sundae 002', 'src': '/static/foodstim60/ice cream sundae 002.jpg', 'key': 'u', 'origWidth': 409, 'origHeight': 409, 'width': 409, 'height': 409, 'widthPercent': 0.45, 'rescaleHeight': False, 'trialN': 67, 'loaded': True, 'loadedTime': 96287.5, 'positionName': 'LEFT', 'positionCoords': [819.8, 515.5], 'bid': 5.74}, {'imgObject': {}, 'id': 'steak', 'src': '/static/foodstim60/steak.jpg', 'key': 'i', 'origWidth': 410, 'origHeight': 410, 'width': 410, 'height': 410, 'widthPercent': 0.45, 'rescaleHeight': False, 'trialN': 67, 'loaded': True, 'loadedTime': 96287.70000004768, 'positionName': 'RIGHT', 'positionCoords': [1331.2, 515], 'bid': 6.82}]",96286.10000002384,1669836624256,ice cream sundae 002,steak,5.74,6.82,1.08,steak,551.2000000476837,554,554.2999999523163,True,i,97341.89999997616,1055.7999999523163,1669836625312,1056,HRV,HRV_0260,2022-11-30 19:32:53
68,"[{'imgObject': {}, 'id': 'hotdog w must', 'src': '/static/foodstim60/hotdog w must.jpg', 'key': 'u', 'origWidth': 409, 'origHeight': 409, 'width': 409, 'height': 409, 'widthPercent': 0.45, 'rescaleHeight': False, 'trialN': 68, 'loaded': True, 'loadedTime': 97343.39999997616, 'positionName': 'LEFT', 'positionCoords': [819.8, 515.5], 'bid': 4.01}, {'imgObject': {}, 'id': 'cheerios', 'src': '/static/foodstim60/cheerios.jpg', 'key': 'i', 'origWidth': 409, 'origHeight': 410, 'width': 409, 'height': 410, 'widthPercent': 0.45, 'rescaleHeight': False, 'trialN': 68, 'loaded': True, 'loadedTime': 97343.5, 'positionName': 'RIGHT', 'positionCoords': [1331.2, 515], 'bid': 4.22}]",97342.10000002384,1669836625312,hotdog w must,cheerios,4.01,4.22,0.20999999999999996,cheerios,575.2999999523163,578,578.6000000238419,True,i,98422.30000007153,1080.2000000476837,1669836626392,1080,HRV,HRV_0260,2022-11-30 19:32:53
69,"[{'imgObject': {}, 'id': 'turkey sandwich', 'src': '/static/foodstim60/turkey sandwich.jpg', 'key': 'u', 'origWidth': 409, 'origHeight': 409, 'width': 409, 'height': 409, 'widthPercent': 0.45, 'rescaleHeight': False, 'trialN': 69, 'loaded': True, 'loadedTime': 98423.89999997616, 'positionName': 'LEFT', 'positionCoords': [819.8, 515.5], 'bid': 6.5600000000000005}, {'imgObject': {}, 'id': 'tacos', 'src': '/static/foodstim60/tacos.jpg', 'key': 'i', 'origWidth': 411, 'origHeight': 411, 'width': 411, 'height': 411, 'widthPercent': 0.45, 'rescaleHeight': False, 'trialN': 69, 'loaded': True, 'loadedTime': 98424.20000004768, 'positionName': 'RIGHT', 'positionCoords': [1331.2, 514.5], 'bid': 3.77}]",98422.60000002384,1669836626392,turkey sandwich,tacos,6.5600000000000005,3.77,-2.7900000000000005,tacos,670.7000000476837,674,673.7999999523163,True,i,99604.10000002384,1181.5,1669836627574,1182,HRV,HRV_0260,2022-11-30 19:32:53
70,"[{'imgObject': {}, 'id': 'baked potato', 'src': '/static/foodstim60/baked potato.jpg', 'key': 'u', 'origWidth': 409, 'origHeight': 410, 'width': 409, 'height': 410, 'widthPercent': 0.45, 'rescaleHeight': False, 'trialN': 70, 'loaded': True, 'loadedTime': 99605.70000004768, 'positionName': 'LEFT', 'positionCoords': [819.8, 515], 'bid': 3.53}, {'imgObject': {}, 'id': 'bagel plain', 'src': '/static/foodstim60/bagel plain.jpg', 'key': 'i', 'origWidth': 410, 'origHeight': 410, 'width': 410, 'height': 410, 'widthPercent': 0.45, 'rescaleHeight': False, 'trialN': 70, 'loaded': True, 'loadedTime': 99605.80000007153, 'positionName': 'RIGHT', 'positionCoords': [1331.2, 515], 'bid': 6.1000000000000005}]",99604.39999997616,1669836627574,baked potato,bagel plain,3.53,6.1000000000000005,2.5700000000000007,baked potato,392.90000009536743,396,396.2000000476837,True,u,100501.0,896.6000000238419,1669836628471,897,HRV,HRV_0260,2022-11-30 19:32:53
71,"[{'imgObject': {}, 'id': 'salmon', 'src': '/static/foodstim60/salmon.jpg', 'key': 'u', 'origWidth': 410, 'origHeight': 409, 'width': 410, 'height': 409, 'widthPercent': 0.45, 'rescaleHeight': False, 'trialN': 71, 'loaded': True, 'loadedTime': 100502.70000004768, 'positionName': 'LEFT', 'positionCoords': [818.8, 515.5], 'bid': 3.89}, {'imgObject': {}, 'id': 'cheerios', 'src': '/static/foodstim60/cheerios.jpg', 'key': 'i', 'origWidth': 409, 'origHeight': 410, 'width': 409, 'height': 410, 'widthPercent': 0.45, 'rescaleHeight': False, 'trialN': 71, 'loaded': True, 'loadedTime': 100502.89999997616, 'positionName': 'RIGHT', 'positionCoords': [1331.2, 515], 'bid': 4.22}]",100501.39999997616,1669836628471,salmon,cheerios,3.89,4.22,0.3299999999999996,cheerios,488,492,492.0,True,i,101501.0,999.6000000238419,1669836629470,999,HRV,HRV_0260,2022-11-30 19:32:53
72,"[{'imgObject': {}, 'id': 'cantaloupe', 'src': '/static/foodstim60/cantaloupe.jpg', 'key': 'u', 'origWidth': 409, 'origHeight': 409, 'width': 409, 'height': 409, 'widthPercent': 0.45, 'rescaleHeight': False, 'trialN': 72, 'loaded': True, 'loadedTime': 101502.60000002384, 'positionName': 'LEFT', 'positionCoords': [819.8, 515.5], 'bid': 5.76}, {'imgObject': {}, 'id': 'Grapes', 'src': '/static/foodstim60/Grapes.jpg', 'key': 'i', 'origWidth': 411, 'origHeight': 411, 'width': 411, 'height': 411, 'widthPercent': 0.45, 'rescaleHeight': False, 'trialN': 72, 'loaded': True, 'loadedTime': 101502.80000007153, 'positionName': 'RIGHT', 'positionCoords': [1331.2, 514.5], 'bid': 6.43}]",101501.30000007153,1669836629471,cantaloupe,Grapes,5.76,6.43,0.6699999999999999,Grapes,336,339,339.2999999523163,True,i,102349.0,847.6999999284744,1669836630318,847,HRV,HRV_0260,2022-11-30 19:32:53
73,"[{'imgObject': {}, 'id': 'mango', 'src': '/static/foodstim60/mango.jpg', 'key': 'u', 'origWidth': 411, 'origHeight': 411, 'width': 411, 'height': 411, 'widthPercent': 0.45, 'rescaleHeight': False, 'trialN': 73, 'loaded': True, 'loadedTime': 102350.60000002384, 'positionName': 'LEFT', 'positionCoords': [817.8, 514.5], 'bid': 3.67}, {'imgObject': {}, 'id': 'granola w milk', 'src': '/static/foodstim60/granola w milk.jpg', 'key': 'i', 'origWidth': 410, 'origHeight': 410, 'width': 410, 'height': 410, 'widthPercent': 0.45, 'rescaleHeight': False, 'trialN': 73, 'loaded': True, 'loadedTime': 102350.80000007153, 'positionName': 'RIGHT', 'positionCoords': [1331.2, 515], 'bid': 3.72}]",102349.30000007153,1669836630319,mango,granola w milk,3.67,3.72,0.050000000000000266,granola w milk,960,963,963.0,True,i,103820.5,1471.1999999284744,1669836631790,1471,HRV,HRV_0260,2022-11-30 19:32:53
74,"[{'imgObject': {}, 'id': 'tacos', 'src': '/static/foodstim60/tacos.jpg', 'key': 'u', 'origWidth': 411, 'origHeight': 411, 'width': 411, 'height': 411, 'widthPercent': 0.45, 'rescaleHeight': False, 'trialN': 74, 'loaded': True, 'loadedTime': 103822.10000002384, 'positionName': 'LEFT', 'positionCoords': [817.8, 514.5], 'bid': 3.77}, {'imgObject': {}, 'id': 'cherry tomato', 'src': '/static/foodstim60/cherry tomato.jpg', 'key': 'i', 'origWidth': 410, 'origHeight': 410, 'width': 410, 'height': 410, 'widthPercent': 0.45, 'rescaleHeight': False, 'trialN': 74, 'loaded': True, 'loadedTime': 103822.20000004768, 'positionName': 'RIGHT', 'positionCoords': [1331.2, 515], 'bid': 3.85}]",103820.80000007153,1669836631790,tacos,cherry tomato,3.77,3.85,0.08000000000000007,tacos,664.5999999046326,668,667.5999999046326,True,u,104989.0,1168.1999999284744,1669836632958,1168,HRV,HRV_0260,2022-11-30 19:32:53
75,"[{'imgObject': {}, 'id': 'yogurt no spoon', 'src': '/static/foodstim60/yogurt no spoon.jpg', 'key': 'u', 'origWidth': 411, 'origHeight': 410, 'width': 411, 'height': 410, 'widthPercent': 0.45, 'rescaleHeight': False, 'trialN': 75, 'loaded': True, 'loadedTime': 104990.60000002384, 'positionName': 'LEFT', 'positionCoords': [817.8, 515], 'bid': 3.13}, {'imgObject': {}, 'id': 'avocado', 'src': '/static/foodstim60/avocado.jpg', 'key': 'i', 'origWidth': 409, 'origHeight': 409, 'width': 409, 'height': 409, 'widthPercent': 0.45, 'rescaleHeight': False, 'trialN': 75, 'loaded': True, 'loadedTime': 104990.80000007153, 'positionName': 'RIGHT', 'positionCoords': [1331.2, 515.5], 'bid': 4.33}]",104989.30000007153,1669836632959,yogurt no spoon,avocado,3.13,4.33,1.2000000000000002,yogurt no spoon,768,771,771.0,True,u,106260.89999997616,1271.5999999046326,1669836634230,1271,HRV,HRV_0260,2022-11-30 19:32:53
76,"[{'imgObject': {}, 'id': 'lox', 'src': '/static/foodstim60/lox.jpg', 'key': 'u', 'origWidth': 410, 'origHeight': 411, 'width': 410, 'height': 411, 'widthPercent': 0.45, 'rescaleHeight': False, 'trialN': 76, 'loaded': True, 'loadedTime': 106262.39999997616, 'positionName': 'LEFT', 'positionCoords': [818.8, 514.5], 'bid': 3.67}, {'imgObject': {}, 'id': 'bagel and cc', 'src': '/static/foodstim60/bagel and cc.jpg', 'key': 'i', 'origWidth': 410, 'origHeight': 410, 'width': 410, 'height': 410, 'widthPercent': 0.45, 'rescaleHeight': False, 'trialN': 76, 'loaded': True, 'loadedTime': 106262.70000004768, 'positionName': 'RIGHT', 'positionCoords': [1331.2, 515], 'bid': 6.28}]",106261.20000004768,1669836634231,lox,bagel and cc,3.67,6.28,2.6100000000000003,bagel and cc,784.1999999284744,787,787.3999999761581,True,i,107556.30000007153,1295.1000000238419,1669836635526,1295,HRV,HRV_0260,2022-11-30 19:32:53
77,"[{'imgObject': {}, 'id': 'sweetpotato', 'src': '/static/foodstim60/sweetpotato.jpg', 'key': 'u', 'origWidth': 410, 'origHeight': 410, 'width': 410, 'height': 410, 'widthPercent': 0.45, 'rescaleHeight': False, 'trialN': 77, 'loaded': True, 'loadedTime': 107558, 'positionName': 'LEFT', 'positionCoords': [818.8, 515], 'bid': 3.46}, {'imgObject': {}, 'id': 'roastedpotatoes', 'src': '/static/foodstim60/roastedpotatoes.jpg', 'key': 'i', 'origWidth': 409, 'origHeight': 410, 'width': 409, 'height': 410, 'widthPercent': 0.45, 'rescaleHeight': False, 'trialN': 77, 'loaded': True, 'loadedTime': 107558.20000004768, 'positionName': 'RIGHT', 'positionCoords': [1331.2, 515], 'bid': 6.0200000000000005}]",107556.60000002384,1669836635526,sweetpotato,roastedpotatoes,3.46,6.0200000000000005,2.5600000000000005,sweetpotato,584.6000000238419,588,588.0,True,u,108651.30000007153,1094.7000000476837,1669836636621,1095,HRV,HRV_0260,2022-11-30 19:32:53
78,"[{'imgObject': {}, 'id': 'raisin bran w milk', 'src': '/static/foodstim60/raisin bran w milk.jpg', 'key': 'u', 'origWidth': 411, 'origHeight': 411, 'width': 411, 'height': 411, 'widthPercent': 0.45, 'rescaleHeight': False, 'trialN': 78, 'loaded': True, 'loadedTime': 108653, 'positionName': 'LEFT', 'positionCoords': [817.8, 514.5], 'bid': 3.91}, {'imgObject': {}, 'id': 'salmon', 'src': '/static/foodstim60/salmon.jpg', 'key': 'i', 'origWidth': 410, 'origHeight': 409, 'width': 410, 'height': 409, 'widthPercent': 0.45, 'rescaleHeight': False, 'trialN': 78, 'loaded': True, 'loadedTime': 108653.20000004768, 'positionName': 'RIGHT', 'positionCoords': [1331.2, 515.5], 'bid': 3.89}]",108651.60000002384,1669836636621,raisin bran w milk,salmon,3.91,3.89,-0.020000000000000018,salmon,289.7000000476837,293,293.2000000476837,True,i,109445.10000002384,793.5,1669836637414,793,HRV,HRV_0260,2022-11-30 19:32:53
79,"[{'imgObject': {}, 'id': 'roastedpotatoes', 'src': '/static/foodstim60/roastedpotatoes.jpg', 'key': 'u', 'origWidth': 409, 'origHeight': 410, 'width': 409, 'height': 410, 'widthPercent': 0.45, 'rescaleHeight': False, 'trialN': 79, 'loaded': True, 'loadedTime': 109447.10000002384, 'positionName': 'LEFT', 'positionCoords': [819.8, 515], 'bid': 6.0200000000000005}, {'imgObject': {}, 'id': 'fried eggs', 'src': '/static/foodstim60/fried eggs.jpg', 'key': 'i', 'origWidth': 410, 'origHeight': 410, 'width': 410, 'height': 410, 'widthPercent': 0.45, 'rescaleHeight': False, 'trialN': 79, 'loaded': True, 'loadedTime': 109447.30000007153, 'positionName': 'RIGHT', 'positionCoords': [1331.2, 515], 'bid': 6.12}]",109445.5,1669836637415,roastedpotatoes,fried eggs,6.0200000000000005,6.12,0.09999999999999964,fried eggs,815.8000000715256,819,819.2000000476837,True,i,110774.20000004768,1328.7000000476837,1669836638743,1328,HRV,HRV_0260,2022-11-30 19:32:53
80,"[{'imgObject': {}, 'id': 'turkeysandwich', 'src': '/static/foodstim60/turkeysandwich.jpg', 'key': 'u', 'origWidth': 409, 'origHeight': 409, 'width': 409, 'height': 409, 'widthPercent': 0.45, 'rescaleHeight': False, 'trialN': 80, 'loaded': True, 'loadedTime': 110775.89999997616, 'positionName': 'LEFT', 'positionCoords': [819.8, 515.5], 'bid': 3.73}, {'imgObject': {}, 'id': 'seaweed', 'src': '/static/foodstim60/seaweed.jpg', 'key': 'i', 'origWidth': 410, 'origHeight': 410, 'width': 410, 'height': 410, 'widthPercent': 0.45, 'rescaleHeight': False, 'trialN': 80, 'loaded': True, 'loadedTime': 110776.10000002384, 'positionName': 'RIGHT', 'positionCoords': [1331.2, 515], 'bid': 3.61}]",110774.5,1669836638744,turkeysandwich,seaweed,3.73,3.61,-0.1200000000000001,seaweed,246.70000004768372,250,250.0,True,i,111533.60000002384,759.1000000238419,1669836639503,759,HRV,HRV_0260,2022-11-30 19:32:53
81,"[{'imgObject': {}, 'id': 'olives', 'src': '/static/foodstim60/olives.jpg', 'key': 'u', 'origWidth': 410, 'origHeight': 410, 'width': 410, 'height': 410, 'widthPercent': 0.45, 'rescaleHeight': False, 'trialN': 81, 'loaded': True, 'loadedTime': 111535.39999997616, 'positionName': 'LEFT', 'positionCoords': [818.8, 515], 'bid': 3.29}, {'imgObject': {}, 'id': 'cherry tomato', 'src': '/static/foodstim60/cherry tomato.jpg', 'key': 'i', 'origWidth': 410, 'origHeight': 410, 'width': 410, 'height': 410, 'widthPercent': 0.45, 'rescaleHeight': False, 'trialN': 81, 'loaded': True, 'loadedTime': 111535.60000002384, 'positionName': 'RIGHT', 'positionCoords': [1331.2, 515], 'bid': 3.85}]",111533.89999997616,1669836639503,olives,cherry tomato,3.29,3.85,0.56,cherry tomato,1023.4000000953674,1026,1026.5,True,i,113060.60000002384,1526.7000000476837,1669836641030,1527,HRV,HRV_0260,2022-11-30 19:32:53
82,"[{'imgObject': {}, 'id': 'lox', 'src': '/static/foodstim60/lox.jpg', 'key': 'u', 'origWidth': 410, 'origHeight': 411, 'width': 410, 'height': 411, 'widthPercent': 0.45, 'rescaleHeight': False, 'trialN': 82, 'loaded': True, 'loadedTime': 113062.10000002384, 'positionName': 'LEFT', 'positionCoords': [818.8, 514.5], 'bid': 3.67}, {'imgObject': {}, 'id': 'eggs', 'src': '/static/foodstim60/eggs.jpg', 'key': 'i', 'origWidth': 409, 'origHeight': 409, 'width': 409, 'height': 409, 'widthPercent': 0.45, 'rescaleHeight': False, 'trialN': 82, 'loaded': True, 'loadedTime': 113062.30000007153, 'positionName': 'RIGHT', 'positionCoords': [1331.2, 515.5], 'bid': 3.36}]",113060.89999997616,1669836641030,lox,eggs,3.67,3.36,-0.31000000000000005,eggs,1384.5,1388,1387.6000000238419,True,i,114951.0,1890.1000000238419,1669836642920,1890,HRV,HRV_0260,2022-11-30 19:32:53
83,"[{'imgObject': {}, 'id': 'rigatoni and sauce', 'src': '/static/foodstim60/rigatoni and sauce.jpg', 'key': 'u', 'origWidth': 410, 'origHeight': 411, 'width': 410, 'height': 411, 'widthPercent': 0.45, 'rescaleHeight': False, 'trialN': 83, 'loaded': True, 'loadedTime': 114952, 'positionName': 'LEFT', 'positionCoords': [818.8, 514.5], 'bid': 2.43}, {'imgObject': {}, 'id': 'fruitsalad', 'src': '/static/foodstim60/fruitsalad.jpg', 'key': 'i', 'origWidth': 410, 'origHeight': 410, 'width': 410, 'height': 410, 'widthPercent': 0.45, 'rescaleHeight': False, 'trialN': 83, 'loaded': True, 'loadedTime': 114952.30000007153, 'positionName': 'RIGHT', 'positionCoords': [1331.2, 515], 'bid': 3.14}]",114951.20000004768,1669836642920,rigatoni and sauce,fruitsalad,2.43,3.14,0.71,rigatoni and sauce,806.1000000238419,810,809.2999999523163,True,u,116261.5,1310.2999999523163,1669836644230,1310,HRV,HRV_0260,2022-11-30 19:32:53
84,"[{'imgObject': {}, 'id': 'ice cream sundae 002', 'src': '/static/foodstim60/ice cream sundae 002.jpg', 'key': 'u', 'origWidth': 409, 'origHeight': 409, 'width': 409, 'height': 409, 'widthPercent': 0.45, 'rescaleHeight': False, 'trialN': 84, 'loaded': True, 'loadedTime': 116263.20000004768, 'positionName': 'LEFT', 'positionCoords': [819.8, 515.5], 'bid': 5.74}, {'imgObject': {}, 'id': 'grilled chicken strips', 'src': '/static/foodstim60/grilled chicken strips.jpg', 'key': 'i', 'origWidth': 410, 'origHeight': 411, 'width': 410, 'height': 411, 'widthPercent': 0.45, 'rescaleHeight': False, 'trialN': 84, 'loaded': True, 'loadedTime': 116263.30000007153, 'positionName': 'RIGHT', 'positionCoords': [1331.2, 514.5], 'bid': 6.12}]",116261.89999997616,1669836644231,ice cream sundae 002,grilled chicken strips,5.74,6.12,0.3799999999999999,grilled chicken strips,647.4000000953674,650,650.6000000238419,True,i,117413.10000002384,1151.2000000476837,1669836645382,1151,HRV,HRV_0260,2022-11-30 19:32:53
85,"[{'imgObject': {}, 'id': 'sweetpotato', 'src': '/static/foodstim60/sweetpotato.jpg', 'key': 'u', 'origWidth': 410, 'origHeight': 410, 'width': 410, 'height': 410, 'widthPercent': 0.45, 'rescaleHeight': False, 'trialN': 85, 'loaded': True, 'loadedTime': 117414.70000004768, 'positionName': 'LEFT', 'positionCoords': [818.8, 515], 'bid': 3.46}, {'imgObject': {}, 'id': 'blueberries', 'src': '/static/foodstim60/blueberries.jpg', 'key': 'i', 'origWidth': 411, 'origHeight': 411, 'width': 411, 'height': 411, 'widthPercent': 0.45, 'rescaleHeight': False, 'trialN': 85, 'loaded': True, 'loadedTime': 117414.80000007153, 'positionName': 'RIGHT', 'positionCoords': [1331.2, 514.5], 'bid': 2.79}]",117413.39999997616,1669836645382,sweetpotato,blueberries,3.46,2.79,-0.6699999999999999,sweetpotato,944,947,947.1000000238419,True,u,118860.80000007153,1447.4000000953674,1669836646830,1448,HRV,HRV_0260,2022-11-30 19:32:53
86,"[{'imgObject': {}, 'id': 'veggieswithdip', 'src': '/static/foodstim60/veggieswithdip.jpg', 'key': 'u', 'origWidth': 409, 'origHeight': 409, 'width': 409, 'height': 409, 'widthPercent': 0.45, 'rescaleHeight': False, 'trialN': 86, 'loaded': True, 'loadedTime': 118862.30000007153, 'positionName': 'LEFT', 'positionCoords': [819.8, 515.5], 'bid': 3.17}, {'imgObject': {}, 'id': 'luckycharms', 'src': '/static/foodstim60/luckycharms.jpg', 'key': 'i', 'origWidth': 410, 'origHeight': 409, 'width': 410, 'height': 409, 'widthPercent': 0.45, 'rescaleHeight': False, 'trialN': 86, 'loaded': True, 'loadedTime': 118862.60000002384, 'positionName': 'RIGHT', 'positionCoords': [1331.2, 515.5], 'bid': 5.57}]",118861.10000002384,1669836646830,veggieswithdip,luckycharms,3.17,5.57,2.4000000000000004,veggieswithdip,664.2000000476837,668,667.7000000476837,True,u,120037.0,1175.8999999761581,1669836648006,1176,HRV,HRV_0260,2022-11-30 19:32:53
87,"[{'imgObject': {}, 'id': 'mashed potato', 'src': '/static/foodstim60/mashed potato.jpg', 'key': 'u', 'origWidth': 409, 'origHeight': 409, 'width': 409, 'height': 409, 'widthPercent': 0.45, 'rescaleHeight': False, 'trialN': 87, 'loaded': True, 'loadedTime': 120038.60000002384, 'positionName': 'LEFT', 'positionCoords': [819.8, 515.5], 'bid': 3.97}, {'imgObject': {}, 'id': 'hotdog w must', 'src': '/static/foodstim60/hotdog w must.jpg', 'key': 'i', 'origWidth': 409, 'origHeight': 409, 'width': 409, 'height': 409, 'widthPercent': 0.45, 'rescaleHeight': False, 'trialN': 87, 'loaded': True, 'loadedTime': 120038.80000007153, 'positionName': 'RIGHT', 'positionCoords': [1331.2, 515.5], 'bid': 4.01}]",120037.39999997616,1669836648006,mashed potato,hotdog w must,3.97,4.01,0.03999999999999959,mashed potato,79.90000009536743,83,83.0,True,u,120627.39999997616,590.0,1669836648596,590,HRV,HRV_0260,2022-11-30 19:32:53
88,"[{'imgObject': {}, 'id': 'sweetpotato', 'src': '/static/foodstim60/sweetpotato.jpg', 'key': 'u', 'origWidth': 410, 'origHeight': 410, 'width': 410, 'height': 410, 'widthPercent': 0.45, 'rescaleHeight': False, 'trialN': 88, 'loaded': True, 'loadedTime': 120628.89999997616, 'positionName': 'LEFT', 'positionCoords': [818.8, 515], 'bid': 3.46}, {'imgObject': {}, 'id': 'baked potato', 'src': '/static/foodstim60/baked potato.jpg', 'key': 'i', 'origWidth': 409, 'origHeight': 410, 'width': 409, 'height': 410, 'widthPercent': 0.45, 'rescaleHeight': False, 'trialN': 88, 'loaded': True, 'loadedTime': 120629.10000002384, 'positionName': 'RIGHT', 'positionCoords': [1331.2, 515], 'bid': 3.53}]",120627.70000004768,1669836648596,sweetpotato,baked potato,3.46,3.53,0.06999999999999984,baked potato,697.6000000238419,701,700.6999999284744,True,i,121836.30000007153,1208.6000000238419,1669836649805,1209,HRV,HRV_0260,2022-11-30 19:32:53
89,"[{'imgObject': {}, 'id': 'shreddedwheatwithmilk', 'src': '/static/foodstim60/shreddedwheatwithmilk.jpg', 'key': 'u', 'origWidth': 410, 'origHeight': 410, 'width': 410, 'height': 410, 'widthPercent': 0.45, 'rescaleHeight': False, 'trialN': 89, 'loaded': True, 'loadedTime': 121837.80000007153, 'positionName': 'LEFT', 'positionCoords': [818.8, 515], 'bid': 1.88}, {'imgObject': {}, 'id': 'omelette', 'src': '/static/foodstim60/omelette.jpg', 'key': 'i', 'origWidth': 410, 'origHeight': 409, 'width': 410, 'height': 409, 'widthPercent': 0.45, 'rescaleHeight': False, 'trialN': 89, 'loaded': True, 'loadedTime': 121838, 'positionName': 'RIGHT', 'positionCoords': [1331.2, 515.5], 'bid': 2.27}]",121836.5,1669836649805,shreddedwheatwithmilk,omelette,1.88,2.27,0.3900000000000001,omelette,400.89999997615814,404,404.0,True,i,122749.10000002384,912.6000000238419,1669836650718,913,HRV,HRV_0260,2022-11-30 19:32:53
90,"[{'imgObject': {}, 'id': 'hashbrowns', 'src': '/static/foodstim60/hashbrowns.jpg', 'key': 'u', 'origWidth': 411, 'origHeight': 410, 'width': 411, 'height': 410, 'widthPercent': 0.45, 'rescaleHeight': False, 'trialN': 90, 'loaded': True, 'loadedTime': 125294.89999997616, 'positionName': 'LEFT', 'positionCoords': [817.8, 515], 'bid': 6.47}, {'imgObject': {}, 'id': 'turkeysandwich', 'src': '/static/foodstim60/turkeysandwich.jpg', 'key': 'i', 'origWidth': 409, 'origHeight': 409, 'width': 409, 'height': 409, 'widthPercent': 0.45, 'rescaleHeight': False, 'trialN': 90, 'loaded': True, 'loadedTime': 125295.20000004768, 'positionName': 'RIGHT', 'positionCoords': [1331.2, 515.5], 'bid': 3.73}]",125293.80000007153,1669836653262,hashbrowns,turkeysandwich,6.47,3.73,-2.7399999999999998,hashbrowns,823.5,827,826.6999999284744,True,u,126621.5,1327.6999999284744,1669836654590,1328,HRV,HRV_0260,2022-11-30 19:32:53
91,"[{'imgObject': {}, 'id': 'cocktailshrimp', 'src': '/static/foodstim60/cocktailshrimp.jpg', 'key': 'u', 'origWidth': 410, 'origHeight': 410, 'width': 410, 'height': 410, 'widthPercent': 0.45, 'rescaleHeight': False, 'trialN': 91, 'loaded': True, 'loadedTime': 126623.20000004768, 'positionName': 'LEFT', 'positionCoords': [818.8, 515], 'bid': 5.76}, {'imgObject': {}, 'id': 'avocado', 'src': '/static/foodstim60/avocado.jpg', 'key': 'i', 'origWidth': 409, 'origHeight': 409, 'width': 409, 'height': 409, 'widthPercent': 0.45, 'rescaleHeight': False, 'trialN': 91, 'loaded': True, 'loadedTime': 126623.30000007153, 'positionName': 'RIGHT', 'positionCoords': [1331.2, 515.5], 'bid': 4.33}]",126621.80000007153,1669836654590,cocktailshrimp,avocado,5.76,4.33,-1.4299999999999997,cocktailshrimp,767.5999999046326,771,770.8999999761581,True,u,127892.80000007153,1271.0,1669836655861,1271,HRV,HRV_0260,2022-11-30 19:32:53
92,"[{'imgObject': {}, 'id': 'bagel and cc', 'src': '/static/foodstim60/bagel and cc.jpg', 'key': 'u', 'origWidth': 410, 'origHeight': 410, 'width': 410, 'height': 410, 'widthPercent': 0.45, 'rescaleHeight': False, 'trialN': 92, 'loaded': True, 'loadedTime': 127894.30000007153, 'positionName': 'LEFT', 'positionCoords': [818.8, 515], 'bid': 6.28}, {'imgObject': {}, 'id': 'mac & cheese', 'src': '/static/foodstim60/mac & cheese.jpg', 'key': 'i', 'origWidth': 410, 'origHeight': 410, 'width': 410, 'height': 410, 'widthPercent': 0.45, 'rescaleHeight': False, 'trialN': 92, 'loaded': True, 'loadedTime': 127894.60000002384, 'positionName': 'RIGHT', 'positionCoords': [1331.2, 515], 'bid': 8.09}]",127893.10000002384,1669836655862,bagel and cc,mac & cheese,6.28,8.09,1.8099999999999996,mac & cheese,424.2000000476837,427,427.10000002384186,True,i,128821.10000002384,928.0,1669836656790,928,HRV,HRV_0260,2022-11-30 19:32:53
93,"[{'imgObject': {}, 'id': 'eggsalad', 'src': '/static/foodstim60/eggsalad.jpg', 'key': 'u', 'origWidth': 410, 'origHeight': 409, 'width': 410, 'height': 409, 'widthPercent': 0.45, 'rescaleHeight': False, 'trialN': 93, 'loaded': True, 'loadedTime': 128822.70000004768, 'positionName': 'LEFT', 'positionCoords': [818.8, 515.5], 'bid': 4.04}, {'imgObject': {}, 'id': 'pear', 'src': '/static/foodstim60/pear.jpg', 'key': 'i', 'origWidth': 411, 'origHeight': 410, 'width': 411, 'height': 410, 'widthPercent': 0.45, 'rescaleHeight': False, 'trialN': 93, 'loaded': True, 'loadedTime': 128822.89999997616, 'positionName': 'RIGHT', 'positionCoords': [1331.2, 515], 'bid': 3.88}]",128821.39999997616,1669836656790,eggsalad,pear,4.04,3.88,-0.16000000000000014,eggsalad,1544,1547,1547.6000000238419,True,u,130875.39999997616,2054.0,1669836658844,2054,HRV,HRV_0260,2022-11-30 19:32:53
94,"[{'imgObject': {}, 'id': 'veggieswithdip', 'src': '/static/foodstim60/veggieswithdip.jpg', 'key': 'u', 'origWidth': 409, 'origHeight': 409, 'width': 409, 'height': 409, 'widthPercent': 0.45, 'rescaleHeight': False, 'trialN': 94, 'loaded': True, 'loadedTime': 130876.5, 'positionName': 'LEFT', 'positionCoords': [819.8, 515.5], 'bid': 3.17}, {'imgObject': {}, 'id': 'olives', 'src': '/static/foodstim60/olives.jpg', 'key': 'i', 'origWidth': 410, 'origHeight': 410, 'width': 410, 'height': 410, 'widthPercent': 0.45, 'rescaleHeight': False, 'trialN': 94, 'loaded': True, 'loadedTime': 130876.60000002384, 'positionName': 'RIGHT', 'positionCoords': [1331.2, 515], 'bid': 3.29}]",130875.70000004768,1669836658844,veggieswithdip,olives,3.17,3.29,0.1200000000000001,veggieswithdip,777.6999999284744,781,780.8999999761581,True,u,132157.39999997616,1281.6999999284744,1669836660126,1282,HRV,HRV_0260,2022-11-30 19:32:53
95,"[{'imgObject': {}, 'id': 'raisin bran w milk', 'src': '/static/foodstim60/raisin bran w milk.jpg', 'key': 'u', 'origWidth': 411, 'origHeight': 411, 'width': 411, 'height': 411, 'widthPercent': 0.45, 'rescaleHeight': False, 'trialN': 95, 'loaded': True, 'loadedTime': 132159, 'positionName': 'LEFT', 'positionCoords': [817.8, 514.5], 'bid': 3.91}, {'imgObject': {}, 'id': 'omelette', 'src': '/static/foodstim60/omelette.jpg', 'key': 'i', 'origWidth': 410, 'origHeight': 409, 'width': 410, 'height': 409, 'widthPercent': 0.45, 'rescaleHeight': False, 'trialN': 95, 'loaded': True, 'loadedTime': 132159.10000002384, 'positionName': 'RIGHT', 'positionCoords': [1331.2, 515.5], 'bid': 2.27}]",132157.70000004768,1669836660126,raisin bran w milk,omelette,3.91,2.27,-1.6400000000000001,raisin bran w milk,855.6000000238419,859,858.8999999761581,True,u,133516.89999997616,1359.1999999284744,1669836661485,1359,HRV,HRV_0260,2022-11-30 19:32:53
96,"[{'imgObject': {}, 'id': 'cherry tomato', 'src': '/static/foodstim60/cherry tomato.jpg', 'key': 'u', 'origWidth': 410, 'origHeight': 410, 'width': 410, 'height': 410, 'widthPercent': 0.45, 'rescaleHeight': False, 'trialN': 96, 'loaded': True, 'loadedTime': 133518.39999997616, 'positionName': 'LEFT', 'positionCoords': [818.8, 515], 'bid': 3.85}, {'imgObject': {}, 'id': 'mashed potato', 'src': '/static/foodstim60/mashed potato.jpg', 'key': 'i', 'origWidth': 409, 'origHeight': 409, 'width': 409, 'height': 409, 'widthPercent': 0.45, 'rescaleHeight': False, 'trialN': 96, 'loaded': True, 'loadedTime': 133518.60000002384, 'positionName': 'RIGHT', 'positionCoords': [1331.2, 515.5], 'bid': 3.97}]",133517.30000007153,1669836661485,cherry tomato,mashed potato,3.85,3.97,0.1200000000000001,cherry tomato,1872,1876,1875.0999999046326,True,u,135900.5,2383.1999999284744,1669836663869,2384,HRV,HRV_0260,2022-11-30 19:32:53
97,"[{'imgObject': {}, 'id': 'chicken nuggets2', 'src': '/static/foodstim60/chicken nuggets2.jpg', 'key': 'u', 'origWidth': 410, 'origHeight': 409, 'width': 410, 'height': 409, 'widthPercent': 0.45, 'rescaleHeight': False, 'trialN': 97, 'loaded': True, 'loadedTime': 135902.10000002384, 'positionName': 'LEFT', 'positionCoords': [818.8, 515.5], 'bid': 6.8100000000000005}, {'imgObject': {}, 'id': 'turkey sandwich', 'src': '/static/foodstim60/turkey sandwich.jpg', 'key': 'i', 'origWidth': 409, 'origHeight': 409, 'width': 409, 'height': 409, 'widthPercent': 0.45, 'rescaleHeight': False, 'trialN': 97, 'loaded': True, 'loadedTime': 135902.30000007153, 'positionName': 'RIGHT', 'positionCoords': [1331.2, 515.5], 'bid': 6.5600000000000005}]",135900.80000007153,1669836663869,chicken nuggets2,turkey sandwich,6.8100000000000005,6.5600000000000005,-0.25,chicken nuggets2,400.5,404,403.89999997615814,True,u,136812.39999997616,911.5999999046326,1669836664780,911,HRV,HRV_0260,2022-11-30 19:32:53
98,"[{'imgObject': {}, 'id': 'apple slices', 'src': '/static/foodstim60/apple slices.jpg', 'key': 'u', 'origWidth': 409, 'origHeight': 410, 'width': 409, 'height': 410, 'widthPercent': 0.45, 'rescaleHeight': False, 'trialN': 98, 'loaded': True, 'loadedTime': 136814, 'positionName': 'LEFT', 'positionCoords': [819.8, 515], 'bid': 4.26}, {'imgObject': {}, 'id': 'avocado', 'src': '/static/foodstim60/avocado.jpg', 'key': 'i', 'origWidth': 409, 'origHeight': 409, 'width': 409, 'height': 409, 'widthPercent': 0.45, 'rescaleHeight': False, 'trialN': 98, 'loaded': True, 'loadedTime': 136814.10000002384, 'positionName': 'RIGHT', 'positionCoords': [1331.2, 515.5], 'bid': 4.33}]",136812.70000004768,1669836664781,apple slices,avocado,4.26,4.33,0.07000000000000028,apple slices,328.60000002384186,331,331.6999999284744,True,u,137645.0,832.2999999523163,1669836665613,832,HRV,HRV_0260,2022-11-30 19:32:53
99,"[{'imgObject': {}, 'id': 'raisin bran w milk', 'src': '/static/foodstim60/raisin bran w milk.jpg', 'key': 'u', 'origWidth': 411, 'origHeight': 411, 'width': 411, 'height': 411, 'widthPercent': 0.45, 'rescaleHeight': False, 'trialN': 99, 'loaded': True, 'loadedTime': 137646.5, 'positionName': 'LEFT', 'positionCoords': [817.8, 514.5], 'bid': 3.91}, {'imgObject': {}, 'id': 'fried eggs', 'src': '/static/foodstim60/fried eggs.jpg', 'key': 'i', 'origWidth': 410, 'origHeight': 410, 'width': 410, 'height': 410, 'widthPercent': 0.45, 'rescaleHeight': False, 'trialN': 99, 'loaded': True, 'loadedTime': 137646.70000004768, 'positionName': 'RIGHT', 'positionCoords': [1331.2, 515], 'bid': 6.12}]",137645.30000007153,1669836665613,raisin bran w milk,fried eggs,3.91,6.12,2.21,fried eggs,600.0999999046326,604,603.6999999284744,True,i,138756.89999997616,1111.5999999046326,1669836666725,1112,HRV,HRV_0260,2022-11-30 19:32:53
100,"[{'imgObject': {}, 'id': 'fried eggs', 'src': '/static/foodstim60/fried eggs.jpg', 'key': 'u', 'origWidth': 410, 'origHeight': 410, 'width': 410, 'height': 410, 'widthPercent': 0.45, 'rescaleHeight': False, 'trialN': 100, 'loaded': True, 'loadedTime': 138758.5, 'positionName': 'LEFT', 'positionCoords': [818.8, 515], 'bid': 6.12}, {'imgObject': {}, 'id': 'steak', 'src': '/static/foodstim60/steak.jpg', 'key': 'i', 'origWidth': 410, 'origHeight': 410, 'width': 410, 'height': 410, 'widthPercent': 0.45, 'rescaleHeight': False, 'trialN': 100, 'loaded': True, 'loadedTime': 138758.80000007153, 'positionName': 'RIGHT', 'positionCoords': [1331.2, 515], 'bid': 6.82}]",138757.30000007153,1669836666725,fried eggs,steak,6.12,6.82,0.7000000000000002,fried eggs,496.09999990463257,499,499.1999999284744,True,u,139757.10000002384,999.7999999523163,1669836667725,1000,HRV,HRV_0260,2022-11-30 19:32:53
101,"[{'imgObject': {}, 'id': 'baked potato', 'src': '/static/foodstim60/baked potato.jpg', 'key': 'u', 'origWidth': 409, 'origHeight': 410, 'width': 409, 'height': 410, 'widthPercent': 0.45, 'rescaleHeight': False, 'trialN': 101, 'loaded': True, 'loadedTime': 139759.30000007153, 'positionName': 'LEFT', 'positionCoords': [819.8, 515], 'bid': 3.53}, {'imgObject': {}, 'id': 'eggs', 'src': '/static/foodstim60/eggs.jpg', 'key': 'i', 'origWidth': 409, 'origHeight': 409, 'width': 409, 'height': 409, 'widthPercent': 0.45, 'rescaleHeight': False, 'trialN': 101, 'loaded': True, 'loadedTime': 139759.5, 'positionName': 'RIGHT', 'positionCoords': [1331.2, 515.5], 'bid': 3.36}]",139757.60000002384,1669836667726,baked potato,eggs,3.53,3.36,-0.16999999999999993,baked potato,775.7999999523163,779,779.2000000476837,True,u,141045.0,1287.3999999761581,1669836669013,1287,HRV,HRV_0260,2022-11-30 19:32:53
102,"[{'imgObject': {}, 'id': 'avocado', 'src': '/static/foodstim60/avocado.jpg', 'key': 'u', 'origWidth': 409, 'origHeight': 409, 'width': 409, 'height': 409, 'widthPercent': 0.45, 'rescaleHeight': False, 'trialN': 102, 'loaded': True, 'loadedTime': 141046.5, 'positionName': 'LEFT', 'positionCoords': [819.8, 515.5], 'bid': 4.33}, {'imgObject': {}, 'id': 'luckycharms', 'src': '/static/foodstim60/luckycharms.jpg', 'key': 'i', 'origWidth': 410, 'origHeight': 409, 'width': 410, 'height': 409, 'widthPercent': 0.45, 'rescaleHeight': False, 'trialN': 102, 'loaded': True, 'loadedTime': 141046.70000004768, 'positionName': 'RIGHT', 'positionCoords': [1331.2, 515.5], 'bid': 5.57}]",141045.30000007153,1669836669013,avocado,luckycharms,4.33,5.57,1.2400000000000002,luckycharms,512,515,515.0,True,i,142061.20000004768,1015.8999999761581,1669836670029,1016,HRV,HRV_0260,2022-11-30 19:32:53
103,"[{'imgObject': {}, 'id': 'sushi w_condiments', 'src': '/static/foodstim60/sushi w_condiments.jpg', 'key': 'u', 'origWidth': 410, 'origHeight': 410, 'width': 410, 'height': 410, 'widthPercent': 0.45, 'rescaleHeight': False, 'trialN': 103, 'loaded': True, 'loadedTime': 142062.89999997616, 'positionName': 'LEFT', 'positionCoords': [818.8, 515], 'bid': 3.25}, {'imgObject': {}, 'id': 'burger', 'src': '/static/foodstim60/burger.jpg', 'key': 'i', 'origWidth': 409, 'origHeight': 409, 'width': 409, 'height': 409, 'widthPercent': 0.45, 'rescaleHeight': False, 'trialN': 103, 'loaded': True, 'loadedTime': 142063.20000004768, 'positionName': 'RIGHT', 'positionCoords': [1331.2, 515.5], 'bid': 5.64}]",142061.5,1669836670029,sushi w_condiments,burger,3.25,5.64,2.3899999999999997,burger,1143.8999999761581,1148,1147.8999999761581,True,i,143716.89999997616,1655.3999999761581,1669836671685,1656,HRV,HRV_0260,2022-11-30 19:32:53
104,"[{'imgObject': {}, 'id': 'Tribe humus pita', 'src': '/static/foodstim60/Tribe humus pita.jpg', 'key': 'u', 'origWidth': 411, 'origHeight': 411, 'width': 411, 'height': 411, 'widthPercent': 0.45, 'rescaleHeight': False, 'trialN': 104, 'loaded': True, 'loadedTime': 143718.39999997616, 'positionName': 'LEFT', 'positionCoords': [817.8, 514.5], 'bid': 7.25}, {'imgObject': {}, 'id': 'cantaloupe', 'src': '/static/foodstim60/cantaloupe.jpg', 'key': 'i', 'origWidth': 409, 'origHeight': 409, 'width': 409, 'height': 409, 'widthPercent': 0.45, 'rescaleHeight': False, 'trialN': 104, 'loaded': True, 'loadedTime': 143718.60000002384, 'positionName': 'RIGHT', 'positionCoords': [1331.2, 515.5], 'bid': 5.76}]",143717.10000002384,1669836671685,Tribe humus pita,cantaloupe,7.25,5.76,-1.4900000000000002,Tribe humus pita,840.2000000476837,843,843.2999999523163,True,u,145067.89999997616,1350.7999999523163,1669836673036,1351,HRV,HRV_0260,2022-11-30 19:32:53
105,"[{'imgObject': {}, 'id': 'eggsalad', 'src': '/static/foodstim60/eggsalad.jpg', 'key': 'u', 'origWidth': 410, 'origHeight': 409, 'width': 410, 'height': 409, 'widthPercent': 0.45, 'rescaleHeight': False, 'trialN': 105, 'loaded': True, 'loadedTime': 145069.39999997616, 'positionName': 'LEFT', 'positionCoords': [818.8, 515.5], 'bid': 4.04}, {'imgObject': {}, 'id': 'mashed potato', 'src': '/static/foodstim60/mashed potato.jpg', 'key': 'i', 'origWidth': 409, 'origHeight': 409, 'width': 409, 'height': 409, 'widthPercent': 0.45, 'rescaleHeight': False, 'trialN': 105, 'loaded': True, 'loadedTime': 145069.60000002384, 'positionName': 'RIGHT', 'positionCoords': [1331.2, 515.5], 'bid': 3.97}]",145068.20000004768,1669836673036,eggsalad,mashed potato,4.04,3.97,-0.06999999999999984,mashed potato,401.1999999284744,404,404.2999999523163,True,i,145980.39999997616,912.1999999284744,1669836673948,912,HRV,HRV_0260,2022-11-30 19:32:53
106,"[{'imgObject': {}, 'id': 'lox', 'src': '/static/foodstim60/lox.jpg', 'key': 'u', 'origWidth': 410, 'origHeight': 411, 'width': 410, 'height': 411, 'widthPercent': 0.45, 'rescaleHeight': False, 'trialN': 106, 'loaded': True, 'loadedTime': 145981.89999997616, 'positionName': 'LEFT', 'positionCoords': [818.8, 514.5], 'bid': 3.67}, {'imgObject': {}, 'id': 'veggieswithdip', 'src': '/static/foodstim60/veggieswithdip.jpg', 'key': 'i', 'origWidth': 409, 'origHeight': 409, 'width': 409, 'height': 409, 'widthPercent': 0.45, 'rescaleHeight': False, 'trialN': 106, 'loaded': True, 'loadedTime': 145982.10000002384, 'positionName': 'RIGHT', 'positionCoords': [1331.2, 515.5], 'bid': 3.17}]",145980.70000004768,1669836673948,lox,veggieswithdip,3.67,3.17,-0.5,lox,384.60000002384186,388,387.89999997615814,True,u,146869.80000007153,889.1000000238419,1669836674837,889,HRV,HRV_0260,2022-11-30 19:32:53
107,"[{'imgObject': {}, 'id': 'hashbrowns', 'src': '/static/foodstim60/hashbrowns.jpg', 'key': 'u', 'origWidth': 411, 'origHeight': 410, 'width': 411, 'height': 410, 'widthPercent': 0.45, 'rescaleHeight': False, 'trialN': 107, 'loaded': True, 'loadedTime': 146871.30000007153, 'positionName': 'LEFT', 'positionCoords': [817.8, 515], 'bid': 6.47}, {'imgObject': {}, 'id': 'kiwi', 'src': '/static/foodstim60/kiwi.jpg', 'key': 'i', 'origWidth': 410, 'origHeight': 410, 'width': 410, 'height': 410, 'widthPercent': 0.45, 'rescaleHeight': False, 'trialN': 107, 'loaded': True, 'loadedTime': 146871.5, 'positionName': 'RIGHT', 'positionCoords': [1331.2, 515], 'bid': 4.3500000000000005}]",146870.0,1669836674838,hashbrowns,kiwi,6.47,4.3500000000000005,-2.119999999999999,hashbrowns,719.3000000715256,722,722.2000000476837,True,u,148092.89999997616,1222.8999999761581,1669836676061,1223,HRV,HRV_0260,2022-11-30 19:32:53
