trialN,stimuli,question,trialStartTime,trialStartTime_UNIX,stimulus1,rt,receivedResponse,rating,trialEndTime,trialDuration,stimulus1Loaded,exp,subjectId,date
0,"[{'imgObject': {}, 'id': 'tacos', 'src': '/static/foodstim60/tacos.jpg', 'key': 'NaN', 'origWidth': 411, 'origHeight': 411, 'width': 411, 'height': 411, 'widthPercent': 0.8, 'rescaleHeight': True, 'trialN': 0, 'loaded': True, 'loadedTime': 2011.5, 'positionName': 'CENTER', 'positionCoords': [1074.5, 514.5]}]",Rate how much you want to eat this food from 0 (least) to 10 (most).,2440.7999999523163,1669836634118,tacos,2155.9000000953674,True,6.78,4596.700000047684,2155.9000000953674,True,HRV,HRV_0055,2022-11-30 19:31:36
1,"[{'imgObject': {}, 'id': 'strawberries', 'src': '/static/foodstim60/strawberries.jpg', 'key': 'NaN', 'origWidth': 410, 'origHeight': 410, 'width': 410, 'height': 410, 'widthPercent': 0.8, 'rescaleHeight': True, 'trialN': 1, 'loaded': True, 'loadedTime': 2013.7000000476837, 'positionName': 'CENTER', 'positionCoords': [1075, 515]}]",Rate how much you want to eat this food from 0 (least) to 10 (most).,4598.700000047684,1669836636276,strawberries,1171.7999999523163,True,5.75,5770.5,1171.7999999523163,True,HRV,HRV_0055,2022-11-30 19:31:36
2,"[{'imgObject': {}, 'id': 'chickenfingers', 'src': '/static/foodstim60/chickenfingers.jpg', 'key': 'NaN', 'origWidth': 410, 'origHeight': 410, 'width': 410, 'height': 410, 'widthPercent': 0.8, 'rescaleHeight': True, 'trialN': 2, 'loaded': True, 'loadedTime': 2023.4000000953674, 'positionName': 'CENTER', 'positionCoords': [1075, 515]}]",Rate how much you want to eat this food from 0 (least) to 10 (most).,5771.200000047684,1669836637449,chickenfingers,904.5999999046326,True,5.5,6675.799999952316,904.5999999046326,True,HRV,HRV_0055,2022-11-30 19:31:36
3,"[{'imgObject': {}, 'id': 'eggs', 'src': '/static/foodstim60/eggs.jpg', 'key': 'NaN', 'origWidth': 409, 'origHeight': 409, 'width': 409, 'height': 409, 'widthPercent': 0.8, 'rescaleHeight': True, 'trialN': 3, 'loaded': True, 'loadedTime': 2024.5999999046326, 'positionName': 'CENTER', 'positionCoords': [1075.5, 515.5]}]",Rate how much you want to eat this food from 0 (least) to 10 (most).,6676.400000095367,1669836638354,eggs,893.0999999046326,True,6.32,7569.5,893.0999999046326,True,HRV,HRV_0055,2022-11-30 19:31:36
4,"[{'imgObject': {}, 'id': 'cherries', 'src': '/static/foodstim60/cherries.jpg', 'key': 'NaN', 'origWidth': 410, 'origHeight': 411, 'width': 410, 'height': 411, 'widthPercent': 0.8, 'rescaleHeight': True, 'trialN': 4, 'loaded': True, 'loadedTime': 2026.2000000476837, 'positionName': 'CENTER', 'positionCoords': [1075, 514.5]}]",Rate how much you want to eat this food from 0 (least) to 10 (most).,7570.200000047684,1669836639248,cherries,910.2999999523163,True,4.14,8480.5,910.2999999523163,True,HRV,HRV_0055,2022-11-30 19:31:36
5,"[{'imgObject': {}, 'id': 'raspberries', 'src': '/static/foodstim60/raspberries.jpg', 'key': 'NaN', 'origWidth': 411, 'origHeight': 411, 'width': 411, 'height': 411, 'widthPercent': 0.8, 'rescaleHeight': True, 'trialN': 5, 'loaded': True, 'loadedTime': 2027.0999999046326, 'positionName': 'CENTER', 'positionCoords': [1074.5, 514.5]}]",Rate how much you want to eat this food from 0 (least) to 10 (most).,8481.099999904633,1669836640159,raspberries,644.7000000476837,True,3.89,9125.799999952316,644.7000000476837,True,HRV,HRV_0055,2022-11-30 19:31:36
6,"[{'imgObject': {}, 'id': 'froot loops w milk', 'src': '/static/foodstim60/froot loops w milk.jpg', 'key': 'NaN', 'origWidth': 410, 'origHeight': 410, 'width': 410, 'height': 410, 'widthPercent': 0.8, 'rescaleHeight': True, 'trialN': 6, 'loaded': True, 'loadedTime': 2028.0999999046326, 'positionName': 'CENTER', 'positionCoords': [1075, 515]}]",Rate how much you want to eat this food from 0 (least) to 10 (most).,9126.5,1669836640804,froot loops w milk,862.9000000953674,True,5.51,9989.400000095367,862.9000000953674,True,HRV,HRV_0055,2022-11-30 19:31:36
7,"[{'imgObject': {}, 'id': 'blueberries', 'src': '/static/foodstim60/blueberries.jpg', 'key': 'NaN', 'origWidth': 411, 'origHeight': 411, 'width': 411, 'height': 411, 'widthPercent': 0.8, 'rescaleHeight': True, 'trialN': 7, 'loaded': True, 'loadedTime': 2039.9000000953674, 'positionName': 'CENTER', 'positionCoords': [1074.5, 514.5]}]",Rate how much you want to eat this food from 0 (least) to 10 (most).,9990.0,1669836641668,blueberries,701.0,True,5.51,10691.0,701.0,True,HRV,HRV_0055,2022-11-30 19:31:36
8,"[{'imgObject': {}, 'id': 'sweetpotato', 'src': '/static/foodstim60/sweetpotato.jpg', 'key': 'NaN', 'origWidth': 410, 'origHeight': 410, 'width': 410, 'height': 410, 'widthPercent': 0.8, 'rescaleHeight': True, 'trialN': 8, 'loaded': True, 'loadedTime': 2044.2999999523163, 'positionName': 'CENTER', 'positionCoords': [1075, 515]}]",Rate how much you want to eat this food from 0 (least) to 10 (most).,10691.700000047684,1669836642369,sweetpotato,991.2999999523163,True,5.57,11683.0,991.2999999523163,True,HRV,HRV_0055,2022-11-30 19:31:36
9,"[{'imgObject': {}, 'id': 'pear', 'src': '/static/foodstim60/pear.jpg', 'key': 'NaN', 'origWidth': 411, 'origHeight': 410, 'width': 411, 'height': 410, 'widthPercent': 0.8, 'rescaleHeight': True, 'trialN': 9, 'loaded': True, 'loadedTime': 2063.2000000476837, 'positionName': 'CENTER', 'positionCoords': [1074.5, 515]}]",Rate how much you want to eat this food from 0 (least) to 10 (most).,11683.599999904633,1669836643361,pear,2305.2000000476837,True,5.46,13988.799999952316,2305.2000000476837,True,HRV,HRV_0055,2022-11-30 19:31:36
10,"[{'imgObject': {}, 'id': 'yogurt no spoon', 'src': '/static/foodstim60/yogurt no spoon.jpg', 'key': 'NaN', 'origWidth': 411, 'origHeight': 410, 'width': 411, 'height': 410, 'widthPercent': 0.8, 'rescaleHeight': True, 'trialN': 10, 'loaded': True, 'loadedTime': 2068.2000000476837, 'positionName': 'CENTER', 'positionCoords': [1074.5, 515]}]",Rate how much you want to eat this food from 0 (least) to 10 (most).,13989.700000047684,1669836645667,yogurt no spoon,904.8999998569489,True,6.12,14894.599999904633,904.8999998569489,True,HRV,HRV_0055,2022-11-30 19:31:36
11,"[{'imgObject': {}, 'id': 'popsicles', 'src': '/static/foodstim60/popsicles.jpg', 'key': 'NaN', 'origWidth': 410, 'origHeight': 410, 'width': 410, 'height': 410, 'widthPercent': 0.8, 'rescaleHeight': True, 'trialN': 11, 'loaded': True, 'loadedTime': 2071.2999999523163, 'positionName': 'CENTER', 'positionCoords': [1075, 515]}]",Rate how much you want to eat this food from 0 (least) to 10 (most).,14895.299999952316,1669836646573,popsicles,917.5,True,4.14,15812.799999952316,917.5,True,HRV,HRV_0055,2022-11-30 19:31:36
12,"[{'imgObject': {}, 'id': 'cheerios', 'src': '/static/foodstim60/cheerios.jpg', 'key': 'NaN', 'origWidth': 409, 'origHeight': 410, 'width': 409, 'height': 410, 'widthPercent': 0.8, 'rescaleHeight': True, 'trialN': 12, 'loaded': True, 'loadedTime': 2085, 'positionName': 'CENTER', 'positionCoords': [1075.5, 515]}]",Rate how much you want to eat this food from 0 (least) to 10 (most).,15813.400000095367,1669836647491,cheerios,975.5,True,6.3500000000000005,16788.900000095367,975.5,True,HRV,HRV_0055,2022-11-30 19:31:36
13,"[{'imgObject': {}, 'id': 'bagel plain', 'src': '/static/foodstim60/bagel plain.jpg', 'key': 'NaN', 'origWidth': 410, 'origHeight': 410, 'width': 410, 'height': 410, 'widthPercent': 0.8, 'rescaleHeight': True, 'trialN': 13, 'loaded': True, 'loadedTime': 2089.0999999046326, 'positionName': 'CENTER', 'positionCoords': [1075, 515]}]",Rate how much you want to eat this food from 0 (least) to 10 (most).,16789.599999904633,1669836648467,bagel plain,940.2000000476837,True,3.6,17729.799999952316,940.2000000476837,True,HRV,HRV_0055,2022-11-30 19:31:36
14,"[{'imgObject': {}, 'id': 'apple slices', 'src': '/static/foodstim60/apple slices.jpg', 'key': 'NaN', 'origWidth': 409, 'origHeight': 410, 'width': 409, 'height': 410, 'widthPercent': 0.8, 'rescaleHeight': True, 'trialN': 14, 'loaded': True, 'loadedTime': 2090.2999999523163, 'positionName': 'CENTER', 'positionCoords': [1075.5, 515]}]",Rate how much you want to eat this food from 0 (least) to 10 (most).,17730.599999904633,1669836649408,apple slices,992.2000000476837,True,5.79,18722.799999952316,992.2000000476837,True,HRV,HRV_0055,2022-11-30 19:31:36
15,"[{'imgObject': {}, 'id': 'eggsalad', 'src': '/static/foodstim60/eggsalad.jpg', 'key': 'NaN', 'origWidth': 410, 'origHeight': 409, 'width': 410, 'height': 409, 'widthPercent': 0.8, 'rescaleHeight': True, 'trialN': 15, 'loaded': True, 'loadedTime': 2102.7000000476837, 'positionName': 'CENTER', 'positionCoords': [1075, 515.5]}]",Rate how much you want to eat this food from 0 (least) to 10 (most).,18723.700000047684,1669836650401,eggsalad,839.0,True,6.2700000000000005,19562.700000047684,839.0,True,HRV,HRV_0055,2022-11-30 19:31:36
16,"[{'imgObject': {}, 'id': 'blackbeanswithrice', 'src': '/static/foodstim60/blackbeanswithrice.jpg', 'key': 'NaN', 'origWidth': 410, 'origHeight': 410, 'width': 410, 'height': 410, 'widthPercent': 0.8, 'rescaleHeight': True, 'trialN': 16, 'loaded': True, 'loadedTime': 2103.5, 'positionName': 'CENTER', 'positionCoords': [1075, 515]}]",Rate how much you want to eat this food from 0 (least) to 10 (most).,19563.5,1669836651241,blackbeanswithrice,958.4000000953674,True,3.09,20521.900000095367,958.4000000953674,True,HRV,HRV_0055,2022-11-30 19:31:36
17,"[{'imgObject': {}, 'id': 'chicken nuggets2', 'src': '/static/foodstim60/chicken nuggets2.jpg', 'key': 'NaN', 'origWidth': 410, 'origHeight': 409, 'width': 410, 'height': 409, 'widthPercent': 0.8, 'rescaleHeight': True, 'trialN': 17, 'loaded': True, 'loadedTime': 2118.4000000953674, 'positionName': 'CENTER', 'positionCoords': [1075, 515.5]}]",Rate how much you want to eat this food from 0 (least) to 10 (most).,20522.599999904633,1669836652200,chicken nuggets2,788.5,True,4.05,21311.099999904633,788.5,True,HRV,HRV_0055,2022-11-30 19:31:36
18,"[{'imgObject': {}, 'id': 'granola w milk', 'src': '/static/foodstim60/granola w milk.jpg', 'key': 'NaN', 'origWidth': 410, 'origHeight': 410, 'width': 410, 'height': 410, 'widthPercent': 0.8, 'rescaleHeight': True, 'trialN': 18, 'loaded': True, 'loadedTime': 2121.9000000953674, 'positionName': 'CENTER', 'positionCoords': [1075, 515]}]",Rate how much you want to eat this food from 0 (least) to 10 (most).,21311.900000095367,1669836652989,granola w milk,789.5,True,5.88,22101.400000095367,789.5,True,HRV,HRV_0055,2022-11-30 19:31:36
19,"[{'imgObject': {}, 'id': 'omelette', 'src': '/static/foodstim60/omelette.jpg', 'key': 'NaN', 'origWidth': 410, 'origHeight': 409, 'width': 410, 'height': 409, 'widthPercent': 0.8, 'rescaleHeight': True, 'trialN': 19, 'loaded': True, 'loadedTime': 2144.0999999046326, 'positionName': 'CENTER', 'positionCoords': [1075, 515.5]}]",Rate how much you want to eat this food from 0 (least) to 10 (most).,22102.0,1669836653780,omelette,794.7999999523163,True,6.12,22896.799999952316,794.7999999523163,True,HRV,HRV_0055,2022-11-30 19:31:36
20,"[{'imgObject': {}, 'id': 'avocado', 'src': '/static/foodstim60/avocado.jpg', 'key': 'NaN', 'origWidth': 409, 'origHeight': 409, 'width': 409, 'height': 409, 'widthPercent': 0.8, 'rescaleHeight': True, 'trialN': 20, 'loaded': True, 'loadedTime': 2144.7000000476837, 'positionName': 'CENTER', 'positionCoords': [1075.5, 515.5]}]",Rate how much you want to eat this food from 0 (least) to 10 (most).,22897.700000047684,1669836654575,avocado,979.0,True,4.32,23876.700000047684,979.0,True,HRV,HRV_0055,2022-11-30 19:31:36
21,"[{'imgObject': {}, 'id': 'mashed potato', 'src': '/static/foodstim60/mashed potato.jpg', 'key': 'NaN', 'origWidth': 409, 'origHeight': 409, 'width': 409, 'height': 409, 'widthPercent': 0.8, 'rescaleHeight': True, 'trialN': 21, 'loaded': True, 'loadedTime': 2156.2000000476837, 'positionName': 'CENTER', 'positionCoords': [1075.5, 515.5]}]",Rate how much you want to eat this food from 0 (least) to 10 (most).,23877.5,1669836655555,mashed potato,1166.0999999046326,True,8.06,25043.599999904633,1166.0999999046326,True,HRV,HRV_0055,2022-11-30 19:31:36
22,"[{'imgObject': {}, 'id': 'lox', 'src': '/static/foodstim60/lox.jpg', 'key': 'NaN', 'origWidth': 410, 'origHeight': 411, 'width': 410, 'height': 411, 'widthPercent': 0.8, 'rescaleHeight': True, 'trialN': 22, 'loaded': True, 'loadedTime': 2157, 'positionName': 'CENTER', 'positionCoords': [1075, 514.5]}]",Rate how much you want to eat this food from 0 (least) to 10 (most).,25044.400000095367,1669836656722,lox,912.1999998092651,True,6.29,25956.599999904633,912.1999998092651,True,HRV,HRV_0055,2022-11-30 19:31:36
23,"[{'imgObject': {}, 'id': 'shreddedwheatwithmilk', 'src': '/static/foodstim60/shreddedwheatwithmilk.jpg', 'key': 'NaN', 'origWidth': 410, 'origHeight': 410, 'width': 410, 'height': 410, 'widthPercent': 0.8, 'rescaleHeight': True, 'trialN': 23, 'loaded': True, 'loadedTime': 2169.2999999523163, 'positionName': 'CENTER', 'positionCoords': [1075, 515]}]",Rate how much you want to eat this food from 0 (least) to 10 (most).,25957.299999952316,1669836657635,shreddedwheatwithmilk,838.0,True,6.76,26795.299999952316,838.0,True,HRV,HRV_0055,2022-11-30 19:31:36
24,"[{'imgObject': {}, 'id': 'burrito', 'src': '/static/foodstim60/burrito.jpg', 'key': 'NaN', 'origWidth': 410, 'origHeight': 410, 'width': 410, 'height': 410, 'widthPercent': 0.8, 'rescaleHeight': True, 'trialN': 24, 'loaded': True, 'loadedTime': 2170.2000000476837, 'positionName': 'CENTER', 'positionCoords': [1075, 515]}]",Rate how much you want to eat this food from 0 (least) to 10 (most).,26795.799999952316,1669836658473,burrito,1053.2000000476837,True,3.0100000000000002,27849.0,1053.2000000476837,True,HRV,HRV_0055,2022-11-30 19:31:36
25,"[{'imgObject': {}, 'id': 'ice cream sundae 002', 'src': '/static/foodstim60/ice cream sundae 002.jpg', 'key': 'NaN', 'origWidth': 409, 'origHeight': 409, 'width': 409, 'height': 409, 'widthPercent': 0.8, 'rescaleHeight': True, 'trialN': 25, 'loaded': True, 'loadedTime': 2182.7000000476837, 'positionName': 'CENTER', 'positionCoords': [1075.5, 515.5]}]",Rate how much you want to eat this food from 0 (least) to 10 (most).,27849.599999904633,1669836659527,ice cream sundae 002,1083.3000001907349,True,6.32,28932.900000095367,1083.3000001907349,True,HRV,HRV_0055,2022-11-30 19:31:36
26,"[{'imgObject': {}, 'id': 'luckycharms', 'src': '/static/foodstim60/luckycharms.jpg', 'key': 'NaN', 'origWidth': 410, 'origHeight': 409, 'width': 410, 'height': 409, 'widthPercent': 0.8, 'rescaleHeight': True, 'trialN': 26, 'loaded': True, 'loadedTime': 2183.4000000953674, 'positionName': 'CENTER', 'positionCoords': [1075, 515.5]}]",Rate how much you want to eat this food from 0 (least) to 10 (most).,28933.599999904633,1669836660611,luckycharms,1835.5,True,5.87,30769.099999904633,1835.5,True,HRV,HRV_0055,2022-11-30 19:31:36
27,"[{'imgObject': {}, 'id': 'cantaloupe', 'src': '/static/foodstim60/cantaloupe.jpg', 'key': 'NaN', 'origWidth': 409, 'origHeight': 409, 'width': 409, 'height': 409, 'widthPercent': 0.8, 'rescaleHeight': True, 'trialN': 27, 'loaded': True, 'loadedTime': 2195.7999999523163, 'positionName': 'CENTER', 'positionCoords': [1075.5, 515.5]}]",Rate how much you want to eat this food from 0 (least) to 10 (most).,30769.799999952316,1669836662447,cantaloupe,1143.9000000953674,True,6.12,31913.700000047684,1143.9000000953674,True,HRV,HRV_0055,2022-11-30 19:31:36
28,"[{'imgObject': {}, 'id': 'edamame', 'src': '/static/foodstim60/edamame.jpg', 'key': 'NaN', 'origWidth': 409, 'origHeight': 410, 'width': 409, 'height': 410, 'widthPercent': 0.8, 'rescaleHeight': True, 'trialN': 28, 'loaded': True, 'loadedTime': 2196.7999999523163, 'positionName': 'CENTER', 'positionCoords': [1075.5, 515]}]",Rate how much you want to eat this food from 0 (least) to 10 (most).,31914.299999952316,1669836663592,edamame,1059.5,True,1.97,32973.799999952316,1059.5,True,HRV,HRV_0055,2022-11-30 19:31:36
29,"[{'imgObject': {}, 'id': 'mango', 'src': '/static/foodstim60/mango.jpg', 'key': 'NaN', 'origWidth': 411, 'origHeight': 411, 'width': 411, 'height': 411, 'widthPercent': 0.8, 'rescaleHeight': True, 'trialN': 29, 'loaded': True, 'loadedTime': 2209.2999999523163, 'positionName': 'CENTER', 'positionCoords': [1074.5, 514.5]}]",Rate how much you want to eat this food from 0 (least) to 10 (most).,32974.5,1669836664652,mango,670.2000000476837,True,2.54,33644.700000047684,670.2000000476837,True,HRV,HRV_0055,2022-11-30 19:31:36
30,"[{'imgObject': {}, 'id': 'hotdog w must', 'src': '/static/foodstim60/hotdog w must.jpg', 'key': 'NaN', 'origWidth': 409, 'origHeight': 409, 'width': 409, 'height': 409, 'widthPercent': 0.8, 'rescaleHeight': True, 'trialN': 30, 'loaded': True, 'loadedTime': 2213.2000000476837, 'positionName': 'CENTER', 'positionCoords': [1075.5, 515.5]}]",Rate how much you want to eat this food from 0 (least) to 10 (most).,33645.40000009537,1669836665323,hotdog w must,729.3999998569489,True,3.6,34374.799999952316,729.3999998569489,True,HRV,HRV_0055,2022-11-30 19:31:36
31,"[{'imgObject': {}, 'id': 'veggieswithdip', 'src': '/static/foodstim60/veggieswithdip.jpg', 'key': 'NaN', 'origWidth': 409, 'origHeight': 409, 'width': 409, 'height': 409, 'widthPercent': 0.8, 'rescaleHeight': True, 'trialN': 31, 'loaded': True, 'loadedTime': 2222.7999999523163, 'positionName': 'CENTER', 'positionCoords': [1075.5, 515.5]}]",Rate how much you want to eat this food from 0 (least) to 10 (most).,34375.5,1669836666053,veggieswithdip,935.0,True,5.44,35310.5,935.0,True,HRV,HRV_0055,2022-11-30 19:31:36
32,"[{'imgObject': {}, 'id': 'salmon', 'src': '/static/foodstim60/salmon.jpg', 'key': 'NaN', 'origWidth': 410, 'origHeight': 409, 'width': 410, 'height': 409, 'widthPercent': 0.8, 'rescaleHeight': True, 'trialN': 32, 'loaded': True, 'loadedTime': 2223.5999999046326, 'positionName': 'CENTER', 'positionCoords': [1075, 515.5]}]",Rate how much you want to eat this food from 0 (least) to 10 (most).,35311.200000047684,1669836666989,salmon,777.5999999046326,True,6.28,36088.799999952316,777.5999999046326,True,HRV,HRV_0055,2022-11-30 19:31:36
33,"[{'imgObject': {}, 'id': 'fried eggs', 'src': '/static/foodstim60/fried eggs.jpg', 'key': 'NaN', 'origWidth': 410, 'origHeight': 410, 'width': 410, 'height': 410, 'widthPercent': 0.8, 'rescaleHeight': True, 'trialN': 33, 'loaded': True, 'loadedTime': 2235.0999999046326, 'positionName': 'CENTER', 'positionCoords': [1075, 515]}]",Rate how much you want to eat this food from 0 (least) to 10 (most).,36089.5,1669836667767,fried eggs,791.2999999523163,True,6.78,36880.799999952316,791.2999999523163,True,HRV,HRV_0055,2022-11-30 19:31:36
34,"[{'imgObject': {}, 'id': 'Grapes', 'src': '/static/foodstim60/Grapes.jpg', 'key': 'NaN', 'origWidth': 411, 'origHeight': 411, 'width': 411, 'height': 411, 'widthPercent': 0.8, 'rescaleHeight': True, 'trialN': 34, 'loaded': True, 'loadedTime': 2235.7999999523163, 'positionName': 'CENTER', 'positionCoords': [1074.5, 514.5]}]",Rate how much you want to eat this food from 0 (least) to 10 (most).,36881.700000047684,1669836668559,Grapes,995.2000000476837,True,3.97,37876.90000009537,995.2000000476837,True,HRV,HRV_0055,2022-11-30 19:31:36
35,"[{'imgObject': {}, 'id': 'steak', 'src': '/static/foodstim60/steak.jpg', 'key': 'NaN', 'origWidth': 410, 'origHeight': 410, 'width': 410, 'height': 410, 'widthPercent': 0.8, 'rescaleHeight': True, 'trialN': 35, 'loaded': True, 'loadedTime': 2248.5, 'positionName': 'CENTER', 'positionCoords': [1075, 515]}]",Rate how much you want to eat this food from 0 (least) to 10 (most).,37877.59999990463,1669836669555,steak,1627.9000000953674,True,9.31,39505.5,1627.9000000953674,True,HRV,HRV_0055,2022-11-30 19:31:36
36,"[{'imgObject': {}, 'id': 'burger', 'src': '/static/foodstim60/burger.jpg', 'key': 'NaN', 'origWidth': 409, 'origHeight': 409, 'width': 409, 'height': 409, 'widthPercent': 0.8, 'rescaleHeight': True, 'trialN': 36, 'loaded': True, 'loadedTime': 2249.4000000953674, 'positionName': 'CENTER', 'positionCoords': [1075.5, 515.5]}]",Rate how much you want to eat this food from 0 (least) to 10 (most).,39506.200000047684,1669836671184,burger,722.5,True,8.83,40228.700000047684,722.5,True,HRV,HRV_0055,2022-11-30 19:31:36
37,"[{'imgObject': {}, 'id': 'baked potato', 'src': '/static/foodstim60/baked potato.jpg', 'key': 'NaN', 'origWidth': 409, 'origHeight': 410, 'width': 409, 'height': 410, 'widthPercent': 0.8, 'rescaleHeight': True, 'trialN': 37, 'loaded': True, 'loadedTime': 2261.7999999523163, 'positionName': 'CENTER', 'positionCoords': [1075.5, 515]}]",Rate how much you want to eat this food from 0 (least) to 10 (most).,40229.40000009537,1669836671907,baked potato,745.3999998569489,True,7.15,40974.799999952316,745.3999998569489,True,HRV,HRV_0055,2022-11-30 19:31:36
38,"[{'imgObject': {}, 'id': 'rigatoni and sauce', 'src': '/static/foodstim60/rigatoni and sauce.jpg', 'key': 'NaN', 'origWidth': 410, 'origHeight': 411, 'width': 410, 'height': 411, 'widthPercent': 0.8, 'rescaleHeight': True, 'trialN': 38, 'loaded': True, 'loadedTime': 2265.2000000476837, 'positionName': 'CENTER', 'positionCoords': [1075, 514.5]}]",Rate how much you want to eat this food from 0 (least) to 10 (most).,40975.5,1669836672653,rigatoni and sauce,857.7000000476837,True,7.72,41833.200000047684,857.7000000476837,True,HRV,HRV_0055,2022-11-30 19:31:36
39,"[{'imgObject': {}, 'id': 'bagel and cc', 'src': '/static/foodstim60/bagel and cc.jpg', 'key': 'NaN', 'origWidth': 410, 'origHeight': 410, 'width': 410, 'height': 410, 'widthPercent': 0.8, 'rescaleHeight': True, 'trialN': 39, 'loaded': True, 'loadedTime': 2274.5999999046326, 'positionName': 'CENTER', 'positionCoords': [1075, 515]}]",Rate how much you want to eat this food from 0 (least) to 10 (most).,41833.90000009537,1669836673512,bagel and cc,901.8999998569489,True,3.7800000000000002,42735.799999952316,901.8999998569489,True,HRV,HRV_0055,2022-11-30 19:31:36
40,"[{'imgObject': {}, 'id': 'olives', 'src': '/static/foodstim60/olives.jpg', 'key': 'NaN', 'origWidth': 410, 'origHeight': 410, 'width': 410, 'height': 410, 'widthPercent': 0.8, 'rescaleHeight': True, 'trialN': 40, 'loaded': True, 'loadedTime': 2275.5999999046326, 'positionName': 'CENTER', 'positionCoords': [1075, 515]}]",Rate how much you want to eat this food from 0 (least) to 10 (most).,42736.5,1669836674414,olives,753.2999999523163,True,3.99,43489.799999952316,753.2999999523163,True,HRV,HRV_0055,2022-11-30 19:31:36
41,"[{'imgObject': {}, 'id': 'cocktailshrimp', 'src': '/static/foodstim60/cocktailshrimp.jpg', 'key': 'NaN', 'origWidth': 410, 'origHeight': 410, 'width': 410, 'height': 410, 'widthPercent': 0.8, 'rescaleHeight': True, 'trialN': 41, 'loaded': True, 'loadedTime': 2287.2999999523163, 'positionName': 'CENTER', 'positionCoords': [1075, 515]}]",Rate how much you want to eat this food from 0 (least) to 10 (most).,43490.5,1669836675168,cocktailshrimp,921.2000000476837,True,3.61,44411.700000047684,921.2000000476837,True,HRV,HRV_0055,2022-11-30 19:31:36
42,"[{'imgObject': {}, 'id': 'rigatoni', 'src': '/static/foodstim60/rigatoni.jpg', 'key': 'NaN', 'origWidth': 411, 'origHeight': 411, 'width': 411, 'height': 411, 'widthPercent': 0.8, 'rescaleHeight': True, 'trialN': 42, 'loaded': True, 'loadedTime': 2288.4000000953674, 'positionName': 'CENTER', 'positionCoords': [1074.5, 514.5]}]",Rate how much you want to eat this food from 0 (least) to 10 (most).,44412.40000009537,1669836676090,rigatoni,686.5,True,5.61,45098.90000009537,686.5,True,HRV,HRV_0055,2022-11-30 19:31:36
43,"[{'imgObject': {}, 'id': 'salad w chicken', 'src': '/static/foodstim60/salad w chicken.jpg', 'key': 'NaN', 'origWidth': 411, 'origHeight': 411, 'width': 411, 'height': 411, 'widthPercent': 0.8, 'rescaleHeight': True, 'trialN': 43, 'loaded': True, 'loadedTime': 2301, 'positionName': 'CENTER', 'positionCoords': [1074.5, 514.5]}]",Rate how much you want to eat this food from 0 (least) to 10 (most).,45099.59999990463,1669836676777,salad w chicken,927.1000001430511,True,6.8500000000000005,46026.700000047684,927.1000001430511,True,HRV,HRV_0055,2022-11-30 19:31:36
44,"[{'imgObject': {}, 'id': 'grilled chicken strips', 'src': '/static/foodstim60/grilled chicken strips.jpg', 'key': 'NaN', 'origWidth': 410, 'origHeight': 411, 'width': 410, 'height': 411, 'widthPercent': 0.8, 'rescaleHeight': True, 'trialN': 44, 'loaded': True, 'loadedTime': 2302.2999999523163, 'positionName': 'CENTER', 'positionCoords': [1075, 514.5]}]",Rate how much you want to eat this food from 0 (least) to 10 (most).,46027.5,1669836677705,grilled chicken strips,837.2000000476837,True,7.26,46864.700000047684,837.2000000476837,True,HRV,HRV_0055,2022-11-30 19:31:36
45,"[{'imgObject': {}, 'id': 'turkeysandwich', 'src': '/static/foodstim60/turkeysandwich.jpg', 'key': 'NaN', 'origWidth': 409, 'origHeight': 409, 'width': 409, 'height': 409, 'widthPercent': 0.8, 'rescaleHeight': True, 'trialN': 45, 'loaded': True, 'loadedTime': 2313.4000000953674, 'positionName': 'CENTER', 'positionCoords': [1075.5, 515.5]}]",Rate how much you want to eat this food from 0 (least) to 10 (most).,46865.59999990463,1669836678543,turkeysandwich,985.3000001907349,True,7.98,47850.90000009537,985.3000001907349,True,HRV,HRV_0055,2022-11-30 19:31:36
46,"[{'imgObject': {}, 'id': 'turkey sandwich', 'src': '/static/foodstim60/turkey sandwich.jpg', 'key': 'NaN', 'origWidth': 409, 'origHeight': 409, 'width': 409, 'height': 409, 'widthPercent': 0.8, 'rescaleHeight': True, 'trialN': 46, 'loaded': True, 'loadedTime': 2327, 'positionName': 'CENTER', 'positionCoords': [1075.5, 515.5]}]",Rate how much you want to eat this food from 0 (least) to 10 (most).,47851.59999990463,1669836679529,turkey sandwich,1038.2000000476837,True,8.48,48889.799999952316,1038.2000000476837,True,HRV,HRV_0055,2022-11-30 19:31:36
47,"[{'imgObject': {}, 'id': 'raisin bran w milk', 'src': '/static/foodstim60/raisin bran w milk.jpg', 'key': 'NaN', 'origWidth': 411, 'origHeight': 411, 'width': 411, 'height': 411, 'widthPercent': 0.8, 'rescaleHeight': True, 'trialN': 47, 'loaded': True, 'loadedTime': 2327.9000000953674, 'positionName': 'CENTER', 'positionCoords': [1074.5, 514.5]}]",Rate how much you want to eat this food from 0 (least) to 10 (most).,48890.700000047684,1669836680568,raisin bran w milk,886.5,True,6.390000000000001,49777.200000047684,886.5,True,HRV,HRV_0055,2022-11-30 19:31:36
48,"[{'imgObject': {}, 'id': 'hashbrowns', 'src': '/static/foodstim60/hashbrowns.jpg', 'key': 'NaN', 'origWidth': 411, 'origHeight': 410, 'width': 411, 'height': 410, 'widthPercent': 0.8, 'rescaleHeight': True, 'trialN': 48, 'loaded': True, 'loadedTime': 2340, 'positionName': 'CENTER', 'positionCoords': [1074.5, 515]}]",Rate how much you want to eat this food from 0 (least) to 10 (most).,49777.90000009537,1669836681456,hashbrowns,1179.2999999523163,True,3.96,50957.200000047684,1179.2999999523163,True,HRV,HRV_0055,2022-11-30 19:31:36
49,"[{'imgObject': {}, 'id': 'orange slices', 'src': '/static/foodstim60/orange slices.jpg', 'key': 'NaN', 'origWidth': 409, 'origHeight': 410, 'width': 409, 'height': 410, 'widthPercent': 0.8, 'rescaleHeight': True, 'trialN': 49, 'loaded': True, 'loadedTime': 2340.7999999523163, 'positionName': 'CENTER', 'positionCoords': [1075.5, 515]}]",Rate how much you want to eat this food from 0 (least) to 10 (most).,50957.90000009537,1669836682636,orange slices,1930.7999999523163,True,4.75,52888.700000047684,1930.7999999523163,True,HRV,HRV_0055,2022-11-30 19:31:36
50,"[{'imgObject': {}, 'id': 'corn cob', 'src': '/static/foodstim60/corn cob.jpg', 'key': 'NaN', 'origWidth': 411, 'origHeight': 411, 'width': 411, 'height': 411, 'widthPercent': 0.8, 'rescaleHeight': True, 'trialN': 50, 'loaded': True, 'loadedTime': 2352.5, 'positionName': 'CENTER', 'positionCoords': [1074.5, 514.5]}]",Rate how much you want to eat this food from 0 (least) to 10 (most).,52889.59999990463,1669836684567,corn cob,815.4000000953674,True,5.75,53705.0,815.4000000953674,True,HRV,HRV_0055,2022-11-30 19:31:36
51,"[{'imgObject': {}, 'id': 'sushi w_condiments', 'src': '/static/foodstim60/sushi w_condiments.jpg', 'key': 'NaN', 'origWidth': 410, 'origHeight': 410, 'width': 410, 'height': 410, 'widthPercent': 0.8, 'rescaleHeight': True, 'trialN': 51, 'loaded': True, 'loadedTime': 2353.2999999523163, 'positionName': 'CENTER', 'positionCoords': [1075, 515]}]",Rate how much you want to eat this food from 0 (least) to 10 (most).,53705.700000047684,1669836685383,sushi w_condiments,984.0999999046326,True,5.79,54689.799999952316,984.0999999046326,True,HRV,HRV_0055,2022-11-30 19:31:36
52,"[{'imgObject': {}, 'id': 'roastedpotatoes', 'src': '/static/foodstim60/roastedpotatoes.jpg', 'key': 'NaN', 'origWidth': 409, 'origHeight': 410, 'width': 409, 'height': 410, 'widthPercent': 0.8, 'rescaleHeight': True, 'trialN': 52, 'loaded': True, 'loadedTime': 2364.7999999523163, 'positionName': 'CENTER', 'positionCoords': [1075.5, 515]}]",Rate how much you want to eat this food from 0 (least) to 10 (most).,54690.5,1669836686368,roastedpotatoes,1075.2000000476837,True,6.67,55765.700000047684,1075.2000000476837,True,HRV,HRV_0055,2022-11-30 19:31:36
53,"[{'imgObject': {}, 'id': 'mac & cheese', 'src': '/static/foodstim60/mac & cheese.jpg', 'key': 'NaN', 'origWidth': 410, 'origHeight': 410, 'width': 410, 'height': 410, 'widthPercent': 0.8, 'rescaleHeight': True, 'trialN': 53, 'loaded': True, 'loadedTime': 2376.5, 'positionName': 'CENTER', 'positionCoords': [1075, 515]}]",Rate how much you want to eat this food from 0 (least) to 10 (most).,55766.200000047684,1669836687444,mac & cheese,1183.5999999046326,True,9.19,56949.799999952316,1183.5999999046326,True,HRV,HRV_0055,2022-11-30 19:31:36
54,"[{'imgObject': {}, 'id': 'kiwi', 'src': '/static/foodstim60/kiwi.jpg', 'key': 'NaN', 'origWidth': 410, 'origHeight': 410, 'width': 410, 'height': 410, 'widthPercent': 0.8, 'rescaleHeight': True, 'trialN': 54, 'loaded': True, 'loadedTime': 2388.7000000476837, 'positionName': 'CENTER', 'positionCoords': [1075, 515]}]",Rate how much you want to eat this food from 0 (least) to 10 (most).,56950.5,1669836688628,kiwi,1038.7000000476837,True,3.94,57989.200000047684,1038.7000000476837,True,HRV,HRV_0055,2022-11-30 19:31:36
55,"[{'imgObject': {}, 'id': 'seaweed', 'src': '/static/foodstim60/seaweed.jpg', 'key': 'NaN', 'origWidth': 410, 'origHeight': 410, 'width': 410, 'height': 410, 'widthPercent': 0.8, 'rescaleHeight': True, 'trialN': 55, 'loaded': True, 'loadedTime': 2389.5999999046326, 'positionName': 'CENTER', 'positionCoords': [1075, 515]}]",Rate how much you want to eat this food from 0 (least) to 10 (most).,57989.90000009537,1669836689668,seaweed,1204.0999999046326,True,0.48,59194.0,1204.0999999046326,True,HRV,HRV_0055,2022-11-30 19:31:36
56,"[{'imgObject': {}, 'id': 'cherry tomato', 'src': '/static/foodstim60/cherry tomato.jpg', 'key': 'NaN', 'origWidth': 410, 'origHeight': 410, 'width': 410, 'height': 410, 'widthPercent': 0.8, 'rescaleHeight': True, 'trialN': 56, 'loaded': True, 'loadedTime': 2401.5, 'positionName': 'CENTER', 'positionCoords': [1075, 515]}]",Rate how much you want to eat this food from 0 (least) to 10 (most).,59194.700000047684,1669836690872,cherry tomato,739.2000000476837,True,2.6,59933.90000009537,739.2000000476837,True,HRV,HRV_0055,2022-11-30 19:31:36
57,"[{'imgObject': {}, 'id': 'banana', 'src': '/static/foodstim60/banana.jpg', 'key': 'NaN', 'origWidth': 410, 'origHeight': 410, 'width': 410, 'height': 410, 'widthPercent': 0.8, 'rescaleHeight': True, 'trialN': 57, 'loaded': True, 'loadedTime': 2402.2999999523163, 'positionName': 'CENTER', 'positionCoords': [1075, 515]}]",Rate how much you want to eat this food from 0 (least) to 10 (most).,59934.5,1669836691612,banana,990.4000000953674,True,6.88,60924.90000009537,990.4000000953674,True,HRV,HRV_0055,2022-11-30 19:31:36
58,"[{'imgObject': {}, 'id': 'Tribe humus pita', 'src': '/static/foodstim60/Tribe humus pita.jpg', 'key': 'NaN', 'origWidth': 411, 'origHeight': 411, 'width': 411, 'height': 411, 'widthPercent': 0.8, 'rescaleHeight': True, 'trialN': 58, 'loaded': True, 'loadedTime': 2414.2999999523163, 'positionName': 'CENTER', 'positionCoords': [1074.5, 514.5]}]",Rate how much you want to eat this food from 0 (least) to 10 (most).,60925.700000047684,1669836692603,Tribe humus pita,860.3999998569489,True,3.67,61786.09999990463,860.3999998569489,True,HRV,HRV_0055,2022-11-30 19:31:36
59,"[{'imgObject': {}, 'id': 'fruitsalad', 'src': '/static/foodstim60/fruitsalad.jpg', 'key': 'NaN', 'origWidth': 410, 'origHeight': 410, 'width': 410, 'height': 410, 'widthPercent': 0.8, 'rescaleHeight': True, 'trialN': 59, 'loaded': True, 'loadedTime': 2428.5, 'positionName': 'CENTER', 'positionCoords': [1075, 515]}]",Rate how much you want to eat this food from 0 (least) to 10 (most).,61787.0,1669836693465,fruitsalad,1059.7000000476837,True,8.31,62846.700000047684,1059.7000000476837,True,HRV,HRV_0055,2022-11-30 19:31:36
