trialN,stimuli,trialStartTime,trialStartTime_UNIX,stimulus1,stimulus2,stimulus1Bid,stimulus2Bid,delta,selected,rt,rt_UNIX,rt_perfnow,receivedResponse,rsp,trialEndTime,trialDuration,trialEndTime_UNIX,trialDuration_UNIX,exp,subjectId,date
0,"[{'imgObject': {}, 'id': 'corn cob', 'src': '/static/foodstim60/corn cob.jpg', 'key': 'u', 'origWidth': 411, 'origHeight': 411, 'width': 411, 'height': 411, 'widthPercent': 0.45, 'rescaleHeight': False, 'trialN': 0, 'loaded': True, 'loadedTime': 2091.5, 'positionName': 'LEFT', 'positionCoords': [817.8, 514.5], 'bid': 5.75}, {'imgObject': {}, 'id': 'strawberries', 'src': '/static/foodstim60/strawberries.jpg', 'key': 'i', 'origWidth': 410, 'origHeight': 410, 'width': 410, 'height': 410, 'widthPercent': 0.45, 'rescaleHeight': False, 'trialN': 0, 'loaded': True, 'loadedTime': 2109.7000000476837, 'positionName': 'RIGHT', 'positionCoords': [1331.2, 515], 'bid': 5.75}]",2381.2999999523163,1669836725227,corn cob,strawberries,5.75,5.75,0.0,corn cob,1068.2999999523163,1069,1069.5,True,u,3957.2999999523163,1576.0,1669836726803,1576,HRV,HRV_0055,2022-11-30 19:35:38
1,"[{'imgObject': {}, 'id': 'cherry tomato', 'src': '/static/foodstim60/cherry tomato.jpg', 'key': 'u', 'origWidth': 410, 'origHeight': 410, 'width': 410, 'height': 410, 'widthPercent': 0.45, 'rescaleHeight': False, 'trialN': 1, 'loaded': True, 'loadedTime': 2112.399999856949, 'positionName': 'LEFT', 'positionCoords': [818.8, 515], 'bid': 2.6}, {'imgObject': {}, 'id': 'hashbrowns', 'src': '/static/foodstim60/hashbrowns.jpg', 'key': 'i', 'origWidth': 411, 'origHeight': 410, 'width': 411, 'height': 410, 'widthPercent': 0.45, 'rescaleHeight': False, 'trialN': 1, 'loaded': True, 'loadedTime': 2115.5999999046326, 'positionName': 'RIGHT', 'positionCoords': [1331.2, 515], 'bid': 3.96}]",3957.7999999523163,1669836726803,cherry tomato,hashbrowns,2.6,3.96,1.3599999999999999,cherry tomato,849.9000000953674,851,850.7000000476837,True,u,5316.5,1358.7000000476837,1669836728162,1359,HRV,HRV_0055,2022-11-30 19:35:38
2,"[{'imgObject': {}, 'id': 'salmon', 'src': '/static/foodstim60/salmon.jpg', 'key': 'u', 'origWidth': 410, 'origHeight': 409, 'width': 410, 'height': 409, 'widthPercent': 0.45, 'rescaleHeight': False, 'trialN': 2, 'loaded': True, 'loadedTime': 2143.7999999523163, 'positionName': 'LEFT', 'positionCoords': [818.8, 515.5], 'bid': 6.28}, {'imgObject': {}, 'id': 'lox', 'src': '/static/foodstim60/lox.jpg', 'key': 'i', 'origWidth': 410, 'origHeight': 411, 'width': 410, 'height': 411, 'widthPercent': 0.45, 'rescaleHeight': False, 'trialN': 2, 'loaded': True, 'loadedTime': 2144.2000000476837, 'positionName': 'RIGHT', 'positionCoords': [1331.2, 514.5], 'bid': 6.29}]",5316.899999856949,1669836728162,salmon,lox,6.28,6.29,0.009999999999999787,salmon,760.6000001430511,762,761.4000000953674,True,u,6580.5,1263.6000001430511,1669836729426,1264,HRV,HRV_0055,2022-11-30 19:35:38
3,"[{'imgObject': {}, 'id': 'sushi w_condiments', 'src': '/static/foodstim60/sushi w_condiments.jpg', 'key': 'u', 'origWidth': 410, 'origHeight': 410, 'width': 410, 'height': 410, 'widthPercent': 0.45, 'rescaleHeight': False, 'trialN': 3, 'loaded': True, 'loadedTime': 2146.899999856949, 'positionName': 'LEFT', 'positionCoords': [818.8, 515], 'bid': 5.79}, {'imgObject': {}, 'id': 'seaweed', 'src': '/static/foodstim60/seaweed.jpg', 'key': 'i', 'origWidth': 410, 'origHeight': 410, 'width': 410, 'height': 410, 'widthPercent': 0.45, 'rescaleHeight': False, 'trialN': 3, 'loaded': True, 'loadedTime': 2148.5, 'positionName': 'RIGHT', 'positionCoords': [1331.2, 515], 'bid': 0.48}]",6580.799999952316,1669836729426,sushi w_condiments,seaweed,5.79,0.48,-5.3100000000000005,sushi w_condiments,790.7000000476837,792,791.2999999523163,True,u,7876.200000047684,1295.4000000953674,1669836730722,1296,HRV,HRV_0055,2022-11-30 19:35:38
4,"[{'imgObject': {}, 'id': 'bagel and cc', 'src': '/static/foodstim60/bagel and cc.jpg', 'key': 'u', 'origWidth': 410, 'origHeight': 410, 'width': 410, 'height': 410, 'widthPercent': 0.45, 'rescaleHeight': False, 'trialN': 4, 'loaded': True, 'loadedTime': 2149.2000000476837, 'positionName': 'LEFT', 'positionCoords': [818.8, 515], 'bid': 3.78}, {'imgObject': {}, 'id': 'seaweed', 'src': '/static/foodstim60/seaweed.jpg', 'key': 'i', 'origWidth': 410, 'origHeight': 410, 'width': 410, 'height': 410, 'widthPercent': 0.45, 'rescaleHeight': False, 'trialN': 4, 'loaded': True, 'loadedTime': 2148.0999999046326, 'positionName': 'RIGHT', 'positionCoords': [1331.2, 515], 'bid': 0.48}]",7876.399999856949,1669836730722,bagel and cc,seaweed,3.78,0.48,-3.3,bagel and cc,675.3000001907349,676,675.8000001907349,True,u,9052.700000047684,1176.3000001907349,1669836731898,1176,HRV,HRV_0055,2022-11-30 19:35:38
5,"[{'imgObject': {}, 'id': 'steak', 'src': '/static/foodstim60/steak.jpg', 'key': 'u', 'origWidth': 410, 'origHeight': 410, 'width': 410, 'height': 410, 'widthPercent': 0.45, 'rescaleHeight': False, 'trialN': 5, 'loaded': True, 'loadedTime': 2150.2999999523163, 'positionName': 'LEFT', 'positionCoords': [818.8, 515], 'bid': 9.31}, {'imgObject': {}, 'id': 'banana', 'src': '/static/foodstim60/banana.jpg', 'key': 'i', 'origWidth': 410, 'origHeight': 410, 'width': 410, 'height': 410, 'widthPercent': 0.45, 'rescaleHeight': False, 'trialN': 5, 'loaded': True, 'loadedTime': 2152.899999856949, 'positionName': 'RIGHT', 'positionCoords': [1331.2, 515], 'bid': 6.88}]",9053.0,1669836731898,steak,banana,9.31,6.88,-2.4300000000000006,steak,624.8999998569489,626,625.3999998569489,True,u,10180.200000047684,1127.2000000476837,1669836733025,1127,HRV,HRV_0055,2022-11-30 19:35:38
6,"[{'imgObject': {}, 'id': 'tacos', 'src': '/static/foodstim60/tacos.jpg', 'key': 'u', 'origWidth': 411, 'origHeight': 411, 'width': 411, 'height': 411, 'widthPercent': 0.45, 'rescaleHeight': False, 'trialN': 6, 'loaded': True, 'loadedTime': 2154.2999999523163, 'positionName': 'LEFT', 'positionCoords': [817.8, 514.5], 'bid': 6.78}, {'imgObject': {}, 'id': 'ice cream sundae 002', 'src': '/static/foodstim60/ice cream sundae 002.jpg', 'key': 'i', 'origWidth': 409, 'origHeight': 409, 'width': 409, 'height': 409, 'widthPercent': 0.45, 'rescaleHeight': False, 'trialN': 6, 'loaded': True, 'loadedTime': 2155.5, 'positionName': 'RIGHT', 'positionCoords': [1331.2, 515.5], 'bid': 6.32}]",10180.700000047684,1669836733026,tacos,ice cream sundae 002,6.78,6.32,-0.45999999999999996,tacos,663.3999998569489,664,664.0999999046326,True,u,11349.0,1168.2999999523163,1669836734194,1168,HRV,HRV_0055,2022-11-30 19:35:38
7,"[{'imgObject': {}, 'id': 'olives', 'src': '/static/foodstim60/olives.jpg', 'key': 'u', 'origWidth': 410, 'origHeight': 410, 'width': 410, 'height': 410, 'widthPercent': 0.45, 'rescaleHeight': False, 'trialN': 7, 'loaded': True, 'loadedTime': 2156.7999999523163, 'positionName': 'LEFT', 'positionCoords': [818.8, 515], 'bid': 3.99}, {'imgObject': {}, 'id': 'blackbeanswithrice', 'src': '/static/foodstim60/blackbeanswithrice.jpg', 'key': 'i', 'origWidth': 410, 'origHeight': 410, 'width': 410, 'height': 410, 'widthPercent': 0.45, 'rescaleHeight': False, 'trialN': 7, 'loaded': True, 'loadedTime': 2163.2999999523163, 'positionName': 'RIGHT', 'positionCoords': [1331.2, 515], 'bid': 3.09}]",11349.299999952316,1669836734195,olives,blackbeanswithrice,3.99,3.09,-0.9000000000000004,olives,809.0,809,809.5,True,u,12660.899999856949,1311.5999999046326,1669836735506,1311,HRV,HRV_0055,2022-11-30 19:35:38
8,"[{'imgObject': {}, 'id': 'pear', 'src': '/static/foodstim60/pear.jpg', 'key': 'u', 'origWidth': 411, 'origHeight': 410, 'width': 411, 'height': 410, 'widthPercent': 0.45, 'rescaleHeight': False, 'trialN': 8, 'loaded': True, 'loadedTime': 2208.899999856949, 'positionName': 'LEFT', 'positionCoords': [817.8, 515], 'bid': 5.46}, {'imgObject': {}, 'id': 'orange slices', 'src': '/static/foodstim60/orange slices.jpg', 'key': 'i', 'origWidth': 409, 'origHeight': 410, 'width': 409, 'height': 410, 'widthPercent': 0.45, 'rescaleHeight': False, 'trialN': 8, 'loaded': True, 'loadedTime': 2213.0999999046326, 'positionName': 'RIGHT', 'positionCoords': [1331.2, 515], 'bid': 4.75}]",12661.299999952316,1669836735507,pear,orange slices,5.46,4.75,-0.71,orange slices,780.4000000953674,781,781.0999999046326,True,i,13948.599999904633,1287.2999999523163,1669836736794,1287,HRV,HRV_0055,2022-11-30 19:35:38
9,"[{'imgObject': {}, 'id': 'mango', 'src': '/static/foodstim60/mango.jpg', 'key': 'u', 'origWidth': 411, 'origHeight': 411, 'width': 411, 'height': 411, 'widthPercent': 0.45, 'rescaleHeight': False, 'trialN': 9, 'loaded': True, 'loadedTime': 2214.7999999523163, 'positionName': 'LEFT', 'positionCoords': [817.8, 514.5], 'bid': 2.54}, {'imgObject': {}, 'id': 'popsicles', 'src': '/static/foodstim60/popsicles.jpg', 'key': 'i', 'origWidth': 410, 'origHeight': 410, 'width': 410, 'height': 410, 'widthPercent': 0.45, 'rescaleHeight': False, 'trialN': 9, 'loaded': True, 'loadedTime': 2216.0999999046326, 'positionName': 'RIGHT', 'positionCoords': [1331.2, 515], 'bid': 4.14}]",13948.799999952316,1669836736794,mango,popsicles,2.54,4.14,1.5999999999999996,mango,656.7000000476837,657,657.2999999523163,True,u,15108.599999904633,1159.7999999523163,1669836737954,1160,HRV,HRV_0055,2022-11-30 19:35:38
10,"[{'imgObject': {}, 'id': 'chicken nuggets2', 'src': '/static/foodstim60/chicken nuggets2.jpg', 'key': 'u', 'origWidth': 410, 'origHeight': 409, 'width': 410, 'height': 409, 'widthPercent': 0.45, 'rescaleHeight': False, 'trialN': 10, 'loaded': True, 'loadedTime': 2219.899999856949, 'positionName': 'LEFT', 'positionCoords': [818.8, 515.5], 'bid': 4.05}, {'imgObject': {}, 'id': 'popsicles', 'src': '/static/foodstim60/popsicles.jpg', 'key': 'i', 'origWidth': 410, 'origHeight': 410, 'width': 410, 'height': 410, 'widthPercent': 0.45, 'rescaleHeight': False, 'trialN': 10, 'loaded': True, 'loadedTime': 2217.5, 'positionName': 'RIGHT', 'positionCoords': [1331.2, 515], 'bid': 4.14}]",15108.899999856949,1669836737954,chicken nuggets2,popsicles,4.05,4.14,0.08999999999999986,popsicles,869.0,870,869.5,True,i,16484.700000047684,1375.8000001907349,1669836739330,1376,HRV,HRV_0055,2022-11-30 19:35:38
11,"[{'imgObject': {}, 'id': 'popsicles', 'src': '/static/foodstim60/popsicles.jpg', 'key': 'u', 'origWidth': 410, 'origHeight': 410, 'width': 410, 'height': 410, 'widthPercent': 0.45, 'rescaleHeight': False, 'trialN': 11, 'loaded': True, 'loadedTime': 2217.2000000476837, 'positionName': 'LEFT', 'positionCoords': [818.8, 515], 'bid': 4.14}, {'imgObject': {}, 'id': 'chickenfingers', 'src': '/static/foodstim60/chickenfingers.jpg', 'key': 'i', 'origWidth': 410, 'origHeight': 410, 'width': 410, 'height': 410, 'widthPercent': 0.45, 'rescaleHeight': False, 'trialN': 11, 'loaded': True, 'loadedTime': 2221.399999856949, 'positionName': 'RIGHT', 'positionCoords': [1331.2, 515], 'bid': 5.5}]",16485.099999904633,1669836739330,popsicles,chickenfingers,4.14,5.5,1.3600000000000003,chickenfingers,720.2999999523163,721,720.9000000953674,True,i,17708.5,1223.4000000953674,1669836740554,1224,HRV,HRV_0055,2022-11-30 19:35:38
12,"[{'imgObject': {}, 'id': 'turkeysandwich', 'src': '/static/foodstim60/turkeysandwich.jpg', 'key': 'u', 'origWidth': 409, 'origHeight': 409, 'width': 409, 'height': 409, 'widthPercent': 0.45, 'rescaleHeight': False, 'trialN': 12, 'loaded': True, 'loadedTime': 2222.5999999046326, 'positionName': 'LEFT', 'positionCoords': [819.8, 515.5], 'bid': 7.98}, {'imgObject': {}, 'id': 'raisin bran w milk', 'src': '/static/foodstim60/raisin bran w milk.jpg', 'key': 'i', 'origWidth': 411, 'origHeight': 411, 'width': 411, 'height': 411, 'widthPercent': 0.45, 'rescaleHeight': False, 'trialN': 12, 'loaded': True, 'loadedTime': 2223.5999999046326, 'positionName': 'RIGHT', 'positionCoords': [1331.2, 514.5], 'bid': 6.390000000000001}]",17708.799999952316,1669836740554,turkeysandwich,raisin bran w milk,7.98,6.390000000000001,-1.5899999999999999,turkeysandwich,634.7000000476837,636,635.5999999046326,True,u,18852.700000047684,1143.9000000953674,1669836741698,1144,HRV,HRV_0055,2022-11-30 19:35:38
13,"[{'imgObject': {}, 'id': 'baked potato', 'src': '/static/foodstim60/baked potato.jpg', 'key': 'u', 'origWidth': 409, 'origHeight': 410, 'width': 409, 'height': 410, 'widthPercent': 0.45, 'rescaleHeight': False, 'trialN': 13, 'loaded': True, 'loadedTime': 2224.2999999523163, 'positionName': 'LEFT', 'positionCoords': [819.8, 515], 'bid': 7.15}, {'imgObject': {}, 'id': 'cantaloupe', 'src': '/static/foodstim60/cantaloupe.jpg', 'key': 'i', 'origWidth': 409, 'origHeight': 409, 'width': 409, 'height': 409, 'widthPercent': 0.45, 'rescaleHeight': False, 'trialN': 13, 'loaded': True, 'loadedTime': 2224.7000000476837, 'positionName': 'RIGHT', 'positionCoords': [1331.2, 515.5], 'bid': 6.12}]",18853.0,1669836741698,baked potato,cantaloupe,7.15,6.12,-1.0300000000000002,baked potato,996.2999999523163,997,996.7000000476837,True,u,20356.099999904633,1503.0999999046326,1669836743201,1503,HRV,HRV_0055,2022-11-30 19:35:38
14,"[{'imgObject': {}, 'id': 'turkeysandwich', 'src': '/static/foodstim60/turkeysandwich.jpg', 'key': 'u', 'origWidth': 409, 'origHeight': 409, 'width': 409, 'height': 409, 'widthPercent': 0.45, 'rescaleHeight': False, 'trialN': 14, 'loaded': True, 'loadedTime': 2222.7000000476837, 'positionName': 'LEFT', 'positionCoords': [819.8, 515.5], 'bid': 7.98}, {'imgObject': {}, 'id': 'steak', 'src': '/static/foodstim60/steak.jpg', 'key': 'i', 'origWidth': 410, 'origHeight': 410, 'width': 410, 'height': 410, 'widthPercent': 0.45, 'rescaleHeight': False, 'trialN': 14, 'loaded': True, 'loadedTime': 2150.5, 'positionName': 'RIGHT', 'positionCoords': [1331.2, 515], 'bid': 9.31}]",20356.39999985695,1669836743202,turkeysandwich,steak,7.98,9.31,1.33,turkeysandwich,591.7000000476837,592,592.3000001907349,True,u,21452.099999904633,1095.7000000476837,1669836744297,1095,HRV,HRV_0055,2022-11-30 19:35:38
15,"[{'imgObject': {}, 'id': 'omelette', 'src': '/static/foodstim60/omelette.jpg', 'key': 'u', 'origWidth': 410, 'origHeight': 409, 'width': 410, 'height': 409, 'widthPercent': 0.45, 'rescaleHeight': False, 'trialN': 15, 'loaded': True, 'loadedTime': 2226.399999856949, 'positionName': 'LEFT', 'positionCoords': [818.8, 515.5], 'bid': 6.12}, {'imgObject': {}, 'id': 'bagel plain', 'src': '/static/foodstim60/bagel plain.jpg', 'key': 'i', 'origWidth': 410, 'origHeight': 410, 'width': 410, 'height': 410, 'widthPercent': 0.45, 'rescaleHeight': False, 'trialN': 15, 'loaded': True, 'loadedTime': 2227, 'positionName': 'RIGHT', 'positionCoords': [1331.2, 515], 'bid': 3.6}]",21452.299999952316,1669836744298,omelette,bagel plain,6.12,3.6,-2.52,omelette,801.2999999523163,801,801.7999999523163,True,u,22757.099999904633,1304.7999999523163,1669836745602,1304,HRV,HRV_0055,2022-11-30 19:35:38
16,"[{'imgObject': {}, 'id': 'steak', 'src': '/static/foodstim60/steak.jpg', 'key': 'u', 'origWidth': 410, 'origHeight': 410, 'width': 410, 'height': 410, 'widthPercent': 0.45, 'rescaleHeight': False, 'trialN': 16, 'loaded': True, 'loadedTime': 2150.2999999523163, 'positionName': 'LEFT', 'positionCoords': [818.8, 515], 'bid': 9.31}, {'imgObject': {}, 'id': 'roastedpotatoes', 'src': '/static/foodstim60/roastedpotatoes.jpg', 'key': 'i', 'origWidth': 409, 'origHeight': 410, 'width': 409, 'height': 410, 'widthPercent': 0.45, 'rescaleHeight': False, 'trialN': 16, 'loaded': True, 'loadedTime': 2227.2999999523163, 'positionName': 'RIGHT', 'positionCoords': [1331.2, 515], 'bid': 6.67}]",22757.39999985695,1669836745603,steak,roastedpotatoes,9.31,6.67,-2.6400000000000006,steak,542.1000001430511,542,542.7000000476837,True,u,23804.700000047684,1047.3000001907349,1669836746650,1047,HRV,HRV_0055,2022-11-30 19:35:38
17,"[{'imgObject': {}, 'id': 'popsicles', 'src': '/static/foodstim60/popsicles.jpg', 'key': 'u', 'origWidth': 410, 'origHeight': 410, 'width': 410, 'height': 410, 'widthPercent': 0.45, 'rescaleHeight': False, 'trialN': 17, 'loaded': True, 'loadedTime': 2217.7999999523163, 'positionName': 'LEFT', 'positionCoords': [818.8, 515], 'bid': 4.14}, {'imgObject': {}, 'id': 'fried eggs', 'src': '/static/foodstim60/fried eggs.jpg', 'key': 'i', 'origWidth': 410, 'origHeight': 410, 'width': 410, 'height': 410, 'widthPercent': 0.45, 'rescaleHeight': False, 'trialN': 17, 'loaded': True, 'loadedTime': 2249.7000000476837, 'positionName': 'RIGHT', 'positionCoords': [1331.2, 515], 'bid': 6.78}]",23804.89999985695,1669836746650,popsicles,fried eggs,4.14,6.78,2.6400000000000006,fried eggs,776.8000001907349,778,777.4000000953674,True,i,25084.299999952316,1279.4000000953674,1669836747929,1279,HRV,HRV_0055,2022-11-30 19:35:38
18,"[{'imgObject': {}, 'id': 'burrito', 'src': '/static/foodstim60/burrito.jpg', 'key': 'u', 'origWidth': 410, 'origHeight': 410, 'width': 410, 'height': 410, 'widthPercent': 0.45, 'rescaleHeight': False, 'trialN': 18, 'loaded': True, 'loadedTime': 2252.7999999523163, 'positionName': 'LEFT', 'positionCoords': [818.8, 515], 'bid': 3.01}, {'imgObject': {}, 'id': 'Grapes', 'src': '/static/foodstim60/Grapes.jpg', 'key': 'i', 'origWidth': 411, 'origHeight': 411, 'width': 411, 'height': 411, 'widthPercent': 0.45, 'rescaleHeight': False, 'trialN': 18, 'loaded': True, 'loadedTime': 2255.0999999046326, 'positionName': 'RIGHT', 'positionCoords': [1331.2, 514.5], 'bid': 3.97}]",25084.599999904633,1669836747930,burrito,Grapes,3.01,3.97,0.9600000000000004,Grapes,748.6000001430511,749,749.1000001430511,True,i,26340.299999952316,1255.7000000476837,1669836749186,1256,HRV,HRV_0055,2022-11-30 19:35:38
19,"[{'imgObject': {}, 'id': 'mac & cheese', 'src': '/static/foodstim60/mac & cheese.jpg', 'key': 'u', 'origWidth': 410, 'origHeight': 410, 'width': 410, 'height': 410, 'widthPercent': 0.45, 'rescaleHeight': False, 'trialN': 19, 'loaded': True, 'loadedTime': 2258.2000000476837, 'positionName': 'LEFT', 'positionCoords': [818.8, 515], 'bid': 9.19}, {'imgObject': {}, 'id': 'corn cob', 'src': '/static/foodstim60/corn cob.jpg', 'key': 'i', 'origWidth': 411, 'origHeight': 411, 'width': 411, 'height': 411, 'widthPercent': 0.45, 'rescaleHeight': False, 'trialN': 19, 'loaded': True, 'loadedTime': 2096.2000000476837, 'positionName': 'RIGHT', 'positionCoords': [1331.2, 514.5], 'bid': 5.75}]",26340.5,1669836749186,mac & cheese,corn cob,9.19,5.75,-3.4399999999999995,mac & cheese,633.2000000476837,633,633.7000000476837,True,u,27476.799999952316,1136.2999999523163,1669836750322,1136,HRV,HRV_0055,2022-11-30 19:35:38
20,"[{'imgObject': {}, 'id': 'olives', 'src': '/static/foodstim60/olives.jpg', 'key': 'u', 'origWidth': 410, 'origHeight': 410, 'width': 410, 'height': 410, 'widthPercent': 0.45, 'rescaleHeight': False, 'trialN': 20, 'loaded': True, 'loadedTime': 2155.899999856949, 'positionName': 'LEFT', 'positionCoords': [818.8, 515], 'bid': 3.99}, {'imgObject': {}, 'id': 'shreddedwheatwithmilk', 'src': '/static/foodstim60/shreddedwheatwithmilk.jpg', 'key': 'i', 'origWidth': 410, 'origHeight': 410, 'width': 410, 'height': 410, 'widthPercent': 0.45, 'rescaleHeight': False, 'trialN': 20, 'loaded': True, 'loadedTime': 2260.7000000476837, 'positionName': 'RIGHT', 'positionCoords': [1331.2, 515], 'bid': 6.76}]",27477.099999904633,1669836750322,olives,shreddedwheatwithmilk,3.99,6.76,2.7699999999999996,shreddedwheatwithmilk,662.5,663,663.2000000476837,True,i,28644.099999904633,1167.0,1669836751489,1167,HRV,HRV_0055,2022-11-30 19:35:38
21,"[{'imgObject': {}, 'id': 'cheerios', 'src': '/static/foodstim60/cheerios.jpg', 'key': 'u', 'origWidth': 409, 'origHeight': 410, 'width': 409, 'height': 410, 'widthPercent': 0.45, 'rescaleHeight': False, 'trialN': 21, 'loaded': True, 'loadedTime': 2261, 'positionName': 'LEFT', 'positionCoords': [819.8, 515], 'bid': 6.3500000000000005}, {'imgObject': {}, 'id': 'omelette', 'src': '/static/foodstim60/omelette.jpg', 'key': 'i', 'origWidth': 410, 'origHeight': 409, 'width': 410, 'height': 409, 'widthPercent': 0.45, 'rescaleHeight': False, 'trialN': 21, 'loaded': True, 'loadedTime': 2226.0999999046326, 'positionName': 'RIGHT', 'positionCoords': [1331.2, 515.5], 'bid': 6.12}]",28644.299999952316,1669836751490,cheerios,omelette,6.3500000000000005,6.12,-0.23000000000000043,cheerios,499.2999999523163,500,500.0,True,u,29652.299999952316,1008.0,1669836752498,1008,HRV,HRV_0055,2022-11-30 19:35:38
22,"[{'imgObject': {}, 'id': 'mango', 'src': '/static/foodstim60/mango.jpg', 'key': 'u', 'origWidth': 411, 'origHeight': 411, 'width': 411, 'height': 411, 'widthPercent': 0.45, 'rescaleHeight': False, 'trialN': 22, 'loaded': True, 'loadedTime': 2215.2000000476837, 'positionName': 'LEFT', 'positionCoords': [817.8, 514.5], 'bid': 2.54}, {'imgObject': {}, 'id': 'luckycharms', 'src': '/static/foodstim60/luckycharms.jpg', 'key': 'i', 'origWidth': 410, 'origHeight': 409, 'width': 410, 'height': 409, 'widthPercent': 0.45, 'rescaleHeight': False, 'trialN': 22, 'loaded': True, 'loadedTime': 2265.2000000476837, 'positionName': 'RIGHT', 'positionCoords': [1331.2, 515.5], 'bid': 5.87}]",29652.5,1669836752498,mango,luckycharms,2.54,5.87,3.33,luckycharms,740.7999999523163,741,741.2999999523163,True,i,30900.89999985695,1248.3999998569489,1669836753746,1248,HRV,HRV_0055,2022-11-30 19:35:38
23,"[{'imgObject': {}, 'id': 'apple slices', 'src': '/static/foodstim60/apple slices.jpg', 'key': 'u', 'origWidth': 409, 'origHeight': 410, 'width': 409, 'height': 410, 'widthPercent': 0.45, 'rescaleHeight': False, 'trialN': 23, 'loaded': True, 'loadedTime': 2269.5999999046326, 'positionName': 'LEFT', 'positionCoords': [819.8, 515], 'bid': 5.79}, {'imgObject': {}, 'id': 'sushi w_condiments', 'src': '/static/foodstim60/sushi w_condiments.jpg', 'key': 'i', 'origWidth': 410, 'origHeight': 410, 'width': 410, 'height': 410, 'widthPercent': 0.45, 'rescaleHeight': False, 'trialN': 23, 'loaded': True, 'loadedTime': 2146.399999856949, 'positionName': 'RIGHT', 'positionCoords': [1331.2, 515], 'bid': 5.79}]",30901.299999952316,1669836753747,apple slices,sushi w_condiments,5.79,5.79,0.0,apple slices,946.2000000476837,946,946.5999999046326,True,u,32348.89999985695,1447.5999999046326,1669836755194,1447,HRV,HRV_0055,2022-11-30 19:35:38
24,"[{'imgObject': {}, 'id': 'mac & cheese', 'src': '/static/foodstim60/mac & cheese.jpg', 'key': 'u', 'origWidth': 410, 'origHeight': 410, 'width': 410, 'height': 410, 'widthPercent': 0.45, 'rescaleHeight': False, 'trialN': 24, 'loaded': True, 'loadedTime': 2258.7000000476837, 'positionName': 'LEFT', 'positionCoords': [818.8, 515], 'bid': 9.19}, {'imgObject': {}, 'id': 'rigatoni and sauce', 'src': '/static/foodstim60/rigatoni and sauce.jpg', 'key': 'i', 'origWidth': 410, 'origHeight': 411, 'width': 410, 'height': 411, 'widthPercent': 0.45, 'rescaleHeight': False, 'trialN': 24, 'loaded': True, 'loadedTime': 2271, 'positionName': 'RIGHT', 'positionCoords': [1331.2, 514.5], 'bid': 7.72}]",32349.099999904633,1669836755194,mac & cheese,rigatoni and sauce,9.19,7.72,-1.4699999999999998,mac & cheese,502.40000009536743,503,503.10000014305115,True,u,33356.0,1006.9000000953674,1669836756201,1007,HRV,HRV_0055,2022-11-30 19:35:38
25,"[{'imgObject': {}, 'id': 'baked potato', 'src': '/static/foodstim60/baked potato.jpg', 'key': 'u', 'origWidth': 409, 'origHeight': 410, 'width': 409, 'height': 410, 'widthPercent': 0.45, 'rescaleHeight': False, 'trialN': 25, 'loaded': True, 'loadedTime': 2224.5, 'positionName': 'LEFT', 'positionCoords': [819.8, 515], 'bid': 7.15}, {'imgObject': {}, 'id': 'salad w chicken', 'src': '/static/foodstim60/salad w chicken.jpg', 'key': 'i', 'origWidth': 411, 'origHeight': 411, 'width': 411, 'height': 411, 'widthPercent': 0.45, 'rescaleHeight': False, 'trialN': 25, 'loaded': True, 'loadedTime': 2272.7999999523163, 'positionName': 'RIGHT', 'positionCoords': [1331.2, 514.5], 'bid': 6.8500000000000005}]",33356.200000047684,1669836756201,baked potato,salad w chicken,7.15,6.8500000000000005,-0.2999999999999998,salad w chicken,728.8999998569489,730,729.1999998092651,True,i,34588.89999985695,1232.6999998092651,1669836757434,1233,HRV,HRV_0055,2022-11-30 19:35:38
26,"[{'imgObject': {}, 'id': 'blueberries', 'src': '/static/foodstim60/blueberries.jpg', 'key': 'u', 'origWidth': 411, 'origHeight': 411, 'width': 411, 'height': 411, 'widthPercent': 0.45, 'rescaleHeight': False, 'trialN': 26, 'loaded': True, 'loadedTime': 2274.899999856949, 'positionName': 'LEFT', 'positionCoords': [817.8, 514.5], 'bid': 5.51}, {'imgObject': {}, 'id': 'bagel and cc', 'src': '/static/foodstim60/bagel and cc.jpg', 'key': 'i', 'origWidth': 410, 'origHeight': 410, 'width': 410, 'height': 410, 'widthPercent': 0.45, 'rescaleHeight': False, 'trialN': 26, 'loaded': True, 'loadedTime': 2148.5, 'positionName': 'RIGHT', 'positionCoords': [1331.2, 515], 'bid': 3.78}]",34589.0,1669836757434,blueberries,bagel and cc,5.51,3.78,-1.73,bagel and cc,818.7000000476837,820,819.3999998569489,True,i,35916.700000047684,1327.7000000476837,1669836758762,1328,HRV,HRV_0055,2022-11-30 19:35:38
27,"[{'imgObject': {}, 'id': 'sweetpotato', 'src': '/static/foodstim60/sweetpotato.jpg', 'key': 'u', 'origWidth': 410, 'origHeight': 410, 'width': 410, 'height': 410, 'widthPercent': 0.45, 'rescaleHeight': False, 'trialN': 27, 'loaded': True, 'loadedTime': 2277.7999999523163, 'positionName': 'LEFT', 'positionCoords': [818.8, 515], 'bid': 5.57}, {'imgObject': {}, 'id': 'turkey sandwich', 'src': '/static/foodstim60/turkey sandwich.jpg', 'key': 'i', 'origWidth': 409, 'origHeight': 409, 'width': 409, 'height': 409, 'widthPercent': 0.45, 'rescaleHeight': False, 'trialN': 27, 'loaded': True, 'loadedTime': 2282.399999856949, 'positionName': 'RIGHT', 'positionCoords': [1331.2, 515.5], 'bid': 8.48}]",35916.89999985695,1669836758762,sweetpotato,turkey sandwich,5.57,8.48,2.91,turkey sandwich,730.8000001907349,732,731.5,True,i,37157.200000047684,1240.3000001907349,1669836760002,1240,HRV,HRV_0055,2022-11-30 19:35:38
28,"[{'imgObject': {}, 'id': 'froot loops w milk', 'src': '/static/foodstim60/froot loops w milk.jpg', 'key': 'u', 'origWidth': 410, 'origHeight': 410, 'width': 410, 'height': 410, 'widthPercent': 0.45, 'rescaleHeight': False, 'trialN': 28, 'loaded': True, 'loadedTime': 2285.399999856949, 'positionName': 'LEFT', 'positionCoords': [818.8, 515], 'bid': 5.51}, {'imgObject': {}, 'id': 'blueberries', 'src': '/static/foodstim60/blueberries.jpg', 'key': 'i', 'origWidth': 411, 'origHeight': 411, 'width': 411, 'height': 411, 'widthPercent': 0.45, 'rescaleHeight': False, 'trialN': 28, 'loaded': True, 'loadedTime': 2275.5999999046326, 'positionName': 'RIGHT', 'positionCoords': [1331.2, 514.5], 'bid': 5.51}]",37157.39999985695,1669836760003,froot loops w milk,blueberries,5.51,5.51,0.0,froot loops w milk,570.2000000476837,570,570.6000001430511,True,u,38228.89999985695,1071.5,1669836761074,1071,HRV,HRV_0055,2022-11-30 19:35:38
29,"[{'imgObject': {}, 'id': 'mashed potato', 'src': '/static/foodstim60/mashed potato.jpg', 'key': 'u', 'origWidth': 409, 'origHeight': 409, 'width': 409, 'height': 409, 'widthPercent': 0.45, 'rescaleHeight': False, 'trialN': 29, 'loaded': True, 'loadedTime': 2290.7000000476837, 'positionName': 'LEFT', 'positionCoords': [819.8, 515.5], 'bid': 8.06}, {'imgObject': {}, 'id': 'roastedpotatoes', 'src': '/static/foodstim60/roastedpotatoes.jpg', 'key': 'i', 'origWidth': 409, 'origHeight': 410, 'width': 409, 'height': 410, 'widthPercent': 0.45, 'rescaleHeight': False, 'trialN': 29, 'loaded': True, 'loadedTime': 2227.899999856949, 'positionName': 'RIGHT', 'positionCoords': [1331.2, 515], 'bid': 6.67}]",38229.200000047684,1669836761074,mashed potato,roastedpotatoes,8.06,6.67,-1.3900000000000006,mashed potato,647.8999998569489,649,648.3999998569489,True,u,39380.39999985695,1151.1999998092651,1669836762226,1152,HRV,HRV_0055,2022-11-30 19:35:38
30,"[{'imgObject': {}, 'id': 'popsicles', 'src': '/static/foodstim60/popsicles.jpg', 'key': 'u', 'origWidth': 410, 'origHeight': 410, 'width': 410, 'height': 410, 'widthPercent': 0.45, 'rescaleHeight': False, 'trialN': 30, 'loaded': True, 'loadedTime': 2216.7999999523163, 'positionName': 'LEFT', 'positionCoords': [818.8, 515], 'bid': 4.14}, {'imgObject': {}, 'id': 'avocado', 'src': '/static/foodstim60/avocado.jpg', 'key': 'i', 'origWidth': 409, 'origHeight': 409, 'width': 409, 'height': 409, 'widthPercent': 0.45, 'rescaleHeight': False, 'trialN': 30, 'loaded': True, 'loadedTime': 2293.2999999523163, 'positionName': 'RIGHT', 'positionCoords': [1331.2, 515.5], 'bid': 4.32}]",39380.59999990463,1669836762226,popsicles,avocado,4.14,4.32,0.1800000000000006,avocado,619.5,620,620.1000001430511,True,i,40508.59999990463,1128.0,1669836763354,1128,HRV,HRV_0055,2022-11-30 19:35:38
31,"[{'imgObject': {}, 'id': 'salad w chicken', 'src': '/static/foodstim60/salad w chicken.jpg', 'key': 'u', 'origWidth': 411, 'origHeight': 411, 'width': 411, 'height': 411, 'widthPercent': 0.45, 'rescaleHeight': False, 'trialN': 31, 'loaded': True, 'loadedTime': 2274.5999999046326, 'positionName': 'LEFT', 'positionCoords': [817.8, 514.5], 'bid': 6.8500000000000005}, {'imgObject': {}, 'id': 'cherries', 'src': '/static/foodstim60/cherries.jpg', 'key': 'i', 'origWidth': 410, 'origHeight': 411, 'width': 410, 'height': 411, 'widthPercent': 0.45, 'rescaleHeight': False, 'trialN': 31, 'loaded': True, 'loadedTime': 2294.399999856949, 'positionName': 'RIGHT', 'positionCoords': [1331.2, 514.5], 'bid': 4.14}]",40508.89999985695,1669836763354,salad w chicken,cherries,6.8500000000000005,4.14,-2.710000000000001,salad w chicken,594.4000000953674,595,594.8000001907349,True,u,41604.59999990463,1095.7000000476837,1669836764450,1096,HRV,HRV_0055,2022-11-30 19:35:38
32,"[{'imgObject': {}, 'id': 'banana', 'src': '/static/foodstim60/banana.jpg', 'key': 'u', 'origWidth': 410, 'origHeight': 410, 'width': 410, 'height': 410, 'widthPercent': 0.45, 'rescaleHeight': False, 'trialN': 32, 'loaded': True, 'loadedTime': 2151.899999856949, 'positionName': 'LEFT', 'positionCoords': [818.8, 515], 'bid': 6.88}, {'imgObject': {}, 'id': 'grilled chicken strips', 'src': '/static/foodstim60/grilled chicken strips.jpg', 'key': 'i', 'origWidth': 410, 'origHeight': 411, 'width': 410, 'height': 411, 'widthPercent': 0.45, 'rescaleHeight': False, 'trialN': 32, 'loaded': True, 'loadedTime': 2299.7000000476837, 'positionName': 'RIGHT', 'positionCoords': [1331.2, 514.5], 'bid': 7.26}]",41604.89999985695,1669836764450,banana,grilled chicken strips,6.88,7.26,0.3799999999999999,grilled chicken strips,1015.2000000476837,1016,1015.8000001907349,True,i,43124.299999952316,1519.4000000953674,1669836765970,1520,HRV,HRV_0055,2022-11-30 19:35:38
33,"[{'imgObject': {}, 'id': 'froot loops w milk', 'src': '/static/foodstim60/froot loops w milk.jpg', 'key': 'u', 'origWidth': 410, 'origHeight': 410, 'width': 410, 'height': 410, 'widthPercent': 0.45, 'rescaleHeight': False, 'trialN': 33, 'loaded': True, 'loadedTime': 2286.0999999046326, 'positionName': 'LEFT', 'positionCoords': [818.8, 515], 'bid': 5.51}, {'imgObject': {}, 'id': 'Tribe humus pita', 'src': '/static/foodstim60/Tribe humus pita.jpg', 'key': 'i', 'origWidth': 411, 'origHeight': 411, 'width': 411, 'height': 411, 'widthPercent': 0.45, 'rescaleHeight': False, 'trialN': 33, 'loaded': True, 'loadedTime': 2312.5, 'positionName': 'RIGHT', 'positionCoords': [1331.2, 514.5], 'bid': 3.67}]",43124.5,1669836765970,froot loops w milk,Tribe humus pita,5.51,3.67,-1.8399999999999999,froot loops w milk,814.2999999523163,815,815.0,True,u,44444.200000047684,1319.7000000476837,1669836767289,1319,HRV,HRV_0055,2022-11-30 19:35:38
34,"[{'imgObject': {}, 'id': 'edamame', 'src': '/static/foodstim60/edamame.jpg', 'key': 'u', 'origWidth': 409, 'origHeight': 410, 'width': 409, 'height': 410, 'widthPercent': 0.45, 'rescaleHeight': False, 'trialN': 34, 'loaded': True, 'loadedTime': 2325.7000000476837, 'positionName': 'LEFT', 'positionCoords': [819.8, 515], 'bid': 1.97}, {'imgObject': {}, 'id': 'apple slices', 'src': '/static/foodstim60/apple slices.jpg', 'key': 'i', 'origWidth': 409, 'origHeight': 410, 'width': 409, 'height': 410, 'widthPercent': 0.45, 'rescaleHeight': False, 'trialN': 34, 'loaded': True, 'loadedTime': 2270.5999999046326, 'positionName': 'RIGHT', 'positionCoords': [1331.2, 515], 'bid': 5.79}]",44444.200000047684,1669836767289,edamame,apple slices,1.97,5.79,3.8200000000000003,apple slices,723.5999999046326,725,724.0999999046326,True,i,45668.89999985695,1224.6999998092651,1669836768514,1225,HRV,HRV_0055,2022-11-30 19:35:38
35,"[{'imgObject': {}, 'id': 'cherries', 'src': '/static/foodstim60/cherries.jpg', 'key': 'u', 'origWidth': 410, 'origHeight': 411, 'width': 410, 'height': 411, 'widthPercent': 0.45, 'rescaleHeight': False, 'trialN': 35, 'loaded': True, 'loadedTime': 2294.899999856949, 'positionName': 'LEFT', 'positionCoords': [818.8, 514.5], 'bid': 4.14}, {'imgObject': {}, 'id': 'cherry tomato', 'src': '/static/foodstim60/cherry tomato.jpg', 'key': 'i', 'origWidth': 410, 'origHeight': 410, 'width': 410, 'height': 410, 'widthPercent': 0.45, 'rescaleHeight': False, 'trialN': 35, 'loaded': True, 'loadedTime': 2111.2000000476837, 'positionName': 'RIGHT', 'positionCoords': [1331.2, 515], 'bid': 2.6}]",45669.09999990463,1669836768514,cherries,cherry tomato,4.14,2.6,-1.5399999999999996,cherry tomato,770.2999999523163,772,771.2000000476837,True,i,46940.799999952316,1271.7000000476837,1669836769786,1272,HRV,HRV_0055,2022-11-30 19:35:38
36,"[{'imgObject': {}, 'id': 'hashbrowns', 'src': '/static/foodstim60/hashbrowns.jpg', 'key': 'u', 'origWidth': 411, 'origHeight': 410, 'width': 411, 'height': 410, 'widthPercent': 0.45, 'rescaleHeight': False, 'trialN': 36, 'loaded': True, 'loadedTime': 2115.7999999523163, 'positionName': 'LEFT', 'positionCoords': [817.8, 515], 'bid': 3.96}, {'imgObject': {}, 'id': 'corn cob', 'src': '/static/foodstim60/corn cob.jpg', 'key': 'i', 'origWidth': 411, 'origHeight': 411, 'width': 411, 'height': 411, 'widthPercent': 0.45, 'rescaleHeight': False, 'trialN': 36, 'loaded': True, 'loadedTime': 2094.2000000476837, 'positionName': 'RIGHT', 'positionCoords': [1331.2, 514.5], 'bid': 5.75}]",46941.0,1669836769786,hashbrowns,corn cob,3.96,5.75,1.79,hashbrowns,576.5,577,577.0999999046326,True,u,48020.700000047684,1079.7000000476837,1669836770866,1080,HRV,HRV_0055,2022-11-30 19:35:38
37,"[{'imgObject': {}, 'id': 'rigatoni and sauce', 'src': '/static/foodstim60/rigatoni and sauce.jpg', 'key': 'u', 'origWidth': 410, 'origHeight': 411, 'width': 410, 'height': 411, 'widthPercent': 0.45, 'rescaleHeight': False, 'trialN': 37, 'loaded': True, 'loadedTime': 2272, 'positionName': 'LEFT', 'positionCoords': [818.8, 514.5], 'bid': 7.72}, {'imgObject': {}, 'id': 'cheerios', 'src': '/static/foodstim60/cheerios.jpg', 'key': 'i', 'origWidth': 409, 'origHeight': 410, 'width': 409, 'height': 410, 'widthPercent': 0.45, 'rescaleHeight': False, 'trialN': 37, 'loaded': True, 'loadedTime': 2261.7000000476837, 'positionName': 'RIGHT', 'positionCoords': [1331.2, 515], 'bid': 6.3500000000000005}]",48020.89999985695,1669836770866,rigatoni and sauce,cheerios,7.72,6.3500000000000005,-1.3699999999999992,rigatoni and sauce,830.6000001430511,831,831.2000000476837,True,u,49356.200000047684,1335.3000001907349,1669836772201,1335,HRV,HRV_0055,2022-11-30 19:35:38
38,"[{'imgObject': {}, 'id': 'lox', 'src': '/static/foodstim60/lox.jpg', 'key': 'u', 'origWidth': 410, 'origHeight': 411, 'width': 410, 'height': 411, 'widthPercent': 0.45, 'rescaleHeight': False, 'trialN': 38, 'loaded': True, 'loadedTime': 2145.399999856949, 'positionName': 'LEFT', 'positionCoords': [818.8, 514.5], 'bid': 6.29}, {'imgObject': {}, 'id': 'eggsalad', 'src': '/static/foodstim60/eggsalad.jpg', 'key': 'i', 'origWidth': 410, 'origHeight': 409, 'width': 410, 'height': 409, 'widthPercent': 0.45, 'rescaleHeight': False, 'trialN': 38, 'loaded': True, 'loadedTime': 2325.7000000476837, 'positionName': 'RIGHT', 'positionCoords': [1331.2, 515.5], 'bid': 6.2700000000000005}]",49356.5,1669836772202,lox,eggsalad,6.29,6.2700000000000005,-0.019999999999999574,eggsalad,904.2000000476837,904,904.7999999523163,True,i,50764.700000047684,1408.2000000476837,1669836773610,1408,HRV,HRV_0055,2022-11-30 19:35:38
39,"[{'imgObject': {}, 'id': 'raspberries', 'src': '/static/foodstim60/raspberries.jpg', 'key': 'u', 'origWidth': 411, 'origHeight': 411, 'width': 411, 'height': 411, 'widthPercent': 0.45, 'rescaleHeight': False, 'trialN': 39, 'loaded': True, 'loadedTime': 2349.899999856949, 'positionName': 'LEFT', 'positionCoords': [817.8, 514.5], 'bid': 3.89}, {'imgObject': {}, 'id': 'sweetpotato', 'src': '/static/foodstim60/sweetpotato.jpg', 'key': 'i', 'origWidth': 410, 'origHeight': 410, 'width': 410, 'height': 410, 'widthPercent': 0.45, 'rescaleHeight': False, 'trialN': 39, 'loaded': True, 'loadedTime': 2278.2999999523163, 'positionName': 'RIGHT', 'positionCoords': [1331.2, 515], 'bid': 5.57}]",50764.89999985695,1669836773610,raspberries,sweetpotato,3.89,5.57,1.6800000000000002,sweetpotato,683.8000001907349,684,684.3000001907349,True,i,51956.5,1191.6000001430511,1669836774802,1192,HRV,HRV_0055,2022-11-30 19:35:38
40,"[{'imgObject': {}, 'id': 'banana', 'src': '/static/foodstim60/banana.jpg', 'key': 'u', 'origWidth': 410, 'origHeight': 410, 'width': 410, 'height': 410, 'widthPercent': 0.45, 'rescaleHeight': False, 'trialN': 40, 'loaded': True, 'loadedTime': 2152.7999999523163, 'positionName': 'LEFT', 'positionCoords': [818.8, 515], 'bid': 6.88}, {'imgObject': {}, 'id': 'yogurt no spoon', 'src': '/static/foodstim60/yogurt no spoon.jpg', 'key': 'i', 'origWidth': 411, 'origHeight': 410, 'width': 411, 'height': 410, 'widthPercent': 0.45, 'rescaleHeight': False, 'trialN': 40, 'loaded': True, 'loadedTime': 2351.0999999046326, 'positionName': 'RIGHT', 'positionCoords': [1331.2, 515], 'bid': 6.12}]",51956.799999952316,1669836774802,banana,yogurt no spoon,6.88,6.12,-0.7599999999999998,yogurt no spoon,680.2000000476837,681,680.7000000476837,True,i,53141.09999990463,1184.2999999523163,1669836775986,1184,HRV,HRV_0055,2022-11-30 19:35:38
41,"[{'imgObject': {}, 'id': 'blueberries', 'src': '/static/foodstim60/blueberries.jpg', 'key': 'u', 'origWidth': 411, 'origHeight': 411, 'width': 411, 'height': 411, 'widthPercent': 0.45, 'rescaleHeight': False, 'trialN': 41, 'loaded': True, 'loadedTime': 2276.399999856949, 'positionName': 'LEFT', 'positionCoords': [817.8, 514.5], 'bid': 5.51}, {'imgObject': {}, 'id': 'cantaloupe', 'src': '/static/foodstim60/cantaloupe.jpg', 'key': 'i', 'origWidth': 409, 'origHeight': 409, 'width': 409, 'height': 409, 'widthPercent': 0.45, 'rescaleHeight': False, 'trialN': 41, 'loaded': True, 'loadedTime': 2225.2000000476837, 'positionName': 'RIGHT', 'positionCoords': [1331.2, 515.5], 'bid': 6.12}]",53141.39999985695,1669836775987,blueberries,cantaloupe,5.51,6.12,0.6100000000000003,cantaloupe,873.4000000953674,874,874.2000000476837,True,i,54517.200000047684,1375.8000001907349,1669836777362,1375,HRV,HRV_0055,2022-11-30 19:35:38
42,"[{'imgObject': {}, 'id': 'mango', 'src': '/static/foodstim60/mango.jpg', 'key': 'u', 'origWidth': 411, 'origHeight': 411, 'width': 411, 'height': 411, 'widthPercent': 0.45, 'rescaleHeight': False, 'trialN': 42, 'loaded': True, 'loadedTime': 2213.5999999046326, 'positionName': 'LEFT', 'positionCoords': [817.8, 514.5], 'bid': 2.54}, {'imgObject': {}, 'id': 'kiwi', 'src': '/static/foodstim60/kiwi.jpg', 'key': 'i', 'origWidth': 410, 'origHeight': 410, 'width': 410, 'height': 410, 'widthPercent': 0.45, 'rescaleHeight': False, 'trialN': 42, 'loaded': True, 'loadedTime': 2352.2000000476837, 'positionName': 'RIGHT', 'positionCoords': [1331.2, 515], 'bid': 3.94}]",54517.39999985695,1669836777363,mango,kiwi,2.54,3.94,1.4,mango,721.6000001430511,722,722.2000000476837,True,u,55740.799999952316,1223.4000000953674,1669836778586,1223,HRV,HRV_0055,2022-11-30 19:35:38
43,"[{'imgObject': {}, 'id': 'lox', 'src': '/static/foodstim60/lox.jpg', 'key': 'u', 'origWidth': 410, 'origHeight': 411, 'width': 410, 'height': 411, 'widthPercent': 0.45, 'rescaleHeight': False, 'trialN': 43, 'loaded': True, 'loadedTime': 2144.899999856949, 'positionName': 'LEFT', 'positionCoords': [818.8, 514.5], 'bid': 6.29}, {'imgObject': {}, 'id': 'strawberries', 'src': '/static/foodstim60/strawberries.jpg', 'key': 'i', 'origWidth': 410, 'origHeight': 410, 'width': 410, 'height': 410, 'widthPercent': 0.45, 'rescaleHeight': False, 'trialN': 43, 'loaded': True, 'loadedTime': 2109.899999856949, 'positionName': 'RIGHT', 'positionCoords': [1331.2, 515], 'bid': 5.75}]",55741.09999990463,1669836778586,lox,strawberries,6.29,5.75,-0.54,strawberries,798.9000000953674,800,799.2999999523163,True,i,57045.09999990463,1304.0,1669836779890,1304,HRV,HRV_0055,2022-11-30 19:35:38
44,"[{'imgObject': {}, 'id': 'Grapes', 'src': '/static/foodstim60/Grapes.jpg', 'key': 'u', 'origWidth': 411, 'origHeight': 411, 'width': 411, 'height': 411, 'widthPercent': 0.45, 'rescaleHeight': False, 'trialN': 44, 'loaded': True, 'loadedTime': 2256.399999856949, 'positionName': 'LEFT', 'positionCoords': [817.8, 514.5], 'bid': 3.97}, {'imgObject': {}, 'id': 'roastedpotatoes', 'src': '/static/foodstim60/roastedpotatoes.jpg', 'key': 'i', 'origWidth': 409, 'origHeight': 410, 'width': 409, 'height': 410, 'widthPercent': 0.45, 'rescaleHeight': False, 'trialN': 44, 'loaded': True, 'loadedTime': 2228, 'positionName': 'RIGHT', 'positionCoords': [1331.2, 515], 'bid': 6.67}]",57045.299999952316,1669836779891,Grapes,roastedpotatoes,3.97,6.67,2.6999999999999997,roastedpotatoes,861.2999999523163,862,862.0,True,i,58412.200000047684,1366.9000000953674,1669836781257,1366,HRV,HRV_0055,2022-11-30 19:35:38
45,"[{'imgObject': {}, 'id': 'corn cob', 'src': '/static/foodstim60/corn cob.jpg', 'key': 'u', 'origWidth': 411, 'origHeight': 411, 'width': 411, 'height': 411, 'widthPercent': 0.45, 'rescaleHeight': False, 'trialN': 45, 'loaded': True, 'loadedTime': 2095.5, 'positionName': 'LEFT', 'positionCoords': [817.8, 514.5], 'bid': 5.75}, {'imgObject': {}, 'id': 'sushi w_condiments', 'src': '/static/foodstim60/sushi w_condiments.jpg', 'key': 'i', 'origWidth': 410, 'origHeight': 410, 'width': 410, 'height': 410, 'widthPercent': 0.45, 'rescaleHeight': False, 'trialN': 45, 'loaded': True, 'loadedTime': 2147, 'positionName': 'RIGHT', 'positionCoords': [1331.2, 515], 'bid': 5.79}]",58412.5,1669836781258,corn cob,sushi w_condiments,5.75,5.79,0.040000000000000036,corn cob,1622.0999999046326,1623,1622.7999999523163,True,u,60540.799999952316,2128.2999999523163,1669836783386,2128,HRV,HRV_0055,2022-11-30 19:35:38
46,"[{'imgObject': {}, 'id': 'fried eggs', 'src': '/static/foodstim60/fried eggs.jpg', 'key': 'u', 'origWidth': 410, 'origHeight': 410, 'width': 410, 'height': 410, 'widthPercent': 0.45, 'rescaleHeight': False, 'trialN': 46, 'loaded': True, 'loadedTime': 2252.2000000476837, 'positionName': 'LEFT', 'positionCoords': [818.8, 515], 'bid': 6.78}, {'imgObject': {}, 'id': 'burger', 'src': '/static/foodstim60/burger.jpg', 'key': 'i', 'origWidth': 409, 'origHeight': 409, 'width': 409, 'height': 409, 'widthPercent': 0.45, 'rescaleHeight': False, 'trialN': 46, 'loaded': True, 'loadedTime': 2362.2999999523163, 'positionName': 'RIGHT', 'positionCoords': [1331.2, 515.5], 'bid': 8.83}]",60541.0,1669836783386,fried eggs,burger,6.78,8.83,2.05,fried eggs,666.8999998569489,667,667.0999999046326,True,u,61717.0,1176.0,1669836784562,1176,HRV,HRV_0055,2022-11-30 19:35:38
47,"[{'imgObject': {}, 'id': 'bagel and cc', 'src': '/static/foodstim60/bagel and cc.jpg', 'key': 'u', 'origWidth': 410, 'origHeight': 410, 'width': 410, 'height': 410, 'widthPercent': 0.45, 'rescaleHeight': False, 'trialN': 47, 'loaded': True, 'loadedTime': 2149.0999999046326, 'positionName': 'LEFT', 'positionCoords': [818.8, 515], 'bid': 3.78}, {'imgObject': {}, 'id': 'burrito', 'src': '/static/foodstim60/burrito.jpg', 'key': 'i', 'origWidth': 410, 'origHeight': 410, 'width': 410, 'height': 410, 'widthPercent': 0.45, 'rescaleHeight': False, 'trialN': 47, 'loaded': True, 'loadedTime': 2254.5, 'positionName': 'RIGHT', 'positionCoords': [1331.2, 515], 'bid': 3.01}]",61717.299999952316,1669836784562,bagel and cc,burrito,3.78,3.01,-0.77,bagel and cc,1091.7999999523163,1093,1092.5,True,u,63316.5,1599.2000000476837,1669836786162,1600,HRV,HRV_0055,2022-11-30 19:35:38
48,"[{'imgObject': {}, 'id': 'burger', 'src': '/static/foodstim60/burger.jpg', 'key': 'u', 'origWidth': 409, 'origHeight': 409, 'width': 409, 'height': 409, 'widthPercent': 0.45, 'rescaleHeight': False, 'trialN': 48, 'loaded': True, 'loadedTime': 2362.399999856949, 'positionName': 'LEFT', 'positionCoords': [819.8, 515.5], 'bid': 8.83}, {'imgObject': {}, 'id': 'cheerios', 'src': '/static/foodstim60/cheerios.jpg', 'key': 'i', 'origWidth': 409, 'origHeight': 410, 'width': 409, 'height': 410, 'widthPercent': 0.45, 'rescaleHeight': False, 'trialN': 48, 'loaded': True, 'loadedTime': 2262, 'positionName': 'RIGHT', 'positionCoords': [1331.2, 515], 'bid': 6.3500000000000005}]",63316.59999990463,1669836786162,burger,cheerios,8.83,6.3500000000000005,-2.4799999999999995,burger,535.7999999523163,536,536.4000000953674,True,u,64356.299999952316,1039.7000000476837,1669836787202,1040,HRV,HRV_0055,2022-11-30 19:35:38
49,"[{'imgObject': {}, 'id': 'bagel plain', 'src': '/static/foodstim60/bagel plain.jpg', 'key': 'u', 'origWidth': 410, 'origHeight': 410, 'width': 410, 'height': 410, 'widthPercent': 0.45, 'rescaleHeight': False, 'trialN': 49, 'loaded': True, 'loadedTime': 2227.0999999046326, 'positionName': 'LEFT', 'positionCoords': [818.8, 515], 'bid': 3.6}, {'imgObject': {}, 'id': 'veggieswithdip', 'src': '/static/foodstim60/veggieswithdip.jpg', 'key': 'i', 'origWidth': 409, 'origHeight': 409, 'width': 409, 'height': 409, 'widthPercent': 0.45, 'rescaleHeight': False, 'trialN': 49, 'loaded': True, 'loadedTime': 2363.2999999523163, 'positionName': 'RIGHT', 'positionCoords': [1331.2, 515.5], 'bid': 5.44}]",64356.59999990463,1669836787202,bagel plain,veggieswithdip,3.6,5.44,1.8400000000000003,bagel plain,609.7000000476837,610,610.1000001430511,True,u,65468.700000047684,1112.1000001430511,1669836788314,1112,HRV,HRV_0055,2022-11-30 19:35:38
50,"[{'imgObject': {}, 'id': 'blueberries', 'src': '/static/foodstim60/blueberries.jpg', 'key': 'u', 'origWidth': 411, 'origHeight': 411, 'width': 411, 'height': 411, 'widthPercent': 0.45, 'rescaleHeight': False, 'trialN': 50, 'loaded': True, 'loadedTime': 2276.399999856949, 'positionName': 'LEFT', 'positionCoords': [817.8, 514.5], 'bid': 5.51}, {'imgObject': {}, 'id': 'fruitsalad', 'src': '/static/foodstim60/fruitsalad.jpg', 'key': 'i', 'origWidth': 410, 'origHeight': 410, 'width': 410, 'height': 410, 'widthPercent': 0.45, 'rescaleHeight': False, 'trialN': 50, 'loaded': True, 'loadedTime': 2364.2000000476837, 'positionName': 'RIGHT', 'positionCoords': [1331.2, 515], 'bid': 8.31}]",65469.0,1669836788314,blueberries,fruitsalad,5.51,8.31,2.8000000000000007,fruitsalad,611.7000000476837,613,612.3999998569489,True,i,66588.70000004768,1119.7000000476837,1669836789434,1120,HRV,HRV_0055,2022-11-30 19:35:38
51,"[{'imgObject': {}, 'id': 'eggsalad', 'src': '/static/foodstim60/eggsalad.jpg', 'key': 'u', 'origWidth': 410, 'origHeight': 409, 'width': 410, 'height': 409, 'widthPercent': 0.45, 'rescaleHeight': False, 'trialN': 51, 'loaded': True, 'loadedTime': 2337.7000000476837, 'positionName': 'LEFT', 'positionCoords': [818.8, 515.5], 'bid': 6.2700000000000005}, {'imgObject': {}, 'id': 'rigatoni and sauce', 'src': '/static/foodstim60/rigatoni and sauce.jpg', 'key': 'i', 'origWidth': 410, 'origHeight': 411, 'width': 410, 'height': 411, 'widthPercent': 0.45, 'rescaleHeight': False, 'trialN': 51, 'loaded': True, 'loadedTime': 2272.5, 'positionName': 'RIGHT', 'positionCoords': [1331.2, 514.5], 'bid': 7.72}]",66588.89999985695,1669836789434,eggsalad,rigatoni and sauce,6.2700000000000005,7.72,1.4499999999999993,rigatoni and sauce,523.7000000476837,525,524.5,True,i,67620.5,1031.6000001430511,1669836790466,1032,HRV,HRV_0055,2022-11-30 19:35:38
52,"[{'imgObject': {}, 'id': 'seaweed', 'src': '/static/foodstim60/seaweed.jpg', 'key': 'u', 'origWidth': 410, 'origHeight': 410, 'width': 410, 'height': 410, 'widthPercent': 0.45, 'rescaleHeight': False, 'trialN': 52, 'loaded': True, 'loadedTime': 2148.2999999523163, 'positionName': 'LEFT', 'positionCoords': [818.8, 515], 'bid': 0.48}, {'imgObject': {}, 'id': 'olives', 'src': '/static/foodstim60/olives.jpg', 'key': 'i', 'origWidth': 410, 'origHeight': 410, 'width': 410, 'height': 410, 'widthPercent': 0.45, 'rescaleHeight': False, 'trialN': 52, 'loaded': True, 'loadedTime': 2156.7000000476837, 'positionName': 'RIGHT', 'positionCoords': [1331.2, 515], 'bid': 3.99}]",67620.79999995232,1669836790466,seaweed,olives,0.48,3.99,3.5100000000000002,olives,637.4000000953674,638,637.9000000953674,True,i,68764.39999985695,1143.5999999046326,1669836791610,1144,HRV,HRV_0055,2022-11-30 19:35:38
53,"[{'imgObject': {}, 'id': 'luckycharms', 'src': '/static/foodstim60/luckycharms.jpg', 'key': 'u', 'origWidth': 410, 'origHeight': 409, 'width': 410, 'height': 409, 'widthPercent': 0.45, 'rescaleHeight': False, 'trialN': 53, 'loaded': True, 'loadedTime': 2268.2000000476837, 'positionName': 'LEFT', 'positionCoords': [818.8, 515.5], 'bid': 5.87}, {'imgObject': {}, 'id': 'sweetpotato', 'src': '/static/foodstim60/sweetpotato.jpg', 'key': 'i', 'origWidth': 410, 'origHeight': 410, 'width': 410, 'height': 410, 'widthPercent': 0.45, 'rescaleHeight': False, 'trialN': 53, 'loaded': True, 'loadedTime': 2278.5, 'positionName': 'RIGHT', 'positionCoords': [1331.2, 515], 'bid': 5.57}]",68764.5,1669836791610,luckycharms,sweetpotato,5.87,5.57,-0.2999999999999998,luckycharms,798.2000000476837,799,799.0,True,u,70068.79999995232,1304.2999999523163,1669836792914,1304,HRV,HRV_0055,2022-11-30 19:35:38
54,"[{'imgObject': {}, 'id': 'bagel plain', 'src': '/static/foodstim60/bagel plain.jpg', 'key': 'u', 'origWidth': 410, 'origHeight': 410, 'width': 410, 'height': 410, 'widthPercent': 0.45, 'rescaleHeight': False, 'trialN': 54, 'loaded': True, 'loadedTime': 2226.399999856949, 'positionName': 'LEFT', 'positionCoords': [818.8, 515], 'bid': 3.6}, {'imgObject': {}, 'id': 'hotdog w must', 'src': '/static/foodstim60/hotdog w must.jpg', 'key': 'i', 'origWidth': 409, 'origHeight': 409, 'width': 409, 'height': 409, 'widthPercent': 0.45, 'rescaleHeight': False, 'trialN': 54, 'loaded': True, 'loadedTime': 2365.5, 'positionName': 'RIGHT', 'positionCoords': [1331.2, 515.5], 'bid': 3.6}]",70069.09999990463,1669836792914,bagel plain,hotdog w must,3.6,3.6,0.0,bagel plain,861.6000001430511,863,862.2999999523163,True,u,71436.89999985695,1367.7999999523163,1669836794282,1368,HRV,HRV_0055,2022-11-30 19:35:38
55,"[{'imgObject': {}, 'id': 'bagel and cc', 'src': '/static/foodstim60/bagel and cc.jpg', 'key': 'u', 'origWidth': 410, 'origHeight': 410, 'width': 410, 'height': 410, 'widthPercent': 0.45, 'rescaleHeight': False, 'trialN': 55, 'loaded': True, 'loadedTime': 2149.2000000476837, 'positionName': 'LEFT', 'positionCoords': [818.8, 515], 'bid': 3.78}, {'imgObject': {}, 'id': 'raspberries', 'src': '/static/foodstim60/raspberries.jpg', 'key': 'i', 'origWidth': 411, 'origHeight': 411, 'width': 411, 'height': 411, 'widthPercent': 0.45, 'rescaleHeight': False, 'trialN': 55, 'loaded': True, 'loadedTime': 2350, 'positionName': 'RIGHT', 'positionCoords': [1331.2, 514.5], 'bid': 3.89}]",71437.09999990463,1669836794282,bagel and cc,raspberries,3.78,3.89,0.11000000000000032,bagel and cc,597.6000001430511,599,598.2999999523163,True,u,72541.0,1103.9000000953674,1669836795386,1104,HRV,HRV_0055,2022-11-30 19:35:38
56,"[{'imgObject': {}, 'id': 'rigatoni', 'src': '/static/foodstim60/rigatoni.jpg', 'key': 'u', 'origWidth': 411, 'origHeight': 411, 'width': 411, 'height': 411, 'widthPercent': 0.45, 'rescaleHeight': False, 'trialN': 56, 'loaded': True, 'loadedTime': 2366.399999856949, 'positionName': 'LEFT', 'positionCoords': [817.8, 514.5], 'bid': 5.61}, {'imgObject': {}, 'id': 'eggsalad', 'src': '/static/foodstim60/eggsalad.jpg', 'key': 'i', 'origWidth': 410, 'origHeight': 409, 'width': 410, 'height': 409, 'widthPercent': 0.45, 'rescaleHeight': False, 'trialN': 56, 'loaded': True, 'loadedTime': 2326.5999999046326, 'positionName': 'RIGHT', 'positionCoords': [1331.2, 515.5], 'bid': 6.2700000000000005}]",72541.29999995232,1669836795386,rigatoni,eggsalad,5.61,6.2700000000000005,0.6600000000000001,eggsalad,889.0999999046326,890,889.5,True,i,73932.09999990463,1390.7999999523163,1669836796777,1391,HRV,HRV_0055,2022-11-30 19:35:38
57,"[{'imgObject': {}, 'id': 'chicken nuggets2', 'src': '/static/foodstim60/chicken nuggets2.jpg', 'key': 'u', 'origWidth': 410, 'origHeight': 409, 'width': 410, 'height': 409, 'widthPercent': 0.45, 'rescaleHeight': False, 'trialN': 57, 'loaded': True, 'loadedTime': 2220, 'positionName': 'LEFT', 'positionCoords': [818.8, 515.5], 'bid': 4.05}, {'imgObject': {}, 'id': 'cherries', 'src': '/static/foodstim60/cherries.jpg', 'key': 'i', 'origWidth': 410, 'origHeight': 411, 'width': 410, 'height': 411, 'widthPercent': 0.45, 'rescaleHeight': False, 'trialN': 57, 'loaded': True, 'loadedTime': 2294.2999999523163, 'positionName': 'RIGHT', 'positionCoords': [1331.2, 514.5], 'bid': 4.14}]",73932.39999985695,1669836796778,chicken nuggets2,cherries,4.05,4.14,0.08999999999999986,chicken nuggets2,859.6000001430511,860,860.0,True,u,75300.39999985695,1368.0,1669836798146,1368,HRV,HRV_0055,2022-11-30 19:35:38
58,"[{'imgObject': {}, 'id': 'salmon', 'src': '/static/foodstim60/salmon.jpg', 'key': 'u', 'origWidth': 410, 'origHeight': 409, 'width': 410, 'height': 409, 'widthPercent': 0.45, 'rescaleHeight': False, 'trialN': 58, 'loaded': True, 'loadedTime': 2142.0999999046326, 'positionName': 'LEFT', 'positionCoords': [818.8, 515.5], 'bid': 6.28}, {'imgObject': {}, 'id': 'omelette', 'src': '/static/foodstim60/omelette.jpg', 'key': 'i', 'origWidth': 410, 'origHeight': 409, 'width': 410, 'height': 409, 'widthPercent': 0.45, 'rescaleHeight': False, 'trialN': 58, 'loaded': True, 'loadedTime': 2226.0999999046326, 'positionName': 'RIGHT', 'positionCoords': [1331.2, 515.5], 'bid': 6.12}]",75300.59999990463,1669836798146,salmon,omelette,6.28,6.12,-0.16000000000000014,salmon,708.1000001430511,708,708.7000000476837,True,u,76516.59999990463,1216.0,1669836799362,1216,HRV,HRV_0055,2022-11-30 19:35:38
59,"[{'imgObject': {}, 'id': 'pear', 'src': '/static/foodstim60/pear.jpg', 'key': 'u', 'origWidth': 411, 'origHeight': 410, 'width': 411, 'height': 410, 'widthPercent': 0.45, 'rescaleHeight': False, 'trialN': 59, 'loaded': True, 'loadedTime': 2209.399999856949, 'positionName': 'LEFT', 'positionCoords': [817.8, 515], 'bid': 5.46}, {'imgObject': {}, 'id': 'hotdog w must', 'src': '/static/foodstim60/hotdog w must.jpg', 'key': 'i', 'origWidth': 409, 'origHeight': 409, 'width': 409, 'height': 409, 'widthPercent': 0.45, 'rescaleHeight': False, 'trialN': 59, 'loaded': True, 'loadedTime': 2365.5, 'positionName': 'RIGHT', 'positionCoords': [1331.2, 515.5], 'bid': 3.6}]",76516.79999995232,1669836799362,pear,hotdog w must,5.46,3.6,-1.8599999999999999,pear,1013.0999999046326,1013,1013.4000000953674,True,u,78036.59999990463,1519.7999999523163,1669836800882,1520,HRV,HRV_0055,2022-11-30 19:35:38
60,"[{'imgObject': {}, 'id': 'veggieswithdip', 'src': '/static/foodstim60/veggieswithdip.jpg', 'key': 'u', 'origWidth': 409, 'origHeight': 409, 'width': 409, 'height': 409, 'widthPercent': 0.45, 'rescaleHeight': False, 'trialN': 60, 'loaded': True, 'loadedTime': 2363.399999856949, 'positionName': 'LEFT', 'positionCoords': [819.8, 515.5], 'bid': 5.44}, {'imgObject': {}, 'id': 'orange slices', 'src': '/static/foodstim60/orange slices.jpg', 'key': 'i', 'origWidth': 409, 'origHeight': 410, 'width': 409, 'height': 410, 'widthPercent': 0.45, 'rescaleHeight': False, 'trialN': 60, 'loaded': True, 'loadedTime': 2211.0999999046326, 'positionName': 'RIGHT', 'positionCoords': [1331.2, 515], 'bid': 4.75}]",78036.89999985695,1669836800882,veggieswithdip,orange slices,5.44,4.75,-0.6900000000000004,veggieswithdip,925.6000001430511,926,926.4000000953674,True,u,79468.20000004768,1431.3000001907349,1669836802313,1431,HRV,HRV_0055,2022-11-30 19:35:38
61,"[{'imgObject': {}, 'id': 'steak', 'src': '/static/foodstim60/steak.jpg', 'key': 'u', 'origWidth': 410, 'origHeight': 410, 'width': 410, 'height': 410, 'widthPercent': 0.45, 'rescaleHeight': False, 'trialN': 61, 'loaded': True, 'loadedTime': 2150.5, 'positionName': 'LEFT', 'positionCoords': [818.8, 515], 'bid': 9.31}, {'imgObject': {}, 'id': 'burger', 'src': '/static/foodstim60/burger.jpg', 'key': 'i', 'origWidth': 409, 'origHeight': 409, 'width': 409, 'height': 409, 'widthPercent': 0.45, 'rescaleHeight': False, 'trialN': 61, 'loaded': True, 'loadedTime': 2362.5999999046326, 'positionName': 'RIGHT', 'positionCoords': [1331.2, 515.5], 'bid': 8.83}]",79468.20000004768,1669836802313,steak,burger,9.31,8.83,-0.4800000000000004,steak,876.5,877,877.0999999046326,True,u,80853.0,1384.7999999523163,1669836803698,1385,HRV,HRV_0055,2022-11-30 19:35:38
62,"[{'imgObject': {}, 'id': 'seaweed', 'src': '/static/foodstim60/seaweed.jpg', 'key': 'u', 'origWidth': 410, 'origHeight': 410, 'width': 410, 'height': 410, 'widthPercent': 0.45, 'rescaleHeight': False, 'trialN': 62, 'loaded': True, 'loadedTime': 2148.2999999523163, 'positionName': 'LEFT', 'positionCoords': [818.8, 515], 'bid': 0.48}, {'imgObject': {}, 'id': 'edamame', 'src': '/static/foodstim60/edamame.jpg', 'key': 'i', 'origWidth': 409, 'origHeight': 410, 'width': 409, 'height': 410, 'widthPercent': 0.45, 'rescaleHeight': False, 'trialN': 62, 'loaded': True, 'loadedTime': 2313.0999999046326, 'positionName': 'RIGHT', 'positionCoords': [1331.2, 515], 'bid': 1.97}]",80853.09999990463,1669836803698,seaweed,edamame,0.48,1.97,1.49,edamame,665.5,667,666.2999999523163,True,i,82020.39999985695,1167.2999999523163,1669836804866,1168,HRV,HRV_0055,2022-11-30 19:35:38
63,"[{'imgObject': {}, 'id': 'seaweed', 'src': '/static/foodstim60/seaweed.jpg', 'key': 'u', 'origWidth': 410, 'origHeight': 410, 'width': 410, 'height': 410, 'widthPercent': 0.45, 'rescaleHeight': False, 'trialN': 63, 'loaded': True, 'loadedTime': 2147.0999999046326, 'positionName': 'LEFT', 'positionCoords': [818.8, 515], 'bid': 0.48}, {'imgObject': {}, 'id': 'bagel plain', 'src': '/static/foodstim60/bagel plain.jpg', 'key': 'i', 'origWidth': 410, 'origHeight': 410, 'width': 410, 'height': 410, 'widthPercent': 0.45, 'rescaleHeight': False, 'trialN': 63, 'loaded': True, 'loadedTime': 2227.2000000476837, 'positionName': 'RIGHT', 'positionCoords': [1331.2, 515], 'bid': 3.6}]",82020.59999990463,1669836804866,seaweed,bagel plain,0.48,3.6,3.12,bagel plain,606.5,607,607.0,True,i,83132.79999995232,1112.2000000476837,1669836805978,1112,HRV,HRV_0055,2022-11-30 19:35:38
64,"[{'imgObject': {}, 'id': 'olives', 'src': '/static/foodstim60/olives.jpg', 'key': 'u', 'origWidth': 410, 'origHeight': 410, 'width': 410, 'height': 410, 'widthPercent': 0.45, 'rescaleHeight': False, 'trialN': 64, 'loaded': True, 'loadedTime': 2157.0999999046326, 'positionName': 'LEFT', 'positionCoords': [818.8, 515], 'bid': 3.99}, {'imgObject': {}, 'id': 'Grapes', 'src': '/static/foodstim60/Grapes.jpg', 'key': 'i', 'origWidth': 411, 'origHeight': 411, 'width': 411, 'height': 411, 'widthPercent': 0.45, 'rescaleHeight': False, 'trialN': 64, 'loaded': True, 'loadedTime': 2255.899999856949, 'positionName': 'RIGHT', 'positionCoords': [1331.2, 514.5], 'bid': 3.97}]",83133.0,1669836805978,olives,Grapes,3.99,3.97,-0.020000000000000018,olives,776.0,777,776.7000000476837,True,u,84412.79999995232,1279.7999999523163,1669836807258,1280,HRV,HRV_0055,2022-11-30 19:35:38
65,"[{'imgObject': {}, 'id': 'turkey sandwich', 'src': '/static/foodstim60/turkey sandwich.jpg', 'key': 'u', 'origWidth': 409, 'origHeight': 409, 'width': 409, 'height': 409, 'widthPercent': 0.45, 'rescaleHeight': False, 'trialN': 65, 'loaded': True, 'loadedTime': 2282.2999999523163, 'positionName': 'LEFT', 'positionCoords': [819.8, 515.5], 'bid': 8.48}, {'imgObject': {}, 'id': 'eggs', 'src': '/static/foodstim60/eggs.jpg', 'key': 'i', 'origWidth': 409, 'origHeight': 409, 'width': 409, 'height': 409, 'widthPercent': 0.45, 'rescaleHeight': False, 'trialN': 65, 'loaded': True, 'loadedTime': 2367.0999999046326, 'positionName': 'RIGHT', 'positionCoords': [1331.2, 515.5], 'bid': 6.32}]",84413.09999990463,1669836807258,turkey sandwich,eggs,8.48,6.32,-2.16,turkey sandwich,739.2999999523163,740,739.9000000953674,True,u,85660.89999985695,1247.7999999523163,1669836808506,1248,HRV,HRV_0055,2022-11-30 19:35:38
66,"[{'imgObject': {}, 'id': 'edamame', 'src': '/static/foodstim60/edamame.jpg', 'key': 'u', 'origWidth': 409, 'origHeight': 410, 'width': 409, 'height': 410, 'widthPercent': 0.45, 'rescaleHeight': False, 'trialN': 66, 'loaded': True, 'loadedTime': 2313.7999999523163, 'positionName': 'LEFT', 'positionCoords': [819.8, 515], 'bid': 1.97}, {'imgObject': {}, 'id': 'raspberries', 'src': '/static/foodstim60/raspberries.jpg', 'key': 'i', 'origWidth': 411, 'origHeight': 411, 'width': 411, 'height': 411, 'widthPercent': 0.45, 'rescaleHeight': False, 'trialN': 66, 'loaded': True, 'loadedTime': 2350.0999999046326, 'positionName': 'RIGHT', 'positionCoords': [1331.2, 514.5], 'bid': 3.89}]",85661.20000004768,1669836808506,edamame,raspberries,1.97,3.89,1.9200000000000002,raspberries,709.5,711,710.0999999046326,True,i,86877.0,1215.7999999523163,1669836809722,1216,HRV,HRV_0055,2022-11-30 19:35:38
67,"[{'imgObject': {}, 'id': 'tacos', 'src': '/static/foodstim60/tacos.jpg', 'key': 'u', 'origWidth': 411, 'origHeight': 411, 'width': 411, 'height': 411, 'widthPercent': 0.45, 'rescaleHeight': False, 'trialN': 67, 'loaded': True, 'loadedTime': 2154, 'positionName': 'LEFT', 'positionCoords': [817.8, 514.5], 'bid': 6.78}, {'imgObject': {}, 'id': 'chicken nuggets2', 'src': '/static/foodstim60/chicken nuggets2.jpg', 'key': 'i', 'origWidth': 410, 'origHeight': 409, 'width': 410, 'height': 409, 'widthPercent': 0.45, 'rescaleHeight': False, 'trialN': 67, 'loaded': True, 'loadedTime': 2220.2999999523163, 'positionName': 'RIGHT', 'positionCoords': [1331.2, 515.5], 'bid': 4.05}]",86877.20000004768,1669836809722,tacos,chicken nuggets2,6.78,4.05,-2.7300000000000004,chicken nuggets2,741.5,743,742.1999998092651,True,i,88124.20000004768,1247.0,1669836810969,1247,HRV,HRV_0055,2022-11-30 19:35:38
68,"[{'imgObject': {}, 'id': 'apple slices', 'src': '/static/foodstim60/apple slices.jpg', 'key': 'u', 'origWidth': 409, 'origHeight': 410, 'width': 409, 'height': 410, 'widthPercent': 0.45, 'rescaleHeight': False, 'trialN': 68, 'loaded': True, 'loadedTime': 2268.7000000476837, 'positionName': 'LEFT', 'positionCoords': [819.8, 515], 'bid': 5.79}, {'imgObject': {}, 'id': 'tacos', 'src': '/static/foodstim60/tacos.jpg', 'key': 'i', 'origWidth': 411, 'origHeight': 411, 'width': 411, 'height': 411, 'widthPercent': 0.45, 'rescaleHeight': False, 'trialN': 68, 'loaded': True, 'loadedTime': 2153.2000000476837, 'positionName': 'RIGHT', 'positionCoords': [1331.2, 514.5], 'bid': 6.78}]",88124.39999985695,1669836810970,apple slices,tacos,5.79,6.78,0.9900000000000002,tacos,651.6000001430511,651,651.9000000953674,True,i,89276.79999995232,1152.4000000953674,1669836812122,1152,HRV,HRV_0055,2022-11-30 19:35:38
69,"[{'imgObject': {}, 'id': 'salad w chicken', 'src': '/static/foodstim60/salad w chicken.jpg', 'key': 'u', 'origWidth': 411, 'origHeight': 411, 'width': 411, 'height': 411, 'widthPercent': 0.45, 'rescaleHeight': False, 'trialN': 69, 'loaded': True, 'loadedTime': 2273.899999856949, 'positionName': 'LEFT', 'positionCoords': [817.8, 514.5], 'bid': 6.8500000000000005}, {'imgObject': {}, 'id': 'granola w milk', 'src': '/static/foodstim60/granola w milk.jpg', 'key': 'i', 'origWidth': 410, 'origHeight': 410, 'width': 410, 'height': 410, 'widthPercent': 0.45, 'rescaleHeight': False, 'trialN': 69, 'loaded': True, 'loadedTime': 2367.7999999523163, 'positionName': 'RIGHT', 'positionCoords': [1331.2, 515], 'bid': 5.88}]",89276.89999985695,1669836812122,salad w chicken,granola w milk,6.8500000000000005,5.88,-0.9700000000000006,salad w chicken,591.7000000476837,592,592.3000001907349,True,u,90372.0,1095.1000001430511,1669836813217,1095,HRV,HRV_0055,2022-11-30 19:35:38
70,"[{'imgObject': {}, 'id': 'salad w chicken', 'src': '/static/foodstim60/salad w chicken.jpg', 'key': 'u', 'origWidth': 411, 'origHeight': 411, 'width': 411, 'height': 411, 'widthPercent': 0.45, 'rescaleHeight': False, 'trialN': 70, 'loaded': True, 'loadedTime': 2273.7999999523163, 'positionName': 'LEFT', 'positionCoords': [817.8, 514.5], 'bid': 6.8500000000000005}, {'imgObject': {}, 'id': 'mac & cheese', 'src': '/static/foodstim60/mac & cheese.jpg', 'key': 'i', 'origWidth': 410, 'origHeight': 410, 'width': 410, 'height': 410, 'widthPercent': 0.45, 'rescaleHeight': False, 'trialN': 70, 'loaded': True, 'loadedTime': 2256.5999999046326, 'positionName': 'RIGHT', 'positionCoords': [1331.2, 515], 'bid': 9.19}]",90372.29999995232,1669836813217,salad w chicken,mac & cheese,6.8500000000000005,9.19,2.339999999999999,mac & cheese,515.9000000953674,517,516.0,True,i,91396.70000004768,1024.4000000953674,1669836814242,1025,HRV,HRV_0055,2022-11-30 19:35:38
71,"[{'imgObject': {}, 'id': 'corn cob', 'src': '/static/foodstim60/corn cob.jpg', 'key': 'u', 'origWidth': 411, 'origHeight': 411, 'width': 411, 'height': 411, 'widthPercent': 0.45, 'rescaleHeight': False, 'trialN': 71, 'loaded': True, 'loadedTime': 2092.7000000476837, 'positionName': 'LEFT', 'positionCoords': [817.8, 514.5], 'bid': 5.75}, {'imgObject': {}, 'id': 'salmon', 'src': '/static/foodstim60/salmon.jpg', 'key': 'i', 'origWidth': 410, 'origHeight': 409, 'width': 410, 'height': 409, 'widthPercent': 0.45, 'rescaleHeight': False, 'trialN': 71, 'loaded': True, 'loadedTime': 2124.899999856949, 'positionName': 'RIGHT', 'positionCoords': [1331.2, 515.5], 'bid': 6.28}]",91396.89999985695,1669836814242,corn cob,salmon,5.75,6.28,0.5300000000000002,corn cob,621.8000001907349,623,622.5,True,u,92525.29999995232,1128.4000000953674,1669836815370,1128,HRV,HRV_0055,2022-11-30 19:35:38
72,"[{'imgObject': {}, 'id': 'corn cob', 'src': '/static/foodstim60/corn cob.jpg', 'key': 'u', 'origWidth': 411, 'origHeight': 411, 'width': 411, 'height': 411, 'widthPercent': 0.45, 'rescaleHeight': False, 'trialN': 72, 'loaded': True, 'loadedTime': 2095, 'positionName': 'LEFT', 'positionCoords': [817.8, 514.5], 'bid': 5.75}, {'imgObject': {}, 'id': 'yogurt no spoon', 'src': '/static/foodstim60/yogurt no spoon.jpg', 'key': 'i', 'origWidth': 411, 'origHeight': 410, 'width': 411, 'height': 410, 'widthPercent': 0.45, 'rescaleHeight': False, 'trialN': 72, 'loaded': True, 'loadedTime': 2350.2000000476837, 'positionName': 'RIGHT', 'positionCoords': [1331.2, 515], 'bid': 6.12}]",92525.59999990463,1669836815371,corn cob,yogurt no spoon,5.75,6.12,0.3700000000000001,yogurt no spoon,759.0,759,759.7000000476837,True,i,93788.29999995232,1262.7000000476837,1669836816633,1262,HRV,HRV_0055,2022-11-30 19:35:38
73,"[{'imgObject': {}, 'id': 'cocktailshrimp', 'src': '/static/foodstim60/cocktailshrimp.jpg', 'key': 'u', 'origWidth': 410, 'origHeight': 410, 'width': 410, 'height': 410, 'widthPercent': 0.45, 'rescaleHeight': False, 'trialN': 73, 'loaded': True, 'loadedTime': 2368.7000000476837, 'positionName': 'LEFT', 'positionCoords': [818.8, 515], 'bid': 3.61}, {'imgObject': {}, 'id': 'cherries', 'src': '/static/foodstim60/cherries.jpg', 'key': 'i', 'origWidth': 410, 'origHeight': 411, 'width': 410, 'height': 411, 'widthPercent': 0.45, 'rescaleHeight': False, 'trialN': 73, 'loaded': True, 'loadedTime': 2294.5, 'positionName': 'RIGHT', 'positionCoords': [1331.2, 514.5], 'bid': 4.14}]",93788.5,1669836816634,cocktailshrimp,cherries,3.61,4.14,0.5299999999999998,cocktailshrimp,926.3999998569489,927,927.2000000476837,True,u,95220.29999995232,1431.7999999523163,1669836818065,1431,HRV,HRV_0055,2022-11-30 19:35:38
74,"[{'imgObject': {}, 'id': 'salmon', 'src': '/static/foodstim60/salmon.jpg', 'key': 'u', 'origWidth': 410, 'origHeight': 409, 'width': 410, 'height': 409, 'widthPercent': 0.45, 'rescaleHeight': False, 'trialN': 74, 'loaded': True, 'loadedTime': 2125, 'positionName': 'LEFT', 'positionCoords': [818.8, 515.5], 'bid': 6.28}, {'imgObject': {}, 'id': 'cocktailshrimp', 'src': '/static/foodstim60/cocktailshrimp.jpg', 'key': 'i', 'origWidth': 410, 'origHeight': 410, 'width': 410, 'height': 410, 'widthPercent': 0.45, 'rescaleHeight': False, 'trialN': 74, 'loaded': True, 'loadedTime': 2368.5, 'positionName': 'RIGHT', 'positionCoords': [1331.2, 515], 'bid': 3.61}]",95220.59999990463,1669836818066,salmon,cocktailshrimp,6.28,3.61,-2.6700000000000004,salmon,584.0,585,584.7999999523163,True,u,96308.59999990463,1088.0,1669836819154,1088,HRV,HRV_0055,2022-11-30 19:35:38
75,"[{'imgObject': {}, 'id': 'banana', 'src': '/static/foodstim60/banana.jpg', 'key': 'u', 'origWidth': 410, 'origHeight': 410, 'width': 410, 'height': 410, 'widthPercent': 0.45, 'rescaleHeight': False, 'trialN': 75, 'loaded': True, 'loadedTime': 2153, 'positionName': 'LEFT', 'positionCoords': [818.8, 515], 'bid': 6.88}, {'imgObject': {}, 'id': 'salad w chicken', 'src': '/static/foodstim60/salad w chicken.jpg', 'key': 'i', 'origWidth': 411, 'origHeight': 411, 'width': 411, 'height': 411, 'widthPercent': 0.45, 'rescaleHeight': False, 'trialN': 75, 'loaded': True, 'loadedTime': 2273.899999856949, 'positionName': 'RIGHT', 'positionCoords': [1331.2, 514.5], 'bid': 6.8500000000000005}]",96308.59999990463,1669836819154,banana,salad w chicken,6.88,6.8500000000000005,-0.02999999999999936,banana,819.2000000476837,819,819.7000000476837,True,u,97636.29999995232,1327.7000000476837,1669836820481,1327,HRV,HRV_0055,2022-11-30 19:35:38
76,"[{'imgObject': {}, 'id': 'bagel and cc', 'src': '/static/foodstim60/bagel and cc.jpg', 'key': 'u', 'origWidth': 410, 'origHeight': 410, 'width': 410, 'height': 410, 'widthPercent': 0.45, 'rescaleHeight': False, 'trialN': 76, 'loaded': True, 'loadedTime': 2149.2999999523163, 'positionName': 'LEFT', 'positionCoords': [818.8, 515], 'bid': 3.78}, {'imgObject': {}, 'id': 'ice cream sundae 002', 'src': '/static/foodstim60/ice cream sundae 002.jpg', 'key': 'i', 'origWidth': 409, 'origHeight': 409, 'width': 409, 'height': 409, 'widthPercent': 0.45, 'rescaleHeight': False, 'trialN': 76, 'loaded': True, 'loadedTime': 2155.7000000476837, 'positionName': 'RIGHT', 'positionCoords': [1331.2, 515.5], 'bid': 6.32}]",97636.59999990463,1669836820482,bagel and cc,ice cream sundae 002,3.78,6.32,2.5400000000000005,bagel and cc,671.2000000476837,671,671.4000000953674,True,u,98812.09999990463,1175.5,1669836821657,1175,HRV,HRV_0055,2022-11-30 19:35:38
77,"[{'imgObject': {}, 'id': 'steak', 'src': '/static/foodstim60/steak.jpg', 'key': 'u', 'origWidth': 410, 'origHeight': 410, 'width': 410, 'height': 410, 'widthPercent': 0.45, 'rescaleHeight': False, 'trialN': 77, 'loaded': True, 'loadedTime': 2149.5, 'positionName': 'LEFT', 'positionCoords': [818.8, 515], 'bid': 9.31}, {'imgObject': {}, 'id': 'mac & cheese', 'src': '/static/foodstim60/mac & cheese.jpg', 'key': 'i', 'origWidth': 410, 'origHeight': 410, 'width': 410, 'height': 410, 'widthPercent': 0.45, 'rescaleHeight': False, 'trialN': 77, 'loaded': True, 'loadedTime': 2258.2000000476837, 'positionName': 'RIGHT', 'positionCoords': [1331.2, 515], 'bid': 9.19}]",98812.39999985695,1669836821658,steak,mac & cheese,9.31,9.19,-0.120000000000001,steak,660.3000001907349,661,660.9000000953674,True,u,99980.39999985695,1168.0,1669836822826,1168,HRV,HRV_0055,2022-11-30 19:35:38
78,"[{'imgObject': {}, 'id': 'fruitsalad', 'src': '/static/foodstim60/fruitsalad.jpg', 'key': 'u', 'origWidth': 410, 'origHeight': 410, 'width': 410, 'height': 410, 'widthPercent': 0.45, 'rescaleHeight': False, 'trialN': 78, 'loaded': True, 'loadedTime': 2364.5, 'positionName': 'LEFT', 'positionCoords': [818.8, 515], 'bid': 8.31}, {'imgObject': {}, 'id': 'mashed potato', 'src': '/static/foodstim60/mashed potato.jpg', 'key': 'i', 'origWidth': 409, 'origHeight': 409, 'width': 409, 'height': 409, 'widthPercent': 0.45, 'rescaleHeight': False, 'trialN': 78, 'loaded': True, 'loadedTime': 2291, 'positionName': 'RIGHT', 'positionCoords': [1331.2, 515.5], 'bid': 8.06}]",99980.59999990463,1669836822826,fruitsalad,mashed potato,8.31,8.06,-0.25,fruitsalad,584.0,584,584.7000000476837,True,u,101068.59999990463,1088.0,1669836823914,1088,HRV,HRV_0055,2022-11-30 19:35:38
79,"[{'imgObject': {}, 'id': 'froot loops w milk', 'src': '/static/foodstim60/froot loops w milk.jpg', 'key': 'u', 'origWidth': 410, 'origHeight': 410, 'width': 410, 'height': 410, 'widthPercent': 0.45, 'rescaleHeight': False, 'trialN': 79, 'loaded': True, 'loadedTime': 2285.5999999046326, 'positionName': 'LEFT', 'positionCoords': [818.8, 515], 'bid': 5.51}, {'imgObject': {}, 'id': 'sweetpotato', 'src': '/static/foodstim60/sweetpotato.jpg', 'key': 'i', 'origWidth': 410, 'origHeight': 410, 'width': 410, 'height': 410, 'widthPercent': 0.45, 'rescaleHeight': False, 'trialN': 79, 'loaded': True, 'loadedTime': 2276.7999999523163, 'positionName': 'RIGHT', 'positionCoords': [1331.2, 515], 'bid': 5.57}]",101069.0,1669836823914,froot loops w milk,sweetpotato,5.51,5.57,0.0600000000000005,froot loops w milk,847.5999999046326,848,848.2999999523163,True,u,102420.29999995232,1351.2999999523163,1669836825265,1351,HRV,HRV_0055,2022-11-30 19:35:38
80,"[{'imgObject': {}, 'id': 'blackbeanswithrice', 'src': '/static/foodstim60/blackbeanswithrice.jpg', 'key': 'u', 'origWidth': 410, 'origHeight': 410, 'width': 410, 'height': 410, 'widthPercent': 0.45, 'rescaleHeight': False, 'trialN': 80, 'loaded': True, 'loadedTime': 2186.2999999523163, 'positionName': 'LEFT', 'positionCoords': [818.8, 515], 'bid': 3.09}, {'imgObject': {}, 'id': 'raspberries', 'src': '/static/foodstim60/raspberries.jpg', 'key': 'i', 'origWidth': 411, 'origHeight': 411, 'width': 411, 'height': 411, 'widthPercent': 0.45, 'rescaleHeight': False, 'trialN': 80, 'loaded': True, 'loadedTime': 2349.5999999046326, 'positionName': 'RIGHT', 'positionCoords': [1331.2, 514.5], 'bid': 3.89}]",102420.5,1669836825266,blackbeanswithrice,raspberries,3.09,3.89,0.8000000000000003,raspberries,655.5,655,655.7000000476837,True,i,103580.70000004768,1160.2000000476837,1669836826426,1160,HRV,HRV_0055,2022-11-30 19:35:38
81,"[{'imgObject': {}, 'id': 'cherry tomato', 'src': '/static/foodstim60/cherry tomato.jpg', 'key': 'u', 'origWidth': 410, 'origHeight': 410, 'width': 410, 'height': 410, 'widthPercent': 0.45, 'rescaleHeight': False, 'trialN': 81, 'loaded': True, 'loadedTime': 2112.899999856949, 'positionName': 'LEFT', 'positionCoords': [818.8, 515], 'bid': 2.6}, {'imgObject': {}, 'id': 'mango', 'src': '/static/foodstim60/mango.jpg', 'key': 'i', 'origWidth': 411, 'origHeight': 411, 'width': 411, 'height': 411, 'widthPercent': 0.45, 'rescaleHeight': False, 'trialN': 81, 'loaded': True, 'loadedTime': 2215.2000000476837, 'positionName': 'RIGHT', 'positionCoords': [1331.2, 514.5], 'bid': 2.54}]",103581.0,1669836826426,cherry tomato,mango,2.6,2.54,-0.06000000000000005,mango,795.8999998569489,797,796.5999999046326,True,i,104884.89999985695,1303.8999998569489,1669836827730,1304,HRV,HRV_0055,2022-11-30 19:35:38
82,"[{'imgObject': {}, 'id': 'froot loops w milk', 'src': '/static/foodstim60/froot loops w milk.jpg', 'key': 'u', 'origWidth': 410, 'origHeight': 410, 'width': 410, 'height': 410, 'widthPercent': 0.45, 'rescaleHeight': False, 'trialN': 82, 'loaded': True, 'loadedTime': 2282.5, 'positionName': 'LEFT', 'positionCoords': [818.8, 515], 'bid': 5.51}, {'imgObject': {}, 'id': 'mashed potato', 'src': '/static/foodstim60/mashed potato.jpg', 'key': 'i', 'origWidth': 409, 'origHeight': 409, 'width': 409, 'height': 409, 'widthPercent': 0.45, 'rescaleHeight': False, 'trialN': 82, 'loaded': True, 'loadedTime': 2290.5, 'positionName': 'RIGHT', 'positionCoords': [1331.2, 515.5], 'bid': 8.06}]",104885.09999990463,1669836827730,froot loops w milk,mashed potato,5.51,8.06,2.5500000000000007,froot loops w milk,640.1000001430511,641,640.6000001430511,True,u,106028.0,1142.9000000953674,1669836828873,1143,HRV,HRV_0055,2022-11-30 19:35:38
83,"[{'imgObject': {}, 'id': 'sushi w_condiments', 'src': '/static/foodstim60/sushi w_condiments.jpg', 'key': 'u', 'origWidth': 410, 'origHeight': 410, 'width': 410, 'height': 410, 'widthPercent': 0.45, 'rescaleHeight': False, 'trialN': 83, 'loaded': True, 'loadedTime': 2146.7000000476837, 'positionName': 'LEFT', 'positionCoords': [818.8, 515], 'bid': 5.79}, {'imgObject': {}, 'id': 'orange slices', 'src': '/static/foodstim60/orange slices.jpg', 'key': 'i', 'origWidth': 409, 'origHeight': 410, 'width': 409, 'height': 410, 'widthPercent': 0.45, 'rescaleHeight': False, 'trialN': 83, 'loaded': True, 'loadedTime': 2213.2000000476837, 'positionName': 'RIGHT', 'positionCoords': [1331.2, 515], 'bid': 4.75}]",106028.29999995232,1669836828874,sushi w_condiments,orange slices,5.79,4.75,-1.04,sushi w_condiments,738.2999999523163,738,738.9000000953674,True,u,107268.89999985695,1240.5999999046326,1669836830114,1240,HRV,HRV_0055,2022-11-30 19:35:38
84,"[{'imgObject': {}, 'id': 'edamame', 'src': '/static/foodstim60/edamame.jpg', 'key': 'u', 'origWidth': 409, 'origHeight': 410, 'width': 409, 'height': 410, 'widthPercent': 0.45, 'rescaleHeight': False, 'trialN': 84, 'loaded': True, 'loadedTime': 2325.399999856949, 'positionName': 'LEFT', 'positionCoords': [819.8, 515], 'bid': 1.97}, {'imgObject': {}, 'id': 'hotdog w must', 'src': '/static/foodstim60/hotdog w must.jpg', 'key': 'i', 'origWidth': 409, 'origHeight': 409, 'width': 409, 'height': 409, 'widthPercent': 0.45, 'rescaleHeight': False, 'trialN': 84, 'loaded': True, 'loadedTime': 2365.2999999523163, 'positionName': 'RIGHT', 'positionCoords': [1331.2, 515.5], 'bid': 3.6}]",107269.09999990463,1669836830114,edamame,hotdog w must,1.97,3.6,1.6300000000000001,hotdog w must,653.2999999523163,654,653.7999999523163,True,i,108428.79999995232,1159.7000000476837,1669836831274,1160,HRV,HRV_0055,2022-11-30 19:35:38
85,"[{'imgObject': {}, 'id': 'apple slices', 'src': '/static/foodstim60/apple slices.jpg', 'key': 'u', 'origWidth': 409, 'origHeight': 410, 'width': 409, 'height': 410, 'widthPercent': 0.45, 'rescaleHeight': False, 'trialN': 85, 'loaded': True, 'loadedTime': 2269.5, 'positionName': 'LEFT', 'positionCoords': [819.8, 515], 'bid': 5.79}, {'imgObject': {}, 'id': 'strawberries', 'src': '/static/foodstim60/strawberries.jpg', 'key': 'i', 'origWidth': 410, 'origHeight': 410, 'width': 410, 'height': 410, 'widthPercent': 0.45, 'rescaleHeight': False, 'trialN': 85, 'loaded': True, 'loadedTime': 2109.7999999523163, 'positionName': 'RIGHT', 'positionCoords': [1331.2, 515], 'bid': 5.75}]",108429.09999990463,1669836831274,apple slices,strawberries,5.79,5.75,-0.040000000000000036,apple slices,557.6000001430511,558,558.1000001430511,True,u,109492.59999990463,1063.5,1669836832338,1064,HRV,HRV_0055,2022-11-30 19:35:38
86,"[{'imgObject': {}, 'id': 'turkey sandwich', 'src': '/static/foodstim60/turkey sandwich.jpg', 'key': 'u', 'origWidth': 409, 'origHeight': 409, 'width': 409, 'height': 409, 'widthPercent': 0.45, 'rescaleHeight': False, 'trialN': 86, 'loaded': True, 'loadedTime': 2282.399999856949, 'positionName': 'LEFT', 'positionCoords': [819.8, 515.5], 'bid': 8.48}, {'imgObject': {}, 'id': 'mac & cheese', 'src': '/static/foodstim60/mac & cheese.jpg', 'key': 'i', 'origWidth': 410, 'origHeight': 410, 'width': 410, 'height': 410, 'widthPercent': 0.45, 'rescaleHeight': False, 'trialN': 86, 'loaded': True, 'loadedTime': 2258.2999999523163, 'positionName': 'RIGHT', 'positionCoords': [1331.2, 515], 'bid': 9.19}]",109492.79999995232,1669836832338,turkey sandwich,mac & cheese,8.48,9.19,0.7099999999999991,turkey sandwich,542.0999999046326,542,542.2999999523163,True,u,110541.0,1048.2000000476837,1669836833386,1048,HRV,HRV_0055,2022-11-30 19:35:38
87,"[{'imgObject': {}, 'id': 'grilled chicken strips', 'src': '/static/foodstim60/grilled chicken strips.jpg', 'key': 'u', 'origWidth': 410, 'origHeight': 411, 'width': 410, 'height': 411, 'widthPercent': 0.45, 'rescaleHeight': False, 'trialN': 87, 'loaded': True, 'loadedTime': 2294.899999856949, 'positionName': 'LEFT', 'positionCoords': [818.8, 514.5], 'bid': 7.26}, {'imgObject': {}, 'id': 'veggieswithdip', 'src': '/static/foodstim60/veggieswithdip.jpg', 'key': 'i', 'origWidth': 409, 'origHeight': 409, 'width': 409, 'height': 409, 'widthPercent': 0.45, 'rescaleHeight': False, 'trialN': 87, 'loaded': True, 'loadedTime': 2363.399999856949, 'positionName': 'RIGHT', 'positionCoords': [1331.2, 515.5], 'bid': 5.44}]",110541.20000004768,1669836833386,grilled chicken strips,veggieswithdip,7.26,5.44,-1.8199999999999994,grilled chicken strips,596.7999999523163,598,597.2999999523163,True,u,111644.89999985695,1103.6999998092651,1669836834490,1104,HRV,HRV_0055,2022-11-30 19:35:38
88,"[{'imgObject': {}, 'id': 'banana', 'src': '/static/foodstim60/banana.jpg', 'key': 'u', 'origWidth': 410, 'origHeight': 410, 'width': 410, 'height': 410, 'widthPercent': 0.45, 'rescaleHeight': False, 'trialN': 88, 'loaded': True, 'loadedTime': 2152.5999999046326, 'positionName': 'LEFT', 'positionCoords': [818.8, 515], 'bid': 6.88}, {'imgObject': {}, 'id': 'fruitsalad', 'src': '/static/foodstim60/fruitsalad.jpg', 'key': 'i', 'origWidth': 410, 'origHeight': 410, 'width': 410, 'height': 410, 'widthPercent': 0.45, 'rescaleHeight': False, 'trialN': 88, 'loaded': True, 'loadedTime': 2364.5, 'positionName': 'RIGHT', 'positionCoords': [1331.2, 515], 'bid': 8.31}]",111645.0,1669836834490,banana,fruitsalad,6.88,8.31,1.4300000000000006,banana,474.0,475,474.5,True,u,112620.5,975.5,1669836835466,976,HRV,HRV_0055,2022-11-30 19:35:38
89,"[{'imgObject': {}, 'id': 'froot loops w milk', 'src': '/static/foodstim60/froot loops w milk.jpg', 'key': 'u', 'origWidth': 410, 'origHeight': 410, 'width': 410, 'height': 410, 'widthPercent': 0.45, 'rescaleHeight': False, 'trialN': 89, 'loaded': True, 'loadedTime': 2285.7000000476837, 'positionName': 'LEFT', 'positionCoords': [818.8, 515], 'bid': 5.51}, {'imgObject': {}, 'id': 'yogurt no spoon', 'src': '/static/foodstim60/yogurt no spoon.jpg', 'key': 'i', 'origWidth': 411, 'origHeight': 410, 'width': 411, 'height': 410, 'widthPercent': 0.45, 'rescaleHeight': False, 'trialN': 89, 'loaded': True, 'loadedTime': 2351.2999999523163, 'positionName': 'RIGHT', 'positionCoords': [1331.2, 515], 'bid': 6.12}]",112620.70000004768,1669836835466,froot loops w milk,yogurt no spoon,5.51,6.12,0.6100000000000003,froot loops w milk,526.0,526,526.2999999523163,True,u,113652.29999995232,1031.5999999046326,1669836836497,1031,HRV,HRV_0055,2022-11-30 19:35:38
90,"[{'imgObject': {}, 'id': 'orange slices', 'src': '/static/foodstim60/orange slices.jpg', 'key': 'u', 'origWidth': 409, 'origHeight': 410, 'width': 409, 'height': 410, 'widthPercent': 0.45, 'rescaleHeight': False, 'trialN': 90, 'loaded': True, 'loadedTime': 2213.2000000476837, 'positionName': 'LEFT', 'positionCoords': [819.8, 515], 'bid': 4.75}, {'imgObject': {}, 'id': 'Grapes', 'src': '/static/foodstim60/Grapes.jpg', 'key': 'i', 'origWidth': 411, 'origHeight': 411, 'width': 411, 'height': 411, 'widthPercent': 0.45, 'rescaleHeight': False, 'trialN': 90, 'loaded': True, 'loadedTime': 2256.399999856949, 'positionName': 'RIGHT', 'positionCoords': [1331.2, 514.5], 'bid': 3.97}]",116469.09999990463,1669836839314,orange slices,Grapes,4.75,3.97,-0.7799999999999998,orange slices,886.0,887,886.2999999523163,True,u,117860.09999990463,1391.0,1669836840705,1391,HRV,HRV_0055,2022-11-30 19:35:38
91,"[{'imgObject': {}, 'id': 'roastedpotatoes', 'src': '/static/foodstim60/roastedpotatoes.jpg', 'key': 'u', 'origWidth': 409, 'origHeight': 410, 'width': 409, 'height': 410, 'widthPercent': 0.45, 'rescaleHeight': False, 'trialN': 91, 'loaded': True, 'loadedTime': 2227.899999856949, 'positionName': 'LEFT', 'positionCoords': [819.8, 515], 'bid': 6.67}, {'imgObject': {}, 'id': 'salmon', 'src': '/static/foodstim60/salmon.jpg', 'key': 'i', 'origWidth': 410, 'origHeight': 409, 'width': 410, 'height': 409, 'widthPercent': 0.45, 'rescaleHeight': False, 'trialN': 91, 'loaded': True, 'loadedTime': 2122.399999856949, 'positionName': 'RIGHT', 'positionCoords': [1331.2, 515.5], 'bid': 6.28}]",117860.20000004768,1669836840705,roastedpotatoes,salmon,6.67,6.28,-0.3899999999999997,roastedpotatoes,573.3999998569489,575,574.0999999046326,True,u,118940.70000004768,1080.5,1669836841786,1081,HRV,HRV_0055,2022-11-30 19:35:38
92,"[{'imgObject': {}, 'id': 'turkeysandwich', 'src': '/static/foodstim60/turkeysandwich.jpg', 'key': 'u', 'origWidth': 409, 'origHeight': 409, 'width': 409, 'height': 409, 'widthPercent': 0.45, 'rescaleHeight': False, 'trialN': 92, 'loaded': True, 'loadedTime': 2222.7000000476837, 'positionName': 'LEFT', 'positionCoords': [819.8, 515.5], 'bid': 7.98}, {'imgObject': {}, 'id': 'salmon', 'src': '/static/foodstim60/salmon.jpg', 'key': 'i', 'origWidth': 410, 'origHeight': 409, 'width': 410, 'height': 409, 'widthPercent': 0.45, 'rescaleHeight': False, 'trialN': 92, 'loaded': True, 'loadedTime': 2142.899999856949, 'positionName': 'RIGHT', 'positionCoords': [1331.2, 515.5], 'bid': 6.28}]",118941.0,1669836841786,turkeysandwich,salmon,7.98,6.28,-1.7000000000000002,turkeysandwich,428.2999999523163,429,428.7000000476837,True,u,119876.70000004768,935.7000000476837,1669836842722,936,HRV,HRV_0055,2022-11-30 19:35:38
93,"[{'imgObject': {}, 'id': 'avocado', 'src': '/static/foodstim60/avocado.jpg', 'key': 'u', 'origWidth': 409, 'origHeight': 409, 'width': 409, 'height': 409, 'widthPercent': 0.45, 'rescaleHeight': False, 'trialN': 93, 'loaded': True, 'loadedTime': 2293.2999999523163, 'positionName': 'LEFT', 'positionCoords': [819.8, 515.5], 'bid': 4.32}, {'imgObject': {}, 'id': 'hashbrowns', 'src': '/static/foodstim60/hashbrowns.jpg', 'key': 'i', 'origWidth': 411, 'origHeight': 410, 'width': 411, 'height': 410, 'widthPercent': 0.45, 'rescaleHeight': False, 'trialN': 93, 'loaded': True, 'loadedTime': 2115.399999856949, 'positionName': 'RIGHT', 'positionCoords': [1331.2, 515], 'bid': 3.96}]",119877.0,1669836842722,avocado,hashbrowns,4.32,3.96,-0.3600000000000003,hashbrowns,572.5,574,573.2999999523163,True,i,120956.79999995232,1079.7999999523163,1669836843802,1080,HRV,HRV_0055,2022-11-30 19:35:38
94,"[{'imgObject': {}, 'id': 'yogurt no spoon', 'src': '/static/foodstim60/yogurt no spoon.jpg', 'key': 'u', 'origWidth': 411, 'origHeight': 410, 'width': 411, 'height': 410, 'widthPercent': 0.45, 'rescaleHeight': False, 'trialN': 94, 'loaded': True, 'loadedTime': 2351.2000000476837, 'positionName': 'LEFT', 'positionCoords': [817.8, 515], 'bid': 6.12}, {'imgObject': {}, 'id': 'burrito', 'src': '/static/foodstim60/burrito.jpg', 'key': 'i', 'origWidth': 410, 'origHeight': 410, 'width': 410, 'height': 410, 'widthPercent': 0.45, 'rescaleHeight': False, 'trialN': 94, 'loaded': True, 'loadedTime': 2254.5999999046326, 'positionName': 'RIGHT', 'positionCoords': [1331.2, 515], 'bid': 3.01}]",120957.0,1669836843802,yogurt no spoon,burrito,6.12,3.01,-3.1100000000000003,yogurt no spoon,796.7000000476837,798,797.2999999523163,True,u,122260.5,1303.5,1669836845106,1304,HRV,HRV_0055,2022-11-30 19:35:38
95,"[{'imgObject': {}, 'id': 'hashbrowns', 'src': '/static/foodstim60/hashbrowns.jpg', 'key': 'u', 'origWidth': 411, 'origHeight': 410, 'width': 411, 'height': 410, 'widthPercent': 0.45, 'rescaleHeight': False, 'trialN': 95, 'loaded': True, 'loadedTime': 2114.0999999046326, 'positionName': 'LEFT', 'positionCoords': [817.8, 515], 'bid': 3.96}, {'imgObject': {}, 'id': 'olives', 'src': '/static/foodstim60/olives.jpg', 'key': 'i', 'origWidth': 410, 'origHeight': 410, 'width': 410, 'height': 410, 'widthPercent': 0.45, 'rescaleHeight': False, 'trialN': 95, 'loaded': True, 'loadedTime': 2156.7999999523163, 'positionName': 'RIGHT', 'positionCoords': [1331.2, 515], 'bid': 3.99}]",122260.79999995232,1669836845106,hashbrowns,olives,3.96,3.99,0.03000000000000025,hashbrowns,436.7000000476837,438,437.5,True,u,123205.0,944.2000000476837,1669836846050,944,HRV,HRV_0055,2022-11-30 19:35:38
96,"[{'imgObject': {}, 'id': 'eggs', 'src': '/static/foodstim60/eggs.jpg', 'key': 'u', 'origWidth': 409, 'origHeight': 409, 'width': 409, 'height': 409, 'widthPercent': 0.45, 'rescaleHeight': False, 'trialN': 96, 'loaded': True, 'loadedTime': 2367.0999999046326, 'positionName': 'LEFT', 'positionCoords': [819.8, 515.5], 'bid': 6.32}, {'imgObject': {}, 'id': 'fried eggs', 'src': '/static/foodstim60/fried eggs.jpg', 'key': 'i', 'origWidth': 410, 'origHeight': 410, 'width': 410, 'height': 410, 'widthPercent': 0.45, 'rescaleHeight': False, 'trialN': 96, 'loaded': True, 'loadedTime': 2249.7000000476837, 'positionName': 'RIGHT', 'positionCoords': [1331.2, 515], 'bid': 6.78}]",123205.20000004768,1669836846050,eggs,fried eggs,6.32,6.78,0.45999999999999996,fried eggs,704.3999998569489,706,705.0999999046326,True,i,124412.5,1207.2999999523163,1669836847258,1208,HRV,HRV_0055,2022-11-30 19:35:38
97,"[{'imgObject': {}, 'id': 'bagel plain', 'src': '/static/foodstim60/bagel plain.jpg', 'key': 'u', 'origWidth': 410, 'origHeight': 410, 'width': 410, 'height': 410, 'widthPercent': 0.45, 'rescaleHeight': False, 'trialN': 97, 'loaded': True, 'loadedTime': 2227.0999999046326, 'positionName': 'LEFT', 'positionCoords': [818.8, 515], 'bid': 3.6}, {'imgObject': {}, 'id': 'burrito', 'src': '/static/foodstim60/burrito.jpg', 'key': 'i', 'origWidth': 410, 'origHeight': 410, 'width': 410, 'height': 410, 'widthPercent': 0.45, 'rescaleHeight': False, 'trialN': 97, 'loaded': True, 'loadedTime': 2254.0999999046326, 'positionName': 'RIGHT', 'positionCoords': [1331.2, 515], 'bid': 3.01}]",124412.79999995232,1669836847258,bagel plain,burrito,3.6,3.01,-0.5900000000000003,bagel plain,786.5999999046326,787,787.4000000953674,True,u,125700.89999985695,1288.0999999046326,1669836848546,1288,HRV,HRV_0055,2022-11-30 19:35:38
98,"[{'imgObject': {}, 'id': 'kiwi', 'src': '/static/foodstim60/kiwi.jpg', 'key': 'u', 'origWidth': 410, 'origHeight': 410, 'width': 410, 'height': 410, 'widthPercent': 0.45, 'rescaleHeight': False, 'trialN': 98, 'loaded': True, 'loadedTime': 2352.2999999523163, 'positionName': 'LEFT', 'positionCoords': [818.8, 515], 'bid': 3.94}, {'imgObject': {}, 'id': 'hashbrowns', 'src': '/static/foodstim60/hashbrowns.jpg', 'key': 'i', 'origWidth': 411, 'origHeight': 410, 'width': 411, 'height': 410, 'widthPercent': 0.45, 'rescaleHeight': False, 'trialN': 98, 'loaded': True, 'loadedTime': 2115.5, 'positionName': 'RIGHT', 'positionCoords': [1331.2, 515], 'bid': 3.96}]",125701.09999990463,1669836848546,kiwi,hashbrowns,3.94,3.96,0.020000000000000018,kiwi,749.0,750,749.7000000476837,True,u,126956.20000004768,1255.1000001430511,1669836849801,1255,HRV,HRV_0055,2022-11-30 19:35:38
99,"[{'imgObject': {}, 'id': 'Tribe humus pita', 'src': '/static/foodstim60/Tribe humus pita.jpg', 'key': 'u', 'origWidth': 411, 'origHeight': 411, 'width': 411, 'height': 411, 'widthPercent': 0.45, 'rescaleHeight': False, 'trialN': 99, 'loaded': True, 'loadedTime': 2312.899999856949, 'positionName': 'LEFT', 'positionCoords': [817.8, 514.5], 'bid': 3.67}, {'imgObject': {}, 'id': 'cherry tomato', 'src': '/static/foodstim60/cherry tomato.jpg', 'key': 'i', 'origWidth': 410, 'origHeight': 410, 'width': 410, 'height': 410, 'widthPercent': 0.45, 'rescaleHeight': False, 'trialN': 99, 'loaded': True, 'loadedTime': 2112.0999999046326, 'positionName': 'RIGHT', 'positionCoords': [1331.2, 515], 'bid': 2.6}]",126956.29999995232,1669836849801,Tribe humus pita,cherry tomato,3.67,2.6,-1.0699999999999998,Tribe humus pita,729.2999999523163,730,729.7999999523163,True,u,128188.5,1232.2000000476837,1669836851034,1233,HRV,HRV_0055,2022-11-30 19:35:38
100,"[{'imgObject': {}, 'id': 'baked potato', 'src': '/static/foodstim60/baked potato.jpg', 'key': 'u', 'origWidth': 409, 'origHeight': 410, 'width': 409, 'height': 410, 'widthPercent': 0.45, 'rescaleHeight': False, 'trialN': 100, 'loaded': True, 'loadedTime': 2224.399999856949, 'positionName': 'LEFT', 'positionCoords': [819.8, 515], 'bid': 7.15}, {'imgObject': {}, 'id': 'grilled chicken strips', 'src': '/static/foodstim60/grilled chicken strips.jpg', 'key': 'i', 'origWidth': 410, 'origHeight': 411, 'width': 410, 'height': 411, 'widthPercent': 0.45, 'rescaleHeight': False, 'trialN': 100, 'loaded': True, 'loadedTime': 2300, 'positionName': 'RIGHT', 'positionCoords': [1331.2, 514.5], 'bid': 7.26}]",128188.70000004768,1669836851034,baked potato,grilled chicken strips,7.15,7.26,0.10999999999999943,grilled chicken strips,874.7999999523163,875,875.3999998569489,True,i,129564.59999990463,1375.8999998569489,1669836852410,1376,HRV,HRV_0055,2022-11-30 19:35:38
101,"[{'imgObject': {}, 'id': 'apple slices', 'src': '/static/foodstim60/apple slices.jpg', 'key': 'u', 'origWidth': 409, 'origHeight': 410, 'width': 409, 'height': 410, 'widthPercent': 0.45, 'rescaleHeight': False, 'trialN': 101, 'loaded': True, 'loadedTime': 2270.0999999046326, 'positionName': 'LEFT', 'positionCoords': [819.8, 515], 'bid': 5.79}, {'imgObject': {}, 'id': 'veggieswithdip', 'src': '/static/foodstim60/veggieswithdip.jpg', 'key': 'i', 'origWidth': 409, 'origHeight': 409, 'width': 409, 'height': 409, 'widthPercent': 0.45, 'rescaleHeight': False, 'trialN': 101, 'loaded': True, 'loadedTime': 2363.5999999046326, 'positionName': 'RIGHT', 'positionCoords': [1331.2, 515.5], 'bid': 5.44}]",129564.89999985695,1669836852410,apple slices,veggieswithdip,5.79,5.44,-0.34999999999999964,veggieswithdip,604.7000000476837,605,605.4000000953674,True,i,130676.70000004768,1111.8000001907349,1669836853522,1112,HRV,HRV_0055,2022-11-30 19:35:38
102,"[{'imgObject': {}, 'id': 'edamame', 'src': '/static/foodstim60/edamame.jpg', 'key': 'u', 'origWidth': 409, 'origHeight': 410, 'width': 409, 'height': 410, 'widthPercent': 0.45, 'rescaleHeight': False, 'trialN': 102, 'loaded': True, 'loadedTime': 2313.7000000476837, 'positionName': 'LEFT', 'positionCoords': [819.8, 515], 'bid': 1.97}, {'imgObject': {}, 'id': 'chicken nuggets2', 'src': '/static/foodstim60/chicken nuggets2.jpg', 'key': 'i', 'origWidth': 410, 'origHeight': 409, 'width': 410, 'height': 409, 'widthPercent': 0.45, 'rescaleHeight': False, 'trialN': 102, 'loaded': True, 'loadedTime': 2220.2000000476837, 'positionName': 'RIGHT', 'positionCoords': [1331.2, 515.5], 'bid': 4.05}]",130677.0,1669836853522,edamame,chicken nuggets2,1.97,4.05,2.08,chicken nuggets2,768.7000000476837,770,769.3999998569489,True,i,131948.79999995232,1271.7999999523163,1669836854794,1272,HRV,HRV_0055,2022-11-30 19:35:38
103,"[{'imgObject': {}, 'id': 'tacos', 'src': '/static/foodstim60/tacos.jpg', 'key': 'u', 'origWidth': 411, 'origHeight': 411, 'width': 411, 'height': 411, 'widthPercent': 0.45, 'rescaleHeight': False, 'trialN': 103, 'loaded': True, 'loadedTime': 2154.2999999523163, 'positionName': 'LEFT', 'positionCoords': [817.8, 514.5], 'bid': 6.78}, {'imgObject': {}, 'id': 'turkey sandwich', 'src': '/static/foodstim60/turkey sandwich.jpg', 'key': 'i', 'origWidth': 409, 'origHeight': 409, 'width': 409, 'height': 409, 'widthPercent': 0.45, 'rescaleHeight': False, 'trialN': 103, 'loaded': True, 'loadedTime': 2282.2999999523163, 'positionName': 'RIGHT', 'positionCoords': [1331.2, 515.5], 'bid': 8.48}]",131949.0,1669836854794,tacos,turkey sandwich,6.78,8.48,1.7000000000000002,tacos,524.5,525,525.0999999046326,True,u,132980.5,1031.5,1669836855826,1032,HRV,HRV_0055,2022-11-30 19:35:38
104,"[{'imgObject': {}, 'id': 'froot loops w milk', 'src': '/static/foodstim60/froot loops w milk.jpg', 'key': 'u', 'origWidth': 410, 'origHeight': 410, 'width': 410, 'height': 410, 'widthPercent': 0.45, 'rescaleHeight': False, 'trialN': 104, 'loaded': True, 'loadedTime': 2286.0999999046326, 'positionName': 'LEFT', 'positionCoords': [818.8, 515], 'bid': 5.51}, {'imgObject': {}, 'id': 'sushi w_condiments', 'src': '/static/foodstim60/sushi w_condiments.jpg', 'key': 'i', 'origWidth': 410, 'origHeight': 410, 'width': 410, 'height': 410, 'widthPercent': 0.45, 'rescaleHeight': False, 'trialN': 104, 'loaded': True, 'loadedTime': 2145.5999999046326, 'positionName': 'RIGHT', 'positionCoords': [1331.2, 515], 'bid': 5.79}]",132980.79999995232,1669836855826,froot loops w milk,sushi w_condiments,5.51,5.79,0.28000000000000025,froot loops w milk,430.5,431,431.0,True,u,133916.29999995232,935.5,1669836856761,935,HRV,HRV_0055,2022-11-30 19:35:38
105,"[{'imgObject': {}, 'id': 'pear', 'src': '/static/foodstim60/pear.jpg', 'key': 'u', 'origWidth': 411, 'origHeight': 410, 'width': 411, 'height': 410, 'widthPercent': 0.45, 'rescaleHeight': False, 'trialN': 105, 'loaded': True, 'loadedTime': 2210.7000000476837, 'positionName': 'LEFT', 'positionCoords': [817.8, 515], 'bid': 5.46}, {'imgObject': {}, 'id': 'luckycharms', 'src': '/static/foodstim60/luckycharms.jpg', 'key': 'i', 'origWidth': 410, 'origHeight': 409, 'width': 410, 'height': 409, 'widthPercent': 0.45, 'rescaleHeight': False, 'trialN': 105, 'loaded': True, 'loadedTime': 2268.7000000476837, 'positionName': 'RIGHT', 'positionCoords': [1331.2, 515.5], 'bid': 5.87}]",133916.59999990463,1669836856762,pear,luckycharms,5.46,5.87,0.41000000000000014,luckycharms,651.1000001430511,651,651.7000000476837,True,i,135076.89999985695,1160.2999999523163,1669836857922,1160,HRV,HRV_0055,2022-11-30 19:35:38
106,"[{'imgObject': {}, 'id': 'rigatoni', 'src': '/static/foodstim60/rigatoni.jpg', 'key': 'u', 'origWidth': 411, 'origHeight': 411, 'width': 411, 'height': 411, 'widthPercent': 0.45, 'rescaleHeight': False, 'trialN': 106, 'loaded': True, 'loadedTime': 2366.2999999523163, 'positionName': 'LEFT', 'positionCoords': [817.8, 514.5], 'bid': 5.61}, {'imgObject': {}, 'id': 'sweetpotato', 'src': '/static/foodstim60/sweetpotato.jpg', 'key': 'i', 'origWidth': 410, 'origHeight': 410, 'width': 410, 'height': 410, 'widthPercent': 0.45, 'rescaleHeight': False, 'trialN': 106, 'loaded': True, 'loadedTime': 2278.7000000476837, 'positionName': 'RIGHT', 'positionCoords': [1331.2, 515], 'bid': 5.57}]",135077.09999990463,1669836857922,rigatoni,sweetpotato,5.61,5.57,-0.040000000000000036,rigatoni,640.2999999523163,641,641.0,True,u,136220.0,1142.9000000953674,1669836859065,1143,HRV,HRV_0055,2022-11-30 19:35:38
107,"[{'imgObject': {}, 'id': 'kiwi', 'src': '/static/foodstim60/kiwi.jpg', 'key': 'u', 'origWidth': 410, 'origHeight': 410, 'width': 410, 'height': 410, 'widthPercent': 0.45, 'rescaleHeight': False, 'trialN': 107, 'loaded': True, 'loadedTime': 2352.0999999046326, 'positionName': 'LEFT', 'positionCoords': [818.8, 515], 'bid': 3.94}, {'imgObject': {}, 'id': 'cherries', 'src': '/static/foodstim60/cherries.jpg', 'key': 'i', 'origWidth': 410, 'origHeight': 411, 'width': 410, 'height': 411, 'widthPercent': 0.45, 'rescaleHeight': False, 'trialN': 107, 'loaded': True, 'loadedTime': 2294.7000000476837, 'positionName': 'RIGHT', 'positionCoords': [1331.2, 514.5], 'bid': 4.14}]",136220.5,1669836859066,kiwi,cherries,3.94,4.14,0.19999999999999973,kiwi,715.5,716,716.0999999046326,True,u,137436.79999995232,1216.2999999523163,1669836860282,1216,HRV,HRV_0055,2022-11-30 19:35:38
108,"[{'imgObject': {}, 'id': 'mango', 'src': '/static/foodstim60/mango.jpg', 'key': 'u', 'origWidth': 411, 'origHeight': 411, 'width': 411, 'height': 411, 'widthPercent': 0.45, 'rescaleHeight': False, 'trialN': 108, 'loaded': True, 'loadedTime': 2215.5999999046326, 'positionName': 'LEFT', 'positionCoords': [817.8, 514.5], 'bid': 2.54}, {'imgObject': {}, 'id': 'seaweed', 'src': '/static/foodstim60/seaweed.jpg', 'key': 'i', 'origWidth': 410, 'origHeight': 410, 'width': 410, 'height': 410, 'widthPercent': 0.45, 'rescaleHeight': False, 'trialN': 108, 'loaded': True, 'loadedTime': 2148.0999999046326, 'positionName': 'RIGHT', 'positionCoords': [1331.2, 515], 'bid': 0.48}]",137436.89999985695,1669836860282,mango,seaweed,2.54,0.48,-2.06,mango,612.6000001430511,613,613.2000000476837,True,u,138556.70000004768,1119.8000001907349,1669836861402,1120,HRV,HRV_0055,2022-11-30 19:35:38
