success,trial_type,trial_index,time_elapsed,internal_node_id,Block,TrialNumber,TrialTime,trialTimeDiff,FPS_avg,FPS_med,FPS_mode,TrialDur,winResizeTime,rt,block,button_pressed,MotCoh,MotDir,ColCoh,Color,ChoiceKey,Choice,Accuracy,RT,nFrames,FPS,PPD,missTrial,missTrialMsg,onsetDelay,fullScreenExitTime,canvCenter,TrialType,Score,BlockTrial,stimulus,button_labels,exp,subjectId,date
True,fullscreen,0,4344,0.0-0.0,0.0,1.0,,,,,,,,,,,,,,,,,,,,,,,,,,,,,,,,HRV,HRV_0055,2022-11-30 19:44:10
,wl-check-fps,1,9335,0.0-1.0,0.0,2.0,"[4561.1, 4562.3, 4576.2, 4592.7, 4609.3, 4625.8, 4642.9, 4659.2, 4676, 4692.9, 4709.6, 4726.2, 4742.9, 4759.5, 4776.1, 4792.9, 4809.4, 4826.3, 4843, 4859.6, 4876.2, 4893, 4909.6, 4926.1, 4942.9, 4959.5, 4976.4, 4992.9, 5009.7, 5026.4, 5043, 5059.6, 5076.3, 5093, 5109.6, 5126.4, 5143.2, 5159.7, 5176.3, 5193.1, 5209.7, 5227, 5243.2, 5260, 5276.4, 5293.3, 5309.8, 5326.7, 5343.6, 5359.9, 5376.6, 5393.4, 5410.1, 5426.7, 5443.3, 5459.9, 5476.6, 5493.4, 5510.1, 5526.7, 5543.3, 5560.1, 5576.7, 5593.4, 5610.2, 5626.7, 5643.4, 5660.1, 5676.8, 5693.6, 5710.3, 5727, 5743.7, 5760.2, 5777.1, 5793.6, 5810.4, 5827.2, 5843.6, 5860.4, 5877, 5893.7, 5910.6, 5927.2, 5943.7, 5960.5, 5977.3, 5993.7, 6010.4, 6027.3, 6043.7, 6060.5, 6077.2, 6094, 6110.7, 6127.2, 6143.7, 6160.4, 6177.2, 6193.7, 6210.8, 6227.5, 6244.1, 6260.7, 6277.6, 6294.2, 6310.5, 6327.6, 6344.1, 6360.7, 6377.6, 6394.3, 6410.9, 6427.4, 6444.1, 6460.9, 6477.6, 6494.5, 6510.9, 6527.6, 6544.5, 6562.3, 6577.5, 6594.1, 6610.9, 6628.1, 6644.4, 6661, 6677.5, 6694.5, 6711, 6727.4, 6744.6, 6761.4, 6777.9, 6794.6, 6811.3, 6828.1, 6844.5, 6861.3, 6877.8, 6894.7, 6911.4, 6928, 6944.8, 6961.5, 6978.1, 6994.5, 7011.3, 7028.3, 7044.9, 7061.4, 7077.9, 7094.5, 7111.3, 7127.9, 7144.5, 7161.2, 7177.8, 7194.5, 7211.2, 7228.3, 7244.7, 7261.5, 7278.3, 7294.5, 7311.4, 7328.2, 7344.9, 7361.5, 7378.1, 7394.7, 7411.3, 7428, 7444.8, 7461.4, 7478.2, 7495, 7511.5, 7528.3, 7544.9, 7561.5, 7578.3, 7594.9, 7611.6, 7628.4, 7645.1, 7661.8, 7678.5, 7695.1, 7711.8, 7728.5, 7745.2, 7761.9, 7778.5, 7795.3, 7812, 7828.4, 7845.1, 7862.2, 7878.5, 7895.4, 7912.1, 7928.5, 7945.2, 7962.2, 7978.6, 7995.5, 8011.8, 8028.6, 8045.4, 8062.2, 8078.8, 8095.3, 8112.1, 8128.8, 8145.4, 8162.1, 8179, 8195.3, 8212.3, 8229, 8245.5, 8262.5, 8278.8, 8295.5, 8312.2, 8329, 8345.6, 8362.4, 8379, 8395.8, 8412.3, 8429, 8445.8, 8462.3, 8479.1, 8495.6, 8512.3, 8529, 8545.8, 8562.4, 8579.2, 8595.7, 8612.4, 8629.1, 8645.8, 8662.5, 8679.2, 8695.9, 8712.5, 8729.3, 8745.9, 8762.6, 8779.3, 8796, 8812.5, 8829.3, 8846, 8862.7, 8879.2, 8896.1, 8912.5, 8929.3, 8946, 8962.6, 8979.3, 8996.1, 9012.7, 9029.4, 9046.1, 9062.8, 9079.4, 9096.2, 9113, 9129.8, 9146.2, 9162.9, 9179.5, 9196.3, 9213, 9230, 9246.2, 9262.9, 9279.6, 9296.3, 9313, 9329.7, 9346.3, 9363, 9379.7, 9396.3, 9413, 9429.7, 9446.4, 9463.2, 9479.8, 9496.5, 9513.2, 9529.8]","[2.4, 1.2, 13.9, 16.5, 16.6, 16.5, 17.1, 16.3, 16.8, 16.9, 16.7, 16.6, 16.7, 16.6, 16.6, 16.8, 16.5, 16.9, 16.7, 16.6, 16.6, 16.8, 16.6, 16.5, 16.8, 16.6, 16.9, 16.5, 16.8, 16.7, 16.6, 16.6, 16.7, 16.7, 16.6, 16.8, 16.8, 16.5, 16.6, 16.8, 16.6, 17.3, 16.2, 16.8, 16.4, 16.9, 16.5, 16.9, 16.9, 16.3, 16.7, 16.8, 16.7, 16.6, 16.6, 16.6, 16.7, 16.8, 16.7, 16.6, 16.6, 16.8, 16.6, 16.7, 16.8, 16.5, 16.7, 16.7, 16.7, 16.8, 16.7, 16.7, 16.7, 16.5, 16.9, 16.5, 16.8, 16.8, 16.4, 16.8, 16.6, 16.7, 16.9, 16.6, 16.5, 16.8, 16.8, 16.4, 16.7, 16.9, 16.4, 16.8, 16.7, 16.8, 16.7, 16.5, 16.5, 16.7, 16.8, 16.5, 17.1, 16.7, 16.6, 16.6, 16.9, 16.6, 16.3, 17.1, 16.5, 16.6, 16.9, 16.7, 16.6, 16.5, 16.7, 16.8, 16.7, 16.9, 16.4, 16.7, 16.9, 17.8, 15.2, 16.6, 16.8, 17.2, 16.3, 16.6, 16.5, 17, 16.5, 16.4, 17.2, 16.8, 16.5, 16.7, 16.7, 16.8, 16.4, 16.8, 16.5, 16.9, 16.7, 16.6, 16.8, 16.7, 16.6, 16.4, 16.8, 17, 16.6, 16.5, 16.5, 16.6, 16.8, 16.6, 16.6, 16.7, 16.6, 16.7, 16.7, 17.1, 16.4, 16.8, 16.8, 16.2, 16.9, 16.8, 16.7, 16.6, 16.6, 16.6, 16.6, 16.7, 16.8, 16.6, 16.8, 16.8, 16.5, 16.8, 16.6, 16.6, 16.8, 16.6, 16.7, 16.8, 16.7, 16.7, 16.7, 16.6, 16.7, 16.7, 16.7, 16.7, 16.6, 16.8, 16.7, 16.4, 16.7, 17.1, 16.3, 16.9, 16.7, 16.4, 16.7, 17, 16.4, 16.9, 16.3, 16.8, 16.8, 16.8, 16.6, 16.5, 16.8, 16.7, 16.6, 16.7, 16.9, 16.3, 17, 16.7, 16.5, 17, 16.3, 16.7, 16.7, 16.8, 16.6, 16.8, 16.6, 16.8, 16.5, 16.7, 16.8, 16.5, 16.8, 16.5, 16.7, 16.7, 16.8, 16.6, 16.8, 16.5, 16.7, 16.7, 16.7, 16.7, 16.7, 16.7, 16.6, 16.8, 16.6, 16.7, 16.7, 16.7, 16.5, 16.8, 16.7, 16.7, 16.5, 16.9, 16.4, 16.8, 16.7, 16.6, 16.7, 16.8, 16.6, 16.7, 16.7, 16.7, 16.6, 16.8, 16.8, 16.8, 16.4, 16.7, 16.6, 16.8, 16.7, 17, 16.2, 16.7, 16.7, 16.7, 16.7, 16.7, 16.6, 16.7, 16.7, 16.6, 16.7, 16.7, 16.7, 16.8, 16.6, 16.7, 16.7, 16.6]",60.0,60.0,60.0,4987.8,[],,,,,,,,,,,,,,,,,,,,,,,,,HRV,HRV_0055,2022-11-30 19:44:10
,wl-html-keyboard-response,2,22800,0.0-2.0-0.0,0.0,3.0,,,,,,,,11458.900000095367,0.0,0,,,,,,,,,,,,,,,,,,,,,,HRV,HRV_0055,2022-11-30 19:44:10
,wl-rdm,3,30871,0.0-3.0-0.0,0.0,4.0,,,,,,,[],,,,0.0,0.0,87.9,0.0,u,0.0,True,2487.7999999523163,150.0,60.0,40.0,False,,3000.0,[],"[1280, 720]",ColorTask_Demo,,,,,HRV,HRV_0055,2022-11-30 19:44:10
,wl-rdm,4,35659,0.0-3.0-1.0,0.0,5.0,,,,,,,[],,,,0.0,0.0,87.9,1.0,i,1.0,True,722.0000002384186,44.0,60.0,40.0,False,,2000.0,[],"[1280, 720]",ColorTask_Demo,,,,,HRV,HRV_0055,2022-11-30 19:44:10
,wl-html-keyboard-response,5,41420,0.0-3.0-2.0,0.0,6.0,,,,,,,,3753.5,0.0,1,,,,,,,,,,,,,,,,,,,,,,HRV,HRV_0055,2022-11-30 19:44:10
,wl-html-keyboard-response,6,49024,0.0-4.0-0.0,0.0,7.0,,,,,,,,5595.0,0.0,0,,,,,,,,,,,,,,,,,,,,,,HRV,HRV_0055,2022-11-30 19:44:10
,wl-html-keyboard-response,7,58920,0.0-5.0-0.0,0.0,8.0,,,,,,,,8486.0,0.0,0,,,,,,,,,,,,,,,,,,,,,,HRV,HRV_0055,2022-11-30 19:44:10
,wl-rdm,8,61395,0.0-6.0-0.0,0.0,9.0,,,,,,,[],,,,,,53.2,1.0,i,1.0,True,1005.9000000953674,60.0,60.0,40.0,False,,386.3898647172846,[],"[1280, 720]",ColorTask,1.0,1.0,,,HRV,HRV_0055,2022-11-30 19:44:10
,wl-rdm,9,63713,0.0-6.1-0.1,0.0,10.0,,,,,,,[],,,,,,50.0,0.0,i,1.0,False,904.9000000953674,53.0,60.0,40.0,False,,326.5019085427096,[],"[1280, 720]",ColorTask,0.0,2.0,,,HRV,HRV_0055,2022-11-30 19:44:10
,wl-rdm,10,66065,0.0-6.2-0.2,0.0,11.0,,,,,,,[],,,,,,53.2,0.0,u,0.0,True,889.0,54.0,60.0,40.0,False,,383.52706908071707,[],"[1280, 720]",ColorTask,1.0,3.0,,,HRV,HRV_0055,2022-11-30 19:44:10
,wl-rdm,11,68084,0.0-6.3-0.3,0.0,12.0,,,,,,,[],,,,,,62.5,0.0,i,1.0,False,702.7999999523163,43.0,60.0,40.0,False,,221.72824760207266,[],"[1280, 720]",ColorTask,0.0,4.0,,,HRV,HRV_0055,2022-11-30 19:44:10
,wl-rdm,12,69902,0.0-6.4-0.4,0.0,13.0,,,,,,,[],,,,,,50.0,0.0,i,1.0,False,525.7999999523163,32.0,60.0,40.0,False,,230.86615696382034,[],"[1280, 720]",ColorTask,-1.0,5.0,,,HRV,HRV_0055,2022-11-30 19:44:10
,wl-rdm,13,71821,0.0-6.5-0.5,0.0,14.0,,,,,,,[],,,,,,53.2,0.0,i,1.0,False,588.6999998092651,36.0,60.0,40.0,False,,261.2192918948959,[],"[1280, 720]",ColorTask,-2.0,6.0,,,HRV,HRV_0055,2022-11-30 19:44:10
,wl-rdm,14,73872,0.0-6.6-0.6,0.0,15.0,,,,,,,[],,,,,,62.5,1.0,i,1.0,True,684.2999999523163,41.0,60.0,40.0,False,,291.31342864540176,[],"[1280, 720]",ColorTask,-1.0,7.0,,,HRV,HRV_0055,2022-11-30 19:44:10
,wl-rdm,15,75890,0.0-6.7-0.7,0.0,16.0,,,,,,,[],,,,,,56.4,0.0,u,0.0,True,705.900000333786,43.0,60.0,40.0,False,,241.4826071661713,[],"[1280, 720]",ColorTask,0.0,8.0,,,HRV,HRV_0055,2022-11-30 19:44:10
,wl-rdm,16,77859,0.0-6.8-0.8,0.0,17.0,,,,,,,[],,,,,,62.5,1.0,i,1.0,True,612.8000001907349,37.0,60.0,40.0,False,,273.8451220300135,[],"[1280, 720]",ColorTask,1.0,9.0,,,HRV,HRV_0055,2022-11-30 19:44:10
,wl-rdm,17,79877,0.0-6.9-0.9,0.0,18.0,,,,,,,[],,,,,,50.0,1.0,u,0.0,False,724.2999999523163,44.0,60.0,40.0,False,,230.3138695118126,[],"[1280, 720]",ColorTask,0.0,10.0,,,HRV,HRV_0055,2022-11-30 19:44:10
,wl-rdm,18,82045,0.0-6.10-0.10,0.0,19.0,,,,,,,[],,,,,,56.4,0.0,u,0.0,True,800.2000000476837,48.0,60.0,40.0,False,,292.02587960905805,[],"[1280, 720]",ColorTask,1.0,11.0,,,HRV,HRV_0055,2022-11-30 19:44:10
,wl-rdm,19,83931,0.0-6.11-0.11,0.0,20.0,,,,,,,[],,,,,,73.6,0.0,u,0.0,True,548.2999999523163,33.0,60.0,40.0,False,,281.2942759111512,[],"[1280, 720]",ColorTask,2.0,12.0,,,HRV,HRV_0055,2022-11-30 19:44:10
,wl-rdm,20,85815,0.0-6.12-0.12,0.0,21.0,,,,,,,[],,,,,,62.5,0.0,u,0.0,True,514.0999999046326,31.0,60.0,40.0,False,,300.3525304845917,[],"[1280, 720]",ColorTask,3.0,13.0,,,HRV,HRV_0055,2022-11-30 19:44:10
,wl-rdm,21,87734,0.0-6.13-0.13,0.0,22.0,,,,,,,[],,,,,,87.9,1.0,u,0.0,False,455.5,28.0,60.0,40.0,False,,383.82128453263374,[],"[1280, 720]",ColorTask,2.0,14.0,,,HRV,HRV_0055,2022-11-30 19:44:10
,wl-rdm,22,89719,0.0-6.14-0.14,0.0,23.0,,,,,,,[],,,,,,62.5,0.0,u,0.0,True,662.1000001430511,39.0,60.0,40.0,False,,255.47769763290773,[],"[1280, 720]",ColorTask,3.0,15.0,,,HRV,HRV_0055,2022-11-30 19:44:10
,wl-rdm,23,91520,0.0-6.15-0.15,0.0,24.0,,,,,,,[],,,,,,87.9,1.0,i,1.0,True,463.0000002384186,28.0,60.0,40.0,False,,276.9940650052907,[],"[1280, 720]",ColorTask,4.0,16.0,,,HRV,HRV_0055,2022-11-30 19:44:10
,wl-rdm,24,93289,0.0-6.16-0.16,0.0,25.0,,,,,,,[],,,,,,87.9,1.0,i,1.0,True,485.40000009536743,28.0,60.0,40.0,False,,209.92134423976867,[],"[1280, 720]",ColorTask,5.0,17.0,,,HRV,HRV_0055,2022-11-30 19:44:10
,wl-rdm,25,95124,0.0-6.17-0.17,0.0,26.0,,,,,,,[],,,,,,87.9,0.0,i,1.0,False,477.2999999523163,29.0,60.0,40.0,False,,298.1840892855986,[],"[1280, 720]",ColorTask,4.0,18.0,,,HRV,HRV_0055,2022-11-30 19:44:10
,wl-rdm,26,97058,0.0-6.18-0.18,0.0,27.0,,,,,,,[],,,,,,62.5,0.0,u,0.0,True,576.7000002861023,34.0,60.0,40.0,False,,271.37731397067455,[],"[1280, 720]",ColorTask,5.0,19.0,,,HRV,HRV_0055,2022-11-30 19:44:10
,wl-rdm,27,98960,0.0-6.19-0.19,0.0,28.0,,,,,,,[],,,,,,53.2,0.0,u,0.0,True,530.5,32.0,60.0,40.0,False,,305.0706532362265,[],"[1280, 720]",ColorTask,6.0,20.0,,,HRV,HRV_0055,2022-11-30 19:44:10
,wl-rdm,28,101029,0.0-6.20-0.20,0.0,29.0,,,,,,,[],,,,,,73.6,0.0,u,0.0,True,684.7000000476837,41.0,60.0,40.0,False,,312.6199953460472,[],"[1280, 720]",ColorTask,7.0,21.0,,,HRV,HRV_0055,2022-11-30 19:44:10
,wl-rdm,29,103147,0.0-6.21-0.21,0.0,30.0,,,,,,,[],,,,,,50.0,1.0,i,1.0,True,687.2000000476837,42.0,60.0,40.0,False,,365.78993909002185,[],"[1280, 720]",ColorTask,8.0,22.0,,,HRV,HRV_0055,2022-11-30 19:44:10
,wl-rdm,30,105082,0.0-6.22-0.22,0.0,31.0,,,,,,,[],,,,,,56.4,1.0,i,1.0,True,648.7999999523163,39.0,60.0,40.0,False,,223.4858406739775,[],"[1280, 720]",ColorTask,9.0,23.0,,,HRV,HRV_0055,2022-11-30 19:44:10
,wl-rdm,31,107117,0.0-6.23-0.23,0.0,32.0,,,,,,,[],,,,,,87.9,0.0,u,0.0,True,654.8999998569489,40.0,60.0,40.0,False,,305.097277159979,[],"[1280, 720]",ColorTask,10.0,24.0,,,HRV,HRV_0055,2022-11-30 19:44:10
,wl-rdm,32,109052,0.0-6.24-0.24,0.0,33.0,,,,,,,[],,,,,,50.0,0.0,i,1.0,False,640.8000001907349,39.0,60.0,40.0,False,,220.6761745501955,[],"[1280, 720]",ColorTask,9.0,25.0,,,HRV,HRV_0055,2022-11-30 19:44:10
,wl-rdm,33,111037,0.0-6.25-0.25,0.0,34.0,,,,,,,[],,,,,,73.6,1.0,i,1.0,True,621.9999997615814,38.0,60.0,40.0,False,,292.8280745231102,[],"[1280, 720]",ColorTask,10.0,26.0,,,HRV,HRV_0055,2022-11-30 19:44:10
,wl-rdm,34,113055,0.0-6.26-0.26,0.0,35.0,,,,,,,[],,,,,,87.9,1.0,i,1.0,True,616.7999999523163,37.0,60.0,40.0,False,,345.1977082891143,[],"[1280, 720]",ColorTask,11.0,27.0,,,HRV,HRV_0055,2022-11-30 19:44:10
,wl-rdm,35,115056,0.0-6.27-0.27,0.0,36.0,,,,,,,[],,,,,,62.5,0.0,u,0.0,True,673.2000000476837,40.0,60.0,40.0,False,,261.1697130601759,[],"[1280, 720]",ColorTask,12.0,28.0,,,HRV,HRV_0055,2022-11-30 19:44:10
,wl-rdm,36,117192,0.0-6.28-0.28,0.0,37.0,,,,,,,[],,,,,,87.9,1.0,i,1.0,True,763.7999999523163,46.0,60.0,40.0,False,,314.4294255956383,[],"[1280, 720]",ColorTask,13.0,29.0,,,HRV,HRV_0055,2022-11-30 19:44:10
,wl-rdm,37,119060,0.0-6.29-0.29,0.0,38.0,,,,,,,[],,,,,,56.4,1.0,i,1.0,True,594.6000001430511,36.0,60.0,40.0,False,,212.4379956147573,[],"[1280, 720]",ColorTask,14.0,30.0,,,HRV,HRV_0055,2022-11-30 19:44:10
,wl-rdm,38,121112,0.0-6.30-0.30,0.0,39.0,,,,,,,[],,,,,,73.6,1.0,i,1.0,True,638.7999999523163,38.0,60.0,40.0,False,,339.8249166675991,[],"[1280, 720]",ColorTask,15.0,31.0,,,HRV,HRV_0055,2022-11-30 19:44:10
,wl-rdm,39,123180,0.0-6.31-0.31,0.0,40.0,,,,,,,[],,,,,,56.4,0.0,i,1.0,False,647.5999999046326,39.0,60.0,40.0,False,,337.9143343488057,[],"[1280, 720]",ColorTask,14.0,32.0,,,HRV,HRV_0055,2022-11-30 19:44:10
,wl-rdm,40,124965,0.0-6.32-0.32,0.0,41.0,,,,,,,[],,,,,,50.0,1.0,u,0.0,False,457.2000000476837,28.0,60.0,40.0,False,,258.7857259936744,[],"[1280, 720]",ColorTask,13.0,33.0,,,HRV,HRV_0055,2022-11-30 19:44:10
,wl-rdm,41,126950,0.0-6.33-0.33,0.0,42.0,,,,,,,[],,,,,,50.0,0.0,i,1.0,False,555.8999998569489,34.0,60.0,40.0,False,,364.70369958425886,[],"[1280, 720]",ColorTask,12.0,34.0,,,HRV,HRV_0055,2022-11-30 19:44:10
,wl-rdm,42,128769,0.0-6.34-0.34,0.0,43.0,,,,,,,[],,,,,,73.6,0.0,u,0.0,True,524.5999999046326,32.0,60.0,40.0,False,,229.17214930611152,[],"[1280, 720]",ColorTask,13.0,35.0,,,HRV,HRV_0055,2022-11-30 19:44:10
,wl-rdm,43,130736,0.0-6.35-0.35,0.0,44.0,,,,,,,[],,,,,,56.4,0.0,u,0.0,True,609.3999998569489,37.0,60.0,40.0,False,,292.42325702766436,[],"[1280, 720]",ColorTask,14.0,36.0,,,HRV,HRV_0055,2022-11-30 19:44:10
,wl-rdm,44,132555,0.0-6.36-0.36,0.0,45.0,,,,,,,[],,,,,,50.0,0.0,i,1.0,False,546.5,33.0,60.0,40.0,False,,206.75462253430254,[],"[1280, 720]",ColorTask,13.0,37.0,,,HRV,HRV_0055,2022-11-30 19:44:10
,wl-rdm,45,134556,0.0-6.37-0.37,0.0,46.0,,,,,,,[],,,,,,87.9,0.0,u,0.0,True,725.4999997615814,44.0,60.0,40.0,False,,203.9912515400213,[],"[1280, 720]",ColorTask,14.0,38.0,,,HRV,HRV_0055,2022-11-30 19:44:10
,wl-rdm,46,136641,0.0-6.38-0.38,0.0,47.0,,,,,,,[],,,,,,56.4,0.0,u,0.0,True,661.2999999523163,40.0,60.0,40.0,False,,352.4409489409339,[],"[1280, 720]",ColorTask,15.0,39.0,,,HRV,HRV_0055,2022-11-30 19:44:10
,wl-rdm,47,138576,0.0-6.39-0.39,0.0,48.0,,,,,,,[],,,,,,73.6,1.0,i,1.0,True,541.8000001907349,30.0,60.0,40.0,False,,330.794171955834,[],"[1280, 720]",ColorTask,16.0,40.0,,,HRV,HRV_0055,2022-11-30 19:44:10
,wl-rdm,48,140461,0.0-6.40-0.40,0.0,49.0,,,,,,,[],,,,,,73.6,0.0,u,0.0,True,605.3000001907349,37.0,60.0,40.0,False,,208.40853539607264,[],"[1280, 720]",ColorTask,17.0,41.0,,,HRV,HRV_0055,2022-11-30 19:44:10
,wl-rdm,49,142263,0.0-6.41-0.41,0.0,50.0,,,,,,,[],,,,,,53.2,1.0,i,1.0,True,531.0,31.0,60.0,40.0,False,,209.29951029824602,[],"[1280, 720]",ColorTask,18.0,42.0,,,HRV,HRV_0055,2022-11-30 19:44:10
,wl-rdm,50,144315,0.0-6.42-0.42,0.0,51.0,,,,,,,[],,,,,,73.6,1.0,i,1.0,True,657.1000001430511,40.0,60.0,40.0,False,,304.0322466477759,[],"[1280, 720]",ColorTask,19.0,43.0,,,HRV,HRV_0055,2022-11-30 19:44:10
,wl-rdm,51,146366,0.0-6.43-0.43,0.0,52.0,,,,,,,[],,,,,,50.0,0.0,u,0.0,True,628.8000001907349,38.0,60.0,40.0,False,,358.2226926529889,[],"[1280, 720]",ColorTask,20.0,44.0,,,HRV,HRV_0055,2022-11-30 19:44:10
,wl-rdm,52,148301,0.0-6.44-0.44,0.0,53.0,,,,,,,[],,,,,,62.5,1.0,i,1.0,True,469.39999985694885,29.0,60.0,40.0,False,,389.8452820867732,[],"[1280, 720]",ColorTask,21.0,45.0,,,HRV,HRV_0055,2022-11-30 19:44:10
,wl-rdm,53,150252,0.0-6.45-0.45,0.0,54.0,,,,,,,[],,,,,,53.2,0.0,i,1.0,False,645.4999997615814,39.0,60.0,40.0,False,,243.3439990989814,[],"[1280, 720]",ColorTask,20.0,46.0,,,HRV,HRV_0055,2022-11-30 19:44:10
,wl-rdm,54,151971,0.0-6.46-0.46,0.0,55.0,,,,,,,[],,,,,,56.4,1.0,u,0.0,False,400.40000009536743,24.0,60.0,40.0,False,,249.8271640206565,[],"[1280, 720]",ColorTask,19.0,47.0,,,HRV,HRV_0055,2022-11-30 19:44:10
,wl-rdm,55,153889,0.0-6.47-0.47,0.0,56.0,,,,,,,[],,,,,,56.4,1.0,i,1.0,True,512.8999998569489,31.0,60.0,40.0,False,,345.05233878273714,[],"[1280, 720]",ColorTask,20.0,48.0,,,HRV,HRV_0055,2022-11-30 19:44:10
,wl-rdm,56,155791,0.0-6.48-0.48,0.0,57.0,,,,,,,[],,,,,,87.9,1.0,i,1.0,True,536.8999998569489,33.0,60.0,40.0,False,,295.1521509142411,[],"[1280, 720]",ColorTask,21.0,49.0,,,HRV,HRV_0055,2022-11-30 19:44:10
,wl-rdm,57,157708,0.0-6.49-0.49,0.0,58.0,,,,,,,[],,,,,,62.5,1.0,u,0.0,False,646.2000002861023,38.0,60.0,40.0,False,,205.63795549184073,[],"[1280, 720]",ColorTask,20.0,50.0,,,HRV,HRV_0055,2022-11-30 19:44:10
,wl-rdm,58,159610,0.0-6.50-0.50,0.0,59.0,,,,,,,[],,,,,,53.2,1.0,i,1.0,True,519.4000000953674,32.0,60.0,40.0,False,,315.19457029086004,[],"[1280, 720]",ColorTask,21.0,51.0,,,HRV,HRV_0055,2022-11-30 19:44:10
,wl-rdm,59,161745,0.0-6.51-0.51,0.0,60.0,,,,,,,[],,,,,,73.6,1.0,u,0.0,False,822.9000000953674,48.0,60.0,40.0,False,,238.5134737880036,[],"[1280, 720]",ColorTask,20.0,52.0,,,HRV,HRV_0055,2022-11-30 19:44:10
,wl-rdm,60,163763,0.0-6.52-0.52,0.0,61.0,,,,,,,[],,,,,,53.2,0.0,u,0.0,True,723.5,44.0,60.0,40.0,False,,231.99582432901244,[],"[1280, 720]",ColorTask,21.0,53.0,,,HRV,HRV_0055,2022-11-30 19:44:10
,wl-rdm,61,165699,0.0-6.53-0.53,0.0,62.0,,,,,,,[],,,,,,56.4,1.0,i,1.0,True,556.400000333786,34.0,60.0,40.0,False,,268.128950124075,[],"[1280, 720]",ColorTask,22.0,54.0,,,HRV,HRV_0055,2022-11-30 19:44:10
,wl-rdm,62,167617,0.0-6.54-0.54,0.0,63.0,,,,,,,[],,,,,,62.5,0.0,u,0.0,True,582.0999999046326,35.0,60.0,40.0,False,,279.4669676571433,[],"[1280, 720]",ColorTask,23.0,55.0,,,HRV,HRV_0055,2022-11-30 19:44:10
,wl-rdm,63,169635,0.0-6.55-0.55,0.0,64.0,,,,,,,[],,,,,,50.0,1.0,i,1.0,True,653.2999997138977,40.0,60.0,40.0,False,,287.4013795460903,[],"[1280, 720]",ColorTask,24.0,56.0,,,HRV,HRV_0055,2022-11-30 19:44:10
,wl-rdm,64,171621,0.0-6.56-0.56,0.0,65.0,,,,,,,[],,,,,,73.6,1.0,u,0.0,False,633.2000002861023,37.0,60.0,40.0,False,,288.896360374897,[],"[1280, 720]",ColorTask,23.0,57.0,,,HRV,HRV_0055,2022-11-30 19:44:10
,wl-rdm,65,173355,0.0-6.57-0.57,0.0,66.0,,,,,,,[],,,,,,56.4,0.0,i,1.0,False,450.7999997138977,28.0,60.0,40.0,False,,217.00551769145602,[],"[1280, 720]",ColorTask,22.0,58.0,,,HRV,HRV_0055,2022-11-30 19:44:10
,wl-rdm,66,175207,0.0-6.58-0.58,0.0,67.0,,,,,,,[],,,,,,56.4,1.0,u,0.0,False,461.40000009536743,28.0,60.0,40.0,False,,324.57301999243055,[],"[1280, 720]",ColorTask,21.0,59.0,,,HRV,HRV_0055,2022-11-30 19:44:10
,wl-rdm,67,177175,0.0-6.59-0.59,0.0,68.0,,,,,,,[],,,,,,62.5,0.0,i,1.0,False,505.0,31.0,60.0,40.0,False,,397.18285793649125,[],"[1280, 720]",ColorTask,20.0,60.0,,,HRV,HRV_0055,2022-11-30 19:44:10
,wl-rdm,68,178960,0.0-6.60-0.60,0.0,69.0,,,,,,,[],,,,,,73.6,1.0,u,0.0,False,437.7999999523163,27.0,60.0,40.0,False,,276.471435731692,[],"[1280, 720]",ColorTask,19.0,61.0,,,HRV,HRV_0055,2022-11-30 19:44:10
,wl-rdm,69,180778,0.0-6.61-0.61,0.0,70.0,,,,,,,[],,,,,,62.5,1.0,i,1.0,True,373.2999999523163,23.0,60.0,40.0,False,,378.119859458954,[],"[1280, 720]",ColorTask,20.0,62.0,,,HRV,HRV_0055,2022-11-30 19:44:10
,wl-rdm,70,182613,0.0-6.62-0.62,0.0,71.0,,,,,,,[],,,,,,62.5,1.0,i,1.0,True,505.60000014305115,31.0,60.0,40.0,False,,259.3231086101339,[],"[1280, 720]",ColorTask,21.0,63.0,,,HRV,HRV_0055,2022-11-30 19:44:10
,wl-rdm,71,184481,0.0-6.63-0.63,0.0,72.0,,,,,,,[],,,,,,87.9,1.0,u,0.0,False,553.8999998569489,34.0,60.0,40.0,False,,211.2078271612994,[],"[1280, 720]",ColorTask,20.0,64.0,,,HRV,HRV_0055,2022-11-30 19:44:10
,wl-rdm,72,186233,0.0-6.64-0.64,0.0,73.0,,,,,,,[],,,,,,56.4,0.0,i,1.0,False,472.5,29.0,60.0,40.0,False,,207.10499167051677,[],"[1280, 720]",ColorTask,19.0,65.0,,,HRV,HRV_0055,2022-11-30 19:44:10
,wl-rdm,73,188017,0.0-6.65-0.65,0.0,74.0,,,,,,,[],,,,,,87.9,0.0,u,0.0,True,454.2000000476837,28.0,60.0,40.0,False,,238.343020764329,[],"[1280, 720]",ColorTask,20.0,66.0,,,HRV,HRV_0055,2022-11-30 19:44:10
,wl-rdm,74,189919,0.0-6.66-0.66,0.0,75.0,,,,,,,[],,,,,,62.5,1.0,i,1.0,True,433.90000009536743,26.0,60.0,40.0,False,,389.89919124391514,[],"[1280, 720]",ColorTask,21.0,67.0,,,HRV,HRV_0055,2022-11-30 19:44:10
,wl-rdm,75,191837,0.0-6.67-0.67,0.0,76.0,,,,,,,[],,,,,,73.6,0.0,u,0.0,True,605.3999998569489,37.0,60.0,40.0,False,,235.25798043469896,[],"[1280, 720]",ColorTask,22.0,68.0,,,HRV,HRV_0055,2022-11-30 19:44:10
,wl-rdm,76,193705,0.0-6.68-0.68,0.0,77.0,,,,,,,[],,,,,,62.5,0.0,i,1.0,False,442.5000002384186,27.0,60.0,40.0,False,,354.3602435159505,[],"[1280, 720]",ColorTask,21.0,69.0,,,HRV,HRV_0055,2022-11-30 19:44:10
,wl-rdm,77,195574,0.0-6.69-0.69,0.0,78.0,,,,,,,[],,,,,,62.5,0.0,i,1.0,False,558.9000000953674,34.0,60.0,40.0,False,,240.45105103699404,[],"[1280, 720]",ColorTask,20.0,70.0,,,HRV,HRV_0055,2022-11-30 19:44:10
,wl-rdm,78,197459,0.0-6.70-0.70,0.0,79.0,,,,,,,[],,,,,,73.6,1.0,i,1.0,True,544.4000000953674,33.0,60.0,40.0,False,,274.1060205413415,[],"[1280, 720]",ColorTask,21.0,71.0,,,HRV,HRV_0055,2022-11-30 19:44:10
,wl-rdm,79,199344,0.0-6.71-0.71,0.0,80.0,,,,,,,[],,,,,,53.2,1.0,i,1.0,True,602.0999999046326,37.0,60.0,40.0,False,,208.05814259672107,[],"[1280, 720]",ColorTask,22.0,72.0,,,HRV,HRV_0055,2022-11-30 19:44:10
,wl-rdm,80,201295,0.0-6.72-0.72,0.0,81.0,,,,,,,[],,,,,,87.9,1.0,i,1.0,True,549.7999999523163,33.0,60.0,40.0,False,,346.9049673255537,[],"[1280, 720]",ColorTask,23.0,73.0,,,HRV,HRV_0055,2022-11-30 19:44:10
,wl-rdm,81,203096,0.0-6.73-0.73,0.0,82.0,,,,,,,[],,,,,,73.6,1.0,i,1.0,True,519.5999999046326,32.0,60.0,40.0,False,,210.4186211951163,[],"[1280, 720]",ColorTask,24.0,74.0,,,HRV,HRV_0055,2022-11-30 19:44:10
,wl-rdm,82,205048,0.0-6.74-0.74,0.0,83.0,,,,,,,[],,,,,,73.6,0.0,u,0.0,True,583.7000000476837,35.0,60.0,40.0,False,,301.14443759378963,[],"[1280, 720]",ColorTask,25.0,75.0,,,HRV,HRV_0055,2022-11-30 19:44:10
,wl-rdm,83,207067,0.0-6.75-0.75,0.0,84.0,,,,,,,[],,,,,,56.4,0.0,i,1.0,False,622.3999998569489,38.0,60.0,40.0,False,,324.85954634272974,[],"[1280, 720]",ColorTask,24.0,76.0,,,HRV,HRV_0055,2022-11-30 19:44:10
,wl-rdm,84,208868,0.0-6.76-0.76,0.0,85.0,,,,,,,[],,,,,,62.5,1.0,i,1.0,True,510.59999990463257,31.0,60.0,40.0,False,,232.85380660419992,[],"[1280, 720]",ColorTask,25.0,77.0,,,HRV,HRV_0055,2022-11-30 19:44:10
,wl-rdm,85,210887,0.0-6.77-0.77,0.0,86.0,,,,,,,[],,,,,,50.0,1.0,u,0.0,False,726.2000000476837,44.0,60.0,40.0,False,,221.67190393398596,[],"[1280, 720]",ColorTask,24.0,78.0,,,HRV,HRV_0055,2022-11-30 19:44:10
,wl-rdm,86,212754,0.0-6.78-0.78,0.0,87.0,,,,,,,[],,,,,,56.4,1.0,i,1.0,True,492.2000002861023,30.0,60.0,40.0,False,,311.9017752370206,[],"[1280, 720]",ColorTask,25.0,79.0,,,HRV,HRV_0055,2022-11-30 19:44:10
,wl-rdm,87,214573,0.0-6.79-0.79,0.0,88.0,,,,,,,[],,,,,,50.0,0.0,i,1.0,False,522.1000001430511,32.0,60.0,40.0,False,,214.64146263071447,[],"[1280, 720]",ColorTask,24.0,80.0,,,HRV,HRV_0055,2022-11-30 19:44:10
,wl-rdm,88,216558,0.0-6.80-0.80,0.0,89.0,,,,,,,[],,,,,,50.0,1.0,i,1.0,True,582.9000000953674,35.0,60.0,40.0,False,,337.78135200437634,[],"[1280, 720]",ColorTask,25.0,81.0,,,HRV,HRV_0055,2022-11-30 19:44:10
,wl-rdm,89,218526,0.0-6.81-0.81,0.0,90.0,,,,,,,[],,,,,,50.0,1.0,u,0.0,False,669.5,41.0,60.0,40.0,False,,209.73186861717656,[],"[1280, 720]",ColorTask,24.0,82.0,,,HRV,HRV_0055,2022-11-30 19:44:10
,wl-rdm,90,220645,0.0-6.82-0.82,0.0,91.0,,,,,,,[],,,,,,73.6,0.0,u,0.0,True,838.7999999523163,51.0,60.0,40.0,False,,202.79811573993013,[],"[1280, 720]",ColorTask,25.0,83.0,,,HRV,HRV_0055,2022-11-30 19:44:10
,wl-rdm,91,222696,0.0-6.83-0.83,0.0,92.0,,,,,,,[],,,,,,73.6,0.0,u,0.0,True,753.0000002384186,46.0,60.0,40.0,False,,227.11012137758237,[],"[1280, 720]",ColorTask,26.0,84.0,,,HRV,HRV_0055,2022-11-30 19:44:10
,wl-rdm,92,224898,0.0-6.84-0.84,0.0,93.0,,,,,,,[],,,,,,53.2,0.0,i,1.0,False,742.5,45.0,60.0,40.0,False,,384.77581476612545,[],"[1280, 720]",ColorTask,25.0,85.0,,,HRV,HRV_0055,2022-11-30 19:44:10
,wl-rdm,93,226800,0.0-6.85-0.85,0.0,94.0,,,,,,,[],,,,,,56.4,1.0,i,1.0,True,544.5000002384186,32.0,60.0,40.0,False,,294.35695642488406,[],"[1280, 720]",ColorTask,26.0,86.0,,,HRV,HRV_0055,2022-11-30 19:44:10
,wl-rdm,94,228718,0.0-6.86-0.86,0.0,95.0,,,,,,,[],,,,,,53.2,1.0,i,1.0,True,486.69999980926514,29.0,60.0,40.0,False,,365.6671918537809,[],"[1280, 720]",ColorTask,27.0,87.0,,,HRV,HRV_0055,2022-11-30 19:44:10
,wl-rdm,95,230636,0.0-6.87-0.87,0.0,96.0,,,,,,,[],,,,,,62.5,1.0,i,1.0,True,471.89999985694885,29.0,60.0,40.0,False,,375.32864809972705,[],"[1280, 720]",ColorTask,28.0,88.0,,,HRV,HRV_0055,2022-11-30 19:44:10
,wl-rdm,96,232421,0.0-6.88-0.88,0.0,97.0,,,,,,,[],,,,,,53.2,1.0,i,1.0,True,482.80000019073486,29.0,60.0,40.0,False,,243.8170998941952,[],"[1280, 720]",ColorTask,29.0,89.0,,,HRV,HRV_0055,2022-11-30 19:44:10
,wl-rdm,97,234373,0.0-6.89-0.89,0.0,98.0,,,,,,,[],,,,,,73.6,0.0,u,0.0,True,579.4000000953674,35.0,60.0,40.0,False,,313.9242503348026,[],"[1280, 720]",ColorTask,30.0,90.0,,,HRV,HRV_0055,2022-11-30 19:44:10
,wl-rdm,98,236324,0.0-6.90-0.90,0.0,99.0,,,,,,,[],,,,,,53.2,0.0,i,1.0,False,619.2000000476837,38.0,60.0,40.0,False,,257.76412658382844,[],"[1280, 720]",ColorTask,29.0,91.0,,,HRV,HRV_0055,2022-11-30 19:44:10
,wl-rdm,99,238126,0.0-6.91-0.91,0.0,100.0,,,,,,,[],,,,,,87.9,0.0,i,1.0,False,429.90000009536743,26.0,60.0,40.0,False,,311.4365023237607,[],"[1280, 720]",ColorTask,28.0,92.0,,,HRV,HRV_0055,2022-11-30 19:44:10
,wl-rdm,100,240044,0.0-6.92-0.92,0.0,101.0,,,,,,,[],,,,,,87.9,0.0,u,0.0,True,600.9000000953674,36.0,60.0,40.0,False,,243.41279148451272,[],"[1280, 720]",ColorTask,29.0,93.0,,,HRV,HRV_0055,2022-11-30 19:44:10
,wl-rdm,101,242029,0.0-6.93-0.93,0.0,102.0,,,,,,,[],,,,,,50.0,1.0,i,1.0,True,543.5999999046326,33.0,60.0,40.0,False,,379.72676065664166,[],"[1280, 720]",ColorTask,30.0,94.0,,,HRV,HRV_0055,2022-11-30 19:44:10
,wl-rdm,102,243897,0.0-6.94-0.94,0.0,103.0,,,,,,,[],,,,,,56.4,1.0,u,0.0,False,571.2999999523163,35.0,60.0,40.0,False,,232.7195480282549,[],"[1280, 720]",ColorTask,29.0,95.0,,,HRV,HRV_0055,2022-11-30 19:44:10
,wl-rdm,103,245682,0.0-6.95-0.95,0.0,104.0,,,,,,,[],,,,,,53.2,0.0,i,1.0,False,461.2999999523163,28.0,60.0,40.0,False,,253.3937011174998,[],"[1280, 720]",ColorTask,28.0,96.0,,,HRV,HRV_0055,2022-11-30 19:44:10
,wl-rdm,104,247450,0.0-6.96-0.96,0.0,105.0,,,,,,,[],,,,,,53.2,1.0,u,0.0,False,440.09999990463257,27.0,60.0,40.0,False,,266.6998857891194,[],"[1280, 720]",ColorTask,27.0,97.0,,,HRV,HRV_0055,2022-11-30 19:44:10
,wl-rdm,105,249235,0.0-6.97-0.97,0.0,106.0,,,,,,,[],,,,,,87.9,0.0,i,1.0,False,446.7999999523163,27.0,60.0,40.0,False,,252.36157745777368,[],"[1280, 720]",ColorTask,26.0,98.0,,,HRV,HRV_0055,2022-11-30 19:44:10
,wl-rdm,106,251220,0.0-6.98-0.98,0.0,107.0,,,,,,,[],,,,,,87.9,0.0,u,0.0,True,587.3999998569489,36.0,60.0,40.0,False,,320.0439470747042,[],"[1280, 720]",ColorTask,27.0,99.0,,,HRV,HRV_0055,2022-11-30 19:44:10
,wl-rdm,107,253305,0.0-6.99-0.99,0.0,108.0,,,,,,,[],,,,,,50.0,0.0,u,0.0,True,609.6000001430511,37.0,60.0,40.0,False,,374.9513721994349,[],"[1280, 720]",ColorTask,28.0,100.0,,,HRV,HRV_0055,2022-11-30 19:44:10
,wl-rdm,108,255207,0.0-6.100-0.100,0.0,109.0,,,,,,,[],,,,,,87.9,0.0,u,0.0,True,589.4000000953674,36.0,60.0,40.0,False,,241.67231530679743,[],"[1280, 720]",ColorTask,29.0,101.0,,,HRV,HRV_0055,2022-11-30 19:44:10
,wl-rdm,109,257376,0.0-6.101-0.101,0.0,110.0,,,,,,,[],,,,,,53.2,1.0,i,1.0,True,738.0,45.0,60.0,40.0,False,,357.7112596197963,[],"[1280, 720]",ColorTask,30.0,102.0,,,HRV,HRV_0055,2022-11-30 19:44:10
,wl-rdm,110,259294,0.0-6.102-0.102,0.0,111.0,,,,,,,[],,,,,,53.2,0.0,u,0.0,True,536.7000000476837,33.0,60.0,40.0,False,,306.3212629221395,[],"[1280, 720]",ColorTask,31.0,103.0,,,HRV,HRV_0055,2022-11-30 19:44:10
,wl-rdm,111,261178,0.0-6.103-0.103,0.0,112.0,,,,,,,[],,,,,,56.4,0.0,i,1.0,False,522.4000000953674,32.0,60.0,40.0,False,,284.8069665187585,[],"[1280, 720]",ColorTask,30.0,104.0,,,HRV,HRV_0055,2022-11-30 19:44:10
,wl-rdm,112,263030,0.0-6.104-0.104,0.0,113.0,,,,,,,[],,,,,,53.2,1.0,u,0.0,False,477.0,29.0,60.0,40.0,False,,315.317050088488,[],"[1280, 720]",ColorTask,29.0,105.0,,,HRV,HRV_0055,2022-11-30 19:44:10
,wl-rdm,113,264849,0.0-6.105-0.105,0.0,114.0,,,,,,,[],,,,,,50.0,1.0,i,1.0,True,388.40000009536743,24.0,60.0,40.0,False,,359.1796917038997,[],"[1280, 720]",ColorTask,30.0,106.0,,,HRV,HRV_0055,2022-11-30 19:44:10
,wl-rdm,114,266767,0.0-6.106-0.106,0.0,115.0,,,,,,,[],,,,,,50.0,0.0,i,1.0,False,606.2999999523163,37.0,60.0,40.0,False,,234.59965598346167,[],"[1280, 720]",ColorTask,29.0,107.0,,,HRV,HRV_0055,2022-11-30 19:44:10
,wl-rdm,115,268735,0.0-6.107-0.107,0.0,116.0,,,,,,,[],,,,,,87.9,1.0,i,1.0,True,691.0999999046326,42.0,60.0,40.0,False,,215.3723343660306,[],"[1280, 720]",ColorTask,30.0,108.0,,,HRV,HRV_0055,2022-11-30 19:44:10
,wl-html-keyboard-response,116,276128,0.0-7.0-0.0,1.0,117.0,,,,,,,,5382.899999856949,1.0,0,,,,,,,,,,,,,,,,,,,,,,HRV,HRV_0055,2022-11-30 19:44:10
,wl-rdm,117,278126,0.0-8.0-0.0,1.0,118.0,,,,,,,[],,,,,,87.9,1.0,i,1.0,True,698.0000002384186,42.0,60.0,40.0,False,,247.09954458212826,[],"[1280, 720]",ColorTask,31.0,1.0,,,HRV,HRV_0055,2022-11-30 19:44:10
,wl-rdm,118,280027,0.0-8.1-0.1,1.0,119.0,,,,,,,[],,,,,,87.9,0.0,u,0.0,True,556.4000000953674,34.0,60.0,40.0,False,,275.0096431319721,[],"[1280, 720]",ColorTask,32.0,2.0,,,HRV,HRV_0055,2022-11-30 19:44:10
,wl-rdm,119,282096,0.0-8.2-0.2,1.0,120.0,,,,,,,[],,,,,,53.2,0.0,i,1.0,False,623.7000000476837,38.0,60.0,40.0,False,,381.63690761179754,[],"[1280, 720]",ColorTask,31.0,3.0,,,HRV,HRV_0055,2022-11-30 19:44:10
,wl-rdm,120,283981,0.0-8.3-0.3,1.0,121.0,,,,,,,[],,,,,,87.9,0.0,u,0.0,True,597.5,36.0,60.0,40.0,False,,228.43447277989105,[],"[1280, 720]",ColorTask,32.0,4.0,,,HRV,HRV_0055,2022-11-30 19:44:10
,wl-rdm,121,285782,0.0-8.4-0.4,1.0,122.0,,,,,,,[],,,,,,87.9,0.0,i,1.0,False,529.9000000953674,32.0,60.0,40.0,False,,213.29351989021706,[],"[1280, 720]",ColorTask,31.0,5.0,,,HRV,HRV_0055,2022-11-30 19:44:10
,wl-rdm,122,287851,0.0-8.5-0.5,1.0,123.0,,,,,,,[],,,,,,62.5,1.0,i,1.0,True,640.2000000476837,39.0,60.0,40.0,False,,341.926667439844,[],"[1280, 720]",ColorTask,32.0,6.0,,,HRV,HRV_0055,2022-11-30 19:44:10
,wl-rdm,123,289869,0.0-8.6-0.6,1.0,124.0,,,,,,,[],,,,,,53.2,0.0,i,1.0,False,618.9999997615814,38.0,60.0,40.0,False,,330.03176067299523,[],"[1280, 720]",ColorTask,31.0,7.0,,,HRV,HRV_0055,2022-11-30 19:44:10
,wl-rdm,124,291804,0.0-8.7-0.7,1.0,125.0,,,,,,,[],,,,,,53.2,0.0,i,1.0,False,538.5,33.0,60.0,40.0,False,,333.4500346247532,[],"[1280, 720]",ColorTask,30.0,8.0,,,HRV,HRV_0055,2022-11-30 19:44:10
,wl-rdm,125,293689,0.0-8.8-0.8,1.0,126.0,,,,,,,[],,,,,,62.5,0.0,i,1.0,False,609.5999999046326,37.0,60.0,40.0,False,,205.7724661371587,[],"[1280, 720]",ColorTask,29.0,9.0,,,HRV,HRV_0055,2022-11-30 19:44:10
,wl-rdm,126,295657,0.0-8.9-0.9,1.0,127.0,,,,,,,[],,,,,,87.9,0.0,u,0.0,True,560.0999999046326,34.0,60.0,40.0,False,,340.6113411590251,[],"[1280, 720]",ColorTask,30.0,10.0,,,HRV,HRV_0055,2022-11-30 19:44:10
,wl-rdm,127,297492,0.0-8.10-0.10,1.0,128.0,,,,,,,[],,,,,,73.6,1.0,i,1.0,True,486.59999990463257,30.0,60.0,40.0,False,,262.99637703273083,[],"[1280, 720]",ColorTask,31.0,11.0,,,HRV,HRV_0055,2022-11-30 19:44:10
,wl-rdm,128,299461,0.0-8.11-0.11,1.0,129.0,,,,,,,[],,,,,,50.0,0.0,u,0.0,True,568.4000000953674,35.0,60.0,40.0,False,,329.2041690444279,[],"[1280, 720]",ColorTask,32.0,12.0,,,HRV,HRV_0055,2022-11-30 19:44:10
,wl-rdm,129,301579,0.0-8.12-0.12,1.0,130.0,,,,,,,[],,,,,,50.0,1.0,u,0.0,False,772.3999998569489,47.0,60.0,40.0,False,,281.0136034398214,[],"[1280, 720]",ColorTask,31.0,13.0,,,HRV,HRV_0055,2022-11-30 19:44:10
,wl-rdm,130,303530,0.0-8.13-0.13,1.0,131.0,,,,,,,[],,,,,,56.4,0.0,i,1.0,False,654.5,40.0,60.0,40.0,False,,219.8168870374265,[],"[1280, 720]",ColorTask,30.0,14.0,,,HRV,HRV_0055,2022-11-30 19:44:10
,wl-rdm,131,305532,0.0-8.14-0.14,1.0,132.0,,,,,,,[],,,,,,56.4,1.0,i,1.0,True,662.7000000476837,40.0,60.0,40.0,False,,278.8325333981725,[],"[1280, 720]",ColorTask,31.0,15.0,,,HRV,HRV_0055,2022-11-30 19:44:10
,wl-rdm,132,307534,0.0-8.15-0.15,1.0,133.0,,,,,,,[],,,,,,50.0,0.0,i,1.0,False,705.3999998569489,42.0,60.0,40.0,False,,232.0724658068391,[],"[1280, 720]",ColorTask,30.0,16.0,,,HRV,HRV_0055,2022-11-30 19:44:10
,wl-rdm,133,309435,0.0-8.16-0.16,1.0,134.0,,,,,,,[],,,,,,53.2,1.0,i,1.0,True,621.7999999523163,38.0,60.0,40.0,False,,216.28311391161256,[],"[1280, 720]",ColorTask,31.0,17.0,,,HRV,HRV_0055,2022-11-30 19:44:10
,wl-rdm,134,311537,0.0-8.17-0.17,1.0,135.0,,,,,,,[],,,,,,56.4,1.0,i,1.0,True,675.5999999046326,41.0,60.0,40.0,False,,329.1867899399942,[],"[1280, 720]",ColorTask,32.0,18.0,,,HRV,HRV_0055,2022-11-30 19:44:10
,wl-rdm,135,313539,0.0-8.18-0.18,1.0,136.0,,,,,,,[],,,,,,87.9,0.0,u,0.0,True,675.6999998092651,41.0,60.0,40.0,False,,235.00201488584588,[],"[1280, 720]",ColorTask,33.0,19.0,,,HRV,HRV_0055,2022-11-30 19:44:10
,wl-rdm,136,315557,0.0-8.19-0.19,1.0,137.0,,,,,,,[],,,,,,73.6,1.0,i,1.0,True,720.2000000476837,44.0,60.0,40.0,False,,219.35869840558053,[],"[1280, 720]",ColorTask,34.0,20.0,,,HRV,HRV_0055,2022-11-30 19:44:10
,wl-rdm,137,317792,0.0-8.20-0.20,1.0,138.0,,,,,,,[],,,,,,53.2,1.0,u,0.0,False,794.1999998092651,48.0,60.0,40.0,False,,379.18625656159276,[],"[1280, 720]",ColorTask,33.0,21.0,,,HRV,HRV_0055,2022-11-30 19:44:10
,wl-rdm,138,319727,0.0-8.21-0.21,1.0,139.0,,,,,,,[],,,,,,62.5,0.0,i,1.0,False,662.5000002384186,40.0,60.0,40.0,False,,204.27299478615691,[],"[1280, 720]",ColorTask,32.0,22.0,,,HRV,HRV_0055,2022-11-30 19:44:10
,wl-rdm,139,321746,0.0-8.22-0.22,1.0,140.0,,,,,,,[],,,,,,53.2,0.0,u,0.0,True,714.0999999046326,43.0,60.0,40.0,False,,247.89500113870957,[],"[1280, 720]",ColorTask,33.0,23.0,,,HRV,HRV_0055,2022-11-30 19:44:10
,wl-rdm,140,323714,0.0-8.23-0.23,1.0,141.0,,,,,,,[],,,,,,53.2,0.0,i,1.0,False,585.1999998092651,36.0,60.0,40.0,False,,307.9356041923163,[],"[1280, 720]",ColorTask,32.0,24.0,,,HRV,HRV_0055,2022-11-30 19:44:10
,wl-rdm,141,325949,0.0-8.24-0.24,1.0,142.0,,,,,,,[],,,,,,50.0,0.0,i,1.0,False,788.2000000476837,47.0,60.0,40.0,False,,376.7010108812381,[],"[1280, 720]",ColorTask,31.0,25.0,,,HRV,HRV_0055,2022-11-30 19:44:10
,wl-rdm,142,327934,0.0-8.25-0.25,1.0,143.0,,,,,,,[],,,,,,73.6,0.0,u,0.0,True,663.5,40.0,60.0,40.0,False,,260.8504116846923,[],"[1280, 720]",ColorTask,32.0,26.0,,,HRV,HRV_0055,2022-11-30 19:44:10
,wl-rdm,143,330236,0.0-8.26-0.26,1.0,144.0,,,,,,,[],,,,,,53.2,1.0,u,0.0,False,1028.6000001430511,62.0,60.0,40.0,False,,209.45725993159726,[],"[1280, 720]",ColorTask,31.0,27.0,,,HRV,HRV_0055,2022-11-30 19:44:10
,wl-rdm,144,332254,0.0-8.27-0.27,1.0,145.0,,,,,,,[],,,,,,62.5,1.0,i,1.0,True,607.4000000953674,37.0,60.0,40.0,False,,334.2288212879047,[],"[1280, 720]",ColorTask,32.0,28.0,,,HRV,HRV_0055,2022-11-30 19:44:10
,wl-rdm,145,334189,0.0-8.28-0.28,1.0,146.0,,,,,,,[],,,,,,56.4,1.0,i,1.0,True,620.5,38.0,60.0,40.0,False,,247.77369457640054,[],"[1280, 720]",ColorTask,33.0,29.0,,,HRV,HRV_0055,2022-11-30 19:44:10
,wl-rdm,146,336224,0.0-8.29-0.29,1.0,147.0,,,,,,,[],,,,,,73.6,1.0,i,1.0,True,607.6999998092651,37.0,60.0,40.0,False,,345.84974045229296,[],"[1280, 720]",ColorTask,34.0,30.0,,,HRV,HRV_0055,2022-11-30 19:44:10
,wl-rdm,147,338159,0.0-8.30-0.30,1.0,148.0,,,,,,,[],,,,,,87.9,0.0,u,0.0,True,551.7999999523163,34.0,60.0,40.0,False,,316.12778954436914,[],"[1280, 720]",ColorTask,35.0,31.0,,,HRV,HRV_0055,2022-11-30 19:44:10
,wl-rdm,148,340177,0.0-8.31-0.31,1.0,149.0,,,,,,,[],,,,,,50.0,0.0,i,1.0,False,694.6000001430511,41.0,60.0,40.0,False,,260.76970822990114,[],"[1280, 720]",ColorTask,34.0,32.0,,,HRV,HRV_0055,2022-11-30 19:44:10
,wl-rdm,149,342062,0.0-8.32-0.32,1.0,150.0,,,,,,,[],,,,,,62.5,0.0,u,0.0,True,554.2999999523163,34.0,60.0,40.0,False,,234.39727157881987,[],"[1280, 720]",ColorTask,35.0,33.0,,,HRV,HRV_0055,2022-11-30 19:44:10
,wl-rdm,150,344064,0.0-8.33-0.33,1.0,151.0,,,,,,,[],,,,,,56.4,0.0,u,0.0,True,665.0,40.0,60.0,40.0,False,,278.63460590911643,[],"[1280, 720]",ColorTask,36.0,34.0,,,HRV,HRV_0055,2022-11-30 19:44:10
,wl-rdm,151,345915,0.0-8.34-0.34,1.0,152.0,,,,,,,[],,,,,,50.0,1.0,i,1.0,True,584.2999999523163,36.0,60.0,40.0,False,,209.3908873971384,[],"[1280, 720]",ColorTask,37.0,35.0,,,HRV,HRV_0055,2022-11-30 19:44:10
,wl-rdm,152,348301,0.0-8.35-0.35,1.0,153.0,,,,,,,[],,,,,,73.6,0.0,u,0.0,True,935.8000001907349,56.0,60.0,40.0,False,,370.6666623190247,[],"[1280, 720]",ColorTask,38.0,36.0,,,HRV,HRV_0055,2022-11-30 19:44:10
,wl-rdm,153,350420,0.0-8.36-0.36,1.0,154.0,,,,,,,[],,,,,,62.5,1.0,u,0.0,False,789.1000001430511,48.0,60.0,40.0,False,,263.5414284895974,[],"[1280, 720]",ColorTask,37.0,37.0,,,HRV,HRV_0055,2022-11-30 19:44:10
,wl-rdm,154,352488,0.0-8.37-0.37,1.0,155.0,,,,,,,[],,,,,,56.4,1.0,i,1.0,True,635.0,39.0,60.0,40.0,False,,361.7288477929684,[],"[1280, 720]",ColorTask,38.0,38.0,,,HRV,HRV_0055,2022-11-30 19:44:10
,wl-rdm,155,354439,0.0-8.38-0.38,1.0,156.0,,,,,,,[],,,,,,87.9,0.0,u,0.0,True,508.2999999523163,29.0,60.0,40.0,False,,374.4752138449328,[],"[1280, 720]",ColorTask,39.0,39.0,,,HRV,HRV_0055,2022-11-30 19:44:10
,wl-rdm,156,356358,0.0-8.39-0.39,1.0,157.0,,,,,,,[],,,,,,62.5,1.0,i,1.0,True,647.1999998092651,39.0,60.0,40.0,False,,206.11112253726048,[],"[1280, 720]",ColorTask,40.0,40.0,,,HRV,HRV_0055,2022-11-30 19:44:10
,wl-rdm,157,358376,0.0-8.40-0.40,1.0,158.0,,,,,,,[],,,,,,62.5,1.0,u,0.0,False,636.7999999523163,38.0,60.0,40.0,False,,305.33081565549935,[],"[1280, 720]",ColorTask,39.0,41.0,,,HRV,HRV_0055,2022-11-30 19:44:10
,wl-rdm,158,360311,0.0-8.41-0.41,1.0,159.0,,,,,,,[],,,,,,62.5,0.0,u,0.0,True,572.1000001430511,35.0,60.0,40.0,False,,286.91081937731906,[],"[1280, 720]",ColorTask,40.0,42.0,,,HRV,HRV_0055,2022-11-30 19:44:10
,wl-rdm,159,362279,0.0-8.42-0.42,1.0,160.0,,,,,,,[],,,,,,53.2,1.0,i,1.0,True,616.7999997138977,37.0,60.0,40.0,False,,298.25308205441047,[],"[1280, 720]",ColorTask,41.0,43.0,,,HRV,HRV_0055,2022-11-30 19:44:10
,wl-rdm,160,364148,0.0-8.43-0.43,1.0,161.0,,,,,,,[],,,,,,87.9,0.0,u,0.0,True,578.0,35.0,60.0,40.0,False,,220.99359362366266,[],"[1280, 720]",ColorTask,42.0,44.0,,,HRV,HRV_0055,2022-11-30 19:44:10
,wl-rdm,161,366049,0.0-8.44-0.44,1.0,162.0,,,,,,,[],,,,,,50.0,1.0,i,1.0,True,580.2000000476837,34.0,60.0,40.0,False,,253.92201603270968,[],"[1280, 720]",ColorTask,43.0,45.0,,,HRV,HRV_0055,2022-11-30 19:44:10
,wl-rdm,162,368268,0.0-8.45-0.45,1.0,163.0,,,,,,,[],,,,,,56.4,1.0,i,1.0,True,935.2999999523163,57.0,60.0,40.0,False,,210.44617037264098,[],"[1280, 720]",ColorTask,44.0,46.0,,,HRV,HRV_0055,2022-11-30 19:44:10
,wl-rdm,163,370369,0.0-8.46-0.46,1.0,164.0,,,,,,,[],,,,,,53.2,0.0,i,1.0,False,660.9000000953674,40.0,60.0,40.0,False,,383.07613117647986,[],"[1280, 720]",ColorTask,43.0,47.0,,,HRV,HRV_0055,2022-11-30 19:44:10
,wl-rdm,164,372421,0.0-8.47-0.47,1.0,165.0,,,,,,,[],,,,,,53.2,1.0,u,0.0,False,693.5,42.0,60.0,40.0,False,,286.13964431932357,[],"[1280, 720]",ColorTask,42.0,48.0,,,HRV,HRV_0055,2022-11-30 19:44:10
,wl-rdm,165,374539,0.0-8.48-0.48,1.0,166.0,,,,,,,[],,,,,,56.4,0.0,i,1.0,False,700.5,41.0,60.0,40.0,False,,341.1306540036085,[],"[1280, 720]",ColorTask,41.0,49.0,,,HRV,HRV_0055,2022-11-30 19:44:10
,wl-rdm,166,376508,0.0-8.49-0.49,1.0,167.0,,,,,,,[],,,,,,56.4,0.0,u,0.0,True,633.3000001907349,38.0,60.0,40.0,False,,276.66842639285716,[],"[1280, 720]",ColorTask,42.0,50.0,,,HRV,HRV_0055,2022-11-30 19:44:10
,wl-rdm,167,378310,0.0-8.50-0.50,1.0,168.0,,,,,,,[],,,,,,53.2,1.0,u,0.0,False,419.40000009536743,26.0,60.0,40.0,False,,284.0516452366512,[],"[1280, 720]",ColorTask,41.0,51.0,,,HRV,HRV_0055,2022-11-30 19:44:10
,wl-rdm,168,380461,0.0-8.51-0.51,1.0,169.0,,,,,,,[],,,,,,73.6,0.0,u,0.0,True,725.7000002861023,44.0,60.0,40.0,False,,353.377847029956,[],"[1280, 720]",ColorTask,42.0,52.0,,,HRV,HRV_0055,2022-11-30 19:44:10
,wl-rdm,169,382763,0.0-8.52-0.52,1.0,170.0,,,,,,,[],,,,,,50.0,1.0,u,0.0,False,940.6000001430511,56.0,60.0,40.0,False,,292.76518638368975,[],"[1280, 720]",ColorTask,41.0,53.0,,,HRV,HRV_0055,2022-11-30 19:44:10
,wl-rdm,170,385032,0.0-8.53-0.53,1.0,171.0,,,,,,,[],,,,,,56.4,0.0,u,0.0,True,874.2000000476837,53.0,60.0,40.0,False,,322.4916460729817,[],"[1280, 720]",ColorTask,42.0,54.0,,,HRV,HRV_0055,2022-11-30 19:44:10
,wl-rdm,171,387350,0.0-8.54-0.54,1.0,172.0,,,,,,,[],,,,,,62.5,0.0,u,0.0,True,1010.7000000476837,60.0,60.0,40.0,False,,247.39614330307262,[],"[1280, 720]",ColorTask,43.0,55.0,,,HRV,HRV_0055,2022-11-30 19:44:10
,wl-rdm,172,389586,0.0-8.55-0.55,1.0,173.0,,,,,,,[],,,,,,62.5,0.0,u,0.0,True,831.1999998092651,50.0,60.0,40.0,False,,340.237368142253,[],"[1280, 720]",ColorTask,44.0,56.0,,,HRV,HRV_0055,2022-11-30 19:44:10
,wl-rdm,173,391637,0.0-8.56-0.56,1.0,174.0,,,,,,,[],,,,,,50.0,1.0,i,1.0,True,706.2000000476837,43.0,60.0,40.0,False,,282.3759073773061,[],"[1280, 720]",ColorTask,45.0,57.0,,,HRV,HRV_0055,2022-11-30 19:44:10
,wl-rdm,174,393756,0.0-8.57-0.57,1.0,175.0,,,,,,,[],,,,,,62.5,0.0,u,0.0,True,769.4000000953674,47.0,60.0,40.0,False,,275.35123769778136,[],"[1280, 720]",ColorTask,46.0,58.0,,,HRV,HRV_0055,2022-11-30 19:44:10
,wl-rdm,175,395874,0.0-8.58-0.58,1.0,176.0,,,,,,,[],,,,,,62.5,1.0,u,0.0,False,788.0000002384186,48.0,60.0,40.0,False,,261.3005237815626,[],"[1280, 720]",ColorTask,45.0,59.0,,,HRV,HRV_0055,2022-11-30 19:44:10
,wl-rdm,176,398109,0.0-8.59-0.59,1.0,177.0,,,,,,,[],,,,,,62.5,0.0,u,0.0,True,844.6000001430511,51.0,60.0,40.0,False,,323.06519710866087,[],"[1280, 720]",ColorTask,46.0,60.0,,,HRV,HRV_0055,2022-11-30 19:44:10
,wl-rdm,177,400311,0.0-8.60-0.60,1.0,178.0,,,,,,,[],,,,,,87.9,0.0,u,0.0,True,828.7999999523163,50.0,60.0,40.0,False,,315.95862345759156,[],"[1280, 720]",ColorTask,47.0,61.0,,,HRV,HRV_0055,2022-11-30 19:44:10
,wl-rdm,178,402346,0.0-8.61-0.61,1.0,179.0,,,,,,,[],,,,,,73.6,1.0,i,1.0,True,718.0999999046326,44.0,60.0,40.0,False,,238.62879630019614,[],"[1280, 720]",ColorTask,48.0,62.0,,,HRV,HRV_0055,2022-11-30 19:44:10
,wl-rdm,179,404381,0.0-8.62-0.62,1.0,180.0,,,,,,,[],,,,,,73.6,0.0,u,0.0,True,688.5000002384186,42.0,60.0,40.0,False,,279.73360755102993,[],"[1280, 720]",ColorTask,49.0,63.0,,,HRV,HRV_0055,2022-11-30 19:44:10
,wl-rdm,180,406566,0.0-8.63-0.63,1.0,181.0,,,,,,,[],,,,,,53.2,1.0,u,0.0,False,801.8000001907349,49.0,60.0,40.0,False,,314.2585210563258,[],"[1280, 720]",ColorTask,48.0,64.0,,,HRV,HRV_0055,2022-11-30 19:44:10
,wl-rdm,181,408768,0.0-8.64-0.64,1.0,182.0,,,,,,,[],,,,,,87.9,1.0,i,1.0,True,736.3000001907349,45.0,60.0,40.0,False,,394.24630693232234,[],"[1280, 720]",ColorTask,49.0,65.0,,,HRV,HRV_0055,2022-11-30 19:44:10
,wl-rdm,182,410786,0.0-8.65-0.65,1.0,183.0,,,,,,,[],,,,,,50.0,0.0,u,0.0,True,711.7999999523163,43.0,60.0,40.0,False,,249.97846913693172,[],"[1280, 720]",ColorTask,50.0,66.0,,,HRV,HRV_0055,2022-11-30 19:44:10
,wl-rdm,183,412938,0.0-8.66-0.66,1.0,184.0,,,,,,,[],,,,,,53.2,1.0,i,1.0,True,795.0999999046326,48.0,60.0,40.0,False,,284.3481082120809,[],"[1280, 720]",ColorTask,51.0,67.0,,,HRV,HRV_0055,2022-11-30 19:44:10
,wl-rdm,184,415307,0.0-8.67-0.67,1.0,185.0,,,,,,,[],,,,,,62.5,0.0,u,0.0,True,932.4999997615814,56.0,60.0,40.0,False,,377.2548698941549,[],"[1280, 720]",ColorTask,52.0,68.0,,,HRV,HRV_0055,2022-11-30 19:44:10
,wl-rdm,185,417926,0.0-8.68-0.68,1.0,186.0,,,,,,,[],,,,,,50.0,1.0,u,0.0,False,1213.7000000476837,73.0,60.0,40.0,False,,368.41863180946297,[],"[1280, 720]",ColorTask,51.0,69.0,,,HRV,HRV_0055,2022-11-30 19:44:10
,wl-rdm,186,419977,0.0-8.69-0.69,1.0,187.0,,,,,,,[],,,,,,87.9,1.0,i,1.0,True,630.3000001907349,38.0,60.0,40.0,False,,364.46731620409344,[],"[1280, 720]",ColorTask,52.0,70.0,,,HRV,HRV_0055,2022-11-30 19:44:10
,wl-rdm,187,422246,0.0-8.70-0.70,1.0,188.0,,,,,,,[],,,,,,56.4,0.0,u,0.0,True,987.4000000953674,59.0,60.0,40.0,False,,217.19928791320055,[],"[1280, 720]",ColorTask,53.0,71.0,,,HRV,HRV_0055,2022-11-30 19:44:10
,wl-rdm,188,424815,0.0-8.71-0.71,1.0,189.0,,,,,,,[],,,,,,62.5,1.0,u,0.0,False,1243.1999998092651,75.0,60.0,40.0,False,,223.96776539254122,[],"[1280, 720]",ColorTask,52.0,72.0,,,HRV,HRV_0055,2022-11-30 19:44:10
,wl-rdm,189,426867,0.0-8.72-0.72,1.0,190.0,,,,,,,[],,,,,,87.9,1.0,i,1.0,True,658.2999999523163,40.0,60.0,40.0,False,,319.2812766824735,[],"[1280, 720]",ColorTask,53.0,73.0,,,HRV,HRV_0055,2022-11-30 19:44:10
,wl-rdm,190,428834,0.0-8.73-0.73,1.0,191.0,,,,,,,[],,,,,,73.6,0.0,u,0.0,True,656.7999999523163,40.0,60.0,40.0,False,,235.46180282832074,[],"[1280, 720]",ColorTask,54.0,74.0,,,HRV,HRV_0055,2022-11-30 19:44:10
,wl-rdm,191,430787,0.0-8.74-0.74,1.0,192.0,,,,,,,[],,,,,,87.9,1.0,i,1.0,True,582.7000000476837,35.0,60.0,40.0,False,,305.0760223780162,[],"[1280, 720]",ColorTask,55.0,75.0,,,HRV,HRV_0055,2022-11-30 19:44:10
,wl-rdm,192,433038,0.0-8.75-0.75,1.0,193.0,,,,,,,[],,,,,,50.0,0.0,u,0.0,True,907.7999997138977,55.0,60.0,40.0,False,,278.9103512922822,[],"[1280, 720]",ColorTask,56.0,76.0,,,HRV,HRV_0055,2022-11-30 19:44:10
,wl-rdm,193,435290,0.0-8.76-0.76,1.0,194.0,,,,,,,[],,,,,,73.6,1.0,i,1.0,True,785.2999999523163,48.0,60.0,40.0,False,,392.2598148843906,[],"[1280, 720]",ColorTask,57.0,77.0,,,HRV,HRV_0055,2022-11-30 19:44:10
,wl-rdm,194,437392,0.0-8.77-0.77,1.0,195.0,,,,,,,[],,,,,,73.6,0.0,u,0.0,True,737.2000000476837,45.0,60.0,40.0,False,,290.03606391868334,[],"[1280, 720]",ColorTask,58.0,78.0,,,HRV,HRV_0055,2022-11-30 19:44:10
,wl-rdm,195,439527,0.0-8.78-0.78,1.0,196.0,,,,,,,[],,,,,,87.9,1.0,i,1.0,True,712.2000000476837,43.0,60.0,40.0,False,,351.0645033727235,[],"[1280, 720]",ColorTask,59.0,79.0,,,HRV,HRV_0055,2022-11-30 19:44:10
,wl-rdm,196,441912,0.0-8.79-0.79,1.0,197.0,,,,,,,[],,,,,,50.0,1.0,u,0.0,False,1025.5999999046326,62.0,60.0,40.0,False,,288.27083204639445,[],"[1280, 720]",ColorTask,58.0,80.0,,,HRV,HRV_0055,2022-11-30 19:44:10
,wl-rdm,197,443864,0.0-8.80-0.80,1.0,198.0,,,,,,,[],,,,,,50.0,0.0,i,1.0,False,628.6999998092651,38.0,60.0,40.0,False,,264.1625233889178,[],"[1280, 720]",ColorTask,57.0,81.0,,,HRV,HRV_0055,2022-11-30 19:44:10
,wl-rdm,198,445231,0.0-8.81-0.81,1.0,198.0,,,,,,,[],,,,,,87.9,1.0,u,0.0,False,63.30000019073486,4.0,60.0,40.0,True,too_early ,247.46320824951175,[],"[1280, 720]",ColorTask,56.0,82.0,,,HRV,HRV_0055,2022-11-30 19:44:10
,wl-rdm,199,447350,0.0-8.82-0.82,1.0,199.0,,,,,,,[],,,,,,62.5,1.0,i,1.0,True,801.5999999046326,49.0,60.0,40.0,False,,236.4931306476752,[],"[1280, 720]",ColorTask,57.0,83.0,,,HRV,HRV_0055,2022-11-30 19:44:10
,wl-rdm,200,449652,0.0-8.83-0.83,1.0,200.0,,,,,,,[],,,,,,53.2,0.0,u,0.0,True,909.3999998569489,55.0,60.0,40.0,False,,320.3083200866654,[],"[1280, 720]",ColorTask,58.0,84.0,,,HRV,HRV_0055,2022-11-30 19:44:10
,wl-rdm,201,452038,0.0-8.84-0.84,1.0,201.0,,,,,,,[],,,,,,56.4,1.0,u,0.0,False,1029.3999998569489,62.0,60.0,40.0,False,,293.37537257529436,[],"[1280, 720]",ColorTask,57.0,85.0,,,HRV,HRV_0055,2022-11-30 19:44:10
,wl-rdm,202,454456,0.0-8.85-0.85,1.0,202.0,,,,,,,[],,,,,,73.6,0.0,u,0.0,True,1002.2000000476837,61.0,60.0,40.0,False,,337.97817568684786,[],"[1280, 720]",ColorTask,58.0,86.0,,,HRV,HRV_0055,2022-11-30 19:44:10
,wl-rdm,203,456424,0.0-8.86-0.86,1.0,203.0,,,,,,,[],,,,,,73.6,1.0,i,1.0,True,649.2999999523163,39.0,60.0,40.0,False,,256.45996929858404,[],"[1280, 720]",ColorTask,59.0,87.0,,,HRV,HRV_0055,2022-11-30 19:44:10
,wl-rdm,204,458693,0.0-8.87-0.87,1.0,204.0,,,,,,,[],,,,,,56.4,0.0,u,0.0,True,819.2000000476837,49.0,60.0,40.0,False,,382.55040255982294,[],"[1280, 720]",ColorTask,60.0,88.0,,,HRV,HRV_0055,2022-11-30 19:44:10
,wl-rdm,205,460878,0.0-8.88-0.88,1.0,205.0,,,,,,,[],,,,,,53.2,1.0,i,1.0,True,794.6999998092651,48.0,60.0,40.0,False,,318.2960488397115,[],"[1280, 720]",ColorTask,61.0,89.0,,,HRV,HRV_0055,2022-11-30 19:44:10
,wl-rdm,206,462980,0.0-8.89-0.89,1.0,206.0,,,,,,,[],,,,,,73.6,1.0,i,1.0,True,637.7999999523163,39.0,60.0,40.0,False,,397.0783073181183,[],"[1280, 720]",ColorTask,62.0,90.0,,,HRV,HRV_0055,2022-11-30 19:44:10
,wl-rdm,207,464898,0.0-8.90-0.90,1.0,207.0,,,,,,,[],,,,,,62.5,1.0,i,1.0,True,583.4000000953674,35.0,60.0,40.0,False,,267.52546749307,[],"[1280, 720]",ColorTask,63.0,91.0,,,HRV,HRV_0055,2022-11-30 19:44:10
,wl-rdm,208,467100,0.0-8.91-0.91,1.0,208.0,,,,,,,[],,,,,,56.4,1.0,u,0.0,False,824.7000000476837,50.0,60.0,40.0,False,,307.25965247495634,[],"[1280, 720]",ColorTask,62.0,92.0,,,HRV,HRV_0055,2022-11-30 19:44:10
,wl-rdm,209,469185,0.0-8.92-0.92,1.0,209.0,,,,,,,[],,,,,,56.4,1.0,u,0.0,False,810.0,48.0,60.0,40.0,False,,212.73132364795487,[],"[1280, 720]",ColorTask,61.0,93.0,,,HRV,HRV_0055,2022-11-30 19:44:10
,wl-rdm,210,471353,0.0-8.93-0.93,1.0,210.0,,,,,,,[],,,,,,56.4,0.0,u,0.0,True,705.4999997615814,43.0,60.0,40.0,False,,394.0199689471586,[],"[1280, 720]",ColorTask,62.0,94.0,,,HRV,HRV_0055,2022-11-30 19:44:10
,wl-rdm,211,473655,0.0-8.94-0.94,1.0,211.0,,,,,,,[],,,,,,53.2,0.0,u,0.0,True,861.7000000476837,52.0,60.0,40.0,False,,368.228445018647,[],"[1280, 720]",ColorTask,63.0,95.0,,,HRV,HRV_0055,2022-11-30 19:44:10
,wl-rdm,212,475557,0.0-8.95-0.95,1.0,212.0,,,,,,,[],,,,,,73.6,1.0,i,1.0,True,625.9000000953674,38.0,60.0,40.0,False,,205.74509972128845,[],"[1280, 720]",ColorTask,64.0,96.0,,,HRV,HRV_0055,2022-11-30 19:44:10
,wl-rdm,213,477742,0.0-8.96-0.96,1.0,213.0,,,,,,,[],,,,,,50.0,0.0,i,1.0,False,886.4000000953674,54.0,60.0,40.0,False,,229.55064636987535,[],"[1280, 720]",ColorTask,63.0,97.0,,,HRV,HRV_0055,2022-11-30 19:44:10
,wl-rdm,214,480061,0.0-8.97-0.97,1.0,214.0,,,,,,,[],,,,,,53.2,0.0,u,0.0,True,880.1000001430511,53.0,60.0,40.0,False,,378.469841275505,[],"[1280, 720]",ColorTask,64.0,98.0,,,HRV,HRV_0055,2022-11-30 19:44:10
,wl-rdm,215,482313,0.0-8.98-0.98,1.0,215.0,,,,,,,[],,,,,,56.4,0.0,u,0.0,True,860.4999997615814,52.0,60.0,40.0,False,,318.70121189908133,[],"[1280, 720]",ColorTask,65.0,99.0,,,HRV,HRV_0055,2022-11-30 19:44:10
,wl-rdm,216,484431,0.0-8.99-0.99,1.0,216.0,,,,,,,[],,,,,,50.0,1.0,u,0.0,False,827.8000001907349,50.0,60.0,40.0,False,,231.4059354700435,[],"[1280, 720]",ColorTask,64.0,100.0,,,HRV,HRV_0055,2022-11-30 19:44:10
,wl-rdm,217,486516,0.0-8.100-0.100,1.0,217.0,,,,,,,[],,,,,,87.9,1.0,i,1.0,True,649.0,39.0,60.0,40.0,False,,377.58698477608067,[],"[1280, 720]",ColorTask,65.0,101.0,,,HRV,HRV_0055,2022-11-30 19:44:10
,wl-rdm,218,488801,0.0-8.101-0.101,1.0,218.0,,,,,,,[],,,,,,56.4,1.0,i,1.0,True,986.7999999523163,60.0,60.0,40.0,False,,223.00581215203658,[],"[1280, 720]",ColorTask,66.0,102.0,,,HRV,HRV_0055,2022-11-30 19:44:10
,wl-rdm,219,490820,0.0-8.102-0.102,1.0,219.0,,,,,,,[],,,,,,50.0,1.0,u,0.0,False,749.6999998092651,45.0,60.0,40.0,False,,204.91152286158314,[],"[1280, 720]",ColorTask,65.0,103.0,,,HRV,HRV_0055,2022-11-30 19:44:10
,wl-rdm,220,492821,0.0-8.103-0.103,1.0,220.0,,,,,,,[],,,,,,73.6,1.0,i,1.0,True,637.5999999046326,39.0,60.0,40.0,False,,284.64626725182654,[],"[1280, 720]",ColorTask,66.0,104.0,,,HRV,HRV_0055,2022-11-30 19:44:10
,wl-rdm,221,494890,0.0-8.104-0.104,1.0,221.0,,,,,,,[],,,,,,73.6,0.0,u,0.0,True,719.8999998569489,44.0,60.0,40.0,False,,266.7674950020952,[],"[1280, 720]",ColorTask,67.0,105.0,,,HRV,HRV_0055,2022-11-30 19:44:10
,wl-rdm,222,496808,0.0-8.105-0.105,1.0,222.0,,,,,,,[],,,,,,87.9,1.0,i,1.0,True,622.9000000953674,38.0,60.0,40.0,False,,211.85559482627775,[],"[1280, 720]",ColorTask,68.0,106.0,,,HRV,HRV_0055,2022-11-30 19:44:10
,wl-rdm,223,498792,0.0-8.106-0.106,1.0,223.0,,,,,,,[],,,,,,87.9,1.0,i,1.0,True,600.3999998569489,36.0,60.0,40.0,False,,312.4640027301493,[],"[1280, 720]",ColorTask,69.0,107.0,,,HRV,HRV_0055,2022-11-30 19:44:10
,wl-rdm,224,501012,0.0-8.107-0.107,1.0,224.0,,,,,,,[],,,,,,50.0,0.0,u,0.0,True,843.5,51.0,60.0,40.0,False,,305.3261236682263,[],"[1280, 720]",ColorTask,70.0,108.0,,,HRV,HRV_0055,2022-11-30 19:44:10
,wl-rdm,225,503130,0.0-8.108-0.108,1.0,225.0,,,,,,,[],,,,,,73.6,0.0,u,0.0,True,781.0,47.0,60.0,40.0,False,,266.9976766379666,[],"[1280, 720]",ColorTask,71.0,109.0,,,HRV,HRV_0055,2022-11-30 19:44:10
,wl-html-button-response,226,508103,0.0-9.0-0.0,,,,,,,,,,4968.0,,0,,,,,,,,,,,,,,,,,,,,<h3>End of this session. Thank you!</h3><br>,['Close window'],HRV,HRV_0055,2022-11-30 19:44:10
