trialN,stimuli,trialStartTime,trialStartTime_UNIX,stimulus1,stimulus2,stimulus1Bid,stimulus2Bid,delta,selected,rt,rt_UNIX,rt_perfnow,receivedResponse,rsp,trialEndTime,trialDuration,trialEndTime_UNIX,trialDuration_UNIX,exp,subjectId,date
0,"[{'imgObject': {}, 'id': 'mashed potato', 'src': '/static/foodstim60/mashed potato.jpg', 'key': 'u', 'origWidth': 409, 'origHeight': 409, 'width': 409, 'height': 409, 'widthPercent': 0.45, 'rescaleHeight': False, 'trialN': 0, 'loaded': True, 'loadedTime': 3548.5, 'positionName': 'LEFT', 'positionCoords': [282.2, 245.5], 'bid': 0.08}, {'imgObject': {}, 'id': 'apple slices', 'src': '/static/foodstim60/apple slices.jpg', 'key': 'i', 'origWidth': 409, 'origHeight': 410, 'width': 409, 'height': 410, 'widthPercent': 0.45, 'rescaleHeight': False, 'trialN': 0, 'loaded': True, 'loadedTime': 3505.300000011921, 'positionName': 'RIGHT', 'positionCoords': [748.8, 245], 'bid': 5}]",3408.9000000059605,1669831053965,mashed potato,apple slices,0.08,5.0,4.92,apple slices,1121.199999988079,1165,1165.0999999940395,True,i,6073.0999999940395,2664.199999988079,1669831056629,2664,HRV,HRV_0105,2022-11-30 18:02:28
1,"[{'imgObject': {}, 'id': 'luckycharms', 'src': '/static/foodstim60/luckycharms.jpg', 'key': 'u', 'origWidth': 410, 'origHeight': 409, 'width': 410, 'height': 409, 'widthPercent': 0.45, 'rescaleHeight': False, 'trialN': 1, 'loaded': True, 'loadedTime': 6136.5, 'positionName': 'LEFT', 'positionCoords': [281.2, 245.5], 'bid': 7.75}, {'imgObject': {}, 'id': 'corn cob', 'src': '/static/foodstim60/corn cob.jpg', 'key': 'i', 'origWidth': 411, 'origHeight': 411, 'width': 411, 'height': 411, 'widthPercent': 0.45, 'rescaleHeight': False, 'trialN': 1, 'loaded': True, 'loadedTime': 6139.300000011921, 'positionName': 'RIGHT', 'positionCoords': [748.8, 244.5], 'bid': 7.72}]",6114.5999999940395,1669831056671,luckycharms,corn cob,7.75,7.72,-0.03000000000000025,corn cob,1610.5,1616,1616.7000000178814,True,i,8236.09999999404,2121.5,1669831058792,2121,HRV,HRV_0105,2022-11-30 18:02:28
2,"[{'imgObject': {}, 'id': 'raspberries', 'src': '/static/foodstim60/raspberries.jpg', 'key': 'u', 'origWidth': 411, 'origHeight': 411, 'width': 411, 'height': 411, 'widthPercent': 0.45, 'rescaleHeight': False, 'trialN': 2, 'loaded': True, 'loadedTime': 8239.09999999404, 'positionName': 'LEFT', 'positionCoords': [280.2, 244.5], 'bid': 0}, {'imgObject': {}, 'id': 'Tribe humus pita', 'src': '/static/foodstim60/Tribe humus pita.jpg', 'key': 'i', 'origWidth': 411, 'origHeight': 411, 'width': 411, 'height': 411, 'widthPercent': 0.45, 'rescaleHeight': False, 'trialN': 2, 'loaded': True, 'loadedTime': 8240, 'positionName': 'RIGHT', 'positionCoords': [748.8, 244.5], 'bid': 0}]",8236.800000011921,1669831058793,raspberries,Tribe humus pita,0.0,0.0,0.0,Tribe humus pita,1257.199999988079,1260,1260.5999999940395,True,i,10002.300000011921,1765.5,1669831060558,1765,HRV,HRV_0105,2022-11-30 18:02:28
3,"[{'imgObject': {}, 'id': 'seaweed', 'src': '/static/foodstim60/seaweed.jpg', 'key': 'u', 'origWidth': 410, 'origHeight': 410, 'width': 410, 'height': 410, 'widthPercent': 0.45, 'rescaleHeight': False, 'trialN': 3, 'loaded': True, 'loadedTime': 10005.300000011921, 'positionName': 'LEFT', 'positionCoords': [281.2, 245], 'bid': 1.9}, {'imgObject': {}, 'id': 'roastedpotatoes', 'src': '/static/foodstim60/roastedpotatoes.jpg', 'key': 'i', 'origWidth': 409, 'origHeight': 410, 'width': 409, 'height': 410, 'widthPercent': 0.45, 'rescaleHeight': False, 'trialN': 3, 'loaded': True, 'loadedTime': 10005.700000017881, 'positionName': 'RIGHT', 'positionCoords': [748.8, 245], 'bid': 7.45}]",10002.90000000596,1669831060559,seaweed,roastedpotatoes,1.9,7.45,5.550000000000001,roastedpotatoes,1064.9000000059605,1074,1074.300000011921,True,i,11582.700000017881,1579.800000011921,1669831062139,1580,HRV,HRV_0105,2022-11-30 18:02:28
4,"[{'imgObject': {}, 'id': 'apple slices', 'src': '/static/foodstim60/apple slices.jpg', 'key': 'u', 'origWidth': 409, 'origHeight': 410, 'width': 409, 'height': 410, 'widthPercent': 0.45, 'rescaleHeight': False, 'trialN': 4, 'loaded': True, 'loadedTime': 11585.5, 'positionName': 'LEFT', 'positionCoords': [282.2, 245], 'bid': 5}, {'imgObject': {}, 'id': 'orange slices', 'src': '/static/foodstim60/orange slices.jpg', 'key': 'i', 'origWidth': 409, 'origHeight': 410, 'width': 409, 'height': 410, 'widthPercent': 0.45, 'rescaleHeight': False, 'trialN': 4, 'loaded': True, 'loadedTime': 11586, 'positionName': 'RIGHT', 'positionCoords': [748.8, 245], 'bid': 9.9}]",11583.40000000596,1669831062139,apple slices,orange slices,5.0,9.9,4.9,orange slices,1015.3000000119209,1019,1018.6999999880791,True,i,13107.0,1523.5999999940395,1669831063663,1524,HRV,HRV_0105,2022-11-30 18:02:28
5,"[{'imgObject': {}, 'id': 'turkey sandwich', 'src': '/static/foodstim60/turkey sandwich.jpg', 'key': 'u', 'origWidth': 409, 'origHeight': 409, 'width': 409, 'height': 409, 'widthPercent': 0.45, 'rescaleHeight': False, 'trialN': 5, 'loaded': True, 'loadedTime': 13110, 'positionName': 'LEFT', 'positionCoords': [282.2, 245.5], 'bid': 9.88}, {'imgObject': {}, 'id': 'lox', 'src': '/static/foodstim60/lox.jpg', 'key': 'i', 'origWidth': 410, 'origHeight': 411, 'width': 410, 'height': 411, 'widthPercent': 0.45, 'rescaleHeight': False, 'trialN': 5, 'loaded': True, 'loadedTime': 13110.5, 'positionName': 'RIGHT', 'positionCoords': [748.8, 244.5], 'bid': 0.05}]",13107.700000017881,1669831063664,turkey sandwich,lox,9.88,0.05,-9.83,turkey sandwich,852.0,855,855.3999999761581,True,u,14466.90000000596,1359.199999988079,1669831065023,1359,HRV,HRV_0105,2022-11-30 18:02:28
6,"[{'imgObject': {}, 'id': 'chickenfingers', 'src': '/static/foodstim60/chickenfingers.jpg', 'key': 'u', 'origWidth': 410, 'origHeight': 410, 'width': 410, 'height': 410, 'widthPercent': 0.45, 'rescaleHeight': False, 'trialN': 6, 'loaded': True, 'loadedTime': 14469.90000000596, 'positionName': 'LEFT', 'positionCoords': [281.2, 245], 'bid': 4.8}, {'imgObject': {}, 'id': 'strawberries', 'src': '/static/foodstim60/strawberries.jpg', 'key': 'i', 'origWidth': 410, 'origHeight': 410, 'width': 410, 'height': 410, 'widthPercent': 0.45, 'rescaleHeight': False, 'trialN': 6, 'loaded': True, 'loadedTime': 14470.59999999404, 'positionName': 'RIGHT', 'positionCoords': [748.8, 245], 'bid': 4.97}]",14467.700000017881,1669831065023,chickenfingers,strawberries,4.8,4.97,0.16999999999999993,strawberries,1117.7999999821186,1122,1121.0999999940395,True,i,16089.800000011921,1622.0999999940395,1669831066645,1622,HRV,HRV_0105,2022-11-30 18:02:28
7,"[{'imgObject': {}, 'id': 'froot loops w milk', 'src': '/static/foodstim60/froot loops w milk.jpg', 'key': 'u', 'origWidth': 410, 'origHeight': 410, 'width': 410, 'height': 410, 'widthPercent': 0.45, 'rescaleHeight': False, 'trialN': 7, 'loaded': True, 'loadedTime': 16092.800000011921, 'positionName': 'LEFT', 'positionCoords': [281.2, 245], 'bid': 0}, {'imgObject': {}, 'id': 'bagel plain', 'src': '/static/foodstim60/bagel plain.jpg', 'key': 'i', 'origWidth': 410, 'origHeight': 410, 'width': 410, 'height': 410, 'widthPercent': 0.45, 'rescaleHeight': False, 'trialN': 7, 'loaded': True, 'loadedTime': 16093.5, 'positionName': 'RIGHT', 'positionCoords': [748.8, 245], 'bid': 0}]",16090.5,1669831066646,froot loops w milk,bagel plain,0.0,0.0,0.0,bagel plain,1239.0,1243,1242.300000011921,True,i,17837.70000001788,1747.2000000178814,1669831068393,1747,HRV,HRV_0105,2022-11-30 18:02:28
8,"[{'imgObject': {}, 'id': 'burger', 'src': '/static/foodstim60/burger.jpg', 'key': 'u', 'origWidth': 409, 'origHeight': 409, 'width': 409, 'height': 409, 'widthPercent': 0.45, 'rescaleHeight': False, 'trialN': 8, 'loaded': True, 'loadedTime': 17840.59999999404, 'positionName': 'LEFT', 'positionCoords': [282.2, 245.5], 'bid': 0.09}, {'imgObject': {}, 'id': 'blackbeanswithrice', 'src': '/static/foodstim60/blackbeanswithrice.jpg', 'key': 'i', 'origWidth': 410, 'origHeight': 410, 'width': 410, 'height': 410, 'widthPercent': 0.45, 'rescaleHeight': False, 'trialN': 8, 'loaded': True, 'loadedTime': 17841.09999999404, 'positionName': 'RIGHT', 'positionCoords': [748.8, 245], 'bid': 0.05}]",17838.5,1669831068394,burger,blackbeanswithrice,0.09,0.05,-0.039999999999999994,blackbeanswithrice,1253.800000011921,1257,1257.300000011921,True,i,19601.0,1762.5,1669831070157,1763,HRV,HRV_0105,2022-11-30 18:02:28
9,"[{'imgObject': {}, 'id': 'chicken nuggets2', 'src': '/static/foodstim60/chicken nuggets2.jpg', 'key': 'u', 'origWidth': 410, 'origHeight': 409, 'width': 410, 'height': 409, 'widthPercent': 0.45, 'rescaleHeight': False, 'trialN': 9, 'loaded': True, 'loadedTime': 19604, 'positionName': 'LEFT', 'positionCoords': [281.2, 245.5], 'bid': 0.06}, {'imgObject': {}, 'id': 'yogurt no spoon', 'src': '/static/foodstim60/yogurt no spoon.jpg', 'key': 'i', 'origWidth': 411, 'origHeight': 410, 'width': 411, 'height': 410, 'widthPercent': 0.45, 'rescaleHeight': False, 'trialN': 9, 'loaded': True, 'loadedTime': 19604.40000000596, 'positionName': 'RIGHT', 'positionCoords': [748.8, 245], 'bid': 0.04}]",19601.59999999404,1669831070157,chicken nuggets2,yogurt no spoon,0.06,0.04,-0.019999999999999997,yogurt no spoon,1576.6000000238419,1583,1582.800000011921,True,i,21687.80000001192,2086.2000000178814,1669831072243,2086,HRV,HRV_0105,2022-11-30 18:02:28
10,"[{'imgObject': {}, 'id': 'sweetpotato', 'src': '/static/foodstim60/sweetpotato.jpg', 'key': 'u', 'origWidth': 410, 'origHeight': 410, 'width': 410, 'height': 410, 'widthPercent': 0.45, 'rescaleHeight': False, 'trialN': 10, 'loaded': True, 'loadedTime': 21690.59999999404, 'positionName': 'LEFT', 'positionCoords': [281.2, 245], 'bid': 0}, {'imgObject': {}, 'id': 'omelette', 'src': '/static/foodstim60/omelette.jpg', 'key': 'i', 'origWidth': 410, 'origHeight': 409, 'width': 410, 'height': 409, 'widthPercent': 0.45, 'rescaleHeight': False, 'trialN': 10, 'loaded': True, 'loadedTime': 21691, 'positionName': 'RIGHT', 'positionCoords': [748.8, 245.5], 'bid': 0}]",21688.40000000596,1669831072244,sweetpotato,omelette,0.0,0.0,0.0,sweetpotato,994.6999999880791,998,997.9000000059605,True,u,23191.20000001788,1502.800000011921,1669831073747,1503,HRV,HRV_0105,2022-11-30 18:02:28
11,"[{'imgObject': {}, 'id': 'burrito', 'src': '/static/foodstim60/burrito.jpg', 'key': 'u', 'origWidth': 410, 'origHeight': 410, 'width': 410, 'height': 410, 'widthPercent': 0.45, 'rescaleHeight': False, 'trialN': 11, 'loaded': True, 'loadedTime': 23193.90000000596, 'positionName': 'LEFT', 'positionCoords': [281.2, 245], 'bid': 0.02}, {'imgObject': {}, 'id': 'fried eggs', 'src': '/static/foodstim60/fried eggs.jpg', 'key': 'i', 'origWidth': 410, 'origHeight': 410, 'width': 410, 'height': 410, 'widthPercent': 0.45, 'rescaleHeight': False, 'trialN': 11, 'loaded': True, 'loadedTime': 23194.70000001788, 'positionName': 'RIGHT', 'positionCoords': [748.8, 245], 'bid': 0.02}]",23191.80000001192,1669831073747,burrito,fried eggs,0.02,0.02,0.0,fried eggs,1933.199999988079,1937,1936.4000000059605,True,i,25633.20000001788,2441.4000000059605,1669831076189,2442,HRV,HRV_0105,2022-11-30 18:02:28
12,"[{'imgObject': {}, 'id': 'ice cream sundae 002', 'src': '/static/foodstim60/ice cream sundae 002.jpg', 'key': 'u', 'origWidth': 409, 'origHeight': 409, 'width': 409, 'height': 409, 'widthPercent': 0.45, 'rescaleHeight': False, 'trialN': 12, 'loaded': True, 'loadedTime': 25635.90000000596, 'positionName': 'LEFT', 'positionCoords': [282.2, 245.5], 'bid': 0}, {'imgObject': {}, 'id': 'raisin bran w milk', 'src': '/static/foodstim60/raisin bran w milk.jpg', 'key': 'i', 'origWidth': 411, 'origHeight': 411, 'width': 411, 'height': 411, 'widthPercent': 0.45, 'rescaleHeight': False, 'trialN': 12, 'loaded': True, 'loadedTime': 25636.70000001788, 'positionName': 'RIGHT', 'positionCoords': [748.8, 244.5], 'bid': 0}]",25633.80000001192,1669831076189,ice cream sundae 002,raisin bran w milk,0.0,0.0,0.0,ice cream sundae 002,1874.0999999940395,1878,1877.5999999940395,True,u,28016.59999999404,2382.7999999821186,1669831078572,2383,HRV,HRV_0105,2022-11-30 18:02:28
13,"[{'imgObject': {}, 'id': 'eggs', 'src': '/static/foodstim60/eggs.jpg', 'key': 'u', 'origWidth': 409, 'origHeight': 409, 'width': 409, 'height': 409, 'widthPercent': 0.45, 'rescaleHeight': False, 'trialN': 13, 'loaded': True, 'loadedTime': 28019.5, 'positionName': 'LEFT', 'positionCoords': [282.2, 245.5], 'bid': 0.04}, {'imgObject': {}, 'id': 'ice cream sundae 002', 'src': '/static/foodstim60/ice cream sundae 002.jpg', 'key': 'i', 'origWidth': 409, 'origHeight': 409, 'width': 409, 'height': 409, 'widthPercent': 0.45, 'rescaleHeight': False, 'trialN': 13, 'loaded': True, 'loadedTime': 28019.90000000596, 'positionName': 'RIGHT', 'positionCoords': [748.8, 245.5], 'bid': 0}]",28017.20000001788,1669831078573,eggs,ice cream sundae 002,0.04,0.0,-0.04,ice cream sundae 002,1051.5,1054,1054.7999999821186,True,i,29572.40000000596,1555.199999988079,1669831080128,1555,HRV,HRV_0105,2022-11-30 18:02:28
14,"[{'imgObject': {}, 'id': 'salmon', 'src': '/static/foodstim60/salmon.jpg', 'key': 'u', 'origWidth': 410, 'origHeight': 409, 'width': 410, 'height': 409, 'widthPercent': 0.45, 'rescaleHeight': False, 'trialN': 14, 'loaded': True, 'loadedTime': 29575.20000001788, 'positionName': 'LEFT', 'positionCoords': [281.2, 245.5], 'bid': 0.02}, {'imgObject': {}, 'id': 'cocktailshrimp', 'src': '/static/foodstim60/cocktailshrimp.jpg', 'key': 'i', 'origWidth': 410, 'origHeight': 410, 'width': 410, 'height': 410, 'widthPercent': 0.45, 'rescaleHeight': False, 'trialN': 14, 'loaded': True, 'loadedTime': 29575.5, 'positionName': 'RIGHT', 'positionCoords': [748.8, 245], 'bid': 0.02}]",29573.09999999404,1669831080128,salmon,cocktailshrimp,0.02,0.02,0.0,salmon,1515.6000000238419,1519,1518.5,True,u,31597.0,2023.9000000059605,1669831082152,2024,HRV,HRV_0105,2022-11-30 18:02:28
15,"[{'imgObject': {}, 'id': 'banana', 'src': '/static/foodstim60/banana.jpg', 'key': 'u', 'origWidth': 410, 'origHeight': 410, 'width': 410, 'height': 410, 'widthPercent': 0.45, 'rescaleHeight': False, 'trialN': 15, 'loaded': True, 'loadedTime': 31599.70000001788, 'positionName': 'LEFT', 'positionCoords': [281.2, 245], 'bid': 5}, {'imgObject': {}, 'id': 'salmon', 'src': '/static/foodstim60/salmon.jpg', 'key': 'i', 'origWidth': 410, 'origHeight': 409, 'width': 410, 'height': 409, 'widthPercent': 0.45, 'rescaleHeight': False, 'trialN': 15, 'loaded': True, 'loadedTime': 31600.40000000596, 'positionName': 'RIGHT', 'positionCoords': [748.8, 245.5], 'bid': 0.02}]",31597.5,1669831082153,banana,salmon,5.0,0.02,-4.98,banana,124.09999999403954,130,130.40000000596046,True,u,32233.09999999404,635.5999999940395,1669831082788,635,HRV,HRV_0105,2022-11-30 18:02:28
16,"[{'imgObject': {}, 'id': 'popsicles', 'src': '/static/foodstim60/popsicles.jpg', 'key': 'u', 'origWidth': 410, 'origHeight': 410, 'width': 410, 'height': 410, 'widthPercent': 0.45, 'rescaleHeight': False, 'trialN': 16, 'loaded': True, 'loadedTime': 32236, 'positionName': 'LEFT', 'positionCoords': [281.2, 245], 'bid': 2.94}, {'imgObject': {}, 'id': 'burger', 'src': '/static/foodstim60/burger.jpg', 'key': 'i', 'origWidth': 409, 'origHeight': 409, 'width': 409, 'height': 409, 'widthPercent': 0.45, 'rescaleHeight': False, 'trialN': 16, 'loaded': True, 'loadedTime': 32236.70000001788, 'positionName': 'RIGHT', 'positionCoords': [748.8, 245.5], 'bid': 0.09}]",32233.80000001192,1669831082789,popsicles,burger,2.94,0.09,-2.85,popsicles,1758.699999988079,1762,1762.0999999940395,True,u,34500.59999999404,2266.7999999821186,1669831085056,2267,HRV,HRV_0105,2022-11-30 18:02:28
17,"[{'imgObject': {}, 'id': 'sushi w_condiments', 'src': '/static/foodstim60/sushi w_condiments.jpg', 'key': 'u', 'origWidth': 410, 'origHeight': 410, 'width': 410, 'height': 410, 'widthPercent': 0.45, 'rescaleHeight': False, 'trialN': 17, 'loaded': True, 'loadedTime': 34503.40000000596, 'positionName': 'LEFT', 'positionCoords': [281.2, 245], 'bid': 4.95}, {'imgObject': {}, 'id': 'tacos', 'src': '/static/foodstim60/tacos.jpg', 'key': 'i', 'origWidth': 411, 'origHeight': 411, 'width': 411, 'height': 411, 'widthPercent': 0.45, 'rescaleHeight': False, 'trialN': 17, 'loaded': True, 'loadedTime': 34503.90000000596, 'positionName': 'RIGHT', 'positionCoords': [748.8, 244.5], 'bid': 0.06}]",34501.30000001192,1669831085056,sushi w_condiments,tacos,4.95,0.06,-4.890000000000001,sushi w_condiments,821.0999999940395,825,824.2999999821186,True,u,35830.5,1329.199999988079,1669831086386,1330,HRV,HRV_0105,2022-11-30 18:02:28
18,"[{'imgObject': {}, 'id': 'granola w milk', 'src': '/static/foodstim60/granola w milk.jpg', 'key': 'u', 'origWidth': 410, 'origHeight': 410, 'width': 410, 'height': 410, 'widthPercent': 0.45, 'rescaleHeight': False, 'trialN': 18, 'loaded': True, 'loadedTime': 35833.30000001192, 'positionName': 'LEFT', 'positionCoords': [281.2, 245], 'bid': 0.01}, {'imgObject': {}, 'id': 'salad w chicken', 'src': '/static/foodstim60/salad w chicken.jpg', 'key': 'i', 'origWidth': 411, 'origHeight': 411, 'width': 411, 'height': 411, 'widthPercent': 0.45, 'rescaleHeight': False, 'trialN': 18, 'loaded': True, 'loadedTime': 35833.59999999404, 'positionName': 'RIGHT', 'positionCoords': [748.8, 244.5], 'bid': 0.01}]",35831.20000001788,1669831086386,granola w milk,salad w chicken,0.01,0.01,0.0,granola w milk,1408.0999999940395,1412,1411.5,True,u,37743.20000001788,1912.0,1669831088298,1912,HRV,HRV_0105,2022-11-30 18:02:28
19,"[{'imgObject': {}, 'id': 'roastedpotatoes', 'src': '/static/foodstim60/roastedpotatoes.jpg', 'key': 'u', 'origWidth': 409, 'origHeight': 410, 'width': 409, 'height': 410, 'widthPercent': 0.45, 'rescaleHeight': False, 'trialN': 19, 'loaded': True, 'loadedTime': 37745.90000000596, 'positionName': 'LEFT', 'positionCoords': [282.2, 245], 'bid': 7.45}, {'imgObject': {}, 'id': 'pear', 'src': '/static/foodstim60/pear.jpg', 'key': 'i', 'origWidth': 411, 'origHeight': 410, 'width': 411, 'height': 410, 'widthPercent': 0.45, 'rescaleHeight': False, 'trialN': 19, 'loaded': True, 'loadedTime': 37746.30000001192, 'positionName': 'RIGHT', 'positionCoords': [748.8, 245], 'bid': 5.0200000000000005}]",37743.70000001788,1669831088299,roastedpotatoes,pear,7.45,5.0200000000000005,-2.4299999999999997,roastedpotatoes,1094.5,1097,1097.3999999761581,True,u,39346.09999999404,1602.3999999761581,1669831089901,1602,HRV,HRV_0105,2022-11-30 18:02:28
20,"[{'imgObject': {}, 'id': 'salmon', 'src': '/static/foodstim60/salmon.jpg', 'key': 'u', 'origWidth': 410, 'origHeight': 409, 'width': 410, 'height': 409, 'widthPercent': 0.45, 'rescaleHeight': False, 'trialN': 20, 'loaded': True, 'loadedTime': 39348.90000000596, 'positionName': 'LEFT', 'positionCoords': [281.2, 245.5], 'bid': 0.02}, {'imgObject': {}, 'id': 'omelette', 'src': '/static/foodstim60/omelette.jpg', 'key': 'i', 'origWidth': 410, 'origHeight': 409, 'width': 410, 'height': 409, 'widthPercent': 0.45, 'rescaleHeight': False, 'trialN': 20, 'loaded': True, 'loadedTime': 39349.70000001788, 'positionName': 'RIGHT', 'positionCoords': [748.8, 245.5], 'bid': 0}]",39346.59999999404,1669831089902,salmon,omelette,0.02,0.0,-0.02,salmon,775.5,778,778.8000000119209,True,u,40630.30000001192,1283.7000000178814,1669831091185,1283,HRV,HRV_0105,2022-11-30 18:02:28
21,"[{'imgObject': {}, 'id': 'turkeysandwich', 'src': '/static/foodstim60/turkeysandwich.jpg', 'key': 'u', 'origWidth': 409, 'origHeight': 409, 'width': 409, 'height': 409, 'widthPercent': 0.45, 'rescaleHeight': False, 'trialN': 21, 'loaded': True, 'loadedTime': 40633, 'positionName': 'LEFT', 'positionCoords': [282.2, 245.5], 'bid': 2.37}, {'imgObject': {}, 'id': 'avocado', 'src': '/static/foodstim60/avocado.jpg', 'key': 'i', 'origWidth': 409, 'origHeight': 409, 'width': 409, 'height': 409, 'widthPercent': 0.45, 'rescaleHeight': False, 'trialN': 21, 'loaded': True, 'loadedTime': 40633.80000001192, 'positionName': 'RIGHT', 'positionCoords': [748.8, 245.5], 'bid': 0}]",40630.90000000596,1669831091186,turkeysandwich,avocado,2.37,0.0,-2.37,turkeysandwich,994.0,997,997.5999999940395,True,u,42133.0,1502.0999999940395,1669831092688,1502,HRV,HRV_0105,2022-11-30 18:02:28
22,"[{'imgObject': {}, 'id': 'salmon', 'src': '/static/foodstim60/salmon.jpg', 'key': 'u', 'origWidth': 410, 'origHeight': 409, 'width': 410, 'height': 409, 'widthPercent': 0.45, 'rescaleHeight': False, 'trialN': 22, 'loaded': True, 'loadedTime': 42135.90000000596, 'positionName': 'LEFT', 'positionCoords': [281.2, 245.5], 'bid': 0.02}, {'imgObject': {}, 'id': 'rigatoni', 'src': '/static/foodstim60/rigatoni.jpg', 'key': 'i', 'origWidth': 411, 'origHeight': 411, 'width': 411, 'height': 411, 'widthPercent': 0.45, 'rescaleHeight': False, 'trialN': 22, 'loaded': True, 'loadedTime': 42136.20000001788, 'positionName': 'RIGHT', 'positionCoords': [748.8, 244.5], 'bid': 0}]",42133.59999999404,1669831092688,salmon,rigatoni,0.02,0.0,-0.02,salmon,949.2000000178814,955,955.0,True,u,43589.40000000596,1455.800000011921,1669831094144,1456,HRV,HRV_0105,2022-11-30 18:02:28
23,"[{'imgObject': {}, 'id': 'bagel and cc', 'src': '/static/foodstim60/bagel and cc.jpg', 'key': 'u', 'origWidth': 410, 'origHeight': 410, 'width': 410, 'height': 410, 'widthPercent': 0.45, 'rescaleHeight': False, 'trialN': 23, 'loaded': True, 'loadedTime': 43592.20000001788, 'positionName': 'LEFT', 'positionCoords': [281.2, 245], 'bid': 0.09}, {'imgObject': {}, 'id': 'roastedpotatoes', 'src': '/static/foodstim60/roastedpotatoes.jpg', 'key': 'i', 'origWidth': 409, 'origHeight': 410, 'width': 409, 'height': 410, 'widthPercent': 0.45, 'rescaleHeight': False, 'trialN': 23, 'loaded': True, 'loadedTime': 43592.59999999404, 'positionName': 'RIGHT', 'positionCoords': [748.8, 245], 'bid': 7.45}]",43590.0,1669831094145,bagel and cc,roastedpotatoes,0.09,7.45,7.36,roastedpotatoes,931.8000000119209,935,935.2000000178814,True,i,45027.5,1437.5,1669831095582,1437,HRV,HRV_0105,2022-11-30 18:02:28
24,"[{'imgObject': {}, 'id': 'edamame', 'src': '/static/foodstim60/edamame.jpg', 'key': 'u', 'origWidth': 409, 'origHeight': 410, 'width': 409, 'height': 410, 'widthPercent': 0.45, 'rescaleHeight': False, 'trialN': 24, 'loaded': True, 'loadedTime': 45030.90000000596, 'positionName': 'LEFT', 'positionCoords': [282.2, 245], 'bid': 0.02}, {'imgObject': {}, 'id': 'grilled chicken strips', 'src': '/static/foodstim60/grilled chicken strips.jpg', 'key': 'i', 'origWidth': 410, 'origHeight': 411, 'width': 410, 'height': 411, 'widthPercent': 0.45, 'rescaleHeight': False, 'trialN': 24, 'loaded': True, 'loadedTime': 45031.40000000596, 'positionName': 'RIGHT', 'positionCoords': [748.8, 244.5], 'bid': 0.02}]",45028.20000001788,1669831095583,edamame,grilled chicken strips,0.02,0.02,0.0,grilled chicken strips,1237.5,1241,1241.0,True,i,46769.5,1741.2999999821186,1669831097324,1741,HRV,HRV_0105,2022-11-30 18:02:28
25,"[{'imgObject': {}, 'id': 'avocado', 'src': '/static/foodstim60/avocado.jpg', 'key': 'u', 'origWidth': 409, 'origHeight': 409, 'width': 409, 'height': 409, 'widthPercent': 0.45, 'rescaleHeight': False, 'trialN': 25, 'loaded': True, 'loadedTime': 46772.20000001788, 'positionName': 'LEFT', 'positionCoords': [282.2, 245.5], 'bid': 0}, {'imgObject': {}, 'id': 'cheerios', 'src': '/static/foodstim60/cheerios.jpg', 'key': 'i', 'origWidth': 409, 'origHeight': 410, 'width': 409, 'height': 410, 'widthPercent': 0.45, 'rescaleHeight': False, 'trialN': 25, 'loaded': True, 'loadedTime': 46773, 'positionName': 'RIGHT', 'positionCoords': [748.8, 245], 'bid': 0}]",46770.09999999404,1669831097325,avocado,cheerios,0.0,0.0,0.0,avocado,1010.5,1014,1013.8000000119209,True,u,48285.20000001788,1515.1000000238419,1669831098840,1515,HRV,HRV_0105,2022-11-30 18:02:28
26,"[{'imgObject': {}, 'id': 'salmon', 'src': '/static/foodstim60/salmon.jpg', 'key': 'u', 'origWidth': 410, 'origHeight': 409, 'width': 410, 'height': 409, 'widthPercent': 0.45, 'rescaleHeight': False, 'trialN': 26, 'loaded': True, 'loadedTime': 48288, 'positionName': 'LEFT', 'positionCoords': [281.2, 245.5], 'bid': 0.02}, {'imgObject': {}, 'id': 'avocado', 'src': '/static/foodstim60/avocado.jpg', 'key': 'i', 'origWidth': 409, 'origHeight': 409, 'width': 409, 'height': 409, 'widthPercent': 0.45, 'rescaleHeight': False, 'trialN': 26, 'loaded': True, 'loadedTime': 48288.5, 'positionName': 'RIGHT', 'positionCoords': [748.8, 245.5], 'bid': 0}]",48285.80000001192,1669831098840,salmon,avocado,0.02,0.0,-0.02,avocado,1450.699999988079,1454,1454.0,True,i,50244.70000001788,1958.9000000059605,1669831100799,1959,HRV,HRV_0105,2022-11-30 18:02:28
27,"[{'imgObject': {}, 'id': 'chickenfingers', 'src': '/static/foodstim60/chickenfingers.jpg', 'key': 'u', 'origWidth': 410, 'origHeight': 410, 'width': 410, 'height': 410, 'widthPercent': 0.45, 'rescaleHeight': False, 'trialN': 27, 'loaded': True, 'loadedTime': 50247.59999999404, 'positionName': 'LEFT', 'positionCoords': [281.2, 245], 'bid': 4.8}, {'imgObject': {}, 'id': 'Grapes', 'src': '/static/foodstim60/Grapes.jpg', 'key': 'i', 'origWidth': 411, 'origHeight': 411, 'width': 411, 'height': 411, 'widthPercent': 0.45, 'rescaleHeight': False, 'trialN': 27, 'loaded': True, 'loadedTime': 50248, 'positionName': 'RIGHT', 'positionCoords': [748.8, 244.5], 'bid': 9.86}]",50245.30000001192,1669831100800,chickenfingers,Grapes,4.8,9.86,5.06,Grapes,823.0999999940395,826,826.6999999880791,True,i,51574.30000001192,1329.0,1669831102129,1329,HRV,HRV_0105,2022-11-30 18:02:28
28,"[{'imgObject': {}, 'id': 'popsicles', 'src': '/static/foodstim60/popsicles.jpg', 'key': 'u', 'origWidth': 410, 'origHeight': 410, 'width': 410, 'height': 410, 'widthPercent': 0.45, 'rescaleHeight': False, 'trialN': 28, 'loaded': True, 'loadedTime': 51577, 'positionName': 'LEFT', 'positionCoords': [281.2, 245], 'bid': 2.94}, {'imgObject': {}, 'id': 'sushi w_condiments', 'src': '/static/foodstim60/sushi w_condiments.jpg', 'key': 'i', 'origWidth': 410, 'origHeight': 410, 'width': 410, 'height': 410, 'widthPercent': 0.45, 'rescaleHeight': False, 'trialN': 28, 'loaded': True, 'loadedTime': 51577.70000001788, 'positionName': 'RIGHT', 'positionCoords': [748.8, 245], 'bid': 4.95}]",51574.90000000596,1669831102129,popsicles,sushi w_condiments,2.94,4.95,2.0100000000000002,sushi w_condiments,1002.4000000059605,1006,1005.5,True,i,53083.0,1508.0999999940395,1669831103637,1508,HRV,HRV_0105,2022-11-30 18:02:28
29,"[{'imgObject': {}, 'id': 'burrito', 'src': '/static/foodstim60/burrito.jpg', 'key': 'u', 'origWidth': 410, 'origHeight': 410, 'width': 410, 'height': 410, 'widthPercent': 0.45, 'rescaleHeight': False, 'trialN': 29, 'loaded': True, 'loadedTime': 53085.70000001788, 'positionName': 'LEFT', 'positionCoords': [281.2, 245], 'bid': 0.02}, {'imgObject': {}, 'id': 'salmon', 'src': '/static/foodstim60/salmon.jpg', 'key': 'i', 'origWidth': 410, 'origHeight': 409, 'width': 410, 'height': 409, 'widthPercent': 0.45, 'rescaleHeight': False, 'trialN': 29, 'loaded': True, 'loadedTime': 53086.40000000596, 'positionName': 'RIGHT', 'positionCoords': [748.8, 245.5], 'bid': 0.02}]",53083.5,1669831103638,burrito,salmon,0.02,0.02,0.0,salmon,992.7000000178814,998,998.4000000059605,True,i,54586.80000001192,1503.300000011921,1669831105141,1503,HRV,HRV_0105,2022-11-30 18:02:28
30,"[{'imgObject': {}, 'id': 'mango', 'src': '/static/foodstim60/mango.jpg', 'key': 'u', 'origWidth': 411, 'origHeight': 411, 'width': 411, 'height': 411, 'widthPercent': 0.45, 'rescaleHeight': False, 'trialN': 30, 'loaded': True, 'loadedTime': 54589.5, 'positionName': 'LEFT', 'positionCoords': [280.2, 244.5], 'bid': 0.08}, {'imgObject': {}, 'id': 'eggs', 'src': '/static/foodstim60/eggs.jpg', 'key': 'i', 'origWidth': 409, 'origHeight': 409, 'width': 409, 'height': 409, 'widthPercent': 0.45, 'rescaleHeight': False, 'trialN': 30, 'loaded': True, 'loadedTime': 54589.90000000596, 'positionName': 'RIGHT', 'positionCoords': [748.8, 245.5], 'bid': 0.04}]",54587.40000000596,1669831105142,mango,eggs,0.08,0.04,-0.04,mango,1189.699999988079,1192,1192.9000000059605,True,u,56283.0,1695.5999999940395,1669831106837,1695,HRV,HRV_0105,2022-11-30 18:02:28
31,"[{'imgObject': {}, 'id': 'veggieswithdip', 'src': '/static/foodstim60/veggieswithdip.jpg', 'key': 'u', 'origWidth': 409, 'origHeight': 409, 'width': 409, 'height': 409, 'widthPercent': 0.45, 'rescaleHeight': False, 'trialN': 31, 'loaded': True, 'loadedTime': 56285.80000001192, 'positionName': 'LEFT', 'positionCoords': [282.2, 245.5], 'bid': 0.06}, {'imgObject': {}, 'id': 'steak', 'src': '/static/foodstim60/steak.jpg', 'key': 'i', 'origWidth': 410, 'origHeight': 410, 'width': 410, 'height': 410, 'widthPercent': 0.45, 'rescaleHeight': False, 'trialN': 31, 'loaded': True, 'loadedTime': 56286.20000001788, 'positionName': 'RIGHT', 'positionCoords': [748.8, 245], 'bid': 9.9}]",56283.5,1669831106838,veggieswithdip,steak,0.06,9.9,9.84,steak,746.5,750,749.9000000059605,True,i,57533.59999999404,1250.0999999940395,1669831108088,1250,HRV,HRV_0105,2022-11-30 18:02:28
32,"[{'imgObject': {}, 'id': 'pear', 'src': '/static/foodstim60/pear.jpg', 'key': 'u', 'origWidth': 411, 'origHeight': 410, 'width': 411, 'height': 410, 'widthPercent': 0.45, 'rescaleHeight': False, 'trialN': 32, 'loaded': True, 'loadedTime': 57536.40000000596, 'positionName': 'LEFT', 'positionCoords': [280.2, 245], 'bid': 5.0200000000000005}, {'imgObject': {}, 'id': 'cherry tomato', 'src': '/static/foodstim60/cherry tomato.jpg', 'key': 'i', 'origWidth': 410, 'origHeight': 410, 'width': 410, 'height': 410, 'widthPercent': 0.45, 'rescaleHeight': False, 'trialN': 32, 'loaded': True, 'loadedTime': 57536.80000001192, 'positionName': 'RIGHT', 'positionCoords': [748.8, 245], 'bid': 1.86}]",57534.30000001192,1669831108088,pear,cherry tomato,5.0200000000000005,1.86,-3.16,pear,1116.699999988079,1120,1120.0,True,u,59157.09999999404,1622.7999999821186,1669831109711,1623,HRV,HRV_0105,2022-11-30 18:02:28
33,"[{'imgObject': {}, 'id': 'olives', 'src': '/static/foodstim60/olives.jpg', 'key': 'u', 'origWidth': 410, 'origHeight': 410, 'width': 410, 'height': 410, 'widthPercent': 0.45, 'rescaleHeight': False, 'trialN': 33, 'loaded': True, 'loadedTime': 59160, 'positionName': 'LEFT', 'positionCoords': [281.2, 245], 'bid': 0.01}, {'imgObject': {}, 'id': 'cantaloupe', 'src': '/static/foodstim60/cantaloupe.jpg', 'key': 'i', 'origWidth': 409, 'origHeight': 409, 'width': 409, 'height': 409, 'widthPercent': 0.45, 'rescaleHeight': False, 'trialN': 33, 'loaded': True, 'loadedTime': 59160.90000000596, 'positionName': 'RIGHT', 'positionCoords': [748.8, 245.5], 'bid': 0.02}]",59157.90000000596,1669831109712,olives,cantaloupe,0.01,0.02,0.01,cantaloupe,921.0,924,924.1999999880791,True,i,60587.0,1429.0999999940395,1669831111141,1429,HRV,HRV_0105,2022-11-30 18:02:28
34,"[{'imgObject': {}, 'id': 'raspberries', 'src': '/static/foodstim60/raspberries.jpg', 'key': 'u', 'origWidth': 411, 'origHeight': 411, 'width': 411, 'height': 411, 'widthPercent': 0.45, 'rescaleHeight': False, 'trialN': 34, 'loaded': True, 'loadedTime': 60589.70000001788, 'positionName': 'LEFT', 'positionCoords': [280.2, 244.5], 'bid': 0}, {'imgObject': {}, 'id': 'chicken nuggets2', 'src': '/static/foodstim60/chicken nuggets2.jpg', 'key': 'i', 'origWidth': 410, 'origHeight': 409, 'width': 410, 'height': 409, 'widthPercent': 0.45, 'rescaleHeight': False, 'trialN': 34, 'loaded': True, 'loadedTime': 60590.40000000596, 'positionName': 'RIGHT', 'positionCoords': [748.8, 245.5], 'bid': 0.06}]",60587.5,1669831111142,raspberries,chicken nuggets2,0.0,0.06,0.06,raspberries,1855.300000011921,1858,1858.5999999940395,True,u,62951.0,2363.5,1669831113505,2363,HRV,HRV_0105,2022-11-30 18:02:28
35,"[{'imgObject': {}, 'id': 'rigatoni', 'src': '/static/foodstim60/rigatoni.jpg', 'key': 'u', 'origWidth': 411, 'origHeight': 411, 'width': 411, 'height': 411, 'widthPercent': 0.45, 'rescaleHeight': False, 'trialN': 35, 'loaded': True, 'loadedTime': 62953.80000001192, 'positionName': 'LEFT', 'positionCoords': [280.2, 244.5], 'bid': 0}, {'imgObject': {}, 'id': 'hashbrowns', 'src': '/static/foodstim60/hashbrowns.jpg', 'key': 'i', 'origWidth': 411, 'origHeight': 410, 'width': 411, 'height': 410, 'widthPercent': 0.45, 'rescaleHeight': False, 'trialN': 35, 'loaded': True, 'loadedTime': 62954.20000001788, 'positionName': 'RIGHT', 'positionCoords': [748.8, 245], 'bid': 0}]",62951.59999999404,1669831113506,rigatoni,hashbrowns,0.0,0.0,0.0,rigatoni,1284.0,1289,1289.9000000059605,True,u,64746.30000001192,1794.7000000178814,1669831115300,1794,HRV,HRV_0105,2022-11-30 18:02:28
36,"[{'imgObject': {}, 'id': 'luckycharms', 'src': '/static/foodstim60/luckycharms.jpg', 'key': 'u', 'origWidth': 410, 'origHeight': 409, 'width': 410, 'height': 409, 'widthPercent': 0.45, 'rescaleHeight': False, 'trialN': 36, 'loaded': True, 'loadedTime': 64748.09999999404, 'positionName': 'LEFT', 'positionCoords': [281.2, 245.5], 'bid': 7.75}, {'imgObject': {}, 'id': 'turkeysandwich', 'src': '/static/foodstim60/turkeysandwich.jpg', 'key': 'i', 'origWidth': 409, 'origHeight': 409, 'width': 409, 'height': 409, 'widthPercent': 0.45, 'rescaleHeight': False, 'trialN': 36, 'loaded': True, 'loadedTime': 64748.40000000596, 'positionName': 'RIGHT', 'positionCoords': [748.8, 245.5], 'bid': 2.37}]",64747.0,1669831115301,luckycharms,turkeysandwich,7.75,2.37,-5.38,turkeysandwich,1086.5,1090,1090.0,True,i,66338.90000000596,1591.9000000059605,1669831116893,1592,HRV,HRV_0105,2022-11-30 18:02:28
37,"[{'imgObject': {}, 'id': 'orange slices', 'src': '/static/foodstim60/orange slices.jpg', 'key': 'u', 'origWidth': 409, 'origHeight': 410, 'width': 409, 'height': 410, 'widthPercent': 0.45, 'rescaleHeight': False, 'trialN': 37, 'loaded': True, 'loadedTime': 66341.70000001788, 'positionName': 'LEFT', 'positionCoords': [282.2, 245], 'bid': 9.9}, {'imgObject': {}, 'id': 'blackbeanswithrice', 'src': '/static/foodstim60/blackbeanswithrice.jpg', 'key': 'i', 'origWidth': 410, 'origHeight': 410, 'width': 410, 'height': 410, 'widthPercent': 0.45, 'rescaleHeight': False, 'trialN': 37, 'loaded': True, 'loadedTime': 66342, 'positionName': 'RIGHT', 'positionCoords': [748.8, 245], 'bid': 0.05}]",66339.5,1669831116893,orange slices,blackbeanswithrice,9.9,0.05,-9.85,orange slices,954.9000000059605,959,958.3000000119209,True,u,67802.59999999404,1463.0999999940395,1669831118356,1463,HRV,HRV_0105,2022-11-30 18:02:28
38,"[{'imgObject': {}, 'id': 'mac & cheese', 'src': '/static/foodstim60/mac & cheese.jpg', 'key': 'u', 'origWidth': 410, 'origHeight': 410, 'width': 410, 'height': 410, 'widthPercent': 0.45, 'rescaleHeight': False, 'trialN': 38, 'loaded': True, 'loadedTime': 67805.40000000596, 'positionName': 'LEFT', 'positionCoords': [281.2, 245], 'bid': 0.09}, {'imgObject': {}, 'id': 'lox', 'src': '/static/foodstim60/lox.jpg', 'key': 'i', 'origWidth': 410, 'origHeight': 411, 'width': 410, 'height': 411, 'widthPercent': 0.45, 'rescaleHeight': False, 'trialN': 38, 'loaded': True, 'loadedTime': 67806.09999999404, 'positionName': 'RIGHT', 'positionCoords': [748.8, 244.5], 'bid': 0.05}]",67803.09999999404,1669831118357,mac & cheese,lox,0.09,0.05,-0.039999999999999994,mac & cheese,1064.300000011921,1068,1067.800000011921,True,u,69375.40000000596,1572.300000011921,1669831119929,1572,HRV,HRV_0105,2022-11-30 18:02:28
39,"[{'imgObject': {}, 'id': 'cheerios', 'src': '/static/foodstim60/cheerios.jpg', 'key': 'u', 'origWidth': 409, 'origHeight': 410, 'width': 409, 'height': 410, 'widthPercent': 0.45, 'rescaleHeight': False, 'trialN': 39, 'loaded': True, 'loadedTime': 69378.40000000596, 'positionName': 'LEFT', 'positionCoords': [282.2, 245], 'bid': 0}, {'imgObject': {}, 'id': 'bagel plain', 'src': '/static/foodstim60/bagel plain.jpg', 'key': 'i', 'origWidth': 410, 'origHeight': 410, 'width': 410, 'height': 410, 'widthPercent': 0.45, 'rescaleHeight': False, 'trialN': 39, 'loaded': True, 'loadedTime': 69379.09999999404, 'positionName': 'RIGHT', 'positionCoords': [748.8, 245], 'bid': 0}]",69375.90000000596,1669831119930,cheerios,bagel plain,0.0,0.0,0.0,bagel plain,1071.4000000059605,1074,1074.5999999940395,True,i,70953.20000001788,1577.300000011921,1669831121507,1577,HRV,HRV_0105,2022-11-30 18:02:28
40,"[{'imgObject': {}, 'id': 'veggieswithdip', 'src': '/static/foodstim60/veggieswithdip.jpg', 'key': 'u', 'origWidth': 409, 'origHeight': 409, 'width': 409, 'height': 409, 'widthPercent': 0.45, 'rescaleHeight': False, 'trialN': 40, 'loaded': True, 'loadedTime': 70955.90000000596, 'positionName': 'LEFT', 'positionCoords': [282.2, 245.5], 'bid': 0.06}, {'imgObject': {}, 'id': 'salad w chicken', 'src': '/static/foodstim60/salad w chicken.jpg', 'key': 'i', 'origWidth': 411, 'origHeight': 411, 'width': 411, 'height': 411, 'widthPercent': 0.45, 'rescaleHeight': False, 'trialN': 40, 'loaded': True, 'loadedTime': 70956.80000001192, 'positionName': 'RIGHT', 'positionCoords': [748.8, 244.5], 'bid': 0.01}]",70953.80000001192,1669831121507,veggieswithdip,salad w chicken,0.06,0.01,-0.049999999999999996,veggieswithdip,1144.2999999821186,1148,1147.699999988079,True,u,72606.40000000596,1652.5999999940395,1669831123160,1653,HRV,HRV_0105,2022-11-30 18:02:28
41,"[{'imgObject': {}, 'id': 'bagel and cc', 'src': '/static/foodstim60/bagel and cc.jpg', 'key': 'u', 'origWidth': 410, 'origHeight': 410, 'width': 410, 'height': 410, 'widthPercent': 0.45, 'rescaleHeight': False, 'trialN': 41, 'loaded': True, 'loadedTime': 72609.20000001788, 'positionName': 'LEFT', 'positionCoords': [281.2, 245], 'bid': 0.09}, {'imgObject': {}, 'id': 'yogurt no spoon', 'src': '/static/foodstim60/yogurt no spoon.jpg', 'key': 'i', 'origWidth': 411, 'origHeight': 410, 'width': 411, 'height': 410, 'widthPercent': 0.45, 'rescaleHeight': False, 'trialN': 41, 'loaded': True, 'loadedTime': 72609.70000001788, 'positionName': 'RIGHT', 'positionCoords': [748.8, 245], 'bid': 0.04}]",72607.0,1669831123161,bagel and cc,yogurt no spoon,0.09,0.04,-0.049999999999999996,bagel and cc,1153.0,1156,1156.4000000059605,True,u,74268.30000001192,1661.300000011921,1669831124822,1661,HRV,HRV_0105,2022-11-30 18:02:28
42,"[{'imgObject': {}, 'id': 'mango', 'src': '/static/foodstim60/mango.jpg', 'key': 'u', 'origWidth': 411, 'origHeight': 411, 'width': 411, 'height': 411, 'widthPercent': 0.45, 'rescaleHeight': False, 'trialN': 42, 'loaded': True, 'loadedTime': 74271, 'positionName': 'LEFT', 'positionCoords': [280.2, 244.5], 'bid': 0.08}, {'imgObject': {}, 'id': 'hotdog w must', 'src': '/static/foodstim60/hotdog w must.jpg', 'key': 'i', 'origWidth': 409, 'origHeight': 409, 'width': 409, 'height': 409, 'widthPercent': 0.45, 'rescaleHeight': False, 'trialN': 42, 'loaded': True, 'loadedTime': 74271.70000001788, 'positionName': 'RIGHT', 'positionCoords': [748.8, 245.5], 'bid': 0.08}]",74268.90000000596,1669831124822,mango,hotdog w must,0.08,0.08,0.0,mango,953.0,959,959.0,True,u,75729.5,1460.5999999940395,1669831126283,1461,HRV,HRV_0105,2022-11-30 18:02:28
43,"[{'imgObject': {}, 'id': 'baked potato', 'src': '/static/foodstim60/baked potato.jpg', 'key': 'u', 'origWidth': 409, 'origHeight': 410, 'width': 409, 'height': 410, 'widthPercent': 0.45, 'rescaleHeight': False, 'trialN': 43, 'loaded': True, 'loadedTime': 75732.20000001788, 'positionName': 'LEFT', 'positionCoords': [282.2, 245], 'bid': 0}, {'imgObject': {}, 'id': 'raspberries', 'src': '/static/foodstim60/raspberries.jpg', 'key': 'i', 'origWidth': 411, 'origHeight': 411, 'width': 411, 'height': 411, 'widthPercent': 0.45, 'rescaleHeight': False, 'trialN': 43, 'loaded': True, 'loadedTime': 75733, 'positionName': 'RIGHT', 'positionCoords': [748.8, 244.5], 'bid': 0}]",75730.0,1669831126284,baked potato,raspberries,0.0,0.0,0.0,baked potato,1342.800000011921,1346,1346.300000011921,True,u,77581.09999999404,1851.0999999940395,1669831128135,1851,HRV,HRV_0105,2022-11-30 18:02:28
44,"[{'imgObject': {}, 'id': 'orange slices', 'src': '/static/foodstim60/orange slices.jpg', 'key': 'u', 'origWidth': 409, 'origHeight': 410, 'width': 409, 'height': 410, 'widthPercent': 0.45, 'rescaleHeight': False, 'trialN': 44, 'loaded': True, 'loadedTime': 77583.70000001788, 'positionName': 'LEFT', 'positionCoords': [282.2, 245], 'bid': 9.9}, {'imgObject': {}, 'id': 'steak', 'src': '/static/foodstim60/steak.jpg', 'key': 'i', 'origWidth': 410, 'origHeight': 410, 'width': 410, 'height': 410, 'widthPercent': 0.45, 'rescaleHeight': False, 'trialN': 44, 'loaded': True, 'loadedTime': 77584.20000001788, 'positionName': 'RIGHT', 'positionCoords': [748.8, 245], 'bid': 9.9}]",77581.70000001788,1669831128135,orange slices,steak,9.9,9.9,0.0,orange slices,1433.0999999940395,1436,1436.2999999821186,True,u,79521.30000001192,1939.5999999940395,1669831130075,1940,HRV,HRV_0105,2022-11-30 18:02:28
45,"[{'imgObject': {}, 'id': 'rigatoni and sauce', 'src': '/static/foodstim60/rigatoni and sauce.jpg', 'key': 'u', 'origWidth': 410, 'origHeight': 411, 'width': 410, 'height': 411, 'widthPercent': 0.45, 'rescaleHeight': False, 'trialN': 45, 'loaded': True, 'loadedTime': 79524.20000001788, 'positionName': 'LEFT', 'positionCoords': [281.2, 244.5], 'bid': 0}, {'imgObject': {}, 'id': 'mango', 'src': '/static/foodstim60/mango.jpg', 'key': 'i', 'origWidth': 411, 'origHeight': 411, 'width': 411, 'height': 411, 'widthPercent': 0.45, 'rescaleHeight': False, 'trialN': 45, 'loaded': True, 'loadedTime': 79524.70000001788, 'positionName': 'RIGHT', 'positionCoords': [748.8, 244.5], 'bid': 0.08}]",79522.0,1669831130075,rigatoni and sauce,mango,0.0,0.08,0.08,rigatoni and sauce,1592.4000000059605,1596,1595.800000011921,True,u,81622.80000001192,2100.800000011921,1669831132176,2101,HRV,HRV_0105,2022-11-30 18:02:28
46,"[{'imgObject': {}, 'id': 'burger', 'src': '/static/foodstim60/burger.jpg', 'key': 'u', 'origWidth': 409, 'origHeight': 409, 'width': 409, 'height': 409, 'widthPercent': 0.45, 'rescaleHeight': False, 'trialN': 46, 'loaded': True, 'loadedTime': 81625.5, 'positionName': 'LEFT', 'positionCoords': [282.2, 245.5], 'bid': 0.09}, {'imgObject': {}, 'id': 'luckycharms', 'src': '/static/foodstim60/luckycharms.jpg', 'key': 'i', 'origWidth': 410, 'origHeight': 409, 'width': 410, 'height': 409, 'widthPercent': 0.45, 'rescaleHeight': False, 'trialN': 46, 'loaded': True, 'loadedTime': 81626.09999999404, 'positionName': 'RIGHT', 'positionCoords': [748.8, 245.5], 'bid': 7.75}]",81623.40000000596,1669831132177,burger,luckycharms,0.09,7.75,7.66,luckycharms,902.0,905,905.4000000059605,True,i,83029.5,1406.0999999940395,1669831133583,1406,HRV,HRV_0105,2022-11-30 18:02:28
47,"[{'imgObject': {}, 'id': 'chicken nuggets2', 'src': '/static/foodstim60/chicken nuggets2.jpg', 'key': 'u', 'origWidth': 410, 'origHeight': 409, 'width': 410, 'height': 409, 'widthPercent': 0.45, 'rescaleHeight': False, 'trialN': 47, 'loaded': True, 'loadedTime': 83032.20000001788, 'positionName': 'LEFT', 'positionCoords': [281.2, 245.5], 'bid': 0.06}, {'imgObject': {}, 'id': 'mashed potato', 'src': '/static/foodstim60/mashed potato.jpg', 'key': 'i', 'origWidth': 409, 'origHeight': 409, 'width': 409, 'height': 409, 'widthPercent': 0.45, 'rescaleHeight': False, 'trialN': 47, 'loaded': True, 'loadedTime': 83032.80000001192, 'positionName': 'RIGHT', 'positionCoords': [748.8, 245.5], 'bid': 0.08}]",83030.0,1669831133583,chicken nuggets2,mashed potato,0.06,0.08,0.020000000000000004,chicken nuggets2,1227.4000000059605,1231,1230.7000000178814,True,u,84765.90000000596,1735.9000000059605,1669831135319,1736,HRV,HRV_0105,2022-11-30 18:02:28
48,"[{'imgObject': {}, 'id': 'banana', 'src': '/static/foodstim60/banana.jpg', 'key': 'u', 'origWidth': 410, 'origHeight': 410, 'width': 410, 'height': 410, 'widthPercent': 0.45, 'rescaleHeight': False, 'trialN': 48, 'loaded': True, 'loadedTime': 84768.59999999404, 'positionName': 'LEFT', 'positionCoords': [281.2, 245], 'bid': 5}, {'imgObject': {}, 'id': 'hotdog w must', 'src': '/static/foodstim60/hotdog w must.jpg', 'key': 'i', 'origWidth': 409, 'origHeight': 409, 'width': 409, 'height': 409, 'widthPercent': 0.45, 'rescaleHeight': False, 'trialN': 48, 'loaded': True, 'loadedTime': 84769.09999999404, 'positionName': 'RIGHT', 'positionCoords': [748.8, 245.5], 'bid': 0.08}]",84766.5,1669831135320,banana,hotdog w must,5.0,0.08,-4.92,banana,866.8000000119209,872,872.5,True,u,86144.09999999404,1377.5999999940395,1669831136697,1377,HRV,HRV_0105,2022-11-30 18:02:28
49,"[{'imgObject': {}, 'id': 'Tribe humus pita', 'src': '/static/foodstim60/Tribe humus pita.jpg', 'key': 'u', 'origWidth': 411, 'origHeight': 411, 'width': 411, 'height': 411, 'widthPercent': 0.45, 'rescaleHeight': False, 'trialN': 49, 'loaded': True, 'loadedTime': 86147.20000001788, 'positionName': 'LEFT', 'positionCoords': [280.2, 244.5], 'bid': 0}, {'imgObject': {}, 'id': 'shreddedwheatwithmilk', 'src': '/static/foodstim60/shreddedwheatwithmilk.jpg', 'key': 'i', 'origWidth': 410, 'origHeight': 410, 'width': 410, 'height': 410, 'widthPercent': 0.45, 'rescaleHeight': False, 'trialN': 49, 'loaded': True, 'loadedTime': 86147.59999999404, 'positionName': 'RIGHT', 'positionCoords': [748.8, 245], 'bid': 0.06}]",86144.80000001192,1669831136698,Tribe humus pita,shreddedwheatwithmilk,0.0,0.06,0.06,shreddedwheatwithmilk,1648.4000000059605,1652,1652.0,True,i,88298.40000000596,2153.5999999940395,1669831138852,2154,HRV,HRV_0105,2022-11-30 18:02:28
50,"[{'imgObject': {}, 'id': 'baked potato', 'src': '/static/foodstim60/baked potato.jpg', 'key': 'u', 'origWidth': 409, 'origHeight': 410, 'width': 409, 'height': 410, 'widthPercent': 0.45, 'rescaleHeight': False, 'trialN': 50, 'loaded': True, 'loadedTime': 88300.20000001788, 'positionName': 'LEFT', 'positionCoords': [282.2, 245], 'bid': 0}, {'imgObject': {}, 'id': 'cocktailshrimp', 'src': '/static/foodstim60/cocktailshrimp.jpg', 'key': 'i', 'origWidth': 410, 'origHeight': 410, 'width': 410, 'height': 410, 'widthPercent': 0.45, 'rescaleHeight': False, 'trialN': 50, 'loaded': True, 'loadedTime': 88300.5, 'positionName': 'RIGHT', 'positionCoords': [748.8, 245], 'bid': 0.02}]",88299.0,1669831138852,baked potato,cocktailshrimp,0.0,0.02,0.02,baked potato,980.0999999940395,983,983.4000000059605,True,u,89787.20000001788,1488.2000000178814,1669831140340,1488,HRV,HRV_0105,2022-11-30 18:02:28
51,"[{'imgObject': {}, 'id': 'cherries', 'src': '/static/foodstim60/cherries.jpg', 'key': 'u', 'origWidth': 410, 'origHeight': 411, 'width': 410, 'height': 411, 'widthPercent': 0.45, 'rescaleHeight': False, 'trialN': 51, 'loaded': True, 'loadedTime': 89790, 'positionName': 'LEFT', 'positionCoords': [281.2, 244.5], 'bid': 9.88}, {'imgObject': {}, 'id': 'orange slices', 'src': '/static/foodstim60/orange slices.jpg', 'key': 'i', 'origWidth': 409, 'origHeight': 410, 'width': 409, 'height': 410, 'widthPercent': 0.45, 'rescaleHeight': False, 'trialN': 51, 'loaded': True, 'loadedTime': 89790.70000001788, 'positionName': 'RIGHT', 'positionCoords': [748.8, 245], 'bid': 9.9}]",89787.80000001192,1669831140341,cherries,orange slices,9.88,9.9,0.019999999999999574,orange slices,1389.199999988079,1392,1392.699999988079,True,i,91685.70000001788,1897.9000000059605,1669831142239,1898,HRV,HRV_0105,2022-11-30 18:02:28
52,"[{'imgObject': {}, 'id': 'blackbeanswithrice', 'src': '/static/foodstim60/blackbeanswithrice.jpg', 'key': 'u', 'origWidth': 410, 'origHeight': 410, 'width': 410, 'height': 410, 'widthPercent': 0.45, 'rescaleHeight': False, 'trialN': 52, 'loaded': True, 'loadedTime': 91688.70000001788, 'positionName': 'LEFT', 'positionCoords': [281.2, 245], 'bid': 0.05}, {'imgObject': {}, 'id': 'shreddedwheatwithmilk', 'src': '/static/foodstim60/shreddedwheatwithmilk.jpg', 'key': 'i', 'origWidth': 410, 'origHeight': 410, 'width': 410, 'height': 410, 'widthPercent': 0.45, 'rescaleHeight': False, 'trialN': 52, 'loaded': True, 'loadedTime': 91689.5, 'positionName': 'RIGHT', 'positionCoords': [748.8, 245], 'bid': 0.06}]",91686.30000001192,1669831142239,blackbeanswithrice,shreddedwheatwithmilk,0.05,0.06,0.009999999999999995,blackbeanswithrice,1136.5999999940395,1140,1139.7999999821186,True,u,93327.5,1641.199999988079,1669831143880,1641,HRV,HRV_0105,2022-11-30 18:02:28
53,"[{'imgObject': {}, 'id': 'popsicles', 'src': '/static/foodstim60/popsicles.jpg', 'key': 'u', 'origWidth': 410, 'origHeight': 410, 'width': 410, 'height': 410, 'widthPercent': 0.45, 'rescaleHeight': False, 'trialN': 53, 'loaded': True, 'loadedTime': 93330.20000001788, 'positionName': 'LEFT', 'positionCoords': [281.2, 245], 'bid': 2.94}, {'imgObject': {}, 'id': 'blueberries', 'src': '/static/foodstim60/blueberries.jpg', 'key': 'i', 'origWidth': 411, 'origHeight': 411, 'width': 411, 'height': 411, 'widthPercent': 0.45, 'rescaleHeight': False, 'trialN': 53, 'loaded': True, 'loadedTime': 93330.70000001788, 'positionName': 'RIGHT', 'positionCoords': [748.8, 244.5], 'bid': 9.84}]",93328.09999999404,1669831143881,popsicles,blueberries,2.94,9.84,6.9,blueberries,708.7000000178814,712,712.0,True,i,94545.0,1216.9000000059605,1669831145098,1217,HRV,HRV_0105,2022-11-30 18:02:28
54,"[{'imgObject': {}, 'id': 'hotdog w must', 'src': '/static/foodstim60/hotdog w must.jpg', 'key': 'u', 'origWidth': 409, 'origHeight': 409, 'width': 409, 'height': 409, 'widthPercent': 0.45, 'rescaleHeight': False, 'trialN': 54, 'loaded': True, 'loadedTime': 94547.90000000596, 'positionName': 'LEFT', 'positionCoords': [282.2, 245.5], 'bid': 0.08}, {'imgObject': {}, 'id': 'blackbeanswithrice', 'src': '/static/foodstim60/blackbeanswithrice.jpg', 'key': 'i', 'origWidth': 410, 'origHeight': 410, 'width': 410, 'height': 410, 'widthPercent': 0.45, 'rescaleHeight': False, 'trialN': 54, 'loaded': True, 'loadedTime': 94548.30000001192, 'positionName': 'RIGHT', 'positionCoords': [748.8, 245], 'bid': 0.05}]",94545.59999999404,1669831145098,hotdog w must,blackbeanswithrice,0.08,0.05,-0.03,blackbeanswithrice,880.1000000238419,884,883.5,True,i,95930.59999999404,1385.0,1669831146483,1385,HRV,HRV_0105,2022-11-30 18:02:28
55,"[{'imgObject': {}, 'id': 'strawberries', 'src': '/static/foodstim60/strawberries.jpg', 'key': 'u', 'origWidth': 410, 'origHeight': 410, 'width': 410, 'height': 410, 'widthPercent': 0.45, 'rescaleHeight': False, 'trialN': 55, 'loaded': True, 'loadedTime': 95933.30000001192, 'positionName': 'LEFT', 'positionCoords': [281.2, 245], 'bid': 4.97}, {'imgObject': {}, 'id': 'seaweed', 'src': '/static/foodstim60/seaweed.jpg', 'key': 'i', 'origWidth': 410, 'origHeight': 410, 'width': 410, 'height': 410, 'widthPercent': 0.45, 'rescaleHeight': False, 'trialN': 55, 'loaded': True, 'loadedTime': 95933.90000000596, 'positionName': 'RIGHT', 'positionCoords': [748.8, 245], 'bid': 1.9}]",95931.20000001788,1669831146484,strawberries,seaweed,4.97,1.9,-3.07,strawberries,863.3999999761581,869,869.2999999821186,True,u,97305.20000001788,1374.0,1669831147858,1374,HRV,HRV_0105,2022-11-30 18:02:28
56,"[{'imgObject': {}, 'id': 'turkey sandwich', 'src': '/static/foodstim60/turkey sandwich.jpg', 'key': 'u', 'origWidth': 409, 'origHeight': 409, 'width': 409, 'height': 409, 'widthPercent': 0.45, 'rescaleHeight': False, 'trialN': 56, 'loaded': True, 'loadedTime': 97308, 'positionName': 'LEFT', 'positionCoords': [282.2, 245.5], 'bid': 9.88}, {'imgObject': {}, 'id': 'steak', 'src': '/static/foodstim60/steak.jpg', 'key': 'i', 'origWidth': 410, 'origHeight': 410, 'width': 410, 'height': 410, 'widthPercent': 0.45, 'rescaleHeight': False, 'trialN': 56, 'loaded': True, 'loadedTime': 97308.70000001788, 'positionName': 'RIGHT', 'positionCoords': [748.8, 245], 'bid': 9.9}]",97305.90000000596,1669831147859,turkey sandwich,steak,9.88,9.9,0.019999999999999574,steak,859.6999999880791,863,863.0,True,i,98673.80000001192,1367.9000000059605,1669831149226,1367,HRV,HRV_0105,2022-11-30 18:02:28
57,"[{'imgObject': {}, 'id': 'corn cob', 'src': '/static/foodstim60/corn cob.jpg', 'key': 'u', 'origWidth': 411, 'origHeight': 411, 'width': 411, 'height': 411, 'widthPercent': 0.45, 'rescaleHeight': False, 'trialN': 57, 'loaded': True, 'loadedTime': 98676.80000001192, 'positionName': 'LEFT', 'positionCoords': [280.2, 244.5], 'bid': 7.72}, {'imgObject': {}, 'id': 'orange slices', 'src': '/static/foodstim60/orange slices.jpg', 'key': 'i', 'origWidth': 409, 'origHeight': 410, 'width': 409, 'height': 410, 'widthPercent': 0.45, 'rescaleHeight': False, 'trialN': 57, 'loaded': True, 'loadedTime': 98677.5, 'positionName': 'RIGHT', 'positionCoords': [748.8, 245], 'bid': 9.9}]",98674.40000000596,1669831149227,corn cob,orange slices,7.72,9.9,2.1800000000000006,orange slices,934.0,937,937.5,True,i,100116.70000001788,1442.300000011921,1669831150669,1442,HRV,HRV_0105,2022-11-30 18:02:28
58,"[{'imgObject': {}, 'id': 'froot loops w milk', 'src': '/static/foodstim60/froot loops w milk.jpg', 'key': 'u', 'origWidth': 410, 'origHeight': 410, 'width': 410, 'height': 410, 'widthPercent': 0.45, 'rescaleHeight': False, 'trialN': 58, 'loaded': True, 'loadedTime': 100119.5, 'positionName': 'LEFT', 'positionCoords': [281.2, 245], 'bid': 0}, {'imgObject': {}, 'id': 'rigatoni and sauce', 'src': '/static/foodstim60/rigatoni and sauce.jpg', 'key': 'i', 'origWidth': 410, 'origHeight': 411, 'width': 410, 'height': 411, 'widthPercent': 0.45, 'rescaleHeight': False, 'trialN': 58, 'loaded': True, 'loadedTime': 100120, 'positionName': 'RIGHT', 'positionCoords': [748.8, 244.5], 'bid': 0}]",100117.30000001192,1669831150670,froot loops w milk,rigatoni and sauce,0.0,0.0,0.0,rigatoni and sauce,1478.0,1481,1481.2999999821186,True,i,102103.40000000596,1986.0999999940395,1669831152656,1986,HRV,HRV_0105,2022-11-30 18:02:28
59,"[{'imgObject': {}, 'id': 'lox', 'src': '/static/foodstim60/lox.jpg', 'key': 'u', 'origWidth': 410, 'origHeight': 411, 'width': 410, 'height': 411, 'widthPercent': 0.45, 'rescaleHeight': False, 'trialN': 59, 'loaded': True, 'loadedTime': 102106.09999999404, 'positionName': 'LEFT', 'positionCoords': [281.2, 244.5], 'bid': 0.05}, {'imgObject': {}, 'id': 'yogurt no spoon', 'src': '/static/foodstim60/yogurt no spoon.jpg', 'key': 'i', 'origWidth': 411, 'origHeight': 410, 'width': 411, 'height': 410, 'widthPercent': 0.45, 'rescaleHeight': False, 'trialN': 59, 'loaded': True, 'loadedTime': 102106.59999999404, 'positionName': 'RIGHT', 'positionCoords': [748.8, 245], 'bid': 0.04}]",102104.0,1669831152657,lox,yogurt no spoon,0.05,0.04,-0.010000000000000002,yogurt no spoon,1726.2000000178814,1729,1729.4000000059605,True,i,104338.59999999404,2234.5999999940395,1669831154891,2234,HRV,HRV_0105,2022-11-30 18:02:28
60,"[{'imgObject': {}, 'id': 'cheerios', 'src': '/static/foodstim60/cheerios.jpg', 'key': 'u', 'origWidth': 409, 'origHeight': 410, 'width': 409, 'height': 410, 'widthPercent': 0.45, 'rescaleHeight': False, 'trialN': 60, 'loaded': True, 'loadedTime': 104341.30000001192, 'positionName': 'LEFT', 'positionCoords': [282.2, 245], 'bid': 0}, {'imgObject': {}, 'id': 'raspberries', 'src': '/static/foodstim60/raspberries.jpg', 'key': 'i', 'origWidth': 411, 'origHeight': 411, 'width': 411, 'height': 411, 'widthPercent': 0.45, 'rescaleHeight': False, 'trialN': 60, 'loaded': True, 'loadedTime': 104342, 'positionName': 'RIGHT', 'positionCoords': [748.8, 244.5], 'bid': 0}]",104339.09999999404,1669831154892,cheerios,raspberries,0.0,0.0,0.0,cheerios,1284.0,1287,1287.2000000178814,True,u,106131.59999999404,1792.5,1669831156684,1792,HRV,HRV_0105,2022-11-30 18:02:28
61,"[{'imgObject': {}, 'id': 'burrito', 'src': '/static/foodstim60/burrito.jpg', 'key': 'u', 'origWidth': 410, 'origHeight': 410, 'width': 410, 'height': 410, 'widthPercent': 0.45, 'rescaleHeight': False, 'trialN': 61, 'loaded': True, 'loadedTime': 106134.30000001192, 'positionName': 'LEFT', 'positionCoords': [281.2, 245], 'bid': 0.02}, {'imgObject': {}, 'id': 'raspberries', 'src': '/static/foodstim60/raspberries.jpg', 'key': 'i', 'origWidth': 411, 'origHeight': 411, 'width': 411, 'height': 411, 'widthPercent': 0.45, 'rescaleHeight': False, 'trialN': 61, 'loaded': True, 'loadedTime': 106134.70000001788, 'positionName': 'RIGHT', 'positionCoords': [748.8, 244.5], 'bid': 0}]",106132.09999999404,1669831156685,burrito,raspberries,0.02,0.0,-0.02,raspberries,979.9000000059605,985,985.9000000059605,True,i,107620.20000001788,1488.1000000238419,1669831158173,1488,HRV,HRV_0105,2022-11-30 18:02:28
62,"[{'imgObject': {}, 'id': 'Tribe humus pita', 'src': '/static/foodstim60/Tribe humus pita.jpg', 'key': 'u', 'origWidth': 411, 'origHeight': 411, 'width': 411, 'height': 411, 'widthPercent': 0.45, 'rescaleHeight': False, 'trialN': 62, 'loaded': True, 'loadedTime': 107622.90000000596, 'positionName': 'LEFT', 'positionCoords': [280.2, 244.5], 'bid': 0}, {'imgObject': {}, 'id': 'sweetpotato', 'src': '/static/foodstim60/sweetpotato.jpg', 'key': 'i', 'origWidth': 410, 'origHeight': 410, 'width': 410, 'height': 410, 'widthPercent': 0.45, 'rescaleHeight': False, 'trialN': 62, 'loaded': True, 'loadedTime': 107623.80000001192, 'positionName': 'RIGHT', 'positionCoords': [748.8, 245], 'bid': 0}]",107620.80000001192,1669831158173,Tribe humus pita,sweetpotato,0.0,0.0,0.0,sweetpotato,832.0999999940395,836,835.5,True,i,108959.30000001192,1338.5,1669831159512,1339,HRV,HRV_0105,2022-11-30 18:02:28
63,"[{'imgObject': {}, 'id': 'tacos', 'src': '/static/foodstim60/tacos.jpg', 'key': 'u', 'origWidth': 411, 'origHeight': 411, 'width': 411, 'height': 411, 'widthPercent': 0.45, 'rescaleHeight': False, 'trialN': 63, 'loaded': True, 'loadedTime': 108962.09999999404, 'positionName': 'LEFT', 'positionCoords': [280.2, 244.5], 'bid': 0.06}, {'imgObject': {}, 'id': 'edamame', 'src': '/static/foodstim60/edamame.jpg', 'key': 'i', 'origWidth': 409, 'origHeight': 410, 'width': 409, 'height': 410, 'widthPercent': 0.45, 'rescaleHeight': False, 'trialN': 63, 'loaded': True, 'loadedTime': 108962.5, 'positionName': 'RIGHT', 'positionCoords': [748.8, 245], 'bid': 0.02}]",108959.90000000596,1669831159512,tacos,edamame,0.06,0.02,-0.039999999999999994,tacos,1417.9000000059605,1421,1421.300000011921,True,u,110885.30000001192,1925.4000000059605,1669831161438,1926,HRV,HRV_0105,2022-11-30 18:02:28
64,"[{'imgObject': {}, 'id': 'blueberries', 'src': '/static/foodstim60/blueberries.jpg', 'key': 'u', 'origWidth': 411, 'origHeight': 411, 'width': 411, 'height': 411, 'widthPercent': 0.45, 'rescaleHeight': False, 'trialN': 64, 'loaded': True, 'loadedTime': 110888.09999999404, 'positionName': 'LEFT', 'positionCoords': [280.2, 244.5], 'bid': 9.84}, {'imgObject': {}, 'id': 'fruitsalad', 'src': '/static/foodstim60/fruitsalad.jpg', 'key': 'i', 'origWidth': 410, 'origHeight': 410, 'width': 410, 'height': 410, 'widthPercent': 0.45, 'rescaleHeight': False, 'trialN': 64, 'loaded': True, 'loadedTime': 110888.5, 'positionName': 'RIGHT', 'positionCoords': [748.8, 245], 'bid': 1.37}]",110885.90000000596,1669831161438,blueberries,fruitsalad,9.84,1.37,-8.469999999999999,blueberries,828.8000000119209,832,832.3000000119209,True,u,112223.09999999404,1337.199999988079,1669831162775,1337,HRV,HRV_0105,2022-11-30 18:02:28
65,"[{'imgObject': {}, 'id': 'sweetpotato', 'src': '/static/foodstim60/sweetpotato.jpg', 'key': 'u', 'origWidth': 410, 'origHeight': 410, 'width': 410, 'height': 410, 'widthPercent': 0.45, 'rescaleHeight': False, 'trialN': 65, 'loaded': True, 'loadedTime': 112225.70000001788, 'positionName': 'LEFT', 'positionCoords': [281.2, 245], 'bid': 0}, {'imgObject': {}, 'id': 'olives', 'src': '/static/foodstim60/olives.jpg', 'key': 'i', 'origWidth': 410, 'origHeight': 410, 'width': 410, 'height': 410, 'widthPercent': 0.45, 'rescaleHeight': False, 'trialN': 65, 'loaded': True, 'loadedTime': 112226.40000000596, 'positionName': 'RIGHT', 'positionCoords': [748.8, 245], 'bid': 0.01}]",112223.59999999404,1669831162776,sweetpotato,olives,0.0,0.01,0.01,sweetpotato,775.0,778,778.5,True,u,113507.0,1283.4000000059605,1669831164059,1283,HRV,HRV_0105,2022-11-30 18:02:28
66,"[{'imgObject': {}, 'id': 'avocado', 'src': '/static/foodstim60/avocado.jpg', 'key': 'u', 'origWidth': 409, 'origHeight': 409, 'width': 409, 'height': 409, 'widthPercent': 0.45, 'rescaleHeight': False, 'trialN': 66, 'loaded': True, 'loadedTime': 113509.59999999404, 'positionName': 'LEFT', 'positionCoords': [282.2, 245.5], 'bid': 0}, {'imgObject': {}, 'id': 'baked potato', 'src': '/static/foodstim60/baked potato.jpg', 'key': 'i', 'origWidth': 409, 'origHeight': 410, 'width': 409, 'height': 410, 'widthPercent': 0.45, 'rescaleHeight': False, 'trialN': 66, 'loaded': True, 'loadedTime': 113510.5, 'positionName': 'RIGHT', 'positionCoords': [748.8, 245], 'bid': 0}]",113507.5,1669831164060,avocado,baked potato,0.0,0.0,0.0,baked potato,1183.0999999940395,1186,1186.300000011921,True,i,115194.0,1686.5,1669831165746,1686,HRV,HRV_0105,2022-11-30 18:02:28
67,"[{'imgObject': {}, 'id': 'mashed potato', 'src': '/static/foodstim60/mashed potato.jpg', 'key': 'u', 'origWidth': 409, 'origHeight': 409, 'width': 409, 'height': 409, 'widthPercent': 0.45, 'rescaleHeight': False, 'trialN': 67, 'loaded': True, 'loadedTime': 115196.70000001788, 'positionName': 'LEFT', 'positionCoords': [282.2, 245.5], 'bid': 0.08}, {'imgObject': {}, 'id': 'mango', 'src': '/static/foodstim60/mango.jpg', 'key': 'i', 'origWidth': 411, 'origHeight': 411, 'width': 411, 'height': 411, 'widthPercent': 0.45, 'rescaleHeight': False, 'trialN': 67, 'loaded': True, 'loadedTime': 115197.09999999404, 'positionName': 'RIGHT', 'positionCoords': [748.8, 244.5], 'bid': 0.08}]",115194.59999999404,1669831165747,mashed potato,mango,0.08,0.08,0.0,mango,726.9000000059605,730,730.5,True,i,116430.30000001192,1235.7000000178814,1669831166982,1235,HRV,HRV_0105,2022-11-30 18:02:28
68,"[{'imgObject': {}, 'id': 'blueberries', 'src': '/static/foodstim60/blueberries.jpg', 'key': 'u', 'origWidth': 411, 'origHeight': 411, 'width': 411, 'height': 411, 'widthPercent': 0.45, 'rescaleHeight': False, 'trialN': 68, 'loaded': True, 'loadedTime': 116432.59999999404, 'positionName': 'LEFT', 'positionCoords': [280.2, 244.5], 'bid': 9.84}, {'imgObject': {}, 'id': 'Grapes', 'src': '/static/foodstim60/Grapes.jpg', 'key': 'i', 'origWidth': 411, 'origHeight': 411, 'width': 411, 'height': 411, 'widthPercent': 0.45, 'rescaleHeight': False, 'trialN': 68, 'loaded': True, 'loadedTime': 116432.90000000596, 'positionName': 'RIGHT', 'positionCoords': [748.8, 244.5], 'bid': 9.86}]",116430.90000000596,1669831166983,blueberries,Grapes,9.84,9.86,0.019999999999999574,Grapes,1893.4000000059605,1898,1897.699999988079,True,i,118833.90000000596,2403.0,1669831169386,2403,HRV,HRV_0105,2022-11-30 18:02:28
69,"[{'imgObject': {}, 'id': 'seaweed', 'src': '/static/foodstim60/seaweed.jpg', 'key': 'u', 'origWidth': 410, 'origHeight': 410, 'width': 410, 'height': 410, 'widthPercent': 0.45, 'rescaleHeight': False, 'trialN': 69, 'loaded': True, 'loadedTime': 118836.59999999404, 'positionName': 'LEFT', 'positionCoords': [281.2, 245], 'bid': 1.9}, {'imgObject': {}, 'id': 'cherry tomato', 'src': '/static/foodstim60/cherry tomato.jpg', 'key': 'i', 'origWidth': 410, 'origHeight': 410, 'width': 410, 'height': 410, 'widthPercent': 0.45, 'rescaleHeight': False, 'trialN': 69, 'loaded': True, 'loadedTime': 118837.30000001192, 'positionName': 'RIGHT', 'positionCoords': [748.8, 245], 'bid': 1.86}]",118834.5,1669831169386,seaweed,cherry tomato,1.9,1.86,-0.039999999999999813,cherry tomato,1616.7000000178814,1620,1620.0,True,i,120959.40000000596,2124.9000000059605,1669831171511,2125,HRV,HRV_0105,2022-11-30 18:02:28
70,"[{'imgObject': {}, 'id': 'fried eggs', 'src': '/static/foodstim60/fried eggs.jpg', 'key': 'u', 'origWidth': 410, 'origHeight': 410, 'width': 410, 'height': 410, 'widthPercent': 0.45, 'rescaleHeight': False, 'trialN': 70, 'loaded': True, 'loadedTime': 120962.20000001788, 'positionName': 'LEFT', 'positionCoords': [281.2, 245], 'bid': 0.02}, {'imgObject': {}, 'id': 'edamame', 'src': '/static/foodstim60/edamame.jpg', 'key': 'i', 'origWidth': 409, 'origHeight': 410, 'width': 409, 'height': 410, 'widthPercent': 0.45, 'rescaleHeight': False, 'trialN': 70, 'loaded': True, 'loadedTime': 120963, 'positionName': 'RIGHT', 'positionCoords': [748.8, 245], 'bid': 0.02}]",120960.09999999404,1669831171512,fried eggs,edamame,0.02,0.02,0.0,edamame,1136.0,1139,1139.4000000059605,True,i,122604.30000001192,1644.2000000178814,1669831173156,1644,HRV,HRV_0105,2022-11-30 18:02:28
71,"[{'imgObject': {}, 'id': 'blackbeanswithrice', 'src': '/static/foodstim60/blackbeanswithrice.jpg', 'key': 'u', 'origWidth': 410, 'origHeight': 410, 'width': 410, 'height': 410, 'widthPercent': 0.45, 'rescaleHeight': False, 'trialN': 71, 'loaded': True, 'loadedTime': 122607, 'positionName': 'LEFT', 'positionCoords': [281.2, 245], 'bid': 0.05}, {'imgObject': {}, 'id': 'veggieswithdip', 'src': '/static/foodstim60/veggieswithdip.jpg', 'key': 'i', 'origWidth': 409, 'origHeight': 409, 'width': 409, 'height': 409, 'widthPercent': 0.45, 'rescaleHeight': False, 'trialN': 71, 'loaded': True, 'loadedTime': 122607.80000001192, 'positionName': 'RIGHT', 'positionCoords': [748.8, 245.5], 'bid': 0.06}]",122605.0,1669831173157,blackbeanswithrice,veggieswithdip,0.05,0.06,0.009999999999999995,blackbeanswithrice,1271.9000000059605,1275,1275.2000000178814,True,u,124385.5,1780.5,1669831174937,1780,HRV,HRV_0105,2022-11-30 18:02:28
72,"[{'imgObject': {}, 'id': 'burger', 'src': '/static/foodstim60/burger.jpg', 'key': 'u', 'origWidth': 409, 'origHeight': 409, 'width': 409, 'height': 409, 'widthPercent': 0.45, 'rescaleHeight': False, 'trialN': 72, 'loaded': True, 'loadedTime': 124388.20000001788, 'positionName': 'LEFT', 'positionCoords': [282.2, 245.5], 'bid': 0.09}, {'imgObject': {}, 'id': 'bagel and cc', 'src': '/static/foodstim60/bagel and cc.jpg', 'key': 'i', 'origWidth': 410, 'origHeight': 410, 'width': 410, 'height': 410, 'widthPercent': 0.45, 'rescaleHeight': False, 'trialN': 72, 'loaded': True, 'loadedTime': 124388.70000001788, 'positionName': 'RIGHT', 'positionCoords': [748.8, 245], 'bid': 0.09}]",124386.0,1669831174938,burger,bagel and cc,0.09,0.09,0.0,bagel and cc,857.9000000059605,861,861.3000000119209,True,i,125752.20000001788,1366.2000000178814,1669831176304,1366,HRV,HRV_0105,2022-11-30 18:02:28
73,"[{'imgObject': {}, 'id': 'eggsalad', 'src': '/static/foodstim60/eggsalad.jpg', 'key': 'u', 'origWidth': 410, 'origHeight': 409, 'width': 410, 'height': 409, 'widthPercent': 0.45, 'rescaleHeight': False, 'trialN': 73, 'loaded': True, 'loadedTime': 125755, 'positionName': 'LEFT', 'positionCoords': [281.2, 245.5], 'bid': 0.04}, {'imgObject': {}, 'id': 'shreddedwheatwithmilk', 'src': '/static/foodstim60/shreddedwheatwithmilk.jpg', 'key': 'i', 'origWidth': 410, 'origHeight': 410, 'width': 410, 'height': 410, 'widthPercent': 0.45, 'rescaleHeight': False, 'trialN': 73, 'loaded': True, 'loadedTime': 125755.30000001192, 'positionName': 'RIGHT', 'positionCoords': [748.8, 245], 'bid': 0.06}]",125752.80000001192,1669831176304,eggsalad,shreddedwheatwithmilk,0.04,0.06,0.019999999999999997,shreddedwheatwithmilk,1005.0,1009,1008.1999999880791,True,i,127265.90000000596,1513.0999999940395,1669831177818,1514,HRV,HRV_0105,2022-11-30 18:02:28
74,"[{'imgObject': {}, 'id': 'apple slices', 'src': '/static/foodstim60/apple slices.jpg', 'key': 'u', 'origWidth': 409, 'origHeight': 410, 'width': 409, 'height': 410, 'widthPercent': 0.45, 'rescaleHeight': False, 'trialN': 74, 'loaded': True, 'loadedTime': 127268.70000001788, 'positionName': 'LEFT', 'positionCoords': [282.2, 245], 'bid': 5}, {'imgObject': {}, 'id': 'cocktailshrimp', 'src': '/static/foodstim60/cocktailshrimp.jpg', 'key': 'i', 'origWidth': 410, 'origHeight': 410, 'width': 410, 'height': 410, 'widthPercent': 0.45, 'rescaleHeight': False, 'trialN': 74, 'loaded': True, 'loadedTime': 127269.40000000596, 'positionName': 'RIGHT', 'positionCoords': [748.8, 245], 'bid': 0.02}]",127266.40000000596,1669831177818,apple slices,cocktailshrimp,5.0,0.02,-4.98,apple slices,729.3000000119209,733,732.8000000119209,True,u,128503.09999999404,1236.699999988079,1669831179055,1237,HRV,HRV_0105,2022-11-30 18:02:28
75,"[{'imgObject': {}, 'id': 'luckycharms', 'src': '/static/foodstim60/luckycharms.jpg', 'key': 'u', 'origWidth': 410, 'origHeight': 409, 'width': 410, 'height': 409, 'widthPercent': 0.45, 'rescaleHeight': False, 'trialN': 75, 'loaded': True, 'loadedTime': 128504.70000001788, 'positionName': 'LEFT', 'positionCoords': [281.2, 245.5], 'bid': 7.75}, {'imgObject': {}, 'id': 'steak', 'src': '/static/foodstim60/steak.jpg', 'key': 'i', 'origWidth': 410, 'origHeight': 410, 'width': 410, 'height': 410, 'widthPercent': 0.45, 'rescaleHeight': False, 'trialN': 75, 'loaded': True, 'loadedTime': 128506.30000001192, 'positionName': 'RIGHT', 'positionCoords': [748.8, 245], 'bid': 9.9}]",128503.5,1669831179055,luckycharms,steak,7.75,9.9,2.1500000000000004,steak,920.2000000178814,926,925.8000000119209,True,i,129934.09999999404,1430.5999999940395,1669831180486,1431,HRV,HRV_0105,2022-11-30 18:02:28
76,"[{'imgObject': {}, 'id': 'salad w chicken', 'src': '/static/foodstim60/salad w chicken.jpg', 'key': 'u', 'origWidth': 411, 'origHeight': 411, 'width': 411, 'height': 411, 'widthPercent': 0.45, 'rescaleHeight': False, 'trialN': 76, 'loaded': True, 'loadedTime': 129937.09999999404, 'positionName': 'LEFT', 'positionCoords': [280.2, 244.5], 'bid': 0.01}, {'imgObject': {}, 'id': 'omelette', 'src': '/static/foodstim60/omelette.jpg', 'key': 'i', 'origWidth': 410, 'origHeight': 409, 'width': 410, 'height': 409, 'widthPercent': 0.45, 'rescaleHeight': False, 'trialN': 76, 'loaded': True, 'loadedTime': 129937.80000001192, 'positionName': 'RIGHT', 'positionCoords': [748.8, 245.5], 'bid': 0}]",129934.70000001788,1669831180486,salad w chicken,omelette,0.01,0.0,-0.01,salad w chicken,1044.699999988079,1052,1052.0,True,u,131491.70000001788,1557.0,1669831182043,1557,HRV,HRV_0105,2022-11-30 18:02:28
77,"[{'imgObject': {}, 'id': 'Tribe humus pita', 'src': '/static/foodstim60/Tribe humus pita.jpg', 'key': 'u', 'origWidth': 411, 'origHeight': 411, 'width': 411, 'height': 411, 'widthPercent': 0.45, 'rescaleHeight': False, 'trialN': 77, 'loaded': True, 'loadedTime': 131494.40000000596, 'positionName': 'LEFT', 'positionCoords': [280.2, 244.5], 'bid': 0}, {'imgObject': {}, 'id': 'bagel plain', 'src': '/static/foodstim60/bagel plain.jpg', 'key': 'i', 'origWidth': 410, 'origHeight': 410, 'width': 410, 'height': 410, 'widthPercent': 0.45, 'rescaleHeight': False, 'trialN': 77, 'loaded': True, 'loadedTime': 131494.80000001192, 'positionName': 'RIGHT', 'positionCoords': [748.8, 245], 'bid': 0}]",131492.20000001788,1669831182044,Tribe humus pita,bagel plain,0.0,0.0,0.0,bagel plain,912.1999999880791,915,915.5,True,i,132912.70000001788,1420.5,1669831183464,1420,HRV,HRV_0105,2022-11-30 18:02:28
78,"[{'imgObject': {}, 'id': 'veggieswithdip', 'src': '/static/foodstim60/veggieswithdip.jpg', 'key': 'u', 'origWidth': 409, 'origHeight': 409, 'width': 409, 'height': 409, 'widthPercent': 0.45, 'rescaleHeight': False, 'trialN': 78, 'loaded': True, 'loadedTime': 132915.40000000596, 'positionName': 'LEFT', 'positionCoords': [282.2, 245.5], 'bid': 0.06}, {'imgObject': {}, 'id': 'tacos', 'src': '/static/foodstim60/tacos.jpg', 'key': 'i', 'origWidth': 411, 'origHeight': 411, 'width': 411, 'height': 411, 'widthPercent': 0.45, 'rescaleHeight': False, 'trialN': 78, 'loaded': True, 'loadedTime': 132915.80000001192, 'positionName': 'RIGHT', 'positionCoords': [748.8, 244.5], 'bid': 0.06}]",132913.20000001788,1669831183465,veggieswithdip,tacos,0.06,0.06,0.0,tacos,1456.0999999940395,1459,1459.0999999940395,True,i,134877.5,1964.2999999821186,1669831185429,1964,HRV,HRV_0105,2022-11-30 18:02:28
79,"[{'imgObject': {}, 'id': 'corn cob', 'src': '/static/foodstim60/corn cob.jpg', 'key': 'u', 'origWidth': 411, 'origHeight': 411, 'width': 411, 'height': 411, 'widthPercent': 0.45, 'rescaleHeight': False, 'trialN': 79, 'loaded': True, 'loadedTime': 134880.30000001192, 'positionName': 'LEFT', 'positionCoords': [280.2, 244.5], 'bid': 7.72}, {'imgObject': {}, 'id': 'mac & cheese', 'src': '/static/foodstim60/mac & cheese.jpg', 'key': 'i', 'origWidth': 410, 'origHeight': 410, 'width': 410, 'height': 410, 'widthPercent': 0.45, 'rescaleHeight': False, 'trialN': 79, 'loaded': True, 'loadedTime': 134880.90000000596, 'positionName': 'RIGHT', 'positionCoords': [748.8, 245], 'bid': 0.09}]",134878.09999999404,1669831185429,corn cob,mac & cheese,7.72,0.09,-7.63,corn cob,839.2000000178814,843,842.5,True,u,136225.90000000596,1347.800000011921,1669831186777,1348,HRV,HRV_0105,2022-11-30 18:02:28
80,"[{'imgObject': {}, 'id': 'baked potato', 'src': '/static/foodstim60/baked potato.jpg', 'key': 'u', 'origWidth': 409, 'origHeight': 410, 'width': 409, 'height': 410, 'widthPercent': 0.45, 'rescaleHeight': False, 'trialN': 80, 'loaded': True, 'loadedTime': 136229.30000001192, 'positionName': 'LEFT', 'positionCoords': [282.2, 245], 'bid': 0}, {'imgObject': {}, 'id': 'lox', 'src': '/static/foodstim60/lox.jpg', 'key': 'i', 'origWidth': 410, 'origHeight': 411, 'width': 410, 'height': 411, 'widthPercent': 0.45, 'rescaleHeight': False, 'trialN': 80, 'loaded': True, 'loadedTime': 136230, 'positionName': 'RIGHT', 'positionCoords': [748.8, 244.5], 'bid': 0.05}]",136226.5,1669831186778,baked potato,lox,0.0,0.05,0.05,baked potato,770.7000000178814,774,774.0999999940395,True,u,137502.20000001788,1275.7000000178814,1669831188053,1275,HRV,HRV_0105,2022-11-30 18:02:28
81,"[{'imgObject': {}, 'id': 'bagel and cc', 'src': '/static/foodstim60/bagel and cc.jpg', 'key': 'u', 'origWidth': 410, 'origHeight': 410, 'width': 410, 'height': 410, 'widthPercent': 0.45, 'rescaleHeight': False, 'trialN': 81, 'loaded': True, 'loadedTime': 137505, 'positionName': 'LEFT', 'positionCoords': [281.2, 245], 'bid': 0.09}, {'imgObject': {}, 'id': 'mac & cheese', 'src': '/static/foodstim60/mac & cheese.jpg', 'key': 'i', 'origWidth': 410, 'origHeight': 410, 'width': 410, 'height': 410, 'widthPercent': 0.45, 'rescaleHeight': False, 'trialN': 81, 'loaded': True, 'loadedTime': 137505.40000000596, 'positionName': 'RIGHT', 'positionCoords': [748.8, 245], 'bid': 0.09}]",137502.80000001192,1669831188054,bagel and cc,mac & cheese,0.09,0.09,0.0,bagel and cc,693.2999999821186,696,696.1999999880791,True,u,138703.90000000596,1201.0999999940395,1669831189255,1201,HRV,HRV_0105,2022-11-30 18:02:28
82,"[{'imgObject': {}, 'id': 'raisin bran w milk', 'src': '/static/foodstim60/raisin bran w milk.jpg', 'key': 'u', 'origWidth': 411, 'origHeight': 411, 'width': 411, 'height': 411, 'widthPercent': 0.45, 'rescaleHeight': False, 'trialN': 82, 'loaded': True, 'loadedTime': 138706.70000001788, 'positionName': 'LEFT', 'positionCoords': [280.2, 244.5], 'bid': 0}, {'imgObject': {}, 'id': 'rigatoni', 'src': '/static/foodstim60/rigatoni.jpg', 'key': 'i', 'origWidth': 411, 'origHeight': 411, 'width': 411, 'height': 411, 'widthPercent': 0.45, 'rescaleHeight': False, 'trialN': 82, 'loaded': True, 'loadedTime': 138707.09999999404, 'positionName': 'RIGHT', 'positionCoords': [748.8, 244.5], 'bid': 0}]",138704.59999999404,1669831189256,raisin bran w milk,rigatoni,0.0,0.0,0.0,rigatoni,1264.300000011921,1270,1270.1000000238419,True,i,140476.90000000596,1772.300000011921,1669831191028,1772,HRV,HRV_0105,2022-11-30 18:02:28
83,"[{'imgObject': {}, 'id': 'blueberries', 'src': '/static/foodstim60/blueberries.jpg', 'key': 'u', 'origWidth': 411, 'origHeight': 411, 'width': 411, 'height': 411, 'widthPercent': 0.45, 'rescaleHeight': False, 'trialN': 83, 'loaded': True, 'loadedTime': 140479.59999999404, 'positionName': 'LEFT', 'positionCoords': [280.2, 244.5], 'bid': 9.84}, {'imgObject': {}, 'id': 'apple slices', 'src': '/static/foodstim60/apple slices.jpg', 'key': 'i', 'origWidth': 409, 'origHeight': 410, 'width': 409, 'height': 410, 'widthPercent': 0.45, 'rescaleHeight': False, 'trialN': 83, 'loaded': True, 'loadedTime': 140480.30000001192, 'positionName': 'RIGHT', 'positionCoords': [748.8, 245], 'bid': 5}]",140477.5,1669831191029,blueberries,apple slices,9.84,5.0,-4.84,blueberries,1113.4000000059605,1116,1116.300000011921,True,u,142099.0,1621.5,1669831192650,1621,HRV,HRV_0105,2022-11-30 18:02:28
84,"[{'imgObject': {}, 'id': 'omelette', 'src': '/static/foodstim60/omelette.jpg', 'key': 'u', 'origWidth': 410, 'origHeight': 409, 'width': 410, 'height': 409, 'widthPercent': 0.45, 'rescaleHeight': False, 'trialN': 84, 'loaded': True, 'loadedTime': 142101.5, 'positionName': 'LEFT', 'positionCoords': [281.2, 245.5], 'bid': 0}, {'imgObject': {}, 'id': 'hotdog w must', 'src': '/static/foodstim60/hotdog w must.jpg', 'key': 'i', 'origWidth': 409, 'origHeight': 409, 'width': 409, 'height': 409, 'widthPercent': 0.45, 'rescaleHeight': False, 'trialN': 84, 'loaded': True, 'loadedTime': 142102.5, 'positionName': 'RIGHT', 'positionCoords': [748.8, 245.5], 'bid': 0.08}]",142099.59999999404,1669831192651,omelette,hotdog w must,0.0,0.08,0.08,hotdog w must,917.3000000119209,920,920.9000000059605,True,i,143525.40000000596,1425.800000011921,1669831194076,1425,HRV,HRV_0105,2022-11-30 18:02:28
85,"[{'imgObject': {}, 'id': 'apple slices', 'src': '/static/foodstim60/apple slices.jpg', 'key': 'u', 'origWidth': 409, 'origHeight': 410, 'width': 409, 'height': 410, 'widthPercent': 0.45, 'rescaleHeight': False, 'trialN': 85, 'loaded': True, 'loadedTime': 143528.09999999404, 'positionName': 'LEFT', 'positionCoords': [282.2, 245], 'bid': 5}, {'imgObject': {}, 'id': 'pear', 'src': '/static/foodstim60/pear.jpg', 'key': 'i', 'origWidth': 411, 'origHeight': 410, 'width': 411, 'height': 410, 'widthPercent': 0.45, 'rescaleHeight': False, 'trialN': 85, 'loaded': True, 'loadedTime': 143528.5, 'positionName': 'RIGHT', 'positionCoords': [748.8, 245], 'bid': 5.0200000000000005}]",143526.0,1669831194077,apple slices,pear,5.0,5.0200000000000005,0.020000000000000462,pear,1499.5999999940395,1503,1502.800000011921,True,i,145532.90000000596,2006.9000000059605,1669831196084,2007,HRV,HRV_0105,2022-11-30 18:02:28
86,"[{'imgObject': {}, 'id': 'turkey sandwich', 'src': '/static/foodstim60/turkey sandwich.jpg', 'key': 'u', 'origWidth': 409, 'origHeight': 409, 'width': 409, 'height': 409, 'widthPercent': 0.45, 'rescaleHeight': False, 'trialN': 86, 'loaded': True, 'loadedTime': 145535.70000001788, 'positionName': 'LEFT', 'positionCoords': [282.2, 245.5], 'bid': 9.88}, {'imgObject': {}, 'id': 'cherries', 'src': '/static/foodstim60/cherries.jpg', 'key': 'i', 'origWidth': 410, 'origHeight': 411, 'width': 410, 'height': 411, 'widthPercent': 0.45, 'rescaleHeight': False, 'trialN': 86, 'loaded': True, 'loadedTime': 145536.20000001788, 'positionName': 'RIGHT', 'positionCoords': [748.8, 244.5], 'bid': 9.88}]",145533.5,1669831196084,turkey sandwich,cherries,9.88,9.88,0.0,turkey sandwich,1740.0,1744,1743.0999999940395,True,u,147777.5,2244.0,1669831198328,2244,HRV,HRV_0105,2022-11-30 18:02:28
87,"[{'imgObject': {}, 'id': 'strawberries', 'src': '/static/foodstim60/strawberries.jpg', 'key': 'u', 'origWidth': 410, 'origHeight': 410, 'width': 410, 'height': 410, 'widthPercent': 0.45, 'rescaleHeight': False, 'trialN': 87, 'loaded': True, 'loadedTime': 147780.20000001788, 'positionName': 'LEFT', 'positionCoords': [281.2, 245], 'bid': 4.97}, {'imgObject': {}, 'id': 'chicken nuggets2', 'src': '/static/foodstim60/chicken nuggets2.jpg', 'key': 'i', 'origWidth': 410, 'origHeight': 409, 'width': 410, 'height': 409, 'widthPercent': 0.45, 'rescaleHeight': False, 'trialN': 87, 'loaded': True, 'loadedTime': 147780.59999999404, 'positionName': 'RIGHT', 'positionCoords': [748.8, 245.5], 'bid': 0.06}]",147778.09999999404,1669831198329,strawberries,chicken nuggets2,4.97,0.06,-4.91,strawberries,995.4000000059605,999,998.8000000119209,True,u,149279.30000001192,1501.2000000178814,1669831199830,1501,HRV,HRV_0105,2022-11-30 18:02:28
88,"[{'imgObject': {}, 'id': 'sweetpotato', 'src': '/static/foodstim60/sweetpotato.jpg', 'key': 'u', 'origWidth': 410, 'origHeight': 410, 'width': 410, 'height': 410, 'widthPercent': 0.45, 'rescaleHeight': False, 'trialN': 88, 'loaded': True, 'loadedTime': 149280.90000000596, 'positionName': 'LEFT', 'positionCoords': [281.2, 245], 'bid': 0}, {'imgObject': {}, 'id': 'froot loops w milk', 'src': '/static/foodstim60/froot loops w milk.jpg', 'key': 'i', 'origWidth': 410, 'origHeight': 410, 'width': 410, 'height': 410, 'widthPercent': 0.45, 'rescaleHeight': False, 'trialN': 88, 'loaded': True, 'loadedTime': 149281.20000001788, 'positionName': 'RIGHT', 'positionCoords': [748.8, 245], 'bid': 0}]",149279.80000001192,1669831199831,sweetpotato,froot loops w milk,0.0,0.0,0.0,sweetpotato,861.5999999940395,867,867.1999999880791,True,u,150651.90000000596,1372.0999999940395,1669831201203,1372,HRV,HRV_0105,2022-11-30 18:02:28
89,"[{'imgObject': {}, 'id': 'omelette', 'src': '/static/foodstim60/omelette.jpg', 'key': 'u', 'origWidth': 410, 'origHeight': 409, 'width': 410, 'height': 409, 'widthPercent': 0.45, 'rescaleHeight': False, 'trialN': 89, 'loaded': True, 'loadedTime': 150654.70000001788, 'positionName': 'LEFT', 'positionCoords': [281.2, 245.5], 'bid': 0}, {'imgObject': {}, 'id': 'ice cream sundae 002', 'src': '/static/foodstim60/ice cream sundae 002.jpg', 'key': 'i', 'origWidth': 409, 'origHeight': 409, 'width': 409, 'height': 409, 'widthPercent': 0.45, 'rescaleHeight': False, 'trialN': 89, 'loaded': True, 'loadedTime': 150655.40000000596, 'positionName': 'RIGHT', 'positionCoords': [748.8, 245.5], 'bid': 0}]",150652.40000000596,1669831201203,omelette,ice cream sundae 002,0.0,0.0,0.0,ice cream sundae 002,906.8000000119209,910,910.1999999880791,True,i,152067.5,1415.0999999940395,1669831202618,1415,HRV,HRV_0105,2022-11-30 18:02:28
90,"[{'imgObject': {}, 'id': 'baked potato', 'src': '/static/foodstim60/baked potato.jpg', 'key': 'u', 'origWidth': 409, 'origHeight': 410, 'width': 409, 'height': 410, 'widthPercent': 0.45, 'rescaleHeight': False, 'trialN': 90, 'loaded': True, 'loadedTime': 157183.90000000596, 'positionName': 'LEFT', 'positionCoords': [282.2, 245], 'bid': 0}, {'imgObject': {}, 'id': 'kiwi', 'src': '/static/foodstim60/kiwi.jpg', 'key': 'i', 'origWidth': 410, 'origHeight': 410, 'width': 410, 'height': 410, 'widthPercent': 0.45, 'rescaleHeight': False, 'trialN': 90, 'loaded': True, 'loadedTime': 157184.70000001788, 'positionName': 'RIGHT', 'positionCoords': [748.8, 245], 'bid': 2.25}]",157182.0,1669831207732,baked potato,kiwi,0.0,2.25,2.25,kiwi,1638.4000000059605,1642,1641.7000000178814,True,i,159324.0,2142.0,1669831209874,2142,HRV,HRV_0105,2022-11-30 18:02:28
91,"[{'imgObject': {}, 'id': 'Grapes', 'src': '/static/foodstim60/Grapes.jpg', 'key': 'u', 'origWidth': 411, 'origHeight': 411, 'width': 411, 'height': 411, 'widthPercent': 0.45, 'rescaleHeight': False, 'trialN': 91, 'loaded': True, 'loadedTime': 159325.20000001788, 'positionName': 'LEFT', 'positionCoords': [280.2, 244.5], 'bid': 9.86}, {'imgObject': {}, 'id': 'banana', 'src': '/static/foodstim60/banana.jpg', 'key': 'i', 'origWidth': 410, 'origHeight': 410, 'width': 410, 'height': 410, 'widthPercent': 0.45, 'rescaleHeight': False, 'trialN': 91, 'loaded': True, 'loadedTime': 159325.30000001192, 'positionName': 'RIGHT', 'positionCoords': [748.8, 245], 'bid': 5}]",159324.40000000596,1669831209875,Grapes,banana,9.86,5.0,-4.859999999999999,Grapes,1072.699999988079,1077,1077.0,True,u,160905.70000001788,1581.300000011921,1669831211456,1581,HRV,HRV_0105,2022-11-30 18:02:28
92,"[{'imgObject': {}, 'id': 'raisin bran w milk', 'src': '/static/foodstim60/raisin bran w milk.jpg', 'key': 'u', 'origWidth': 411, 'origHeight': 411, 'width': 411, 'height': 411, 'widthPercent': 0.45, 'rescaleHeight': False, 'trialN': 92, 'loaded': True, 'loadedTime': 160907.5, 'positionName': 'LEFT', 'positionCoords': [280.2, 244.5], 'bid': 0}, {'imgObject': {}, 'id': 'fried eggs', 'src': '/static/foodstim60/fried eggs.jpg', 'key': 'i', 'origWidth': 410, 'origHeight': 410, 'width': 410, 'height': 410, 'widthPercent': 0.45, 'rescaleHeight': False, 'trialN': 92, 'loaded': True, 'loadedTime': 160907.80000001192, 'positionName': 'RIGHT', 'positionCoords': [748.8, 245], 'bid': 0.02}]",160906.30000001192,1669831211457,raisin bran w milk,fried eggs,0.0,0.02,0.02,raisin bran w milk,982.9000000059605,986,986.5,True,u,162397.0,1490.699999988079,1669831212947,1490,HRV,HRV_0105,2022-11-30 18:02:28
93,"[{'imgObject': {}, 'id': 'eggsalad', 'src': '/static/foodstim60/eggsalad.jpg', 'key': 'u', 'origWidth': 410, 'origHeight': 409, 'width': 410, 'height': 409, 'widthPercent': 0.45, 'rescaleHeight': False, 'trialN': 93, 'loaded': True, 'loadedTime': 162399.70000001788, 'positionName': 'LEFT', 'positionCoords': [281.2, 245.5], 'bid': 0.04}, {'imgObject': {}, 'id': 'yogurt no spoon', 'src': '/static/foodstim60/yogurt no spoon.jpg', 'key': 'i', 'origWidth': 411, 'origHeight': 410, 'width': 411, 'height': 410, 'widthPercent': 0.45, 'rescaleHeight': False, 'trialN': 93, 'loaded': True, 'loadedTime': 162400.09999999404, 'positionName': 'RIGHT', 'positionCoords': [748.8, 245], 'bid': 0.04}]",162397.40000000596,1669831212948,eggsalad,yogurt no spoon,0.04,0.04,0.0,yogurt no spoon,1048.5999999940395,1052,1052.300000011921,True,i,163953.09999999404,1555.699999988079,1669831214503,1555,HRV,HRV_0105,2022-11-30 18:02:28
94,"[{'imgObject': {}, 'id': 'ice cream sundae 002', 'src': '/static/foodstim60/ice cream sundae 002.jpg', 'key': 'u', 'origWidth': 409, 'origHeight': 409, 'width': 409, 'height': 409, 'widthPercent': 0.45, 'rescaleHeight': False, 'trialN': 94, 'loaded': True, 'loadedTime': 163956, 'positionName': 'LEFT', 'positionCoords': [282.2, 245.5], 'bid': 0}, {'imgObject': {}, 'id': 'cherry tomato', 'src': '/static/foodstim60/cherry tomato.jpg', 'key': 'i', 'origWidth': 410, 'origHeight': 410, 'width': 410, 'height': 410, 'widthPercent': 0.45, 'rescaleHeight': False, 'trialN': 94, 'loaded': True, 'loadedTime': 163956.5, 'positionName': 'RIGHT', 'positionCoords': [748.8, 245], 'bid': 1.86}]",163953.70000001788,1669831214504,ice cream sundae 002,cherry tomato,0.0,1.86,1.86,cherry tomato,986.1999999880791,1014,1014.0999999940395,True,i,165468.80000001192,1515.0999999940395,1669831216019,1515,HRV,HRV_0105,2022-11-30 18:02:28
95,"[{'imgObject': {}, 'id': 'veggieswithdip', 'src': '/static/foodstim60/veggieswithdip.jpg', 'key': 'u', 'origWidth': 409, 'origHeight': 409, 'width': 409, 'height': 409, 'widthPercent': 0.45, 'rescaleHeight': False, 'trialN': 95, 'loaded': True, 'loadedTime': 165471.90000000596, 'positionName': 'LEFT', 'positionCoords': [282.2, 245.5], 'bid': 0.06}, {'imgObject': {}, 'id': 'mango', 'src': '/static/foodstim60/mango.jpg', 'key': 'i', 'origWidth': 411, 'origHeight': 411, 'width': 411, 'height': 411, 'widthPercent': 0.45, 'rescaleHeight': False, 'trialN': 95, 'loaded': True, 'loadedTime': 165472.40000000596, 'positionName': 'RIGHT', 'positionCoords': [748.8, 244.5], 'bid': 0.08}]",165469.59999999404,1669831216020,veggieswithdip,mango,0.06,0.08,0.020000000000000004,mango,1035.2000000178814,1038,1038.300000011921,True,i,167012.20000001788,1542.6000000238419,1669831217562,1542,HRV,HRV_0105,2022-11-30 18:02:28
96,"[{'imgObject': {}, 'id': 'cherries', 'src': '/static/foodstim60/cherries.jpg', 'key': 'u', 'origWidth': 410, 'origHeight': 411, 'width': 410, 'height': 411, 'widthPercent': 0.45, 'rescaleHeight': False, 'trialN': 96, 'loaded': True, 'loadedTime': 167014.80000001192, 'positionName': 'LEFT', 'positionCoords': [281.2, 244.5], 'bid': 9.88}, {'imgObject': {}, 'id': 'seaweed', 'src': '/static/foodstim60/seaweed.jpg', 'key': 'i', 'origWidth': 410, 'origHeight': 410, 'width': 410, 'height': 410, 'widthPercent': 0.45, 'rescaleHeight': False, 'trialN': 96, 'loaded': True, 'loadedTime': 167015.09999999404, 'positionName': 'RIGHT', 'positionCoords': [748.8, 245], 'bid': 1.9}]",167012.80000001192,1669831217563,cherries,seaweed,9.88,1.9,-7.98,cherries,750.0999999940395,753,753.5,True,u,168266.80000001192,1254.0,1669831218817,1254,HRV,HRV_0105,2022-11-30 18:02:28
97,"[{'imgObject': {}, 'id': 'Grapes', 'src': '/static/foodstim60/Grapes.jpg', 'key': 'u', 'origWidth': 411, 'origHeight': 411, 'width': 411, 'height': 411, 'widthPercent': 0.45, 'rescaleHeight': False, 'trialN': 97, 'loaded': True, 'loadedTime': 168269.40000000596, 'positionName': 'LEFT', 'positionCoords': [280.2, 244.5], 'bid': 9.86}, {'imgObject': {}, 'id': 'cherry tomato', 'src': '/static/foodstim60/cherry tomato.jpg', 'key': 'i', 'origWidth': 410, 'origHeight': 410, 'width': 410, 'height': 410, 'widthPercent': 0.45, 'rescaleHeight': False, 'trialN': 97, 'loaded': True, 'loadedTime': 168269.90000000596, 'positionName': 'RIGHT', 'positionCoords': [748.8, 245], 'bid': 1.86}]",168267.40000000596,1669831218817,Grapes,cherry tomato,9.86,1.86,-7.999999999999999,Grapes,868.3000000119209,874,873.1999999880791,True,u,169640.90000000596,1373.5,1669831220191,1374,HRV,HRV_0105,2022-11-30 18:02:28
98,"[{'imgObject': {}, 'id': 'burger', 'src': '/static/foodstim60/burger.jpg', 'key': 'u', 'origWidth': 409, 'origHeight': 409, 'width': 409, 'height': 409, 'widthPercent': 0.45, 'rescaleHeight': False, 'trialN': 98, 'loaded': True, 'loadedTime': 169642.5, 'positionName': 'LEFT', 'positionCoords': [282.2, 245.5], 'bid': 0.09}, {'imgObject': {}, 'id': 'fruitsalad', 'src': '/static/foodstim60/fruitsalad.jpg', 'key': 'i', 'origWidth': 410, 'origHeight': 410, 'width': 410, 'height': 410, 'widthPercent': 0.45, 'rescaleHeight': False, 'trialN': 98, 'loaded': True, 'loadedTime': 169642.70000001788, 'positionName': 'RIGHT', 'positionCoords': [748.8, 245], 'bid': 1.37}]",169641.40000000596,1669831220191,burger,fruitsalad,0.09,1.37,1.28,fruitsalad,1239.199999988079,1245,1245.0,True,i,171389.80000001192,1748.4000000059605,1669831221940,1749,HRV,HRV_0105,2022-11-30 18:02:28
99,"[{'imgObject': {}, 'id': 'eggs', 'src': '/static/foodstim60/eggs.jpg', 'key': 'u', 'origWidth': 409, 'origHeight': 409, 'width': 409, 'height': 409, 'widthPercent': 0.45, 'rescaleHeight': False, 'trialN': 99, 'loaded': True, 'loadedTime': 171392.5, 'positionName': 'LEFT', 'positionCoords': [282.2, 245.5], 'bid': 0.04}, {'imgObject': {}, 'id': 'Grapes', 'src': '/static/foodstim60/Grapes.jpg', 'key': 'i', 'origWidth': 411, 'origHeight': 411, 'width': 411, 'height': 411, 'widthPercent': 0.45, 'rescaleHeight': False, 'trialN': 99, 'loaded': True, 'loadedTime': 171393.30000001192, 'positionName': 'RIGHT', 'positionCoords': [748.8, 244.5], 'bid': 9.86}]",171390.40000000596,1669831221940,eggs,Grapes,0.04,9.86,9.82,Grapes,720.1999999880791,724,723.6999999880791,True,i,172615.70000001788,1225.300000011921,1669831223166,1226,HRV,HRV_0105,2022-11-30 18:02:28
100,"[{'imgObject': {}, 'id': 'chickenfingers', 'src': '/static/foodstim60/chickenfingers.jpg', 'key': 'u', 'origWidth': 410, 'origHeight': 410, 'width': 410, 'height': 410, 'widthPercent': 0.45, 'rescaleHeight': False, 'trialN': 100, 'loaded': True, 'loadedTime': 172616.90000000596, 'positionName': 'LEFT', 'positionCoords': [281.2, 245], 'bid': 4.8}, {'imgObject': {}, 'id': 'granola w milk', 'src': '/static/foodstim60/granola w milk.jpg', 'key': 'i', 'origWidth': 410, 'origHeight': 410, 'width': 410, 'height': 410, 'widthPercent': 0.45, 'rescaleHeight': False, 'trialN': 100, 'loaded': True, 'loadedTime': 172617.09999999404, 'positionName': 'RIGHT', 'positionCoords': [748.8, 245], 'bid': 0.01}]",172616.0,1669831223166,chickenfingers,granola w milk,4.8,0.01,-4.79,chickenfingers,852.5,856,855.9000000059605,True,u,173972.40000000596,1356.4000000059605,1669831224522,1356,HRV,HRV_0105,2022-11-30 18:02:28
101,"[{'imgObject': {}, 'id': 'veggieswithdip', 'src': '/static/foodstim60/veggieswithdip.jpg', 'key': 'u', 'origWidth': 409, 'origHeight': 409, 'width': 409, 'height': 409, 'widthPercent': 0.45, 'rescaleHeight': False, 'trialN': 101, 'loaded': True, 'loadedTime': 173973.59999999404, 'positionName': 'LEFT', 'positionCoords': [282.2, 245.5], 'bid': 0.06}, {'imgObject': {}, 'id': 'fruitsalad', 'src': '/static/foodstim60/fruitsalad.jpg', 'key': 'i', 'origWidth': 410, 'origHeight': 410, 'width': 410, 'height': 410, 'widthPercent': 0.45, 'rescaleHeight': False, 'trialN': 101, 'loaded': True, 'loadedTime': 173973.90000000596, 'positionName': 'RIGHT', 'positionCoords': [748.8, 245], 'bid': 1.37}]",173972.80000001192,1669831224523,veggieswithdip,fruitsalad,0.06,1.37,1.31,fruitsalad,1361.5999999940395,1364,1364.7999999821186,True,i,175840.90000000596,1868.0999999940395,1669831226391,1868,HRV,HRV_0105,2022-11-30 18:02:28
102,"[{'imgObject': {}, 'id': 'yogurt no spoon', 'src': '/static/foodstim60/yogurt no spoon.jpg', 'key': 'u', 'origWidth': 411, 'origHeight': 410, 'width': 411, 'height': 410, 'widthPercent': 0.45, 'rescaleHeight': False, 'trialN': 102, 'loaded': True, 'loadedTime': 175842.5, 'positionName': 'LEFT', 'positionCoords': [280.2, 245], 'bid': 0.04}, {'imgObject': {}, 'id': 'cherries', 'src': '/static/foodstim60/cherries.jpg', 'key': 'i', 'origWidth': 410, 'origHeight': 411, 'width': 410, 'height': 411, 'widthPercent': 0.45, 'rescaleHeight': False, 'trialN': 102, 'loaded': True, 'loadedTime': 175842.90000000596, 'positionName': 'RIGHT', 'positionCoords': [748.8, 244.5], 'bid': 9.88}]",175841.5,1669831226391,yogurt no spoon,cherries,0.04,9.88,9.840000000000002,cherries,635.9000000059605,640,639.5999999940395,True,i,176984.0,1142.5,1669831227534,1143,HRV,HRV_0105,2022-11-30 18:02:28
103,"[{'imgObject': {}, 'id': 'turkeysandwich', 'src': '/static/foodstim60/turkeysandwich.jpg', 'key': 'u', 'origWidth': 409, 'origHeight': 409, 'width': 409, 'height': 409, 'widthPercent': 0.45, 'rescaleHeight': False, 'trialN': 103, 'loaded': True, 'loadedTime': 176986.70000001788, 'positionName': 'LEFT', 'positionCoords': [282.2, 245.5], 'bid': 2.37}, {'imgObject': {}, 'id': 'mac & cheese', 'src': '/static/foodstim60/mac & cheese.jpg', 'key': 'i', 'origWidth': 410, 'origHeight': 410, 'width': 410, 'height': 410, 'widthPercent': 0.45, 'rescaleHeight': False, 'trialN': 103, 'loaded': True, 'loadedTime': 176987.09999999404, 'positionName': 'RIGHT', 'positionCoords': [748.8, 245], 'bid': 0.09}]",176984.5,1669831227534,turkeysandwich,mac & cheese,2.37,0.09,-2.2800000000000002,turkeysandwich,744.8000000119209,749,749.0999999940395,True,u,178233.90000000596,1249.4000000059605,1669831228784,1250,HRV,HRV_0105,2022-11-30 18:02:28
104,"[{'imgObject': {}, 'id': 'seaweed', 'src': '/static/foodstim60/seaweed.jpg', 'key': 'u', 'origWidth': 410, 'origHeight': 410, 'width': 410, 'height': 410, 'widthPercent': 0.45, 'rescaleHeight': False, 'trialN': 104, 'loaded': True, 'loadedTime': 178236.80000001192, 'positionName': 'LEFT', 'positionCoords': [281.2, 245], 'bid': 1.9}, {'imgObject': {}, 'id': 'turkeysandwich', 'src': '/static/foodstim60/turkeysandwich.jpg', 'key': 'i', 'origWidth': 409, 'origHeight': 409, 'width': 409, 'height': 409, 'widthPercent': 0.45, 'rescaleHeight': False, 'trialN': 104, 'loaded': True, 'loadedTime': 178237.20000001788, 'positionName': 'RIGHT', 'positionCoords': [748.8, 245.5], 'bid': 2.37}]",178234.59999999404,1669831228784,seaweed,turkeysandwich,1.9,2.37,0.4700000000000002,turkeysandwich,1147.6000000238419,1151,1151.1000000238419,True,i,179886.0,1651.4000000059605,1669831230436,1652,HRV,HRV_0105,2022-11-30 18:02:28
105,"[{'imgObject': {}, 'id': 'grilled chicken strips', 'src': '/static/foodstim60/grilled chicken strips.jpg', 'key': 'u', 'origWidth': 410, 'origHeight': 411, 'width': 410, 'height': 411, 'widthPercent': 0.45, 'rescaleHeight': False, 'trialN': 105, 'loaded': True, 'loadedTime': 179889, 'positionName': 'LEFT', 'positionCoords': [281.2, 244.5], 'bid': 0.02}, {'imgObject': {}, 'id': 'cantaloupe', 'src': '/static/foodstim60/cantaloupe.jpg', 'key': 'i', 'origWidth': 409, 'origHeight': 409, 'width': 409, 'height': 409, 'widthPercent': 0.45, 'rescaleHeight': False, 'trialN': 105, 'loaded': True, 'loadedTime': 179889.70000001788, 'positionName': 'RIGHT', 'positionCoords': [748.8, 245.5], 'bid': 0.02}]",179886.90000000596,1669831230436,grilled chicken strips,cantaloupe,0.02,0.02,0.0,grilled chicken strips,1058.300000011921,1066,1065.0,True,u,181452.09999999404,1565.199999988079,1669831232002,1566,HRV,HRV_0105,2022-11-30 18:02:28
106,"[{'imgObject': {}, 'id': 'bagel and cc', 'src': '/static/foodstim60/bagel and cc.jpg', 'key': 'u', 'origWidth': 410, 'origHeight': 410, 'width': 410, 'height': 410, 'widthPercent': 0.45, 'rescaleHeight': False, 'trialN': 106, 'loaded': True, 'loadedTime': 181454.70000001788, 'positionName': 'LEFT', 'positionCoords': [281.2, 245], 'bid': 0.09}, {'imgObject': {}, 'id': 'sweetpotato', 'src': '/static/foodstim60/sweetpotato.jpg', 'key': 'i', 'origWidth': 410, 'origHeight': 410, 'width': 410, 'height': 410, 'widthPercent': 0.45, 'rescaleHeight': False, 'trialN': 106, 'loaded': True, 'loadedTime': 181455.5, 'positionName': 'RIGHT', 'positionCoords': [748.8, 245], 'bid': 0}]",181452.70000001788,1669831232002,bagel and cc,sweetpotato,0.09,0.0,-0.09,sweetpotato,959.2999999821186,963,962.6999999880791,True,i,182915.80000001192,1463.0999999940395,1669831233465,1463,HRV,HRV_0105,2022-11-30 18:02:28
107,"[{'imgObject': {}, 'id': 'mac & cheese', 'src': '/static/foodstim60/mac & cheese.jpg', 'key': 'u', 'origWidth': 410, 'origHeight': 410, 'width': 410, 'height': 410, 'widthPercent': 0.45, 'rescaleHeight': False, 'trialN': 107, 'loaded': True, 'loadedTime': 182917, 'positionName': 'LEFT', 'positionCoords': [281.2, 245], 'bid': 0.09}, {'imgObject': {}, 'id': 'fruitsalad', 'src': '/static/foodstim60/fruitsalad.jpg', 'key': 'i', 'origWidth': 410, 'origHeight': 410, 'width': 410, 'height': 410, 'widthPercent': 0.45, 'rescaleHeight': False, 'trialN': 107, 'loaded': True, 'loadedTime': 182917.20000001788, 'positionName': 'RIGHT', 'positionCoords': [748.8, 245], 'bid': 1.37}]",182916.20000001788,1669831233466,mac & cheese,fruitsalad,0.09,1.37,1.28,fruitsalad,962.5999999940395,966,966.1999999880791,True,i,184397.40000000596,1481.199999988079,1669831234947,1481,HRV,HRV_0105,2022-11-30 18:02:28
108,"[{'imgObject': {}, 'id': 'eggs', 'src': '/static/foodstim60/eggs.jpg', 'key': 'u', 'origWidth': 409, 'origHeight': 409, 'width': 409, 'height': 409, 'widthPercent': 0.45, 'rescaleHeight': False, 'trialN': 108, 'loaded': True, 'loadedTime': 184400.80000001192, 'positionName': 'LEFT', 'positionCoords': [282.2, 245.5], 'bid': 0.04}, {'imgObject': {}, 'id': 'lox', 'src': '/static/foodstim60/lox.jpg', 'key': 'i', 'origWidth': 410, 'origHeight': 411, 'width': 410, 'height': 411, 'widthPercent': 0.45, 'rescaleHeight': False, 'trialN': 108, 'loaded': True, 'loadedTime': 184401.5, 'positionName': 'RIGHT', 'positionCoords': [748.8, 244.5], 'bid': 0.05}]",184397.80000001192,1669831234947,eggs,lox,0.04,0.05,0.010000000000000002,lox,1173.9000000059605,1178,1177.2999999821186,True,i,186079.5,1681.699999988079,1669831236629,1682,HRV,HRV_0105,2022-11-30 18:02:28
109,"[{'imgObject': {}, 'id': 'cheerios', 'src': '/static/foodstim60/cheerios.jpg', 'key': 'u', 'origWidth': 409, 'origHeight': 410, 'width': 409, 'height': 410, 'widthPercent': 0.45, 'rescaleHeight': False, 'trialN': 109, 'loaded': True, 'loadedTime': 186082.20000001788, 'positionName': 'LEFT', 'positionCoords': [282.2, 245], 'bid': 0}, {'imgObject': {}, 'id': 'cocktailshrimp', 'src': '/static/foodstim60/cocktailshrimp.jpg', 'key': 'i', 'origWidth': 410, 'origHeight': 410, 'width': 410, 'height': 410, 'widthPercent': 0.45, 'rescaleHeight': False, 'trialN': 109, 'loaded': True, 'loadedTime': 186082.59999999404, 'positionName': 'RIGHT', 'positionCoords': [748.8, 245], 'bid': 0.02}]",186080.0,1669831236629,cheerios,cocktailshrimp,0.0,0.02,0.02,cheerios,794.7000000178814,798,797.7000000178814,True,u,187379.09999999404,1299.0999999940395,1669831237928,1299,HRV,HRV_0105,2022-11-30 18:02:28
110,"[{'imgObject': {}, 'id': 'Tribe humus pita', 'src': '/static/foodstim60/Tribe humus pita.jpg', 'key': 'u', 'origWidth': 411, 'origHeight': 411, 'width': 411, 'height': 411, 'widthPercent': 0.45, 'rescaleHeight': False, 'trialN': 110, 'loaded': True, 'loadedTime': 187381.80000001192, 'positionName': 'LEFT', 'positionCoords': [280.2, 244.5], 'bid': 0}, {'imgObject': {}, 'id': 'granola w milk', 'src': '/static/foodstim60/granola w milk.jpg', 'key': 'i', 'origWidth': 410, 'origHeight': 410, 'width': 410, 'height': 410, 'widthPercent': 0.45, 'rescaleHeight': False, 'trialN': 110, 'loaded': True, 'loadedTime': 187382.59999999404, 'positionName': 'RIGHT', 'positionCoords': [748.8, 245], 'bid': 0.01}]",187379.59999999404,1669831237929,Tribe humus pita,granola w milk,0.0,0.01,0.01,granola w milk,833.0,836,836.4000000059605,True,i,188720.5,1340.9000000059605,1669831239270,1341,HRV,HRV_0105,2022-11-30 18:02:28
