success,trial_type,trial_index,time_elapsed,internal_node_id,Block,TrialNumber,TrialTime,trialTimeDiff,FPS_avg,FPS_med,FPS_mode,TrialDur,winResizeTime,rt,block,button_pressed,MotCoh,MotDir,ColCoh,Color,ChoiceKey,Choice,Accuracy,RT,nFrames,FPS,PPD,missTrial,missTrialMsg,onsetDelay,fullScreenExitTime,canvCenter,TrialType,Score,BlockTrial,stimulus,button_labels,exp,subjectId,date
True,fullscreen,0,2870,0.0-0.0,0.0,1.0,,,,,,,,,,,,,,,,,,,,,,,,,,,,,,,,HRV,HRV_0105,2022-11-30 18:14:05
,wl-check-fps,1,7908,0.0-1.0,0.0,2.0,"[3591.7, 3595.2, 3609.2, 3623.2, 3691.8, 3695.3, 3709.8, 3719.8, 3738, 3754.2, 3770.8, 3794.1, 3804.5, 3833.2, 3841.8, 3855.8, 3870.5, 3887.3, 3902.6, 3920.2, 3936.6, 3954.3, 3972.1, 3993.3, 4004.5, 4023.7, 4040.4, 4069.7, 4070.5, 4085.9, 4102.6, 4119.2, 4135.8, 4151.6, 4168.9, 4186.4, 4201.9, 4218.5, 4235.7, 4253.5, 4271, 4285.4, 4302.4, 4319.2, 4337.6, 4353.3, 4370.6, 4386.8, 4401.6, 4418.7, 4437.6, 4452.4, 4470.3, 4488.7, 4502, 4520.6, 4536.9, 4552.7, 4568.6, 4586.1, 4602.1, 4619.4, 4636.1, 4653, 4668.5, 4686.7, 4702.5, 4719.6, 4734.6, 4752.1, 4770, 4786.7, 4802.1, 4818.8, 4838.3, 4854.4, 4868.7, 4885.4, 4902.5, 4918.8, 4935.5, 4952.4, 4969.6, 4985.3, 5002.1, 5018.7, 5036, 5052.1, 5069, 5085.4, 5102.1, 5118.8, 5135.5, 5152.3, 5169.9, 5185.5, 5202.1, 5218.3, 5235.4, 5252.2, 5268.8, 5285.7, 5302.8, 5318.8, 5335.4, 5354.3, 5368.9, 5385.5, 5402.1, 5419.3, 5435.6, 5451.6, 5475.5, 5487.6, 5503.8, 5521.2, 5539.2, 5558.2, 5570.3, 5585.5, 5603.8, 5618.7, 5635.5, 5651.7, 5668.9, 5685.9, 5701.9, 5719.2, 5736.3, 5759.6, 5770.1, 5788, 5802.9, 5821, 5838.1, 5854.3, 5874.2, 5887.2, 5903.2, 5921, 5935.9, 5952.8, 5971.2, 5986, 6002.8, 6020.9, 6036, 6052, 6070.8, 6085.5, 6102.3, 6121.2, 6136.4, 6152.3, 6168.1, 6186, 6203.2, 6218.9, 6235.3, 6252.1, 6269.2, 6285.6, 6301.9, 6319.1, 6336.2, 6352.3, 6368.9, 6385.6, 6402.3, 6418.9, 6435.5, 6452.5, 6471.1, 6485.4, 6502.3, 6518.9, 6535.6, 6552.3, 6568.7, 6586.1, 6602.2, 6618.7, 6635.6, 6652.3, 6669.3, 6686.3, 6702.3, 6719.6, 6736, 6753.4, 6768.9, 6785.7, 6802.3, 6818.9, 6835.7, 6853.5, 6870.5, 6887.9, 6902.3, 6919, 6935.6, 6952.2, 6969.8, 6986.4, 7002.3, 7019, 7035.6, 7053.2, 7069, 7085.2, 7102.7, 7121.2, 7135.7, 7153.2, 7167.6, 7185.7, 7202.3, 7220, 7237.2, 7254.3, 7271.1, 7293.5, 7313.6, 7325.9, 7335.5, 7352.8, 7370.5, 7385.7, 7402.4, 7419.1, 7435.7, 7452.9, 7468.9, 7487.3, 7504, 7522.2, 7538, 7555.4, 7570.3, 7588.3, 7602.1, 7619.8, 7639.7, 7652.3, 7669, 7686.1, 7703.2, 7719.7, 7735.5, 7754.1, 7768.4, 7787.3, 7802.4, 7819, 7835.7, 7852.9, 7869.1, 7887.3, 7904.1, 7918.5, 7935.8, 7951.8, 7969.1, 7985.7, 8002.5, 8018.5, 8035.7, 8052.5, 8069.1, 8085.7, 8102.4, 8118.9, 8136, 8152.4, 8168.7, 8185.7, 8202.4, 8219, 8235.7, 8252.3, 8269.4, 8285.4, 8302.4, 8319.2, 8335.8, 8352.7, 8369.1, 8385.6, 8402.8, 8419, 8435.8, 8455.9, 8469.5, 8485.7, 8502.3, 8519.1, 8536.3, 8552.3, 8570.8, 8585.7]","[18, 3.5, 14, 14, 68.6, 3.5, 14.5, 10, 18.2, 16.2, 16.6, 23.3, 10.4, 28.7, 8.6, 14, 14.7, 16.8, 15.3, 17.6, 16.4, 17.7, 17.8, 21.2, 11.2, 19.2, 16.7, 29.3, 0.8, 15.4, 16.7, 16.6, 16.6, 15.8, 17.3, 17.5, 15.5, 16.6, 17.2, 17.8, 17.5, 14.4, 17, 16.8, 18.4, 15.7, 17.3, 16.2, 14.8, 17.1, 18.9, 14.8, 17.9, 18.4, 13.3, 18.6, 16.3, 15.8, 15.9, 17.5, 16, 17.3, 16.7, 16.9, 15.5, 18.2, 15.8, 17.1, 15, 17.5, 17.9, 16.7, 15.4, 16.7, 19.5, 16.1, 14.3, 16.7, 17.1, 16.3, 16.7, 16.9, 17.2, 15.7, 16.8, 16.6, 17.3, 16.1, 16.9, 16.4, 16.7, 16.7, 16.7, 16.8, 17.6, 15.6, 16.6, 16.2, 17.1, 16.8, 16.6, 16.9, 17.1, 16, 16.6, 18.9, 14.6, 16.6, 16.6, 17.2, 16.3, 16, 23.9, 12.1, 16.2, 17.4, 18, 19, 12.1, 15.2, 18.3, 14.9, 16.8, 16.2, 17.2, 17, 16, 17.3, 17.1, 23.3, 10.5, 17.9, 14.9, 18.1, 17.1, 16.2, 19.9, 13, 16, 17.8, 14.9, 16.9, 18.4, 14.8, 16.8, 18.1, 15.1, 16, 18.8, 14.7, 16.8, 18.9, 15.2, 15.9, 15.8, 17.9, 17.2, 15.7, 16.4, 16.8, 17.1, 16.4, 16.3, 17.2, 17.1, 16.1, 16.6, 16.7, 16.7, 16.6, 16.6, 17, 18.6, 14.3, 16.9, 16.6, 16.7, 16.7, 16.4, 17.4, 16.1, 16.5, 16.9, 16.7, 17, 17, 16, 17.3, 16.4, 17.4, 15.5, 16.8, 16.6, 16.6, 16.8, 17.8, 17, 17.4, 14.4, 16.7, 16.6, 16.6, 17.6, 16.6, 15.9, 16.7, 16.6, 17.6, 15.8, 16.2, 17.5, 18.5, 14.5, 17.5, 14.4, 18.1, 16.6, 17.7, 17.2, 17.1, 16.8, 22.4, 20.1, 12.3, 9.6, 17.3, 17.7, 15.2, 16.7, 16.7, 16.6, 17.2, 16, 18.4, 16.7, 18.2, 15.8, 17.4, 14.9, 18, 13.8, 17.7, 19.9, 12.6, 16.7, 17.1, 17.1, 16.5, 15.8, 18.6, 14.3, 18.9, 15.1, 16.6, 16.7, 17.2, 16.2, 18.2, 16.8, 14.4, 17.3, 16, 17.3, 16.6, 16.8, 16, 17.2, 16.8, 16.6, 16.6, 16.7, 16.5, 17.1, 16.4, 16.3, 17, 16.7, 16.6, 16.7, 16.6, 17.1, 16, 17, 16.8, 16.6, 16.9, 16.4, 16.5, 17.2, 16.2, 16.8, 20.1, 13.6, 16.2, 16.6, 16.8, 17.2, 16, 18.5, 14.9]",60.0,63.0,60.0,5029.4,[],,,,,,,,,,,,,,,,,,,,,,,,,HRV,HRV_0105,2022-11-30 18:14:05
,wl-html-keyboard-response,2,24771,0.0-2.0-0.0,0.0,3.0,,,,,,,,14851.100000023842,0.0,0,,,,,,,,,,,,,,,,,,,,,,HRV,HRV_0105,2022-11-30 18:14:05
,wl-rdm,3,31957,0.0-3.0-0.0,0.0,4.0,,,,,,,[],,,,0.0,0.0,87.9,0.0,u,0.0,True,1600.0999999940395,91.0,60.0,40.0,False,,3000.0,[],"[720, 450]",ColorTask_Demo,,,,,HRV,HRV_0105,2022-11-30 18:14:05
,wl-rdm,4,37474,0.0-3.0-1.0,0.0,5.0,,,,,,,[],,,,0.0,0.0,87.9,1.0,i,1.0,True,1435.5,81.0,60.0,40.0,False,,2000.0,[],"[720, 450]",ColorTask_Demo,,,,,HRV,HRV_0105,2022-11-30 18:14:05
,wl-html-keyboard-response,5,42384,0.0-3.0-2.0,0.0,6.0,,,,,,,,2905.2000000178814,0.0,1,,,,,,,,,,,,,,,,,,,,,,HRV,HRV_0105,2022-11-30 18:14:05
,wl-html-keyboard-response,6,52734,0.0-4.0-0.0,0.0,7.0,,,,,,,,8344.0,0.0,0,,,,,,,,,,,,,,,,,,,,,,HRV,HRV_0105,2022-11-30 18:14:05
,wl-html-keyboard-response,7,67124,0.0-5.0-0.0,0.0,8.0,,,,,,,,12386.800000011921,0.0,0,,,,,,,,,,,,,,,,,,,,,,HRV,HRV_0105,2022-11-30 18:14:05
,wl-rdm,8,70224,0.0-6.0-0.0,0.0,9.0,,,,,,,[],,,,,,62.5,1.0,i,1.0,True,1674.699999988079,101.0,60.0,40.0,False,,334.4946404427485,[],"[720, 450]",ColorTask,1.0,1.0,,,HRV,HRV_0105,2022-11-30 18:14:05
,wl-rdm,9,73207,0.0-6.1-0.1,0.0,10.0,,,,,,,[],,,,,,73.6,0.0,u,0.0,True,1611.0999999940395,92.0,60.0,40.0,False,,314.79202076501986,[],"[720, 450]",ColorTask,2.0,2.0,,,HRV,HRV_0105,2022-11-30 18:14:05
,wl-rdm,10,75701,0.0-6.2-0.2,0.0,11.0,,,,,,,[],,,,,,50.0,1.0,i,1.0,True,1121.3999999761581,68.0,60.0,40.0,False,,265.19724318162065,[],"[720, 450]",ColorTask,3.0,3.0,,,HRV,HRV_0105,2022-11-30 18:14:05
,wl-rdm,11,78077,0.0-6.3-0.3,0.0,12.0,,,,,,,[],,,,,,56.4,0.0,i,1.0,False,1115.5,67.0,60.0,40.0,False,,203.50879548794939,[],"[720, 450]",ColorTask,2.0,4.0,,,HRV,HRV_0105,2022-11-30 18:14:05
,wl-rdm,12,80573,0.0-6.4-0.4,0.0,13.0,,,,,,,[],,,,,,53.2,1.0,i,1.0,True,1041.1000000238419,63.0,60.0,40.0,False,,377.7937863791965,[],"[720, 450]",ColorTask,3.0,5.0,,,HRV,HRV_0105,2022-11-30 18:14:05
,wl-rdm,13,83057,0.0-6.5-0.5,0.0,14.0,,,,,,,[],,,,,,50.0,0.0,i,1.0,False,1035.7999999821186,63.0,60.0,40.0,False,,357.7329112621186,[],"[720, 450]",ColorTask,2.0,6.0,,,HRV,HRV_0105,2022-11-30 18:14:05
,wl-rdm,14,85607,0.0-6.6-0.6,0.0,15.0,,,,,,,[],,,,,,87.9,0.0,u,0.0,True,1168.0,68.0,60.0,40.0,False,,316.1143497427718,[],"[720, 450]",ColorTask,3.0,7.0,,,HRV,HRV_0105,2022-11-30 18:14:05
,wl-rdm,15,88257,0.0-6.7-0.7,0.0,16.0,,,,,,,[],,,,,,87.9,0.0,u,0.0,True,1276.699999988079,77.0,60.0,40.0,False,,280.34173479130305,[],"[720, 450]",ColorTask,4.0,8.0,,,HRV,HRV_0105,2022-11-30 18:14:05
,wl-rdm,16,90958,0.0-6.8-0.8,0.0,17.0,,,,,,,[],,,,,,56.4,0.0,i,1.0,False,1291.300000011921,78.0,60.0,40.0,False,,329.75411587835424,[],"[720, 450]",ColorTask,3.0,9.0,,,HRV,HRV_0105,2022-11-30 18:14:05
,wl-rdm,17,93607,0.0-6.9-0.9,0.0,18.0,,,,,,,[],,,,,,56.4,0.0,i,1.0,False,1308.0999999940395,79.0,60.0,40.0,False,,281.74445424091914,[],"[720, 450]",ColorTask,2.0,10.0,,,HRV,HRV_0105,2022-11-30 18:14:05
,wl-rdm,18,95941,0.0-6.10-0.10,0.0,19.0,,,,,,,[],,,,,,87.9,1.0,i,1.0,True,1046.5,63.0,60.0,40.0,False,,203.90184750181794,[],"[720, 450]",ColorTask,3.0,11.0,,,HRV,HRV_0105,2022-11-30 18:14:05
,wl-rdm,19,98641,0.0-6.11-0.11,0.0,20.0,,,,,,,[],,,,,,62.5,1.0,i,1.0,True,1436.3999999761581,84.0,60.0,40.0,False,,205.17955321480366,[],"[720, 450]",ColorTask,4.0,12.0,,,HRV,HRV_0105,2022-11-30 18:14:05
,wl-rdm,20,100974,0.0-6.12-0.12,0.0,21.0,,,,,,,[],,,,,,73.6,1.0,i,1.0,True,928.5,52.0,60.0,40.0,False,,321.36309794474494,[],"[720, 450]",ColorTask,5.0,13.0,,,HRV,HRV_0105,2022-11-30 18:14:05
,wl-rdm,21,103741,0.0-6.13-0.13,0.0,22.0,,,,,,,[],,,,,,62.5,0.0,u,0.0,True,1473.199999988079,89.0,60.0,40.0,False,,223.60006192040888,[],"[720, 450]",ColorTask,6.0,14.0,,,HRV,HRV_0105,2022-11-30 18:14:05
,wl-rdm,22,106459,0.0-6.14-0.14,0.0,23.0,,,,,,,[],,,,,,56.4,0.0,i,1.0,False,1428.0,86.0,60.0,40.0,False,,222.57636908005156,[],"[720, 450]",ColorTask,5.0,15.0,,,HRV,HRV_0105,2022-11-30 18:14:05
,wl-rdm,23,109008,0.0-6.15-0.15,0.0,24.0,,,,,,,[],,,,,,56.4,1.0,i,1.0,True,1215.5999999940395,72.0,60.0,40.0,False,,260.0524879458931,[],"[720, 450]",ColorTask,6.0,16.0,,,HRV,HRV_0105,2022-11-30 18:14:05
,wl-rdm,24,111591,0.0-6.16-0.16,0.0,25.0,,,,,,,[],,,,,,50.0,1.0,u,0.0,False,1316.2000000178814,79.0,60.0,40.0,False,,200.3203131559274,[],"[720, 450]",ColorTask,5.0,17.0,,,HRV,HRV_0105,2022-11-30 18:14:05
,wl-rdm,25,114425,0.0-6.17-0.17,0.0,26.0,,,,,,,[],,,,,,62.5,0.0,i,1.0,False,1382.9999999701977,83.0,60.0,40.0,False,,379.81343255046977,[],"[720, 450]",ColorTask,4.0,18.0,,,HRV,HRV_0105,2022-11-30 18:14:05
,wl-rdm,26,116875,0.0-6.18-0.18,0.0,27.0,,,,,,,[],,,,,,56.4,0.0,i,1.0,False,1115.6000000238419,67.0,60.0,40.0,False,,270.3631852618724,[],"[720, 450]",ColorTask,3.0,19.0,,,HRV,HRV_0105,2022-11-30 18:14:05
,wl-rdm,27,119158,0.0-6.19-0.19,0.0,28.0,,,,,,,[],,,,,,87.9,1.0,i,1.0,True,825.8000000119209,50.0,60.0,40.0,False,,392.69235791113124,[],"[720, 450]",ColorTask,4.0,20.0,,,HRV,HRV_0105,2022-11-30 18:14:05
,wl-rdm,28,121458,0.0-6.20-0.20,0.0,29.0,,,,,,,[],,,,,,73.6,1.0,i,1.0,True,1023.2000000178814,62.0,60.0,40.0,False,,200.32395565711437,[],"[720, 450]",ColorTask,5.0,21.0,,,HRV,HRV_0105,2022-11-30 18:14:05
,wl-rdm,29,123641,0.0-6.21-0.21,0.0,30.0,,,,,,,[],,,,,,87.9,1.0,i,1.0,True,743.4000000059605,42.0,60.0,40.0,False,,374.90530915527904,[],"[720, 450]",ColorTask,6.0,22.0,,,HRV,HRV_0105,2022-11-30 18:14:05
,wl-rdm,30,126129,0.0-6.22-0.22,0.0,31.0,,,,,,,[],,,,,,53.2,0.0,i,1.0,False,1160.5999999940395,69.0,60.0,40.0,False,,237.57776015903727,[],"[720, 450]",ColorTask,5.0,23.0,,,HRV,HRV_0105,2022-11-30 18:14:05
,wl-rdm,31,128475,0.0-6.23-0.23,0.0,32.0,,,,,,,[],,,,,,73.6,1.0,i,1.0,True,890.4000000059605,54.0,60.0,40.0,False,,384.4255580814839,[],"[720, 450]",ColorTask,6.0,24.0,,,HRV,HRV_0105,2022-11-30 18:14:05
,wl-rdm,32,131226,0.0-6.24-0.24,0.0,33.0,,,,,,,[],,,,,,62.5,0.0,u,0.0,True,1279.5,77.0,60.0,40.0,False,,395.10888824127005,[],"[720, 450]",ColorTask,7.0,25.0,,,HRV,HRV_0105,2022-11-30 18:14:05
,wl-rdm,33,133592,0.0-6.25-0.25,0.0,34.0,,,,,,,[],,,,,,62.5,1.0,i,1.0,True,930.7999999821186,55.0,60.0,40.0,False,,358.7078839558435,[],"[720, 450]",ColorTask,8.0,26.0,,,HRV,HRV_0105,2022-11-30 18:14:05
,wl-rdm,34,136130,0.0-6.26-0.26,0.0,35.0,,,,,,,[],,,,,,62.5,0.0,i,1.0,False,1223.300000011921,74.0,60.0,40.0,False,,230.01218792581275,[],"[720, 450]",ColorTask,7.0,27.0,,,HRV,HRV_0105,2022-11-30 18:14:05
,wl-rdm,35,138542,0.0-6.27-0.27,0.0,36.0,,,,,,,[],,,,,,73.6,0.0,u,0.0,True,1076.5,65.0,60.0,40.0,False,,252.36426543932754,[],"[720, 450]",ColorTask,8.0,28.0,,,HRV,HRV_0105,2022-11-30 18:14:05
,wl-rdm,36,141008,0.0-6.28-0.28,0.0,37.0,,,,,,,[],,,,,,56.4,1.0,i,1.0,True,1173.9999999701977,66.0,60.0,40.0,False,,224.51775023303716,[],"[720, 450]",ColorTask,9.0,29.0,,,HRV,HRV_0105,2022-11-30 18:14:05
,wl-rdm,37,143993,0.0-6.29-0.29,0.0,38.0,,,,,,,[],,,,,,53.2,0.0,i,1.0,False,1524.800000011921,82.0,60.0,40.0,False,,396.6716172787426,[],"[720, 450]",ColorTask,8.0,30.0,,,HRV,HRV_0105,2022-11-30 18:14:05
,wl-rdm,38,146843,0.0-6.30-0.30,0.0,39.0,,,,,,,[],,,,,,56.4,0.0,u,0.0,True,1440.3999999761581,87.0,60.0,40.0,False,,324.2793918277324,[],"[720, 450]",ColorTask,9.0,31.0,,,HRV,HRV_0105,2022-11-30 18:14:05
,wl-rdm,39,149726,0.0-6.31-0.31,0.0,40.0,,,,,,,[],,,,,,50.0,1.0,i,1.0,True,1497.9000000059605,90.0,60.0,40.0,False,,310.62498408772365,[],"[720, 450]",ColorTask,10.0,32.0,,,HRV,HRV_0105,2022-11-30 18:14:05
,wl-rdm,40,152230,0.0-6.32-0.32,0.0,41.0,,,,,,,[],,,,,,87.9,0.0,u,0.0,True,1091.2000000178814,66.0,60.0,40.0,False,,343.51862054776984,[],"[720, 450]",ColorTask,11.0,33.0,,,HRV,HRV_0105,2022-11-30 18:14:05
,wl-rdm,41,154845,0.0-6.33-0.33,0.0,42.0,,,,,,,[],,,,,,53.2,0.0,u,0.0,True,1197.9000000059605,72.0,60.0,40.0,False,,338.34372942972607,[],"[720, 450]",ColorTask,12.0,34.0,,,HRV,HRV_0105,2022-11-30 18:14:05
,wl-rdm,42,157076,0.0-6.34-0.34,0.0,43.0,,,,,,,[],,,,,,50.0,0.0,i,1.0,False,863.8999999761581,52.0,60.0,40.0,False,,284.22699580982544,[],"[720, 450]",ColorTask,11.0,35.0,,,HRV,HRV_0105,2022-11-30 18:14:05
,wl-rdm,43,159327,0.0-6.35-0.35,0.0,44.0,,,,,,,[],,,,,,50.0,0.0,i,1.0,False,845.0999999940395,51.0,60.0,40.0,False,,345.00145296122514,[],"[720, 450]",ColorTask,10.0,36.0,,,HRV,HRV_0105,2022-11-30 18:14:05
,wl-rdm,44,161610,0.0-6.36-0.36,0.0,45.0,,,,,,,[],,,,,,50.0,1.0,i,1.0,True,903.5999999940395,55.0,60.0,40.0,False,,294.7626836641469,[],"[720, 450]",ColorTask,11.0,37.0,,,HRV,HRV_0105,2022-11-30 18:14:05
,wl-rdm,45,164010,0.0-6.37-0.37,0.0,46.0,,,,,,,[],,,,,,62.5,1.0,i,1.0,True,1022.5999999642372,62.0,60.0,40.0,False,,308.0198473050016,[],"[720, 450]",ColorTask,12.0,38.0,,,HRV,HRV_0105,2022-11-30 18:14:05
,wl-rdm,46,166443,0.0-6.38-0.38,0.0,47.0,,,,,,,[],,,,,,73.6,0.0,u,0.0,True,1053.300000011921,56.0,60.0,40.0,False,,300.9861596222471,[],"[720, 450]",ColorTask,13.0,39.0,,,HRV,HRV_0105,2022-11-30 18:14:05
,wl-rdm,47,168710,0.0-6.39-0.39,0.0,48.0,,,,,,,[],,,,,,73.6,1.0,i,1.0,True,890.5999999940395,49.0,60.0,40.0,False,,298.44853631078774,[],"[720, 450]",ColorTask,14.0,40.0,,,HRV,HRV_0105,2022-11-30 18:14:05
,wl-rdm,48,171627,0.0-6.40-0.40,0.0,49.0,,,,,,,[],,,,,,62.5,0.0,u,0.0,True,1489.6000000238419,87.0,60.0,40.0,False,,355.58730937876226,[],"[720, 450]",ColorTask,15.0,41.0,,,HRV,HRV_0105,2022-11-30 18:14:05
,wl-rdm,49,173846,0.0-6.41-0.41,0.0,50.0,,,,,,,[],,,,,,73.6,0.0,u,0.0,True,886.0000000298023,53.0,60.0,40.0,False,,257.76527646255386,[],"[720, 450]",ColorTask,16.0,42.0,,,HRV,HRV_0105,2022-11-30 18:14:05
,wl-rdm,50,176462,0.0-6.42-0.42,0.0,51.0,,,,,,,[],,,,,,50.0,0.0,i,1.0,False,1328.3999999761581,79.0,60.0,40.0,False,,223.21696595317164,[],"[720, 450]",ColorTask,15.0,43.0,,,HRV,HRV_0105,2022-11-30 18:14:05
,wl-rdm,51,179527,0.0-6.43-0.43,0.0,52.0,,,,,,,[],,,,,,73.6,0.0,u,0.0,True,1655.5999999940395,100.0,60.0,40.0,False,,333.589342339749,[],"[720, 450]",ColorTask,16.0,44.0,,,HRV,HRV_0105,2022-11-30 18:14:05
,wl-rdm,52,182202,0.0-6.44-0.44,0.0,53.0,,,,,,,[],,,,,,62.5,1.0,i,1.0,True,1300.9000000059605,78.0,60.0,40.0,False,,238.80043952825105,[],"[720, 450]",ColorTask,17.0,45.0,,,HRV,HRV_0105,2022-11-30 18:14:05
,wl-rdm,53,185161,0.0-6.45-0.45,0.0,54.0,,,,,,,[],,,,,,62.5,1.0,i,1.0,True,1659.199999988079,99.0,60.0,40.0,False,,229.6038076060657,[],"[720, 450]",ColorTask,18.0,46.0,,,HRV,HRV_0105,2022-11-30 18:14:05
,wl-rdm,54,188349,0.0-6.46-0.46,0.0,55.0,,,,,,,[],,,,,,56.4,1.0,i,1.0,True,1858.5999999940395,106.0,60.0,40.0,False,,263.2391085168544,[],"[720, 450]",ColorTask,19.0,47.0,,,HRV,HRV_0105,2022-11-30 18:14:05
,wl-rdm,55,191094,0.0-6.47-0.47,0.0,56.0,,,,,,,[],,,,,,50.0,1.0,i,1.0,True,1468.199999988079,84.0,60.0,40.0,False,,207.83604285470844,[],"[720, 450]",ColorTask,20.0,48.0,,,HRV,HRV_0105,2022-11-30 18:14:05
,wl-rdm,56,193844,0.0-6.48-0.48,0.0,57.0,,,,,,,[],,,,,,62.5,1.0,i,1.0,True,1339.300000011921,81.0,60.0,40.0,False,,331.20526924126113,[],"[720, 450]",ColorTask,21.0,49.0,,,HRV,HRV_0105,2022-11-30 18:14:05
,wl-rdm,57,197062,0.0-6.49-0.49,0.0,58.0,,,,,,,[],,,,,,53.2,0.0,u,0.0,True,1796.4000000059605,108.0,60.0,40.0,False,,340.55902745008376,[],"[720, 450]",ColorTask,22.0,50.0,,,HRV,HRV_0105,2022-11-30 18:14:05
,wl-rdm,58,199979,0.0-6.50-0.50,0.0,59.0,,,,,,,[],,,,,,56.4,1.0,i,1.0,True,1471.0999999940395,89.0,60.0,40.0,False,,353.6538704427136,[],"[720, 450]",ColorTask,23.0,51.0,,,HRV,HRV_0105,2022-11-30 18:14:05
,wl-rdm,59,203329,0.0-6.51-0.51,0.0,60.0,,,,,,,[],,,,,,73.6,0.0,i,1.0,False,2019.5,120.0,60.0,40.0,False,,252.94383680752878,[],"[720, 450]",ColorTask,22.0,52.0,,,HRV,HRV_0105,2022-11-30 18:14:05
,wl-rdm,60,205961,0.0-6.52-0.52,0.0,61.0,,,,,,,[],,,,,,87.9,1.0,i,1.0,True,1330.0,74.0,60.0,40.0,False,,219.42722820694414,[],"[720, 450]",ColorTask,23.0,53.0,,,HRV,HRV_0105,2022-11-30 18:14:05
,wl-rdm,61,208162,0.0-6.53-0.53,0.0,62.0,,,,,,,[],,,,,,73.6,1.0,i,1.0,True,876.3000000119209,54.0,60.0,40.0,False,,230.84934692391724,[],"[720, 450]",ColorTask,24.0,54.0,,,HRV,HRV_0105,2022-11-30 18:14:05
,wl-rdm,62,210544,0.0-6.54-0.54,0.0,63.0,,,,,,,[],,,,,,62.5,0.0,u,0.0,True,1090.7000000178814,65.0,60.0,40.0,False,,231.39083727293624,[],"[720, 450]",ColorTask,25.0,55.0,,,HRV,HRV_0105,2022-11-30 18:14:05
,wl-rdm,63,213211,0.0-6.55-0.55,0.0,64.0,,,,,,,[],,,,,,50.0,1.0,u,0.0,False,1370.7000000178814,83.0,60.0,40.0,False,,223.0600104268687,[],"[720, 450]",ColorTask,24.0,56.0,,,HRV,HRV_0105,2022-11-30 18:14:05
,wl-rdm,64,216084,0.0-6.56-0.56,0.0,65.0,,,,,,,[],,,,,,56.4,0.0,u,0.0,True,1441.699999988079,79.0,60.0,40.0,False,,357.7351578390213,[],"[720, 450]",ColorTask,25.0,57.0,,,HRV,HRV_0105,2022-11-30 18:14:05
,wl-rdm,65,218429,0.0-6.57-0.57,0.0,66.0,,,,,,,[],,,,,,53.2,1.0,i,1.0,True,942.0,57.0,60.0,40.0,False,,344.50262558667316,[],"[720, 450]",ColorTask,26.0,58.0,,,HRV,HRV_0105,2022-11-30 18:14:05
,wl-rdm,66,221162,0.0-6.58-0.58,0.0,67.0,,,,,,,[],,,,,,56.4,0.0,i,1.0,False,1297.7999999821186,75.0,60.0,40.0,False,,372.32528083267397,[],"[720, 450]",ColorTask,25.0,59.0,,,HRV,HRV_0105,2022-11-30 18:14:05
,wl-rdm,67,223462,0.0-6.59-0.59,0.0,68.0,,,,,,,[],,,,,,87.9,1.0,i,1.0,True,986.7000000178814,60.0,60.0,40.0,False,,227.5927082356245,[],"[720, 450]",ColorTask,26.0,60.0,,,HRV,HRV_0105,2022-11-30 18:14:05
,wl-rdm,68,226512,0.0-6.60-0.60,0.0,69.0,,,,,,,[],,,,,,62.5,0.0,u,0.0,True,1693.2000000178814,99.0,60.0,40.0,False,,272.25216976692894,[],"[720, 450]",ColorTask,27.0,61.0,,,HRV,HRV_0105,2022-11-30 18:14:05
,wl-rdm,69,228983,0.0-6.61-0.61,0.0,70.0,,,,,,,[],,,,,,87.9,0.0,u,0.0,True,1117.5999999940395,67.0,60.0,40.0,False,,290.72295828856295,[],"[720, 450]",ColorTask,28.0,62.0,,,HRV,HRV_0105,2022-11-30 18:14:05
,wl-rdm,70,231761,0.0-6.62-0.62,0.0,71.0,,,,,,,[],,,,,,53.2,1.0,i,1.0,True,1360.7000000178814,77.0,60.0,40.0,False,,345.3078038816118,[],"[720, 450]",ColorTask,29.0,63.0,,,HRV,HRV_0105,2022-11-30 18:14:05
,wl-rdm,71,234129,0.0-6.63-0.63,0.0,72.0,,,,,,,[],,,,,,56.4,1.0,i,1.0,True,1005.5,61.0,60.0,40.0,False,,281.39925011245975,[],"[720, 450]",ColorTask,30.0,64.0,,,HRV,HRV_0105,2022-11-30 18:14:05
,wl-rdm,72,236997,0.0-6.64-0.64,0.0,73.0,,,,,,,[],,,,,,53.2,0.0,u,0.0,True,1459.0999999940395,88.0,60.0,40.0,False,,339.4029089952419,[],"[720, 450]",ColorTask,31.0,65.0,,,HRV,HRV_0105,2022-11-30 18:14:05
,wl-rdm,73,239180,0.0-6.65-0.65,0.0,74.0,,,,,,,[],,,,,,87.9,0.0,u,0.0,True,809.3000000119209,49.0,60.0,40.0,False,,315.4523541128502,[],"[720, 450]",ColorTask,32.0,66.0,,,HRV,HRV_0105,2022-11-30 18:14:05
,wl-rdm,74,241196,0.0-6.66-0.66,0.0,75.0,,,,,,,[],,,,,,87.9,0.0,u,0.0,True,705.5999999940395,43.0,60.0,40.0,False,,224.38758413360415,[],"[720, 450]",ColorTask,33.0,67.0,,,HRV,HRV_0105,2022-11-30 18:14:05
,wl-rdm,75,244097,0.0-6.67-0.67,0.0,76.0,,,,,,,[],,,,,,53.2,1.0,u,0.0,False,1560.1000000238419,94.0,60.0,40.0,False,,265.05637372330966,[],"[720, 450]",ColorTask,32.0,68.0,,,HRV,HRV_0105,2022-11-30 18:14:05
,wl-rdm,76,246446,0.0-6.68-0.68,0.0,77.0,,,,,,,[],,,,,,53.2,0.0,i,1.0,False,956.1000000238419,57.0,60.0,40.0,False,,326.46032461142084,[],"[720, 450]",ColorTask,31.0,69.0,,,HRV,HRV_0105,2022-11-30 18:14:05
,wl-rdm,77,248680,0.0-6.69-0.69,0.0,78.0,,,,,,,[],,,,,,73.6,1.0,i,1.0,True,774.6999999880791,47.0,60.0,40.0,False,,350.8546915362038,[],"[720, 450]",ColorTask,32.0,70.0,,,HRV,HRV_0105,2022-11-30 18:14:05
,wl-rdm,78,251463,0.0-6.70-0.70,0.0,79.0,,,,,,,[],,,,,,62.5,0.0,u,0.0,True,1443.8999999761581,87.0,60.0,40.0,False,,281.197763437442,[],"[720, 450]",ColorTask,33.0,71.0,,,HRV,HRV_0105,2022-11-30 18:14:05
,wl-rdm,79,254098,0.0-6.71-0.71,0.0,80.0,,,,,,,[],,,,,,62.5,0.0,u,0.0,True,1158.0999999940395,70.0,60.0,40.0,False,,398.75542880065643,[],"[720, 450]",ColorTask,34.0,72.0,,,HRV,HRV_0105,2022-11-30 18:14:05
,wl-rdm,80,256182,0.0-6.72-0.72,0.0,81.0,,,,,,,[],,,,,,87.9,1.0,i,1.0,True,756.2999999821186,46.0,60.0,40.0,False,,237.23963460203052,[],"[720, 450]",ColorTask,35.0,73.0,,,HRV,HRV_0105,2022-11-30 18:14:05
,wl-rdm,81,258848,0.0-6.73-0.73,0.0,82.0,,,,,,,[],,,,,,53.2,1.0,i,1.0,True,1326.2999999821186,79.0,60.0,40.0,False,,261.3406878643956,[],"[720, 450]",ColorTask,36.0,74.0,,,HRV,HRV_0105,2022-11-30 18:14:05
,wl-rdm,82,261297,0.0-6.74-0.74,0.0,83.0,,,,,,,[],,,,,,53.2,0.0,u,0.0,True,1069.4000000059605,65.0,60.0,40.0,False,,298.993844744836,[],"[720, 450]",ColorTask,37.0,75.0,,,HRV,HRV_0105,2022-11-30 18:14:05
,wl-rdm,83,263297,0.0-6.75-0.75,0.0,84.0,,,,,,,[],,,,,,73.6,1.0,i,1.0,True,711.3000000119209,42.0,60.0,40.0,False,,209.39358469678066,[],"[720, 450]",ColorTask,38.0,76.0,,,HRV,HRV_0105,2022-11-30 18:14:05
,wl-rdm,84,266446,0.0-6.76-0.76,0.0,85.0,,,,,,,[],,,,,,53.2,1.0,u,0.0,False,1809.9000000059605,107.0,60.0,40.0,False,,269.2745322122702,[],"[720, 450]",ColorTask,37.0,77.0,,,HRV,HRV_0105,2022-11-30 18:14:05
,wl-rdm,85,269313,0.0-6.77-0.77,0.0,86.0,,,,,,,[],,,,,,50.0,0.0,u,0.0,True,1425.5999999642372,86.0,60.0,40.0,False,,380.23120319002186,[],"[720, 450]",ColorTask,38.0,78.0,,,HRV,HRV_0105,2022-11-30 18:14:05
,wl-rdm,86,271914,0.0-6.78-0.78,0.0,87.0,,,,,,,[],,,,,,53.2,0.0,i,1.0,False,1210.7000000178814,73.0,60.0,40.0,False,,331.94640069083835,[],"[720, 450]",ColorTask,37.0,79.0,,,HRV,HRV_0105,2022-11-30 18:14:05
,wl-rdm,87,274147,0.0-6.79-0.79,0.0,88.0,,,,,,,[],,,,,,56.4,1.0,i,1.0,True,773.0999999940395,47.0,60.0,40.0,False,,382.40780979963847,[],"[720, 450]",ColorTask,38.0,80.0,,,HRV,HRV_0105,2022-11-30 18:14:05
,wl-rdm,88,276315,0.0-6.80-0.80,0.0,89.0,,,,,,,[],,,,,,62.5,1.0,i,1.0,True,892.1999999880791,54.0,60.0,40.0,False,,206.54915993702613,[],"[720, 450]",ColorTask,39.0,81.0,,,HRV,HRV_0105,2022-11-30 18:14:05
,wl-rdm,89,278581,0.0-6.81-0.81,0.0,90.0,,,,,,,[],,,,,,56.4,1.0,i,1.0,True,838.7999999821186,51.0,60.0,40.0,False,,348.3672621690013,[],"[720, 450]",ColorTask,40.0,82.0,,,HRV,HRV_0105,2022-11-30 18:14:05
,wl-rdm,90,280781,0.0-6.82-0.82,0.0,91.0,,,,,,,[],,,,,,53.2,1.0,i,1.0,True,864.5,48.0,60.0,40.0,False,,266.51591669342093,[],"[720, 450]",ColorTask,41.0,83.0,,,HRV,HRV_0105,2022-11-30 18:14:05
,wl-rdm,91,283099,0.0-6.83-0.83,0.0,92.0,,,,,,,[],,,,,,73.6,0.0,i,1.0,False,835.5,50.0,60.0,40.0,False,,348.1509933554096,[],"[720, 450]",ColorTask,40.0,84.0,,,HRV,HRV_0105,2022-11-30 18:14:05
,wl-rdm,92,286014,0.0-6.84-0.84,0.0,93.0,,,,,,,[],,,,,,56.4,1.0,i,1.0,True,1521.5,92.0,60.0,40.0,False,,327.70970558774434,[],"[720, 450]",ColorTask,41.0,85.0,,,HRV,HRV_0105,2022-11-30 18:14:05
,wl-rdm,93,289082,0.0-6.85-0.85,0.0,94.0,,,,,,,[],,,,,,73.6,0.0,u,0.0,True,1751.800000011921,102.0,60.0,40.0,False,,245.63151478309172,[],"[720, 450]",ColorTask,42.0,86.0,,,HRV,HRV_0105,2022-11-30 18:14:05
,wl-rdm,94,291532,0.0-6.86-0.86,0.0,95.0,,,,,,,[],,,,,,87.9,1.0,i,1.0,True,1004.1999999880791,61.0,60.0,40.0,False,,369.4234817481935,[],"[720, 450]",ColorTask,43.0,87.0,,,HRV,HRV_0105,2022-11-30 18:14:05
,wl-rdm,95,293731,0.0-6.87-0.87,0.0,96.0,,,,,,,[],,,,,,73.6,1.0,i,1.0,True,880.4000000059605,53.0,60.0,40.0,False,,244.46630410099814,[],"[720, 450]",ColorTask,44.0,88.0,,,HRV,HRV_0105,2022-11-30 18:14:05
,wl-rdm,96,296098,0.0-6.88-0.88,0.0,97.0,,,,,,,[],,,,,,56.4,0.0,u,0.0,True,1057.9000000059605,64.0,60.0,40.0,False,,241.10287926044256,[],"[720, 450]",ColorTask,45.0,89.0,,,HRV,HRV_0105,2022-11-30 18:14:05
,wl-rdm,97,300033,0.0-6.89-0.89,0.0,98.0,,,,,,,[],,,,,,50.0,0.0,u,0.0,True,2483.7000000178814,145.0,60.0,40.0,False,,367.73944549863586,[],"[720, 450]",ColorTask,46.0,90.0,,,HRV,HRV_0105,2022-11-30 18:14:05
,wl-rdm,98,302266,0.0-6.90-0.90,0.0,99.0,,,,,,,[],,,,,,87.9,0.0,u,0.0,True,802.5,49.0,60.0,40.0,False,,358.93549980846694,[],"[720, 450]",ColorTask,47.0,91.0,,,HRV,HRV_0105,2022-11-30 18:14:05
,wl-rdm,99,304649,0.0-6.91-0.91,0.0,100.0,,,,,,,[],,,,,,53.2,0.0,u,0.0,True,1052.5,59.0,60.0,40.0,False,,259.86433778625724,[],"[720, 450]",ColorTask,48.0,92.0,,,HRV,HRV_0105,2022-11-30 18:14:05
,wl-rdm,100,306865,0.0-6.92-0.92,0.0,101.0,,,,,,,[],,,,,,87.9,0.0,u,0.0,True,778.8000000119209,47.0,60.0,40.0,False,,357.20539492310087,[],"[720, 450]",ColorTask,49.0,93.0,,,HRV,HRV_0105,2022-11-30 18:14:05
,wl-rdm,101,309799,0.0-6.93-0.93,0.0,102.0,,,,,,,[],,,,,,56.4,1.0,i,1.0,True,1491.699999988079,85.0,60.0,40.0,False,,370.61897262454835,[],"[720, 450]",ColorTask,50.0,94.0,,,HRV,HRV_0105,2022-11-30 18:14:05
,wl-rdm,102,312418,0.0-6.94-0.94,0.0,103.0,,,,,,,[],,,,,,50.0,1.0,i,1.0,True,1216.9000000059605,73.0,60.0,40.0,False,,321.63123017213013,[],"[720, 450]",ColorTask,51.0,95.0,,,HRV,HRV_0105,2022-11-30 18:14:05
,wl-rdm,103,314665,0.0-6.95-0.95,0.0,104.0,,,,,,,[],,,,,,50.0,1.0,i,1.0,True,961.9000000059605,58.0,60.0,40.0,False,,216.76784299993435,[],"[720, 450]",ColorTask,52.0,96.0,,,HRV,HRV_0105,2022-11-30 18:14:05
,wl-rdm,104,317666,0.0-6.96-0.96,0.0,105.0,,,,,,,[],,,,,,53.2,1.0,i,1.0,True,1670.7999999821186,99.0,60.0,40.0,False,,243.07258410873052,[],"[720, 450]",ColorTask,53.0,97.0,,,HRV,HRV_0105,2022-11-30 18:14:05
,wl-rdm,105,319898,0.0-6.97-0.97,0.0,106.0,,,,,,,[],,,,,,73.6,1.0,i,1.0,True,809.6999999880791,49.0,60.0,40.0,False,,364.79268452007324,[],"[720, 450]",ColorTask,54.0,98.0,,,HRV,HRV_0105,2022-11-30 18:14:05
,wl-rdm,106,323102,0.0-6.98-0.98,0.0,107.0,,,,,,,[],,,,,,53.2,1.0,u,0.0,False,1797.5000000298023,108.0,60.0,40.0,False,,340.9992262812623,[],"[720, 450]",ColorTask,53.0,99.0,,,HRV,HRV_0105,2022-11-30 18:14:05
,wl-rdm,107,326149,0.0-6.99-0.99,0.0,108.0,,,,,,,[],,,,,,50.0,0.0,i,1.0,False,1737.300000011921,104.0,60.0,40.0,False,,240.80910042547566,[],"[720, 450]",ColorTask,52.0,100.0,,,HRV,HRV_0105,2022-11-30 18:14:05
,wl-rdm,108,328399,0.0-6.100-0.100,0.0,109.0,,,,,,,[],,,,,,87.9,0.0,u,0.0,True,913.7999999821186,53.0,60.0,40.0,False,,260.5697138278079,[],"[720, 450]",ColorTask,53.0,101.0,,,HRV,HRV_0105,2022-11-30 18:14:05
,wl-rdm,109,331233,0.0-6.101-0.101,0.0,110.0,,,,,,,[],,,,,,50.0,0.0,i,1.0,False,1457.5,88.0,60.0,40.0,False,,287.20198968069263,[],"[720, 450]",ColorTask,52.0,102.0,,,HRV,HRV_0105,2022-11-30 18:14:05
,wl-rdm,110,333668,0.0-6.102-0.102,0.0,111.0,,,,,,,[],,,,,,73.6,0.0,u,0.0,True,1031.0999999940395,59.0,60.0,40.0,False,,332.6101049814969,[],"[720, 450]",ColorTask,53.0,103.0,,,HRV,HRV_0105,2022-11-30 18:14:05
,wl-rdm,111,336086,0.0-6.103-0.103,0.0,112.0,,,,,,,[],,,,,,62.5,1.0,i,1.0,True,1012.7000000178814,61.0,60.0,40.0,False,,327.5682616553686,[],"[720, 450]",ColorTask,54.0,104.0,,,HRV,HRV_0105,2022-11-30 18:14:05
,wl-rdm,112,338816,0.0-6.104-0.104,0.0,113.0,,,,,,,[],,,,,,50.0,1.0,i,1.0,True,1364.7000000178814,82.0,60.0,40.0,False,,297.6527575116278,[],"[720, 450]",ColorTask,55.0,105.0,,,HRV,HRV_0105,2022-11-30 18:14:05
,wl-rdm,113,341300,0.0-6.105-0.105,0.0,114.0,,,,,,,[],,,,,,87.9,1.0,i,1.0,True,1155.7999999821186,69.0,60.0,40.0,False,,254.2646438258055,[],"[720, 450]",ColorTask,56.0,106.0,,,HRV,HRV_0105,2022-11-30 18:14:05
,wl-rdm,114,343316,0.0-6.106-0.106,0.0,115.0,,,,,,,[],,,,,,87.9,1.0,i,1.0,True,673.5999999940395,41.0,60.0,40.0,False,,258.79804842315355,[],"[720, 450]",ColorTask,57.0,107.0,,,HRV,HRV_0105,2022-11-30 18:14:05
,wl-rdm,115,346234,0.0-6.107-0.107,0.0,116.0,,,,,,,[],,,,,,50.0,0.0,i,1.0,False,1587.5,95.0,60.0,40.0,False,,252.00447071911475,[],"[720, 450]",ColorTask,56.0,108.0,,,HRV,HRV_0105,2022-11-30 18:14:05
,wl-html-keyboard-response,116,393814,0.0-7.0-0.0,1.0,117.0,,,,,,,,45570.5,1.0,0,,,,,,,,,,,,,,,,,,,,,,HRV,HRV_0105,2022-11-30 18:14:05
,wl-rdm,117,396568,0.0-8.0-0.0,1.0,118.0,,,,,,,[],,,,,,50.0,0.0,i,1.0,False,1358.7000000178814,78.0,60.0,40.0,False,,308.0024598183113,[],"[720, 450]",ColorTask,55.0,1.0,,,HRV,HRV_0105,2022-11-30 18:14:05
,wl-rdm,118,400019,0.0-8.1-0.1,1.0,119.0,,,,,,,[],,,,,,62.5,0.0,u,0.0,True,2033.4000000059605,122.0,60.0,40.0,False,,337.44688732843036,[],"[720, 450]",ColorTask,56.0,2.0,,,HRV,HRV_0105,2022-11-30 18:14:05
,wl-rdm,119,402435,0.0-8.2-0.2,1.0,120.0,,,,,,,[],,,,,,56.4,1.0,i,1.0,True,969.1999999880791,59.0,60.0,40.0,False,,312.0645859954362,[],"[720, 450]",ColorTask,57.0,3.0,,,HRV,HRV_0105,2022-11-30 18:14:05
,wl-rdm,120,405303,0.0-8.3-0.3,1.0,121.0,,,,,,,[],,,,,,53.2,1.0,i,1.0,True,1562.800000011921,87.0,60.0,40.0,False,,245.21756155222724,[],"[720, 450]",ColorTask,58.0,4.0,,,HRV,HRV_0105,2022-11-30 18:14:05
,wl-rdm,121,408402,0.0-8.4-0.4,1.0,122.0,,,,,,,[],,,,,,73.6,0.0,u,0.0,True,1673.300000011921,91.0,60.0,40.0,False,,340.4200711842967,[],"[720, 450]",ColorTask,59.0,5.0,,,HRV,HRV_0105,2022-11-30 18:14:05
,wl-rdm,122,410736,0.0-8.5-0.5,1.0,123.0,,,,,,,[],,,,,,56.4,1.0,i,1.0,True,905.6999999880791,55.0,60.0,40.0,False,,358.30518591582893,[],"[720, 450]",ColorTask,60.0,6.0,,,HRV,HRV_0105,2022-11-30 18:14:05
,wl-rdm,123,413404,0.0-8.6-0.6,1.0,124.0,,,,,,,[],,,,,,50.0,0.0,i,1.0,False,1189.2000000178814,72.0,60.0,40.0,False,,394.4114076331788,[],"[720, 450]",ColorTask,59.0,7.0,,,HRV,HRV_0105,2022-11-30 18:14:05
,wl-rdm,124,415551,0.0-8.7-0.7,1.0,125.0,,,,,,,[],,,,,,73.6,1.0,i,1.0,True,721.0,44.0,60.0,40.0,False,,348.01554297087637,[],"[720, 450]",ColorTask,60.0,8.0,,,HRV,HRV_0105,2022-11-30 18:14:05
,wl-rdm,125,417953,0.0-8.8-0.8,1.0,126.0,,,,,,,[],,,,,,62.5,1.0,i,1.0,True,1059.5,63.0,60.0,40.0,False,,268.1526615877733,[],"[720, 450]",ColorTask,61.0,9.0,,,HRV,HRV_0105,2022-11-30 18:14:05
,wl-rdm,126,420120,0.0-8.9-0.9,1.0,127.0,,,,,,,[],,,,,,87.9,0.0,u,0.0,True,846.5999999940395,50.0,60.0,40.0,False,,249.08495362531042,[],"[720, 450]",ColorTask,62.0,10.0,,,HRV,HRV_0105,2022-11-30 18:14:05
,wl-rdm,127,422486,0.0-8.10-0.10,1.0,128.0,,,,,,,[],,,,,,53.2,1.0,i,1.0,True,1024.9000000059605,62.0,60.0,40.0,False,,264.99138353606327,[],"[720, 450]",ColorTask,63.0,11.0,,,HRV,HRV_0105,2022-11-30 18:14:05
,wl-rdm,128,424603,0.0-8.11-0.11,1.0,129.0,,,,,,,[],,,,,,73.6,1.0,i,1.0,True,771.5999999940395,45.0,60.0,40.0,False,,226.9688059699384,[],"[720, 450]",ColorTask,64.0,12.0,,,HRV,HRV_0105,2022-11-30 18:14:05
,wl-rdm,129,427087,0.0-8.12-0.12,1.0,130.0,,,,,,,[],,,,,,50.0,1.0,i,1.0,True,1097.2999999821186,66.0,60.0,40.0,False,,299.9651065962737,[],"[720, 450]",ColorTask,65.0,13.0,,,HRV,HRV_0105,2022-11-30 18:14:05
,wl-rdm,130,430137,0.0-8.13-0.13,1.0,131.0,,,,,,,[],,,,,,62.5,0.0,u,0.0,True,1629.0,98.0,60.0,40.0,False,,338.2137788494196,[],"[720, 450]",ColorTask,66.0,14.0,,,HRV,HRV_0105,2022-11-30 18:14:05
,wl-rdm,131,433020,0.0-8.14-0.14,1.0,132.0,,,,,,,[],,,,,,62.5,1.0,i,1.0,True,1478.2999999821186,89.0,60.0,40.0,False,,330.4384130143045,[],"[720, 450]",ColorTask,67.0,15.0,,,HRV,HRV_0105,2022-11-30 18:14:05
,wl-rdm,132,436086,0.0-8.15-0.15,1.0,133.0,,,,,,,[],,,,,,56.4,0.0,u,0.0,True,1645.7999999821186,99.0,60.0,40.0,False,,357.65142901325703,[],"[720, 450]",ColorTask,68.0,16.0,,,HRV,HRV_0105,2022-11-30 18:14:05
,wl-rdm,133,438555,0.0-8.16-0.16,1.0,134.0,,,,,,,[],,,,,,50.0,1.0,i,1.0,True,1133.4999999701977,65.0,60.0,40.0,False,,269.9688091979442,[],"[720, 450]",ColorTask,69.0,17.0,,,HRV,HRV_0105,2022-11-30 18:14:05
,wl-rdm,134,441324,0.0-8.17-0.17,1.0,135.0,,,,,,,[],,,,,,56.4,1.0,i,1.0,True,1273.5,77.0,60.0,40.0,False,,390.17863782258644,[],"[720, 450]",ColorTask,70.0,18.0,,,HRV,HRV_0105,2022-11-30 18:14:05
,wl-rdm,135,443955,0.0-8.18-0.18,1.0,136.0,,,,,,,[],,,,,,50.0,0.0,i,1.0,False,1248.5999999940395,75.0,60.0,40.0,False,,301.13041400879246,[],"[720, 450]",ColorTask,69.0,19.0,,,HRV,HRV_0105,2022-11-30 18:14:05
,wl-rdm,136,445988,0.0-8.19-0.19,1.0,137.0,,,,,,,[],,,,,,87.9,1.0,i,1.0,True,693.7000000178814,42.0,60.0,40.0,False,,267.5240975783113,[],"[720, 450]",ColorTask,70.0,20.0,,,HRV,HRV_0105,2022-11-30 18:14:05
,wl-rdm,137,449855,0.0-8.20-0.20,1.0,138.0,,,,,,,[],,,,,,53.2,0.0,u,0.0,True,2596.5999999940395,149.0,60.0,40.0,False,,201.35487283690537,[],"[720, 450]",ColorTask,71.0,21.0,,,HRV,HRV_0105,2022-11-30 18:14:05
,wl-rdm,138,452221,0.0-8.21-0.21,1.0,139.0,,,,,,,[],,,,,,56.4,0.0,i,1.0,False,1082.800000011921,65.0,60.0,40.0,False,,207.83379200708023,[],"[720, 450]",ColorTask,70.0,22.0,,,HRV,HRV_0105,2022-11-30 18:14:05
,wl-rdm,139,454871,0.0-8.22-0.22,1.0,140.0,,,,,,,[],,,,,,56.4,1.0,i,1.0,True,1249.5999999940395,75.0,60.0,40.0,False,,317.9952669437056,[],"[720, 450]",ColorTask,71.0,23.0,,,HRV,HRV_0105,2022-11-30 18:14:05
,wl-rdm,140,457371,0.0-8.23-0.23,1.0,140.0,,,,,,,[],,,,,,62.5,1.0,i,1.0,True,1157.3999999761581,70.0,60.0,40.0,True,blurEvent ,275.87465042762324,[],"[720, 450]",ColorTask,72.0,24.0,,,HRV,HRV_0105,2022-11-30 18:14:05
,wl-rdm,141,461789,0.0-8.24-0.24,1.0,140.0,,,,,,,[],,,,,,53.2,0.0,,,,,168.0,60.0,40.0,True,RT_timeout ,323.0622129020527,[],"[720, 450]",ColorTask,71.0,25.0,,,HRV,HRV_0105,2022-11-30 18:14:05
,wl-rdm,142,466222,0.0-8.25-0.25,1.0,140.0,,,,,,,[],,,,,,62.5,1.0,,,,,178.0,60.0,40.0,True,RT_timeout ,348.5529619790256,[],"[720, 450]",ColorTask,70.0,26.0,,,HRV,HRV_0105,2022-11-30 18:14:05
,wl-rdm,143,470538,0.0-8.26-0.26,1.0,140.0,,,,,,,[],,,,,,73.6,1.0,,,,,179.0,60.0,40.0,True,RT_timeout ,244.75854119853125,[],"[720, 450]",ColorTask,69.0,27.0,,,HRV,HRV_0105,2022-11-30 18:14:05
,wl-rdm,144,474839,0.0-8.27-0.27,1.0,140.0,,,,,,,[],,,,,,56.4,0.0,,,,,179.0,60.0,40.0,True,RT_timeout ,215.48363918955516,[],"[720, 450]",ColorTask,68.0,28.0,,,HRV,HRV_0105,2022-11-30 18:14:05
,wl-rdm,145,479383,0.0-8.28-0.28,1.0,140.0,,,,,,,[],,,,,,62.5,1.0,,,,,179.0,60.0,40.0,True,RT_timeout ,236.68914189530074,[],"[720, 450]",ColorTask,67.0,29.0,,,HRV,HRV_0105,2022-11-30 18:14:05
,wl-rdm,146,481795,0.0-8.29-0.29,1.0,141.0,,,,,,,[],,,,,,56.4,1.0,i,1.0,True,708.5000000298023,21.0,60.0,40.0,False,,326.1349298486159,[],"[720, 450]",ColorTask,68.0,30.0,,,HRV,HRV_0105,2022-11-30 18:14:05
,wl-rdm,147,484672,0.0-8.30-0.30,1.0,142.0,,,,,,,[],,,,,,87.9,0.0,u,0.0,True,1530.699999988079,84.0,60.0,40.0,False,,266.17961414943665,[],"[720, 450]",ColorTask,69.0,31.0,,,HRV,HRV_0105,2022-11-30 18:14:05
,wl-rdm,148,486974,0.0-8.31-0.31,1.0,143.0,,,,,,,[],,,,,,73.6,1.0,i,1.0,True,908.5,55.0,60.0,40.0,False,,315.1439754551313,[],"[720, 450]",ColorTask,70.0,32.0,,,HRV,HRV_0105,2022-11-30 18:14:05
,wl-rdm,149,489288,0.0-8.32-0.32,1.0,144.0,,,,,,,[],,,,,,87.9,1.0,i,1.0,True,878.5,53.0,60.0,40.0,False,,378.85511492436825,[],"[720, 450]",ColorTask,71.0,33.0,,,HRV,HRV_0105,2022-11-30 18:14:05
,wl-rdm,150,491707,0.0-8.33-0.33,1.0,145.0,,,,,,,[],,,,,,56.4,0.0,u,0.0,True,1131.5,68.0,60.0,40.0,False,,200.8268591034639,[],"[720, 450]",ColorTask,72.0,34.0,,,HRV,HRV_0105,2022-11-30 18:14:05
,wl-rdm,151,494055,0.0-8.34-0.34,1.0,146.0,,,,,,,[],,,,,,53.2,1.0,i,1.0,True,1049.199999988079,62.0,60.0,40.0,False,,226.33177224711434,[],"[720, 450]",ColorTask,73.0,35.0,,,HRV,HRV_0105,2022-11-30 18:14:05
,wl-rdm,152,496489,0.0-8.35-0.35,1.0,147.0,,,,,,,[],,,,,,73.6,0.0,u,0.0,True,1100.5999999940395,61.0,60.0,40.0,False,,260.67666742138977,[],"[720, 450]",ColorTask,74.0,36.0,,,HRV,HRV_0105,2022-11-30 18:14:05
,wl-rdm,153,499013,0.0-8.36-0.36,1.0,148.0,,,,,,,[],,,,,,87.9,1.0,i,1.0,True,1206.5000000298023,70.0,60.0,40.0,False,,217.7122179347843,[],"[720, 450]",ColorTask,75.0,37.0,,,HRV,HRV_0105,2022-11-30 18:14:05
,wl-rdm,154,501239,0.0-8.37-0.37,1.0,149.0,,,,,,,[],,,,,,87.9,1.0,i,1.0,True,925.8999999761581,56.0,60.0,40.0,False,,216.84108918530194,[],"[720, 450]",ColorTask,76.0,38.0,,,HRV,HRV_0105,2022-11-30 18:14:05
,wl-rdm,155,503706,0.0-8.38-0.38,1.0,150.0,,,,,,,[],,,,,,73.6,1.0,i,1.0,True,1032.0999999940395,62.0,60.0,40.0,False,,355.6962246189792,[],"[720, 450]",ColorTask,77.0,39.0,,,HRV,HRV_0105,2022-11-30 18:14:05
,wl-rdm,156,506222,0.0-8.39-0.39,1.0,151.0,,,,,,,[],,,,,,87.9,0.0,u,0.0,True,1162.699999988079,66.0,60.0,40.0,False,,291.14233265998246,[],"[720, 450]",ColorTask,78.0,40.0,,,HRV,HRV_0105,2022-11-30 18:14:05
,wl-rdm,157,509156,0.0-8.40-0.40,1.0,152.0,,,,,,,[],,,,,,50.0,1.0,u,0.0,False,1607.8999999761581,97.0,60.0,40.0,False,,247.51532980508108,[],"[720, 450]",ColorTask,77.0,41.0,,,HRV,HRV_0105,2022-11-30 18:14:05
,wl-rdm,158,511290,0.0-8.41-0.41,1.0,153.0,,,,,,,[],,,,,,87.9,1.0,i,1.0,True,778.3000000119209,46.0,60.0,40.0,False,,269.80990900842767,[],"[720, 450]",ColorTask,78.0,42.0,,,HRV,HRV_0105,2022-11-30 18:14:05
,wl-rdm,159,513675,0.0-8.42-0.42,1.0,154.0,,,,,,,[],,,,,,73.6,1.0,i,1.0,True,994.6999999880791,59.0,60.0,40.0,False,,322.1032720530204,[],"[720, 450]",ColorTask,79.0,43.0,,,HRV,HRV_0105,2022-11-30 18:14:05
,wl-rdm,160,516707,0.0-8.43-0.43,1.0,155.0,,,,,,,[],,,,,,62.5,0.0,i,1.0,False,1559.5,92.0,60.0,40.0,False,,392.98548427387624,[],"[720, 450]",ColorTask,78.0,44.0,,,HRV,HRV_0105,2022-11-30 18:14:05
,wl-rdm,161,519190,0.0-8.44-0.44,1.0,156.0,,,,,,,[],,,,,,53.2,0.0,u,0.0,True,1157.4000000059605,70.0,60.0,40.0,False,,263.2035486916605,[],"[720, 450]",ColorTask,79.0,45.0,,,HRV,HRV_0105,2022-11-30 18:14:05
,wl-rdm,162,521457,0.0-8.45-0.45,1.0,157.0,,,,,,,[],,,,,,73.6,0.0,u,0.0,True,926.3000000119209,54.0,60.0,40.0,False,,253.71967999675385,[],"[720, 450]",ColorTask,80.0,46.0,,,HRV,HRV_0105,2022-11-30 18:14:05
,wl-rdm,163,524308,0.0-8.46-0.46,1.0,158.0,,,,,,,[],,,,,,53.2,0.0,u,0.0,True,1436.0999999940395,87.0,60.0,40.0,False,,333.8261415451843,[],"[720, 450]",ColorTask,81.0,47.0,,,HRV,HRV_0105,2022-11-30 18:14:05
,wl-rdm,164,526741,0.0-8.47-0.47,1.0,159.0,,,,,,,[],,,,,,62.5,0.0,u,0.0,True,1158.300000011921,69.0,60.0,40.0,False,,214.33967819741946,[],"[720, 450]",ColorTask,82.0,48.0,,,HRV,HRV_0105,2022-11-30 18:14:05
,wl-rdm,165,529057,0.0-8.48-0.48,1.0,160.0,,,,,,,[],,,,,,87.9,1.0,i,1.0,True,951.4000000059605,58.0,60.0,40.0,False,,293.39400538958415,[],"[720, 450]",ColorTask,83.0,49.0,,,HRV,HRV_0105,2022-11-30 18:14:05
,wl-rdm,166,532342,0.0-8.49-0.49,1.0,161.0,,,,,,,[],,,,,,62.5,1.0,i,1.0,True,1901.199999988079,113.0,60.0,40.0,False,,309.2133851985358,[],"[720, 450]",ColorTask,84.0,50.0,,,HRV,HRV_0105,2022-11-30 18:14:05
,wl-rdm,167,534507,0.0-8.50-0.50,1.0,162.0,,,,,,,[],,,,,,87.9,1.0,i,1.0,True,773.5999999940395,45.0,60.0,40.0,False,,329.39808155297254,[],"[720, 450]",ColorTask,85.0,51.0,,,HRV,HRV_0105,2022-11-30 18:14:05
,wl-rdm,168,536892,0.0-8.51-0.51,1.0,163.0,,,,,,,[],,,,,,50.0,0.0,i,1.0,False,936.6999999880791,56.0,60.0,40.0,False,,379.3446999406268,[],"[720, 450]",ColorTask,84.0,52.0,,,HRV,HRV_0105,2022-11-30 18:14:05
,wl-rdm,169,539025,0.0-8.52-0.52,1.0,164.0,,,,,,,[],,,,,,87.9,0.0,u,0.0,True,704.8000000119209,43.0,60.0,40.0,False,,362.6541022013761,[],"[720, 450]",ColorTask,85.0,53.0,,,HRV,HRV_0105,2022-11-30 18:14:05
,wl-rdm,170,541324,0.0-8.53-0.53,1.0,165.0,,,,,,,[],,,,,,50.0,1.0,i,1.0,True,875.2000000178814,53.0,60.0,40.0,False,,351.73125312089405,[],"[720, 450]",ColorTask,86.0,54.0,,,HRV,HRV_0105,2022-11-30 18:14:05
,wl-rdm,171,544042,0.0-8.54-0.54,1.0,166.0,,,,,,,[],,,,,,73.6,0.0,u,0.0,True,1306.5999999940395,77.0,60.0,40.0,False,,350.15586828918777,[],"[720, 450]",ColorTask,87.0,55.0,,,HRV,HRV_0105,2022-11-30 18:14:05
,wl-rdm,172,546474,0.0-8.55-0.55,1.0,167.0,,,,,,,[],,,,,,62.5,0.0,u,0.0,True,1073.1000000238419,65.0,60.0,40.0,False,,269.0575543039243,[],"[720, 450]",ColorTask,88.0,56.0,,,HRV,HRV_0105,2022-11-30 18:14:05
,wl-rdm,173,549024,0.0-8.56-0.56,1.0,168.0,,,,,,,[],,,,,,53.2,1.0,i,1.0,True,1155.0999999940395,68.0,60.0,40.0,False,,330.4977616686464,[],"[720, 450]",ColorTask,89.0,57.0,,,HRV,HRV_0105,2022-11-30 18:14:05
,wl-rdm,174,551424,0.0-8.57-0.57,1.0,169.0,,,,,,,[],,,,,,50.0,0.0,i,1.0,False,1038.0999999940395,63.0,60.0,40.0,False,,281.74654900726705,[],"[720, 450]",ColorTask,88.0,58.0,,,HRV,HRV_0105,2022-11-30 18:14:05
,wl-rdm,175,554357,0.0-8.58-0.58,1.0,170.0,,,,,,,[],,,,,,50.0,1.0,i,1.0,True,1460.9000000357628,90.0,60.0,40.0,False,,378.86312796464074,[],"[720, 450]",ColorTask,89.0,59.0,,,HRV,HRV_0105,2022-11-30 18:14:05
,wl-rdm,176,556675,0.0-8.59-0.59,1.0,171.0,,,,,,,[],,,,,,53.2,0.0,i,1.0,False,891.1999999880791,54.0,60.0,40.0,False,,345.0763009240818,[],"[720, 450]",ColorTask,88.0,60.0,,,HRV,HRV_0105,2022-11-30 18:14:05
,wl-rdm,177,559243,0.0-8.60-0.60,1.0,172.0,,,,,,,[],,,,,,56.4,1.0,i,1.0,True,1206.1000000238419,72.0,60.0,40.0,False,,281.285256205212,[],"[720, 450]",ColorTask,89.0,61.0,,,HRV,HRV_0105,2022-11-30 18:14:05
,wl-rdm,178,561741,0.0-8.61-0.61,1.0,173.0,,,,,,,[],,,,,,56.4,0.0,i,1.0,False,1208.9000000059605,73.0,60.0,40.0,False,,206.84696478503412,[],"[720, 450]",ColorTask,88.0,62.0,,,HRV,HRV_0105,2022-11-30 18:14:05
,wl-rdm,179,564643,0.0-8.62-0.62,1.0,174.0,,,,,,,[],,,,,,50.0,1.0,u,0.0,False,1616.7999999821186,93.0,60.0,40.0,False,,211.57826081329358,[],"[720, 450]",ColorTask,87.0,63.0,,,HRV,HRV_0105,2022-11-30 18:14:05
,wl-rdm,180,566691,0.0-8.63-0.63,1.0,175.0,,,,,,,[],,,,,,73.6,1.0,i,1.0,True,754.8000000119209,46.0,60.0,40.0,False,,209.11508752915972,[],"[720, 450]",ColorTask,88.0,64.0,,,HRV,HRV_0105,2022-11-30 18:14:05
,wl-rdm,181,569008,0.0-8.64-0.64,1.0,176.0,,,,,,,[],,,,,,62.5,1.0,i,1.0,True,905.7000000178814,55.0,60.0,40.0,False,,349.7199036066331,[],"[720, 450]",ColorTask,89.0,65.0,,,HRV,HRV_0105,2022-11-30 18:14:05
,wl-rdm,182,571191,0.0-8.65-0.65,1.0,177.0,,,,,,,[],,,,,,87.9,0.0,u,0.0,True,707.3000000119209,43.0,60.0,40.0,False,,398.66982913785927,[],"[720, 450]",ColorTask,90.0,66.0,,,HRV,HRV_0105,2022-11-30 18:14:05
,wl-rdm,183,573276,0.0-8.66-0.66,1.0,178.0,,,,,,,[],,,,,,73.6,1.0,i,1.0,True,606.7000000178814,37.0,60.0,40.0,False,,390.75312107364016,[],"[720, 450]",ColorTask,91.0,67.0,,,HRV,HRV_0105,2022-11-30 18:14:05
,wl-rdm,184,575741,0.0-8.67-0.67,1.0,179.0,,,,,,,[],,,,,,73.6,0.0,u,0.0,True,1145.300000011921,69.0,60.0,40.0,False,,246.727832612327,[],"[720, 450]",ColorTask,92.0,68.0,,,HRV,HRV_0105,2022-11-30 18:14:05
,wl-rdm,185,577693,0.0-8.68-0.68,1.0,180.0,,,,,,,[],,,,,,73.6,1.0,i,1.0,True,657.0999999940395,40.0,60.0,40.0,False,,230.65491073422885,[],"[720, 450]",ColorTask,93.0,69.0,,,HRV,HRV_0105,2022-11-30 18:14:05
,wl-rdm,186,580309,0.0-8.69-0.69,1.0,181.0,,,,,,,[],,,,,,56.4,0.0,i,1.0,False,1272.4000000059605,77.0,60.0,40.0,False,,267.3813617821269,[],"[720, 450]",ColorTask,92.0,70.0,,,HRV,HRV_0105,2022-11-30 18:14:05
,wl-rdm,187,582292,0.0-8.70-0.70,1.0,182.0,,,,,,,[],,,,,,56.4,1.0,i,1.0,True,689.9999999701977,42.0,60.0,40.0,False,,202.9181003541458,[],"[720, 450]",ColorTask,93.0,71.0,,,HRV,HRV_0105,2022-11-30 18:14:05
,wl-rdm,188,585061,0.0-8.71-0.71,1.0,183.0,,,,,,,[],,,,,,56.4,0.0,i,1.0,False,1478.5999999940395,89.0,60.0,40.0,False,,210.19241989886967,[],"[720, 450]",ColorTask,92.0,72.0,,,HRV,HRV_0105,2022-11-30 18:14:05
,wl-rdm,189,587426,0.0-8.72-0.72,1.0,184.0,,,,,,,[],,,,,,62.5,1.0,i,1.0,True,969.8000000119209,59.0,60.0,40.0,False,,323.1240401245364,[],"[720, 450]",ColorTask,93.0,73.0,,,HRV,HRV_0105,2022-11-30 18:14:05
,wl-rdm,190,589942,0.0-8.73-0.73,1.0,185.0,,,,,,,[],,,,,,56.4,0.0,u,0.0,True,1081.7999999821186,65.0,60.0,40.0,False,,365.73216878793045,[],"[720, 450]",ColorTask,94.0,74.0,,,HRV,HRV_0105,2022-11-30 18:14:05
,wl-rdm,191,593376,0.0-8.74-0.74,1.0,186.0,,,,,,,[],,,,,,50.0,1.0,u,0.0,False,1996.5,120.0,60.0,40.0,False,,376.5242035278216,[],"[720, 450]",ColorTask,93.0,75.0,,,HRV,HRV_0105,2022-11-30 18:14:05
,wl-rdm,192,595709,0.0-8.75-0.75,1.0,187.0,,,,,,,[],,,,,,87.9,0.0,u,0.0,True,977.2000000178814,59.0,60.0,40.0,False,,281.5135415849687,[],"[720, 450]",ColorTask,94.0,76.0,,,HRV,HRV_0105,2022-11-30 18:14:05
,wl-rdm,193,598044,0.0-8.76-0.76,1.0,188.0,,,,,,,[],,,,,,50.0,0.0,i,1.0,False,1037.0999999940395,62.0,60.0,40.0,False,,216.88336883381112,[],"[720, 450]",ColorTask,93.0,77.0,,,HRV,HRV_0105,2022-11-30 18:14:05
,wl-rdm,194,600077,0.0-8.77-0.77,1.0,189.0,,,,,,,[],,,,,,62.5,1.0,i,1.0,True,692.5999999940395,42.0,60.0,40.0,False,,263.1347616213197,[],"[720, 450]",ColorTask,94.0,78.0,,,HRV,HRV_0105,2022-11-30 18:14:05
,wl-rdm,195,602409,0.0-8.78-0.78,1.0,190.0,,,,,,,[],,,,,,87.9,1.0,i,1.0,True,979.6999999880791,58.0,60.0,40.0,False,,279.413024873105,[],"[720, 450]",ColorTask,95.0,79.0,,,HRV,HRV_0105,2022-11-30 18:14:05
,wl-rdm,196,604609,0.0-8.79-0.79,1.0,191.0,,,,,,,[],,,,,,73.6,0.0,u,0.0,True,889.4000000059605,54.0,60.0,40.0,False,,227.0171035335856,[],"[720, 450]",ColorTask,96.0,80.0,,,HRV,HRV_0105,2022-11-30 18:14:05
,wl-rdm,197,607195,0.0-8.80-0.80,1.0,192.0,,,,,,,[],,,,,,73.6,0.0,u,0.0,True,1136.0,69.0,60.0,40.0,False,,349.9117219885634,[],"[720, 450]",ColorTask,97.0,81.0,,,HRV,HRV_0105,2022-11-30 18:14:05
,wl-rdm,198,610081,0.0-8.81-0.81,1.0,193.0,,,,,,,[],,,,,,62.5,0.0,u,0.0,True,1577.4000000059605,95.0,60.0,40.0,False,,236.44948934662008,[],"[720, 450]",ColorTask,98.0,82.0,,,HRV,HRV_0105,2022-11-30 18:14:05
,wl-rdm,199,612795,0.0-8.82-0.82,1.0,194.0,,,,,,,[],,,,,,50.0,0.0,i,1.0,False,1249.9000000357628,75.0,60.0,40.0,False,,396.36124484837865,[],"[720, 450]",ColorTask,97.0,83.0,,,HRV,HRV_0105,2022-11-30 18:14:05
,wl-rdm,200,615065,0.0-8.83-0.83,1.0,195.0,,,,,,,[],,,,,,50.0,0.0,i,1.0,False,933.7000000476837,56.0,60.0,40.0,False,,243.9387824102338,[],"[720, 450]",ColorTask,96.0,84.0,,,HRV,HRV_0105,2022-11-30 18:14:05
,wl-rdm,201,617411,0.0-8.84-0.84,1.0,196.0,,,,,,,[],,,,,,56.4,0.0,i,1.0,False,888.9000000357628,53.0,60.0,40.0,False,,387.82090661148015,[],"[720, 450]",ColorTask,95.0,85.0,,,HRV,HRV_0105,2022-11-30 18:14:05
,wl-rdm,202,619678,0.0-8.85-0.85,1.0,197.0,,,,,,,[],,,,,,53.2,1.0,u,0.0,False,850.7999999821186,48.0,60.0,40.0,False,,362.78451908536545,[],"[720, 450]",ColorTask,94.0,86.0,,,HRV,HRV_0105,2022-11-30 18:14:05
,wl-rdm,203,621843,0.0-8.86-0.86,1.0,198.0,,,,,,,[],,,,,,50.0,1.0,i,1.0,True,810.0999999940395,43.0,60.0,40.0,False,,289.23124584416723,[],"[720, 450]",ColorTask,95.0,87.0,,,HRV,HRV_0105,2022-11-30 18:14:05
,wl-rdm,204,624727,0.0-8.87-0.87,1.0,199.0,,,,,,,[],,,,,,62.5,0.0,u,0.0,True,1509.6000000238419,84.0,60.0,40.0,False,,294.8573114072806,[],"[720, 450]",ColorTask,96.0,88.0,,,HRV,HRV_0105,2022-11-30 18:14:05
,wl-rdm,205,627511,0.0-8.88-0.88,1.0,200.0,,,,,,,[],,,,,,53.2,0.0,i,1.0,False,1429.199999988079,86.0,60.0,40.0,False,,287.7461089194318,[],"[720, 450]",ColorTask,95.0,89.0,,,HRV,HRV_0105,2022-11-30 18:14:05
,wl-rdm,206,630177,0.0-8.89-0.89,1.0,201.0,,,,,,,[],,,,,,56.4,0.0,i,1.0,False,1397.1000000238419,84.0,60.0,40.0,False,,215.52472992229553,[],"[720, 450]",ColorTask,94.0,90.0,,,HRV,HRV_0105,2022-11-30 18:14:05
,wl-rdm,207,633144,0.0-8.90-0.90,1.0,202.0,,,,,,,[],,,,,,50.0,0.0,u,0.0,True,1521.3999999761581,92.0,60.0,40.0,False,,354.4007013766163,[],"[720, 450]",ColorTask,95.0,91.0,,,HRV,HRV_0105,2022-11-30 18:14:05
,wl-rdm,208,635494,0.0-8.91-0.91,1.0,203.0,,,,,,,[],,,,,,87.9,0.0,u,0.0,True,985.0999999940395,60.0,60.0,40.0,False,,297.4843336873705,[],"[720, 450]",ColorTask,96.0,92.0,,,HRV,HRV_0105,2022-11-30 18:14:05
,wl-rdm,209,638328,0.0-8.92-0.92,1.0,204.0,,,,,,,[],,,,,,73.6,0.0,u,0.0,True,1531.2999999821186,92.0,60.0,40.0,False,,237.97044707372268,[],"[720, 450]",ColorTask,97.0,93.0,,,HRV,HRV_0105,2022-11-30 18:14:05
,wl-rdm,210,640779,0.0-8.93-0.93,1.0,205.0,,,,,,,[],,,,,,62.5,0.0,u,0.0,True,1158.199999988079,70.0,60.0,40.0,False,,221.286441016632,[],"[720, 450]",ColorTask,98.0,94.0,,,HRV,HRV_0105,2022-11-30 18:14:05
,wl-rdm,211,643345,0.0-8.94-0.94,1.0,206.0,,,,,,,[],,,,,,56.4,1.0,i,1.0,True,1125.300000011921,68.0,60.0,40.0,False,,380.7564218010524,[],"[720, 450]",ColorTask,99.0,95.0,,,HRV,HRV_0105,2022-11-30 18:14:05
,wl-rdm,212,645395,0.0-8.95-0.95,1.0,207.0,,,,,,,[],,,,,,73.6,1.0,i,1.0,True,673.0,41.0,60.0,40.0,False,,286.56717846811216,[],"[720, 450]",ColorTask,100.0,96.0,,,HRV,HRV_0105,2022-11-30 18:14:05
,wl-rdm,213,647411,0.0-8.96-0.96,1.0,208.0,,,,,,,[],,,,,,87.9,1.0,i,1.0,True,585.6999999880791,34.0,60.0,40.0,False,,355.26467761695926,[],"[720, 450]",ColorTask,101.0,97.0,,,HRV,HRV_0105,2022-11-30 18:14:05
,wl-rdm,214,649561,0.0-8.97-0.97,1.0,209.0,,,,,,,[],,,,,,62.5,1.0,i,1.0,True,733.0,44.0,60.0,40.0,False,,334.0990990915051,[],"[720, 450]",ColorTask,102.0,98.0,,,HRV,HRV_0105,2022-11-30 18:14:05
,wl-rdm,215,651779,0.0-8.98-0.98,1.0,210.0,,,,,,,[],,,,,,53.2,0.0,i,1.0,False,844.4000000059605,51.0,60.0,40.0,False,,284.06272981222656,[],"[720, 450]",ColorTask,101.0,99.0,,,HRV,HRV_0105,2022-11-30 18:14:05
,wl-rdm,216,654045,0.0-8.99-0.99,1.0,211.0,,,,,,,[],,,,,,53.2,0.0,i,1.0,False,993.5,55.0,60.0,40.0,False,,202.93350504668027,[],"[720, 450]",ColorTask,100.0,100.0,,,HRV,HRV_0105,2022-11-30 18:14:05
,wl-rdm,217,656461,0.0-8.100-0.100,1.0,212.0,,,,,,,[],,,,,,53.2,1.0,u,0.0,False,1007.0,61.0,60.0,40.0,False,,325.4318492168134,[],"[720, 450]",ColorTask,99.0,101.0,,,HRV,HRV_0105,2022-11-30 18:14:05
,wl-rdm,218,658861,0.0-8.101-0.101,1.0,213.0,,,,,,,[],,,,,,53.2,1.0,u,0.0,False,1009.0,60.0,60.0,40.0,False,,334.9041903839171,[],"[720, 450]",ColorTask,98.0,102.0,,,HRV,HRV_0105,2022-11-30 18:14:05
,wl-rdm,219,661434,0.0-8.102-0.102,1.0,214.0,,,,,,,[],,,,,,73.6,0.0,u,0.0,True,1207.2000000178814,73.0,60.0,40.0,False,,247.57579393848323,[],"[720, 450]",ColorTask,99.0,103.0,,,HRV,HRV_0105,2022-11-30 18:14:05
,wl-rdm,220,663795,0.0-8.103-0.103,1.0,215.0,,,,,,,[],,,,,,53.2,1.0,i,1.0,True,1058.0999999940395,63.0,60.0,40.0,False,,244.97769401783344,[],"[720, 450]",ColorTask,100.0,104.0,,,HRV,HRV_0105,2022-11-30 18:14:05
,wl-rdm,221,666512,0.0-8.104-0.104,1.0,216.0,,,,,,,[],,,,,,56.4,1.0,i,1.0,True,1401.5999999940395,84.0,60.0,40.0,False,,232.68355529083044,[],"[720, 450]",ColorTask,101.0,105.0,,,HRV,HRV_0105,2022-11-30 18:14:05
,wl-rdm,222,668963,0.0-8.105-0.105,1.0,217.0,,,,,,,[],,,,,,53.2,0.0,i,1.0,False,1096.9000000059605,66.0,60.0,40.0,False,,262.2067702698856,[],"[720, 450]",ColorTask,100.0,106.0,,,HRV,HRV_0105,2022-11-30 18:14:05
,wl-rdm,223,671663,0.0-8.106-0.106,1.0,218.0,,,,,,,[],,,,,,62.5,0.0,u,0.0,True,1268.199999988079,75.0,60.0,40.0,False,,339.0602717913763,[],"[720, 450]",ColorTask,101.0,107.0,,,HRV,HRV_0105,2022-11-30 18:14:05
,wl-rdm,224,674278,0.0-8.107-0.107,1.0,219.0,,,,,,,[],,,,,,53.2,0.0,i,1.0,False,1347.0999999940395,81.0,60.0,40.0,False,,205.53680631764135,[],"[720, 450]",ColorTask,100.0,108.0,,,HRV,HRV_0105,2022-11-30 18:14:05
,wl-rdm,225,676945,0.0-8.108-0.108,1.0,220.0,,,,,,,[],,,,,,53.2,1.0,i,1.0,True,1390.5000000298023,83.0,60.0,40.0,False,,210.84595310177616,[],"[720, 450]",ColorTask,101.0,109.0,,,HRV,HRV_0105,2022-11-30 18:14:05
,wl-rdm,226,679646,0.0-8.109-0.109,1.0,221.0,,,,,,,[],,,,,,62.5,1.0,i,1.0,True,1407.9999999701977,85.0,60.0,40.0,False,,222.76665197588605,[],"[720, 450]",ColorTask,102.0,110.0,,,HRV,HRV_0105,2022-11-30 18:14:05
,wl-rdm,227,681997,0.0-8.110-0.110,1.0,222.0,,,,,,,[],,,,,,87.9,0.0,u,0.0,True,1001.2000000178814,60.0,60.0,40.0,False,,273.43797194889135,[],"[720, 450]",ColorTask,103.0,111.0,,,HRV,HRV_0105,2022-11-30 18:14:05
,wl-rdm,228,684746,0.0-8.111-0.111,1.0,223.0,,,,,,,[],,,,,,50.0,1.0,i,1.0,True,1373.199999988079,81.0,60.0,40.0,False,,301.9944751606854,[],"[720, 450]",ColorTask,104.0,112.0,,,HRV,HRV_0105,2022-11-30 18:14:05
,wl-rdm,229,687133,0.0-8.112-0.112,1.0,224.0,,,,,,,[],,,,,,87.9,0.0,u,0.0,True,1109.0000000298023,67.0,60.0,40.0,False,,200.13285488515888,[],"[720, 450]",ColorTask,105.0,113.0,,,HRV,HRV_0105,2022-11-30 18:14:05
,wl-html-button-response,230,689538,0.0-9.0-0.0,,,,,,,,,,2391.399999976158,,0,,,,,,,,,,,,,,,,,,,,<h3>End of this session. Thank you!</h3><br>,['Close window'],HRV,HRV_0105,2022-11-30 18:14:05
