trialN,stimuli,trialStartTime,trialStartTime_UNIX,stimulus1,stimulus2,stimulus1Bid,stimulus2Bid,delta,selected,rt,rt_UNIX,rt_perfnow,receivedResponse,rsp,trialEndTime,trialDuration,trialEndTime_UNIX,trialDuration_UNIX,exp,subjectId,date
0,"[{'imgObject': {}, 'id': 'chicken nuggets2', 'src': '/static/foodstim60/chicken nuggets2.jpg', 'key': 'u', 'origWidth': 410, 'origHeight': 409, 'width': 410, 'height': 409, 'widthPercent': 0.45, 'rescaleHeight': False, 'trialN': 0, 'loaded': True, 'loadedTime': 7744.599999904633, 'positionName': 'LEFT', 'positionCoords': [245.68, 179.5], 'bid': 9.86}, {'imgObject': {}, 'id': 'apple slices', 'src': '/static/foodstim60/apple slices.jpg', 'key': 'i', 'origWidth': 409, 'origHeight': 410, 'width': 409, 'height': 410, 'widthPercent': 0.45, 'rescaleHeight': False, 'trialN': 0, 'loaded': True, 'loadedTime': 8303.799999952316, 'positionName': 'RIGHT', 'positionCoords': [710.32, 179], 'bid': 9.24}]",10568.699999809265,1669839826583,chicken nuggets2,apple slices,9.86,9.24,-0.6199999999999992,chicken nuggets2,1309.1000001430511,1315,1314.8000001907349,True,u,12396.899999856949,1828.2000000476837,1669839828411,1828,HRV,HRV_0280,2022-11-30 20:30:36
1,"[{'imgObject': {}, 'id': 'mashed potato', 'src': '/static/foodstim60/mashed potato.jpg', 'key': 'u', 'origWidth': 409, 'origHeight': 409, 'width': 409, 'height': 409, 'widthPercent': 0.45, 'rescaleHeight': False, 'trialN': 1, 'loaded': True, 'loadedTime': 8395.299999952316, 'positionName': 'LEFT', 'positionCoords': [246.68, 179.5], 'bid': 6.65}, {'imgObject': {}, 'id': 'eggs', 'src': '/static/foodstim60/eggs.jpg', 'key': 'i', 'origWidth': 409, 'origHeight': 409, 'width': 409, 'height': 409, 'widthPercent': 0.45, 'rescaleHeight': False, 'trialN': 1, 'loaded': True, 'loadedTime': 8494.899999856949, 'positionName': 'RIGHT', 'positionCoords': [710.32, 179.5], 'bid': 6.0200000000000005}]",12398.199999809265,1669839828413,mashed potato,eggs,6.65,6.0200000000000005,-0.6299999999999999,eggs,1906.8000001907349,1910,1910.7000000476837,True,i,14826.099999904633,2427.9000000953674,1669839830840,2427,HRV,HRV_0280,2022-11-30 20:30:36
2,"[{'imgObject': {}, 'id': 'fruitsalad', 'src': '/static/foodstim60/fruitsalad.jpg', 'key': 'u', 'origWidth': 410, 'origHeight': 410, 'width': 410, 'height': 410, 'widthPercent': 0.45, 'rescaleHeight': False, 'trialN': 2, 'loaded': True, 'loadedTime': 8509.699999809265, 'positionName': 'LEFT', 'positionCoords': [245.68, 179], 'bid': 9.86}, {'imgObject': {}, 'id': 'kiwi', 'src': '/static/foodstim60/kiwi.jpg', 'key': 'i', 'origWidth': 410, 'origHeight': 410, 'width': 410, 'height': 410, 'widthPercent': 0.45, 'rescaleHeight': False, 'trialN': 2, 'loaded': True, 'loadedTime': 8682.5, 'positionName': 'RIGHT', 'positionCoords': [710.32, 179], 'bid': 10}]",14828.299999952316,1669839830843,fruitsalad,kiwi,9.86,10.0,0.14000000000000057,fruitsalad,1114.2000000476837,1117,1117.5,True,u,16459.299999952316,1631.0,1669839832474,1631,HRV,HRV_0280,2022-11-30 20:30:36
3,"[{'imgObject': {}, 'id': 'eggs', 'src': '/static/foodstim60/eggs.jpg', 'key': 'u', 'origWidth': 409, 'origHeight': 409, 'width': 409, 'height': 409, 'widthPercent': 0.45, 'rescaleHeight': False, 'trialN': 3, 'loaded': True, 'loadedTime': 8490.399999856949, 'positionName': 'LEFT', 'positionCoords': [246.68, 179.5], 'bid': 6.0200000000000005}, {'imgObject': {}, 'id': 'popsicles', 'src': '/static/foodstim60/popsicles.jpg', 'key': 'i', 'origWidth': 410, 'origHeight': 410, 'width': 410, 'height': 410, 'widthPercent': 0.45, 'rescaleHeight': False, 'trialN': 3, 'loaded': True, 'loadedTime': 10564.399999856949, 'positionName': 'RIGHT', 'positionCoords': [710.32, 179], 'bid': 5.93}]",16461.599999904633,1669839832476,eggs,popsicles,6.0200000000000005,5.93,-0.09000000000000075,eggs,1843.9000000953674,1847,1847.2999999523163,True,u,18825.799999952316,2364.2000000476837,1669839834840,2364,HRV,HRV_0280,2022-11-30 20:30:36
4,"[{'imgObject': {}, 'id': 'roastedpotatoes', 'src': '/static/foodstim60/roastedpotatoes.jpg', 'key': 'u', 'origWidth': 409, 'origHeight': 410, 'width': 409, 'height': 410, 'widthPercent': 0.45, 'rescaleHeight': False, 'trialN': 4, 'loaded': True, 'loadedTime': 8689.799999952316, 'positionName': 'LEFT', 'positionCoords': [246.68, 179], 'bid': 8.92}, {'imgObject': {}, 'id': 'lox', 'src': '/static/foodstim60/lox.jpg', 'key': 'i', 'origWidth': 410, 'origHeight': 411, 'width': 410, 'height': 411, 'widthPercent': 0.45, 'rescaleHeight': False, 'trialN': 4, 'loaded': True, 'loadedTime': 8774.5, 'positionName': 'RIGHT', 'positionCoords': [710.32, 178.5], 'bid': 8.790000000000001}]",18827.89999985695,1669839834842,roastedpotatoes,lox,8.92,8.790000000000001,-0.129999999999999,lox,1080.2000000476837,1084,1083.7000000476837,True,i,20425.0,1597.1000001430511,1669839836439,1597,HRV,HRV_0280,2022-11-30 20:30:36
5,"[{'imgObject': {}, 'id': 'tacos', 'src': '/static/foodstim60/tacos.jpg', 'key': 'u', 'origWidth': 411, 'origHeight': 411, 'width': 411, 'height': 411, 'widthPercent': 0.45, 'rescaleHeight': False, 'trialN': 5, 'loaded': True, 'loadedTime': 8883.599999904633, 'positionName': 'LEFT', 'positionCoords': [244.68, 178.5], 'bid': 8.99}, {'imgObject': {}, 'id': 'shreddedwheatwithmilk', 'src': '/static/foodstim60/shreddedwheatwithmilk.jpg', 'key': 'i', 'origWidth': 410, 'origHeight': 410, 'width': 410, 'height': 410, 'widthPercent': 0.45, 'rescaleHeight': False, 'trialN': 5, 'loaded': True, 'loadedTime': 8885, 'positionName': 'RIGHT', 'positionCoords': [710.32, 179], 'bid': 6.8}]",20427.299999952316,1669839836442,tacos,shreddedwheatwithmilk,8.99,6.8,-2.1900000000000004,tacos,1271.2999999523163,1276,1275.8999998569489,True,u,22210.799999952316,1783.5,1669839838225,1783,HRV,HRV_0280,2022-11-30 20:30:36
6,"[{'imgObject': {}, 'id': 'seaweed', 'src': '/static/foodstim60/seaweed.jpg', 'key': 'u', 'origWidth': 410, 'origHeight': 410, 'width': 410, 'height': 410, 'widthPercent': 0.45, 'rescaleHeight': False, 'trialN': 6, 'loaded': True, 'loadedTime': 8977.099999904633, 'positionName': 'LEFT', 'positionCoords': [245.68, 179], 'bid': 5.04}, {'imgObject': {}, 'id': 'Tribe humus pita', 'src': '/static/foodstim60/Tribe humus pita.jpg', 'key': 'i', 'origWidth': 411, 'origHeight': 411, 'width': 411, 'height': 411, 'widthPercent': 0.45, 'rescaleHeight': False, 'trialN': 6, 'loaded': True, 'loadedTime': 9067.099999904633, 'positionName': 'RIGHT', 'positionCoords': [710.32, 178.5], 'bid': 7.82}]",22212.299999952316,1669839838227,seaweed,Tribe humus pita,5.04,7.82,2.7800000000000002,Tribe humus pita,1600.3999998569489,1601,1601.7999999523163,True,i,24328.0,2115.7000000476837,1669839840342,2115,HRV,HRV_0280,2022-11-30 20:30:36
7,"[{'imgObject': {}, 'id': 'corn cob', 'src': '/static/foodstim60/corn cob.jpg', 'key': 'u', 'origWidth': 411, 'origHeight': 411, 'width': 411, 'height': 411, 'widthPercent': 0.45, 'rescaleHeight': False, 'trialN': 7, 'loaded': True, 'loadedTime': 9168.799999952316, 'positionName': 'LEFT', 'positionCoords': [244.68, 178.5], 'bid': 9.52}, {'imgObject': {}, 'id': 'rigatoni and sauce', 'src': '/static/foodstim60/rigatoni and sauce.jpg', 'key': 'i', 'origWidth': 410, 'origHeight': 411, 'width': 410, 'height': 411, 'widthPercent': 0.45, 'rescaleHeight': False, 'trialN': 7, 'loaded': True, 'loadedTime': 9176.599999904633, 'positionName': 'RIGHT', 'positionCoords': [710.32, 178.5], 'bid': 9.21}]",24328.5,1669839840343,corn cob,rigatoni and sauce,9.52,9.21,-0.3099999999999987,rigatoni and sauce,1551.7999999523163,1554,1554.2999999523163,True,i,26392.699999809265,2064.199999809265,1669839842407,2064,HRV,HRV_0280,2022-11-30 20:30:36
8,"[{'imgObject': {}, 'id': 'yogurt no spoon', 'src': '/static/foodstim60/yogurt no spoon.jpg', 'key': 'u', 'origWidth': 411, 'origHeight': 410, 'width': 411, 'height': 410, 'widthPercent': 0.45, 'rescaleHeight': False, 'trialN': 8, 'loaded': True, 'loadedTime': 9242.299999952316, 'positionName': 'LEFT', 'positionCoords': [244.68, 179], 'bid': 7.82}, {'imgObject': {}, 'id': 'turkey sandwich', 'src': '/static/foodstim60/turkey sandwich.jpg', 'key': 'i', 'origWidth': 409, 'origHeight': 409, 'width': 409, 'height': 409, 'widthPercent': 0.45, 'rescaleHeight': False, 'trialN': 8, 'loaded': True, 'loadedTime': 9318.699999809265, 'positionName': 'RIGHT', 'positionCoords': [710.32, 179.5], 'bid': 9.42}]",26395.39999985695,1669839842410,yogurt no spoon,turkey sandwich,7.82,9.42,1.5999999999999996,turkey sandwich,1360.6000001430511,1363,1363.7999999523163,True,i,28275.199999809265,1879.7999999523163,1669839844290,1880,HRV,HRV_0280,2022-11-30 20:30:36
9,"[{'imgObject': {}, 'id': 'blueberries', 'src': '/static/foodstim60/blueberries.jpg', 'key': 'u', 'origWidth': 411, 'origHeight': 411, 'width': 411, 'height': 411, 'widthPercent': 0.45, 'rescaleHeight': False, 'trialN': 9, 'loaded': True, 'loadedTime': 9465.299999952316, 'positionName': 'LEFT', 'positionCoords': [244.68, 178.5], 'bid': 9.07}, {'imgObject': {}, 'id': 'ice cream sundae 002', 'src': '/static/foodstim60/ice cream sundae 002.jpg', 'key': 'i', 'origWidth': 409, 'origHeight': 409, 'width': 409, 'height': 409, 'widthPercent': 0.45, 'rescaleHeight': False, 'trialN': 9, 'loaded': True, 'loadedTime': 9487.199999809265, 'positionName': 'RIGHT', 'positionCoords': [710.32, 179.5], 'bid': 7.19}]",28277.099999904633,1669839844291,blueberries,ice cream sundae 002,9.07,7.19,-1.88,ice cream sundae 002,2918.2000000476837,2923,2922.5999999046326,True,i,31710.299999952316,3433.2000000476837,1669839847725,3434,HRV,HRV_0280,2022-11-30 20:30:36
10,"[{'imgObject': {}, 'id': 'cherry tomato', 'src': '/static/foodstim60/cherry tomato.jpg', 'key': 'u', 'origWidth': 410, 'origHeight': 410, 'width': 410, 'height': 410, 'widthPercent': 0.45, 'rescaleHeight': False, 'trialN': 10, 'loaded': True, 'loadedTime': 9553.299999952316, 'positionName': 'LEFT', 'positionCoords': [245.68, 179], 'bid': 8.07}, {'imgObject': {}, 'id': 'eggs', 'src': '/static/foodstim60/eggs.jpg', 'key': 'i', 'origWidth': 409, 'origHeight': 409, 'width': 409, 'height': 409, 'widthPercent': 0.45, 'rescaleHeight': False, 'trialN': 10, 'loaded': True, 'loadedTime': 8501.399999856949, 'positionName': 'RIGHT', 'positionCoords': [710.32, 179.5], 'bid': 6.0200000000000005}]",31712.699999809265,1669839847727,cherry tomato,eggs,8.07,6.0200000000000005,-2.05,eggs,2104.5,2109,2108.9000000953674,True,i,34328.199999809265,2615.5,1669839850343,2616,HRV,HRV_0280,2022-11-30 20:30:36
11,"[{'imgObject': {}, 'id': 'sushi w_condiments', 'src': '/static/foodstim60/sushi w_condiments.jpg', 'key': 'u', 'origWidth': 410, 'origHeight': 410, 'width': 410, 'height': 410, 'widthPercent': 0.45, 'rescaleHeight': False, 'trialN': 11, 'loaded': True, 'loadedTime': 9656, 'positionName': 'LEFT', 'positionCoords': [245.68, 179], 'bid': 9.89}, {'imgObject': {}, 'id': 'turkeysandwich', 'src': '/static/foodstim60/turkeysandwich.jpg', 'key': 'i', 'origWidth': 409, 'origHeight': 409, 'width': 409, 'height': 409, 'widthPercent': 0.45, 'rescaleHeight': False, 'trialN': 11, 'loaded': True, 'loadedTime': 9711.599999904633, 'positionName': 'RIGHT', 'positionCoords': [710.32, 179.5], 'bid': 9.39}]",34330.0,1669839850344,sushi w_condiments,turkeysandwich,9.89,9.39,-0.5,sushi w_condiments,868.2999999523163,872,871.7999999523163,True,u,35710.199999809265,1380.1999998092651,1669839851725,1381,HRV,HRV_0280,2022-11-30 20:30:36
12,"[{'imgObject': {}, 'id': 'raisin bran w milk', 'src': '/static/foodstim60/raisin bran w milk.jpg', 'key': 'u', 'origWidth': 411, 'origHeight': 411, 'width': 411, 'height': 411, 'widthPercent': 0.45, 'rescaleHeight': False, 'trialN': 12, 'loaded': True, 'loadedTime': 9717.299999952316, 'positionName': 'LEFT', 'positionCoords': [244.68, 178.5], 'bid': 5.79}, {'imgObject': {}, 'id': 'apple slices', 'src': '/static/foodstim60/apple slices.jpg', 'key': 'i', 'origWidth': 409, 'origHeight': 410, 'width': 409, 'height': 410, 'widthPercent': 0.45, 'rescaleHeight': False, 'trialN': 12, 'loaded': True, 'loadedTime': 8304.399999856949, 'positionName': 'RIGHT', 'positionCoords': [710.32, 179], 'bid': 9.24}]",35712.5,1669839851727,raisin bran w milk,apple slices,5.79,9.24,3.45,apple slices,1259.7999999523163,1264,1264.0,True,i,37492.199999809265,1779.6999998092651,1669839853507,1780,HRV,HRV_0280,2022-11-30 20:30:36
13,"[{'imgObject': {}, 'id': 'baked potato', 'src': '/static/foodstim60/baked potato.jpg', 'key': 'u', 'origWidth': 409, 'origHeight': 410, 'width': 409, 'height': 410, 'widthPercent': 0.45, 'rescaleHeight': False, 'trialN': 13, 'loaded': True, 'loadedTime': 7905.5, 'positionName': 'LEFT', 'positionCoords': [246.68, 179], 'bid': 9.24}, {'imgObject': {}, 'id': 'hashbrowns', 'src': '/static/foodstim60/hashbrowns.jpg', 'key': 'i', 'origWidth': 411, 'origHeight': 410, 'width': 411, 'height': 410, 'widthPercent': 0.45, 'rescaleHeight': False, 'trialN': 13, 'loaded': True, 'loadedTime': 8050.099999904633, 'positionName': 'RIGHT', 'positionCoords': [710.32, 179], 'bid': 5.79}]",37493.89999985695,1669839853509,baked potato,hashbrowns,9.24,5.79,-3.45,baked potato,1040.6000001430511,1044,1045.0,True,u,39043.59999990463,1549.7000000476837,1669839855058,1549,HRV,HRV_0280,2022-11-30 20:30:36
14,"[{'imgObject': {}, 'id': 'eggs', 'src': '/static/foodstim60/eggs.jpg', 'key': 'u', 'origWidth': 409, 'origHeight': 409, 'width': 409, 'height': 409, 'widthPercent': 0.45, 'rescaleHeight': False, 'trialN': 14, 'loaded': True, 'loadedTime': 8499.799999952316, 'positionName': 'LEFT', 'positionCoords': [246.68, 179.5], 'bid': 6.0200000000000005}, {'imgObject': {}, 'id': 'froot loops w milk', 'src': '/static/foodstim60/froot loops w milk.jpg', 'key': 'i', 'origWidth': 410, 'origHeight': 410, 'width': 410, 'height': 410, 'widthPercent': 0.45, 'rescaleHeight': False, 'trialN': 14, 'loaded': True, 'loadedTime': 8061.099999904633, 'positionName': 'RIGHT', 'positionCoords': [710.32, 179], 'bid': 5.5200000000000005}]",39045.39999985695,1669839855060,eggs,froot loops w milk,6.0200000000000005,5.5200000000000005,-0.5,eggs,1202.6000001430511,1206,1205.7000000476837,True,u,40759.0,1713.6000001430511,1669839856774,1714,HRV,HRV_0280,2022-11-30 20:30:36
15,"[{'imgObject': {}, 'id': 'hashbrowns', 'src': '/static/foodstim60/hashbrowns.jpg', 'key': 'u', 'origWidth': 411, 'origHeight': 410, 'width': 411, 'height': 410, 'widthPercent': 0.45, 'rescaleHeight': False, 'trialN': 15, 'loaded': True, 'loadedTime': 8043.5, 'positionName': 'LEFT', 'positionCoords': [244.68, 179], 'bid': 5.79}, {'imgObject': {}, 'id': 'luckycharms', 'src': '/static/foodstim60/luckycharms.jpg', 'key': 'i', 'origWidth': 410, 'origHeight': 409, 'width': 410, 'height': 409, 'widthPercent': 0.45, 'rescaleHeight': False, 'trialN': 15, 'loaded': True, 'loadedTime': 9800, 'positionName': 'RIGHT', 'positionCoords': [710.32, 179.5], 'bid': 5.64}]",40760.89999985695,1669839856775,hashbrowns,luckycharms,5.79,5.64,-0.15000000000000036,hashbrowns,1493.1000001430511,1498,1497.4000000953674,True,u,42761.59999990463,2000.7000000476837,1669839858776,2001,HRV,HRV_0280,2022-11-30 20:30:36
16,"[{'imgObject': {}, 'id': 'ice cream sundae 002', 'src': '/static/foodstim60/ice cream sundae 002.jpg', 'key': 'u', 'origWidth': 409, 'origHeight': 409, 'width': 409, 'height': 409, 'widthPercent': 0.45, 'rescaleHeight': False, 'trialN': 16, 'loaded': True, 'loadedTime': 9496.699999809265, 'positionName': 'LEFT', 'positionCoords': [246.68, 179.5], 'bid': 7.19}, {'imgObject': {}, 'id': 'luckycharms', 'src': '/static/foodstim60/luckycharms.jpg', 'key': 'i', 'origWidth': 410, 'origHeight': 409, 'width': 410, 'height': 409, 'widthPercent': 0.45, 'rescaleHeight': False, 'trialN': 16, 'loaded': True, 'loadedTime': 9802.299999952316, 'positionName': 'RIGHT', 'positionCoords': [710.32, 179.5], 'bid': 5.64}]",42763.299999952316,1669839858778,ice cream sundae 002,luckycharms,7.19,5.64,-1.5500000000000007,ice cream sundae 002,2022.5,2027,2026.5999999046326,True,u,45295.199999809265,2531.899999856949,1669839861310,2532,HRV,HRV_0280,2022-11-30 20:30:36
17,"[{'imgObject': {}, 'id': 'raspberries', 'src': '/static/foodstim60/raspberries.jpg', 'key': 'u', 'origWidth': 411, 'origHeight': 411, 'width': 411, 'height': 411, 'widthPercent': 0.45, 'rescaleHeight': False, 'trialN': 17, 'loaded': True, 'loadedTime': 8123.899999856949, 'positionName': 'LEFT', 'positionCoords': [244.68, 178.5], 'bid': 9.31}, {'imgObject': {}, 'id': 'shreddedwheatwithmilk', 'src': '/static/foodstim60/shreddedwheatwithmilk.jpg', 'key': 'i', 'origWidth': 410, 'origHeight': 410, 'width': 410, 'height': 410, 'widthPercent': 0.45, 'rescaleHeight': False, 'trialN': 17, 'loaded': True, 'loadedTime': 8972.399999856949, 'positionName': 'RIGHT', 'positionCoords': [710.32, 179], 'bid': 6.8}]",45297.09999990463,1669839861312,raspberries,shreddedwheatwithmilk,9.31,6.8,-2.5100000000000007,raspberries,2021.2000000476837,2026,2026.5,True,u,47827.199999809265,2530.0999999046326,1669839863842,2530,HRV,HRV_0280,2022-11-30 20:30:36
18,"[{'imgObject': {}, 'id': 'cherries', 'src': '/static/foodstim60/cherries.jpg', 'key': 'u', 'origWidth': 410, 'origHeight': 411, 'width': 410, 'height': 411, 'widthPercent': 0.45, 'rescaleHeight': False, 'trialN': 18, 'loaded': True, 'loadedTime': 8132.299999952316, 'positionName': 'LEFT', 'positionCoords': [245.68, 178.5], 'bid': 9.69}, {'imgObject': {}, 'id': 'hotdog w must', 'src': '/static/foodstim60/hotdog w must.jpg', 'key': 'i', 'origWidth': 409, 'origHeight': 409, 'width': 409, 'height': 409, 'widthPercent': 0.45, 'rescaleHeight': False, 'trialN': 18, 'loaded': True, 'loadedTime': 8299.699999809265, 'positionName': 'RIGHT', 'positionCoords': [710.32, 179.5], 'bid': 9.53}]",47829.299999952316,1669839863844,cherries,hotdog w must,9.69,9.53,-0.16000000000000014,cherries,1284.8999998569489,1290,1290.0999999046326,True,u,49628.799999952316,1799.5,1669839865643,1799,HRV,HRV_0280,2022-11-30 20:30:36
19,"[{'imgObject': {}, 'id': 'kiwi', 'src': '/static/foodstim60/kiwi.jpg', 'key': 'u', 'origWidth': 410, 'origHeight': 410, 'width': 410, 'height': 410, 'widthPercent': 0.45, 'rescaleHeight': False, 'trialN': 19, 'loaded': True, 'loadedTime': 8602.799999952316, 'positionName': 'LEFT', 'positionCoords': [245.68, 179], 'bid': 10}, {'imgObject': {}, 'id': 'mango', 'src': '/static/foodstim60/mango.jpg', 'key': 'i', 'origWidth': 411, 'origHeight': 411, 'width': 411, 'height': 411, 'widthPercent': 0.45, 'rescaleHeight': False, 'trialN': 19, 'loaded': True, 'loadedTime': 9175.399999856949, 'positionName': 'RIGHT', 'positionCoords': [710.32, 178.5], 'bid': 10}]",49629.5,1669839865644,kiwi,mango,10.0,10.0,0.0,mango,2068.199999809265,2074,2074.0,True,i,52212.59999990463,2583.0999999046326,1669839868227,2583,HRV,HRV_0280,2022-11-30 20:30:36
20,"[{'imgObject': {}, 'id': 'rigatoni', 'src': '/static/foodstim60/rigatoni.jpg', 'key': 'u', 'origWidth': 411, 'origHeight': 411, 'width': 411, 'height': 411, 'widthPercent': 0.45, 'rescaleHeight': False, 'trialN': 20, 'loaded': True, 'loadedTime': 9726.799999952316, 'positionName': 'LEFT', 'positionCoords': [244.68, 178.5], 'bid': 8.51}, {'imgObject': {}, 'id': 'fried eggs', 'src': '/static/foodstim60/fried eggs.jpg', 'key': 'i', 'origWidth': 410, 'origHeight': 410, 'width': 410, 'height': 410, 'widthPercent': 0.45, 'rescaleHeight': False, 'trialN': 20, 'loaded': True, 'loadedTime': 9415.899999856949, 'positionName': 'RIGHT', 'positionCoords': [710.32, 179], 'bid': 8.73}]",52213.39999985695,1669839868228,rigatoni,fried eggs,8.51,8.73,0.22000000000000064,rigatoni,1940.5,1945,1944.7000000476837,True,u,54676.0,2462.600000143051,1669839870691,2463,HRV,HRV_0280,2022-11-30 20:30:36
21,"[{'imgObject': {}, 'id': 'mango', 'src': '/static/foodstim60/mango.jpg', 'key': 'u', 'origWidth': 411, 'origHeight': 411, 'width': 411, 'height': 411, 'widthPercent': 0.45, 'rescaleHeight': False, 'trialN': 21, 'loaded': True, 'loadedTime': 9175.699999809265, 'positionName': 'LEFT', 'positionCoords': [244.68, 178.5], 'bid': 10}, {'imgObject': {}, 'id': 'tacos', 'src': '/static/foodstim60/tacos.jpg', 'key': 'i', 'origWidth': 411, 'origHeight': 411, 'width': 411, 'height': 411, 'widthPercent': 0.45, 'rescaleHeight': False, 'trialN': 21, 'loaded': True, 'loadedTime': 8877.399999856949, 'positionName': 'RIGHT', 'positionCoords': [710.32, 178.5], 'bid': 8.99}]",54677.799999952316,1669839870692,mango,tacos,10.0,8.99,-1.0099999999999998,mango,2723.7000000476837,2730,2729.2999999523163,True,u,57910.699999809265,3232.899999856949,1669839873925,3233,HRV,HRV_0280,2022-11-30 20:30:36
22,"[{'imgObject': {}, 'id': 'cocktailshrimp', 'src': '/static/foodstim60/cocktailshrimp.jpg', 'key': 'u', 'origWidth': 410, 'origHeight': 410, 'width': 410, 'height': 410, 'widthPercent': 0.45, 'rescaleHeight': False, 'trialN': 22, 'loaded': True, 'loadedTime': 9503.899999856949, 'positionName': 'LEFT', 'positionCoords': [245.68, 179], 'bid': 9.61}, {'imgObject': {}, 'id': 'strawberries', 'src': '/static/foodstim60/strawberries.jpg', 'key': 'i', 'origWidth': 410, 'origHeight': 410, 'width': 410, 'height': 410, 'widthPercent': 0.45, 'rescaleHeight': False, 'trialN': 22, 'loaded': True, 'loadedTime': 9729.299999952316, 'positionName': 'RIGHT', 'positionCoords': [710.32, 179], 'bid': 9.96}]",57913.09999990463,1669839873928,cocktailshrimp,strawberries,9.61,9.96,0.3500000000000014,cocktailshrimp,1645.0999999046326,1649,1649.4000000953674,True,u,60077.89999985695,2164.7999999523163,1669839876092,2164,HRV,HRV_0280,2022-11-30 20:30:36
23,"[{'imgObject': {}, 'id': 'chickenfingers', 'src': '/static/foodstim60/chickenfingers.jpg', 'key': 'u', 'origWidth': 410, 'origHeight': 410, 'width': 410, 'height': 410, 'widthPercent': 0.45, 'rescaleHeight': False, 'trialN': 23, 'loaded': True, 'loadedTime': 9865.799999952316, 'positionName': 'LEFT', 'positionCoords': [245.68, 179], 'bid': 9.05}, {'imgObject': {}, 'id': 'blueberries', 'src': '/static/foodstim60/blueberries.jpg', 'key': 'i', 'origWidth': 411, 'origHeight': 411, 'width': 411, 'height': 411, 'widthPercent': 0.45, 'rescaleHeight': False, 'trialN': 23, 'loaded': True, 'loadedTime': 9424.599999904633, 'positionName': 'RIGHT', 'positionCoords': [710.32, 178.5], 'bid': 9.07}]",60079.699999809265,1669839876094,chickenfingers,blueberries,9.05,9.07,0.019999999999999574,chickenfingers,2405.2000000476837,2411,2411.100000143051,True,u,62994.299999952316,2914.600000143051,1669839879009,2915,HRV,HRV_0280,2022-11-30 20:30:36
24,"[{'imgObject': {}, 'id': 'grilled chicken strips', 'src': '/static/foodstim60/grilled chicken strips.jpg', 'key': 'u', 'origWidth': 410, 'origHeight': 411, 'width': 410, 'height': 411, 'widthPercent': 0.45, 'rescaleHeight': False, 'trialN': 24, 'loaded': True, 'loadedTime': 9792.399999856949, 'positionName': 'LEFT', 'positionCoords': [245.68, 178.5], 'bid': 9.18}, {'imgObject': {}, 'id': 'rigatoni', 'src': '/static/foodstim60/rigatoni.jpg', 'key': 'i', 'origWidth': 411, 'origHeight': 411, 'width': 411, 'height': 411, 'widthPercent': 0.45, 'rescaleHeight': False, 'trialN': 24, 'loaded': True, 'loadedTime': 9727.699999809265, 'positionName': 'RIGHT', 'positionCoords': [710.32, 178.5], 'bid': 8.51}]",62996.89999985695,1669839879012,grilled chicken strips,rigatoni,9.18,8.51,-0.6699999999999999,grilled chicken strips,1716,1720,1720.7000000476837,True,u,65228.89999985695,2232.0,1669839881243,2231,HRV,HRV_0280,2022-11-30 20:30:36
25,"[{'imgObject': {}, 'id': 'lox', 'src': '/static/foodstim60/lox.jpg', 'key': 'u', 'origWidth': 410, 'origHeight': 411, 'width': 410, 'height': 411, 'widthPercent': 0.45, 'rescaleHeight': False, 'trialN': 25, 'loaded': True, 'loadedTime': 8776.5, 'positionName': 'LEFT', 'positionCoords': [245.68, 178.5], 'bid': 8.790000000000001}, {'imgObject': {}, 'id': 'sweetpotato', 'src': '/static/foodstim60/sweetpotato.jpg', 'key': 'i', 'origWidth': 410, 'origHeight': 410, 'width': 410, 'height': 410, 'widthPercent': 0.45, 'rescaleHeight': False, 'trialN': 25, 'loaded': True, 'loadedTime': 9893.199999809265, 'positionName': 'RIGHT', 'positionCoords': [710.32, 179], 'bid': 9.17}]",65231.299999952316,1669839881246,lox,sweetpotato,8.790000000000001,9.17,0.379999999999999,lox,2329.2999999523163,2334,2333.7000000476837,True,u,68078.79999995232,2847.5,1669839884094,2848,HRV,HRV_0280,2022-11-30 20:30:36
26,"[{'imgObject': {}, 'id': 'veggieswithdip', 'src': '/static/foodstim60/veggieswithdip.jpg', 'key': 'u', 'origWidth': 409, 'origHeight': 409, 'width': 409, 'height': 409, 'widthPercent': 0.45, 'rescaleHeight': False, 'trialN': 26, 'loaded': True, 'loadedTime': 9896.399999856949, 'positionName': 'LEFT', 'positionCoords': [246.68, 179.5], 'bid': 8.36}, {'imgObject': {}, 'id': 'pear', 'src': '/static/foodstim60/pear.jpg', 'key': 'i', 'origWidth': 411, 'origHeight': 410, 'width': 411, 'height': 410, 'widthPercent': 0.45, 'rescaleHeight': False, 'trialN': 26, 'loaded': True, 'loadedTime': 9951.5, 'positionName': 'RIGHT', 'positionCoords': [710.32, 179], 'bid': 9.18}]",68080.09999990463,1669839884095,veggieswithdip,pear,8.36,9.18,0.8200000000000003,pear,1860.9000000953674,1862,1862.7000000476837,True,i,70460.89999985695,2380.7999999523163,1669839886475,2380,HRV,HRV_0280,2022-11-30 20:30:36
27,"[{'imgObject': {}, 'id': 'chickenfingers', 'src': '/static/foodstim60/chickenfingers.jpg', 'key': 'u', 'origWidth': 410, 'origHeight': 410, 'width': 410, 'height': 410, 'widthPercent': 0.45, 'rescaleHeight': False, 'trialN': 27, 'loaded': True, 'loadedTime': 9870.899999856949, 'positionName': 'LEFT', 'positionCoords': [245.68, 179], 'bid': 9.05}, {'imgObject': {}, 'id': 'salad w chicken', 'src': '/static/foodstim60/salad w chicken.jpg', 'key': 'i', 'origWidth': 411, 'origHeight': 411, 'width': 411, 'height': 411, 'widthPercent': 0.45, 'rescaleHeight': False, 'trialN': 27, 'loaded': True, 'loadedTime': 9957.299999952316, 'positionName': 'RIGHT', 'positionCoords': [710.32, 178.5], 'bid': 10}]",70463.19999980927,1669839886478,chickenfingers,salad w chicken,9.05,10.0,0.9499999999999993,salad w chicken,1581.6000001430511,1586,1586.2000000476837,True,i,72564.09999990463,2100.9000000953674,1669839888579,2101,HRV,HRV_0280,2022-11-30 20:30:36
28,"[{'imgObject': {}, 'id': 'veggieswithdip', 'src': '/static/foodstim60/veggieswithdip.jpg', 'key': 'u', 'origWidth': 409, 'origHeight': 409, 'width': 409, 'height': 409, 'widthPercent': 0.45, 'rescaleHeight': False, 'trialN': 28, 'loaded': True, 'loadedTime': 9893.599999904633, 'positionName': 'LEFT', 'positionCoords': [246.68, 179.5], 'bid': 8.36}, {'imgObject': {}, 'id': 'fried eggs', 'src': '/static/foodstim60/fried eggs.jpg', 'key': 'i', 'origWidth': 410, 'origHeight': 410, 'width': 410, 'height': 410, 'widthPercent': 0.45, 'rescaleHeight': False, 'trialN': 28, 'loaded': True, 'loadedTime': 9321.199999809265, 'positionName': 'RIGHT', 'positionCoords': [710.32, 179], 'bid': 8.73}]",72564.79999995232,1669839888579,veggieswithdip,fried eggs,8.36,8.73,0.370000000000001,veggieswithdip,2469.399999856949,2472,2471.5999999046326,True,u,75546.5,2981.7000000476837,1669839891561,2982,HRV,HRV_0280,2022-11-30 20:30:36
29,"[{'imgObject': {}, 'id': 'rigatoni', 'src': '/static/foodstim60/rigatoni.jpg', 'key': 'u', 'origWidth': 411, 'origHeight': 411, 'width': 411, 'height': 411, 'widthPercent': 0.45, 'rescaleHeight': False, 'trialN': 29, 'loaded': True, 'loadedTime': 9727.199999809265, 'positionName': 'LEFT', 'positionCoords': [244.68, 178.5], 'bid': 8.51}, {'imgObject': {}, 'id': 'raisin bran w milk', 'src': '/static/foodstim60/raisin bran w milk.jpg', 'key': 'i', 'origWidth': 411, 'origHeight': 411, 'width': 411, 'height': 411, 'widthPercent': 0.45, 'rescaleHeight': False, 'trialN': 29, 'loaded': True, 'loadedTime': 9717.899999856949, 'positionName': 'RIGHT', 'positionCoords': [710.32, 178.5], 'bid': 5.79}]",75547.59999990463,1669839891562,rigatoni,raisin bran w milk,8.51,5.79,-2.7199999999999998,rigatoni,2049.2999999523163,2051,2050.5999999046326,True,u,78103.59999990463,2556.0,1669839894118,2556,HRV,HRV_0280,2022-11-30 20:30:36
30,"[{'imgObject': {}, 'id': 'sushi w_condiments', 'src': '/static/foodstim60/sushi w_condiments.jpg', 'key': 'u', 'origWidth': 410, 'origHeight': 410, 'width': 410, 'height': 410, 'widthPercent': 0.45, 'rescaleHeight': False, 'trialN': 30, 'loaded': True, 'loadedTime': 9565.099999904633, 'positionName': 'LEFT', 'positionCoords': [245.68, 179], 'bid': 9.89}, {'imgObject': {}, 'id': 'orange slices', 'src': '/static/foodstim60/orange slices.jpg', 'key': 'i', 'origWidth': 409, 'origHeight': 410, 'width': 409, 'height': 410, 'widthPercent': 0.45, 'rescaleHeight': False, 'trialN': 30, 'loaded': True, 'loadedTime': 9961.799999952316, 'positionName': 'RIGHT', 'positionCoords': [710.32, 179], 'bid': 9.28}]",78104.0,1669839894119,sushi w_condiments,orange slices,9.89,9.28,-0.6100000000000012,sushi w_condiments,1838.3999998569489,1843,1843.6999998092651,True,u,80454.09999990463,2350.0999999046326,1669839896469,2350,HRV,HRV_0280,2022-11-30 20:30:36
31,"[{'imgObject': {}, 'id': 'burrito', 'src': '/static/foodstim60/burrito.jpg', 'key': 'u', 'origWidth': 410, 'origHeight': 410, 'width': 410, 'height': 410, 'widthPercent': 0.45, 'rescaleHeight': False, 'trialN': 31, 'loaded': True, 'loadedTime': 9979.199999809265, 'positionName': 'LEFT', 'positionCoords': [245.68, 179], 'bid': 6.34}, {'imgObject': {}, 'id': 'luckycharms', 'src': '/static/foodstim60/luckycharms.jpg', 'key': 'i', 'origWidth': 410, 'origHeight': 409, 'width': 410, 'height': 409, 'widthPercent': 0.45, 'rescaleHeight': False, 'trialN': 31, 'loaded': True, 'loadedTime': 9845.699999809265, 'positionName': 'RIGHT', 'positionCoords': [710.32, 179.5], 'bid': 5.64}]",80454.79999995232,1669839896469,burrito,luckycharms,6.34,5.64,-0.7000000000000002,luckycharms,2156.7000000476837,2163,2162.2000000476837,True,i,83121.69999980927,2666.899999856949,1669839899136,2667,HRV,HRV_0280,2022-11-30 20:30:36
32,"[{'imgObject': {}, 'id': 'popsicles', 'src': '/static/foodstim60/popsicles.jpg', 'key': 'u', 'origWidth': 410, 'origHeight': 410, 'width': 410, 'height': 410, 'widthPercent': 0.45, 'rescaleHeight': False, 'trialN': 32, 'loaded': True, 'loadedTime': 10565.099999904633, 'positionName': 'LEFT', 'positionCoords': [245.68, 179], 'bid': 5.93}, {'imgObject': {}, 'id': 'bagel and cc', 'src': '/static/foodstim60/bagel and cc.jpg', 'key': 'i', 'origWidth': 410, 'origHeight': 410, 'width': 410, 'height': 410, 'widthPercent': 0.45, 'rescaleHeight': False, 'trialN': 32, 'loaded': True, 'loadedTime': 9986, 'positionName': 'RIGHT', 'positionCoords': [710.32, 179], 'bid': 8.07}]",83124.19999980927,1669839899139,popsicles,bagel and cc,5.93,8.07,2.1400000000000006,bagel and cc,1248.1000001430511,1257,1257.0,True,i,84890.19999980927,1766.0,1669839900905,1766,HRV,HRV_0280,2022-11-30 20:30:36
33,"[{'imgObject': {}, 'id': 'baked potato', 'src': '/static/foodstim60/baked potato.jpg', 'key': 'u', 'origWidth': 409, 'origHeight': 410, 'width': 409, 'height': 410, 'widthPercent': 0.45, 'rescaleHeight': False, 'trialN': 33, 'loaded': True, 'loadedTime': 7901.199999809265, 'positionName': 'LEFT', 'positionCoords': [246.68, 179], 'bid': 9.24}, {'imgObject': {}, 'id': 'apple slices', 'src': '/static/foodstim60/apple slices.jpg', 'key': 'i', 'origWidth': 409, 'origHeight': 410, 'width': 409, 'height': 410, 'widthPercent': 0.45, 'rescaleHeight': False, 'trialN': 33, 'loaded': True, 'loadedTime': 8304.099999904633, 'positionName': 'RIGHT', 'positionCoords': [710.32, 179], 'bid': 9.24}]",84890.89999985695,1669839900905,baked potato,apple slices,9.24,9.24,0.0,baked potato,1450.1000001430511,1456,1455.7000000476837,True,u,86854.0,1963.1000001430511,1669839902869,1964,HRV,HRV_0280,2022-11-30 20:30:36
34,"[{'imgObject': {}, 'id': 'tacos', 'src': '/static/foodstim60/tacos.jpg', 'key': 'u', 'origWidth': 411, 'origHeight': 411, 'width': 411, 'height': 411, 'widthPercent': 0.45, 'rescaleHeight': False, 'trialN': 34, 'loaded': True, 'loadedTime': 8879.5, 'positionName': 'LEFT', 'positionCoords': [244.68, 178.5], 'bid': 8.99}, {'imgObject': {}, 'id': 'rigatoni and sauce', 'src': '/static/foodstim60/rigatoni and sauce.jpg', 'key': 'i', 'origWidth': 410, 'origHeight': 411, 'width': 410, 'height': 411, 'widthPercent': 0.45, 'rescaleHeight': False, 'trialN': 34, 'loaded': True, 'loadedTime': 9179.199999809265, 'positionName': 'RIGHT', 'positionCoords': [710.32, 178.5], 'bid': 9.21}]",86855.89999985695,1669839902871,tacos,rigatoni and sauce,8.99,9.21,0.22000000000000064,NaN,NaN,NaN,,False,NaN,90879.5,4023.600000143051,1669839906894,4023,HRV,HRV_0280,2022-11-30 20:30:36
35,"[{'imgObject': {}, 'id': 'bagel and cc', 'src': '/static/foodstim60/bagel and cc.jpg', 'key': 'u', 'origWidth': 410, 'origHeight': 410, 'width': 410, 'height': 410, 'widthPercent': 0.45, 'rescaleHeight': False, 'trialN': 35, 'loaded': True, 'loadedTime': 9981.5, 'positionName': 'LEFT', 'positionCoords': [245.68, 179], 'bid': 8.07}, {'imgObject': {}, 'id': 'cherry tomato', 'src': '/static/foodstim60/cherry tomato.jpg', 'key': 'i', 'origWidth': 410, 'origHeight': 410, 'width': 410, 'height': 410, 'widthPercent': 0.45, 'rescaleHeight': False, 'trialN': 35, 'loaded': True, 'loadedTime': 9555.799999952316, 'positionName': 'RIGHT', 'positionCoords': [710.32, 179], 'bid': 8.07}]",90879.89999985695,1669839906894,bagel and cc,cherry tomato,8.07,8.07,0.0,bagel and cc,1438.2000000476837,1444,1444.0,True,u,92835.5,1955.6000001430511,1669839908850,1956,HRV,HRV_0280,2022-11-30 20:30:36
36,"[{'imgObject': {}, 'id': 'pear', 'src': '/static/foodstim60/pear.jpg', 'key': 'u', 'origWidth': 411, 'origHeight': 410, 'width': 411, 'height': 410, 'widthPercent': 0.45, 'rescaleHeight': False, 'trialN': 36, 'loaded': True, 'loadedTime': 9952.5, 'positionName': 'LEFT', 'positionCoords': [244.68, 179], 'bid': 9.18}, {'imgObject': {}, 'id': 'roastedpotatoes', 'src': '/static/foodstim60/roastedpotatoes.jpg', 'key': 'i', 'origWidth': 409, 'origHeight': 410, 'width': 409, 'height': 410, 'widthPercent': 0.45, 'rescaleHeight': False, 'trialN': 36, 'loaded': True, 'loadedTime': 8688.599999904633, 'positionName': 'RIGHT', 'positionCoords': [710.32, 179], 'bid': 8.92}]",92837.5,1669839908852,pear,roastedpotatoes,9.18,8.92,-0.2599999999999998,pear,1242.2999999523163,1248,1247.8999998569489,True,u,94587.39999985695,1749.8999998569489,1669839910602,1750,HRV,HRV_0280,2022-11-30 20:30:36
37,"[{'imgObject': {}, 'id': 'eggsalad', 'src': '/static/foodstim60/eggsalad.jpg', 'key': 'u', 'origWidth': 410, 'origHeight': 409, 'width': 410, 'height': 409, 'widthPercent': 0.45, 'rescaleHeight': False, 'trialN': 37, 'loaded': True, 'loadedTime': 10070.799999952316, 'positionName': 'LEFT', 'positionCoords': [245.68, 179.5], 'bid': 5.05}, {'imgObject': {}, 'id': 'seaweed', 'src': '/static/foodstim60/seaweed.jpg', 'key': 'i', 'origWidth': 410, 'origHeight': 410, 'width': 410, 'height': 410, 'widthPercent': 0.45, 'rescaleHeight': False, 'trialN': 37, 'loaded': True, 'loadedTime': 8984.5, 'positionName': 'RIGHT', 'positionCoords': [710.32, 179], 'bid': 5.04}]",94589.39999985695,1669839910604,eggsalad,seaweed,5.05,5.04,-0.009999999999999787,eggsalad,1772.5,1777,1776.7000000476837,True,u,96870.79999995232,2281.4000000953674,1669839912885,2281,HRV,HRV_0280,2022-11-30 20:30:36
38,"[{'imgObject': {}, 'id': 'yogurt no spoon', 'src': '/static/foodstim60/yogurt no spoon.jpg', 'key': 'u', 'origWidth': 411, 'origHeight': 410, 'width': 411, 'height': 410, 'widthPercent': 0.45, 'rescaleHeight': False, 'trialN': 38, 'loaded': True, 'loadedTime': 9248.899999856949, 'positionName': 'LEFT', 'positionCoords': [244.68, 179], 'bid': 7.82}, {'imgObject': {}, 'id': 'rigatoni', 'src': '/static/foodstim60/rigatoni.jpg', 'key': 'i', 'origWidth': 411, 'origHeight': 411, 'width': 411, 'height': 411, 'widthPercent': 0.45, 'rescaleHeight': False, 'trialN': 38, 'loaded': True, 'loadedTime': 9725, 'positionName': 'RIGHT', 'positionCoords': [710.32, 178.5], 'bid': 8.51}]",96872.79999995232,1669839912887,yogurt no spoon,rigatoni,7.82,8.51,0.6899999999999995,rigatoni,1128.2000000476837,1133,1132.3999998569489,True,i,98506.79999995232,1634.0,1669839914522,1635,HRV,HRV_0280,2022-11-30 20:30:36
39,"[{'imgObject': {}, 'id': 'grilled chicken strips', 'src': '/static/foodstim60/grilled chicken strips.jpg', 'key': 'u', 'origWidth': 410, 'origHeight': 411, 'width': 410, 'height': 411, 'widthPercent': 0.45, 'rescaleHeight': False, 'trialN': 39, 'loaded': True, 'loadedTime': 9795.399999856949, 'positionName': 'LEFT', 'positionCoords': [245.68, 178.5], 'bid': 9.18}, {'imgObject': {}, 'id': 'cantaloupe', 'src': '/static/foodstim60/cantaloupe.jpg', 'key': 'i', 'origWidth': 409, 'origHeight': 409, 'width': 409, 'height': 409, 'widthPercent': 0.45, 'rescaleHeight': False, 'trialN': 39, 'loaded': True, 'loadedTime': 10080.899999856949, 'positionName': 'RIGHT', 'positionCoords': [710.32, 179.5], 'bid': 9.45}]",98509.0,1669839914524,grilled chicken strips,cantaloupe,9.18,9.45,0.2699999999999996,grilled chicken strips,2092.699999809265,2097,2097.399999856949,True,u,101119.79999995232,2610.7999999523163,1669839917135,2611,HRV,HRV_0280,2022-11-30 20:30:36
40,"[{'imgObject': {}, 'id': 'avocado', 'src': '/static/foodstim60/avocado.jpg', 'key': 'u', 'origWidth': 409, 'origHeight': 409, 'width': 409, 'height': 409, 'widthPercent': 0.45, 'rescaleHeight': False, 'trialN': 40, 'loaded': True, 'loadedTime': 10083.899999856949, 'positionName': 'LEFT', 'positionCoords': [246.68, 179.5], 'bid': 9.23}, {'imgObject': {}, 'id': 'omelette', 'src': '/static/foodstim60/omelette.jpg', 'key': 'i', 'origWidth': 410, 'origHeight': 409, 'width': 410, 'height': 409, 'widthPercent': 0.45, 'rescaleHeight': False, 'trialN': 40, 'loaded': True, 'loadedTime': 10106.099999904633, 'positionName': 'RIGHT', 'positionCoords': [710.32, 179.5], 'bid': 9.21}]",101120.09999990463,1669839917135,avocado,omelette,9.23,9.21,-0.019999999999999574,avocado,1531,1535,1535.0999999046326,True,u,103169.09999990463,2049.0,1669839919184,2049,HRV,HRV_0280,2022-11-30 20:30:36
41,"[{'imgObject': {}, 'id': 'eggsalad', 'src': '/static/foodstim60/eggsalad.jpg', 'key': 'u', 'origWidth': 410, 'origHeight': 409, 'width': 410, 'height': 409, 'widthPercent': 0.45, 'rescaleHeight': False, 'trialN': 41, 'loaded': True, 'loadedTime': 10068.399999856949, 'positionName': 'LEFT', 'positionCoords': [245.68, 179.5], 'bid': 5.05}, {'imgObject': {}, 'id': 'pear', 'src': '/static/foodstim60/pear.jpg', 'key': 'i', 'origWidth': 411, 'origHeight': 410, 'width': 411, 'height': 410, 'widthPercent': 0.45, 'rescaleHeight': False, 'trialN': 41, 'loaded': True, 'loadedTime': 9949.799999952316, 'positionName': 'RIGHT', 'positionCoords': [710.32, 179], 'bid': 9.18}]",103170.09999990463,1669839919185,eggsalad,pear,5.05,9.18,4.13,eggsalad,1471.7000000476837,1477,1477.4000000953674,True,u,105158.09999990463,1988.0,1669839921173,1988,HRV,HRV_0280,2022-11-30 20:30:36
42,"[{'imgObject': {}, 'id': 'cocktailshrimp', 'src': '/static/foodstim60/cocktailshrimp.jpg', 'key': 'u', 'origWidth': 410, 'origHeight': 410, 'width': 410, 'height': 410, 'widthPercent': 0.45, 'rescaleHeight': False, 'trialN': 42, 'loaded': True, 'loadedTime': 9545.199999809265, 'positionName': 'LEFT', 'positionCoords': [245.68, 179], 'bid': 9.61}, {'imgObject': {}, 'id': 'orange slices', 'src': '/static/foodstim60/orange slices.jpg', 'key': 'i', 'origWidth': 409, 'origHeight': 410, 'width': 409, 'height': 410, 'widthPercent': 0.45, 'rescaleHeight': False, 'trialN': 42, 'loaded': True, 'loadedTime': 9965.699999809265, 'positionName': 'RIGHT', 'positionCoords': [710.32, 179], 'bid': 9.28}]",105160.5,1669839921175,cocktailshrimp,orange slices,9.61,9.28,-0.33000000000000007,cocktailshrimp,1487.3999998569489,1492,1491.6999998092651,True,u,107156.59999990463,1996.0999999046326,1669839923171,1996,HRV,HRV_0280,2022-11-30 20:30:36
43,"[{'imgObject': {}, 'id': 'grilled chicken strips', 'src': '/static/foodstim60/grilled chicken strips.jpg', 'key': 'u', 'origWidth': 410, 'origHeight': 411, 'width': 410, 'height': 411, 'widthPercent': 0.45, 'rescaleHeight': False, 'trialN': 43, 'loaded': True, 'loadedTime': 9796.399999856949, 'positionName': 'LEFT', 'positionCoords': [245.68, 178.5], 'bid': 9.18}, {'imgObject': {}, 'id': 'edamame', 'src': '/static/foodstim60/edamame.jpg', 'key': 'i', 'origWidth': 409, 'origHeight': 410, 'width': 409, 'height': 410, 'widthPercent': 0.45, 'rescaleHeight': False, 'trialN': 43, 'loaded': True, 'loadedTime': 10110.5, 'positionName': 'RIGHT', 'positionCoords': [710.32, 179], 'bid': 5.3}]",107158.5,1669839923173,grilled chicken strips,edamame,9.18,5.3,-3.88,grilled chicken strips,1468.8999998569489,1474,1473.0999999046326,True,u,109138.0,1979.5,1669839925153,1980,HRV,HRV_0280,2022-11-30 20:30:36
44,"[{'imgObject': {}, 'id': 'yogurt no spoon', 'src': '/static/foodstim60/yogurt no spoon.jpg', 'key': 'u', 'origWidth': 411, 'origHeight': 410, 'width': 411, 'height': 410, 'widthPercent': 0.45, 'rescaleHeight': False, 'trialN': 44, 'loaded': True, 'loadedTime': 9244.5, 'positionName': 'LEFT', 'positionCoords': [244.68, 179], 'bid': 7.82}, {'imgObject': {}, 'id': 'bagel plain', 'src': '/static/foodstim60/bagel plain.jpg', 'key': 'i', 'origWidth': 410, 'origHeight': 410, 'width': 410, 'height': 410, 'widthPercent': 0.45, 'rescaleHeight': False, 'trialN': 44, 'loaded': True, 'loadedTime': 10199.399999856949, 'positionName': 'RIGHT', 'positionCoords': [710.32, 179], 'bid': 7.86}]",109140.0,1669839925155,yogurt no spoon,bagel plain,7.82,7.86,0.040000000000000036,bagel plain,1326.1999998092651,1328,1327.8999998569489,True,i,110971.09999990463,1831.0999999046326,1669839926986,1831,HRV,HRV_0280,2022-11-30 20:30:36
45,"[{'imgObject': {}, 'id': 'Grapes', 'src': '/static/foodstim60/Grapes.jpg', 'key': 'u', 'origWidth': 411, 'origHeight': 411, 'width': 411, 'height': 411, 'widthPercent': 0.45, 'rescaleHeight': False, 'trialN': 45, 'loaded': True, 'loadedTime': 10210, 'positionName': 'LEFT', 'positionCoords': [244.68, 178.5], 'bid': 9.33}, {'imgObject': {}, 'id': 'blackbeanswithrice', 'src': '/static/foodstim60/blackbeanswithrice.jpg', 'key': 'i', 'origWidth': 410, 'origHeight': 410, 'width': 410, 'height': 410, 'widthPercent': 0.45, 'rescaleHeight': False, 'trialN': 45, 'loaded': True, 'loadedTime': 10215.5, 'positionName': 'RIGHT', 'positionCoords': [710.32, 179], 'bid': 7}]",110971.69999980927,1669839926987,Grapes,blackbeanswithrice,9.33,7.0,-2.33,Grapes,1304.4000000953674,1308,1308.6000001430511,True,u,112796.5,1824.8000001907349,1669839928811,1824,HRV,HRV_0280,2022-11-30 20:30:36
46,"[{'imgObject': {}, 'id': 'kiwi', 'src': '/static/foodstim60/kiwi.jpg', 'key': 'u', 'origWidth': 410, 'origHeight': 410, 'width': 410, 'height': 410, 'widthPercent': 0.45, 'rescaleHeight': False, 'trialN': 46, 'loaded': True, 'loadedTime': 8683.799999952316, 'positionName': 'LEFT', 'positionCoords': [245.68, 179], 'bid': 10}, {'imgObject': {}, 'id': 'blueberries', 'src': '/static/foodstim60/blueberries.jpg', 'key': 'i', 'origWidth': 411, 'origHeight': 411, 'width': 411, 'height': 411, 'widthPercent': 0.45, 'rescaleHeight': False, 'trialN': 46, 'loaded': True, 'loadedTime': 9423.899999856949, 'positionName': 'RIGHT', 'positionCoords': [710.32, 178.5], 'bid': 9.07}]",112798.0,1669839928813,kiwi,blueberries,10.0,9.07,-0.9299999999999997,kiwi,1229.7999999523163,1235,1234.8999998569489,True,u,114538.69999980927,1740.6999998092651,1669839930554,1741,HRV,HRV_0280,2022-11-30 20:30:36
47,"[{'imgObject': {}, 'id': 'omelette', 'src': '/static/foodstim60/omelette.jpg', 'key': 'u', 'origWidth': 410, 'origHeight': 409, 'width': 410, 'height': 409, 'widthPercent': 0.45, 'rescaleHeight': False, 'trialN': 47, 'loaded': True, 'loadedTime': 10100.5, 'positionName': 'LEFT', 'positionCoords': [245.68, 179.5], 'bid': 9.21}, {'imgObject': {}, 'id': 'grilled chicken strips', 'src': '/static/foodstim60/grilled chicken strips.jpg', 'key': 'i', 'origWidth': 410, 'origHeight': 411, 'width': 410, 'height': 411, 'widthPercent': 0.45, 'rescaleHeight': False, 'trialN': 47, 'loaded': True, 'loadedTime': 9798.199999809265, 'positionName': 'RIGHT', 'positionCoords': [710.32, 178.5], 'bid': 9.18}]",114539.0,1669839930554,omelette,grilled chicken strips,9.21,9.18,-0.030000000000001137,omelette,1168,1172,1172.3999998569489,True,u,116230.19999980927,1691.1999998092651,1669839932245,1691,HRV,HRV_0280,2022-11-30 20:30:36
48,"[{'imgObject': {}, 'id': 'lox', 'src': '/static/foodstim60/lox.jpg', 'key': 'u', 'origWidth': 410, 'origHeight': 411, 'width': 410, 'height': 411, 'widthPercent': 0.45, 'rescaleHeight': False, 'trialN': 48, 'loaded': True, 'loadedTime': 8771.799999952316, 'positionName': 'LEFT', 'positionCoords': [245.68, 178.5], 'bid': 8.790000000000001}, {'imgObject': {}, 'id': 'burger', 'src': '/static/foodstim60/burger.jpg', 'key': 'i', 'origWidth': 409, 'origHeight': 409, 'width': 409, 'height': 409, 'widthPercent': 0.45, 'rescaleHeight': False, 'trialN': 48, 'loaded': True, 'loadedTime': 10216.899999856949, 'positionName': 'RIGHT', 'positionCoords': [710.32, 179.5], 'bid': 9.87}]",116230.89999985695,1669839932246,lox,burger,8.790000000000001,9.87,1.0799999999999983,burger,1575.9000000953674,1580,1580.2999999523163,True,i,118324.69999980927,2093.7999999523163,1669839934340,2094,HRV,HRV_0280,2022-11-30 20:30:36
49,"[{'imgObject': {}, 'id': 'salad w chicken', 'src': '/static/foodstim60/salad w chicken.jpg', 'key': 'u', 'origWidth': 411, 'origHeight': 411, 'width': 411, 'height': 411, 'widthPercent': 0.45, 'rescaleHeight': False, 'trialN': 49, 'loaded': True, 'loadedTime': 9956.299999952316, 'positionName': 'LEFT', 'positionCoords': [244.68, 178.5], 'bid': 10}, {'imgObject': {}, 'id': 'strawberries', 'src': '/static/foodstim60/strawberries.jpg', 'key': 'i', 'origWidth': 410, 'origHeight': 410, 'width': 410, 'height': 410, 'widthPercent': 0.45, 'rescaleHeight': False, 'trialN': 49, 'loaded': True, 'loadedTime': 9738.599999904633, 'positionName': 'RIGHT', 'positionCoords': [710.32, 179], 'bid': 9.96}]",118327.59999990463,1669839934342,salad w chicken,strawberries,10.0,9.96,-0.03999999999999915,salad w chicken,1417.9000000953674,1424,1424.0,True,u,120269.69999980927,1942.0999999046326,1669839936285,1943,HRV,HRV_0280,2022-11-30 20:30:36
50,"[{'imgObject': {}, 'id': 'mac & cheese', 'src': '/static/foodstim60/mac & cheese.jpg', 'key': 'u', 'origWidth': 410, 'origHeight': 410, 'width': 410, 'height': 410, 'widthPercent': 0.45, 'rescaleHeight': False, 'trialN': 50, 'loaded': True, 'loadedTime': 10229.299999952316, 'positionName': 'LEFT', 'positionCoords': [245.68, 179], 'bid': 9.26}, {'imgObject': {}, 'id': 'olives', 'src': '/static/foodstim60/olives.jpg', 'key': 'i', 'origWidth': 410, 'origHeight': 410, 'width': 410, 'height': 410, 'widthPercent': 0.45, 'rescaleHeight': False, 'trialN': 50, 'loaded': True, 'loadedTime': 10387.899999856949, 'positionName': 'RIGHT', 'positionCoords': [710.32, 179], 'bid': 9.24}]",120271.69999980927,1669839936287,mac & cheese,olives,9.26,9.24,-0.019999999999999574,olives,2195.800000190735,2200,2200.300000190735,True,i,122977.89999985695,2706.2000000476837,1669839938993,2706,HRV,HRV_0280,2022-11-30 20:30:36
51,"[{'imgObject': {}, 'id': 'ice cream sundae 002', 'src': '/static/foodstim60/ice cream sundae 002.jpg', 'key': 'u', 'origWidth': 409, 'origHeight': 409, 'width': 409, 'height': 409, 'widthPercent': 0.45, 'rescaleHeight': False, 'trialN': 51, 'loaded': True, 'loadedTime': 9498.199999809265, 'positionName': 'LEFT', 'positionCoords': [246.68, 179.5], 'bid': 7.19}, {'imgObject': {}, 'id': 'shreddedwheatwithmilk', 'src': '/static/foodstim60/shreddedwheatwithmilk.jpg', 'key': 'i', 'origWidth': 410, 'origHeight': 410, 'width': 410, 'height': 410, 'widthPercent': 0.45, 'rescaleHeight': False, 'trialN': 51, 'loaded': True, 'loadedTime': 8888.599999904633, 'positionName': 'RIGHT', 'positionCoords': [710.32, 179], 'bid': 6.8}]",122979.0,1669839938994,ice cream sundae 002,shreddedwheatwithmilk,7.19,6.8,-0.39000000000000057,ice cream sundae 002,1450.1999998092651,1455,1455.1999998092651,True,u,124940.69999980927,1961.6999998092651,1669839940956,1962,HRV,HRV_0280,2022-11-30 20:30:36
52,"[{'imgObject': {}, 'id': 'burrito', 'src': '/static/foodstim60/burrito.jpg', 'key': 'u', 'origWidth': 410, 'origHeight': 410, 'width': 410, 'height': 410, 'widthPercent': 0.45, 'rescaleHeight': False, 'trialN': 52, 'loaded': True, 'loadedTime': 9978.199999809265, 'positionName': 'LEFT', 'positionCoords': [245.68, 179], 'bid': 6.34}, {'imgObject': {}, 'id': 'orange slices', 'src': '/static/foodstim60/orange slices.jpg', 'key': 'i', 'origWidth': 409, 'origHeight': 410, 'width': 409, 'height': 410, 'widthPercent': 0.45, 'rescaleHeight': False, 'trialN': 52, 'loaded': True, 'loadedTime': 9966.399999856949, 'positionName': 'RIGHT', 'positionCoords': [710.32, 179], 'bid': 9.28}]",124941.5,1669839940956,burrito,orange slices,6.34,9.28,2.9399999999999995,orange slices,918.5,923,922.7999999523163,True,i,126381.89999985695,1440.3999998569489,1669839942397,1441,HRV,HRV_0280,2022-11-30 20:30:36
53,"[{'imgObject': {}, 'id': 'mac & cheese', 'src': '/static/foodstim60/mac & cheese.jpg', 'key': 'u', 'origWidth': 410, 'origHeight': 410, 'width': 410, 'height': 410, 'widthPercent': 0.45, 'rescaleHeight': False, 'trialN': 53, 'loaded': True, 'loadedTime': 10222.799999952316, 'positionName': 'LEFT', 'positionCoords': [245.68, 179], 'bid': 9.26}, {'imgObject': {}, 'id': 'eggs', 'src': '/static/foodstim60/eggs.jpg', 'key': 'i', 'origWidth': 409, 'origHeight': 409, 'width': 409, 'height': 409, 'widthPercent': 0.45, 'rescaleHeight': False, 'trialN': 53, 'loaded': True, 'loadedTime': 8493.399999856949, 'positionName': 'RIGHT', 'positionCoords': [710.32, 179.5], 'bid': 6.0200000000000005}]",126383.0,1669839942398,mac & cheese,eggs,9.26,6.0200000000000005,-3.2399999999999993,mac & cheese,1865.1999998092651,1869,1869.3999998569489,True,u,128756.0,2373.0,1669839944771,2373,HRV,HRV_0280,2022-11-30 20:30:36
54,"[{'imgObject': {}, 'id': 'yogurt no spoon', 'src': '/static/foodstim60/yogurt no spoon.jpg', 'key': 'u', 'origWidth': 411, 'origHeight': 410, 'width': 411, 'height': 410, 'widthPercent': 0.45, 'rescaleHeight': False, 'trialN': 54, 'loaded': True, 'loadedTime': 9225.399999856949, 'positionName': 'LEFT', 'positionCoords': [244.68, 179], 'bid': 7.82}, {'imgObject': {}, 'id': 'bagel and cc', 'src': '/static/foodstim60/bagel and cc.jpg', 'key': 'i', 'origWidth': 410, 'origHeight': 410, 'width': 410, 'height': 410, 'widthPercent': 0.45, 'rescaleHeight': False, 'trialN': 54, 'loaded': True, 'loadedTime': 10066.299999952316, 'positionName': 'RIGHT', 'positionCoords': [710.32, 179], 'bid': 8.07}]",128758.29999995232,1669839944773,yogurt no spoon,bagel and cc,7.82,8.07,0.25,bagel and cc,1454.2999999523163,1459,1458.5999999046326,True,i,130733.0,1974.7000000476837,1669839946748,1975,HRV,HRV_0280,2022-11-30 20:30:36
55,"[{'imgObject': {}, 'id': 'turkeysandwich', 'src': '/static/foodstim60/turkeysandwich.jpg', 'key': 'u', 'origWidth': 409, 'origHeight': 409, 'width': 409, 'height': 409, 'widthPercent': 0.45, 'rescaleHeight': False, 'trialN': 55, 'loaded': True, 'loadedTime': 9698.099999904633, 'positionName': 'LEFT', 'positionCoords': [246.68, 179.5], 'bid': 9.39}, {'imgObject': {}, 'id': 'Tribe humus pita', 'src': '/static/foodstim60/Tribe humus pita.jpg', 'key': 'i', 'origWidth': 411, 'origHeight': 411, 'width': 411, 'height': 411, 'widthPercent': 0.45, 'rescaleHeight': False, 'trialN': 55, 'loaded': True, 'loadedTime': 9071.599999904633, 'positionName': 'RIGHT', 'positionCoords': [710.32, 178.5], 'bid': 7.82}]",130734.89999985695,1669839946750,turkeysandwich,Tribe humus pita,9.39,7.82,-1.5700000000000003,turkeysandwich,1048.2999999523163,1054,1054.0,True,u,132302.59999990463,1567.7000000476837,1669839948317,1567,HRV,HRV_0280,2022-11-30 20:30:36
56,"[{'imgObject': {}, 'id': 'mac & cheese', 'src': '/static/foodstim60/mac & cheese.jpg', 'key': 'u', 'origWidth': 410, 'origHeight': 410, 'width': 410, 'height': 410, 'widthPercent': 0.45, 'rescaleHeight': False, 'trialN': 56, 'loaded': True, 'loadedTime': 10227.799999952316, 'positionName': 'LEFT', 'positionCoords': [245.68, 179], 'bid': 9.26}, {'imgObject': {}, 'id': 'apple slices', 'src': '/static/foodstim60/apple slices.jpg', 'key': 'i', 'origWidth': 409, 'origHeight': 410, 'width': 409, 'height': 410, 'widthPercent': 0.45, 'rescaleHeight': False, 'trialN': 56, 'loaded': True, 'loadedTime': 8300.599999904633, 'positionName': 'RIGHT', 'positionCoords': [710.32, 179], 'bid': 9.24}]",132304.5,1669839948319,mac & cheese,apple slices,9.26,9.24,-0.019999999999999574,apple slices,1196.8999998569489,1202,1201.6999998092651,True,i,134011.79999995232,1707.2999999523163,1669839950027,1708,HRV,HRV_0280,2022-11-30 20:30:36
57,"[{'imgObject': {}, 'id': 'cherry tomato', 'src': '/static/foodstim60/cherry tomato.jpg', 'key': 'u', 'origWidth': 410, 'origHeight': 410, 'width': 410, 'height': 410, 'widthPercent': 0.45, 'rescaleHeight': False, 'trialN': 57, 'loaded': True, 'loadedTime': 9555.099999904633, 'positionName': 'LEFT', 'positionCoords': [245.68, 179], 'bid': 8.07}, {'imgObject': {}, 'id': 'hotdog w must', 'src': '/static/foodstim60/hotdog w must.jpg', 'key': 'i', 'origWidth': 409, 'origHeight': 409, 'width': 409, 'height': 409, 'widthPercent': 0.45, 'rescaleHeight': False, 'trialN': 57, 'loaded': True, 'loadedTime': 8218.199999809265, 'positionName': 'RIGHT', 'positionCoords': [710.32, 179.5], 'bid': 9.53}]",134012.29999995232,1669839950027,cherry tomato,hotdog w must,8.07,9.53,1.459999999999999,hotdog w must,1737.5999999046326,1743,1742.7999999523163,True,i,136268.59999990463,2256.2999999523163,1669839952283,2256,HRV,HRV_0280,2022-11-30 20:30:36
58,"[{'imgObject': {}, 'id': 'mashed potato', 'src': '/static/foodstim60/mashed potato.jpg', 'key': 'u', 'origWidth': 409, 'origHeight': 409, 'width': 409, 'height': 409, 'widthPercent': 0.45, 'rescaleHeight': False, 'trialN': 58, 'loaded': True, 'loadedTime': 8396.799999952316, 'positionName': 'LEFT', 'positionCoords': [246.68, 179.5], 'bid': 6.65}, {'imgObject': {}, 'id': 'salmon', 'src': '/static/foodstim60/salmon.jpg', 'key': 'i', 'origWidth': 410, 'origHeight': 409, 'width': 410, 'height': 409, 'widthPercent': 0.45, 'rescaleHeight': False, 'trialN': 58, 'loaded': True, 'loadedTime': 10525.799999952316, 'positionName': 'RIGHT', 'positionCoords': [710.32, 179.5], 'bid': 8.93}]",136269.79999995232,1669839952285,mashed potato,salmon,6.65,8.93,2.2799999999999994,mashed potato,1411.7000000476837,1421,1420.8999998569489,True,u,138193.39999985695,1923.5999999046326,1669839954208,1923,HRV,HRV_0280,2022-11-30 20:30:36
59,"[{'imgObject': {}, 'id': 'banana', 'src': '/static/foodstim60/banana.jpg', 'key': 'u', 'origWidth': 410, 'origHeight': 410, 'width': 410, 'height': 410, 'widthPercent': 0.45, 'rescaleHeight': False, 'trialN': 59, 'loaded': True, 'loadedTime': 10531.699999809265, 'positionName': 'LEFT', 'positionCoords': [245.68, 179], 'bid': 9.31}, {'imgObject': {}, 'id': 'strawberries', 'src': '/static/foodstim60/strawberries.jpg', 'key': 'i', 'origWidth': 410, 'origHeight': 410, 'width': 410, 'height': 410, 'widthPercent': 0.45, 'rescaleHeight': False, 'trialN': 59, 'loaded': True, 'loadedTime': 9791.5, 'positionName': 'RIGHT', 'positionCoords': [710.32, 179], 'bid': 9.96}]",138195.29999995232,1669839954210,banana,strawberries,9.31,9.96,0.6500000000000004,strawberries,1618.3999998569489,1624,1623.7999999523163,True,i,140319.89999985695,2124.5999999046326,1669839956335,2125,HRV,HRV_0280,2022-11-30 20:30:36
60,"[{'imgObject': {}, 'id': 'burger', 'src': '/static/foodstim60/burger.jpg', 'key': 'u', 'origWidth': 409, 'origHeight': 409, 'width': 409, 'height': 409, 'widthPercent': 0.45, 'rescaleHeight': False, 'trialN': 60, 'loaded': True, 'loadedTime': 10219.299999952316, 'positionName': 'LEFT', 'positionCoords': [246.68, 179.5], 'bid': 9.87}, {'imgObject': {}, 'id': 'chicken nuggets2', 'src': '/static/foodstim60/chicken nuggets2.jpg', 'key': 'i', 'origWidth': 410, 'origHeight': 409, 'width': 410, 'height': 409, 'widthPercent': 0.45, 'rescaleHeight': False, 'trialN': 60, 'loaded': True, 'loadedTime': 7738.299999952316, 'positionName': 'RIGHT', 'positionCoords': [710.32, 179.5], 'bid': 9.86}]",140320.29999995232,1669839956335,burger,chicken nuggets2,9.87,9.86,-0.009999999999999787,burger,1296,1298,1298.0999999046326,True,u,142120.29999995232,1800.0,1669839958135,1800,HRV,HRV_0280,2022-11-30 20:30:36
61,"[{'imgObject': {}, 'id': 'granola w milk', 'src': '/static/foodstim60/granola w milk.jpg', 'key': 'u', 'origWidth': 410, 'origHeight': 410, 'width': 410, 'height': 410, 'widthPercent': 0.45, 'rescaleHeight': False, 'trialN': 61, 'loaded': True, 'loadedTime': 10560.199999809265, 'positionName': 'LEFT', 'positionCoords': [245.68, 179], 'bid': 5.65}, {'imgObject': {}, 'id': 'Tribe humus pita', 'src': '/static/foodstim60/Tribe humus pita.jpg', 'key': 'i', 'origWidth': 411, 'origHeight': 411, 'width': 411, 'height': 411, 'widthPercent': 0.45, 'rescaleHeight': False, 'trialN': 61, 'loaded': True, 'loadedTime': 9073.399999856949, 'positionName': 'RIGHT', 'positionCoords': [710.32, 178.5], 'bid': 7.82}]",142120.59999990463,1669839958135,granola w milk,Tribe humus pita,5.65,7.82,2.17,Tribe humus pita,1715.9000000953674,1722,1721.7000000476837,True,i,144354.09999990463,2233.5,1669839960369,2234,HRV,HRV_0280,2022-11-30 20:30:36
62,"[{'imgObject': {}, 'id': 'Grapes', 'src': '/static/foodstim60/Grapes.jpg', 'key': 'u', 'origWidth': 411, 'origHeight': 411, 'width': 411, 'height': 411, 'widthPercent': 0.45, 'rescaleHeight': False, 'trialN': 62, 'loaded': True, 'loadedTime': 10208.799999952316, 'positionName': 'LEFT', 'positionCoords': [244.68, 178.5], 'bid': 9.33}, {'imgObject': {}, 'id': 'raspberries', 'src': '/static/foodstim60/raspberries.jpg', 'key': 'i', 'origWidth': 411, 'origHeight': 411, 'width': 411, 'height': 411, 'widthPercent': 0.45, 'rescaleHeight': False, 'trialN': 62, 'loaded': True, 'loadedTime': 8120.199999809265, 'positionName': 'RIGHT', 'positionCoords': [710.32, 178.5], 'bid': 9.31}]",144356.0,1669839960371,Grapes,raspberries,9.33,9.31,-0.019999999999999574,Grapes,1516.6999998092651,1527,1526.6999998092651,True,u,146389.79999995232,2033.7999999523163,1669839962405,2034,HRV,HRV_0280,2022-11-30 20:30:36
63,"[{'imgObject': {}, 'id': 'bagel and cc', 'src': '/static/foodstim60/bagel and cc.jpg', 'key': 'u', 'origWidth': 410, 'origHeight': 410, 'width': 410, 'height': 410, 'widthPercent': 0.45, 'rescaleHeight': False, 'trialN': 63, 'loaded': True, 'loadedTime': 10067, 'positionName': 'LEFT', 'positionCoords': [245.68, 179], 'bid': 8.07}, {'imgObject': {}, 'id': 'corn cob', 'src': '/static/foodstim60/corn cob.jpg', 'key': 'i', 'origWidth': 411, 'origHeight': 411, 'width': 411, 'height': 411, 'widthPercent': 0.45, 'rescaleHeight': False, 'trialN': 63, 'loaded': True, 'loadedTime': 9169.5, 'positionName': 'RIGHT', 'positionCoords': [710.32, 178.5], 'bid': 9.52}]",146390.79999995232,1669839962406,bagel and cc,corn cob,8.07,9.52,1.4499999999999993,corn cob,1307.3999998569489,1311,1311.7000000476837,True,i,148208.0,1817.2000000476837,1669839964223,1817,HRV,HRV_0280,2022-11-30 20:30:36
64,"[{'imgObject': {}, 'id': 'Tribe humus pita', 'src': '/static/foodstim60/Tribe humus pita.jpg', 'key': 'u', 'origWidth': 411, 'origHeight': 411, 'width': 411, 'height': 411, 'widthPercent': 0.45, 'rescaleHeight': False, 'trialN': 64, 'loaded': True, 'loadedTime': 9070.799999952316, 'positionName': 'LEFT', 'positionCoords': [244.68, 178.5], 'bid': 7.82}, {'imgObject': {}, 'id': 'veggieswithdip', 'src': '/static/foodstim60/veggieswithdip.jpg', 'key': 'i', 'origWidth': 409, 'origHeight': 409, 'width': 409, 'height': 409, 'widthPercent': 0.45, 'rescaleHeight': False, 'trialN': 64, 'loaded': True, 'loadedTime': 9898.899999856949, 'positionName': 'RIGHT', 'positionCoords': [710.32, 179.5], 'bid': 8.36}]",148208.39999985695,1669839964223,Tribe humus pita,veggieswithdip,7.82,8.36,0.5399999999999991,veggieswithdip,1126.7000000476837,1155,1154.9000000953674,True,i,149888.5,1680.1000001430511,1669839965903,1680,HRV,HRV_0280,2022-11-30 20:30:36
65,"[{'imgObject': {}, 'id': 'blackbeanswithrice', 'src': '/static/foodstim60/blackbeanswithrice.jpg', 'key': 'u', 'origWidth': 410, 'origHeight': 410, 'width': 410, 'height': 410, 'widthPercent': 0.45, 'rescaleHeight': False, 'trialN': 65, 'loaded': True, 'loadedTime': 10211.899999856949, 'positionName': 'LEFT', 'positionCoords': [245.68, 179], 'bid': 7}, {'imgObject': {}, 'id': 'chickenfingers', 'src': '/static/foodstim60/chickenfingers.jpg', 'key': 'i', 'origWidth': 410, 'origHeight': 410, 'width': 410, 'height': 410, 'widthPercent': 0.45, 'rescaleHeight': False, 'trialN': 65, 'loaded': True, 'loadedTime': 9875.899999856949, 'positionName': 'RIGHT', 'positionCoords': [710.32, 179], 'bid': 9.05}]",149889.19999980927,1669839965904,blackbeanswithrice,chickenfingers,7.0,9.05,2.0500000000000007,chickenfingers,1520.1000001430511,1525,1525.1000001430511,True,i,151931.0,2041.8000001907349,1669839967946,2042,HRV,HRV_0280,2022-11-30 20:30:36
66,"[{'imgObject': {}, 'id': 'cheerios', 'src': '/static/foodstim60/cheerios.jpg', 'key': 'u', 'origWidth': 409, 'origHeight': 410, 'width': 409, 'height': 410, 'widthPercent': 0.45, 'rescaleHeight': False, 'trialN': 66, 'loaded': True, 'loadedTime': 10547.599999904633, 'positionName': 'LEFT', 'positionCoords': [246.68, 179], 'bid': 8.32}, {'imgObject': {}, 'id': 'rigatoni', 'src': '/static/foodstim60/rigatoni.jpg', 'key': 'i', 'origWidth': 411, 'origHeight': 411, 'width': 411, 'height': 411, 'widthPercent': 0.45, 'rescaleHeight': False, 'trialN': 66, 'loaded': True, 'loadedTime': 9725.399999856949, 'positionName': 'RIGHT', 'positionCoords': [710.32, 178.5], 'bid': 8.51}]",151931.5,1669839967946,cheerios,rigatoni,8.32,8.51,0.1899999999999995,rigatoni,1158.8999998569489,1164,1163.1999998092651,True,i,153606.29999995232,1674.7999999523163,1669839969621,1675,HRV,HRV_0280,2022-11-30 20:30:36
67,"[{'imgObject': {}, 'id': 'raspberries', 'src': '/static/foodstim60/raspberries.jpg', 'key': 'u', 'origWidth': 411, 'origHeight': 411, 'width': 411, 'height': 411, 'widthPercent': 0.45, 'rescaleHeight': False, 'trialN': 67, 'loaded': True, 'loadedTime': 8124.799999952316, 'positionName': 'LEFT', 'positionCoords': [244.68, 178.5], 'bid': 9.31}, {'imgObject': {}, 'id': 'chicken nuggets2', 'src': '/static/foodstim60/chicken nuggets2.jpg', 'key': 'i', 'origWidth': 410, 'origHeight': 409, 'width': 410, 'height': 409, 'widthPercent': 0.45, 'rescaleHeight': False, 'trialN': 67, 'loaded': True, 'loadedTime': 7727.799999952316, 'positionName': 'RIGHT', 'positionCoords': [710.32, 179.5], 'bid': 9.86}]",153608.09999990463,1669839969623,raspberries,chicken nuggets2,9.31,9.86,0.5499999999999989,chicken nuggets2,1492.2999999523163,1497,1497.0999999046326,True,i,155610.89999985695,2002.7999999523163,1669839971626,2003,HRV,HRV_0280,2022-11-30 20:30:36
68,"[{'imgObject': {}, 'id': 'apple slices', 'src': '/static/foodstim60/apple slices.jpg', 'key': 'u', 'origWidth': 409, 'origHeight': 410, 'width': 409, 'height': 410, 'widthPercent': 0.45, 'rescaleHeight': False, 'trialN': 68, 'loaded': True, 'loadedTime': 8303, 'positionName': 'LEFT', 'positionCoords': [246.68, 179], 'bid': 9.24}, {'imgObject': {}, 'id': 'tacos', 'src': '/static/foodstim60/tacos.jpg', 'key': 'i', 'origWidth': 411, 'origHeight': 411, 'width': 411, 'height': 411, 'widthPercent': 0.45, 'rescaleHeight': False, 'trialN': 68, 'loaded': True, 'loadedTime': 8878.699999809265, 'positionName': 'RIGHT', 'positionCoords': [710.32, 178.5], 'bid': 8.99}]",155612.29999995232,1669839971627,apple slices,tacos,9.24,8.99,-0.25,tacos,17.09999990463257,22,21.899999856948853,True,i,156136.59999990463,524.2999999523163,1669839972152,525,HRV,HRV_0280,2022-11-30 20:30:36
69,"[{'imgObject': {}, 'id': 'steak', 'src': '/static/foodstim60/steak.jpg', 'key': 'u', 'origWidth': 410, 'origHeight': 410, 'width': 410, 'height': 410, 'widthPercent': 0.45, 'rescaleHeight': False, 'trialN': 69, 'loaded': True, 'loadedTime': 10552.099999904633, 'positionName': 'LEFT', 'positionCoords': [245.68, 179], 'bid': 9.33}, {'imgObject': {}, 'id': 'turkeysandwich', 'src': '/static/foodstim60/turkeysandwich.jpg', 'key': 'i', 'origWidth': 409, 'origHeight': 409, 'width': 409, 'height': 409, 'widthPercent': 0.45, 'rescaleHeight': False, 'trialN': 69, 'loaded': True, 'loadedTime': 9704.899999856949, 'positionName': 'RIGHT', 'positionCoords': [710.32, 179.5], 'bid': 9.39}]",156137.0,1669839972152,steak,turkeysandwich,9.33,9.39,0.0600000000000005,turkeysandwich,1351.1999998092651,1353,1352.7999999523163,True,i,157996.0,1859.0,1669839974011,1859,HRV,HRV_0280,2022-11-30 20:30:36
70,"[{'imgObject': {}, 'id': 'cantaloupe', 'src': '/static/foodstim60/cantaloupe.jpg', 'key': 'u', 'origWidth': 409, 'origHeight': 409, 'width': 409, 'height': 409, 'widthPercent': 0.45, 'rescaleHeight': False, 'trialN': 70, 'loaded': True, 'loadedTime': 10077.799999952316, 'positionName': 'LEFT', 'positionCoords': [246.68, 179.5], 'bid': 9.45}, {'imgObject': {}, 'id': 'mango', 'src': '/static/foodstim60/mango.jpg', 'key': 'i', 'origWidth': 411, 'origHeight': 411, 'width': 411, 'height': 411, 'widthPercent': 0.45, 'rescaleHeight': False, 'trialN': 70, 'loaded': True, 'loadedTime': 9170.099999904633, 'positionName': 'RIGHT', 'positionCoords': [710.32, 178.5], 'bid': 10}]",157996.29999995232,1669839974011,cantaloupe,mango,9.45,10.0,0.5500000000000007,mango,1198.5999999046326,1201,1201.3999998569489,True,i,159733.0,1736.7000000476837,1669839975748,1737,HRV,HRV_0280,2022-11-30 20:30:36
71,"[{'imgObject': {}, 'id': 'mashed potato', 'src': '/static/foodstim60/mashed potato.jpg', 'key': 'u', 'origWidth': 409, 'origHeight': 409, 'width': 409, 'height': 409, 'widthPercent': 0.45, 'rescaleHeight': False, 'trialN': 71, 'loaded': True, 'loadedTime': 8395.899999856949, 'positionName': 'LEFT', 'positionCoords': [246.68, 179.5], 'bid': 6.65}, {'imgObject': {}, 'id': 'granola w milk', 'src': '/static/foodstim60/granola w milk.jpg', 'key': 'i', 'origWidth': 410, 'origHeight': 410, 'width': 410, 'height': 410, 'widthPercent': 0.45, 'rescaleHeight': False, 'trialN': 71, 'loaded': True, 'loadedTime': 10560.699999809265, 'positionName': 'RIGHT', 'positionCoords': [710.32, 179], 'bid': 5.65}]",159733.29999995232,1669839975748,mashed potato,granola w milk,6.65,5.65,-1.0,mashed potato,1164.8999998569489,1167,1167.3999998569489,True,u,161416.0,1682.7000000476837,1669839977431,1683,HRV,HRV_0280,2022-11-30 20:30:36
72,"[{'imgObject': {}, 'id': 'cantaloupe', 'src': '/static/foodstim60/cantaloupe.jpg', 'key': 'u', 'origWidth': 409, 'origHeight': 409, 'width': 409, 'height': 409, 'widthPercent': 0.45, 'rescaleHeight': False, 'trialN': 72, 'loaded': True, 'loadedTime': 10082.599999904633, 'positionName': 'LEFT', 'positionCoords': [246.68, 179.5], 'bid': 9.45}, {'imgObject': {}, 'id': 'turkey sandwich', 'src': '/static/foodstim60/turkey sandwich.jpg', 'key': 'i', 'origWidth': 409, 'origHeight': 409, 'width': 409, 'height': 409, 'widthPercent': 0.45, 'rescaleHeight': False, 'trialN': 72, 'loaded': True, 'loadedTime': 9317.899999856949, 'positionName': 'RIGHT', 'positionCoords': [710.32, 179.5], 'bid': 9.42}]",161416.5,1669839977431,cantaloupe,turkey sandwich,9.45,9.42,-0.02999999999999936,turkey sandwich,1330.5999999046326,1337,1337.1999998092651,True,i,163260.59999990463,1844.0999999046326,1669839979275,1844,HRV,HRV_0280,2022-11-30 20:30:36
73,"[{'imgObject': {}, 'id': 'baked potato', 'src': '/static/foodstim60/baked potato.jpg', 'key': 'u', 'origWidth': 409, 'origHeight': 410, 'width': 409, 'height': 410, 'widthPercent': 0.45, 'rescaleHeight': False, 'trialN': 73, 'loaded': True, 'loadedTime': 7902.899999856949, 'positionName': 'LEFT', 'positionCoords': [246.68, 179], 'bid': 9.24}, {'imgObject': {}, 'id': 'raspberries', 'src': '/static/foodstim60/raspberries.jpg', 'key': 'i', 'origWidth': 411, 'origHeight': 411, 'width': 411, 'height': 411, 'widthPercent': 0.45, 'rescaleHeight': False, 'trialN': 73, 'loaded': True, 'loadedTime': 8125.599999904633, 'positionName': 'RIGHT', 'positionCoords': [710.32, 178.5], 'bid': 9.31}]",163262.5,1669839979277,baked potato,raspberries,9.24,9.31,0.07000000000000028,baked potato,1116.3999998569489,1118,1118.1999998092651,True,u,164894.0,1631.5,1669839980910,1633,HRV,HRV_0280,2022-11-30 20:30:36
74,"[{'imgObject': {}, 'id': 'sweetpotato', 'src': '/static/foodstim60/sweetpotato.jpg', 'key': 'u', 'origWidth': 410, 'origHeight': 410, 'width': 410, 'height': 410, 'widthPercent': 0.45, 'rescaleHeight': False, 'trialN': 74, 'loaded': True, 'loadedTime': 9890.599999904633, 'positionName': 'LEFT', 'positionCoords': [245.68, 179], 'bid': 9.17}, {'imgObject': {}, 'id': 'turkeysandwich', 'src': '/static/foodstim60/turkeysandwich.jpg', 'key': 'i', 'origWidth': 409, 'origHeight': 409, 'width': 409, 'height': 409, 'widthPercent': 0.45, 'rescaleHeight': False, 'trialN': 74, 'loaded': True, 'loadedTime': 9706, 'positionName': 'RIGHT', 'positionCoords': [710.32, 179.5], 'bid': 9.39}]",164896.0,1669839980911,sweetpotato,turkeysandwich,9.17,9.39,0.22000000000000064,turkeysandwich,1244.2999999523163,1248,1248.5,True,i,166660.59999990463,1764.5999999046326,1669839982675,1764,HRV,HRV_0280,2022-11-30 20:30:36
75,"[{'imgObject': {}, 'id': 'turkey sandwich', 'src': '/static/foodstim60/turkey sandwich.jpg', 'key': 'u', 'origWidth': 409, 'origHeight': 409, 'width': 409, 'height': 409, 'widthPercent': 0.45, 'rescaleHeight': False, 'trialN': 75, 'loaded': True, 'loadedTime': 9306.699999809265, 'positionName': 'LEFT', 'positionCoords': [246.68, 179.5], 'bid': 9.42}, {'imgObject': {}, 'id': 'strawberries', 'src': '/static/foodstim60/strawberries.jpg', 'key': 'i', 'origWidth': 410, 'origHeight': 410, 'width': 410, 'height': 410, 'widthPercent': 0.45, 'rescaleHeight': False, 'trialN': 75, 'loaded': True, 'loadedTime': 9735.299999952316, 'positionName': 'RIGHT', 'positionCoords': [710.32, 179], 'bid': 9.96}]",166663.09999990463,1669839982678,turkey sandwich,strawberries,9.42,9.96,0.5400000000000009,strawberries,1313.0999999046326,1322,1322.5999999046326,True,i,168495.5,1832.4000000953674,1669839984510,1832,HRV,HRV_0280,2022-11-30 20:30:36
76,"[{'imgObject': {}, 'id': 'baked potato', 'src': '/static/foodstim60/baked potato.jpg', 'key': 'u', 'origWidth': 409, 'origHeight': 410, 'width': 409, 'height': 410, 'widthPercent': 0.45, 'rescaleHeight': False, 'trialN': 76, 'loaded': True, 'loadedTime': 7898.299999952316, 'positionName': 'LEFT', 'positionCoords': [246.68, 179], 'bid': 9.24}, {'imgObject': {}, 'id': 'salmon', 'src': '/static/foodstim60/salmon.jpg', 'key': 'i', 'origWidth': 410, 'origHeight': 409, 'width': 410, 'height': 409, 'widthPercent': 0.45, 'rescaleHeight': False, 'trialN': 76, 'loaded': True, 'loadedTime': 10514.199999809265, 'positionName': 'RIGHT', 'positionCoords': [710.32, 179.5], 'bid': 8.93}]",168495.69999980927,1669839984510,baked potato,salmon,9.24,8.93,-0.3100000000000005,salmon,2020,2023,2022.6000001430511,True,i,171027.5,2531.800000190735,1669839987042,2532,HRV,HRV_0280,2022-11-30 20:30:36
77,"[{'imgObject': {}, 'id': 'cherries', 'src': '/static/foodstim60/cherries.jpg', 'key': 'u', 'origWidth': 410, 'origHeight': 411, 'width': 410, 'height': 411, 'widthPercent': 0.45, 'rescaleHeight': False, 'trialN': 77, 'loaded': True, 'loadedTime': 8127.299999952316, 'positionName': 'LEFT', 'positionCoords': [245.68, 178.5], 'bid': 9.69}, {'imgObject': {}, 'id': 'veggieswithdip', 'src': '/static/foodstim60/veggieswithdip.jpg', 'key': 'i', 'origWidth': 409, 'origHeight': 409, 'width': 409, 'height': 409, 'widthPercent': 0.45, 'rescaleHeight': False, 'trialN': 77, 'loaded': True, 'loadedTime': 9898.399999856949, 'positionName': 'RIGHT', 'positionCoords': [710.32, 179.5], 'bid': 8.36}]",171029.0,1669839987044,cherries,veggieswithdip,9.69,8.36,-1.33,veggieswithdip,1320.5999999046326,1323,1323.0999999046326,True,i,172859.89999985695,1830.8999998569489,1669839988875,1831,HRV,HRV_0280,2022-11-30 20:30:36
78,"[{'imgObject': {}, 'id': 'hotdog w must', 'src': '/static/foodstim60/hotdog w must.jpg', 'key': 'u', 'origWidth': 409, 'origHeight': 409, 'width': 409, 'height': 409, 'widthPercent': 0.45, 'rescaleHeight': False, 'trialN': 78, 'loaded': True, 'loadedTime': 8300, 'positionName': 'LEFT', 'positionCoords': [246.68, 179.5], 'bid': 9.53}, {'imgObject': {}, 'id': 'kiwi', 'src': '/static/foodstim60/kiwi.jpg', 'key': 'i', 'origWidth': 410, 'origHeight': 410, 'width': 410, 'height': 410, 'widthPercent': 0.45, 'rescaleHeight': False, 'trialN': 78, 'loaded': True, 'loadedTime': 8683.399999856949, 'positionName': 'RIGHT', 'positionCoords': [710.32, 179], 'bid': 10}]",172860.5,1669839988875,hotdog w must,kiwi,9.53,10.0,0.47000000000000064,kiwi,1131.3999998569489,1136,1135.5999999046326,True,i,174503.5,1643.0,1669839990518,1643,HRV,HRV_0280,2022-11-30 20:30:36
79,"[{'imgObject': {}, 'id': 'edamame', 'src': '/static/foodstim60/edamame.jpg', 'key': 'u', 'origWidth': 409, 'origHeight': 410, 'width': 409, 'height': 410, 'widthPercent': 0.45, 'rescaleHeight': False, 'trialN': 79, 'loaded': True, 'loadedTime': 10110.899999856949, 'positionName': 'LEFT', 'positionCoords': [246.68, 179], 'bid': 5.3}, {'imgObject': {}, 'id': 'seaweed', 'src': '/static/foodstim60/seaweed.jpg', 'key': 'i', 'origWidth': 410, 'origHeight': 410, 'width': 410, 'height': 410, 'widthPercent': 0.45, 'rescaleHeight': False, 'trialN': 79, 'loaded': True, 'loadedTime': 8979.199999809265, 'positionName': 'RIGHT', 'positionCoords': [710.32, 179], 'bid': 5.04}]",174503.79999995232,1669839990518,edamame,seaweed,5.3,5.04,-0.2599999999999998,edamame,2192.899999856949,2202,2201.5,True,u,177211.0,2707.2000000476837,1669839993226,2708,HRV,HRV_0280,2022-11-30 20:30:36
80,"[{'imgObject': {}, 'id': 'mashed potato', 'src': '/static/foodstim60/mashed potato.jpg', 'key': 'u', 'origWidth': 409, 'origHeight': 409, 'width': 409, 'height': 409, 'widthPercent': 0.45, 'rescaleHeight': False, 'trialN': 80, 'loaded': True, 'loadedTime': 8390.899999856949, 'positionName': 'LEFT', 'positionCoords': [246.68, 179.5], 'bid': 6.65}, {'imgObject': {}, 'id': 'banana', 'src': '/static/foodstim60/banana.jpg', 'key': 'i', 'origWidth': 410, 'origHeight': 410, 'width': 410, 'height': 410, 'widthPercent': 0.45, 'rescaleHeight': False, 'trialN': 80, 'loaded': True, 'loadedTime': 10527.899999856949, 'positionName': 'RIGHT', 'positionCoords': [710.32, 179], 'bid': 9.31}]",177212.89999985695,1669839993228,mashed potato,banana,6.65,9.31,2.66,banana,1275.5,1280,1280.6000001430511,True,i,179013.29999995232,1800.4000000953674,1669839995028,1800,HRV,HRV_0280,2022-11-30 20:30:36
81,"[{'imgObject': {}, 'id': 'salad w chicken', 'src': '/static/foodstim60/salad w chicken.jpg', 'key': 'u', 'origWidth': 411, 'origHeight': 411, 'width': 411, 'height': 411, 'widthPercent': 0.45, 'rescaleHeight': False, 'trialN': 81, 'loaded': True, 'loadedTime': 9955.799999952316, 'positionName': 'LEFT', 'positionCoords': [244.68, 178.5], 'bid': 10}, {'imgObject': {}, 'id': 'kiwi', 'src': '/static/foodstim60/kiwi.jpg', 'key': 'i', 'origWidth': 410, 'origHeight': 410, 'width': 410, 'height': 410, 'widthPercent': 0.45, 'rescaleHeight': False, 'trialN': 81, 'loaded': True, 'loadedTime': 8597.199999809265, 'positionName': 'RIGHT', 'positionCoords': [710.32, 179], 'bid': 10}]",179014.19999980927,1669839995029,salad w chicken,kiwi,10.0,10.0,0.0,salad w chicken,1325.6000001430511,1331,1331.1000001430511,True,u,180848.19999980927,1834.0,1669839996863,1834,HRV,HRV_0280,2022-11-30 20:30:36
82,"[{'imgObject': {}, 'id': 'fruitsalad', 'src': '/static/foodstim60/fruitsalad.jpg', 'key': 'u', 'origWidth': 410, 'origHeight': 410, 'width': 410, 'height': 410, 'widthPercent': 0.45, 'rescaleHeight': False, 'trialN': 82, 'loaded': True, 'loadedTime': 8593.699999809265, 'positionName': 'LEFT', 'positionCoords': [245.68, 179], 'bid': 9.86}, {'imgObject': {}, 'id': 'Grapes', 'src': '/static/foodstim60/Grapes.jpg', 'key': 'i', 'origWidth': 411, 'origHeight': 411, 'width': 411, 'height': 411, 'widthPercent': 0.45, 'rescaleHeight': False, 'trialN': 82, 'loaded': True, 'loadedTime': 10205.399999856949, 'positionName': 'RIGHT', 'positionCoords': [710.32, 178.5], 'bid': 9.33}]",180848.5,1669839996863,fruitsalad,Grapes,9.86,9.33,-0.5299999999999994,fruitsalad,1584.0999999046326,1587,1586.5999999046326,True,u,182936.0,2087.5,1669839998951,2088,HRV,HRV_0280,2022-11-30 20:30:36
83,"[{'imgObject': {}, 'id': 'cheerios', 'src': '/static/foodstim60/cheerios.jpg', 'key': 'u', 'origWidth': 409, 'origHeight': 410, 'width': 409, 'height': 410, 'widthPercent': 0.45, 'rescaleHeight': False, 'trialN': 83, 'loaded': True, 'loadedTime': 10534.699999809265, 'positionName': 'LEFT', 'positionCoords': [246.68, 179], 'bid': 8.32}, {'imgObject': {}, 'id': 'sweetpotato', 'src': '/static/foodstim60/sweetpotato.jpg', 'key': 'i', 'origWidth': 410, 'origHeight': 410, 'width': 410, 'height': 410, 'widthPercent': 0.45, 'rescaleHeight': False, 'trialN': 83, 'loaded': True, 'loadedTime': 9885, 'positionName': 'RIGHT', 'positionCoords': [710.32, 179], 'bid': 9.17}]",182936.29999995232,1669839998951,cheerios,sweetpotato,8.32,9.17,0.8499999999999996,sweetpotato,1899.3999998569489,1901,1900.7000000476837,True,i,185344.19999980927,2407.899999856949,1669840001359,2408,HRV,HRV_0280,2022-11-30 20:30:36
84,"[{'imgObject': {}, 'id': 'rigatoni and sauce', 'src': '/static/foodstim60/rigatoni and sauce.jpg', 'key': 'u', 'origWidth': 410, 'origHeight': 411, 'width': 410, 'height': 411, 'widthPercent': 0.45, 'rescaleHeight': False, 'trialN': 84, 'loaded': True, 'loadedTime': 9179.699999809265, 'positionName': 'LEFT', 'positionCoords': [245.68, 178.5], 'bid': 9.21}, {'imgObject': {}, 'id': 'grilled chicken strips', 'src': '/static/foodstim60/grilled chicken strips.jpg', 'key': 'i', 'origWidth': 410, 'origHeight': 411, 'width': 410, 'height': 411, 'widthPercent': 0.45, 'rescaleHeight': False, 'trialN': 84, 'loaded': True, 'loadedTime': 9799.599999904633, 'positionName': 'RIGHT', 'positionCoords': [710.32, 178.5], 'bid': 9.18}]",185344.39999985695,1669840001359,rigatoni and sauce,grilled chicken strips,9.21,9.18,-0.030000000000001137,rigatoni and sauce,2045.4000000953674,2050,2049.7999999523163,True,u,187918.59999990463,2574.2000000476837,1669840003933,2574,HRV,HRV_0280,2022-11-30 20:30:36
85,"[{'imgObject': {}, 'id': 'cocktailshrimp', 'src': '/static/foodstim60/cocktailshrimp.jpg', 'key': 'u', 'origWidth': 410, 'origHeight': 410, 'width': 410, 'height': 410, 'widthPercent': 0.45, 'rescaleHeight': False, 'trialN': 85, 'loaded': True, 'loadedTime': 9498.799999952316, 'positionName': 'LEFT', 'positionCoords': [245.68, 179], 'bid': 9.61}, {'imgObject': {}, 'id': 'cheerios', 'src': '/static/foodstim60/cheerios.jpg', 'key': 'i', 'origWidth': 409, 'origHeight': 410, 'width': 409, 'height': 410, 'widthPercent': 0.45, 'rescaleHeight': False, 'trialN': 85, 'loaded': True, 'loadedTime': 10545.599999904633, 'positionName': 'RIGHT', 'positionCoords': [710.32, 179], 'bid': 8.32}]",187919.29999995232,1669840003934,cocktailshrimp,cheerios,9.61,8.32,-1.2899999999999991,cocktailshrimp,1310.5999999046326,1315,1315.0999999046326,True,u,189743.89999985695,1824.5999999046326,1669840005759,1825,HRV,HRV_0280,2022-11-30 20:30:36
86,"[{'imgObject': {}, 'id': 'cherry tomato', 'src': '/static/foodstim60/cherry tomato.jpg', 'key': 'u', 'origWidth': 410, 'origHeight': 410, 'width': 410, 'height': 410, 'widthPercent': 0.45, 'rescaleHeight': False, 'trialN': 86, 'loaded': True, 'loadedTime': 9553.899999856949, 'positionName': 'LEFT', 'positionCoords': [245.68, 179], 'bid': 8.07}, {'imgObject': {}, 'id': 'blackbeanswithrice', 'src': '/static/foodstim60/blackbeanswithrice.jpg', 'key': 'i', 'origWidth': 410, 'origHeight': 410, 'width': 410, 'height': 410, 'widthPercent': 0.45, 'rescaleHeight': False, 'trialN': 86, 'loaded': True, 'loadedTime': 10214.299999952316, 'positionName': 'RIGHT', 'positionCoords': [710.32, 179], 'bid': 7}]",189744.89999985695,1669840005760,cherry tomato,blackbeanswithrice,8.07,7.0,-1.0700000000000003,cherry tomato,1964.2999999523163,1967,1967.7000000476837,True,u,192216.79999995232,2471.9000000953674,1669840008232,2472,HRV,HRV_0280,2022-11-30 20:30:36
87,"[{'imgObject': {}, 'id': 'tacos', 'src': '/static/foodstim60/tacos.jpg', 'key': 'u', 'origWidth': 411, 'origHeight': 411, 'width': 411, 'height': 411, 'widthPercent': 0.45, 'rescaleHeight': False, 'trialN': 87, 'loaded': True, 'loadedTime': 8777.199999809265, 'positionName': 'LEFT', 'positionCoords': [244.68, 178.5], 'bid': 8.99}, {'imgObject': {}, 'id': 'salmon', 'src': '/static/foodstim60/salmon.jpg', 'key': 'i', 'origWidth': 410, 'origHeight': 409, 'width': 410, 'height': 409, 'widthPercent': 0.45, 'rescaleHeight': False, 'trialN': 87, 'loaded': True, 'loadedTime': 10517.5, 'positionName': 'RIGHT', 'positionCoords': [710.32, 179.5], 'bid': 8.93}]",192217.0,1669840008232,tacos,salmon,8.99,8.93,-0.0600000000000005,tacos,1822.6999998092651,1824,1824.3999998569489,True,u,194579.79999995232,2362.7999999523163,1669840010594,2362,HRV,HRV_0280,2022-11-30 20:30:36
88,"[{'imgObject': {}, 'id': 'turkey sandwich', 'src': '/static/foodstim60/turkey sandwich.jpg', 'key': 'u', 'origWidth': 409, 'origHeight': 409, 'width': 409, 'height': 409, 'widthPercent': 0.45, 'rescaleHeight': False, 'trialN': 88, 'loaded': True, 'loadedTime': 9296.599999904633, 'positionName': 'LEFT', 'positionCoords': [246.68, 179.5], 'bid': 9.42}, {'imgObject': {}, 'id': 'steak', 'src': '/static/foodstim60/steak.jpg', 'key': 'i', 'origWidth': 410, 'origHeight': 410, 'width': 410, 'height': 410, 'widthPercent': 0.45, 'rescaleHeight': False, 'trialN': 88, 'loaded': True, 'loadedTime': 10553.5, 'positionName': 'RIGHT', 'positionCoords': [710.32, 179], 'bid': 9.33}]",194580.09999990463,1669840010595,turkey sandwich,steak,9.42,9.33,-0.08999999999999986,turkey sandwich,2028.5999999046326,2032,2031.7000000476837,True,u,197121.59999990463,2541.5,1669840013136,2541,HRV,HRV_0280,2022-11-30 20:30:36
89,"[{'imgObject': {}, 'id': 'bagel and cc', 'src': '/static/foodstim60/bagel and cc.jpg', 'key': 'u', 'origWidth': 410, 'origHeight': 410, 'width': 410, 'height': 410, 'widthPercent': 0.45, 'rescaleHeight': False, 'trialN': 89, 'loaded': True, 'loadedTime': 10068, 'positionName': 'LEFT', 'positionCoords': [245.68, 179], 'bid': 8.07}, {'imgObject': {}, 'id': 'froot loops w milk', 'src': '/static/foodstim60/froot loops w milk.jpg', 'key': 'i', 'origWidth': 410, 'origHeight': 410, 'width': 410, 'height': 410, 'widthPercent': 0.45, 'rescaleHeight': False, 'trialN': 89, 'loaded': True, 'loadedTime': 8055.799999952316, 'positionName': 'RIGHT', 'positionCoords': [710.32, 179], 'bid': 5.5200000000000005}]",197123.59999990463,1669840013138,bagel and cc,froot loops w milk,8.07,5.5200000000000005,-2.55,bagel and cc,1465.4000000953674,1474,1473.4000000953674,True,u,199111.89999985695,1988.2999999523163,1669840015127,1989,HRV,HRV_0280,2022-11-30 20:30:36
90,"[{'imgObject': {}, 'id': 'pear', 'src': '/static/foodstim60/pear.jpg', 'key': 'u', 'origWidth': 411, 'origHeight': 410, 'width': 411, 'height': 410, 'widthPercent': 0.45, 'rescaleHeight': False, 'trialN': 90, 'loaded': True, 'loadedTime': 9946.899999856949, 'positionName': 'LEFT', 'positionCoords': [244.68, 179], 'bid': 9.18}, {'imgObject': {}, 'id': 'blueberries', 'src': '/static/foodstim60/blueberries.jpg', 'key': 'i', 'origWidth': 411, 'origHeight': 411, 'width': 411, 'height': 411, 'widthPercent': 0.45, 'rescaleHeight': False, 'trialN': 90, 'loaded': True, 'loadedTime': 9425.199999809265, 'positionName': 'RIGHT', 'positionCoords': [710.32, 178.5], 'bid': 9.07}]",216601.0,1669840032616,pear,blueberries,9.18,9.07,-0.10999999999999943,pear,1302.0999999046326,1306,1306.2999999523163,True,u,218417.19999980927,1816.1999998092651,1669840034431,1815,HRV,HRV_0280,2022-11-30 20:30:36
91,"[{'imgObject': {}, 'id': 'shreddedwheatwithmilk', 'src': '/static/foodstim60/shreddedwheatwithmilk.jpg', 'key': 'u', 'origWidth': 410, 'origHeight': 410, 'width': 410, 'height': 410, 'widthPercent': 0.45, 'rescaleHeight': False, 'trialN': 91, 'loaded': True, 'loadedTime': 8973.199999809265, 'positionName': 'LEFT', 'positionCoords': [245.68, 179], 'bid': 6.8}, {'imgObject': {}, 'id': 'edamame', 'src': '/static/foodstim60/edamame.jpg', 'key': 'i', 'origWidth': 409, 'origHeight': 410, 'width': 409, 'height': 410, 'widthPercent': 0.45, 'rescaleHeight': False, 'trialN': 91, 'loaded': True, 'loadedTime': 10107, 'positionName': 'RIGHT', 'positionCoords': [710.32, 179], 'bid': 5.3}]",218419.09999990463,1669840034433,shreddedwheatwithmilk,edamame,6.8,5.3,-1.5,shreddedwheatwithmilk,1433.0999999046326,1437,1436.5999999046326,True,u,220366.79999995232,1947.7000000476837,1669840036381,1948,HRV,HRV_0280,2022-11-30 20:30:36
92,"[{'imgObject': {}, 'id': 'corn cob', 'src': '/static/foodstim60/corn cob.jpg', 'key': 'u', 'origWidth': 411, 'origHeight': 411, 'width': 411, 'height': 411, 'widthPercent': 0.45, 'rescaleHeight': False, 'trialN': 92, 'loaded': True, 'loadedTime': 9168.399999856949, 'positionName': 'LEFT', 'positionCoords': [244.68, 178.5], 'bid': 9.52}, {'imgObject': {}, 'id': 'hotdog w must', 'src': '/static/foodstim60/hotdog w must.jpg', 'key': 'i', 'origWidth': 409, 'origHeight': 409, 'width': 409, 'height': 409, 'widthPercent': 0.45, 'rescaleHeight': False, 'trialN': 92, 'loaded': True, 'loadedTime': 8298.799999952316, 'positionName': 'RIGHT', 'positionCoords': [710.32, 179.5], 'bid': 9.53}]",220368.59999990463,1669840036383,corn cob,hotdog w must,9.52,9.53,0.009999999999999787,corn cob,1662.2000000476837,1665,1665.2999999523163,True,u,222550.59999990463,2182.0,1669840038565,2182,HRV,HRV_0280,2022-11-30 20:30:36
93,"[{'imgObject': {}, 'id': 'popsicles', 'src': '/static/foodstim60/popsicles.jpg', 'key': 'u', 'origWidth': 410, 'origHeight': 410, 'width': 410, 'height': 410, 'widthPercent': 0.45, 'rescaleHeight': False, 'trialN': 93, 'loaded': True, 'loadedTime': 10565.799999952316, 'positionName': 'LEFT', 'positionCoords': [245.68, 179], 'bid': 5.93}, {'imgObject': {}, 'id': 'fried eggs', 'src': '/static/foodstim60/fried eggs.jpg', 'key': 'i', 'origWidth': 410, 'origHeight': 410, 'width': 410, 'height': 410, 'widthPercent': 0.45, 'rescaleHeight': False, 'trialN': 93, 'loaded': True, 'loadedTime': 9415, 'positionName': 'RIGHT', 'positionCoords': [710.32, 179], 'bid': 8.73}]",222552.5,1669840038567,popsicles,fried eggs,5.93,8.73,2.8000000000000007,fried eggs,1837.7999999523163,1841,1841.0,True,i,224900.89999985695,2348.399999856949,1669840040915,2348,HRV,HRV_0280,2022-11-30 20:30:36
94,"[{'imgObject': {}, 'id': 'grilled chicken strips', 'src': '/static/foodstim60/grilled chicken strips.jpg', 'key': 'u', 'origWidth': 410, 'origHeight': 411, 'width': 410, 'height': 411, 'widthPercent': 0.45, 'rescaleHeight': False, 'trialN': 94, 'loaded': True, 'loadedTime': 9797.299999952316, 'positionName': 'LEFT', 'positionCoords': [245.68, 178.5], 'bid': 9.18}, {'imgObject': {}, 'id': 'salmon', 'src': '/static/foodstim60/salmon.jpg', 'key': 'i', 'origWidth': 410, 'origHeight': 409, 'width': 410, 'height': 409, 'widthPercent': 0.45, 'rescaleHeight': False, 'trialN': 94, 'loaded': True, 'loadedTime': 10520.899999856949, 'positionName': 'RIGHT', 'positionCoords': [710.32, 179.5], 'bid': 8.93}]",224902.59999990463,1669840040917,grilled chicken strips,salmon,9.18,8.93,-0.25,grilled chicken strips,1903,1909,1908.9000000953674,True,u,227322.89999985695,2420.2999999523163,1669840043337,2420,HRV,HRV_0280,2022-11-30 20:30:36
95,"[{'imgObject': {}, 'id': 'hashbrowns', 'src': '/static/foodstim60/hashbrowns.jpg', 'key': 'u', 'origWidth': 411, 'origHeight': 410, 'width': 411, 'height': 410, 'widthPercent': 0.45, 'rescaleHeight': False, 'trialN': 95, 'loaded': True, 'loadedTime': 7994.299999952316, 'positionName': 'LEFT', 'positionCoords': [244.68, 179], 'bid': 5.79}, {'imgObject': {}, 'id': 'seaweed', 'src': '/static/foodstim60/seaweed.jpg', 'key': 'i', 'origWidth': 410, 'origHeight': 410, 'width': 410, 'height': 410, 'widthPercent': 0.45, 'rescaleHeight': False, 'trialN': 95, 'loaded': True, 'loadedTime': 8973.899999856949, 'positionName': 'RIGHT', 'positionCoords': [710.32, 179], 'bid': 5.04}]",227323.69999980927,1669840043338,hashbrowns,seaweed,5.79,5.04,-0.75,hashbrowns,1696.4000000953674,1701,1701.0,True,u,229535.39999985695,2211.7000000476837,1669840045550,2212,HRV,HRV_0280,2022-11-30 20:30:36
96,"[{'imgObject': {}, 'id': 'omelette', 'src': '/static/foodstim60/omelette.jpg', 'key': 'u', 'origWidth': 410, 'origHeight': 409, 'width': 410, 'height': 409, 'widthPercent': 0.45, 'rescaleHeight': False, 'trialN': 96, 'loaded': True, 'loadedTime': 10101.399999856949, 'positionName': 'LEFT', 'positionCoords': [245.68, 179.5], 'bid': 9.21}, {'imgObject': {}, 'id': 'chickenfingers', 'src': '/static/foodstim60/chickenfingers.jpg', 'key': 'i', 'origWidth': 410, 'origHeight': 410, 'width': 410, 'height': 410, 'widthPercent': 0.45, 'rescaleHeight': False, 'trialN': 96, 'loaded': True, 'loadedTime': 9883, 'positionName': 'RIGHT', 'positionCoords': [710.32, 179], 'bid': 9.05}]",229537.39999985695,1669840045552,omelette,chickenfingers,9.21,9.05,-0.16000000000000014,chickenfingers,2026.7000000476837,2030,2030.2000000476837,True,i,232084.79999995232,2547.4000000953674,1669840048099,2547,HRV,HRV_0280,2022-11-30 20:30:36
97,"[{'imgObject': {}, 'id': 'cocktailshrimp', 'src': '/static/foodstim60/cocktailshrimp.jpg', 'key': 'u', 'origWidth': 410, 'origHeight': 410, 'width': 410, 'height': 410, 'widthPercent': 0.45, 'rescaleHeight': False, 'trialN': 97, 'loaded': True, 'loadedTime': 9544.5, 'positionName': 'LEFT', 'positionCoords': [245.68, 179], 'bid': 9.61}, {'imgObject': {}, 'id': 'cherries', 'src': '/static/foodstim60/cherries.jpg', 'key': 'i', 'origWidth': 410, 'origHeight': 411, 'width': 410, 'height': 411, 'widthPercent': 0.45, 'rescaleHeight': False, 'trialN': 97, 'loaded': True, 'loadedTime': 8203, 'positionName': 'RIGHT', 'positionCoords': [710.32, 178.5], 'bid': 9.69}]",232086.69999980927,1669840048101,cocktailshrimp,cherries,9.61,9.69,0.08000000000000007,cocktailshrimp,1297.3000001907349,1302,1302.1000001430511,True,u,233900.69999980927,1814.0,1669840049915,1814,HRV,HRV_0280,2022-11-30 20:30:36
98,"[{'imgObject': {}, 'id': 'eggsalad', 'src': '/static/foodstim60/eggsalad.jpg', 'key': 'u', 'origWidth': 410, 'origHeight': 409, 'width': 410, 'height': 409, 'widthPercent': 0.45, 'rescaleHeight': False, 'trialN': 98, 'loaded': True, 'loadedTime': 10073.399999856949, 'positionName': 'LEFT', 'positionCoords': [245.68, 179.5], 'bid': 5.05}, {'imgObject': {}, 'id': 'froot loops w milk', 'src': '/static/foodstim60/froot loops w milk.jpg', 'key': 'i', 'origWidth': 410, 'origHeight': 410, 'width': 410, 'height': 410, 'widthPercent': 0.45, 'rescaleHeight': False, 'trialN': 98, 'loaded': True, 'loadedTime': 8063.599999904633, 'positionName': 'RIGHT', 'positionCoords': [710.32, 179], 'bid': 5.5200000000000005}]",233902.29999995232,1669840049917,eggsalad,froot loops w milk,5.05,5.5200000000000005,0.47000000000000064,eggsalad,1466.7999999523163,1472,1472.2999999523163,True,u,235884.79999995232,1982.5,1669840051899,1982,HRV,HRV_0280,2022-11-30 20:30:36
99,"[{'imgObject': {}, 'id': 'sweetpotato', 'src': '/static/foodstim60/sweetpotato.jpg', 'key': 'u', 'origWidth': 410, 'origHeight': 410, 'width': 410, 'height': 410, 'widthPercent': 0.45, 'rescaleHeight': False, 'trialN': 99, 'loaded': True, 'loadedTime': 9891.299999952316, 'positionName': 'LEFT', 'positionCoords': [245.68, 179], 'bid': 9.17}, {'imgObject': {}, 'id': 'pear', 'src': '/static/foodstim60/pear.jpg', 'key': 'i', 'origWidth': 411, 'origHeight': 410, 'width': 411, 'height': 410, 'widthPercent': 0.45, 'rescaleHeight': False, 'trialN': 99, 'loaded': True, 'loadedTime': 9950.899999856949, 'positionName': 'RIGHT', 'positionCoords': [710.32, 179], 'bid': 9.18}]",235886.59999990463,1669840051901,sweetpotato,pear,9.17,9.18,0.009999999999999787,pear,1451.4000000953674,1456,1455.7999999523163,True,i,237851.29999995232,1964.7000000476837,1669840053866,1965,HRV,HRV_0280,2022-11-30 20:30:36
100,"[{'imgObject': {}, 'id': 'mango', 'src': '/static/foodstim60/mango.jpg', 'key': 'u', 'origWidth': 411, 'origHeight': 411, 'width': 411, 'height': 411, 'widthPercent': 0.45, 'rescaleHeight': False, 'trialN': 100, 'loaded': True, 'loadedTime': 9173.299999952316, 'positionName': 'LEFT', 'positionCoords': [244.68, 178.5], 'bid': 10}, {'imgObject': {}, 'id': 'strawberries', 'src': '/static/foodstim60/strawberries.jpg', 'key': 'i', 'origWidth': 410, 'origHeight': 410, 'width': 410, 'height': 410, 'widthPercent': 0.45, 'rescaleHeight': False, 'trialN': 100, 'loaded': True, 'loadedTime': 9738.099999904633, 'positionName': 'RIGHT', 'positionCoords': [710.32, 179], 'bid': 9.96}]",237853.0,1669840053867,mango,strawberries,10.0,9.96,-0.03999999999999915,mango,2172.399999856949,2177,2176.7999999523163,True,u,240536.5,2683.5,1669840056551,2684,HRV,HRV_0280,2022-11-30 20:30:36
101,"[{'imgObject': {}, 'id': 'ice cream sundae 002', 'src': '/static/foodstim60/ice cream sundae 002.jpg', 'key': 'u', 'origWidth': 409, 'origHeight': 409, 'width': 409, 'height': 409, 'widthPercent': 0.45, 'rescaleHeight': False, 'trialN': 101, 'loaded': True, 'loadedTime': 9483.5, 'positionName': 'LEFT', 'positionCoords': [246.68, 179.5], 'bid': 7.19}, {'imgObject': {}, 'id': 'Tribe humus pita', 'src': '/static/foodstim60/Tribe humus pita.jpg', 'key': 'i', 'origWidth': 411, 'origHeight': 411, 'width': 411, 'height': 411, 'widthPercent': 0.45, 'rescaleHeight': False, 'trialN': 101, 'loaded': True, 'loadedTime': 9074.299999952316, 'positionName': 'RIGHT', 'positionCoords': [710.32, 178.5], 'bid': 7.82}]",240538.29999995232,1669840056553,ice cream sundae 002,Tribe humus pita,7.19,7.82,0.6299999999999999,Tribe humus pita,1837.2999999523163,1841,1841.7000000476837,True,i,242886.39999985695,2348.0999999046326,1669840058901,2348,HRV,HRV_0280,2022-11-30 20:30:36
102,"[{'imgObject': {}, 'id': 'steak', 'src': '/static/foodstim60/steak.jpg', 'key': 'u', 'origWidth': 410, 'origHeight': 410, 'width': 410, 'height': 410, 'widthPercent': 0.45, 'rescaleHeight': False, 'trialN': 102, 'loaded': True, 'loadedTime': 10553.899999856949, 'positionName': 'LEFT', 'positionCoords': [245.68, 179], 'bid': 9.33}, {'imgObject': {}, 'id': 'ice cream sundae 002', 'src': '/static/foodstim60/ice cream sundae 002.jpg', 'key': 'i', 'origWidth': 409, 'origHeight': 409, 'width': 409, 'height': 409, 'widthPercent': 0.45, 'rescaleHeight': False, 'trialN': 102, 'loaded': True, 'loadedTime': 9491.5, 'positionName': 'RIGHT', 'positionCoords': [710.32, 179.5], 'bid': 7.19}]",242887.09999990463,1669840058901,steak,ice cream sundae 002,9.33,7.19,-2.1399999999999997,steak,1325,1330,1329.2000000476837,True,u,244735.0,1847.9000000953674,1669840060749,1848,HRV,HRV_0280,2022-11-30 20:30:36
103,"[{'imgObject': {}, 'id': 'froot loops w milk', 'src': '/static/foodstim60/froot loops w milk.jpg', 'key': 'u', 'origWidth': 410, 'origHeight': 410, 'width': 410, 'height': 410, 'widthPercent': 0.45, 'rescaleHeight': False, 'trialN': 103, 'loaded': True, 'loadedTime': 8058.699999809265, 'positionName': 'LEFT', 'positionCoords': [245.68, 179], 'bid': 5.5200000000000005}, {'imgObject': {}, 'id': 'blackbeanswithrice', 'src': '/static/foodstim60/blackbeanswithrice.jpg', 'key': 'i', 'origWidth': 410, 'origHeight': 410, 'width': 410, 'height': 410, 'widthPercent': 0.45, 'rescaleHeight': False, 'trialN': 103, 'loaded': True, 'loadedTime': 10215.799999952316, 'positionName': 'RIGHT', 'positionCoords': [710.32, 179], 'bid': 7}]",244736.69999980927,1669840060751,froot loops w milk,blackbeanswithrice,5.5200000000000005,7.0,1.4799999999999995,blackbeanswithrice,1798.5,1803,1803.2000000476837,True,i,247051.59999990463,2314.9000000953674,1669840063066,2315,HRV,HRV_0280,2022-11-30 20:30:36
104,"[{'imgObject': {}, 'id': 'tacos', 'src': '/static/foodstim60/tacos.jpg', 'key': 'u', 'origWidth': 411, 'origHeight': 411, 'width': 411, 'height': 411, 'widthPercent': 0.45, 'rescaleHeight': False, 'trialN': 104, 'loaded': True, 'loadedTime': 8881.5, 'positionName': 'LEFT', 'positionCoords': [244.68, 178.5], 'bid': 8.99}, {'imgObject': {}, 'id': 'roastedpotatoes', 'src': '/static/foodstim60/roastedpotatoes.jpg', 'key': 'i', 'origWidth': 409, 'origHeight': 410, 'width': 409, 'height': 410, 'widthPercent': 0.45, 'rescaleHeight': False, 'trialN': 104, 'loaded': True, 'loadedTime': 8690.5, 'positionName': 'RIGHT', 'positionCoords': [710.32, 179], 'bid': 8.92}]",247054.5,1669840063069,tacos,roastedpotatoes,8.99,8.92,-0.07000000000000028,tacos,1625.3999998569489,1630,1630.2999999523163,True,u,249201.69999980927,2147.199999809265,1669840065216,2147,HRV,HRV_0280,2022-11-30 20:30:36
105,"[{'imgObject': {}, 'id': 'sushi w_condiments', 'src': '/static/foodstim60/sushi w_condiments.jpg', 'key': 'u', 'origWidth': 410, 'origHeight': 410, 'width': 410, 'height': 410, 'widthPercent': 0.45, 'rescaleHeight': False, 'trialN': 105, 'loaded': True, 'loadedTime': 9564.5, 'positionName': 'LEFT', 'positionCoords': [245.68, 179], 'bid': 9.89}, {'imgObject': {}, 'id': 'hotdog w must', 'src': '/static/foodstim60/hotdog w must.jpg', 'key': 'i', 'origWidth': 409, 'origHeight': 409, 'width': 409, 'height': 409, 'widthPercent': 0.45, 'rescaleHeight': False, 'trialN': 105, 'loaded': True, 'loadedTime': 8215.5, 'positionName': 'RIGHT', 'positionCoords': [710.32, 179.5], 'bid': 9.53}]",249204.89999985695,1669840065219,sushi w_condiments,hotdog w must,9.89,9.53,-0.3600000000000012,sushi w_condiments,1289.4000000953674,1293,1293.0,True,u,251002.0,1797.1000001430511,1669840067016,1797,HRV,HRV_0280,2022-11-30 20:30:36
106,"[{'imgObject': {}, 'id': 'fruitsalad', 'src': '/static/foodstim60/fruitsalad.jpg', 'key': 'u', 'origWidth': 410, 'origHeight': 410, 'width': 410, 'height': 410, 'widthPercent': 0.45, 'rescaleHeight': False, 'trialN': 106, 'loaded': True, 'loadedTime': 8596.099999904633, 'positionName': 'LEFT', 'positionCoords': [245.68, 179], 'bid': 9.86}, {'imgObject': {}, 'id': 'chicken nuggets2', 'src': '/static/foodstim60/chicken nuggets2.jpg', 'key': 'i', 'origWidth': 410, 'origHeight': 409, 'width': 410, 'height': 409, 'widthPercent': 0.45, 'rescaleHeight': False, 'trialN': 106, 'loaded': True, 'loadedTime': 7735.399999856949, 'positionName': 'RIGHT', 'positionCoords': [710.32, 179.5], 'bid': 9.86}]",251004.19999980927,1669840067019,fruitsalad,chicken nuggets2,9.86,9.86,0.0,chicken nuggets2,2428.9000000953674,2430,2430.300000190735,True,i,253952.39999985695,2948.2000000476837,1669840069967,2948,HRV,HRV_0280,2022-11-30 20:30:36
107,"[{'imgObject': {}, 'id': 'popsicles', 'src': '/static/foodstim60/popsicles.jpg', 'key': 'u', 'origWidth': 410, 'origHeight': 410, 'width': 410, 'height': 410, 'widthPercent': 0.45, 'rescaleHeight': False, 'trialN': 107, 'loaded': True, 'loadedTime': 10566.199999809265, 'positionName': 'LEFT', 'positionCoords': [245.68, 179], 'bid': 5.93}, {'imgObject': {}, 'id': 'burrito', 'src': '/static/foodstim60/burrito.jpg', 'key': 'i', 'origWidth': 410, 'origHeight': 410, 'width': 410, 'height': 410, 'widthPercent': 0.45, 'rescaleHeight': False, 'trialN': 107, 'loaded': True, 'loadedTime': 9975, 'positionName': 'RIGHT', 'positionCoords': [710.32, 179], 'bid': 6.34}]",253953.09999990463,1669840069967,popsicles,burrito,5.93,6.34,0.41000000000000014,burrito,1889.9000000953674,1895,1894.5,True,i,256351.69999980927,2398.5999999046326,1669840072366,2399,HRV,HRV_0280,2022-11-30 20:30:36
