success,trial_type,trial_index,time_elapsed,internal_node_id,Block,TrialNumber,TrialTime,trialTimeDiff,FPS_avg,FPS_med,FPS_mode,TrialDur,winResizeTime,rt,block,button_pressed,MotCoh,MotDir,ColCoh,Color,ChoiceKey,Choice,Accuracy,RT,nFrames,FPS,PPD,missTrial,missTrialMsg,onsetDelay,fullScreenExitTime,canvCenter,TrialType,Score,BlockTrial,stimulus,button_labels,exp,subjectId,date
True,fullscreen,0,4060,0.0-0.0,0.0,1.0,,,,,,,,,,,,,,,,,,,,,,,,,,,,,,,,HRV,HRV_0280,2022-11-30 20:57:31
,wl-check-fps,1,9193,0.0-1.0,0.0,2.0,"[6436.1, 6442, 6448.8, 6489.2, 6504.2, 6522.4, 6591.9, 6633.2, 6664.1, 6667.3, 6685.4, 6702.6, 6717.8, 6733.9, 6746.9, 6763.7, 6784, 6796.6, 6813.7, 6832.3, 6846.8, 6863.7, 6881.5, 6897, 6913.7, 6930.3, 6946.9, 6964.1, 6981.5, 6996.8, 7013.8, 7030.8, 7046.9, 7063.7, 7081.1, 7096.9, 7113.8, 7131.1, 7146.9, 7163.6, 7182.2, 7202.1, 7212.3, 7229.8, 7246.8, 7263.7, 7279.6, 7296.5, 7314.3, 7330, 7347.2, 7364.6, 7379.9, 7396.9, 7413.6, 7429.8, 7446.9, 7463.6, 7480.2, 7497, 7516.9, 7530.3, 7546.1, 7564.7, 7580.9, 7597.2, 7617, 7630.3, 7647, 7664.6, 7680.3, 7697, 7716.3, 7730.3, 7746.9, 7764.3, 7780.4, 7797.1, 7814.4, 7830.4, 7846.9, 7864.4, 7880.2, 7897, 7914.3, 7930.4, 7947.1, 7963.1, 7980.3, 7997.1, 8013, 8030.7, 8047, 8063.3, 8080.2, 8097.2, 8113.4, 8130.4, 8147.1, 8163, 8180.3, 8197.1, 8213.7, 8230.2, 8246.1, 8263.7, 8280.3, 8297.5, 8313.6, 8330.4, 8348.1, 8363.7, 8380.4, 8398.1, 8413.6, 8430.4, 8447.9, 8463.7, 8480.2, 8497.5, 8513.7, 8530.3, 8548, 8563.7, 8581.2, 8597.8, 8613.7, 8630.5, 8647, 8663.7, 8680.4, 8697.2, 8713.7, 8731.6, 8746.8, 8763.8, 8780.3, 8796.9, 8813.6, 8831.7, 8847.1, 8863.5, 8880.4, 8896.7, 8913.8, 8930.4, 8947, 8963.9, 8981.4, 8997, 9013.7, 9030.8, 9047.1, 9063.7, 9080.8, 9097.1, 9113.8, 9130.9, 9147.1, 9163.7, 9180.9, 9196.9, 9213.8, 9231.1, 9247, 9263.8, 9280, 9296.7, 9313.7, 9329.1, 9347.8, 9363.9, 9380.1, 9397, 9413.7, 9430, 9447.1, 9463.8, 9480.4, 9497, 9513.7, 9530.4, 9547.1, 9563.8, 9580.3, 9597.1, 9617.2, 9630.3, 9647, 9667.1, 9680.6, 9696.7, 9713.6, 9730.3, 9746.9, 9763.8, 9780.4, 9797, 9813.7, 9830.3, 9847.1, 9863.6, 9880.3, 9897.5, 9914.2, 9930.4, 9947, 9963.8, 9980.4, 9996.9, 10013.7, 10030.4, 10049.6, 10063.1, 10084, 10099.5, 10117.8, 10134, 10151.5, 10162.9, 10180.5, 10197.8, 10216.7, 10233.3, 10251.1, 10267.5, 10282.4, 10300.7, 10317.7, 10334.1, 10349.8, 10363.2, 10380.2, 10397.9, 10418, 10433.6, 10449.5, 10468.3, 10483.3, 10501.2, 10517.4, 10533.9, 10547.6, 10563.4, 10580, 10598, 10617.5, 10632.9, 10649.5, 10667.6, 10683.6, 10700.9, 10717.9, 10732.7, 10747.4, 10762.4, 10778.7, 10797, 10811.9, 10828.6, 10847.1, 10861.9, 10878.5, 10896.5, 10911.8, 10928.5, 10946.7, 10962.3, 10978.5, 11026.6, 11034, 11047.6, 11062.2, 11078.7, 11097.1, 11112.2, 11128.8, 11147.5, 11162.4, 11179.4, 11197, 11212.2, 11228.8, 11247.6, 11262.3, 11278.8, 11300.7, 11312.2, 11328.8, 11350.1, 11367.5, 11378.5, 11397.1, 11411.9, 11428.5, 11446.9, 11461.8, 11479.1, 11497.1, 11511.7]","[29.4, 5.9, 6.8, 40.4, 15, 18.2, 69.5, 41.3, 30.9, 3.2, 18.1, 17.2, 15.2, 16.1, 13, 16.8, 20.3, 12.6, 17.1, 18.6, 14.5, 16.9, 17.8, 15.5, 16.7, 16.6, 16.6, 17.2, 17.4, 15.3, 17, 17, 16.1, 16.8, 17.4, 15.8, 16.9, 17.3, 15.8, 16.7, 18.6, 19.9, 10.2, 17.5, 17, 16.9, 15.9, 16.9, 17.8, 15.7, 17.2, 17.4, 15.3, 17, 16.7, 16.2, 17.1, 16.7, 16.6, 16.8, 19.9, 13.4, 15.8, 18.6, 16.2, 16.3, 19.8, 13.3, 16.7, 17.6, 15.7, 16.7, 19.3, 14, 16.6, 17.4, 16.1, 16.7, 17.3, 16, 16.5, 17.5, 15.8, 16.8, 17.3, 16.1, 16.7, 16, 17.2, 16.8, 15.9, 17.7, 16.3, 16.3, 16.9, 17, 16.2, 17, 16.7, 15.9, 17.3, 16.8, 16.6, 16.5, 15.9, 17.6, 16.6, 17.2, 16.1, 16.8, 17.7, 15.6, 16.7, 17.7, 15.5, 16.8, 17.5, 15.8, 16.5, 17.3, 16.2, 16.6, 17.7, 15.7, 17.5, 16.6, 15.9, 16.8, 16.5, 16.7, 16.7, 16.8, 16.5, 17.9, 15.2, 17, 16.5, 16.6, 16.7, 18.1, 15.4, 16.4, 16.9, 16.3, 17.1, 16.6, 16.6, 16.9, 17.5, 15.6, 16.7, 17.1, 16.3, 16.6, 17.1, 16.3, 16.7, 17.1, 16.2, 16.6, 17.2, 16, 16.9, 17.3, 15.9, 16.8, 16.2, 16.7, 17, 15.4, 18.7, 16.1, 16.2, 16.9, 16.7, 16.3, 17.1, 16.7, 16.6, 16.6, 16.7, 16.7, 16.7, 16.7, 16.5, 16.8, 20.1, 13.1, 16.7, 20.1, 13.5, 16.1, 16.9, 16.7, 16.6, 16.9, 16.6, 16.6, 16.7, 16.6, 16.8, 16.5, 16.7, 17.2, 16.7, 16.2, 16.6, 16.8, 16.6, 16.5, 16.8, 16.7, 19.2, 13.5, 20.9, 15.5, 18.3, 16.2, 17.5, 11.4, 17.6, 17.3, 18.9, 16.6, 17.8, 16.4, 14.9, 18.3, 17, 16.4, 15.7, 13.4, 17, 17.7, 20.1, 15.6, 15.9, 18.8, 15, 17.9, 16.2, 16.5, 13.7, 15.8, 16.6, 18, 19.5, 15.4, 16.6, 18.1, 16, 17.3, 17, 14.8, 14.7, 15, 16.3, 18.3, 14.9, 16.7, 18.5, 14.8, 16.6, 18, 15.3, 16.7, 18.2, 15.6, 16.2, 48.1, 7.4, 13.6, 14.6, 16.5, 18.4, 15.1, 16.6, 18.7, 14.9, 17, 17.6, 15.2, 16.6, 18.8, 14.7, 16.5, 21.9, 11.5, 16.6, 21.3, 17.4, 11, 18.6, 14.8, 16.6, 18.4, 14.9, 17.3, 18, 14.6]",59.0,62.0,60.0,5121.8,[],,,,,,,,,,,,,,,,,,,,,,,,,HRV,HRV_0280,2022-11-30 20:57:31
,wl-html-keyboard-response,2,32072,0.0-2.0-0.0,0.0,3.0,,,,,,,,20833.099999904633,0.0,0,,,,,,,,,,,,,,,,,,,,,,HRV,HRV_0280,2022-11-30 20:57:31
,wl-rdm,3,39175,0.0-3.0-0.0,0.0,4.0,,,,,,,[],,,,0.0,0.0,87.9,0.0,u,0.0,True,1088.2000000476837,65.0,60.0,40.0,False,,3000.0,[],"[683, 384]",ColorTask_Demo,,,,,HRV,HRV_0280,2022-11-30 20:57:31
,wl-rdm,4,43876,0.0-3.0-1.0,0.0,5.0,,,,,,,[],,,,0.0,0.0,87.9,1.0,i,1.0,True,540.7999999523163,33.0,60.0,40.0,False,,2000.0,[],"[683, 384]",ColorTask_Demo,,,,,HRV,HRV_0280,2022-11-30 20:57:31
,wl-html-keyboard-response,5,50431,0.0-3.0-2.0,0.0,6.0,,,,,,,,4545.799999952316,0.0,1,,,,,,,,,,,,,,,,,,,,,,HRV,HRV_0280,2022-11-30 20:57:31
,wl-html-keyboard-response,6,70543,0.0-4.0-0.0,0.0,7.0,,,,,,,,18091.0,0.0,0,,,,,,,,,,,,,,,,,,,,,,HRV,HRV_0280,2022-11-30 20:57:31
,wl-html-keyboard-response,7,94831,0.0-5.0-0.0,0.0,8.0,,,,,,,,22219.0,0.0,0,,,,,,,,,,,,,,,,,,,,,,HRV,HRV_0280,2022-11-30 20:57:31
,wl-rdm,8,97095,0.0-6.0-0.0,0.0,9.0,,,,,,,[],,,,,,56.4,0.0,u,0.0,True,792.5,48.0,60.0,40.0,False,,358.8224805423599,[],"[683, 384]",ColorTask,1.0,1.0,,,HRV,HRV_0280,2022-11-30 20:57:31
,wl-rdm,9,99128,0.0-6.1-0.1,0.0,10.0,,,,,,,[],,,,,,73.6,1.0,u,0.0,False,703.7999999523163,43.0,60.0,40.0,False,,207.2742108589141,[],"[683, 384]",ColorTask,0.0,2.0,,,HRV,HRV_0280,2022-11-30 20:57:31
,wl-rdm,10,101278,0.0-6.2-0.2,0.0,11.0,,,,,,,[],,,,,,53.2,1.0,u,0.0,False,692.0999999046326,42.0,60.0,40.0,False,,398.55528644568335,[],"[683, 384]",ColorTask,-1.0,3.0,,,HRV,HRV_0280,2022-11-30 20:57:31
,wl-rdm,11,103426,0.0-6.3-0.3,0.0,12.0,,,,,,,[],,,,,,62.5,0.0,i,1.0,False,691.6000001430511,42.0,60.0,40.0,False,,385.5988012938071,[],"[683, 384]",ColorTask,-2.0,4.0,,,HRV,HRV_0280,2022-11-30 20:57:31
,wl-rdm,12,105444,0.0-6.4-0.4,0.0,13.0,,,,,,,[],,,,,,73.6,0.0,i,1.0,False,691.3000001907349,42.0,60.0,40.0,False,,248.6060314886188,[],"[683, 384]",ColorTask,-3.0,5.0,,,HRV,HRV_0280,2022-11-30 20:57:31
,wl-rdm,13,107561,0.0-6.5-0.5,0.0,14.0,,,,,,,[],,,,,,62.5,0.0,u,0.0,True,670.7999999523163,40.0,60.0,40.0,False,,380.1643920978634,[],"[683, 384]",ColorTask,-2.0,6.0,,,HRV,HRV_0280,2022-11-30 20:57:31
,wl-rdm,14,109696,0.0-6.6-0.6,0.0,15.0,,,,,,,[],,,,,,73.6,0.0,u,0.0,True,738.1999998092651,45.0,60.0,40.0,False,,275.169207562912,[],"[683, 384]",ColorTask,-1.0,7.0,,,HRV,HRV_0280,2022-11-30 20:57:31
,wl-rdm,15,111893,0.0-6.7-0.7,0.0,16.0,,,,,,,[],,,,,,53.2,0.0,i,1.0,False,870.5,53.0,60.0,40.0,False,,235.1374845406425,[],"[683, 384]",ColorTask,-2.0,8.0,,,HRV,HRV_0280,2022-11-30 20:57:31
,wl-rdm,16,113842,0.0-6.8-0.8,0.0,17.0,,,,,,,[],,,,,,62.5,1.0,i,1.0,True,657.9000000953674,40.0,60.0,40.0,False,,202.81398979343766,[],"[683, 384]",ColorTask,-1.0,9.0,,,HRV,HRV_0280,2022-11-30 20:57:31
,wl-rdm,17,115826,0.0-6.9-0.9,0.0,18.0,,,,,,,[],,,,,,62.5,1.0,i,1.0,True,689.8999998569489,42.0,60.0,40.0,False,,207.5781177654661,[],"[683, 384]",ColorTask,0.0,10.0,,,HRV,HRV_0280,2022-11-30 20:57:31
,wl-rdm,18,117960,0.0-6.10-0.10,0.0,19.0,,,,,,,[],,,,,,53.2,0.0,i,1.0,False,723.2999999523163,43.0,60.0,40.0,False,,349.39270828265194,[],"[683, 384]",ColorTask,-1.0,11.0,,,HRV,HRV_0280,2022-11-30 20:57:31
,wl-rdm,19,119792,0.0-6.11-0.11,0.0,20.0,,,,,,,[],,,,,,87.9,0.0,u,0.0,True,545.9000000953674,33.0,60.0,40.0,False,,217.40785412608622,[],"[683, 384]",ColorTask,0.0,12.0,,,HRV,HRV_0280,2022-11-30 20:57:31
,wl-rdm,20,121593,0.0-6.12-0.12,0.0,21.0,,,,,,,[],,,,,,56.4,0.0,u,0.0,True,488.39999985694885,30.0,60.0,40.0,False,,231.71200679006716,[],"[683, 384]",ColorTask,1.0,13.0,,,HRV,HRV_0280,2022-11-30 20:57:31
,wl-rdm,21,123763,0.0-6.13-0.13,0.0,22.0,,,,,,,[],,,,,,73.6,1.0,u,0.0,False,677.6000001430511,41.0,60.0,40.0,False,,399.78464785737333,[],"[683, 384]",ColorTask,0.0,14.0,,,HRV,HRV_0280,2022-11-30 20:57:31
,wl-rdm,22,125842,0.0-6.14-0.14,0.0,23.0,,,,,,,[],,,,,,62.5,0.0,i,1.0,False,744.9000000953674,45.0,60.0,40.0,False,,266.71335280260274,[],"[683, 384]",ColorTask,-1.0,15.0,,,HRV,HRV_0280,2022-11-30 20:57:31
,wl-rdm,23,127759,0.0-6.15-0.15,0.0,24.0,,,,,,,[],,,,,,87.9,1.0,i,1.0,True,645.5,39.0,60.0,40.0,False,,207.0742860586532,[],"[683, 384]",ColorTask,0.0,16.0,,,HRV,HRV_0280,2022-11-30 20:57:31
,wl-rdm,24,129660,0.0-6.16-0.16,0.0,25.0,,,,,,,[],,,,,,87.9,1.0,i,1.0,True,570.6000001430511,35.0,60.0,40.0,False,,205.23490180424105,[],"[683, 384]",ColorTask,1.0,17.0,,,HRV,HRV_0280,2022-11-30 20:57:31
,wl-rdm,25,131692,0.0-6.17-0.17,0.0,26.0,,,,,,,[],,,,,,62.5,0.0,u,0.0,True,669.9000000953674,39.0,60.0,40.0,False,,297.1498187362899,[],"[683, 384]",ColorTask,2.0,18.0,,,HRV,HRV_0280,2022-11-30 20:57:31
,wl-rdm,26,133759,0.0-6.18-0.18,0.0,27.0,,,,,,,[],,,,,,73.6,0.0,i,1.0,False,757.3999998569489,46.0,60.0,40.0,False,,213.40645336492148,[],"[683, 384]",ColorTask,1.0,19.0,,,HRV,HRV_0280,2022-11-30 20:57:31
,wl-rdm,27,136180,0.0-6.19-0.19,0.0,28.0,,,,,,,[],,,,,,50.0,1.0,u,0.0,False,974.5999999046326,59.0,60.0,40.0,False,,358.4379786518567,[],"[683, 384]",ColorTask,0.0,20.0,,,HRV,HRV_0280,2022-11-30 20:57:31
,wl-rdm,28,138226,0.0-6.20-0.20,0.0,29.0,,,,,,,[],,,,,,56.4,1.0,i,1.0,True,591.1999998092651,36.0,60.0,40.0,False,,371.69038964786387,[],"[683, 384]",ColorTask,1.0,21.0,,,HRV,HRV_0280,2022-11-30 20:57:31
,wl-rdm,29,140394,0.0-6.21-0.21,0.0,30.0,,,,,,,[],,,,,,56.4,1.0,u,0.0,False,773.3000001907349,45.0,60.0,40.0,False,,318.9247275370644,[],"[683, 384]",ColorTask,0.0,22.0,,,HRV,HRV_0280,2022-11-30 20:57:31
,wl-rdm,30,142294,0.0-6.22-0.22,0.0,31.0,,,,,,,[],,,,,,62.5,1.0,i,1.0,True,592.4999997615814,33.0,60.0,40.0,False,,244.2170325474881,[],"[683, 384]",ColorTask,1.0,23.0,,,HRV,HRV_0280,2022-11-30 20:57:31
,wl-rdm,31,144229,0.0-6.23-0.23,0.0,32.0,,,,,,,[],,,,,,87.9,1.0,i,1.0,True,564.1999998092651,34.0,60.0,40.0,False,,284.78081090555975,[],"[683, 384]",ColorTask,2.0,24.0,,,HRV,HRV_0280,2022-11-30 20:57:31
,wl-rdm,32,146276,0.0-6.24-0.24,0.0,33.0,,,,,,,[],,,,,,50.0,0.0,i,1.0,False,584.6000001430511,33.0,60.0,40.0,False,,392.26608237807113,[],"[683, 384]",ColorTask,1.0,25.0,,,HRV,HRV_0280,2022-11-30 20:57:31
,wl-rdm,33,148362,0.0-6.25-0.25,0.0,34.0,,,,,,,[],,,,,,56.4,1.0,i,1.0,True,761.0,46.0,60.0,40.0,False,,234.9268750269037,[],"[683, 384]",ColorTask,2.0,26.0,,,HRV,HRV_0280,2022-11-30 20:57:31
,wl-rdm,34,150360,0.0-6.26-0.26,0.0,35.0,,,,,,,[],,,,,,50.0,1.0,i,1.0,True,709.5,42.0,60.0,40.0,False,,232.07641268321055,[],"[683, 384]",ColorTask,3.0,27.0,,,HRV,HRV_0280,2022-11-30 20:57:31
,wl-rdm,35,152243,0.0-6.27-0.27,0.0,36.0,,,,,,,[],,,,,,73.6,1.0,i,1.0,True,576.5000002384186,35.0,60.0,40.0,False,,244.87904733994657,[],"[683, 384]",ColorTask,4.0,28.0,,,HRV,HRV_0280,2022-11-30 20:57:31
,wl-rdm,36,154160,0.0-6.28-0.28,0.0,37.0,,,,,,,[],,,,,,50.0,0.0,i,1.0,False,576.2000000476837,35.0,60.0,40.0,False,,272.4932638623648,[],"[683, 384]",ColorTask,3.0,29.0,,,HRV,HRV_0280,2022-11-30 20:57:31
,wl-rdm,37,156411,0.0-6.29-0.29,0.0,38.0,,,,,,,[],,,,,,56.4,0.0,i,1.0,False,784.0,47.0,60.0,40.0,False,,348.52267241591375,[],"[683, 384]",ColorTask,2.0,30.0,,,HRV,HRV_0280,2022-11-30 20:57:31
,wl-rdm,38,158345,0.0-6.30-0.30,0.0,39.0,,,,,,,[],,,,,,87.9,1.0,i,1.0,True,639.2000000476837,36.0,60.0,40.0,False,,224.5037272580034,[],"[683, 384]",ColorTask,3.0,31.0,,,HRV,HRV_0280,2022-11-30 20:57:31
,wl-rdm,39,160377,0.0-6.31-0.31,0.0,40.0,,,,,,,[],,,,,,62.5,1.0,i,1.0,True,705.4000000953674,41.0,60.0,40.0,False,,244.36857994450978,[],"[683, 384]",ColorTask,4.0,32.0,,,HRV,HRV_0280,2022-11-30 20:57:31
,wl-rdm,40,162482,0.0-6.32-0.32,0.0,41.0,,,,,,,[],,,,,,87.9,0.0,u,0.0,True,758.0,46.0,60.0,40.0,False,,278.50042126138874,[],"[683, 384]",ColorTask,5.0,33.0,,,HRV,HRV_0280,2022-11-30 20:57:31
,wl-rdm,41,164577,0.0-6.33-0.33,0.0,42.0,,,,,,,[],,,,,,62.5,1.0,i,1.0,True,825.5,47.0,60.0,40.0,False,,203.0126876770413,[],"[683, 384]",ColorTask,6.0,34.0,,,HRV,HRV_0280,2022-11-30 20:57:31
,wl-rdm,42,166544,0.0-6.34-0.34,0.0,43.0,,,,,,,[],,,,,,56.4,1.0,i,1.0,True,611.2000000476837,37.0,60.0,40.0,False,,277.0561928632159,[],"[683, 384]",ColorTask,7.0,35.0,,,HRV,HRV_0280,2022-11-30 20:57:31
,wl-rdm,43,168511,0.0-6.35-0.35,0.0,44.0,,,,,,,[],,,,,,73.6,1.0,i,1.0,True,535.9999997615814,32.0,60.0,40.0,False,,358.43107358994405,[],"[683, 384]",ColorTask,8.0,36.0,,,HRV,HRV_0280,2022-11-30 20:57:31
,wl-rdm,44,170427,0.0-6.36-0.36,0.0,45.0,,,,,,,[],,,,,,87.9,1.0,i,1.0,True,586.0000002384186,34.0,60.0,40.0,False,,251.0422354169628,[],"[683, 384]",ColorTask,9.0,37.0,,,HRV,HRV_0280,2022-11-30 20:57:31
,wl-rdm,45,172594,0.0-6.37-0.37,0.0,46.0,,,,,,,[],,,,,,53.2,0.0,i,1.0,False,859.5,50.0,60.0,40.0,False,,234.55042044267458,[],"[683, 384]",ColorTask,8.0,38.0,,,HRV,HRV_0280,2022-11-30 20:57:31
,wl-rdm,46,174445,0.0-6.38-0.38,0.0,47.0,,,,,,,[],,,,,,87.9,0.0,u,0.0,True,531.0999999046326,32.0,60.0,40.0,False,,248.33432587080756,[],"[683, 384]",ColorTask,9.0,39.0,,,HRV,HRV_0280,2022-11-30 20:57:31
,wl-rdm,47,176428,0.0-6.39-0.39,0.0,48.0,,,,,,,[],,,,,,56.4,1.0,i,1.0,True,703.6999998092651,43.0,60.0,40.0,False,,200.6206150904513,[],"[683, 384]",ColorTask,10.0,40.0,,,HRV,HRV_0280,2022-11-30 20:57:31
,wl-rdm,48,178378,0.0-6.40-0.40,0.0,49.0,,,,,,,[],,,,,,62.5,1.0,i,1.0,True,610.7999999523163,37.0,60.0,40.0,False,,262.94527962339254,[],"[683, 384]",ColorTask,11.0,41.0,,,HRV,HRV_0280,2022-11-30 20:57:31
,wl-rdm,49,180178,0.0-6.41-0.41,0.0,50.0,,,,,,,[],,,,,,50.0,1.0,u,0.0,False,492.09999990463257,30.0,60.0,40.0,False,,217.06634913856246,[],"[683, 384]",ColorTask,10.0,42.0,,,HRV,HRV_0280,2022-11-30 20:57:31
,wl-rdm,50,182144,0.0-6.42-0.42,0.0,51.0,,,,,,,[],,,,,,73.6,1.0,i,1.0,True,578.8000001907349,35.0,60.0,40.0,False,,301.72564258547015,[],"[683, 384]",ColorTask,11.0,43.0,,,HRV,HRV_0280,2022-11-30 20:57:31
,wl-rdm,51,184027,0.0-6.43-0.43,0.0,52.0,,,,,,,[],,,,,,62.5,1.0,u,0.0,False,532.1999998092651,32.0,60.0,40.0,False,,276.5925515726293,[],"[683, 384]",ColorTask,10.0,44.0,,,HRV,HRV_0280,2022-11-30 20:57:31
,wl-rdm,52,186264,0.0-6.44-0.44,0.0,53.0,,,,,,,[],,,,,,50.0,1.0,u,0.0,False,824.8999998569489,49.0,60.0,40.0,False,,337.97205203045723,[],"[683, 384]",ColorTask,9.0,45.0,,,HRV,HRV_0280,2022-11-30 20:57:31
,wl-rdm,53,188263,0.0-6.45-0.45,0.0,54.0,,,,,,,[],,,,,,73.6,0.0,i,1.0,False,661.2000000476837,40.0,60.0,40.0,False,,272.8505860883111,[],"[683, 384]",ColorTask,8.0,46.0,,,HRV,HRV_0280,2022-11-30 20:57:31
,wl-rdm,54,190378,0.0-6.46-0.46,0.0,55.0,,,,,,,[],,,,,,56.4,0.0,u,0.0,True,738.9000000953674,42.0,60.0,40.0,False,,306.8111815665997,[],"[683, 384]",ColorTask,9.0,47.0,,,HRV,HRV_0280,2022-11-30 20:57:31
,wl-rdm,55,192449,0.0-6.47-0.47,0.0,56.0,,,,,,,[],,,,,,56.4,0.0,u,0.0,True,758.3000001907349,46.0,60.0,40.0,False,,239.59664555083592,[],"[683, 384]",ColorTask,10.0,48.0,,,HRV,HRV_0280,2022-11-30 20:57:31
,wl-rdm,56,194512,0.0-6.48-0.48,0.0,57.0,,,,,,,[],,,,,,53.2,0.0,i,1.0,False,641.9000000953674,39.0,60.0,40.0,False,,343.2003921382777,[],"[683, 384]",ColorTask,9.0,49.0,,,HRV,HRV_0280,2022-11-30 20:57:31
,wl-rdm,57,196545,0.0-6.49-0.49,0.0,58.0,,,,,,,[],,,,,,56.4,0.0,u,0.0,True,746.2000000476837,44.0,60.0,40.0,False,,202.9576573465407,[],"[683, 384]",ColorTask,10.0,50.0,,,HRV,HRV_0280,2022-11-30 20:57:31
,wl-rdm,58,198496,0.0-6.50-0.50,0.0,59.0,,,,,,,[],,,,,,56.4,0.0,u,0.0,True,640.5,39.0,60.0,40.0,False,,227.31610156983086,[],"[683, 384]",ColorTask,11.0,51.0,,,HRV,HRV_0280,2022-11-30 20:57:31
,wl-rdm,59,200479,0.0-6.51-0.51,0.0,60.0,,,,,,,[],,,,,,53.2,1.0,i,1.0,True,700.3000001907349,42.0,60.0,40.0,False,,209.28469882265554,[],"[683, 384]",ColorTask,12.0,52.0,,,HRV,HRV_0280,2022-11-30 20:57:31
,wl-rdm,60,202328,0.0-6.52-0.52,0.0,61.0,,,,,,,[],,,,,,73.6,0.0,i,1.0,False,460.60000014305115,28.0,60.0,40.0,False,,303.93098084102735,[],"[683, 384]",ColorTask,11.0,53.0,,,HRV,HRV_0280,2022-11-30 20:57:31
,wl-rdm,61,204328,0.0-6.53-0.53,0.0,62.0,,,,,,,[],,,,,,53.2,1.0,u,0.0,False,665.2000000476837,40.0,60.0,40.0,False,,257.6691160716322,[],"[683, 384]",ColorTask,10.0,54.0,,,HRV,HRV_0280,2022-11-30 20:57:31
,wl-rdm,62,206412,0.0-6.54-0.54,0.0,63.0,,,,,,,[],,,,,,53.2,1.0,i,1.0,True,624.7000000476837,37.0,60.0,40.0,False,,386.09291257467316,[],"[683, 384]",ColorTask,11.0,55.0,,,HRV,HRV_0280,2022-11-30 20:57:31
,wl-rdm,63,208362,0.0-6.55-0.55,0.0,64.0,,,,,,,[],,,,,,50.0,0.0,i,1.0,False,675.2999999523163,41.0,60.0,40.0,False,,208.84646261614571,[],"[683, 384]",ColorTask,10.0,56.0,,,HRV,HRV_0280,2022-11-30 20:57:31
,wl-rdm,64,210379,0.0-6.56-0.56,0.0,65.0,,,,,,,[],,,,,,56.4,1.0,i,1.0,True,680.1999998092651,39.0,60.0,40.0,False,,280.5313189206936,[],"[683, 384]",ColorTask,11.0,57.0,,,HRV,HRV_0280,2022-11-30 20:57:31
,wl-rdm,65,212396,0.0-6.57-0.57,0.0,66.0,,,,,,,[],,,,,,87.9,0.0,i,1.0,False,566.7000000476837,34.0,60.0,40.0,False,,375.1284192981127,[],"[683, 384]",ColorTask,10.0,58.0,,,HRV,HRV_0280,2022-11-30 20:57:31
,wl-rdm,66,214514,0.0-6.58-0.58,0.0,67.0,,,,,,,[],,,,,,53.2,0.0,i,1.0,False,741.0,44.0,60.0,40.0,False,,304.24900232782085,[],"[683, 384]",ColorTask,9.0,59.0,,,HRV,HRV_0280,2022-11-30 20:57:31
,wl-rdm,67,216479,0.0-6.59-0.59,0.0,68.0,,,,,,,[],,,,,,50.0,1.0,u,0.0,False,685.7000002861023,40.0,60.0,40.0,False,,214.40554840771088,[],"[683, 384]",ColorTask,8.0,60.0,,,HRV,HRV_0280,2022-11-30 20:57:31
,wl-rdm,68,218362,0.0-6.60-0.60,0.0,69.0,,,,,,,[],,,,,,56.4,1.0,i,1.0,True,613.1000001430511,37.0,60.0,40.0,False,,201.18660158127767,[],"[683, 384]",ColorTask,9.0,61.0,,,HRV,HRV_0280,2022-11-30 20:57:31
,wl-rdm,69,220480,0.0-6.61-0.61,0.0,70.0,,,,,,,[],,,,,,56.4,0.0,i,1.0,False,773.7999999523163,44.0,60.0,40.0,False,,279.49105845754207,[],"[683, 384]",ColorTask,8.0,62.0,,,HRV,HRV_0280,2022-11-30 20:57:31
,wl-rdm,70,222617,0.0-6.62-0.62,0.0,71.0,,,,,,,[],,,,,,53.2,1.0,i,1.0,True,692.1000001430511,42.0,60.0,40.0,False,,366.4685554631972,[],"[683, 384]",ColorTask,9.0,63.0,,,HRV,HRV_0280,2022-11-30 20:57:31
,wl-rdm,71,224562,0.0-6.63-0.63,0.0,72.0,,,,,,,[],,,,,,50.0,0.0,i,1.0,False,656.8000001907349,40.0,60.0,40.0,False,,227.32874923018477,[],"[683, 384]",ColorTask,8.0,64.0,,,HRV,HRV_0280,2022-11-30 20:57:31
,wl-rdm,72,226414,0.0-6.64-0.64,0.0,73.0,,,,,,,[],,,,,,73.6,0.0,u,0.0,True,556.7999997138977,34.0,60.0,40.0,False,,228.3110226192556,[],"[683, 384]",ColorTask,9.0,65.0,,,HRV,HRV_0280,2022-11-30 20:57:31
,wl-rdm,73,228397,0.0-6.65-0.65,0.0,74.0,,,,,,,[],,,,,,50.0,0.0,u,0.0,True,671.3999998569489,40.0,60.0,40.0,False,,237.90620493073538,[],"[683, 384]",ColorTask,10.0,66.0,,,HRV,HRV_0280,2022-11-30 20:57:31
,wl-rdm,74,230379,0.0-6.66-0.66,0.0,75.0,,,,,,,[],,,,,,87.9,0.0,u,0.0,True,671.3999998569489,41.0,60.0,40.0,False,,229.80157349182275,[],"[683, 384]",ColorTask,11.0,67.0,,,HRV,HRV_0280,2022-11-30 20:57:31
,wl-rdm,75,232547,0.0-6.67-0.67,0.0,76.0,,,,,,,[],,,,,,62.5,1.0,i,1.0,True,710.5000002384186,42.0,60.0,40.0,False,,395.52660987969494,[],"[683, 384]",ColorTask,12.0,68.0,,,HRV,HRV_0280,2022-11-30 20:57:31
,wl-rdm,76,234697,0.0-6.68-0.68,0.0,77.0,,,,,,,[],,,,,,62.5,1.0,i,1.0,True,714.599999666214,43.0,60.0,40.0,False,,374.62568636609467,[],"[683, 384]",ColorTask,13.0,69.0,,,HRV,HRV_0280,2022-11-30 20:57:31
,wl-rdm,77,236800,0.0-6.69-0.69,0.0,78.0,,,,,,,[],,,,,,62.5,0.0,i,1.0,False,820.7999997138977,47.0,60.0,40.0,False,,203.20551293784976,[],"[683, 384]",ColorTask,12.0,70.0,,,HRV,HRV_0280,2022-11-30 20:57:31
,wl-rdm,78,238864,0.0-6.70-0.70,0.0,79.0,,,,,,,[],,,,,,50.0,0.0,u,0.0,True,740.7999999523163,43.0,60.0,40.0,False,,251.41376004895156,[],"[683, 384]",ColorTask,13.0,71.0,,,HRV,HRV_0280,2022-11-30 20:57:31
,wl-rdm,79,241164,0.0-6.71-0.71,0.0,80.0,,,,,,,[],,,,,,53.2,0.0,u,0.0,True,996.5,60.0,60.0,40.0,False,,226.55943686187243,[],"[683, 384]",ColorTask,14.0,72.0,,,HRV,HRV_0280,2022-11-30 20:57:31
,wl-rdm,80,243198,0.0-6.72-0.72,0.0,81.0,,,,,,,[],,,,,,87.9,1.0,i,1.0,True,591.6000001430511,36.0,60.0,40.0,False,,354.58292336760314,[],"[683, 384]",ColorTask,15.0,73.0,,,HRV,HRV_0280,2022-11-30 20:57:31
,wl-rdm,81,245265,0.0-6.73-0.73,0.0,82.0,,,,,,,[],,,,,,53.2,1.0,i,1.0,True,762.2999999523163,46.0,60.0,40.0,False,,233.8627994352917,[],"[683, 384]",ColorTask,16.0,74.0,,,HRV,HRV_0280,2022-11-30 20:57:31
,wl-rdm,82,247247,0.0-6.74-0.74,0.0,83.0,,,,,,,[],,,,,,87.9,0.0,u,0.0,True,624.5,36.0,60.0,40.0,False,,296.3609766127485,[],"[683, 384]",ColorTask,17.0,75.0,,,HRV,HRV_0280,2022-11-30 20:57:31
,wl-rdm,83,249265,0.0-6.75-0.75,0.0,84.0,,,,,,,[],,,,,,73.6,1.0,i,1.0,True,591.4000000953674,36.0,60.0,40.0,False,,362.09707534268364,[],"[683, 384]",ColorTask,18.0,76.0,,,HRV,HRV_0280,2022-11-30 20:57:31
,wl-rdm,84,251431,0.0-6.76-0.76,0.0,85.0,,,,,,,[],,,,,,50.0,0.0,i,1.0,False,758.1999998092651,45.0,60.0,40.0,False,,318.9549349315196,[],"[683, 384]",ColorTask,17.0,77.0,,,HRV,HRV_0280,2022-11-30 20:57:31
,wl-rdm,85,253397,0.0-6.77-0.77,0.0,86.0,,,,,,,[],,,,,,87.9,1.0,i,1.0,True,542.1000001430511,31.0,60.0,40.0,False,,366.1353832713328,[],"[683, 384]",ColorTask,18.0,78.0,,,HRV,HRV_0280,2022-11-30 20:57:31
,wl-rdm,86,255397,0.0-6.78-0.78,0.0,87.0,,,,,,,[],,,,,,50.0,1.0,u,0.0,False,714.2000000476837,43.0,60.0,40.0,False,,209.90628983533946,[],"[683, 384]",ColorTask,17.0,79.0,,,HRV,HRV_0280,2022-11-30 20:57:31
,wl-rdm,87,257614,0.0-6.79-0.79,0.0,88.0,,,,,,,[],,,,,,50.0,0.0,u,0.0,True,833.0999999046326,49.0,60.0,40.0,False,,313.53118351299844,[],"[683, 384]",ColorTask,18.0,80.0,,,HRV,HRV_0280,2022-11-30 20:57:31
,wl-rdm,88,259748,0.0-6.80-0.80,0.0,89.0,,,,,,,[],,,,,,73.6,1.0,i,1.0,True,746.7000002861023,45.0,60.0,40.0,False,,314.5681714936171,[],"[683, 384]",ColorTask,19.0,81.0,,,HRV,HRV_0280,2022-11-30 20:57:31
,wl-rdm,89,261899,0.0-6.81-0.81,0.0,90.0,,,,,,,[],,,,,,50.0,1.0,i,1.0,True,791.5,47.0,60.0,40.0,False,,274.29079572485955,[],"[683, 384]",ColorTask,20.0,82.0,,,HRV,HRV_0280,2022-11-30 20:57:31
,wl-rdm,90,263849,0.0-6.82-0.82,0.0,91.0,,,,,,,[],,,,,,50.0,1.0,i,1.0,True,681.7000000476837,41.0,60.0,40.0,False,,205.70834328406858,[],"[683, 384]",ColorTask,21.0,83.0,,,HRV,HRV_0280,2022-11-30 20:57:31
,wl-rdm,91,265899,0.0-6.83-0.83,0.0,92.0,,,,,,,[],,,,,,56.4,1.0,i,1.0,True,625.6000001430511,38.0,60.0,40.0,False,,338.6742780258862,[],"[683, 384]",ColorTask,22.0,84.0,,,HRV,HRV_0280,2022-11-30 20:57:31
,wl-rdm,92,267848,0.0-6.84-0.84,0.0,93.0,,,,,,,[],,,,,,87.9,1.0,i,1.0,True,551.6999998092651,32.0,60.0,40.0,False,,324.4269213216828,[],"[683, 384]",ColorTask,23.0,85.0,,,HRV,HRV_0280,2022-11-30 20:57:31
,wl-rdm,93,269648,0.0-6.85-0.85,0.0,94.0,,,,,,,[],,,,,,73.6,1.0,i,1.0,True,490.60000014305115,30.0,60.0,40.0,False,,229.59767309435767,[],"[683, 384]",ColorTask,24.0,86.0,,,HRV,HRV_0280,2022-11-30 20:57:31
,wl-rdm,94,271699,0.0-6.86-0.86,0.0,95.0,,,,,,,[],,,,,,53.2,1.0,u,0.0,False,594.0999999046326,36.0,60.0,40.0,False,,382.6049811830415,[],"[683, 384]",ColorTask,23.0,87.0,,,HRV,HRV_0280,2022-11-30 20:57:31
,wl-rdm,95,273649,0.0-6.87-0.87,0.0,96.0,,,,,,,[],,,,,,53.2,0.0,i,1.0,False,677.7999999523163,41.0,60.0,40.0,False,,210.9686437243114,[],"[683, 384]",ColorTask,22.0,88.0,,,HRV,HRV_0280,2022-11-30 20:57:31
,wl-rdm,96,275765,0.0-6.88-0.88,0.0,97.0,,,,,,,[],,,,,,56.4,1.0,i,1.0,True,648.5999999046326,39.0,60.0,40.0,False,,385.90474921183045,[],"[683, 384]",ColorTask,23.0,89.0,,,HRV,HRV_0280,2022-11-30 20:57:31
,wl-rdm,97,277716,0.0-6.89-0.89,0.0,98.0,,,,,,,[],,,,,,53.2,0.0,i,1.0,False,625.3999998569489,38.0,60.0,40.0,False,,249.05512245910904,[],"[683, 384]",ColorTask,22.0,90.0,,,HRV,HRV_0280,2022-11-30 20:57:31
,wl-rdm,98,279648,0.0-6.90-0.90,0.0,99.0,,,,,,,[],,,,,,73.6,0.0,u,0.0,True,605.5,35.0,60.0,40.0,False,,265.9326640946083,[],"[683, 384]",ColorTask,23.0,91.0,,,HRV,HRV_0280,2022-11-30 20:57:31
,wl-rdm,99,281582,0.0-6.91-0.91,0.0,100.0,,,,,,,[],,,,,,62.5,0.0,u,0.0,True,542.0,33.0,60.0,40.0,False,,325.08810054669635,[],"[683, 384]",ColorTask,24.0,92.0,,,HRV,HRV_0280,2022-11-30 20:57:31
,wl-rdm,100,283823,0.0-6.92-0.92,0.0,101.0,,,,,,,[],,,,,,56.4,0.0,u,0.0,True,874.2999997138977,53.0,60.0,40.0,False,,249.8067955291561,[],"[683, 384]",ColorTask,25.0,93.0,,,HRV,HRV_0280,2022-11-30 20:57:31
,wl-rdm,101,285815,0.0-6.93-0.93,0.0,102.0,,,,,,,[],,,,,,50.0,1.0,u,0.0,False,685.7000000476837,41.0,60.0,40.0,False,,223.28636564692496,[],"[683, 384]",ColorTask,24.0,94.0,,,HRV,HRV_0280,2022-11-30 20:57:31
,wl-rdm,102,287765,0.0-6.94-0.94,0.0,103.0,,,,,,,[],,,,,,53.2,1.0,i,1.0,True,649.0999999046326,38.0,60.0,40.0,False,,230.28195552002802,[],"[683, 384]",ColorTask,25.0,95.0,,,HRV,HRV_0280,2022-11-30 20:57:31
,wl-rdm,103,289732,0.0-6.95-0.95,0.0,104.0,,,,,,,[],,,,,,62.5,0.0,i,1.0,False,611.0999999046326,37.0,60.0,40.0,False,,286.563222746822,[],"[683, 384]",ColorTask,24.0,96.0,,,HRV,HRV_0280,2022-11-30 20:57:31
,wl-rdm,104,291932,0.0-6.96-0.96,0.0,105.0,,,,,,,[],,,,,,50.0,0.0,u,0.0,True,891.9000000953674,52.0,60.0,40.0,False,,235.0621516653933,[],"[683, 384]",ColorTask,25.0,97.0,,,HRV,HRV_0280,2022-11-30 20:57:31
,wl-rdm,105,293916,0.0-6.97-0.97,0.0,106.0,,,,,,,[],,,,,,53.2,1.0,u,0.0,False,612.5999999046326,37.0,60.0,40.0,False,,292.30612563770035,[],"[683, 384]",ColorTask,24.0,98.0,,,HRV,HRV_0280,2022-11-30 20:57:31
,wl-rdm,106,296032,0.0-6.98-0.98,0.0,107.0,,,,,,,[],,,,,,62.5,0.0,i,1.0,False,694.2999999523163,42.0,60.0,40.0,False,,363.6134781807982,[],"[683, 384]",ColorTask,23.0,99.0,,,HRV,HRV_0280,2022-11-30 20:57:31
,wl-rdm,107,297982,0.0-6.99-0.99,0.0,108.0,,,,,,,[],,,,,,87.9,1.0,i,1.0,True,654.2999999523163,37.0,60.0,40.0,False,,229.0293080962178,[],"[683, 384]",ColorTask,24.0,100.0,,,HRV,HRV_0280,2022-11-30 20:57:31
,wl-rdm,108,299949,0.0-6.100-0.100,0.0,109.0,,,,,,,[],,,,,,87.9,0.0,u,0.0,True,682.6000001430511,41.0,60.0,40.0,False,,211.57564618085175,[],"[683, 384]",ColorTask,25.0,101.0,,,HRV,HRV_0280,2022-11-30 20:57:31
,wl-rdm,109,302154,0.0-6.101-0.101,0.0,110.0,,,,,,,[],,,,,,73.6,0.0,u,0.0,True,764.9000000953674,45.0,60.0,40.0,False,,375.6006316900197,[],"[683, 384]",ColorTask,26.0,102.0,,,HRV,HRV_0280,2022-11-30 20:57:31
,wl-rdm,110,304167,0.0-6.102-0.102,0.0,111.0,,,,,,,[],,,,,,62.5,0.0,u,0.0,True,638.5000002384186,38.0,60.0,40.0,False,,305.0851031240546,[],"[683, 384]",ColorTask,27.0,103.0,,,HRV,HRV_0280,2022-11-30 20:57:31
,wl-rdm,111,306217,0.0-6.103-0.103,0.0,112.0,,,,,,,[],,,,,,87.9,0.0,u,0.0,True,702.8000001907349,39.0,60.0,40.0,False,,274.4828916809935,[],"[683, 384]",ColorTask,28.0,104.0,,,HRV,HRV_0280,2022-11-30 20:57:31
,wl-rdm,112,308349,0.0-6.104-0.104,0.0,113.0,,,,,,,[],,,,,,53.2,0.0,i,1.0,False,841.5,50.0,60.0,40.0,False,,211.29463198320926,[],"[683, 384]",ColorTask,27.0,105.0,,,HRV,HRV_0280,2022-11-30 20:57:31
,wl-rdm,113,310416,0.0-6.105-0.105,0.0,114.0,,,,,,,[],,,,,,73.6,0.0,u,0.0,True,596.4000000953674,36.0,60.0,40.0,False,,398.5251566406962,[],"[683, 384]",ColorTask,28.0,106.0,,,HRV,HRV_0280,2022-11-30 20:57:31
,wl-rdm,114,312467,0.0-6.106-0.106,0.0,115.0,,,,,,,[],,,,,,73.6,1.0,i,1.0,True,671.8000001907349,39.0,60.0,40.0,False,,302.26849937969286,[],"[683, 384]",ColorTask,29.0,107.0,,,HRV,HRV_0280,2022-11-30 20:57:31
,wl-rdm,115,314467,0.0-6.107-0.107,0.0,116.0,,,,,,,[],,,,,,87.9,0.0,u,0.0,True,644.0,39.0,60.0,40.0,False,,290.7474047611939,[],"[683, 384]",ColorTask,30.0,108.0,,,HRV,HRV_0280,2022-11-30 20:57:31
,wl-html-keyboard-response,116,340457,0.0-7.0-0.0,1.0,117.0,,,,,,,,23973.900000095367,1.0,0,,,,,,,,,,,,,,,,,,,,,,HRV,HRV_0280,2022-11-30 20:57:31
,wl-rdm,117,342651,0.0-8.0-0.0,1.0,118.0,,,,,,,[],,,,,,56.4,0.0,u,0.0,True,840.3999998569489,51.0,60.0,40.0,False,,248.15933480041605,[],"[683, 384]",ColorTask,31.0,1.0,,,HRV,HRV_0280,2022-11-30 20:57:31
,wl-rdm,118,344686,0.0-8.1-0.1,1.0,119.0,,,,,,,[],,,,,,73.6,0.0,u,0.0,True,681.7999999523163,41.0,60.0,40.0,False,,281.4956739116981,[],"[683, 384]",ColorTask,32.0,2.0,,,HRV,HRV_0280,2022-11-30 20:57:31
,wl-rdm,119,346786,0.0-8.2-0.2,1.0,120.0,,,,,,,[],,,,,,53.2,1.0,i,1.0,True,790.7000000476837,48.0,60.0,40.0,False,,224.2743912228653,[],"[683, 384]",ColorTask,33.0,3.0,,,HRV,HRV_0280,2022-11-30 20:57:31
,wl-rdm,120,349118,0.0-8.3-0.3,1.0,121.0,,,,,,,[],,,,,,62.5,0.0,u,0.0,True,965.1999998092651,55.0,60.0,40.0,False,,296.92321347520425,[],"[683, 384]",ColorTask,34.0,4.0,,,HRV,HRV_0280,2022-11-30 20:57:31
,wl-rdm,121,351119,0.0-8.4-0.4,1.0,122.0,,,,,,,[],,,,,,87.9,1.0,i,1.0,True,552.0999999046326,33.0,60.0,40.0,False,,374.8899075300719,[],"[683, 384]",ColorTask,35.0,5.0,,,HRV,HRV_0280,2022-11-30 20:57:31
,wl-rdm,122,353251,0.0-8.5-0.5,1.0,123.0,,,,,,,[],,,,,,50.0,1.0,u,0.0,False,693.3999998569489,40.0,60.0,40.0,False,,362.82435910916735,[],"[683, 384]",ColorTask,34.0,6.0,,,HRV,HRV_0280,2022-11-30 20:57:31
,wl-rdm,123,355436,0.0-8.6-0.6,1.0,124.0,,,,,,,[],,,,,,62.5,1.0,i,1.0,True,855.1000001430511,51.0,60.0,40.0,False,,247.4456930161232,[],"[683, 384]",ColorTask,35.0,7.0,,,HRV,HRV_0280,2022-11-30 20:57:31
,wl-rdm,124,357437,0.0-8.7-0.7,1.0,125.0,,,,,,,[],,,,,,87.9,1.0,i,1.0,True,574.4999997615814,35.0,60.0,40.0,False,,341.02589590810487,[],"[683, 384]",ColorTask,36.0,8.0,,,HRV,HRV_0280,2022-11-30 20:57:31
,wl-rdm,125,359469,0.0-8.8-0.8,1.0,126.0,,,,,,,[],,,,,,53.2,1.0,i,1.0,True,625.2000000476837,38.0,60.0,40.0,False,,323.6460028677331,[],"[683, 384]",ColorTask,37.0,9.0,,,HRV,HRV_0280,2022-11-30 20:57:31
,wl-rdm,126,361502,0.0-8.9-0.9,1.0,127.0,,,,,,,[],,,,,,62.5,0.0,u,0.0,True,742.3000001907349,45.0,60.0,40.0,False,,223.31799673686425,[],"[683, 384]",ColorTask,38.0,10.0,,,HRV,HRV_0280,2022-11-30 20:57:31
,wl-rdm,127,363635,0.0-8.10-0.10,1.0,128.0,,,,,,,[],,,,,,56.4,0.0,u,0.0,True,735.7999999523163,44.0,60.0,40.0,False,,319.20531431877544,[],"[683, 384]",ColorTask,39.0,11.0,,,HRV,HRV_0280,2022-11-30 20:57:31
,wl-rdm,128,365685,0.0-8.11-0.11,1.0,129.0,,,,,,,[],,,,,,73.6,0.0,u,0.0,True,695.5,41.0,60.0,40.0,False,,277.0730673656566,[],"[683, 384]",ColorTask,40.0,12.0,,,HRV,HRV_0280,2022-11-30 20:57:31
,wl-rdm,129,367769,0.0-8.12-0.12,1.0,130.0,,,,,,,[],,,,,,53.2,0.0,u,0.0,True,690.7000000476837,42.0,60.0,40.0,False,,321.07236849537173,[],"[683, 384]",ColorTask,41.0,13.0,,,HRV,HRV_0280,2022-11-30 20:57:31
,wl-rdm,130,369835,0.0-8.13-0.13,1.0,131.0,,,,,,,[],,,,,,87.9,0.0,u,0.0,True,667.7999999523163,39.0,60.0,40.0,False,,322.76221326741245,[],"[683, 384]",ColorTask,42.0,14.0,,,HRV,HRV_0280,2022-11-30 20:57:31
,wl-rdm,131,371904,0.0-8.14-0.14,1.0,132.0,,,,,,,[],,,,,,56.4,1.0,i,1.0,True,664.7000000476837,35.0,60.0,40.0,False,,321.6776049467544,[],"[683, 384]",ColorTask,43.0,15.0,,,HRV,HRV_0280,2022-11-30 20:57:31
,wl-rdm,132,373886,0.0-8.15-0.15,1.0,133.0,,,,,,,[],,,,,,73.6,1.0,i,1.0,True,641.2000000476837,39.0,60.0,40.0,False,,207.7520655272495,[],"[683, 384]",ColorTask,44.0,16.0,,,HRV,HRV_0280,2022-11-30 20:57:31
,wl-rdm,133,375920,0.0-8.16-0.16,1.0,134.0,,,,,,,[],,,,,,87.9,0.0,u,0.0,True,685.5,39.0,60.0,40.0,False,,274.98983322496565,[],"[683, 384]",ColorTask,45.0,17.0,,,HRV,HRV_0280,2022-11-30 20:57:31
,wl-rdm,134,377889,0.0-8.17-0.17,1.0,135.0,,,,,,,[],,,,,,56.4,1.0,i,1.0,True,643.6000001430511,39.0,60.0,40.0,False,,263.2564075899313,[],"[683, 384]",ColorTask,46.0,18.0,,,HRV,HRV_0280,2022-11-30 20:57:31
,wl-rdm,135,379919,0.0-8.18-0.18,1.0,136.0,,,,,,,[],,,,,,62.5,1.0,i,1.0,True,558.0999999046326,33.0,60.0,40.0,False,,383.9592212837071,[],"[683, 384]",ColorTask,47.0,19.0,,,HRV,HRV_0280,2022-11-30 20:57:31
,wl-rdm,136,381836,0.0-8.19-0.19,1.0,137.0,,,,,,,[],,,,,,87.9,1.0,i,1.0,True,517.7000000476837,31.0,60.0,40.0,False,,318.35592650782837,[],"[683, 384]",ColorTask,48.0,20.0,,,HRV,HRV_0280,2022-11-30 20:57:31
,wl-rdm,137,383886,0.0-8.20-0.20,1.0,138.0,,,,,,,[],,,,,,62.5,1.0,i,1.0,True,634.8999998569489,38.0,60.0,40.0,False,,334.0276009537191,[],"[683, 384]",ColorTask,49.0,21.0,,,HRV,HRV_0280,2022-11-30 20:57:31
,wl-rdm,138,385852,0.0-8.21-0.21,1.0,139.0,,,,,,,[],,,,,,87.9,1.0,i,1.0,True,546.5,33.0,60.0,40.0,False,,336.45591704213007,[],"[683, 384]",ColorTask,50.0,22.0,,,HRV,HRV_0280,2022-11-30 20:57:31
,wl-rdm,139,387887,0.0-8.22-0.22,1.0,140.0,,,,,,,[],,,,,,50.0,1.0,i,1.0,True,641.4000000953674,39.0,60.0,40.0,False,,307.1456166406247,[],"[683, 384]",ColorTask,51.0,23.0,,,HRV,HRV_0280,2022-11-30 20:57:31
,wl-rdm,140,389904,0.0-8.23-0.23,1.0,141.0,,,,,,,[],,,,,,50.0,0.0,u,0.0,True,673.099999666214,40.0,60.0,40.0,False,,272.59907337389524,[],"[683, 384]",ColorTask,52.0,24.0,,,HRV,HRV_0280,2022-11-30 20:57:31
,wl-rdm,141,391969,0.0-8.24-0.24,1.0,142.0,,,,,,,[],,,,,,56.4,0.0,u,0.0,True,603.3000001907349,36.0,60.0,40.0,False,,383.34826052713106,[],"[683, 384]",ColorTask,53.0,25.0,,,HRV,HRV_0280,2022-11-30 20:57:31
,wl-rdm,142,394069,0.0-8.25-0.25,1.0,143.0,,,,,,,[],,,,,,73.6,1.0,i,1.0,True,660.3999998569489,41.0,60.0,40.0,False,,369.09523332125116,[],"[683, 384]",ColorTask,54.0,26.0,,,HRV,HRV_0280,2022-11-30 20:57:31
,wl-rdm,143,396087,0.0-8.26-0.26,1.0,144.0,,,,,,,[],,,,,,50.0,0.0,i,1.0,False,691.8000001907349,42.0,60.0,40.0,False,,262.97365295251285,[],"[683, 384]",ColorTask,53.0,27.0,,,HRV,HRV_0280,2022-11-30 20:57:31
,wl-rdm,144,398286,0.0-8.27-0.27,1.0,145.0,,,,,,,[],,,,,,62.5,1.0,i,1.0,True,839.0,50.0,60.0,40.0,False,,292.1780248406609,[],"[683, 384]",ColorTask,54.0,28.0,,,HRV,HRV_0280,2022-11-30 20:57:31
,wl-rdm,145,400220,0.0-8.28-0.28,1.0,146.0,,,,,,,[],,,,,,53.2,1.0,u,0.0,False,589.9000000953674,36.0,60.0,40.0,False,,256.9816789773752,[],"[683, 384]",ColorTask,53.0,29.0,,,HRV,HRV_0280,2022-11-30 20:57:31
,wl-rdm,146,402487,0.0-8.29-0.29,1.0,147.0,,,,,,,[],,,,,,62.5,0.0,u,0.0,True,914.3999998569489,53.0,60.0,40.0,False,,289.3930897658546,[],"[683, 384]",ColorTask,54.0,30.0,,,HRV,HRV_0280,2022-11-30 20:57:31
,wl-rdm,147,404520,0.0-8.30-0.30,1.0,148.0,,,,,,,[],,,,,,87.9,1.0,i,1.0,True,615.0,36.0,60.0,40.0,False,,350.789903077422,[],"[683, 384]",ColorTask,55.0,31.0,,,HRV,HRV_0280,2022-11-30 20:57:31
,wl-rdm,148,406571,0.0-8.31-0.31,1.0,149.0,,,,,,,[],,,,,,56.4,1.0,i,1.0,True,614.4000000953674,37.0,60.0,40.0,False,,377.01985344888806,[],"[683, 384]",ColorTask,56.0,32.0,,,HRV,HRV_0280,2022-11-30 20:57:31
,wl-rdm,149,408537,0.0-8.32-0.32,1.0,150.0,,,,,,,[],,,,,,87.9,0.0,u,0.0,True,624.7999999523163,38.0,60.0,40.0,False,,266.7972153842797,[],"[683, 384]",ColorTask,57.0,33.0,,,HRV,HRV_0280,2022-11-30 20:57:31
,wl-rdm,150,410587,0.0-8.33-0.33,1.0,151.0,,,,,,,[],,,,,,56.4,1.0,u,0.0,False,763.3999996185303,45.0,60.0,40.0,False,,206.21517280593662,[],"[683, 384]",ColorTask,56.0,34.0,,,HRV,HRV_0280,2022-11-30 20:57:31
,wl-rdm,151,412670,0.0-8.34-0.34,1.0,152.0,,,,,,,[],,,,,,62.5,0.0,u,0.0,True,741.8999998569489,45.0,60.0,40.0,False,,252.79565523023527,[],"[683, 384]",ColorTask,57.0,35.0,,,HRV,HRV_0280,2022-11-30 20:57:31
,wl-rdm,152,414770,0.0-8.35-0.35,1.0,153.0,,,,,,,[],,,,,,50.0,1.0,i,1.0,True,689.0,41.0,60.0,40.0,False,,337.93631170341746,[],"[683, 384]",ColorTask,58.0,36.0,,,HRV,HRV_0280,2022-11-30 20:57:31
,wl-rdm,153,416837,0.0-8.36-0.36,1.0,154.0,,,,,,,[],,,,,,53.2,0.0,i,1.0,False,748.7000000476837,44.0,60.0,40.0,False,,246.80643101222216,[],"[683, 384]",ColorTask,57.0,37.0,,,HRV,HRV_0280,2022-11-30 20:57:31
,wl-rdm,154,418954,0.0-8.37-0.37,1.0,155.0,,,,,,,[],,,,,,73.6,0.0,u,0.0,True,674.9000000953674,41.0,60.0,40.0,False,,378.6057939076372,[],"[683, 384]",ColorTask,58.0,38.0,,,HRV,HRV_0280,2022-11-30 20:57:31
,wl-rdm,155,420920,0.0-8.38-0.38,1.0,156.0,,,,,,,[],,,,,,62.5,0.0,u,0.0,True,656.7999999523163,40.0,60.0,40.0,False,,201.40260926864062,[],"[683, 384]",ColorTask,59.0,39.0,,,HRV,HRV_0280,2022-11-30 20:57:31
,wl-rdm,156,422888,0.0-8.39-0.39,1.0,157.0,,,,,,,[],,,,,,87.9,0.0,u,0.0,True,661.7000000476837,40.0,60.0,40.0,False,,218.91660267160412,[],"[683, 384]",ColorTask,60.0,40.0,,,HRV,HRV_0280,2022-11-30 20:57:31
,wl-rdm,157,424920,0.0-8.40-0.40,1.0,158.0,,,,,,,[],,,,,,53.2,1.0,u,0.0,False,690.4000000953674,40.0,60.0,40.0,False,,280.3882402739282,[],"[683, 384]",ColorTask,59.0,41.0,,,HRV,HRV_0280,2022-11-30 20:57:31
,wl-rdm,158,427007,0.0-8.41-0.41,1.0,159.0,,,,,,,[],,,,,,53.2,0.0,u,0.0,True,729.4000000953674,44.0,60.0,40.0,False,,277.04947579562463,[],"[683, 384]",ColorTask,60.0,42.0,,,HRV,HRV_0280,2022-11-30 20:57:31
,wl-rdm,159,429054,0.0-8.42-0.42,1.0,160.0,,,,,,,[],,,,,,53.2,0.0,u,0.0,True,641.7999999523163,39.0,60.0,40.0,False,,324.4581133080013,[],"[683, 384]",ColorTask,61.0,43.0,,,HRV,HRV_0280,2022-11-30 20:57:31
,wl-rdm,160,431007,0.0-8.43-0.43,1.0,161.0,,,,,,,[],,,,,,73.6,1.0,i,1.0,True,663.4999997615814,39.0,60.0,40.0,False,,202.51562711139266,[],"[683, 384]",ColorTask,62.0,44.0,,,HRV,HRV_0280,2022-11-30 20:57:31
,wl-rdm,161,433087,0.0-8.44-0.44,1.0,162.0,,,,,,,[],,,,,,56.4,1.0,i,1.0,True,797.8999998569489,48.0,60.0,40.0,False,,211.344445231284,[],"[683, 384]",ColorTask,63.0,45.0,,,HRV,HRV_0280,2022-11-30 20:57:31
,wl-rdm,162,435370,0.0-8.45-0.45,1.0,163.0,,,,,,,[],,,,,,56.4,0.0,u,0.0,True,827.4999997615814,49.0,60.0,40.0,False,,370.8962919229764,[],"[683, 384]",ColorTask,64.0,46.0,,,HRV,HRV_0280,2022-11-30 20:57:31
,wl-rdm,163,437304,0.0-8.46-0.46,1.0,164.0,,,,,,,[],,,,,,73.6,1.0,i,1.0,True,650.1999998092651,39.0,60.0,40.0,False,,200.34823705375237,[],"[683, 384]",ColorTask,65.0,47.0,,,HRV,HRV_0280,2022-11-30 20:57:31
,wl-rdm,164,439338,0.0-8.47-0.47,1.0,165.0,,,,,,,[],,,,,,56.4,0.0,i,1.0,False,714.7000000476837,43.0,60.0,40.0,False,,235.76578249211968,[],"[683, 384]",ColorTask,64.0,48.0,,,HRV,HRV_0280,2022-11-30 20:57:31
,wl-rdm,165,441721,0.0-8.48-0.48,1.0,166.0,,,,,,,[],,,,,,50.0,1.0,i,1.0,True,947.5999999046326,55.0,60.0,40.0,False,,357.7629865097075,[],"[683, 384]",ColorTask,65.0,49.0,,,HRV,HRV_0280,2022-11-30 20:57:31
,wl-rdm,166,443737,0.0-8.49-0.49,1.0,167.0,,,,,,,[],,,,,,73.6,0.0,u,0.0,True,743.0,45.0,60.0,40.0,False,,211.34022624781045,[],"[683, 384]",ColorTask,66.0,50.0,,,HRV,HRV_0280,2022-11-30 20:57:31
,wl-rdm,167,445771,0.0-8.50-0.50,1.0,168.0,,,,,,,[],,,,,,62.5,1.0,i,1.0,True,625.0000002384186,38.0,60.0,40.0,False,,273.28984936388713,[],"[683, 384]",ColorTask,67.0,51.0,,,HRV,HRV_0280,2022-11-30 20:57:31
,wl-rdm,168,447872,0.0-8.51-0.51,1.0,169.0,,,,,,,[],,,,,,50.0,1.0,u,0.0,False,748.2000000476837,44.0,60.0,40.0,False,,270.357558829023,[],"[683, 384]",ColorTask,66.0,52.0,,,HRV,HRV_0280,2022-11-30 20:57:31
,wl-rdm,169,449921,0.0-8.52-0.52,1.0,170.0,,,,,,,[],,,,,,73.6,1.0,i,1.0,True,770.0999999046326,46.0,60.0,40.0,False,,205.79072460062707,[],"[683, 384]",ColorTask,67.0,53.0,,,HRV,HRV_0280,2022-11-30 20:57:31
,wl-rdm,170,451838,0.0-8.53-0.53,1.0,171.0,,,,,,,[],,,,,,87.9,0.0,u,0.0,True,624.1000001430511,36.0,60.0,40.0,False,,226.37257935700632,[],"[683, 384]",ColorTask,68.0,54.0,,,HRV,HRV_0280,2022-11-30 20:57:31
,wl-rdm,171,453871,0.0-8.54-0.54,1.0,172.0,,,,,,,[],,,,,,56.4,1.0,i,1.0,True,709.0,43.0,60.0,40.0,False,,238.0606534781188,[],"[683, 384]",ColorTask,69.0,55.0,,,HRV,HRV_0280,2022-11-30 20:57:31
,wl-rdm,172,455988,0.0-8.55-0.55,1.0,173.0,,,,,,,[],,,,,,62.5,1.0,u,0.0,False,743.3999998569489,45.0,60.0,40.0,False,,304.3675178006306,[],"[683, 384]",ColorTask,68.0,56.0,,,HRV,HRV_0280,2022-11-30 20:57:31
,wl-rdm,173,458323,0.0-8.56-0.56,1.0,174.0,,,,,,,[],,,,,,53.2,0.0,u,0.0,True,1026.2000000476837,62.0,60.0,40.0,False,,243.6157855418915,[],"[683, 384]",ColorTask,69.0,57.0,,,HRV,HRV_0280,2022-11-30 20:57:31
,wl-rdm,174,460355,0.0-8.57-0.57,1.0,175.0,,,,,,,[],,,,,,87.9,0.0,u,0.0,True,655.2000000476837,39.0,60.0,40.0,False,,306.55394163498954,[],"[683, 384]",ColorTask,70.0,58.0,,,HRV,HRV_0280,2022-11-30 20:57:31
,wl-rdm,175,462405,0.0-8.58-0.58,1.0,176.0,,,,,,,[],,,,,,56.4,0.0,i,1.0,False,744.5,45.0,60.0,40.0,False,,249.41453249745837,[],"[683, 384]",ColorTask,69.0,59.0,,,HRV,HRV_0280,2022-11-30 20:57:31
,wl-rdm,176,464355,0.0-8.59-0.59,1.0,177.0,,,,,,,[],,,,,,87.9,1.0,i,1.0,True,594.0,36.0,60.0,40.0,False,,280.3249686074941,[],"[683, 384]",ColorTask,70.0,60.0,,,HRV,HRV_0280,2022-11-30 20:57:31
,wl-rdm,177,466522,0.0-8.60-0.60,1.0,178.0,,,,,,,[],,,,,,53.2,1.0,u,0.0,False,726.5,44.0,60.0,40.0,False,,315.2678970221966,[],"[683, 384]",ColorTask,69.0,61.0,,,HRV,HRV_0280,2022-11-30 20:57:31
,wl-rdm,178,468555,0.0-8.61-0.61,1.0,179.0,,,,,,,[],,,,,,62.5,1.0,i,1.0,True,661.2999999523163,39.0,60.0,40.0,False,,287.33135019809873,[],"[683, 384]",ColorTask,70.0,62.0,,,HRV,HRV_0280,2022-11-30 20:57:31
,wl-rdm,179,470541,0.0-8.62-0.62,1.0,180.0,,,,,,,[],,,,,,73.6,1.0,i,1.0,True,629.2999999523163,38.0,60.0,40.0,False,,274.4381881855461,[],"[683, 384]",ColorTask,71.0,63.0,,,HRV,HRV_0280,2022-11-30 20:57:31
,wl-rdm,180,472656,0.0-8.63-0.63,1.0,181.0,,,,,,,[],,,,,,56.4,0.0,i,1.0,False,775.7000000476837,46.0,60.0,40.0,False,,268.89373025112525,[],"[683, 384]",ColorTask,70.0,64.0,,,HRV,HRV_0280,2022-11-30 20:57:31
,wl-rdm,181,474722,0.0-8.64-0.64,1.0,182.0,,,,,,,[],,,,,,73.6,1.0,i,1.0,True,666.9999997615814,40.0,60.0,40.0,False,,327.25472315327124,[],"[683, 384]",ColorTask,71.0,65.0,,,HRV,HRV_0280,2022-11-30 20:57:31
,wl-rdm,182,476806,0.0-8.65-0.65,1.0,183.0,,,,,,,[],,,,,,50.0,0.0,i,1.0,False,752.2000000476837,43.0,60.0,40.0,False,,250.86802425879165,[],"[683, 384]",ColorTask,70.0,66.0,,,HRV,HRV_0280,2022-11-30 20:57:31
,wl-rdm,183,478891,0.0-8.66-0.66,1.0,184.0,,,,,,,[],,,,,,50.0,1.0,u,0.0,False,742.3000001907349,45.0,60.0,40.0,False,,272.6194866314297,[],"[683, 384]",ColorTask,69.0,67.0,,,HRV,HRV_0280,2022-11-30 20:57:31
,wl-rdm,184,480989,0.0-8.67-0.67,1.0,185.0,,,,,,,[],,,,,,50.0,0.0,i,1.0,False,631.9000000953674,38.0,60.0,40.0,False,,391.68126795678205,[],"[683, 384]",ColorTask,68.0,68.0,,,HRV,HRV_0280,2022-11-30 20:57:31
,wl-rdm,185,482956,0.0-8.68-0.68,1.0,186.0,,,,,,,[],,,,,,73.6,0.0,u,0.0,True,594.9999997615814,35.0,60.0,40.0,False,,313.2106142655737,[],"[683, 384]",ColorTask,69.0,69.0,,,HRV,HRV_0280,2022-11-30 20:57:31
,wl-rdm,186,485007,0.0-8.69-0.69,1.0,187.0,,,,,,,[],,,,,,53.2,0.0,i,1.0,False,637.4000000953674,38.0,60.0,40.0,False,,334.7238684987322,[],"[683, 384]",ColorTask,68.0,70.0,,,HRV,HRV_0280,2022-11-30 20:57:31
,wl-rdm,187,487215,0.0-8.70-0.70,1.0,188.0,,,,,,,[],,,,,,50.0,0.0,i,1.0,False,783.8999998569489,46.0,60.0,40.0,False,,356.89456274829104,[],"[683, 384]",ColorTask,67.0,71.0,,,HRV,HRV_0280,2022-11-30 20:57:31
,wl-rdm,188,489274,0.0-8.71-0.71,1.0,189.0,,,,,,,[],,,,,,62.5,0.0,u,0.0,True,748.7000000476837,45.0,60.0,40.0,False,,223.95874682402092,[],"[683, 384]",ColorTask,68.0,72.0,,,HRV,HRV_0280,2022-11-30 20:57:31
,wl-rdm,189,491390,0.0-8.72-0.72,1.0,190.0,,,,,,,[],,,,,,50.0,0.0,i,1.0,False,677.5999999046326,41.0,60.0,40.0,False,,353.6858865620226,[],"[683, 384]",ColorTask,67.0,73.0,,,HRV,HRV_0280,2022-11-30 20:57:31
,wl-rdm,190,493361,0.0-8.73-0.73,1.0,191.0,,,,,,,[],,,,,,73.6,0.0,u,0.0,True,607.5,35.0,60.0,40.0,False,,298.9305995117027,[],"[683, 384]",ColorTask,68.0,74.0,,,HRV,HRV_0280,2022-11-30 20:57:31
,wl-rdm,191,495308,0.0-8.74-0.74,1.0,192.0,,,,,,,[],,,,,,87.9,0.0,u,0.0,True,605.7000000476837,37.0,60.0,40.0,False,,255.53581413091803,[],"[683, 384]",ColorTask,69.0,75.0,,,HRV,HRV_0280,2022-11-30 20:57:31
,wl-rdm,192,497291,0.0-8.75-0.75,1.0,193.0,,,,,,,[],,,,,,50.0,1.0,i,1.0,True,721.3999998569489,43.0,60.0,40.0,False,,200.09411386992653,[],"[683, 384]",ColorTask,70.0,76.0,,,HRV,HRV_0280,2022-11-30 20:57:31
,wl-rdm,193,499290,0.0-8.76-0.76,1.0,194.0,,,,,,,[],,,,,,87.9,1.0,i,1.0,True,658.9999997615814,40.0,60.0,40.0,False,,235.23377980956604,[],"[683, 384]",ColorTask,71.0,77.0,,,HRV,HRV_0280,2022-11-30 20:57:31
,wl-rdm,194,501290,0.0-8.77-0.77,1.0,195.0,,,,,,,[],,,,,,87.9,0.0,u,0.0,True,592.6000001430511,36.0,60.0,40.0,False,,316.7381766748321,[],"[683, 384]",ColorTask,72.0,78.0,,,HRV,HRV_0280,2022-11-30 20:57:31
,wl-rdm,195,503374,0.0-8.78-0.78,1.0,196.0,,,,,,,[],,,,,,53.2,1.0,i,1.0,True,701.7000000476837,42.0,60.0,40.0,False,,312.8531218310964,[],"[683, 384]",ColorTask,73.0,79.0,,,HRV,HRV_0280,2022-11-30 20:57:31
,wl-rdm,196,505325,0.0-8.79-0.79,1.0,197.0,,,,,,,[],,,,,,62.5,1.0,u,0.0,False,594.9999997615814,36.0,60.0,40.0,False,,282.23079246352916,[],"[683, 384]",ColorTask,72.0,80.0,,,HRV,HRV_0280,2022-11-30 20:57:31
,wl-rdm,197,507274,0.0-8.80-0.80,1.0,198.0,,,,,,,[],,,,,,73.6,0.0,u,0.0,True,657.7999999523163,37.0,60.0,40.0,False,,208.9328362368535,[],"[683, 384]",ColorTask,73.0,81.0,,,HRV,HRV_0280,2022-11-30 20:57:31
,wl-rdm,198,509274,0.0-8.81-0.81,1.0,199.0,,,,,,,[],,,,,,73.6,0.0,u,0.0,True,557.5,34.0,60.0,40.0,False,,364.59667858474256,[],"[683, 384]",ColorTask,74.0,82.0,,,HRV,HRV_0280,2022-11-30 20:57:31
,wl-rdm,199,511307,0.0-8.82-0.82,1.0,200.0,,,,,,,[],,,,,,73.6,1.0,i,1.0,True,666.2999997138977,40.0,60.0,40.0,False,,225.10690109398115,[],"[683, 384]",ColorTask,75.0,83.0,,,HRV,HRV_0280,2022-11-30 20:57:31
,wl-rdm,200,513307,0.0-8.83-0.83,1.0,201.0,,,,,,,[],,,,,,53.2,0.0,i,1.0,False,710.2000000476837,41.0,60.0,40.0,False,,223.37532977577789,[],"[683, 384]",ColorTask,74.0,84.0,,,HRV,HRV_0280,2022-11-30 20:57:31
,wl-rdm,201,515507,0.0-8.84-0.84,1.0,202.0,,,,,,,[],,,,,,56.4,0.0,i,1.0,False,791.7999999523163,48.0,60.0,40.0,False,,333.0350118181275,[],"[683, 384]",ColorTask,73.0,85.0,,,HRV,HRV_0280,2022-11-30 20:57:31
,wl-rdm,202,517658,0.0-8.85-0.85,1.0,203.0,,,,,,,[],,,,,,56.4,0.0,i,1.0,False,800.0999999046326,48.0,60.0,40.0,False,,279.7730494777132,[],"[683, 384]",ColorTask,72.0,86.0,,,HRV,HRV_0280,2022-11-30 20:57:31
,wl-rdm,203,519808,0.0-8.86-0.86,1.0,204.0,,,,,,,[],,,,,,50.0,0.0,u,0.0,True,691.0,42.0,60.0,40.0,False,,391.81258234794336,[],"[683, 384]",ColorTask,73.0,87.0,,,HRV,HRV_0280,2022-11-30 20:57:31
,wl-rdm,204,521908,0.0-8.87-0.87,1.0,205.0,,,,,,,[],,,,,,56.4,1.0,u,0.0,False,798.2999999523163,48.0,60.0,40.0,False,,233.01062383262416,[],"[683, 384]",ColorTask,72.0,88.0,,,HRV,HRV_0280,2022-11-30 20:57:31
,wl-rdm,205,523943,0.0-8.88-0.88,1.0,206.0,,,,,,,[],,,,,,62.5,1.0,i,1.0,True,592.1999998092651,35.0,60.0,40.0,False,,383.6013857692549,[],"[683, 384]",ColorTask,73.0,89.0,,,HRV,HRV_0280,2022-11-30 20:57:31
,wl-rdm,206,526158,0.0-8.89-0.89,1.0,207.0,,,,,,,[],,,,,,62.5,0.0,u,0.0,True,830.5999999046326,49.0,60.0,40.0,False,,310.960829937895,[],"[683, 384]",ColorTask,74.0,90.0,,,HRV,HRV_0280,2022-11-30 20:57:31
,wl-rdm,207,528242,0.0-8.90-0.90,1.0,208.0,,,,,,,[],,,,,,53.2,1.0,u,0.0,False,635.9999997615814,38.0,60.0,40.0,False,,378.11198938795394,[],"[683, 384]",ColorTask,73.0,91.0,,,HRV,HRV_0280,2022-11-30 20:57:31
,wl-rdm,208,530258,0.0-8.91-0.91,1.0,209.0,,,,,,,[],,,,,,50.0,1.0,i,1.0,True,661.8999998569489,40.0,60.0,40.0,False,,277.3043579315005,[],"[683, 384]",ColorTask,74.0,92.0,,,HRV,HRV_0280,2022-11-30 20:57:31
,wl-rdm,209,532258,0.0-8.92-0.92,1.0,210.0,,,,,,,[],,,,,,53.2,0.0,i,1.0,False,608.5,37.0,60.0,40.0,False,,302.8599212374275,[],"[683, 384]",ColorTask,73.0,93.0,,,HRV,HRV_0280,2022-11-30 20:57:31
,wl-rdm,210,534624,0.0-8.93-0.93,1.0,211.0,,,,,,,[],,,,,,53.2,1.0,i,1.0,True,1077.2999999523163,65.0,60.0,40.0,False,,227.79130593237346,[],"[683, 384]",ColorTask,74.0,94.0,,,HRV,HRV_0280,2022-11-30 20:57:31
,wl-rdm,211,536793,0.0-8.94-0.94,1.0,212.0,,,,,,,[],,,,,,87.9,0.0,u,0.0,True,708.6000001430511,43.0,60.0,40.0,False,,372.85546329122224,[],"[683, 384]",ColorTask,75.0,95.0,,,HRV,HRV_0280,2022-11-30 20:57:31
,wl-rdm,212,538907,0.0-8.95-0.95,1.0,213.0,,,,,,,[],,,,,,56.4,1.0,i,1.0,True,676.0000002384186,39.0,60.0,40.0,False,,358.3618980784852,[],"[683, 384]",ColorTask,76.0,96.0,,,HRV,HRV_0280,2022-11-30 20:57:31
,wl-rdm,213,540958,0.0-8.96-0.96,1.0,214.0,,,,,,,[],,,,,,50.0,0.0,i,1.0,False,667.2000000476837,40.0,60.0,40.0,False,,301.62545937200036,[],"[683, 384]",ColorTask,75.0,97.0,,,HRV,HRV_0280,2022-11-30 20:57:31
,wl-rdm,214,543077,0.0-8.97-0.97,1.0,215.0,,,,,,,[],,,,,,62.5,0.0,i,1.0,False,802.8000001907349,48.0,60.0,40.0,False,,239.9228350954506,[],"[683, 384]",ColorTask,74.0,98.0,,,HRV,HRV_0280,2022-11-30 20:57:31
,wl-rdm,215,545225,0.0-8.98-0.98,1.0,216.0,,,,,,,[],,,,,,73.6,1.0,i,1.0,True,736.400000333786,43.0,60.0,40.0,False,,337.36097222235946,[],"[683, 384]",ColorTask,75.0,99.0,,,HRV,HRV_0280,2022-11-30 20:57:31
,wl-rdm,216,547208,0.0-8.99-0.99,1.0,217.0,,,,,,,[],,,,,,73.6,0.0,u,0.0,True,660.4000000953674,40.0,60.0,40.0,False,,234.10436890140573,[],"[683, 384]",ColorTask,76.0,100.0,,,HRV,HRV_0280,2022-11-30 20:57:31
,wl-rdm,217,549525,0.0-8.100-0.100,1.0,218.0,,,,,,,[],,,,,,56.4,1.0,i,1.0,True,1025.3000001907349,61.0,60.0,40.0,False,,230.30457129947933,[],"[683, 384]",ColorTask,77.0,101.0,,,HRV,HRV_0280,2022-11-30 20:57:31
,wl-rdm,218,551720,0.0-8.101-0.101,1.0,219.0,,,,,,,[],,,,,,53.2,0.0,i,1.0,False,724.5000002384186,44.0,60.0,40.0,False,,357.68980790101875,[],"[683, 384]",ColorTask,76.0,102.0,,,HRV,HRV_0280,2022-11-30 20:57:31
,wl-rdm,219,553759,0.0-8.102-0.102,1.0,220.0,,,,,,,[],,,,,,87.9,1.0,i,1.0,True,654.8999998569489,39.0,60.0,40.0,False,,312.129228021078,[],"[683, 384]",ColorTask,77.0,103.0,,,HRV,HRV_0280,2022-11-30 20:57:31
,wl-rdm,220,555692,0.0-8.103-0.103,1.0,221.0,,,,,,,[],,,,,,87.9,1.0,i,1.0,True,624.6999998092651,37.0,60.0,40.0,False,,226.06263308151682,[],"[683, 384]",ColorTask,78.0,104.0,,,HRV,HRV_0280,2022-11-30 20:57:31
,wl-rdm,221,558026,0.0-8.104-0.104,1.0,222.0,,,,,,,[],,,,,,50.0,1.0,u,0.0,False,964.4000000953674,57.0,60.0,40.0,False,,286.0200588698476,[],"[683, 384]",ColorTask,77.0,105.0,,,HRV,HRV_0280,2022-11-30 20:57:31
,wl-rdm,222,560025,0.0-8.105-0.105,1.0,223.0,,,,,,,[],,,,,,53.2,1.0,i,1.0,True,558.5,34.0,60.0,40.0,False,,363.0939087847752,[],"[683, 384]",ColorTask,78.0,106.0,,,HRV,HRV_0280,2022-11-30 20:57:31
,wl-rdm,223,562075,0.0-8.106-0.106,1.0,224.0,,,,,,,[],,,,,,50.0,0.0,i,1.0,False,713.9000000953674,43.0,60.0,40.0,False,,279.19427291274377,[],"[683, 384]",ColorTask,77.0,107.0,,,HRV,HRV_0280,2022-11-30 20:57:31
,wl-rdm,224,564092,0.0-8.107-0.107,1.0,225.0,,,,,,,[],,,,,,62.5,0.0,u,0.0,True,607.5999999046326,37.0,60.0,40.0,False,,323.0146390715392,[],"[683, 384]",ColorTask,78.0,108.0,,,HRV,HRV_0280,2022-11-30 20:57:31
,wl-html-button-response,225,566800,0.0-9.0-0.0,,,,,,,,,,2697.7000000476837,,0,,,,,,,,,,,,,,,,,,,,<h3>End of this session. Thank you!</h3><br>,['Close window'],HRV,HRV_0280,2022-11-30 20:57:31
