trialN,stimuli,question,trialStartTime,trialStartTime_UNIX,stimulus1,rt,receivedResponse,rating,trialEndTime,trialDuration,stimulus1Loaded,exp,subjectId,date
0,"[{'imgObject': {}, 'id': 'sweetpotato', 'src': '/static/foodstim60/sweetpotato.jpg', 'key': 'NaN', 'origWidth': 410, 'origHeight': 410, 'width': 410, 'height': 410, 'widthPercent': 0.8, 'rescaleHeight': True, 'trialN': 0, 'loaded': True, 'loadedTime': 2472.199999809265, 'positionName': 'CENTER', 'positionCoords': [515, 245]}]",Rate how much you want to eat this food from 0 (least) to 10 (most).,2566.4000000953674,1669830144977,sweetpotato,2500.3999996185303,True,7.58,5066.799999713898,2500.3999996185303,True,HRV,HRV_0037,2022-11-30 17:44:43
1,"[{'imgObject': {}, 'id': 'cheerios', 'src': '/static/foodstim60/cheerios.jpg', 'key': 'NaN', 'origWidth': 409, 'origHeight': 410, 'width': 409, 'height': 410, 'widthPercent': 0.8, 'rescaleHeight': True, 'trialN': 1, 'loaded': True, 'loadedTime': 2478.7999997138977, 'positionName': 'CENTER', 'positionCoords': [515.5, 245]}]",Rate how much you want to eat this food from 0 (least) to 10 (most).,5071.400000095367,1669830147482,cheerios,2519.2999997138977,True,1.37,7590.699999809265,2519.2999997138977,True,HRV,HRV_0037,2022-11-30 17:44:43
2,"[{'imgObject': {}, 'id': 'roastedpotatoes', 'src': '/static/foodstim60/roastedpotatoes.jpg', 'key': 'NaN', 'origWidth': 409, 'origHeight': 410, 'width': 409, 'height': 410, 'widthPercent': 0.8, 'rescaleHeight': True, 'trialN': 2, 'loaded': True, 'loadedTime': 2479.699999809265, 'positionName': 'CENTER', 'positionCoords': [515.5, 245]}]",Rate how much you want to eat this food from 0 (least) to 10 (most).,7592.0,1669830150003,roastedpotatoes,2432.7999997138977,True,9.44,10024.799999713898,2432.7999997138977,True,HRV,HRV_0037,2022-11-30 17:44:43
3,"[{'imgObject': {}, 'id': 'banana', 'src': '/static/foodstim60/banana.jpg', 'key': 'NaN', 'origWidth': 410, 'origHeight': 410, 'width': 410, 'height': 410, 'widthPercent': 0.8, 'rescaleHeight': True, 'trialN': 3, 'loaded': True, 'loadedTime': 2480.699999809265, 'positionName': 'CENTER', 'positionCoords': [515, 245]}]",Rate how much you want to eat this food from 0 (least) to 10 (most).,10027.5,1669830152438,banana,2225.2999997138977,True,5.68,12252.799999713898,2225.2999997138977,True,HRV,HRV_0037,2022-11-30 17:44:43
4,"[{'imgObject': {}, 'id': 'grilled chicken strips', 'src': '/static/foodstim60/grilled chicken strips.jpg', 'key': 'NaN', 'origWidth': 410, 'origHeight': 411, 'width': 410, 'height': 411, 'widthPercent': 0.8, 'rescaleHeight': True, 'trialN': 4, 'loaded': True, 'loadedTime': 2486.2999997138977, 'positionName': 'CENTER', 'positionCoords': [515, 244.5]}]",Rate how much you want to eat this food from 0 (least) to 10 (most).,12255.5,1669830154666,grilled chicken strips,2453.2999997138977,True,2.91,14708.799999713898,2453.2999997138977,True,HRV,HRV_0037,2022-11-30 17:44:43
5,"[{'imgObject': {}, 'id': 'cocktailshrimp', 'src': '/static/foodstim60/cocktailshrimp.jpg', 'key': 'NaN', 'origWidth': 410, 'origHeight': 410, 'width': 410, 'height': 410, 'widthPercent': 0.8, 'rescaleHeight': True, 'trialN': 5, 'loaded': True, 'loadedTime': 2487.199999809265, 'positionName': 'CENTER', 'positionCoords': [515, 245]}]",Rate how much you want to eat this food from 0 (least) to 10 (most).,14711.400000095367,1669830157122,cocktailshrimp,2097.3999996185303,True,9.370000000000001,16808.799999713898,2097.3999996185303,True,HRV,HRV_0037,2022-11-30 17:44:43
6,"[{'imgObject': {}, 'id': 'sushi w_condiments', 'src': '/static/foodstim60/sushi w_condiments.jpg', 'key': 'NaN', 'origWidth': 410, 'origHeight': 410, 'width': 410, 'height': 410, 'widthPercent': 0.8, 'rescaleHeight': True, 'trialN': 6, 'loaded': True, 'loadedTime': 2488.699999809265, 'positionName': 'CENTER', 'positionCoords': [515, 245]}]",Rate how much you want to eat this food from 0 (least) to 10 (most).,16811.299999713898,1669830159222,sushi w_condiments,1763.5,True,9.97,18574.799999713898,1763.5,True,HRV,HRV_0037,2022-11-30 17:44:43
7,"[{'imgObject': {}, 'id': 'luckycharms', 'src': '/static/foodstim60/luckycharms.jpg', 'key': 'NaN', 'origWidth': 410, 'origHeight': 409, 'width': 410, 'height': 409, 'widthPercent': 0.8, 'rescaleHeight': True, 'trialN': 7, 'loaded': True, 'loadedTime': 2489.4000000953674, 'positionName': 'CENTER', 'positionCoords': [515, 245.5]}]",Rate how much you want to eat this food from 0 (least) to 10 (most).,18577.299999713898,1669830160988,luckycharms,2539.5,True,0.23,21116.799999713898,2539.5,True,HRV,HRV_0037,2022-11-30 17:44:43
8,"[{'imgObject': {}, 'id': 'raisin bran w milk', 'src': '/static/foodstim60/raisin bran w milk.jpg', 'key': 'NaN', 'origWidth': 411, 'origHeight': 411, 'width': 411, 'height': 411, 'widthPercent': 0.8, 'rescaleHeight': True, 'trialN': 8, 'loaded': True, 'loadedTime': 2490.199999809265, 'positionName': 'CENTER', 'positionCoords': [514.5, 244.5]}]",Rate how much you want to eat this food from 0 (least) to 10 (most).,21119.599999904633,1669830163530,raisin bran w milk,2333.199999809265,True,0.6900000000000001,23452.799999713898,2333.199999809265,True,HRV,HRV_0037,2022-11-30 17:44:43
9,"[{'imgObject': {}, 'id': 'omelette', 'src': '/static/foodstim60/omelette.jpg', 'key': 'NaN', 'origWidth': 410, 'origHeight': 409, 'width': 410, 'height': 409, 'widthPercent': 0.8, 'rescaleHeight': True, 'trialN': 9, 'loaded': True, 'loadedTime': 2496.7999997138977, 'positionName': 'CENTER', 'positionCoords': [515, 245.5]}]",Rate how much you want to eat this food from 0 (least) to 10 (most).,23456.799999713898,1669830165867,omelette,2346.0,True,3.66,25802.799999713898,2346.0,True,HRV,HRV_0037,2022-11-30 17:44:43
10,"[{'imgObject': {}, 'id': 'eggsalad', 'src': '/static/foodstim60/eggsalad.jpg', 'key': 'NaN', 'origWidth': 410, 'origHeight': 409, 'width': 410, 'height': 409, 'widthPercent': 0.8, 'rescaleHeight': True, 'trialN': 10, 'loaded': True, 'loadedTime': 2498, 'positionName': 'CENTER', 'positionCoords': [515, 245.5]}]",Rate how much you want to eat this food from 0 (least) to 10 (most).,25805.799999713898,1669830168216,eggsalad,2743.0,True,4.83,28548.799999713898,2743.0,True,HRV,HRV_0037,2022-11-30 17:44:43
11,"[{'imgObject': {}, 'id': 'turkeysandwich', 'src': '/static/foodstim60/turkeysandwich.jpg', 'key': 'NaN', 'origWidth': 409, 'origHeight': 409, 'width': 409, 'height': 409, 'widthPercent': 0.8, 'rescaleHeight': True, 'trialN': 11, 'loaded': True, 'loadedTime': 2498.7999997138977, 'positionName': 'CENTER', 'positionCoords': [515.5, 245.5]}]",Rate how much you want to eat this food from 0 (least) to 10 (most).,28551.900000095367,1669830170962,turkeysandwich,2514.699999809265,True,8.77,31066.599999904633,2514.699999809265,True,HRV,HRV_0037,2022-11-30 17:44:43
12,"[{'imgObject': {}, 'id': 'Grapes', 'src': '/static/foodstim60/Grapes.jpg', 'key': 'NaN', 'origWidth': 411, 'origHeight': 411, 'width': 411, 'height': 411, 'widthPercent': 0.8, 'rescaleHeight': True, 'trialN': 12, 'loaded': True, 'loadedTime': 2512, 'positionName': 'CENTER', 'positionCoords': [514.5, 244.5]}]",Rate how much you want to eat this food from 0 (least) to 10 (most).,31069.5,1669830173479,Grapes,2261.2999997138977,True,9.27,33330.7999997139,2261.2999997138977,True,HRV,HRV_0037,2022-11-30 17:44:43
13,"[{'imgObject': {}, 'id': 'mac & cheese', 'src': '/static/foodstim60/mac & cheese.jpg', 'key': 'NaN', 'origWidth': 410, 'origHeight': 410, 'width': 410, 'height': 410, 'widthPercent': 0.8, 'rescaleHeight': True, 'trialN': 13, 'loaded': True, 'loadedTime': 2513.0999999046326, 'positionName': 'CENTER', 'positionCoords': [515, 245]}]",Rate how much you want to eat this food from 0 (least) to 10 (most).,33333.7999997139,1669830175744,mac & cheese,2104.9000000953674,True,9.040000000000001,35438.699999809265,2104.9000000953674,True,HRV,HRV_0037,2022-11-30 17:44:43
14,"[{'imgObject': {}, 'id': 'froot loops w milk', 'src': '/static/foodstim60/froot loops w milk.jpg', 'key': 'NaN', 'origWidth': 410, 'origHeight': 410, 'width': 410, 'height': 410, 'widthPercent': 0.8, 'rescaleHeight': True, 'trialN': 14, 'loaded': True, 'loadedTime': 2515.2999997138977, 'positionName': 'CENTER', 'positionCoords': [515, 245]}]",Rate how much you want to eat this food from 0 (least) to 10 (most).,35441.59999990463,1669830177851,froot loops w milk,2229.199999809265,True,0.06,37670.7999997139,2229.199999809265,True,HRV,HRV_0037,2022-11-30 17:44:43
15,"[{'imgObject': {}, 'id': 'mango', 'src': '/static/foodstim60/mango.jpg', 'key': 'NaN', 'origWidth': 411, 'origHeight': 411, 'width': 411, 'height': 411, 'widthPercent': 0.8, 'rescaleHeight': True, 'trialN': 15, 'loaded': True, 'loadedTime': 2518.5, 'positionName': 'CENTER', 'positionCoords': [514.5, 244.5]}]",Rate how much you want to eat this food from 0 (least) to 10 (most).,37674.0,1669830180084,mango,2192.7999997138977,True,5.44,39866.7999997139,2192.7999997138977,True,HRV,HRV_0037,2022-11-30 17:44:43
16,"[{'imgObject': {}, 'id': 'yogurt no spoon', 'src': '/static/foodstim60/yogurt no spoon.jpg', 'key': 'NaN', 'origWidth': 411, 'origHeight': 410, 'width': 411, 'height': 410, 'widthPercent': 0.8, 'rescaleHeight': True, 'trialN': 16, 'loaded': True, 'loadedTime': 2519.199999809265, 'positionName': 'CENTER', 'positionCoords': [514.5, 245]}]",Rate how much you want to eat this food from 0 (least) to 10 (most).,39870.0,1669830182280,yogurt no spoon,2638.699999809265,True,4.88,42508.699999809265,2638.699999809265,True,HRV,HRV_0037,2022-11-30 17:44:43
17,"[{'imgObject': {}, 'id': 'blueberries', 'src': '/static/foodstim60/blueberries.jpg', 'key': 'NaN', 'origWidth': 411, 'origHeight': 411, 'width': 411, 'height': 411, 'widthPercent': 0.8, 'rescaleHeight': True, 'trialN': 17, 'loaded': True, 'loadedTime': 2520.199999809265, 'positionName': 'CENTER', 'positionCoords': [514.5, 244.5]}]",Rate how much you want to eat this food from 0 (least) to 10 (most).,42511.7999997139,1669830184921,blueberries,1855.0,True,6.4,44366.7999997139,1855.0,True,HRV,HRV_0037,2022-11-30 17:44:43
18,"[{'imgObject': {}, 'id': 'avocado', 'src': '/static/foodstim60/avocado.jpg', 'key': 'NaN', 'origWidth': 409, 'origHeight': 409, 'width': 409, 'height': 409, 'widthPercent': 0.8, 'rescaleHeight': True, 'trialN': 18, 'loaded': True, 'loadedTime': 2529.199999809265, 'positionName': 'CENTER', 'positionCoords': [515.5, 245.5]}]",Rate how much you want to eat this food from 0 (least) to 10 (most).,44370.0,1669830186780,avocado,2260.9000000953674,True,8.34,46630.90000009537,2260.9000000953674,True,HRV,HRV_0037,2022-11-30 17:44:43
19,"[{'imgObject': {}, 'id': 'eggs', 'src': '/static/foodstim60/eggs.jpg', 'key': 'NaN', 'origWidth': 409, 'origHeight': 409, 'width': 409, 'height': 409, 'widthPercent': 0.8, 'rescaleHeight': True, 'trialN': 19, 'loaded': True, 'loadedTime': 2530.0999999046326, 'positionName': 'CENTER', 'positionCoords': [515.5, 245.5]}]",Rate how much you want to eat this food from 0 (least) to 10 (most).,46633.199999809265,1669830189043,eggs,2211.5999999046326,True,4.0200000000000005,48844.7999997139,2211.5999999046326,True,HRV,HRV_0037,2022-11-30 17:44:43
20,"[{'imgObject': {}, 'id': 'olives', 'src': '/static/foodstim60/olives.jpg', 'key': 'NaN', 'origWidth': 410, 'origHeight': 410, 'width': 410, 'height': 410, 'widthPercent': 0.8, 'rescaleHeight': True, 'trialN': 20, 'loaded': True, 'loadedTime': 2533.199999809265, 'positionName': 'CENTER', 'positionCoords': [515, 245]}]",Rate how much you want to eat this food from 0 (least) to 10 (most).,48847.40000009537,1669830191257,olives,2067.3999996185303,True,8.16,50914.7999997139,2067.3999996185303,True,HRV,HRV_0037,2022-11-30 17:44:43
21,"[{'imgObject': {}, 'id': 'fruitsalad', 'src': '/static/foodstim60/fruitsalad.jpg', 'key': 'NaN', 'origWidth': 410, 'origHeight': 410, 'width': 410, 'height': 410, 'widthPercent': 0.8, 'rescaleHeight': True, 'trialN': 21, 'loaded': True, 'loadedTime': 2539.5999999046326, 'positionName': 'CENTER', 'positionCoords': [515, 245]}]",Rate how much you want to eat this food from 0 (least) to 10 (most).,50917.2999997139,1669830193327,fruitsalad,1881.5,True,4.63,52798.7999997139,1881.5,True,HRV,HRV_0037,2022-11-30 17:44:43
22,"[{'imgObject': {}, 'id': 'shreddedwheatwithmilk', 'src': '/static/foodstim60/shreddedwheatwithmilk.jpg', 'key': 'NaN', 'origWidth': 410, 'origHeight': 410, 'width': 410, 'height': 410, 'widthPercent': 0.8, 'rescaleHeight': True, 'trialN': 22, 'loaded': True, 'loadedTime': 2542.0999999046326, 'positionName': 'CENTER', 'positionCoords': [515, 245]}]",Rate how much you want to eat this food from 0 (least) to 10 (most).,52801.2999997139,1669830195211,shreddedwheatwithmilk,2503.4000000953674,True,1.04,55304.699999809265,2503.4000000953674,True,HRV,HRV_0037,2022-11-30 17:44:43
23,"[{'imgObject': {}, 'id': 'veggieswithdip', 'src': '/static/foodstim60/veggieswithdip.jpg', 'key': 'NaN', 'origWidth': 409, 'origHeight': 409, 'width': 409, 'height': 409, 'widthPercent': 0.8, 'rescaleHeight': True, 'trialN': 23, 'loaded': True, 'loadedTime': 2543.9000000953674, 'positionName': 'CENTER', 'positionCoords': [515.5, 245.5]}]",Rate how much you want to eat this food from 0 (least) to 10 (most).,55307.2999997139,1669830197716,veggieswithdip,1775.5,True,9.4,57082.7999997139,1775.5,True,HRV,HRV_0037,2022-11-30 17:44:43
24,"[{'imgObject': {}, 'id': 'popsicles', 'src': '/static/foodstim60/popsicles.jpg', 'key': 'NaN', 'origWidth': 410, 'origHeight': 410, 'width': 410, 'height': 410, 'widthPercent': 0.8, 'rescaleHeight': True, 'trialN': 24, 'loaded': True, 'loadedTime': 2514, 'positionName': 'CENTER', 'positionCoords': [515, 245]}]",Rate how much you want to eat this food from 0 (least) to 10 (most).,57085.40000009537,1669830199495,popsicles,1973.3999996185303,True,0.0,59058.7999997139,1973.3999996185303,True,HRV,HRV_0037,2022-11-30 17:44:43
25,"[{'imgObject': {}, 'id': 'cantaloupe', 'src': '/static/foodstim60/cantaloupe.jpg', 'key': 'NaN', 'origWidth': 409, 'origHeight': 409, 'width': 409, 'height': 409, 'widthPercent': 0.8, 'rescaleHeight': True, 'trialN': 25, 'loaded': True, 'loadedTime': 2514.5999999046326, 'positionName': 'CENTER', 'positionCoords': [515.5, 245.5]}]",Rate how much you want to eat this food from 0 (least) to 10 (most).,59061.59999990463,1669830201471,cantaloupe,2989.0999999046326,True,4.2,62050.699999809265,2989.0999999046326,True,HRV,HRV_0037,2022-11-30 17:44:43
26,"[{'imgObject': {}, 'id': 'chickenfingers', 'src': '/static/foodstim60/chickenfingers.jpg', 'key': 'NaN', 'origWidth': 410, 'origHeight': 410, 'width': 410, 'height': 410, 'widthPercent': 0.8, 'rescaleHeight': True, 'trialN': 26, 'loaded': True, 'loadedTime': 2517.7999997138977, 'positionName': 'CENTER', 'positionCoords': [515, 245]}]",Rate how much you want to eat this food from 0 (least) to 10 (most).,62053.699999809265,1669830204463,chickenfingers,2029.0999999046326,True,5.69,64082.7999997139,2029.0999999046326,True,HRV,HRV_0037,2022-11-30 17:44:43
27,"[{'imgObject': {}, 'id': 'fried eggs', 'src': '/static/foodstim60/fried eggs.jpg', 'key': 'NaN', 'origWidth': 410, 'origHeight': 410, 'width': 410, 'height': 410, 'widthPercent': 0.8, 'rescaleHeight': True, 'trialN': 27, 'loaded': True, 'loadedTime': 2520.7999997138977, 'positionName': 'CENTER', 'positionCoords': [515, 245]}]",Rate how much you want to eat this food from 0 (least) to 10 (most).,64085.59999990463,1669830206495,fried eggs,1911.1999998092651,True,4.12,65996.7999997139,1911.1999998092651,True,HRV,HRV_0037,2022-11-30 17:44:43
28,"[{'imgObject': {}, 'id': 'salmon', 'src': '/static/foodstim60/salmon.jpg', 'key': 'NaN', 'origWidth': 410, 'origHeight': 409, 'width': 410, 'height': 409, 'widthPercent': 0.8, 'rescaleHeight': True, 'trialN': 28, 'loaded': True, 'loadedTime': 2523.4000000953674, 'positionName': 'CENTER', 'positionCoords': [515, 245.5]}]",Rate how much you want to eat this food from 0 (least) to 10 (most).,65999.59999990463,1669830208408,salmon,2785.0999999046326,True,4.95,68784.69999980927,2785.0999999046326,True,HRV,HRV_0037,2022-11-30 17:44:43
29,"[{'imgObject': {}, 'id': 'rigatoni', 'src': '/static/foodstim60/rigatoni.jpg', 'key': 'NaN', 'origWidth': 411, 'origHeight': 411, 'width': 411, 'height': 411, 'widthPercent': 0.8, 'rescaleHeight': True, 'trialN': 29, 'loaded': True, 'loadedTime': 2524.4000000953674, 'positionName': 'CENTER', 'positionCoords': [514.5, 244.5]}]",Rate how much you want to eat this food from 0 (least) to 10 (most).,68787.59999990463,1669830211196,rigatoni,2007.1999998092651,True,1.11,70794.7999997139,2007.1999998092651,True,HRV,HRV_0037,2022-11-30 17:44:43
30,"[{'imgObject': {}, 'id': 'hashbrowns', 'src': '/static/foodstim60/hashbrowns.jpg', 'key': 'NaN', 'origWidth': 411, 'origHeight': 410, 'width': 411, 'height': 410, 'widthPercent': 0.8, 'rescaleHeight': True, 'trialN': 30, 'loaded': True, 'loadedTime': 2525.199999809265, 'positionName': 'CENTER', 'positionCoords': [514.5, 245]}]",Rate how much you want to eat this food from 0 (least) to 10 (most).,70797.2999997139,1669830213206,hashbrowns,3841.5,True,5.0200000000000005,74638.7999997139,3841.5,True,HRV,HRV_0037,2022-11-30 17:44:43
31,"[{'imgObject': {}, 'id': 'cherries', 'src': '/static/foodstim60/cherries.jpg', 'key': 'NaN', 'origWidth': 410, 'origHeight': 411, 'width': 410, 'height': 411, 'widthPercent': 0.8, 'rescaleHeight': True, 'trialN': 31, 'loaded': True, 'loadedTime': 2526.199999809265, 'positionName': 'CENTER', 'positionCoords': [515, 244.5]}]",Rate how much you want to eat this food from 0 (least) to 10 (most).,74641.7999997139,1669830217050,cherries,1811.0,True,8.43,76452.7999997139,1811.0,True,HRV,HRV_0037,2022-11-30 17:44:43
32,"[{'imgObject': {}, 'id': 'tacos', 'src': '/static/foodstim60/tacos.jpg', 'key': 'NaN', 'origWidth': 411, 'origHeight': 411, 'width': 411, 'height': 411, 'widthPercent': 0.8, 'rescaleHeight': True, 'trialN': 32, 'loaded': True, 'loadedTime': 2526.9000000953674, 'positionName': 'CENTER', 'positionCoords': [514.5, 244.5]}]",Rate how much you want to eat this food from 0 (least) to 10 (most).,76455.90000009537,1669830218864,tacos,2246.8999996185303,True,9.73,78702.7999997139,2246.8999996185303,True,HRV,HRV_0037,2022-11-30 17:44:43
33,"[{'imgObject': {}, 'id': 'baked potato', 'src': '/static/foodstim60/baked potato.jpg', 'key': 'NaN', 'origWidth': 409, 'origHeight': 410, 'width': 409, 'height': 410, 'widthPercent': 0.8, 'rescaleHeight': True, 'trialN': 33, 'loaded': True, 'loadedTime': 2530.9000000953674, 'positionName': 'CENTER', 'positionCoords': [515.5, 245]}]",Rate how much you want to eat this food from 0 (least) to 10 (most).,78705.69999980927,1669830221114,baked potato,2257.0999999046326,True,1.5,80962.7999997139,2257.0999999046326,True,HRV,HRV_0037,2022-11-30 17:44:43
34,"[{'imgObject': {}, 'id': 'strawberries', 'src': '/static/foodstim60/strawberries.jpg', 'key': 'NaN', 'origWidth': 410, 'origHeight': 410, 'width': 410, 'height': 410, 'widthPercent': 0.8, 'rescaleHeight': True, 'trialN': 34, 'loaded': True, 'loadedTime': 2532.199999809265, 'positionName': 'CENTER', 'positionCoords': [515, 245]}]",Rate how much you want to eat this food from 0 (least) to 10 (most).,80966.0,1669830223374,strawberries,3000.7999997138977,True,4.97,83966.7999997139,3000.7999997138977,True,HRV,HRV_0037,2022-11-30 17:44:43
35,"[{'imgObject': {}, 'id': 'cherry tomato', 'src': '/static/foodstim60/cherry tomato.jpg', 'key': 'NaN', 'origWidth': 410, 'origHeight': 410, 'width': 410, 'height': 410, 'widthPercent': 0.8, 'rescaleHeight': True, 'trialN': 35, 'loaded': True, 'loadedTime': 2536.0999999046326, 'positionName': 'CENTER', 'positionCoords': [515, 245]}]",Rate how much you want to eat this food from 0 (least) to 10 (most).,83970.19999980927,1669830226379,cherry tomato,2070.5999999046326,True,4.5200000000000005,86040.7999997139,2070.5999999046326,True,HRV,HRV_0037,2022-11-30 17:44:43
36,"[{'imgObject': {}, 'id': 'ice cream sundae 002', 'src': '/static/foodstim60/ice cream sundae 002.jpg', 'key': 'NaN', 'origWidth': 409, 'origHeight': 409, 'width': 409, 'height': 409, 'widthPercent': 0.8, 'rescaleHeight': True, 'trialN': 36, 'loaded': True, 'loadedTime': 2537, 'positionName': 'CENTER', 'positionCoords': [515.5, 245.5]}]",Rate how much you want to eat this food from 0 (least) to 10 (most).,86043.2999997139,1669830228452,ice cream sundae 002,2159.5,True,3.66,88202.7999997139,2159.5,True,HRV,HRV_0037,2022-11-30 17:44:43
37,"[{'imgObject': {}, 'id': 'orange slices', 'src': '/static/foodstim60/orange slices.jpg', 'key': 'NaN', 'origWidth': 409, 'origHeight': 410, 'width': 409, 'height': 410, 'widthPercent': 0.8, 'rescaleHeight': True, 'trialN': 37, 'loaded': True, 'loadedTime': 2537.7999997138977, 'positionName': 'CENTER', 'positionCoords': [515.5, 245]}]",Rate how much you want to eat this food from 0 (least) to 10 (most).,88205.19999980927,1669830230613,orange slices,1823.5999999046326,True,5.66,90028.7999997139,1823.5999999046326,True,HRV,HRV_0037,2022-11-30 17:44:43
38,"[{'imgObject': {}, 'id': 'granola w milk', 'src': '/static/foodstim60/granola w milk.jpg', 'key': 'NaN', 'origWidth': 410, 'origHeight': 410, 'width': 410, 'height': 410, 'widthPercent': 0.8, 'rescaleHeight': True, 'trialN': 38, 'loaded': True, 'loadedTime': 2538.699999809265, 'positionName': 'CENTER', 'positionCoords': [515, 245]}]",Rate how much you want to eat this food from 0 (least) to 10 (most).,90031.2999997139,1669830232439,granola w milk,3057.4000000953674,True,1.09,93088.69999980927,3057.4000000953674,True,HRV,HRV_0037,2022-11-30 17:44:43
39,"[{'imgObject': {}, 'id': 'chicken nuggets2', 'src': '/static/foodstim60/chicken nuggets2.jpg', 'key': 'NaN', 'origWidth': 410, 'origHeight': 409, 'width': 410, 'height': 409, 'widthPercent': 0.8, 'rescaleHeight': True, 'trialN': 39, 'loaded': True, 'loadedTime': 2543, 'positionName': 'CENTER', 'positionCoords': [515, 245.5]}]",Rate how much you want to eat this food from 0 (least) to 10 (most).,93090.0,1669830235498,chicken nuggets2,2314.7999997138977,True,8.88,95404.7999997139,2314.7999997138977,True,HRV,HRV_0037,2022-11-30 17:44:43
40,"[{'imgObject': {}, 'id': 'raspberries', 'src': '/static/foodstim60/raspberries.jpg', 'key': 'NaN', 'origWidth': 411, 'origHeight': 411, 'width': 411, 'height': 411, 'widthPercent': 0.8, 'rescaleHeight': True, 'trialN': 40, 'loaded': True, 'loadedTime': 2544.699999809265, 'positionName': 'CENTER', 'positionCoords': [514.5, 244.5]}]",Rate how much you want to eat this food from 0 (least) to 10 (most).,95407.40000009537,1669830237815,raspberries,1909.3999996185303,True,9.26,97316.7999997139,1909.3999996185303,True,HRV,HRV_0037,2022-11-30 17:44:43
41,"[{'imgObject': {}, 'id': 'hotdog w must', 'src': '/static/foodstim60/hotdog w must.jpg', 'key': 'NaN', 'origWidth': 409, 'origHeight': 409, 'width': 409, 'height': 409, 'widthPercent': 0.8, 'rescaleHeight': True, 'trialN': 41, 'loaded': True, 'loadedTime': 2545.5, 'positionName': 'CENTER', 'positionCoords': [515.5, 245.5]}]",Rate how much you want to eat this food from 0 (least) to 10 (most).,97319.5,1669830239727,hotdog w must,2177.2999997138977,True,8.370000000000001,99496.7999997139,2177.2999997138977,True,HRV,HRV_0037,2022-11-30 17:44:43
42,"[{'imgObject': {}, 'id': 'mashed potato', 'src': '/static/foodstim60/mashed potato.jpg', 'key': 'NaN', 'origWidth': 409, 'origHeight': 409, 'width': 409, 'height': 409, 'widthPercent': 0.8, 'rescaleHeight': True, 'trialN': 42, 'loaded': True, 'loadedTime': 2547.7999997138977, 'positionName': 'CENTER', 'positionCoords': [515.5, 245.5]}]",Rate how much you want to eat this food from 0 (least) to 10 (most).,99499.5,1669830241907,mashed potato,3477.2999997138977,True,8.870000000000001,102976.7999997139,3477.2999997138977,True,HRV,HRV_0037,2022-11-30 17:44:43
43,"[{'imgObject': {}, 'id': 'bagel and cc', 'src': '/static/foodstim60/bagel and cc.jpg', 'key': 'NaN', 'origWidth': 410, 'origHeight': 410, 'width': 410, 'height': 410, 'widthPercent': 0.8, 'rescaleHeight': True, 'trialN': 43, 'loaded': True, 'loadedTime': 2548.5999999046326, 'positionName': 'CENTER', 'positionCoords': [515, 245]}]",Rate how much you want to eat this food from 0 (least) to 10 (most).,102979.59999990463,1669830245387,bagel and cc,2343.199999809265,True,3.38,105322.7999997139,2343.199999809265,True,HRV,HRV_0037,2022-11-30 17:44:43
44,"[{'imgObject': {}, 'id': 'apple slices', 'src': '/static/foodstim60/apple slices.jpg', 'key': 'NaN', 'origWidth': 409, 'origHeight': 410, 'width': 409, 'height': 410, 'widthPercent': 0.8, 'rescaleHeight': True, 'trialN': 44, 'loaded': True, 'loadedTime': 2549.2999997138977, 'positionName': 'CENTER', 'positionCoords': [515.5, 245]}]",Rate how much you want to eat this food from 0 (least) to 10 (most).,105325.5,1669830247733,apple slices,1935.2999997138977,True,5.91,107260.7999997139,1935.2999997138977,True,HRV,HRV_0037,2022-11-30 17:44:43
45,"[{'imgObject': {}, 'id': 'kiwi', 'src': '/static/foodstim60/kiwi.jpg', 'key': 'NaN', 'origWidth': 410, 'origHeight': 410, 'width': 410, 'height': 410, 'widthPercent': 0.8, 'rescaleHeight': True, 'trialN': 45, 'loaded': True, 'loadedTime': 2550, 'positionName': 'CENTER', 'positionCoords': [515, 245]}]",Rate how much you want to eat this food from 0 (least) to 10 (most).,107263.59999990463,1669830249671,kiwi,2215.0999999046326,True,9.11,109478.69999980927,2215.0999999046326,True,HRV,HRV_0037,2022-11-30 17:44:43
46,"[{'imgObject': {}, 'id': 'seaweed', 'src': '/static/foodstim60/seaweed.jpg', 'key': 'NaN', 'origWidth': 410, 'origHeight': 410, 'width': 410, 'height': 410, 'widthPercent': 0.8, 'rescaleHeight': True, 'trialN': 46, 'loaded': True, 'loadedTime': 2550.7999997138977, 'positionName': 'CENTER', 'positionCoords': [515, 245]}]",Rate how much you want to eat this food from 0 (least) to 10 (most).,109481.40000009537,1669830251889,seaweed,2095.199999809265,True,5.97,111576.59999990463,2095.199999809265,True,HRV,HRV_0037,2022-11-30 17:44:43
47,"[{'imgObject': {}, 'id': 'Tribe humus pita', 'src': '/static/foodstim60/Tribe humus pita.jpg', 'key': 'NaN', 'origWidth': 411, 'origHeight': 411, 'width': 411, 'height': 411, 'widthPercent': 0.8, 'rescaleHeight': True, 'trialN': 47, 'loaded': True, 'loadedTime': 2553, 'positionName': 'CENTER', 'positionCoords': [514.5, 244.5]}]",Rate how much you want to eat this food from 0 (least) to 10 (most).,111579.40000009537,1669830253987,Tribe humus pita,2327.199999809265,True,8.01,113906.59999990463,2327.199999809265,True,HRV,HRV_0037,2022-11-30 17:44:43
48,"[{'imgObject': {}, 'id': 'turkey sandwich', 'src': '/static/foodstim60/turkey sandwich.jpg', 'key': 'NaN', 'origWidth': 409, 'origHeight': 409, 'width': 409, 'height': 409, 'widthPercent': 0.8, 'rescaleHeight': True, 'trialN': 48, 'loaded': True, 'loadedTime': 2554.699999809265, 'positionName': 'CENTER', 'positionCoords': [515.5, 245.5]}]",Rate how much you want to eat this food from 0 (least) to 10 (most).,113909.5,1669830256317,turkey sandwich,1927.2999997138977,True,8.8,115836.7999997139,1927.2999997138977,True,HRV,HRV_0037,2022-11-30 17:44:43
49,"[{'imgObject': {}, 'id': 'lox', 'src': '/static/foodstim60/lox.jpg', 'key': 'NaN', 'origWidth': 410, 'origHeight': 411, 'width': 410, 'height': 411, 'widthPercent': 0.8, 'rescaleHeight': True, 'trialN': 49, 'loaded': True, 'loadedTime': 2554, 'positionName': 'CENTER', 'positionCoords': [515, 244.5]}]",Rate how much you want to eat this food from 0 (least) to 10 (most).,115839.90000009537,1669830258247,lox,3000.8999996185303,True,6.13,118840.7999997139,3000.8999996185303,True,HRV,HRV_0037,2022-11-30 17:44:43
50,"[{'imgObject': {}, 'id': 'blackbeanswithrice', 'src': '/static/foodstim60/blackbeanswithrice.jpg', 'key': 'NaN', 'origWidth': 410, 'origHeight': 410, 'width': 410, 'height': 410, 'widthPercent': 0.8, 'rescaleHeight': True, 'trialN': 50, 'loaded': True, 'loadedTime': 2555.5, 'positionName': 'CENTER', 'positionCoords': [515, 245]}]",Rate how much you want to eat this food from 0 (least) to 10 (most).,118843.90000009537,1669830261251,blackbeanswithrice,2698.8999996185303,True,1.3800000000000001,121542.7999997139,2698.8999996185303,True,HRV,HRV_0037,2022-11-30 17:44:43
51,"[{'imgObject': {}, 'id': 'corn cob', 'src': '/static/foodstim60/corn cob.jpg', 'key': 'NaN', 'origWidth': 411, 'origHeight': 411, 'width': 411, 'height': 411, 'widthPercent': 0.8, 'rescaleHeight': True, 'trialN': 51, 'loaded': True, 'loadedTime': 2556.199999809265, 'positionName': 'CENTER', 'positionCoords': [514.5, 244.5]}]",Rate how much you want to eat this food from 0 (least) to 10 (most).,121546.19999980927,1669830263953,corn cob,1908.5999999046326,True,8.05,123454.7999997139,1908.5999999046326,True,HRV,HRV_0037,2022-11-30 17:44:43
52,"[{'imgObject': {}, 'id': 'rigatoni and sauce', 'src': '/static/foodstim60/rigatoni and sauce.jpg', 'key': 'NaN', 'origWidth': 410, 'origHeight': 411, 'width': 410, 'height': 411, 'widthPercent': 0.8, 'rescaleHeight': True, 'trialN': 52, 'loaded': True, 'loadedTime': 2558.9000000953674, 'positionName': 'CENTER', 'positionCoords': [515, 244.5]}]",Rate how much you want to eat this food from 0 (least) to 10 (most).,123458.0,1669830265865,rigatoni and sauce,2328.7999997138977,True,1.61,125786.7999997139,2328.7999997138977,True,HRV,HRV_0037,2022-11-30 17:44:43
53,"[{'imgObject': {}, 'id': 'pear', 'src': '/static/foodstim60/pear.jpg', 'key': 'NaN', 'origWidth': 411, 'origHeight': 410, 'width': 411, 'height': 410, 'widthPercent': 0.8, 'rescaleHeight': True, 'trialN': 53, 'loaded': True, 'loadedTime': 2559.7999997138977, 'positionName': 'CENTER', 'positionCoords': [514.5, 245]}]",Rate how much you want to eat this food from 0 (least) to 10 (most).,125790.2999997139,1669830268197,pear,2204.5,True,8.51,127994.7999997139,2204.5,True,HRV,HRV_0037,2022-11-30 17:44:43
54,"[{'imgObject': {}, 'id': 'burger', 'src': '/static/foodstim60/burger.jpg', 'key': 'NaN', 'origWidth': 409, 'origHeight': 409, 'width': 409, 'height': 409, 'widthPercent': 0.8, 'rescaleHeight': True, 'trialN': 54, 'loaded': True, 'loadedTime': 2560.699999809265, 'positionName': 'CENTER', 'positionCoords': [515.5, 245.5]}]",Rate how much you want to eat this food from 0 (least) to 10 (most).,127998.0,1669830270405,burger,2514.699999809265,True,6.2700000000000005,130512.69999980927,2514.699999809265,True,HRV,HRV_0037,2022-11-30 17:44:43
55,"[{'imgObject': {}, 'id': 'steak', 'src': '/static/foodstim60/steak.jpg', 'key': 'NaN', 'origWidth': 410, 'origHeight': 410, 'width': 410, 'height': 410, 'widthPercent': 0.8, 'rescaleHeight': True, 'trialN': 55, 'loaded': True, 'loadedTime': 2561.2999997138977, 'positionName': 'CENTER', 'positionCoords': [515, 245]}]",Rate how much you want to eat this food from 0 (least) to 10 (most).,130515.0,1669830272922,steak,2123.9000000953674,True,0.72,132638.90000009537,2123.9000000953674,True,HRV,HRV_0037,2022-11-30 17:44:43
56,"[{'imgObject': {}, 'id': 'burrito', 'src': '/static/foodstim60/burrito.jpg', 'key': 'NaN', 'origWidth': 410, 'origHeight': 410, 'width': 410, 'height': 410, 'widthPercent': 0.8, 'rescaleHeight': True, 'trialN': 56, 'loaded': True, 'loadedTime': 2562.0999999046326, 'positionName': 'CENTER', 'positionCoords': [515, 245]}]",Rate how much you want to eat this food from 0 (least) to 10 (most).,132641.09999990463,1669830275048,burrito,1881.6999998092651,True,3.54,134522.7999997139,1881.6999998092651,True,HRV,HRV_0037,2022-11-30 17:44:43
57,"[{'imgObject': {}, 'id': 'bagel plain', 'src': '/static/foodstim60/bagel plain.jpg', 'key': 'NaN', 'origWidth': 410, 'origHeight': 410, 'width': 410, 'height': 410, 'widthPercent': 0.8, 'rescaleHeight': True, 'trialN': 57, 'loaded': True, 'loadedTime': 2564.5999999046326, 'positionName': 'CENTER', 'positionCoords': [515, 245]}]",Rate how much you want to eat this food from 0 (least) to 10 (most).,134525.2999997139,1669830276932,bagel plain,2214.9000000953674,True,1.04,136740.19999980927,2214.9000000953674,True,HRV,HRV_0037,2022-11-30 17:44:43
58,"[{'imgObject': {}, 'id': 'edamame', 'src': '/static/foodstim60/edamame.jpg', 'key': 'NaN', 'origWidth': 409, 'origHeight': 410, 'width': 409, 'height': 410, 'widthPercent': 0.8, 'rescaleHeight': True, 'trialN': 58, 'loaded': True, 'loadedTime': 2565.4000000953674, 'positionName': 'CENTER', 'positionCoords': [515.5, 245]}]",Rate how much you want to eat this food from 0 (least) to 10 (most).,136782.59999990463,1669830279189,edamame,2016.1999998092651,True,6.0600000000000005,138798.7999997139,2016.1999998092651,True,HRV,HRV_0037,2022-11-30 17:44:43
59,"[{'imgObject': {}, 'id': 'salad w chicken', 'src': '/static/foodstim60/salad w chicken.jpg', 'key': 'NaN', 'origWidth': 411, 'origHeight': 411, 'width': 411, 'height': 411, 'widthPercent': 0.8, 'rescaleHeight': True, 'trialN': 59, 'loaded': True, 'loadedTime': 2566.2999997138977, 'positionName': 'CENTER', 'positionCoords': [514.5, 244.5]}]",Rate how much you want to eat this food from 0 (least) to 10 (most).,138801.19999980927,1669830281208,salad w chicken,2045.5,True,7.08,140846.69999980927,2045.5,True,HRV,HRV_0037,2022-11-30 17:44:43
