trialN,stimuli,trialStartTime,trialStartTime_UNIX,stimulus1,stimulus2,stimulus1Bid,stimulus2Bid,delta,selected,rt,rt_UNIX,rt_perfnow,receivedResponse,rsp,trialEndTime,trialDuration,trialEndTime_UNIX,trialDuration_UNIX,exp,subjectId,date
0,"[{'imgObject': {}, 'id': 'raisin bran w milk', 'src': '/static/foodstim60/raisin bran w milk.jpg', 'key': 'u', 'origWidth': 411, 'origHeight': 411, 'width': 411, 'height': 411, 'widthPercent': 0.45, 'rescaleHeight': False, 'trialN': 0, 'loaded': True, 'loadedTime': 2009.8000001907349, 'positionName': 'LEFT', 'positionCoords': [280.2, 244.5], 'bid': 0.6900000000000001}, {'imgObject': {}, 'id': 'luckycharms', 'src': '/static/foodstim60/luckycharms.jpg', 'key': 'i', 'origWidth': 410, 'origHeight': 409, 'width': 410, 'height': 409, 'widthPercent': 0.45, 'rescaleHeight': False, 'trialN': 0, 'loaded': True, 'loadedTime': 2037.5, 'positionName': 'RIGHT', 'positionCoords': [748.8, 245.5], 'bid': 0.23}]",2171.7000002861023,1669830361203,raisin bran w milk,luckycharms,0.6900000000000001,0.23,-0.4600000000000001,raisin bran w milk,3318.0999999046326,3385,3385.0,True,u,6061.200000286102,3889.5,1669830365092,3889,HRV,HRV_0037,2022-11-30 17:51:50
1,"[{'imgObject': {}, 'id': 'chicken nuggets2', 'src': '/static/foodstim60/chicken nuggets2.jpg', 'key': 'u', 'origWidth': 410, 'origHeight': 409, 'width': 410, 'height': 409, 'widthPercent': 0.45, 'rescaleHeight': False, 'trialN': 1, 'loaded': True, 'loadedTime': 2041.8000001907349, 'positionName': 'LEFT', 'positionCoords': [281.2, 245.5], 'bid': 8.88}, {'imgObject': {}, 'id': 'veggieswithdip', 'src': '/static/foodstim60/veggieswithdip.jpg', 'key': 'i', 'origWidth': 409, 'origHeight': 409, 'width': 409, 'height': 409, 'widthPercent': 0.45, 'rescaleHeight': False, 'trialN': 1, 'loaded': True, 'loadedTime': 2044.9000000953674, 'positionName': 'RIGHT', 'positionCoords': [748.8, 245.5], 'bid': 9.4}]",6061.400000095367,1669830365092,chicken nuggets2,veggieswithdip,8.88,9.4,0.5199999999999996,veggieswithdip,1116.5999999046326,1119,1118.5,True,i,7686.60000038147,1625.2000002861023,1669830366717,1625,HRV,HRV_0037,2022-11-30 17:51:50
2,"[{'imgObject': {}, 'id': 'corn cob', 'src': '/static/foodstim60/corn cob.jpg', 'key': 'u', 'origWidth': 411, 'origHeight': 411, 'width': 411, 'height': 411, 'widthPercent': 0.45, 'rescaleHeight': False, 'trialN': 2, 'loaded': True, 'loadedTime': 2052.6000003814697, 'positionName': 'LEFT', 'positionCoords': [280.2, 244.5], 'bid': 8.05}, {'imgObject': {}, 'id': 'mac & cheese', 'src': '/static/foodstim60/mac & cheese.jpg', 'key': 'i', 'origWidth': 410, 'origHeight': 410, 'width': 410, 'height': 410, 'widthPercent': 0.45, 'rescaleHeight': False, 'trialN': 2, 'loaded': True, 'loadedTime': 2059.5, 'positionName': 'RIGHT', 'positionCoords': [748.8, 245], 'bid': 9.04}]",7686.700000286102,1669830366718,corn cob,mac & cheese,8.05,9.04,0.9899999999999984,mac & cheese,1243.2999997138977,1245,1245.0999999046326,True,i,9440.700000286102,1754.0,1669830368472,1754,HRV,HRV_0037,2022-11-30 17:51:50
3,"[{'imgObject': {}, 'id': 'fruitsalad', 'src': '/static/foodstim60/fruitsalad.jpg', 'key': 'u', 'origWidth': 410, 'origHeight': 410, 'width': 410, 'height': 410, 'widthPercent': 0.45, 'rescaleHeight': False, 'trialN': 3, 'loaded': True, 'loadedTime': 2062.800000190735, 'positionName': 'LEFT', 'positionCoords': [281.2, 245], 'bid': 4.63}, {'imgObject': {}, 'id': 'omelette', 'src': '/static/foodstim60/omelette.jpg', 'key': 'i', 'origWidth': 410, 'origHeight': 409, 'width': 410, 'height': 409, 'widthPercent': 0.45, 'rescaleHeight': False, 'trialN': 3, 'loaded': True, 'loadedTime': 2066.2000002861023, 'positionName': 'RIGHT', 'positionCoords': [748.8, 245.5], 'bid': 3.66}]",9440.800000190735,1669830368472,fruitsalad,omelette,4.63,3.66,-0.9699999999999998,omelette,1393.1999998092651,1395,1395.3000001907349,True,i,11340.5,1899.6999998092651,1669830370371,1899,HRV,HRV_0037,2022-11-30 17:51:50
4,"[{'imgObject': {}, 'id': 'raspberries', 'src': '/static/foodstim60/raspberries.jpg', 'key': 'u', 'origWidth': 411, 'origHeight': 411, 'width': 411, 'height': 411, 'widthPercent': 0.45, 'rescaleHeight': False, 'trialN': 4, 'loaded': True, 'loadedTime': 2069.800000190735, 'positionName': 'LEFT', 'positionCoords': [280.2, 244.5], 'bid': 9.26}, {'imgObject': {}, 'id': 'eggsalad', 'src': '/static/foodstim60/eggsalad.jpg', 'key': 'i', 'origWidth': 410, 'origHeight': 409, 'width': 410, 'height': 409, 'widthPercent': 0.45, 'rescaleHeight': False, 'trialN': 4, 'loaded': True, 'loadedTime': 2072.9000000953674, 'positionName': 'RIGHT', 'positionCoords': [748.8, 245.5], 'bid': 4.83}]",11340.60000038147,1669830370371,raspberries,eggsalad,9.26,4.83,-4.43,raspberries,917.2999997138977,921,920.5,True,u,12764.900000095367,1424.2999997138977,1669830371796,1425,HRV,HRV_0037,2022-11-30 17:51:50
5,"[{'imgObject': {}, 'id': 'rigatoni', 'src': '/static/foodstim60/rigatoni.jpg', 'key': 'u', 'origWidth': 411, 'origHeight': 411, 'width': 411, 'height': 411, 'widthPercent': 0.45, 'rescaleHeight': False, 'trialN': 5, 'loaded': True, 'loadedTime': 2076.2000002861023, 'positionName': 'LEFT', 'positionCoords': [280.2, 244.5], 'bid': 1.11}, {'imgObject': {}, 'id': 'eggs', 'src': '/static/foodstim60/eggs.jpg', 'key': 'i', 'origWidth': 409, 'origHeight': 409, 'width': 409, 'height': 409, 'widthPercent': 0.45, 'rescaleHeight': False, 'trialN': 5, 'loaded': True, 'loadedTime': 2079.9000000953674, 'positionName': 'RIGHT', 'positionCoords': [748.8, 245.5], 'bid': 4.0200000000000005}]",12765.0,1669830371796,rigatoni,eggs,1.11,4.0200000000000005,2.91,eggs,1428.9000000953674,1431,1430.9000000953674,True,i,14700.700000286102,1935.7000002861023,1669830373731,1935,HRV,HRV_0037,2022-11-30 17:51:50
6,"[{'imgObject': {}, 'id': 'froot loops w milk', 'src': '/static/foodstim60/froot loops w milk.jpg', 'key': 'u', 'origWidth': 410, 'origHeight': 410, 'width': 410, 'height': 410, 'widthPercent': 0.45, 'rescaleHeight': False, 'trialN': 6, 'loaded': True, 'loadedTime': 2086.9000000953674, 'positionName': 'LEFT', 'positionCoords': [281.2, 245], 'bid': 0.06}, {'imgObject': {}, 'id': 'baked potato', 'src': '/static/foodstim60/baked potato.jpg', 'key': 'i', 'origWidth': 409, 'origHeight': 410, 'width': 409, 'height': 410, 'widthPercent': 0.45, 'rescaleHeight': False, 'trialN': 6, 'loaded': True, 'loadedTime': 2093.6000003814697, 'positionName': 'RIGHT', 'positionCoords': [748.8, 245], 'bid': 1.5}]",14700.900000095367,1669830373732,froot loops w milk,baked potato,0.06,1.5,1.44,baked potato,1229.0,1231,1231.0,True,i,16440.700000286102,1739.8000001907349,1669830375471,1739,HRV,HRV_0037,2022-11-30 17:51:50
7,"[{'imgObject': {}, 'id': 'eggs', 'src': '/static/foodstim60/eggs.jpg', 'key': 'u', 'origWidth': 409, 'origHeight': 409, 'width': 409, 'height': 409, 'widthPercent': 0.45, 'rescaleHeight': False, 'trialN': 7, 'loaded': True, 'loadedTime': 2083.2000002861023, 'positionName': 'LEFT', 'positionCoords': [282.2, 245.5], 'bid': 4.0200000000000005}, {'imgObject': {}, 'id': 'raisin bran w milk', 'src': '/static/foodstim60/raisin bran w milk.jpg', 'key': 'i', 'origWidth': 411, 'origHeight': 411, 'width': 411, 'height': 411, 'widthPercent': 0.45, 'rescaleHeight': False, 'trialN': 7, 'loaded': True, 'loadedTime': 2013.4000000953674, 'positionName': 'RIGHT', 'positionCoords': [748.8, 244.5], 'bid': 0.6900000000000001}]",16440.800000190735,1669830375471,eggs,raisin bran w milk,4.0200000000000005,0.6900000000000001,-3.3300000000000005,eggs,1217.1999998092651,1220,1219.0999999046326,True,u,18168.700000286102,1727.9000000953674,1669830377199,1728,HRV,HRV_0037,2022-11-30 17:51:50
8,"[{'imgObject': {}, 'id': 'orange slices', 'src': '/static/foodstim60/orange slices.jpg', 'key': 'u', 'origWidth': 409, 'origHeight': 410, 'width': 409, 'height': 410, 'widthPercent': 0.45, 'rescaleHeight': False, 'trialN': 8, 'loaded': True, 'loadedTime': 2099.9000000953674, 'positionName': 'LEFT', 'positionCoords': [282.2, 245], 'bid': 5.66}, {'imgObject': {}, 'id': 'chickenfingers', 'src': '/static/foodstim60/chickenfingers.jpg', 'key': 'i', 'origWidth': 410, 'origHeight': 410, 'width': 410, 'height': 410, 'widthPercent': 0.45, 'rescaleHeight': False, 'trialN': 8, 'loaded': True, 'loadedTime': 2103.4000000953674, 'positionName': 'RIGHT', 'positionCoords': [748.8, 245], 'bid': 5.69}]",18168.900000095367,1669830377199,orange slices,chickenfingers,5.66,5.69,0.03000000000000025,chickenfingers,1329.0,1331,1331.0,True,i,20008.700000286102,1839.8000001907349,1669830379039,1840,HRV,HRV_0037,2022-11-30 17:51:50
9,"[{'imgObject': {}, 'id': 'shreddedwheatwithmilk', 'src': '/static/foodstim60/shreddedwheatwithmilk.jpg', 'key': 'u', 'origWidth': 410, 'origHeight': 410, 'width': 410, 'height': 410, 'widthPercent': 0.45, 'rescaleHeight': False, 'trialN': 9, 'loaded': True, 'loadedTime': 2106.800000190735, 'positionName': 'LEFT', 'positionCoords': [281.2, 245], 'bid': 1.04}, {'imgObject': {}, 'id': 'omelette', 'src': '/static/foodstim60/omelette.jpg', 'key': 'i', 'origWidth': 410, 'origHeight': 409, 'width': 410, 'height': 409, 'widthPercent': 0.45, 'rescaleHeight': False, 'trialN': 9, 'loaded': True, 'loadedTime': 2066.300000190735, 'positionName': 'RIGHT', 'positionCoords': [748.8, 245.5], 'bid': 3.66}]",20008.800000190735,1669830379039,shreddedwheatwithmilk,omelette,1.04,3.66,2.62,shreddedwheatwithmilk,1329.1999998092651,1331,1331.1999998092651,True,u,21848.60000038147,1839.8000001907349,1669830380879,1840,HRV,HRV_0037,2022-11-30 17:51:50
10,"[{'imgObject': {}, 'id': 'cherry tomato', 'src': '/static/foodstim60/cherry tomato.jpg', 'key': 'u', 'origWidth': 410, 'origHeight': 410, 'width': 410, 'height': 410, 'widthPercent': 0.45, 'rescaleHeight': False, 'trialN': 10, 'loaded': True, 'loadedTime': 2107.7000002861023, 'positionName': 'LEFT', 'positionCoords': [281.2, 245], 'bid': 4.5200000000000005}, {'imgObject': {}, 'id': 'chickenfingers', 'src': '/static/foodstim60/chickenfingers.jpg', 'key': 'i', 'origWidth': 410, 'origHeight': 410, 'width': 410, 'height': 410, 'widthPercent': 0.45, 'rescaleHeight': False, 'trialN': 10, 'loaded': True, 'loadedTime': 2103.4000000953674, 'positionName': 'RIGHT', 'positionCoords': [748.8, 245], 'bid': 5.69}]",21848.800000190735,1669830380879,cherry tomato,chickenfingers,4.5200000000000005,5.69,1.17,chickenfingers,1121.1999998092651,1123,1123.0,True,i,23480.60000038147,1631.8000001907349,1669830382511,1632,HRV,HRV_0037,2022-11-30 17:51:50
11,"[{'imgObject': {}, 'id': 'eggsalad', 'src': '/static/foodstim60/eggsalad.jpg', 'key': 'u', 'origWidth': 410, 'origHeight': 409, 'width': 410, 'height': 409, 'widthPercent': 0.45, 'rescaleHeight': False, 'trialN': 11, 'loaded': True, 'loadedTime': 2073.1000003814697, 'positionName': 'LEFT', 'positionCoords': [281.2, 245.5], 'bid': 4.83}, {'imgObject': {}, 'id': 'seaweed', 'src': '/static/foodstim60/seaweed.jpg', 'key': 'i', 'origWidth': 410, 'origHeight': 410, 'width': 410, 'height': 410, 'widthPercent': 0.45, 'rescaleHeight': False, 'trialN': 11, 'loaded': True, 'loadedTime': 2111.4000000953674, 'positionName': 'RIGHT', 'positionCoords': [748.8, 245], 'bid': 5.97}]",23480.800000190735,1669830382511,eggsalad,seaweed,4.83,5.97,1.1399999999999997,seaweed,1233.0999999046326,1235,1234.9000000953674,True,i,25221.200000286102,1740.4000000953674,1669830384252,1741,HRV,HRV_0037,2022-11-30 17:51:50
12,"[{'imgObject': {}, 'id': 'lox', 'src': '/static/foodstim60/lox.jpg', 'key': 'u', 'origWidth': 410, 'origHeight': 411, 'width': 410, 'height': 411, 'widthPercent': 0.45, 'rescaleHeight': False, 'trialN': 12, 'loaded': True, 'loadedTime': 2111.6000003814697, 'positionName': 'LEFT', 'positionCoords': [281.2, 244.5], 'bid': 6.13}, {'imgObject': {}, 'id': 'chicken nuggets2', 'src': '/static/foodstim60/chicken nuggets2.jpg', 'key': 'i', 'origWidth': 410, 'origHeight': 409, 'width': 410, 'height': 409, 'widthPercent': 0.45, 'rescaleHeight': False, 'trialN': 12, 'loaded': True, 'loadedTime': 2042, 'positionName': 'RIGHT', 'positionCoords': [748.8, 245.5], 'bid': 8.88}]",25221.400000095367,1669830384252,lox,chicken nuggets2,6.13,8.88,2.750000000000001,chicken nuggets2,1348.5999999046326,1350,1350.5,True,i,27080.700000286102,1859.3000001907349,1669830386111,1859,HRV,HRV_0037,2022-11-30 17:51:50
13,"[{'imgObject': {}, 'id': 'granola w milk', 'src': '/static/foodstim60/granola w milk.jpg', 'key': 'u', 'origWidth': 410, 'origHeight': 410, 'width': 410, 'height': 410, 'widthPercent': 0.45, 'rescaleHeight': False, 'trialN': 13, 'loaded': True, 'loadedTime': 2115.6000003814697, 'positionName': 'LEFT', 'positionCoords': [281.2, 245], 'bid': 1.09}, {'imgObject': {}, 'id': 'ice cream sundae 002', 'src': '/static/foodstim60/ice cream sundae 002.jpg', 'key': 'i', 'origWidth': 409, 'origHeight': 409, 'width': 409, 'height': 409, 'widthPercent': 0.45, 'rescaleHeight': False, 'trialN': 13, 'loaded': True, 'loadedTime': 2116.1000003814697, 'positionName': 'RIGHT', 'positionCoords': [748.8, 245.5], 'bid': 3.66}]",27080.800000190735,1669830386111,granola w milk,ice cream sundae 002,1.09,3.66,2.5700000000000003,ice cream sundae 002,1921.0,1922,1922.1999998092651,True,i,29510.900000095367,2430.0999999046326,1669830388541,2430,HRV,HRV_0037,2022-11-30 17:51:50
14,"[{'imgObject': {}, 'id': 'grilled chicken strips', 'src': '/static/foodstim60/grilled chicken strips.jpg', 'key': 'u', 'origWidth': 410, 'origHeight': 411, 'width': 410, 'height': 411, 'widthPercent': 0.45, 'rescaleHeight': False, 'trialN': 14, 'loaded': True, 'loadedTime': 2120.5, 'positionName': 'LEFT', 'positionCoords': [281.2, 244.5], 'bid': 2.91}, {'imgObject': {}, 'id': 'fried eggs', 'src': '/static/foodstim60/fried eggs.jpg', 'key': 'i', 'origWidth': 410, 'origHeight': 410, 'width': 410, 'height': 410, 'widthPercent': 0.45, 'rescaleHeight': False, 'trialN': 14, 'loaded': True, 'loadedTime': 2121.800000190735, 'positionName': 'RIGHT', 'positionCoords': [748.8, 245], 'bid': 4.12}]",29511.10000038147,1669830388541,grilled chicken strips,fried eggs,2.91,4.12,1.21,fried eggs,1506.7999997138977,1509,1508.6999998092651,True,i,31528.700000286102,2017.5999999046326,1669830390559,2018,HRV,HRV_0037,2022-11-30 17:51:50
15,"[{'imgObject': {}, 'id': 'mac & cheese', 'src': '/static/foodstim60/mac & cheese.jpg', 'key': 'u', 'origWidth': 410, 'origHeight': 410, 'width': 410, 'height': 410, 'widthPercent': 0.45, 'rescaleHeight': False, 'trialN': 15, 'loaded': True, 'loadedTime': 2059.5, 'positionName': 'LEFT', 'positionCoords': [281.2, 245], 'bid': 9.04}, {'imgObject': {}, 'id': 'mashed potato', 'src': '/static/foodstim60/mashed potato.jpg', 'key': 'i', 'origWidth': 409, 'origHeight': 409, 'width': 409, 'height': 409, 'widthPercent': 0.45, 'rescaleHeight': False, 'trialN': 15, 'loaded': True, 'loadedTime': 2125.800000190735, 'positionName': 'RIGHT', 'positionCoords': [748.8, 245.5], 'bid': 8.870000000000001}]",31528.900000095367,1669830390559,mac & cheese,mashed potato,9.04,8.870000000000001,-0.16999999999999815,mac & cheese,1441.0,1443,1443.0999999046326,True,u,33476.60000038147,1947.7000002861023,1669830392507,1948,HRV,HRV_0037,2022-11-30 17:51:50
16,"[{'imgObject': {}, 'id': 'chicken nuggets2', 'src': '/static/foodstim60/chicken nuggets2.jpg', 'key': 'u', 'origWidth': 410, 'origHeight': 409, 'width': 410, 'height': 409, 'widthPercent': 0.45, 'rescaleHeight': False, 'trialN': 16, 'loaded': True, 'loadedTime': 2041.2000002861023, 'positionName': 'LEFT', 'positionCoords': [281.2, 245.5], 'bid': 8.88}, {'imgObject': {}, 'id': 'mac & cheese', 'src': '/static/foodstim60/mac & cheese.jpg', 'key': 'i', 'origWidth': 410, 'origHeight': 410, 'width': 410, 'height': 410, 'widthPercent': 0.45, 'rescaleHeight': False, 'trialN': 16, 'loaded': True, 'loadedTime': 2061.800000190735, 'positionName': 'RIGHT', 'positionCoords': [748.8, 245], 'bid': 9.04}]",33476.7000002861,1669830392507,chicken nuggets2,mac & cheese,8.88,9.04,0.15999999999999837,mac & cheese,1627.1999998092651,1668,1668.6999998092651,True,i,35656.7000002861,2180.0,1669830394687,2180,HRV,HRV_0037,2022-11-30 17:51:50
17,"[{'imgObject': {}, 'id': 'kiwi', 'src': '/static/foodstim60/kiwi.jpg', 'key': 'u', 'origWidth': 410, 'origHeight': 410, 'width': 410, 'height': 410, 'widthPercent': 0.45, 'rescaleHeight': False, 'trialN': 17, 'loaded': True, 'loadedTime': 2142.7000002861023, 'positionName': 'LEFT', 'positionCoords': [281.2, 245], 'bid': 9.11}, {'imgObject': {}, 'id': 'fruitsalad', 'src': '/static/foodstim60/fruitsalad.jpg', 'key': 'i', 'origWidth': 410, 'origHeight': 410, 'width': 410, 'height': 410, 'widthPercent': 0.45, 'rescaleHeight': False, 'trialN': 17, 'loaded': True, 'loadedTime': 2062.9000000953674, 'positionName': 'RIGHT', 'positionCoords': [748.8, 245], 'bid': 4.63}]",35656.90000009537,1669830394687,kiwi,fruitsalad,9.11,4.63,-4.4799999999999995,kiwi,1257.0999999046326,1259,1258.8000001907349,True,u,37424.7000002861,1767.8000001907349,1669830396455,1768,HRV,HRV_0037,2022-11-30 17:51:50
18,"[{'imgObject': {}, 'id': 'fried eggs', 'src': '/static/foodstim60/fried eggs.jpg', 'key': 'u', 'origWidth': 410, 'origHeight': 410, 'width': 410, 'height': 410, 'widthPercent': 0.45, 'rescaleHeight': False, 'trialN': 18, 'loaded': True, 'loadedTime': 2121.7000002861023, 'positionName': 'LEFT', 'positionCoords': [281.2, 245], 'bid': 4.12}, {'imgObject': {}, 'id': 'cheerios', 'src': '/static/foodstim60/cheerios.jpg', 'key': 'i', 'origWidth': 409, 'origHeight': 410, 'width': 409, 'height': 410, 'widthPercent': 0.45, 'rescaleHeight': False, 'trialN': 18, 'loaded': True, 'loadedTime': 2147.2000002861023, 'positionName': 'RIGHT', 'positionCoords': [748.8, 245], 'bid': 1.37}]",37424.90000009537,1669830396455,fried eggs,cheerios,4.12,1.37,-2.75,fried eggs,1281.0999999046326,1283,1282.9000000953674,True,u,39216.7000002861,1791.8000001907349,1669830398247,1792,HRV,HRV_0037,2022-11-30 17:51:50
19,"[{'imgObject': {}, 'id': 'blackbeanswithrice', 'src': '/static/foodstim60/blackbeanswithrice.jpg', 'key': 'u', 'origWidth': 410, 'origHeight': 410, 'width': 410, 'height': 410, 'widthPercent': 0.45, 'rescaleHeight': False, 'trialN': 19, 'loaded': True, 'loadedTime': 2148.4000000953674, 'positionName': 'LEFT', 'positionCoords': [281.2, 245], 'bid': 1.38}, {'imgObject': {}, 'id': 'baked potato', 'src': '/static/foodstim60/baked potato.jpg', 'key': 'i', 'origWidth': 409, 'origHeight': 410, 'width': 409, 'height': 410, 'widthPercent': 0.45, 'rescaleHeight': False, 'trialN': 19, 'loaded': True, 'loadedTime': 2091.300000190735, 'positionName': 'RIGHT', 'positionCoords': [748.8, 245], 'bid': 1.5}]",39216.800000190735,1669830398247,blackbeanswithrice,baked potato,1.38,1.5,0.1200000000000001,baked potato,1008.9000000953674,1027,1027.6999998092651,True,i,40750.300000190735,1533.5,1669830399780,1533,HRV,HRV_0037,2022-11-30 17:51:50
20,"[{'imgObject': {}, 'id': 'rigatoni', 'src': '/static/foodstim60/rigatoni.jpg', 'key': 'u', 'origWidth': 411, 'origHeight': 411, 'width': 411, 'height': 411, 'widthPercent': 0.45, 'rescaleHeight': False, 'trialN': 20, 'loaded': True, 'loadedTime': 2076.1000003814697, 'positionName': 'LEFT', 'positionCoords': [280.2, 244.5], 'bid': 1.11}, {'imgObject': {}, 'id': 'luckycharms', 'src': '/static/foodstim60/luckycharms.jpg', 'key': 'i', 'origWidth': 410, 'origHeight': 409, 'width': 410, 'height': 409, 'widthPercent': 0.45, 'rescaleHeight': False, 'trialN': 20, 'loaded': True, 'loadedTime': 2038.4000000953674, 'positionName': 'RIGHT', 'positionCoords': [748.8, 245.5], 'bid': 0.23}]",40750.5,1669830399780,rigatoni,luckycharms,1.11,0.23,-0.8800000000000001,rigatoni,1427.3000001907349,1429,1428.5,True,u,42687.0,1936.5,1669830401717,1937,HRV,HRV_0037,2022-11-30 17:51:50
21,"[{'imgObject': {}, 'id': 'strawberries', 'src': '/static/foodstim60/strawberries.jpg', 'key': 'u', 'origWidth': 410, 'origHeight': 410, 'width': 410, 'height': 410, 'widthPercent': 0.45, 'rescaleHeight': False, 'trialN': 21, 'loaded': True, 'loadedTime': 2148.6000003814697, 'positionName': 'LEFT', 'positionCoords': [281.2, 245], 'bid': 4.97}, {'imgObject': {}, 'id': 'baked potato', 'src': '/static/foodstim60/baked potato.jpg', 'key': 'i', 'origWidth': 409, 'origHeight': 410, 'width': 409, 'height': 410, 'widthPercent': 0.45, 'rescaleHeight': False, 'trialN': 21, 'loaded': True, 'loadedTime': 2090.300000190735, 'positionName': 'RIGHT', 'positionCoords': [748.8, 245], 'bid': 1.5}]",42687.10000038147,1669830401717,strawberries,baked potato,4.97,1.5,-3.4699999999999998,strawberries,1690.8999996185303,1693,1692.7999997138977,True,u,44888.0,2200.8999996185303,1669830403918,2201,HRV,HRV_0037,2022-11-30 17:51:50
22,"[{'imgObject': {}, 'id': 'lox', 'src': '/static/foodstim60/lox.jpg', 'key': 'u', 'origWidth': 410, 'origHeight': 411, 'width': 410, 'height': 411, 'widthPercent': 0.45, 'rescaleHeight': False, 'trialN': 22, 'loaded': True, 'loadedTime': 2112.5, 'positionName': 'LEFT', 'positionCoords': [281.2, 244.5], 'bid': 6.13}, {'imgObject': {}, 'id': 'edamame', 'src': '/static/foodstim60/edamame.jpg', 'key': 'i', 'origWidth': 409, 'origHeight': 410, 'width': 409, 'height': 410, 'widthPercent': 0.45, 'rescaleHeight': False, 'trialN': 22, 'loaded': True, 'loadedTime': 2153.4000000953674, 'positionName': 'RIGHT', 'positionCoords': [748.8, 245], 'bid': 6.0600000000000005}]",44888.2000002861,1669830403918,lox,edamame,6.13,6.0600000000000005,-0.0699999999999994,lox,1625.6999998092651,1627,1627.5,True,u,47024.800000190735,2136.5999999046326,1669830406055,2137,HRV,HRV_0037,2022-11-30 17:51:50
23,"[{'imgObject': {}, 'id': 'mango', 'src': '/static/foodstim60/mango.jpg', 'key': 'u', 'origWidth': 411, 'origHeight': 411, 'width': 411, 'height': 411, 'widthPercent': 0.45, 'rescaleHeight': False, 'trialN': 23, 'loaded': True, 'loadedTime': 2158.4000000953674, 'positionName': 'LEFT', 'positionCoords': [280.2, 244.5], 'bid': 5.44}, {'imgObject': {}, 'id': 'salad w chicken', 'src': '/static/foodstim60/salad w chicken.jpg', 'key': 'i', 'origWidth': 411, 'origHeight': 411, 'width': 411, 'height': 411, 'widthPercent': 0.45, 'rescaleHeight': False, 'trialN': 23, 'loaded': True, 'loadedTime': 2165, 'positionName': 'RIGHT', 'positionCoords': [748.8, 244.5], 'bid': 7.08}]",47024.90000009537,1669830406055,mango,salad w chicken,5.44,7.08,1.6399999999999997,salad w chicken,1217.0999999046326,1218,1218.9000000953674,True,i,48752.7000002861,1727.8000001907349,1669830407782,1727,HRV,HRV_0037,2022-11-30 17:51:50
24,"[{'imgObject': {}, 'id': 'fruitsalad', 'src': '/static/foodstim60/fruitsalad.jpg', 'key': 'u', 'origWidth': 410, 'origHeight': 410, 'width': 410, 'height': 410, 'widthPercent': 0.45, 'rescaleHeight': False, 'trialN': 24, 'loaded': True, 'loadedTime': 2062.1000003814697, 'positionName': 'LEFT', 'positionCoords': [281.2, 245], 'bid': 4.63}, {'imgObject': {}, 'id': 'cantaloupe', 'src': '/static/foodstim60/cantaloupe.jpg', 'key': 'i', 'origWidth': 409, 'origHeight': 409, 'width': 409, 'height': 409, 'widthPercent': 0.45, 'rescaleHeight': False, 'trialN': 24, 'loaded': True, 'loadedTime': 2023.6000003814697, 'positionName': 'RIGHT', 'positionCoords': [748.8, 245.5], 'bid': 4.2}]",48752.800000190735,1669830407782,fruitsalad,cantaloupe,4.63,4.2,-0.4299999999999997,fruitsalad,1521.1999998092651,1523,1522.9000000953674,True,u,50784.300000190735,2031.5,1669830409814,2032,HRV,HRV_0037,2022-11-30 17:51:50
25,"[{'imgObject': {}, 'id': 'hotdog w must', 'src': '/static/foodstim60/hotdog w must.jpg', 'key': 'u', 'origWidth': 409, 'origHeight': 409, 'width': 409, 'height': 409, 'widthPercent': 0.45, 'rescaleHeight': False, 'trialN': 25, 'loaded': True, 'loadedTime': 2027.9000000953674, 'positionName': 'LEFT', 'positionCoords': [282.2, 245.5], 'bid': 8.370000000000001}, {'imgObject': {}, 'id': 'bagel and cc', 'src': '/static/foodstim60/bagel and cc.jpg', 'key': 'i', 'origWidth': 410, 'origHeight': 410, 'width': 410, 'height': 410, 'widthPercent': 0.45, 'rescaleHeight': False, 'trialN': 25, 'loaded': True, 'loadedTime': 2034.1000003814697, 'positionName': 'RIGHT', 'positionCoords': [748.8, 245], 'bid': 3.38}]",50784.40000009537,1669830409814,hotdog w must,bagel and cc,8.370000000000001,3.38,-4.990000000000001,hotdog w must,1137.5,1139,1139.3000001907349,True,u,52432.7000002861,1648.3000001907349,1669830411462,1648,HRV,HRV_0037,2022-11-30 17:51:50
26,"[{'imgObject': {}, 'id': 'banana', 'src': '/static/foodstim60/banana.jpg', 'key': 'u', 'origWidth': 410, 'origHeight': 410, 'width': 410, 'height': 410, 'widthPercent': 0.45, 'rescaleHeight': False, 'trialN': 26, 'loaded': True, 'loadedTime': 2037.4000000953674, 'positionName': 'LEFT', 'positionCoords': [281.2, 245], 'bid': 5.68}, {'imgObject': {}, 'id': 'cantaloupe', 'src': '/static/foodstim60/cantaloupe.jpg', 'key': 'i', 'origWidth': 409, 'origHeight': 409, 'width': 409, 'height': 409, 'widthPercent': 0.45, 'rescaleHeight': False, 'trialN': 26, 'loaded': True, 'loadedTime': 2023.7000002861023, 'positionName': 'RIGHT', 'positionCoords': [748.8, 245.5], 'bid': 4.2}]",52432.800000190735,1669830411462,banana,cantaloupe,5.68,4.2,-1.4799999999999995,banana,1201.1999998092651,1203,1203.0,True,u,54142.7000002861,1709.9000000953674,1669830413172,1710,HRV,HRV_0037,2022-11-30 17:51:50
27,"[{'imgObject': {}, 'id': 'rigatoni', 'src': '/static/foodstim60/rigatoni.jpg', 'key': 'u', 'origWidth': 411, 'origHeight': 411, 'width': 411, 'height': 411, 'widthPercent': 0.45, 'rescaleHeight': False, 'trialN': 27, 'loaded': True, 'loadedTime': 2076.300000190735, 'positionName': 'LEFT', 'positionCoords': [280.2, 244.5], 'bid': 1.11}, {'imgObject': {}, 'id': 'eggsalad', 'src': '/static/foodstim60/eggsalad.jpg', 'key': 'i', 'origWidth': 410, 'origHeight': 409, 'width': 410, 'height': 409, 'widthPercent': 0.45, 'rescaleHeight': False, 'trialN': 27, 'loaded': True, 'loadedTime': 2073.2000002861023, 'positionName': 'RIGHT', 'positionCoords': [748.8, 245.5], 'bid': 4.83}]",54142.800000190735,1669830413172,rigatoni,eggsalad,1.11,4.83,3.7199999999999998,eggsalad,1083.1999998092651,1085,1085.0999999046326,True,i,55732.5,1589.6999998092651,1669830414762,1590,HRV,HRV_0037,2022-11-30 17:51:50
28,"[{'imgObject': {}, 'id': 'burrito', 'src': '/static/foodstim60/burrito.jpg', 'key': 'u', 'origWidth': 410, 'origHeight': 410, 'width': 410, 'height': 410, 'widthPercent': 0.45, 'rescaleHeight': False, 'trialN': 28, 'loaded': True, 'loadedTime': 2049, 'positionName': 'LEFT', 'positionCoords': [281.2, 245], 'bid': 3.54}, {'imgObject': {}, 'id': 'cherry tomato', 'src': '/static/foodstim60/cherry tomato.jpg', 'key': 'i', 'origWidth': 410, 'origHeight': 410, 'width': 410, 'height': 410, 'widthPercent': 0.45, 'rescaleHeight': False, 'trialN': 28, 'loaded': True, 'loadedTime': 2107.7000002861023, 'positionName': 'RIGHT', 'positionCoords': [748.8, 245], 'bid': 4.5200000000000005}]",55732.7000002861,1669830414762,burrito,cherry tomato,3.54,4.5200000000000005,0.9800000000000004,cherry tomato,1541.1999998092651,1543,1542.9000000953674,True,i,57784.7000002861,2052.0,1669830416814,2052,HRV,HRV_0037,2022-11-30 17:51:50
29,"[{'imgObject': {}, 'id': 'avocado', 'src': '/static/foodstim60/avocado.jpg', 'key': 'u', 'origWidth': 409, 'origHeight': 409, 'width': 409, 'height': 409, 'widthPercent': 0.45, 'rescaleHeight': False, 'trialN': 29, 'loaded': True, 'loadedTime': 2058.1000003814697, 'positionName': 'LEFT', 'positionCoords': [282.2, 245.5], 'bid': 8.34}, {'imgObject': {}, 'id': 'blueberries', 'src': '/static/foodstim60/blueberries.jpg', 'key': 'i', 'origWidth': 411, 'origHeight': 411, 'width': 411, 'height': 411, 'widthPercent': 0.45, 'rescaleHeight': False, 'trialN': 29, 'loaded': True, 'loadedTime': 2076.6000003814697, 'positionName': 'RIGHT', 'positionCoords': [748.8, 244.5], 'bid': 6.4}]",57784.800000190735,1669830416814,avocado,blueberries,8.34,6.4,-1.9399999999999995,avocado,1369.0999999046326,1371,1370.9000000953674,True,u,59664.7000002861,1879.9000000953674,1669830418694,1880,HRV,HRV_0037,2022-11-30 17:51:50
30,"[{'imgObject': {}, 'id': 'grilled chicken strips', 'src': '/static/foodstim60/grilled chicken strips.jpg', 'key': 'u', 'origWidth': 410, 'origHeight': 411, 'width': 410, 'height': 411, 'widthPercent': 0.45, 'rescaleHeight': False, 'trialN': 30, 'loaded': True, 'loadedTime': 2120.7000002861023, 'positionName': 'LEFT', 'positionCoords': [281.2, 244.5], 'bid': 2.91}, {'imgObject': {}, 'id': 'burrito', 'src': '/static/foodstim60/burrito.jpg', 'key': 'i', 'origWidth': 410, 'origHeight': 410, 'width': 410, 'height': 410, 'widthPercent': 0.45, 'rescaleHeight': False, 'trialN': 30, 'loaded': True, 'loadedTime': 2048.2000002861023, 'positionName': 'RIGHT', 'positionCoords': [748.8, 245], 'bid': 3.54}]",59664.800000190735,1669830418694,grilled chicken strips,burrito,2.91,3.54,0.6299999999999999,burrito,1721.1999998092651,1723,1723.0,True,i,61896.40000009537,2231.5999999046326,1669830420926,2232,HRV,HRV_0037,2022-11-30 17:51:50
31,"[{'imgObject': {}, 'id': 'froot loops w milk', 'src': '/static/foodstim60/froot loops w milk.jpg', 'key': 'u', 'origWidth': 410, 'origHeight': 410, 'width': 410, 'height': 410, 'widthPercent': 0.45, 'rescaleHeight': False, 'trialN': 31, 'loaded': True, 'loadedTime': 2087.7000002861023, 'positionName': 'LEFT', 'positionCoords': [281.2, 245], 'bid': 0.06}, {'imgObject': {}, 'id': 'chickenfingers', 'src': '/static/foodstim60/chickenfingers.jpg', 'key': 'i', 'origWidth': 410, 'origHeight': 410, 'width': 410, 'height': 410, 'widthPercent': 0.45, 'rescaleHeight': False, 'trialN': 31, 'loaded': True, 'loadedTime': 2103.2000002861023, 'positionName': 'RIGHT', 'positionCoords': [748.8, 245], 'bid': 5.69}]",61896.60000038147,1669830420926,froot loops w milk,chickenfingers,0.06,5.69,5.630000000000001,chickenfingers,1033.1999998092651,1035,1034.8999996185303,True,i,63440.7000002861,1544.0999999046326,1669830422470,1544,HRV,HRV_0037,2022-11-30 17:51:50
32,"[{'imgObject': {}, 'id': 'banana', 'src': '/static/foodstim60/banana.jpg', 'key': 'u', 'origWidth': 410, 'origHeight': 410, 'width': 410, 'height': 410, 'widthPercent': 0.45, 'rescaleHeight': False, 'trialN': 32, 'loaded': True, 'loadedTime': 2034.2000002861023, 'positionName': 'LEFT', 'positionCoords': [281.2, 245], 'bid': 5.68}, {'imgObject': {}, 'id': 'yogurt no spoon', 'src': '/static/foodstim60/yogurt no spoon.jpg', 'key': 'i', 'origWidth': 411, 'origHeight': 410, 'width': 411, 'height': 410, 'widthPercent': 0.45, 'rescaleHeight': False, 'trialN': 32, 'loaded': True, 'loadedTime': 2086.800000190735, 'positionName': 'RIGHT', 'positionCoords': [748.8, 245], 'bid': 4.88}]",63440.800000190735,1669830422470,banana,yogurt no spoon,5.68,4.88,-0.7999999999999998,banana,1225.1999998092651,1227,1227.1999998092651,True,u,65172.60000038147,1731.8000001907349,1669830424202,1732,HRV,HRV_0037,2022-11-30 17:51:50
33,"[{'imgObject': {}, 'id': 'steak', 'src': '/static/foodstim60/steak.jpg', 'key': 'u', 'origWidth': 410, 'origHeight': 410, 'width': 410, 'height': 410, 'widthPercent': 0.45, 'rescaleHeight': False, 'trialN': 33, 'loaded': True, 'loadedTime': 2096.2000002861023, 'positionName': 'LEFT', 'positionCoords': [281.2, 245], 'bid': 0.72}, {'imgObject': {}, 'id': 'blackbeanswithrice', 'src': '/static/foodstim60/blackbeanswithrice.jpg', 'key': 'i', 'origWidth': 410, 'origHeight': 410, 'width': 410, 'height': 410, 'widthPercent': 0.45, 'rescaleHeight': False, 'trialN': 33, 'loaded': True, 'loadedTime': 2148.4000000953674, 'positionName': 'RIGHT', 'positionCoords': [748.8, 245], 'bid': 1.38}]",65172.7000002861,1669830424202,steak,blackbeanswithrice,0.72,1.38,0.6599999999999999,blackbeanswithrice,1301.1999998092651,1303,1303.0999999046326,True,i,66984.7000002861,1812.0,1669830426014,1812,HRV,HRV_0037,2022-11-30 17:51:50
34,"[{'imgObject': {}, 'id': 'cheerios', 'src': '/static/foodstim60/cheerios.jpg', 'key': 'u', 'origWidth': 409, 'origHeight': 410, 'width': 409, 'height': 410, 'widthPercent': 0.45, 'rescaleHeight': False, 'trialN': 34, 'loaded': True, 'loadedTime': 2147.4000000953674, 'positionName': 'LEFT', 'positionCoords': [282.2, 245], 'bid': 1.37}, {'imgObject': {}, 'id': 'rigatoni', 'src': '/static/foodstim60/rigatoni.jpg', 'key': 'i', 'origWidth': 411, 'origHeight': 411, 'width': 411, 'height': 411, 'widthPercent': 0.45, 'rescaleHeight': False, 'trialN': 34, 'loaded': True, 'loadedTime': 2075.300000190735, 'positionName': 'RIGHT', 'positionCoords': [748.8, 244.5], 'bid': 1.11}]",66984.90000009537,1669830426014,cheerios,rigatoni,1.37,1.11,-0.26,cheerios,1617.0999999046326,1619,1619.0,True,u,69109.0,2124.0999999046326,1669830428138,2124,HRV,HRV_0037,2022-11-30 17:51:50
35,"[{'imgObject': {}, 'id': 'mac & cheese', 'src': '/static/foodstim60/mac & cheese.jpg', 'key': 'u', 'origWidth': 410, 'origHeight': 410, 'width': 410, 'height': 410, 'widthPercent': 0.45, 'rescaleHeight': False, 'trialN': 35, 'loaded': True, 'loadedTime': 2059.300000190735, 'positionName': 'LEFT', 'positionCoords': [281.2, 245], 'bid': 9.04}, {'imgObject': {}, 'id': 'roastedpotatoes', 'src': '/static/foodstim60/roastedpotatoes.jpg', 'key': 'i', 'origWidth': 409, 'origHeight': 410, 'width': 409, 'height': 410, 'widthPercent': 0.45, 'rescaleHeight': False, 'trialN': 35, 'loaded': True, 'loadedTime': 2127.2000002861023, 'positionName': 'RIGHT', 'positionCoords': [748.8, 245], 'bid': 9.44}]",69109.10000038147,1669830428138,mac & cheese,roastedpotatoes,9.04,9.44,0.40000000000000036,mac & cheese,996.8999996185303,999,998.6999998092651,True,u,70612.7000002861,1503.5999999046326,1669830429642,1504,HRV,HRV_0037,2022-11-30 17:51:50
36,"[{'imgObject': {}, 'id': 'burger', 'src': '/static/foodstim60/burger.jpg', 'key': 'u', 'origWidth': 409, 'origHeight': 409, 'width': 409, 'height': 409, 'widthPercent': 0.45, 'rescaleHeight': False, 'trialN': 36, 'loaded': True, 'loadedTime': 2131, 'positionName': 'LEFT', 'positionCoords': [282.2, 245.5], 'bid': 6.2700000000000005}, {'imgObject': {}, 'id': 'shreddedwheatwithmilk', 'src': '/static/foodstim60/shreddedwheatwithmilk.jpg', 'key': 'i', 'origWidth': 410, 'origHeight': 410, 'width': 410, 'height': 410, 'widthPercent': 0.45, 'rescaleHeight': False, 'trialN': 36, 'loaded': True, 'loadedTime': 2104.5, 'positionName': 'RIGHT', 'positionCoords': [748.8, 245], 'bid': 1.04}]",70612.80000019073,1669830429642,burger,shreddedwheatwithmilk,6.2700000000000005,1.04,-5.23,burger,1373.0999999046326,1375,1374.9000000953674,True,u,72492.10000038147,1879.3000001907349,1669830431521,1879,HRV,HRV_0037,2022-11-30 17:51:50
37,"[{'imgObject': {}, 'id': 'pear', 'src': '/static/foodstim60/pear.jpg', 'key': 'u', 'origWidth': 411, 'origHeight': 410, 'width': 411, 'height': 410, 'widthPercent': 0.45, 'rescaleHeight': False, 'trialN': 37, 'loaded': True, 'loadedTime': 2132, 'positionName': 'LEFT', 'positionCoords': [280.2, 245], 'bid': 8.51}, {'imgObject': {}, 'id': 'chickenfingers', 'src': '/static/foodstim60/chickenfingers.jpg', 'key': 'i', 'origWidth': 410, 'origHeight': 410, 'width': 410, 'height': 410, 'widthPercent': 0.45, 'rescaleHeight': False, 'trialN': 37, 'loaded': True, 'loadedTime': 2103.5, 'positionName': 'RIGHT', 'positionCoords': [748.8, 245], 'bid': 5.69}]",72492.30000019073,1669830431521,pear,chickenfingers,8.51,5.69,-2.8199999999999994,pear,1269.5999999046326,1272,1271.4000000953674,True,u,74272.7000002861,1780.4000000953674,1669830433302,1781,HRV,HRV_0037,2022-11-30 17:51:50
38,"[{'imgObject': {}, 'id': 'cherry tomato', 'src': '/static/foodstim60/cherry tomato.jpg', 'key': 'u', 'origWidth': 410, 'origHeight': 410, 'width': 410, 'height': 410, 'widthPercent': 0.45, 'rescaleHeight': False, 'trialN': 38, 'loaded': True, 'loadedTime': 2107.800000190735, 'positionName': 'LEFT', 'positionCoords': [281.2, 245], 'bid': 4.5200000000000005}, {'imgObject': {}, 'id': 'eggsalad', 'src': '/static/foodstim60/eggsalad.jpg', 'key': 'i', 'origWidth': 410, 'origHeight': 409, 'width': 410, 'height': 409, 'widthPercent': 0.45, 'rescaleHeight': False, 'trialN': 38, 'loaded': True, 'loadedTime': 2073.2000002861023, 'positionName': 'RIGHT', 'positionCoords': [748.8, 245.5], 'bid': 4.83}]",74272.80000019073,1669830433302,cherry tomato,eggsalad,4.5200000000000005,4.83,0.3099999999999996,eggsalad,1137.1999998092651,1139,1139.0999999046326,True,i,75920.7000002861,1647.9000000953674,1669830434949,1647,HRV,HRV_0037,2022-11-30 17:51:50
39,"[{'imgObject': {}, 'id': 'raspberries', 'src': '/static/foodstim60/raspberries.jpg', 'key': 'u', 'origWidth': 411, 'origHeight': 411, 'width': 411, 'height': 411, 'widthPercent': 0.45, 'rescaleHeight': False, 'trialN': 39, 'loaded': True, 'loadedTime': 2069.4000000953674, 'positionName': 'LEFT', 'positionCoords': [280.2, 244.5], 'bid': 9.26}, {'imgObject': {}, 'id': 'kiwi', 'src': '/static/foodstim60/kiwi.jpg', 'key': 'i', 'origWidth': 410, 'origHeight': 410, 'width': 410, 'height': 410, 'widthPercent': 0.45, 'rescaleHeight': False, 'trialN': 39, 'loaded': True, 'loadedTime': 2141.7000002861023, 'positionName': 'RIGHT', 'positionCoords': [748.8, 245], 'bid': 9.11}]",75920.80000019073,1669830434950,raspberries,kiwi,9.26,9.11,-0.15000000000000036,raspberries,1233.0999999046326,1235,1235.0999999046326,True,u,77664.7000002861,1743.9000000953674,1669830436693,1743,HRV,HRV_0037,2022-11-30 17:51:50
40,"[{'imgObject': {}, 'id': 'blackbeanswithrice', 'src': '/static/foodstim60/blackbeanswithrice.jpg', 'key': 'u', 'origWidth': 410, 'origHeight': 410, 'width': 410, 'height': 410, 'widthPercent': 0.45, 'rescaleHeight': False, 'trialN': 40, 'loaded': True, 'loadedTime': 2148.300000190735, 'positionName': 'LEFT', 'positionCoords': [281.2, 245], 'bid': 1.38}, {'imgObject': {}, 'id': 'salmon', 'src': '/static/foodstim60/salmon.jpg', 'key': 'i', 'origWidth': 410, 'origHeight': 409, 'width': 410, 'height': 409, 'widthPercent': 0.45, 'rescaleHeight': False, 'trialN': 40, 'loaded': True, 'loadedTime': 2135.2000002861023, 'positionName': 'RIGHT', 'positionCoords': [748.8, 245.5], 'bid': 4.95}]",77664.80000019073,1669830436694,blackbeanswithrice,salmon,1.38,4.95,3.5700000000000003,salmon,1489.1999998092651,1491,1491.0,True,i,79664.7000002861,1999.9000000953674,1669830438693,1999,HRV,HRV_0037,2022-11-30 17:51:50
41,"[{'imgObject': {}, 'id': 'rigatoni', 'src': '/static/foodstim60/rigatoni.jpg', 'key': 'u', 'origWidth': 411, 'origHeight': 411, 'width': 411, 'height': 411, 'widthPercent': 0.45, 'rescaleHeight': False, 'trialN': 41, 'loaded': True, 'loadedTime': 2076.4000000953674, 'positionName': 'LEFT', 'positionCoords': [280.2, 244.5], 'bid': 1.11}, {'imgObject': {}, 'id': 'salad w chicken', 'src': '/static/foodstim60/salad w chicken.jpg', 'key': 'i', 'origWidth': 411, 'origHeight': 411, 'width': 411, 'height': 411, 'widthPercent': 0.45, 'rescaleHeight': False, 'trialN': 41, 'loaded': True, 'loadedTime': 2165.1000003814697, 'positionName': 'RIGHT', 'positionCoords': [748.8, 244.5], 'bid': 7.08}]",79664.80000019073,1669830438694,rigatoni,salad w chicken,1.11,7.08,5.97,salad w chicken,1001.0999999046326,1003,1003.0,True,i,81172.90000009537,1508.0999999046326,1669830440202,1508,HRV,HRV_0037,2022-11-30 17:51:50
42,"[{'imgObject': {}, 'id': 'fried eggs', 'src': '/static/foodstim60/fried eggs.jpg', 'key': 'u', 'origWidth': 410, 'origHeight': 410, 'width': 410, 'height': 410, 'widthPercent': 0.45, 'rescaleHeight': False, 'trialN': 42, 'loaded': True, 'loadedTime': 2120.800000190735, 'positionName': 'LEFT', 'positionCoords': [281.2, 245], 'bid': 4.12}, {'imgObject': {}, 'id': 'eggs', 'src': '/static/foodstim60/eggs.jpg', 'key': 'i', 'origWidth': 409, 'origHeight': 409, 'width': 409, 'height': 409, 'widthPercent': 0.45, 'rescaleHeight': False, 'trialN': 42, 'loaded': True, 'loadedTime': 2083.300000190735, 'positionName': 'RIGHT', 'positionCoords': [748.8, 245.5], 'bid': 4.0200000000000005}]",81173.0,1669830440202,fried eggs,eggs,4.12,4.0200000000000005,-0.09999999999999964,eggs,1541.0,1542,1542.7000002861023,True,i,83224.7000002861,2051.7000002861023,1669830442253,2051,HRV,HRV_0037,2022-11-30 17:51:50
43,"[{'imgObject': {}, 'id': 'kiwi', 'src': '/static/foodstim60/kiwi.jpg', 'key': 'u', 'origWidth': 410, 'origHeight': 410, 'width': 410, 'height': 410, 'widthPercent': 0.45, 'rescaleHeight': False, 'trialN': 43, 'loaded': True, 'loadedTime': 2142.800000190735, 'positionName': 'LEFT', 'positionCoords': [281.2, 245], 'bid': 9.11}, {'imgObject': {}, 'id': 'tacos', 'src': '/static/foodstim60/tacos.jpg', 'key': 'i', 'origWidth': 411, 'origHeight': 411, 'width': 411, 'height': 411, 'widthPercent': 0.45, 'rescaleHeight': False, 'trialN': 43, 'loaded': True, 'loadedTime': 2138.5, 'positionName': 'RIGHT', 'positionCoords': [748.8, 244.5], 'bid': 9.73}]",83224.80000019073,1669830442253,kiwi,tacos,9.11,9.73,0.620000000000001,tacos,1089.1999998092651,1091,1091.0,True,i,84824.90000009537,1600.0999999046326,1669830443853,1600,HRV,HRV_0037,2022-11-30 17:51:50
44,"[{'imgObject': {}, 'id': 'corn cob', 'src': '/static/foodstim60/corn cob.jpg', 'key': 'u', 'origWidth': 411, 'origHeight': 411, 'width': 411, 'height': 411, 'widthPercent': 0.45, 'rescaleHeight': False, 'trialN': 44, 'loaded': True, 'loadedTime': 2052.5, 'positionName': 'LEFT', 'positionCoords': [280.2, 244.5], 'bid': 8.05}, {'imgObject': {}, 'id': 'veggieswithdip', 'src': '/static/foodstim60/veggieswithdip.jpg', 'key': 'i', 'origWidth': 409, 'origHeight': 409, 'width': 409, 'height': 409, 'widthPercent': 0.45, 'rescaleHeight': False, 'trialN': 44, 'loaded': True, 'loadedTime': 2045.8000001907349, 'positionName': 'RIGHT', 'positionCoords': [748.8, 245.5], 'bid': 9.4}]",84825.0,1669830443854,corn cob,veggieswithdip,8.05,9.4,1.3499999999999996,veggieswithdip,1217.0,1218,1218.8000001907349,True,i,86551.5,1726.5,1669830445580,1726,HRV,HRV_0037,2022-11-30 17:51:50
45,"[{'imgObject': {}, 'id': 'turkeysandwich', 'src': '/static/foodstim60/turkeysandwich.jpg', 'key': 'u', 'origWidth': 409, 'origHeight': 409, 'width': 409, 'height': 409, 'widthPercent': 0.45, 'rescaleHeight': False, 'trialN': 45, 'loaded': True, 'loadedTime': 2139.300000190735, 'positionName': 'LEFT', 'positionCoords': [282.2, 245.5], 'bid': 8.77}, {'imgObject': {}, 'id': 'pear', 'src': '/static/foodstim60/pear.jpg', 'key': 'i', 'origWidth': 411, 'origHeight': 410, 'width': 411, 'height': 410, 'widthPercent': 0.45, 'rescaleHeight': False, 'trialN': 45, 'loaded': True, 'loadedTime': 2134.2000002861023, 'positionName': 'RIGHT', 'positionCoords': [748.8, 245], 'bid': 8.51}]",86551.7000002861,1669830445580,turkeysandwich,pear,8.77,8.51,-0.2599999999999998,turkeysandwich,1002.1999998092651,1004,1004.1999998092651,True,u,88059.80000019073,1508.0999999046326,1669830447088,1508,HRV,HRV_0037,2022-11-30 17:51:50
46,"[{'imgObject': {}, 'id': 'shreddedwheatwithmilk', 'src': '/static/foodstim60/shreddedwheatwithmilk.jpg', 'key': 'u', 'origWidth': 410, 'origHeight': 410, 'width': 410, 'height': 410, 'widthPercent': 0.45, 'rescaleHeight': False, 'trialN': 46, 'loaded': True, 'loadedTime': 2103.7000002861023, 'positionName': 'LEFT', 'positionCoords': [281.2, 245], 'bid': 1.04}, {'imgObject': {}, 'id': 'steak', 'src': '/static/foodstim60/steak.jpg', 'key': 'i', 'origWidth': 410, 'origHeight': 410, 'width': 410, 'height': 410, 'widthPercent': 0.45, 'rescaleHeight': False, 'trialN': 46, 'loaded': True, 'loadedTime': 2096.300000190735, 'positionName': 'RIGHT', 'positionCoords': [748.8, 245], 'bid': 0.72}]",88060.10000038147,1669830447088,shreddedwheatwithmilk,steak,1.04,0.72,-0.32000000000000006,shreddedwheatwithmilk,1341.8999996185303,1344,1343.7999997138977,True,u,89911.40000009537,1851.2999997138977,1669830448940,1852,HRV,HRV_0037,2022-11-30 17:51:50
47,"[{'imgObject': {}, 'id': 'rigatoni and sauce', 'src': '/static/foodstim60/rigatoni and sauce.jpg', 'key': 'u', 'origWidth': 410, 'origHeight': 411, 'width': 410, 'height': 411, 'widthPercent': 0.45, 'rescaleHeight': False, 'trialN': 47, 'loaded': True, 'loadedTime': 2142.9000000953674, 'positionName': 'LEFT', 'positionCoords': [281.2, 244.5], 'bid': 1.61}, {'imgObject': {}, 'id': 'luckycharms', 'src': '/static/foodstim60/luckycharms.jpg', 'key': 'i', 'origWidth': 410, 'origHeight': 409, 'width': 410, 'height': 409, 'widthPercent': 0.45, 'rescaleHeight': False, 'trialN': 47, 'loaded': True, 'loadedTime': 2040.8000001907349, 'positionName': 'RIGHT', 'positionCoords': [748.8, 245.5], 'bid': 0.23}]",89911.5,1669830448940,rigatoni and sauce,luckycharms,1.61,0.23,-1.3800000000000001,rigatoni and sauce,1322.5,1324,1324.3000001907349,True,u,91744.10000038147,1832.6000003814697,1669830450772,1832,HRV,HRV_0037,2022-11-30 17:51:50
48,"[{'imgObject': {}, 'id': 'pear', 'src': '/static/foodstim60/pear.jpg', 'key': 'u', 'origWidth': 411, 'origHeight': 410, 'width': 411, 'height': 410, 'widthPercent': 0.45, 'rescaleHeight': False, 'trialN': 48, 'loaded': True, 'loadedTime': 2131.300000190735, 'positionName': 'LEFT', 'positionCoords': [280.2, 245], 'bid': 8.51}, {'imgObject': {}, 'id': 'hotdog w must', 'src': '/static/foodstim60/hotdog w must.jpg', 'key': 'i', 'origWidth': 409, 'origHeight': 409, 'width': 409, 'height': 409, 'widthPercent': 0.45, 'rescaleHeight': False, 'trialN': 48, 'loaded': True, 'loadedTime': 2027.2000002861023, 'positionName': 'RIGHT', 'positionCoords': [748.8, 245.5], 'bid': 8.370000000000001}]",91744.30000019073,1669830450773,pear,hotdog w must,8.51,8.370000000000001,-0.1399999999999988,hotdog w must,1049.6999998092651,1051,1051.6999998092651,True,i,93305.5,1561.1999998092651,1669830452334,1561,HRV,HRV_0037,2022-11-30 17:51:50
49,"[{'imgObject': {}, 'id': 'cocktailshrimp', 'src': '/static/foodstim60/cocktailshrimp.jpg', 'key': 'u', 'origWidth': 410, 'origHeight': 410, 'width': 410, 'height': 410, 'widthPercent': 0.45, 'rescaleHeight': False, 'trialN': 49, 'loaded': True, 'loadedTime': 2151.9000000953674, 'positionName': 'LEFT', 'positionCoords': [281.2, 245], 'bid': 9.37}, {'imgObject': {}, 'id': 'Tribe humus pita', 'src': '/static/foodstim60/Tribe humus pita.jpg', 'key': 'i', 'origWidth': 411, 'origHeight': 411, 'width': 411, 'height': 411, 'widthPercent': 0.45, 'rescaleHeight': False, 'trialN': 49, 'loaded': True, 'loadedTime': 2153.5, 'positionName': 'RIGHT', 'positionCoords': [748.8, 244.5], 'bid': 8.01}]",93305.7000002861,1669830452334,cocktailshrimp,Tribe humus pita,9.37,8.01,-1.3599999999999994,cocktailshrimp,1184.2999997138977,1186,1186.0999999046326,True,u,94997.90000009537,1692.1999998092651,1669830454026,1692,HRV,HRV_0037,2022-11-30 17:51:50
50,"[{'imgObject': {}, 'id': 'turkeysandwich', 'src': '/static/foodstim60/turkeysandwich.jpg', 'key': 'u', 'origWidth': 409, 'origHeight': 409, 'width': 409, 'height': 409, 'widthPercent': 0.45, 'rescaleHeight': False, 'trialN': 50, 'loaded': True, 'loadedTime': 2139.6000003814697, 'positionName': 'LEFT', 'positionCoords': [282.2, 245.5], 'bid': 8.77}, {'imgObject': {}, 'id': 'cherries', 'src': '/static/foodstim60/cherries.jpg', 'key': 'i', 'origWidth': 410, 'origHeight': 411, 'width': 410, 'height': 411, 'widthPercent': 0.45, 'rescaleHeight': False, 'trialN': 50, 'loaded': True, 'loadedTime': 2156.6000003814697, 'positionName': 'RIGHT', 'positionCoords': [748.8, 244.5], 'bid': 8.43}]",94998.0,1669830454026,turkeysandwich,cherries,8.77,8.43,-0.33999999999999986,turkeysandwich,1452.0,1454,1453.7000002861023,True,u,96960.80000019073,1962.8000001907349,1669830455989,1963,HRV,HRV_0037,2022-11-30 17:51:50
51,"[{'imgObject': {}, 'id': 'raspberries', 'src': '/static/foodstim60/raspberries.jpg', 'key': 'u', 'origWidth': 411, 'origHeight': 411, 'width': 411, 'height': 411, 'widthPercent': 0.45, 'rescaleHeight': False, 'trialN': 51, 'loaded': True, 'loadedTime': 2071.9000000953674, 'positionName': 'LEFT', 'positionCoords': [280.2, 244.5], 'bid': 9.26}, {'imgObject': {}, 'id': 'salad w chicken', 'src': '/static/foodstim60/salad w chicken.jpg', 'key': 'i', 'origWidth': 411, 'origHeight': 411, 'width': 411, 'height': 411, 'widthPercent': 0.45, 'rescaleHeight': False, 'trialN': 51, 'loaded': True, 'loadedTime': 2165.1000003814697, 'positionName': 'RIGHT', 'positionCoords': [748.8, 244.5], 'bid': 7.08}]",96960.90000009537,1669830455989,raspberries,salad w chicken,9.26,7.08,-2.1799999999999997,salad w chicken,1297.0,1299,1298.8000001907349,True,i,98768.0,1807.0999999046326,1669830457796,1807,HRV,HRV_0037,2022-11-30 17:51:50
52,"[{'imgObject': {}, 'id': 'Grapes', 'src': '/static/foodstim60/Grapes.jpg', 'key': 'u', 'origWidth': 411, 'origHeight': 411, 'width': 411, 'height': 411, 'widthPercent': 0.45, 'rescaleHeight': False, 'trialN': 52, 'loaded': True, 'loadedTime': 2159.6000003814697, 'positionName': 'LEFT', 'positionCoords': [280.2, 244.5], 'bid': 9.27}, {'imgObject': {}, 'id': 'cocktailshrimp', 'src': '/static/foodstim60/cocktailshrimp.jpg', 'key': 'i', 'origWidth': 410, 'origHeight': 410, 'width': 410, 'height': 410, 'widthPercent': 0.45, 'rescaleHeight': False, 'trialN': 52, 'loaded': True, 'loadedTime': 2149.6000003814697, 'positionName': 'RIGHT', 'positionCoords': [748.8, 245], 'bid': 9.37}]",98768.10000038147,1669830457796,Grapes,cocktailshrimp,9.27,9.37,0.09999999999999964,cocktailshrimp,1457.8999996185303,1460,1459.6999998092651,True,i,100733.80000019073,1965.6999998092651,1669830459762,1966,HRV,HRV_0037,2022-11-30 17:51:50
53,"[{'imgObject': {}, 'id': 'yogurt no spoon', 'src': '/static/foodstim60/yogurt no spoon.jpg', 'key': 'u', 'origWidth': 411, 'origHeight': 410, 'width': 411, 'height': 410, 'widthPercent': 0.45, 'rescaleHeight': False, 'trialN': 53, 'loaded': True, 'loadedTime': 2083.4000000953674, 'positionName': 'LEFT', 'positionCoords': [280.2, 245], 'bid': 4.88}, {'imgObject': {}, 'id': 'salmon', 'src': '/static/foodstim60/salmon.jpg', 'key': 'i', 'origWidth': 410, 'origHeight': 409, 'width': 410, 'height': 409, 'widthPercent': 0.45, 'rescaleHeight': False, 'trialN': 53, 'loaded': True, 'loadedTime': 2134.4000000953674, 'positionName': 'RIGHT', 'positionCoords': [748.8, 245.5], 'bid': 4.95}]",100733.90000009537,1669830459762,yogurt no spoon,salmon,4.88,4.95,0.07000000000000028,salmon,2108.0999999046326,2110,2109.9000000953674,True,i,103348.40000009537,2614.5,1669830462376,2614,HRV,HRV_0037,2022-11-30 17:51:50
54,"[{'imgObject': {}, 'id': 'hotdog w must', 'src': '/static/foodstim60/hotdog w must.jpg', 'key': 'u', 'origWidth': 409, 'origHeight': 409, 'width': 409, 'height': 409, 'widthPercent': 0.45, 'rescaleHeight': False, 'trialN': 54, 'loaded': True, 'loadedTime': 2030.4000000953674, 'positionName': 'LEFT', 'positionCoords': [282.2, 245.5], 'bid': 8.370000000000001}, {'imgObject': {}, 'id': 'sushi w_condiments', 'src': '/static/foodstim60/sushi w_condiments.jpg', 'key': 'i', 'origWidth': 410, 'origHeight': 410, 'width': 410, 'height': 410, 'widthPercent': 0.45, 'rescaleHeight': False, 'trialN': 54, 'loaded': True, 'loadedTime': 2160.6000003814697, 'positionName': 'RIGHT', 'positionCoords': [748.8, 245], 'bid': 9.97}]",103348.5,1669830462376,hotdog w must,sushi w_condiments,8.370000000000001,9.97,1.5999999999999996,sushi w_condiments,1277.4000000953674,1280,1279.4000000953674,True,i,105134.30000019073,1785.8000001907349,1669830464162,1786,HRV,HRV_0037,2022-11-30 17:51:50
55,"[{'imgObject': {}, 'id': 'sushi w_condiments', 'src': '/static/foodstim60/sushi w_condiments.jpg', 'key': 'u', 'origWidth': 410, 'origHeight': 410, 'width': 410, 'height': 410, 'widthPercent': 0.45, 'rescaleHeight': False, 'trialN': 55, 'loaded': True, 'loadedTime': 2160.4000000953674, 'positionName': 'LEFT', 'positionCoords': [281.2, 245], 'bid': 9.97}, {'imgObject': {}, 'id': 'orange slices', 'src': '/static/foodstim60/orange slices.jpg', 'key': 'i', 'origWidth': 409, 'origHeight': 410, 'width': 409, 'height': 410, 'widthPercent': 0.45, 'rescaleHeight': False, 'trialN': 55, 'loaded': True, 'loadedTime': 2100, 'positionName': 'RIGHT', 'positionCoords': [748.8, 245], 'bid': 5.66}]",105134.40000009537,1669830464162,sushi w_condiments,orange slices,9.97,5.66,-4.3100000000000005,sushi w_condiments,995.5999999046326,998,997.4000000953674,True,u,106640.7000002861,1506.3000001907349,1669830465669,1507,HRV,HRV_0037,2022-11-30 17:51:50
56,"[{'imgObject': {}, 'id': 'granola w milk', 'src': '/static/foodstim60/granola w milk.jpg', 'key': 'u', 'origWidth': 410, 'origHeight': 410, 'width': 410, 'height': 410, 'widthPercent': 0.45, 'rescaleHeight': False, 'trialN': 56, 'loaded': True, 'loadedTime': 2115.9000000953674, 'positionName': 'LEFT', 'positionCoords': [281.2, 245], 'bid': 1.09}, {'imgObject': {}, 'id': 'fruitsalad', 'src': '/static/foodstim60/fruitsalad.jpg', 'key': 'i', 'origWidth': 410, 'origHeight': 410, 'width': 410, 'height': 410, 'widthPercent': 0.45, 'rescaleHeight': False, 'trialN': 56, 'loaded': True, 'loadedTime': 2063, 'positionName': 'RIGHT', 'positionCoords': [748.8, 245], 'bid': 4.63}]",106640.80000019073,1669830465669,granola w milk,fruitsalad,1.09,4.63,3.54,fruitsalad,1657.1999998092651,1659,1659.1999998092651,True,i,108804.30000019073,2163.5,1669830467832,2163,HRV,HRV_0037,2022-11-30 17:51:50
57,"[{'imgObject': {}, 'id': 'corn cob', 'src': '/static/foodstim60/corn cob.jpg', 'key': 'u', 'origWidth': 411, 'origHeight': 411, 'width': 411, 'height': 411, 'widthPercent': 0.45, 'rescaleHeight': False, 'trialN': 57, 'loaded': True, 'loadedTime': 2052.4000000953674, 'positionName': 'LEFT', 'positionCoords': [280.2, 244.5], 'bid': 8.05}, {'imgObject': {}, 'id': 'baked potato', 'src': '/static/foodstim60/baked potato.jpg', 'key': 'i', 'origWidth': 409, 'origHeight': 410, 'width': 409, 'height': 410, 'widthPercent': 0.45, 'rescaleHeight': False, 'trialN': 57, 'loaded': True, 'loadedTime': 2093.800000190735, 'positionName': 'RIGHT', 'positionCoords': [748.8, 245], 'bid': 1.5}]",108804.40000009537,1669830467832,corn cob,baked potato,8.05,1.5,-6.550000000000001,corn cob,1429.5999999046326,1432,1431.4000000953674,True,u,110744.60000038147,1940.2000002861023,1669830469772,1940,HRV,HRV_0037,2022-11-30 17:51:50
58,"[{'imgObject': {}, 'id': 'blueberries', 'src': '/static/foodstim60/blueberries.jpg', 'key': 'u', 'origWidth': 411, 'origHeight': 411, 'width': 411, 'height': 411, 'widthPercent': 0.45, 'rescaleHeight': False, 'trialN': 58, 'loaded': True, 'loadedTime': 2079.4000000953674, 'positionName': 'LEFT', 'positionCoords': [280.2, 244.5], 'bid': 6.4}, {'imgObject': {}, 'id': 'sweetpotato', 'src': '/static/foodstim60/sweetpotato.jpg', 'key': 'i', 'origWidth': 410, 'origHeight': 410, 'width': 410, 'height': 410, 'widthPercent': 0.45, 'rescaleHeight': False, 'trialN': 58, 'loaded': True, 'loadedTime': 2163.9000000953674, 'positionName': 'RIGHT', 'positionCoords': [748.8, 245], 'bid': 7.58}]",110744.90000009537,1669830469773,blueberries,sweetpotato,6.4,7.58,1.1799999999999997,sweetpotato,1289.0,1291,1290.9000000953674,True,i,112544.60000038147,1799.7000002861023,1669830471572,1799,HRV,HRV_0037,2022-11-30 17:51:50
59,"[{'imgObject': {}, 'id': 'bagel and cc', 'src': '/static/foodstim60/bagel and cc.jpg', 'key': 'u', 'origWidth': 410, 'origHeight': 410, 'width': 410, 'height': 410, 'widthPercent': 0.45, 'rescaleHeight': False, 'trialN': 59, 'loaded': True, 'loadedTime': 2030.8000001907349, 'positionName': 'LEFT', 'positionCoords': [281.2, 245], 'bid': 3.38}, {'imgObject': {}, 'id': 'orange slices', 'src': '/static/foodstim60/orange slices.jpg', 'key': 'i', 'origWidth': 409, 'origHeight': 410, 'width': 409, 'height': 410, 'widthPercent': 0.45, 'rescaleHeight': False, 'trialN': 59, 'loaded': True, 'loadedTime': 2098.800000190735, 'positionName': 'RIGHT', 'positionCoords': [748.8, 245], 'bid': 5.66}]",112544.80000019073,1669830471573,bagel and cc,orange slices,3.38,5.66,2.2800000000000002,orange slices,1313.1999998092651,1315,1315.0999999046326,True,i,114363.60000038147,1818.8000001907349,1669830473391,1818,HRV,HRV_0037,2022-11-30 17:51:50
60,"[{'imgObject': {}, 'id': 'fried eggs', 'src': '/static/foodstim60/fried eggs.jpg', 'key': 'u', 'origWidth': 410, 'origHeight': 410, 'width': 410, 'height': 410, 'widthPercent': 0.45, 'rescaleHeight': False, 'trialN': 60, 'loaded': True, 'loadedTime': 2121.6000003814697, 'positionName': 'LEFT', 'positionCoords': [281.2, 245], 'bid': 4.12}, {'imgObject': {}, 'id': 'steak', 'src': '/static/foodstim60/steak.jpg', 'key': 'i', 'origWidth': 410, 'origHeight': 410, 'width': 410, 'height': 410, 'widthPercent': 0.45, 'rescaleHeight': False, 'trialN': 60, 'loaded': True, 'loadedTime': 2095.9000000953674, 'positionName': 'RIGHT', 'positionCoords': [748.8, 245], 'bid': 0.72}]",114363.80000019073,1669830473391,fried eggs,steak,4.12,0.72,-3.4000000000000004,fried eggs,1166.1999998092651,1168,1168.0,True,u,116040.7000002861,1676.9000000953674,1669830475068,1677,HRV,HRV_0037,2022-11-30 17:51:50
61,"[{'imgObject': {}, 'id': 'blueberries', 'src': '/static/foodstim60/blueberries.jpg', 'key': 'u', 'origWidth': 411, 'origHeight': 411, 'width': 411, 'height': 411, 'widthPercent': 0.45, 'rescaleHeight': False, 'trialN': 61, 'loaded': True, 'loadedTime': 2079.5, 'positionName': 'LEFT', 'positionCoords': [280.2, 244.5], 'bid': 6.4}, {'imgObject': {}, 'id': 'hashbrowns', 'src': '/static/foodstim60/hashbrowns.jpg', 'key': 'i', 'origWidth': 411, 'origHeight': 410, 'width': 411, 'height': 410, 'widthPercent': 0.45, 'rescaleHeight': False, 'trialN': 61, 'loaded': True, 'loadedTime': 2166, 'positionName': 'RIGHT', 'positionCoords': [748.8, 245], 'bid': 5.0200000000000005}]",116040.80000019073,1669830475068,blueberries,hashbrowns,6.4,5.0200000000000005,-1.38,blueberries,1233.1999998092651,1235,1235.0,True,u,117784.40000009537,1743.5999999046326,1669830476812,1744,HRV,HRV_0037,2022-11-30 17:51:50
62,"[{'imgObject': {}, 'id': 'chicken nuggets2', 'src': '/static/foodstim60/chicken nuggets2.jpg', 'key': 'u', 'origWidth': 410, 'origHeight': 409, 'width': 410, 'height': 409, 'widthPercent': 0.45, 'rescaleHeight': False, 'trialN': 62, 'loaded': True, 'loadedTime': 2044.6000003814697, 'positionName': 'LEFT', 'positionCoords': [281.2, 245.5], 'bid': 8.88}, {'imgObject': {}, 'id': 'Tribe humus pita', 'src': '/static/foodstim60/Tribe humus pita.jpg', 'key': 'i', 'origWidth': 411, 'origHeight': 411, 'width': 411, 'height': 411, 'widthPercent': 0.45, 'rescaleHeight': False, 'trialN': 62, 'loaded': True, 'loadedTime': 2154.300000190735, 'positionName': 'RIGHT', 'positionCoords': [748.8, 244.5], 'bid': 8.01}]",117784.60000038147,1669830476812,chicken nuggets2,Tribe humus pita,8.88,8.01,-0.870000000000001,chicken nuggets2,1889.1999998092651,1891,1890.5,True,u,120184.2000002861,2399.5999999046326,1669830479212,2400,HRV,HRV_0037,2022-11-30 17:51:50
63,"[{'imgObject': {}, 'id': 'hashbrowns', 'src': '/static/foodstim60/hashbrowns.jpg', 'key': 'u', 'origWidth': 411, 'origHeight': 410, 'width': 411, 'height': 410, 'widthPercent': 0.45, 'rescaleHeight': False, 'trialN': 63, 'loaded': True, 'loadedTime': 2165.9000000953674, 'positionName': 'LEFT', 'positionCoords': [280.2, 245], 'bid': 5.0200000000000005}, {'imgObject': {}, 'id': 'seaweed', 'src': '/static/foodstim60/seaweed.jpg', 'key': 'i', 'origWidth': 410, 'origHeight': 410, 'width': 410, 'height': 410, 'widthPercent': 0.45, 'rescaleHeight': False, 'trialN': 63, 'loaded': True, 'loadedTime': 2108.9000000953674, 'positionName': 'RIGHT', 'positionCoords': [748.8, 245], 'bid': 5.97}]",120184.30000019073,1669830479212,hashbrowns,seaweed,5.0200000000000005,5.97,0.9499999999999993,seaweed,1393.6999998092651,1395,1395.5,True,i,122084.7000002861,1900.4000000953674,1669830481112,1900,HRV,HRV_0037,2022-11-30 17:51:50
64,"[{'imgObject': {}, 'id': 'seaweed', 'src': '/static/foodstim60/seaweed.jpg', 'key': 'u', 'origWidth': 410, 'origHeight': 410, 'width': 410, 'height': 410, 'widthPercent': 0.45, 'rescaleHeight': False, 'trialN': 64, 'loaded': True, 'loadedTime': 2111.5, 'positionName': 'LEFT', 'positionCoords': [281.2, 245], 'bid': 5.97}, {'imgObject': {}, 'id': 'turkey sandwich', 'src': '/static/foodstim60/turkey sandwich.jpg', 'key': 'i', 'origWidth': 409, 'origHeight': 409, 'width': 409, 'height': 409, 'widthPercent': 0.45, 'rescaleHeight': False, 'trialN': 64, 'loaded': True, 'loadedTime': 2167, 'positionName': 'RIGHT', 'positionCoords': [748.8, 245.5], 'bid': 8.8}]",122084.90000009537,1669830481112,seaweed,turkey sandwich,5.97,8.8,2.830000000000001,turkey sandwich,1141.0,1143,1142.8000001907349,True,i,123736.7000002861,1651.8000001907349,1669830482764,1652,HRV,HRV_0037,2022-11-30 17:51:50
65,"[{'imgObject': {}, 'id': 'turkey sandwich', 'src': '/static/foodstim60/turkey sandwich.jpg', 'key': 'u', 'origWidth': 409, 'origHeight': 409, 'width': 409, 'height': 409, 'widthPercent': 0.45, 'rescaleHeight': False, 'trialN': 65, 'loaded': True, 'loadedTime': 2167, 'positionName': 'LEFT', 'positionCoords': [282.2, 245.5], 'bid': 8.8}, {'imgObject': {}, 'id': 'Grapes', 'src': '/static/foodstim60/Grapes.jpg', 'key': 'i', 'origWidth': 411, 'origHeight': 411, 'width': 411, 'height': 411, 'widthPercent': 0.45, 'rescaleHeight': False, 'trialN': 65, 'loaded': True, 'loadedTime': 2159.6000003814697, 'positionName': 'RIGHT', 'positionCoords': [748.8, 244.5], 'bid': 9.27}]",123736.80000019073,1669830482764,turkey sandwich,Grapes,8.8,9.27,0.46999999999999886,turkey sandwich,1217.1999998092651,1219,1219.0,True,u,125464.7000002861,1727.9000000953674,1669830484492,1728,HRV,HRV_0037,2022-11-30 17:51:50
66,"[{'imgObject': {}, 'id': 'steak', 'src': '/static/foodstim60/steak.jpg', 'key': 'u', 'origWidth': 410, 'origHeight': 410, 'width': 410, 'height': 410, 'widthPercent': 0.45, 'rescaleHeight': False, 'trialN': 66, 'loaded': True, 'loadedTime': 2093.9000000953674, 'positionName': 'LEFT', 'positionCoords': [281.2, 245], 'bid': 0.72}, {'imgObject': {}, 'id': 'edamame', 'src': '/static/foodstim60/edamame.jpg', 'key': 'i', 'origWidth': 409, 'origHeight': 410, 'width': 409, 'height': 410, 'widthPercent': 0.45, 'rescaleHeight': False, 'trialN': 66, 'loaded': True, 'loadedTime': 2153.300000190735, 'positionName': 'RIGHT', 'positionCoords': [748.8, 245], 'bid': 6.0600000000000005}]",125464.90000009537,1669830484492,steak,edamame,0.72,6.0600000000000005,5.340000000000001,edamame,1105.0999999046326,1107,1106.9000000953674,True,i,127076.7000002861,1611.8000001907349,1669830486104,1612,HRV,HRV_0037,2022-11-30 17:51:50
67,"[{'imgObject': {}, 'id': 'pear', 'src': '/static/foodstim60/pear.jpg', 'key': 'u', 'origWidth': 411, 'origHeight': 410, 'width': 411, 'height': 410, 'widthPercent': 0.45, 'rescaleHeight': False, 'trialN': 67, 'loaded': True, 'loadedTime': 2132, 'positionName': 'LEFT', 'positionCoords': [280.2, 245], 'bid': 8.51}, {'imgObject': {}, 'id': 'omelette', 'src': '/static/foodstim60/omelette.jpg', 'key': 'i', 'origWidth': 410, 'origHeight': 409, 'width': 410, 'height': 409, 'widthPercent': 0.45, 'rescaleHeight': False, 'trialN': 67, 'loaded': True, 'loadedTime': 2066.4000000953674, 'positionName': 'RIGHT', 'positionCoords': [748.8, 245.5], 'bid': 3.66}]",127076.80000019073,1669830486104,pear,omelette,8.51,3.66,-4.85,pear,1213.0999999046326,1215,1215.0,True,u,128797.30000019073,1720.5,1669830487824,1720,HRV,HRV_0037,2022-11-30 17:51:50
68,"[{'imgObject': {}, 'id': 'cocktailshrimp', 'src': '/static/foodstim60/cocktailshrimp.jpg', 'key': 'u', 'origWidth': 410, 'origHeight': 410, 'width': 410, 'height': 410, 'widthPercent': 0.45, 'rescaleHeight': False, 'trialN': 68, 'loaded': True, 'loadedTime': 2152.1000003814697, 'positionName': 'LEFT', 'positionCoords': [281.2, 245], 'bid': 9.37}, {'imgObject': {}, 'id': 'cherries', 'src': '/static/foodstim60/cherries.jpg', 'key': 'i', 'origWidth': 410, 'origHeight': 411, 'width': 410, 'height': 411, 'widthPercent': 0.45, 'rescaleHeight': False, 'trialN': 68, 'loaded': True, 'loadedTime': 2157.5, 'positionName': 'RIGHT', 'positionCoords': [748.8, 244.5], 'bid': 8.43}]",128797.30000019073,1669830487825,cocktailshrimp,cherries,9.37,8.43,-0.9399999999999995,cocktailshrimp,1036.6999998092651,1038,1038.5999999046326,True,u,130344.7000002861,1547.4000000953674,1669830489372,1547,HRV,HRV_0037,2022-11-30 17:51:50
69,"[{'imgObject': {}, 'id': 'grilled chicken strips', 'src': '/static/foodstim60/grilled chicken strips.jpg', 'key': 'u', 'origWidth': 410, 'origHeight': 411, 'width': 410, 'height': 411, 'widthPercent': 0.45, 'rescaleHeight': False, 'trialN': 69, 'loaded': True, 'loadedTime': 2117.2000002861023, 'positionName': 'LEFT', 'positionCoords': [281.2, 244.5], 'bid': 2.91}, {'imgObject': {}, 'id': 'raisin bran w milk', 'src': '/static/foodstim60/raisin bran w milk.jpg', 'key': 'i', 'origWidth': 411, 'origHeight': 411, 'width': 411, 'height': 411, 'widthPercent': 0.45, 'rescaleHeight': False, 'trialN': 69, 'loaded': True, 'loadedTime': 1972.1000003814697, 'positionName': 'RIGHT', 'positionCoords': [748.8, 244.5], 'bid': 0.6900000000000001}]",130344.90000009537,1669830489372,grilled chicken strips,raisin bran w milk,2.91,0.6900000000000001,-2.22,grilled chicken strips,1881.0,1883,1882.9000000953674,True,u,132736.7000002861,2391.800000190735,1669830491764,2392,HRV,HRV_0037,2022-11-30 17:51:50
70,"[{'imgObject': {}, 'id': 'fried eggs', 'src': '/static/foodstim60/fried eggs.jpg', 'key': 'u', 'origWidth': 410, 'origHeight': 410, 'width': 410, 'height': 410, 'widthPercent': 0.45, 'rescaleHeight': False, 'trialN': 70, 'loaded': True, 'loadedTime': 2121.5, 'positionName': 'LEFT', 'positionCoords': [281.2, 245], 'bid': 4.12}, {'imgObject': {}, 'id': 'mashed potato', 'src': '/static/foodstim60/mashed potato.jpg', 'key': 'i', 'origWidth': 409, 'origHeight': 409, 'width': 409, 'height': 409, 'widthPercent': 0.45, 'rescaleHeight': False, 'trialN': 70, 'loaded': True, 'loadedTime': 2126.2000002861023, 'positionName': 'RIGHT', 'positionCoords': [748.8, 245.5], 'bid': 8.870000000000001}]",132736.90000009537,1669830491764,fried eggs,mashed potato,4.12,8.870000000000001,4.750000000000001,mashed potato,1233.0,1235,1234.8000001907349,True,i,134480.7000002861,1743.8000001907349,1669830493508,1744,HRV,HRV_0037,2022-11-30 17:51:50
71,"[{'imgObject': {}, 'id': 'salad w chicken', 'src': '/static/foodstim60/salad w chicken.jpg', 'key': 'u', 'origWidth': 411, 'origHeight': 411, 'width': 411, 'height': 411, 'widthPercent': 0.45, 'rescaleHeight': False, 'trialN': 71, 'loaded': True, 'loadedTime': 2164.1000003814697, 'positionName': 'LEFT', 'positionCoords': [280.2, 244.5], 'bid': 7.08}, {'imgObject': {}, 'id': 'burger', 'src': '/static/foodstim60/burger.jpg', 'key': 'i', 'origWidth': 409, 'origHeight': 409, 'width': 409, 'height': 409, 'widthPercent': 0.45, 'rescaleHeight': False, 'trialN': 71, 'loaded': True, 'loadedTime': 2131, 'positionName': 'RIGHT', 'positionCoords': [748.8, 245.5], 'bid': 6.2700000000000005}]",134480.80000019073,1669830493508,salad w chicken,burger,7.08,6.2700000000000005,-0.8099999999999996,salad w chicken,1057.0,1058,1058.5999999046326,True,u,136044.60000038147,1563.8000001907349,1669830495072,1564,HRV,HRV_0037,2022-11-30 17:51:50
72,"[{'imgObject': {}, 'id': 'blueberries', 'src': '/static/foodstim60/blueberries.jpg', 'key': 'u', 'origWidth': 411, 'origHeight': 411, 'width': 411, 'height': 411, 'widthPercent': 0.45, 'rescaleHeight': False, 'trialN': 72, 'loaded': True, 'loadedTime': 2079.800000190735, 'positionName': 'LEFT', 'positionCoords': [280.2, 244.5], 'bid': 6.4}, {'imgObject': {}, 'id': 'burger', 'src': '/static/foodstim60/burger.jpg', 'key': 'i', 'origWidth': 409, 'origHeight': 409, 'width': 409, 'height': 409, 'widthPercent': 0.45, 'rescaleHeight': False, 'trialN': 72, 'loaded': True, 'loadedTime': 2131.2000002861023, 'positionName': 'RIGHT', 'positionCoords': [748.8, 245.5], 'bid': 6.2700000000000005}]",136044.7000002861,1669830495072,blueberries,burger,6.4,6.2700000000000005,-0.1299999999999999,burger,1117.2999997138977,1119,1119.1999998092651,True,i,137672.7000002861,1628.0,1669830496700,1628,HRV,HRV_0037,2022-11-30 17:51:50
73,"[{'imgObject': {}, 'id': 'orange slices', 'src': '/static/foodstim60/orange slices.jpg', 'key': 'u', 'origWidth': 409, 'origHeight': 410, 'width': 409, 'height': 410, 'widthPercent': 0.45, 'rescaleHeight': False, 'trialN': 73, 'loaded': True, 'loadedTime': 2099.6000003814697, 'positionName': 'LEFT', 'positionCoords': [282.2, 245], 'bid': 5.66}, {'imgObject': {}, 'id': 'lox', 'src': '/static/foodstim60/lox.jpg', 'key': 'i', 'origWidth': 410, 'origHeight': 411, 'width': 410, 'height': 411, 'widthPercent': 0.45, 'rescaleHeight': False, 'trialN': 73, 'loaded': True, 'loadedTime': 2112.4000000953674, 'positionName': 'RIGHT', 'positionCoords': [748.8, 244.5], 'bid': 6.13}]",137672.80000019073,1669830496700,orange slices,lox,5.66,6.13,0.46999999999999975,lox,1345.0999999046326,1347,1346.9000000953674,True,i,139528.7000002861,1855.9000000953674,1669830498556,1856,HRV,HRV_0037,2022-11-30 17:51:50
74,"[{'imgObject': {}, 'id': 'omelette', 'src': '/static/foodstim60/omelette.jpg', 'key': 'u', 'origWidth': 410, 'origHeight': 409, 'width': 410, 'height': 409, 'widthPercent': 0.45, 'rescaleHeight': False, 'trialN': 74, 'loaded': True, 'loadedTime': 2068.6000003814697, 'positionName': 'LEFT', 'positionCoords': [281.2, 245.5], 'bid': 3.66}, {'imgObject': {}, 'id': 'eggs', 'src': '/static/foodstim60/eggs.jpg', 'key': 'i', 'origWidth': 409, 'origHeight': 409, 'width': 409, 'height': 409, 'widthPercent': 0.45, 'rescaleHeight': False, 'trialN': 74, 'loaded': True, 'loadedTime': 2083.1000003814697, 'positionName': 'RIGHT', 'positionCoords': [748.8, 245.5], 'bid': 4.0200000000000005}]",139528.80000019073,1669830498556,omelette,eggs,3.66,4.0200000000000005,0.3600000000000003,eggs,1769.1999998092651,1771,1771.0,True,i,141807.40000009537,2278.5999999046326,1669830500834,2278,HRV,HRV_0037,2022-11-30 17:51:50
75,"[{'imgObject': {}, 'id': 'sushi w_condiments', 'src': '/static/foodstim60/sushi w_condiments.jpg', 'key': 'u', 'origWidth': 410, 'origHeight': 410, 'width': 410, 'height': 410, 'widthPercent': 0.45, 'rescaleHeight': False, 'trialN': 75, 'loaded': True, 'loadedTime': 2160.4000000953674, 'positionName': 'LEFT', 'positionCoords': [281.2, 245], 'bid': 9.97}, {'imgObject': {}, 'id': 'raspberries', 'src': '/static/foodstim60/raspberries.jpg', 'key': 'i', 'origWidth': 411, 'origHeight': 411, 'width': 411, 'height': 411, 'widthPercent': 0.45, 'rescaleHeight': False, 'trialN': 75, 'loaded': True, 'loadedTime': 2068.800000190735, 'positionName': 'RIGHT', 'positionCoords': [748.8, 244.5], 'bid': 9.26}]",141807.60000038147,1669830500834,sushi w_condiments,raspberries,9.97,9.26,-0.7100000000000009,sushi w_condiments,994.2999997138977,997,996.1999998092651,True,u,143309.90000009537,1502.2999997138977,1669830502337,1503,HRV,HRV_0037,2022-11-30 17:51:50
76,"[{'imgObject': {}, 'id': 'roastedpotatoes', 'src': '/static/foodstim60/roastedpotatoes.jpg', 'key': 'u', 'origWidth': 409, 'origHeight': 410, 'width': 409, 'height': 410, 'widthPercent': 0.45, 'rescaleHeight': False, 'trialN': 76, 'loaded': True, 'loadedTime': 2127.300000190735, 'positionName': 'LEFT', 'positionCoords': [282.2, 245], 'bid': 9.44}, {'imgObject': {}, 'id': 'turkeysandwich', 'src': '/static/foodstim60/turkeysandwich.jpg', 'key': 'i', 'origWidth': 409, 'origHeight': 409, 'width': 409, 'height': 409, 'widthPercent': 0.45, 'rescaleHeight': False, 'trialN': 76, 'loaded': True, 'loadedTime': 2139.4000000953674, 'positionName': 'RIGHT', 'positionCoords': [748.8, 245.5], 'bid': 8.77}]",143310.10000038147,1669830502337,roastedpotatoes,turkeysandwich,9.44,8.77,-0.6699999999999999,turkeysandwich,979.7999997138977,987,986.7999997138977,True,i,144808.60000038147,1498.5,1669830503835,1498,HRV,HRV_0037,2022-11-30 17:51:50
77,"[{'imgObject': {}, 'id': 'turkeysandwich', 'src': '/static/foodstim60/turkeysandwich.jpg', 'key': 'u', 'origWidth': 409, 'origHeight': 409, 'width': 409, 'height': 409, 'widthPercent': 0.45, 'rescaleHeight': False, 'trialN': 77, 'loaded': True, 'loadedTime': 2139.4000000953674, 'positionName': 'LEFT', 'positionCoords': [282.2, 245.5], 'bid': 8.77}, {'imgObject': {}, 'id': 'ice cream sundae 002', 'src': '/static/foodstim60/ice cream sundae 002.jpg', 'key': 'i', 'origWidth': 409, 'origHeight': 409, 'width': 409, 'height': 409, 'widthPercent': 0.45, 'rescaleHeight': False, 'trialN': 77, 'loaded': True, 'loadedTime': 2116.800000190735, 'positionName': 'RIGHT', 'positionCoords': [748.8, 245.5], 'bid': 3.66}]",144808.80000019073,1669830503836,turkeysandwich,ice cream sundae 002,8.77,3.66,-5.109999999999999,turkeysandwich,1273.0999999046326,1274,1274.9000000953674,True,u,146592.7000002861,1783.9000000953674,1669830505619,1783,HRV,HRV_0037,2022-11-30 17:51:50
78,"[{'imgObject': {}, 'id': 'olives', 'src': '/static/foodstim60/olives.jpg', 'key': 'u', 'origWidth': 410, 'origHeight': 410, 'width': 410, 'height': 410, 'widthPercent': 0.45, 'rescaleHeight': False, 'trialN': 78, 'loaded': True, 'loadedTime': 2167.9000000953674, 'positionName': 'LEFT', 'positionCoords': [281.2, 245], 'bid': 8.16}, {'imgObject': {}, 'id': 'kiwi', 'src': '/static/foodstim60/kiwi.jpg', 'key': 'i', 'origWidth': 410, 'origHeight': 410, 'width': 410, 'height': 410, 'widthPercent': 0.45, 'rescaleHeight': False, 'trialN': 78, 'loaded': True, 'loadedTime': 2142.5, 'positionName': 'RIGHT', 'positionCoords': [748.8, 245], 'bid': 9.11}]",146592.80000019073,1669830505620,olives,kiwi,8.16,9.11,0.9499999999999993,kiwi,1361.0999999046326,1362,1363.0999999046326,True,i,148464.7000002861,1871.9000000953674,1669830507491,1871,HRV,HRV_0037,2022-11-30 17:51:50
79,"[{'imgObject': {}, 'id': 'bagel plain', 'src': '/static/foodstim60/bagel plain.jpg', 'key': 'u', 'origWidth': 410, 'origHeight': 410, 'width': 410, 'height': 410, 'widthPercent': 0.45, 'rescaleHeight': False, 'trialN': 79, 'loaded': True, 'loadedTime': 2168, 'positionName': 'LEFT', 'positionCoords': [281.2, 245], 'bid': 1.04}, {'imgObject': {}, 'id': 'burrito', 'src': '/static/foodstim60/burrito.jpg', 'key': 'i', 'origWidth': 410, 'origHeight': 410, 'width': 410, 'height': 410, 'widthPercent': 0.45, 'rescaleHeight': False, 'trialN': 79, 'loaded': True, 'loadedTime': 2049.1000003814697, 'positionName': 'RIGHT', 'positionCoords': [748.8, 245], 'bid': 3.54}]",148464.80000019073,1669830507491,bagel plain,burrito,1.04,3.54,2.5,burrito,1313.1999998092651,1315,1314.9000000953674,True,i,150285.2000002861,1820.4000000953674,1669830509312,1821,HRV,HRV_0037,2022-11-30 17:51:50
80,"[{'imgObject': {}, 'id': 'cantaloupe', 'src': '/static/foodstim60/cantaloupe.jpg', 'key': 'u', 'origWidth': 409, 'origHeight': 409, 'width': 409, 'height': 409, 'widthPercent': 0.45, 'rescaleHeight': False, 'trialN': 80, 'loaded': True, 'loadedTime': 2023.5, 'positionName': 'LEFT', 'positionCoords': [282.2, 245.5], 'bid': 4.2}, {'imgObject': {}, 'id': 'bagel plain', 'src': '/static/foodstim60/bagel plain.jpg', 'key': 'i', 'origWidth': 410, 'origHeight': 410, 'width': 410, 'height': 410, 'widthPercent': 0.45, 'rescaleHeight': False, 'trialN': 80, 'loaded': True, 'loadedTime': 2168.9000000953674, 'positionName': 'RIGHT', 'positionCoords': [748.8, 245], 'bid': 1.04}]",150285.30000019073,1669830509312,cantaloupe,bagel plain,4.2,1.04,-3.16,cantaloupe,1492.5999999046326,1494,1494.4000000953674,True,u,152288.7000002861,2003.4000000953674,1669830511315,2003,HRV,HRV_0037,2022-11-30 17:51:50
81,"[{'imgObject': {}, 'id': 'cherry tomato', 'src': '/static/foodstim60/cherry tomato.jpg', 'key': 'u', 'origWidth': 410, 'origHeight': 410, 'width': 410, 'height': 410, 'widthPercent': 0.45, 'rescaleHeight': False, 'trialN': 81, 'loaded': True, 'loadedTime': 2107, 'positionName': 'LEFT', 'positionCoords': [281.2, 245], 'bid': 4.5200000000000005}, {'imgObject': {}, 'id': 'mac & cheese', 'src': '/static/foodstim60/mac & cheese.jpg', 'key': 'i', 'origWidth': 410, 'origHeight': 410, 'width': 410, 'height': 410, 'widthPercent': 0.45, 'rescaleHeight': False, 'trialN': 81, 'loaded': True, 'loadedTime': 2058.5, 'positionName': 'RIGHT', 'positionCoords': [748.8, 245], 'bid': 9.04}]",152288.90000009537,1669830511315,cherry tomato,mac & cheese,4.5200000000000005,9.04,4.519999999999999,mac & cheese,1201.0,1203,1203.0,True,i,153996.60000038147,1707.7000002861023,1669830513023,1708,HRV,HRV_0037,2022-11-30 17:51:50
82,"[{'imgObject': {}, 'id': 'turkeysandwich', 'src': '/static/foodstim60/turkeysandwich.jpg', 'key': 'u', 'origWidth': 409, 'origHeight': 409, 'width': 409, 'height': 409, 'widthPercent': 0.45, 'rescaleHeight': False, 'trialN': 82, 'loaded': True, 'loadedTime': 2138.7000002861023, 'positionName': 'LEFT', 'positionCoords': [282.2, 245.5], 'bid': 8.77}, {'imgObject': {}, 'id': 'corn cob', 'src': '/static/foodstim60/corn cob.jpg', 'key': 'i', 'origWidth': 411, 'origHeight': 411, 'width': 411, 'height': 411, 'widthPercent': 0.45, 'rescaleHeight': False, 'trialN': 82, 'loaded': True, 'loadedTime': 2055, 'positionName': 'RIGHT', 'positionCoords': [748.8, 244.5], 'bid': 8.05}]",153996.7000002861,1669830513023,turkeysandwich,corn cob,8.77,8.05,-0.7199999999999989,turkeysandwich,1085.2999997138977,1087,1087.1999998092651,True,u,155592.7000002861,1596.0,1669830514619,1596,HRV,HRV_0037,2022-11-30 17:51:50
83,"[{'imgObject': {}, 'id': 'froot loops w milk', 'src': '/static/foodstim60/froot loops w milk.jpg', 'key': 'u', 'origWidth': 410, 'origHeight': 410, 'width': 410, 'height': 410, 'widthPercent': 0.45, 'rescaleHeight': False, 'trialN': 83, 'loaded': True, 'loadedTime': 2087.800000190735, 'positionName': 'LEFT', 'positionCoords': [281.2, 245], 'bid': 0.06}, {'imgObject': {}, 'id': 'granola w milk', 'src': '/static/foodstim60/granola w milk.jpg', 'key': 'i', 'origWidth': 410, 'origHeight': 410, 'width': 410, 'height': 410, 'widthPercent': 0.45, 'rescaleHeight': False, 'trialN': 83, 'loaded': True, 'loadedTime': 2116, 'positionName': 'RIGHT', 'positionCoords': [748.8, 245], 'bid': 1.09}]",155592.90000009537,1669830514619,froot loops w milk,granola w milk,0.06,1.09,1.03,granola w milk,1401.0999999046326,1404,1404.0,True,i,157500.30000019073,1907.4000000953674,1669830516527,1908,HRV,HRV_0037,2022-11-30 17:51:50
84,"[{'imgObject': {}, 'id': 'salmon', 'src': '/static/foodstim60/salmon.jpg', 'key': 'u', 'origWidth': 410, 'origHeight': 409, 'width': 410, 'height': 409, 'widthPercent': 0.45, 'rescaleHeight': False, 'trialN': 84, 'loaded': True, 'loadedTime': 2135.2000002861023, 'positionName': 'LEFT', 'positionCoords': [281.2, 245.5], 'bid': 4.95}, {'imgObject': {}, 'id': 'cocktailshrimp', 'src': '/static/foodstim60/cocktailshrimp.jpg', 'key': 'i', 'origWidth': 410, 'origHeight': 410, 'width': 410, 'height': 410, 'widthPercent': 0.45, 'rescaleHeight': False, 'trialN': 84, 'loaded': True, 'loadedTime': 2152.300000190735, 'positionName': 'RIGHT', 'positionCoords': [748.8, 245], 'bid': 9.37}]",157500.5,1669830516527,salmon,cocktailshrimp,4.95,9.37,4.419999999999999,cocktailshrimp,1181.5,1183,1183.4000000953674,True,i,159192.7000002861,1692.2000002861023,1669830518219,1692,HRV,HRV_0037,2022-11-30 17:51:50
85,"[{'imgObject': {}, 'id': 'Grapes', 'src': '/static/foodstim60/Grapes.jpg', 'key': 'u', 'origWidth': 411, 'origHeight': 411, 'width': 411, 'height': 411, 'widthPercent': 0.45, 'rescaleHeight': False, 'trialN': 85, 'loaded': True, 'loadedTime': 2159.4000000953674, 'positionName': 'LEFT', 'positionCoords': [280.2, 244.5], 'bid': 9.27}, {'imgObject': {}, 'id': 'sweetpotato', 'src': '/static/foodstim60/sweetpotato.jpg', 'key': 'i', 'origWidth': 410, 'origHeight': 410, 'width': 410, 'height': 410, 'widthPercent': 0.45, 'rescaleHeight': False, 'trialN': 85, 'loaded': True, 'loadedTime': 2161.4000000953674, 'positionName': 'RIGHT', 'positionCoords': [748.8, 245], 'bid': 7.58}]",159192.80000019073,1669830518219,Grapes,sweetpotato,9.27,7.58,-1.6899999999999995,sweetpotato,1457.0999999046326,1459,1459.0,True,i,161160.7000002861,1967.9000000953674,1669830520187,1968,HRV,HRV_0037,2022-11-30 17:51:50
86,"[{'imgObject': {}, 'id': 'mango', 'src': '/static/foodstim60/mango.jpg', 'key': 'u', 'origWidth': 411, 'origHeight': 411, 'width': 411, 'height': 411, 'widthPercent': 0.45, 'rescaleHeight': False, 'trialN': 86, 'loaded': True, 'loadedTime': 2158.4000000953674, 'positionName': 'LEFT', 'positionCoords': [280.2, 244.5], 'bid': 5.44}, {'imgObject': {}, 'id': 'edamame', 'src': '/static/foodstim60/edamame.jpg', 'key': 'i', 'origWidth': 409, 'origHeight': 410, 'width': 409, 'height': 410, 'widthPercent': 0.45, 'rescaleHeight': False, 'trialN': 86, 'loaded': True, 'loadedTime': 2153.2000002861023, 'positionName': 'RIGHT', 'positionCoords': [748.8, 245], 'bid': 6.0600000000000005}]",161160.90000009537,1669830520187,mango,edamame,5.44,6.0600000000000005,0.6200000000000001,edamame,1609.0,1611,1611.0,True,i,163280.7000002861,2119.800000190735,1669830522307,2120,HRV,HRV_0037,2022-11-30 17:51:50
87,"[{'imgObject': {}, 'id': 'corn cob', 'src': '/static/foodstim60/corn cob.jpg', 'key': 'u', 'origWidth': 411, 'origHeight': 411, 'width': 411, 'height': 411, 'widthPercent': 0.45, 'rescaleHeight': False, 'trialN': 87, 'loaded': True, 'loadedTime': 2051.7000002861023, 'positionName': 'LEFT', 'positionCoords': [280.2, 244.5], 'bid': 8.05}, {'imgObject': {}, 'id': 'avocado', 'src': '/static/foodstim60/avocado.jpg', 'key': 'i', 'origWidth': 409, 'origHeight': 409, 'width': 409, 'height': 409, 'widthPercent': 0.45, 'rescaleHeight': False, 'trialN': 87, 'loaded': True, 'loadedTime': 2058.4000000953674, 'positionName': 'RIGHT', 'positionCoords': [748.8, 245.5], 'bid': 8.34}]",163280.80000019073,1669830522307,corn cob,avocado,8.05,8.34,0.28999999999999915,avocado,1441.1999998092651,1443,1443.0,True,i,165231.40000009537,1950.5999999046326,1669830524258,1951,HRV,HRV_0037,2022-11-30 17:51:50
88,"[{'imgObject': {}, 'id': 'mac & cheese', 'src': '/static/foodstim60/mac & cheese.jpg', 'key': 'u', 'origWidth': 410, 'origHeight': 410, 'width': 410, 'height': 410, 'widthPercent': 0.45, 'rescaleHeight': False, 'trialN': 88, 'loaded': True, 'loadedTime': 2061.9000000953674, 'positionName': 'LEFT', 'positionCoords': [281.2, 245], 'bid': 9.04}, {'imgObject': {}, 'id': 'burger', 'src': '/static/foodstim60/burger.jpg', 'key': 'i', 'origWidth': 409, 'origHeight': 409, 'width': 409, 'height': 409, 'widthPercent': 0.45, 'rescaleHeight': False, 'trialN': 88, 'loaded': True, 'loadedTime': 2130.2000002861023, 'positionName': 'RIGHT', 'positionCoords': [748.8, 245.5], 'bid': 6.2700000000000005}]",165231.60000038147,1669830524258,mac & cheese,burger,9.04,6.2700000000000005,-2.7699999999999987,mac & cheese,962.3999996185303,964,964.1999998092651,True,u,166700.7000002861,1469.0999999046326,1669830525727,1469,HRV,HRV_0037,2022-11-30 17:51:50
89,"[{'imgObject': {}, 'id': 'cheerios', 'src': '/static/foodstim60/cheerios.jpg', 'key': 'u', 'origWidth': 409, 'origHeight': 410, 'width': 409, 'height': 410, 'widthPercent': 0.45, 'rescaleHeight': False, 'trialN': 89, 'loaded': True, 'loadedTime': 2144, 'positionName': 'LEFT', 'positionCoords': [282.2, 245], 'bid': 1.37}, {'imgObject': {}, 'id': 'raisin bran w milk', 'src': '/static/foodstim60/raisin bran w milk.jpg', 'key': 'i', 'origWidth': 411, 'origHeight': 411, 'width': 411, 'height': 411, 'widthPercent': 0.45, 'rescaleHeight': False, 'trialN': 89, 'loaded': True, 'loadedTime': 2009.7000002861023, 'positionName': 'RIGHT', 'positionCoords': [748.8, 244.5], 'bid': 0.6900000000000001}]",166700.90000009537,1669830525727,cheerios,raisin bran w milk,1.37,0.6900000000000001,-0.68,cheerios,2013.0999999046326,2015,2014.9000000953674,True,u,169221.40000009537,2520.5,1669830528247,2520,HRV,HRV_0037,2022-11-30 17:51:50
90,"[{'imgObject': {}, 'id': 'burrito', 'src': '/static/foodstim60/burrito.jpg', 'key': 'u', 'origWidth': 410, 'origHeight': 410, 'width': 410, 'height': 410, 'widthPercent': 0.45, 'rescaleHeight': False, 'trialN': 90, 'loaded': True, 'loadedTime': 2051.5, 'positionName': 'LEFT', 'positionCoords': [281.2, 245], 'bid': 3.54}, {'imgObject': {}, 'id': 'bagel and cc', 'src': '/static/foodstim60/bagel and cc.jpg', 'key': 'i', 'origWidth': 410, 'origHeight': 410, 'width': 410, 'height': 410, 'widthPercent': 0.45, 'rescaleHeight': False, 'trialN': 90, 'loaded': True, 'loadedTime': 2033.9000000953674, 'positionName': 'RIGHT', 'positionCoords': [748.8, 245], 'bid': 3.38}]",181955.90000009537,1669830540982,burrito,bagel and cc,3.54,3.38,-0.16000000000000014,burrito,1494.0999999046326,1495,1495.9000000953674,True,u,183960.7000002861,2004.8000001907349,1669830542986,2004,HRV,HRV_0037,2022-11-30 17:51:50
91,"[{'imgObject': {}, 'id': 'bagel plain', 'src': '/static/foodstim60/bagel plain.jpg', 'key': 'u', 'origWidth': 410, 'origHeight': 410, 'width': 410, 'height': 410, 'widthPercent': 0.45, 'rescaleHeight': False, 'trialN': 91, 'loaded': True, 'loadedTime': 2168.7000002861023, 'positionName': 'LEFT', 'positionCoords': [281.2, 245], 'bid': 1.04}, {'imgObject': {}, 'id': 'lox', 'src': '/static/foodstim60/lox.jpg', 'key': 'i', 'origWidth': 410, 'origHeight': 411, 'width': 410, 'height': 411, 'widthPercent': 0.45, 'rescaleHeight': False, 'trialN': 91, 'loaded': True, 'loadedTime': 2112.4000000953674, 'positionName': 'RIGHT', 'positionCoords': [748.8, 244.5], 'bid': 6.13}]",183960.80000019073,1669830542986,bagel plain,lox,1.04,6.13,5.09,lox,1097.1999998092651,1099,1099.0999999046326,True,i,185568.7000002861,1607.9000000953674,1669830544594,1608,HRV,HRV_0037,2022-11-30 17:51:50
92,"[{'imgObject': {}, 'id': 'cocktailshrimp', 'src': '/static/foodstim60/cocktailshrimp.jpg', 'key': 'u', 'origWidth': 410, 'origHeight': 410, 'width': 410, 'height': 410, 'widthPercent': 0.45, 'rescaleHeight': False, 'trialN': 92, 'loaded': True, 'loadedTime': 2152.300000190735, 'positionName': 'LEFT', 'positionCoords': [281.2, 245], 'bid': 9.37}, {'imgObject': {}, 'id': 'mashed potato', 'src': '/static/foodstim60/mashed potato.jpg', 'key': 'i', 'origWidth': 409, 'origHeight': 409, 'width': 409, 'height': 409, 'widthPercent': 0.45, 'rescaleHeight': False, 'trialN': 92, 'loaded': True, 'loadedTime': 2126.2000002861023, 'positionName': 'RIGHT', 'positionCoords': [748.8, 245.5], 'bid': 8.870000000000001}]",185568.80000019073,1669830544594,cocktailshrimp,mashed potato,9.37,8.870000000000001,-0.4999999999999982,cocktailshrimp,1089.0,1092,1092.0999999046326,True,u,187168.60000038147,1599.8000001907349,1669830546194,1600,HRV,HRV_0037,2022-11-30 17:51:50
93,"[{'imgObject': {}, 'id': 'salad w chicken', 'src': '/static/foodstim60/salad w chicken.jpg', 'key': 'u', 'origWidth': 411, 'origHeight': 411, 'width': 411, 'height': 411, 'widthPercent': 0.45, 'rescaleHeight': False, 'trialN': 93, 'loaded': True, 'loadedTime': 2164.9000000953674, 'positionName': 'LEFT', 'positionCoords': [280.2, 244.5], 'bid': 7.08}, {'imgObject': {}, 'id': 'sweetpotato', 'src': '/static/foodstim60/sweetpotato.jpg', 'key': 'i', 'origWidth': 410, 'origHeight': 410, 'width': 410, 'height': 410, 'widthPercent': 0.45, 'rescaleHeight': False, 'trialN': 93, 'loaded': True, 'loadedTime': 2161.5, 'positionName': 'RIGHT', 'positionCoords': [748.8, 245], 'bid': 7.58}]",187168.80000019073,1669830546194,salad w chicken,sweetpotato,7.08,7.58,0.5,sweetpotato,1233.1999998092651,1235,1235.0,True,i,188910.5,1741.6999998092651,1669830547936,1742,HRV,HRV_0037,2022-11-30 17:51:50
94,"[{'imgObject': {}, 'id': 'seaweed', 'src': '/static/foodstim60/seaweed.jpg', 'key': 'u', 'origWidth': 410, 'origHeight': 410, 'width': 410, 'height': 410, 'widthPercent': 0.45, 'rescaleHeight': False, 'trialN': 94, 'loaded': True, 'loadedTime': 2111.300000190735, 'positionName': 'LEFT', 'positionCoords': [281.2, 245], 'bid': 5.97}, {'imgObject': {}, 'id': 'raisin bran w milk', 'src': '/static/foodstim60/raisin bran w milk.jpg', 'key': 'i', 'origWidth': 411, 'origHeight': 411, 'width': 411, 'height': 411, 'widthPercent': 0.45, 'rescaleHeight': False, 'trialN': 94, 'loaded': True, 'loadedTime': 2009.9000000953674, 'positionName': 'RIGHT', 'positionCoords': [748.8, 244.5], 'bid': 0.6900000000000001}]",188910.60000038147,1669830547936,seaweed,raisin bran w milk,5.97,0.6900000000000001,-5.279999999999999,seaweed,1059.2999997138977,1061,1061.1999998092651,True,u,190480.60000038147,1570.0,1669830549506,1570,HRV,HRV_0037,2022-11-30 17:51:50
95,"[{'imgObject': {}, 'id': 'veggieswithdip', 'src': '/static/foodstim60/veggieswithdip.jpg', 'key': 'u', 'origWidth': 409, 'origHeight': 409, 'width': 409, 'height': 409, 'widthPercent': 0.45, 'rescaleHeight': False, 'trialN': 95, 'loaded': True, 'loadedTime': 2047.9000000953674, 'positionName': 'LEFT', 'positionCoords': [282.2, 245.5], 'bid': 9.4}, {'imgObject': {}, 'id': 'roastedpotatoes', 'src': '/static/foodstim60/roastedpotatoes.jpg', 'key': 'i', 'origWidth': 409, 'origHeight': 410, 'width': 409, 'height': 410, 'widthPercent': 0.45, 'rescaleHeight': False, 'trialN': 95, 'loaded': True, 'loadedTime': 2126.300000190735, 'positionName': 'RIGHT', 'positionCoords': [748.8, 245], 'bid': 9.44}]",190480.80000019073,1669830549506,veggieswithdip,roastedpotatoes,9.4,9.44,0.03999999999999915,veggieswithdip,961.1999998092651,963,963.0,True,u,191952.60000038147,1471.8000001907349,1669830550978,1472,HRV,HRV_0037,2022-11-30 17:51:50
96,"[{'imgObject': {}, 'id': 'cherries', 'src': '/static/foodstim60/cherries.jpg', 'key': 'u', 'origWidth': 410, 'origHeight': 411, 'width': 410, 'height': 411, 'widthPercent': 0.45, 'rescaleHeight': False, 'trialN': 96, 'loaded': True, 'loadedTime': 2157.4000000953674, 'positionName': 'LEFT', 'positionCoords': [281.2, 244.5], 'bid': 8.43}, {'imgObject': {}, 'id': 'burrito', 'src': '/static/foodstim60/burrito.jpg', 'key': 'i', 'origWidth': 410, 'origHeight': 410, 'width': 410, 'height': 410, 'widthPercent': 0.45, 'rescaleHeight': False, 'trialN': 96, 'loaded': True, 'loadedTime': 2051.300000190735, 'positionName': 'RIGHT', 'positionCoords': [748.8, 245], 'bid': 3.54}]",191952.80000019073,1669830550978,cherries,burrito,8.43,3.54,-4.89,cherries,1353.1999998092651,1356,1356.0999999046326,True,u,193816.5,1863.6999998092651,1669830552842,1864,HRV,HRV_0037,2022-11-30 17:51:50
97,"[{'imgObject': {}, 'id': 'roastedpotatoes', 'src': '/static/foodstim60/roastedpotatoes.jpg', 'key': 'u', 'origWidth': 409, 'origHeight': 410, 'width': 409, 'height': 410, 'widthPercent': 0.45, 'rescaleHeight': False, 'trialN': 97, 'loaded': True, 'loadedTime': 2127.1000003814697, 'positionName': 'LEFT', 'positionCoords': [282.2, 245], 'bid': 9.44}, {'imgObject': {}, 'id': 'hashbrowns', 'src': '/static/foodstim60/hashbrowns.jpg', 'key': 'i', 'origWidth': 411, 'origHeight': 410, 'width': 411, 'height': 410, 'widthPercent': 0.45, 'rescaleHeight': False, 'trialN': 97, 'loaded': True, 'loadedTime': 2166, 'positionName': 'RIGHT', 'positionCoords': [748.8, 245], 'bid': 5.0200000000000005}]",193816.7000002861,1669830552842,roastedpotatoes,hashbrowns,9.44,5.0200000000000005,-4.419999999999999,roastedpotatoes,1385.0999999046326,1387,1386.9000000953674,True,u,195710.7000002861,1894.0,1669830554736,1894,HRV,HRV_0037,2022-11-30 17:51:50
98,"[{'imgObject': {}, 'id': 'strawberries', 'src': '/static/foodstim60/strawberries.jpg', 'key': 'u', 'origWidth': 410, 'origHeight': 410, 'width': 410, 'height': 410, 'widthPercent': 0.45, 'rescaleHeight': False, 'trialN': 98, 'loaded': True, 'loadedTime': 2149.4000000953674, 'positionName': 'LEFT', 'positionCoords': [281.2, 245], 'bid': 4.97}, {'imgObject': {}, 'id': 'burger', 'src': '/static/foodstim60/burger.jpg', 'key': 'i', 'origWidth': 409, 'origHeight': 409, 'width': 409, 'height': 409, 'widthPercent': 0.45, 'rescaleHeight': False, 'trialN': 98, 'loaded': True, 'loadedTime': 2130.9000000953674, 'positionName': 'RIGHT', 'positionCoords': [748.8, 245.5], 'bid': 6.2700000000000005}]",195710.80000019073,1669830554736,strawberries,burger,4.97,6.2700000000000005,1.3000000000000007,burger,971.1999998092651,973,973.0,True,i,197192.7000002861,1481.9000000953674,1669830556218,1482,HRV,HRV_0037,2022-11-30 17:51:50
99,"[{'imgObject': {}, 'id': 'cherries', 'src': '/static/foodstim60/cherries.jpg', 'key': 'u', 'origWidth': 410, 'origHeight': 411, 'width': 410, 'height': 411, 'widthPercent': 0.45, 'rescaleHeight': False, 'trialN': 99, 'loaded': True, 'loadedTime': 2157.6000003814697, 'positionName': 'LEFT', 'positionCoords': [281.2, 244.5], 'bid': 8.43}, {'imgObject': {}, 'id': 'sweetpotato', 'src': '/static/foodstim60/sweetpotato.jpg', 'key': 'i', 'origWidth': 410, 'origHeight': 410, 'width': 410, 'height': 410, 'widthPercent': 0.45, 'rescaleHeight': False, 'trialN': 99, 'loaded': True, 'loadedTime': 2161.4000000953674, 'positionName': 'RIGHT', 'positionCoords': [748.8, 245], 'bid': 7.58}]",197192.80000019073,1669830556218,cherries,sweetpotato,8.43,7.58,-0.8499999999999996,sweetpotato,1273.1999998092651,1275,1274.9000000953674,True,i,198975.60000038147,1782.8000001907349,1669830558001,1783,HRV,HRV_0037,2022-11-30 17:51:50
100,"[{'imgObject': {}, 'id': 'avocado', 'src': '/static/foodstim60/avocado.jpg', 'key': 'u', 'origWidth': 409, 'origHeight': 409, 'width': 409, 'height': 409, 'widthPercent': 0.45, 'rescaleHeight': False, 'trialN': 100, 'loaded': True, 'loadedTime': 2055.2000002861023, 'positionName': 'LEFT', 'positionCoords': [282.2, 245.5], 'bid': 8.34}, {'imgObject': {}, 'id': 'tacos', 'src': '/static/foodstim60/tacos.jpg', 'key': 'i', 'origWidth': 411, 'origHeight': 411, 'width': 411, 'height': 411, 'widthPercent': 0.45, 'rescaleHeight': False, 'trialN': 100, 'loaded': True, 'loadedTime': 2138.5, 'positionName': 'RIGHT', 'positionCoords': [748.8, 244.5], 'bid': 9.73}]",198975.60000038147,1669830558001,avocado,tacos,8.34,9.73,1.3900000000000006,tacos,1218.1999998092651,1232,1232.6999998092651,True,i,200718.40000009537,1742.7999997138977,1669830559743,1742,HRV,HRV_0037,2022-11-30 17:51:50
101,"[{'imgObject': {}, 'id': 'banana', 'src': '/static/foodstim60/banana.jpg', 'key': 'u', 'origWidth': 410, 'origHeight': 410, 'width': 410, 'height': 410, 'widthPercent': 0.45, 'rescaleHeight': False, 'trialN': 101, 'loaded': True, 'loadedTime': 2037.1000003814697, 'positionName': 'LEFT', 'positionCoords': [281.2, 245], 'bid': 5.68}, {'imgObject': {}, 'id': 'chickenfingers', 'src': '/static/foodstim60/chickenfingers.jpg', 'key': 'i', 'origWidth': 410, 'origHeight': 410, 'width': 410, 'height': 410, 'widthPercent': 0.45, 'rescaleHeight': False, 'trialN': 101, 'loaded': True, 'loadedTime': 2103.6000003814697, 'positionName': 'RIGHT', 'positionCoords': [748.8, 245], 'bid': 5.69}]",200718.60000038147,1669830559744,banana,chickenfingers,5.68,5.69,0.010000000000000675,chickenfingers,1339.2999997138977,1341,1341.1999998092651,True,i,202564.7000002861,1846.0999999046326,1669830561590,1846,HRV,HRV_0037,2022-11-30 17:51:50
102,"[{'imgObject': {}, 'id': 'bagel plain', 'src': '/static/foodstim60/bagel plain.jpg', 'key': 'u', 'origWidth': 410, 'origHeight': 410, 'width': 410, 'height': 410, 'widthPercent': 0.45, 'rescaleHeight': False, 'trialN': 102, 'loaded': True, 'loadedTime': 2168.7000002861023, 'positionName': 'LEFT', 'positionCoords': [281.2, 245], 'bid': 1.04}, {'imgObject': {}, 'id': 'granola w milk', 'src': '/static/foodstim60/granola w milk.jpg', 'key': 'i', 'origWidth': 410, 'origHeight': 410, 'width': 410, 'height': 410, 'widthPercent': 0.45, 'rescaleHeight': False, 'trialN': 102, 'loaded': True, 'loadedTime': 2112.800000190735, 'positionName': 'RIGHT', 'positionCoords': [748.8, 245], 'bid': 1.09}]",202564.80000019073,1669830561590,bagel plain,granola w milk,1.04,1.09,0.050000000000000044,granola w milk,1149.0999999046326,1151,1150.9000000953674,True,i,204224.7000002861,1659.9000000953674,1669830563250,1660,HRV,HRV_0037,2022-11-30 17:51:50
103,"[{'imgObject': {}, 'id': 'ice cream sundae 002', 'src': '/static/foodstim60/ice cream sundae 002.jpg', 'key': 'u', 'origWidth': 409, 'origHeight': 409, 'width': 409, 'height': 409, 'widthPercent': 0.45, 'rescaleHeight': False, 'trialN': 103, 'loaded': True, 'loadedTime': 2117.1000003814697, 'positionName': 'LEFT', 'positionCoords': [282.2, 245.5], 'bid': 3.66}, {'imgObject': {}, 'id': 'eggsalad', 'src': '/static/foodstim60/eggsalad.jpg', 'key': 'i', 'origWidth': 410, 'origHeight': 409, 'width': 410, 'height': 409, 'widthPercent': 0.45, 'rescaleHeight': False, 'trialN': 103, 'loaded': True, 'loadedTime': 2072.1000003814697, 'positionName': 'RIGHT', 'positionCoords': [748.8, 245.5], 'bid': 4.83}]",204224.80000019073,1669830563250,ice cream sundae 002,eggsalad,3.66,4.83,1.17,eggsalad,1561.1999998092651,1563,1563.0,True,i,206292.2000002861,2067.4000000953674,1669830565317,2067,HRV,HRV_0037,2022-11-30 17:51:50
104,"[{'imgObject': {}, 'id': 'rigatoni', 'src': '/static/foodstim60/rigatoni.jpg', 'key': 'u', 'origWidth': 411, 'origHeight': 411, 'width': 411, 'height': 411, 'widthPercent': 0.45, 'rescaleHeight': False, 'trialN': 104, 'loaded': True, 'loadedTime': 2076.4000000953674, 'positionName': 'LEFT', 'positionCoords': [280.2, 244.5], 'bid': 1.11}, {'imgObject': {}, 'id': 'blackbeanswithrice', 'src': '/static/foodstim60/blackbeanswithrice.jpg', 'key': 'i', 'origWidth': 410, 'origHeight': 410, 'width': 410, 'height': 410, 'widthPercent': 0.45, 'rescaleHeight': False, 'trialN': 104, 'loaded': True, 'loadedTime': 2147.4000000953674, 'positionName': 'RIGHT', 'positionCoords': [748.8, 245], 'bid': 1.38}]",206292.30000019073,1669830565317,rigatoni,blackbeanswithrice,1.11,1.38,0.2699999999999998,blackbeanswithrice,1493.5999999046326,1495,1495.4000000953674,True,i,208294.2000002861,2001.9000000953674,1669830567319,2002,HRV,HRV_0037,2022-11-30 17:51:50
105,"[{'imgObject': {}, 'id': 'tacos', 'src': '/static/foodstim60/tacos.jpg', 'key': 'u', 'origWidth': 411, 'origHeight': 411, 'width': 411, 'height': 411, 'widthPercent': 0.45, 'rescaleHeight': False, 'trialN': 105, 'loaded': True, 'loadedTime': 2138.300000190735, 'positionName': 'LEFT', 'positionCoords': [280.2, 244.5], 'bid': 9.73}, {'imgObject': {}, 'id': 'sushi w_condiments', 'src': '/static/foodstim60/sushi w_condiments.jpg', 'key': 'i', 'origWidth': 410, 'origHeight': 410, 'width': 410, 'height': 410, 'widthPercent': 0.45, 'rescaleHeight': False, 'trialN': 105, 'loaded': True, 'loadedTime': 2160.5, 'positionName': 'RIGHT', 'positionCoords': [748.8, 245], 'bid': 9.97}]",208294.30000019073,1669830567319,tacos,sushi w_condiments,9.73,9.97,0.2400000000000002,sushi w_condiments,1091.6999998092651,1093,1093.3000001907349,True,i,209892.10000038147,1597.8000001907349,1669830568917,1598,HRV,HRV_0037,2022-11-30 17:51:50
106,"[{'imgObject': {}, 'id': 'hotdog w must', 'src': '/static/foodstim60/hotdog w must.jpg', 'key': 'u', 'origWidth': 409, 'origHeight': 409, 'width': 409, 'height': 409, 'widthPercent': 0.45, 'rescaleHeight': False, 'trialN': 106, 'loaded': True, 'loadedTime': 2027.9000000953674, 'positionName': 'LEFT', 'positionCoords': [282.2, 245.5], 'bid': 8.370000000000001}, {'imgObject': {}, 'id': 'Grapes', 'src': '/static/foodstim60/Grapes.jpg', 'key': 'i', 'origWidth': 411, 'origHeight': 411, 'width': 411, 'height': 411, 'widthPercent': 0.45, 'rescaleHeight': False, 'trialN': 106, 'loaded': True, 'loadedTime': 2158.7000002861023, 'positionName': 'RIGHT', 'positionCoords': [748.8, 244.5], 'bid': 9.27}]",209892.2000002861,1669830568917,hotdog w must,Grapes,8.370000000000001,9.27,0.8999999999999986,Grapes,1237.6999998092651,1239,1239.0,True,i,211640.7000002861,1748.5,1669830570665,1748,HRV,HRV_0037,2022-11-30 17:51:50
107,"[{'imgObject': {}, 'id': 'edamame', 'src': '/static/foodstim60/edamame.jpg', 'key': 'u', 'origWidth': 409, 'origHeight': 410, 'width': 409, 'height': 410, 'widthPercent': 0.45, 'rescaleHeight': False, 'trialN': 107, 'loaded': True, 'loadedTime': 2153.1000003814697, 'positionName': 'LEFT', 'positionCoords': [282.2, 245], 'bid': 6.0600000000000005}, {'imgObject': {}, 'id': 'apple slices', 'src': '/static/foodstim60/apple slices.jpg', 'key': 'i', 'origWidth': 409, 'origHeight': 410, 'width': 409, 'height': 410, 'widthPercent': 0.45, 'rescaleHeight': False, 'trialN': 107, 'loaded': True, 'loadedTime': 2169.6000003814697, 'positionName': 'RIGHT', 'positionCoords': [748.8, 245], 'bid': 5.91}]",211640.80000019073,1669830570666,edamame,apple slices,6.0600000000000005,5.91,-0.15000000000000036,edamame,1105.0999999046326,1107,1107.1999998092651,True,u,213254.10000038147,1613.3000001907349,1669830572279,1613,HRV,HRV_0037,2022-11-30 17:51:50
