success,trial_type,trial_index,time_elapsed,internal_node_id,Block,TrialNumber,TrialTime,trialTimeDiff,FPS_avg,FPS_med,FPS_mode,TrialDur,winResizeTime,rt,block,button_pressed,MotCoh,MotDir,ColCoh,Color,ChoiceKey,Choice,Accuracy,RT,nFrames,FPS,PPD,missTrial,missTrialMsg,onsetDelay,fullScreenExitTime,canvCenter,TrialType,Score,BlockTrial,stimulus,button_labels,exp,subjectId,date
True,fullscreen,0,1706,0.0-0.0,0.0,1.0,,,,,,,,,,,,,,,,,,,,,,,,,,,,,,,,HRV,HRV_0037,2022-11-30 18:01:46
,wl-check-fps,1,6699,0.0-1.0,0.0,2.0,"[2547.6, 2548.1, 2558, 2574.2, 2591.9, 2607.5, 2625.5, 2641, 2657.6, 2674.2, 2692.2, 2707.7, 2724.2, 2741, 2757.5, 2774.5, 2791.9, 2808.8, 2824.1, 2841.3, 2858.8, 2874.2, 2892.1, 2908.9, 2924.2, 2942.2, 2957.5, 2974.8, 2991.2, 3007.5, 3025.6, 3041.8, 3057.5, 3075.4, 3091.1, 3107.6, 3124.3, 3142.4, 3158.6, 3174.2, 3192.3, 3208.5, 3224.3, 3242.1, 3258.2, 3275.5, 3291.8, 3307.7, 3325.7, 3340.8, 3358.1, 3375.3, 3390.6, 3408.2, 3425.3, 3440.8, 3458.9, 3474.2, 3492.2, 3508.6, 3524.9, 3541.1, 3557.6, 3575, 3592.1, 3608.5, 3625.1, 3641.9, 3657.7, 3675.5, 3691.7, 3708.9, 3724.2, 3742.3, 3758.5, 3775.7, 3791.7, 3809.1, 3825.7, 3842, 3858.3, 3875.4, 3890.9, 3907.7, 3925.8, 3941.8, 3957.7, 3975.9, 3992, 4008.2, 4024.5, 4041.1, 4059, 4074.6, 4091, 4109.1, 4124.3, 4141.6, 4158.9, 4174.5, 4191.1, 4209, 4225.1, 4241.1, 4258.7, 4275.2, 4291, 4309.1, 4325.4, 4341.2, 4358.4, 4375.5, 4391.2, 4407.9, 4424.6, 4441.8, 4459, 4475.3, 4491.1, 4508.7, 4524.9, 4541.2, 4557.8, 4574.1, 4591.2, 4608.3, 4624.5, 4642.4, 4658.3, 4675.6, 4691.8, 4708, 4724.3, 4742.4, 4758.9, 4774.4, 4791.7, 4808.5, 4824.3, 4842.2, 4858.9, 4874.6, 4891.6, 4908.1, 4924.5, 4942.6, 4958.3, 4975.7, 4991.3, 5007.8, 5026, 5041.3, 5058.9, 5075.3, 5092.4, 5108, 5124.5, 5142.7, 5158.9, 5174.7, 5191.3, 5208, 5225.5, 5241.6, 5259, 5274.3, 5291.3, 5307.6, 5324.8, 5342.1, 5357.9, 5376.1, 5392.2, 5407.9, 5425.9, 5441.2, 5459.2, 5475.4, 5491.2, 5509.3, 5524.9, 5541.2, 5559.4, 5575.5, 5591.8, 5607.9, 5626.1, 5642.3, 5658.6, 5674.6, 5692.7, 5709, 5724.6, 5742.8, 5759.1, 5775.2, 5791.4, 5808.7, 5825, 5841.4, 5859.1, 5875.4, 5891.4, 5908.8, 5925.2, 5941.3, 5958.7, 5975.8, 5991.2, 6009.2, 6024.5, 6041.5, 6058.7, 6074.8, 6092, 6108.1, 6124.6, 6142.9, 6158.2, 6174.8, 6190.8, 6209, 6225.9, 6242.3, 6258.1, 6274.7, 6292.7, 6308.1, 6324.3, 6341.6, 6358.2, 6374.6, 6392.6, 6408.9, 6424.8, 6441.4, 6459.2, 6475.1, 6492.4, 6508.6, 6525, 6541.5, 6559.1, 6576.1, 6592, 6608.4, 6624.8, 6642.5, 6658.3, 6674.8, 6691.5, 6707.6, 6724.9, 6741.6, 6758.2, 6774.8, 6791.6, 6809, 6824.5, 6843, 6858.3, 6874.8, 6892.1, 6909.3, 6924.8, 6941.5, 6959, 6975, 6991.9, 7009.1, 7025.4, 7041.6, 7058.2, 7076.3, 7092.2, 7109.5, 7125.3, 7141.6, 7158.2, 7175.6, 7192.9, 7208.3, 7224.5, 7241.6, 7258.8, 7275.9, 7291.6, 7308.2, 7324.9, 7342.9, 7359.1, 7374.7, 7392.4, 7408.2, 7425.4, 7441.7, 7458.4, 7474.9, 7491, 7508.4]","[12, 0.5, 9.9, 16.2, 17.7, 15.6, 18, 15.5, 16.6, 16.6, 18, 15.5, 16.5, 16.8, 16.5, 17, 17.4, 16.9, 15.3, 17.2, 17.5, 15.4, 17.9, 16.8, 15.3, 18, 15.3, 17.3, 16.4, 16.3, 18.1, 16.2, 15.7, 17.9, 15.7, 16.5, 16.7, 18.1, 16.2, 15.6, 18.1, 16.2, 15.8, 17.8, 16.1, 17.3, 16.3, 15.9, 18, 15.1, 17.3, 17.2, 15.3, 17.6, 17.1, 15.5, 18.1, 15.3, 18, 16.4, 16.3, 16.2, 16.5, 17.4, 17.1, 16.4, 16.6, 16.8, 15.8, 17.8, 16.2, 17.2, 15.3, 18.1, 16.2, 17.2, 16, 17.4, 16.6, 16.3, 16.3, 17.1, 15.5, 16.8, 18.1, 16, 15.9, 18.2, 16.1, 16.2, 16.3, 16.6, 17.9, 15.6, 16.4, 18.1, 15.2, 17.3, 17.3, 15.6, 16.6, 17.9, 16.1, 16, 17.6, 16.5, 15.8, 18.1, 16.3, 15.8, 17.2, 17.1, 15.7, 16.7, 16.7, 17.2, 17.2, 16.3, 15.8, 17.6, 16.2, 16.3, 16.6, 16.3, 17.1, 17.1, 16.2, 17.9, 15.9, 17.3, 16.2, 16.2, 16.3, 18.1, 16.5, 15.5, 17.3, 16.8, 15.8, 17.9, 16.7, 15.7, 17, 16.5, 16.4, 18.1, 15.7, 17.4, 15.6, 16.5, 18.2, 15.3, 17.6, 16.4, 17.1, 15.6, 16.5, 18.2, 16.2, 15.8, 16.6, 16.7, 17.5, 16.1, 17.4, 15.3, 17, 16.3, 17.2, 17.3, 15.8, 18.2, 16.1, 15.7, 18, 15.3, 18, 16.2, 15.8, 18.1, 15.6, 16.3, 18.2, 16.1, 16.3, 16.1, 18.2, 16.2, 16.3, 16, 18.1, 16.3, 15.6, 18.2, 16.3, 16.1, 16.2, 17.3, 16.3, 16.4, 17.7, 16.3, 16, 17.4, 16.4, 16.1, 17.4, 17.1, 15.4, 18, 15.3, 17, 17.2, 16.1, 17.2, 16.1, 16.5, 18.3, 15.3, 16.6, 16, 18.2, 16.9, 16.4, 15.8, 16.6, 18, 15.4, 16.2, 17.3, 16.6, 16.4, 18, 16.3, 15.9, 16.6, 17.8, 15.9, 17.3, 16.2, 16.4, 16.5, 17.6, 17, 15.9, 16.4, 16.4, 17.7, 15.8, 16.5, 16.7, 16.1, 17.3, 16.7, 16.6, 16.6, 16.8, 17.4, 15.5, 18.5, 15.3, 16.5, 17.3, 17.2, 15.5, 16.7, 17.5, 16, 16.9, 17.2, 16.3, 16.2, 16.6, 18.1, 15.9, 17.3, 15.8, 16.3, 16.6, 17.4, 17.3, 15.4, 16.2, 17.1, 17.2, 17.1, 15.7, 16.6, 16.7, 18, 16.2, 15.6, 17.7, 15.8, 17.2, 16.3, 16.7, 16.5, 16.1, 17.4]",60.0,58.0,61.0,4990.0,[],,,,,,,,,,,,,,,,,,,,,,,,,HRV,HRV_0037,2022-11-30 18:01:46
,wl-html-keyboard-response,2,22389,0.0-2.0-0.0,0.0,3.0,,,,,,,,13676.400000095367,0.0,0,,,,,,,,,,,,,,,,,,,,,,HRV,HRV_0037,2022-11-30 18:01:46
,wl-rdm,3,41788,0.0-3.0-0.0,0.0,4.0,,,,,,,[],,,,0.0,0.0,87.9,0.0,u,0.0,True,6775.900000095367,407.0,61.0,40.0,False,too_early ,3000.0,[],"[720, 450]",ColorTask_Demo,,,,,HRV,HRV_0037,2022-11-30 18:01:46
,wl-rdm,4,49022,0.0-3.0-1.0,0.0,5.0,,,,,,,[],,,,0.0,0.0,87.9,1.0,i,1.0,True,3153.3999996185303,182.0,61.0,40.0,False,,2000.0,[],"[720, 450]",ColorTask_Demo,,,,,HRV,HRV_0037,2022-11-30 18:01:46
,wl-html-keyboard-response,5,56649,0.0-3.0-2.0,0.0,6.0,,,,,,,,5616.599999904633,0.0,1,,,,,,,,,,,,,,,,,,,,,,HRV,HRV_0037,2022-11-30 18:01:46
,wl-html-keyboard-response,6,68225,0.0-4.0-0.0,0.0,7.0,,,,,,,,9565.699999809265,0.0,0,,,,,,,,,,,,,,,,,,,,,,HRV,HRV_0037,2022-11-30 18:01:46
,wl-html-keyboard-response,7,86027,0.0-5.0-0.0,0.0,8.0,,,,,,,,15798.799999713898,0.0,0,,,,,,,,,,,,,,,,,,,,,,HRV,HRV_0037,2022-11-30 18:01:46
,wl-rdm,8,90512,0.0-6.0-0.0,0.0,8.0,,,,,,,[],,,,,,53.2,0.0,,,,,182.0,61.0,40.0,True,RT_timeout ,372.6284592612561,[],"[720, 450]",ColorTask,-1.0,1.0,,,HRV,HRV_0037,2022-11-30 18:01:46
,wl-rdm,9,91578,0.0-6.1-0.1,0.0,8.0,,,,,,,[],,,,,,56.4,1.0,u,,,197.59999990463257,0.0,61.0,40.0,True,too_early ,284.78684404338344,[],"[720, 450]",ColorTask,-2.0,2.0,,,HRV,HRV_0037,2022-11-30 18:01:46
,wl-rdm,10,95612,0.0-6.2-0.2,0.0,9.0,,,,,,,[],,,,,,53.2,1.0,u,0.0,False,2587.300000190735,156.0,61.0,40.0,False,,367.4896297829353,[],"[720, 450]",ColorTask,-3.0,3.0,,,HRV,HRV_0037,2022-11-30 18:01:46
,wl-rdm,11,98579,0.0-6.3-0.3,0.0,10.0,,,,,,,[],,,,,,62.5,1.0,i,1.0,True,1560.8000001907349,94.0,61.0,40.0,False,,345.03036564335986,[],"[720, 450]",ColorTask,-2.0,4.0,,,HRV,HRV_0037,2022-11-30 18:01:46
,wl-rdm,12,101279,0.0-6.4-0.4,0.0,11.0,,,,,,,[],,,,,,56.4,0.0,u,0.0,True,1407.2000002861023,85.0,61.0,40.0,False,,206.42739390376724,[],"[720, 450]",ColorTask,-1.0,5.0,,,HRV,HRV_0037,2022-11-30 18:01:46
,wl-rdm,13,103880,0.0-6.5-0.5,0.0,12.0,,,,,,,[],,,,,,62.5,0.0,u,0.0,True,1172.8000001907349,71.0,61.0,40.0,False,,350.07802536793463,[],"[720, 450]",ColorTask,0.0,6.0,,,HRV,HRV_0037,2022-11-30 18:01:46
,wl-rdm,14,106297,0.0-6.6-0.6,0.0,13.0,,,,,,,[],,,,,,87.9,1.0,i,1.0,True,929.0999999046326,56.0,61.0,40.0,False,,225.62451407281966,[],"[720, 450]",ColorTask,1.0,7.0,,,HRV,HRV_0037,2022-11-30 18:01:46
,wl-rdm,15,108697,0.0-6.7-0.7,0.0,14.0,,,,,,,[],,,,,,53.2,0.0,i,1.0,False,1119.2999997138977,68.0,61.0,40.0,False,,202.36930247863248,[],"[720, 450]",ColorTask,0.0,8.0,,,HRV,HRV_0037,2022-11-30 18:01:46
,wl-rdm,16,111113,0.0-6.8-0.8,0.0,15.0,,,,,,,[],,,,,,73.6,0.0,u,0.0,True,986.2999997138977,60.0,61.0,40.0,False,,343.66788681546325,[],"[720, 450]",ColorTask,1.0,9.0,,,HRV,HRV_0037,2022-11-30 18:01:46
,wl-rdm,17,113348,0.0-6.9-0.9,0.0,16.0,,,,,,,[],,,,,,87.9,1.0,i,1.0,True,918.5,49.0,61.0,40.0,False,,241.38684755669283,[],"[720, 450]",ColorTask,2.0,10.0,,,HRV,HRV_0037,2022-11-30 18:01:46
,wl-rdm,18,115697,0.0-6.10-0.10,0.0,17.0,,,,,,,[],,,,,,50.0,0.0,u,0.0,True,953.3000001907349,58.0,61.0,40.0,False,,323.966770525473,[],"[720, 450]",ColorTask,3.0,11.0,,,HRV,HRV_0037,2022-11-30 18:01:46
,wl-rdm,19,117948,0.0-6.11-0.11,0.0,18.0,,,,,,,[],,,,,,56.4,0.0,u,0.0,True,959.1999998092651,58.0,61.0,40.0,False,,217.00865513619715,[],"[720, 450]",ColorTask,4.0,12.0,,,HRV,HRV_0037,2022-11-30 18:01:46
,wl-rdm,20,120199,0.0-6.12-0.12,0.0,19.0,,,,,,,[],,,,,,62.5,1.0,i,1.0,True,955.5,58.0,61.0,40.0,False,,213.50916194212846,[],"[720, 450]",ColorTask,5.0,13.0,,,HRV,HRV_0037,2022-11-30 18:01:46
,wl-rdm,21,122281,0.0-6.13-0.13,0.0,20.0,,,,,,,[],,,,,,87.9,0.0,u,0.0,True,701.7000007629395,43.0,61.0,40.0,False,,315.89336093894036,[],"[720, 450]",ColorTask,6.0,14.0,,,HRV,HRV_0037,2022-11-30 18:01:46
,wl-rdm,22,124399,0.0-6.14-0.14,0.0,21.0,,,,,,,[],,,,,,56.4,1.0,i,1.0,True,788.4000000953674,36.0,61.0,40.0,False,,253.8903233950391,[],"[720, 450]",ColorTask,7.0,15.0,,,HRV,HRV_0037,2022-11-30 18:01:46
,wl-rdm,23,126982,0.0-6.15-0.15,0.0,22.0,,,,,,,[],,,,,,53.2,0.0,u,0.0,True,1204.6000003814697,64.0,61.0,40.0,False,,316.54196058007096,[],"[720, 450]",ColorTask,8.0,16.0,,,HRV,HRV_0037,2022-11-30 18:01:46
,wl-rdm,24,129200,0.0-6.16-0.16,0.0,23.0,,,,,,,[],,,,,,62.5,1.0,i,1.0,True,928.5999999046326,56.0,61.0,40.0,False,,230.92633381726472,[],"[720, 450]",ColorTask,9.0,17.0,,,HRV,HRV_0037,2022-11-30 18:01:46
,wl-rdm,25,131284,0.0-6.17-0.17,0.0,24.0,,,,,,,[],,,,,,73.6,0.0,u,0.0,True,783.4000000953674,47.0,61.0,40.0,False,,239.10901032939844,[],"[720, 450]",ColorTask,10.0,18.0,,,HRV,HRV_0037,2022-11-30 18:01:46
,wl-rdm,26,133599,0.0-6.18-0.18,0.0,25.0,,,,,,,[],,,,,,56.4,1.0,u,0.0,False,1020.4000000953674,62.0,61.0,40.0,False,,203.71741933127356,[],"[720, 450]",ColorTask,9.0,19.0,,,HRV,HRV_0037,2022-11-30 18:01:46
,wl-rdm,27,135701,0.0-6.19-0.19,0.0,26.0,,,,,,,[],,,,,,53.2,1.0,i,1.0,True,789.5999999046326,48.0,61.0,40.0,False,,249.40601178828715,[],"[720, 450]",ColorTask,10.0,20.0,,,HRV,HRV_0037,2022-11-30 18:01:46
,wl-rdm,28,137751,0.0-6.20-0.20,0.0,27.0,,,,,,,[],,,,,,87.9,0.0,u,0.0,True,772.0,47.0,61.0,40.0,False,,206.59896122373704,[],"[720, 450]",ColorTask,11.0,21.0,,,HRV,HRV_0037,2022-11-30 18:01:46
,wl-rdm,29,140083,0.0-6.21-0.21,0.0,28.0,,,,,,,[],,,,,,87.9,0.0,u,0.0,True,915.1999998092651,55.0,61.0,40.0,False,,353.56487123432544,[],"[720, 450]",ColorTask,12.0,22.0,,,HRV,HRV_0037,2022-11-30 18:01:46
,wl-rdm,30,142685,0.0-6.22-0.22,0.0,29.0,,,,,,,[],,,,,,50.0,0.0,u,0.0,True,1248.0999999046326,59.0,61.0,40.0,False,,284.6921297210444,[],"[720, 450]",ColorTask,13.0,23.0,,,HRV,HRV_0037,2022-11-30 18:01:46
,wl-rdm,31,145052,0.0-6.23-0.23,0.0,30.0,,,,,,,[],,,,,,56.4,0.0,i,1.0,False,1008.0,61.0,61.0,40.0,False,,294.0179326963379,[],"[720, 450]",ColorTask,12.0,24.0,,,HRV,HRV_0037,2022-11-30 18:01:46
,wl-rdm,32,147169,0.0-6.24-0.24,0.0,31.0,,,,,,,[],,,,,,73.6,0.0,u,0.0,True,827.7000002861023,50.0,61.0,40.0,False,,227.1603403661641,[],"[720, 450]",ColorTask,13.0,25.0,,,HRV,HRV_0037,2022-11-30 18:01:46
,wl-rdm,33,149403,0.0-6.25-0.25,0.0,32.0,,,,,,,[],,,,,,73.6,1.0,i,1.0,True,841.5,51.0,61.0,40.0,False,,323.69930969776374,[],"[720, 450]",ColorTask,14.0,26.0,,,HRV,HRV_0037,2022-11-30 18:01:46
,wl-rdm,34,151553,0.0-6.26-0.26,0.0,33.0,,,,,,,[],,,,,,73.6,0.0,u,0.0,True,844.5999999046326,51.0,61.0,40.0,False,,217.19476777429082,[],"[720, 450]",ColorTask,15.0,27.0,,,HRV,HRV_0037,2022-11-30 18:01:46
,wl-rdm,35,153769,0.0-6.27-0.27,0.0,34.0,,,,,,,[],,,,,,56.4,1.0,i,1.0,True,927.1000003814697,56.0,61.0,40.0,False,,206.94267380119985,[],"[720, 450]",ColorTask,16.0,28.0,,,HRV,HRV_0037,2022-11-30 18:01:46
,wl-rdm,36,156121,0.0-6.28-0.28,0.0,35.0,,,,,,,[],,,,,,53.2,1.0,i,1.0,True,895.5999999046326,54.0,61.0,40.0,False,,376.5224528614862,[],"[720, 450]",ColorTask,17.0,29.0,,,HRV,HRV_0037,2022-11-30 18:01:46
,wl-rdm,37,158654,0.0-6.29-0.29,0.0,36.0,,,,,,,[],,,,,,50.0,1.0,i,1.0,True,1213.0,73.0,61.0,40.0,False,,258.2141233884755,[],"[720, 450]",ColorTask,18.0,30.0,,,HRV,HRV_0037,2022-11-30 18:01:46
,wl-rdm,38,161021,0.0-6.30-0.30,0.0,37.0,,,,,,,[],,,,,,50.0,1.0,u,0.0,False,964.6999998092651,58.0,61.0,40.0,False,,331.4292667668135,[],"[720, 450]",ColorTask,17.0,31.0,,,HRV,HRV_0037,2022-11-30 18:01:46
,wl-rdm,39,163470,0.0-6.31-0.31,0.0,38.0,,,,,,,[],,,,,,56.4,0.0,u,0.0,True,1021.8000001907349,62.0,61.0,40.0,False,,349.1064726487824,[],"[720, 450]",ColorTask,18.0,32.0,,,HRV,HRV_0037,2022-11-30 18:01:46
,wl-rdm,40,165621,0.0-6.32-0.32,0.0,39.0,,,,,,,[],,,,,,62.5,1.0,i,1.0,True,804.0,49.0,61.0,40.0,False,,284.0985463801942,[],"[720, 450]",ColorTask,19.0,33.0,,,HRV,HRV_0037,2022-11-30 18:01:46
,wl-rdm,41,167739,0.0-6.33-0.33,0.0,40.0,,,,,,,[],,,,,,73.6,0.0,u,0.0,True,848.9000000953674,43.0,61.0,40.0,False,,210.62676235003224,[],"[720, 450]",ColorTask,20.0,34.0,,,HRV,HRV_0037,2022-11-30 18:01:46
,wl-rdm,42,169956,0.0-6.34-0.34,0.0,41.0,,,,,,,[],,,,,,50.0,1.0,i,1.0,True,790.0999999046326,48.0,61.0,40.0,False,,365.05409337549946,[],"[720, 450]",ColorTask,21.0,35.0,,,HRV,HRV_0037,2022-11-30 18:01:46
,wl-rdm,43,172523,0.0-6.35-0.35,0.0,42.0,,,,,,,[],,,,,,50.0,0.0,u,0.0,True,1119.0999999046326,68.0,61.0,40.0,False,,353.57746991010896,[],"[720, 450]",ColorTask,22.0,36.0,,,HRV,HRV_0037,2022-11-30 18:01:46
,wl-rdm,44,174907,0.0-6.36-0.36,0.0,43.0,,,,,,,[],,,,,,62.5,0.0,u,0.0,True,932.5999999046326,56.0,61.0,40.0,False,,390.39175839697504,[],"[720, 450]",ColorTask,23.0,37.0,,,HRV,HRV_0037,2022-11-30 18:01:46
,wl-rdm,45,177189,0.0-6.37-0.37,0.0,44.0,,,,,,,[],,,,,,50.0,1.0,u,0.0,False,980.6000003814697,59.0,61.0,40.0,False,,224.34077061883184,[],"[720, 450]",ColorTask,22.0,38.0,,,HRV,HRV_0037,2022-11-30 18:01:46
,wl-rdm,46,179323,0.0-6.38-0.38,0.0,45.0,,,,,,,[],,,,,,62.5,1.0,i,1.0,True,774.0,47.0,61.0,40.0,False,,290.0675664326237,[],"[720, 450]",ColorTask,23.0,39.0,,,HRV,HRV_0037,2022-11-30 18:01:46
,wl-rdm,47,181457,0.0-6.39-0.39,0.0,46.0,,,,,,,[],,,,,,87.9,0.0,u,0.0,True,769.5,47.0,61.0,40.0,False,,233.1285485266005,[],"[720, 450]",ColorTask,24.0,40.0,,,HRV,HRV_0037,2022-11-30 18:01:46
,wl-rdm,48,183774,0.0-6.40-0.40,0.0,47.0,,,,,,,[],,,,,,73.6,0.0,u,0.0,True,978.7000002861023,59.0,61.0,40.0,False,,263.04588942495144,[],"[720, 450]",ColorTask,25.0,41.0,,,HRV,HRV_0037,2022-11-30 18:01:46
,wl-rdm,49,186059,0.0-6.41-0.41,0.0,48.0,,,,,,,[],,,,,,53.2,0.0,u,0.0,True,959.0999999046326,58.0,61.0,40.0,False,,238.7880032676769,[],"[720, 450]",ColorTask,26.0,42.0,,,HRV,HRV_0037,2022-11-30 18:01:46
,wl-rdm,50,188559,0.0-6.42-0.42,0.0,49.0,,,,,,,[],,,,,,73.6,1.0,i,1.0,True,1088.3999996185303,66.0,61.0,40.0,False,,316.84372655240554,[],"[720, 450]",ColorTask,27.0,43.0,,,HRV,HRV_0037,2022-11-30 18:01:46
,wl-rdm,51,190959,0.0-6.43-0.43,0.0,50.0,,,,,,,[],,,,,,53.2,1.0,u,0.0,False,1062.4000000953674,64.0,61.0,40.0,False,,275.9832203722958,[],"[720, 450]",ColorTask,26.0,44.0,,,HRV,HRV_0037,2022-11-30 18:01:46
,wl-rdm,52,193176,0.0-6.44-0.44,0.0,51.0,,,,,,,[],,,,,,73.6,1.0,i,1.0,True,870.8000001907349,53.0,61.0,40.0,False,,254.60766330023785,[],"[720, 450]",ColorTask,27.0,45.0,,,HRV,HRV_0037,2022-11-30 18:01:46
,wl-rdm,53,195508,0.0-6.45-0.45,0.0,52.0,,,,,,,[],,,,,,56.4,1.0,i,1.0,True,929.6999998092651,56.0,61.0,40.0,False,,331.6444814187356,[],"[720, 450]",ColorTask,28.0,46.0,,,HRV,HRV_0037,2022-11-30 18:01:46
,wl-rdm,54,197759,0.0-6.46-0.46,0.0,53.0,,,,,,,[],,,,,,87.9,1.0,i,1.0,True,876.7000002861023,53.0,61.0,40.0,False,,305.3219186019271,[],"[720, 450]",ColorTask,29.0,47.0,,,HRV,HRV_0037,2022-11-30 18:01:46
,wl-rdm,55,200092,0.0-6.47-0.47,0.0,54.0,,,,,,,[],,,,,,87.9,1.0,i,1.0,True,1049.0,54.0,61.0,40.0,False,,212.19089892635492,[],"[720, 450]",ColorTask,30.0,48.0,,,HRV,HRV_0037,2022-11-30 18:01:46
,wl-rdm,56,202394,0.0-6.48-0.48,0.0,55.0,,,,,,,[],,,,,,87.9,0.0,u,0.0,True,933.7999997138977,56.0,61.0,40.0,False,,304.9362138165126,[],"[720, 450]",ColorTask,31.0,49.0,,,HRV,HRV_0037,2022-11-30 18:01:46
,wl-rdm,57,204761,0.0-6.49-0.49,0.0,56.0,,,,,,,[],,,,,,62.5,0.0,u,0.0,True,1002.9000000953674,61.0,61.0,40.0,False,,291.2856242814882,[],"[720, 450]",ColorTask,32.0,50.0,,,HRV,HRV_0037,2022-11-30 18:01:46
,wl-rdm,58,207011,0.0-6.50-0.50,0.0,57.0,,,,,,,[],,,,,,53.2,1.0,i,1.0,True,980.7999997138977,59.0,61.0,40.0,False,,210.13012692998757,[],"[720, 450]",ColorTask,33.0,51.0,,,HRV,HRV_0037,2022-11-30 18:01:46
,wl-rdm,59,209544,0.0-6.51-0.51,0.0,58.0,,,,,,,[],,,,,,62.5,1.0,i,1.0,True,1063.9000000953674,64.0,61.0,40.0,False,,387.56498743477835,[],"[720, 450]",ColorTask,34.0,52.0,,,HRV,HRV_0037,2022-11-30 18:01:46
,wl-rdm,60,212062,0.0-6.52-0.52,0.0,59.0,,,,,,,[],,,,,,50.0,0.0,u,0.0,True,1071.6999998092651,65.0,61.0,40.0,False,,356.3415459756632,[],"[720, 450]",ColorTask,35.0,53.0,,,HRV,HRV_0037,2022-11-30 18:01:46
,wl-rdm,61,214596,0.0-6.53-0.53,0.0,60.0,,,,,,,[],,,,,,53.2,0.0,i,1.0,False,1148.0,69.0,61.0,40.0,False,,302.5762071034069,[],"[720, 450]",ColorTask,34.0,54.0,,,HRV,HRV_0037,2022-11-30 18:01:46
,wl-rdm,62,217046,0.0-6.54-0.54,0.0,61.0,,,,,,,[],,,,,,62.5,1.0,i,1.0,True,1070.9000000953674,58.0,61.0,40.0,False,,309.5723464382146,[],"[720, 450]",ColorTask,35.0,55.0,,,HRV,HRV_0037,2022-11-30 18:01:46
,wl-rdm,63,219586,0.0-6.55-0.55,0.0,62.0,,,,,,,[],,,,,,73.6,1.0,i,1.0,True,1061.4000000953674,64.0,61.0,40.0,False,,259.9754395574015,[],"[720, 450]",ColorTask,36.0,56.0,,,HRV,HRV_0037,2022-11-30 18:01:46
,wl-rdm,64,221913,0.0-6.56-0.56,0.0,63.0,,,,,,,[],,,,,,56.4,1.0,i,1.0,True,1050.1999998092651,63.0,61.0,40.0,False,,216.7661900648551,[],"[720, 450]",ColorTask,37.0,57.0,,,HRV,HRV_0037,2022-11-30 18:01:46
,wl-rdm,65,224514,0.0-6.57-0.57,0.0,64.0,,,,,,,[],,,,,,50.0,1.0,i,1.0,True,1141.0999999046326,69.0,61.0,40.0,False,,383.3100099423262,[],"[720, 450]",ColorTask,38.0,58.0,,,HRV,HRV_0037,2022-11-30 18:01:46
,wl-rdm,66,226998,0.0-6.58-0.58,0.0,65.0,,,,,,,[],,,,,,62.5,0.0,u,0.0,True,1011.7000002861023,61.0,61.0,40.0,False,,392.9023828093916,[],"[720, 450]",ColorTask,39.0,59.0,,,HRV,HRV_0037,2022-11-30 18:01:46
,wl-rdm,67,229098,0.0-6.59-0.59,0.0,66.0,,,,,,,[],,,,,,87.9,1.0,i,1.0,True,824.2000002861023,50.0,61.0,40.0,False,,203.03981271670358,[],"[720, 450]",ColorTask,40.0,60.0,,,HRV,HRV_0037,2022-11-30 18:01:46
,wl-rdm,68,231282,0.0-6.60-0.60,0.0,67.0,,,,,,,[],,,,,,87.9,0.0,u,0.0,True,757.9000000953674,46.0,61.0,40.0,False,,347.9284488340679,[],"[720, 450]",ColorTask,41.0,61.0,,,HRV,HRV_0037,2022-11-30 18:01:46
,wl-rdm,69,233299,0.0-6.61-0.61,0.0,68.0,,,,,,,[],,,,,,73.6,1.0,i,1.0,True,716.3999996185303,43.0,61.0,40.0,False,,218.3060224557057,[],"[720, 450]",ColorTask,42.0,62.0,,,HRV,HRV_0037,2022-11-30 18:01:46
,wl-rdm,70,235432,0.0-6.62-0.62,0.0,69.0,,,,,,,[],,,,,,73.6,0.0,u,0.0,True,772.8999996185303,35.0,61.0,40.0,False,,294.4756659380196,[],"[720, 450]",ColorTask,43.0,63.0,,,HRV,HRV_0037,2022-11-30 18:01:46
,wl-rdm,71,237599,0.0-6.63-0.63,0.0,70.0,,,,,,,[],,,,,,62.5,0.0,u,0.0,True,876.1999998092651,53.0,61.0,40.0,False,,231.19415930646286,[],"[720, 450]",ColorTask,44.0,64.0,,,HRV,HRV_0037,2022-11-30 18:01:46
,wl-rdm,72,239848,0.0-6.64-0.64,0.0,71.0,,,,,,,[],,,,,,53.2,0.0,i,1.0,False,840.9000005722046,51.0,61.0,40.0,False,,338.1887136182007,[],"[720, 450]",ColorTask,43.0,65.0,,,HRV,HRV_0037,2022-11-30 18:01:46
,wl-rdm,73,242183,0.0-6.65-0.65,0.0,72.0,,,,,,,[],,,,,,62.5,1.0,i,1.0,True,1010.0,61.0,61.0,40.0,False,,246.3297548588704,[],"[720, 450]",ColorTask,44.0,66.0,,,HRV,HRV_0037,2022-11-30 18:01:46
,wl-rdm,74,244783,0.0-6.66-0.66,0.0,73.0,,,,,,,[],,,,,,56.4,0.0,u,0.0,True,1185.7999997138977,72.0,61.0,40.0,False,,342.36369306675715,[],"[720, 450]",ColorTask,45.0,67.0,,,HRV,HRV_0037,2022-11-30 18:01:46
,wl-rdm,75,247234,0.0-6.67-0.67,0.0,74.0,,,,,,,[],,,,,,73.6,1.0,i,1.0,True,990.3000001907349,60.0,61.0,40.0,False,,375.20636299750674,[],"[720, 450]",ColorTask,46.0,68.0,,,HRV,HRV_0037,2022-11-30 18:01:46
,wl-rdm,76,249617,0.0-6.68-0.68,0.0,75.0,,,,,,,[],,,,,,53.2,1.0,i,1.0,True,1067.3999996185303,65.0,61.0,40.0,False,,227.9403041611557,[],"[720, 450]",ColorTask,47.0,69.0,,,HRV,HRV_0037,2022-11-30 18:01:46
,wl-rdm,77,251751,0.0-6.69-0.69,0.0,76.0,,,,,,,[],,,,,,62.5,0.0,u,0.0,True,819.2999997138977,50.0,61.0,40.0,False,,229.95065114931342,[],"[720, 450]",ColorTask,48.0,70.0,,,HRV,HRV_0037,2022-11-30 18:01:46
,wl-rdm,78,254034,0.0-6.70-0.70,0.0,77.0,,,,,,,[],,,,,,53.2,1.0,i,1.0,True,990.3000001907349,53.0,61.0,40.0,False,,214.5919315036108,[],"[720, 450]",ColorTask,49.0,71.0,,,HRV,HRV_0037,2022-11-30 18:01:46
,wl-rdm,79,256451,0.0-6.71-0.71,0.0,78.0,,,,,,,[],,,,,,53.2,0.0,u,0.0,True,1079.3000001907349,50.0,61.0,40.0,False,,283.73146233365094,[],"[720, 450]",ColorTask,50.0,72.0,,,HRV,HRV_0037,2022-11-30 18:01:46
,wl-rdm,80,259001,0.0-6.72-0.72,0.0,79.0,,,,,,,[],,,,,,53.2,1.0,i,1.0,True,1189.7000002861023,72.0,61.0,40.0,False,,275.8994797707179,[],"[720, 450]",ColorTask,51.0,73.0,,,HRV,HRV_0037,2022-11-30 18:01:46
,wl-rdm,81,261301,0.0-6.73-0.73,0.0,80.0,,,,,,,[],,,,,,56.4,1.0,i,1.0,True,959.7000002861023,58.0,61.0,40.0,False,,276.9826943320966,[],"[720, 450]",ColorTask,52.0,74.0,,,HRV,HRV_0037,2022-11-30 18:01:46
,wl-rdm,82,263486,0.0-6.74-0.74,0.0,81.0,,,,,,,[],,,,,,53.2,0.0,u,0.0,True,794.9000000953674,48.0,61.0,40.0,False,,303.76450335481155,[],"[720, 450]",ColorTask,53.0,75.0,,,HRV,HRV_0037,2022-11-30 18:01:46
,wl-rdm,83,265620,0.0-6.75-0.75,0.0,82.0,,,,,,,[],,,,,,50.0,1.0,i,1.0,True,779.1999998092651,47.0,61.0,40.0,False,,292.0364152130341,[],"[720, 450]",ColorTask,54.0,76.0,,,HRV,HRV_0037,2022-11-30 18:01:46
,wl-rdm,84,267720,0.0-6.76-0.76,0.0,83.0,,,,,,,[],,,,,,73.6,0.0,u,0.0,True,808.0999999046326,49.0,61.0,40.0,False,,227.71331034905984,[],"[720, 450]",ColorTask,55.0,77.0,,,HRV,HRV_0037,2022-11-30 18:01:46
,wl-rdm,85,270286,0.0-6.77-0.77,0.0,84.0,,,,,,,[],,,,,,50.0,0.0,i,1.0,False,1069.5,65.0,61.0,40.0,False,,217.6377539876101,[],"[720, 450]",ColorTask,54.0,78.0,,,HRV,HRV_0037,2022-11-30 18:01:46
,wl-rdm,86,272488,0.0-6.78-0.78,0.0,85.0,,,,,,,[],,,,,,62.5,0.0,u,0.0,True,924.1999998092651,56.0,61.0,40.0,False,,206.2726460565419,[],"[720, 450]",ColorTask,55.0,79.0,,,HRV,HRV_0037,2022-11-30 18:01:46
,wl-rdm,87,274605,0.0-6.79-0.79,0.0,86.0,,,,,,,[],,,,,,56.4,1.0,i,1.0,True,794.4000000953674,48.0,61.0,40.0,False,,265.5997225294896,[],"[720, 450]",ColorTask,56.0,80.0,,,HRV,HRV_0037,2022-11-30 18:01:46
,wl-rdm,88,277021,0.0-6.80-0.80,0.0,87.0,,,,,,,[],,,,,,53.2,0.0,i,1.0,False,977.3000001907349,59.0,61.0,40.0,False,,362.5977417043487,[],"[720, 450]",ColorTask,55.0,81.0,,,HRV,HRV_0037,2022-11-30 18:01:46
,wl-rdm,89,279322,0.0-6.81-0.81,0.0,88.0,,,,,,,[],,,,,,50.0,0.0,i,1.0,False,1015.5999999046326,61.0,61.0,40.0,False,,205.73971592886357,[],"[720, 450]",ColorTask,54.0,82.0,,,HRV,HRV_0037,2022-11-30 18:01:46
,wl-rdm,90,281521,0.0-6.82-0.82,0.0,89.0,,,,,,,[],,,,,,87.9,1.0,i,1.0,True,913.5000004768372,55.0,61.0,40.0,False,,227.0194074506611,[],"[720, 450]",ColorTask,55.0,83.0,,,HRV,HRV_0037,2022-11-30 18:01:46
,wl-rdm,91,283905,0.0-6.83-0.83,0.0,90.0,,,,,,,[],,,,,,87.9,1.0,i,1.0,True,967.7999997138977,50.0,61.0,40.0,False,,342.55302935647035,[],"[720, 450]",ColorTask,56.0,84.0,,,HRV,HRV_0037,2022-11-30 18:01:46
,wl-rdm,92,286123,0.0-6.84-0.84,0.0,91.0,,,,,,,[],,,,,,56.4,1.0,i,1.0,True,838.1999998092651,51.0,61.0,40.0,False,,296.327908637942,[],"[720, 450]",ColorTask,57.0,85.0,,,HRV,HRV_0037,2022-11-30 18:01:46
,wl-rdm,93,288306,0.0-6.85-0.85,0.0,92.0,,,,,,,[],,,,,,87.9,0.0,u,0.0,True,713.5999999046326,43.0,61.0,40.0,False,,385.58288754281705,[],"[720, 450]",ColorTask,58.0,86.0,,,HRV,HRV_0037,2022-11-30 18:01:46
,wl-rdm,94,290457,0.0-6.86-0.86,0.0,93.0,,,,,,,[],,,,,,73.6,1.0,i,1.0,True,748.2999997138977,45.0,61.0,40.0,False,,317.1917626935696,[],"[720, 450]",ColorTask,59.0,87.0,,,HRV,HRV_0037,2022-11-30 18:01:46
,wl-rdm,95,292706,0.0-6.87-0.87,0.0,94.0,,,,,,,[],,,,,,56.4,0.0,i,1.0,False,828.5,50.0,61.0,40.0,False,,365.58105697894877,[],"[720, 450]",ColorTask,58.0,88.0,,,HRV,HRV_0037,2022-11-30 18:01:46
,wl-rdm,96,294973,0.0-6.88-0.88,0.0,95.0,,,,,,,[],,,,,,56.4,0.0,u,0.0,True,908.5,55.0,61.0,40.0,False,,298.2562206730724,[],"[720, 450]",ColorTask,59.0,89.0,,,HRV,HRV_0037,2022-11-30 18:01:46
,wl-rdm,97,297374,0.0-6.89-0.89,0.0,96.0,,,,,,,[],,,,,,87.9,1.0,i,1.0,True,868.8000001907349,53.0,61.0,40.0,False,,378.125500924987,[],"[720, 450]",ColorTask,60.0,90.0,,,HRV,HRV_0037,2022-11-30 18:01:46
,wl-rdm,98,299690,0.0-6.90-0.90,0.0,97.0,,,,,,,[],,,,,,50.0,1.0,i,1.0,True,953.9000000953674,58.0,61.0,40.0,False,,267.61552235963484,[],"[720, 450]",ColorTask,61.0,91.0,,,HRV,HRV_0037,2022-11-30 18:01:46
,wl-rdm,99,302041,0.0-6.91-0.91,0.0,98.0,,,,,,,[],,,,,,50.0,1.0,i,1.0,True,1048.3999996185303,63.0,61.0,40.0,False,,225.62749402486443,[],"[720, 450]",ColorTask,62.0,92.0,,,HRV,HRV_0037,2022-11-30 18:01:46
,wl-rdm,100,304242,0.0-6.92-0.92,0.0,99.0,,,,,,,[],,,,,,87.9,0.0,u,0.0,True,857.5,52.0,61.0,40.0,False,,280.3111115535636,[],"[720, 450]",ColorTask,63.0,93.0,,,HRV,HRV_0037,2022-11-30 18:01:46
,wl-rdm,101,306392,0.0-6.93-0.93,0.0,100.0,,,,,,,[],,,,,,50.0,1.0,i,1.0,True,839.4000000953674,51.0,61.0,40.0,False,,236.58105964540275,[],"[720, 450]",ColorTask,64.0,94.0,,,HRV,HRV_0037,2022-11-30 18:01:46
,wl-rdm,102,308643,0.0-6.94-0.94,0.0,101.0,,,,,,,[],,,,,,62.5,0.0,i,1.0,False,845.2999997138977,51.0,61.0,40.0,False,,339.4129703964243,[],"[720, 450]",ColorTask,63.0,95.0,,,HRV,HRV_0037,2022-11-30 18:01:46
,wl-rdm,103,310859,0.0-6.95-0.95,0.0,102.0,,,,,,,[],,,,,,50.0,0.0,u,0.0,True,927.6000003814697,56.0,61.0,40.0,False,,221.9727146285998,[],"[720, 450]",ColorTask,64.0,96.0,,,HRV,HRV_0037,2022-11-30 18:01:46
,wl-rdm,104,313110,0.0-6.96-0.96,0.0,103.0,,,,,,,[],,,,,,62.5,0.0,u,0.0,True,842.9000000953674,51.0,61.0,40.0,False,,200.90852838683657,[],"[720, 450]",ColorTask,65.0,97.0,,,HRV,HRV_0037,2022-11-30 18:01:46
,wl-rdm,105,315344,0.0-6.97-0.97,0.0,104.0,,,,,,,[],,,,,,50.0,0.0,u,0.0,True,881.5,53.0,61.0,40.0,False,,290.0867805503658,[],"[720, 450]",ColorTask,66.0,98.0,,,HRV,HRV_0037,2022-11-30 18:01:46
,wl-rdm,106,317843,0.0-6.98-0.98,0.0,105.0,,,,,,,[],,,,,,53.2,1.0,i,1.0,True,1019.2999997138977,55.0,61.0,40.0,False,,388.27017536793784,[],"[720, 450]",ColorTask,67.0,99.0,,,HRV,HRV_0037,2022-11-30 18:01:46
,wl-rdm,107,320059,0.0-6.99-0.99,0.0,106.0,,,,,,,[],,,,,,87.9,0.0,u,0.0,True,793.4000000953674,48.0,61.0,40.0,False,,361.0521650750055,[],"[720, 450]",ColorTask,68.0,100.0,,,HRV,HRV_0037,2022-11-30 18:01:46
,wl-rdm,108,322311,0.0-6.100-0.100,0.0,107.0,,,,,,,[],,,,,,56.4,0.0,u,0.0,True,890.3000001907349,54.0,61.0,40.0,False,,293.975421164091,[],"[720, 450]",ColorTask,69.0,101.0,,,HRV,HRV_0037,2022-11-30 18:01:46
,wl-rdm,109,324578,0.0-6.101-0.101,0.0,108.0,,,,,,,[],,,,,,56.4,1.0,u,0.0,False,913.2999997138977,55.0,61.0,40.0,False,,296.0613230103824,[],"[720, 450]",ColorTask,68.0,102.0,,,HRV,HRV_0037,2022-11-30 18:01:46
,wl-rdm,110,326977,0.0-6.102-0.102,0.0,109.0,,,,,,,[],,,,,,62.5,1.0,i,1.0,True,866.0,53.0,61.0,40.0,False,,278.4561969392697,[],"[720, 450]",ColorTask,69.0,103.0,,,HRV,HRV_0037,2022-11-30 18:01:46
,wl-rdm,111,329262,0.0-6.103-0.103,0.0,110.0,,,,,,,[],,,,,,73.6,1.0,i,1.0,True,901.6000003814697,55.0,61.0,40.0,False,,295.19457789189255,[],"[720, 450]",ColorTask,70.0,104.0,,,HRV,HRV_0037,2022-11-30 18:01:46
,wl-rdm,112,331695,0.0-6.104-0.104,0.0,111.0,,,,,,,[],,,,,,73.6,1.0,i,1.0,True,972.8000001907349,49.0,61.0,40.0,False,,373.84155055805684,[],"[720, 450]",ColorTask,71.0,105.0,,,HRV,HRV_0037,2022-11-30 18:01:46
,wl-rdm,113,333913,0.0-6.105-0.105,0.0,112.0,,,,,,,[],,,,,,50.0,0.0,i,1.0,False,854.5000004768372,52.0,61.0,40.0,False,,285.07795866216077,[],"[720, 450]",ColorTask,70.0,106.0,,,HRV,HRV_0037,2022-11-30 18:01:46
,wl-rdm,114,336180,0.0-6.106-0.106,0.0,113.0,,,,,,,[],,,,,,73.6,0.0,u,0.0,True,894.7000002861023,54.0,61.0,40.0,False,,286.3797387174476,[],"[720, 450]",ColorTask,71.0,107.0,,,HRV,HRV_0037,2022-11-30 18:01:46
,wl-rdm,115,338447,0.0-6.107-0.107,0.0,114.0,,,,,,,[],,,,,,53.2,0.0,u,0.0,True,924.5999999046326,56.0,61.0,40.0,False,,265.69501126880067,[],"[720, 450]",ColorTask,72.0,108.0,,,HRV,HRV_0037,2022-11-30 18:01:46
,wl-rdm,116,340797,0.0-6.108-0.108,0.0,115.0,,,,,,,[],,,,,,56.4,0.0,u,0.0,True,893.0999999046326,54.0,61.0,40.0,False,,370.1137910063745,[],"[720, 450]",ColorTask,73.0,109.0,,,HRV,HRV_0037,2022-11-30 18:01:46
,wl-rdm,117,342980,0.0-6.109-0.109,0.0,116.0,,,,,,,[],,,,,,87.9,1.0,i,1.0,True,803.0,49.0,61.0,40.0,False,,290.422188080994,[],"[720, 450]",ColorTask,74.0,110.0,,,HRV,HRV_0037,2022-11-30 18:01:46
,wl-html-keyboard-response,118,353808,0.0-7.0-0.0,1.0,117.0,,,,,,,,8816.299999713898,1.0,0,,,,,,,,,,,,,,,,,,,,,,HRV,HRV_0037,2022-11-30 18:01:46
,wl-rdm,119,356016,0.0-8.0-0.0,1.0,118.0,,,,,,,[],,,,,,73.6,0.0,u,0.0,True,779.9000000953674,47.0,61.0,40.0,False,,364.5981568516164,[],"[720, 450]",ColorTask,75.0,1.0,,,HRV,HRV_0037,2022-11-30 18:01:46
,wl-rdm,120,358016,0.0-8.1-0.1,1.0,119.0,,,,,,,[],,,,,,62.5,1.0,i,1.0,True,713.5,43.0,61.0,40.0,False,,208.27755509120445,[],"[720, 450]",ColorTask,76.0,2.0,,,HRV,HRV_0037,2022-11-30 18:01:46
,wl-rdm,121,360432,0.0-8.2-0.2,1.0,120.0,,,,,,,[],,,,,,53.2,0.0,u,0.0,True,1013.5,61.0,61.0,40.0,False,,321.73925705577807,[],"[720, 450]",ColorTask,77.0,3.0,,,HRV,HRV_0037,2022-11-30 18:01:46
,wl-rdm,122,362584,0.0-8.3-0.3,1.0,121.0,,,,,,,[],,,,,,53.2,0.0,u,0.0,True,763.7000002861023,40.0,61.0,40.0,False,,302.2758207487012,[],"[720, 450]",ColorTask,78.0,4.0,,,HRV,HRV_0037,2022-11-30 18:01:46
,wl-rdm,123,364668,0.0-8.4-0.4,1.0,122.0,,,,,,,[],,,,,,62.5,1.0,i,1.0,True,809.7000002861023,41.0,61.0,40.0,False,,211.80796119229083,[],"[720, 450]",ColorTask,79.0,5.0,,,HRV,HRV_0037,2022-11-30 18:01:46
,wl-rdm,124,366868,0.0-8.5-0.5,1.0,123.0,,,,,,,[],,,,,,50.0,1.0,i,1.0,True,903.4000000953674,55.0,61.0,40.0,False,,229.06906947814457,[],"[720, 450]",ColorTask,80.0,6.0,,,HRV,HRV_0037,2022-11-30 18:01:46
,wl-rdm,125,368985,0.0-8.6-0.6,1.0,124.0,,,,,,,[],,,,,,56.4,0.0,u,0.0,True,695.0,42.0,61.0,40.0,False,,359.52556430880276,[],"[720, 450]",ColorTask,81.0,7.0,,,HRV,HRV_0037,2022-11-30 18:01:46
,wl-rdm,126,371069,0.0-8.7-0.7,1.0,125.0,,,,,,,[],,,,,,53.2,1.0,u,0.0,False,752.2000002861023,46.0,61.0,40.0,False,,262.7706119960746,[],"[720, 450]",ColorTask,80.0,8.0,,,HRV,HRV_0037,2022-11-30 18:01:46
,wl-rdm,127,373152,0.0-8.8-0.8,1.0,126.0,,,,,,,[],,,,,,87.9,0.0,u,0.0,True,753.7999997138977,46.0,61.0,40.0,False,,255.4963305758266,[],"[720, 450]",ColorTask,81.0,9.0,,,HRV,HRV_0037,2022-11-30 18:01:46
,wl-rdm,128,375368,0.0-8.9-0.9,1.0,127.0,,,,,,,[],,,,,,53.2,1.0,i,1.0,True,755.0999999046326,40.0,61.0,40.0,False,,382.52332275790695,[],"[720, 450]",ColorTask,82.0,10.0,,,HRV,HRV_0037,2022-11-30 18:01:46
,wl-rdm,129,377385,0.0-8.10-0.10,1.0,128.0,,,,,,,[],,,,,,87.9,1.0,i,1.0,True,669.3999996185303,41.0,61.0,40.0,False,,264.65360542153127,[],"[720, 450]",ColorTask,83.0,11.0,,,HRV,HRV_0037,2022-11-30 18:01:46
,wl-rdm,130,380003,0.0-8.11-0.11,1.0,129.0,,,,,,,[],,,,,,53.2,0.0,i,1.0,False,1211.0,65.0,61.0,40.0,False,,318.8181758999842,[],"[720, 450]",ColorTask,82.0,12.0,,,HRV,HRV_0037,2022-11-30 18:01:46
,wl-rdm,131,381952,0.0-8.12-0.12,1.0,130.0,,,,,,,[],,,,,,53.2,1.0,u,0.0,False,671.0999999046326,41.0,61.0,40.0,False,,202.274521778337,[],"[720, 450]",ColorTask,81.0,13.0,,,HRV,HRV_0037,2022-11-30 18:01:46
,wl-rdm,132,384170,0.0-8.13-0.13,1.0,131.0,,,,,,,[],,,,,,62.5,0.0,u,0.0,True,804.2000002861023,49.0,61.0,40.0,False,,347.545203594015,[],"[720, 450]",ColorTask,82.0,14.0,,,HRV,HRV_0037,2022-11-30 18:01:46
,wl-rdm,133,386137,0.0-8.14-0.14,1.0,132.0,,,,,,,[],,,,,,73.6,1.0,i,1.0,True,670.9000000953674,41.0,61.0,40.0,False,,212.56101549355523,[],"[720, 450]",ColorTask,83.0,15.0,,,HRV,HRV_0037,2022-11-30 18:01:46
,wl-rdm,134,388220,0.0-8.15-0.15,1.0,133.0,,,,,,,[],,,,,,87.9,0.0,u,0.0,True,783.5,48.0,61.0,40.0,False,,216.66686664095067,[],"[720, 450]",ColorTask,84.0,16.0,,,HRV,HRV_0037,2022-11-30 18:01:46
,wl-rdm,135,390338,0.0-8.16-0.16,1.0,134.0,,,,,,,[],,,,,,53.2,1.0,i,1.0,True,809.8000001907349,49.0,61.0,40.0,False,,242.6774814545738,[],"[720, 450]",ColorTask,85.0,17.0,,,HRV,HRV_0037,2022-11-30 18:01:46
,wl-rdm,136,392504,0.0-8.17-0.17,1.0,135.0,,,,,,,[],,,,,,87.9,1.0,i,1.0,True,744.1000003814697,45.0,61.0,40.0,False,,365.71218673964665,[],"[720, 450]",ColorTask,86.0,18.0,,,HRV,HRV_0037,2022-11-30 18:01:46
,wl-rdm,137,394572,0.0-8.18-0.18,1.0,136.0,,,,,,,[],,,,,,87.9,1.0,i,1.0,True,733.9000000953674,34.0,61.0,40.0,False,,266.861686818232,[],"[720, 450]",ColorTask,87.0,19.0,,,HRV,HRV_0037,2022-11-30 18:01:46
,wl-rdm,138,396621,0.0-8.19-0.19,1.0,137.0,,,,,,,[],,,,,,73.6,0.0,u,0.0,True,636.5,39.0,61.0,40.0,False,,248.5064137341583,[],"[720, 450]",ColorTask,88.0,20.0,,,HRV,HRV_0037,2022-11-30 18:01:46
,wl-rdm,139,398939,0.0-8.20-0.20,1.0,138.0,,,,,,,[],,,,,,50.0,1.0,i,1.0,True,886.6999998092651,54.0,61.0,40.0,False,,354.103728336941,[],"[720, 450]",ColorTask,89.0,21.0,,,HRV,HRV_0037,2022-11-30 18:01:46
,wl-rdm,140,401090,0.0-8.21-0.21,1.0,139.0,,,,,,,[],,,,,,50.0,0.0,i,1.0,False,860.1000003814697,52.0,61.0,40.0,False,,219.0066708310967,[],"[720, 450]",ColorTask,88.0,22.0,,,HRV,HRV_0037,2022-11-30 18:01:46
,wl-rdm,141,403172,0.0-8.22-0.22,1.0,140.0,,,,,,,[],,,,,,73.6,1.0,i,1.0,True,789.9000000953674,48.0,61.0,40.0,False,,226.34180007946154,[],"[720, 450]",ColorTask,89.0,23.0,,,HRV,HRV_0037,2022-11-30 18:01:46
,wl-rdm,142,405390,0.0-8.23-0.23,1.0,141.0,,,,,,,[],,,,,,53.2,1.0,u,0.0,False,763.8000001907349,46.0,61.0,40.0,False,,399.20615544814996,[],"[720, 450]",ColorTask,88.0,24.0,,,HRV,HRV_0037,2022-11-30 18:01:46
,wl-rdm,143,407639,0.0-8.24-0.24,1.0,142.0,,,,,,,[],,,,,,56.4,0.0,u,0.0,True,853.3000001907349,52.0,61.0,40.0,False,,325.7884440893972,[],"[720, 450]",ColorTask,89.0,25.0,,,HRV,HRV_0037,2022-11-30 18:01:46
,wl-rdm,144,409840,0.0-8.25-0.25,1.0,143.0,,,,,,,[],,,,,,87.9,1.0,i,1.0,True,761.4000000953674,46.0,61.0,40.0,False,,364.1873821184038,[],"[720, 450]",ColorTask,90.0,26.0,,,HRV,HRV_0037,2022-11-30 18:01:46
,wl-rdm,145,411956,0.0-8.26-0.26,1.0,144.0,,,,,,,[],,,,,,87.9,1.0,i,1.0,True,780.2000002861023,47.0,61.0,40.0,False,,268.40889844262614,[],"[720, 450]",ColorTask,91.0,27.0,,,HRV,HRV_0037,2022-11-30 18:01:46
,wl-rdm,146,414108,0.0-8.27-0.27,1.0,145.0,,,,,,,[],,,,,,62.5,0.0,u,0.0,True,773.5999999046326,47.0,61.0,40.0,False,,315.6146114699276,[],"[720, 450]",ColorTask,92.0,28.0,,,HRV,HRV_0037,2022-11-30 18:01:46
,wl-rdm,147,416241,0.0-8.28-0.28,1.0,146.0,,,,,,,[],,,,,,87.9,0.0,u,0.0,True,820.5,50.0,61.0,40.0,False,,235.2215724544737,[],"[720, 450]",ColorTask,93.0,29.0,,,HRV,HRV_0037,2022-11-30 18:01:46
,wl-rdm,148,418491,0.0-8.29-0.29,1.0,147.0,,,,,,,[],,,,,,73.6,1.0,i,1.0,True,874.4000000953674,53.0,61.0,40.0,False,,298.24528401475527,[],"[720, 450]",ColorTask,94.0,30.0,,,HRV,HRV_0037,2022-11-30 18:01:46
,wl-rdm,149,420676,0.0-8.30-0.30,1.0,148.0,,,,,,,[],,,,,,50.0,0.0,i,1.0,False,873.8000001907349,47.0,61.0,40.0,False,,251.3555726495561,[],"[720, 450]",ColorTask,93.0,31.0,,,HRV,HRV_0037,2022-11-30 18:01:46
,wl-rdm,150,422658,0.0-8.31-0.31,1.0,149.0,,,,,,,[],,,,,,62.5,0.0,u,0.0,True,691.2000002861023,42.0,61.0,40.0,False,,221.9290215222429,[],"[720, 450]",ColorTask,94.0,32.0,,,HRV,HRV_0037,2022-11-30 18:01:46
,wl-rdm,151,425110,0.0-8.32-0.32,1.0,150.0,,,,,,,[],,,,,,50.0,1.0,u,0.0,False,1114.8000001907349,67.0,61.0,40.0,False,,281.535370121603,[],"[720, 450]",ColorTask,93.0,33.0,,,HRV,HRV_0037,2022-11-30 18:01:46
,wl-rdm,152,427226,0.0-8.33-0.33,1.0,151.0,,,,,,,[],,,,,,53.2,1.0,i,1.0,True,792.0999999046326,48.0,61.0,40.0,False,,252.77281727055959,[],"[720, 450]",ColorTask,94.0,34.0,,,HRV,HRV_0037,2022-11-30 18:01:46
,wl-rdm,153,429477,0.0-8.34-0.34,1.0,152.0,,,,,,,[],,,,,,73.6,0.0,u,0.0,True,857.2000007629395,52.0,61.0,40.0,False,,315.7521844055188,[],"[720, 450]",ColorTask,95.0,35.0,,,HRV,HRV_0037,2022-11-30 18:01:46
,wl-rdm,154,431626,0.0-8.35-0.35,1.0,153.0,,,,,,,[],,,,,,73.6,0.0,u,0.0,True,832.0,42.0,61.0,40.0,False,,250.67065647342295,[],"[720, 450]",ColorTask,96.0,36.0,,,HRV,HRV_0037,2022-11-30 18:01:46
,wl-rdm,155,433677,0.0-8.36-0.36,1.0,154.0,,,,,,,[],,,,,,53.2,1.0,u,0.0,False,788.7000002861023,48.0,61.0,40.0,False,,200.72238834583914,[],"[720, 450]",ColorTask,95.0,37.0,,,HRV,HRV_0037,2022-11-30 18:01:46
,wl-rdm,156,435743,0.0-8.37-0.37,1.0,155.0,,,,,,,[],,,,,,53.2,0.0,u,0.0,True,793.2000002861023,48.0,61.0,40.0,False,,206.31727815195336,[],"[720, 450]",ColorTask,96.0,38.0,,,HRV,HRV_0037,2022-11-30 18:01:46
,wl-rdm,157,437810,0.0-8.38-0.38,1.0,156.0,,,,,,,[],,,,,,73.6,1.0,i,1.0,True,741.7999997138977,45.0,61.0,40.0,False,,237.13261451311283,[],"[720, 450]",ColorTask,97.0,39.0,,,HRV,HRV_0037,2022-11-30 18:01:46
,wl-rdm,158,440228,0.0-8.39-0.39,1.0,157.0,,,,,,,[],,,,,,56.4,1.0,i,1.0,True,964.0999999046326,58.0,61.0,40.0,False,,394.5107478229871,[],"[720, 450]",ColorTask,98.0,40.0,,,HRV,HRV_0037,2022-11-30 18:01:46
,wl-rdm,159,442460,0.0-8.40-0.40,1.0,158.0,,,,,,,[],,,,,,62.5,1.0,i,1.0,True,881.4000000953674,53.0,61.0,40.0,False,,271.8244586100209,[],"[720, 450]",ColorTask,99.0,41.0,,,HRV,HRV_0037,2022-11-30 18:01:46
,wl-rdm,160,444462,0.0-8.41-0.41,1.0,159.0,,,,,,,[],,,,,,50.0,0.0,u,0.0,True,712.7000002861023,43.0,61.0,40.0,False,,237.0966915782329,[],"[720, 450]",ColorTask,100.0,42.0,,,HRV,HRV_0037,2022-11-30 18:01:46
,wl-rdm,161,446613,0.0-8.42-0.42,1.0,160.0,,,,,,,[],,,,,,62.5,1.0,i,1.0,True,821.0999999046326,50.0,61.0,40.0,False,,251.44897003432044,[],"[720, 450]",ColorTask,101.0,43.0,,,HRV,HRV_0037,2022-11-30 18:01:46
,wl-rdm,162,448729,0.0-8.43-0.43,1.0,161.0,,,,,,,[],,,,,,56.4,0.0,u,0.0,True,768.5,47.0,61.0,40.0,False,,278.303282755213,[],"[720, 450]",ColorTask,102.0,44.0,,,HRV,HRV_0037,2022-11-30 18:01:46
,wl-rdm,163,450878,0.0-8.44-0.44,1.0,162.0,,,,,,,[],,,,,,53.2,0.0,u,0.0,True,786.0,48.0,61.0,40.0,False,,283.1027169217309,[],"[720, 450]",ColorTask,103.0,45.0,,,HRV,HRV_0037,2022-11-30 18:01:46
,wl-rdm,164,453196,0.0-8.45-0.45,1.0,163.0,,,,,,,[],,,,,,56.4,0.0,i,1.0,False,904.7000002861023,55.0,61.0,40.0,False,,334.9053910946957,[],"[720, 450]",ColorTask,102.0,46.0,,,HRV,HRV_0037,2022-11-30 18:01:46
,wl-rdm,165,455196,0.0-8.46-0.46,1.0,164.0,,,,,,,[],,,,,,73.6,0.0,u,0.0,True,662.8000001907349,40.0,61.0,40.0,False,,269.6472100627476,[],"[720, 450]",ColorTask,103.0,47.0,,,HRV,HRV_0037,2022-11-30 18:01:46
,wl-rdm,166,457296,0.0-8.47-0.47,1.0,165.0,,,,,,,[],,,,,,73.6,1.0,i,1.0,True,769.5999999046326,47.0,61.0,40.0,False,,256.6541114164722,[],"[720, 450]",ColorTask,104.0,48.0,,,HRV,HRV_0037,2022-11-30 18:01:46
,wl-rdm,167,459396,0.0-8.48-0.48,1.0,166.0,,,,,,,[],,,,,,62.5,0.0,u,0.0,True,820.4000000953674,50.0,61.0,40.0,False,,206.1847255257165,[],"[720, 450]",ColorTask,105.0,49.0,,,HRV,HRV_0037,2022-11-30 18:01:46
,wl-rdm,168,461381,0.0-8.49-0.49,1.0,167.0,,,,,,,[],,,,,,73.6,1.0,i,1.0,True,705.4000000953674,43.0,61.0,40.0,False,,213.03391212079572,[],"[720, 450]",ColorTask,106.0,50.0,,,HRV,HRV_0037,2022-11-30 18:01:46
,wl-rdm,169,463565,0.0-8.50-0.50,1.0,168.0,,,,,,,[],,,,,,73.6,0.0,u,0.0,True,773.3000001907349,37.0,61.0,40.0,False,,325.5613924755583,[],"[720, 450]",ColorTask,107.0,51.0,,,HRV,HRV_0037,2022-11-30 18:01:46
,wl-rdm,170,465665,0.0-8.51-0.51,1.0,169.0,,,,,,,[],,,,,,87.9,1.0,i,1.0,True,675.2999997138977,41.0,61.0,40.0,False,,344.9619049024342,[],"[720, 450]",ColorTask,108.0,52.0,,,HRV,HRV_0037,2022-11-30 18:01:46
,wl-rdm,171,467782,0.0-8.52-0.52,1.0,170.0,,,,,,,[],,,,,,50.0,0.0,i,1.0,False,813.0999999046326,49.0,61.0,40.0,False,,229.8747455444069,[],"[720, 450]",ColorTask,107.0,53.0,,,HRV,HRV_0037,2022-11-30 18:01:46
,wl-rdm,172,469782,0.0-8.53-0.53,1.0,171.0,,,,,,,[],,,,,,87.9,1.0,i,1.0,True,670.9000000953674,41.0,61.0,40.0,False,,258.49238852963106,[],"[720, 450]",ColorTask,108.0,54.0,,,HRV,HRV_0037,2022-11-30 18:01:46
,wl-rdm,173,472033,0.0-8.54-0.54,1.0,172.0,,,,,,,[],,,,,,50.0,1.0,u,0.0,False,868.7000002861023,53.0,61.0,40.0,False,,308.05884459879735,[],"[720, 450]",ColorTask,107.0,55.0,,,HRV,HRV_0037,2022-11-30 18:01:46
,wl-rdm,174,474133,0.0-8.55-0.55,1.0,173.0,,,,,,,[],,,,,,56.4,1.0,i,1.0,True,804.5,49.0,61.0,40.0,False,,221.90103611926835,[],"[720, 450]",ColorTask,108.0,56.0,,,HRV,HRV_0037,2022-11-30 18:01:46
,wl-rdm,175,476199,0.0-8.56-0.56,1.0,174.0,,,,,,,[],,,,,,50.0,1.0,i,1.0,True,702.7999997138977,43.0,61.0,40.0,False,,285.95798928945953,[],"[720, 450]",ColorTask,109.0,57.0,,,HRV,HRV_0037,2022-11-30 18:01:46
,wl-rdm,176,478299,0.0-8.57-0.57,1.0,175.0,,,,,,,[],,,,,,56.4,0.0,u,0.0,True,678.6999998092651,41.0,61.0,40.0,False,,352.2004510148023,[],"[720, 450]",ColorTask,110.0,58.0,,,HRV,HRV_0037,2022-11-30 18:01:46
,wl-rdm,177,480334,0.0-8.58-0.58,1.0,176.0,,,,,,,[],,,,,,87.9,0.0,u,0.0,True,711.9000000953674,43.0,61.0,40.0,False,,259.96102575336545,[],"[720, 450]",ColorTask,111.0,59.0,,,HRV,HRV_0037,2022-11-30 18:01:46
,wl-rdm,178,482550,0.0-8.59-0.59,1.0,177.0,,,,,,,[],,,,,,50.0,1.0,i,1.0,True,860.8000001907349,52.0,61.0,40.0,False,,268.92657929625113,[],"[720, 450]",ColorTask,112.0,60.0,,,HRV,HRV_0037,2022-11-30 18:01:46
,wl-rdm,179,484716,0.0-8.60-0.60,1.0,178.0,,,,,,,[],,,,,,53.2,1.0,i,1.0,True,829.4000000953674,42.0,61.0,40.0,False,,262.3650700596221,[],"[720, 450]",ColorTask,113.0,61.0,,,HRV,HRV_0037,2022-11-30 18:01:46
,wl-rdm,180,486902,0.0-8.61-0.61,1.0,179.0,,,,,,,[],,,,,,50.0,0.0,i,1.0,False,802.7000002861023,49.0,61.0,40.0,False,,310.82288204944405,[],"[720, 450]",ColorTask,112.0,62.0,,,HRV,HRV_0037,2022-11-30 18:01:46
,wl-rdm,181,489068,0.0-8.62-0.62,1.0,180.0,,,,,,,[],,,,,,87.9,1.0,i,1.0,True,745.0,45.0,61.0,40.0,False,,353.5604952647594,[],"[720, 450]",ColorTask,113.0,63.0,,,HRV,HRV_0037,2022-11-30 18:01:46
,wl-rdm,182,491218,0.0-8.63-0.63,1.0,181.0,,,,,,,[],,,,,,87.9,0.0,u,0.0,True,714.5999999046326,43.0,61.0,40.0,False,,353.2015432373805,[],"[720, 450]",ColorTask,114.0,64.0,,,HRV,HRV_0037,2022-11-30 18:01:46
,wl-rdm,183,493368,0.0-8.64-0.64,1.0,182.0,,,,,,,[],,,,,,62.5,1.0,i,1.0,True,807.2000002861023,49.0,61.0,40.0,False,,273.80348993503657,[],"[720, 450]",ColorTask,115.0,65.0,,,HRV,HRV_0037,2022-11-30 18:01:46
,wl-rdm,184,495536,0.0-8.65-0.65,1.0,183.0,,,,,,,[],,,,,,62.5,0.0,u,0.0,True,842.9000000953674,51.0,61.0,40.0,False,,249.16348227690912,[],"[720, 450]",ColorTask,116.0,66.0,,,HRV,HRV_0037,2022-11-30 18:01:46
,wl-rdm,185,497669,0.0-8.66-0.66,1.0,184.0,,,,,,,[],,,,,,56.4,0.0,u,0.0,True,711.3000001907349,43.0,61.0,40.0,False,,339.64098576742185,[],"[720, 450]",ColorTask,117.0,67.0,,,HRV,HRV_0037,2022-11-30 18:01:46
,wl-rdm,186,499918,0.0-8.67-0.67,1.0,185.0,,,,,,,[],,,,,,56.4,0.0,u,0.0,True,746.8000001907349,45.0,61.0,40.0,False,,345.80034234444236,[],"[720, 450]",ColorTask,118.0,68.0,,,HRV,HRV_0037,2022-11-30 18:01:46
,wl-rdm,187,502003,0.0-8.68-0.68,1.0,186.0,,,,,,,[],,,,,,73.6,1.0,u,0.0,False,739.9000000953674,45.0,61.0,40.0,False,,258.89674836800265,[],"[720, 450]",ColorTask,117.0,69.0,,,HRV,HRV_0037,2022-11-30 18:01:46
,wl-rdm,188,503987,0.0-8.69-0.69,1.0,187.0,,,,,,,[],,,,,,87.9,0.0,u,0.0,True,664.0,40.0,61.0,40.0,False,,251.7433075994185,[],"[720, 450]",ColorTask,118.0,70.0,,,HRV,HRV_0037,2022-11-30 18:01:46
,wl-rdm,189,505971,0.0-8.70-0.70,1.0,188.0,,,,,,,[],,,,,,62.5,1.0,u,0.0,False,696.5,42.0,61.0,40.0,False,,224.28126827666748,[],"[720, 450]",ColorTask,117.0,71.0,,,HRV,HRV_0037,2022-11-30 18:01:46
,wl-rdm,190,508221,0.0-8.71-0.71,1.0,189.0,,,,,,,[],,,,,,56.4,1.0,u,0.0,False,903.1999998092651,55.0,61.0,40.0,False,,265.75006440098275,[],"[720, 450]",ColorTask,116.0,72.0,,,HRV,HRV_0037,2022-11-30 18:01:46
,wl-rdm,191,510122,0.0-8.72-0.72,1.0,190.0,,,,,,,[],,,,,,56.4,1.0,i,1.0,True,624.1999998092651,38.0,61.0,40.0,False,,205.5110643083749,[],"[720, 450]",ColorTask,117.0,73.0,,,HRV,HRV_0037,2022-11-30 18:01:46
,wl-rdm,192,512489,0.0-8.73-0.73,1.0,191.0,,,,,,,[],,,,,,53.2,0.0,u,0.0,True,990.5999999046326,53.0,61.0,40.0,False,,303.17176194520994,[],"[720, 450]",ColorTask,118.0,74.0,,,HRV,HRV_0037,2022-11-30 18:01:46
,wl-rdm,193,514505,0.0-8.74-0.74,1.0,192.0,,,,,,,[],,,,,,62.5,0.0,u,0.0,True,739.5,45.0,61.0,40.0,False,,207.27066321634632,[],"[720, 450]",ColorTask,119.0,75.0,,,HRV,HRV_0037,2022-11-30 18:01:46
,wl-rdm,194,516555,0.0-8.75-0.75,1.0,193.0,,,,,,,[],,,,,,87.9,0.0,u,0.0,True,763.7000002861023,46.0,61.0,40.0,False,,212.73776669300187,[],"[720, 450]",ColorTask,120.0,76.0,,,HRV,HRV_0037,2022-11-30 18:01:46
,wl-rdm,195,518589,0.0-8.76-0.76,1.0,194.0,,,,,,,[],,,,,,53.2,0.0,i,1.0,False,735.9000000953674,45.0,61.0,40.0,False,,207.21205081422596,[],"[720, 450]",ColorTask,119.0,77.0,,,HRV,HRV_0037,2022-11-30 18:01:46
,wl-rdm,196,520788,0.0-8.77-0.77,1.0,195.0,,,,,,,[],,,,,,50.0,1.0,u,0.0,False,859.7999997138977,41.0,61.0,40.0,False,,260.34962425425806,[],"[720, 450]",ColorTask,118.0,78.0,,,HRV,HRV_0037,2022-11-30 18:01:46
,wl-rdm,197,523006,0.0-8.78-0.78,1.0,196.0,,,,,,,[],,,,,,87.9,1.0,i,1.0,True,904.4000000953674,55.0,61.0,40.0,False,,232.07961638784548,[],"[720, 450]",ColorTask,119.0,79.0,,,HRV,HRV_0037,2022-11-30 18:01:46
,wl-rdm,198,525357,0.0-8.79-0.79,1.0,197.0,,,,,,,[],,,,,,50.0,0.0,i,1.0,False,887.5,54.0,61.0,40.0,False,,386.8084395689522,[],"[720, 450]",ColorTask,118.0,80.0,,,HRV,HRV_0037,2022-11-30 18:01:46
,wl-rdm,199,527424,0.0-8.80-0.80,1.0,198.0,,,,,,,[],,,,,,73.6,1.0,i,1.0,True,685.5,42.0,61.0,40.0,False,,293.4325601960715,[],"[720, 450]",ColorTask,119.0,81.0,,,HRV,HRV_0037,2022-11-30 18:01:46
,wl-rdm,200,529574,0.0-8.81-0.81,1.0,199.0,,,,,,,[],,,,,,50.0,1.0,i,1.0,True,776.8000001907349,47.0,61.0,40.0,False,,284.55197658998395,[],"[720, 450]",ColorTask,120.0,82.0,,,HRV,HRV_0037,2022-11-30 18:01:46
,wl-rdm,201,531808,0.0-8.82-0.82,1.0,200.0,,,,,,,[],,,,,,56.4,1.0,i,1.0,True,865.3000001907349,52.0,61.0,40.0,False,,300.2335350643336,[],"[720, 450]",ColorTask,121.0,83.0,,,HRV,HRV_0037,2022-11-30 18:01:46
,wl-rdm,202,534041,0.0-8.83-0.83,1.0,201.0,,,,,,,[],,,,,,53.2,1.0,i,1.0,True,863.3000001907349,52.0,61.0,40.0,False,,302.7612458425049,[],"[720, 450]",ColorTask,122.0,84.0,,,HRV,HRV_0037,2022-11-30 18:01:46
,wl-rdm,203,536159,0.0-8.84-0.84,1.0,202.0,,,,,,,[],,,,,,62.5,0.0,u,0.0,True,800.0,49.0,61.0,40.0,False,,239.24120851915762,[],"[720, 450]",ColorTask,123.0,85.0,,,HRV,HRV_0037,2022-11-30 18:01:46
,wl-rdm,204,538342,0.0-8.85-0.85,1.0,203.0,,,,,,,[],,,,,,87.9,0.0,u,0.0,True,803.0999999046326,49.0,61.0,40.0,False,,284.56018533767156,[],"[720, 450]",ColorTask,124.0,86.0,,,HRV,HRV_0037,2022-11-30 18:01:46
,wl-rdm,205,540576,0.0-8.86-0.86,1.0,204.0,,,,,,,[],,,,,,56.4,1.0,u,0.0,False,914.5999999046326,42.0,61.0,40.0,False,,259.7166923441218,[],"[720, 450]",ColorTask,123.0,87.0,,,HRV,HRV_0037,2022-11-30 18:01:46
,wl-rdm,206,542942,0.0-8.87-0.87,1.0,205.0,,,,,,,[],,,,,,62.5,1.0,i,1.0,True,1049.9000000953674,63.0,61.0,40.0,False,,266.7912378110803,[],"[720, 450]",ColorTask,124.0,88.0,,,HRV,HRV_0037,2022-11-30 18:01:46
,wl-rdm,207,545276,0.0-8.88-0.88,1.0,206.0,,,,,,,[],,,,,,53.2,0.0,u,0.0,True,944.3000001907349,57.0,61.0,40.0,False,,327.7155492621212,[],"[720, 450]",ColorTask,125.0,89.0,,,HRV,HRV_0037,2022-11-30 18:01:46
,wl-rdm,208,547626,0.0-8.89-0.89,1.0,207.0,,,,,,,[],,,,,,56.4,1.0,u,0.0,False,1005.4000000953674,61.0,61.0,40.0,False,,251.73720460281962,[],"[720, 450]",ColorTask,124.0,90.0,,,HRV,HRV_0037,2022-11-30 18:01:46
,wl-rdm,209,549860,0.0-8.90-0.90,1.0,208.0,,,,,,,[],,,,,,73.6,1.0,i,1.0,True,877.4000000953674,53.0,61.0,40.0,False,,279.2833664608384,[],"[720, 450]",ColorTask,125.0,91.0,,,HRV,HRV_0037,2022-11-30 18:01:46
,wl-rdm,210,552111,0.0-8.91-0.91,1.0,209.0,,,,,,,[],,,,,,56.4,0.0,u,0.0,True,858.3000001907349,52.0,61.0,40.0,False,,301.46677984339095,[],"[720, 450]",ColorTask,126.0,92.0,,,HRV,HRV_0037,2022-11-30 18:01:46
,wl-rdm,211,554261,0.0-8.92-0.92,1.0,210.0,,,,,,,[],,,,,,87.9,0.0,u,0.0,True,752.3000001907349,46.0,61.0,40.0,False,,318.07093560782084,[],"[720, 450]",ColorTask,127.0,93.0,,,HRV,HRV_0037,2022-11-30 18:01:46
,wl-rdm,212,556411,0.0-8.93-0.93,1.0,211.0,,,,,,,[],,,,,,73.6,0.0,u,0.0,True,863.0999999046326,52.0,61.0,40.0,False,,214.42553875701148,[],"[720, 450]",ColorTask,128.0,94.0,,,HRV,HRV_0037,2022-11-30 18:01:46
,wl-rdm,213,558611,0.0-8.94-0.94,1.0,212.0,,,,,,,[],,,,,,62.5,1.0,u,0.0,False,919.0999999046326,56.0,61.0,40.0,False,,210.0563690699814,[],"[720, 450]",ColorTask,127.0,95.0,,,HRV,HRV_0037,2022-11-30 18:01:46
,wl-rdm,214,560812,0.0-8.95-0.95,1.0,213.0,,,,,,,[],,,,,,62.5,1.0,i,1.0,True,886.1999998092651,54.0,61.0,40.0,False,,225.3981829239025,[],"[720, 450]",ColorTask,128.0,96.0,,,HRV,HRV_0037,2022-11-30 18:01:46
,wl-rdm,215,563029,0.0-8.96-0.96,1.0,214.0,,,,,,,[],,,,,,56.4,0.0,u,0.0,True,854.1999998092651,52.0,61.0,40.0,False,,287.07440927078284,[],"[720, 450]",ColorTask,129.0,97.0,,,HRV,HRV_0037,2022-11-30 18:01:46
,wl-rdm,216,565595,0.0-8.97-0.97,1.0,215.0,,,,,,,[],,,,,,50.0,0.0,i,1.0,False,952.0000004768372,58.0,61.0,40.0,False,,372.36992311316044,[],"[720, 450]",ColorTask,128.0,98.0,,,HRV,HRV_0037,2022-11-30 18:01:46
,wl-rdm,217,567929,0.0-8.98-0.98,1.0,216.0,,,,,,,[],,,,,,50.0,1.0,u,0.0,False,1030.0999999046326,62.0,61.0,40.0,False,,236.62625058456152,[],"[720, 450]",ColorTask,127.0,99.0,,,HRV,HRV_0037,2022-11-30 18:01:46
,wl-rdm,218,570247,0.0-8.99-0.99,1.0,217.0,,,,,,,[],,,,,,53.2,0.0,u,0.0,True,940.3000001907349,57.0,61.0,40.0,False,,310.6083626740458,[],"[720, 450]",ColorTask,128.0,100.0,,,HRV,HRV_0037,2022-11-30 18:01:46
,wl-rdm,219,572529,0.0-8.100-0.100,1.0,218.0,,,,,,,[],,,,,,73.6,0.0,u,0.0,True,896.5,54.0,61.0,40.0,False,,302.9933593712109,[],"[720, 450]",ColorTask,129.0,101.0,,,HRV,HRV_0037,2022-11-30 18:01:46
,wl-rdm,220,574831,0.0-8.101-0.101,1.0,219.0,,,,,,,[],,,,,,56.4,1.0,i,1.0,True,833.5,50.0,61.0,40.0,False,,393.2130000635427,[],"[720, 450]",ColorTask,130.0,102.0,,,HRV,HRV_0037,2022-11-30 18:01:46
,wl-rdm,221,577014,0.0-8.102-0.102,1.0,220.0,,,,,,,[],,,,,,56.4,1.0,i,1.0,True,825.2000002861023,50.0,61.0,40.0,False,,267.907293497198,[],"[720, 450]",ColorTask,131.0,103.0,,,HRV,HRV_0037,2022-11-30 18:01:46
,wl-rdm,222,579165,0.0-8.103-0.103,1.0,221.0,,,,,,,[],,,,,,62.5,0.0,u,0.0,True,843.0,51.0,61.0,40.0,False,,243.53538445659004,[],"[720, 450]",ColorTask,132.0,104.0,,,HRV,HRV_0037,2022-11-30 18:01:46
,wl-rdm,223,581614,0.0-8.104-0.104,1.0,222.0,,,,,,,[],,,,,,62.5,0.0,u,0.0,True,1132.5000004768372,68.0,61.0,40.0,False,,251.01737564560057,[],"[720, 450]",ColorTask,133.0,105.0,,,HRV,HRV_0037,2022-11-30 18:01:46
,wl-rdm,224,583931,0.0-8.105-0.105,1.0,223.0,,,,,,,[],,,,,,50.0,0.0,u,0.0,True,830.4000000953674,51.0,61.0,40.0,False,,229.87370375334996,[],"[720, 450]",ColorTask,134.0,106.0,,,HRV,HRV_0037,2022-11-30 18:01:46
,wl-rdm,225,586249,0.0-8.106-0.106,1.0,224.0,,,,,,,[],,,,,,73.6,0.0,u,0.0,True,854.5999999046326,52.0,61.0,40.0,False,,383.05525432999207,[],"[720, 450]",ColorTask,135.0,107.0,,,HRV,HRV_0037,2022-11-30 18:01:46
,wl-rdm,226,588517,0.0-8.107-0.107,1.0,225.0,,,,,,,[],,,,,,50.0,0.0,u,0.0,True,852.5000004768372,46.0,61.0,40.0,False,,338.61519293169204,[],"[720, 450]",ColorTask,136.0,108.0,,,HRV,HRV_0037,2022-11-30 18:01:46
,wl-html-button-response,227,590752,0.0-9.0-0.0,,,,,,,,,,2231.7000002861023,,0,,,,,,,,,,,,,,,,,,,,<h3>End of this session. Thank you!</h3><br>,['Close window'],HRV,HRV_0037,2022-11-30 18:01:46
