trialN,stimuli,trialStartTime,trialStartTime_UNIX,stimulus1,stimulus2,stimulus1Bid,stimulus2Bid,delta,selected,rt,rt_UNIX,rt_perfnow,receivedResponse,rsp,trialEndTime,trialDuration,trialEndTime_UNIX,trialDuration_UNIX,exp,subjectId,date
0,"[{'imgObject': {}, 'id': 'mac & cheese', 'src': '/static/foodstim60/mac & cheese.jpg', 'key': 'u', 'origWidth': 410, 'origHeight': 410, 'width': 410, 'height': 410, 'widthPercent': 0.45, 'rescaleHeight': False, 'trialN': 0, 'loaded': True, 'loadedTime': 46915, 'positionName': 'LEFT', 'positionCoords': [511.6, 335], 'bid': 3.78}, {'imgObject': {}, 'id': 'cantaloupe', 'src': '/static/foodstim60/cantaloupe.jpg', 'key': 'i', 'origWidth': 409, 'origHeight': 409, 'width': 409, 'height': 409, 'widthPercent': 0.45, 'rescaleHeight': False, 'trialN': 0, 'loaded': True, 'loadedTime': 46942.799999952316, 'positionName': 'RIGHT', 'positionCoords': [998.4, 335.5], 'bid': 2.35}]",47485.699999928474,1669830350059,mac & cheese,cantaloupe,3.78,2.35,-1.4299999999999997,cantaloupe,1538.1000000238419,1538,1538.3000000715256,True,i,49538.0,2052.3000000715256,1669830352111,2052,HRV,HRV_0140,2022-11-30 17:49:49
1,"[{'imgObject': {}, 'id': 'burger', 'src': '/static/foodstim60/burger.jpg', 'key': 'u', 'origWidth': 409, 'origHeight': 409, 'width': 409, 'height': 409, 'widthPercent': 0.45, 'rescaleHeight': False, 'trialN': 1, 'loaded': True, 'loadedTime': 46951.5, 'positionName': 'LEFT', 'positionCoords': [512.6, 335.5], 'bid': 8.4}, {'imgObject': {}, 'id': 'baked potato', 'src': '/static/foodstim60/baked potato.jpg', 'key': 'i', 'origWidth': 409, 'origHeight': 410, 'width': 409, 'height': 410, 'widthPercent': 0.45, 'rescaleHeight': False, 'trialN': 1, 'loaded': True, 'loadedTime': 46969.5, 'positionName': 'RIGHT', 'positionCoords': [998.4, 335], 'bid': 7.86}]",49538.299999952316,1669830352111,burger,baked potato,8.4,7.86,-0.54,burger,589.8999999761581,590,590.2999999523163,True,u,50641.699999928474,1103.3999999761581,1669830353215,1104,HRV,HRV_0140,2022-11-30 17:49:49
2,"[{'imgObject': {}, 'id': 'veggieswithdip', 'src': '/static/foodstim60/veggieswithdip.jpg', 'key': 'u', 'origWidth': 409, 'origHeight': 409, 'width': 409, 'height': 409, 'widthPercent': 0.45, 'rescaleHeight': False, 'trialN': 2, 'loaded': True, 'loadedTime': 46993.39999997616, 'positionName': 'LEFT', 'positionCoords': [512.6, 335.5], 'bid': 7.930000000000001}, {'imgObject': {}, 'id': 'sushi w_condiments', 'src': '/static/foodstim60/sushi w_condiments.jpg', 'key': 'i', 'origWidth': 410, 'origHeight': 410, 'width': 410, 'height': 410, 'widthPercent': 0.45, 'rescaleHeight': False, 'trialN': 2, 'loaded': True, 'loadedTime': 46993.799999952316, 'positionName': 'RIGHT', 'positionCoords': [998.4, 335], 'bid': 7.35}]",50642.09999990463,1669830353215,veggieswithdip,sushi w_condiments,7.930000000000001,7.35,-0.580000000000001,sushi w_condiments,389.60000002384186,390,389.90000009536743,True,i,51546.39999997616,904.3000000715256,1669830354119,904,HRV,HRV_0140,2022-11-30 17:49:49
3,"[{'imgObject': {}, 'id': 'banana', 'src': '/static/foodstim60/banana.jpg', 'key': 'u', 'origWidth': 410, 'origHeight': 410, 'width': 410, 'height': 410, 'widthPercent': 0.45, 'rescaleHeight': False, 'trialN': 3, 'loaded': True, 'loadedTime': 47016, 'positionName': 'LEFT', 'positionCoords': [511.6, 335], 'bid': 7.0600000000000005}, {'imgObject': {}, 'id': 'rigatoni and sauce', 'src': '/static/foodstim60/rigatoni and sauce.jpg', 'key': 'i', 'origWidth': 410, 'origHeight': 411, 'width': 410, 'height': 411, 'widthPercent': 0.45, 'rescaleHeight': False, 'trialN': 3, 'loaded': True, 'loadedTime': 47034.299999952316, 'positionName': 'RIGHT', 'positionCoords': [998.4, 334.5], 'bid': 7.13}]",51546.699999928474,1669830354119,banana,rigatoni and sauce,7.0600000000000005,7.13,0.0699999999999994,banana,413.10000002384186,414,413.39999997615814,True,u,52468.299999952316,921.6000000238419,1669830355041,922,HRV,HRV_0140,2022-11-30 17:49:49
4,"[{'imgObject': {}, 'id': 'salmon', 'src': '/static/foodstim60/salmon.jpg', 'key': 'u', 'origWidth': 410, 'origHeight': 409, 'width': 410, 'height': 409, 'widthPercent': 0.45, 'rescaleHeight': False, 'trialN': 4, 'loaded': True, 'loadedTime': 47044, 'positionName': 'LEFT', 'positionCoords': [511.6, 335.5], 'bid': 8.67}, {'imgObject': {}, 'id': 'orange slices', 'src': '/static/foodstim60/orange slices.jpg', 'key': 'i', 'origWidth': 409, 'origHeight': 410, 'width': 409, 'height': 410, 'widthPercent': 0.45, 'rescaleHeight': False, 'trialN': 4, 'loaded': True, 'loadedTime': 47057.39999997616, 'positionName': 'RIGHT', 'positionCoords': [998.4, 335], 'bid': 8.4}]",52468.5,1669830355041,salmon,orange slices,8.67,8.4,-0.2699999999999996,salmon,627.3999999761581,628,627.6999999284744,True,u,53611.09999990463,1142.5999999046326,1669830356184,1143,HRV,HRV_0140,2022-11-30 17:49:49
5,"[{'imgObject': {}, 'id': 'edamame', 'src': '/static/foodstim60/edamame.jpg', 'key': 'u', 'origWidth': 409, 'origHeight': 410, 'width': 409, 'height': 410, 'widthPercent': 0.45, 'rescaleHeight': False, 'trialN': 5, 'loaded': True, 'loadedTime': 47070.699999928474, 'positionName': 'LEFT', 'positionCoords': [512.6, 335], 'bid': 8.64}, {'imgObject': {}, 'id': 'eggsalad', 'src': '/static/foodstim60/eggsalad.jpg', 'key': 'i', 'origWidth': 410, 'origHeight': 409, 'width': 410, 'height': 409, 'widthPercent': 0.45, 'rescaleHeight': False, 'trialN': 5, 'loaded': True, 'loadedTime': 47092.699999928474, 'positionName': 'RIGHT', 'positionCoords': [998.4, 335.5], 'bid': 8.19}]",53611.199999928474,1669830356184,edamame,eggsalad,8.64,8.19,-0.45000000000000107,eggsalad,468.60000002384186,469,468.7000000476837,True,i,54598.0,986.8000000715256,1669830357171,987,HRV,HRV_0140,2022-11-30 17:49:49
6,"[{'imgObject': {}, 'id': 'seaweed', 'src': '/static/foodstim60/seaweed.jpg', 'key': 'u', 'origWidth': 410, 'origHeight': 410, 'width': 410, 'height': 410, 'widthPercent': 0.45, 'rescaleHeight': False, 'trialN': 6, 'loaded': True, 'loadedTime': 47109.699999928474, 'positionName': 'LEFT', 'positionCoords': [511.6, 335], 'bid': 8.2}, {'imgObject': {}, 'id': 'sweetpotato', 'src': '/static/foodstim60/sweetpotato.jpg', 'key': 'i', 'origWidth': 410, 'origHeight': 410, 'width': 410, 'height': 410, 'widthPercent': 0.45, 'rescaleHeight': False, 'trialN': 6, 'loaded': True, 'loadedTime': 47147.199999928474, 'positionName': 'RIGHT', 'positionCoords': [998.4, 335], 'bid': 8.27}]",54598.199999928474,1669830357171,seaweed,sweetpotato,8.2,8.27,0.07000000000000028,seaweed,417.60000002384186,418,417.7000000476837,True,u,55532.09999990463,933.8999999761581,1669830358105,934,HRV,HRV_0140,2022-11-30 17:49:49
7,"[{'imgObject': {}, 'id': 'sweetpotato', 'src': '/static/foodstim60/sweetpotato.jpg', 'key': 'u', 'origWidth': 410, 'origHeight': 410, 'width': 410, 'height': 410, 'widthPercent': 0.45, 'rescaleHeight': False, 'trialN': 7, 'loaded': True, 'loadedTime': 47147.699999928474, 'positionName': 'LEFT', 'positionCoords': [511.6, 335], 'bid': 8.27}, {'imgObject': {}, 'id': 'blackbeanswithrice', 'src': '/static/foodstim60/blackbeanswithrice.jpg', 'key': 'i', 'origWidth': 410, 'origHeight': 410, 'width': 410, 'height': 410, 'widthPercent': 0.45, 'rescaleHeight': False, 'trialN': 7, 'loaded': True, 'loadedTime': 47121.199999928474, 'positionName': 'RIGHT', 'positionCoords': [998.4, 335], 'bid': 8.1}]",55532.199999928474,1669830358105,sweetpotato,blackbeanswithrice,8.27,8.1,-0.16999999999999993,blackbeanswithrice,403.89999997615814,404,404.3000000715256,True,i,56438.0,905.8000000715256,1669830359011,906,HRV,HRV_0140,2022-11-30 17:49:49
8,"[{'imgObject': {}, 'id': 'roastedpotatoes', 'src': '/static/foodstim60/roastedpotatoes.jpg', 'key': 'u', 'origWidth': 409, 'origHeight': 410, 'width': 409, 'height': 410, 'widthPercent': 0.45, 'rescaleHeight': False, 'trialN': 8, 'loaded': True, 'loadedTime': 47129.39999997616, 'positionName': 'LEFT', 'positionCoords': [512.6, 335], 'bid': 6.8100000000000005}, {'imgObject': {}, 'id': 'olives', 'src': '/static/foodstim60/olives.jpg', 'key': 'i', 'origWidth': 410, 'origHeight': 410, 'width': 410, 'height': 410, 'widthPercent': 0.45, 'rescaleHeight': False, 'trialN': 8, 'loaded': True, 'loadedTime': 47156.89999997616, 'positionName': 'RIGHT', 'positionCoords': [998.4, 335], 'bid': 3.02}]",56438.299999952316,1669830359011,roastedpotatoes,olives,6.8100000000000005,3.02,-3.7900000000000005,olives,417.7999999523163,418,418.10000002384186,True,i,57376.799999952316,938.5,1669830359950,939,HRV,HRV_0140,2022-11-30 17:49:49
9,"[{'imgObject': {}, 'id': 'olives', 'src': '/static/foodstim60/olives.jpg', 'key': 'u', 'origWidth': 410, 'origHeight': 410, 'width': 410, 'height': 410, 'widthPercent': 0.45, 'rescaleHeight': False, 'trialN': 9, 'loaded': True, 'loadedTime': 47148, 'positionName': 'LEFT', 'positionCoords': [511.6, 335], 'bid': 3.02}, {'imgObject': {}, 'id': 'rigatoni and sauce', 'src': '/static/foodstim60/rigatoni and sauce.jpg', 'key': 'i', 'origWidth': 410, 'origHeight': 411, 'width': 410, 'height': 411, 'widthPercent': 0.45, 'rescaleHeight': False, 'trialN': 9, 'loaded': True, 'loadedTime': 47033.59999990463, 'positionName': 'RIGHT', 'positionCoords': [998.4, 334.5], 'bid': 7.13}]",57377.0,1669830359950,olives,rigatoni and sauce,3.02,7.13,4.109999999999999,rigatoni and sauce,447.39999997615814,448,447.6999999284744,True,i,58336.59999990463,959.5999999046326,1669830360909,959,HRV,HRV_0140,2022-11-30 17:49:49
10,"[{'imgObject': {}, 'id': 'yogurt no spoon', 'src': '/static/foodstim60/yogurt no spoon.jpg', 'key': 'u', 'origWidth': 411, 'origHeight': 410, 'width': 411, 'height': 410, 'widthPercent': 0.45, 'rescaleHeight': False, 'trialN': 10, 'loaded': True, 'loadedTime': 47157, 'positionName': 'LEFT', 'positionCoords': [510.6, 335], 'bid': 1.77}, {'imgObject': {}, 'id': 'fruitsalad', 'src': '/static/foodstim60/fruitsalad.jpg', 'key': 'i', 'origWidth': 410, 'origHeight': 410, 'width': 410, 'height': 410, 'widthPercent': 0.45, 'rescaleHeight': False, 'trialN': 10, 'loaded': True, 'loadedTime': 47174, 'positionName': 'RIGHT', 'positionCoords': [998.4, 335], 'bid': 3.78}]",58336.799999952316,1669830360910,yogurt no spoon,fruitsalad,1.77,3.78,2.01,yogurt no spoon,391.39999997615814,391,391.7000000476837,True,u,59242.89999997616,906.1000000238419,1669830361816,906,HRV,HRV_0140,2022-11-30 17:49:49
11,"[{'imgObject': {}, 'id': 'salad w chicken', 'src': '/static/foodstim60/salad w chicken.jpg', 'key': 'u', 'origWidth': 411, 'origHeight': 411, 'width': 411, 'height': 411, 'widthPercent': 0.45, 'rescaleHeight': False, 'trialN': 11, 'loaded': True, 'loadedTime': 47191.39999997616, 'positionName': 'LEFT', 'positionCoords': [510.6, 334.5], 'bid': 7.77}, {'imgObject': {}, 'id': 'turkeysandwich', 'src': '/static/foodstim60/turkeysandwich.jpg', 'key': 'i', 'origWidth': 409, 'origHeight': 409, 'width': 409, 'height': 409, 'widthPercent': 0.45, 'rescaleHeight': False, 'trialN': 11, 'loaded': True, 'loadedTime': 47200.299999952316, 'positionName': 'RIGHT', 'positionCoords': [998.4, 335.5], 'bid': 8.290000000000001}]",59243.299999952316,1669830361816,salad w chicken,turkeysandwich,7.77,8.290000000000001,0.5200000000000014,salad w chicken,781.2000000476837,782,781.6000000238419,True,u,60531.199999928474,1287.8999999761581,1669830363104,1288,HRV,HRV_0140,2022-11-30 17:49:49
12,"[{'imgObject': {}, 'id': 'olives', 'src': '/static/foodstim60/olives.jpg', 'key': 'u', 'origWidth': 410, 'origHeight': 410, 'width': 410, 'height': 410, 'widthPercent': 0.45, 'rescaleHeight': False, 'trialN': 12, 'loaded': True, 'loadedTime': 47149, 'positionName': 'LEFT', 'positionCoords': [511.6, 335], 'bid': 3.02}, {'imgObject': {}, 'id': 'mac & cheese', 'src': '/static/foodstim60/mac & cheese.jpg', 'key': 'i', 'origWidth': 410, 'origHeight': 410, 'width': 410, 'height': 410, 'widthPercent': 0.45, 'rescaleHeight': False, 'trialN': 12, 'loaded': True, 'loadedTime': 46914.59999990463, 'positionName': 'RIGHT', 'positionCoords': [998.4, 335], 'bid': 3.78}]",60531.299999952316,1669830363104,olives,mac & cheese,3.02,3.78,0.7599999999999998,mac & cheese,548.6000000238419,549,548.7999999523163,True,i,61594.0,1062.7000000476837,1669830364167,1063,HRV,HRV_0140,2022-11-30 17:49:49
13,"[{'imgObject': {}, 'id': 'cherries', 'src': '/static/foodstim60/cherries.jpg', 'key': 'u', 'origWidth': 410, 'origHeight': 411, 'width': 410, 'height': 411, 'widthPercent': 0.45, 'rescaleHeight': False, 'trialN': 13, 'loaded': True, 'loadedTime': 47201.199999928474, 'positionName': 'LEFT', 'positionCoords': [511.6, 334.5], 'bid': 7.65}, {'imgObject': {}, 'id': 'yogurt no spoon', 'src': '/static/foodstim60/yogurt no spoon.jpg', 'key': 'i', 'origWidth': 411, 'origHeight': 410, 'width': 411, 'height': 410, 'widthPercent': 0.45, 'rescaleHeight': False, 'trialN': 13, 'loaded': True, 'loadedTime': 47158.39999997616, 'positionName': 'RIGHT', 'positionCoords': [998.4, 335], 'bid': 1.77}]",61594.09999990463,1669830364167,cherries,yogurt no spoon,7.65,1.77,-5.880000000000001,cherries,365.90000009536743,366,366.10000002384186,True,u,62479.09999990463,885.0,1669830365052,885,HRV,HRV_0140,2022-11-30 17:49:49
14,"[{'imgObject': {}, 'id': 'rigatoni and sauce', 'src': '/static/foodstim60/rigatoni and sauce.jpg', 'key': 'u', 'origWidth': 410, 'origHeight': 411, 'width': 410, 'height': 411, 'widthPercent': 0.45, 'rescaleHeight': False, 'trialN': 14, 'loaded': True, 'loadedTime': 47034, 'positionName': 'LEFT', 'positionCoords': [511.6, 334.5], 'bid': 7.13}, {'imgObject': {}, 'id': 'luckycharms', 'src': '/static/foodstim60/luckycharms.jpg', 'key': 'i', 'origWidth': 410, 'origHeight': 409, 'width': 410, 'height': 409, 'widthPercent': 0.45, 'rescaleHeight': False, 'trialN': 14, 'loaded': True, 'loadedTime': 47222.39999997616, 'positionName': 'RIGHT', 'positionCoords': [998.4, 335.5], 'bid': 7.11}]",62479.299999952316,1669830365052,rigatoni and sauce,luckycharms,7.13,7.11,-0.019999999999999574,luckycharms,1232.7999999523163,1233,1233.1000000238419,True,i,64228.5,1749.2000000476837,1669830366801,1749,HRV,HRV_0140,2022-11-30 17:49:49
15,"[{'imgObject': {}, 'id': 'mango', 'src': '/static/foodstim60/mango.jpg', 'key': 'u', 'origWidth': 411, 'origHeight': 411, 'width': 411, 'height': 411, 'widthPercent': 0.45, 'rescaleHeight': False, 'trialN': 15, 'loaded': True, 'loadedTime': 47237.799999952316, 'positionName': 'LEFT', 'positionCoords': [510.6, 334.5], 'bid': 7.82}, {'imgObject': {}, 'id': 'strawberries', 'src': '/static/foodstim60/strawberries.jpg', 'key': 'i', 'origWidth': 410, 'origHeight': 410, 'width': 410, 'height': 410, 'widthPercent': 0.45, 'rescaleHeight': False, 'trialN': 15, 'loaded': True, 'loadedTime': 47246.89999997616, 'positionName': 'RIGHT', 'positionCoords': [998.4, 335], 'bid': 7.18}]",64228.699999928474,1669830366802,mango,strawberries,7.82,7.18,-0.6400000000000006,strawberries,667.2000000476837,667,667.5,True,i,65414.09999990463,1185.3999999761581,1669830367987,1185,HRV,HRV_0140,2022-11-30 17:49:49
16,"[{'imgObject': {}, 'id': 'bagel plain', 'src': '/static/foodstim60/bagel plain.jpg', 'key': 'u', 'origWidth': 410, 'origHeight': 410, 'width': 410, 'height': 410, 'widthPercent': 0.45, 'rescaleHeight': False, 'trialN': 16, 'loaded': True, 'loadedTime': 47253.799999952316, 'positionName': 'LEFT', 'positionCoords': [511.6, 335], 'bid': 7.65}, {'imgObject': {}, 'id': 'bagel and cc', 'src': '/static/foodstim60/bagel and cc.jpg', 'key': 'i', 'origWidth': 410, 'origHeight': 410, 'width': 410, 'height': 410, 'widthPercent': 0.45, 'rescaleHeight': False, 'trialN': 16, 'loaded': True, 'loadedTime': 47268.799999952316, 'positionName': 'RIGHT', 'positionCoords': [998.4, 335], 'bid': 7.22}]",65414.199999928474,1669830367987,bagel plain,bagel and cc,7.65,7.22,-0.4300000000000006,bagel and cc,1401.7000000476837,1402,1401.8999999761581,True,i,67336.0,1921.8000000715256,1669830369909,1922,HRV,HRV_0140,2022-11-30 17:49:49
17,"[{'imgObject': {}, 'id': 'mashed potato', 'src': '/static/foodstim60/mashed potato.jpg', 'key': 'u', 'origWidth': 409, 'origHeight': 409, 'width': 409, 'height': 409, 'widthPercent': 0.45, 'rescaleHeight': False, 'trialN': 17, 'loaded': True, 'loadedTime': 47279.39999997616, 'positionName': 'LEFT', 'positionCoords': [512.6, 335.5], 'bid': 7.87}, {'imgObject': {}, 'id': 'cheerios', 'src': '/static/foodstim60/cheerios.jpg', 'key': 'i', 'origWidth': 409, 'origHeight': 410, 'width': 409, 'height': 410, 'widthPercent': 0.45, 'rescaleHeight': False, 'trialN': 17, 'loaded': True, 'loadedTime': 47291.59999990463, 'positionName': 'RIGHT', 'positionCoords': [998.4, 335], 'bid': 7.930000000000001}]",67336.19999992847,1669830369909,mashed potato,cheerios,7.87,7.930000000000001,0.0600000000000005,cheerios,2847.8000000715256,2852,2851.7000000476837,True,i,70694.0,3357.8000000715256,1669830373267,3358,HRV,HRV_0140,2022-11-30 17:49:49
18,"[{'imgObject': {}, 'id': 'apple slices', 'src': '/static/foodstim60/apple slices.jpg', 'key': 'u', 'origWidth': 409, 'origHeight': 410, 'width': 409, 'height': 410, 'widthPercent': 0.45, 'rescaleHeight': False, 'trialN': 18, 'loaded': True, 'loadedTime': 47299.89999997616, 'positionName': 'LEFT', 'positionCoords': [512.6, 335], 'bid': 6.12}, {'imgObject': {}, 'id': 'chicken nuggets2', 'src': '/static/foodstim60/chicken nuggets2.jpg', 'key': 'i', 'origWidth': 410, 'origHeight': 409, 'width': 410, 'height': 409, 'widthPercent': 0.45, 'rescaleHeight': False, 'trialN': 18, 'loaded': True, 'loadedTime': 47310.199999928474, 'positionName': 'RIGHT', 'positionCoords': [998.4, 335.5], 'bid': 6.32}]",70694.09999990463,1669830373267,apple slices,chicken nuggets2,6.12,6.32,0.20000000000000018,apple slices,553.8000000715256,554,554.0,True,u,71765.59999990463,1071.5,1669830374338,1071,HRV,HRV_0140,2022-11-30 17:49:49
19,"[{'imgObject': {}, 'id': 'baked potato', 'src': '/static/foodstim60/baked potato.jpg', 'key': 'u', 'origWidth': 409, 'origHeight': 410, 'width': 409, 'height': 410, 'widthPercent': 0.45, 'rescaleHeight': False, 'trialN': 19, 'loaded': True, 'loadedTime': 46970, 'positionName': 'LEFT', 'positionCoords': [512.6, 335], 'bid': 7.86}, {'imgObject': {}, 'id': 'mango', 'src': '/static/foodstim60/mango.jpg', 'key': 'i', 'origWidth': 411, 'origHeight': 411, 'width': 411, 'height': 411, 'widthPercent': 0.45, 'rescaleHeight': False, 'trialN': 19, 'loaded': True, 'loadedTime': 47237.5, 'positionName': 'RIGHT', 'positionCoords': [998.4, 334.5], 'bid': 7.82}]",71765.79999995232,1669830374339,baked potato,mango,7.86,7.82,-0.040000000000000036,mango,203.0,203,203.29999995231628,True,i,72483.0,717.2000000476837,1669830375056,717,HRV,HRV_0140,2022-11-30 17:49:49
20,"[{'imgObject': {}, 'id': 'chicken nuggets2', 'src': '/static/foodstim60/chicken nuggets2.jpg', 'key': 'u', 'origWidth': 410, 'origHeight': 409, 'width': 410, 'height': 409, 'widthPercent': 0.45, 'rescaleHeight': False, 'trialN': 20, 'loaded': True, 'loadedTime': 47309.799999952316, 'positionName': 'LEFT', 'positionCoords': [511.6, 335.5], 'bid': 6.32}, {'imgObject': {}, 'id': 'Tribe humus pita', 'src': '/static/foodstim60/Tribe humus pita.jpg', 'key': 'i', 'origWidth': 411, 'origHeight': 411, 'width': 411, 'height': 411, 'widthPercent': 0.45, 'rescaleHeight': False, 'trialN': 20, 'loaded': True, 'loadedTime': 47319.39999997616, 'positionName': 'RIGHT', 'positionCoords': [998.4, 334.5], 'bid': 2.89}]",72483.09999990463,1669830375056,chicken nuggets2,Tribe humus pita,6.32,2.89,-3.43,Tribe humus pita,820.9000000953674,821,821.1000000238419,True,i,73825.19999992847,1342.1000000238419,1669830376398,1342,HRV,HRV_0140,2022-11-30 17:49:49
21,"[{'imgObject': {}, 'id': 'roastedpotatoes', 'src': '/static/foodstim60/roastedpotatoes.jpg', 'key': 'u', 'origWidth': 409, 'origHeight': 410, 'width': 409, 'height': 410, 'widthPercent': 0.45, 'rescaleHeight': False, 'trialN': 21, 'loaded': True, 'loadedTime': 47140, 'positionName': 'LEFT', 'positionCoords': [512.6, 335], 'bid': 6.8100000000000005}, {'imgObject': {}, 'id': 'Grapes', 'src': '/static/foodstim60/Grapes.jpg', 'key': 'i', 'origWidth': 411, 'origHeight': 411, 'width': 411, 'height': 411, 'widthPercent': 0.45, 'rescaleHeight': False, 'trialN': 21, 'loaded': True, 'loadedTime': 47335.799999952316, 'positionName': 'RIGHT', 'positionCoords': [998.4, 334.5], 'bid': 6.98}]",73825.5,1669830376398,roastedpotatoes,Grapes,6.8100000000000005,6.98,0.16999999999999993,Grapes,1671.0999999046326,1672,1671.5,True,i,76005.09999990463,2179.5999999046326,1669830378578,2180,HRV,HRV_0140,2022-11-30 17:49:49
22,"[{'imgObject': {}, 'id': 'blackbeanswithrice', 'src': '/static/foodstim60/blackbeanswithrice.jpg', 'key': 'u', 'origWidth': 410, 'origHeight': 410, 'width': 410, 'height': 410, 'widthPercent': 0.45, 'rescaleHeight': False, 'trialN': 22, 'loaded': True, 'loadedTime': 47112.799999952316, 'positionName': 'LEFT', 'positionCoords': [511.6, 335], 'bid': 8.1}, {'imgObject': {}, 'id': 'fried eggs', 'src': '/static/foodstim60/fried eggs.jpg', 'key': 'i', 'origWidth': 410, 'origHeight': 410, 'width': 410, 'height': 410, 'widthPercent': 0.45, 'rescaleHeight': False, 'trialN': 22, 'loaded': True, 'loadedTime': 47344.199999928474, 'positionName': 'RIGHT', 'positionCoords': [998.4, 335], 'bid': 8.11}]",76005.39999997616,1669830378578,blackbeanswithrice,fried eggs,8.1,8.11,0.009999999999999787,fried eggs,2123.1999999284744,2124,2123.399999976158,True,i,78641.0,2635.600000023842,1669830381214,2636,HRV,HRV_0140,2022-11-30 17:49:49
23,"[{'imgObject': {}, 'id': 'avocado', 'src': '/static/foodstim60/avocado.jpg', 'key': 'u', 'origWidth': 409, 'origHeight': 409, 'width': 409, 'height': 409, 'widthPercent': 0.45, 'rescaleHeight': False, 'trialN': 23, 'loaded': True, 'loadedTime': 47352.89999997616, 'positionName': 'LEFT', 'positionCoords': [512.6, 335.5], 'bid': 8.68}, {'imgObject': {}, 'id': 'turkeysandwich', 'src': '/static/foodstim60/turkeysandwich.jpg', 'key': 'i', 'origWidth': 409, 'origHeight': 409, 'width': 409, 'height': 409, 'widthPercent': 0.45, 'rescaleHeight': False, 'trialN': 23, 'loaded': True, 'loadedTime': 47191.699999928474, 'positionName': 'RIGHT', 'positionCoords': [998.4, 335.5], 'bid': 8.290000000000001}]",78641.19999992847,1669830381214,avocado,turkeysandwich,8.68,8.290000000000001,-0.3899999999999988,turkeysandwich,903.1000000238419,903,903.5,True,i,80054.0,1412.8000000715256,1669830382627,1413,HRV,HRV_0140,2022-11-30 17:49:49
24,"[{'imgObject': {}, 'id': 'rigatoni and sauce', 'src': '/static/foodstim60/rigatoni and sauce.jpg', 'key': 'u', 'origWidth': 410, 'origHeight': 411, 'width': 410, 'height': 411, 'widthPercent': 0.45, 'rescaleHeight': False, 'trialN': 24, 'loaded': True, 'loadedTime': 47026.09999990463, 'positionName': 'LEFT', 'positionCoords': [511.6, 334.5], 'bid': 7.13}, {'imgObject': {}, 'id': 'hashbrowns', 'src': '/static/foodstim60/hashbrowns.jpg', 'key': 'i', 'origWidth': 411, 'origHeight': 410, 'width': 411, 'height': 410, 'widthPercent': 0.45, 'rescaleHeight': False, 'trialN': 24, 'loaded': True, 'loadedTime': 47359.39999997616, 'positionName': 'RIGHT', 'positionCoords': [998.4, 335], 'bid': 8.51}]",80054.19999992847,1669830382627,rigatoni and sauce,hashbrowns,7.13,8.51,1.38,rigatoni and sauce,634.0,634,634.3000000715256,True,u,81206.19999992847,1152.0,1669830383779,1152,HRV,HRV_0140,2022-11-30 17:49:49
25,"[{'imgObject': {}, 'id': 'cantaloupe', 'src': '/static/foodstim60/cantaloupe.jpg', 'key': 'u', 'origWidth': 409, 'origHeight': 409, 'width': 409, 'height': 409, 'widthPercent': 0.45, 'rescaleHeight': False, 'trialN': 25, 'loaded': True, 'loadedTime': 46943.199999928474, 'positionName': 'LEFT', 'positionCoords': [512.6, 335.5], 'bid': 2.35}, {'imgObject': {}, 'id': 'shreddedwheatwithmilk', 'src': '/static/foodstim60/shreddedwheatwithmilk.jpg', 'key': 'i', 'origWidth': 410, 'origHeight': 410, 'width': 410, 'height': 410, 'widthPercent': 0.45, 'rescaleHeight': False, 'trialN': 25, 'loaded': True, 'loadedTime': 47361.59999990463, 'positionName': 'RIGHT', 'positionCoords': [998.4, 335], 'bid': 2.75}]",81206.19999992847,1669830383779,cantaloupe,shreddedwheatwithmilk,2.35,2.75,0.3999999999999999,shreddedwheatwithmilk,466.2000000476837,467,466.60000002384186,True,i,82196.59999990463,990.3999999761581,1669830384769,990,HRV,HRV_0140,2022-11-30 17:49:49
26,"[{'imgObject': {}, 'id': 'eggs', 'src': '/static/foodstim60/eggs.jpg', 'key': 'u', 'origWidth': 409, 'origHeight': 409, 'width': 409, 'height': 409, 'widthPercent': 0.45, 'rescaleHeight': False, 'trialN': 26, 'loaded': True, 'loadedTime': 47369.199999928474, 'positionName': 'LEFT', 'positionCoords': [512.6, 335.5], 'bid': 8.13}, {'imgObject': {}, 'id': 'omelette', 'src': '/static/foodstim60/omelette.jpg', 'key': 'i', 'origWidth': 410, 'origHeight': 409, 'width': 410, 'height': 409, 'widthPercent': 0.45, 'rescaleHeight': False, 'trialN': 26, 'loaded': True, 'loadedTime': 47378.799999952316, 'positionName': 'RIGHT', 'positionCoords': [998.4, 335.5], 'bid': 9.26}]",82196.69999992847,1669830384770,eggs,omelette,8.13,9.26,1.129999999999999,eggs,500.10000002384186,500,500.5,True,u,83205.79999995232,1009.1000000238419,1669830385779,1009,HRV,HRV_0140,2022-11-30 17:49:49
27,"[{'imgObject': {}, 'id': 'blackbeanswithrice', 'src': '/static/foodstim60/blackbeanswithrice.jpg', 'key': 'u', 'origWidth': 410, 'origHeight': 410, 'width': 410, 'height': 410, 'widthPercent': 0.45, 'rescaleHeight': False, 'trialN': 27, 'loaded': True, 'loadedTime': 47120, 'positionName': 'LEFT', 'positionCoords': [511.6, 335], 'bid': 8.1}, {'imgObject': {}, 'id': 'blueberries', 'src': '/static/foodstim60/blueberries.jpg', 'key': 'i', 'origWidth': 411, 'origHeight': 411, 'width': 411, 'height': 411, 'widthPercent': 0.45, 'rescaleHeight': False, 'trialN': 27, 'loaded': True, 'loadedTime': 47390, 'positionName': 'RIGHT', 'positionCoords': [998.4, 334.5], 'bid': 8.64}]",83205.89999997616,1669830385779,blackbeanswithrice,blueberries,8.1,8.64,0.5400000000000009,blueberries,330.1999999284744,330,330.2999999523163,True,i,84047.69999992847,841.7999999523163,1669830386620,841,HRV,HRV_0140,2022-11-30 17:49:49
28,"[{'imgObject': {}, 'id': 'omelette', 'src': '/static/foodstim60/omelette.jpg', 'key': 'u', 'origWidth': 410, 'origHeight': 409, 'width': 410, 'height': 409, 'widthPercent': 0.45, 'rescaleHeight': False, 'trialN': 28, 'loaded': True, 'loadedTime': 47380.09999990463, 'positionName': 'LEFT', 'positionCoords': [511.6, 335.5], 'bid': 9.26}, {'imgObject': {}, 'id': 'avocado', 'src': '/static/foodstim60/avocado.jpg', 'key': 'i', 'origWidth': 409, 'origHeight': 409, 'width': 409, 'height': 409, 'widthPercent': 0.45, 'rescaleHeight': False, 'trialN': 28, 'loaded': True, 'loadedTime': 47352.699999928474, 'positionName': 'RIGHT', 'positionCoords': [998.4, 335.5], 'bid': 8.68}]",84048.0,1669830386621,omelette,avocado,9.26,8.68,-0.5800000000000001,avocado,504.39999997615814,504,504.6999999284744,True,i,85068.0,1020.0,1669830387641,1020,HRV,HRV_0140,2022-11-30 17:49:49
29,"[{'imgObject': {}, 'id': 'salmon', 'src': '/static/foodstim60/salmon.jpg', 'key': 'u', 'origWidth': 410, 'origHeight': 409, 'width': 410, 'height': 409, 'widthPercent': 0.45, 'rescaleHeight': False, 'trialN': 29, 'loaded': True, 'loadedTime': 47055.09999990463, 'positionName': 'LEFT', 'positionCoords': [511.6, 335.5], 'bid': 8.67}, {'imgObject': {}, 'id': 'turkey sandwich', 'src': '/static/foodstim60/turkey sandwich.jpg', 'key': 'i', 'origWidth': 409, 'origHeight': 409, 'width': 409, 'height': 409, 'widthPercent': 0.45, 'rescaleHeight': False, 'trialN': 29, 'loaded': True, 'loadedTime': 47391.199999928474, 'positionName': 'RIGHT', 'positionCoords': [998.4, 335.5], 'bid': 8.11}]",85068.29999995232,1669830387641,salmon,turkey sandwich,8.67,8.11,-0.5600000000000005,turkey sandwich,932.2999999523163,933,932.6000000238419,True,i,86518.89999997616,1450.6000000238419,1669830389092,1451,HRV,HRV_0140,2022-11-30 17:49:49
30,"[{'imgObject': {}, 'id': 'sweetpotato', 'src': '/static/foodstim60/sweetpotato.jpg', 'key': 'u', 'origWidth': 410, 'origHeight': 410, 'width': 410, 'height': 410, 'widthPercent': 0.45, 'rescaleHeight': False, 'trialN': 30, 'loaded': True, 'loadedTime': 47147.699999928474, 'positionName': 'LEFT', 'positionCoords': [511.6, 335], 'bid': 8.27}, {'imgObject': {}, 'id': 'bagel plain', 'src': '/static/foodstim60/bagel plain.jpg', 'key': 'i', 'origWidth': 410, 'origHeight': 410, 'width': 410, 'height': 410, 'widthPercent': 0.45, 'rescaleHeight': False, 'trialN': 30, 'loaded': True, 'loadedTime': 47255.299999952316, 'positionName': 'RIGHT', 'positionCoords': [998.4, 335], 'bid': 7.65}]",86519.09999990463,1669830389092,sweetpotato,bagel plain,8.27,7.65,-0.6199999999999992,bagel plain,537.6000000238419,538,538.0,True,i,87575.79999995232,1056.7000000476837,1669830390149,1057,HRV,HRV_0140,2022-11-30 17:49:49
31,"[{'imgObject': {}, 'id': 'avocado', 'src': '/static/foodstim60/avocado.jpg', 'key': 'u', 'origWidth': 409, 'origHeight': 409, 'width': 409, 'height': 409, 'widthPercent': 0.45, 'rescaleHeight': False, 'trialN': 31, 'loaded': True, 'loadedTime': 47351.5, 'positionName': 'LEFT', 'positionCoords': [512.6, 335.5], 'bid': 8.68}, {'imgObject': {}, 'id': 'raisin bran w milk', 'src': '/static/foodstim60/raisin bran w milk.jpg', 'key': 'i', 'origWidth': 411, 'origHeight': 411, 'width': 411, 'height': 411, 'widthPercent': 0.45, 'rescaleHeight': False, 'trialN': 31, 'loaded': True, 'loadedTime': 47399, 'positionName': 'RIGHT', 'positionCoords': [998.4, 334.5], 'bid': 8.44}]",87576.0,1669830390149,avocado,raisin bran w milk,8.68,8.44,-0.2400000000000002,avocado,112.5,113,112.79999995231628,True,u,88206.09999990463,630.0999999046326,1669830390779,630,HRV,HRV_0140,2022-11-30 17:49:49
32,"[{'imgObject': {}, 'id': 'sweetpotato', 'src': '/static/foodstim60/sweetpotato.jpg', 'key': 'u', 'origWidth': 410, 'origHeight': 410, 'width': 410, 'height': 410, 'widthPercent': 0.45, 'rescaleHeight': False, 'trialN': 32, 'loaded': True, 'loadedTime': 47145.89999997616, 'positionName': 'LEFT', 'positionCoords': [511.6, 335], 'bid': 8.27}, {'imgObject': {}, 'id': 'eggsalad', 'src': '/static/foodstim60/eggsalad.jpg', 'key': 'i', 'origWidth': 410, 'origHeight': 409, 'width': 410, 'height': 409, 'widthPercent': 0.45, 'rescaleHeight': False, 'trialN': 32, 'loaded': True, 'loadedTime': 47086, 'positionName': 'RIGHT', 'positionCoords': [998.4, 335.5], 'bid': 8.19}]",88206.19999992847,1669830390779,sweetpotato,eggsalad,8.27,8.19,-0.08000000000000007,eggsalad,330.2000000476837,330,330.5,True,i,89049.89999997616,843.7000000476837,1669830391623,844,HRV,HRV_0140,2022-11-30 17:49:49
33,"[{'imgObject': {}, 'id': 'mashed potato', 'src': '/static/foodstim60/mashed potato.jpg', 'key': 'u', 'origWidth': 409, 'origHeight': 409, 'width': 409, 'height': 409, 'widthPercent': 0.45, 'rescaleHeight': False, 'trialN': 33, 'loaded': True, 'loadedTime': 47281, 'positionName': 'LEFT', 'positionCoords': [512.6, 335.5], 'bid': 7.87}, {'imgObject': {}, 'id': 'veggieswithdip', 'src': '/static/foodstim60/veggieswithdip.jpg', 'key': 'i', 'origWidth': 409, 'origHeight': 409, 'width': 409, 'height': 409, 'widthPercent': 0.45, 'rescaleHeight': False, 'trialN': 33, 'loaded': True, 'loadedTime': 46978.39999997616, 'positionName': 'RIGHT', 'positionCoords': [998.4, 335.5], 'bid': 7.930000000000001}]",89050.09999990463,1669830391623,mashed potato,veggieswithdip,7.87,7.930000000000001,0.0600000000000005,veggieswithdip,1014.6000000238419,1015,1014.8000000715256,True,i,90573.5,1523.4000000953674,1669830393146,1523,HRV,HRV_0140,2022-11-30 17:49:49
34,"[{'imgObject': {}, 'id': 'blackbeanswithrice', 'src': '/static/foodstim60/blackbeanswithrice.jpg', 'key': 'u', 'origWidth': 410, 'origHeight': 410, 'width': 410, 'height': 410, 'widthPercent': 0.45, 'rescaleHeight': False, 'trialN': 34, 'loaded': True, 'loadedTime': 47121, 'positionName': 'LEFT', 'positionCoords': [511.6, 335], 'bid': 8.1}, {'imgObject': {}, 'id': 'orange slices', 'src': '/static/foodstim60/orange slices.jpg', 'key': 'i', 'origWidth': 409, 'origHeight': 410, 'width': 409, 'height': 410, 'widthPercent': 0.45, 'rescaleHeight': False, 'trialN': 34, 'loaded': True, 'loadedTime': 47057.5, 'positionName': 'RIGHT', 'positionCoords': [998.4, 335], 'bid': 8.4}]",90573.69999992847,1669830393147,blackbeanswithrice,orange slices,8.1,8.4,0.3000000000000007,orange slices,346.60000002384186,346,346.89999997615814,True,i,91426.69999992847,853.0,1669830394000,853,HRV,HRV_0140,2022-11-30 17:49:49
35,"[{'imgObject': {}, 'id': 'lox', 'src': '/static/foodstim60/lox.jpg', 'key': 'u', 'origWidth': 410, 'origHeight': 411, 'width': 410, 'height': 411, 'widthPercent': 0.45, 'rescaleHeight': False, 'trialN': 35, 'loaded': True, 'loadedTime': 47406.799999952316, 'positionName': 'LEFT', 'positionCoords': [511.6, 334.5], 'bid': 1.79}, {'imgObject': {}, 'id': 'chicken nuggets2', 'src': '/static/foodstim60/chicken nuggets2.jpg', 'key': 'i', 'origWidth': 410, 'origHeight': 409, 'width': 410, 'height': 409, 'widthPercent': 0.45, 'rescaleHeight': False, 'trialN': 35, 'loaded': True, 'loadedTime': 47310, 'positionName': 'RIGHT', 'positionCoords': [998.4, 335.5], 'bid': 6.32}]",91426.89999997616,1669830394000,lox,chicken nuggets2,1.79,6.32,4.53,lox,237.69999992847443,238,238.10000002384186,True,u,92177.0,750.1000000238419,1669830394750,750,HRV,HRV_0140,2022-11-30 17:49:49
36,"[{'imgObject': {}, 'id': 'chicken nuggets2', 'src': '/static/foodstim60/chicken nuggets2.jpg', 'key': 'u', 'origWidth': 410, 'origHeight': 409, 'width': 410, 'height': 409, 'widthPercent': 0.45, 'rescaleHeight': False, 'trialN': 36, 'loaded': True, 'loadedTime': 47310.199999928474, 'positionName': 'LEFT', 'positionCoords': [511.6, 335.5], 'bid': 6.32}, {'imgObject': {}, 'id': 'Grapes', 'src': '/static/foodstim60/Grapes.jpg', 'key': 'i', 'origWidth': 411, 'origHeight': 411, 'width': 411, 'height': 411, 'widthPercent': 0.45, 'rescaleHeight': False, 'trialN': 36, 'loaded': True, 'loadedTime': 47327.09999990463, 'positionName': 'RIGHT', 'positionCoords': [998.4, 334.5], 'bid': 6.98}]",92177.09999990463,1669830394750,chicken nuggets2,Grapes,6.32,6.98,0.6600000000000001,chicken nuggets2,511.8000000715256,512,511.90000009536743,True,u,93194.79999995232,1017.7000000476837,1669830395768,1018,HRV,HRV_0140,2022-11-30 17:49:49
37,"[{'imgObject': {}, 'id': 'roastedpotatoes', 'src': '/static/foodstim60/roastedpotatoes.jpg', 'key': 'u', 'origWidth': 409, 'origHeight': 410, 'width': 409, 'height': 410, 'widthPercent': 0.45, 'rescaleHeight': False, 'trialN': 37, 'loaded': True, 'loadedTime': 47139.199999928474, 'positionName': 'LEFT', 'positionCoords': [512.6, 335], 'bid': 6.8100000000000005}, {'imgObject': {}, 'id': 'froot loops w milk', 'src': '/static/foodstim60/froot loops w milk.jpg', 'key': 'i', 'origWidth': 410, 'origHeight': 410, 'width': 410, 'height': 410, 'widthPercent': 0.45, 'rescaleHeight': False, 'trialN': 37, 'loaded': True, 'loadedTime': 47417.299999952316, 'positionName': 'RIGHT', 'positionCoords': [998.4, 335], 'bid': 1.82}]",93195.09999990463,1669830395768,roastedpotatoes,froot loops w milk,6.8100000000000005,1.82,-4.99,froot loops w milk,493.40000009536743,494,493.90000009536743,True,i,94195.79999995232,1000.7000000476837,1669830396769,1001,HRV,HRV_0140,2022-11-30 17:49:49
38,"[{'imgObject': {}, 'id': 'ice cream sundae 002', 'src': '/static/foodstim60/ice cream sundae 002.jpg', 'key': 'u', 'origWidth': 409, 'origHeight': 409, 'width': 409, 'height': 409, 'widthPercent': 0.45, 'rescaleHeight': False, 'trialN': 38, 'loaded': True, 'loadedTime': 47418.799999952316, 'positionName': 'LEFT', 'positionCoords': [512.6, 335.5], 'bid': 3.2}, {'imgObject': {}, 'id': 'Grapes', 'src': '/static/foodstim60/Grapes.jpg', 'key': 'i', 'origWidth': 411, 'origHeight': 411, 'width': 411, 'height': 411, 'widthPercent': 0.45, 'rescaleHeight': False, 'trialN': 38, 'loaded': True, 'loadedTime': 47335.199999928474, 'positionName': 'RIGHT', 'positionCoords': [998.4, 334.5], 'bid': 6.98}]",94196.0,1669830396769,ice cream sundae 002,Grapes,3.2,6.98,3.7800000000000002,ice cream sundae 002,388.09999990463257,388,388.39999997615814,True,u,95097.19999992847,901.1999999284744,1669830397670,901,HRV,HRV_0140,2022-11-30 17:49:49
39,"[{'imgObject': {}, 'id': 'hotdog w must', 'src': '/static/foodstim60/hotdog w must.jpg', 'key': 'u', 'origWidth': 409, 'origHeight': 409, 'width': 409, 'height': 409, 'widthPercent': 0.45, 'rescaleHeight': False, 'trialN': 39, 'loaded': True, 'loadedTime': 47420.299999952316, 'positionName': 'LEFT', 'positionCoords': [512.6, 335.5], 'bid': 7.2}, {'imgObject': {}, 'id': 'mac & cheese', 'src': '/static/foodstim60/mac & cheese.jpg', 'key': 'i', 'origWidth': 410, 'origHeight': 410, 'width': 410, 'height': 410, 'widthPercent': 0.45, 'rescaleHeight': False, 'trialN': 39, 'loaded': True, 'loadedTime': 46901.699999928474, 'positionName': 'RIGHT', 'positionCoords': [998.4, 335], 'bid': 3.78}]",95097.39999997616,1669830397670,hotdog w must,mac & cheese,7.2,3.78,-3.4200000000000004,hotdog w must,806.6000000238419,807,806.8999999761581,True,u,96422.59999990463,1325.1999999284744,1669830398995,1325,HRV,HRV_0140,2022-11-30 17:49:49
40,"[{'imgObject': {}, 'id': 'sushi w_condiments', 'src': '/static/foodstim60/sushi w_condiments.jpg', 'key': 'u', 'origWidth': 410, 'origHeight': 410, 'width': 410, 'height': 410, 'widthPercent': 0.45, 'rescaleHeight': False, 'trialN': 40, 'loaded': True, 'loadedTime': 46994.799999952316, 'positionName': 'LEFT', 'positionCoords': [511.6, 335], 'bid': 7.35}, {'imgObject': {}, 'id': 'raspberries', 'src': '/static/foodstim60/raspberries.jpg', 'key': 'i', 'origWidth': 411, 'origHeight': 411, 'width': 411, 'height': 411, 'widthPercent': 0.45, 'rescaleHeight': False, 'trialN': 40, 'loaded': True, 'loadedTime': 47421.59999990463, 'positionName': 'RIGHT', 'positionCoords': [998.4, 334.5], 'bid': 7.46}]",96422.69999992847,1669830398996,sushi w_condiments,raspberries,7.35,7.46,0.11000000000000032,raspberries,473.3000000715256,473,473.7000000476837,True,i,97405.09999990463,982.3999999761581,1669830399978,982,HRV,HRV_0140,2022-11-30 17:49:49
41,"[{'imgObject': {}, 'id': 'olives', 'src': '/static/foodstim60/olives.jpg', 'key': 'u', 'origWidth': 410, 'origHeight': 410, 'width': 410, 'height': 410, 'widthPercent': 0.45, 'rescaleHeight': False, 'trialN': 41, 'loaded': True, 'loadedTime': 47149.09999990463, 'positionName': 'LEFT', 'positionCoords': [511.6, 335], 'bid': 3.02}, {'imgObject': {}, 'id': 'ice cream sundae 002', 'src': '/static/foodstim60/ice cream sundae 002.jpg', 'key': 'i', 'origWidth': 409, 'origHeight': 409, 'width': 409, 'height': 409, 'widthPercent': 0.45, 'rescaleHeight': False, 'trialN': 41, 'loaded': True, 'loadedTime': 47419, 'positionName': 'RIGHT', 'positionCoords': [998.4, 335.5], 'bid': 3.2}]",97405.29999995232,1669830399978,olives,ice cream sundae 002,3.02,3.2,0.18000000000000016,olives,834.7999999523163,835,835.0,True,u,98748.29999995232,1343.0,1669830401321,1343,HRV,HRV_0140,2022-11-30 17:49:49
42,"[{'imgObject': {}, 'id': 'salad w chicken', 'src': '/static/foodstim60/salad w chicken.jpg', 'key': 'u', 'origWidth': 411, 'origHeight': 411, 'width': 411, 'height': 411, 'widthPercent': 0.45, 'rescaleHeight': False, 'trialN': 42, 'loaded': True, 'loadedTime': 47190.799999952316, 'positionName': 'LEFT', 'positionCoords': [510.6, 334.5], 'bid': 7.77}, {'imgObject': {}, 'id': 'rigatoni and sauce', 'src': '/static/foodstim60/rigatoni and sauce.jpg', 'key': 'i', 'origWidth': 410, 'origHeight': 411, 'width': 410, 'height': 411, 'widthPercent': 0.45, 'rescaleHeight': False, 'trialN': 42, 'loaded': True, 'loadedTime': 47024.199999928474, 'positionName': 'RIGHT', 'positionCoords': [998.4, 334.5], 'bid': 7.13}]",98748.59999990463,1669830401321,salad w chicken,rigatoni and sauce,7.77,7.13,-0.6399999999999997,salad w chicken,516.1000000238419,517,516.4000000953674,True,u,99783.0,1034.4000000953674,1669830402356,1035,HRV,HRV_0140,2022-11-30 17:49:49
43,"[{'imgObject': {}, 'id': 'bagel and cc', 'src': '/static/foodstim60/bagel and cc.jpg', 'key': 'u', 'origWidth': 410, 'origHeight': 410, 'width': 410, 'height': 410, 'widthPercent': 0.45, 'rescaleHeight': False, 'trialN': 43, 'loaded': True, 'loadedTime': 47257.09999990463, 'positionName': 'LEFT', 'positionCoords': [511.6, 335], 'bid': 7.22}, {'imgObject': {}, 'id': 'steak', 'src': '/static/foodstim60/steak.jpg', 'key': 'i', 'origWidth': 410, 'origHeight': 410, 'width': 410, 'height': 410, 'widthPercent': 0.45, 'rescaleHeight': False, 'trialN': 43, 'loaded': True, 'loadedTime': 47431.39999997616, 'positionName': 'RIGHT', 'positionCoords': [998.4, 335], 'bid': 7.27}]",99783.09999990463,1669830402356,bagel and cc,steak,7.22,7.27,0.04999999999999982,steak,673.0,673,673.3000000715256,True,i,100967.5,1184.4000000953674,1669830403540,1184,HRV,HRV_0140,2022-11-30 17:49:49
44,"[{'imgObject': {}, 'id': 'raspberries', 'src': '/static/foodstim60/raspberries.jpg', 'key': 'u', 'origWidth': 411, 'origHeight': 411, 'width': 411, 'height': 411, 'widthPercent': 0.45, 'rescaleHeight': False, 'trialN': 44, 'loaded': True, 'loadedTime': 47421.89999997616, 'positionName': 'LEFT', 'positionCoords': [510.6, 334.5], 'bid': 7.46}, {'imgObject': {}, 'id': 'burrito', 'src': '/static/foodstim60/burrito.jpg', 'key': 'i', 'origWidth': 410, 'origHeight': 410, 'width': 410, 'height': 410, 'widthPercent': 0.45, 'rescaleHeight': False, 'trialN': 44, 'loaded': True, 'loadedTime': 47439.5, 'positionName': 'RIGHT', 'positionCoords': [998.4, 335], 'bid': 7.0600000000000005}]",100967.69999992847,1669830403540,raspberries,burrito,7.46,7.0600000000000005,-0.39999999999999947,raspberries,464.89999997615814,466,465.2000000476837,True,u,101951.79999995232,984.1000000238419,1669830404525,985,HRV,HRV_0140,2022-11-30 17:49:49
45,"[{'imgObject': {}, 'id': 'rigatoni', 'src': '/static/foodstim60/rigatoni.jpg', 'key': 'u', 'origWidth': 411, 'origHeight': 411, 'width': 411, 'height': 411, 'widthPercent': 0.45, 'rescaleHeight': False, 'trialN': 45, 'loaded': True, 'loadedTime': 47440.799999952316, 'positionName': 'LEFT', 'positionCoords': [510.6, 334.5], 'bid': 7.43}, {'imgObject': {}, 'id': 'omelette', 'src': '/static/foodstim60/omelette.jpg', 'key': 'i', 'origWidth': 410, 'origHeight': 409, 'width': 410, 'height': 409, 'widthPercent': 0.45, 'rescaleHeight': False, 'trialN': 45, 'loaded': True, 'loadedTime': 47381, 'positionName': 'RIGHT', 'positionCoords': [998.4, 335.5], 'bid': 9.26}]",101951.89999997616,1669830404525,rigatoni,omelette,7.43,9.26,1.83,rigatoni,928.6999999284744,929,928.8999999761581,True,u,103397.79999995232,1445.8999999761581,1669830405971,1446,HRV,HRV_0140,2022-11-30 17:49:49
46,"[{'imgObject': {}, 'id': 'banana', 'src': '/static/foodstim60/banana.jpg', 'key': 'u', 'origWidth': 410, 'origHeight': 410, 'width': 410, 'height': 410, 'widthPercent': 0.45, 'rescaleHeight': False, 'trialN': 46, 'loaded': True, 'loadedTime': 47016.199999928474, 'positionName': 'LEFT', 'positionCoords': [511.6, 335], 'bid': 7.0600000000000005}, {'imgObject': {}, 'id': 'orange slices', 'src': '/static/foodstim60/orange slices.jpg', 'key': 'i', 'origWidth': 409, 'origHeight': 410, 'width': 409, 'height': 410, 'widthPercent': 0.45, 'rescaleHeight': False, 'trialN': 46, 'loaded': True, 'loadedTime': 47057.299999952316, 'positionName': 'RIGHT', 'positionCoords': [998.4, 335], 'bid': 8.4}]",103398.0,1669830405971,banana,orange slices,7.0600000000000005,8.4,1.3399999999999999,orange slices,282.2999999523163,282,282.59999990463257,True,i,104192.29999995232,794.2999999523163,1669830406765,794,HRV,HRV_0140,2022-11-30 17:49:49
47,"[{'imgObject': {}, 'id': 'apple slices', 'src': '/static/foodstim60/apple slices.jpg', 'key': 'u', 'origWidth': 409, 'origHeight': 410, 'width': 409, 'height': 410, 'widthPercent': 0.45, 'rescaleHeight': False, 'trialN': 47, 'loaded': True, 'loadedTime': 47308.09999990463, 'positionName': 'LEFT', 'positionCoords': [512.6, 335], 'bid': 6.12}, {'imgObject': {}, 'id': 'roastedpotatoes', 'src': '/static/foodstim60/roastedpotatoes.jpg', 'key': 'i', 'origWidth': 409, 'origHeight': 410, 'width': 409, 'height': 410, 'widthPercent': 0.45, 'rescaleHeight': False, 'trialN': 47, 'loaded': True, 'loadedTime': 47132.5, 'positionName': 'RIGHT', 'positionCoords': [998.4, 335], 'bid': 6.8100000000000005}]",104192.5,1669830406765,apple slices,roastedpotatoes,6.12,6.8100000000000005,0.6900000000000004,roastedpotatoes,719.5999999046326,720,719.8999999761581,True,i,105422.69999992847,1230.1999999284744,1669830407996,1231,HRV,HRV_0140,2022-11-30 17:49:49
48,"[{'imgObject': {}, 'id': 'kiwi', 'src': '/static/foodstim60/kiwi.jpg', 'key': 'u', 'origWidth': 410, 'origHeight': 410, 'width': 410, 'height': 410, 'widthPercent': 0.45, 'rescaleHeight': False, 'trialN': 48, 'loaded': True, 'loadedTime': 47442.09999990463, 'positionName': 'LEFT', 'positionCoords': [511.6, 335], 'bid': 8.03}, {'imgObject': {}, 'id': 'mac & cheese', 'src': '/static/foodstim60/mac & cheese.jpg', 'key': 'i', 'origWidth': 410, 'origHeight': 410, 'width': 410, 'height': 410, 'widthPercent': 0.45, 'rescaleHeight': False, 'trialN': 48, 'loaded': True, 'loadedTime': 46904.59999990463, 'positionName': 'RIGHT', 'positionCoords': [998.4, 335], 'bid': 3.78}]",105422.89999997616,1669830407996,kiwi,mac & cheese,8.03,3.78,-4.25,kiwi,537.2999999523163,537,537.6000000238419,True,u,106473.19999992847,1050.2999999523163,1669830409045,1049,HRV,HRV_0140,2022-11-30 17:49:49
49,"[{'imgObject': {}, 'id': 'salad w chicken', 'src': '/static/foodstim60/salad w chicken.jpg', 'key': 'u', 'origWidth': 411, 'origHeight': 411, 'width': 411, 'height': 411, 'widthPercent': 0.45, 'rescaleHeight': False, 'trialN': 49, 'loaded': True, 'loadedTime': 47191.09999990463, 'positionName': 'LEFT', 'positionCoords': [510.6, 334.5], 'bid': 7.77}, {'imgObject': {}, 'id': 'froot loops w milk', 'src': '/static/foodstim60/froot loops w milk.jpg', 'key': 'i', 'origWidth': 410, 'origHeight': 410, 'width': 410, 'height': 410, 'widthPercent': 0.45, 'rescaleHeight': False, 'trialN': 49, 'loaded': True, 'loadedTime': 47417, 'positionName': 'RIGHT', 'positionCoords': [998.4, 335], 'bid': 1.82}]",106473.39999997616,1669830409046,salad w chicken,froot loops w milk,7.77,1.82,-5.949999999999999,froot loops w milk,479.1999999284744,479,479.39999997615814,True,i,107460.5,987.1000000238419,1669830410033,987,HRV,HRV_0140,2022-11-30 17:49:49
50,"[{'imgObject': {}, 'id': 'pear', 'src': '/static/foodstim60/pear.jpg', 'key': 'u', 'origWidth': 411, 'origHeight': 410, 'width': 411, 'height': 410, 'widthPercent': 0.45, 'rescaleHeight': False, 'trialN': 50, 'loaded': True, 'loadedTime': 47442.299999952316, 'positionName': 'LEFT', 'positionCoords': [510.6, 335], 'bid': 5.82}, {'imgObject': {}, 'id': 'eggs', 'src': '/static/foodstim60/eggs.jpg', 'key': 'i', 'origWidth': 409, 'origHeight': 409, 'width': 409, 'height': 409, 'widthPercent': 0.45, 'rescaleHeight': False, 'trialN': 50, 'loaded': True, 'loadedTime': 47378.199999928474, 'positionName': 'RIGHT', 'positionCoords': [998.4, 335.5], 'bid': 8.13}]",107460.69999992847,1669830410033,pear,eggs,5.82,8.13,2.3100000000000005,pear,531.6000000238419,532,531.8999999761581,True,u,108505.5,1044.8000000715256,1669830411078,1045,HRV,HRV_0140,2022-11-30 17:49:49
51,"[{'imgObject': {}, 'id': 'blueberries', 'src': '/static/foodstim60/blueberries.jpg', 'key': 'u', 'origWidth': 411, 'origHeight': 411, 'width': 411, 'height': 411, 'widthPercent': 0.45, 'rescaleHeight': False, 'trialN': 51, 'loaded': True, 'loadedTime': 47388.39999997616, 'positionName': 'LEFT', 'positionCoords': [510.6, 334.5], 'bid': 8.64}, {'imgObject': {}, 'id': 'salmon', 'src': '/static/foodstim60/salmon.jpg', 'key': 'i', 'origWidth': 410, 'origHeight': 409, 'width': 410, 'height': 409, 'widthPercent': 0.45, 'rescaleHeight': False, 'trialN': 51, 'loaded': True, 'loadedTime': 47043.199999928474, 'positionName': 'RIGHT', 'positionCoords': [998.4, 335.5], 'bid': 8.67}]",108505.69999992847,1669830411078,blueberries,salmon,8.64,8.67,0.02999999999999936,salmon,398.60000002384186,399,398.8000000715256,True,i,109416.5,910.8000000715256,1669830411989,911,HRV,HRV_0140,2022-11-30 17:49:49
52,"[{'imgObject': {}, 'id': 'Tribe humus pita', 'src': '/static/foodstim60/Tribe humus pita.jpg', 'key': 'u', 'origWidth': 411, 'origHeight': 411, 'width': 411, 'height': 411, 'widthPercent': 0.45, 'rescaleHeight': False, 'trialN': 52, 'loaded': True, 'loadedTime': 47319, 'positionName': 'LEFT', 'positionCoords': [510.6, 334.5], 'bid': 2.89}, {'imgObject': {}, 'id': 'corn cob', 'src': '/static/foodstim60/corn cob.jpg', 'key': 'i', 'origWidth': 411, 'origHeight': 411, 'width': 411, 'height': 411, 'widthPercent': 0.45, 'rescaleHeight': False, 'trialN': 52, 'loaded': True, 'loadedTime': 47452.199999928474, 'positionName': 'RIGHT', 'positionCoords': [998.4, 334.5], 'bid': 2.82}]",109416.79999995232,1669830411989,Tribe humus pita,corn cob,2.89,2.82,-0.07000000000000028,Tribe humus pita,200.29999995231628,200,200.5,True,u,110129.0,712.2000000476837,1669830412701,712,HRV,HRV_0140,2022-11-30 17:49:49
53,"[{'imgObject': {}, 'id': 'cheerios', 'src': '/static/foodstim60/cheerios.jpg', 'key': 'u', 'origWidth': 409, 'origHeight': 410, 'width': 409, 'height': 410, 'widthPercent': 0.45, 'rescaleHeight': False, 'trialN': 53, 'loaded': True, 'loadedTime': 47283.09999990463, 'positionName': 'LEFT', 'positionCoords': [512.6, 335], 'bid': 7.930000000000001}, {'imgObject': {}, 'id': 'steak', 'src': '/static/foodstim60/steak.jpg', 'key': 'i', 'origWidth': 410, 'origHeight': 410, 'width': 410, 'height': 410, 'widthPercent': 0.45, 'rescaleHeight': False, 'trialN': 53, 'loaded': True, 'loadedTime': 47431.59999990463, 'positionName': 'RIGHT', 'positionCoords': [998.4, 335], 'bid': 7.27}]",110129.09999990463,1669830412701,cheerios,steak,7.930000000000001,7.27,-0.660000000000001,steak,768.0,769,768.4000000953674,True,i,111415.19999992847,1286.1000000238419,1669830413987,1286,HRV,HRV_0140,2022-11-30 17:49:49
54,"[{'imgObject': {}, 'id': 'rigatoni', 'src': '/static/foodstim60/rigatoni.jpg', 'key': 'u', 'origWidth': 411, 'origHeight': 411, 'width': 411, 'height': 411, 'widthPercent': 0.45, 'rescaleHeight': False, 'trialN': 54, 'loaded': True, 'loadedTime': 47439.799999952316, 'positionName': 'LEFT', 'positionCoords': [510.6, 334.5], 'bid': 7.43}, {'imgObject': {}, 'id': 'cherries', 'src': '/static/foodstim60/cherries.jpg', 'key': 'i', 'origWidth': 410, 'origHeight': 411, 'width': 410, 'height': 411, 'widthPercent': 0.45, 'rescaleHeight': False, 'trialN': 54, 'loaded': True, 'loadedTime': 47210.09999990463, 'positionName': 'RIGHT', 'positionCoords': [998.4, 334.5], 'bid': 7.65}]",111415.29999995232,1669830413988,rigatoni,cherries,7.43,7.65,0.22000000000000064,rigatoni,713.1000000238419,713,713.2000000476837,True,u,112647.29999995232,1232.0,1669830415219,1231,HRV,HRV_0140,2022-11-30 17:49:49
55,"[{'imgObject': {}, 'id': 'rigatoni', 'src': '/static/foodstim60/rigatoni.jpg', 'key': 'u', 'origWidth': 411, 'origHeight': 411, 'width': 411, 'height': 411, 'widthPercent': 0.45, 'rescaleHeight': False, 'trialN': 55, 'loaded': True, 'loadedTime': 47440.89999997616, 'positionName': 'LEFT', 'positionCoords': [510.6, 334.5], 'bid': 7.43}, {'imgObject': {}, 'id': 'baked potato', 'src': '/static/foodstim60/baked potato.jpg', 'key': 'i', 'origWidth': 409, 'origHeight': 410, 'width': 409, 'height': 410, 'widthPercent': 0.45, 'rescaleHeight': False, 'trialN': 55, 'loaded': True, 'loadedTime': 46970.89999997616, 'positionName': 'RIGHT', 'positionCoords': [998.4, 335], 'bid': 7.86}]",112647.5,1669830415220,rigatoni,baked potato,7.43,7.86,0.4300000000000006,baked potato,369.5,370,369.89999997615814,True,i,113535.59999990463,888.0999999046326,1669830416108,888,HRV,HRV_0140,2022-11-30 17:49:49
56,"[{'imgObject': {}, 'id': 'blueberries', 'src': '/static/foodstim60/blueberries.jpg', 'key': 'u', 'origWidth': 411, 'origHeight': 411, 'width': 411, 'height': 411, 'widthPercent': 0.45, 'rescaleHeight': False, 'trialN': 56, 'loaded': True, 'loadedTime': 47389.699999928474, 'positionName': 'LEFT', 'positionCoords': [510.6, 334.5], 'bid': 8.64}, {'imgObject': {}, 'id': 'burger', 'src': '/static/foodstim60/burger.jpg', 'key': 'i', 'origWidth': 409, 'origHeight': 409, 'width': 409, 'height': 409, 'widthPercent': 0.45, 'rescaleHeight': False, 'trialN': 56, 'loaded': True, 'loadedTime': 46961.59999990463, 'positionName': 'RIGHT', 'positionCoords': [998.4, 335.5], 'bid': 8.4}]",113535.69999992847,1669830416108,blueberries,burger,8.64,8.4,-0.2400000000000002,burger,1032.8999999761581,1033,1033.2000000476837,True,i,115073.39999997616,1537.7000000476837,1669830417646,1538,HRV,HRV_0140,2022-11-30 17:49:49
57,"[{'imgObject': {}, 'id': 'blueberries', 'src': '/static/foodstim60/blueberries.jpg', 'key': 'u', 'origWidth': 411, 'origHeight': 411, 'width': 411, 'height': 411, 'widthPercent': 0.45, 'rescaleHeight': False, 'trialN': 57, 'loaded': True, 'loadedTime': 47389.89999997616, 'positionName': 'LEFT', 'positionCoords': [510.6, 334.5], 'bid': 8.64}, {'imgObject': {}, 'id': 'seaweed', 'src': '/static/foodstim60/seaweed.jpg', 'key': 'i', 'origWidth': 410, 'origHeight': 410, 'width': 410, 'height': 410, 'widthPercent': 0.45, 'rescaleHeight': False, 'trialN': 57, 'loaded': True, 'loadedTime': 47092.89999997616, 'positionName': 'RIGHT', 'positionCoords': [998.4, 335], 'bid': 8.2}]",115073.5,1669830417646,blueberries,seaweed,8.64,8.2,-0.4400000000000013,seaweed,447.0,447,447.1999999284744,True,i,116039.69999992847,966.1999999284744,1669830418612,966,HRV,HRV_0140,2022-11-30 17:49:49
58,"[{'imgObject': {}, 'id': 'hashbrowns', 'src': '/static/foodstim60/hashbrowns.jpg', 'key': 'u', 'origWidth': 411, 'origHeight': 410, 'width': 411, 'height': 410, 'widthPercent': 0.45, 'rescaleHeight': False, 'trialN': 58, 'loaded': True, 'loadedTime': 47361.5, 'positionName': 'LEFT', 'positionCoords': [510.6, 335], 'bid': 8.51}, {'imgObject': {}, 'id': 'veggieswithdip', 'src': '/static/foodstim60/veggieswithdip.jpg', 'key': 'i', 'origWidth': 409, 'origHeight': 409, 'width': 409, 'height': 409, 'widthPercent': 0.45, 'rescaleHeight': False, 'trialN': 58, 'loaded': True, 'loadedTime': 46987.5, 'positionName': 'RIGHT', 'positionCoords': [998.4, 335.5], 'bid': 7.930000000000001}]",116039.89999997616,1669830418612,hashbrowns,veggieswithdip,8.51,7.930000000000001,-0.5799999999999992,hashbrowns,664.7999999523163,665,665.1999999284744,True,u,117220.39999997616,1180.5,1669830419793,1181,HRV,HRV_0140,2022-11-30 17:49:49
59,"[{'imgObject': {}, 'id': 'eggsalad', 'src': '/static/foodstim60/eggsalad.jpg', 'key': 'u', 'origWidth': 410, 'origHeight': 409, 'width': 410, 'height': 409, 'widthPercent': 0.45, 'rescaleHeight': False, 'trialN': 59, 'loaded': True, 'loadedTime': 47078.59999990463, 'positionName': 'LEFT', 'positionCoords': [511.6, 335.5], 'bid': 8.19}, {'imgObject': {}, 'id': 'raspberries', 'src': '/static/foodstim60/raspberries.jpg', 'key': 'i', 'origWidth': 411, 'origHeight': 411, 'width': 411, 'height': 411, 'widthPercent': 0.45, 'rescaleHeight': False, 'trialN': 59, 'loaded': True, 'loadedTime': 47429.799999952316, 'positionName': 'RIGHT', 'positionCoords': [998.4, 334.5], 'bid': 7.46}]",117220.5,1669830419793,eggsalad,raspberries,8.19,7.46,-0.7299999999999995,raspberries,564.0999999046326,564,564.5,True,i,118303.39999997616,1082.8999999761581,1669830420876,1083,HRV,HRV_0140,2022-11-30 17:49:49
60,"[{'imgObject': {}, 'id': 'Tribe humus pita', 'src': '/static/foodstim60/Tribe humus pita.jpg', 'key': 'u', 'origWidth': 411, 'origHeight': 411, 'width': 411, 'height': 411, 'widthPercent': 0.45, 'rescaleHeight': False, 'trialN': 60, 'loaded': True, 'loadedTime': 47317.799999952316, 'positionName': 'LEFT', 'positionCoords': [510.6, 334.5], 'bid': 2.89}, {'imgObject': {}, 'id': 'cheerios', 'src': '/static/foodstim60/cheerios.jpg', 'key': 'i', 'origWidth': 409, 'origHeight': 410, 'width': 409, 'height': 410, 'widthPercent': 0.45, 'rescaleHeight': False, 'trialN': 60, 'loaded': True, 'loadedTime': 47292.59999990463, 'positionName': 'RIGHT', 'positionCoords': [998.4, 335], 'bid': 7.930000000000001}]",118303.5,1669830420876,Tribe humus pita,cheerios,2.89,7.930000000000001,5.040000000000001,cheerios,641.2999999523163,641,641.5999999046326,True,i,119457.09999990463,1153.5999999046326,1669830422029,1153,HRV,HRV_0140,2022-11-30 17:49:49
61,"[{'imgObject': {}, 'id': 'burger', 'src': '/static/foodstim60/burger.jpg', 'key': 'u', 'origWidth': 409, 'origHeight': 409, 'width': 409, 'height': 409, 'widthPercent': 0.45, 'rescaleHeight': False, 'trialN': 61, 'loaded': True, 'loadedTime': 46951.89999997616, 'positionName': 'LEFT', 'positionCoords': [512.6, 335.5], 'bid': 8.4}, {'imgObject': {}, 'id': 'turkeysandwich', 'src': '/static/foodstim60/turkeysandwich.jpg', 'key': 'i', 'origWidth': 409, 'origHeight': 409, 'width': 409, 'height': 409, 'widthPercent': 0.45, 'rescaleHeight': False, 'trialN': 61, 'loaded': True, 'loadedTime': 47200, 'positionName': 'RIGHT', 'positionCoords': [998.4, 335.5], 'bid': 8.290000000000001}]",119457.29999995232,1669830422029,burger,turkeysandwich,8.4,8.290000000000001,-0.10999999999999943,burger,567.2999999523163,568,567.5,True,u,120534.0,1076.7000000476837,1669830423106,1077,HRV,HRV_0140,2022-11-30 17:49:49
62,"[{'imgObject': {}, 'id': 'luckycharms', 'src': '/static/foodstim60/luckycharms.jpg', 'key': 'u', 'origWidth': 410, 'origHeight': 409, 'width': 410, 'height': 409, 'widthPercent': 0.45, 'rescaleHeight': False, 'trialN': 62, 'loaded': True, 'loadedTime': 47222.59999990463, 'positionName': 'LEFT', 'positionCoords': [511.6, 335.5], 'bid': 7.11}, {'imgObject': {}, 'id': 'raisin bran w milk', 'src': '/static/foodstim60/raisin bran w milk.jpg', 'key': 'i', 'origWidth': 411, 'origHeight': 411, 'width': 411, 'height': 411, 'widthPercent': 0.45, 'rescaleHeight': False, 'trialN': 62, 'loaded': True, 'loadedTime': 47398.59999990463, 'positionName': 'RIGHT', 'positionCoords': [998.4, 334.5], 'bid': 8.44}]",120534.09999990463,1669830423106,luckycharms,raisin bran w milk,7.11,8.44,1.3299999999999992,raisin bran w milk,602.2000000476837,603,602.4000000953674,True,i,121649.5,1115.4000000953674,1669830424222,1116,HRV,HRV_0140,2022-11-30 17:49:49
63,"[{'imgObject': {}, 'id': 'veggieswithdip', 'src': '/static/foodstim60/veggieswithdip.jpg', 'key': 'u', 'origWidth': 409, 'origHeight': 409, 'width': 409, 'height': 409, 'widthPercent': 0.45, 'rescaleHeight': False, 'trialN': 63, 'loaded': True, 'loadedTime': 46987.299999952316, 'positionName': 'LEFT', 'positionCoords': [512.6, 335.5], 'bid': 7.930000000000001}, {'imgObject': {}, 'id': 'tacos', 'src': '/static/foodstim60/tacos.jpg', 'key': 'i', 'origWidth': 411, 'origHeight': 411, 'width': 411, 'height': 411, 'widthPercent': 0.45, 'rescaleHeight': False, 'trialN': 63, 'loaded': True, 'loadedTime': 47453.59999990463, 'positionName': 'RIGHT', 'positionCoords': [998.4, 334.5], 'bid': 7.930000000000001}]",121649.59999990463,1669830424222,veggieswithdip,tacos,7.930000000000001,7.930000000000001,0.0,veggieswithdip,806.9000000953674,807,807.3000000715256,True,u,122974.5,1324.9000000953674,1669830425547,1325,HRV,HRV_0140,2022-11-30 17:49:49
64,"[{'imgObject': {}, 'id': 'Grapes', 'src': '/static/foodstim60/Grapes.jpg', 'key': 'u', 'origWidth': 411, 'origHeight': 411, 'width': 411, 'height': 411, 'widthPercent': 0.45, 'rescaleHeight': False, 'trialN': 64, 'loaded': True, 'loadedTime': 47335.699999928474, 'positionName': 'LEFT', 'positionCoords': [510.6, 334.5], 'bid': 6.98}, {'imgObject': {}, 'id': 'cantaloupe', 'src': '/static/foodstim60/cantaloupe.jpg', 'key': 'i', 'origWidth': 409, 'origHeight': 409, 'width': 409, 'height': 409, 'widthPercent': 0.45, 'rescaleHeight': False, 'trialN': 64, 'loaded': True, 'loadedTime': 46936, 'positionName': 'RIGHT', 'positionCoords': [998.4, 335.5], 'bid': 2.35}]",122974.59999990463,1669830425547,Grapes,cantaloupe,6.98,2.35,-4.630000000000001,cantaloupe,1194.4000000953674,1195,1194.8000000715256,True,i,124680.29999995232,1705.7000000476837,1669830427252,1705,HRV,HRV_0140,2022-11-30 17:49:49
65,"[{'imgObject': {}, 'id': 'popsicles', 'src': '/static/foodstim60/popsicles.jpg', 'key': 'u', 'origWidth': 410, 'origHeight': 410, 'width': 410, 'height': 410, 'widthPercent': 0.45, 'rescaleHeight': False, 'trialN': 65, 'loaded': True, 'loadedTime': 47464.59999990463, 'positionName': 'LEFT', 'positionCoords': [511.6, 335], 'bid': 1.57}, {'imgObject': {}, 'id': 'grilled chicken strips', 'src': '/static/foodstim60/grilled chicken strips.jpg', 'key': 'i', 'origWidth': 410, 'origHeight': 411, 'width': 410, 'height': 411, 'widthPercent': 0.45, 'rescaleHeight': False, 'trialN': 65, 'loaded': True, 'loadedTime': 47468.5, 'positionName': 'RIGHT', 'positionCoords': [998.4, 334.5], 'bid': 5.88}]",124680.29999995232,1669830427253,popsicles,grilled chicken strips,1.57,5.88,4.31,grilled chicken strips,392.7000000476837,392,393.0,True,i,125588.29999995232,908.0,1669830428161,908,HRV,HRV_0140,2022-11-30 17:49:49
66,"[{'imgObject': {}, 'id': 'tacos', 'src': '/static/foodstim60/tacos.jpg', 'key': 'u', 'origWidth': 411, 'origHeight': 411, 'width': 411, 'height': 411, 'widthPercent': 0.45, 'rescaleHeight': False, 'trialN': 66, 'loaded': True, 'loadedTime': 47464.199999928474, 'positionName': 'LEFT', 'positionCoords': [510.6, 334.5], 'bid': 7.930000000000001}, {'imgObject': {}, 'id': 'cheerios', 'src': '/static/foodstim60/cheerios.jpg', 'key': 'i', 'origWidth': 409, 'origHeight': 410, 'width': 409, 'height': 410, 'widthPercent': 0.45, 'rescaleHeight': False, 'trialN': 66, 'loaded': True, 'loadedTime': 47299.299999952316, 'positionName': 'RIGHT', 'positionCoords': [998.4, 335], 'bid': 7.930000000000001}]",125588.39999997616,1669830428161,tacos,cheerios,7.930000000000001,7.930000000000001,0.0,tacos,619.8999999761581,620,620.0,True,u,126710.89999997616,1122.5,1669830429283,1122,HRV,HRV_0140,2022-11-30 17:49:49
67,"[{'imgObject': {}, 'id': 'froot loops w milk', 'src': '/static/foodstim60/froot loops w milk.jpg', 'key': 'u', 'origWidth': 410, 'origHeight': 410, 'width': 410, 'height': 410, 'widthPercent': 0.45, 'rescaleHeight': False, 'trialN': 67, 'loaded': True, 'loadedTime': 47409, 'positionName': 'LEFT', 'positionCoords': [511.6, 335], 'bid': 1.82}, {'imgObject': {}, 'id': 'lox', 'src': '/static/foodstim60/lox.jpg', 'key': 'i', 'origWidth': 410, 'origHeight': 411, 'width': 410, 'height': 411, 'widthPercent': 0.45, 'rescaleHeight': False, 'trialN': 67, 'loaded': True, 'loadedTime': 47407.299999952316, 'positionName': 'RIGHT', 'positionCoords': [998.4, 334.5], 'bid': 1.79}]",126711.0,1669830429283,froot loops w milk,lox,1.82,1.79,-0.030000000000000027,lox,665.6999999284744,666,665.8999999761581,True,i,127883.5,1172.5,1669830430456,1173,HRV,HRV_0140,2022-11-30 17:49:49
68,"[{'imgObject': {}, 'id': 'grilled chicken strips', 'src': '/static/foodstim60/grilled chicken strips.jpg', 'key': 'u', 'origWidth': 410, 'origHeight': 411, 'width': 410, 'height': 411, 'widthPercent': 0.45, 'rescaleHeight': False, 'trialN': 68, 'loaded': True, 'loadedTime': 47468.799999952316, 'positionName': 'LEFT', 'positionCoords': [511.6, 334.5], 'bid': 5.88}, {'imgObject': {}, 'id': 'banana', 'src': '/static/foodstim60/banana.jpg', 'key': 'i', 'origWidth': 410, 'origHeight': 410, 'width': 410, 'height': 410, 'widthPercent': 0.45, 'rescaleHeight': False, 'trialN': 68, 'loaded': True, 'loadedTime': 47009.59999990463, 'positionName': 'RIGHT', 'positionCoords': [998.4, 335], 'bid': 7.0600000000000005}]",127883.69999992847,1669830430456,grilled chicken strips,banana,5.88,7.0600000000000005,1.1800000000000006,grilled chicken strips,741.5,742,741.8999999761581,True,u,129129.19999992847,1245.5,1669830431701,1245,HRV,HRV_0140,2022-11-30 17:49:49
69,"[{'imgObject': {}, 'id': 'ice cream sundae 002', 'src': '/static/foodstim60/ice cream sundae 002.jpg', 'key': 'u', 'origWidth': 409, 'origHeight': 409, 'width': 409, 'height': 409, 'widthPercent': 0.45, 'rescaleHeight': False, 'trialN': 69, 'loaded': True, 'loadedTime': 47418.89999997616, 'positionName': 'LEFT', 'positionCoords': [512.6, 335.5], 'bid': 3.2}, {'imgObject': {}, 'id': 'fruitsalad', 'src': '/static/foodstim60/fruitsalad.jpg', 'key': 'i', 'origWidth': 410, 'origHeight': 410, 'width': 410, 'height': 410, 'widthPercent': 0.45, 'rescaleHeight': False, 'trialN': 69, 'loaded': True, 'loadedTime': 47174.09999990463, 'positionName': 'RIGHT', 'positionCoords': [998.4, 335], 'bid': 3.78}]",129129.29999995232,1669830431701,ice cream sundae 002,fruitsalad,3.2,3.78,0.5799999999999996,fruitsalad,583.3999999761581,584,583.7999999523163,True,i,130223.79999995232,1094.5,1669830432796,1095,HRV,HRV_0140,2022-11-30 17:49:49
70,"[{'imgObject': {}, 'id': 'apple slices', 'src': '/static/foodstim60/apple slices.jpg', 'key': 'u', 'origWidth': 409, 'origHeight': 410, 'width': 409, 'height': 410, 'widthPercent': 0.45, 'rescaleHeight': False, 'trialN': 70, 'loaded': True, 'loadedTime': 47308.39999997616, 'positionName': 'LEFT', 'positionCoords': [512.6, 335], 'bid': 6.12}, {'imgObject': {}, 'id': 'seaweed', 'src': '/static/foodstim60/seaweed.jpg', 'key': 'i', 'origWidth': 410, 'origHeight': 410, 'width': 410, 'height': 410, 'widthPercent': 0.45, 'rescaleHeight': False, 'trialN': 70, 'loaded': True, 'loadedTime': 47102.5, 'positionName': 'RIGHT', 'positionCoords': [998.4, 335], 'bid': 8.2}]",130224.0,1669830432796,apple slices,seaweed,6.12,8.2,2.079999999999999,seaweed,1096.5999999046326,1097,1096.7999999523163,True,i,131833.19999992847,1609.1999999284744,1669830434405,1609,HRV,HRV_0140,2022-11-30 17:49:49
71,"[{'imgObject': {}, 'id': 'salad w chicken', 'src': '/static/foodstim60/salad w chicken.jpg', 'key': 'u', 'origWidth': 411, 'origHeight': 411, 'width': 411, 'height': 411, 'widthPercent': 0.45, 'rescaleHeight': False, 'trialN': 71, 'loaded': True, 'loadedTime': 47183.199999928474, 'positionName': 'LEFT', 'positionCoords': [510.6, 334.5], 'bid': 7.77}, {'imgObject': {}, 'id': 'steak', 'src': '/static/foodstim60/steak.jpg', 'key': 'i', 'origWidth': 410, 'origHeight': 410, 'width': 410, 'height': 410, 'widthPercent': 0.45, 'rescaleHeight': False, 'trialN': 71, 'loaded': True, 'loadedTime': 47429.89999997616, 'positionName': 'RIGHT', 'positionCoords': [998.4, 335], 'bid': 7.27}]",131833.39999997616,1669830434406,salad w chicken,steak,7.77,7.27,-0.5,salad w chicken,582.8999999761581,583,583.1000000238419,True,u,132921.89999997616,1088.5,1669830435494,1088,HRV,HRV_0140,2022-11-30 17:49:49
72,"[{'imgObject': {}, 'id': 'corn cob', 'src': '/static/foodstim60/corn cob.jpg', 'key': 'u', 'origWidth': 411, 'origHeight': 411, 'width': 411, 'height': 411, 'widthPercent': 0.45, 'rescaleHeight': False, 'trialN': 72, 'loaded': True, 'loadedTime': 47452.199999928474, 'positionName': 'LEFT', 'positionCoords': [510.6, 334.5], 'bid': 2.82}, {'imgObject': {}, 'id': 'cantaloupe', 'src': '/static/foodstim60/cantaloupe.jpg', 'key': 'i', 'origWidth': 409, 'origHeight': 409, 'width': 409, 'height': 409, 'widthPercent': 0.45, 'rescaleHeight': False, 'trialN': 72, 'loaded': True, 'loadedTime': 46934.09999990463, 'positionName': 'RIGHT', 'positionCoords': [998.4, 335.5], 'bid': 2.35}]",132922.0,1669830435494,corn cob,cantaloupe,2.82,2.35,-0.46999999999999975,cantaloupe,583.0,583,583.1999999284744,True,i,134017.59999990463,1095.5999999046326,1669830436590,1096,HRV,HRV_0140,2022-11-30 17:49:49
73,"[{'imgObject': {}, 'id': 'roastedpotatoes', 'src': '/static/foodstim60/roastedpotatoes.jpg', 'key': 'u', 'origWidth': 409, 'origHeight': 410, 'width': 409, 'height': 410, 'widthPercent': 0.45, 'rescaleHeight': False, 'trialN': 73, 'loaded': True, 'loadedTime': 47139.699999928474, 'positionName': 'LEFT', 'positionCoords': [512.6, 335], 'bid': 6.8100000000000005}, {'imgObject': {}, 'id': 'turkeysandwich', 'src': '/static/foodstim60/turkeysandwich.jpg', 'key': 'i', 'origWidth': 409, 'origHeight': 409, 'width': 409, 'height': 409, 'widthPercent': 0.45, 'rescaleHeight': False, 'trialN': 73, 'loaded': True, 'loadedTime': 47199.699999928474, 'positionName': 'RIGHT', 'positionCoords': [998.4, 335.5], 'bid': 8.290000000000001}]",134017.79999995232,1669830436590,roastedpotatoes,turkeysandwich,6.8100000000000005,8.290000000000001,1.4800000000000004,roastedpotatoes,543.2999999523163,544,543.7999999523163,True,u,135079.19999992847,1061.3999999761581,1669830437651,1061,HRV,HRV_0140,2022-11-30 17:49:49
74,"[{'imgObject': {}, 'id': 'tacos', 'src': '/static/foodstim60/tacos.jpg', 'key': 'u', 'origWidth': 411, 'origHeight': 411, 'width': 411, 'height': 411, 'widthPercent': 0.45, 'rescaleHeight': False, 'trialN': 74, 'loaded': True, 'loadedTime': 47452.5, 'positionName': 'LEFT', 'positionCoords': [510.6, 334.5], 'bid': 7.930000000000001}, {'imgObject': {}, 'id': 'rigatoni', 'src': '/static/foodstim60/rigatoni.jpg', 'key': 'i', 'origWidth': 411, 'origHeight': 411, 'width': 411, 'height': 411, 'widthPercent': 0.45, 'rescaleHeight': False, 'trialN': 74, 'loaded': True, 'loadedTime': 47440.699999928474, 'positionName': 'RIGHT', 'positionCoords': [998.4, 334.5], 'bid': 7.43}]",135079.29999995232,1669830437651,tacos,rigatoni,7.930000000000001,7.43,-0.5000000000000009,tacos,721.2000000476837,722,721.5,True,u,136308.39999997616,1229.1000000238419,1669830438881,1230,HRV,HRV_0140,2022-11-30 17:49:49
75,"[{'imgObject': {}, 'id': 'bagel and cc', 'src': '/static/foodstim60/bagel and cc.jpg', 'key': 'u', 'origWidth': 410, 'origHeight': 410, 'width': 410, 'height': 410, 'widthPercent': 0.45, 'rescaleHeight': False, 'trialN': 75, 'loaded': True, 'loadedTime': 47269, 'positionName': 'LEFT', 'positionCoords': [511.6, 335], 'bid': 7.22}, {'imgObject': {}, 'id': 'fruitsalad', 'src': '/static/foodstim60/fruitsalad.jpg', 'key': 'i', 'origWidth': 410, 'origHeight': 410, 'width': 410, 'height': 410, 'widthPercent': 0.45, 'rescaleHeight': False, 'trialN': 75, 'loaded': True, 'loadedTime': 47180.89999997616, 'positionName': 'RIGHT', 'positionCoords': [998.4, 335], 'bid': 3.78}]",136308.59999990463,1669830438881,bagel and cc,fruitsalad,7.22,3.78,-3.44,bagel and cc,1307.8000000715256,1308,1308.1000000238419,True,u,138129.89999997616,1821.3000000715256,1669830440702,1821,HRV,HRV_0140,2022-11-30 17:49:49
76,"[{'imgObject': {}, 'id': 'banana', 'src': '/static/foodstim60/banana.jpg', 'key': 'u', 'origWidth': 410, 'origHeight': 410, 'width': 410, 'height': 410, 'widthPercent': 0.45, 'rescaleHeight': False, 'trialN': 76, 'loaded': True, 'loadedTime': 47015.5, 'positionName': 'LEFT', 'positionCoords': [511.6, 335], 'bid': 7.0600000000000005}, {'imgObject': {}, 'id': 'burrito', 'src': '/static/foodstim60/burrito.jpg', 'key': 'i', 'origWidth': 410, 'origHeight': 410, 'width': 410, 'height': 410, 'widthPercent': 0.45, 'rescaleHeight': False, 'trialN': 76, 'loaded': True, 'loadedTime': 47439.699999928474, 'positionName': 'RIGHT', 'positionCoords': [998.4, 335], 'bid': 7.0600000000000005}]",138130.09999990463,1669830440702,banana,burrito,7.0600000000000005,7.0600000000000005,0.0,banana,798.5,799,798.7000000476837,True,u,139438.0,1307.9000000953674,1669830442010,1308,HRV,HRV_0140,2022-11-30 17:49:49
77,"[{'imgObject': {}, 'id': 'grilled chicken strips', 'src': '/static/foodstim60/grilled chicken strips.jpg', 'key': 'u', 'origWidth': 410, 'origHeight': 411, 'width': 410, 'height': 411, 'widthPercent': 0.45, 'rescaleHeight': False, 'trialN': 77, 'loaded': True, 'loadedTime': 47469, 'positionName': 'LEFT', 'positionCoords': [511.6, 334.5], 'bid': 5.88}, {'imgObject': {}, 'id': 'granola w milk', 'src': '/static/foodstim60/granola w milk.jpg', 'key': 'i', 'origWidth': 410, 'origHeight': 410, 'width': 410, 'height': 410, 'widthPercent': 0.45, 'rescaleHeight': False, 'trialN': 77, 'loaded': True, 'loadedTime': 47478.09999990463, 'positionName': 'RIGHT', 'positionCoords': [998.4, 335], 'bid': 5.76}]",139438.29999995232,1669830442010,grilled chicken strips,granola w milk,5.88,5.76,-0.1200000000000001,grilled chicken strips,810.3999999761581,811,810.7999999523163,True,u,140755.39999997616,1317.1000000238419,1669830443328,1318,HRV,HRV_0140,2022-11-30 17:49:49
78,"[{'imgObject': {}, 'id': 'shreddedwheatwithmilk', 'src': '/static/foodstim60/shreddedwheatwithmilk.jpg', 'key': 'u', 'origWidth': 410, 'origHeight': 410, 'width': 410, 'height': 410, 'widthPercent': 0.45, 'rescaleHeight': False, 'trialN': 78, 'loaded': True, 'loadedTime': 47369, 'positionName': 'LEFT', 'positionCoords': [511.6, 335], 'bid': 2.75}, {'imgObject': {}, 'id': 'baked potato', 'src': '/static/foodstim60/baked potato.jpg', 'key': 'i', 'origWidth': 409, 'origHeight': 410, 'width': 409, 'height': 410, 'widthPercent': 0.45, 'rescaleHeight': False, 'trialN': 78, 'loaded': True, 'loadedTime': 46977.799999952316, 'positionName': 'RIGHT', 'positionCoords': [998.4, 335], 'bid': 7.86}]",140755.59999990463,1669830443328,shreddedwheatwithmilk,baked potato,2.75,7.86,5.11,shreddedwheatwithmilk,1085.9000000953674,1086,1086.1000000238419,True,u,142348.5,1592.9000000953674,1669830444921,1593,HRV,HRV_0140,2022-11-30 17:49:49
79,"[{'imgObject': {}, 'id': 'froot loops w milk', 'src': '/static/foodstim60/froot loops w milk.jpg', 'key': 'u', 'origWidth': 410, 'origHeight': 410, 'width': 410, 'height': 410, 'widthPercent': 0.45, 'rescaleHeight': False, 'trialN': 79, 'loaded': True, 'loadedTime': 47409, 'positionName': 'LEFT', 'positionCoords': [511.6, 335], 'bid': 1.82}, {'imgObject': {}, 'id': 'ice cream sundae 002', 'src': '/static/foodstim60/ice cream sundae 002.jpg', 'key': 'i', 'origWidth': 409, 'origHeight': 409, 'width': 409, 'height': 409, 'widthPercent': 0.45, 'rescaleHeight': False, 'trialN': 79, 'loaded': True, 'loadedTime': 47417.39999997616, 'positionName': 'RIGHT', 'positionCoords': [998.4, 335.5], 'bid': 3.2}]",142348.69999992847,1669830444921,froot loops w milk,ice cream sundae 002,1.82,3.2,1.3800000000000001,ice cream sundae 002,851.8999999761581,852,852.1000000238419,True,i,143720.69999992847,1372.0,1669830446293,1372,HRV,HRV_0140,2022-11-30 17:49:49
80,"[{'imgObject': {}, 'id': 'omelette', 'src': '/static/foodstim60/omelette.jpg', 'key': 'u', 'origWidth': 410, 'origHeight': 409, 'width': 410, 'height': 409, 'widthPercent': 0.45, 'rescaleHeight': False, 'trialN': 80, 'loaded': True, 'loadedTime': 47380.299999952316, 'positionName': 'LEFT', 'positionCoords': [511.6, 335.5], 'bid': 9.26}, {'imgObject': {}, 'id': 'cherry tomato', 'src': '/static/foodstim60/cherry tomato.jpg', 'key': 'i', 'origWidth': 410, 'origHeight': 410, 'width': 410, 'height': 410, 'widthPercent': 0.45, 'rescaleHeight': False, 'trialN': 80, 'loaded': True, 'loadedTime': 47480.39999997616, 'positionName': 'RIGHT', 'positionCoords': [998.4, 335], 'bid': 8.39}]",143720.89999997616,1669830446293,omelette,cherry tomato,9.26,8.39,-0.8699999999999992,omelette,519.6000000238419,520,519.6999999284744,True,u,144748.39999997616,1027.5,1669830447321,1028,HRV,HRV_0140,2022-11-30 17:49:49
81,"[{'imgObject': {}, 'id': 'raspberries', 'src': '/static/foodstim60/raspberries.jpg', 'key': 'u', 'origWidth': 411, 'origHeight': 411, 'width': 411, 'height': 411, 'widthPercent': 0.45, 'rescaleHeight': False, 'trialN': 81, 'loaded': True, 'loadedTime': 47429, 'positionName': 'LEFT', 'positionCoords': [510.6, 334.5], 'bid': 7.46}, {'imgObject': {}, 'id': 'popsicles', 'src': '/static/foodstim60/popsicles.jpg', 'key': 'i', 'origWidth': 410, 'origHeight': 410, 'width': 410, 'height': 410, 'widthPercent': 0.45, 'rescaleHeight': False, 'trialN': 81, 'loaded': True, 'loadedTime': 47466.699999928474, 'positionName': 'RIGHT', 'positionCoords': [998.4, 335], 'bid': 1.57}]",144748.69999992847,1669830447321,raspberries,popsicles,7.46,1.57,-5.89,raspberries,1507.7000000476837,1508,1507.8999999761581,True,u,146765.89999997616,2017.2000000476837,1669830449338,2017,HRV,HRV_0140,2022-11-30 17:49:49
82,"[{'imgObject': {}, 'id': 'roastedpotatoes', 'src': '/static/foodstim60/roastedpotatoes.jpg', 'key': 'u', 'origWidth': 409, 'origHeight': 410, 'width': 409, 'height': 410, 'widthPercent': 0.45, 'rescaleHeight': False, 'trialN': 82, 'loaded': True, 'loadedTime': 47131.799999952316, 'positionName': 'LEFT', 'positionCoords': [512.6, 335], 'bid': 6.8100000000000005}, {'imgObject': {}, 'id': 'cocktailshrimp', 'src': '/static/foodstim60/cocktailshrimp.jpg', 'key': 'i', 'origWidth': 410, 'origHeight': 410, 'width': 410, 'height': 410, 'widthPercent': 0.45, 'rescaleHeight': False, 'trialN': 82, 'loaded': True, 'loadedTime': 47483.299999952316, 'positionName': 'RIGHT', 'positionCoords': [998.4, 335], 'bid': 5.57}]",146766.0,1669830449338,roastedpotatoes,cocktailshrimp,6.8100000000000005,5.57,-1.2400000000000002,roastedpotatoes,442.89999997615814,443,443.09999990463257,True,u,147727.19999992847,961.1999999284744,1669830450299,961,HRV,HRV_0140,2022-11-30 17:49:49
83,"[{'imgObject': {}, 'id': 'mango', 'src': '/static/foodstim60/mango.jpg', 'key': 'u', 'origWidth': 411, 'origHeight': 411, 'width': 411, 'height': 411, 'widthPercent': 0.45, 'rescaleHeight': False, 'trialN': 83, 'loaded': True, 'loadedTime': 47229.39999997616, 'positionName': 'LEFT', 'positionCoords': [510.6, 334.5], 'bid': 7.82}, {'imgObject': {}, 'id': 'sushi w_condiments', 'src': '/static/foodstim60/sushi w_condiments.jpg', 'key': 'i', 'origWidth': 410, 'origHeight': 410, 'width': 410, 'height': 410, 'widthPercent': 0.45, 'rescaleHeight': False, 'trialN': 83, 'loaded': True, 'loadedTime': 47001.699999928474, 'positionName': 'RIGHT', 'positionCoords': [998.4, 335], 'bid': 7.35}]",147727.39999997616,1669830450300,mango,sushi w_condiments,7.82,7.35,-0.47000000000000064,mango,697.1000000238419,697,697.3999999761581,True,u,148940.89999997616,1213.5,1669830451513,1213,HRV,HRV_0140,2022-11-30 17:49:49
84,"[{'imgObject': {}, 'id': 'rigatoni', 'src': '/static/foodstim60/rigatoni.jpg', 'key': 'u', 'origWidth': 411, 'origHeight': 411, 'width': 411, 'height': 411, 'widthPercent': 0.45, 'rescaleHeight': False, 'trialN': 84, 'loaded': True, 'loadedTime': 47441, 'positionName': 'LEFT', 'positionCoords': [510.6, 334.5], 'bid': 7.43}, {'imgObject': {}, 'id': 'pear', 'src': '/static/foodstim60/pear.jpg', 'key': 'i', 'origWidth': 411, 'origHeight': 410, 'width': 411, 'height': 410, 'widthPercent': 0.45, 'rescaleHeight': False, 'trialN': 84, 'loaded': True, 'loadedTime': 47443.299999952316, 'positionName': 'RIGHT', 'positionCoords': [998.4, 335], 'bid': 5.82}]",148941.0,1669830451513,rigatoni,pear,7.43,5.82,-1.6099999999999994,rigatoni,355.89999997615814,356,356.1999999284744,True,u,149801.59999990463,860.5999999046326,1669830452374,861,HRV,HRV_0140,2022-11-30 17:49:49
85,"[{'imgObject': {}, 'id': 'granola w milk', 'src': '/static/foodstim60/granola w milk.jpg', 'key': 'u', 'origWidth': 410, 'origHeight': 410, 'width': 410, 'height': 410, 'widthPercent': 0.45, 'rescaleHeight': False, 'trialN': 85, 'loaded': True, 'loadedTime': 47470.39999997616, 'positionName': 'LEFT', 'positionCoords': [511.6, 335], 'bid': 5.76}, {'imgObject': {}, 'id': 'froot loops w milk', 'src': '/static/foodstim60/froot loops w milk.jpg', 'key': 'i', 'origWidth': 410, 'origHeight': 410, 'width': 410, 'height': 410, 'widthPercent': 0.45, 'rescaleHeight': False, 'trialN': 85, 'loaded': True, 'loadedTime': 47407.59999990463, 'positionName': 'RIGHT', 'positionCoords': [998.4, 335], 'bid': 1.82}]",149801.79999995232,1669830452374,granola w milk,froot loops w milk,5.76,1.82,-3.9399999999999995,granola w milk,1671.2000000476837,1672,1671.5,True,u,151977.69999992847,2175.899999976158,1669830454550,2176,HRV,HRV_0140,2022-11-30 17:49:49
86,"[{'imgObject': {}, 'id': 'cherries', 'src': '/static/foodstim60/cherries.jpg', 'key': 'u', 'origWidth': 410, 'origHeight': 411, 'width': 410, 'height': 411, 'widthPercent': 0.45, 'rescaleHeight': False, 'trialN': 86, 'loaded': True, 'loadedTime': 47210.799999952316, 'positionName': 'LEFT', 'positionCoords': [511.6, 334.5], 'bid': 7.65}, {'imgObject': {}, 'id': 'hotdog w must', 'src': '/static/foodstim60/hotdog w must.jpg', 'key': 'i', 'origWidth': 409, 'origHeight': 409, 'width': 409, 'height': 409, 'widthPercent': 0.45, 'rescaleHeight': False, 'trialN': 86, 'loaded': True, 'loadedTime': 47420, 'positionName': 'RIGHT', 'positionCoords': [998.4, 335.5], 'bid': 7.2}]",151977.79999995232,1669830454550,cherries,hotdog w must,7.65,7.2,-0.4500000000000002,hotdog w must,823.6000000238419,824,824.1000000238419,True,i,153305.69999992847,1327.8999999761581,1669830455878,1328,HRV,HRV_0140,2022-11-30 17:49:49
87,"[{'imgObject': {}, 'id': 'chickenfingers', 'src': '/static/foodstim60/chickenfingers.jpg', 'key': 'u', 'origWidth': 410, 'origHeight': 410, 'width': 410, 'height': 410, 'widthPercent': 0.45, 'rescaleHeight': False, 'trialN': 87, 'loaded': True, 'loadedTime': 47484.799999952316, 'positionName': 'LEFT', 'positionCoords': [511.6, 335], 'bid': 8.59}, {'imgObject': {}, 'id': 'edamame', 'src': '/static/foodstim60/edamame.jpg', 'key': 'i', 'origWidth': 409, 'origHeight': 410, 'width': 409, 'height': 410, 'widthPercent': 0.45, 'rescaleHeight': False, 'trialN': 87, 'loaded': True, 'loadedTime': 47064.5, 'positionName': 'RIGHT', 'positionCoords': [998.4, 335], 'bid': 8.64}]",153306.0,1669830455878,chickenfingers,edamame,8.59,8.64,0.05000000000000071,edamame,1478.6999999284744,1479,1478.7999999523163,True,i,155303.5,1997.5,1669830457876,1998,HRV,HRV_0140,2022-11-30 17:49:49
88,"[{'imgObject': {}, 'id': 'kiwi', 'src': '/static/foodstim60/kiwi.jpg', 'key': 'u', 'origWidth': 410, 'origHeight': 410, 'width': 410, 'height': 410, 'widthPercent': 0.45, 'rescaleHeight': False, 'trialN': 88, 'loaded': True, 'loadedTime': 47442.199999928474, 'positionName': 'LEFT', 'positionCoords': [511.6, 335], 'bid': 8.03}, {'imgObject': {}, 'id': 'turkey sandwich', 'src': '/static/foodstim60/turkey sandwich.jpg', 'key': 'i', 'origWidth': 409, 'origHeight': 409, 'width': 409, 'height': 409, 'widthPercent': 0.45, 'rescaleHeight': False, 'trialN': 88, 'loaded': True, 'loadedTime': 47390.09999990463, 'positionName': 'RIGHT', 'positionCoords': [998.4, 335.5], 'bid': 8.11}]",155303.69999992847,1669830457876,kiwi,turkey sandwich,8.03,8.11,0.08000000000000007,turkey sandwich,1736.8999999761581,1737,1737.1000000238419,True,i,157548.19999992847,2244.5,1669830460120,2244,HRV,HRV_0140,2022-11-30 17:49:49
89,"[{'imgObject': {}, 'id': 'strawberries', 'src': '/static/foodstim60/strawberries.jpg', 'key': 'u', 'origWidth': 410, 'origHeight': 410, 'width': 410, 'height': 410, 'widthPercent': 0.45, 'rescaleHeight': False, 'trialN': 89, 'loaded': True, 'loadedTime': 47239.799999952316, 'positionName': 'LEFT', 'positionCoords': [511.6, 335], 'bid': 7.18}, {'imgObject': {}, 'id': 'bagel and cc', 'src': '/static/foodstim60/bagel and cc.jpg', 'key': 'i', 'origWidth': 410, 'origHeight': 410, 'width': 410, 'height': 410, 'widthPercent': 0.45, 'rescaleHeight': False, 'trialN': 89, 'loaded': True, 'loadedTime': 47268.89999997616, 'positionName': 'RIGHT', 'positionCoords': [998.4, 335], 'bid': 7.22}]",157548.29999995232,1669830460120,strawberries,bagel and cc,7.18,7.22,0.040000000000000036,strawberries,820.2999999523163,821,820.5,True,u,158881.89999997616,1333.6000000238419,1669830461454,1334,HRV,HRV_0140,2022-11-30 17:49:49
90,"[{'imgObject': {}, 'id': 'eggsalad', 'src': '/static/foodstim60/eggsalad.jpg', 'key': 'u', 'origWidth': 410, 'origHeight': 409, 'width': 410, 'height': 409, 'widthPercent': 0.45, 'rescaleHeight': False, 'trialN': 90, 'loaded': True, 'loadedTime': 47085.5, 'positionName': 'LEFT', 'positionCoords': [511.6, 335.5], 'bid': 8.19}, {'imgObject': {}, 'id': 'tacos', 'src': '/static/foodstim60/tacos.jpg', 'key': 'i', 'origWidth': 411, 'origHeight': 411, 'width': 411, 'height': 411, 'widthPercent': 0.45, 'rescaleHeight': False, 'trialN': 90, 'loaded': True, 'loadedTime': 47453.699999928474, 'positionName': 'RIGHT', 'positionCoords': [998.4, 334.5], 'bid': 7.930000000000001}]",162291.39999997616,1669830464864,eggsalad,tacos,8.19,7.930000000000001,-0.2599999999999989,eggsalad,1661.3999999761581,1661,1661.5,True,u,164466.29999995232,2174.899999976158,1669830467038,2174,HRV,HRV_0140,2022-11-30 17:49:49
91,"[{'imgObject': {}, 'id': 'tacos', 'src': '/static/foodstim60/tacos.jpg', 'key': 'u', 'origWidth': 411, 'origHeight': 411, 'width': 411, 'height': 411, 'widthPercent': 0.45, 'rescaleHeight': False, 'trialN': 91, 'loaded': True, 'loadedTime': 47453.5, 'positionName': 'LEFT', 'positionCoords': [510.6, 334.5], 'bid': 7.930000000000001}, {'imgObject': {}, 'id': 'ice cream sundae 002', 'src': '/static/foodstim60/ice cream sundae 002.jpg', 'key': 'i', 'origWidth': 409, 'origHeight': 409, 'width': 409, 'height': 409, 'widthPercent': 0.45, 'rescaleHeight': False, 'trialN': 91, 'loaded': True, 'loadedTime': 47418.89999997616, 'positionName': 'RIGHT', 'positionCoords': [998.4, 335.5], 'bid': 3.2}]",164466.5,1669830467039,tacos,ice cream sundae 002,7.930000000000001,3.2,-4.73,tacos,782.5999999046326,783,782.8999999761581,True,u,165759.5,1293.0,1669830468332,1293,HRV,HRV_0140,2022-11-30 17:49:49
92,"[{'imgObject': {}, 'id': 'edamame', 'src': '/static/foodstim60/edamame.jpg', 'key': 'u', 'origWidth': 409, 'origHeight': 410, 'width': 409, 'height': 410, 'widthPercent': 0.45, 'rescaleHeight': False, 'trialN': 92, 'loaded': True, 'loadedTime': 47071.39999997616, 'positionName': 'LEFT', 'positionCoords': [512.6, 335], 'bid': 8.64}, {'imgObject': {}, 'id': 'cherry tomato', 'src': '/static/foodstim60/cherry tomato.jpg', 'key': 'i', 'origWidth': 410, 'origHeight': 410, 'width': 410, 'height': 410, 'widthPercent': 0.45, 'rescaleHeight': False, 'trialN': 92, 'loaded': True, 'loadedTime': 47480, 'positionName': 'RIGHT', 'positionCoords': [998.4, 335], 'bid': 8.39}]",165759.69999992847,1669830468332,edamame,cherry tomato,8.64,8.39,-0.25,cherry tomato,352.8000000715256,353,353.10000002384186,True,i,166626.59999990463,866.8999999761581,1669830469198,866,HRV,HRV_0140,2022-11-30 17:49:49
93,"[{'imgObject': {}, 'id': 'veggieswithdip', 'src': '/static/foodstim60/veggieswithdip.jpg', 'key': 'u', 'origWidth': 409, 'origHeight': 409, 'width': 409, 'height': 409, 'widthPercent': 0.45, 'rescaleHeight': False, 'trialN': 93, 'loaded': True, 'loadedTime': 46979.89999997616, 'positionName': 'LEFT', 'positionCoords': [512.6, 335.5], 'bid': 7.930000000000001}, {'imgObject': {}, 'id': 'olives', 'src': '/static/foodstim60/olives.jpg', 'key': 'i', 'origWidth': 410, 'origHeight': 410, 'width': 410, 'height': 410, 'widthPercent': 0.45, 'rescaleHeight': False, 'trialN': 93, 'loaded': True, 'loadedTime': 47156.799999952316, 'positionName': 'RIGHT', 'positionCoords': [998.4, 335], 'bid': 3.02}]",166626.69999992847,1669830469199,veggieswithdip,olives,7.930000000000001,3.02,-4.91,olives,694.1000000238419,694,694.3000000715256,True,i,167836.69999992847,1210.0,1669830470409,1210,HRV,HRV_0140,2022-11-30 17:49:49
94,"[{'imgObject': {}, 'id': 'sushi w_condiments', 'src': '/static/foodstim60/sushi w_condiments.jpg', 'key': 'u', 'origWidth': 410, 'origHeight': 410, 'width': 410, 'height': 410, 'widthPercent': 0.45, 'rescaleHeight': False, 'trialN': 94, 'loaded': True, 'loadedTime': 47001.09999990463, 'positionName': 'LEFT', 'positionCoords': [511.6, 335], 'bid': 7.35}, {'imgObject': {}, 'id': 'granola w milk', 'src': '/static/foodstim60/granola w milk.jpg', 'key': 'i', 'origWidth': 410, 'origHeight': 410, 'width': 410, 'height': 410, 'widthPercent': 0.45, 'rescaleHeight': False, 'trialN': 94, 'loaded': True, 'loadedTime': 47469.299999952316, 'positionName': 'RIGHT', 'positionCoords': [998.4, 335], 'bid': 5.76}]",167836.79999995232,1669830470409,sushi w_condiments,granola w milk,7.35,5.76,-1.5899999999999999,sushi w_condiments,755.7999999523163,756,756.1000000238419,True,u,169103.79999995232,1267.0,1669830471676,1267,HRV,HRV_0140,2022-11-30 17:49:49
95,"[{'imgObject': {}, 'id': 'orange slices', 'src': '/static/foodstim60/orange slices.jpg', 'key': 'u', 'origWidth': 409, 'origHeight': 410, 'width': 409, 'height': 410, 'widthPercent': 0.45, 'rescaleHeight': False, 'trialN': 95, 'loaded': True, 'loadedTime': 47063.89999997616, 'positionName': 'LEFT', 'positionCoords': [512.6, 335], 'bid': 8.4}, {'imgObject': {}, 'id': 'mashed potato', 'src': '/static/foodstim60/mashed potato.jpg', 'key': 'i', 'origWidth': 409, 'origHeight': 409, 'width': 409, 'height': 409, 'widthPercent': 0.45, 'rescaleHeight': False, 'trialN': 95, 'loaded': True, 'loadedTime': 47278.59999990463, 'positionName': 'RIGHT', 'positionCoords': [998.4, 335.5], 'bid': 7.87}]",169103.89999997616,1669830471676,orange slices,mashed potato,8.4,7.87,-0.5300000000000002,mashed potato,864.6999999284744,865,864.8999999761581,True,i,170486.5,1382.6000000238419,1669830473058,1382,HRV,HRV_0140,2022-11-30 17:49:49
96,"[{'imgObject': {}, 'id': 'omelette', 'src': '/static/foodstim60/omelette.jpg', 'key': 'u', 'origWidth': 410, 'origHeight': 409, 'width': 410, 'height': 409, 'widthPercent': 0.45, 'rescaleHeight': False, 'trialN': 96, 'loaded': True, 'loadedTime': 47380.699999928474, 'positionName': 'LEFT', 'positionCoords': [511.6, 335.5], 'bid': 9.26}, {'imgObject': {}, 'id': 'hashbrowns', 'src': '/static/foodstim60/hashbrowns.jpg', 'key': 'i', 'origWidth': 411, 'origHeight': 410, 'width': 411, 'height': 410, 'widthPercent': 0.45, 'rescaleHeight': False, 'trialN': 96, 'loaded': True, 'loadedTime': 47361.09999990463, 'positionName': 'RIGHT', 'positionCoords': [998.4, 335], 'bid': 8.51}]",170486.59999990463,1669830473058,omelette,hashbrowns,9.26,8.51,-0.75,hashbrowns,1298.2000000476837,1299,1298.5,True,i,172301.59999990463,1815.0,1669830474873,1815,HRV,HRV_0140,2022-11-30 17:49:49
97,"[{'imgObject': {}, 'id': 'chickenfingers', 'src': '/static/foodstim60/chickenfingers.jpg', 'key': 'u', 'origWidth': 410, 'origHeight': 410, 'width': 410, 'height': 410, 'widthPercent': 0.45, 'rescaleHeight': False, 'trialN': 97, 'loaded': True, 'loadedTime': 47484.699999928474, 'positionName': 'LEFT', 'positionCoords': [511.6, 335], 'bid': 8.59}, {'imgObject': {}, 'id': 'raisin bran w milk', 'src': '/static/foodstim60/raisin bran w milk.jpg', 'key': 'i', 'origWidth': 411, 'origHeight': 411, 'width': 411, 'height': 411, 'widthPercent': 0.45, 'rescaleHeight': False, 'trialN': 97, 'loaded': True, 'loadedTime': 47397.39999997616, 'positionName': 'RIGHT', 'positionCoords': [998.4, 334.5], 'bid': 8.44}]",172301.79999995232,1669830474874,chickenfingers,raisin bran w milk,8.59,8.44,-0.15000000000000036,raisin bran w milk,491.2000000476837,492,492.39999997615814,True,i,173300.0,998.2000000476837,1669830475872,998,HRV,HRV_0140,2022-11-30 17:49:49
98,"[{'imgObject': {}, 'id': 'mango', 'src': '/static/foodstim60/mango.jpg', 'key': 'u', 'origWidth': 411, 'origHeight': 411, 'width': 411, 'height': 411, 'widthPercent': 0.45, 'rescaleHeight': False, 'trialN': 98, 'loaded': True, 'loadedTime': 47230.59999990463, 'positionName': 'LEFT', 'positionCoords': [510.6, 334.5], 'bid': 7.82}, {'imgObject': {}, 'id': 'cherry tomato', 'src': '/static/foodstim60/cherry tomato.jpg', 'key': 'i', 'origWidth': 410, 'origHeight': 410, 'width': 410, 'height': 410, 'widthPercent': 0.45, 'rescaleHeight': False, 'trialN': 98, 'loaded': True, 'loadedTime': 47480.699999928474, 'positionName': 'RIGHT', 'positionCoords': [998.4, 335], 'bid': 8.39}]",173300.19999992847,1669830475872,mango,cherry tomato,7.82,8.39,0.5700000000000003,mango,1532.7000000476837,1533,1532.8999999761581,True,u,175349.29999995232,2049.100000023842,1669830477921,2049,HRV,HRV_0140,2022-11-30 17:49:49
99,"[{'imgObject': {}, 'id': 'blueberries', 'src': '/static/foodstim60/blueberries.jpg', 'key': 'u', 'origWidth': 411, 'origHeight': 411, 'width': 411, 'height': 411, 'widthPercent': 0.45, 'rescaleHeight': False, 'trialN': 99, 'loaded': True, 'loadedTime': 47390, 'positionName': 'LEFT', 'positionCoords': [510.6, 334.5], 'bid': 8.64}, {'imgObject': {}, 'id': 'bagel and cc', 'src': '/static/foodstim60/bagel and cc.jpg', 'key': 'i', 'origWidth': 410, 'origHeight': 410, 'width': 410, 'height': 410, 'widthPercent': 0.45, 'rescaleHeight': False, 'trialN': 99, 'loaded': True, 'loadedTime': 47268.299999952316, 'positionName': 'RIGHT', 'positionCoords': [998.4, 335], 'bid': 7.22}]",175349.5,1669830477921,blueberries,bagel and cc,8.64,7.22,-1.4200000000000008,bagel and cc,1547.2999999523163,1548,1547.5999999046326,True,i,177413.59999990463,2064.0999999046326,1669830479986,2065,HRV,HRV_0140,2022-11-30 17:49:49
100,"[{'imgObject': {}, 'id': 'kiwi', 'src': '/static/foodstim60/kiwi.jpg', 'key': 'u', 'origWidth': 410, 'origHeight': 410, 'width': 410, 'height': 410, 'widthPercent': 0.45, 'rescaleHeight': False, 'trialN': 100, 'loaded': True, 'loadedTime': 47442.199999928474, 'positionName': 'LEFT', 'positionCoords': [511.6, 335], 'bid': 8.03}, {'imgObject': {}, 'id': 'blackbeanswithrice', 'src': '/static/foodstim60/blackbeanswithrice.jpg', 'key': 'i', 'origWidth': 410, 'origHeight': 410, 'width': 410, 'height': 410, 'widthPercent': 0.45, 'rescaleHeight': False, 'trialN': 100, 'loaded': True, 'loadedTime': 47111.299999952316, 'positionName': 'RIGHT', 'positionCoords': [998.4, 335], 'bid': 8.1}]",177413.79999995232,1669830479986,kiwi,blackbeanswithrice,8.03,8.1,0.07000000000000028,kiwi,539.0,539,539.2999999523163,True,u,178462.89999997616,1049.1000000238419,1669830481035,1049,HRV,HRV_0140,2022-11-30 17:49:49
101,"[{'imgObject': {}, 'id': 'hotdog w must', 'src': '/static/foodstim60/hotdog w must.jpg', 'key': 'u', 'origWidth': 409, 'origHeight': 409, 'width': 409, 'height': 409, 'widthPercent': 0.45, 'rescaleHeight': False, 'trialN': 101, 'loaded': True, 'loadedTime': 47419.199999928474, 'positionName': 'LEFT', 'positionCoords': [512.6, 335.5], 'bid': 7.2}, {'imgObject': {}, 'id': 'edamame', 'src': '/static/foodstim60/edamame.jpg', 'key': 'i', 'origWidth': 409, 'origHeight': 410, 'width': 409, 'height': 410, 'widthPercent': 0.45, 'rescaleHeight': False, 'trialN': 101, 'loaded': True, 'loadedTime': 47071.199999928474, 'positionName': 'RIGHT', 'positionCoords': [998.4, 335], 'bid': 8.64}]",178463.0,1669830481035,hotdog w must,edamame,7.2,8.64,1.4400000000000004,edamame,481.7999999523163,482,482.09999990463257,True,i,179461.39999997616,998.3999999761581,1669830482033,998,HRV,HRV_0140,2022-11-30 17:49:49
102,"[{'imgObject': {}, 'id': 'cherries', 'src': '/static/foodstim60/cherries.jpg', 'key': 'u', 'origWidth': 410, 'origHeight': 411, 'width': 410, 'height': 411, 'widthPercent': 0.45, 'rescaleHeight': False, 'trialN': 102, 'loaded': True, 'loadedTime': 47211.199999928474, 'positionName': 'LEFT', 'positionCoords': [511.6, 334.5], 'bid': 7.65}, {'imgObject': {}, 'id': 'seaweed', 'src': '/static/foodstim60/seaweed.jpg', 'key': 'i', 'origWidth': 410, 'origHeight': 410, 'width': 410, 'height': 410, 'widthPercent': 0.45, 'rescaleHeight': False, 'trialN': 102, 'loaded': True, 'loadedTime': 47094.09999990463, 'positionName': 'RIGHT', 'positionCoords': [998.4, 335], 'bid': 8.2}]",179461.59999990463,1669830482034,cherries,seaweed,7.65,8.2,0.5499999999999989,cherries,763.3000000715256,769,769.8000000715256,True,u,180752.5,1290.9000000953674,1669830483324,1290,HRV,HRV_0140,2022-11-30 17:49:49
103,"[{'imgObject': {}, 'id': 'burrito', 'src': '/static/foodstim60/burrito.jpg', 'key': 'u', 'origWidth': 410, 'origHeight': 410, 'width': 410, 'height': 410, 'widthPercent': 0.45, 'rescaleHeight': False, 'trialN': 103, 'loaded': True, 'loadedTime': 47431.89999997616, 'positionName': 'LEFT', 'positionCoords': [511.6, 335], 'bid': 7.0600000000000005}, {'imgObject': {}, 'id': 'pear', 'src': '/static/foodstim60/pear.jpg', 'key': 'i', 'origWidth': 411, 'origHeight': 410, 'width': 411, 'height': 410, 'widthPercent': 0.45, 'rescaleHeight': False, 'trialN': 103, 'loaded': True, 'loadedTime': 47443.39999997616, 'positionName': 'RIGHT', 'positionCoords': [998.4, 335], 'bid': 5.82}]",180752.69999992847,1669830483325,burrito,pear,7.0600000000000005,5.82,-1.2400000000000002,pear,473.0,473,473.2000000476837,True,i,181735.59999990463,982.8999999761581,1669830484307,982,HRV,HRV_0140,2022-11-30 17:49:49
104,"[{'imgObject': {}, 'id': 'orange slices', 'src': '/static/foodstim60/orange slices.jpg', 'key': 'u', 'origWidth': 409, 'origHeight': 410, 'width': 409, 'height': 410, 'widthPercent': 0.45, 'rescaleHeight': False, 'trialN': 104, 'loaded': True, 'loadedTime': 47064.299999952316, 'positionName': 'LEFT', 'positionCoords': [512.6, 335], 'bid': 8.4}, {'imgObject': {}, 'id': 'cherry tomato', 'src': '/static/foodstim60/cherry tomato.jpg', 'key': 'i', 'origWidth': 410, 'origHeight': 410, 'width': 410, 'height': 410, 'widthPercent': 0.45, 'rescaleHeight': False, 'trialN': 104, 'loaded': True, 'loadedTime': 47480.199999928474, 'positionName': 'RIGHT', 'positionCoords': [998.4, 335], 'bid': 8.39}]",181735.69999992847,1669830484308,orange slices,cherry tomato,8.4,8.39,-0.009999999999999787,orange slices,857.1000000238419,857,857.3999999761581,True,u,183107.39999997616,1371.7000000476837,1669830485679,1371,HRV,HRV_0140,2022-11-30 17:49:49
105,"[{'imgObject': {}, 'id': 'baked potato', 'src': '/static/foodstim60/baked potato.jpg', 'key': 'u', 'origWidth': 409, 'origHeight': 410, 'width': 409, 'height': 410, 'widthPercent': 0.45, 'rescaleHeight': False, 'trialN': 105, 'loaded': True, 'loadedTime': 46962.199999928474, 'positionName': 'LEFT', 'positionCoords': [512.6, 335], 'bid': 7.86}, {'imgObject': {}, 'id': 'salad w chicken', 'src': '/static/foodstim60/salad w chicken.jpg', 'key': 'i', 'origWidth': 411, 'origHeight': 411, 'width': 411, 'height': 411, 'widthPercent': 0.45, 'rescaleHeight': False, 'trialN': 105, 'loaded': True, 'loadedTime': 47181.59999990463, 'positionName': 'RIGHT', 'positionCoords': [998.4, 334.5], 'bid': 7.77}]",183107.69999992847,1669830485680,baked potato,salad w chicken,7.86,7.77,-0.09000000000000075,salad w chicken,325.39999997615814,325,325.8000000715256,True,i,183939.39999997616,831.7000000476837,1669830486511,831,HRV,HRV_0140,2022-11-30 17:49:49
106,"[{'imgObject': {}, 'id': 'cocktailshrimp', 'src': '/static/foodstim60/cocktailshrimp.jpg', 'key': 'u', 'origWidth': 410, 'origHeight': 410, 'width': 410, 'height': 410, 'widthPercent': 0.45, 'rescaleHeight': False, 'trialN': 106, 'loaded': True, 'loadedTime': 47483.09999990463, 'positionName': 'LEFT', 'positionCoords': [511.6, 335], 'bid': 5.57}, {'imgObject': {}, 'id': 'turkey sandwich', 'src': '/static/foodstim60/turkey sandwich.jpg', 'key': 'i', 'origWidth': 409, 'origHeight': 409, 'width': 409, 'height': 409, 'widthPercent': 0.45, 'rescaleHeight': False, 'trialN': 106, 'loaded': True, 'loadedTime': 47391.5, 'positionName': 'RIGHT', 'positionCoords': [998.4, 335.5], 'bid': 8.11}]",183939.5,1669830486511,cocktailshrimp,turkey sandwich,5.57,8.11,2.539999999999999,cocktailshrimp,765.6999999284744,766,766.0,True,u,185213.69999992847,1274.1999999284744,1669830487786,1275,HRV,HRV_0140,2022-11-30 17:49:49
107,"[{'imgObject': {}, 'id': 'apple slices', 'src': '/static/foodstim60/apple slices.jpg', 'key': 'u', 'origWidth': 409, 'origHeight': 410, 'width': 409, 'height': 410, 'widthPercent': 0.45, 'rescaleHeight': False, 'trialN': 107, 'loaded': True, 'loadedTime': 47308.39999997616, 'positionName': 'LEFT', 'positionCoords': [512.6, 335], 'bid': 6.12}, {'imgObject': {}, 'id': 'luckycharms', 'src': '/static/foodstim60/luckycharms.jpg', 'key': 'i', 'origWidth': 410, 'origHeight': 409, 'width': 410, 'height': 409, 'widthPercent': 0.45, 'rescaleHeight': False, 'trialN': 107, 'loaded': True, 'loadedTime': 47221.799999952316, 'positionName': 'RIGHT', 'positionCoords': [998.4, 335.5], 'bid': 7.11}]",185213.89999997616,1669830487786,apple slices,luckycharms,6.12,7.11,0.9900000000000002,luckycharms,499.60000002384186,500,499.7999999523163,True,i,186229.0,1015.1000000238419,1669830488801,1015,HRV,HRV_0140,2022-11-30 17:49:49
