success,trial_type,trial_index,time_elapsed,internal_node_id,Block,TrialNumber,TrialTime,trialTimeDiff,FPS_avg,FPS_med,FPS_mode,TrialDur,winResizeTime,rt,block,button_pressed,MotCoh,MotDir,ColCoh,Color,ChoiceKey,Choice,Accuracy,RT,nFrames,FPS,PPD,missTrial,missTrialMsg,onsetDelay,fullScreenExitTime,canvCenter,TrialType,Score,BlockTrial,stimulus,button_labels,exp,subjectId,date
True,fullscreen,0,2793,0.0-0.0,0.0,1.0,,,,,,,,,,,,,,,,,,,,,,,,,,,,,,,,HRV,HRV_0056,2022-11-30 18:07:21
,wl-check-fps,1,7790,0.0-1.0,0.0,2.0,"[3419.8, 3427.4, 3444.3, 3477.5, 3490.6, 3495.1, 3510.9, 3527.6, 3544.3, 3560.8, 3577.6, 3594.1, 3610.8, 3627.6, 3644.2, 3661.2, 3678, 3694.2, 3710.9, 3727.6, 3744.4, 3761.3, 3778.1, 3794.8, 3811.6, 3827.9, 3844.6, 3861.4, 3878.4, 3895.2, 3911.7, 3928, 3944.5, 3961.3, 3977.9, 3994.5, 4011.3, 4028.1, 4044.3, 4061.1, 4077.6, 4094.5, 4111.2, 4127.8, 4144.5, 4161.1, 4177.9, 4194.4, 4211, 4227.8, 4244.4, 4261, 4280.3, 4294.7, 4311.3, 4327.6, 4344.2, 4360.9, 4377.6, 4394.2, 4411, 4427.5, 4444.4, 4461.2, 4477.7, 4494.4, 4511.2, 4527.8, 4544.5, 4561.1, 4577.7, 4594.3, 4611.1, 4627.7, 4644.3, 4661.1, 4677.6, 4694.3, 4711.1, 4727.6, 4744.2, 4761, 4777.9, 4794.5, 4810.9, 4827.7, 4844.5, 4861.1, 4877.7, 4894.3, 4910.9, 4927.8, 4944.4, 4960.9, 4977.6, 4994.2, 5011, 5027.8, 5044.5, 5061.6, 5078.1, 5094.6, 5111.7, 5127.9, 5144.8, 5161.4, 5178.1, 5194.9, 5211.6, 5228, 5245, 5261.9, 5278, 5294.6, 5311.6, 5327.5, 5346.3, 5361.1, 5377.9, 5394.9, 5411.6, 5428, 5444.9, 5461.1, 5477.9, 5494.7, 5511.4, 5527.7, 5544.5, 5561.3, 5578.3, 5594.9, 5611.1, 5627.9, 5644.5, 5661.6, 5678.7, 5695.6, 5711.1, 5728.3, 5744.5, 5761.3, 5778.1, 5794.7, 5811.3, 5828, 5844.8, 5861.5, 5878.1, 5894.7, 5911.4, 5928.1, 5944.9, 5961.3, 5978.2, 5994.7, 6011.7, 6028, 6044.4, 6061.1, 6077.9, 6094.4, 6111, 6127.7, 6144.5, 6161.3, 6177.7, 6194.4, 6211, 6227.7, 6244.3, 6261, 6277.7, 6294.4, 6311, 6327.6, 6344.3, 6361.1, 6377.6, 6394.2, 6410.9, 6427.6, 6444.2, 6460.9, 6477.6, 6494.2, 6511.1, 6527.7, 6544.3, 6561, 6577.6, 6594.2, 6610.8, 6627.5, 6644.5, 6660.9, 6677.6, 6694.3, 6710.9, 6727.6, 6744.2, 6760.9, 6777.6, 6794.3, 6810.9, 6827.6, 6844.3, 6861, 6877.8, 6894.2, 6910.9, 6927.6, 6944.5, 6960.9, 6977.6, 6994.3, 7011.1, 7027.8, 7045, 7061.8, 7078.1, 7095, 7111.5, 7128.3, 7145, 7161.4, 7178.4, 7195.1, 7211.7, 7228.2, 7244.8, 7261.9, 7278.6, 7294.9, 7311.2, 7328.1, 7344.8, 7361.7, 7378.2, 7394.6, 7411.6, 7428.4, 7444.8, 7461, 7477.8, 7494.7, 7511.3, 7528, 7544.7, 7562, 7578.4, 7594.4, 7611.2, 7627.9, 7644.6, 7661, 7678.2, 7695.5, 7711.3, 7728.1, 7744.4, 7761.6, 7778.2, 7795.1, 7811.5, 7827.9, 7844.4, 7861.3, 7877.8, 7894.4, 7910.9, 7927.7, 7944.5, 7961.1, 7977.8, 7994.4, 8011, 8027.7, 8044.4, 8061.1, 8077.8, 8094.6, 8111.3, 8127.6, 8144.4, 8161.1, 8177.7, 8194.4, 8211.1, 8227.8, 8244.3, 8261, 8278, 8294.9, 8311.7, 8327.9, 8344.9, 8361.9, 8378.2, 8395]","[1.7, 7.6, 16.9, 33.2, 13.1, 4.5, 15.8, 16.7, 16.7, 16.5, 16.8, 16.5, 16.7, 16.8, 16.6, 17, 16.8, 16.2, 16.7, 16.7, 16.8, 16.9, 16.8, 16.7, 16.8, 16.3, 16.7, 16.8, 17, 16.8, 16.5, 16.3, 16.5, 16.8, 16.6, 16.6, 16.8, 16.8, 16.2, 16.8, 16.5, 16.9, 16.7, 16.6, 16.7, 16.6, 16.8, 16.5, 16.6, 16.8, 16.6, 16.6, 19.3, 14.4, 16.6, 16.3, 16.6, 16.7, 16.7, 16.6, 16.8, 16.5, 16.9, 16.8, 16.5, 16.7, 16.8, 16.6, 16.7, 16.6, 16.6, 16.6, 16.8, 16.6, 16.6, 16.8, 16.5, 16.7, 16.8, 16.5, 16.6, 16.8, 16.9, 16.6, 16.4, 16.8, 16.8, 16.6, 16.6, 16.6, 16.6, 16.9, 16.6, 16.5, 16.7, 16.6, 16.8, 16.8, 16.7, 17.1, 16.5, 16.5, 17.1, 16.2, 16.9, 16.6, 16.7, 16.8, 16.7, 16.4, 17, 16.9, 16.1, 16.6, 17, 15.9, 18.8, 14.8, 16.8, 17, 16.7, 16.4, 16.9, 16.2, 16.8, 16.8, 16.7, 16.3, 16.8, 16.8, 17, 16.6, 16.2, 16.8, 16.6, 17.1, 17.1, 16.9, 15.5, 17.2, 16.2, 16.8, 16.8, 16.6, 16.6, 16.7, 16.8, 16.7, 16.6, 16.6, 16.7, 16.7, 16.8, 16.4, 16.9, 16.5, 17, 16.3, 16.4, 16.7, 16.8, 16.5, 16.6, 16.7, 16.8, 16.8, 16.4, 16.7, 16.6, 16.7, 16.6, 16.7, 16.7, 16.7, 16.6, 16.6, 16.7, 16.8, 16.5, 16.6, 16.7, 16.7, 16.6, 16.7, 16.7, 16.6, 16.9, 16.6, 16.6, 16.7, 16.6, 16.6, 16.6, 16.7, 17, 16.4, 16.7, 16.7, 16.6, 16.7, 16.6, 16.7, 16.7, 16.7, 16.6, 16.7, 16.7, 16.7, 16.8, 16.4, 16.7, 16.7, 16.9, 16.4, 16.7, 16.7, 16.8, 16.7, 17.2, 16.8, 16.3, 16.9, 16.5, 16.8, 16.7, 16.4, 17, 16.7, 16.6, 16.5, 16.6, 17.1, 16.7, 16.3, 16.3, 16.9, 16.7, 16.9, 16.5, 16.4, 17, 16.8, 16.4, 16.2, 16.8, 16.9, 16.6, 16.7, 16.7, 17.3, 16.4, 16, 16.8, 16.7, 16.7, 16.4, 17.2, 17.3, 15.8, 16.8, 16.3, 17.2, 16.6, 16.9, 16.4, 16.4, 16.5, 16.9, 16.5, 16.6, 16.5, 16.8, 16.8, 16.6, 16.7, 16.6, 16.6, 16.7, 16.7, 16.7, 16.7, 16.8, 16.7, 16.3, 16.8, 16.7, 16.6, 16.7, 16.7, 16.7, 16.5, 16.7, 17, 16.9, 16.8, 16.2, 17, 17, 16.3, 16.8]",60.0,60.0,60.0,4993.6,[],,,,,,,,,,,,,,,,,,,,,,,,,HRV,HRV_0056,2022-11-30 18:07:21
,wl-html-keyboard-response,2,20361,0.0-2.0-0.0,0.0,3.0,,,,,,,,10559.399999856949,0.0,0,,,,,,,,,,,,,,,,,,,,,,HRV,HRV_0056,2022-11-30 18:07:21
,wl-rdm,3,28172,0.0-3.0-0.0,0.0,4.0,,,,,,,[],,,,0.0,0.0,87.9,0.0,u,0.0,True,2245.100000143051,135.0,60.0,40.0,False,,3000.0,[],"[768, 432]",ColorTask_Demo,,,,,HRV,HRV_0056,2022-11-30 18:07:21
,wl-rdm,4,33222,0.0-3.0-1.0,0.0,5.0,,,,,,,[],,,,0.0,0.0,87.9,1.0,i,1.0,True,975.0,59.0,60.0,40.0,False,,2000.0,[],"[768, 432]",ColorTask_Demo,,,,,HRV,HRV_0056,2022-11-30 18:07:21
,wl-html-keyboard-response,5,39048,0.0-3.0-2.0,0.0,6.0,,,,,,,,3818.100000143051,0.0,1,,,,,,,,,,,,,,,,,,,,,,HRV,HRV_0056,2022-11-30 18:07:21
,wl-html-keyboard-response,6,49544,0.0-4.0-0.0,0.0,7.0,,,,,,,,8491.399999856949,0.0,0,,,,,,,,,,,,,,,,,,,,,,HRV,HRV_0056,2022-11-30 18:07:21
,wl-html-keyboard-response,7,63145,0.0-5.0-0.0,0.0,8.0,,,,,,,,11596.400000095367,0.0,0,,,,,,,,,,,,,,,,,,,,,,HRV,HRV_0056,2022-11-30 18:07:21
,wl-rdm,8,65989,0.0-6.0-0.0,0.0,9.0,,,,,,,[],,,,,,62.5,0.0,u,0.0,True,1473.5999999046326,89.0,60.0,40.0,False,,310.7084824963599,[],"[768, 432]",ColorTask,1.0,1.0,,,HRV,HRV_0056,2022-11-30 18:07:21
,wl-rdm,9,68456,0.0-6.1-0.1,0.0,10.0,,,,,,,[],,,,,,73.6,0.0,u,0.0,True,1037.1000001430511,63.0,60.0,40.0,False,,343.50561935790085,[],"[768, 432]",ColorTask,2.0,2.0,,,HRV,HRV_0056,2022-11-30 18:07:21
,wl-rdm,10,70706,0.0-6.2-0.2,0.0,11.0,,,,,,,[],,,,,,87.9,0.0,u,0.0,True,913.7000002861023,55.0,60.0,40.0,False,,264.5975119373034,[],"[768, 432]",ColorTask,3.0,3.0,,,HRV,HRV_0056,2022-11-30 18:07:21
,wl-rdm,11,72956,0.0-6.3-0.3,0.0,12.0,,,,,,,[],,,,,,73.6,1.0,i,1.0,True,947.3000001907349,57.0,60.0,40.0,False,,216.17816538853774,[],"[768, 432]",ColorTask,4.0,4.0,,,HRV,HRV_0056,2022-11-30 18:07:21
,wl-rdm,12,75240,0.0-6.4-0.4,0.0,13.0,,,,,,,[],,,,,,56.4,1.0,i,1.0,True,936.3000001907349,57.0,60.0,40.0,False,,272.815720196322,[],"[768, 432]",ColorTask,5.0,5.0,,,HRV,HRV_0056,2022-11-30 18:07:21
,wl-rdm,13,77589,0.0-6.5-0.5,0.0,14.0,,,,,,,[],,,,,,62.5,0.0,i,1.0,False,1040.2999999523163,63.0,60.0,40.0,False,,220.93612026342132,[],"[768, 432]",ColorTask,4.0,6.0,,,HRV,HRV_0056,2022-11-30 18:07:21
,wl-rdm,14,80006,0.0-6.6-0.6,0.0,15.0,,,,,,,[],,,,,,53.2,0.0,u,0.0,True,1070.5,65.0,60.0,40.0,False,,254.73088432259317,[],"[768, 432]",ColorTask,5.0,7.0,,,HRV,HRV_0056,2022-11-30 18:07:21
,wl-rdm,15,82173,0.0-6.7-0.7,0.0,16.0,,,,,,,[],,,,,,56.4,0.0,u,0.0,True,787.3999998569489,48.0,60.0,40.0,False,,297.7349941605752,[],"[768, 432]",ColorTask,6.0,8.0,,,HRV,HRV_0056,2022-11-30 18:07:21
,wl-rdm,16,84339,0.0-6.8-0.8,0.0,17.0,,,,,,,[],,,,,,56.4,0.0,u,0.0,True,793.5999999046326,48.0,60.0,40.0,False,,291.214806732527,[],"[768, 432]",ColorTask,7.0,9.0,,,HRV,HRV_0056,2022-11-30 18:07:21
,wl-rdm,17,86506,0.0-6.9-0.9,0.0,18.0,,,,,,,[],,,,,,50.0,0.0,u,0.0,True,764.7000000476837,46.0,60.0,40.0,False,,319.8331512955192,[],"[768, 432]",ColorTask,8.0,10.0,,,HRV,HRV_0056,2022-11-30 18:07:21
,wl-rdm,18,88540,0.0-6.10-0.10,0.0,19.0,,,,,,,[],,,,,,50.0,0.0,u,0.0,True,686.4000000953674,42.0,60.0,40.0,False,,255.23397730952595,[],"[768, 432]",ColorTask,9.0,11.0,,,HRV,HRV_0056,2022-11-30 18:07:21
,wl-rdm,19,90706,0.0-6.11-0.11,0.0,20.0,,,,,,,[],,,,,,50.0,1.0,u,0.0,False,880.3999998569489,53.0,60.0,40.0,False,,215.4511095881789,[],"[768, 432]",ColorTask,8.0,12.0,,,HRV,HRV_0056,2022-11-30 18:07:21
,wl-rdm,20,92906,0.0-6.12-0.12,0.0,21.0,,,,,,,[],,,,,,62.5,0.0,u,0.0,True,822.9000000953674,50.0,60.0,40.0,False,,303.01561434933,[],"[768, 432]",ColorTask,9.0,13.0,,,HRV,HRV_0056,2022-11-30 18:07:21
,wl-rdm,21,95307,0.0-6.13-0.13,0.0,22.0,,,,,,,[],,,,,,50.0,1.0,i,1.0,True,1031.2999999523163,62.0,60.0,40.0,False,,293.57815474145514,[],"[768, 432]",ColorTask,10.0,14.0,,,HRV,HRV_0056,2022-11-30 18:07:21
,wl-rdm,22,97624,0.0-6.14-0.14,0.0,23.0,,,,,,,[],,,,,,62.5,1.0,i,1.0,True,1022.0,62.0,60.0,40.0,False,,216.91519993547857,[],"[768, 432]",ColorTask,11.0,15.0,,,HRV,HRV_0056,2022-11-30 18:07:21
,wl-rdm,23,100023,0.0-6.15-0.15,0.0,24.0,,,,,,,[],,,,,,56.4,0.0,i,1.0,False,1074.4000000953674,65.0,60.0,40.0,False,,249.9968643736779,[],"[768, 432]",ColorTask,10.0,16.0,,,HRV,HRV_0056,2022-11-30 18:07:21
,wl-rdm,24,102156,0.0-6.16-0.16,0.0,25.0,,,,,,,[],,,,,,73.6,0.0,u,0.0,True,748.1999998092651,45.0,60.0,40.0,False,,327.3300808602936,[],"[768, 432]",ColorTask,11.0,17.0,,,HRV,HRV_0056,2022-11-30 18:07:21
,wl-rdm,25,104223,0.0-6.17-0.17,0.0,26.0,,,,,,,[],,,,,,56.4,0.0,u,0.0,True,712.7000000476837,43.0,60.0,40.0,False,,276.8292630899771,[],"[768, 432]",ColorTask,12.0,18.0,,,HRV,HRV_0056,2022-11-30 18:07:21
,wl-rdm,26,106156,0.0-6.18-0.18,0.0,27.0,,,,,,,[],,,,,,87.9,0.0,u,0.0,True,637.4000000953674,39.0,60.0,40.0,False,,228.73468434985696,[],"[768, 432]",ColorTask,13.0,19.0,,,HRV,HRV_0056,2022-11-30 18:07:21
,wl-rdm,27,108206,0.0-6.19-0.19,0.0,28.0,,,,,,,[],,,,,,87.9,1.0,i,1.0,True,685.9000000953674,42.0,60.0,40.0,False,,287.68017653319816,[],"[768, 432]",ColorTask,14.0,20.0,,,HRV,HRV_0056,2022-11-30 18:07:21
,wl-rdm,28,110357,0.0-6.20-0.20,0.0,29.0,,,,,,,[],,,,,,62.5,1.0,u,0.0,False,803.7000000476837,49.0,60.0,40.0,False,,250.81161423058273,[],"[768, 432]",ColorTask,13.0,21.0,,,HRV,HRV_0056,2022-11-30 18:07:21
,wl-rdm,29,112390,0.0-6.21-0.21,0.0,30.0,,,,,,,[],,,,,,50.0,1.0,u,0.0,False,590.5000002384186,36.0,60.0,40.0,False,,361.06339684631587,[],"[768, 432]",ColorTask,12.0,22.0,,,HRV,HRV_0056,2022-11-30 18:07:21
,wl-rdm,30,114673,0.0-6.22-0.22,0.0,31.0,,,,,,,[],,,,,,73.6,0.0,u,0.0,True,915.4000000953674,55.0,60.0,40.0,False,,286.57534434261174,[],"[768, 432]",ColorTask,13.0,23.0,,,HRV,HRV_0056,2022-11-30 18:07:21
,wl-rdm,31,116923,0.0-6.23-0.23,0.0,32.0,,,,,,,[],,,,,,73.6,0.0,u,0.0,True,913.3999998569489,55.0,60.0,40.0,False,,271.06163745958315,[],"[768, 432]",ColorTask,14.0,24.0,,,HRV,HRV_0056,2022-11-30 18:07:21
,wl-rdm,32,118906,0.0-6.24-0.24,0.0,33.0,,,,,,,[],,,,,,53.2,1.0,u,0.0,False,661.8999998569489,40.0,60.0,40.0,False,,241.25092002748164,[],"[768, 432]",ColorTask,13.0,25.0,,,HRV,HRV_0056,2022-11-30 18:07:21
,wl-rdm,33,121107,0.0-6.25-0.25,0.0,34.0,,,,,,,[],,,,,,53.2,0.0,i,1.0,False,739.0999999046326,45.0,60.0,40.0,False,,389.2743977025149,[],"[768, 432]",ColorTask,12.0,26.0,,,HRV,HRV_0056,2022-11-30 18:07:21
,wl-rdm,34,123074,0.0-6.26-0.26,0.0,35.0,,,,,,,[],,,,,,87.9,1.0,i,1.0,True,623.7000000476837,38.0,60.0,40.0,False,,271.35346898856193,[],"[768, 432]",ColorTask,13.0,27.0,,,HRV,HRV_0056,2022-11-30 18:07:21
,wl-rdm,35,125091,0.0-6.27-0.27,0.0,36.0,,,,,,,[],,,,,,62.5,1.0,i,1.0,True,712.7999999523163,43.0,60.0,40.0,False,,239.97157415153802,[],"[768, 432]",ColorTask,14.0,28.0,,,HRV,HRV_0056,2022-11-30 18:07:21
,wl-rdm,36,127140,0.0-6.28-0.28,0.0,37.0,,,,,,,[],,,,,,56.4,0.0,i,1.0,False,653.7999999523163,40.0,60.0,40.0,False,,332.55336455009,[],"[768, 432]",ColorTask,13.0,29.0,,,HRV,HRV_0056,2022-11-30 18:07:21
,wl-rdm,37,129190,0.0-6.29-0.29,0.0,38.0,,,,,,,[],,,,,,73.6,1.0,i,1.0,True,743.4000000953674,45.0,60.0,40.0,False,,233.5770536327058,[],"[768, 432]",ColorTask,14.0,30.0,,,HRV,HRV_0056,2022-11-30 18:07:21
,wl-rdm,38,131240,0.0-6.30-0.30,0.0,39.0,,,,,,,[],,,,,,73.6,0.0,u,0.0,True,740.6000001430511,45.0,60.0,40.0,False,,248.67885353273746,[],"[768, 432]",ColorTask,15.0,31.0,,,HRV,HRV_0056,2022-11-30 18:07:21
,wl-rdm,39,133357,0.0-6.31-0.31,0.0,40.0,,,,,,,[],,,,,,62.5,1.0,i,1.0,True,816.0,49.0,60.0,40.0,False,,242.82180273420926,[],"[768, 432]",ColorTask,16.0,32.0,,,HRV,HRV_0056,2022-11-30 18:07:21
,wl-rdm,40,135507,0.0-6.32-0.32,0.0,41.0,,,,,,,[],,,,,,50.0,0.0,i,1.0,False,721.1999998092651,44.0,60.0,40.0,False,,358.43640841528173,[],"[768, 432]",ColorTask,15.0,33.0,,,HRV,HRV_0056,2022-11-30 18:07:21
,wl-rdm,41,137690,0.0-6.33-0.33,0.0,42.0,,,,,,,[],,,,,,62.5,1.0,i,1.0,True,800.2000000476837,48.0,60.0,40.0,False,,315.03016007516516,[],"[768, 432]",ColorTask,16.0,34.0,,,HRV,HRV_0056,2022-11-30 18:07:21
,wl-rdm,42,140040,0.0-6.34-0.34,0.0,43.0,,,,,,,[],,,,,,53.2,0.0,u,0.0,True,920.5000002384186,56.0,60.0,40.0,False,,340.57998759879064,[],"[768, 432]",ColorTask,17.0,35.0,,,HRV,HRV_0056,2022-11-30 18:07:21
,wl-rdm,43,141957,0.0-6.35-0.35,0.0,44.0,,,,,,,[],,,,,,56.4,1.0,u,0.0,False,604.7999999523163,37.0,60.0,40.0,False,,233.52742216655213,[],"[768, 432]",ColorTask,16.0,36.0,,,HRV,HRV_0056,2022-11-30 18:07:21
,wl-rdm,44,144040,0.0-6.36-0.36,0.0,45.0,,,,,,,[],,,,,,73.6,0.0,u,0.0,True,783.1000001430511,47.0,60.0,40.0,False,,222.88043310702054,[],"[768, 432]",ColorTask,17.0,37.0,,,HRV,HRV_0056,2022-11-30 18:07:21
,wl-rdm,45,145991,0.0-6.37-0.37,0.0,46.0,,,,,,,[],,,,,,53.2,0.0,u,0.0,True,589.7000000476837,36.0,60.0,40.0,False,,295.3588084450589,[],"[768, 432]",ColorTask,18.0,38.0,,,HRV,HRV_0056,2022-11-30 18:07:21
,wl-rdm,46,148274,0.0-6.38-0.38,0.0,47.0,,,,,,,[],,,,,,50.0,1.0,u,0.0,False,875.6000001430511,53.0,60.0,40.0,False,,331.88458259794237,[],"[768, 432]",ColorTask,17.0,39.0,,,HRV,HRV_0056,2022-11-30 18:07:21
,wl-rdm,47,150357,0.0-6.39-0.39,0.0,48.0,,,,,,,[],,,,,,87.9,0.0,u,0.0,True,603.3000001907349,37.0,60.0,40.0,False,,397.53404632956216,[],"[768, 432]",ColorTask,18.0,40.0,,,HRV,HRV_0056,2022-11-30 18:07:21
,wl-rdm,48,152575,0.0-6.40-0.40,0.0,49.0,,,,,,,[],,,,,,62.5,0.0,u,0.0,True,869.4000000953674,53.0,60.0,40.0,False,,276.1616675276829,[],"[768, 432]",ColorTask,19.0,41.0,,,HRV,HRV_0056,2022-11-30 18:07:21
,wl-rdm,49,154942,0.0-6.41-0.41,0.0,50.0,,,,,,,[],,,,,,50.0,1.0,u,0.0,False,1020.2000000476837,62.0,60.0,40.0,False,,281.96795253974426,[],"[768, 432]",ColorTask,18.0,42.0,,,HRV,HRV_0056,2022-11-30 18:07:21
,wl-rdm,50,157024,0.0-6.42-0.42,0.0,51.0,,,,,,,[],,,,,,53.2,0.0,u,0.0,True,714.1999998092651,43.0,60.0,40.0,False,,294.62117762564617,[],"[768, 432]",ColorTask,19.0,43.0,,,HRV,HRV_0056,2022-11-30 18:07:21
,wl-rdm,51,159158,0.0-6.43-0.43,0.0,52.0,,,,,,,[],,,,,,73.6,1.0,i,1.0,True,765.2999999523163,46.0,60.0,40.0,False,,310.47341871306423,[],"[768, 432]",ColorTask,20.0,44.0,,,HRV,HRV_0056,2022-11-30 18:07:21
,wl-rdm,52,161392,0.0-6.44-0.44,0.0,53.0,,,,,,,[],,,,,,53.2,1.0,i,1.0,True,870.3999998569489,53.0,60.0,40.0,False,,283.6390362757199,[],"[768, 432]",ColorTask,21.0,45.0,,,HRV,HRV_0056,2022-11-30 18:07:21
,wl-rdm,53,164192,0.0-6.45-0.45,0.0,54.0,,,,,,,[],,,,,,56.4,0.0,i,1.0,False,1529.8000001907349,92.0,60.0,40.0,False,,203.28527771176076,[],"[768, 432]",ColorTask,20.0,46.0,,,HRV,HRV_0056,2022-11-30 18:07:21
,wl-rdm,54,166791,0.0-6.46-0.46,0.0,55.0,,,,,,,[],,,,,,56.4,0.0,u,0.0,True,1148.9000000953674,69.0,60.0,40.0,False,,374.30152098414237,[],"[768, 432]",ColorTask,21.0,47.0,,,HRV,HRV_0056,2022-11-30 18:07:21
,wl-rdm,55,169192,0.0-6.47-0.47,0.0,56.0,,,,,,,[],,,,,,87.9,0.0,u,0.0,True,971.0000002384186,59.0,60.0,40.0,False,,365.18719654984613,[],"[768, 432]",ColorTask,22.0,48.0,,,HRV,HRV_0056,2022-11-30 18:07:21
,wl-rdm,56,171775,0.0-6.48-0.48,0.0,57.0,,,,,,,[],,,,,,53.2,0.0,u,0.0,True,1154.3999998569489,70.0,60.0,40.0,False,,342.24186876474494,[],"[768, 432]",ColorTask,23.0,49.0,,,HRV,HRV_0056,2022-11-30 18:07:21
,wl-rdm,57,174292,0.0-6.49-0.49,0.0,58.0,,,,,,,[],,,,,,73.6,1.0,i,1.0,True,1186.3999998569489,72.0,60.0,40.0,False,,256.38515915557963,[],"[768, 432]",ColorTask,24.0,50.0,,,HRV,HRV_0056,2022-11-30 18:07:21
,wl-rdm,58,177275,0.0-6.50-0.50,0.0,59.0,,,,,,,[],,,,,,50.0,1.0,i,1.0,True,1604.5,97.0,60.0,40.0,False,,294.6653590369081,[],"[768, 432]",ColorTask,25.0,51.0,,,HRV,HRV_0056,2022-11-30 18:07:21
,wl-rdm,59,179642,0.0-6.51-0.51,0.0,60.0,,,,,,,[],,,,,,53.2,1.0,i,1.0,True,971.2000000476837,59.0,60.0,40.0,False,,327.9751577618491,[],"[768, 432]",ColorTask,26.0,52.0,,,HRV,HRV_0056,2022-11-30 18:07:21
,wl-rdm,60,181942,0.0-6.52-0.52,0.0,61.0,,,,,,,[],,,,,,56.4,1.0,i,1.0,True,997.2000000476837,60.0,60.0,40.0,False,,218.68365148981542,[],"[768, 432]",ColorTask,27.0,53.0,,,HRV,HRV_0056,2022-11-30 18:07:21
,wl-rdm,61,184309,0.0-6.53-0.53,0.0,62.0,,,,,,,[],,,,,,53.2,0.0,i,1.0,False,924.7999999523163,57.0,60.0,40.0,False,,373.9228594916942,[],"[768, 432]",ColorTask,26.0,54.0,,,HRV,HRV_0056,2022-11-30 18:07:21
,wl-rdm,62,187259,0.0-6.54-0.54,0.0,63.0,,,,,,,[],,,,,,73.6,1.0,i,1.0,True,1613.3999996185303,97.0,60.0,40.0,False,,246.25196743840053,[],"[768, 432]",ColorTask,27.0,55.0,,,HRV,HRV_0056,2022-11-30 18:07:21
,wl-rdm,63,189642,0.0-6.55-0.55,0.0,64.0,,,,,,,[],,,,,,62.5,1.0,i,1.0,True,979.0,59.0,60.0,40.0,False,,321.2669125703576,[],"[768, 432]",ColorTask,28.0,56.0,,,HRV,HRV_0056,2022-11-30 18:07:21
,wl-rdm,64,192125,0.0-6.56-0.56,0.0,65.0,,,,,,,[],,,,,,53.2,1.0,i,1.0,True,1011.0,61.0,60.0,40.0,False,,384.43232526646625,[],"[768, 432]",ColorTask,29.0,57.0,,,HRV,HRV_0056,2022-11-30 18:07:21
,wl-rdm,65,194459,0.0-6.57-0.57,0.0,66.0,,,,,,,[],,,,,,87.9,1.0,i,1.0,True,1046.5,63.0,60.0,40.0,False,,226.35223554431425,[],"[768, 432]",ColorTask,30.0,58.0,,,HRV,HRV_0056,2022-11-30 18:07:21
,wl-rdm,66,196609,0.0-6.58-0.58,0.0,67.0,,,,,,,[],,,,,,87.9,0.0,u,0.0,True,864.7000000476837,52.0,60.0,40.0,False,,217.78100934903804,[],"[768, 432]",ColorTask,31.0,59.0,,,HRV,HRV_0056,2022-11-30 18:07:21
,wl-rdm,67,199075,0.0-6.59-0.59,0.0,68.0,,,,,,,[],,,,,,53.2,1.0,u,0.0,False,1166.0999999046326,70.0,60.0,40.0,False,,249.02356840392662,[],"[768, 432]",ColorTask,30.0,60.0,,,HRV,HRV_0056,2022-11-30 18:07:21
,wl-rdm,68,201242,0.0-6.60-0.60,0.0,69.0,,,,,,,[],,,,,,87.9,1.0,i,1.0,True,819.7000002861023,50.0,60.0,40.0,False,,272.37735157512896,[],"[768, 432]",ColorTask,31.0,61.0,,,HRV,HRV_0056,2022-11-30 18:07:21
,wl-rdm,69,203325,0.0-6.61-0.61,0.0,70.0,,,,,,,[],,,,,,87.9,0.0,u,0.0,True,814.0999999046326,49.0,60.0,40.0,False,,210.09660451609363,[],"[768, 432]",ColorTask,32.0,62.0,,,HRV,HRV_0056,2022-11-30 18:07:21
,wl-rdm,70,205375,0.0-6.62-0.62,0.0,71.0,,,,,,,[],,,,,,87.9,1.0,i,1.0,True,671.5,40.0,60.0,40.0,False,,311.81610071201567,[],"[768, 432]",ColorTask,33.0,63.0,,,HRV,HRV_0056,2022-11-30 18:07:21
,wl-rdm,71,207642,0.0-6.63-0.63,0.0,72.0,,,,,,,[],,,,,,73.6,1.0,i,1.0,True,978.8000001907349,59.0,60.0,40.0,False,,215.1051521483142,[],"[768, 432]",ColorTask,34.0,64.0,,,HRV,HRV_0056,2022-11-30 18:07:21
,wl-rdm,72,209943,0.0-6.64-0.64,0.0,73.0,,,,,,,[],,,,,,56.4,1.0,i,1.0,True,947.6999998092651,57.0,60.0,40.0,False,,298.2173141454539,[],"[768, 432]",ColorTask,35.0,65.0,,,HRV,HRV_0056,2022-11-30 18:07:21
,wl-rdm,73,211975,0.0-6.65-0.65,0.0,74.0,,,,,,,[],,,,,,87.9,0.0,u,0.0,True,699.0,41.0,60.0,40.0,False,,272.6927947918332,[],"[768, 432]",ColorTask,36.0,66.0,,,HRV,HRV_0056,2022-11-30 18:07:21
,wl-rdm,74,214158,0.0-6.66-0.66,0.0,75.0,,,,,,,[],,,,,,87.9,1.0,i,1.0,True,830.4000000953674,50.0,60.0,40.0,False,,286.29223202365483,[],"[768, 432]",ColorTask,37.0,67.0,,,HRV,HRV_0056,2022-11-30 18:07:21
,wl-rdm,75,216842,0.0-6.67-0.67,0.0,76.0,,,,,,,[],,,,,,53.2,0.0,i,1.0,False,1374.2000000476837,83.0,60.0,40.0,False,,239.09963783002866,[],"[768, 432]",ColorTask,36.0,68.0,,,HRV,HRV_0056,2022-11-30 18:07:21
,wl-rdm,76,219325,0.0-6.68-0.68,0.0,77.0,,,,,,,[],,,,,,73.6,1.0,i,1.0,True,1096.0,66.0,60.0,40.0,False,,300.9909063258814,[],"[768, 432]",ColorTask,37.0,69.0,,,HRV,HRV_0056,2022-11-30 18:07:21
,wl-rdm,77,222392,0.0-6.69-0.69,0.0,78.0,,,,,,,[],,,,,,62.5,0.0,u,0.0,True,1719.9999997615814,104.0,60.0,40.0,False,,277.5965605134918,[],"[768, 432]",ColorTask,38.0,70.0,,,HRV,HRV_0056,2022-11-30 18:07:21
,wl-rdm,78,224992,0.0-6.70-0.70,0.0,79.0,,,,,,,[],,,,,,50.0,0.0,i,1.0,False,1238.8999998569489,75.0,60.0,40.0,False,,285.1694841862008,[],"[768, 432]",ColorTask,37.0,71.0,,,HRV,HRV_0056,2022-11-30 18:07:21
,wl-rdm,79,227975,0.0-6.71-0.71,0.0,80.0,,,,,,,[],,,,,,53.2,1.0,i,1.0,True,1625.7999999523163,97.0,60.0,40.0,False,,290.92346115918406,[],"[768, 432]",ColorTask,38.0,72.0,,,HRV,HRV_0056,2022-11-30 18:07:21
,wl-rdm,80,230042,0.0-6.72-0.72,0.0,81.0,,,,,,,[],,,,,,87.9,1.0,i,1.0,True,680.2999999523163,41.0,60.0,40.0,False,,300.9848358864377,[],"[768, 432]",ColorTask,39.0,73.0,,,HRV,HRV_0056,2022-11-30 18:07:21
,wl-rdm,81,233159,0.0-6.73-0.73,0.0,82.0,,,,,,,[],,,,,,53.2,0.0,u,0.0,True,1838.4000000953674,111.0,60.0,40.0,False,,214.2191824329914,[],"[768, 432]",ColorTask,40.0,74.0,,,HRV,HRV_0056,2022-11-30 18:07:21
,wl-rdm,82,235592,0.0-6.74-0.74,0.0,83.0,,,,,,,[],,,,,,53.2,1.0,i,1.0,True,1138.2999999523163,69.0,60.0,40.0,False,,203.1779788578164,[],"[768, 432]",ColorTask,41.0,75.0,,,HRV,HRV_0056,2022-11-30 18:07:21
,wl-rdm,83,237958,0.0-6.75-0.75,0.0,84.0,,,,,,,[],,,,,,56.4,1.0,i,1.0,True,1041.4000000953674,63.0,60.0,40.0,False,,234.85252694066764,[],"[768, 432]",ColorTask,42.0,76.0,,,HRV,HRV_0056,2022-11-30 18:07:21
,wl-rdm,84,240492,0.0-6.76-0.76,0.0,85.0,,,,,,,[],,,,,,62.5,0.0,u,0.0,True,1102.5999999046326,67.0,60.0,40.0,False,,344.7107799517661,[],"[768, 432]",ColorTask,43.0,77.0,,,HRV,HRV_0056,2022-11-30 18:07:21
,wl-rdm,85,242709,0.0-6.77-0.77,0.0,86.0,,,,,,,[],,,,,,73.6,1.0,i,1.0,True,899.3999998569489,54.0,60.0,40.0,False,,250.51553673832126,[],"[768, 432]",ColorTask,44.0,78.0,,,HRV,HRV_0056,2022-11-30 18:07:21
,wl-rdm,86,244942,0.0-6.78-0.78,0.0,87.0,,,,,,,[],,,,,,56.4,1.0,i,1.0,True,797.1999998092651,48.0,60.0,40.0,False,,381.21338314021193,[],"[768, 432]",ColorTask,45.0,79.0,,,HRV,HRV_0056,2022-11-30 18:07:21
,wl-rdm,87,247159,0.0-6.79-0.79,0.0,88.0,,,,,,,[],,,,,,56.4,0.0,i,1.0,False,823.1000001430511,50.0,60.0,40.0,False,,316.4312361702616,[],"[768, 432]",ColorTask,44.0,80.0,,,HRV,HRV_0056,2022-11-30 18:07:21
,wl-rdm,88,249309,0.0-6.80-0.80,0.0,89.0,,,,,,,[],,,,,,50.0,0.0,u,0.0,True,732.3999998569489,44.0,60.0,40.0,False,,361.2934171189802,[],"[768, 432]",ColorTask,45.0,81.0,,,HRV,HRV_0056,2022-11-30 18:07:21
,wl-rdm,89,251909,0.0-6.81-0.81,0.0,90.0,,,,,,,[],,,,,,53.2,1.0,u,0.0,False,1285.2999999523163,78.0,60.0,40.0,False,,248.20397031319365,[],"[768, 432]",ColorTask,44.0,82.0,,,HRV,HRV_0056,2022-11-30 18:07:21
,wl-rdm,90,253992,0.0-6.82-0.82,0.0,91.0,,,,,,,[],,,,,,62.5,1.0,i,1.0,True,630.5,38.0,60.0,40.0,False,,384.91578467852446,[],"[768, 432]",ColorTask,45.0,83.0,,,HRV,HRV_0056,2022-11-30 18:07:21
,wl-rdm,91,256492,0.0-6.83-0.83,0.0,92.0,,,,,,,[],,,,,,73.6,0.0,i,1.0,False,1229.0,74.0,60.0,40.0,False,,209.9476615328103,[],"[768, 432]",ColorTask,44.0,84.0,,,HRV,HRV_0056,2022-11-30 18:07:21
,wl-rdm,92,258459,0.0-6.84-0.84,0.0,93.0,,,,,,,[],,,,,,56.4,1.0,u,0.0,False,674.3999998569489,41.0,60.0,40.0,False,,225.67710863086504,[],"[768, 432]",ColorTask,43.0,85.0,,,HRV,HRV_0056,2022-11-30 18:07:21
,wl-rdm,93,260442,0.0-6.85-0.85,0.0,94.0,,,,,,,[],,,,,,50.0,0.0,i,1.0,False,630.8000001907349,38.0,60.0,40.0,False,,272.5876307335934,[],"[768, 432]",ColorTask,42.0,86.0,,,HRV,HRV_0056,2022-11-30 18:07:21
,wl-rdm,94,263093,0.0-6.86-0.86,0.0,95.0,,,,,,,[],,,,,,53.2,1.0,u,0.0,False,1273.3000001907349,77.0,60.0,40.0,False,,305.5581859252841,[],"[768, 432]",ColorTask,41.0,87.0,,,HRV,HRV_0056,2022-11-30 18:07:21
,wl-rdm,95,266342,0.0-6.87-0.87,0.0,96.0,,,,,,,[],,,,,,50.0,1.0,u,0.0,False,1874.5,113.0,60.0,40.0,False,,296.92993691136064,[],"[768, 432]",ColorTask,40.0,88.0,,,HRV,HRV_0056,2022-11-30 18:07:21
,wl-rdm,96,268876,0.0-6.88-0.88,0.0,97.0,,,,,,,[],,,,,,62.5,1.0,i,1.0,True,1219.9000000953674,74.0,60.0,40.0,False,,248.55899010304464,[],"[768, 432]",ColorTask,41.0,89.0,,,HRV,HRV_0056,2022-11-30 18:07:21
,wl-rdm,97,271392,0.0-6.89-0.89,0.0,98.0,,,,,,,[],,,,,,50.0,1.0,i,1.0,True,1194.6999998092651,72.0,60.0,40.0,False,,235.89256364682157,[],"[768, 432]",ColorTask,42.0,90.0,,,HRV,HRV_0056,2022-11-30 18:07:21
,wl-rdm,98,273960,0.0-6.90-0.90,0.0,99.0,,,,,,,[],,,,,,62.5,0.0,u,0.0,True,1199.2999997138977,72.0,60.0,40.0,False,,304.0878513868081,[],"[768, 432]",ColorTask,43.0,91.0,,,HRV,HRV_0056,2022-11-30 18:07:21
,wl-rdm,99,276410,0.0-6.91-0.91,0.0,100.0,,,,,,,[],,,,,,50.0,0.0,u,0.0,True,1036.2999999523163,63.0,60.0,40.0,False,,339.15363033787185,[],"[768, 432]",ColorTask,44.0,92.0,,,HRV,HRV_0056,2022-11-30 18:07:21
,wl-rdm,100,278727,0.0-6.92-0.92,0.0,101.0,,,,,,,[],,,,,,62.5,1.0,u,0.0,False,857.1000001430511,52.0,60.0,40.0,False,,399.0808350069219,[],"[768, 432]",ColorTask,43.0,93.0,,,HRV,HRV_0056,2022-11-30 18:07:21
,wl-rdm,101,280893,0.0-6.93-0.93,0.0,102.0,,,,,,,[],,,,,,73.6,1.0,i,1.0,True,739.0999999046326,45.0,60.0,40.0,False,,334.4235115440779,[],"[768, 432]",ColorTask,44.0,94.0,,,HRV,HRV_0056,2022-11-30 18:07:21
,wl-rdm,102,283094,0.0-6.94-0.94,0.0,103.0,,,,,,,[],,,,,,62.5,0.0,u,0.0,True,756.7999999523163,46.0,60.0,40.0,False,,378.98836148933185,[],"[768, 432]",ColorTask,45.0,95.0,,,HRV,HRV_0056,2022-11-30 18:07:21
,wl-rdm,103,285276,0.0-6.95-0.95,0.0,104.0,,,,,,,[],,,,,,87.9,1.0,i,1.0,True,769.6000001430511,47.0,60.0,40.0,False,,323.13950710548,[],"[768, 432]",ColorTask,46.0,96.0,,,HRV,HRV_0056,2022-11-30 18:07:21
,wl-rdm,104,287277,0.0-6.96-0.96,0.0,105.0,,,,,,,[],,,,,,56.4,1.0,u,0.0,False,692.5999999046326,42.0,60.0,40.0,False,,224.8422605945434,[],"[768, 432]",ColorTask,45.0,97.0,,,HRV,HRV_0056,2022-11-30 18:07:21
,wl-rdm,105,289193,0.0-6.97-0.97,0.0,106.0,,,,,,,[],,,,,,50.0,1.0,i,1.0,True,568.8000001907349,35.0,60.0,40.0,False,,263.77170266395365,[],"[768, 432]",ColorTask,46.0,98.0,,,HRV,HRV_0056,2022-11-30 18:07:21
,wl-rdm,106,291543,0.0-6.98-0.98,0.0,107.0,,,,,,,[],,,,,,56.4,1.0,i,1.0,True,912.3000001907349,55.0,60.0,40.0,False,,374.5392565090969,[],"[768, 432]",ColorTask,47.0,99.0,,,HRV,HRV_0056,2022-11-30 18:07:21
,wl-rdm,107,293376,0.0-6.99-0.99,0.0,108.0,,,,,,,[],,,,,,87.9,1.0,i,1.0,True,520.7999999523163,32.0,60.0,40.0,False,,221.16178090304342,[],"[768, 432]",ColorTask,48.0,100.0,,,HRV,HRV_0056,2022-11-30 18:07:21
,wl-rdm,108,295310,0.0-6.100-0.100,0.0,109.0,,,,,,,[],,,,,,62.5,0.0,i,1.0,False,572.1000001430511,35.0,60.0,40.0,False,,296.090714200016,[],"[768, 432]",ColorTask,47.0,101.0,,,HRV,HRV_0056,2022-11-30 18:07:21
,wl-rdm,109,298961,0.0-6.101-0.101,0.0,110.0,,,,,,,[],,,,,,56.4,0.0,i,1.0,False,2275.0,137.0,60.0,40.0,False,,312.2031894917307,[],"[768, 432]",ColorTask,46.0,102.0,,,HRV,HRV_0056,2022-11-30 18:07:21
,wl-rdm,110,300911,0.0-6.102-0.102,0.0,111.0,,,,,,,[],,,,,,87.9,0.0,u,0.0,True,654.7999999523163,40.0,60.0,40.0,False,,228.77990887193067,[],"[768, 432]",ColorTask,47.0,103.0,,,HRV,HRV_0056,2022-11-30 18:07:21
,wl-rdm,111,303394,0.0-6.103-0.103,0.0,112.0,,,,,,,[],,,,,,73.6,0.0,u,0.0,True,1169.3999998569489,71.0,60.0,40.0,False,,216.8663657267199,[],"[768, 432]",ColorTask,48.0,104.0,,,HRV,HRV_0056,2022-11-30 18:07:21
,wl-rdm,112,305411,0.0-6.104-0.104,0.0,113.0,,,,,,,[],,,,,,73.6,0.0,u,0.0,True,706.2999999523163,43.0,60.0,40.0,False,,231.01876700237221,[],"[768, 432]",ColorTask,49.0,105.0,,,HRV,HRV_0056,2022-11-30 18:07:21
,wl-rdm,113,307294,0.0-6.105-0.105,0.0,114.0,,,,,,,[],,,,,,87.9,0.0,u,0.0,True,542.0,33.0,60.0,40.0,False,,279.7396094341375,[],"[768, 432]",ColorTask,50.0,106.0,,,HRV,HRV_0056,2022-11-30 18:07:21
,wl-rdm,114,309543,0.0-6.106-0.106,0.0,115.0,,,,,,,[],,,,,,50.0,0.0,u,0.0,True,805.7000000476837,49.0,60.0,40.0,False,,358.2736717907563,[],"[768, 432]",ColorTask,51.0,107.0,,,HRV,HRV_0056,2022-11-30 18:07:21
,wl-rdm,115,312610,0.0-6.107-0.107,0.0,116.0,,,,,,,[],,,,,,50.0,0.0,u,0.0,True,1730.6999998092651,104.0,60.0,40.0,False,,276.98291181036336,[],"[768, 432]",ColorTask,52.0,108.0,,,HRV,HRV_0056,2022-11-30 18:07:21
,wl-html-keyboard-response,116,347473,0.0-7.0-0.0,1.0,117.0,,,,,,,,32857.09999990463,1.0,0,,,,,,,,,,,,,,,,,,,,,,HRV,HRV_0056,2022-11-30 18:07:21
,wl-rdm,117,349544,0.0-8.0-0.0,1.0,118.0,,,,,,,[],,,,,,73.6,1.0,i,1.0,True,790.5,48.0,60.0,40.0,False,,201.45167569288708,[],"[768, 432]",ColorTask,53.0,1.0,,,HRV,HRV_0056,2022-11-30 18:07:21
,wl-rdm,118,352427,0.0-8.1-0.1,1.0,119.0,,,,,,,[],,,,,,53.2,0.0,i,1.0,False,1596.0,96.0,60.0,40.0,False,,211.59428407085232,[],"[768, 432]",ColorTask,52.0,2.0,,,HRV,HRV_0056,2022-11-30 18:07:21
,wl-rdm,119,354377,0.0-8.2-0.2,1.0,120.0,,,,,,,[],,,,,,87.9,0.0,u,0.0,True,610.6000001430511,37.0,60.0,40.0,False,,249.85430739113662,[],"[768, 432]",ColorTask,53.0,3.0,,,HRV,HRV_0056,2022-11-30 18:07:21
,wl-rdm,120,357127,0.0-8.3-0.3,1.0,121.0,,,,,,,[],,,,,,73.6,1.0,i,1.0,True,1432.7000000476837,86.0,60.0,40.0,False,,247.1941026116423,[],"[768, 432]",ColorTask,54.0,4.0,,,HRV,HRV_0056,2022-11-30 18:07:21
,wl-rdm,121,359560,0.0-8.4-0.4,1.0,122.0,,,,,,,[],,,,,,62.5,0.0,u,0.0,True,1090.7000000476837,66.0,60.0,40.0,False,,262.21720658843356,[],"[768, 432]",ColorTask,55.0,5.0,,,HRV,HRV_0056,2022-11-30 18:07:21
,wl-rdm,122,361861,0.0-8.5-0.5,1.0,123.0,,,,,,,[],,,,,,50.0,0.0,u,0.0,True,940.5999999046326,57.0,60.0,40.0,False,,288.3283503704168,[],"[768, 432]",ColorTask,56.0,6.0,,,HRV,HRV_0056,2022-11-30 18:07:21
,wl-rdm,123,364894,0.0-8.6-0.6,1.0,124.0,,,,,,,[],,,,,,50.0,1.0,u,0.0,False,1678.7999999523163,101.0,60.0,40.0,False,,268.64881977248666,[],"[768, 432]",ColorTask,55.0,7.0,,,HRV,HRV_0056,2022-11-30 18:07:21
,wl-rdm,124,366778,0.0-8.7-0.7,1.0,125.0,,,,,,,[],,,,,,87.9,1.0,i,1.0,True,529.9999997615814,32.0,60.0,40.0,False,,287.56658102554945,[],"[768, 432]",ColorTask,56.0,8.0,,,HRV,HRV_0056,2022-11-30 18:07:21
,wl-rdm,125,369562,0.0-8.8-0.8,1.0,126.0,,,,,,,[],,,,,,56.4,0.0,i,1.0,False,1322.2000000476837,80.0,60.0,40.0,False,,396.0118577225876,[],"[768, 432]",ColorTask,55.0,9.0,,,HRV,HRV_0056,2022-11-30 18:07:21
,wl-rdm,126,371844,0.0-8.9-0.9,1.0,127.0,,,,,,,[],,,,,,53.2,1.0,i,1.0,True,956.7999999523163,58.0,60.0,40.0,False,,249.13478982211706,[],"[768, 432]",ColorTask,56.0,10.0,,,HRV,HRV_0056,2022-11-30 18:07:21
,wl-rdm,127,373928,0.0-8.10-0.10,1.0,128.0,,,,,,,[],,,,,,87.9,0.0,u,0.0,True,783.5999999046326,47.0,60.0,40.0,False,,237.9460684102791,[],"[768, 432]",ColorTask,57.0,11.0,,,HRV,HRV_0056,2022-11-30 18:07:21
,wl-rdm,128,376027,0.0-8.11-0.11,1.0,129.0,,,,,,,[],,,,,,87.9,1.0,i,1.0,True,805.2000000476837,49.0,60.0,40.0,False,,203.35308255966356,[],"[768, 432]",ColorTask,58.0,12.0,,,HRV,HRV_0056,2022-11-30 18:07:21
,wl-rdm,129,379361,0.0-8.12-0.12,1.0,130.0,,,,,,,[],,,,,,53.2,1.0,i,1.0,True,2001.5999999046326,121.0,60.0,40.0,False,,255.95569459442237,[],"[768, 432]",ColorTask,59.0,13.0,,,HRV,HRV_0056,2022-11-30 18:07:21
,wl-rdm,130,381728,0.0-8.13-0.13,1.0,131.0,,,,,,,[],,,,,,73.6,0.0,u,0.0,True,976.0,59.0,60.0,40.0,False,,316.0826021668232,[],"[768, 432]",ColorTask,60.0,14.0,,,HRV,HRV_0056,2022-11-30 18:07:21
,wl-rdm,131,384611,0.0-8.14-0.14,1.0,132.0,,,,,,,[],,,,,,50.0,1.0,u,0.0,False,1525.2000000476837,92.0,60.0,40.0,False,,279.2000555465733,[],"[768, 432]",ColorTask,59.0,15.0,,,HRV,HRV_0056,2022-11-30 18:07:21
,wl-rdm,132,387395,0.0-8.15-0.15,1.0,133.0,,,,,,,[],,,,,,50.0,1.0,i,1.0,True,1464.0999999046326,88.0,60.0,40.0,False,,238.8046594163037,[],"[768, 432]",ColorTask,60.0,16.0,,,HRV,HRV_0056,2022-11-30 18:07:21
,wl-rdm,133,391011,0.0-8.16-0.16,1.0,134.0,,,,,,,[],,,,,,53.2,0.0,u,0.0,True,2259.300000190735,136.0,60.0,40.0,False,,288.09434774509964,[],"[768, 432]",ColorTask,61.0,17.0,,,HRV,HRV_0056,2022-11-30 18:07:21
,wl-rdm,134,393544,0.0-8.17-0.17,1.0,135.0,,,,,,,[],,,,,,50.0,0.0,u,0.0,True,1240.7999999523163,75.0,60.0,40.0,False,,209.19529882378043,[],"[768, 432]",ColorTask,62.0,18.0,,,HRV,HRV_0056,2022-11-30 18:07:21
,wl-rdm,135,396344,0.0-8.18-0.18,1.0,136.0,,,,,,,[],,,,,,62.5,1.0,u,0.0,False,1425.7000000476837,86.0,60.0,40.0,False,,286.65944414664244,[],"[768, 432]",ColorTask,61.0,19.0,,,HRV,HRV_0056,2022-11-30 18:07:21
,wl-rdm,136,398444,0.0-8.19-0.19,1.0,137.0,,,,,,,[],,,,,,56.4,0.0,i,1.0,False,674.0,41.0,60.0,40.0,False,,355.72597524500037,[],"[768, 432]",ColorTask,60.0,20.0,,,HRV,HRV_0056,2022-11-30 18:07:21
,wl-rdm,137,400512,0.0-8.20-0.20,1.0,138.0,,,,,,,[],,,,,,56.4,1.0,u,0.0,False,673.7999999523163,41.0,60.0,40.0,False,,331.5303679490115,[],"[768, 432]",ColorTask,59.0,21.0,,,HRV,HRV_0056,2022-11-30 18:07:21
,wl-rdm,138,402627,0.0-8.21-0.21,1.0,139.0,,,,,,,[],,,,,,87.9,0.0,i,1.0,False,808.7000000476837,49.0,60.0,40.0,False,,223.51601621901327,[],"[768, 432]",ColorTask,58.0,22.0,,,HRV,HRV_0056,2022-11-30 18:07:21
,wl-rdm,139,404695,0.0-8.22-0.22,1.0,140.0,,,,,,,[],,,,,,73.6,0.0,u,0.0,True,773.7000000476837,47.0,60.0,40.0,False,,225.08448906314183,[],"[768, 432]",ColorTask,59.0,23.0,,,HRV,HRV_0056,2022-11-30 18:07:21
,wl-rdm,140,406744,0.0-8.23-0.23,1.0,141.0,,,,,,,[],,,,,,73.6,0.0,u,0.0,True,679.2000000476837,41.0,60.0,40.0,False,,314.8806610157043,[],"[768, 432]",ColorTask,60.0,24.0,,,HRV,HRV_0056,2022-11-30 18:07:21
,wl-rdm,141,408861,0.0-8.24-0.24,1.0,142.0,,,,,,,[],,,,,,50.0,1.0,u,0.0,False,749.4000000953674,45.0,60.0,40.0,False,,286.9095029480584,[],"[768, 432]",ColorTask,59.0,25.0,,,HRV,HRV_0056,2022-11-30 18:07:21
,wl-rdm,142,410661,0.0-8.25-0.25,1.0,143.0,,,,,,,[],,,,,,56.4,1.0,i,1.0,True,380.900000333786,23.0,60.0,40.0,False,,333.94574782729285,[],"[768, 432]",ColorTask,60.0,26.0,,,HRV,HRV_0056,2022-11-30 18:07:21
,wl-rdm,143,413278,0.0-8.26-0.26,1.0,144.0,,,,,,,[],,,,,,56.4,0.0,u,0.0,True,1250.2999999523163,75.0,60.0,40.0,False,,295.61916370510096,[],"[768, 432]",ColorTask,61.0,27.0,,,HRV,HRV_0056,2022-11-30 18:07:21
,wl-rdm,144,415545,0.0-8.27-0.27,1.0,145.0,,,,,,,[],,,,,,53.2,0.0,u,0.0,True,996.2000000476837,61.0,60.0,40.0,False,,213.03828018022335,[],"[768, 432]",ColorTask,62.0,28.0,,,HRV,HRV_0056,2022-11-30 18:07:21
,wl-rdm,145,417745,0.0-8.28-0.28,1.0,146.0,,,,,,,[],,,,,,62.5,0.0,u,0.0,True,764.7999999523163,46.0,60.0,40.0,False,,361.14651471694833,[],"[768, 432]",ColorTask,63.0,29.0,,,HRV,HRV_0056,2022-11-30 18:07:21
,wl-rdm,146,421245,0.0-8.29-0.29,1.0,147.0,,,,,,,[],,,,,,50.0,0.0,u,0.0,True,2137.300000190735,129.0,60.0,40.0,False,,282.25401402952457,[],"[768, 432]",ColorTask,64.0,30.0,,,HRV,HRV_0056,2022-11-30 18:07:21
,wl-rdm,147,423162,0.0-8.30-0.30,1.0,148.0,,,,,,,[],,,,,,87.9,1.0,i,1.0,True,653.4000000953674,40.0,60.0,40.0,False,,200.71112853988,[],"[768, 432]",ColorTask,65.0,31.0,,,HRV,HRV_0056,2022-11-30 18:07:21
,wl-rdm,148,425828,0.0-8.31-0.31,1.0,149.0,,,,,,,[],,,,,,53.2,0.0,u,0.0,True,1343.4000000953674,81.0,60.0,40.0,False,,237.0312358527567,[],"[768, 432]",ColorTask,66.0,32.0,,,HRV,HRV_0056,2022-11-30 18:07:21
,wl-rdm,149,427812,0.0-8.32-0.32,1.0,150.0,,,,,,,[],,,,,,50.0,0.0,u,0.0,True,675.0,41.0,60.0,40.0,False,,240.31815568712122,[],"[768, 432]",ColorTask,67.0,33.0,,,HRV,HRV_0056,2022-11-30 18:07:21
,wl-rdm,150,429795,0.0-8.33-0.33,1.0,151.0,,,,,,,[],,,,,,73.6,0.0,u,0.0,True,662.6000001430511,40.0,60.0,40.0,False,,246.35348809663344,[],"[768, 432]",ColorTask,68.0,34.0,,,HRV,HRV_0056,2022-11-30 18:07:21
,wl-rdm,151,431812,0.0-8.34-0.34,1.0,152.0,,,,,,,[],,,,,,56.4,1.0,u,0.0,False,662.2999999523163,40.0,60.0,40.0,False,,296.4578379265489,[],"[768, 432]",ColorTask,67.0,35.0,,,HRV,HRV_0056,2022-11-30 18:07:21
,wl-rdm,152,434479,0.0-8.35-0.35,1.0,153.0,,,,,,,[],,,,,,56.4,0.0,i,1.0,False,1254.2000000476837,76.0,60.0,40.0,False,,322.9923292070974,[],"[768, 432]",ColorTask,66.0,36.0,,,HRV,HRV_0056,2022-11-30 18:07:21
,wl-rdm,153,437428,0.0-8.36-0.36,1.0,154.0,,,,,,,[],,,,,,50.0,0.0,u,0.0,True,1645.8000001907349,99.0,60.0,40.0,False,,224.8487023119198,[],"[768, 432]",ColorTask,67.0,37.0,,,HRV,HRV_0056,2022-11-30 18:07:21
,wl-rdm,154,439578,0.0-8.37-0.37,1.0,155.0,,,,,,,[],,,,,,53.2,0.0,u,0.0,True,769.9000000953674,47.0,60.0,40.0,False,,288.17852274095634,[],"[768, 432]",ColorTask,68.0,38.0,,,HRV,HRV_0056,2022-11-30 18:07:21
,wl-rdm,155,442029,0.0-8.38-0.38,1.0,156.0,,,,,,,[],,,,,,56.4,1.0,u,0.0,False,1093.9000000953674,66.0,60.0,40.0,False,,278.02718194901985,[],"[768, 432]",ColorTask,67.0,39.0,,,HRV,HRV_0056,2022-11-30 18:07:21
,wl-rdm,156,444295,0.0-8.39-0.39,1.0,157.0,,,,,,,[],,,,,,62.5,1.0,i,1.0,True,945.7000000476837,57.0,60.0,40.0,False,,244.39613857236895,[],"[768, 432]",ColorTask,68.0,40.0,,,HRV,HRV_0056,2022-11-30 18:07:21
,wl-rdm,157,446862,0.0-8.40-0.40,1.0,158.0,,,,,,,[],,,,,,50.0,1.0,i,1.0,True,1278.0999999046326,77.0,60.0,40.0,False,,226.09559007981517,[],"[768, 432]",ColorTask,69.0,41.0,,,HRV,HRV_0056,2022-11-30 18:07:21
,wl-rdm,158,449629,0.0-8.41-0.41,1.0,159.0,,,,,,,[],,,,,,56.4,1.0,i,1.0,True,1369.7000000476837,83.0,60.0,40.0,False,,321.02823533403784,[],"[768, 432]",ColorTask,70.0,42.0,,,HRV,HRV_0056,2022-11-30 18:07:21
,wl-rdm,159,451729,0.0-8.42-0.42,1.0,160.0,,,,,,,[],,,,,,87.9,1.0,i,1.0,True,787.7000000476837,48.0,60.0,40.0,False,,218.30537771389217,[],"[768, 432]",ColorTask,71.0,43.0,,,HRV,HRV_0056,2022-11-30 18:07:21
,wl-rdm,160,453946,0.0-8.43-0.43,1.0,161.0,,,,,,,[],,,,,,73.6,1.0,i,1.0,True,785.6999998092651,48.0,60.0,40.0,False,,366.32326625823094,[],"[768, 432]",ColorTask,72.0,44.0,,,HRV,HRV_0056,2022-11-30 18:07:21
,wl-rdm,161,456296,0.0-8.44-0.44,1.0,162.0,,,,,,,[],,,,,,62.5,0.0,u,0.0,True,1062.5,64.0,60.0,40.0,False,,216.5741335198043,[],"[768, 432]",ColorTask,73.0,45.0,,,HRV,HRV_0056,2022-11-30 18:07:21
,wl-rdm,162,458529,0.0-8.45-0.45,1.0,163.0,,,,,,,[],,,,,,53.2,1.0,u,0.0,False,936.8000001907349,57.0,60.0,40.0,False,,202.43025503120768,[],"[768, 432]",ColorTask,72.0,46.0,,,HRV,HRV_0056,2022-11-30 18:07:21
,wl-rdm,163,460329,0.0-8.46-0.46,1.0,164.0,,,,,,,[],,,,,,73.6,0.0,i,1.0,False,506.2000000476837,31.0,60.0,40.0,False,,205.56215881560985,[],"[768, 432]",ColorTask,71.0,47.0,,,HRV,HRV_0056,2022-11-30 18:07:21
,wl-rdm,164,462147,0.0-8.47-0.47,1.0,165.0,,,,,,,[],,,,,,87.9,0.0,u,0.0,True,528.2999999523163,32.0,60.0,40.0,False,,203.47236593855595,[],"[768, 432]",ColorTask,72.0,48.0,,,HRV,HRV_0056,2022-11-30 18:07:21
,wl-rdm,165,464263,0.0-8.48-0.48,1.0,166.0,,,,,,,[],,,,,,87.9,0.0,u,0.0,True,803.7999999523163,49.0,60.0,40.0,False,,227.6148661501765,[],"[768, 432]",ColorTask,73.0,49.0,,,HRV,HRV_0056,2022-11-30 18:07:21
,wl-rdm,166,466579,0.0-8.49-0.49,1.0,167.0,,,,,,,[],,,,,,73.6,0.0,u,0.0,True,840.2000000476837,51.0,60.0,40.0,False,,389.29529843539444,[],"[768, 432]",ColorTask,74.0,50.0,,,HRV,HRV_0056,2022-11-30 18:07:21
,wl-rdm,167,468747,0.0-8.50-0.50,1.0,168.0,,,,,,,[],,,,,,73.6,1.0,i,1.0,True,882.0,53.0,60.0,40.0,False,,231.56978400898785,[],"[768, 432]",ColorTask,75.0,51.0,,,HRV,HRV_0056,2022-11-30 18:07:21
,wl-rdm,168,470979,0.0-8.51-0.51,1.0,169.0,,,,,,,[],,,,,,56.4,1.0,u,0.0,False,891.2999999523163,54.0,60.0,40.0,False,,266.16520752001736,[],"[768, 432]",ColorTask,74.0,52.0,,,HRV,HRV_0056,2022-11-30 18:07:21
,wl-rdm,169,472813,0.0-8.52-0.52,1.0,170.0,,,,,,,[],,,,,,53.2,1.0,u,0.0,False,528.2000000476837,32.0,60.0,40.0,False,,231.37779545329371,[],"[768, 432]",ColorTask,73.0,53.0,,,HRV,HRV_0056,2022-11-30 18:07:21
,wl-rdm,170,475296,0.0-8.53-0.53,1.0,171.0,,,,,,,[],,,,,,56.4,0.0,i,1.0,False,1098.3000001907349,66.0,60.0,40.0,False,,306.6341733728307,[],"[768, 432]",ColorTask,72.0,54.0,,,HRV,HRV_0056,2022-11-30 18:07:21
,wl-rdm,171,477097,0.0-8.54-0.54,1.0,172.0,,,,,,,[],,,,,,56.4,1.0,u,0.0,False,369.7999999523163,23.0,60.0,40.0,False,,366.82734230067234,[],"[768, 432]",ColorTask,71.0,55.0,,,HRV,HRV_0056,2022-11-30 18:07:21
,wl-rdm,172,479880,0.0-8.55-0.55,1.0,173.0,,,,,,,[],,,,,,62.5,1.0,i,1.0,True,1377.8999998569489,83.0,60.0,40.0,False,,339.3129029439061,[],"[768, 432]",ColorTask,72.0,56.0,,,HRV,HRV_0056,2022-11-30 18:07:21
,wl-rdm,173,482747,0.0-8.56-0.56,1.0,174.0,,,,,,,[],,,,,,50.0,1.0,i,1.0,True,1553.1000001430511,94.0,60.0,40.0,False,,241.94550826717273,[],"[768, 432]",ColorTask,73.0,57.0,,,HRV,HRV_0056,2022-11-30 18:07:21
,wl-rdm,174,485630,0.0-8.57-0.57,1.0,175.0,,,,,,,[],,,,,,53.2,0.0,u,0.0,True,1521.5999999046326,92.0,60.0,40.0,False,,281.52724691414085,[],"[768, 432]",ColorTask,74.0,58.0,,,HRV,HRV_0056,2022-11-30 18:07:21
,wl-rdm,175,488497,0.0-8.58-0.58,1.0,176.0,,,,,,,[],,,,,,62.5,1.0,i,1.0,True,1457.5999999046326,88.0,60.0,40.0,False,,332.443926141264,[],"[768, 432]",ColorTask,75.0,59.0,,,HRV,HRV_0056,2022-11-30 18:07:21
,wl-rdm,176,490514,0.0-8.59-0.59,1.0,177.0,,,,,,,[],,,,,,50.0,0.0,i,1.0,False,724.2999999523163,44.0,60.0,40.0,False,,221.01956714145473,[],"[768, 432]",ColorTask,74.0,60.0,,,HRV,HRV_0056,2022-11-30 18:07:21
,wl-rdm,177,492313,0.0-8.60-0.60,1.0,178.0,,,,,,,[],,,,,,62.5,1.0,u,0.0,False,333.89999985694885,20.0,60.0,40.0,False,,392.911263399608,[],"[768, 432]",ColorTask,73.0,61.0,,,HRV,HRV_0056,2022-11-30 18:07:21
,wl-rdm,178,494163,0.0-8.61-0.61,1.0,179.0,,,,,,,[],,,,,,73.6,0.0,u,0.0,True,526.0000002384186,32.0,60.0,40.0,False,,249.3890936127314,[],"[768, 432]",ColorTask,74.0,62.0,,,HRV,HRV_0056,2022-11-30 18:07:21
,wl-rdm,179,497613,0.0-8.62-0.62,1.0,180.0,,,,,,,[],,,,,,53.2,0.0,u,0.0,True,2020.2999999523163,122.0,60.0,40.0,False,,342.77120770695444,[],"[768, 432]",ColorTask,75.0,63.0,,,HRV,HRV_0056,2022-11-30 18:07:21
,wl-rdm,180,499780,0.0-8.63-0.63,1.0,181.0,,,,,,,[],,,,,,73.6,1.0,i,1.0,True,703.0,43.0,60.0,40.0,False,,384.2585982485232,[],"[768, 432]",ColorTask,76.0,64.0,,,HRV,HRV_0056,2022-11-30 18:07:21
,wl-rdm,181,501813,0.0-8.64-0.64,1.0,182.0,,,,,,,[],,,,,,73.6,1.0,u,0.0,False,740.2000000476837,45.0,60.0,40.0,False,,205.43853603161963,[],"[768, 432]",ColorTask,75.0,65.0,,,HRV,HRV_0056,2022-11-30 18:07:21
,wl-rdm,182,504131,0.0-8.65-0.65,1.0,183.0,,,,,,,[],,,,,,53.2,1.0,u,0.0,False,920.3999998569489,56.0,60.0,40.0,False,,308.3233131348265,[],"[768, 432]",ColorTask,74.0,66.0,,,HRV,HRV_0056,2022-11-30 18:07:21
,wl-rdm,183,506530,0.0-8.66-0.66,1.0,184.0,,,,,,,[],,,,,,73.6,1.0,i,1.0,True,1048.3000001907349,63.0,60.0,40.0,False,,282.8184283727551,[],"[768, 432]",ColorTask,75.0,67.0,,,HRV,HRV_0056,2022-11-30 18:07:21
,wl-rdm,184,508430,0.0-8.67-0.67,1.0,185.0,,,,,,,[],,,,,,87.9,1.0,i,1.0,True,570.7999997138977,35.0,60.0,40.0,False,,260.75702615035135,[],"[768, 432]",ColorTask,76.0,68.0,,,HRV,HRV_0056,2022-11-30 18:07:21
,wl-rdm,185,511214,0.0-8.68-0.68,1.0,186.0,,,,,,,[],,,,,,56.4,0.0,u,0.0,True,1496.2999999523163,90.0,60.0,40.0,False,,222.96226806373886,[],"[768, 432]",ColorTask,77.0,69.0,,,HRV,HRV_0056,2022-11-30 18:07:21
,wl-rdm,186,513280,0.0-8.69-0.69,1.0,187.0,,,,,,,[],,,,,,87.9,1.0,i,1.0,True,631.5,38.0,60.0,40.0,False,,360.22311059114037,[],"[768, 432]",ColorTask,78.0,70.0,,,HRV,HRV_0056,2022-11-30 18:07:21
,wl-rdm,187,515464,0.0-8.70-0.70,1.0,188.0,,,,,,,[],,,,,,87.9,0.0,u,0.0,True,863.4999997615814,52.0,60.0,40.0,False,,234.3075859040363,[],"[768, 432]",ColorTask,79.0,71.0,,,HRV,HRV_0056,2022-11-30 18:07:21
,wl-rdm,188,518597,0.0-8.71-0.71,1.0,189.0,,,,,,,[],,,,,,53.2,1.0,u,0.0,False,1764.0999999046326,106.0,60.0,40.0,False,,312.3141627845062,[],"[768, 432]",ColorTask,78.0,72.0,,,HRV,HRV_0056,2022-11-30 18:07:21
,wl-rdm,189,521913,0.0-8.72-0.72,1.0,190.0,,,,,,,[],,,,,,87.9,1.0,i,1.0,True,1985.9000000953674,120.0,60.0,40.0,False,,235.18511212141203,[],"[768, 432]",ColorTask,79.0,73.0,,,HRV,HRV_0056,2022-11-30 18:07:21
,wl-rdm,190,524063,0.0-8.73-0.73,1.0,191.0,,,,,,,[],,,,,,87.9,0.0,u,0.0,True,753.2000000476837,46.0,60.0,40.0,False,,304.2115594740615,[],"[768, 432]",ColorTask,80.0,74.0,,,HRV,HRV_0056,2022-11-30 18:07:21
,wl-rdm,191,526764,0.0-8.74-0.74,1.0,192.0,,,,,,,[],,,,,,53.2,0.0,u,0.0,True,1338.2999999523163,81.0,60.0,40.0,False,,284.30707599980803,[],"[768, 432]",ColorTask,81.0,75.0,,,HRV,HRV_0056,2022-11-30 18:07:21
,wl-rdm,192,529414,0.0-8.75-0.75,1.0,193.0,,,,,,,[],,,,,,62.5,0.0,u,0.0,True,1237.0,75.0,60.0,40.0,False,,332.49310620895506,[],"[768, 432]",ColorTask,82.0,76.0,,,HRV,HRV_0056,2022-11-30 18:07:21
,wl-rdm,193,531397,0.0-8.76-0.76,1.0,194.0,,,,,,,[],,,,,,73.6,0.0,u,0.0,True,662.2999999523163,40.0,60.0,40.0,False,,240.27729962685794,[],"[768, 432]",ColorTask,83.0,77.0,,,HRV,HRV_0056,2022-11-30 18:07:21
,wl-rdm,194,533981,0.0-8.77-0.77,1.0,195.0,,,,,,,[],,,,,,87.9,1.0,i,1.0,True,1221.5999999046326,74.0,60.0,40.0,False,,298.36676977166155,[],"[768, 432]",ColorTask,84.0,78.0,,,HRV,HRV_0056,2022-11-30 18:07:21
,wl-rdm,195,536130,0.0-8.78-0.78,1.0,196.0,,,,,,,[],,,,,,73.6,1.0,i,1.0,True,770.0,47.0,60.0,40.0,False,,287.98049439489193,[],"[768, 432]",ColorTask,85.0,79.0,,,HRV,HRV_0056,2022-11-30 18:07:21
,wl-rdm,196,538147,0.0-8.79-0.79,1.0,197.0,,,,,,,[],,,,,,73.6,1.0,i,1.0,True,543.7999999523163,33.0,60.0,40.0,False,,385.665153822796,[],"[768, 432]",ColorTask,86.0,80.0,,,HRV,HRV_0056,2022-11-30 18:07:21
,wl-rdm,197,540230,0.0-8.80-0.80,1.0,198.0,,,,,,,[],,,,,,62.5,1.0,i,1.0,True,719.2999999523163,44.0,60.0,40.0,False,,280.17046940297405,[],"[768, 432]",ColorTask,87.0,81.0,,,HRV,HRV_0056,2022-11-30 18:07:21
,wl-rdm,198,542981,0.0-8.81-0.81,1.0,199.0,,,,,,,[],,,,,,56.4,0.0,u,0.0,True,1464.8000001907349,88.0,60.0,40.0,False,,221.31137370173266,[],"[768, 432]",ColorTask,88.0,82.0,,,HRV,HRV_0056,2022-11-30 18:07:21
,wl-rdm,199,545631,0.0-8.82-0.82,1.0,200.0,,,,,,,[],,,,,,50.0,1.0,u,0.0,False,1244.3000001907349,75.0,60.0,40.0,False,,324.11275043893585,[],"[768, 432]",ColorTask,87.0,83.0,,,HRV,HRV_0056,2022-11-30 18:07:21
,wl-rdm,200,547731,0.0-8.83-0.83,1.0,201.0,,,,,,,[],,,,,,62.5,0.0,u,0.0,True,826.1999998092651,50.0,60.0,40.0,False,,202.55800733292935,[],"[768, 432]",ColorTask,88.0,84.0,,,HRV,HRV_0056,2022-11-30 18:07:21
,wl-rdm,201,550081,0.0-8.84-0.84,1.0,202.0,,,,,,,[],,,,,,62.5,0.0,u,0.0,True,938.8999998569489,57.0,60.0,40.0,False,,340.7154507027575,[],"[768, 432]",ColorTask,89.0,85.0,,,HRV,HRV_0056,2022-11-30 18:07:21
,wl-rdm,202,552698,0.0-8.85-0.85,1.0,203.0,,,,,,,[],,,,,,56.4,1.0,i,1.0,True,1178.9000000953674,71.0,60.0,40.0,False,,381.64922053709927,[],"[768, 432]",ColorTask,90.0,86.0,,,HRV,HRV_0056,2022-11-30 18:07:21
,wl-rdm,203,555664,0.0-8.86-0.86,1.0,204.0,,,,,,,[],,,,,,62.5,1.0,u,0.0,False,1507.0,90.0,60.0,40.0,False,,373.0271913331038,[],"[768, 432]",ColorTask,89.0,87.0,,,HRV,HRV_0056,2022-11-30 18:07:21
,wl-rdm,204,557747,0.0-8.87-0.87,1.0,205.0,,,,,,,[],,,,,,62.5,1.0,i,1.0,True,752.5999999046326,46.0,60.0,40.0,False,,244.97773098817132,[],"[768, 432]",ColorTask,90.0,88.0,,,HRV,HRV_0056,2022-11-30 18:07:21
,wl-rdm,205,560965,0.0-8.88-0.88,1.0,206.0,,,,,,,[],,,,,,53.2,1.0,i,1.0,True,1760.3000001907349,106.0,60.0,40.0,False,,377.5487155698912,[],"[768, 432]",ColorTask,91.0,89.0,,,HRV,HRV_0056,2022-11-30 18:07:21
,wl-rdm,206,563731,0.0-8.89-0.89,1.0,207.0,,,,,,,[],,,,,,53.2,1.0,i,1.0,True,1420.2000000476837,86.0,60.0,40.0,False,,274.43476902441483,[],"[768, 432]",ColorTask,92.0,90.0,,,HRV,HRV_0056,2022-11-30 18:07:21
,wl-rdm,207,566148,0.0-8.90-0.90,1.0,208.0,,,,,,,[],,,,,,62.5,0.0,u,0.0,True,964.9000000953674,58.0,60.0,40.0,False,,387.57614145682896,[],"[768, 432]",ColorTask,93.0,91.0,,,HRV,HRV_0056,2022-11-30 18:07:21
,wl-rdm,208,570481,0.0-8.91-0.91,1.0,208.0,,,,,,,[],,,,,,62.5,0.0,u,,,3160.899999856949,179.0,60.0,40.0,True,RT_timeout ,248.60208397323254,[],"[768, 432]",ColorTask,92.0,92.0,,,HRV,HRV_0056,2022-11-30 18:07:21
,wl-rdm,209,572364,0.0-8.92-0.92,1.0,209.0,,,,,,,[],,,,,,56.4,0.0,u,0.0,True,444.2000000476837,27.0,60.0,40.0,False,,372.02081410066836,[],"[768, 432]",ColorTask,93.0,93.0,,,HRV,HRV_0056,2022-11-30 18:07:21
,wl-rdm,210,574280,0.0-8.93-0.93,1.0,210.0,,,,,,,[],,,,,,87.9,0.0,u,0.0,True,618.7000000476837,38.0,60.0,40.0,False,,215.78294887256342,[],"[768, 432]",ColorTask,94.0,94.0,,,HRV,HRV_0056,2022-11-30 18:07:21
,wl-rdm,211,576431,0.0-8.94-0.94,1.0,211.0,,,,,,,[],,,,,,50.0,1.0,i,1.0,True,678.0999999046326,41.0,60.0,40.0,False,,391.0691358949976,[],"[768, 432]",ColorTask,95.0,95.0,,,HRV,HRV_0056,2022-11-30 18:07:21
,wl-rdm,212,578881,0.0-8.95-0.95,1.0,212.0,,,,,,,[],,,,,,50.0,0.0,i,1.0,False,1160.4000000953674,70.0,60.0,40.0,False,,219.80262031862242,[],"[768, 432]",ColorTask,94.0,96.0,,,HRV,HRV_0056,2022-11-30 18:07:21
,wl-rdm,213,581414,0.0-8.96-0.96,1.0,213.0,,,,,,,[],,,,,,62.5,1.0,u,0.0,False,1058.8999998569489,64.0,60.0,40.0,False,,399.577536661943,[],"[768, 432]",ColorTask,93.0,97.0,,,HRV,HRV_0056,2022-11-30 18:07:21
,wl-rdm,214,583514,0.0-8.97-0.97,1.0,214.0,,,,,,,[],,,,,,87.9,1.0,i,1.0,True,772.2000002861023,47.0,60.0,40.0,False,,234.89915277920176,[],"[768, 432]",ColorTask,94.0,98.0,,,HRV,HRV_0056,2022-11-30 18:07:21
,wl-rdm,215,586181,0.0-8.98-0.98,1.0,215.0,,,,,,,[],,,,,,50.0,1.0,i,1.0,True,1290.2000000476837,78.0,60.0,40.0,False,,307.6459829619886,[],"[768, 432]",ColorTask,95.0,99.0,,,HRV,HRV_0056,2022-11-30 18:07:21
,wl-rdm,216,588648,0.0-8.99-0.99,1.0,216.0,,,,,,,[],,,,,,50.0,0.0,u,0.0,True,1088.0,66.0,60.0,40.0,False,,313.07261060059653,[],"[768, 432]",ColorTask,96.0,100.0,,,HRV,HRV_0056,2022-11-30 18:07:21
,wl-rdm,217,590848,0.0-8.100-0.100,1.0,217.0,,,,,,,[],,,,,,50.0,0.0,u,0.0,True,930.0,56.0,60.0,40.0,False,,204.72090637019184,[],"[768, 432]",ColorTask,97.0,101.0,,,HRV,HRV_0056,2022-11-30 18:07:21
,wl-rdm,218,592998,0.0-8.101-0.101,1.0,218.0,,,,,,,[],,,,,,53.2,1.0,u,0.0,False,838.6000001430511,51.0,60.0,40.0,False,,234.8055854665086,[],"[768, 432]",ColorTask,96.0,102.0,,,HRV,HRV_0056,2022-11-30 18:07:21
,wl-rdm,219,595615,0.0-8.102-0.102,1.0,219.0,,,,,,,[],,,,,,62.5,0.0,u,0.0,True,1210.4000000953674,73.0,60.0,40.0,False,,333.9991109249113,[],"[768, 432]",ColorTask,97.0,103.0,,,HRV,HRV_0056,2022-11-30 18:07:21
,wl-rdm,220,597965,0.0-8.103-0.103,1.0,220.0,,,,,,,[],,,,,,62.5,0.0,u,0.0,True,1073.9000000953674,65.0,60.0,40.0,False,,211.6922621722208,[],"[768, 432]",ColorTask,98.0,104.0,,,HRV,HRV_0056,2022-11-30 18:07:21
,wl-rdm,221,600064,0.0-8.104-0.104,1.0,221.0,,,,,,,[],,,,,,87.9,0.0,u,0.0,True,831.8999998569489,50.0,60.0,40.0,False,,206.46610522720468,[],"[768, 432]",ColorTask,99.0,105.0,,,HRV,HRV_0056,2022-11-30 18:07:21
,wl-rdm,222,601981,0.0-8.105-0.105,1.0,222.0,,,,,,,[],,,,,,56.4,1.0,u,0.0,False,634.7000000476837,39.0,60.0,40.0,False,,203.65593314942305,[],"[768, 432]",ColorTask,98.0,106.0,,,HRV,HRV_0056,2022-11-30 18:07:21
,wl-rdm,223,604131,0.0-8.106-0.106,1.0,223.0,,,,,,,[],,,,,,53.2,0.0,u,0.0,True,828.7999999523163,50.0,60.0,40.0,False,,238.28350207995166,[],"[768, 432]",ColorTask,99.0,107.0,,,HRV,HRV_0056,2022-11-30 18:07:21
,wl-rdm,224,607048,0.0-8.107-0.107,1.0,224.0,,,,,,,[],,,,,,56.4,0.0,i,1.0,False,1526.2999999523163,92.0,60.0,40.0,False,,309.58937725842037,[],"[768, 432]",ColorTask,98.0,108.0,,,HRV,HRV_0056,2022-11-30 18:07:21
,wl-rdm,225,609365,0.0-8.108-0.108,1.0,225.0,,,,,,,[],,,,,,73.6,0.0,u,0.0,True,894.3999998569489,54.0,60.0,40.0,False,,350.56551479398655,[],"[768, 432]",ColorTask,99.0,109.0,,,HRV,HRV_0056,2022-11-30 18:07:21
,wl-html-button-response,226,612261,0.0-9.0-0.0,,,,,,,,,,2889.4000000953674,,0,,,,,,,,,,,,,,,,,,,,<h3>End of this session. Thank you!</h3><br>,['Close window'],HRV,HRV_0056,2022-11-30 18:07:21
