trialN,stimuli,trialStartTime,trialStartTime_UNIX,stimulus1,stimulus2,stimulus1Bid,stimulus2Bid,delta,selected,rt,rt_UNIX,rt_perfnow,receivedResponse,rsp,trialEndTime,trialDuration,trialEndTime_UNIX,trialDuration_UNIX,exp,subjectId,date
0,"[{'imgObject': {}, 'id': 'olives', 'src': '/static/foodstim60/olives.jpg', 'key': 'u', 'origWidth': 410, 'origHeight': 410, 'width': 410, 'height': 410, 'widthPercent': 0.45, 'rescaleHeight': False, 'trialN': 0, 'loaded': True, 'loadedTime': 2234.9000000953674, 'positionName': 'LEFT', 'positionCoords': [327.28, 227], 'bid': 0.13}, {'imgObject': {}, 'id': 'edamame', 'src': '/static/foodstim60/edamame.jpg', 'key': 'i', 'origWidth': 409, 'origHeight': 410, 'width': 409, 'height': 410, 'widthPercent': 0.45, 'rescaleHeight': False, 'trialN': 0, 'loaded': True, 'loadedTime': 2369.5, 'positionName': 'RIGHT', 'positionCoords': [798.72, 227], 'bid': 0.01}]",2759.2000000476837,1669829588515,olives,edamame,0.13,0.01,-0.12000000000000001,olives,1172.2000000476837,1174,1173.9000000953674,True,u,4439.5,1680.2999999523163,1669829590195,1680,HRV,HRV_0056,2022-11-30 17:38:25
1,"[{'imgObject': {}, 'id': 'hotdog w must', 'src': '/static/foodstim60/hotdog w must.jpg', 'key': 'u', 'origWidth': 409, 'origHeight': 409, 'width': 409, 'height': 409, 'widthPercent': 0.45, 'rescaleHeight': False, 'trialN': 1, 'loaded': True, 'loadedTime': 2381.2000000476837, 'positionName': 'LEFT', 'positionCoords': [328.28, 227.5], 'bid': 0.18}, {'imgObject': {}, 'id': 'bagel plain', 'src': '/static/foodstim60/bagel plain.jpg', 'key': 'i', 'origWidth': 410, 'origHeight': 410, 'width': 410, 'height': 410, 'widthPercent': 0.45, 'rescaleHeight': False, 'trialN': 1, 'loaded': True, 'loadedTime': 2384.7000000476837, 'positionName': 'RIGHT', 'positionCoords': [798.72, 227], 'bid': 0.2}]",4439.700000047684,1669829590195,hotdog w must,bagel plain,0.18,0.2,0.020000000000000018,bagel plain,1071.9000000953674,1073,1072.4000000953674,True,i,6017.200000047684,1577.5,1669829591773,1578,HRV,HRV_0056,2022-11-30 17:38:25
2,"[{'imgObject': {}, 'id': 'burger', 'src': '/static/foodstim60/burger.jpg', 'key': 'u', 'origWidth': 409, 'origHeight': 409, 'width': 409, 'height': 409, 'widthPercent': 0.45, 'rescaleHeight': False, 'trialN': 2, 'loaded': True, 'loadedTime': 2390.4000000953674, 'positionName': 'LEFT', 'positionCoords': [328.28, 227.5], 'bid': 2.23}, {'imgObject': {}, 'id': 'popsicles', 'src': '/static/foodstim60/popsicles.jpg', 'key': 'i', 'origWidth': 410, 'origHeight': 410, 'width': 410, 'height': 410, 'widthPercent': 0.45, 'rescaleHeight': False, 'trialN': 2, 'loaded': True, 'loadedTime': 2758.5, 'positionName': 'RIGHT', 'positionCoords': [798.72, 227], 'bid': 2.43}]",6017.5,1669829591773,burger,popsicles,2.23,2.43,0.20000000000000018,popsicles,942.7000000476837,943,943.2000000476837,True,i,7463.799999952316,1446.2999999523163,1669829593220,1447,HRV,HRV_0056,2022-11-30 17:38:25
3,"[{'imgObject': {}, 'id': 'ice cream sundae 002', 'src': '/static/foodstim60/ice cream sundae 002.jpg', 'key': 'u', 'origWidth': 409, 'origHeight': 409, 'width': 409, 'height': 409, 'widthPercent': 0.45, 'rescaleHeight': False, 'trialN': 3, 'loaded': True, 'loadedTime': 2400.100000143051, 'positionName': 'LEFT', 'positionCoords': [328.28, 227.5], 'bid': 7.94}, {'imgObject': {}, 'id': 'corn cob', 'src': '/static/foodstim60/corn cob.jpg', 'key': 'i', 'origWidth': 411, 'origHeight': 411, 'width': 411, 'height': 411, 'widthPercent': 0.45, 'rescaleHeight': False, 'trialN': 3, 'loaded': True, 'loadedTime': 2402.7999999523163, 'positionName': 'RIGHT', 'positionCoords': [798.72, 226.5], 'bid': 0.87}]",7464.100000143051,1669829593220,ice cream sundae 002,corn cob,7.94,0.87,-7.07,ice cream sundae 002,787.8999998569489,788,788.1999998092651,True,u,8759.799999952316,1295.6999998092651,1669829594516,1296,HRV,HRV_0056,2022-11-30 17:38:25
4,"[{'imgObject': {}, 'id': 'fruitsalad', 'src': '/static/foodstim60/fruitsalad.jpg', 'key': 'u', 'origWidth': 410, 'origHeight': 410, 'width': 410, 'height': 410, 'widthPercent': 0.45, 'rescaleHeight': False, 'trialN': 4, 'loaded': True, 'loadedTime': 2406.7000000476837, 'positionName': 'LEFT', 'positionCoords': [327.28, 227], 'bid': 10}, {'imgObject': {}, 'id': 'bagel and cc', 'src': '/static/foodstim60/bagel and cc.jpg', 'key': 'i', 'origWidth': 410, 'origHeight': 410, 'width': 410, 'height': 410, 'widthPercent': 0.45, 'rescaleHeight': False, 'trialN': 4, 'loaded': True, 'loadedTime': 2412.600000143051, 'positionName': 'RIGHT', 'positionCoords': [798.72, 227], 'bid': 7.91}]",8760.0,1669829594516,fruitsalad,bagel and cc,10.0,7.91,-2.09,fruitsalad,797.7999999523163,798,798.5,True,u,10064.299999952316,1304.2999999523163,1669829595820,1304,HRV,HRV_0056,2022-11-30 17:38:25
5,"[{'imgObject': {}, 'id': 'hashbrowns', 'src': '/static/foodstim60/hashbrowns.jpg', 'key': 'u', 'origWidth': 411, 'origHeight': 410, 'width': 411, 'height': 410, 'widthPercent': 0.45, 'rescaleHeight': False, 'trialN': 5, 'loaded': True, 'loadedTime': 2413.9000000953674, 'positionName': 'LEFT', 'positionCoords': [326.28, 227], 'bid': 2.47}, {'imgObject': {}, 'id': 'tacos', 'src': '/static/foodstim60/tacos.jpg', 'key': 'i', 'origWidth': 411, 'origHeight': 411, 'width': 411, 'height': 411, 'widthPercent': 0.45, 'rescaleHeight': False, 'trialN': 5, 'loaded': True, 'loadedTime': 2420.2999999523163, 'positionName': 'RIGHT', 'positionCoords': [798.72, 226.5], 'bid': 3.29}]",10064.600000143051,1669829595820,hashbrowns,tacos,2.47,3.29,0.8199999999999998,hashbrowns,1291.7999999523163,1293,1292.1999998092651,True,u,11863.100000143051,1798.5,1669829597619,1799,HRV,HRV_0056,2022-11-30 17:38:25
6,"[{'imgObject': {}, 'id': 'seaweed', 'src': '/static/foodstim60/seaweed.jpg', 'key': 'u', 'origWidth': 410, 'origHeight': 410, 'width': 410, 'height': 410, 'widthPercent': 0.45, 'rescaleHeight': False, 'trialN': 6, 'loaded': True, 'loadedTime': 2426.7999999523163, 'positionName': 'LEFT', 'positionCoords': [327.28, 227], 'bid': 3.3200000000000003}, {'imgObject': {}, 'id': 'turkey sandwich', 'src': '/static/foodstim60/turkey sandwich.jpg', 'key': 'i', 'origWidth': 409, 'origHeight': 409, 'width': 409, 'height': 409, 'widthPercent': 0.45, 'rescaleHeight': False, 'trialN': 6, 'loaded': True, 'loadedTime': 2428.100000143051, 'positionName': 'RIGHT', 'positionCoords': [798.72, 227.5], 'bid': 5.4}]",11863.400000095367,1669829597619,seaweed,turkey sandwich,3.3200000000000003,5.4,2.08,seaweed,681.5,682,682.0,True,u,13047.900000095367,1184.5,1669829598804,1185,HRV,HRV_0056,2022-11-30 17:38:25
7,"[{'imgObject': {}, 'id': 'luckycharms', 'src': '/static/foodstim60/luckycharms.jpg', 'key': 'u', 'origWidth': 410, 'origHeight': 409, 'width': 410, 'height': 409, 'widthPercent': 0.45, 'rescaleHeight': False, 'trialN': 7, 'loaded': True, 'loadedTime': 2431.5, 'positionName': 'LEFT', 'positionCoords': [327.28, 227.5], 'bid': 0}, {'imgObject': {}, 'id': 'cherry tomato', 'src': '/static/foodstim60/cherry tomato.jpg', 'key': 'i', 'origWidth': 410, 'origHeight': 410, 'width': 410, 'height': 410, 'widthPercent': 0.45, 'rescaleHeight': False, 'trialN': 7, 'loaded': True, 'loadedTime': 2434.7999999523163, 'positionName': 'RIGHT', 'positionCoords': [798.72, 227], 'bid': 0.16}]",13048.100000143051,1669829598804,luckycharms,cherry tomato,0.0,0.16,0.16,cherry tomato,741,741,741.3999998569489,True,i,14295.900000095367,1247.7999999523163,1669829600052,1248,HRV,HRV_0056,2022-11-30 17:38:25
8,"[{'imgObject': {}, 'id': 'avocado', 'src': '/static/foodstim60/avocado.jpg', 'key': 'u', 'origWidth': 409, 'origHeight': 409, 'width': 409, 'height': 409, 'widthPercent': 0.45, 'rescaleHeight': False, 'trialN': 8, 'loaded': True, 'loadedTime': 2447.9000000953674, 'positionName': 'LEFT', 'positionCoords': [328.28, 227.5], 'bid': 7.25}, {'imgObject': {}, 'id': 'chicken nuggets2', 'src': '/static/foodstim60/chicken nuggets2.jpg', 'key': 'i', 'origWidth': 410, 'origHeight': 409, 'width': 410, 'height': 409, 'widthPercent': 0.45, 'rescaleHeight': False, 'trialN': 8, 'loaded': True, 'loadedTime': 2508.7999999523163, 'positionName': 'RIGHT', 'positionCoords': [798.72, 227.5], 'bid': 6.44}]",14296.200000047684,1669829600052,avocado,chicken nuggets2,7.25,6.44,-0.8099999999999996,avocado,756.2999999523163,757,757.0999999046326,True,u,15559.700000047684,1263.5,1669829601315,1263,HRV,HRV_0056,2022-11-30 17:38:25
9,"[{'imgObject': {}, 'id': 'mashed potato', 'src': '/static/foodstim60/mashed potato.jpg', 'key': 'u', 'origWidth': 409, 'origHeight': 409, 'width': 409, 'height': 409, 'widthPercent': 0.45, 'rescaleHeight': False, 'trialN': 9, 'loaded': True, 'loadedTime': 2510.2999999523163, 'positionName': 'LEFT', 'positionCoords': [328.28, 227.5], 'bid': 2.38}, {'imgObject': {}, 'id': 'mac & cheese', 'src': '/static/foodstim60/mac & cheese.jpg', 'key': 'i', 'origWidth': 410, 'origHeight': 410, 'width': 410, 'height': 410, 'widthPercent': 0.45, 'rescaleHeight': False, 'trialN': 9, 'loaded': True, 'loadedTime': 2516.100000143051, 'positionName': 'RIGHT', 'positionCoords': [798.72, 227], 'bid': 1.13}]",15560.0,1669829601316,mashed potato,mac & cheese,2.38,1.13,-1.25,mashed potato,1054.9000000953674,1055,1055.6000001430511,True,u,17119.60000014305,1559.6000001430511,1669829602875,1559,HRV,HRV_0056,2022-11-30 17:38:25
10,"[{'imgObject': {}, 'id': 'granola w milk', 'src': '/static/foodstim60/granola w milk.jpg', 'key': 'u', 'origWidth': 410, 'origHeight': 410, 'width': 410, 'height': 410, 'widthPercent': 0.45, 'rescaleHeight': False, 'trialN': 10, 'loaded': True, 'loadedTime': 2519.100000143051, 'positionName': 'LEFT', 'positionCoords': [327.28, 227], 'bid': 0}, {'imgObject': {}, 'id': 'olives', 'src': '/static/foodstim60/olives.jpg', 'key': 'i', 'origWidth': 410, 'origHeight': 410, 'width': 410, 'height': 410, 'widthPercent': 0.45, 'rescaleHeight': False, 'trialN': 10, 'loaded': True, 'loadedTime': 2328.100000143051, 'positionName': 'RIGHT', 'positionCoords': [798.72, 227], 'bid': 0.13}]",17119.799999952316,1669829602876,granola w milk,olives,0.0,0.13,0.13,granola w milk,1253.3000001907349,1254,1254.0,True,u,18880.0,1760.2000000476837,1669829604636,1760,HRV,HRV_0056,2022-11-30 17:38:25
11,"[{'imgObject': {}, 'id': 'bagel plain', 'src': '/static/foodstim60/bagel plain.jpg', 'key': 'u', 'origWidth': 410, 'origHeight': 410, 'width': 410, 'height': 410, 'widthPercent': 0.45, 'rescaleHeight': False, 'trialN': 11, 'loaded': True, 'loadedTime': 2386.5, 'positionName': 'LEFT', 'positionCoords': [327.28, 227], 'bid': 0.2}, {'imgObject': {}, 'id': 'granola w milk', 'src': '/static/foodstim60/granola w milk.jpg', 'key': 'i', 'origWidth': 410, 'origHeight': 410, 'width': 410, 'height': 410, 'widthPercent': 0.45, 'rescaleHeight': False, 'trialN': 11, 'loaded': True, 'loadedTime': 2518.7000000476837, 'positionName': 'RIGHT', 'positionCoords': [798.72, 227], 'bid': 0}]",18880.200000047684,1669829604636,bagel plain,granola w milk,0.2,0.0,-0.2,granola w milk,1212,1213,1212.7000000476837,True,i,20600.299999952316,1720.0999999046326,1669829606356,1720,HRV,HRV_0056,2022-11-30 17:38:25
12,"[{'imgObject': {}, 'id': 'banana', 'src': '/static/foodstim60/banana.jpg', 'key': 'u', 'origWidth': 410, 'origHeight': 410, 'width': 410, 'height': 410, 'widthPercent': 0.45, 'rescaleHeight': False, 'trialN': 12, 'loaded': True, 'loadedTime': 2522, 'positionName': 'LEFT', 'positionCoords': [327.28, 227], 'bid': 9.88}, {'imgObject': {}, 'id': 'bagel and cc', 'src': '/static/foodstim60/bagel and cc.jpg', 'key': 'i', 'origWidth': 410, 'origHeight': 410, 'width': 410, 'height': 410, 'widthPercent': 0.45, 'rescaleHeight': False, 'trialN': 12, 'loaded': True, 'loadedTime': 2413.100000143051, 'positionName': 'RIGHT', 'positionCoords': [798.72, 227], 'bid': 7.91}]",20600.5,1669829606356,banana,bagel and cc,9.88,7.91,-1.9700000000000006,bagel and cc,711.4000000953674,712,711.7999999523163,True,i,21815.60000014305,1215.1000001430511,1669829607571,1215,HRV,HRV_0056,2022-11-30 17:38:25
13,"[{'imgObject': {}, 'id': 'orange slices', 'src': '/static/foodstim60/orange slices.jpg', 'key': 'u', 'origWidth': 409, 'origHeight': 410, 'width': 409, 'height': 410, 'widthPercent': 0.45, 'rescaleHeight': False, 'trialN': 13, 'loaded': True, 'loadedTime': 2524.2000000476837, 'positionName': 'LEFT', 'positionCoords': [328.28, 227], 'bid': 9.9}, {'imgObject': {}, 'id': 'blueberries', 'src': '/static/foodstim60/blueberries.jpg', 'key': 'i', 'origWidth': 411, 'origHeight': 411, 'width': 411, 'height': 411, 'widthPercent': 0.45, 'rescaleHeight': False, 'trialN': 13, 'loaded': True, 'loadedTime': 2544.9000000953674, 'positionName': 'RIGHT', 'positionCoords': [798.72, 226.5], 'bid': 8.17}]",21815.700000047684,1669829607571,orange slices,blueberries,9.9,8.17,-1.7300000000000004,blueberries,1271.7000000476837,1273,1272.4000000953674,True,i,23591.400000095367,1775.7000000476837,1669829609347,1776,HRV,HRV_0056,2022-11-30 17:38:25
14,"[{'imgObject': {}, 'id': 'blueberries', 'src': '/static/foodstim60/blueberries.jpg', 'key': 'u', 'origWidth': 411, 'origHeight': 411, 'width': 411, 'height': 411, 'widthPercent': 0.45, 'rescaleHeight': False, 'trialN': 14, 'loaded': True, 'loadedTime': 2536.7999999523163, 'positionName': 'LEFT', 'positionCoords': [326.28, 226.5], 'bid': 8.17}, {'imgObject': {}, 'id': 'eggs', 'src': '/static/foodstim60/eggs.jpg', 'key': 'i', 'origWidth': 409, 'origHeight': 409, 'width': 409, 'height': 409, 'widthPercent': 0.45, 'rescaleHeight': False, 'trialN': 14, 'loaded': True, 'loadedTime': 2572.5, 'positionName': 'RIGHT', 'positionCoords': [798.72, 227.5], 'bid': 6.28}]",23591.60000014305,1669829609347,blueberries,eggs,8.17,6.28,-1.8899999999999997,NaN,NaN,NaN,,False,NaN,27599.799999952316,4008.199999809265,1669829613356,4009,HRV,HRV_0056,2022-11-30 17:38:25
15,"[{'imgObject': {}, 'id': 'shreddedwheatwithmilk', 'src': '/static/foodstim60/shreddedwheatwithmilk.jpg', 'key': 'u', 'origWidth': 410, 'origHeight': 410, 'width': 410, 'height': 410, 'widthPercent': 0.45, 'rescaleHeight': False, 'trialN': 15, 'loaded': True, 'loadedTime': 2579, 'positionName': 'LEFT', 'positionCoords': [327.28, 227], 'bid': 0.48}, {'imgObject': {}, 'id': 'froot loops w milk', 'src': '/static/foodstim60/froot loops w milk.jpg', 'key': 'i', 'origWidth': 410, 'origHeight': 410, 'width': 410, 'height': 410, 'widthPercent': 0.45, 'rescaleHeight': False, 'trialN': 15, 'loaded': True, 'loadedTime': 2583.7999999523163, 'positionName': 'RIGHT', 'positionCoords': [798.72, 227], 'bid': 0.42}]",27599.900000095367,1669829613356,shreddedwheatwithmilk,froot loops w milk,0.48,0.42,-0.06,froot loops w milk,13.599999904632568,14,14.0,True,i,28119.799999952316,519.8999998569489,1669829613876,520,HRV,HRV_0056,2022-11-30 17:38:25
16,"[{'imgObject': {}, 'id': 'chicken nuggets2', 'src': '/static/foodstim60/chicken nuggets2.jpg', 'key': 'u', 'origWidth': 410, 'origHeight': 409, 'width': 410, 'height': 409, 'widthPercent': 0.45, 'rescaleHeight': False, 'trialN': 16, 'loaded': True, 'loadedTime': 2499.2999999523163, 'positionName': 'LEFT', 'positionCoords': [327.28, 227.5], 'bid': 6.44}, {'imgObject': {}, 'id': 'orange slices', 'src': '/static/foodstim60/orange slices.jpg', 'key': 'i', 'origWidth': 409, 'origHeight': 410, 'width': 409, 'height': 410, 'widthPercent': 0.45, 'rescaleHeight': False, 'trialN': 16, 'loaded': True, 'loadedTime': 2532.100000143051, 'positionName': 'RIGHT', 'positionCoords': [798.72, 227], 'bid': 9.9}]",28120.0,1669829613876,chicken nuggets2,orange slices,6.44,9.9,3.46,orange slices,1354.7000000476837,1355,1355.2000000476837,True,i,29975.900000095367,1855.9000000953674,1669829615732,1856,HRV,HRV_0056,2022-11-30 17:38:25
17,"[{'imgObject': {}, 'id': 'grilled chicken strips', 'src': '/static/foodstim60/grilled chicken strips.jpg', 'key': 'u', 'origWidth': 410, 'origHeight': 411, 'width': 410, 'height': 411, 'widthPercent': 0.45, 'rescaleHeight': False, 'trialN': 17, 'loaded': True, 'loadedTime': 2598.100000143051, 'positionName': 'LEFT', 'positionCoords': [327.28, 226.5], 'bid': 9.77}, {'imgObject': {}, 'id': 'Grapes', 'src': '/static/foodstim60/Grapes.jpg', 'key': 'i', 'origWidth': 411, 'origHeight': 411, 'width': 411, 'height': 411, 'widthPercent': 0.45, 'rescaleHeight': False, 'trialN': 17, 'loaded': True, 'loadedTime': 2599.600000143051, 'positionName': 'RIGHT', 'positionCoords': [798.72, 226.5], 'bid': 9.84}]",29976.10000014305,1669829615732,grilled chicken strips,Grapes,9.77,9.84,0.07000000000000028,Grapes,1542.5999999046326,1543,1543.0,True,i,32023.299999952316,2047.1999998092651,1669829617779,2047,HRV,HRV_0056,2022-11-30 17:38:25
18,"[{'imgObject': {}, 'id': 'rigatoni and sauce', 'src': '/static/foodstim60/rigatoni and sauce.jpg', 'key': 'u', 'origWidth': 410, 'origHeight': 411, 'width': 410, 'height': 411, 'widthPercent': 0.45, 'rescaleHeight': False, 'trialN': 18, 'loaded': True, 'loadedTime': 2610.7999999523163, 'positionName': 'LEFT', 'positionCoords': [327.28, 226.5], 'bid': 3.5500000000000003}, {'imgObject': {}, 'id': 'blueberries', 'src': '/static/foodstim60/blueberries.jpg', 'key': 'i', 'origWidth': 411, 'origHeight': 411, 'width': 411, 'height': 411, 'widthPercent': 0.45, 'rescaleHeight': False, 'trialN': 18, 'loaded': True, 'loadedTime': 2545, 'positionName': 'RIGHT', 'positionCoords': [798.72, 226.5], 'bid': 8.17}]",32023.400000095367,1669829617779,rigatoni and sauce,blueberries,3.5500000000000003,8.17,4.619999999999999,blueberries,831.3999998569489,832,832.0,True,i,33359.60000014305,1336.2000000476837,1669829619115,1336,HRV,HRV_0056,2022-11-30 17:38:25
19,"[{'imgObject': {}, 'id': 'turkey sandwich', 'src': '/static/foodstim60/turkey sandwich.jpg', 'key': 'u', 'origWidth': 409, 'origHeight': 409, 'width': 409, 'height': 409, 'widthPercent': 0.45, 'rescaleHeight': False, 'trialN': 19, 'loaded': True, 'loadedTime': 2427, 'positionName': 'LEFT', 'positionCoords': [328.28, 227.5], 'bid': 5.4}, {'imgObject': {}, 'id': 'pear', 'src': '/static/foodstim60/pear.jpg', 'key': 'i', 'origWidth': 411, 'origHeight': 410, 'width': 411, 'height': 410, 'widthPercent': 0.45, 'rescaleHeight': False, 'trialN': 19, 'loaded': True, 'loadedTime': 2613.9000000953674, 'positionName': 'RIGHT', 'positionCoords': [798.72, 227], 'bid': 5.07}]",33359.799999952316,1669829619116,turkey sandwich,pear,5.4,5.07,-0.33000000000000007,turkey sandwich,954.6000001430511,955,955.3000001907349,True,u,34816.299999952316,1456.5,1669829620572,1456,HRV,HRV_0056,2022-11-30 17:38:25
20,"[{'imgObject': {}, 'id': 'edamame', 'src': '/static/foodstim60/edamame.jpg', 'key': 'u', 'origWidth': 409, 'origHeight': 410, 'width': 409, 'height': 410, 'widthPercent': 0.45, 'rescaleHeight': False, 'trialN': 20, 'loaded': True, 'loadedTime': 2369.2000000476837, 'positionName': 'LEFT', 'positionCoords': [328.28, 227], 'bid': 0.01}, {'imgObject': {}, 'id': 'Tribe humus pita', 'src': '/static/foodstim60/Tribe humus pita.jpg', 'key': 'i', 'origWidth': 411, 'origHeight': 411, 'width': 411, 'height': 411, 'widthPercent': 0.45, 'rescaleHeight': False, 'trialN': 20, 'loaded': True, 'loadedTime': 2616.2000000476837, 'positionName': 'RIGHT', 'positionCoords': [798.72, 226.5], 'bid': 2.09}]",34816.5,1669829620572,edamame,Tribe humus pita,0.01,2.09,2.08,Tribe humus pita,1009.7999999523163,1011,1010.4000000953674,True,i,36328.299999952316,1511.7999999523163,1669829622084,1512,HRV,HRV_0056,2022-11-30 17:38:25
21,"[{'imgObject': {}, 'id': 'cherries', 'src': '/static/foodstim60/cherries.jpg', 'key': 'u', 'origWidth': 410, 'origHeight': 411, 'width': 410, 'height': 411, 'widthPercent': 0.45, 'rescaleHeight': False, 'trialN': 21, 'loaded': True, 'loadedTime': 2618.5, 'positionName': 'LEFT', 'positionCoords': [327.28, 226.5], 'bid': 9.81}, {'imgObject': {}, 'id': 'yogurt no spoon', 'src': '/static/foodstim60/yogurt no spoon.jpg', 'key': 'i', 'origWidth': 411, 'origHeight': 410, 'width': 411, 'height': 410, 'widthPercent': 0.45, 'rescaleHeight': False, 'trialN': 21, 'loaded': True, 'loadedTime': 2621.7000000476837, 'positionName': 'RIGHT', 'positionCoords': [798.72, 227], 'bid': 9.84}]",36328.40000009537,1669829622084,cherries,yogurt no spoon,9.81,9.84,0.02999999999999936,yogurt no spoon,943.5999999046326,944,944.3999998569489,True,i,37775.799999952316,1447.3999998569489,1669829623532,1448,HRV,HRV_0056,2022-11-30 17:38:25
22,"[{'imgObject': {}, 'id': 'kiwi', 'src': '/static/foodstim60/kiwi.jpg', 'key': 'u', 'origWidth': 410, 'origHeight': 410, 'width': 410, 'height': 410, 'widthPercent': 0.45, 'rescaleHeight': False, 'trialN': 22, 'loaded': True, 'loadedTime': 2634.600000143051, 'positionName': 'LEFT', 'positionCoords': [327.28, 227], 'bid': 1.91}, {'imgObject': {}, 'id': 'popsicles', 'src': '/static/foodstim60/popsicles.jpg', 'key': 'i', 'origWidth': 410, 'origHeight': 410, 'width': 410, 'height': 410, 'widthPercent': 0.45, 'rescaleHeight': False, 'trialN': 22, 'loaded': True, 'loadedTime': 2758.7000000476837, 'positionName': 'RIGHT', 'positionCoords': [798.72, 227], 'bid': 2.43}]",37776.10000014305,1669829623532,kiwi,popsicles,1.91,2.43,0.5200000000000002,popsicles,706.1999998092651,706,706.5,True,i,38983.799999952316,1207.6999998092651,1669829624740,1208,HRV,HRV_0056,2022-11-30 17:38:25
23,"[{'imgObject': {}, 'id': 'salmon', 'src': '/static/foodstim60/salmon.jpg', 'key': 'u', 'origWidth': 410, 'origHeight': 409, 'width': 410, 'height': 409, 'widthPercent': 0.45, 'rescaleHeight': False, 'trialN': 23, 'loaded': True, 'loadedTime': 2645.600000143051, 'positionName': 'LEFT', 'positionCoords': [327.28, 227.5], 'bid': 5.01}, {'imgObject': {}, 'id': 'omelette', 'src': '/static/foodstim60/omelette.jpg', 'key': 'i', 'origWidth': 410, 'origHeight': 409, 'width': 410, 'height': 409, 'widthPercent': 0.45, 'rescaleHeight': False, 'trialN': 23, 'loaded': True, 'loadedTime': 2660.5, 'positionName': 'RIGHT', 'positionCoords': [798.72, 227.5], 'bid': 4.55}]",38984.0,1669829624740,salmon,omelette,5.01,4.55,-0.45999999999999996,salmon,881.5,882,881.9000000953674,True,u,40367.0,1383.0,1669829626123,1383,HRV,HRV_0056,2022-11-30 17:38:25
24,"[{'imgObject': {}, 'id': 'hotdog w must', 'src': '/static/foodstim60/hotdog w must.jpg', 'key': 'u', 'origWidth': 409, 'origHeight': 409, 'width': 409, 'height': 409, 'widthPercent': 0.45, 'rescaleHeight': False, 'trialN': 24, 'loaded': True, 'loadedTime': 2384, 'positionName': 'LEFT', 'positionCoords': [328.28, 227.5], 'bid': 0.18}, {'imgObject': {}, 'id': 'rigatoni', 'src': '/static/foodstim60/rigatoni.jpg', 'key': 'i', 'origWidth': 411, 'origHeight': 411, 'width': 411, 'height': 411, 'widthPercent': 0.45, 'rescaleHeight': False, 'trialN': 24, 'loaded': True, 'loadedTime': 2663, 'positionName': 'RIGHT', 'positionCoords': [798.72, 226.5], 'bid': 0.18}]",40367.299999952316,1669829626123,hotdog w must,rigatoni,0.18,0.18,0.0,rigatoni,1470.6000001430511,1471,1471.2000000476837,True,i,42342.90000009537,1975.6000001430511,1669829628099,1976,HRV,HRV_0056,2022-11-30 17:38:25
25,"[{'imgObject': {}, 'id': 'pear', 'src': '/static/foodstim60/pear.jpg', 'key': 'u', 'origWidth': 411, 'origHeight': 410, 'width': 411, 'height': 410, 'widthPercent': 0.45, 'rescaleHeight': False, 'trialN': 25, 'loaded': True, 'loadedTime': 2611.7999999523163, 'positionName': 'LEFT', 'positionCoords': [326.28, 227], 'bid': 5.07}, {'imgObject': {}, 'id': 'avocado', 'src': '/static/foodstim60/avocado.jpg', 'key': 'i', 'origWidth': 409, 'origHeight': 409, 'width': 409, 'height': 409, 'widthPercent': 0.45, 'rescaleHeight': False, 'trialN': 25, 'loaded': True, 'loadedTime': 2497.2000000476837, 'positionName': 'RIGHT', 'positionCoords': [798.72, 227.5], 'bid': 7.25}]",42343.200000047684,1669829628099,pear,avocado,5.07,7.25,2.1799999999999997,avocado,745.0999999046326,746,745.7999999523163,True,i,43591.90000009537,1248.7000000476837,1669829629348,1249,HRV,HRV_0056,2022-11-30 17:38:25
26,"[{'imgObject': {}, 'id': 'bagel and cc', 'src': '/static/foodstim60/bagel and cc.jpg', 'key': 'u', 'origWidth': 410, 'origHeight': 410, 'width': 410, 'height': 410, 'widthPercent': 0.45, 'rescaleHeight': False, 'trialN': 26, 'loaded': True, 'loadedTime': 2413.4000000953674, 'positionName': 'LEFT', 'positionCoords': [327.28, 227], 'bid': 7.91}, {'imgObject': {}, 'id': 'shreddedwheatwithmilk', 'src': '/static/foodstim60/shreddedwheatwithmilk.jpg', 'key': 'i', 'origWidth': 410, 'origHeight': 410, 'width': 410, 'height': 410, 'widthPercent': 0.45, 'rescaleHeight': False, 'trialN': 26, 'loaded': True, 'loadedTime': 2578, 'positionName': 'RIGHT', 'positionCoords': [798.72, 227], 'bid': 0.48}]",43592.0,1669829629348,bagel and cc,shreddedwheatwithmilk,7.91,0.48,-7.43,bagel and cc,854.4000000953674,855,854.9000000953674,True,u,44952.40000009537,1360.4000000953674,1669829630708,1360,HRV,HRV_0056,2022-11-30 17:38:25
27,"[{'imgObject': {}, 'id': 'mashed potato', 'src': '/static/foodstim60/mashed potato.jpg', 'key': 'u', 'origWidth': 409, 'origHeight': 409, 'width': 409, 'height': 409, 'widthPercent': 0.45, 'rescaleHeight': False, 'trialN': 27, 'loaded': True, 'loadedTime': 2511.7000000476837, 'positionName': 'LEFT', 'positionCoords': [328.28, 227.5], 'bid': 2.38}, {'imgObject': {}, 'id': 'roastedpotatoes', 'src': '/static/foodstim60/roastedpotatoes.jpg', 'key': 'i', 'origWidth': 409, 'origHeight': 410, 'width': 409, 'height': 410, 'widthPercent': 0.45, 'rescaleHeight': False, 'trialN': 27, 'loaded': True, 'loadedTime': 2664.7999999523163, 'positionName': 'RIGHT', 'positionCoords': [798.72, 227], 'bid': 2.17}]",44952.60000014305,1669829630708,mashed potato,roastedpotatoes,2.38,2.17,-0.20999999999999996,mashed potato,982,983,982.5999999046326,True,u,46439.60000014305,1487.0,1669829632195,1487,HRV,HRV_0056,2022-11-30 17:38:25
28,"[{'imgObject': {}, 'id': 'cherries', 'src': '/static/foodstim60/cherries.jpg', 'key': 'u', 'origWidth': 410, 'origHeight': 411, 'width': 410, 'height': 411, 'widthPercent': 0.45, 'rescaleHeight': False, 'trialN': 28, 'loaded': True, 'loadedTime': 2620.2000000476837, 'positionName': 'LEFT', 'positionCoords': [327.28, 226.5], 'bid': 9.81}, {'imgObject': {}, 'id': 'fried eggs', 'src': '/static/foodstim60/fried eggs.jpg', 'key': 'i', 'origWidth': 410, 'origHeight': 410, 'width': 410, 'height': 410, 'widthPercent': 0.45, 'rescaleHeight': False, 'trialN': 28, 'loaded': True, 'loadedTime': 2668.5, 'positionName': 'RIGHT', 'positionCoords': [798.72, 227], 'bid': 10}]",46439.90000009537,1669829632196,cherries,fried eggs,9.81,10.0,0.1899999999999995,fried eggs,652.2000000476837,652,652.5999999046326,True,i,47600.10000014305,1160.2000000476837,1669829633356,1160,HRV,HRV_0056,2022-11-30 17:38:25
29,"[{'imgObject': {}, 'id': 'tacos', 'src': '/static/foodstim60/tacos.jpg', 'key': 'u', 'origWidth': 411, 'origHeight': 411, 'width': 411, 'height': 411, 'widthPercent': 0.45, 'rescaleHeight': False, 'trialN': 29, 'loaded': True, 'loadedTime': 2417.7999999523163, 'positionName': 'LEFT', 'positionCoords': [326.28, 226.5], 'bid': 3.29}, {'imgObject': {}, 'id': 'pear', 'src': '/static/foodstim60/pear.jpg', 'key': 'i', 'origWidth': 411, 'origHeight': 410, 'width': 411, 'height': 410, 'widthPercent': 0.45, 'rescaleHeight': False, 'trialN': 29, 'loaded': True, 'loadedTime': 2612.7000000476837, 'positionName': 'RIGHT', 'positionCoords': [798.72, 227], 'bid': 5.07}]",47600.299999952316,1669829633356,tacos,pear,3.29,5.07,1.7800000000000002,tacos,846.2000000476837,847,846.8000001907349,True,u,48951.799999952316,1351.5,1669829634708,1352,HRV,HRV_0056,2022-11-30 17:38:25
30,"[{'imgObject': {}, 'id': 'strawberries', 'src': '/static/foodstim60/strawberries.jpg', 'key': 'u', 'origWidth': 410, 'origHeight': 410, 'width': 410, 'height': 410, 'widthPercent': 0.45, 'rescaleHeight': False, 'trialN': 30, 'loaded': True, 'loadedTime': 2671.7999999523163, 'positionName': 'LEFT', 'positionCoords': [327.28, 227], 'bid': 9.85}, {'imgObject': {}, 'id': 'raspberries', 'src': '/static/foodstim60/raspberries.jpg', 'key': 'i', 'origWidth': 411, 'origHeight': 411, 'width': 411, 'height': 411, 'widthPercent': 0.45, 'rescaleHeight': False, 'trialN': 30, 'loaded': True, 'loadedTime': 2673.7999999523163, 'positionName': 'RIGHT', 'positionCoords': [798.72, 226.5], 'bid': 9.88}]",48952.0,1669829634708,strawberries,raspberries,9.85,9.88,0.030000000000001137,raspberries,623.9000000953674,624,624.2999999523163,True,i,50079.700000047684,1127.7000000476837,1669829635835,1127,HRV,HRV_0056,2022-11-30 17:38:25
31,"[{'imgObject': {}, 'id': 'shreddedwheatwithmilk', 'src': '/static/foodstim60/shreddedwheatwithmilk.jpg', 'key': 'u', 'origWidth': 410, 'origHeight': 410, 'width': 410, 'height': 410, 'widthPercent': 0.45, 'rescaleHeight': False, 'trialN': 31, 'loaded': True, 'loadedTime': 2578.2999999523163, 'positionName': 'LEFT', 'positionCoords': [327.28, 227], 'bid': 0.48}, {'imgObject': {}, 'id': 'eggsalad', 'src': '/static/foodstim60/eggsalad.jpg', 'key': 'i', 'origWidth': 410, 'origHeight': 409, 'width': 410, 'height': 409, 'widthPercent': 0.45, 'rescaleHeight': False, 'trialN': 31, 'loaded': True, 'loadedTime': 2674.100000143051, 'positionName': 'RIGHT', 'positionCoords': [798.72, 227.5], 'bid': 0.92}]",50079.799999952316,1669829635836,shreddedwheatwithmilk,eggsalad,0.48,0.92,0.44000000000000006,eggsalad,1204.5,1204,1204.9000000953674,True,i,51791.299999952316,1711.5,1669829637547,1711,HRV,HRV_0056,2022-11-30 17:38:25
32,"[{'imgObject': {}, 'id': 'edamame', 'src': '/static/foodstim60/edamame.jpg', 'key': 'u', 'origWidth': 409, 'origHeight': 410, 'width': 409, 'height': 410, 'widthPercent': 0.45, 'rescaleHeight': False, 'trialN': 32, 'loaded': True, 'loadedTime': 2369.4000000953674, 'positionName': 'LEFT', 'positionCoords': [328.28, 227], 'bid': 0.01}, {'imgObject': {}, 'id': 'bagel plain', 'src': '/static/foodstim60/bagel plain.jpg', 'key': 'i', 'origWidth': 410, 'origHeight': 410, 'width': 410, 'height': 410, 'widthPercent': 0.45, 'rescaleHeight': False, 'trialN': 32, 'loaded': True, 'loadedTime': 2388.7000000476837, 'positionName': 'RIGHT', 'positionCoords': [798.72, 227], 'bid': 0.2}]",51791.40000009537,1669829637547,edamame,bagel plain,0.01,0.2,0.19,edamame,1359.3999998569489,1360,1359.8999998569489,True,u,53656.200000047684,1864.7999999523163,1669829639412,1865,HRV,HRV_0056,2022-11-30 17:38:25
33,"[{'imgObject': {}, 'id': 'olives', 'src': '/static/foodstim60/olives.jpg', 'key': 'u', 'origWidth': 410, 'origHeight': 410, 'width': 410, 'height': 410, 'widthPercent': 0.45, 'rescaleHeight': False, 'trialN': 33, 'loaded': True, 'loadedTime': 2327.9000000953674, 'positionName': 'LEFT', 'positionCoords': [327.28, 227], 'bid': 0.13}, {'imgObject': {}, 'id': 'burger', 'src': '/static/foodstim60/burger.jpg', 'key': 'i', 'origWidth': 409, 'origHeight': 409, 'width': 409, 'height': 409, 'widthPercent': 0.45, 'rescaleHeight': False, 'trialN': 33, 'loaded': True, 'loadedTime': 2392.600000143051, 'positionName': 'RIGHT', 'positionCoords': [798.72, 227.5], 'bid': 2.23}]",53656.299999952316,1669829639412,olives,burger,0.13,2.23,2.1,burger,748.2000000476837,749,748.5,True,i,54911.700000047684,1255.4000000953674,1669829640667,1255,HRV,HRV_0056,2022-11-30 17:38:25
34,"[{'imgObject': {}, 'id': 'cocktailshrimp', 'src': '/static/foodstim60/cocktailshrimp.jpg', 'key': 'u', 'origWidth': 410, 'origHeight': 410, 'width': 410, 'height': 410, 'widthPercent': 0.45, 'rescaleHeight': False, 'trialN': 34, 'loaded': True, 'loadedTime': 2677.7999999523163, 'positionName': 'LEFT', 'positionCoords': [327.28, 227], 'bid': 4.2}, {'imgObject': {}, 'id': 'burger', 'src': '/static/foodstim60/burger.jpg', 'key': 'i', 'origWidth': 409, 'origHeight': 409, 'width': 409, 'height': 409, 'widthPercent': 0.45, 'rescaleHeight': False, 'trialN': 34, 'loaded': True, 'loadedTime': 2391.100000143051, 'positionName': 'RIGHT', 'positionCoords': [798.72, 227.5], 'bid': 2.23}]",54911.90000009537,1669829640668,cocktailshrimp,burger,4.2,2.23,-1.9700000000000002,cocktailshrimp,1925.5999999046326,1926,1926.2999999523163,True,u,57343.60000014305,2431.7000000476837,1669829643099,2431,HRV,HRV_0056,2022-11-30 17:38:25
35,"[{'imgObject': {}, 'id': 'fried eggs', 'src': '/static/foodstim60/fried eggs.jpg', 'key': 'u', 'origWidth': 410, 'origHeight': 410, 'width': 410, 'height': 410, 'widthPercent': 0.45, 'rescaleHeight': False, 'trialN': 35, 'loaded': True, 'loadedTime': 2665.4000000953674, 'positionName': 'LEFT', 'positionCoords': [327.28, 227], 'bid': 10}, {'imgObject': {}, 'id': 'fruitsalad', 'src': '/static/foodstim60/fruitsalad.jpg', 'key': 'i', 'origWidth': 410, 'origHeight': 410, 'width': 410, 'height': 410, 'widthPercent': 0.45, 'rescaleHeight': False, 'trialN': 35, 'loaded': True, 'loadedTime': 2408.9000000953674, 'positionName': 'RIGHT', 'positionCoords': [798.72, 227], 'bid': 10}]",57343.799999952316,1669829643100,fried eggs,fruitsalad,10.0,10.0,0.0,fruitsalad,899.4000000953674,900,900.0,True,i,58744.5,1400.7000000476837,1669829644500,1400,HRV,HRV_0056,2022-11-30 17:38:25
36,"[{'imgObject': {}, 'id': 'burrito', 'src': '/static/foodstim60/burrito.jpg', 'key': 'u', 'origWidth': 410, 'origHeight': 410, 'width': 410, 'height': 410, 'widthPercent': 0.45, 'rescaleHeight': False, 'trialN': 36, 'loaded': True, 'loadedTime': 2680.600000143051, 'positionName': 'LEFT', 'positionCoords': [327.28, 227], 'bid': 1.92}, {'imgObject': {}, 'id': 'cheerios', 'src': '/static/foodstim60/cheerios.jpg', 'key': 'i', 'origWidth': 409, 'origHeight': 410, 'width': 409, 'height': 410, 'widthPercent': 0.45, 'rescaleHeight': False, 'trialN': 36, 'loaded': True, 'loadedTime': 2682.5, 'positionName': 'RIGHT', 'positionCoords': [798.72, 227], 'bid': 0}]",58744.60000014305,1669829644500,burrito,cheerios,1.92,0.0,-1.92,burrito,912.3999998569489,913,913.0,True,u,60159.799999952316,1415.1999998092651,1669829645916,1416,HRV,HRV_0056,2022-11-30 17:38:25
37,"[{'imgObject': {}, 'id': 'cherries', 'src': '/static/foodstim60/cherries.jpg', 'key': 'u', 'origWidth': 410, 'origHeight': 411, 'width': 410, 'height': 411, 'widthPercent': 0.45, 'rescaleHeight': False, 'trialN': 37, 'loaded': True, 'loadedTime': 2617.4000000953674, 'positionName': 'LEFT', 'positionCoords': [327.28, 226.5], 'bid': 9.81}, {'imgObject': {}, 'id': 'grilled chicken strips', 'src': '/static/foodstim60/grilled chicken strips.jpg', 'key': 'i', 'origWidth': 410, 'origHeight': 411, 'width': 410, 'height': 411, 'widthPercent': 0.45, 'rescaleHeight': False, 'trialN': 37, 'loaded': True, 'loadedTime': 2585.2999999523163, 'positionName': 'RIGHT', 'positionCoords': [798.72, 226.5], 'bid': 9.77}]",60160.10000014305,1669829645916,cherries,grilled chicken strips,9.81,9.77,-0.040000000000000924,cherries,938.2999999523163,939,938.6999998092651,True,u,61599.60000014305,1439.5,1669829647355,1439,HRV,HRV_0056,2022-11-30 17:38:25
38,"[{'imgObject': {}, 'id': 'turkeysandwich', 'src': '/static/foodstim60/turkeysandwich.jpg', 'key': 'u', 'origWidth': 409, 'origHeight': 409, 'width': 409, 'height': 409, 'widthPercent': 0.45, 'rescaleHeight': False, 'trialN': 38, 'loaded': True, 'loadedTime': 2693.9000000953674, 'positionName': 'LEFT', 'positionCoords': [328.28, 227.5], 'bid': 8.19}, {'imgObject': {}, 'id': 'cocktailshrimp', 'src': '/static/foodstim60/cocktailshrimp.jpg', 'key': 'i', 'origWidth': 410, 'origHeight': 410, 'width': 410, 'height': 410, 'widthPercent': 0.45, 'rescaleHeight': False, 'trialN': 38, 'loaded': True, 'loadedTime': 2677.2999999523163, 'positionName': 'RIGHT', 'positionCoords': [798.72, 227], 'bid': 4.2}]",61599.799999952316,1669829647356,turkeysandwich,cocktailshrimp,8.19,4.2,-3.9899999999999993,turkeysandwich,1580.7000000476837,1581,1581.4000000953674,True,u,63688.60000014305,2088.800000190735,1669829649444,2088,HRV,HRV_0056,2022-11-30 17:38:25
39,"[{'imgObject': {}, 'id': 'hotdog w must', 'src': '/static/foodstim60/hotdog w must.jpg', 'key': 'u', 'origWidth': 409, 'origHeight': 409, 'width': 409, 'height': 409, 'widthPercent': 0.45, 'rescaleHeight': False, 'trialN': 39, 'loaded': True, 'loadedTime': 2382.5, 'positionName': 'LEFT', 'positionCoords': [328.28, 227.5], 'bid': 0.18}, {'imgObject': {}, 'id': 'turkey sandwich', 'src': '/static/foodstim60/turkey sandwich.jpg', 'key': 'i', 'origWidth': 409, 'origHeight': 409, 'width': 409, 'height': 409, 'widthPercent': 0.45, 'rescaleHeight': False, 'trialN': 39, 'loaded': True, 'loadedTime': 2428.5, 'positionName': 'RIGHT', 'positionCoords': [798.72, 227.5], 'bid': 5.4}]",63688.799999952316,1669829649445,hotdog w must,turkey sandwich,0.18,5.4,5.220000000000001,turkey sandwich,693.8000001907349,694,694.5,True,i,64887.5,1198.7000000476837,1669829650643,1198,HRV,HRV_0056,2022-11-30 17:38:25
40,"[{'imgObject': {}, 'id': 'chickenfingers', 'src': '/static/foodstim60/chickenfingers.jpg', 'key': 'u', 'origWidth': 410, 'origHeight': 410, 'width': 410, 'height': 410, 'widthPercent': 0.45, 'rescaleHeight': False, 'trialN': 40, 'loaded': True, 'loadedTime': 2696.7000000476837, 'positionName': 'LEFT', 'positionCoords': [327.28, 227], 'bid': 8.75}, {'imgObject': {}, 'id': 'turkeysandwich', 'src': '/static/foodstim60/turkeysandwich.jpg', 'key': 'i', 'origWidth': 409, 'origHeight': 409, 'width': 409, 'height': 409, 'widthPercent': 0.45, 'rescaleHeight': False, 'trialN': 40, 'loaded': True, 'loadedTime': 2693.600000143051, 'positionName': 'RIGHT', 'positionCoords': [798.72, 227.5], 'bid': 8.19}]",64887.60000014305,1669829650643,chickenfingers,turkeysandwich,8.75,8.19,-0.5600000000000005,turkeysandwich,745.6999998092651,746,746.0999999046326,True,i,66136.0,1248.3999998569489,1669829651892,1249,HRV,HRV_0056,2022-11-30 17:38:25
41,"[{'imgObject': {}, 'id': 'roastedpotatoes', 'src': '/static/foodstim60/roastedpotatoes.jpg', 'key': 'u', 'origWidth': 409, 'origHeight': 410, 'width': 409, 'height': 410, 'widthPercent': 0.45, 'rescaleHeight': False, 'trialN': 41, 'loaded': True, 'loadedTime': 2663.600000143051, 'positionName': 'LEFT', 'positionCoords': [328.28, 227], 'bid': 2.17}, {'imgObject': {}, 'id': 'rigatoni and sauce', 'src': '/static/foodstim60/rigatoni and sauce.jpg', 'key': 'i', 'origWidth': 410, 'origHeight': 411, 'width': 410, 'height': 411, 'widthPercent': 0.45, 'rescaleHeight': False, 'trialN': 41, 'loaded': True, 'loadedTime': 2611, 'positionName': 'RIGHT', 'positionCoords': [798.72, 226.5], 'bid': 3.5500000000000003}]",66136.29999995232,1669829651892,roastedpotatoes,rigatoni and sauce,2.17,3.5500000000000003,1.3800000000000003,NaN,NaN,NaN,,False,NaN,70143.60000014305,4007.300000190735,1669829655899,4007,HRV,HRV_0056,2022-11-30 17:38:25
42,"[{'imgObject': {}, 'id': 'ice cream sundae 002', 'src': '/static/foodstim60/ice cream sundae 002.jpg', 'key': 'u', 'origWidth': 409, 'origHeight': 409, 'width': 409, 'height': 409, 'widthPercent': 0.45, 'rescaleHeight': False, 'trialN': 42, 'loaded': True, 'loadedTime': 2398.2000000476837, 'positionName': 'LEFT', 'positionCoords': [328.28, 227.5], 'bid': 7.94}, {'imgObject': {}, 'id': 'raspberries', 'src': '/static/foodstim60/raspberries.jpg', 'key': 'i', 'origWidth': 411, 'origHeight': 411, 'width': 411, 'height': 411, 'widthPercent': 0.45, 'rescaleHeight': False, 'trialN': 42, 'loaded': True, 'loadedTime': 2673.7999999523163, 'positionName': 'RIGHT', 'positionCoords': [798.72, 226.5], 'bid': 9.88}]",70143.79999995232,1669829655900,ice cream sundae 002,raspberries,7.94,9.88,1.9400000000000004,NaN,NaN,NaN,,False,NaN,74151.70000004768,4007.9000000953674,1669829659907,4007,HRV,HRV_0056,2022-11-30 17:38:25
43,"[{'imgObject': {}, 'id': 'apple slices', 'src': '/static/foodstim60/apple slices.jpg', 'key': 'u', 'origWidth': 409, 'origHeight': 410, 'width': 409, 'height': 410, 'widthPercent': 0.45, 'rescaleHeight': False, 'trialN': 43, 'loaded': True, 'loadedTime': 2719.100000143051, 'positionName': 'LEFT', 'positionCoords': [328.28, 227], 'bid': 4.32}, {'imgObject': {}, 'id': 'mashed potato', 'src': '/static/foodstim60/mashed potato.jpg', 'key': 'i', 'origWidth': 409, 'origHeight': 409, 'width': 409, 'height': 409, 'widthPercent': 0.45, 'rescaleHeight': False, 'trialN': 43, 'loaded': True, 'loadedTime': 2513.4000000953674, 'positionName': 'RIGHT', 'positionCoords': [798.72, 227.5], 'bid': 2.38}]",74151.90000009537,1669829659908,apple slices,mashed potato,4.32,2.38,-1.9400000000000004,apple slices,260.7000000476837,261,261.2000000476837,True,u,74919.79999995232,767.8999998569489,1669829660676,768,HRV,HRV_0056,2022-11-30 17:38:25
44,"[{'imgObject': {}, 'id': 'granola w milk', 'src': '/static/foodstim60/granola w milk.jpg', 'key': 'u', 'origWidth': 410, 'origHeight': 410, 'width': 410, 'height': 410, 'widthPercent': 0.45, 'rescaleHeight': False, 'trialN': 44, 'loaded': True, 'loadedTime': 2518.7999999523163, 'positionName': 'LEFT', 'positionCoords': [327.28, 227], 'bid': 0}, {'imgObject': {}, 'id': 'eggsalad', 'src': '/static/foodstim60/eggsalad.jpg', 'key': 'i', 'origWidth': 410, 'origHeight': 409, 'width': 410, 'height': 409, 'widthPercent': 0.45, 'rescaleHeight': False, 'trialN': 44, 'loaded': True, 'loadedTime': 2675.2999999523163, 'positionName': 'RIGHT', 'positionCoords': [798.72, 227.5], 'bid': 0.92}]",74920.0,1669829660676,granola w milk,eggsalad,0.0,0.92,0.92,eggsalad,1096.6000001430511,1097,1097.0,True,i,76519.79999995232,1599.7999999523163,1669829662276,1600,HRV,HRV_0056,2022-11-30 17:38:25
45,"[{'imgObject': {}, 'id': 'lox', 'src': '/static/foodstim60/lox.jpg', 'key': 'u', 'origWidth': 410, 'origHeight': 411, 'width': 410, 'height': 411, 'widthPercent': 0.45, 'rescaleHeight': False, 'trialN': 45, 'loaded': True, 'loadedTime': 2721.4000000953674, 'positionName': 'LEFT', 'positionCoords': [327.28, 226.5], 'bid': 3.3000000000000003}, {'imgObject': {}, 'id': 'omelette', 'src': '/static/foodstim60/omelette.jpg', 'key': 'i', 'origWidth': 410, 'origHeight': 409, 'width': 410, 'height': 409, 'widthPercent': 0.45, 'rescaleHeight': False, 'trialN': 45, 'loaded': True, 'loadedTime': 2658.9000000953674, 'positionName': 'RIGHT', 'positionCoords': [798.72, 227.5], 'bid': 4.55}]",76520.0,1669829662276,lox,omelette,3.3000000000000003,4.55,1.2499999999999996,omelette,786.7000000476837,787,787.2999999523163,True,i,77815.60000014305,1295.6000001430511,1669829663571,1295,HRV,HRV_0056,2022-11-30 17:38:25
46,"[{'imgObject': {}, 'id': 'grilled chicken strips', 'src': '/static/foodstim60/grilled chicken strips.jpg', 'key': 'u', 'origWidth': 410, 'origHeight': 411, 'width': 410, 'height': 411, 'widthPercent': 0.45, 'rescaleHeight': False, 'trialN': 46, 'loaded': True, 'loadedTime': 2598.2999999523163, 'positionName': 'LEFT', 'positionCoords': [327.28, 226.5], 'bid': 9.77}, {'imgObject': {}, 'id': 'raspberries', 'src': '/static/foodstim60/raspberries.jpg', 'key': 'i', 'origWidth': 411, 'origHeight': 411, 'width': 411, 'height': 411, 'widthPercent': 0.45, 'rescaleHeight': False, 'trialN': 46, 'loaded': True, 'loadedTime': 2674, 'positionName': 'RIGHT', 'positionCoords': [798.72, 226.5], 'bid': 9.88}]",77815.60000014305,1669829663571,grilled chicken strips,raspberries,9.77,9.88,0.11000000000000121,raspberries,1648.1999998092651,1649,1648.5,True,i,79967.0,2151.399999856949,1669829665723,2152,HRV,HRV_0056,2022-11-30 17:38:25
47,"[{'imgObject': {}, 'id': 'salmon', 'src': '/static/foodstim60/salmon.jpg', 'key': 'u', 'origWidth': 410, 'origHeight': 409, 'width': 410, 'height': 409, 'widthPercent': 0.45, 'rescaleHeight': False, 'trialN': 47, 'loaded': True, 'loadedTime': 2648.5, 'positionName': 'LEFT', 'positionCoords': [327.28, 227.5], 'bid': 5.01}, {'imgObject': {}, 'id': 'baked potato', 'src': '/static/foodstim60/baked potato.jpg', 'key': 'i', 'origWidth': 409, 'origHeight': 410, 'width': 409, 'height': 410, 'widthPercent': 0.45, 'rescaleHeight': False, 'trialN': 47, 'loaded': True, 'loadedTime': 2724.7000000476837, 'positionName': 'RIGHT', 'positionCoords': [798.72, 227], 'bid': 3.3200000000000003}]",79967.20000004768,1669829665723,salmon,baked potato,5.01,3.3200000000000003,-1.6899999999999995,baked potato,1676.7000000476837,1677,1677.2999999523163,True,i,82151.60000014305,2184.4000000953674,1669829667907,2184,HRV,HRV_0056,2022-11-30 17:38:25
48,"[{'imgObject': {}, 'id': 'banana', 'src': '/static/foodstim60/banana.jpg', 'key': 'u', 'origWidth': 410, 'origHeight': 410, 'width': 410, 'height': 410, 'widthPercent': 0.45, 'rescaleHeight': False, 'trialN': 48, 'loaded': True, 'loadedTime': 2520.7000000476837, 'positionName': 'LEFT', 'positionCoords': [327.28, 227], 'bid': 9.88}, {'imgObject': {}, 'id': 'orange slices', 'src': '/static/foodstim60/orange slices.jpg', 'key': 'i', 'origWidth': 409, 'origHeight': 410, 'width': 409, 'height': 410, 'widthPercent': 0.45, 'rescaleHeight': False, 'trialN': 48, 'loaded': True, 'loadedTime': 2522.2000000476837, 'positionName': 'RIGHT', 'positionCoords': [798.72, 227], 'bid': 9.9}]",82151.70000004768,1669829667907,banana,orange slices,9.88,9.9,0.019999999999999574,orange slices,2133.7999999523163,2135,2134.4000000953674,True,i,84792.29999995232,2640.5999999046326,1669829670548,2641,HRV,HRV_0056,2022-11-30 17:38:25
49,"[{'imgObject': {}, 'id': 'baked potato', 'src': '/static/foodstim60/baked potato.jpg', 'key': 'u', 'origWidth': 409, 'origHeight': 410, 'width': 409, 'height': 410, 'widthPercent': 0.45, 'rescaleHeight': False, 'trialN': 49, 'loaded': True, 'loadedTime': 2724.2999999523163, 'positionName': 'LEFT', 'positionCoords': [328.28, 227], 'bid': 3.3200000000000003}, {'imgObject': {}, 'id': 'eggs', 'src': '/static/foodstim60/eggs.jpg', 'key': 'i', 'origWidth': 409, 'origHeight': 409, 'width': 409, 'height': 409, 'widthPercent': 0.45, 'rescaleHeight': False, 'trialN': 49, 'loaded': True, 'loadedTime': 2574.4000000953674, 'positionName': 'RIGHT', 'positionCoords': [798.72, 227.5], 'bid': 6.28}]",84792.5,1669829670548,baked potato,eggs,3.3200000000000003,6.28,2.96,eggs,679.2999999523163,680,679.9000000953674,True,i,85976.20000004768,1183.7000000476837,1669829671732,1184,HRV,HRV_0056,2022-11-30 17:38:25
50,"[{'imgObject': {}, 'id': 'chicken nuggets2', 'src': '/static/foodstim60/chicken nuggets2.jpg', 'key': 'u', 'origWidth': 410, 'origHeight': 409, 'width': 410, 'height': 409, 'widthPercent': 0.45, 'rescaleHeight': False, 'trialN': 50, 'loaded': True, 'loadedTime': 2509.2000000476837, 'positionName': 'LEFT', 'positionCoords': [327.28, 227.5], 'bid': 6.44}, {'imgObject': {}, 'id': 'Grapes', 'src': '/static/foodstim60/Grapes.jpg', 'key': 'i', 'origWidth': 411, 'origHeight': 411, 'width': 411, 'height': 411, 'widthPercent': 0.45, 'rescaleHeight': False, 'trialN': 50, 'loaded': True, 'loadedTime': 2599.7999999523163, 'positionName': 'RIGHT', 'positionCoords': [798.72, 226.5], 'bid': 9.84}]",85976.40000009537,1669829671732,chicken nuggets2,Grapes,6.44,9.84,3.3999999999999995,Grapes,623.7999999523163,625,624.3999998569489,True,i,87103.79999995232,1127.3999998569489,1669829672860,1128,HRV,HRV_0056,2022-11-30 17:38:25
51,"[{'imgObject': {}, 'id': 'bagel and cc', 'src': '/static/foodstim60/bagel and cc.jpg', 'key': 'u', 'origWidth': 410, 'origHeight': 410, 'width': 410, 'height': 410, 'widthPercent': 0.45, 'rescaleHeight': False, 'trialN': 51, 'loaded': True, 'loadedTime': 2413.7000000476837, 'positionName': 'LEFT', 'positionCoords': [327.28, 227], 'bid': 7.91}, {'imgObject': {}, 'id': 'avocado', 'src': '/static/foodstim60/avocado.jpg', 'key': 'i', 'origWidth': 409, 'origHeight': 409, 'width': 409, 'height': 409, 'widthPercent': 0.45, 'rescaleHeight': False, 'trialN': 51, 'loaded': True, 'loadedTime': 2446.5, 'positionName': 'RIGHT', 'positionCoords': [798.72, 227.5], 'bid': 7.25}]",87104.0,1669829672860,bagel and cc,avocado,7.91,7.25,-0.6600000000000001,bagel and cc,787.2999999523163,787,787.7000000476837,True,u,88391.70000004768,1287.7000000476837,1669829674148,1288,HRV,HRV_0056,2022-11-30 17:38:25
52,"[{'imgObject': {}, 'id': 'raspberries', 'src': '/static/foodstim60/raspberries.jpg', 'key': 'u', 'origWidth': 411, 'origHeight': 411, 'width': 411, 'height': 411, 'widthPercent': 0.45, 'rescaleHeight': False, 'trialN': 52, 'loaded': True, 'loadedTime': 2673.7000000476837, 'positionName': 'LEFT', 'positionCoords': [326.28, 226.5], 'bid': 9.88}, {'imgObject': {}, 'id': 'hashbrowns', 'src': '/static/foodstim60/hashbrowns.jpg', 'key': 'i', 'origWidth': 411, 'origHeight': 410, 'width': 411, 'height': 410, 'widthPercent': 0.45, 'rescaleHeight': False, 'trialN': 52, 'loaded': True, 'loadedTime': 2415.600000143051, 'positionName': 'RIGHT', 'positionCoords': [798.72, 227], 'bid': 2.47}]",88392.0,1669829674148,raspberries,hashbrowns,9.88,2.47,-7.41,raspberries,816.7000000476837,817,817.2000000476837,True,u,89711.79999995232,1319.7999999523163,1669829675468,1320,HRV,HRV_0056,2022-11-30 17:38:25
53,"[{'imgObject': {}, 'id': 'corn cob', 'src': '/static/foodstim60/corn cob.jpg', 'key': 'u', 'origWidth': 411, 'origHeight': 411, 'width': 411, 'height': 411, 'widthPercent': 0.45, 'rescaleHeight': False, 'trialN': 53, 'loaded': True, 'loadedTime': 2403, 'positionName': 'LEFT', 'positionCoords': [326.28, 226.5], 'bid': 0.87}, {'imgObject': {}, 'id': 'froot loops w milk', 'src': '/static/foodstim60/froot loops w milk.jpg', 'key': 'i', 'origWidth': 410, 'origHeight': 410, 'width': 410, 'height': 410, 'widthPercent': 0.45, 'rescaleHeight': False, 'trialN': 53, 'loaded': True, 'loadedTime': 2583.7000000476837, 'positionName': 'RIGHT', 'positionCoords': [798.72, 227], 'bid': 0.42}]",89712.0,1669829675468,corn cob,froot loops w milk,0.87,0.42,-0.45,froot loops w milk,560.1000001430511,560,560.7999999523163,True,i,90775.90000009537,1063.9000000953674,1669829676532,1064,HRV,HRV_0056,2022-11-30 17:38:25
54,"[{'imgObject': {}, 'id': 'eggsalad', 'src': '/static/foodstim60/eggsalad.jpg', 'key': 'u', 'origWidth': 410, 'origHeight': 409, 'width': 410, 'height': 409, 'widthPercent': 0.45, 'rescaleHeight': False, 'trialN': 54, 'loaded': True, 'loadedTime': 2675.100000143051, 'positionName': 'LEFT', 'positionCoords': [327.28, 227.5], 'bid': 0.92}, {'imgObject': {}, 'id': 'burger', 'src': '/static/foodstim60/burger.jpg', 'key': 'i', 'origWidth': 409, 'origHeight': 409, 'width': 409, 'height': 409, 'widthPercent': 0.45, 'rescaleHeight': False, 'trialN': 54, 'loaded': True, 'loadedTime': 2392.100000143051, 'positionName': 'RIGHT', 'positionCoords': [798.72, 227.5], 'bid': 2.23}]",90776.10000014305,1669829676532,eggsalad,burger,0.92,2.23,1.31,eggsalad,821.2999999523163,822,821.7999999523163,True,u,92103.60000014305,1327.5,1669829677859,1327,HRV,HRV_0056,2022-11-30 17:38:25
55,"[{'imgObject': {}, 'id': 'fruitsalad', 'src': '/static/foodstim60/fruitsalad.jpg', 'key': 'u', 'origWidth': 410, 'origHeight': 410, 'width': 410, 'height': 410, 'widthPercent': 0.45, 'rescaleHeight': False, 'trialN': 55, 'loaded': True, 'loadedTime': 2410.7999999523163, 'positionName': 'LEFT', 'positionCoords': [327.28, 227], 'bid': 10}, {'imgObject': {}, 'id': 'seaweed', 'src': '/static/foodstim60/seaweed.jpg', 'key': 'i', 'origWidth': 410, 'origHeight': 410, 'width': 410, 'height': 410, 'widthPercent': 0.45, 'rescaleHeight': False, 'trialN': 55, 'loaded': True, 'loadedTime': 2426.7000000476837, 'positionName': 'RIGHT', 'positionCoords': [798.72, 227], 'bid': 3.3200000000000003}]",92103.79999995232,1669829677860,fruitsalad,seaweed,10.0,3.3200000000000003,-6.68,seaweed,946.2000000476837,946,946.6000001430511,True,i,93551.60000014305,1447.8000001907349,1669829679307,1447,HRV,HRV_0056,2022-11-30 17:38:25
56,"[{'imgObject': {}, 'id': 'Tribe humus pita', 'src': '/static/foodstim60/Tribe humus pita.jpg', 'key': 'u', 'origWidth': 411, 'origHeight': 411, 'width': 411, 'height': 411, 'widthPercent': 0.45, 'rescaleHeight': False, 'trialN': 56, 'loaded': True, 'loadedTime': 2616.7999999523163, 'positionName': 'LEFT', 'positionCoords': [326.28, 226.5], 'bid': 2.09}, {'imgObject': {}, 'id': 'cherries', 'src': '/static/foodstim60/cherries.jpg', 'key': 'i', 'origWidth': 410, 'origHeight': 411, 'width': 410, 'height': 411, 'widthPercent': 0.45, 'rescaleHeight': False, 'trialN': 56, 'loaded': True, 'loadedTime': 2619.2000000476837, 'positionName': 'RIGHT', 'positionCoords': [798.72, 226.5], 'bid': 9.81}]",93551.70000004768,1669829679307,Tribe humus pita,cherries,2.09,9.81,7.720000000000001,cherries,601.2000000476837,602,601.9000000953674,True,i,94655.60000014305,1103.9000000953674,1669829680411,1104,HRV,HRV_0056,2022-11-30 17:38:25
57,"[{'imgObject': {}, 'id': 'chickenfingers', 'src': '/static/foodstim60/chickenfingers.jpg', 'key': 'u', 'origWidth': 410, 'origHeight': 410, 'width': 410, 'height': 410, 'widthPercent': 0.45, 'rescaleHeight': False, 'trialN': 57, 'loaded': True, 'loadedTime': 2697.7999999523163, 'positionName': 'LEFT', 'positionCoords': [327.28, 227], 'bid': 8.75}, {'imgObject': {}, 'id': 'mango', 'src': '/static/foodstim60/mango.jpg', 'key': 'i', 'origWidth': 411, 'origHeight': 411, 'width': 411, 'height': 411, 'widthPercent': 0.45, 'rescaleHeight': False, 'trialN': 57, 'loaded': True, 'loadedTime': 2725.100000143051, 'positionName': 'RIGHT', 'positionCoords': [798.72, 226.5], 'bid': 6.92}]",94655.90000009537,1669829680412,chickenfingers,mango,8.75,6.92,-1.83,mango,1598.7000000476837,1599,1599.0999999046326,True,i,96759.90000009537,2104.0,1669829682516,2104,HRV,HRV_0056,2022-11-30 17:38:25
58,"[{'imgObject': {}, 'id': 'Tribe humus pita', 'src': '/static/foodstim60/Tribe humus pita.jpg', 'key': 'u', 'origWidth': 411, 'origHeight': 411, 'width': 411, 'height': 411, 'widthPercent': 0.45, 'rescaleHeight': False, 'trialN': 58, 'loaded': True, 'loadedTime': 2615.600000143051, 'positionName': 'LEFT', 'positionCoords': [326.28, 226.5], 'bid': 2.09}, {'imgObject': {}, 'id': 'rigatoni', 'src': '/static/foodstim60/rigatoni.jpg', 'key': 'i', 'origWidth': 411, 'origHeight': 411, 'width': 411, 'height': 411, 'widthPercent': 0.45, 'rescaleHeight': False, 'trialN': 58, 'loaded': True, 'loadedTime': 2663, 'positionName': 'RIGHT', 'positionCoords': [798.72, 226.5], 'bid': 0.18}]",96760.10000014305,1669829682516,Tribe humus pita,rigatoni,2.09,0.18,-1.91,Tribe humus pita,778,779,778.6999998092651,True,u,98039.70000004768,1279.5999999046326,1669829683795,1279,HRV,HRV_0056,2022-11-30 17:38:25
59,"[{'imgObject': {}, 'id': 'granola w milk', 'src': '/static/foodstim60/granola w milk.jpg', 'key': 'u', 'origWidth': 410, 'origHeight': 410, 'width': 410, 'height': 410, 'widthPercent': 0.45, 'rescaleHeight': False, 'trialN': 59, 'loaded': True, 'loadedTime': 2518, 'positionName': 'LEFT', 'positionCoords': [327.28, 227], 'bid': 0}, {'imgObject': {}, 'id': 'sweetpotato', 'src': '/static/foodstim60/sweetpotato.jpg', 'key': 'i', 'origWidth': 410, 'origHeight': 410, 'width': 410, 'height': 410, 'widthPercent': 0.45, 'rescaleHeight': False, 'trialN': 59, 'loaded': True, 'loadedTime': 2736.7999999523163, 'positionName': 'RIGHT', 'positionCoords': [798.72, 227], 'bid': 0}]",98039.90000009537,1669829683796,granola w milk,sweetpotato,0.0,0.0,0.0,sweetpotato,1046.8999998569489,1047,1047.3999998569489,True,i,99591.20000004768,1551.2999999523163,1669829685347,1551,HRV,HRV_0056,2022-11-30 17:38:25
60,"[{'imgObject': {}, 'id': 'cocktailshrimp', 'src': '/static/foodstim60/cocktailshrimp.jpg', 'key': 'u', 'origWidth': 410, 'origHeight': 410, 'width': 410, 'height': 410, 'widthPercent': 0.45, 'rescaleHeight': False, 'trialN': 60, 'loaded': True, 'loadedTime': 2677.9000000953674, 'positionName': 'LEFT', 'positionCoords': [327.28, 227], 'bid': 4.2}, {'imgObject': {}, 'id': 'baked potato', 'src': '/static/foodstim60/baked potato.jpg', 'key': 'i', 'origWidth': 409, 'origHeight': 410, 'width': 409, 'height': 410, 'widthPercent': 0.45, 'rescaleHeight': False, 'trialN': 60, 'loaded': True, 'loadedTime': 2723.100000143051, 'positionName': 'RIGHT', 'positionCoords': [798.72, 227], 'bid': 3.3200000000000003}]",99591.29999995232,1669829685347,cocktailshrimp,baked potato,4.2,3.3200000000000003,-0.8799999999999999,NaN,NaN,NaN,,False,NaN,103600.40000009537,4009.100000143051,1669829689356,4009,HRV,HRV_0056,2022-11-30 17:38:25
61,"[{'imgObject': {}, 'id': 'raisin bran w milk', 'src': '/static/foodstim60/raisin bran w milk.jpg', 'key': 'u', 'origWidth': 411, 'origHeight': 411, 'width': 411, 'height': 411, 'widthPercent': 0.45, 'rescaleHeight': False, 'trialN': 61, 'loaded': True, 'loadedTime': 2738.2000000476837, 'positionName': 'LEFT', 'positionCoords': [326.28, 226.5], 'bid': 0.35}, {'imgObject': {}, 'id': 'rigatoni', 'src': '/static/foodstim60/rigatoni.jpg', 'key': 'i', 'origWidth': 411, 'origHeight': 411, 'width': 411, 'height': 411, 'widthPercent': 0.45, 'rescaleHeight': False, 'trialN': 61, 'loaded': True, 'loadedTime': 2661.4000000953674, 'positionName': 'RIGHT', 'positionCoords': [798.72, 226.5], 'bid': 0.18}]",103600.60000014305,1669829689356,raisin bran w milk,rigatoni,0.35,0.18,-0.16999999999999998,NaN,NaN,NaN,,False,NaN,107608.40000009537,4007.7999999523163,1669829693363,4007,HRV,HRV_0056,2022-11-30 17:38:25
62,"[{'imgObject': {}, 'id': 'cherry tomato', 'src': '/static/foodstim60/cherry tomato.jpg', 'key': 'u', 'origWidth': 410, 'origHeight': 410, 'width': 410, 'height': 410, 'widthPercent': 0.45, 'rescaleHeight': False, 'trialN': 62, 'loaded': True, 'loadedTime': 2446.2000000476837, 'positionName': 'LEFT', 'positionCoords': [327.28, 227], 'bid': 0.16}, {'imgObject': {}, 'id': 'olives', 'src': '/static/foodstim60/olives.jpg', 'key': 'i', 'origWidth': 410, 'origHeight': 410, 'width': 410, 'height': 410, 'widthPercent': 0.45, 'rescaleHeight': False, 'trialN': 62, 'loaded': True, 'loadedTime': 2329.100000143051, 'positionName': 'RIGHT', 'positionCoords': [798.72, 227], 'bid': 0.13}]",107608.5,1669829693363,cherry tomato,olives,0.16,0.13,-0.03,olives,162.5,163,163.10000014305115,True,i,108272.20000004768,663.7000000476837,1669829694027,664,HRV,HRV_0056,2022-11-30 17:38:25
63,"[{'imgObject': {}, 'id': 'raisin bran w milk', 'src': '/static/foodstim60/raisin bran w milk.jpg', 'key': 'u', 'origWidth': 411, 'origHeight': 411, 'width': 411, 'height': 411, 'widthPercent': 0.45, 'rescaleHeight': False, 'trialN': 63, 'loaded': True, 'loadedTime': 2736.9000000953674, 'positionName': 'LEFT', 'positionCoords': [326.28, 226.5], 'bid': 0.35}, {'imgObject': {}, 'id': 'mango', 'src': '/static/foodstim60/mango.jpg', 'key': 'i', 'origWidth': 411, 'origHeight': 411, 'width': 411, 'height': 411, 'widthPercent': 0.45, 'rescaleHeight': False, 'trialN': 63, 'loaded': True, 'loadedTime': 2726.600000143051, 'positionName': 'RIGHT', 'positionCoords': [798.72, 226.5], 'bid': 6.92}]",108272.40000009537,1669829694027,raisin bran w milk,mango,0.35,6.92,6.57,raisin bran w milk,414,414,414.39999985694885,True,u,109192.20000004768,919.7999999523163,1669829694947,920,HRV,HRV_0056,2022-11-30 17:38:25
64,"[{'imgObject': {}, 'id': 'lox', 'src': '/static/foodstim60/lox.jpg', 'key': 'u', 'origWidth': 410, 'origHeight': 411, 'width': 410, 'height': 411, 'widthPercent': 0.45, 'rescaleHeight': False, 'trialN': 64, 'loaded': True, 'loadedTime': 2721.2000000476837, 'positionName': 'LEFT', 'positionCoords': [327.28, 226.5], 'bid': 3.3000000000000003}, {'imgObject': {}, 'id': 'tacos', 'src': '/static/foodstim60/tacos.jpg', 'key': 'i', 'origWidth': 411, 'origHeight': 411, 'width': 411, 'height': 411, 'widthPercent': 0.45, 'rescaleHeight': False, 'trialN': 64, 'loaded': True, 'loadedTime': 2423.600000143051, 'positionName': 'RIGHT', 'positionCoords': [798.72, 226.5], 'bid': 3.29}]",109192.40000009537,1669829694947,lox,tacos,3.3000000000000003,3.29,-0.010000000000000231,lox,886.7999999523163,887,887.2000000476837,True,u,110584.40000009537,1392.0,1669829696339,1392,HRV,HRV_0056,2022-11-30 17:38:25
65,"[{'imgObject': {}, 'id': 'steak', 'src': '/static/foodstim60/steak.jpg', 'key': 'u', 'origWidth': 410, 'origHeight': 410, 'width': 410, 'height': 410, 'widthPercent': 0.45, 'rescaleHeight': False, 'trialN': 65, 'loaded': True, 'loadedTime': 2740.4000000953674, 'positionName': 'LEFT', 'positionCoords': [327.28, 227], 'bid': 5.22}, {'imgObject': {}, 'id': 'strawberries', 'src': '/static/foodstim60/strawberries.jpg', 'key': 'i', 'origWidth': 410, 'origHeight': 410, 'width': 410, 'height': 410, 'widthPercent': 0.45, 'rescaleHeight': False, 'trialN': 65, 'loaded': True, 'loadedTime': 2672.2999999523163, 'positionName': 'RIGHT', 'positionCoords': [798.72, 227], 'bid': 9.85}]",110584.5,1669829696339,steak,strawberries,5.22,9.85,4.63,strawberries,555,556,555.6000001430511,True,i,111647.60000014305,1063.1000001430511,1669829697402,1063,HRV,HRV_0056,2022-11-30 17:38:25
66,"[{'imgObject': {}, 'id': 'apple slices', 'src': '/static/foodstim60/apple slices.jpg', 'key': 'u', 'origWidth': 409, 'origHeight': 410, 'width': 409, 'height': 410, 'widthPercent': 0.45, 'rescaleHeight': False, 'trialN': 66, 'loaded': True, 'loadedTime': 2718.9000000953674, 'positionName': 'LEFT', 'positionCoords': [328.28, 227], 'bid': 4.32}, {'imgObject': {}, 'id': 'omelette', 'src': '/static/foodstim60/omelette.jpg', 'key': 'i', 'origWidth': 410, 'origHeight': 409, 'width': 410, 'height': 409, 'widthPercent': 0.45, 'rescaleHeight': False, 'trialN': 66, 'loaded': True, 'loadedTime': 2659.600000143051, 'positionName': 'RIGHT', 'positionCoords': [798.72, 227.5], 'bid': 4.55}]",111647.90000009537,1669829697402,apple slices,omelette,4.32,4.55,0.22999999999999954,apple slices,696.2999999523163,697,696.7000000476837,True,u,112848.70000004768,1200.7999999523163,1669829698603,1201,HRV,HRV_0056,2022-11-30 17:38:25
67,"[{'imgObject': {}, 'id': 'shreddedwheatwithmilk', 'src': '/static/foodstim60/shreddedwheatwithmilk.jpg', 'key': 'u', 'origWidth': 410, 'origHeight': 410, 'width': 410, 'height': 410, 'widthPercent': 0.45, 'rescaleHeight': False, 'trialN': 67, 'loaded': True, 'loadedTime': 2579.7000000476837, 'positionName': 'LEFT', 'positionCoords': [327.28, 227], 'bid': 0.48}, {'imgObject': {}, 'id': 'cheerios', 'src': '/static/foodstim60/cheerios.jpg', 'key': 'i', 'origWidth': 409, 'origHeight': 410, 'width': 409, 'height': 410, 'widthPercent': 0.45, 'rescaleHeight': False, 'trialN': 67, 'loaded': True, 'loadedTime': 2683.4000000953674, 'positionName': 'RIGHT', 'positionCoords': [798.72, 227], 'bid': 0}]",112848.90000009537,1669829698604,shreddedwheatwithmilk,cheerios,0.48,0.0,-0.48,shreddedwheatwithmilk,1023.5999999046326,1024,1024.0,True,u,114375.90000009537,1527.0,1669829700131,1527,HRV,HRV_0056,2022-11-30 17:38:25
68,"[{'imgObject': {}, 'id': 'mango', 'src': '/static/foodstim60/mango.jpg', 'key': 'u', 'origWidth': 411, 'origHeight': 411, 'width': 411, 'height': 411, 'widthPercent': 0.45, 'rescaleHeight': False, 'trialN': 68, 'loaded': True, 'loadedTime': 2734.7000000476837, 'positionName': 'LEFT', 'positionCoords': [326.28, 226.5], 'bid': 6.92}, {'imgObject': {}, 'id': 'sushi w_condiments', 'src': '/static/foodstim60/sushi w_condiments.jpg', 'key': 'i', 'origWidth': 410, 'origHeight': 410, 'width': 410, 'height': 410, 'widthPercent': 0.45, 'rescaleHeight': False, 'trialN': 68, 'loaded': True, 'loadedTime': 2743.9000000953674, 'positionName': 'RIGHT', 'positionCoords': [798.72, 227], 'bid': 9.92}]",114376.20000004768,1669829700131,mango,sushi w_condiments,6.92,9.92,3.0,sushi w_condiments,818.9000000953674,819,819.4000000953674,True,i,115703.70000004768,1327.5,1669829701458,1327,HRV,HRV_0056,2022-11-30 17:38:25
69,"[{'imgObject': {}, 'id': 'cherry tomato', 'src': '/static/foodstim60/cherry tomato.jpg', 'key': 'u', 'origWidth': 410, 'origHeight': 410, 'width': 410, 'height': 410, 'widthPercent': 0.45, 'rescaleHeight': False, 'trialN': 69, 'loaded': True, 'loadedTime': 2435.7999999523163, 'positionName': 'LEFT', 'positionCoords': [327.28, 227], 'bid': 0.16}, {'imgObject': {}, 'id': 'blackbeanswithrice', 'src': '/static/foodstim60/blackbeanswithrice.jpg', 'key': 'i', 'origWidth': 410, 'origHeight': 410, 'width': 410, 'height': 410, 'widthPercent': 0.45, 'rescaleHeight': False, 'trialN': 69, 'loaded': True, 'loadedTime': 2745.9000000953674, 'positionName': 'RIGHT', 'positionCoords': [798.72, 227], 'bid': 0.07}]",115703.90000009537,1669829701459,cherry tomato,blackbeanswithrice,0.16,0.07,-0.09,blackbeanswithrice,1198,1198,1198.5,True,i,117407.10000014305,1703.2000000476837,1669829703162,1703,HRV,HRV_0056,2022-11-30 17:38:25
70,"[{'imgObject': {}, 'id': 'luckycharms', 'src': '/static/foodstim60/luckycharms.jpg', 'key': 'u', 'origWidth': 410, 'origHeight': 409, 'width': 410, 'height': 409, 'widthPercent': 0.45, 'rescaleHeight': False, 'trialN': 70, 'loaded': True, 'loadedTime': 2434.100000143051, 'positionName': 'LEFT', 'positionCoords': [327.28, 227.5], 'bid': 0}, {'imgObject': {}, 'id': 'cheerios', 'src': '/static/foodstim60/cheerios.jpg', 'key': 'i', 'origWidth': 409, 'origHeight': 410, 'width': 409, 'height': 410, 'widthPercent': 0.45, 'rescaleHeight': False, 'trialN': 70, 'loaded': True, 'loadedTime': 2683, 'positionName': 'RIGHT', 'positionCoords': [798.72, 227], 'bid': 0}]",117407.20000004768,1669829703162,luckycharms,cheerios,0.0,0.0,0.0,luckycharms,1276.7999999523163,1277,1277.2999999523163,True,u,119191.5,1784.2999999523163,1669829704946,1784,HRV,HRV_0056,2022-11-30 17:38:25
71,"[{'imgObject': {}, 'id': 'hashbrowns', 'src': '/static/foodstim60/hashbrowns.jpg', 'key': 'u', 'origWidth': 411, 'origHeight': 410, 'width': 411, 'height': 410, 'widthPercent': 0.45, 'rescaleHeight': False, 'trialN': 71, 'loaded': True, 'loadedTime': 2415.100000143051, 'positionName': 'LEFT', 'positionCoords': [326.28, 227], 'bid': 2.47}, {'imgObject': {}, 'id': 'veggieswithdip', 'src': '/static/foodstim60/veggieswithdip.jpg', 'key': 'i', 'origWidth': 409, 'origHeight': 409, 'width': 409, 'height': 409, 'widthPercent': 0.45, 'rescaleHeight': False, 'trialN': 71, 'loaded': True, 'loadedTime': 2747.2999999523163, 'positionName': 'RIGHT', 'positionCoords': [798.72, 227.5], 'bid': 4.84}]",119191.60000014305,1669829704946,hashbrowns,veggieswithdip,2.47,4.84,2.3699999999999997,veggieswithdip,1345.1999998092651,1346,1345.6999998092651,True,i,121039.29999995232,1847.6999998092651,1669829706794,1848,HRV,HRV_0056,2022-11-30 17:38:25
72,"[{'imgObject': {}, 'id': 'pear', 'src': '/static/foodstim60/pear.jpg', 'key': 'u', 'origWidth': 411, 'origHeight': 410, 'width': 411, 'height': 410, 'widthPercent': 0.45, 'rescaleHeight': False, 'trialN': 72, 'loaded': True, 'loadedTime': 2613.600000143051, 'positionName': 'LEFT', 'positionCoords': [326.28, 227], 'bid': 5.07}, {'imgObject': {}, 'id': 'yogurt no spoon', 'src': '/static/foodstim60/yogurt no spoon.jpg', 'key': 'i', 'origWidth': 411, 'origHeight': 410, 'width': 411, 'height': 410, 'widthPercent': 0.45, 'rescaleHeight': False, 'trialN': 72, 'loaded': True, 'loadedTime': 2622.2999999523163, 'positionName': 'RIGHT', 'positionCoords': [798.72, 227], 'bid': 9.84}]",121039.5,1669829706794,pear,yogurt no spoon,5.07,9.84,4.77,yogurt no spoon,1127.4000000953674,1128,1128.0,True,i,122671.60000014305,1632.1000001430511,1669829708426,1632,HRV,HRV_0056,2022-11-30 17:38:25
73,"[{'imgObject': {}, 'id': 'hashbrowns', 'src': '/static/foodstim60/hashbrowns.jpg', 'key': 'u', 'origWidth': 411, 'origHeight': 410, 'width': 411, 'height': 410, 'widthPercent': 0.45, 'rescaleHeight': False, 'trialN': 73, 'loaded': True, 'loadedTime': 2416.2999999523163, 'positionName': 'LEFT', 'positionCoords': [326.28, 227], 'bid': 2.47}, {'imgObject': {}, 'id': 'rigatoni', 'src': '/static/foodstim60/rigatoni.jpg', 'key': 'i', 'origWidth': 411, 'origHeight': 411, 'width': 411, 'height': 411, 'widthPercent': 0.45, 'rescaleHeight': False, 'trialN': 73, 'loaded': True, 'loadedTime': 2662.7999999523163, 'positionName': 'RIGHT', 'positionCoords': [798.72, 226.5], 'bid': 0.18}]",122671.79999995232,1669829708427,hashbrowns,rigatoni,2.47,0.18,-2.29,hashbrowns,1711.2000000476837,1711,1711.5,True,u,124887.90000009537,2216.100000143051,1669829710643,2216,HRV,HRV_0056,2022-11-30 17:38:25
74,"[{'imgObject': {}, 'id': 'chickenfingers', 'src': '/static/foodstim60/chickenfingers.jpg', 'key': 'u', 'origWidth': 410, 'origHeight': 410, 'width': 410, 'height': 410, 'widthPercent': 0.45, 'rescaleHeight': False, 'trialN': 74, 'loaded': True, 'loadedTime': 2696.2000000476837, 'positionName': 'LEFT', 'positionCoords': [327.28, 227], 'bid': 8.75}, {'imgObject': {}, 'id': 'blueberries', 'src': '/static/foodstim60/blueberries.jpg', 'key': 'i', 'origWidth': 411, 'origHeight': 411, 'width': 411, 'height': 411, 'widthPercent': 0.45, 'rescaleHeight': False, 'trialN': 74, 'loaded': True, 'loadedTime': 2545.7999999523163, 'positionName': 'RIGHT', 'positionCoords': [798.72, 226.5], 'bid': 8.17}]",124888.10000014305,1669829710643,chickenfingers,blueberries,8.75,8.17,-0.5800000000000001,blueberries,882.3999998569489,883,882.8999998569489,True,i,126271.29999995232,1383.1999998092651,1669829712026,1383,HRV,HRV_0056,2022-11-30 17:38:25
75,"[{'imgObject': {}, 'id': 'lox', 'src': '/static/foodstim60/lox.jpg', 'key': 'u', 'origWidth': 410, 'origHeight': 411, 'width': 410, 'height': 411, 'widthPercent': 0.45, 'rescaleHeight': False, 'trialN': 75, 'loaded': True, 'loadedTime': 2721.600000143051, 'positionName': 'LEFT', 'positionCoords': [327.28, 226.5], 'bid': 3.3000000000000003}, {'imgObject': {}, 'id': 'salad w chicken', 'src': '/static/foodstim60/salad w chicken.jpg', 'key': 'i', 'origWidth': 411, 'origHeight': 411, 'width': 411, 'height': 411, 'widthPercent': 0.45, 'rescaleHeight': False, 'trialN': 75, 'loaded': True, 'loadedTime': 2749.7999999523163, 'positionName': 'RIGHT', 'positionCoords': [798.72, 226.5], 'bid': 2.53}]",126271.5,1669829712026,lox,salad w chicken,3.3000000000000003,2.53,-0.7700000000000005,salad w chicken,120.60000014305115,121,121.10000014305115,True,i,126895.29999995232,623.7999999523163,1669829712650,624,HRV,HRV_0056,2022-11-30 17:38:25
76,"[{'imgObject': {}, 'id': 'yogurt no spoon', 'src': '/static/foodstim60/yogurt no spoon.jpg', 'key': 'u', 'origWidth': 411, 'origHeight': 410, 'width': 411, 'height': 410, 'widthPercent': 0.45, 'rescaleHeight': False, 'trialN': 76, 'loaded': True, 'loadedTime': 2620.600000143051, 'positionName': 'LEFT', 'positionCoords': [326.28, 227], 'bid': 9.84}, {'imgObject': {}, 'id': 'burger', 'src': '/static/foodstim60/burger.jpg', 'key': 'i', 'origWidth': 409, 'origHeight': 409, 'width': 409, 'height': 409, 'widthPercent': 0.45, 'rescaleHeight': False, 'trialN': 76, 'loaded': True, 'loadedTime': 2391.600000143051, 'positionName': 'RIGHT', 'positionCoords': [798.72, 227.5], 'bid': 2.23}]",126895.40000009537,1669829712650,yogurt no spoon,burger,9.84,2.23,-7.609999999999999,burger,1521.8999998569489,1523,1522.5,True,i,128919.90000009537,2024.5,1669829714675,2025,HRV,HRV_0056,2022-11-30 17:38:25
77,"[{'imgObject': {}, 'id': 'Grapes', 'src': '/static/foodstim60/Grapes.jpg', 'key': 'u', 'origWidth': 411, 'origHeight': 411, 'width': 411, 'height': 411, 'widthPercent': 0.45, 'rescaleHeight': False, 'trialN': 77, 'loaded': True, 'loadedTime': 2607.5, 'positionName': 'LEFT', 'positionCoords': [326.28, 226.5], 'bid': 9.84}, {'imgObject': {}, 'id': 'yogurt no spoon', 'src': '/static/foodstim60/yogurt no spoon.jpg', 'key': 'i', 'origWidth': 411, 'origHeight': 410, 'width': 411, 'height': 410, 'widthPercent': 0.45, 'rescaleHeight': False, 'trialN': 77, 'loaded': True, 'loadedTime': 2621.7999999523163, 'positionName': 'RIGHT', 'positionCoords': [798.72, 227], 'bid': 9.84}]",128920.20000004768,1669829714675,Grapes,yogurt no spoon,9.84,9.84,0.0,yogurt no spoon,759.5,760,759.9000000953674,True,i,130184.20000004768,1264.0,1669829715939,1264,HRV,HRV_0056,2022-11-30 17:38:25
78,"[{'imgObject': {}, 'id': 'Grapes', 'src': '/static/foodstim60/Grapes.jpg', 'key': 'u', 'origWidth': 411, 'origHeight': 411, 'width': 411, 'height': 411, 'widthPercent': 0.45, 'rescaleHeight': False, 'trialN': 78, 'loaded': True, 'loadedTime': 2598.5, 'positionName': 'LEFT', 'positionCoords': [326.28, 226.5], 'bid': 9.84}, {'imgObject': {}, 'id': 'sushi w_condiments', 'src': '/static/foodstim60/sushi w_condiments.jpg', 'key': 'i', 'origWidth': 410, 'origHeight': 410, 'width': 410, 'height': 410, 'widthPercent': 0.45, 'rescaleHeight': False, 'trialN': 78, 'loaded': True, 'loadedTime': 2743.7999999523163, 'positionName': 'RIGHT', 'positionCoords': [798.72, 227], 'bid': 9.92}]",130184.40000009537,1669829715939,Grapes,sushi w_condiments,9.84,9.92,0.08000000000000007,NaN,NaN,NaN,,False,NaN,134190.90000009537,4006.5,1669829719946,4007,HRV,HRV_0056,2022-11-30 17:38:25
79,"[{'imgObject': {}, 'id': 'bagel plain', 'src': '/static/foodstim60/bagel plain.jpg', 'key': 'u', 'origWidth': 410, 'origHeight': 410, 'width': 410, 'height': 410, 'widthPercent': 0.45, 'rescaleHeight': False, 'trialN': 79, 'loaded': True, 'loadedTime': 2387.2000000476837, 'positionName': 'LEFT', 'positionCoords': [327.28, 227], 'bid': 0.2}, {'imgObject': {}, 'id': 'chicken nuggets2', 'src': '/static/foodstim60/chicken nuggets2.jpg', 'key': 'i', 'origWidth': 410, 'origHeight': 409, 'width': 410, 'height': 409, 'widthPercent': 0.45, 'rescaleHeight': False, 'trialN': 79, 'loaded': True, 'loadedTime': 2510.100000143051, 'positionName': 'RIGHT', 'positionCoords': [798.72, 227.5], 'bid': 6.44}]",134191.20000004768,1669829719946,bagel plain,chicken nuggets2,0.2,6.44,6.24,chicken nuggets2,620,621,620.7000000476837,True,i,135320.0,1128.7999999523163,1669829721075,1129,HRV,HRV_0056,2022-11-30 17:38:25
80,"[{'imgObject': {}, 'id': 'ice cream sundae 002', 'src': '/static/foodstim60/ice cream sundae 002.jpg', 'key': 'u', 'origWidth': 409, 'origHeight': 409, 'width': 409, 'height': 409, 'widthPercent': 0.45, 'rescaleHeight': False, 'trialN': 80, 'loaded': True, 'loadedTime': 2396, 'positionName': 'LEFT', 'positionCoords': [328.28, 227.5], 'bid': 7.94}, {'imgObject': {}, 'id': 'turkey sandwich', 'src': '/static/foodstim60/turkey sandwich.jpg', 'key': 'i', 'origWidth': 409, 'origHeight': 409, 'width': 409, 'height': 409, 'widthPercent': 0.45, 'rescaleHeight': False, 'trialN': 80, 'loaded': True, 'loadedTime': 2428.600000143051, 'positionName': 'RIGHT', 'positionCoords': [798.72, 227.5], 'bid': 5.4}]",135320.20000004768,1669829721075,ice cream sundae 002,turkey sandwich,7.94,5.4,-2.54,turkey sandwich,515.7999999523163,516,516.2999999523163,True,i,136344.79999995232,1024.5999999046326,1669829722100,1025,HRV,HRV_0056,2022-11-30 17:38:25
81,"[{'imgObject': {}, 'id': 'popsicles', 'src': '/static/foodstim60/popsicles.jpg', 'key': 'u', 'origWidth': 410, 'origHeight': 410, 'width': 410, 'height': 410, 'widthPercent': 0.45, 'rescaleHeight': False, 'trialN': 81, 'loaded': True, 'loadedTime': 2758.600000143051, 'positionName': 'LEFT', 'positionCoords': [327.28, 227], 'bid': 2.43}, {'imgObject': {}, 'id': 'omelette', 'src': '/static/foodstim60/omelette.jpg', 'key': 'i', 'origWidth': 410, 'origHeight': 409, 'width': 410, 'height': 409, 'widthPercent': 0.45, 'rescaleHeight': False, 'trialN': 81, 'loaded': True, 'loadedTime': 2656.9000000953674, 'positionName': 'RIGHT', 'positionCoords': [798.72, 227.5], 'bid': 4.55}]",136345.10000014305,1669829722100,popsicles,omelette,2.43,4.55,2.1199999999999997,popsicles,831.7999999523163,832,832.5,True,u,137679.29999995232,1334.1999998092651,1669829723434,1334,HRV,HRV_0056,2022-11-30 17:38:25
82,"[{'imgObject': {}, 'id': 'roastedpotatoes', 'src': '/static/foodstim60/roastedpotatoes.jpg', 'key': 'u', 'origWidth': 409, 'origHeight': 410, 'width': 409, 'height': 410, 'widthPercent': 0.45, 'rescaleHeight': False, 'trialN': 82, 'loaded': True, 'loadedTime': 2664.7000000476837, 'positionName': 'LEFT', 'positionCoords': [328.28, 227], 'bid': 2.17}, {'imgObject': {}, 'id': 'burger', 'src': '/static/foodstim60/burger.jpg', 'key': 'i', 'origWidth': 409, 'origHeight': 409, 'width': 409, 'height': 409, 'widthPercent': 0.45, 'rescaleHeight': False, 'trialN': 82, 'loaded': True, 'loadedTime': 2388.9000000953674, 'positionName': 'RIGHT', 'positionCoords': [798.72, 227.5], 'bid': 2.23}]",137679.5,1669829723434,roastedpotatoes,burger,2.17,2.23,0.06000000000000005,roastedpotatoes,957.5,958,957.9000000953674,True,u,139143.60000014305,1464.1000001430511,1669829724898,1464,HRV,HRV_0056,2022-11-30 17:38:25
83,"[{'imgObject': {}, 'id': 'cheerios', 'src': '/static/foodstim60/cheerios.jpg', 'key': 'u', 'origWidth': 409, 'origHeight': 410, 'width': 409, 'height': 410, 'widthPercent': 0.45, 'rescaleHeight': False, 'trialN': 83, 'loaded': True, 'loadedTime': 2691.7999999523163, 'positionName': 'LEFT', 'positionCoords': [328.28, 227], 'bid': 0}, {'imgObject': {}, 'id': 'omelette', 'src': '/static/foodstim60/omelette.jpg', 'key': 'i', 'origWidth': 410, 'origHeight': 409, 'width': 410, 'height': 409, 'widthPercent': 0.45, 'rescaleHeight': False, 'trialN': 83, 'loaded': True, 'loadedTime': 2660.5, 'positionName': 'RIGHT', 'positionCoords': [798.72, 227.5], 'bid': 4.55}]",139143.70000004768,1669829724898,cheerios,omelette,0.0,4.55,4.55,omelette,781,782,781.5,True,i,140430.90000009537,1287.2000000476837,1669829726186,1288,HRV,HRV_0056,2022-11-30 17:38:25
84,"[{'imgObject': {}, 'id': 'strawberries', 'src': '/static/foodstim60/strawberries.jpg', 'key': 'u', 'origWidth': 410, 'origHeight': 410, 'width': 410, 'height': 410, 'widthPercent': 0.45, 'rescaleHeight': False, 'trialN': 84, 'loaded': True, 'loadedTime': 2671.4000000953674, 'positionName': 'LEFT', 'positionCoords': [327.28, 227], 'bid': 9.85}, {'imgObject': {}, 'id': 'fruitsalad', 'src': '/static/foodstim60/fruitsalad.jpg', 'key': 'i', 'origWidth': 410, 'origHeight': 410, 'width': 410, 'height': 410, 'widthPercent': 0.45, 'rescaleHeight': False, 'trialN': 84, 'loaded': True, 'loadedTime': 2403.9000000953674, 'positionName': 'RIGHT', 'positionCoords': [798.72, 227], 'bid': 10}]",140431.20000004768,1669829726186,strawberries,fruitsalad,9.85,10.0,0.15000000000000036,strawberries,616.4000000953674,617,616.7000000476837,True,u,141550.90000009537,1119.7000000476837,1669829727306,1120,HRV,HRV_0056,2022-11-30 17:38:25
85,"[{'imgObject': {}, 'id': 'orange slices', 'src': '/static/foodstim60/orange slices.jpg', 'key': 'u', 'origWidth': 409, 'origHeight': 410, 'width': 409, 'height': 410, 'widthPercent': 0.45, 'rescaleHeight': False, 'trialN': 85, 'loaded': True, 'loadedTime': 2535.2000000476837, 'positionName': 'LEFT', 'positionCoords': [328.28, 227], 'bid': 9.9}, {'imgObject': {}, 'id': 'raspberries', 'src': '/static/foodstim60/raspberries.jpg', 'key': 'i', 'origWidth': 411, 'origHeight': 411, 'width': 411, 'height': 411, 'widthPercent': 0.45, 'rescaleHeight': False, 'trialN': 85, 'loaded': True, 'loadedTime': 2672.7000000476837, 'positionName': 'RIGHT', 'positionCoords': [798.72, 226.5], 'bid': 9.88}]",141551.20000004768,1669829727306,orange slices,raspberries,9.9,9.88,-0.019999999999999574,orange slices,769.9000000953674,770,770.4000000953674,True,u,142824.60000014305,1273.4000000953674,1669829728579,1273,HRV,HRV_0056,2022-11-30 17:38:25
86,"[{'imgObject': {}, 'id': 'roastedpotatoes', 'src': '/static/foodstim60/roastedpotatoes.jpg', 'key': 'u', 'origWidth': 409, 'origHeight': 410, 'width': 409, 'height': 410, 'widthPercent': 0.45, 'rescaleHeight': False, 'trialN': 86, 'loaded': True, 'loadedTime': 2664.9000000953674, 'positionName': 'LEFT', 'positionCoords': [328.28, 227], 'bid': 2.17}, {'imgObject': {}, 'id': 'blackbeanswithrice', 'src': '/static/foodstim60/blackbeanswithrice.jpg', 'key': 'i', 'origWidth': 410, 'origHeight': 410, 'width': 410, 'height': 410, 'widthPercent': 0.45, 'rescaleHeight': False, 'trialN': 86, 'loaded': True, 'loadedTime': 2746, 'positionName': 'RIGHT', 'positionCoords': [798.72, 227], 'bid': 0.07}]",142824.70000004768,1669829728579,roastedpotatoes,blackbeanswithrice,2.17,0.07,-2.1,blackbeanswithrice,1132.7000000476837,1133,1133.0999999046326,True,i,144464.79999995232,1640.0999999046326,1669829730219,1640,HRV,HRV_0056,2022-11-30 17:38:25
87,"[{'imgObject': {}, 'id': 'kiwi', 'src': '/static/foodstim60/kiwi.jpg', 'key': 'u', 'origWidth': 410, 'origHeight': 410, 'width': 410, 'height': 410, 'widthPercent': 0.45, 'rescaleHeight': False, 'trialN': 87, 'loaded': True, 'loadedTime': 2645.2000000476837, 'positionName': 'LEFT', 'positionCoords': [327.28, 227], 'bid': 1.91}, {'imgObject': {}, 'id': 'chickenfingers', 'src': '/static/foodstim60/chickenfingers.jpg', 'key': 'i', 'origWidth': 410, 'origHeight': 410, 'width': 410, 'height': 410, 'widthPercent': 0.45, 'rescaleHeight': False, 'trialN': 87, 'loaded': True, 'loadedTime': 2694, 'positionName': 'RIGHT', 'positionCoords': [798.72, 227], 'bid': 8.75}]",144465.0,1669829730220,kiwi,chickenfingers,1.91,8.75,6.84,chickenfingers,617.2999999523163,618,617.9000000953674,True,i,145584.40000009537,1119.4000000953674,1669829731339,1119,HRV,HRV_0056,2022-11-30 17:38:25
88,"[{'imgObject': {}, 'id': 'Tribe humus pita', 'src': '/static/foodstim60/Tribe humus pita.jpg', 'key': 'u', 'origWidth': 411, 'origHeight': 411, 'width': 411, 'height': 411, 'widthPercent': 0.45, 'rescaleHeight': False, 'trialN': 88, 'loaded': True, 'loadedTime': 2614, 'positionName': 'LEFT', 'positionCoords': [326.28, 226.5], 'bid': 2.09}, {'imgObject': {}, 'id': 'kiwi', 'src': '/static/foodstim60/kiwi.jpg', 'key': 'i', 'origWidth': 410, 'origHeight': 410, 'width': 410, 'height': 410, 'widthPercent': 0.45, 'rescaleHeight': False, 'trialN': 88, 'loaded': True, 'loadedTime': 2644.5, 'positionName': 'RIGHT', 'positionCoords': [798.72, 227], 'bid': 1.91}]",145584.60000014305,1669829731339,Tribe humus pita,kiwi,2.09,1.91,-0.17999999999999994,Tribe humus pita,809.1999998092651,810,809.8999998569489,True,u,146895.60000014305,1311.0,1669829732650,1311,HRV,HRV_0056,2022-11-30 17:38:25
89,"[{'imgObject': {}, 'id': 'froot loops w milk', 'src': '/static/foodstim60/froot loops w milk.jpg', 'key': 'u', 'origWidth': 410, 'origHeight': 410, 'width': 410, 'height': 410, 'widthPercent': 0.45, 'rescaleHeight': False, 'trialN': 89, 'loaded': True, 'loadedTime': 2583.5, 'positionName': 'LEFT', 'positionCoords': [327.28, 227], 'bid': 0.42}, {'imgObject': {}, 'id': 'avocado', 'src': '/static/foodstim60/avocado.jpg', 'key': 'i', 'origWidth': 409, 'origHeight': 409, 'width': 409, 'height': 409, 'widthPercent': 0.45, 'rescaleHeight': False, 'trialN': 89, 'loaded': True, 'loadedTime': 2448.2000000476837, 'positionName': 'RIGHT', 'positionCoords': [798.72, 227.5], 'bid': 7.25}]",146895.79999995232,1669829732650,froot loops w milk,avocado,0.42,7.25,6.83,avocado,920.7000000476837,922,921.3000001907349,True,i,148320.20000004768,1424.4000000953674,1669829734075,1425,HRV,HRV_0056,2022-11-30 17:38:25
90,"[{'imgObject': {}, 'id': 'fried eggs', 'src': '/static/foodstim60/fried eggs.jpg', 'key': 'u', 'origWidth': 410, 'origHeight': 410, 'width': 410, 'height': 410, 'widthPercent': 0.45, 'rescaleHeight': False, 'trialN': 90, 'loaded': True, 'loadedTime': 2669.600000143051, 'positionName': 'LEFT', 'positionCoords': [327.28, 227], 'bid': 10}, {'imgObject': {}, 'id': 'cantaloupe', 'src': '/static/foodstim60/cantaloupe.jpg', 'key': 'i', 'origWidth': 409, 'origHeight': 409, 'width': 409, 'height': 409, 'widthPercent': 0.45, 'rescaleHeight': False, 'trialN': 90, 'loaded': True, 'loadedTime': 2753.2000000476837, 'positionName': 'RIGHT', 'positionCoords': [798.72, 227.5], 'bid': 9.94}]",175272.29999995232,1669829761027,fried eggs,cantaloupe,10.0,9.94,-0.0600000000000005,cantaloupe,1479.1000001430511,1480,1479.5,True,i,177255.5,1983.2000000476837,1669829763010,1983,HRV,HRV_0056,2022-11-30 17:38:25
91,"[{'imgObject': {}, 'id': 'sweetpotato', 'src': '/static/foodstim60/sweetpotato.jpg', 'key': 'u', 'origWidth': 410, 'origHeight': 410, 'width': 410, 'height': 410, 'widthPercent': 0.45, 'rescaleHeight': False, 'trialN': 91, 'loaded': True, 'loadedTime': 2735.100000143051, 'positionName': 'LEFT', 'positionCoords': [327.28, 227], 'bid': 0}, {'imgObject': {}, 'id': 'kiwi', 'src': '/static/foodstim60/kiwi.jpg', 'key': 'i', 'origWidth': 410, 'origHeight': 410, 'width': 410, 'height': 410, 'widthPercent': 0.45, 'rescaleHeight': False, 'trialN': 91, 'loaded': True, 'loadedTime': 2633.100000143051, 'positionName': 'RIGHT', 'positionCoords': [798.72, 227], 'bid': 1.91}]",177255.70000004768,1669829763011,sweetpotato,kiwi,0.0,1.91,1.91,kiwi,1178.4000000953674,1179,1178.9000000953674,True,i,178935.70000004768,1680.0,1669829764691,1680,HRV,HRV_0056,2022-11-30 17:38:25
92,"[{'imgObject': {}, 'id': 'mac & cheese', 'src': '/static/foodstim60/mac & cheese.jpg', 'key': 'u', 'origWidth': 410, 'origHeight': 410, 'width': 410, 'height': 410, 'widthPercent': 0.45, 'rescaleHeight': False, 'trialN': 92, 'loaded': True, 'loadedTime': 2515.4000000953674, 'positionName': 'LEFT', 'positionCoords': [327.28, 227], 'bid': 1.13}, {'imgObject': {}, 'id': 'turkeysandwich', 'src': '/static/foodstim60/turkeysandwich.jpg', 'key': 'i', 'origWidth': 409, 'origHeight': 409, 'width': 409, 'height': 409, 'widthPercent': 0.45, 'rescaleHeight': False, 'trialN': 92, 'loaded': True, 'loadedTime': 2692.100000143051, 'positionName': 'RIGHT', 'positionCoords': [798.72, 227.5], 'bid': 8.19}]",178935.79999995232,1669829764691,mac & cheese,turkeysandwich,1.13,8.19,7.06,turkeysandwich,785.9000000953674,786,786.8000001907349,True,i,180224.79999995232,1289.0,1669829765980,1289,HRV,HRV_0056,2022-11-30 17:38:25
93,"[{'imgObject': {}, 'id': 'popsicles', 'src': '/static/foodstim60/popsicles.jpg', 'key': 'u', 'origWidth': 410, 'origHeight': 410, 'width': 410, 'height': 410, 'widthPercent': 0.45, 'rescaleHeight': False, 'trialN': 93, 'loaded': True, 'loadedTime': 2758.5, 'positionName': 'LEFT', 'positionCoords': [327.28, 227], 'bid': 2.43}, {'imgObject': {}, 'id': 'hotdog w must', 'src': '/static/foodstim60/hotdog w must.jpg', 'key': 'i', 'origWidth': 409, 'origHeight': 409, 'width': 409, 'height': 409, 'widthPercent': 0.45, 'rescaleHeight': False, 'trialN': 93, 'loaded': True, 'loadedTime': 2383.2000000476837, 'positionName': 'RIGHT', 'positionCoords': [798.72, 227.5], 'bid': 0.18}]",180224.90000009537,1669829765980,popsicles,hotdog w must,2.43,0.18,-2.25,popsicles,715.8999998569489,716,716.2999999523163,True,u,181447.90000009537,1223.0,1669829767203,1223,HRV,HRV_0056,2022-11-30 17:38:25
94,"[{'imgObject': {}, 'id': 'shreddedwheatwithmilk', 'src': '/static/foodstim60/shreddedwheatwithmilk.jpg', 'key': 'u', 'origWidth': 410, 'origHeight': 410, 'width': 410, 'height': 410, 'widthPercent': 0.45, 'rescaleHeight': False, 'trialN': 94, 'loaded': True, 'loadedTime': 2578.2000000476837, 'positionName': 'LEFT', 'positionCoords': [327.28, 227], 'bid': 0.48}, {'imgObject': {}, 'id': 'seaweed', 'src': '/static/foodstim60/seaweed.jpg', 'key': 'i', 'origWidth': 410, 'origHeight': 410, 'width': 410, 'height': 410, 'widthPercent': 0.45, 'rescaleHeight': False, 'trialN': 94, 'loaded': True, 'loadedTime': 2425.7000000476837, 'positionName': 'RIGHT', 'positionCoords': [798.72, 227], 'bid': 3.3200000000000003}]",181448.10000014305,1669829767203,shreddedwheatwithmilk,seaweed,0.48,3.3200000000000003,2.8400000000000003,seaweed,767.0999999046326,768,767.5999999046326,True,i,182720.5,1272.3999998569489,1669829768475,1272,HRV,HRV_0056,2022-11-30 17:38:25
95,"[{'imgObject': {}, 'id': 'sushi w_condiments', 'src': '/static/foodstim60/sushi w_condiments.jpg', 'key': 'u', 'origWidth': 410, 'origHeight': 410, 'width': 410, 'height': 410, 'widthPercent': 0.45, 'rescaleHeight': False, 'trialN': 95, 'loaded': True, 'loadedTime': 2743.5, 'positionName': 'LEFT', 'positionCoords': [327.28, 227], 'bid': 9.92}, {'imgObject': {}, 'id': 'tacos', 'src': '/static/foodstim60/tacos.jpg', 'key': 'i', 'origWidth': 411, 'origHeight': 411, 'width': 411, 'height': 411, 'widthPercent': 0.45, 'rescaleHeight': False, 'trialN': 95, 'loaded': True, 'loadedTime': 2421.2999999523163, 'positionName': 'RIGHT', 'positionCoords': [798.72, 226.5], 'bid': 3.29}]",182720.70000004768,1669829768476,sushi w_condiments,tacos,9.92,3.29,-6.63,sushi w_condiments,796.0999999046326,796,796.5999999046326,True,u,184024.40000009537,1303.7000000476837,1669829769779,1303,HRV,HRV_0056,2022-11-30 17:38:25
96,"[{'imgObject': {}, 'id': 'veggieswithdip', 'src': '/static/foodstim60/veggieswithdip.jpg', 'key': 'u', 'origWidth': 409, 'origHeight': 409, 'width': 409, 'height': 409, 'widthPercent': 0.45, 'rescaleHeight': False, 'trialN': 96, 'loaded': True, 'loadedTime': 2747.7000000476837, 'positionName': 'LEFT', 'positionCoords': [328.28, 227.5], 'bid': 4.84}, {'imgObject': {}, 'id': 'cherries', 'src': '/static/foodstim60/cherries.jpg', 'key': 'i', 'origWidth': 410, 'origHeight': 411, 'width': 410, 'height': 411, 'widthPercent': 0.45, 'rescaleHeight': False, 'trialN': 96, 'loaded': True, 'loadedTime': 2619.2999999523163, 'positionName': 'RIGHT', 'positionCoords': [798.72, 226.5], 'bid': 9.81}]",184024.70000004768,1669829769780,veggieswithdip,cherries,4.84,9.81,4.970000000000001,veggieswithdip,744.0999999046326,744,744.5999999046326,True,u,185271.70000004768,1247.0,1669829771027,1247,HRV,HRV_0056,2022-11-30 17:38:25
97,"[{'imgObject': {}, 'id': 'bagel plain', 'src': '/static/foodstim60/bagel plain.jpg', 'key': 'u', 'origWidth': 410, 'origHeight': 410, 'width': 410, 'height': 410, 'widthPercent': 0.45, 'rescaleHeight': False, 'trialN': 97, 'loaded': True, 'loadedTime': 2385.7999999523163, 'positionName': 'LEFT', 'positionCoords': [327.28, 227], 'bid': 0.2}, {'imgObject': {}, 'id': 'salad w chicken', 'src': '/static/foodstim60/salad w chicken.jpg', 'key': 'i', 'origWidth': 411, 'origHeight': 411, 'width': 411, 'height': 411, 'widthPercent': 0.45, 'rescaleHeight': False, 'trialN': 97, 'loaded': True, 'loadedTime': 2747.9000000953674, 'positionName': 'RIGHT', 'positionCoords': [798.72, 226.5], 'bid': 2.53}]",185271.79999995232,1669829771027,bagel plain,salad w chicken,0.2,2.53,2.3299999999999996,bagel plain,867.9000000953674,868,868.3000001907349,True,u,186647.0,1375.2000000476837,1669829772402,1375,HRV,HRV_0056,2022-11-30 17:38:25
98,"[{'imgObject': {}, 'id': 'salad w chicken', 'src': '/static/foodstim60/salad w chicken.jpg', 'key': 'u', 'origWidth': 411, 'origHeight': 411, 'width': 411, 'height': 411, 'widthPercent': 0.45, 'rescaleHeight': False, 'trialN': 98, 'loaded': True, 'loadedTime': 2750, 'positionName': 'LEFT', 'positionCoords': [326.28, 226.5], 'bid': 2.53}, {'imgObject': {}, 'id': 'hashbrowns', 'src': '/static/foodstim60/hashbrowns.jpg', 'key': 'i', 'origWidth': 411, 'origHeight': 410, 'width': 411, 'height': 410, 'widthPercent': 0.45, 'rescaleHeight': False, 'trialN': 98, 'loaded': True, 'loadedTime': 2416.100000143051, 'positionName': 'RIGHT', 'positionCoords': [798.72, 227], 'bid': 2.47}]",186647.10000014305,1669829772402,salad w chicken,hashbrowns,2.53,2.47,-0.05999999999999961,salad w chicken,1259.5999999046326,1260,1259.8999998569489,True,u,188407.5,1760.3999998569489,1669829774162,1760,HRV,HRV_0056,2022-11-30 17:38:25
99,"[{'imgObject': {}, 'id': 'popsicles', 'src': '/static/foodstim60/popsicles.jpg', 'key': 'u', 'origWidth': 410, 'origHeight': 410, 'width': 410, 'height': 410, 'widthPercent': 0.45, 'rescaleHeight': False, 'trialN': 99, 'loaded': True, 'loadedTime': 2758.2999999523163, 'positionName': 'LEFT', 'positionCoords': [327.28, 227], 'bid': 2.43}, {'imgObject': {}, 'id': 'mashed potato', 'src': '/static/foodstim60/mashed potato.jpg', 'key': 'i', 'origWidth': 409, 'origHeight': 409, 'width': 409, 'height': 409, 'widthPercent': 0.45, 'rescaleHeight': False, 'trialN': 99, 'loaded': True, 'loadedTime': 2512.9000000953674, 'positionName': 'RIGHT', 'positionCoords': [798.72, 227.5], 'bid': 2.38}]",188407.70000004768,1669829774163,popsicles,mashed potato,2.43,2.38,-0.050000000000000266,popsicles,1000.2999999523163,1000,1000.7999999523163,True,u,189912.29999995232,1504.5999999046326,1669829775667,1504,HRV,HRV_0056,2022-11-30 17:38:25
100,"[{'imgObject': {}, 'id': 'apple slices', 'src': '/static/foodstim60/apple slices.jpg', 'key': 'u', 'origWidth': 409, 'origHeight': 410, 'width': 409, 'height': 410, 'widthPercent': 0.45, 'rescaleHeight': False, 'trialN': 100, 'loaded': True, 'loadedTime': 2717.9000000953674, 'positionName': 'LEFT', 'positionCoords': [328.28, 227], 'bid': 4.32}, {'imgObject': {}, 'id': 'veggieswithdip', 'src': '/static/foodstim60/veggieswithdip.jpg', 'key': 'i', 'origWidth': 409, 'origHeight': 409, 'width': 409, 'height': 409, 'widthPercent': 0.45, 'rescaleHeight': False, 'trialN': 100, 'loaded': True, 'loadedTime': 2747.7000000476837, 'positionName': 'RIGHT', 'positionCoords': [798.72, 227.5], 'bid': 4.84}]",189912.5,1669829775667,apple slices,veggieswithdip,4.32,4.84,0.5199999999999996,veggieswithdip,1409.5,1410,1409.7999999523163,True,i,191823.5,1911.0,1669829777578,1911,HRV,HRV_0056,2022-11-30 17:38:25
101,"[{'imgObject': {}, 'id': 'grilled chicken strips', 'src': '/static/foodstim60/grilled chicken strips.jpg', 'key': 'u', 'origWidth': 410, 'origHeight': 411, 'width': 410, 'height': 411, 'widthPercent': 0.45, 'rescaleHeight': False, 'trialN': 101, 'loaded': True, 'loadedTime': 2597.9000000953674, 'positionName': 'LEFT', 'positionCoords': [327.28, 226.5], 'bid': 9.77}, {'imgObject': {}, 'id': 'burrito', 'src': '/static/foodstim60/burrito.jpg', 'key': 'i', 'origWidth': 410, 'origHeight': 410, 'width': 410, 'height': 410, 'widthPercent': 0.45, 'rescaleHeight': False, 'trialN': 101, 'loaded': True, 'loadedTime': 2681, 'positionName': 'RIGHT', 'positionCoords': [798.72, 227], 'bid': 1.92}]",191823.79999995232,1669829777579,grilled chicken strips,burrito,9.77,1.92,-7.85,burrito,1058.2000000476837,1058,1058.6000001430511,True,i,193383.29999995232,1559.5,1669829779138,1559,HRV,HRV_0056,2022-11-30 17:38:25
102,"[{'imgObject': {}, 'id': 'lox', 'src': '/static/foodstim60/lox.jpg', 'key': 'u', 'origWidth': 410, 'origHeight': 411, 'width': 410, 'height': 411, 'widthPercent': 0.45, 'rescaleHeight': False, 'trialN': 102, 'loaded': True, 'loadedTime': 2721.5, 'positionName': 'LEFT', 'positionCoords': [327.28, 226.5], 'bid': 3.3000000000000003}, {'imgObject': {}, 'id': 'froot loops w milk', 'src': '/static/foodstim60/froot loops w milk.jpg', 'key': 'i', 'origWidth': 410, 'origHeight': 410, 'width': 410, 'height': 410, 'widthPercent': 0.45, 'rescaleHeight': False, 'trialN': 102, 'loaded': True, 'loadedTime': 2581.7999999523163, 'positionName': 'RIGHT', 'positionCoords': [798.72, 227], 'bid': 0.42}]",193383.40000009537,1669829779138,lox,froot loops w milk,3.3000000000000003,0.42,-2.8800000000000003,froot loops w milk,1052.2999999523163,1053,1052.7999999523163,True,i,194936.29999995232,1552.8999998569489,1669829780691,1553,HRV,HRV_0056,2022-11-30 17:38:25
103,"[{'imgObject': {}, 'id': 'salad w chicken', 'src': '/static/foodstim60/salad w chicken.jpg', 'key': 'u', 'origWidth': 411, 'origHeight': 411, 'width': 411, 'height': 411, 'widthPercent': 0.45, 'rescaleHeight': False, 'trialN': 103, 'loaded': True, 'loadedTime': 2749.5, 'positionName': 'LEFT', 'positionCoords': [326.28, 226.5], 'bid': 2.53}, {'imgObject': {}, 'id': 'salmon', 'src': '/static/foodstim60/salmon.jpg', 'key': 'i', 'origWidth': 410, 'origHeight': 409, 'width': 410, 'height': 409, 'widthPercent': 0.45, 'rescaleHeight': False, 'trialN': 103, 'loaded': True, 'loadedTime': 2654, 'positionName': 'RIGHT', 'positionCoords': [798.72, 227.5], 'bid': 5.01}]",194936.5,1669829780691,salad w chicken,salmon,2.53,5.01,2.48,salmon,789.5,790,789.9000000953674,True,i,196232.60000014305,1296.1000001430511,1669829781988,1297,HRV,HRV_0056,2022-11-30 17:38:25
104,"[{'imgObject': {}, 'id': 'fried eggs', 'src': '/static/foodstim60/fried eggs.jpg', 'key': 'u', 'origWidth': 410, 'origHeight': 410, 'width': 410, 'height': 410, 'widthPercent': 0.45, 'rescaleHeight': False, 'trialN': 104, 'loaded': True, 'loadedTime': 2668.9000000953674, 'positionName': 'LEFT', 'positionCoords': [327.28, 227], 'bid': 10}, {'imgObject': {}, 'id': 'baked potato', 'src': '/static/foodstim60/baked potato.jpg', 'key': 'i', 'origWidth': 409, 'origHeight': 410, 'width': 409, 'height': 410, 'widthPercent': 0.45, 'rescaleHeight': False, 'trialN': 104, 'loaded': True, 'loadedTime': 2724.5, 'positionName': 'RIGHT', 'positionCoords': [798.72, 227], 'bid': 3.3200000000000003}]",196232.90000009537,1669829781988,fried eggs,baked potato,10.0,3.3200000000000003,-6.68,fried eggs,1093.5999999046326,1094,1094.0,True,u,197832.60000014305,1599.7000000476837,1669829783588,1600,HRV,HRV_0056,2022-11-30 17:38:25
105,"[{'imgObject': {}, 'id': 'raisin bran w milk', 'src': '/static/foodstim60/raisin bran w milk.jpg', 'key': 'u', 'origWidth': 411, 'origHeight': 411, 'width': 411, 'height': 411, 'widthPercent': 0.45, 'rescaleHeight': False, 'trialN': 105, 'loaded': True, 'loadedTime': 2738, 'positionName': 'LEFT', 'positionCoords': [326.28, 226.5], 'bid': 0.35}, {'imgObject': {}, 'id': 'tacos', 'src': '/static/foodstim60/tacos.jpg', 'key': 'i', 'origWidth': 411, 'origHeight': 411, 'width': 411, 'height': 411, 'widthPercent': 0.45, 'rescaleHeight': False, 'trialN': 105, 'loaded': True, 'loadedTime': 2418.4000000953674, 'positionName': 'RIGHT', 'positionCoords': [798.72, 226.5], 'bid': 3.29}]",197832.79999995232,1669829783588,raisin bran w milk,tacos,0.35,3.29,2.94,tacos,1450.4000000953674,1450,1450.8000001907349,True,i,199784.5,1951.7000000476837,1669829785539,1951,HRV,HRV_0056,2022-11-30 17:38:25
106,"[{'imgObject': {}, 'id': 'cherries', 'src': '/static/foodstim60/cherries.jpg', 'key': 'u', 'origWidth': 410, 'origHeight': 411, 'width': 410, 'height': 411, 'widthPercent': 0.45, 'rescaleHeight': False, 'trialN': 106, 'loaded': True, 'loadedTime': 2620, 'positionName': 'LEFT', 'positionCoords': [327.28, 226.5], 'bid': 9.81}, {'imgObject': {}, 'id': 'orange slices', 'src': '/static/foodstim60/orange slices.jpg', 'key': 'i', 'origWidth': 409, 'origHeight': 410, 'width': 409, 'height': 410, 'widthPercent': 0.45, 'rescaleHeight': False, 'trialN': 106, 'loaded': True, 'loadedTime': 2532.2000000476837, 'positionName': 'RIGHT', 'positionCoords': [798.72, 227], 'bid': 9.9}]",199784.70000004768,1669829785540,cherries,orange slices,9.81,9.9,0.08999999999999986,orange slices,594.2000000476837,594,594.7999999523163,True,i,200886.79999995232,1102.0999999046326,1669829786642,1102,HRV,HRV_0056,2022-11-30 17:38:25
107,"[{'imgObject': {}, 'id': 'banana', 'src': '/static/foodstim60/banana.jpg', 'key': 'u', 'origWidth': 410, 'origHeight': 410, 'width': 410, 'height': 410, 'widthPercent': 0.45, 'rescaleHeight': False, 'trialN': 107, 'loaded': True, 'loadedTime': 2521.2999999523163, 'positionName': 'LEFT', 'positionCoords': [327.28, 227], 'bid': 9.88}, {'imgObject': {}, 'id': 'popsicles', 'src': '/static/foodstim60/popsicles.jpg', 'key': 'i', 'origWidth': 410, 'origHeight': 410, 'width': 410, 'height': 410, 'widthPercent': 0.45, 'rescaleHeight': False, 'trialN': 107, 'loaded': True, 'loadedTime': 2757, 'positionName': 'RIGHT', 'positionCoords': [798.72, 227], 'bid': 2.43}]",200887.0,1669829786642,banana,popsicles,9.88,2.43,-7.450000000000001,popsicles,644.7999999523163,645,645.2000000476837,True,i,202039.29999995232,1152.2999999523163,1669829787794,1152,HRV,HRV_0056,2022-11-30 17:38:25
108,"[{'imgObject': {}, 'id': 'turkey sandwich', 'src': '/static/foodstim60/turkey sandwich.jpg', 'key': 'u', 'origWidth': 409, 'origHeight': 409, 'width': 409, 'height': 409, 'widthPercent': 0.45, 'rescaleHeight': False, 'trialN': 108, 'loaded': True, 'loadedTime': 2428.9000000953674, 'positionName': 'LEFT', 'positionCoords': [328.28, 227.5], 'bid': 5.4}, {'imgObject': {}, 'id': 'eggs', 'src': '/static/foodstim60/eggs.jpg', 'key': 'i', 'origWidth': 409, 'origHeight': 409, 'width': 409, 'height': 409, 'widthPercent': 0.45, 'rescaleHeight': False, 'trialN': 108, 'loaded': True, 'loadedTime': 2546, 'positionName': 'RIGHT', 'positionCoords': [798.72, 227.5], 'bid': 6.28}]",202039.5,1669829787794,turkey sandwich,eggs,5.4,6.28,0.8799999999999999,eggs,629.7999999523163,631,630.4000000953674,True,i,203175.90000009537,1136.4000000953674,1669829788931,1137,HRV,HRV_0056,2022-11-30 17:38:25
