success,trial_type,trial_index,time_elapsed,internal_node_id,Block,TrialNumber,TrialTime,trialTimeDiff,FPS_avg,FPS_med,FPS_mode,TrialDur,winResizeTime,rt,block,button_pressed,MotCoh,MotDir,ColCoh,Color,ChoiceKey,Choice,Accuracy,RT,nFrames,FPS,PPD,missTrial,missTrialMsg,onsetDelay,fullScreenExitTime,canvCenter,TrialType,Score,BlockTrial,stimulus,button_labels,exp,subjectId,date
True,fullscreen,0,2873,0.0-0.0,0.0,1.0,,,,,,,,,,,,,,,,,,,,,,,,,,,,,,,,HRV,HRV_0083,2022-11-30 18:05:26
,wl-check-fps,1,7868,0.0-1.0,0.0,2.0,"[3109.4, 3113.5, 3130.1, 3146.9, 3163.5, 3180.2, 3196.9, 3213.5, 3230.2, 3247.1, 3263.7, 3280.3, 3297, 3313.7, 3330.3, 3347, 3363.7, 3380.4, 3397.1, 3413.8, 3430.4, 3447.1, 3463.7, 3480.4, 3497.2, 3513.8, 3530.5, 3547.2, 3564, 3580.6, 3597.2, 3613.9, 3630.6, 3647.4, 3664, 3680.7, 3697.4, 3714.1, 3731.2, 3747.5, 3764.1, 3780.8, 3797.5, 3814.2, 3830.8, 3847.5, 3864.2, 3880.9, 3897.5, 3914.3, 3930.9, 3947.6, 3964.3, 3981, 3997.7, 4014.4, 4031, 4047.7, 4064.4, 4081, 4097.8, 4114.5, 4131.2, 4147.8, 4164.5, 4181.3, 4197.9, 4214.5, 4231.2, 4248, 4264.5, 4281.3, 4298, 4314.7, 4331.6, 4348.1, 4364.7, 4381.4, 4398.1, 4414.7, 4431.4, 4448.1, 4464.7, 4481.5, 4498.2, 4514.8, 4531.5, 4548.2, 4564.9, 4581.6, 4598.3, 4614.9, 4631.6, 4648.3, 4665.1, 4681.7, 4698.3, 4715.1, 4731.7, 4748.4, 4765, 4781.8, 4798.5, 4815.1, 4831.8, 4848.5, 4865.1, 4881.8, 4898.5, 4915.3, 4932, 4948.8, 4965.4, 4982, 4998.7, 5015.4, 5032.1, 5048.7, 5065.4, 5082.1, 5098.7, 5115.5, 5132.1, 5148.8, 5165.6, 5182.3, 5198.8, 5215.6, 5232.3, 5249, 5265.5, 5282.3, 5298.9, 5315.6, 5332.3, 5349, 5365.7, 5382.4, 5399.1, 5415.8, 5432.4, 5449.1, 5465.7, 5482.4, 5499.3, 5515.9, 5532.4, 5549.2, 5565.8, 5582.6, 5599.3, 5615.9, 5632.7, 5649.3, 5666, 5682.7, 5699.4, 5716, 5732.7, 5749.4, 5766.1, 5782.8, 5799.4, 5816.2, 5832.8, 5849.5, 5866.2, 5882.9, 5899.6, 5916.3, 5932.9, 5949.6, 5966.3, 5983, 5999.7, 6016.3, 6033, 6049.7, 6066.3, 6083.1, 6099.7, 6116.4, 6133.1, 6149.8, 6166.4, 6183.2, 6199.9, 6216.5, 6233.2, 6249.9, 6266.6, 6283.3, 6300, 6316.7, 6333.3, 6350, 6366.7, 6383.4, 6400, 6416.8, 6433.5, 6450.1, 6466.7, 6483.5, 6500.2, 6516.9, 6533.5, 6550.2, 6566.9, 6583.6, 6600.2, 6616.9, 6633.6, 6650.4, 6667, 6683.7, 6700.4, 6717, 6733.7, 6750.4, 6767.1, 6783.8, 6800.5, 6817.1, 6833.8, 6850.5, 6867.1, 6883.8, 6900.6, 6917.3, 6933.9, 6950.5, 6967.3, 6984, 7000.7, 7017.3, 7034, 7050.8, 7067.4, 7084.1, 7100.8, 7117.5, 7134.1, 7150.9, 7167.5, 7184.2, 7200.8, 7217.5, 7234.2, 7250.9, 7267.7, 7284.3, 7300.9, 7317.6, 7334.3, 7351, 7367.7, 7384.4, 7401.1, 7417.7, 7434.4, 7451.1, 7467.8, 7484.5, 7501.1, 7518, 7534.5, 7551.2, 7567.9, 7584.5, 7601.3, 7617.9, 7634.6, 7651.3, 7668, 7684.7, 7701.4, 7718.1, 7734.7, 7751.4, 7768.1, 7784.8, 7801.4, 7818.2, 7834.8, 7851.5, 7868.2, 7884.9, 7901.6, 7918.3, 7935, 7951.6, 7968.3, 7985, 8001.6, 8018.4, 8035, 8051.7, 8068.4, 8085]","[0.7, 4.1, 16.6, 16.8, 16.6, 16.7, 16.7, 16.6, 16.7, 16.9, 16.6, 16.6, 16.7, 16.7, 16.6, 16.7, 16.7, 16.7, 16.7, 16.7, 16.6, 16.7, 16.6, 16.7, 16.8, 16.6, 16.7, 16.7, 16.8, 16.6, 16.6, 16.7, 16.7, 16.8, 16.6, 16.7, 16.7, 16.7, 17.1, 16.3, 16.6, 16.7, 16.7, 16.7, 16.6, 16.7, 16.7, 16.7, 16.6, 16.8, 16.6, 16.7, 16.7, 16.7, 16.7, 16.7, 16.6, 16.7, 16.7, 16.6, 16.8, 16.7, 16.7, 16.6, 16.7, 16.8, 16.6, 16.6, 16.7, 16.8, 16.5, 16.8, 16.7, 16.7, 16.9, 16.5, 16.6, 16.7, 16.7, 16.6, 16.7, 16.7, 16.6, 16.8, 16.7, 16.6, 16.7, 16.7, 16.7, 16.7, 16.7, 16.6, 16.7, 16.7, 16.8, 16.6, 16.6, 16.8, 16.6, 16.7, 16.6, 16.8, 16.7, 16.6, 16.7, 16.7, 16.6, 16.7, 16.7, 16.8, 16.7, 16.8, 16.6, 16.6, 16.7, 16.7, 16.7, 16.6, 16.7, 16.7, 16.6, 16.8, 16.6, 16.7, 16.8, 16.7, 16.5, 16.8, 16.7, 16.7, 16.5, 16.8, 16.6, 16.7, 16.7, 16.7, 16.7, 16.7, 16.7, 16.7, 16.6, 16.7, 16.6, 16.7, 16.9, 16.6, 16.5, 16.8, 16.6, 16.8, 16.7, 16.6, 16.8, 16.6, 16.7, 16.7, 16.7, 16.6, 16.7, 16.7, 16.7, 16.7, 16.6, 16.8, 16.6, 16.7, 16.7, 16.7, 16.7, 16.7, 16.6, 16.7, 16.7, 16.7, 16.7, 16.6, 16.7, 16.7, 16.6, 16.8, 16.6, 16.7, 16.7, 16.7, 16.6, 16.8, 16.7, 16.6, 16.7, 16.7, 16.7, 16.7, 16.7, 16.7, 16.6, 16.7, 16.7, 16.7, 16.6, 16.8, 16.7, 16.6, 16.6, 16.8, 16.7, 16.7, 16.6, 16.7, 16.7, 16.7, 16.6, 16.7, 16.7, 16.8, 16.6, 16.7, 16.7, 16.6, 16.7, 16.7, 16.7, 16.7, 16.7, 16.6, 16.7, 16.7, 16.6, 16.7, 16.8, 16.7, 16.6, 16.6, 16.8, 16.7, 16.7, 16.6, 16.7, 16.8, 16.6, 16.7, 16.7, 16.7, 16.6, 16.8, 16.6, 16.7, 16.6, 16.7, 16.7, 16.7, 16.8, 16.6, 16.6, 16.7, 16.7, 16.7, 16.7, 16.7, 16.7, 16.6, 16.7, 16.7, 16.7, 16.7, 16.6, 16.9, 16.5, 16.7, 16.7, 16.6, 16.8, 16.6, 16.7, 16.7, 16.7, 16.7, 16.7, 16.7, 16.6, 16.7, 16.7, 16.7, 16.6, 16.8, 16.6, 16.7, 16.7, 16.7, 16.7, 16.7, 16.7, 16.6, 16.7, 16.7, 16.6, 16.8, 16.6, 16.7, 16.7, 16.6]",60.0,60.0,60.0,4993.1,[],,,,,,,,,,,,,,,,,,,,,,,,,HRV,HRV_0083,2022-11-30 18:05:26
,wl-html-keyboard-response,2,24119,0.0-2.0-0.0,0.0,3.0,,,,,,,,14240.099999904633,0.0,0,,,,,,,,,,,,,,,,,,,,,,HRV,HRV_0083,2022-11-30 18:05:26
,wl-rdm,3,31775,0.0-3.0-0.0,0.0,4.0,,,,,,,[],,,,0.0,0.0,87.9,0.0,u,0.0,True,2093.399999856949,126.0,60.0,40.0,False,,3000.0,[],"[960, 540]",ColorTask_Demo,,,,,HRV,HRV_0083,2022-11-30 18:05:26
,wl-rdm,4,36763,0.0-3.0-1.0,0.0,5.0,,,,,,,[],,,,0.0,0.0,87.9,1.0,i,1.0,True,932.5999999046326,56.0,60.0,40.0,False,,2000.0,[],"[960, 540]",ColorTask_Demo,,,,,HRV,HRV_0083,2022-11-30 18:05:26
,wl-html-keyboard-response,5,46174,0.0-3.0-2.0,0.0,6.0,,,,,,,,7406.900000095367,0.0,1,,,,,,,,,,,,,,,,,,,,,,HRV,HRV_0083,2022-11-30 18:05:26
,wl-html-keyboard-response,6,57991,0.0-4.0-0.0,0.0,7.0,,,,,,,,9814.700000047684,0.0,0,,,,,,,,,,,,,,,,,,,,,,HRV,HRV_0083,2022-11-30 18:05:26
,wl-html-keyboard-response,7,84795,0.0-5.0-0.0,0.0,8.0,,,,,,,,24791.799999952316,0.0,0,,,,,,,,,,,,,,,,,,,,,,HRV,HRV_0083,2022-11-30 18:05:26
,wl-rdm,8,88714,0.0-6.0-0.0,0.0,9.0,,,,,,,[],,,,,,62.5,1.0,i,1.0,True,2503.2000000476837,151.0,60.0,40.0,False,,348.24706833919197,[],"[960, 540]",ColorTask,1.0,1.0,,,HRV,HRV_0083,2022-11-30 18:05:26
,wl-rdm,9,90949,0.0-6.1-0.1,0.0,10.0,,,,,,,[],,,,,,87.9,0.0,u,0.0,True,937.9999997615814,57.0,60.0,40.0,False,,228.97113723186308,[],"[960, 540]",ColorTask,2.0,2.0,,,HRV,HRV_0083,2022-11-30 18:05:26
,wl-rdm,10,94536,0.0-6.2-0.2,0.0,11.0,,,,,,,[],,,,,,62.5,0.0,u,0.0,True,2308.2000000476837,139.0,60.0,40.0,False,,202.05299311173857,[],"[960, 540]",ColorTask,3.0,3.0,,,HRV,HRV_0083,2022-11-30 18:05:26
,wl-rdm,11,97039,0.0-6.3-0.3,0.0,12.0,,,,,,,[],,,,,,87.9,1.0,i,1.0,True,1147.5999999046326,69.0,60.0,40.0,False,,290.115030700609,[],"[960, 540]",ColorTask,4.0,4.0,,,HRV,HRV_0083,2022-11-30 18:05:26
,wl-rdm,12,99525,0.0-6.4-0.4,0.0,13.0,,,,,,,[],,,,,,53.2,0.0,u,0.0,True,1216.5999999046326,73.0,60.0,40.0,False,,207.41406394424783,[],"[960, 540]",ColorTask,5.0,5.0,,,HRV,HRV_0083,2022-11-30 18:05:26
,wl-rdm,13,103996,0.0-6.5-0.5,0.0,13.0,,,,,,,[],,,,,,50.0,1.0,,,,,179.0,60.0,40.0,True,RT_timeout ,388.3362359070255,[],"[960, 540]",ColorTask,4.0,6.0,,,HRV,HRV_0083,2022-11-30 18:05:26
,wl-rdm,14,106115,0.0-6.6-0.6,0.0,14.0,,,,,,,[],,,,,,53.2,0.0,u,0.0,True,828.2000000476837,50.0,60.0,40.0,False,,220.8513853678962,[],"[960, 540]",ColorTask,5.0,7.0,,,HRV,HRV_0083,2022-11-30 18:05:26
,wl-rdm,15,108917,0.0-6.7-0.7,0.0,15.0,,,,,,,[],,,,,,56.4,1.0,i,1.0,True,1352.4000000953674,82.0,60.0,40.0,False,,378.6968195102852,[],"[960, 540]",ColorTask,6.0,8.0,,,HRV,HRV_0083,2022-11-30 18:05:26
,wl-rdm,16,111019,0.0-6.8-0.8,0.0,16.0,,,,,,,[],,,,,,87.9,0.0,u,0.0,True,694.7000000476837,42.0,60.0,40.0,False,,339.35813680715,[],"[960, 540]",ColorTask,7.0,9.0,,,HRV,HRV_0083,2022-11-30 18:05:26
,wl-rdm,17,113222,0.0-6.9-0.9,0.0,17.0,,,,,,,[],,,,,,73.6,1.0,i,1.0,True,752.2999999523163,46.0,60.0,40.0,False,,372.1726225399998,[],"[960, 540]",ColorTask,8.0,10.0,,,HRV,HRV_0083,2022-11-30 18:05:26
,wl-rdm,18,116058,0.0-6.10-0.10,0.0,18.0,,,,,,,[],,,,,,56.4,1.0,i,1.0,True,1567.7999999523163,94.0,60.0,40.0,False,,200.33383960421588,[],"[960, 540]",ColorTask,9.0,11.0,,,HRV,HRV_0083,2022-11-30 18:05:26
,wl-rdm,19,118694,0.0-6.11-0.11,0.0,19.0,,,,,,,[],,,,,,50.0,1.0,i,1.0,True,1262.9000000953674,76.0,60.0,40.0,False,,312.3631640576144,[],"[960, 540]",ColorTask,10.0,12.0,,,HRV,HRV_0083,2022-11-30 18:05:26
,wl-rdm,20,120762,0.0-6.12-0.12,0.0,20.0,,,,,,,[],,,,,,62.5,0.0,u,0.0,True,704.2999999523163,43.0,60.0,40.0,False,,292.18198958914564,[],"[960, 540]",ColorTask,11.0,13.0,,,HRV,HRV_0083,2022-11-30 18:05:26
,wl-rdm,21,123298,0.0-6.13-0.13,0.0,21.0,,,,,,,[],,,,,,62.5,1.0,i,1.0,True,1213.5999999046326,73.0,60.0,40.0,False,,253.5258173456197,[],"[960, 540]",ColorTask,12.0,14.0,,,HRV,HRV_0083,2022-11-30 18:05:26
,wl-rdm,22,125267,0.0-6.14-0.14,0.0,22.0,,,,,,,[],,,,,,87.9,0.0,u,0.0,True,674.5,41.0,60.0,40.0,False,,223.5248192067395,[],"[960, 540]",ColorTask,13.0,15.0,,,HRV,HRV_0083,2022-11-30 18:05:26
,wl-rdm,23,127619,0.0-6.15-0.15,0.0,23.0,,,,,,,[],,,,,,53.2,1.0,u,0.0,False,1038.1999998092651,63.0,60.0,40.0,False,,241.9239214829071,[],"[960, 540]",ColorTask,12.0,16.0,,,HRV,HRV_0083,2022-11-30 18:05:26
,wl-rdm,24,130555,0.0-6.16-0.16,0.0,24.0,,,,,,,[],,,,,,56.4,1.0,i,1.0,True,1595.5,96.0,60.0,40.0,False,,270.74939805256184,[],"[960, 540]",ColorTask,13.0,17.0,,,HRV,HRV_0083,2022-11-30 18:05:26
,wl-rdm,25,132824,0.0-6.17-0.17,0.0,25.0,,,,,,,[],,,,,,73.6,0.0,u,0.0,True,961.5999999046326,58.0,60.0,40.0,False,,240.58772055692674,[],"[960, 540]",ColorTask,14.0,18.0,,,HRV,HRV_0083,2022-11-30 18:05:26
,wl-rdm,26,135193,0.0-6.18-0.18,0.0,26.0,,,,,,,[],,,,,,73.6,1.0,i,1.0,True,1009.5999999046326,61.0,60.0,40.0,False,,298.23017702799456,[],"[960, 540]",ColorTask,15.0,19.0,,,HRV,HRV_0083,2022-11-30 18:05:26
,wl-rdm,27,137796,0.0-6.19-0.19,0.0,27.0,,,,,,,[],,,,,,50.0,0.0,u,0.0,True,1198.5,72.0,60.0,40.0,False,,344.0675510643112,[],"[960, 540]",ColorTask,16.0,20.0,,,HRV,HRV_0083,2022-11-30 18:05:26
,wl-rdm,28,140398,0.0-6.20-0.20,0.0,28.0,,,,,,,[],,,,,,62.5,1.0,i,1.0,True,1221.2999999523163,74.0,60.0,40.0,False,,315.58081914681094,[],"[960, 540]",ColorTask,17.0,21.0,,,HRV,HRV_0083,2022-11-30 18:05:26
,wl-rdm,29,142634,0.0-6.21-0.21,0.0,29.0,,,,,,,[],,,,,,56.4,0.0,u,0.0,True,886.5999999046326,54.0,60.0,40.0,False,,270.36858692531825,[],"[960, 540]",ColorTask,18.0,22.0,,,HRV,HRV_0083,2022-11-30 18:05:26
,wl-rdm,30,145053,0.0-6.22-0.22,0.0,30.0,,,,,,,[],,,,,,50.0,1.0,u,0.0,False,1025.6000001430511,62.0,60.0,40.0,False,,329.4297378223904,[],"[960, 540]",ColorTask,17.0,23.0,,,HRV,HRV_0083,2022-11-30 18:05:26
,wl-rdm,31,147222,0.0-6.23-0.23,0.0,31.0,,,,,,,[],,,,,,53.2,0.0,i,1.0,False,882.5,53.0,60.0,40.0,False,,222.10637165930012,[],"[960, 540]",ColorTask,16.0,24.0,,,HRV,HRV_0083,2022-11-30 18:05:26
,wl-rdm,32,149274,0.0-6.24-0.24,0.0,32.0,,,,,,,[],,,,,,73.6,1.0,i,1.0,True,735.0,45.0,60.0,40.0,False,,243.31034721941356,[],"[960, 540]",ColorTask,17.0,25.0,,,HRV,HRV_0083,2022-11-30 18:05:26
,wl-rdm,33,151476,0.0-6.25-0.25,0.0,33.0,,,,,,,[],,,,,,56.4,1.0,u,0.0,False,899.0,54.0,60.0,40.0,False,,244.44221547835252,[],"[960, 540]",ColorTask,16.0,26.0,,,HRV,HRV_0083,2022-11-30 18:05:26
,wl-rdm,34,153929,0.0-6.26-0.26,0.0,34.0,,,,,,,[],,,,,,50.0,0.0,i,1.0,False,1116.5,67.0,60.0,40.0,False,,268.90179584490954,[],"[960, 540]",ColorTask,15.0,27.0,,,HRV,HRV_0083,2022-11-30 18:05:26
,wl-rdm,35,156598,0.0-6.27-0.27,0.0,35.0,,,,,,,[],,,,,,73.6,0.0,u,0.0,True,1219.0,74.0,60.0,40.0,False,,380.8805104336352,[],"[960, 540]",ColorTask,16.0,28.0,,,HRV,HRV_0083,2022-11-30 18:05:26
,wl-rdm,36,158650,0.0-6.28-0.28,0.0,36.0,,,,,,,[],,,,,,73.6,1.0,i,1.0,True,710.5999999046326,43.0,60.0,40.0,False,,267.34812325893165,[],"[960, 540]",ColorTask,17.0,29.0,,,HRV,HRV_0083,2022-11-30 18:05:26
,wl-rdm,37,160819,0.0-6.29-0.29,0.0,37.0,,,,,,,[],,,,,,87.9,0.0,u,0.0,True,802.0,49.0,60.0,40.0,False,,288.13840003971274,[],"[960, 540]",ColorTask,18.0,30.0,,,HRV,HRV_0083,2022-11-30 18:05:26
,wl-rdm,38,163788,0.0-6.30-0.30,0.0,38.0,,,,,,,[],,,,,,53.2,1.0,i,1.0,True,1694.5,102.0,60.0,40.0,False,,213.02328584635862,[],"[960, 540]",ColorTask,19.0,31.0,,,HRV,HRV_0083,2022-11-30 18:05:26
,wl-rdm,39,165941,0.0-6.31-0.31,0.0,39.0,,,,,,,[],,,,,,73.6,0.0,u,0.0,True,772.0999999046326,47.0,60.0,40.0,False,,303.700731368878,[],"[960, 540]",ColorTask,20.0,32.0,,,HRV,HRV_0083,2022-11-30 18:05:26
,wl-rdm,40,168343,0.0-6.32-0.32,0.0,40.0,,,,,,,[],,,,,,50.0,1.0,u,0.0,False,1076.6999998092651,65.0,60.0,40.0,False,,252.6485053321742,[],"[960, 540]",ColorTask,19.0,33.0,,,HRV,HRV_0083,2022-11-30 18:05:26
,wl-rdm,41,170595,0.0-6.33-0.33,0.0,41.0,,,,,,,[],,,,,,87.9,1.0,i,1.0,True,841.8000001907349,51.0,60.0,40.0,False,,334.21317756149324,[],"[960, 540]",ColorTask,20.0,34.0,,,HRV,HRV_0083,2022-11-30 18:05:26
,wl-rdm,42,173648,0.0-6.34-0.34,0.0,42.0,,,,,,,[],,,,,,50.0,1.0,u,0.0,False,1686.6999998092651,102.0,60.0,40.0,False,,294.55783739859913,[],"[960, 540]",ColorTask,19.0,35.0,,,HRV,HRV_0083,2022-11-30 18:05:26
,wl-rdm,43,176468,0.0-6.35-0.35,0.0,43.0,,,,,,,[],,,,,,56.4,0.0,i,1.0,False,1511.7999999523163,91.0,60.0,40.0,False,,236.5876814100145,[],"[960, 540]",ColorTask,18.0,36.0,,,HRV,HRV_0083,2022-11-30 18:05:26
,wl-rdm,44,178803,0.0-6.36-0.36,0.0,44.0,,,,,,,[],,,,,,53.2,0.0,u,0.0,True,1052.5999999046326,64.0,60.0,40.0,False,,202.582470232131,[],"[960, 540]",ColorTask,19.0,37.0,,,HRV,HRV_0083,2022-11-30 18:05:26
,wl-rdm,45,180922,0.0-6.37-0.37,0.0,45.0,,,,,,,[],,,,,,56.4,1.0,i,1.0,True,756.5,46.0,60.0,40.0,False,,288.18781752442624,[],"[960, 540]",ColorTask,20.0,38.0,,,HRV,HRV_0083,2022-11-30 18:05:26
,wl-rdm,46,184526,0.0-6.38-0.38,0.0,46.0,,,,,,,[],,,,,,53.2,0.0,i,1.0,False,2191.699999809265,132.0,60.0,40.0,False,,346.170568996582,[],"[960, 540]",ColorTask,19.0,39.0,,,HRV,HRV_0083,2022-11-30 18:05:26
,wl-rdm,47,187729,0.0-6.39-0.39,0.0,47.0,,,,,,,[],,,,,,50.0,0.0,u,0.0,True,1919.9000000953674,116.0,60.0,40.0,False,,210.7297958363374,[],"[960, 540]",ColorTask,20.0,40.0,,,HRV,HRV_0083,2022-11-30 18:05:26
,wl-rdm,48,191016,0.0-6.40-0.40,0.0,48.0,,,,,,,[],,,,,,53.2,1.0,i,1.0,True,1872.7000000476837,113.0,60.0,40.0,False,,338.24321219056196,[],"[960, 540]",ColorTask,21.0,41.0,,,HRV,HRV_0083,2022-11-30 18:05:26
,wl-rdm,49,194052,0.0-6.41-0.41,0.0,49.0,,,,,,,[],,,,,,62.5,1.0,i,1.0,True,1706.6999998092651,103.0,60.0,40.0,False,,257.7094019946469,[],"[960, 540]",ColorTask,22.0,42.0,,,HRV,HRV_0083,2022-11-30 18:05:26
,wl-rdm,50,196755,0.0-6.42-0.42,0.0,50.0,,,,,,,[],,,,,,53.2,1.0,i,1.0,True,1295.0,78.0,60.0,40.0,False,,336.10584073030117,[],"[960, 540]",ColorTask,23.0,43.0,,,HRV,HRV_0083,2022-11-30 18:05:26
,wl-rdm,51,199941,0.0-6.43-0.43,0.0,51.0,,,,,,,[],,,,,,50.0,0.0,i,1.0,False,1723.3999998569489,104.0,60.0,40.0,False,,396.80770605886636,[],"[960, 540]",ColorTask,22.0,44.0,,,HRV,HRV_0083,2022-11-30 18:05:26
,wl-rdm,52,202127,0.0-6.44-0.44,0.0,52.0,,,,,,,[],,,,,,87.9,0.0,u,0.0,True,886.5,54.0,60.0,40.0,False,,230.1265072208812,[],"[960, 540]",ColorTask,23.0,45.0,,,HRV,HRV_0083,2022-11-30 18:05:26
,wl-rdm,53,204913,0.0-6.45-0.45,0.0,53.0,,,,,,,[],,,,,,56.4,0.0,u,0.0,True,1455.7000000476837,88.0,60.0,40.0,False,,257.7979357279931,[],"[960, 540]",ColorTask,24.0,46.0,,,HRV,HRV_0083,2022-11-30 18:05:26
,wl-rdm,54,207699,0.0-6.46-0.46,0.0,54.0,,,,,,,[],,,,,,50.0,1.0,i,1.0,True,1513.7000000476837,91.0,60.0,40.0,False,,213.15329996280727,[],"[960, 540]",ColorTask,25.0,47.0,,,HRV,HRV_0083,2022-11-30 18:05:26
,wl-rdm,55,209951,0.0-6.47-0.47,0.0,55.0,,,,,,,[],,,,,,87.9,1.0,i,1.0,True,823.5,50.0,60.0,40.0,False,,354.30351095134966,[],"[960, 540]",ColorTask,26.0,48.0,,,HRV,HRV_0083,2022-11-30 18:05:26
,wl-rdm,56,212554,0.0-6.48-0.48,0.0,56.0,,,,,,,[],,,,,,53.2,1.0,i,1.0,True,1224.0999999046326,74.0,60.0,40.0,False,,313.8997287315178,[],"[960, 540]",ColorTask,27.0,49.0,,,HRV,HRV_0083,2022-11-30 18:05:26
,wl-rdm,57,215407,0.0-6.49-0.49,0.0,57.0,,,,,,,[],,,,,,50.0,1.0,u,0.0,False,1422.5,86.0,60.0,40.0,False,,351.6512122365216,[],"[960, 540]",ColorTask,26.0,50.0,,,HRV,HRV_0083,2022-11-30 18:05:26
,wl-rdm,58,217826,0.0-6.50-0.50,0.0,58.0,,,,,,,[],,,,,,50.0,0.0,u,0.0,True,1127.2000000476837,68.0,60.0,40.0,False,,223.31928924987767,[],"[960, 540]",ColorTask,27.0,51.0,,,HRV,HRV_0083,2022-11-30 18:05:26
,wl-rdm,59,220612,0.0-6.51-0.51,0.0,59.0,,,,,,,[],,,,,,56.4,1.0,i,1.0,True,1346.0,81.0,60.0,40.0,False,,373.3405019918672,[],"[960, 540]",ColorTask,28.0,52.0,,,HRV,HRV_0083,2022-11-30 18:05:26
,wl-rdm,60,223365,0.0-6.52-0.52,0.0,60.0,,,,,,,[],,,,,,53.2,1.0,i,1.0,True,1412.7999999523163,85.0,60.0,40.0,False,,271.05283535793416,[],"[960, 540]",ColorTask,29.0,53.0,,,HRV,HRV_0083,2022-11-30 18:05:26
,wl-rdm,61,225633,0.0-6.53-0.53,0.0,61.0,,,,,,,[],,,,,,87.9,1.0,i,1.0,True,989.8999998569489,60.0,60.0,40.0,False,,206.0844554035192,[],"[960, 540]",ColorTask,30.0,54.0,,,HRV,HRV_0083,2022-11-30 18:05:26
,wl-rdm,62,227786,0.0-6.54-0.54,0.0,62.0,,,,,,,[],,,,,,62.5,0.0,u,0.0,True,829.8999998569489,50.0,60.0,40.0,False,,261.7462235036489,[],"[960, 540]",ColorTask,31.0,55.0,,,HRV,HRV_0083,2022-11-30 18:05:26
,wl-rdm,63,230321,0.0-6.55-0.55,0.0,63.0,,,,,,,[],,,,,,62.5,0.0,u,0.0,True,1072.4000000953674,65.0,60.0,40.0,False,,390.73006077886237,[],"[960, 540]",ColorTask,32.0,56.0,,,HRV,HRV_0083,2022-11-30 18:05:26
,wl-rdm,64,233158,0.0-6.56-0.56,0.0,64.0,,,,,,,[],,,,,,62.5,1.0,i,1.0,True,1398.2000000476837,84.0,60.0,40.0,False,,375.06953624673906,[],"[960, 540]",ColorTask,33.0,57.0,,,HRV,HRV_0083,2022-11-30 18:05:26
,wl-rdm,65,235510,0.0-6.57-0.57,0.0,65.0,,,,,,,[],,,,,,53.2,0.0,i,1.0,False,1067.0999999046326,64.0,60.0,40.0,False,,230.8918683622742,[],"[960, 540]",ColorTask,32.0,58.0,,,HRV,HRV_0083,2022-11-30 18:05:26
,wl-rdm,66,237796,0.0-6.58-0.58,0.0,66.0,,,,,,,[],,,,,,56.4,1.0,i,1.0,True,1011.3999998569489,61.0,60.0,40.0,False,,210.70873320759677,[],"[960, 540]",ColorTask,33.0,59.0,,,HRV,HRV_0083,2022-11-30 18:05:26
,wl-rdm,67,239881,0.0-6.59-0.59,0.0,67.0,,,,,,,[],,,,,,87.9,1.0,i,1.0,True,749.0999999046326,45.0,60.0,40.0,False,,280.96779453192534,[],"[960, 540]",ColorTask,34.0,60.0,,,HRV,HRV_0083,2022-11-30 18:05:26
,wl-rdm,68,242150,0.0-6.60-0.60,0.0,68.0,,,,,,,[],,,,,,73.6,0.0,u,0.0,True,886.5,54.0,60.0,40.0,False,,310.3797252121019,[],"[960, 540]",ColorTask,35.0,61.0,,,HRV,HRV_0083,2022-11-30 18:05:26
,wl-rdm,69,244302,0.0-6.61-0.61,0.0,69.0,,,,,,,[],,,,,,87.9,0.0,u,0.0,True,810.0,49.0,60.0,40.0,False,,274.61924946360466,[],"[960, 540]",ColorTask,36.0,62.0,,,HRV,HRV_0083,2022-11-30 18:05:26
,wl-rdm,70,247205,0.0-6.62-0.62,0.0,70.0,,,,,,,[],,,,,,56.4,0.0,u,0.0,True,1560.5999999046326,94.0,60.0,40.0,False,,275.6792757508115,[],"[960, 540]",ColorTask,37.0,63.0,,,HRV,HRV_0083,2022-11-30 18:05:26
,wl-rdm,71,249858,0.0-6.63-0.63,0.0,71.0,,,,,,,[],,,,,,50.0,1.0,i,1.0,True,1240.0,75.0,60.0,40.0,False,,339.6079463430931,[],"[960, 540]",ColorTask,38.0,64.0,,,HRV,HRV_0083,2022-11-30 18:05:26
,wl-rdm,72,252377,0.0-6.64-0.64,0.0,72.0,,,,,,,[],,,,,,50.0,0.0,i,1.0,False,1220.1999998092651,74.0,60.0,40.0,False,,227.98214111888575,[],"[960, 540]",ColorTask,37.0,65.0,,,HRV,HRV_0083,2022-11-30 18:05:26
,wl-rdm,73,254846,0.0-6.65-0.65,0.0,73.0,,,,,,,[],,,,,,53.2,0.0,u,0.0,True,1025.9000000953674,62.0,60.0,40.0,False,,381.1795273792644,[],"[960, 540]",ColorTask,38.0,66.0,,,HRV,HRV_0083,2022-11-30 18:05:26
,wl-rdm,74,257248,0.0-6.66-0.66,0.0,74.0,,,,,,,[],,,,,,73.6,1.0,i,1.0,True,936.0999999046326,57.0,60.0,40.0,False,,385.1980550504917,[],"[960, 540]",ColorTask,39.0,67.0,,,HRV,HRV_0083,2022-11-30 18:05:26
,wl-rdm,75,259751,0.0-6.67-0.67,0.0,75.0,,,,,,,[],,,,,,73.6,1.0,i,1.0,True,1233.1999998092651,74.0,60.0,40.0,False,,201.1495559170509,[],"[960, 540]",ColorTask,40.0,68.0,,,HRV,HRV_0083,2022-11-30 18:05:26
,wl-rdm,76,262053,0.0-6.68-0.68,0.0,76.0,,,,,,,[],,,,,,62.5,1.0,i,1.0,True,994.2999999523163,60.0,60.0,40.0,False,,249.29497899086857,[],"[960, 540]",ColorTask,41.0,69.0,,,HRV,HRV_0083,2022-11-30 18:05:26
,wl-rdm,77,264522,0.0-6.69-0.69,0.0,77.0,,,,,,,[],,,,,,56.4,0.0,i,1.0,False,1088.3999998569489,66.0,60.0,40.0,False,,303.35785852342576,[],"[960, 540]",ColorTask,40.0,70.0,,,HRV,HRV_0083,2022-11-30 18:05:26
,wl-rdm,78,267058,0.0-6.70-0.70,0.0,78.0,,,,,,,[],,,,,,53.2,0.0,i,1.0,False,1232.0999999046326,74.0,60.0,40.0,False,,239.6063520282425,[],"[960, 540]",ColorTask,39.0,71.0,,,HRV,HRV_0083,2022-11-30 18:05:26
,wl-rdm,79,269194,0.0-6.71-0.71,0.0,79.0,,,,,,,[],,,,,,87.9,0.0,u,0.0,True,752.2999999523163,46.0,60.0,40.0,False,,310.8543535882013,[],"[960, 540]",ColorTask,40.0,72.0,,,HRV,HRV_0083,2022-11-30 18:05:26
,wl-rdm,80,271346,0.0-6.72-0.72,0.0,80.0,,,,,,,[],,,,,,73.6,0.0,u,0.0,True,874.8999998569489,53.0,60.0,40.0,False,,216.11016447361467,[],"[960, 540]",ColorTask,41.0,73.0,,,HRV,HRV_0083,2022-11-30 18:05:26
,wl-rdm,81,273832,0.0-6.73-0.73,0.0,81.0,,,,,,,[],,,,,,62.5,1.0,i,1.0,True,1021.1999998092651,62.0,60.0,40.0,False,,385.87978839251116,[],"[960, 540]",ColorTask,42.0,74.0,,,HRV,HRV_0083,2022-11-30 18:05:26
,wl-rdm,82,276451,0.0-6.74-0.74,0.0,82.0,,,,,,,[],,,,,,73.6,0.0,u,0.0,True,1211.5999999046326,73.0,60.0,40.0,False,,342.56870324793545,[],"[960, 540]",ColorTask,43.0,75.0,,,HRV,HRV_0083,2022-11-30 18:05:26
,wl-rdm,83,279554,0.0-6.75-0.75,0.0,83.0,,,,,,,[],,,,,,50.0,1.0,u,0.0,False,1741.4000000953674,105.0,60.0,40.0,False,,287.19896086367515,[],"[960, 540]",ColorTask,42.0,76.0,,,HRV,HRV_0083,2022-11-30 18:05:26
,wl-rdm,84,281940,0.0-6.76-0.76,0.0,84.0,,,,,,,[],,,,,,62.5,0.0,u,0.0,True,1004.6000001430511,61.0,60.0,40.0,False,,312.24905399679926,[],"[960, 540]",ColorTask,43.0,77.0,,,HRV,HRV_0083,2022-11-30 18:05:26
,wl-rdm,85,284025,0.0-6.77-0.77,0.0,85.0,,,,,,,[],,,,,,73.6,0.0,u,0.0,True,815.0,49.0,60.0,40.0,False,,201.07294809038675,[],"[960, 540]",ColorTask,44.0,78.0,,,HRV,HRV_0083,2022-11-30 18:05:26
,wl-rdm,86,286127,0.0-6.78-0.78,0.0,86.0,,,,,,,[],,,,,,87.9,1.0,i,1.0,True,730.2999999523163,44.0,60.0,40.0,False,,316.4506202831943,[],"[960, 540]",ColorTask,45.0,79.0,,,HRV,HRV_0083,2022-11-30 18:05:26
,wl-rdm,87,288363,0.0-6.79-0.79,0.0,87.0,,,,,,,[],,,,,,73.6,0.0,u,0.0,True,923.1999998092651,56.0,60.0,40.0,False,,234.17569812568024,[],"[960, 540]",ColorTask,46.0,80.0,,,HRV,HRV_0083,2022-11-30 18:05:26
,wl-rdm,88,290548,0.0-6.80-0.80,0.0,88.0,,,,,,,[],,,,,,62.5,0.0,u,0.0,True,869.5,53.0,60.0,40.0,False,,249.3619059309462,[],"[960, 540]",ColorTask,47.0,81.0,,,HRV,HRV_0083,2022-11-30 18:05:26
,wl-rdm,89,292667,0.0-6.81-0.81,0.0,89.0,,,,,,,[],,,,,,53.2,1.0,i,1.0,True,824.6999998092651,50.0,60.0,40.0,False,,229.6287873887949,[],"[960, 540]",ColorTask,48.0,82.0,,,HRV,HRV_0083,2022-11-30 18:05:26
,wl-rdm,90,295053,0.0-6.82-0.82,0.0,90.0,,,,,,,[],,,,,,53.2,1.0,i,1.0,True,1117.5,67.0,60.0,40.0,False,,208.34826458954856,[],"[960, 540]",ColorTask,49.0,83.0,,,HRV,HRV_0083,2022-11-30 18:05:26
,wl-rdm,91,297071,0.0-6.83-0.83,0.0,91.0,,,,,,,[],,,,,,87.9,0.0,u,0.0,True,729.0999999046326,44.0,60.0,40.0,False,,229.25918429621686,[],"[960, 540]",ColorTask,50.0,84.0,,,HRV,HRV_0083,2022-11-30 18:05:26
,wl-rdm,92,299190,0.0-6.84-0.84,0.0,92.0,,,,,,,[],,,,,,87.9,1.0,i,1.0,True,778.3999998569489,47.0,60.0,40.0,False,,270.52475646502546,[],"[960, 540]",ColorTask,51.0,85.0,,,HRV,HRV_0083,2022-11-30 18:05:26
,wl-rdm,93,301276,0.0-6.85-0.85,0.0,93.0,,,,,,,[],,,,,,87.9,0.0,u,0.0,True,697.8999998569489,42.0,60.0,40.0,False,,321.3702815530441,[],"[960, 540]",ColorTask,52.0,86.0,,,HRV,HRV_0083,2022-11-30 18:05:26
,wl-rdm,94,303878,0.0-6.86-0.86,0.0,94.0,,,,,,,[],,,,,,62.5,0.0,u,0.0,True,1203.1999998092651,73.0,60.0,40.0,False,,321.1388790996409,[],"[960, 540]",ColorTask,53.0,87.0,,,HRV,HRV_0083,2022-11-30 18:05:26
,wl-rdm,95,306064,0.0-6.87-0.87,0.0,95.0,,,,,,,[],,,,,,73.6,0.0,u,0.0,True,915.4000000953674,55.0,60.0,40.0,False,,209.30078625099776,[],"[960, 540]",ColorTask,54.0,88.0,,,HRV,HRV_0083,2022-11-30 18:05:26
,wl-rdm,96,308783,0.0-6.88-0.88,0.0,96.0,,,,,,,[],,,,,,62.5,1.0,i,1.0,True,1425.1999998092651,86.0,60.0,40.0,False,,221.75688390442957,[],"[960, 540]",ColorTask,55.0,89.0,,,HRV,HRV_0083,2022-11-30 18:05:26
,wl-rdm,97,310835,0.0-6.89-0.89,0.0,97.0,,,,,,,[],,,,,,87.9,1.0,i,1.0,True,753.7999999523163,46.0,60.0,40.0,False,,224.5677920900466,[],"[960, 540]",ColorTask,56.0,90.0,,,HRV,HRV_0083,2022-11-30 18:05:26
,wl-rdm,98,313605,0.0-6.90-0.90,0.0,98.0,,,,,,,[],,,,,,53.2,1.0,i,1.0,True,1449.5,87.0,60.0,40.0,False,,258.5457118932739,[],"[960, 540]",ColorTask,57.0,91.0,,,HRV,HRV_0083,2022-11-30 18:05:26
,wl-rdm,99,315890,0.0-6.91-0.91,0.0,99.0,,,,,,,[],,,,,,56.4,1.0,i,1.0,True,986.3999998569489,60.0,60.0,40.0,False,,231.07180451990638,[],"[960, 540]",ColorTask,58.0,92.0,,,HRV,HRV_0083,2022-11-30 18:05:26
,wl-rdm,100,318509,0.0-6.92-0.92,0.0,100.0,,,,,,,[],,,,,,50.0,1.0,i,1.0,True,1287.4999997615814,78.0,60.0,40.0,False,,251.47922374223955,[],"[960, 540]",ColorTask,59.0,93.0,,,HRV,HRV_0083,2022-11-30 18:05:26
,wl-rdm,101,320828,0.0-6.93-0.93,0.0,101.0,,,,,,,[],,,,,,50.0,0.0,i,1.0,False,1021.4000000953674,62.0,60.0,40.0,False,,220.86403077009513,[],"[960, 540]",ColorTask,58.0,94.0,,,HRV,HRV_0083,2022-11-30 18:05:26
,wl-rdm,102,323731,0.0-6.94-0.94,0.0,102.0,,,,,,,[],,,,,,56.4,0.0,u,0.0,True,1589.0000002384186,96.0,60.0,40.0,False,,242.21491161549812,[],"[960, 540]",ColorTask,59.0,95.0,,,HRV,HRV_0083,2022-11-30 18:05:26
,wl-rdm,103,327035,0.0-6.95-0.95,0.0,103.0,,,,,,,[],,,,,,50.0,0.0,i,1.0,False,1925.2999997138977,116.0,60.0,40.0,False,,316.07784190027746,[],"[960, 540]",ColorTask,58.0,96.0,,,HRV,HRV_0083,2022-11-30 18:05:26
,wl-rdm,104,330271,0.0-6.96-0.96,0.0,104.0,,,,,,,[],,,,,,62.5,1.0,i,1.0,True,1870.5999999046326,113.0,60.0,40.0,False,,295.48479583789424,[],"[960, 540]",ColorTask,59.0,97.0,,,HRV,HRV_0083,2022-11-30 18:05:26
,wl-rdm,105,332907,0.0-6.97-0.97,0.0,105.0,,,,,,,[],,,,,,73.6,1.0,i,1.0,True,1237.6999998092651,75.0,60.0,40.0,False,,324.9361567027523,[],"[960, 540]",ColorTask,60.0,98.0,,,HRV,HRV_0083,2022-11-30 18:05:26
,wl-rdm,106,335026,0.0-6.98-0.98,0.0,106.0,,,,,,,[],,,,,,73.6,1.0,i,1.0,True,848.5999999046326,51.0,60.0,40.0,False,,210.69295396534477,[],"[960, 540]",ColorTask,61.0,99.0,,,HRV,HRV_0083,2022-11-30 18:05:26
,wl-rdm,107,337061,0.0-6.99-0.99,0.0,107.0,,,,,,,[],,,,,,73.6,1.0,i,1.0,True,765.6999998092651,46.0,60.0,40.0,False,,211.21379799749928,[],"[960, 540]",ColorTask,62.0,100.0,,,HRV,HRV_0083,2022-11-30 18:05:26
,wl-rdm,108,339197,0.0-6.100-0.100,0.0,108.0,,,,,,,[],,,,,,62.5,0.0,u,0.0,True,765.1999998092651,46.0,60.0,40.0,False,,302.783554134562,[],"[960, 540]",ColorTask,63.0,101.0,,,HRV,HRV_0083,2022-11-30 18:05:26
,wl-rdm,109,342517,0.0-6.101-0.101,0.0,109.0,,,,,,,[],,,,,,56.4,0.0,u,0.0,True,1931.2000000476837,116.0,60.0,40.0,False,,325.6177896468321,[],"[960, 540]",ColorTask,64.0,102.0,,,HRV,HRV_0083,2022-11-30 18:05:26
,wl-rdm,110,344669,0.0-6.102-0.102,0.0,110.0,,,,,,,[],,,,,,87.9,1.0,i,1.0,True,835.6000001430511,51.0,60.0,40.0,False,,238.0289969807014,[],"[960, 540]",ColorTask,65.0,103.0,,,HRV,HRV_0083,2022-11-30 18:05:26
,wl-rdm,111,347371,0.0-6.103-0.103,0.0,111.0,,,,,,,[],,,,,,53.2,0.0,u,0.0,True,1362.2999999523163,82.0,60.0,40.0,False,,271.08232650767405,[],"[960, 540]",ColorTask,66.0,104.0,,,HRV,HRV_0083,2022-11-30 18:05:26
,wl-rdm,112,349707,0.0-6.104-0.104,0.0,112.0,,,,,,,[],,,,,,62.5,0.0,u,0.0,True,935.6000001430511,57.0,60.0,40.0,False,,318.51593236170993,[],"[960, 540]",ColorTask,67.0,105.0,,,HRV,HRV_0083,2022-11-30 18:05:26
,wl-rdm,113,352093,0.0-6.105-0.105,0.0,113.0,,,,,,,[],,,,,,56.4,0.0,u,0.0,True,1016.2999999523163,61.0,60.0,40.0,False,,312.1189249742624,[],"[960, 540]",ColorTask,68.0,106.0,,,HRV,HRV_0083,2022-11-30 18:05:26
,wl-rdm,114,354362,0.0-6.106-0.106,0.0,114.0,,,,,,,[],,,,,,56.4,1.0,u,0.0,False,964.3999998569489,58.0,60.0,40.0,False,,243.94937689967966,[],"[960, 540]",ColorTask,67.0,107.0,,,HRV,HRV_0083,2022-11-30 18:05:26
,wl-rdm,115,357565,0.0-6.107-0.107,0.0,115.0,,,,,,,[],,,,,,56.4,0.0,u,0.0,True,1814.2000000476837,109.0,60.0,40.0,False,,331.8813948835491,[],"[960, 540]",ColorTask,68.0,108.0,,,HRV,HRV_0083,2022-11-30 18:05:26
,wl-rdm,116,360551,0.0-6.108-0.108,0.0,116.0,,,,,,,[],,,,,,50.0,0.0,u,0.0,True,1588.9000000953674,96.0,60.0,40.0,False,,332.362974108922,[],"[960, 540]",ColorTask,69.0,109.0,,,HRV,HRV_0083,2022-11-30 18:05:26
,wl-html-keyboard-response,117,387710,0.0-7.0-0.0,1.0,117.0,,,,,,,,25154.39999985695,1.0,0,,,,,,,,,,,,,,,,,,,,,,HRV,HRV_0083,2022-11-30 18:05:26
,wl-rdm,118,390848,0.0-8.0-0.0,1.0,118.0,,,,,,,[],,,,,,53.2,0.0,u,0.0,True,1865.2999999523163,112.0,60.0,40.0,False,,208.75622321428628,[],"[960, 540]",ColorTask,70.0,1.0,,,HRV,HRV_0083,2022-11-30 18:05:26
,wl-rdm,119,393000,0.0-8.1-0.1,1.0,119.0,,,,,,,[],,,,,,62.5,0.0,u,0.0,True,691.0,42.0,60.0,40.0,False,,392.8832293031778,[],"[960, 540]",ColorTask,71.0,2.0,,,HRV,HRV_0083,2022-11-30 18:05:26
,wl-rdm,120,395836,0.0-8.2-0.2,1.0,120.0,,,,,,,[],,,,,,62.5,1.0,i,1.0,True,1555.2999999523163,94.0,60.0,40.0,False,,211.26518233066096,[],"[960, 540]",ColorTask,72.0,3.0,,,HRV,HRV_0083,2022-11-30 18:05:26
,wl-rdm,121,398022,0.0-8.3-0.3,1.0,121.0,,,,,,,[],,,,,,87.9,0.0,u,0.0,True,740.4000000953674,45.0,60.0,40.0,False,,367.0246967399533,[],"[960, 540]",ColorTask,73.0,4.0,,,HRV,HRV_0083,2022-11-30 18:05:26
,wl-rdm,122,400491,0.0-8.4-0.4,1.0,122.0,,,,,,,[],,,,,,56.4,0.0,u,0.0,True,1191.5,72.0,60.0,40.0,False,,202.62098269436785,[],"[960, 540]",ColorTask,74.0,5.0,,,HRV,HRV_0083,2022-11-30 18:05:26
,wl-rdm,123,402893,0.0-8.5-0.5,1.0,123.0,,,,,,,[],,,,,,73.6,1.0,i,1.0,True,1056.8999998569489,64.0,60.0,40.0,False,,275.66966314658436,[],"[960, 540]",ColorTask,75.0,6.0,,,HRV,HRV_0083,2022-11-30 18:05:26
,wl-rdm,124,405796,0.0-8.6-0.6,1.0,124.0,,,,,,,[],,,,,,53.2,1.0,i,1.0,True,1540.5999999046326,93.0,60.0,40.0,False,,288.7288586895638,[],"[960, 540]",ColorTask,76.0,7.0,,,HRV,HRV_0083,2022-11-30 18:05:26
,wl-rdm,125,408616,0.0-8.7-0.7,1.0,125.0,,,,,,,[],,,,,,56.4,0.0,u,0.0,True,1521.7999999523163,92.0,60.0,40.0,False,,220.08093949409013,[],"[960, 540]",ColorTask,77.0,8.0,,,HRV,HRV_0083,2022-11-30 18:05:26
,wl-rdm,126,411519,0.0-8.8-0.8,1.0,126.0,,,,,,,[],,,,,,56.4,0.0,u,0.0,True,1571.9000000953674,95.0,60.0,40.0,False,,250.41952364387038,[],"[960, 540]",ColorTask,78.0,9.0,,,HRV,HRV_0083,2022-11-30 18:05:26
,wl-rdm,127,413888,0.0-8.9-0.9,1.0,127.0,,,,,,,[],,,,,,73.6,0.0,u,0.0,True,1074.2999999523163,65.0,60.0,40.0,False,,222.92754583489963,[],"[960, 540]",ColorTask,79.0,10.0,,,HRV,HRV_0083,2022-11-30 18:05:26
,wl-rdm,128,416340,0.0-8.10-0.10,1.0,128.0,,,,,,,[],,,,,,50.0,1.0,i,1.0,True,1007.1000001430511,61.0,60.0,40.0,False,,373.0306515313057,[],"[960, 540]",ColorTask,80.0,11.0,,,HRV,HRV_0083,2022-11-30 18:05:26
,wl-rdm,129,418726,0.0-8.11-0.11,1.0,129.0,,,,,,,[],,,,,,73.6,1.0,i,1.0,True,1072.2000000476837,65.0,60.0,40.0,False,,241.93312518418742,[],"[960, 540]",ColorTask,81.0,12.0,,,HRV,HRV_0083,2022-11-30 18:05:26
,wl-rdm,130,421328,0.0-8.12-0.12,1.0,130.0,,,,,,,[],,,,,,56.4,1.0,i,1.0,True,1305.0,79.0,60.0,40.0,False,,227.58782680584102,[],"[960, 540]",ColorTask,82.0,13.0,,,HRV,HRV_0083,2022-11-30 18:05:26
,wl-rdm,131,424048,0.0-8.13-0.13,1.0,131.0,,,,,,,[],,,,,,62.5,0.0,u,0.0,True,1360.7999999523163,82.0,60.0,40.0,False,,299.1576039050083,[],"[960, 540]",ColorTask,83.0,14.0,,,HRV,HRV_0083,2022-11-30 18:05:26
,wl-rdm,132,426750,0.0-8.14-0.14,1.0,132.0,,,,,,,[],,,,,,62.5,0.0,u,0.0,True,1264.7999999523163,76.0,60.0,40.0,False,,368.95819802464234,[],"[960, 540]",ColorTask,84.0,15.0,,,HRV,HRV_0083,2022-11-30 18:05:26
,wl-rdm,133,429236,0.0-8.15-0.15,1.0,133.0,,,,,,,[],,,,,,62.5,0.0,u,0.0,True,1116.0,67.0,60.0,40.0,False,,314.88039216128993,[],"[960, 540]",ColorTask,85.0,16.0,,,HRV,HRV_0083,2022-11-30 18:05:26
,wl-rdm,134,431905,0.0-8.16-0.16,1.0,134.0,,,,,,,[],,,,,,73.6,0.0,u,0.0,True,1290.7999999523163,78.0,60.0,40.0,False,,291.98317914912343,[],"[960, 540]",ColorTask,86.0,17.0,,,HRV,HRV_0083,2022-11-30 18:05:26
,wl-rdm,135,434408,0.0-8.17-0.17,1.0,135.0,,,,,,,[],,,,,,50.0,0.0,i,1.0,False,1210.1999998092651,73.0,60.0,40.0,False,,224.28117450681887,[],"[960, 540]",ColorTask,85.0,18.0,,,HRV,HRV_0083,2022-11-30 18:05:26
,wl-rdm,136,436527,0.0-8.18-0.18,1.0,136.0,,,,,,,[],,,,,,62.5,0.0,u,0.0,True,752.9000000953674,46.0,60.0,40.0,False,,292.2893194434993,[],"[960, 540]",ColorTask,86.0,19.0,,,HRV,HRV_0083,2022-11-30 18:05:26
,wl-rdm,137,438929,0.0-8.19-0.19,1.0,137.0,,,,,,,[],,,,,,73.6,1.0,i,1.0,True,1052.1999998092651,64.0,60.0,40.0,False,,278.8348374692223,[],"[960, 540]",ColorTask,87.0,20.0,,,HRV,HRV_0083,2022-11-30 18:05:26
,wl-rdm,138,441415,0.0-8.20-0.20,1.0,138.0,,,,,,,[],,,,,,73.6,1.0,i,1.0,True,1037.6000001430511,63.0,60.0,40.0,False,,375.9720012970967,[],"[960, 540]",ColorTask,88.0,21.0,,,HRV,HRV_0083,2022-11-30 18:05:26
,wl-rdm,139,444117,0.0-8.21-0.21,1.0,139.0,,,,,,,[],,,,,,50.0,0.0,i,1.0,False,1320.5,80.0,60.0,40.0,False,,313.5109098990765,[],"[960, 540]",ColorTask,87.0,22.0,,,HRV,HRV_0083,2022-11-30 18:05:26
,wl-rdm,140,447588,0.0-8.22-0.22,1.0,140.0,,,,,,,[],,,,,,50.0,1.0,i,1.0,True,2125.0,128.0,60.0,40.0,False,,268.06130553860567,[],"[960, 540]",ColorTask,88.0,23.0,,,HRV,HRV_0083,2022-11-30 18:05:26
,wl-rdm,141,450190,0.0-8.23-0.23,1.0,141.0,,,,,,,[],,,,,,73.6,1.0,i,1.0,True,1241.1999998092651,75.0,60.0,40.0,False,,288.9015702527075,[],"[960, 540]",ColorTask,89.0,24.0,,,HRV,HRV_0083,2022-11-30 18:05:26
,wl-rdm,142,452526,0.0-8.24-0.24,1.0,142.0,,,,,,,[],,,,,,87.9,1.0,i,1.0,True,1014.2000002861023,61.0,60.0,40.0,False,,252.67493267723893,[],"[960, 540]",ColorTask,90.0,25.0,,,HRV,HRV_0083,2022-11-30 18:05:26
,wl-rdm,143,455195,0.0-8.25-0.25,1.0,143.0,,,,,,,[],,,,,,73.6,1.0,i,1.0,True,1322.5999999046326,80.0,60.0,40.0,False,,270.2723012191597,[],"[960, 540]",ColorTask,91.0,26.0,,,HRV,HRV_0083,2022-11-30 18:05:26
,wl-rdm,144,457297,0.0-8.26-0.26,1.0,144.0,,,,,,,[],,,,,,87.9,1.0,i,1.0,True,787.7999997138977,48.0,60.0,40.0,False,,239.31186546860948,[],"[960, 540]",ColorTask,92.0,27.0,,,HRV,HRV_0083,2022-11-30 18:05:26
,wl-rdm,145,459449,0.0-8.27-0.27,1.0,145.0,,,,,,,[],,,,,,56.4,0.0,u,0.0,True,866.2999999523163,52.0,60.0,40.0,False,,228.20397390934542,[],"[960, 540]",ColorTask,93.0,28.0,,,HRV,HRV_0083,2022-11-30 18:05:26
,wl-rdm,146,461602,0.0-8.28-0.28,1.0,146.0,,,,,,,[],,,,,,87.9,1.0,i,1.0,True,832.7999999523163,50.0,60.0,40.0,False,,254.33214446425924,[],"[960, 540]",ColorTask,94.0,29.0,,,HRV,HRV_0083,2022-11-30 18:05:26
,wl-rdm,147,464071,0.0-8.29-0.29,1.0,147.0,,,,,,,[],,,,,,62.5,1.0,i,1.0,True,1117.3999998569489,67.0,60.0,40.0,False,,288.50464315562544,[],"[960, 540]",ColorTask,95.0,30.0,,,HRV,HRV_0083,2022-11-30 18:05:26
,wl-rdm,148,466758,0.0-8.30-0.30,1.0,148.0,,,,,,,[],,,,,,53.2,1.0,i,1.0,True,1398.8999998569489,84.0,60.0,40.0,False,,233.49195482267908,[],"[960, 540]",ColorTask,96.0,31.0,,,HRV,HRV_0083,2022-11-30 18:05:26
,wl-rdm,149,469676,0.0-8.31-0.31,1.0,149.0,,,,,,,[],,,,,,62.5,1.0,i,1.0,True,1620.7999999523163,98.0,60.0,40.0,False,,227.7341992637635,[],"[960, 540]",ColorTask,97.0,32.0,,,HRV,HRV_0083,2022-11-30 18:05:26
,wl-rdm,150,471762,0.0-8.32-0.32,1.0,150.0,,,,,,,[],,,,,,87.9,0.0,u,0.0,True,779.5,47.0,60.0,40.0,False,,236.2799138618305,[],"[960, 540]",ColorTask,98.0,33.0,,,HRV,HRV_0083,2022-11-30 18:05:26
,wl-rdm,151,474164,0.0-8.33-0.33,1.0,151.0,,,,,,,[],,,,,,62.5,0.0,u,0.0,True,1096.2999999523163,66.0,60.0,40.0,False,,236.20175889908035,[],"[960, 540]",ColorTask,99.0,34.0,,,HRV,HRV_0083,2022-11-30 18:05:26
,wl-rdm,152,476583,0.0-8.34-0.34,1.0,152.0,,,,,,,[],,,,,,56.4,0.0,u,0.0,True,1105.7999999523163,67.0,60.0,40.0,False,,242.29463351670665,[],"[960, 540]",ColorTask,100.0,35.0,,,HRV,HRV_0083,2022-11-30 18:05:26
,wl-rdm,153,479636,0.0-8.35-0.35,1.0,153.0,,,,,,,[],,,,,,50.0,1.0,i,1.0,True,1689.6999998092651,102.0,60.0,40.0,False,,286.4157662607554,[],"[960, 540]",ColorTask,101.0,36.0,,,HRV,HRV_0083,2022-11-30 18:05:26
,wl-rdm,154,481705,0.0-8.36-0.36,1.0,154.0,,,,,,,[],,,,,,87.9,1.0,i,1.0,True,798.0999999046326,48.0,60.0,40.0,False,,212.35810844753433,[],"[960, 540]",ColorTask,102.0,37.0,,,HRV,HRV_0083,2022-11-30 18:05:26
,wl-rdm,155,483924,0.0-8.37-0.37,1.0,155.0,,,,,,,[],,,,,,50.0,0.0,i,1.0,False,896.2000000476837,54.0,60.0,40.0,False,,260.4108971765007,[],"[960, 540]",ColorTask,101.0,38.0,,,HRV,HRV_0083,2022-11-30 18:05:26
,wl-rdm,156,486577,0.0-8.38-0.38,1.0,156.0,,,,,,,[],,,,,,50.0,1.0,u,0.0,False,1332.6000001430511,80.0,60.0,40.0,False,,266.78674374015867,[],"[960, 540]",ColorTask,100.0,39.0,,,HRV,HRV_0083,2022-11-30 18:05:26
,wl-rdm,157,489296,0.0-8.39-0.39,1.0,157.0,,,,,,,[],,,,,,62.5,1.0,i,1.0,True,1316.2000000476837,79.0,60.0,40.0,False,,344.64285587101006,[],"[960, 540]",ColorTask,101.0,40.0,,,HRV,HRV_0083,2022-11-30 18:05:26
,wl-rdm,158,492149,0.0-8.40-0.40,1.0,158.0,,,,,,,[],,,,,,56.4,1.0,i,1.0,True,1402.7000000476837,85.0,60.0,40.0,False,,373.37442754513495,[],"[960, 540]",ColorTask,102.0,41.0,,,HRV,HRV_0083,2022-11-30 18:05:26
,wl-rdm,159,494885,0.0-8.41-0.41,1.0,159.0,,,,,,,[],,,,,,56.4,1.0,i,1.0,True,1376.1999998092651,83.0,60.0,40.0,False,,289.0137548420247,[],"[960, 540]",ColorTask,103.0,42.0,,,HRV,HRV_0083,2022-11-30 18:05:26
,wl-rdm,160,497204,0.0-8.42-0.42,1.0,160.0,,,,,,,[],,,,,,56.4,0.0,u,0.0,True,1049.7000000476837,63.0,60.0,40.0,False,,215.13757307815052,[],"[960, 540]",ColorTask,104.0,43.0,,,HRV,HRV_0083,2022-11-30 18:05:26
,wl-rdm,161,499840,0.0-8.43-0.43,1.0,161.0,,,,,,,[],,,,,,62.5,1.0,i,1.0,True,1274.0,77.0,60.0,40.0,False,,293.9704852907162,[],"[960, 540]",ColorTask,105.0,44.0,,,HRV,HRV_0083,2022-11-30 18:05:26
,wl-rdm,162,502409,0.0-8.44-0.44,1.0,162.0,,,,,,,[],,,,,,73.6,0.0,u,0.0,True,1223.7999999523163,74.0,60.0,40.0,False,,283.2549366473455,[],"[960, 540]",ColorTask,106.0,45.0,,,HRV,HRV_0083,2022-11-30 18:05:26
,wl-rdm,163,504995,0.0-8.45-0.45,1.0,163.0,,,,,,,[],,,,,,73.6,1.0,i,1.0,True,1262.2999999523163,76.0,60.0,40.0,False,,264.45245827866114,[],"[960, 540]",ColorTask,107.0,46.0,,,HRV,HRV_0083,2022-11-30 18:05:26
,wl-rdm,164,507281,0.0-8.46-0.46,1.0,164.0,,,,,,,[],,,,,,62.5,0.0,u,0.0,True,967.8000001907349,58.0,60.0,40.0,False,,256.10563479730894,[],"[960, 540]",ColorTask,108.0,47.0,,,HRV,HRV_0083,2022-11-30 18:05:26
,wl-rdm,165,509416,0.0-8.47-0.47,1.0,165.0,,,,,,,[],,,,,,73.6,0.0,u,0.0,True,766.9000000953674,46.0,60.0,40.0,False,,313.5621644345512,[],"[960, 540]",ColorTask,109.0,48.0,,,HRV,HRV_0083,2022-11-30 18:05:26
,wl-rdm,166,511702,0.0-8.48-0.48,1.0,166.0,,,,,,,[],,,,,,87.9,1.0,i,1.0,True,978.0999999046326,59.0,60.0,40.0,False,,241.6095896606515,[],"[960, 540]",ColorTask,110.0,49.0,,,HRV,HRV_0083,2022-11-30 18:05:26
,wl-rdm,167,513971,0.0-8.49-0.49,1.0,167.0,,,,,,,[],,,,,,53.2,0.0,i,1.0,False,983.0999999046326,59.0,60.0,40.0,False,,231.80517073641835,[],"[960, 540]",ColorTask,109.0,50.0,,,HRV,HRV_0083,2022-11-30 18:05:26
,wl-rdm,168,516273,0.0-8.50-0.50,1.0,168.0,,,,,,,[],,,,,,73.6,1.0,i,1.0,True,1028.7999999523163,62.0,60.0,40.0,False,,204.03695578423358,[],"[960, 540]",ColorTask,110.0,51.0,,,HRV,HRV_0083,2022-11-30 18:05:26
,wl-rdm,169,518609,0.0-8.51-0.51,1.0,169.0,,,,,,,[],,,,,,53.2,1.0,i,1.0,True,935.2000000476837,57.0,60.0,40.0,False,,325.60537920436616,[],"[960, 540]",ColorTask,111.0,52.0,,,HRV,HRV_0083,2022-11-30 18:05:26
,wl-rdm,170,521462,0.0-8.52-0.52,1.0,170.0,,,,,,,[],,,,,,53.2,0.0,u,0.0,True,1444.5,87.0,60.0,40.0,False,,340.64582966540286,[],"[960, 540]",ColorTask,112.0,53.0,,,HRV,HRV_0083,2022-11-30 18:05:26
,wl-rdm,171,523747,0.0-8.53-0.53,1.0,171.0,,,,,,,[],,,,,,50.0,0.0,u,0.0,True,1017.0999999046326,61.0,60.0,40.0,False,,206.35141350271067,[],"[960, 540]",ColorTask,113.0,54.0,,,HRV,HRV_0083,2022-11-30 18:05:26
,wl-rdm,172,526100,0.0-8.54-0.54,1.0,172.0,,,,,,,[],,,,,,87.9,1.0,i,1.0,True,1042.2999999523163,63.0,60.0,40.0,False,,241.06631270234112,[],"[960, 540]",ColorTask,114.0,55.0,,,HRV,HRV_0083,2022-11-30 18:05:26
,wl-rdm,173,528886,0.0-8.55-0.55,1.0,173.0,,,,,,,[],,,,,,56.4,1.0,i,1.0,True,1449.5999999046326,87.0,60.0,40.0,False,,267.37874053664467,[],"[960, 540]",ColorTask,115.0,56.0,,,HRV,HRV_0083,2022-11-30 18:05:26
,wl-rdm,174,531705,0.0-8.56-0.56,1.0,174.0,,,,,,,[],,,,,,50.0,0.0,u,0.0,True,1379.2999997138977,83.0,60.0,40.0,False,,380.51430980618545,[],"[960, 540]",ColorTask,116.0,57.0,,,HRV,HRV_0083,2022-11-30 18:05:26
,wl-rdm,175,534074,0.0-8.57-0.57,1.0,175.0,,,,,,,[],,,,,,53.2,0.0,u,0.0,True,1060.2999999523163,64.0,60.0,40.0,False,,236.84180504139792,[],"[960, 540]",ColorTask,117.0,58.0,,,HRV,HRV_0083,2022-11-30 18:05:26
,wl-rdm,176,536460,0.0-8.58-0.58,1.0,176.0,,,,,,,[],,,,,,62.5,1.0,u,0.0,False,1107.4000000953674,67.0,60.0,40.0,False,,215.76139534547434,[],"[960, 540]",ColorTask,116.0,59.0,,,HRV,HRV_0083,2022-11-30 18:05:26
,wl-rdm,177,538846,0.0-8.59-0.59,1.0,177.0,,,,,,,[],,,,,,62.5,0.0,u,0.0,True,1055.9000000953674,64.0,60.0,40.0,False,,252.06677737841744,[],"[960, 540]",ColorTask,117.0,60.0,,,HRV,HRV_0083,2022-11-30 18:05:26
,wl-rdm,178,541398,0.0-8.60-0.60,1.0,178.0,,,,,,,[],,,,,,56.4,0.0,u,0.0,True,1154.5,70.0,60.0,40.0,False,,318.29688451490983,[],"[960, 540]",ColorTask,118.0,61.0,,,HRV,HRV_0083,2022-11-30 18:05:26
,wl-rdm,179,544151,0.0-8.61-0.61,1.0,179.0,,,,,,,[],,,,,,53.2,0.0,u,0.0,True,1371.5,83.0,60.0,40.0,False,,308.8281845645689,[],"[960, 540]",ColorTask,119.0,62.0,,,HRV,HRV_0083,2022-11-30 18:05:26
,wl-rdm,180,546586,0.0-8.62-0.62,1.0,180.0,,,,,,,[],,,,,,62.5,0.0,u,0.0,True,1087.2000000476837,66.0,60.0,40.0,False,,269.9459199609578,[],"[960, 540]",ColorTask,120.0,63.0,,,HRV,HRV_0083,2022-11-30 18:05:26
,wl-rdm,181,549105,0.0-8.63-0.63,1.0,181.0,,,,,,,[],,,,,,56.4,1.0,u,0.0,False,1156.7999997138977,70.0,60.0,40.0,False,,293.72873445664834,[],"[960, 540]",ColorTask,119.0,64.0,,,HRV,HRV_0083,2022-11-30 18:05:26
,wl-rdm,182,551758,0.0-8.64-0.64,1.0,182.0,,,,,,,[],,,,,,53.2,1.0,i,1.0,True,1315.2000000476837,79.0,60.0,40.0,False,,274.32578753347036,[],"[960, 540]",ColorTask,120.0,65.0,,,HRV,HRV_0083,2022-11-30 18:05:26
,wl-rdm,183,554160,0.0-8.65-0.65,1.0,183.0,,,,,,,[],,,,,,62.5,1.0,i,1.0,True,1064.4000000953674,64.0,60.0,40.0,False,,277.4464169330345,[],"[960, 540]",ColorTask,121.0,66.0,,,HRV,HRV_0083,2022-11-30 18:05:26
,wl-rdm,184,556663,0.0-8.66-0.66,1.0,184.0,,,,,,,[],,,,,,53.2,1.0,i,1.0,True,1171.7999999523163,71.0,60.0,40.0,False,,254.8139494421996,[],"[960, 540]",ColorTask,122.0,67.0,,,HRV,HRV_0083,2022-11-30 18:05:26
,wl-rdm,185,558832,0.0-8.67-0.67,1.0,185.0,,,,,,,[],,,,,,73.6,0.0,u,0.0,True,844.2999999523163,51.0,60.0,40.0,False,,251.8424171662773,[],"[960, 540]",ColorTask,123.0,68.0,,,HRV,HRV_0083,2022-11-30 18:05:26
,wl-rdm,186,561084,0.0-8.68-0.68,1.0,186.0,,,,,,,[],,,,,,56.4,0.0,u,0.0,True,854.7999997138977,52.0,60.0,40.0,False,,325.4017919822711,[],"[960, 540]",ColorTask,124.0,69.0,,,HRV,HRV_0083,2022-11-30 18:05:26
,wl-rdm,187,563870,0.0-8.69-0.69,1.0,187.0,,,,,,,[],,,,,,53.2,1.0,i,1.0,True,1479.1000001430511,89.0,60.0,40.0,False,,233.7836795888676,[],"[960, 540]",ColorTask,125.0,70.0,,,HRV,HRV_0083,2022-11-30 18:05:26
,wl-rdm,188,567023,0.0-8.70-0.70,1.0,188.0,,,,,,,[],,,,,,50.0,0.0,u,0.0,True,1716.4999997615814,103.0,60.0,40.0,False,,381.3649284518865,[],"[960, 540]",ColorTask,126.0,71.0,,,HRV,HRV_0083,2022-11-30 18:05:26
,wl-rdm,189,569159,0.0-8.71-0.71,1.0,189.0,,,,,,,[],,,,,,87.9,0.0,u,0.0,True,804.0999999046326,49.0,60.0,40.0,False,,262.77843156654785,[],"[960, 540]",ColorTask,127.0,72.0,,,HRV,HRV_0083,2022-11-30 18:05:26
,wl-rdm,190,571261,0.0-8.72-0.72,1.0,190.0,,,,,,,[],,,,,,73.6,0.0,u,0.0,True,747.1999998092651,45.0,60.0,40.0,False,,284.19700319694635,[],"[960, 540]",ColorTask,128.0,73.0,,,HRV,HRV_0083,2022-11-30 18:05:26
,wl-rdm,191,574214,0.0-8.73-0.73,1.0,191.0,,,,,,,[],,,,,,53.2,1.0,i,1.0,True,1550.2000000476837,93.0,60.0,40.0,False,,335.12351692237286,[],"[960, 540]",ColorTask,129.0,74.0,,,HRV,HRV_0083,2022-11-30 18:05:26
,wl-rdm,192,576783,0.0-8.74-0.74,1.0,192.0,,,,,,,[],,,,,,50.0,0.0,i,1.0,False,1137.5,69.0,60.0,40.0,False,,354.90152465305437,[],"[960, 540]",ColorTask,128.0,75.0,,,HRV,HRV_0083,2022-11-30 18:05:26
,wl-rdm,193,579386,0.0-8.75-0.75,1.0,193.0,,,,,,,[],,,,,,50.0,0.0,i,1.0,False,1293.0,78.0,60.0,40.0,False,,239.9182341519341,[],"[960, 540]",ColorTask,127.0,76.0,,,HRV,HRV_0083,2022-11-30 18:05:26
,wl-rdm,194,581971,0.0-8.76-0.76,1.0,194.0,,,,,,,[],,,,,,53.2,0.0,u,0.0,True,1297.2000000476837,78.0,60.0,40.0,False,,233.0302088038753,[],"[960, 540]",ColorTask,128.0,77.0,,,HRV,HRV_0083,2022-11-30 18:05:26
,wl-rdm,195,584457,0.0-8.77-0.77,1.0,195.0,,,,,,,[],,,,,,62.5,1.0,i,1.0,True,1210.0,73.0,60.0,40.0,False,,205.72599097150015,[],"[960, 540]",ColorTask,129.0,78.0,,,HRV,HRV_0083,2022-11-30 18:05:26
,wl-rdm,196,587093,0.0-8.78-0.78,1.0,196.0,,,,,,,[],,,,,,87.9,1.0,i,1.0,True,1200.2999997138977,72.0,60.0,40.0,False,,382.6153108081544,[],"[960, 540]",ColorTask,130.0,79.0,,,HRV,HRV_0083,2022-11-30 18:05:26
,wl-rdm,197,589145,0.0-8.79-0.79,1.0,197.0,,,,,,,[],,,,,,87.9,0.0,u,0.0,True,696.6999998092651,42.0,60.0,40.0,False,,295.50302700773875,[],"[960, 540]",ColorTask,131.0,80.0,,,HRV,HRV_0083,2022-11-30 18:05:26
,wl-rdm,198,591664,0.0-8.80-0.80,1.0,198.0,,,,,,,[],,,,,,56.4,1.0,i,1.0,True,1205.7999997138977,73.0,60.0,40.0,False,,246.06830787615945,[],"[960, 540]",ColorTask,132.0,81.0,,,HRV,HRV_0083,2022-11-30 18:05:26
,wl-rdm,199,593917,0.0-8.81-0.81,1.0,199.0,,,,,,,[],,,,,,73.6,0.0,u,0.0,True,870.8999998569489,53.0,60.0,40.0,False,,314.5174179554464,[],"[960, 540]",ColorTask,133.0,82.0,,,HRV,HRV_0083,2022-11-30 18:05:26
,wl-rdm,200,597120,0.0-8.82-0.82,1.0,200.0,,,,,,,[],,,,,,50.0,1.0,i,1.0,True,1884.7999999523163,113.0,60.0,40.0,False,,250.23136793390418,[],"[960, 540]",ColorTask,134.0,83.0,,,HRV,HRV_0083,2022-11-30 18:05:26
,wl-rdm,201,600173,0.0-8.83-0.83,1.0,201.0,,,,,,,[],,,,,,62.5,1.0,i,1.0,True,1767.6999998092651,106.0,60.0,40.0,False,,220.14346686374637,[],"[960, 540]",ColorTask,135.0,84.0,,,HRV,HRV_0083,2022-11-30 18:05:26
,wl-rdm,202,602375,0.0-8.84-0.84,1.0,202.0,,,,,,,[],,,,,,87.9,0.0,u,0.0,True,870.2999999523163,53.0,60.0,40.0,False,,259.2910312915161,[],"[960, 540]",ColorTask,136.0,85.0,,,HRV,HRV_0083,2022-11-30 18:05:26
,wl-rdm,203,604744,0.0-8.85-0.85,1.0,203.0,,,,,,,[],,,,,,73.6,0.0,u,0.0,True,923.5,56.0,60.0,40.0,False,,380.1621440626351,[],"[960, 540]",ColorTask,137.0,86.0,,,HRV,HRV_0083,2022-11-30 18:05:26
,wl-rdm,204,607948,0.0-8.86-0.86,1.0,204.0,,,,,,,[],,,,,,50.0,1.0,u,0.0,False,1875.2999999523163,113.0,60.0,40.0,False,,265.3027635164565,[],"[960, 540]",ColorTask,136.0,87.0,,,HRV,HRV_0083,2022-11-30 18:05:26
,wl-rdm,205,610183,0.0-8.87-0.87,1.0,205.0,,,,,,,[],,,,,,87.9,0.0,u,0.0,True,916.9000000953674,55.0,60.0,40.0,False,,252.23507291436204,[],"[960, 540]",ColorTask,137.0,88.0,,,HRV,HRV_0083,2022-11-30 18:05:26
,wl-rdm,206,612202,0.0-8.88-0.88,1.0,206.0,,,,,,,[],,,,,,87.9,0.0,u,0.0,True,718.2000000476837,44.0,60.0,40.0,False,,219.31696760850951,[],"[960, 540]",ColorTask,138.0,89.0,,,HRV,HRV_0083,2022-11-30 18:05:26
,wl-rdm,207,614587,0.0-8.89-0.89,1.0,207.0,,,,,,,[],,,,,,50.0,1.0,i,1.0,True,1021.5,62.0,60.0,40.0,False,,284.7018971211435,[],"[960, 540]",ColorTask,139.0,90.0,,,HRV,HRV_0083,2022-11-30 18:05:26
,wl-rdm,208,617040,0.0-8.90-0.90,1.0,208.0,,,,,,,[],,,,,,56.4,1.0,i,1.0,True,1173.0,71.0,60.0,40.0,False,,201.0927604012818,[],"[960, 540]",ColorTask,140.0,91.0,,,HRV,HRV_0083,2022-11-30 18:05:26
,wl-rdm,209,619859,0.0-8.91-0.91,1.0,209.0,,,,,,,[],,,,,,53.2,1.0,i,1.0,True,1365.2000000476837,82.0,60.0,40.0,False,,383.8428848315772,[],"[960, 540]",ColorTask,141.0,92.0,,,HRV,HRV_0083,2022-11-30 18:05:26
,wl-rdm,210,622012,0.0-8.92-0.92,1.0,210.0,,,,,,,[],,,,,,73.6,0.0,u,0.0,True,733.0,44.0,60.0,40.0,False,,350.44158591483733,[],"[960, 540]",ColorTask,142.0,93.0,,,HRV,HRV_0083,2022-11-30 18:05:26
,wl-rdm,211,625131,0.0-8.93-0.93,1.0,211.0,,,,,,,[],,,,,,50.0,0.0,u,0.0,True,1687.8999998569489,102.0,60.0,40.0,False,,352.4029460673923,[],"[960, 540]",ColorTask,143.0,94.0,,,HRV,HRV_0083,2022-11-30 18:05:26
,wl-rdm,212,628818,0.0-8.94-0.94,1.0,212.0,,,,,,,[],,,,,,53.2,0.0,i,1.0,False,2390.5999999046326,144.0,60.0,40.0,False,,227.89653431096534,[],"[960, 540]",ColorTask,142.0,95.0,,,HRV,HRV_0083,2022-11-30 18:05:26
,wl-rdm,213,631721,0.0-8.95-0.95,1.0,213.0,,,,,,,[],,,,,,53.2,0.0,i,1.0,False,1513.5,91.0,60.0,40.0,False,,330.3602563403048,[],"[960, 540]",ColorTask,141.0,96.0,,,HRV,HRV_0083,2022-11-30 18:05:26
,wl-rdm,214,634224,0.0-8.96-0.96,1.0,214.0,,,,,,,[],,,,,,73.6,1.0,i,1.0,True,1192.8999998569489,72.0,60.0,40.0,False,,235.5230136973618,[],"[960, 540]",ColorTask,142.0,97.0,,,HRV,HRV_0083,2022-11-30 18:05:26
,wl-rdm,215,636926,0.0-8.97-0.97,1.0,215.0,,,,,,,[],,,,,,53.2,0.0,u,0.0,True,1268.6999998092651,77.0,60.0,40.0,False,,362.9184640264745,[],"[960, 540]",ColorTask,143.0,98.0,,,HRV,HRV_0083,2022-11-30 18:05:26
,wl-rdm,216,639062,0.0-8.98-0.98,1.0,216.0,,,,,,,[],,,,,,87.9,0.0,u,0.0,True,746.5,45.0,60.0,40.0,False,,323.4166092251926,[],"[960, 540]",ColorTask,144.0,99.0,,,HRV,HRV_0083,2022-11-30 18:05:26
,wl-rdm,217,641748,0.0-8.99-0.99,1.0,217.0,,,,,,,[],,,,,,53.2,1.0,u,0.0,False,1362.7999999523163,82.0,60.0,40.0,False,,261.66790606869625,[],"[960, 540]",ColorTask,143.0,100.0,,,HRV,HRV_0083,2022-11-30 18:05:26
,wl-rdm,218,644534,0.0-8.100-0.100,1.0,218.0,,,,,,,[],,,,,,56.4,0.0,i,1.0,False,1502.6999998092651,91.0,60.0,40.0,False,,200.91909365299625,[],"[960, 540]",ColorTask,142.0,101.0,,,HRV,HRV_0083,2022-11-30 18:05:26
,wl-rdm,219,646686,0.0-8.101-0.101,1.0,219.0,,,,,,,[],,,,,,87.9,1.0,i,1.0,True,808.7999999523163,49.0,60.0,40.0,False,,283.2590891107314,[],"[960, 540]",ColorTask,143.0,102.0,,,HRV,HRV_0083,2022-11-30 18:05:26
,wl-rdm,220,649372,0.0-8.102-0.102,1.0,220.0,,,,,,,[],,,,,,50.0,1.0,i,1.0,True,1245.5999999046326,75.0,60.0,40.0,False,,371.49660854818507,[],"[960, 540]",ColorTask,144.0,103.0,,,HRV,HRV_0083,2022-11-30 18:05:26
,wl-rdm,221,651674,0.0-8.103-0.103,1.0,221.0,,,,,,,[],,,,,,87.9,1.0,i,1.0,True,1018.5999999046326,62.0,60.0,40.0,False,,201.0944636642137,[],"[960, 540]",ColorTask,145.0,104.0,,,HRV,HRV_0083,2022-11-30 18:05:26
,wl-rdm,222,654410,0.0-8.104-0.104,1.0,222.0,,,,,,,[],,,,,,56.4,1.0,i,1.0,True,1425.0000002384186,86.0,60.0,40.0,False,,239.0982781947689,[],"[960, 540]",ColorTask,146.0,105.0,,,HRV,HRV_0083,2022-11-30 18:05:26
,wl-rdm,223,656529,0.0-8.105-0.105,1.0,223.0,,,,,,,[],,,,,,56.4,1.0,u,0.0,False,835.2999999523163,51.0,60.0,40.0,False,,211.9366082020628,[],"[960, 540]",ColorTask,145.0,106.0,,,HRV,HRV_0083,2022-11-30 18:05:26
,wl-rdm,224,658748,0.0-8.106-0.106,1.0,224.0,,,,,,,[],,,,,,87.9,0.0,u,0.0,True,939.2999999523163,57.0,60.0,40.0,False,,210.25871634423336,[],"[960, 540]",ColorTask,146.0,107.0,,,HRV,HRV_0083,2022-11-30 18:05:26
,wl-rdm,225,661117,0.0-8.107-0.107,1.0,225.0,,,,,,,[],,,,,,50.0,1.0,u,0.0,False,1097.3999998569489,66.0,60.0,40.0,False,,203.863836214927,[],"[960, 540]",ColorTask,145.0,108.0,,,HRV,HRV_0083,2022-11-30 18:05:26
,wl-html-button-response,226,666694,0.0-9.0-0.0,,,,,,,,,,5574.5,,0,,,,,,,,,,,,,,,,,,,,<h3>End of this session. Thank you!</h3><br>,['Close window'],HRV,HRV_0083,2022-11-30 18:05:26
