trialN,stimuli,trialStartTime,trialStartTime_UNIX,stimulus1,stimulus2,stimulus1Bid,stimulus2Bid,delta,selected,rt,rt_UNIX,rt_perfnow,receivedResponse,rsp,trialEndTime,trialDuration,trialEndTime_UNIX,trialDuration_UNIX,exp,subjectId,date
0,"[{'imgObject': {}, 'id': 'hashbrowns', 'src': '/static/foodstim60/hashbrowns.jpg', 'key': 'u', 'origWidth': 411, 'origHeight': 410, 'width': 411, 'height': 410, 'widthPercent': 0.45, 'rescaleHeight': False, 'trialN': 0, 'loaded': True, 'loadedTime': 2283.2000000476837, 'positionName': 'LEFT', 'positionCoords': [510.6, 335], 'bid': 6.86}, {'imgObject': {}, 'id': 'rigatoni and sauce', 'src': '/static/foodstim60/rigatoni and sauce.jpg', 'key': 'i', 'origWidth': 410, 'origHeight': 411, 'width': 410, 'height': 411, 'widthPercent': 0.45, 'rescaleHeight': False, 'trialN': 0, 'loaded': True, 'loadedTime': 2336.4000000953674, 'positionName': 'RIGHT', 'positionCoords': [998.4, 334.5], 'bid': 9.08}]",2618.9000000953674,1669830482681,hashbrowns,rigatoni and sauce,6.86,9.08,2.2199999999999998,rigatoni and sauce,1201.0,1201,1201.4000000953674,True,i,4336.900000095367,1718.0,1669830484399,1718,HRV,HRV_0083,2022-11-30 17:54:13
1,"[{'imgObject': {}, 'id': 'strawberries', 'src': '/static/foodstim60/strawberries.jpg', 'key': 'u', 'origWidth': 410, 'origHeight': 410, 'width': 410, 'height': 410, 'widthPercent': 0.45, 'rescaleHeight': False, 'trialN': 1, 'loaded': True, 'loadedTime': 2339.600000143051, 'positionName': 'LEFT', 'positionCoords': [511.6, 335], 'bid': 8.620000000000001}, {'imgObject': {}, 'id': 'edamame', 'src': '/static/foodstim60/edamame.jpg', 'key': 'i', 'origWidth': 409, 'origHeight': 410, 'width': 409, 'height': 410, 'widthPercent': 0.45, 'rescaleHeight': False, 'trialN': 1, 'loaded': True, 'loadedTime': 2361.300000190735, 'positionName': 'RIGHT', 'positionCoords': [998.4, 335], 'bid': 5.0600000000000005}]",4337.0,1669830484399,strawberries,edamame,8.620000000000001,5.0600000000000005,-3.5600000000000005,strawberries,965.9000000953674,966,966.1000001430511,True,u,5808.700000047684,1471.7000000476837,1669830485870,1471,HRV,HRV_0083,2022-11-30 17:54:13
2,"[{'imgObject': {}, 'id': 'raspberries', 'src': '/static/foodstim60/raspberries.jpg', 'key': 'u', 'origWidth': 411, 'origHeight': 411, 'width': 411, 'height': 411, 'widthPercent': 0.45, 'rescaleHeight': False, 'trialN': 2, 'loaded': True, 'loadedTime': 2362, 'positionName': 'LEFT', 'positionCoords': [510.6, 334.5], 'bid': 8.16}, {'imgObject': {}, 'id': 'burrito', 'src': '/static/foodstim60/burrito.jpg', 'key': 'i', 'origWidth': 410, 'origHeight': 410, 'width': 410, 'height': 410, 'widthPercent': 0.45, 'rescaleHeight': False, 'trialN': 2, 'loaded': True, 'loadedTime': 2370, 'positionName': 'RIGHT', 'positionCoords': [998.4, 335], 'bid': 3.18}]",5808.900000095367,1669830485870,raspberries,burrito,8.16,3.18,-4.98,raspberries,929.9000000953674,931,930.0999999046326,True,u,7260.700000047684,1451.7999999523163,1669830487322,1452,HRV,HRV_0083,2022-11-30 17:54:13
3,"[{'imgObject': {}, 'id': 'seaweed', 'src': '/static/foodstim60/seaweed.jpg', 'key': 'u', 'origWidth': 410, 'origHeight': 410, 'width': 410, 'height': 410, 'widthPercent': 0.45, 'rescaleHeight': False, 'trialN': 3, 'loaded': True, 'loadedTime': 2303, 'positionName': 'LEFT', 'positionCoords': [511.6, 335], 'bid': 6.5600000000000005}, {'imgObject': {}, 'id': 'ice cream sundae 002', 'src': '/static/foodstim60/ice cream sundae 002.jpg', 'key': 'i', 'origWidth': 409, 'origHeight': 409, 'width': 409, 'height': 409, 'widthPercent': 0.45, 'rescaleHeight': False, 'trialN': 3, 'loaded': True, 'loadedTime': 2318.5, 'positionName': 'RIGHT', 'positionCoords': [998.4, 335.5], 'bid': 7.78}]",7260.900000095367,1669830487322,seaweed,ice cream sundae 002,6.5600000000000005,7.78,1.2199999999999998,ice cream sundae 002,1019.0999999046326,1020,1019.2000000476837,True,i,8787.700000047684,1526.7999999523163,1669830488849,1527,HRV,HRV_0083,2022-11-30 17:54:13
4,"[{'imgObject': {}, 'id': 'edamame', 'src': '/static/foodstim60/edamame.jpg', 'key': 'u', 'origWidth': 409, 'origHeight': 410, 'width': 409, 'height': 410, 'widthPercent': 0.45, 'rescaleHeight': False, 'trialN': 4, 'loaded': True, 'loadedTime': 2361.4000000953674, 'positionName': 'LEFT', 'positionCoords': [512.6, 335], 'bid': 5.0600000000000005}, {'imgObject': {}, 'id': 'mac & cheese', 'src': '/static/foodstim60/mac & cheese.jpg', 'key': 'i', 'origWidth': 410, 'origHeight': 410, 'width': 410, 'height': 410, 'widthPercent': 0.45, 'rescaleHeight': False, 'trialN': 4, 'loaded': True, 'loadedTime': 2349.300000190735, 'positionName': 'RIGHT', 'positionCoords': [998.4, 335], 'bid': 5.03}]",8787.800000190735,1669830488850,edamame,mac & cheese,5.0600000000000005,5.03,-0.03000000000000025,mac & cheese,1426.1999998092651,1426,1426.3999998569489,True,i,10721.800000190735,1934.0,1669830490783,1933,HRV,HRV_0083,2022-11-30 17:54:13
5,"[{'imgObject': {}, 'id': 'lox', 'src': '/static/foodstim60/lox.jpg', 'key': 'u', 'origWidth': 410, 'origHeight': 411, 'width': 410, 'height': 411, 'widthPercent': 0.45, 'rescaleHeight': False, 'trialN': 5, 'loaded': True, 'loadedTime': 2385.300000190735, 'positionName': 'LEFT', 'positionCoords': [511.6, 334.5], 'bid': 8.040000000000001}, {'imgObject': {}, 'id': 'burger', 'src': '/static/foodstim60/burger.jpg', 'key': 'i', 'origWidth': 409, 'origHeight': 409, 'width': 409, 'height': 409, 'widthPercent': 0.45, 'rescaleHeight': False, 'trialN': 5, 'loaded': True, 'loadedTime': 2404.9000000953674, 'positionName': 'RIGHT', 'positionCoords': [998.4, 335.5], 'bid': 7.42}]",10721.900000095367,1669830490784,lox,burger,8.040000000000001,7.42,-0.620000000000001,burger,1287.0,1286,1287.2000000476837,True,i,12514.0,1792.0999999046326,1669830492575,1791,HRV,HRV_0083,2022-11-30 17:54:13
6,"[{'imgObject': {}, 'id': 'eggs', 'src': '/static/foodstim60/eggs.jpg', 'key': 'u', 'origWidth': 409, 'origHeight': 409, 'width': 409, 'height': 409, 'widthPercent': 0.45, 'rescaleHeight': False, 'trialN': 6, 'loaded': True, 'loadedTime': 2416.100000143051, 'positionName': 'LEFT', 'positionCoords': [512.6, 335.5], 'bid': 8.58}, {'imgObject': {}, 'id': 'steak', 'src': '/static/foodstim60/steak.jpg', 'key': 'i', 'origWidth': 410, 'origHeight': 410, 'width': 410, 'height': 410, 'widthPercent': 0.45, 'rescaleHeight': False, 'trialN': 6, 'loaded': True, 'loadedTime': 2420, 'positionName': 'RIGHT', 'positionCoords': [998.4, 335], 'bid': 9.33}]",12514.200000047684,1669830492575,eggs,steak,8.58,9.33,0.75,steak,1266.7000000476837,1267,1266.9000000953674,True,i,14300.700000047684,1786.5,1669830494362,1787,HRV,HRV_0083,2022-11-30 17:54:13
7,"[{'imgObject': {}, 'id': 'bagel and cc', 'src': '/static/foodstim60/bagel and cc.jpg', 'key': 'u', 'origWidth': 410, 'origHeight': 410, 'width': 410, 'height': 410, 'widthPercent': 0.45, 'rescaleHeight': False, 'trialN': 7, 'loaded': True, 'loadedTime': 2436.5, 'positionName': 'LEFT', 'positionCoords': [511.6, 335], 'bid': 8.5}, {'imgObject': {}, 'id': 'cantaloupe', 'src': '/static/foodstim60/cantaloupe.jpg', 'key': 'i', 'origWidth': 409, 'origHeight': 409, 'width': 409, 'height': 409, 'widthPercent': 0.45, 'rescaleHeight': False, 'trialN': 7, 'loaded': True, 'loadedTime': 2442, 'positionName': 'RIGHT', 'positionCoords': [998.4, 335.5], 'bid': 8.53}]",14300.800000190735,1669830494362,bagel and cc,cantaloupe,8.5,8.53,0.02999999999999936,bagel and cc,1113.0999999046326,1113,1113.2999999523163,True,u,15927.0,1626.1999998092651,1669830495988,1626,HRV,HRV_0083,2022-11-30 17:54:13
8,"[{'imgObject': {}, 'id': 'olives', 'src': '/static/foodstim60/olives.jpg', 'key': 'u', 'origWidth': 410, 'origHeight': 410, 'width': 410, 'height': 410, 'widthPercent': 0.45, 'rescaleHeight': False, 'trialN': 8, 'loaded': True, 'loadedTime': 2444.800000190735, 'positionName': 'LEFT', 'positionCoords': [511.6, 335], 'bid': 6.11}, {'imgObject': {}, 'id': 'fried eggs', 'src': '/static/foodstim60/fried eggs.jpg', 'key': 'i', 'origWidth': 410, 'origHeight': 410, 'width': 410, 'height': 410, 'widthPercent': 0.45, 'rescaleHeight': False, 'trialN': 8, 'loaded': True, 'loadedTime': 2446.5, 'positionName': 'RIGHT', 'positionCoords': [998.4, 335], 'bid': 5.93}]",15927.200000047684,1669830495988,olives,fried eggs,6.11,5.93,-0.1800000000000006,olives,1166.7000000476837,1167,1166.9000000953674,True,u,17600.900000095367,1673.7000000476837,1669830497662,1674,HRV,HRV_0083,2022-11-30 17:54:13
9,"[{'imgObject': {}, 'id': 'chickenfingers', 'src': '/static/foodstim60/chickenfingers.jpg', 'key': 'u', 'origWidth': 410, 'origHeight': 410, 'width': 410, 'height': 410, 'widthPercent': 0.45, 'rescaleHeight': False, 'trialN': 9, 'loaded': True, 'loadedTime': 2453.300000190735, 'positionName': 'LEFT', 'positionCoords': [511.6, 335], 'bid': 8.66}, {'imgObject': {}, 'id': 'Grapes', 'src': '/static/foodstim60/Grapes.jpg', 'key': 'i', 'origWidth': 411, 'origHeight': 411, 'width': 411, 'height': 411, 'widthPercent': 0.45, 'rescaleHeight': False, 'trialN': 9, 'loaded': True, 'loadedTime': 2462.7000000476837, 'positionName': 'RIGHT', 'positionCoords': [998.4, 334.5], 'bid': 8.47}]",17601.0,1669830497662,chickenfingers,Grapes,8.66,8.47,-0.1899999999999995,chickenfingers,1213.0,1213,1213.1000001430511,True,u,19329.700000047684,1728.7000000476837,1669830499391,1729,HRV,HRV_0083,2022-11-30 17:54:13
10,"[{'imgObject': {}, 'id': 'cantaloupe', 'src': '/static/foodstim60/cantaloupe.jpg', 'key': 'u', 'origWidth': 409, 'origHeight': 409, 'width': 409, 'height': 409, 'widthPercent': 0.45, 'rescaleHeight': False, 'trialN': 10, 'loaded': True, 'loadedTime': 2439.2000000476837, 'positionName': 'LEFT', 'positionCoords': [512.6, 335.5], 'bid': 8.53}, {'imgObject': {}, 'id': 'cherries', 'src': '/static/foodstim60/cherries.jpg', 'key': 'i', 'origWidth': 410, 'origHeight': 411, 'width': 410, 'height': 411, 'widthPercent': 0.45, 'rescaleHeight': False, 'trialN': 10, 'loaded': True, 'loadedTime': 2468, 'positionName': 'RIGHT', 'positionCoords': [998.4, 334.5], 'bid': 8.5}]",19329.900000095367,1669830499391,cantaloupe,cherries,8.53,8.5,-0.02999999999999936,cherries,1493.2000000476837,1493,1493.4000000953674,True,i,21332.300000190735,2002.4000000953674,1669830501394,2003,HRV,HRV_0083,2022-11-30 17:54:13
11,"[{'imgObject': {}, 'id': 'chicken nuggets2', 'src': '/static/foodstim60/chicken nuggets2.jpg', 'key': 'u', 'origWidth': 410, 'origHeight': 409, 'width': 410, 'height': 409, 'widthPercent': 0.45, 'rescaleHeight': False, 'trialN': 11, 'loaded': True, 'loadedTime': 2470.800000190735, 'positionName': 'LEFT', 'positionCoords': [511.6, 335.5], 'bid': 9.45}, {'imgObject': {}, 'id': 'salmon', 'src': '/static/foodstim60/salmon.jpg', 'key': 'i', 'origWidth': 410, 'origHeight': 409, 'width': 410, 'height': 409, 'widthPercent': 0.45, 'rescaleHeight': False, 'trialN': 11, 'loaded': True, 'loadedTime': 2472.4000000953674, 'positionName': 'RIGHT', 'positionCoords': [998.4, 335.5], 'bid': 9.56}]",21332.400000095367,1669830501394,chicken nuggets2,salmon,9.45,9.56,0.11000000000000121,salmon,1395.5,1395,1395.5999999046326,True,i,23240.300000190735,1907.9000000953674,1669830503302,1908,HRV,HRV_0083,2022-11-30 17:54:13
12,"[{'imgObject': {}, 'id': 'seaweed', 'src': '/static/foodstim60/seaweed.jpg', 'key': 'u', 'origWidth': 410, 'origHeight': 410, 'width': 410, 'height': 410, 'widthPercent': 0.45, 'rescaleHeight': False, 'trialN': 12, 'loaded': True, 'loadedTime': 2294.2000000476837, 'positionName': 'LEFT', 'positionCoords': [511.6, 335], 'bid': 6.5600000000000005}, {'imgObject': {}, 'id': 'omelette', 'src': '/static/foodstim60/omelette.jpg', 'key': 'i', 'origWidth': 410, 'origHeight': 409, 'width': 410, 'height': 409, 'widthPercent': 0.45, 'rescaleHeight': False, 'trialN': 12, 'loaded': True, 'loadedTime': 2484.100000143051, 'positionName': 'RIGHT', 'positionCoords': [998.4, 335.5], 'bid': 3.03}]",23240.5,1669830503302,seaweed,omelette,6.5600000000000005,3.03,-3.5300000000000007,seaweed,1635.4000000953674,1635,1635.6000001430511,True,u,25397.700000047684,2157.2000000476837,1669830505459,2157,HRV,HRV_0083,2022-11-30 17:54:13
13,"[{'imgObject': {}, 'id': 'lox', 'src': '/static/foodstim60/lox.jpg', 'key': 'u', 'origWidth': 410, 'origHeight': 411, 'width': 410, 'height': 411, 'widthPercent': 0.45, 'rescaleHeight': False, 'trialN': 13, 'loaded': True, 'loadedTime': 2386.300000190735, 'positionName': 'LEFT', 'positionCoords': [511.6, 334.5], 'bid': 8.040000000000001}, {'imgObject': {}, 'id': 'salad w chicken', 'src': '/static/foodstim60/salad w chicken.jpg', 'key': 'i', 'origWidth': 411, 'origHeight': 411, 'width': 411, 'height': 411, 'widthPercent': 0.45, 'rescaleHeight': False, 'trialN': 13, 'loaded': True, 'loadedTime': 2485, 'positionName': 'RIGHT', 'positionCoords': [998.4, 334.5], 'bid': 9.01}]",25397.800000190735,1669830505459,lox,salad w chicken,8.040000000000001,9.01,0.9699999999999989,salad w chicken,1844.0999999046326,1844,1844.2999999523163,True,i,27745.10000014305,2347.2999999523163,1669830507806,2347,HRV,HRV_0083,2022-11-30 17:54:13
14,"[{'imgObject': {}, 'id': 'eggsalad', 'src': '/static/foodstim60/eggsalad.jpg', 'key': 'u', 'origWidth': 410, 'origHeight': 409, 'width': 410, 'height': 409, 'widthPercent': 0.45, 'rescaleHeight': False, 'trialN': 14, 'loaded': True, 'loadedTime': 2490.300000190735, 'positionName': 'LEFT', 'positionCoords': [511.6, 335.5], 'bid': 4.83}, {'imgObject': {}, 'id': 'mashed potato', 'src': '/static/foodstim60/mashed potato.jpg', 'key': 'i', 'origWidth': 409, 'origHeight': 409, 'width': 409, 'height': 409, 'widthPercent': 0.45, 'rescaleHeight': False, 'trialN': 14, 'loaded': True, 'loadedTime': 2500.4000000953674, 'positionName': 'RIGHT', 'positionCoords': [998.4, 335.5], 'bid': 4.91}]",27745.200000047684,1669830507806,eggsalad,mashed potato,4.83,4.91,0.08000000000000007,mashed potato,1626.7000000476837,1627,1626.9000000953674,True,i,29879.800000190735,2134.600000143051,1669830509941,2135,HRV,HRV_0083,2022-11-30 17:54:13
15,"[{'imgObject': {}, 'id': 'sweetpotato', 'src': '/static/foodstim60/sweetpotato.jpg', 'key': 'u', 'origWidth': 410, 'origHeight': 410, 'width': 410, 'height': 410, 'widthPercent': 0.45, 'rescaleHeight': False, 'trialN': 15, 'loaded': True, 'loadedTime': 2504.800000190735, 'positionName': 'LEFT', 'positionCoords': [511.6, 335], 'bid': 6.5}, {'imgObject': {}, 'id': 'turkeysandwich', 'src': '/static/foodstim60/turkeysandwich.jpg', 'key': 'i', 'origWidth': 409, 'origHeight': 409, 'width': 409, 'height': 409, 'widthPercent': 0.45, 'rescaleHeight': False, 'trialN': 15, 'loaded': True, 'loadedTime': 2506.7000000476837, 'positionName': 'RIGHT', 'positionCoords': [998.4, 335.5], 'bid': 8.89}]",29879.900000095367,1669830509941,sweetpotato,turkeysandwich,6.5,8.89,2.3900000000000006,sweetpotato,1507.0999999046326,1507,1507.2999999523163,True,u,31895.60000014305,2015.7000000476837,1669830511957,2016,HRV,HRV_0083,2022-11-30 17:54:13
16,"[{'imgObject': {}, 'id': 'apple slices', 'src': '/static/foodstim60/apple slices.jpg', 'key': 'u', 'origWidth': 409, 'origHeight': 410, 'width': 409, 'height': 410, 'widthPercent': 0.45, 'rescaleHeight': False, 'trialN': 16, 'loaded': True, 'loadedTime': 2509, 'positionName': 'LEFT', 'positionCoords': [512.6, 335], 'bid': 7.81}, {'imgObject': {}, 'id': 'banana', 'src': '/static/foodstim60/banana.jpg', 'key': 'i', 'origWidth': 410, 'origHeight': 410, 'width': 410, 'height': 410, 'widthPercent': 0.45, 'rescaleHeight': False, 'trialN': 16, 'loaded': True, 'loadedTime': 2516.9000000953674, 'positionName': 'RIGHT', 'positionCoords': [998.4, 335], 'bid': 6.61}]",31895.800000190735,1669830511957,apple slices,banana,7.81,6.61,-1.1999999999999993,apple slices,1973.0999999046326,1973,1973.2999999523163,True,u,34389.0,2493.199999809265,1669830514450,2493,HRV,HRV_0083,2022-11-30 17:54:13
17,"[{'imgObject': {}, 'id': 'raisin bran w milk', 'src': '/static/foodstim60/raisin bran w milk.jpg', 'key': 'u', 'origWidth': 411, 'origHeight': 411, 'width': 411, 'height': 411, 'widthPercent': 0.45, 'rescaleHeight': False, 'trialN': 17, 'loaded': True, 'loadedTime': 2523.9000000953674, 'positionName': 'LEFT', 'positionCoords': [510.6, 334.5], 'bid': 7.54}, {'imgObject': {}, 'id': 'sushi w_condiments', 'src': '/static/foodstim60/sushi w_condiments.jpg', 'key': 'i', 'origWidth': 410, 'origHeight': 410, 'width': 410, 'height': 410, 'widthPercent': 0.45, 'rescaleHeight': False, 'trialN': 17, 'loaded': True, 'loadedTime': 2533.4000000953674, 'positionName': 'RIGHT', 'positionCoords': [998.4, 335], 'bid': 7.52}]",34389.10000014305,1669830514450,raisin bran w milk,sushi w_condiments,7.54,7.52,-0.020000000000000462,sushi w_condiments,1972.7999999523163,1973,1973.0,True,i,36873.700000047684,2484.5999999046326,1669830516935,2485,HRV,HRV_0083,2022-11-30 17:54:13
18,"[{'imgObject': {}, 'id': 'burrito', 'src': '/static/foodstim60/burrito.jpg', 'key': 'u', 'origWidth': 410, 'origHeight': 410, 'width': 410, 'height': 410, 'widthPercent': 0.45, 'rescaleHeight': False, 'trialN': 18, 'loaded': True, 'loadedTime': 2368.5, 'positionName': 'LEFT', 'positionCoords': [511.6, 335], 'bid': 3.18}, {'imgObject': {}, 'id': 'popsicles', 'src': '/static/foodstim60/popsicles.jpg', 'key': 'i', 'origWidth': 410, 'origHeight': 410, 'width': 410, 'height': 410, 'widthPercent': 0.45, 'rescaleHeight': False, 'trialN': 18, 'loaded': True, 'loadedTime': 2540.800000190735, 'positionName': 'RIGHT', 'positionCoords': [998.4, 335], 'bid': 1.81}]",36874.0,1669830516935,burrito,popsicles,3.18,1.81,-1.37,popsicles,1271.8000001907349,1272,1272.1000001430511,True,i,38656.800000190735,1782.8000001907349,1669830518718,1783,HRV,HRV_0083,2022-11-30 17:54:13
19,"[{'imgObject': {}, 'id': 'burrito', 'src': '/static/foodstim60/burrito.jpg', 'key': 'u', 'origWidth': 410, 'origHeight': 410, 'width': 410, 'height': 410, 'widthPercent': 0.45, 'rescaleHeight': False, 'trialN': 19, 'loaded': True, 'loadedTime': 2370.2000000476837, 'positionName': 'LEFT', 'positionCoords': [511.6, 335], 'bid': 3.18}, {'imgObject': {}, 'id': 'fried eggs', 'src': '/static/foodstim60/fried eggs.jpg', 'key': 'i', 'origWidth': 410, 'origHeight': 410, 'width': 410, 'height': 410, 'widthPercent': 0.45, 'rescaleHeight': False, 'trialN': 19, 'loaded': True, 'loadedTime': 2446.5, 'positionName': 'RIGHT', 'positionCoords': [998.4, 335], 'bid': 5.93}]",38656.90000009537,1669830518718,burrito,fried eggs,3.18,5.93,2.7499999999999996,fried eggs,1774.0999999046326,1774,1774.2000000476837,True,i,40939.90000009537,2283.0,1669830521001,2283,HRV,HRV_0083,2022-11-30 17:54:13
20,"[{'imgObject': {}, 'id': 'chickenfingers', 'src': '/static/foodstim60/chickenfingers.jpg', 'key': 'u', 'origWidth': 410, 'origHeight': 410, 'width': 410, 'height': 410, 'widthPercent': 0.45, 'rescaleHeight': False, 'trialN': 20, 'loaded': True, 'loadedTime': 2454.300000190735, 'positionName': 'LEFT', 'positionCoords': [511.6, 335], 'bid': 8.66}, {'imgObject': {}, 'id': 'eggs', 'src': '/static/foodstim60/eggs.jpg', 'key': 'i', 'origWidth': 409, 'origHeight': 409, 'width': 409, 'height': 409, 'widthPercent': 0.45, 'rescaleHeight': False, 'trialN': 20, 'loaded': True, 'loadedTime': 2416.800000190735, 'positionName': 'RIGHT', 'positionCoords': [998.4, 335.5], 'bid': 8.58}]",40940.10000014305,1669830521001,chickenfingers,eggs,8.66,8.58,-0.08000000000000007,eggs,2030.0,2031,2030.2999999523163,True,i,43484.800000190735,2544.7000000476837,1669830523546,2545,HRV,HRV_0083,2022-11-30 17:54:13
21,"[{'imgObject': {}, 'id': 'Grapes', 'src': '/static/foodstim60/Grapes.jpg', 'key': 'u', 'origWidth': 411, 'origHeight': 411, 'width': 411, 'height': 411, 'widthPercent': 0.45, 'rescaleHeight': False, 'trialN': 21, 'loaded': True, 'loadedTime': 2462.7000000476837, 'positionName': 'LEFT', 'positionCoords': [510.6, 334.5], 'bid': 8.47}, {'imgObject': {}, 'id': 'cherries', 'src': '/static/foodstim60/cherries.jpg', 'key': 'i', 'origWidth': 410, 'origHeight': 411, 'width': 410, 'height': 411, 'widthPercent': 0.45, 'rescaleHeight': False, 'trialN': 21, 'loaded': True, 'loadedTime': 2464.9000000953674, 'positionName': 'RIGHT', 'positionCoords': [998.4, 334.5], 'bid': 8.5}]",43484.90000009537,1669830523546,Grapes,cherries,8.47,8.5,0.02999999999999936,Grapes,1546.0,1546,1546.2000000476837,True,u,45541.10000014305,2056.2000000476837,1669830525602,2056,HRV,HRV_0083,2022-11-30 17:54:13
22,"[{'imgObject': {}, 'id': 'salmon', 'src': '/static/foodstim60/salmon.jpg', 'key': 'u', 'origWidth': 410, 'origHeight': 409, 'width': 410, 'height': 409, 'widthPercent': 0.45, 'rescaleHeight': False, 'trialN': 22, 'loaded': True, 'loadedTime': 2480.800000190735, 'positionName': 'LEFT', 'positionCoords': [511.6, 335.5], 'bid': 9.56}, {'imgObject': {}, 'id': 'blueberries', 'src': '/static/foodstim60/blueberries.jpg', 'key': 'i', 'origWidth': 411, 'origHeight': 411, 'width': 411, 'height': 411, 'widthPercent': 0.45, 'rescaleHeight': False, 'trialN': 22, 'loaded': True, 'loadedTime': 2542.5, 'positionName': 'RIGHT', 'positionCoords': [998.4, 334.5], 'bid': 8.67}]",45541.10000014305,1669830525602,salmon,blueberries,9.56,8.67,-0.8900000000000006,salmon,1145.7999999523163,1146,1146.0,True,u,47195.0,1653.8999998569489,1669830527256,1654,HRV,HRV_0083,2022-11-30 17:54:13
23,"[{'imgObject': {}, 'id': 'Tribe humus pita', 'src': '/static/foodstim60/Tribe humus pita.jpg', 'key': 'u', 'origWidth': 411, 'origHeight': 411, 'width': 411, 'height': 411, 'widthPercent': 0.45, 'rescaleHeight': False, 'trialN': 23, 'loaded': True, 'loadedTime': 2551.600000143051, 'positionName': 'LEFT', 'positionCoords': [510.6, 334.5], 'bid': 5.03}, {'imgObject': {}, 'id': 'avocado', 'src': '/static/foodstim60/avocado.jpg', 'key': 'i', 'origWidth': 409, 'origHeight': 409, 'width': 409, 'height': 409, 'widthPercent': 0.45, 'rescaleHeight': False, 'trialN': 23, 'loaded': True, 'loadedTime': 2560.4000000953674, 'positionName': 'RIGHT', 'positionCoords': [998.4, 335.5], 'bid': 1.39}]",47195.10000014305,1669830527256,Tribe humus pita,avocado,5.03,1.39,-3.6400000000000006,Tribe humus pita,2135.7999999523163,2136,2135.899999856949,True,u,49849.800000190735,2654.7000000476837,1669830529911,2655,HRV,HRV_0083,2022-11-30 17:54:13
24,"[{'imgObject': {}, 'id': 'ice cream sundae 002', 'src': '/static/foodstim60/ice cream sundae 002.jpg', 'key': 'u', 'origWidth': 409, 'origHeight': 409, 'width': 409, 'height': 409, 'widthPercent': 0.45, 'rescaleHeight': False, 'trialN': 24, 'loaded': True, 'loadedTime': 2326.7000000476837, 'positionName': 'LEFT', 'positionCoords': [512.6, 335.5], 'bid': 7.78}, {'imgObject': {}, 'id': 'apple slices', 'src': '/static/foodstim60/apple slices.jpg', 'key': 'i', 'origWidth': 409, 'origHeight': 410, 'width': 409, 'height': 410, 'widthPercent': 0.45, 'rescaleHeight': False, 'trialN': 24, 'loaded': True, 'loadedTime': 2508.9000000953674, 'positionName': 'RIGHT', 'positionCoords': [998.4, 335], 'bid': 7.81}]",49849.90000009537,1669830529911,ice cream sundae 002,apple slices,7.78,7.81,0.02999999999999936,ice cream sundae 002,1212.0,1212,1212.2000000476837,True,u,51570.10000014305,1720.2000000476837,1669830531631,1720,HRV,HRV_0083,2022-11-30 17:54:13
25,"[{'imgObject': {}, 'id': 'banana', 'src': '/static/foodstim60/banana.jpg', 'key': 'u', 'origWidth': 410, 'origHeight': 410, 'width': 410, 'height': 410, 'widthPercent': 0.45, 'rescaleHeight': False, 'trialN': 25, 'loaded': True, 'loadedTime': 2516.7000000476837, 'positionName': 'LEFT', 'positionCoords': [511.6, 335], 'bid': 6.61}, {'imgObject': {}, 'id': 'edamame', 'src': '/static/foodstim60/edamame.jpg', 'key': 'i', 'origWidth': 409, 'origHeight': 410, 'width': 409, 'height': 410, 'widthPercent': 0.45, 'rescaleHeight': False, 'trialN': 25, 'loaded': True, 'loadedTime': 2360.9000000953674, 'positionName': 'RIGHT', 'positionCoords': [998.4, 335], 'bid': 5.0600000000000005}]",51570.200000047684,1669830531631,banana,edamame,6.61,5.0600000000000005,-1.5499999999999998,banana,917.7000000476837,918,917.9000000953674,True,u,53004.5,1434.2999999523163,1669830533066,1435,HRV,HRV_0083,2022-11-30 17:54:13
26,"[{'imgObject': {}, 'id': 'fruitsalad', 'src': '/static/foodstim60/fruitsalad.jpg', 'key': 'u', 'origWidth': 410, 'origHeight': 410, 'width': 410, 'height': 410, 'widthPercent': 0.45, 'rescaleHeight': False, 'trialN': 26, 'loaded': True, 'loadedTime': 2563.9000000953674, 'positionName': 'LEFT', 'positionCoords': [511.6, 335], 'bid': 9.89}, {'imgObject': {}, 'id': 'kiwi', 'src': '/static/foodstim60/kiwi.jpg', 'key': 'i', 'origWidth': 410, 'origHeight': 410, 'width': 410, 'height': 410, 'widthPercent': 0.45, 'rescaleHeight': False, 'trialN': 26, 'loaded': True, 'loadedTime': 2565.800000190735, 'positionName': 'RIGHT', 'positionCoords': [998.4, 335], 'bid': 9.12}]",53004.60000014305,1669830533066,fruitsalad,kiwi,9.89,9.12,-0.7700000000000014,fruitsalad,1243.5,1244,1243.7000000476837,True,u,54753.200000047684,1748.5999999046326,1669830534814,1748,HRV,HRV_0083,2022-11-30 17:54:13
27,"[{'imgObject': {}, 'id': 'chickenfingers', 'src': '/static/foodstim60/chickenfingers.jpg', 'key': 'u', 'origWidth': 410, 'origHeight': 410, 'width': 410, 'height': 410, 'widthPercent': 0.45, 'rescaleHeight': False, 'trialN': 27, 'loaded': True, 'loadedTime': 2452.100000143051, 'positionName': 'LEFT', 'positionCoords': [511.6, 335], 'bid': 8.66}, {'imgObject': {}, 'id': 'blueberries', 'src': '/static/foodstim60/blueberries.jpg', 'key': 'i', 'origWidth': 411, 'origHeight': 411, 'width': 411, 'height': 411, 'widthPercent': 0.45, 'rescaleHeight': False, 'trialN': 27, 'loaded': True, 'loadedTime': 2542.2000000476837, 'positionName': 'RIGHT', 'positionCoords': [998.4, 334.5], 'bid': 8.67}]",54753.300000190735,1669830534815,chickenfingers,blueberries,8.66,8.67,0.009999999999999787,blueberries,2057.5999999046326,2057,2057.7999999523163,True,i,57319.800000190735,2566.5,1669830537381,2566,HRV,HRV_0083,2022-11-30 17:54:13
28,"[{'imgObject': {}, 'id': 'pear', 'src': '/static/foodstim60/pear.jpg', 'key': 'u', 'origWidth': 411, 'origHeight': 410, 'width': 411, 'height': 410, 'widthPercent': 0.45, 'rescaleHeight': False, 'trialN': 28, 'loaded': True, 'loadedTime': 2568.5, 'positionName': 'LEFT', 'positionCoords': [510.6, 335], 'bid': 8.47}, {'imgObject': {}, 'id': 'strawberries', 'src': '/static/foodstim60/strawberries.jpg', 'key': 'i', 'origWidth': 410, 'origHeight': 410, 'width': 410, 'height': 410, 'widthPercent': 0.45, 'rescaleHeight': False, 'trialN': 28, 'loaded': True, 'loadedTime': 2340.2000000476837, 'positionName': 'RIGHT', 'positionCoords': [998.4, 335], 'bid': 8.620000000000001}]",57319.90000009537,1669830537381,pear,strawberries,8.47,8.620000000000001,0.15000000000000036,strawberries,1989.0,1989,1989.2000000476837,True,i,59826.800000190735,2506.9000000953674,1669830539888,2507,HRV,HRV_0083,2022-11-30 17:54:13
29,"[{'imgObject': {}, 'id': 'cocktailshrimp', 'src': '/static/foodstim60/cocktailshrimp.jpg', 'key': 'u', 'origWidth': 410, 'origHeight': 410, 'width': 410, 'height': 410, 'widthPercent': 0.45, 'rescaleHeight': False, 'trialN': 29, 'loaded': True, 'loadedTime': 2570.2000000476837, 'positionName': 'LEFT', 'positionCoords': [511.6, 335], 'bid': 9.84}, {'imgObject': {}, 'id': 'roastedpotatoes', 'src': '/static/foodstim60/roastedpotatoes.jpg', 'key': 'i', 'origWidth': 409, 'origHeight': 410, 'width': 409, 'height': 410, 'widthPercent': 0.45, 'rescaleHeight': False, 'trialN': 29, 'loaded': True, 'loadedTime': 2571.100000143051, 'positionName': 'RIGHT', 'positionCoords': [998.4, 335], 'bid': 8.89}]",59827.0,1669830539888,cocktailshrimp,roastedpotatoes,9.84,8.89,-0.9499999999999993,cocktailshrimp,1444.9000000953674,1445,1445.2000000476837,True,u,61782.90000009537,1955.9000000953674,1669830541844,1956,HRV,HRV_0083,2022-11-30 17:54:13
30,"[{'imgObject': {}, 'id': 'bagel plain', 'src': '/static/foodstim60/bagel plain.jpg', 'key': 'u', 'origWidth': 410, 'origHeight': 410, 'width': 410, 'height': 410, 'widthPercent': 0.45, 'rescaleHeight': False, 'trialN': 30, 'loaded': True, 'loadedTime': 2576.800000190735, 'positionName': 'LEFT', 'positionCoords': [511.6, 335], 'bid': 8.18}, {'imgObject': {}, 'id': 'blackbeanswithrice', 'src': '/static/foodstim60/blackbeanswithrice.jpg', 'key': 'i', 'origWidth': 410, 'origHeight': 410, 'width': 410, 'height': 410, 'widthPercent': 0.45, 'rescaleHeight': False, 'trialN': 30, 'loaded': True, 'loadedTime': 2578, 'positionName': 'RIGHT', 'positionCoords': [998.4, 335], 'bid': 3.42}]",61783.0,1669830541844,bagel plain,blackbeanswithrice,8.18,3.42,-4.76,bagel plain,1197.9000000953674,1198,1198.1000001430511,True,u,63491.700000047684,1708.7000000476837,1669830543553,1709,HRV,HRV_0083,2022-11-30 17:54:13
31,"[{'imgObject': {}, 'id': 'lox', 'src': '/static/foodstim60/lox.jpg', 'key': 'u', 'origWidth': 410, 'origHeight': 411, 'width': 410, 'height': 411, 'widthPercent': 0.45, 'rescaleHeight': False, 'trialN': 31, 'loaded': True, 'loadedTime': 2395.2000000476837, 'positionName': 'LEFT', 'positionCoords': [511.6, 334.5], 'bid': 8.040000000000001}, {'imgObject': {}, 'id': 'omelette', 'src': '/static/foodstim60/omelette.jpg', 'key': 'i', 'origWidth': 410, 'origHeight': 409, 'width': 410, 'height': 409, 'widthPercent': 0.45, 'rescaleHeight': False, 'trialN': 31, 'loaded': True, 'loadedTime': 2484, 'positionName': 'RIGHT', 'positionCoords': [998.4, 335.5], 'bid': 3.03}]",63491.90000009537,1669830543553,lox,omelette,8.040000000000001,3.03,-5.010000000000002,lox,1647.0999999046326,1647,1647.2999999523163,True,u,65652.90000009537,2161.0,1669830545714,2161,HRV,HRV_0083,2022-11-30 17:54:13
32,"[{'imgObject': {}, 'id': 'bagel and cc', 'src': '/static/foodstim60/bagel and cc.jpg', 'key': 'u', 'origWidth': 410, 'origHeight': 410, 'width': 410, 'height': 410, 'widthPercent': 0.45, 'rescaleHeight': False, 'trialN': 32, 'loaded': True, 'loadedTime': 2427, 'positionName': 'LEFT', 'positionCoords': [511.6, 335], 'bid': 8.5}, {'imgObject': {}, 'id': 'Grapes', 'src': '/static/foodstim60/Grapes.jpg', 'key': 'i', 'origWidth': 411, 'origHeight': 411, 'width': 411, 'height': 411, 'widthPercent': 0.45, 'rescaleHeight': False, 'trialN': 32, 'loaded': True, 'loadedTime': 2461.7000000476837, 'positionName': 'RIGHT', 'positionCoords': [998.4, 334.5], 'bid': 8.47}]",65653.0,1669830545714,bagel and cc,Grapes,8.5,8.47,-0.02999999999999936,Grapes,1822.9000000953674,1823,1823.0,True,i,67991.10000014305,2338.100000143051,1669830548052,2338,HRV,HRV_0083,2022-11-30 17:54:13
33,"[{'imgObject': {}, 'id': 'Grapes', 'src': '/static/foodstim60/Grapes.jpg', 'key': 'u', 'origWidth': 411, 'origHeight': 411, 'width': 411, 'height': 411, 'widthPercent': 0.45, 'rescaleHeight': False, 'trialN': 33, 'loaded': True, 'loadedTime': 2463.100000143051, 'positionName': 'LEFT', 'positionCoords': [510.6, 334.5], 'bid': 8.47}, {'imgObject': {}, 'id': 'yogurt no spoon', 'src': '/static/foodstim60/yogurt no spoon.jpg', 'key': 'i', 'origWidth': 411, 'origHeight': 410, 'width': 411, 'height': 410, 'widthPercent': 0.45, 'rescaleHeight': False, 'trialN': 33, 'loaded': True, 'loadedTime': 2578.9000000953674, 'positionName': 'RIGHT', 'positionCoords': [998.4, 335], 'bid': 9.42}]",67991.20000004768,1669830548052,Grapes,yogurt no spoon,8.47,9.42,0.9499999999999993,yogurt no spoon,1199.6000001430511,1200,1199.9000000953674,True,i,69700.20000004768,1709.0,1669830549761,1709,HRV,HRV_0083,2022-11-30 17:54:13
34,"[{'imgObject': {}, 'id': 'avocado', 'src': '/static/foodstim60/avocado.jpg', 'key': 'u', 'origWidth': 409, 'origHeight': 409, 'width': 409, 'height': 409, 'widthPercent': 0.45, 'rescaleHeight': False, 'trialN': 34, 'loaded': True, 'loadedTime': 2560.9000000953674, 'positionName': 'LEFT', 'positionCoords': [512.6, 335.5], 'bid': 1.39}, {'imgObject': {}, 'id': 'froot loops w milk', 'src': '/static/foodstim60/froot loops w milk.jpg', 'key': 'i', 'origWidth': 410, 'origHeight': 410, 'width': 410, 'height': 410, 'widthPercent': 0.45, 'rescaleHeight': False, 'trialN': 34, 'loaded': True, 'loadedTime': 2583.4000000953674, 'positionName': 'RIGHT', 'positionCoords': [998.4, 335], 'bid': 1.12}]",69700.30000019073,1669830549762,avocado,froot loops w milk,1.39,1.12,-0.2699999999999998,avocado,2041.5999999046326,2041,2041.7999999523163,True,u,72251.80000019073,2551.5,1669830552313,2551,HRV,HRV_0083,2022-11-30 17:54:13
35,"[{'imgObject': {}, 'id': 'ice cream sundae 002', 'src': '/static/foodstim60/ice cream sundae 002.jpg', 'key': 'u', 'origWidth': 409, 'origHeight': 409, 'width': 409, 'height': 409, 'widthPercent': 0.45, 'rescaleHeight': False, 'trialN': 35, 'loaded': True, 'loadedTime': 2318.600000143051, 'positionName': 'LEFT', 'positionCoords': [512.6, 335.5], 'bid': 7.78}, {'imgObject': {}, 'id': 'strawberries', 'src': '/static/foodstim60/strawberries.jpg', 'key': 'i', 'origWidth': 410, 'origHeight': 410, 'width': 410, 'height': 410, 'widthPercent': 0.45, 'rescaleHeight': False, 'trialN': 35, 'loaded': True, 'loadedTime': 2339.100000143051, 'positionName': 'RIGHT', 'positionCoords': [998.4, 335], 'bid': 8.620000000000001}]",72251.90000009537,1669830552314,ice cream sundae 002,strawberries,7.78,8.620000000000001,0.8400000000000007,strawberries,1509.9000000953674,1510,1510.2000000476837,True,i,74268.0,2016.0999999046326,1669830554330,2016,HRV,HRV_0083,2022-11-30 17:54:13
36,"[{'imgObject': {}, 'id': 'steak', 'src': '/static/foodstim60/steak.jpg', 'key': 'u', 'origWidth': 410, 'origHeight': 410, 'width': 410, 'height': 410, 'widthPercent': 0.45, 'rescaleHeight': False, 'trialN': 36, 'loaded': True, 'loadedTime': 2417.4000000953674, 'positionName': 'LEFT', 'positionCoords': [511.6, 335], 'bid': 9.33}, {'imgObject': {}, 'id': 'pear', 'src': '/static/foodstim60/pear.jpg', 'key': 'i', 'origWidth': 411, 'origHeight': 410, 'width': 411, 'height': 410, 'widthPercent': 0.45, 'rescaleHeight': False, 'trialN': 36, 'loaded': True, 'loadedTime': 2568.5, 'positionName': 'RIGHT', 'positionCoords': [998.4, 335], 'bid': 8.47}]",74268.10000014305,1669830554330,steak,pear,9.33,8.47,-0.8599999999999994,steak,1254.0,1254,1254.2000000476837,True,u,76029.30000019073,1761.2000000476837,1669830556091,1761,HRV,HRV_0083,2022-11-30 17:54:13
37,"[{'imgObject': {}, 'id': 'salad w chicken', 'src': '/static/foodstim60/salad w chicken.jpg', 'key': 'u', 'origWidth': 411, 'origHeight': 411, 'width': 411, 'height': 411, 'widthPercent': 0.45, 'rescaleHeight': False, 'trialN': 37, 'loaded': True, 'loadedTime': 2486.4000000953674, 'positionName': 'LEFT', 'positionCoords': [510.6, 334.5], 'bid': 9.01}, {'imgObject': {}, 'id': 'roastedpotatoes', 'src': '/static/foodstim60/roastedpotatoes.jpg', 'key': 'i', 'origWidth': 409, 'origHeight': 410, 'width': 409, 'height': 410, 'widthPercent': 0.45, 'rescaleHeight': False, 'trialN': 37, 'loaded': True, 'loadedTime': 2571.2000000476837, 'positionName': 'RIGHT', 'positionCoords': [998.4, 335], 'bid': 8.89}]",76029.40000009537,1669830556091,salad w chicken,roastedpotatoes,9.01,8.89,-0.11999999999999922,salad w chicken,1691.4000000953674,1692,1691.7000000476837,True,u,78232.5,2203.0999999046326,1669830558294,2203,HRV,HRV_0083,2022-11-30 17:54:13
38,"[{'imgObject': {}, 'id': 'veggieswithdip', 'src': '/static/foodstim60/veggieswithdip.jpg', 'key': 'u', 'origWidth': 409, 'origHeight': 409, 'width': 409, 'height': 409, 'widthPercent': 0.45, 'rescaleHeight': False, 'trialN': 38, 'loaded': True, 'loadedTime': 2583.600000143051, 'positionName': 'LEFT', 'positionCoords': [512.6, 335.5], 'bid': 5.0200000000000005}, {'imgObject': {}, 'id': 'bagel and cc', 'src': '/static/foodstim60/bagel and cc.jpg', 'key': 'i', 'origWidth': 410, 'origHeight': 410, 'width': 410, 'height': 410, 'widthPercent': 0.45, 'rescaleHeight': False, 'trialN': 38, 'loaded': True, 'loadedTime': 2427.2000000476837, 'positionName': 'RIGHT', 'positionCoords': [998.4, 335], 'bid': 8.5}]",78232.70000004768,1669830558294,veggieswithdip,bagel and cc,5.0200000000000005,8.5,3.4799999999999995,bagel and cc,1739.2000000476837,1740,1739.4000000953674,True,i,80489.80000019073,2257.100000143051,1669830560551,2257,HRV,HRV_0083,2022-11-30 17:54:13
39,"[{'imgObject': {}, 'id': 'orange slices', 'src': '/static/foodstim60/orange slices.jpg', 'key': 'u', 'origWidth': 409, 'origHeight': 410, 'width': 409, 'height': 410, 'widthPercent': 0.45, 'rescaleHeight': False, 'trialN': 39, 'loaded': True, 'loadedTime': 2586.9000000953674, 'positionName': 'LEFT', 'positionCoords': [512.6, 335], 'bid': 6.5}, {'imgObject': {}, 'id': 'roastedpotatoes', 'src': '/static/foodstim60/roastedpotatoes.jpg', 'key': 'i', 'origWidth': 409, 'origHeight': 410, 'width': 409, 'height': 410, 'widthPercent': 0.45, 'rescaleHeight': False, 'trialN': 39, 'loaded': True, 'loadedTime': 2571.5, 'positionName': 'RIGHT', 'positionCoords': [998.4, 335], 'bid': 8.89}]",80490.0,1669830560552,orange slices,roastedpotatoes,6.5,8.89,2.3900000000000006,roastedpotatoes,1253.8000001907349,1254,1254.0,True,i,82259.60000014305,1769.6000001430511,1669830562321,1769,HRV,HRV_0083,2022-11-30 17:54:13
40,"[{'imgObject': {}, 'id': 'mango', 'src': '/static/foodstim60/mango.jpg', 'key': 'u', 'origWidth': 411, 'origHeight': 411, 'width': 411, 'height': 411, 'widthPercent': 0.45, 'rescaleHeight': False, 'trialN': 40, 'loaded': True, 'loadedTime': 2588, 'positionName': 'LEFT', 'positionCoords': [510.6, 334.5], 'bid': 4.91}, {'imgObject': {}, 'id': 'mashed potato', 'src': '/static/foodstim60/mashed potato.jpg', 'key': 'i', 'origWidth': 409, 'origHeight': 409, 'width': 409, 'height': 409, 'widthPercent': 0.45, 'rescaleHeight': False, 'trialN': 40, 'loaded': True, 'loadedTime': 2491.300000190735, 'positionName': 'RIGHT', 'positionCoords': [998.4, 335.5], 'bid': 4.91}]",82259.70000004768,1669830562321,mango,mashed potato,4.91,4.91,0.0,mango,1002.2999999523163,1003,1002.4000000953674,True,u,83768.70000004768,1509.0,1669830563830,1509,HRV,HRV_0083,2022-11-30 17:54:13
41,"[{'imgObject': {}, 'id': 'cherry tomato', 'src': '/static/foodstim60/cherry tomato.jpg', 'key': 'u', 'origWidth': 410, 'origHeight': 410, 'width': 410, 'height': 410, 'widthPercent': 0.45, 'rescaleHeight': False, 'trialN': 41, 'loaded': True, 'loadedTime': 2590.100000143051, 'positionName': 'LEFT', 'positionCoords': [511.6, 335], 'bid': 8.03}, {'imgObject': {}, 'id': 'popsicles', 'src': '/static/foodstim60/popsicles.jpg', 'key': 'i', 'origWidth': 410, 'origHeight': 410, 'width': 410, 'height': 410, 'widthPercent': 0.45, 'rescaleHeight': False, 'trialN': 41, 'loaded': True, 'loadedTime': 2533.9000000953674, 'positionName': 'RIGHT', 'positionCoords': [998.4, 335], 'bid': 1.81}]",83768.80000019073,1669830563830,cherry tomato,popsicles,8.03,1.81,-6.219999999999999,cherry tomato,844.0999999046326,845,844.2999999523163,True,u,85120.90000009537,1352.0999999046326,1669830565182,1352,HRV,HRV_0083,2022-11-30 17:54:13
42,"[{'imgObject': {}, 'id': 'shreddedwheatwithmilk', 'src': '/static/foodstim60/shreddedwheatwithmilk.jpg', 'key': 'u', 'origWidth': 410, 'origHeight': 410, 'width': 410, 'height': 410, 'widthPercent': 0.45, 'rescaleHeight': False, 'trialN': 42, 'loaded': True, 'loadedTime': 2590.2000000476837, 'positionName': 'LEFT', 'positionCoords': [511.6, 335], 'bid': 9.02}, {'imgObject': {}, 'id': 'raspberries', 'src': '/static/foodstim60/raspberries.jpg', 'key': 'i', 'origWidth': 411, 'origHeight': 411, 'width': 411, 'height': 411, 'widthPercent': 0.45, 'rescaleHeight': False, 'trialN': 42, 'loaded': True, 'loadedTime': 2363.5, 'positionName': 'RIGHT', 'positionCoords': [998.4, 334.5], 'bid': 8.16}]",85121.0,1669830565183,shreddedwheatwithmilk,raspberries,9.02,8.16,-0.8599999999999994,raspberries,1056.0,1056,1056.2000000476837,True,i,86689.80000019073,1568.8000001907349,1669830566751,1568,HRV,HRV_0083,2022-11-30 17:54:13
43,"[{'imgObject': {}, 'id': 'turkey sandwich', 'src': '/static/foodstim60/turkey sandwich.jpg', 'key': 'u', 'origWidth': 409, 'origHeight': 409, 'width': 409, 'height': 409, 'widthPercent': 0.45, 'rescaleHeight': False, 'trialN': 43, 'loaded': True, 'loadedTime': 2592.4000000953674, 'positionName': 'LEFT', 'positionCoords': [512.6, 335.5], 'bid': 7.67}, {'imgObject': {}, 'id': 'grilled chicken strips', 'src': '/static/foodstim60/grilled chicken strips.jpg', 'key': 'i', 'origWidth': 410, 'origHeight': 411, 'width': 410, 'height': 411, 'widthPercent': 0.45, 'rescaleHeight': False, 'trialN': 43, 'loaded': True, 'loadedTime': 2594.7000000476837, 'positionName': 'RIGHT', 'positionCoords': [998.4, 334.5], 'bid': 8.22}]",86689.90000009537,1669830566751,turkey sandwich,grilled chicken strips,7.67,8.22,0.5500000000000007,grilled chicken strips,1179.0,1180,1179.2000000476837,True,i,88385.80000019073,1695.9000000953674,1669830568447,1696,HRV,HRV_0083,2022-11-30 17:54:13
44,"[{'imgObject': {}, 'id': 'rigatoni', 'src': '/static/foodstim60/rigatoni.jpg', 'key': 'u', 'origWidth': 411, 'origHeight': 411, 'width': 411, 'height': 411, 'widthPercent': 0.45, 'rescaleHeight': False, 'trialN': 44, 'loaded': True, 'loadedTime': 2602.5, 'positionName': 'LEFT', 'positionCoords': [510.6, 334.5], 'bid': 8.02}, {'imgObject': {}, 'id': 'roastedpotatoes', 'src': '/static/foodstim60/roastedpotatoes.jpg', 'key': 'i', 'origWidth': 409, 'origHeight': 410, 'width': 409, 'height': 410, 'widthPercent': 0.45, 'rescaleHeight': False, 'trialN': 44, 'loaded': True, 'loadedTime': 2571.300000190735, 'positionName': 'RIGHT', 'positionCoords': [998.4, 335], 'bid': 8.89}]",88385.90000009537,1669830568447,rigatoni,roastedpotatoes,8.02,8.89,0.870000000000001,rigatoni,1855.0,1856,1855.2000000476837,True,u,90745.70000004768,2359.7999999523163,1669830570807,2360,HRV,HRV_0083,2022-11-30 17:54:13
45,"[{'imgObject': {}, 'id': 'omelette', 'src': '/static/foodstim60/omelette.jpg', 'key': 'u', 'origWidth': 410, 'origHeight': 409, 'width': 410, 'height': 409, 'widthPercent': 0.45, 'rescaleHeight': False, 'trialN': 45, 'loaded': True, 'loadedTime': 2484.100000143051, 'positionName': 'LEFT', 'positionCoords': [511.6, 335.5], 'bid': 3.03}, {'imgObject': {}, 'id': 'blackbeanswithrice', 'src': '/static/foodstim60/blackbeanswithrice.jpg', 'key': 'i', 'origWidth': 410, 'origHeight': 410, 'width': 410, 'height': 410, 'widthPercent': 0.45, 'rescaleHeight': False, 'trialN': 45, 'loaded': True, 'loadedTime': 2577.7000000476837, 'positionName': 'RIGHT', 'positionCoords': [998.4, 335], 'bid': 3.42}]",90745.80000019073,1669830570807,omelette,blackbeanswithrice,3.03,3.42,0.3900000000000001,omelette,1596.0999999046326,1597,1596.2999999523163,True,u,92850.20000004768,2104.399999856949,1669830572912,2105,HRV,HRV_0083,2022-11-30 17:54:13
46,"[{'imgObject': {}, 'id': 'tacos', 'src': '/static/foodstim60/tacos.jpg', 'key': 'u', 'origWidth': 411, 'origHeight': 411, 'width': 411, 'height': 411, 'widthPercent': 0.45, 'rescaleHeight': False, 'trialN': 46, 'loaded': True, 'loadedTime': 2602.600000143051, 'positionName': 'LEFT', 'positionCoords': [510.6, 334.5], 'bid': 7.11}, {'imgObject': {}, 'id': 'sushi w_condiments', 'src': '/static/foodstim60/sushi w_condiments.jpg', 'key': 'i', 'origWidth': 410, 'origHeight': 410, 'width': 410, 'height': 410, 'widthPercent': 0.45, 'rescaleHeight': False, 'trialN': 46, 'loaded': True, 'loadedTime': 2533.5, 'positionName': 'RIGHT', 'positionCoords': [998.4, 335], 'bid': 7.52}]",92850.30000019073,1669830572912,tacos,sushi w_condiments,7.11,7.52,0.40999999999999925,sushi w_condiments,2048.5,2049,2048.699999809265,True,i,95406.60000014305,2556.2999999523163,1669830575468,2556,HRV,HRV_0083,2022-11-30 17:54:13
47,"[{'imgObject': {}, 'id': 'turkey sandwich', 'src': '/static/foodstim60/turkey sandwich.jpg', 'key': 'u', 'origWidth': 409, 'origHeight': 409, 'width': 409, 'height': 409, 'widthPercent': 0.45, 'rescaleHeight': False, 'trialN': 47, 'loaded': True, 'loadedTime': 2593.600000143051, 'positionName': 'LEFT', 'positionCoords': [512.6, 335.5], 'bid': 7.67}, {'imgObject': {}, 'id': 'Tribe humus pita', 'src': '/static/foodstim60/Tribe humus pita.jpg', 'key': 'i', 'origWidth': 411, 'origHeight': 411, 'width': 411, 'height': 411, 'widthPercent': 0.45, 'rescaleHeight': False, 'trialN': 47, 'loaded': True, 'loadedTime': 2551.9000000953674, 'positionName': 'RIGHT', 'positionCoords': [998.4, 334.5], 'bid': 5.03}]",95406.70000004768,1669830575468,turkey sandwich,Tribe humus pita,7.67,5.03,-2.6399999999999997,turkey sandwich,1218.2999999523163,1219,1218.6000001430511,True,u,97141.20000004768,1734.5,1669830577203,1735,HRV,HRV_0083,2022-11-30 17:54:13
48,"[{'imgObject': {}, 'id': 'cocktailshrimp', 'src': '/static/foodstim60/cocktailshrimp.jpg', 'key': 'u', 'origWidth': 410, 'origHeight': 410, 'width': 410, 'height': 410, 'widthPercent': 0.45, 'rescaleHeight': False, 'trialN': 48, 'loaded': True, 'loadedTime': 2570.100000143051, 'positionName': 'LEFT', 'positionCoords': [511.6, 335], 'bid': 9.84}, {'imgObject': {}, 'id': 'cantaloupe', 'src': '/static/foodstim60/cantaloupe.jpg', 'key': 'i', 'origWidth': 409, 'origHeight': 409, 'width': 409, 'height': 409, 'widthPercent': 0.45, 'rescaleHeight': False, 'trialN': 48, 'loaded': True, 'loadedTime': 2439.9000000953674, 'positionName': 'RIGHT', 'positionCoords': [998.4, 335.5], 'bid': 8.53}]",97141.30000019073,1669830577203,cocktailshrimp,cantaloupe,9.84,8.53,-1.3100000000000005,cocktailshrimp,903.5999999046326,904,903.6999998092651,True,u,98559.90000009537,1418.5999999046326,1669830578622,1419,HRV,HRV_0083,2022-11-30 17:54:13
49,"[{'imgObject': {}, 'id': 'salad w chicken', 'src': '/static/foodstim60/salad w chicken.jpg', 'key': 'u', 'origWidth': 411, 'origHeight': 411, 'width': 411, 'height': 411, 'widthPercent': 0.45, 'rescaleHeight': False, 'trialN': 49, 'loaded': True, 'loadedTime': 2487.600000143051, 'positionName': 'LEFT', 'positionCoords': [510.6, 334.5], 'bid': 9.01}, {'imgObject': {}, 'id': 'chicken nuggets2', 'src': '/static/foodstim60/chicken nuggets2.jpg', 'key': 'i', 'origWidth': 410, 'origHeight': 409, 'width': 410, 'height': 409, 'widthPercent': 0.45, 'rescaleHeight': False, 'trialN': 49, 'loaded': True, 'loadedTime': 2471.2000000476837, 'positionName': 'RIGHT', 'positionCoords': [998.4, 335.5], 'bid': 9.45}]",98560.0,1669830578622,salad w chicken,chicken nuggets2,9.01,9.45,0.4399999999999995,salad w chicken,1025.9000000953674,1026,1026.1000001430511,True,u,100096.10000014305,1536.1000001430511,1669830580158,1536,HRV,HRV_0083,2022-11-30 17:54:13
50,"[{'imgObject': {}, 'id': 'bagel plain', 'src': '/static/foodstim60/bagel plain.jpg', 'key': 'u', 'origWidth': 410, 'origHeight': 410, 'width': 410, 'height': 410, 'widthPercent': 0.45, 'rescaleHeight': False, 'trialN': 50, 'loaded': True, 'loadedTime': 2576.7000000476837, 'positionName': 'LEFT', 'positionCoords': [511.6, 335], 'bid': 8.18}, {'imgObject': {}, 'id': 'pear', 'src': '/static/foodstim60/pear.jpg', 'key': 'i', 'origWidth': 411, 'origHeight': 410, 'width': 411, 'height': 410, 'widthPercent': 0.45, 'rescaleHeight': False, 'trialN': 50, 'loaded': True, 'loadedTime': 2568.800000190735, 'positionName': 'RIGHT', 'positionCoords': [998.4, 335], 'bid': 8.47}]",100096.30000019073,1669830580158,bagel plain,pear,8.18,8.47,0.2900000000000009,pear,983.5999999046326,984,983.7999999523163,True,i,101598.0,1501.6999998092651,1669830581660,1502,HRV,HRV_0083,2022-11-30 17:54:13
51,"[{'imgObject': {}, 'id': 'turkey sandwich', 'src': '/static/foodstim60/turkey sandwich.jpg', 'key': 'u', 'origWidth': 409, 'origHeight': 409, 'width': 409, 'height': 409, 'widthPercent': 0.45, 'rescaleHeight': False, 'trialN': 51, 'loaded': True, 'loadedTime': 2593, 'positionName': 'LEFT', 'positionCoords': [512.6, 335.5], 'bid': 7.67}, {'imgObject': {}, 'id': 'cheerios', 'src': '/static/foodstim60/cheerios.jpg', 'key': 'i', 'origWidth': 409, 'origHeight': 410, 'width': 409, 'height': 410, 'widthPercent': 0.45, 'rescaleHeight': False, 'trialN': 51, 'loaded': True, 'loadedTime': 2604.7000000476837, 'positionName': 'RIGHT', 'positionCoords': [998.4, 335], 'bid': 7.73}]",101598.10000014305,1669830581660,turkey sandwich,cheerios,7.67,7.73,0.0600000000000005,turkey sandwich,809.7999999523163,810,810.0,True,u,102914.5,1316.3999998569489,1669830582976,1316,HRV,HRV_0083,2022-11-30 17:54:13
52,"[{'imgObject': {}, 'id': 'blueberries', 'src': '/static/foodstim60/blueberries.jpg', 'key': 'u', 'origWidth': 411, 'origHeight': 411, 'width': 411, 'height': 411, 'widthPercent': 0.45, 'rescaleHeight': False, 'trialN': 52, 'loaded': True, 'loadedTime': 2541.300000190735, 'positionName': 'LEFT', 'positionCoords': [510.6, 334.5], 'bid': 8.67}, {'imgObject': {}, 'id': 'olives', 'src': '/static/foodstim60/olives.jpg', 'key': 'i', 'origWidth': 410, 'origHeight': 410, 'width': 410, 'height': 410, 'widthPercent': 0.45, 'rescaleHeight': False, 'trialN': 52, 'loaded': True, 'loadedTime': 2442.100000143051, 'positionName': 'RIGHT', 'positionCoords': [998.4, 335], 'bid': 6.11}]",102914.70000004768,1669830582976,blueberries,olives,8.67,6.11,-2.5599999999999996,blueberries,1155.2000000476837,1156,1155.4000000953674,True,u,104587.20000004768,1672.5,1669830584649,1673,HRV,HRV_0083,2022-11-30 17:54:13
53,"[{'imgObject': {}, 'id': 'raspberries', 'src': '/static/foodstim60/raspberries.jpg', 'key': 'u', 'origWidth': 411, 'origHeight': 411, 'width': 411, 'height': 411, 'widthPercent': 0.45, 'rescaleHeight': False, 'trialN': 53, 'loaded': True, 'loadedTime': 2364.4000000953674, 'positionName': 'LEFT', 'positionCoords': [510.6, 334.5], 'bid': 8.16}, {'imgObject': {}, 'id': 'bagel plain', 'src': '/static/foodstim60/bagel plain.jpg', 'key': 'i', 'origWidth': 410, 'origHeight': 410, 'width': 410, 'height': 410, 'widthPercent': 0.45, 'rescaleHeight': False, 'trialN': 53, 'loaded': True, 'loadedTime': 2577, 'positionName': 'RIGHT', 'positionCoords': [998.4, 335], 'bid': 8.18}]",104587.30000019073,1669830584649,raspberries,bagel plain,8.16,8.18,0.019999999999999574,raspberries,1041.5999999046326,1042,1041.7999999523163,True,u,106146.10000014305,1558.7999999523163,1669830586208,1559,HRV,HRV_0083,2022-11-30 17:54:13
54,"[{'imgObject': {}, 'id': 'seaweed', 'src': '/static/foodstim60/seaweed.jpg', 'key': 'u', 'origWidth': 410, 'origHeight': 410, 'width': 410, 'height': 410, 'widthPercent': 0.45, 'rescaleHeight': False, 'trialN': 54, 'loaded': True, 'loadedTime': 2303.5, 'positionName': 'LEFT', 'positionCoords': [511.6, 335], 'bid': 6.5600000000000005}, {'imgObject': {}, 'id': 'banana', 'src': '/static/foodstim60/banana.jpg', 'key': 'i', 'origWidth': 410, 'origHeight': 410, 'width': 410, 'height': 410, 'widthPercent': 0.45, 'rescaleHeight': False, 'trialN': 54, 'loaded': True, 'loadedTime': 2516.800000190735, 'positionName': 'RIGHT', 'positionCoords': [998.4, 335], 'bid': 6.61}]",106146.20000004768,1669830586208,seaweed,banana,6.5600000000000005,6.61,0.04999999999999982,banana,1300.9000000953674,1301,1301.1000001430511,True,i,107957.20000004768,1811.0,1669830588019,1811,HRV,HRV_0083,2022-11-30 17:54:13
55,"[{'imgObject': {}, 'id': 'apple slices', 'src': '/static/foodstim60/apple slices.jpg', 'key': 'u', 'origWidth': 409, 'origHeight': 410, 'width': 409, 'height': 410, 'widthPercent': 0.45, 'rescaleHeight': False, 'trialN': 55, 'loaded': True, 'loadedTime': 2507.800000190735, 'positionName': 'LEFT', 'positionCoords': [512.6, 335], 'bid': 7.81}, {'imgObject': {}, 'id': 'luckycharms', 'src': '/static/foodstim60/luckycharms.jpg', 'key': 'i', 'origWidth': 410, 'origHeight': 409, 'width': 410, 'height': 409, 'widthPercent': 0.45, 'rescaleHeight': False, 'trialN': 55, 'loaded': True, 'loadedTime': 2605.9000000953674, 'positionName': 'RIGHT', 'positionCoords': [998.4, 335.5], 'bid': 0.76}]",107957.40000009537,1669830588019,apple slices,luckycharms,7.81,0.76,-7.05,apple slices,903.4000000953674,904,903.5999999046326,True,u,109369.70000004768,1412.2999999523163,1669830589431,1412,HRV,HRV_0083,2022-11-30 17:54:13
56,"[{'imgObject': {}, 'id': 'luckycharms', 'src': '/static/foodstim60/luckycharms.jpg', 'key': 'u', 'origWidth': 410, 'origHeight': 409, 'width': 410, 'height': 409, 'widthPercent': 0.45, 'rescaleHeight': False, 'trialN': 56, 'loaded': True, 'loadedTime': 2606, 'positionName': 'LEFT', 'positionCoords': [511.6, 335.5], 'bid': 0.76}, {'imgObject': {}, 'id': 'fried eggs', 'src': '/static/foodstim60/fried eggs.jpg', 'key': 'i', 'origWidth': 410, 'origHeight': 410, 'width': 410, 'height': 410, 'widthPercent': 0.45, 'rescaleHeight': False, 'trialN': 56, 'loaded': True, 'loadedTime': 2445.9000000953674, 'positionName': 'RIGHT', 'positionCoords': [998.4, 335], 'bid': 5.93}]",109369.80000019073,1669830589431,luckycharms,fried eggs,0.76,5.93,5.17,fried eggs,1869.1999998092651,1870,1869.2999999523163,True,i,111750.70000004768,2380.899999856949,1669830591812,2381,HRV,HRV_0083,2022-11-30 17:54:13
57,"[{'imgObject': {}, 'id': 'banana', 'src': '/static/foodstim60/banana.jpg', 'key': 'u', 'origWidth': 410, 'origHeight': 410, 'width': 410, 'height': 410, 'widthPercent': 0.45, 'rescaleHeight': False, 'trialN': 57, 'loaded': True, 'loadedTime': 2516.800000190735, 'positionName': 'LEFT', 'positionCoords': [511.6, 335], 'bid': 6.61}, {'imgObject': {}, 'id': 'burrito', 'src': '/static/foodstim60/burrito.jpg', 'key': 'i', 'origWidth': 410, 'origHeight': 410, 'width': 410, 'height': 410, 'widthPercent': 0.45, 'rescaleHeight': False, 'trialN': 57, 'loaded': True, 'loadedTime': 2369.800000190735, 'positionName': 'RIGHT', 'positionCoords': [998.4, 335], 'bid': 3.18}]",111750.80000019073,1669830591812,banana,burrito,6.61,3.18,-3.43,banana,919.0999999046326,920,919.2999999523163,True,u,113179.0,1428.1999998092651,1669830593241,1429,HRV,HRV_0083,2022-11-30 17:54:13
58,"[{'imgObject': {}, 'id': 'steak', 'src': '/static/foodstim60/steak.jpg', 'key': 'u', 'origWidth': 410, 'origHeight': 410, 'width': 410, 'height': 410, 'widthPercent': 0.45, 'rescaleHeight': False, 'trialN': 58, 'loaded': True, 'loadedTime': 2420.100000143051, 'positionName': 'LEFT', 'positionCoords': [511.6, 335], 'bid': 9.33}, {'imgObject': {}, 'id': 'rigatoni and sauce', 'src': '/static/foodstim60/rigatoni and sauce.jpg', 'key': 'i', 'origWidth': 410, 'origHeight': 411, 'width': 410, 'height': 411, 'widthPercent': 0.45, 'rescaleHeight': False, 'trialN': 58, 'loaded': True, 'loadedTime': 2336.5, 'positionName': 'RIGHT', 'positionCoords': [998.4, 334.5], 'bid': 9.08}]",113179.10000014305,1669830593241,steak,rigatoni and sauce,9.33,9.08,-0.25,steak,1447.7999999523163,1448,1448.0,True,u,115147.0,1967.8999998569489,1669830595209,1968,HRV,HRV_0083,2022-11-30 17:54:13
59,"[{'imgObject': {}, 'id': 'popsicles', 'src': '/static/foodstim60/popsicles.jpg', 'key': 'u', 'origWidth': 410, 'origHeight': 410, 'width': 410, 'height': 410, 'widthPercent': 0.45, 'rescaleHeight': False, 'trialN': 59, 'loaded': True, 'loadedTime': 2541.300000190735, 'positionName': 'LEFT', 'positionCoords': [511.6, 335], 'bid': 1.81}, {'imgObject': {}, 'id': 'sweetpotato', 'src': '/static/foodstim60/sweetpotato.jpg', 'key': 'i', 'origWidth': 410, 'origHeight': 410, 'width': 410, 'height': 410, 'widthPercent': 0.45, 'rescaleHeight': False, 'trialN': 59, 'loaded': True, 'loadedTime': 2504, 'positionName': 'RIGHT', 'positionCoords': [998.4, 335], 'bid': 6.5}]",115147.20000004768,1669830595209,popsicles,sweetpotato,1.81,6.5,4.6899999999999995,sweetpotato,1009.7000000476837,1010,1009.7999999523163,True,i,116661.90000009537,1514.7000000476837,1669830596724,1515,HRV,HRV_0083,2022-11-30 17:54:13
60,"[{'imgObject': {}, 'id': 'Tribe humus pita', 'src': '/static/foodstim60/Tribe humus pita.jpg', 'key': 'u', 'origWidth': 411, 'origHeight': 411, 'width': 411, 'height': 411, 'widthPercent': 0.45, 'rescaleHeight': False, 'trialN': 60, 'loaded': True, 'loadedTime': 2551.4000000953674, 'positionName': 'LEFT', 'positionCoords': [510.6, 334.5], 'bid': 5.03}, {'imgObject': {}, 'id': 'sweetpotato', 'src': '/static/foodstim60/sweetpotato.jpg', 'key': 'i', 'origWidth': 410, 'origHeight': 410, 'width': 410, 'height': 410, 'widthPercent': 0.45, 'rescaleHeight': False, 'trialN': 60, 'loaded': True, 'loadedTime': 2505.300000190735, 'positionName': 'RIGHT', 'positionCoords': [998.4, 335], 'bid': 6.5}]",116662.0,1669830596724,Tribe humus pita,sweetpotato,5.03,6.5,1.4699999999999998,sweetpotato,1088.1000001430511,1088,1088.2000000476837,True,i,118256.0,1594.0,1669830598318,1594,HRV,HRV_0083,2022-11-30 17:54:13
61,"[{'imgObject': {}, 'id': 'cocktailshrimp', 'src': '/static/foodstim60/cocktailshrimp.jpg', 'key': 'u', 'origWidth': 410, 'origHeight': 410, 'width': 410, 'height': 410, 'widthPercent': 0.45, 'rescaleHeight': False, 'trialN': 61, 'loaded': True, 'loadedTime': 2570.4000000953674, 'positionName': 'LEFT', 'positionCoords': [511.6, 335], 'bid': 9.84}, {'imgObject': {}, 'id': 'rigatoni and sauce', 'src': '/static/foodstim60/rigatoni and sauce.jpg', 'key': 'i', 'origWidth': 410, 'origHeight': 411, 'width': 410, 'height': 411, 'widthPercent': 0.45, 'rescaleHeight': False, 'trialN': 61, 'loaded': True, 'loadedTime': 2334.800000190735, 'positionName': 'RIGHT', 'positionCoords': [998.4, 334.5], 'bid': 9.08}]",118256.20000004768,1669830598318,cocktailshrimp,rigatoni and sauce,9.84,9.08,-0.7599999999999998,cocktailshrimp,1218.7000000476837,1219,1218.9000000953674,True,u,119992.10000014305,1735.9000000953674,1669830600054,1736,HRV,HRV_0083,2022-11-30 17:54:13
62,"[{'imgObject': {}, 'id': 'ice cream sundae 002', 'src': '/static/foodstim60/ice cream sundae 002.jpg', 'key': 'u', 'origWidth': 409, 'origHeight': 409, 'width': 409, 'height': 409, 'widthPercent': 0.45, 'rescaleHeight': False, 'trialN': 62, 'loaded': True, 'loadedTime': 2326.4000000953674, 'positionName': 'LEFT', 'positionCoords': [512.6, 335.5], 'bid': 7.78}, {'imgObject': {}, 'id': 'turkey sandwich', 'src': '/static/foodstim60/turkey sandwich.jpg', 'key': 'i', 'origWidth': 409, 'origHeight': 409, 'width': 409, 'height': 409, 'widthPercent': 0.45, 'rescaleHeight': False, 'trialN': 62, 'loaded': True, 'loadedTime': 2592.300000190735, 'positionName': 'RIGHT', 'positionCoords': [998.4, 335.5], 'bid': 7.67}]",119992.40000009537,1669830600054,ice cream sundae 002,turkey sandwich,7.78,7.67,-0.11000000000000032,turkey sandwich,1462.5,1463,1462.7000000476837,True,i,121961.80000019073,1969.4000000953674,1669830602024,1970,HRV,HRV_0083,2022-11-30 17:54:13
63,"[{'imgObject': {}, 'id': 'Tribe humus pita', 'src': '/static/foodstim60/Tribe humus pita.jpg', 'key': 'u', 'origWidth': 411, 'origHeight': 411, 'width': 411, 'height': 411, 'widthPercent': 0.45, 'rescaleHeight': False, 'trialN': 63, 'loaded': True, 'loadedTime': 2552, 'positionName': 'LEFT', 'positionCoords': [510.6, 334.5], 'bid': 5.03}, {'imgObject': {}, 'id': 'cantaloupe', 'src': '/static/foodstim60/cantaloupe.jpg', 'key': 'i', 'origWidth': 409, 'origHeight': 409, 'width': 409, 'height': 409, 'widthPercent': 0.45, 'rescaleHeight': False, 'trialN': 63, 'loaded': True, 'loadedTime': 2438.2000000476837, 'positionName': 'RIGHT', 'positionCoords': [998.4, 335.5], 'bid': 8.53}]",121962.0,1669830602024,Tribe humus pita,cantaloupe,5.03,8.53,3.499999999999999,cantaloupe,2319.9000000953674,2320,2320.100000143051,True,i,124788.30000019073,2826.300000190735,1669830604850,2826,HRV,HRV_0083,2022-11-30 17:54:13
64,"[{'imgObject': {}, 'id': 'shreddedwheatwithmilk', 'src': '/static/foodstim60/shreddedwheatwithmilk.jpg', 'key': 'u', 'origWidth': 410, 'origHeight': 410, 'width': 410, 'height': 410, 'widthPercent': 0.45, 'rescaleHeight': False, 'trialN': 64, 'loaded': True, 'loadedTime': 2591.100000143051, 'positionName': 'LEFT', 'positionCoords': [511.6, 335], 'bid': 9.02}, {'imgObject': {}, 'id': 'salmon', 'src': '/static/foodstim60/salmon.jpg', 'key': 'i', 'origWidth': 410, 'origHeight': 409, 'width': 410, 'height': 409, 'widthPercent': 0.45, 'rescaleHeight': False, 'trialN': 64, 'loaded': True, 'loadedTime': 2472.2000000476837, 'positionName': 'RIGHT', 'positionCoords': [998.4, 335.5], 'bid': 9.56}]",124788.5,1669830604850,shreddedwheatwithmilk,salmon,9.02,9.56,0.5400000000000009,salmon,1097.4000000953674,1098,1097.5,True,i,126403.90000009537,1615.4000000953674,1669830606466,1616,HRV,HRV_0083,2022-11-30 17:54:13
65,"[{'imgObject': {}, 'id': 'hashbrowns', 'src': '/static/foodstim60/hashbrowns.jpg', 'key': 'u', 'origWidth': 411, 'origHeight': 410, 'width': 411, 'height': 410, 'widthPercent': 0.45, 'rescaleHeight': False, 'trialN': 65, 'loaded': True, 'loadedTime': 2281.4000000953674, 'positionName': 'LEFT', 'positionCoords': [510.6, 335], 'bid': 6.86}, {'imgObject': {}, 'id': 'blackbeanswithrice', 'src': '/static/foodstim60/blackbeanswithrice.jpg', 'key': 'i', 'origWidth': 410, 'origHeight': 410, 'width': 410, 'height': 410, 'widthPercent': 0.45, 'rescaleHeight': False, 'trialN': 65, 'loaded': True, 'loadedTime': 2577.800000190735, 'positionName': 'RIGHT', 'positionCoords': [998.4, 335], 'bid': 3.42}]",126404.20000004768,1669830606466,hashbrowns,blackbeanswithrice,6.86,3.42,-3.4400000000000004,hashbrowns,1086.7000000476837,1087,1086.9000000953674,True,u,128004.80000019073,1600.6000001430511,1669830608066,1600,HRV,HRV_0083,2022-11-30 17:54:13
66,"[{'imgObject': {}, 'id': 'chickenfingers', 'src': '/static/foodstim60/chickenfingers.jpg', 'key': 'u', 'origWidth': 410, 'origHeight': 410, 'width': 410, 'height': 410, 'widthPercent': 0.45, 'rescaleHeight': False, 'trialN': 66, 'loaded': True, 'loadedTime': 2454.300000190735, 'positionName': 'LEFT', 'positionCoords': [511.6, 335], 'bid': 8.66}, {'imgObject': {}, 'id': 'chicken nuggets2', 'src': '/static/foodstim60/chicken nuggets2.jpg', 'key': 'i', 'origWidth': 410, 'origHeight': 409, 'width': 410, 'height': 409, 'widthPercent': 0.45, 'rescaleHeight': False, 'trialN': 66, 'loaded': True, 'loadedTime': 2470.4000000953674, 'positionName': 'RIGHT', 'positionCoords': [998.4, 335.5], 'bid': 9.45}]",128004.90000009537,1669830608067,chickenfingers,chicken nuggets2,8.66,9.45,0.7899999999999991,chickenfingers,1217.2000000476837,1217,1217.2999999523163,True,u,129741.90000009537,1737.0,1669830609804,1737,HRV,HRV_0083,2022-11-30 17:54:13
67,"[{'imgObject': {}, 'id': 'avocado', 'src': '/static/foodstim60/avocado.jpg', 'key': 'u', 'origWidth': 409, 'origHeight': 409, 'width': 409, 'height': 409, 'widthPercent': 0.45, 'rescaleHeight': False, 'trialN': 67, 'loaded': True, 'loadedTime': 2552, 'positionName': 'LEFT', 'positionCoords': [512.6, 335.5], 'bid': 1.39}, {'imgObject': {}, 'id': 'rigatoni', 'src': '/static/foodstim60/rigatoni.jpg', 'key': 'i', 'origWidth': 411, 'origHeight': 411, 'width': 411, 'height': 411, 'widthPercent': 0.45, 'rescaleHeight': False, 'trialN': 67, 'loaded': True, 'loadedTime': 2602.5, 'positionName': 'RIGHT', 'positionCoords': [998.4, 334.5], 'bid': 8.02}]",129742.10000014305,1669830609804,avocado,rigatoni,1.39,8.02,6.63,rigatoni,1505.7999999523163,1506,1505.8999998569489,True,i,131760.40000009537,2018.2999999523163,1669830611822,2018,HRV,HRV_0083,2022-11-30 17:54:13
68,"[{'imgObject': {}, 'id': 'cherries', 'src': '/static/foodstim60/cherries.jpg', 'key': 'u', 'origWidth': 410, 'origHeight': 411, 'width': 410, 'height': 411, 'widthPercent': 0.45, 'rescaleHeight': False, 'trialN': 68, 'loaded': True, 'loadedTime': 2468.5, 'positionName': 'LEFT', 'positionCoords': [511.6, 334.5], 'bid': 8.5}, {'imgObject': {}, 'id': 'blueberries', 'src': '/static/foodstim60/blueberries.jpg', 'key': 'i', 'origWidth': 411, 'origHeight': 411, 'width': 411, 'height': 411, 'widthPercent': 0.45, 'rescaleHeight': False, 'trialN': 68, 'loaded': True, 'loadedTime': 2542.100000143051, 'positionName': 'RIGHT', 'positionCoords': [998.4, 334.5], 'bid': 8.67}]",131760.5,1669830611822,cherries,blueberries,8.5,8.67,0.16999999999999993,cherries,1351.4000000953674,1351,1351.6000001430511,True,u,133621.5,1861.0,1669830613682,1860,HRV,HRV_0083,2022-11-30 17:54:13
69,"[{'imgObject': {}, 'id': 'apple slices', 'src': '/static/foodstim60/apple slices.jpg', 'key': 'u', 'origWidth': 409, 'origHeight': 410, 'width': 409, 'height': 410, 'widthPercent': 0.45, 'rescaleHeight': False, 'trialN': 69, 'loaded': True, 'loadedTime': 2508.600000143051, 'positionName': 'LEFT', 'positionCoords': [512.6, 335], 'bid': 7.81}, {'imgObject': {}, 'id': 'cheerios', 'src': '/static/foodstim60/cheerios.jpg', 'key': 'i', 'origWidth': 409, 'origHeight': 410, 'width': 409, 'height': 410, 'widthPercent': 0.45, 'rescaleHeight': False, 'trialN': 69, 'loaded': True, 'loadedTime': 2604.5, 'positionName': 'RIGHT', 'positionCoords': [998.4, 335], 'bid': 7.73}]",133621.70000004768,1669830613682,apple slices,cheerios,7.81,7.73,-0.07999999999999918,apple slices,852.2000000476837,853,852.2999999523163,True,u,134979.20000004768,1357.5,1669830615040,1358,HRV,HRV_0083,2022-11-30 17:54:13
70,"[{'imgObject': {}, 'id': 'hashbrowns', 'src': '/static/foodstim60/hashbrowns.jpg', 'key': 'u', 'origWidth': 411, 'origHeight': 410, 'width': 411, 'height': 410, 'widthPercent': 0.45, 'rescaleHeight': False, 'trialN': 70, 'loaded': True, 'loadedTime': 2280.800000190735, 'positionName': 'LEFT', 'positionCoords': [510.6, 335], 'bid': 6.86}, {'imgObject': {}, 'id': 'seaweed', 'src': '/static/foodstim60/seaweed.jpg', 'key': 'i', 'origWidth': 410, 'origHeight': 410, 'width': 410, 'height': 410, 'widthPercent': 0.45, 'rescaleHeight': False, 'trialN': 70, 'loaded': True, 'loadedTime': 2305.4000000953674, 'positionName': 'RIGHT', 'positionCoords': [998.4, 335], 'bid': 6.5600000000000005}]",134979.30000019073,1669830615040,hashbrowns,seaweed,6.86,6.5600000000000005,-0.2999999999999998,seaweed,1238.5,1239,1238.7999999523163,True,i,136731.20000004768,1751.8999998569489,1669830616792,1752,HRV,HRV_0083,2022-11-30 17:54:13
71,"[{'imgObject': {}, 'id': 'cherry tomato', 'src': '/static/foodstim60/cherry tomato.jpg', 'key': 'u', 'origWidth': 410, 'origHeight': 410, 'width': 410, 'height': 410, 'widthPercent': 0.45, 'rescaleHeight': False, 'trialN': 71, 'loaded': True, 'loadedTime': 2589.2000000476837, 'positionName': 'LEFT', 'positionCoords': [511.6, 335], 'bid': 8.03}, {'imgObject': {}, 'id': 'turkeysandwich', 'src': '/static/foodstim60/turkeysandwich.jpg', 'key': 'i', 'origWidth': 409, 'origHeight': 409, 'width': 409, 'height': 409, 'widthPercent': 0.45, 'rescaleHeight': False, 'trialN': 71, 'loaded': True, 'loadedTime': 2507, 'positionName': 'RIGHT', 'positionCoords': [998.4, 335.5], 'bid': 8.89}]",136731.30000019073,1669830616792,cherry tomato,turkeysandwich,8.03,8.89,0.8600000000000012,cherry tomato,1003.5,1004,1003.6999998092651,True,u,138240.90000009537,1509.5999999046326,1669830618302,1510,HRV,HRV_0083,2022-11-30 17:54:13
72,"[{'imgObject': {}, 'id': 'raisin bran w milk', 'src': '/static/foodstim60/raisin bran w milk.jpg', 'key': 'u', 'origWidth': 411, 'origHeight': 411, 'width': 411, 'height': 411, 'widthPercent': 0.45, 'rescaleHeight': False, 'trialN': 72, 'loaded': True, 'loadedTime': 2524.2000000476837, 'positionName': 'LEFT', 'positionCoords': [510.6, 334.5], 'bid': 7.54}, {'imgObject': {}, 'id': 'veggieswithdip', 'src': '/static/foodstim60/veggieswithdip.jpg', 'key': 'i', 'origWidth': 409, 'origHeight': 409, 'width': 409, 'height': 409, 'widthPercent': 0.45, 'rescaleHeight': False, 'trialN': 72, 'loaded': True, 'loadedTime': 2584.800000190735, 'positionName': 'RIGHT', 'positionCoords': [998.4, 335.5], 'bid': 5.0200000000000005}]",138240.90000009537,1669830618302,raisin bran w milk,veggieswithdip,7.54,5.0200000000000005,-2.5199999999999996,raisin bran w milk,919.0,919,919.2000000476837,True,u,139664.90000009537,1424.0,1669830619726,1424,HRV,HRV_0083,2022-11-30 17:54:13
73,"[{'imgObject': {}, 'id': 'hotdog w must', 'src': '/static/foodstim60/hotdog w must.jpg', 'key': 'u', 'origWidth': 409, 'origHeight': 409, 'width': 409, 'height': 409, 'widthPercent': 0.45, 'rescaleHeight': False, 'trialN': 73, 'loaded': True, 'loadedTime': 2615, 'positionName': 'LEFT', 'positionCoords': [512.6, 335.5], 'bid': 0.71}, {'imgObject': {}, 'id': 'mango', 'src': '/static/foodstim60/mango.jpg', 'key': 'i', 'origWidth': 411, 'origHeight': 411, 'width': 411, 'height': 411, 'widthPercent': 0.45, 'rescaleHeight': False, 'trialN': 73, 'loaded': True, 'loadedTime': 2587, 'positionName': 'RIGHT', 'positionCoords': [998.4, 334.5], 'bid': 4.91}]",139665.0,1669830619726,hotdog w must,mango,0.71,4.91,4.2,mango,1591.0,1591,1591.2000000476837,True,i,141772.10000014305,2107.100000143051,1669830621833,2107,HRV,HRV_0083,2022-11-30 17:54:13
74,"[{'imgObject': {}, 'id': 'hotdog w must', 'src': '/static/foodstim60/hotdog w must.jpg', 'key': 'u', 'origWidth': 409, 'origHeight': 409, 'width': 409, 'height': 409, 'widthPercent': 0.45, 'rescaleHeight': False, 'trialN': 74, 'loaded': True, 'loadedTime': 2615.100000143051, 'positionName': 'LEFT', 'positionCoords': [512.6, 335.5], 'bid': 0.71}, {'imgObject': {}, 'id': 'froot loops w milk', 'src': '/static/foodstim60/froot loops w milk.jpg', 'key': 'i', 'origWidth': 410, 'origHeight': 410, 'width': 410, 'height': 410, 'widthPercent': 0.45, 'rescaleHeight': False, 'trialN': 74, 'loaded': True, 'loadedTime': 2582.5, 'positionName': 'RIGHT', 'positionCoords': [998.4, 335], 'bid': 1.12}]",141772.30000019073,1669830621833,hotdog w must,froot loops w milk,0.71,1.12,0.41000000000000014,froot loops w milk,1531.5999999046326,1532,1531.7999999523163,True,i,143812.90000009537,2040.5999999046326,1669830623874,2041,HRV,HRV_0083,2022-11-30 17:54:13
75,"[{'imgObject': {}, 'id': 'fruitsalad', 'src': '/static/foodstim60/fruitsalad.jpg', 'key': 'u', 'origWidth': 410, 'origHeight': 410, 'width': 410, 'height': 410, 'widthPercent': 0.45, 'rescaleHeight': False, 'trialN': 75, 'loaded': True, 'loadedTime': 2562.2000000476837, 'positionName': 'LEFT', 'positionCoords': [511.6, 335], 'bid': 9.89}, {'imgObject': {}, 'id': 'cheerios', 'src': '/static/foodstim60/cheerios.jpg', 'key': 'i', 'origWidth': 409, 'origHeight': 410, 'width': 409, 'height': 410, 'widthPercent': 0.45, 'rescaleHeight': False, 'trialN': 75, 'loaded': True, 'loadedTime': 2604.600000143051, 'positionName': 'RIGHT', 'positionCoords': [998.4, 335], 'bid': 7.73}]",143813.0,1669830623874,fruitsalad,cheerios,9.89,7.73,-2.16,fruitsalad,1314.9000000953674,1315,1315.1000001430511,True,u,145634.20000004768,1821.2000000476837,1669830625695,1821,HRV,HRV_0083,2022-11-30 17:54:13
76,"[{'imgObject': {}, 'id': 'cherries', 'src': '/static/foodstim60/cherries.jpg', 'key': 'u', 'origWidth': 410, 'origHeight': 411, 'width': 410, 'height': 411, 'widthPercent': 0.45, 'rescaleHeight': False, 'trialN': 76, 'loaded': True, 'loadedTime': 2468.2000000476837, 'positionName': 'LEFT', 'positionCoords': [511.6, 334.5], 'bid': 8.5}, {'imgObject': {}, 'id': 'chicken nuggets2', 'src': '/static/foodstim60/chicken nuggets2.jpg', 'key': 'i', 'origWidth': 410, 'origHeight': 409, 'width': 410, 'height': 409, 'widthPercent': 0.45, 'rescaleHeight': False, 'trialN': 76, 'loaded': True, 'loadedTime': 2470.5, 'positionName': 'RIGHT', 'positionCoords': [998.4, 335.5], 'bid': 9.45}]",145634.20000004768,1669830625695,cherries,chicken nuggets2,8.5,9.45,0.9499999999999993,cherries,976.7000000476837,977,976.9000000953674,True,u,147130.60000014305,1496.4000000953674,1669830627191,1496,HRV,HRV_0083,2022-11-30 17:54:13
77,"[{'imgObject': {}, 'id': 'turkey sandwich', 'src': '/static/foodstim60/turkey sandwich.jpg', 'key': 'u', 'origWidth': 409, 'origHeight': 409, 'width': 409, 'height': 409, 'widthPercent': 0.45, 'rescaleHeight': False, 'trialN': 77, 'loaded': True, 'loadedTime': 2593, 'positionName': 'LEFT', 'positionCoords': [512.6, 335.5], 'bid': 7.67}, {'imgObject': {}, 'id': 'cocktailshrimp', 'src': '/static/foodstim60/cocktailshrimp.jpg', 'key': 'i', 'origWidth': 410, 'origHeight': 410, 'width': 410, 'height': 410, 'widthPercent': 0.45, 'rescaleHeight': False, 'trialN': 77, 'loaded': True, 'loadedTime': 2569.2000000476837, 'positionName': 'RIGHT', 'positionCoords': [998.4, 335], 'bid': 9.84}]",147130.70000004768,1669830627191,turkey sandwich,cocktailshrimp,7.67,9.84,2.17,cocktailshrimp,1385.2000000476837,1386,1385.4000000953674,True,i,149025.80000019073,1895.1000001430511,1669830629087,1896,HRV,HRV_0083,2022-11-30 17:54:13
78,"[{'imgObject': {}, 'id': 'cheerios', 'src': '/static/foodstim60/cheerios.jpg', 'key': 'u', 'origWidth': 409, 'origHeight': 410, 'width': 409, 'height': 410, 'widthPercent': 0.45, 'rescaleHeight': False, 'trialN': 78, 'loaded': True, 'loadedTime': 2604.4000000953674, 'positionName': 'LEFT', 'positionCoords': [512.6, 335], 'bid': 7.73}, {'imgObject': {}, 'id': 'mac & cheese', 'src': '/static/foodstim60/mac & cheese.jpg', 'key': 'i', 'origWidth': 410, 'origHeight': 410, 'width': 410, 'height': 410, 'widthPercent': 0.45, 'rescaleHeight': False, 'trialN': 78, 'loaded': True, 'loadedTime': 2357.4000000953674, 'positionName': 'RIGHT', 'positionCoords': [998.4, 335], 'bid': 5.03}]",149025.90000009537,1669830629087,cheerios,mac & cheese,7.73,5.03,-2.7,cheerios,800.0,800,800.0999999046326,True,u,150336.20000004768,1310.2999999523163,1669830630397,1310,HRV,HRV_0083,2022-11-30 17:54:13
79,"[{'imgObject': {}, 'id': 'sushi w_condiments', 'src': '/static/foodstim60/sushi w_condiments.jpg', 'key': 'u', 'origWidth': 410, 'origHeight': 410, 'width': 410, 'height': 410, 'widthPercent': 0.45, 'rescaleHeight': False, 'trialN': 79, 'loaded': True, 'loadedTime': 2533.600000143051, 'positionName': 'LEFT', 'positionCoords': [511.6, 335], 'bid': 7.52}, {'imgObject': {}, 'id': 'baked potato', 'src': '/static/foodstim60/baked potato.jpg', 'key': 'i', 'origWidth': 409, 'origHeight': 410, 'width': 409, 'height': 410, 'widthPercent': 0.45, 'rescaleHeight': False, 'trialN': 79, 'loaded': True, 'loadedTime': 2616, 'positionName': 'RIGHT', 'positionCoords': [998.4, 335], 'bid': 7.82}]",150336.30000019073,1669830630397,sushi w_condiments,baked potato,7.52,7.82,0.3000000000000007,sushi w_condiments,995.7999999523163,996,995.8999998569489,True,u,151841.20000004768,1504.8999998569489,1669830631902,1505,HRV,HRV_0083,2022-11-30 17:54:13
80,"[{'imgObject': {}, 'id': 'yogurt no spoon', 'src': '/static/foodstim60/yogurt no spoon.jpg', 'key': 'u', 'origWidth': 411, 'origHeight': 410, 'width': 411, 'height': 410, 'widthPercent': 0.45, 'rescaleHeight': False, 'trialN': 80, 'loaded': True, 'loadedTime': 2578.800000190735, 'positionName': 'LEFT', 'positionCoords': [510.6, 335], 'bid': 9.42}, {'imgObject': {}, 'id': 'burger', 'src': '/static/foodstim60/burger.jpg', 'key': 'i', 'origWidth': 409, 'origHeight': 409, 'width': 409, 'height': 409, 'widthPercent': 0.45, 'rescaleHeight': False, 'trialN': 80, 'loaded': True, 'loadedTime': 2412.600000143051, 'positionName': 'RIGHT', 'positionCoords': [998.4, 335.5], 'bid': 7.42}]",151841.40000009537,1669830631902,yogurt no spoon,burger,9.42,7.42,-2.0,yogurt no spoon,1094.5999999046326,1095,1094.7999999523163,True,u,153446.10000014305,1604.7000000476837,1669830633507,1605,HRV,HRV_0083,2022-11-30 17:54:13
81,"[{'imgObject': {}, 'id': 'blueberries', 'src': '/static/foodstim60/blueberries.jpg', 'key': 'u', 'origWidth': 411, 'origHeight': 411, 'width': 411, 'height': 411, 'widthPercent': 0.45, 'rescaleHeight': False, 'trialN': 81, 'loaded': True, 'loadedTime': 2542.300000190735, 'positionName': 'LEFT', 'positionCoords': [510.6, 334.5], 'bid': 8.67}, {'imgObject': {}, 'id': 'baked potato', 'src': '/static/foodstim60/baked potato.jpg', 'key': 'i', 'origWidth': 409, 'origHeight': 410, 'width': 409, 'height': 410, 'widthPercent': 0.45, 'rescaleHeight': False, 'trialN': 81, 'loaded': True, 'loadedTime': 2615.300000190735, 'positionName': 'RIGHT', 'positionCoords': [998.4, 335], 'bid': 7.82}]",153446.20000004768,1669830633507,blueberries,baked potato,8.67,7.82,-0.8499999999999996,blueberries,1042.7000000476837,1043,1042.9000000953674,True,u,155005.0,1558.7999999523163,1669830635066,1559,HRV,HRV_0083,2022-11-30 17:54:13
82,"[{'imgObject': {}, 'id': 'fruitsalad', 'src': '/static/foodstim60/fruitsalad.jpg', 'key': 'u', 'origWidth': 410, 'origHeight': 410, 'width': 410, 'height': 410, 'widthPercent': 0.45, 'rescaleHeight': False, 'trialN': 82, 'loaded': True, 'loadedTime': 2564.600000143051, 'positionName': 'LEFT', 'positionCoords': [511.6, 335], 'bid': 9.89}, {'imgObject': {}, 'id': 'eggs', 'src': '/static/foodstim60/eggs.jpg', 'key': 'i', 'origWidth': 409, 'origHeight': 409, 'width': 409, 'height': 409, 'widthPercent': 0.45, 'rescaleHeight': False, 'trialN': 82, 'loaded': True, 'loadedTime': 2414.7000000476837, 'positionName': 'RIGHT', 'positionCoords': [998.4, 335.5], 'bid': 8.58}]",155005.20000004768,1669830635066,fruitsalad,eggs,9.89,8.58,-1.3100000000000005,fruitsalad,712.7000000476837,713,712.7999999523163,True,u,156226.80000019073,1221.6000001430511,1669830636287,1221,HRV,HRV_0083,2022-11-30 17:54:13
83,"[{'imgObject': {}, 'id': 'apple slices', 'src': '/static/foodstim60/apple slices.jpg', 'key': 'u', 'origWidth': 409, 'origHeight': 410, 'width': 409, 'height': 410, 'widthPercent': 0.45, 'rescaleHeight': False, 'trialN': 83, 'loaded': True, 'loadedTime': 2508.800000190735, 'positionName': 'LEFT', 'positionCoords': [512.6, 335], 'bid': 7.81}, {'imgObject': {}, 'id': 'chickenfingers', 'src': '/static/foodstim60/chickenfingers.jpg', 'key': 'i', 'origWidth': 410, 'origHeight': 410, 'width': 410, 'height': 410, 'widthPercent': 0.45, 'rescaleHeight': False, 'trialN': 83, 'loaded': True, 'loadedTime': 2453.5, 'positionName': 'RIGHT', 'positionCoords': [998.4, 335], 'bid': 8.66}]",156226.90000009537,1669830636288,apple slices,chickenfingers,7.81,8.66,0.8500000000000005,chickenfingers,882.0,882,882.2000000476837,True,i,157620.60000014305,1393.7000000476837,1669830637681,1393,HRV,HRV_0083,2022-11-30 17:54:13
84,"[{'imgObject': {}, 'id': 'tacos', 'src': '/static/foodstim60/tacos.jpg', 'key': 'u', 'origWidth': 411, 'origHeight': 411, 'width': 411, 'height': 411, 'widthPercent': 0.45, 'rescaleHeight': False, 'trialN': 84, 'loaded': True, 'loadedTime': 2603.600000143051, 'positionName': 'LEFT', 'positionCoords': [510.6, 334.5], 'bid': 7.11}, {'imgObject': {}, 'id': 'steak', 'src': '/static/foodstim60/steak.jpg', 'key': 'i', 'origWidth': 410, 'origHeight': 410, 'width': 410, 'height': 410, 'widthPercent': 0.45, 'rescaleHeight': False, 'trialN': 84, 'loaded': True, 'loadedTime': 2419.300000190735, 'positionName': 'RIGHT', 'positionCoords': [998.4, 335], 'bid': 9.33}]",157620.60000014305,1669830637681,tacos,steak,7.11,9.33,2.2199999999999998,steak,804.2999999523163,805,804.5,True,i,158941.10000014305,1320.5,1669830639002,1321,HRV,HRV_0083,2022-11-30 17:54:13
85,"[{'imgObject': {}, 'id': 'burrito', 'src': '/static/foodstim60/burrito.jpg', 'key': 'u', 'origWidth': 410, 'origHeight': 410, 'width': 410, 'height': 410, 'widthPercent': 0.45, 'rescaleHeight': False, 'trialN': 85, 'loaded': True, 'loadedTime': 2370, 'positionName': 'LEFT', 'positionCoords': [511.6, 335], 'bid': 3.18}, {'imgObject': {}, 'id': 'hotdog w must', 'src': '/static/foodstim60/hotdog w must.jpg', 'key': 'i', 'origWidth': 409, 'origHeight': 409, 'width': 409, 'height': 409, 'widthPercent': 0.45, 'rescaleHeight': False, 'trialN': 85, 'loaded': True, 'loadedTime': 2615.2000000476837, 'positionName': 'RIGHT', 'positionCoords': [998.4, 335.5], 'bid': 0.71}]",158941.30000019073,1669830639002,burrito,hotdog w must,3.18,0.71,-2.47,hotdog w must,1151.5999999046326,1152,1151.6999998092651,True,i,160606.60000014305,1665.2999999523163,1669830640667,1665,HRV,HRV_0083,2022-11-30 17:54:13
86,"[{'imgObject': {}, 'id': 'eggs', 'src': '/static/foodstim60/eggs.jpg', 'key': 'u', 'origWidth': 409, 'origHeight': 409, 'width': 409, 'height': 409, 'widthPercent': 0.45, 'rescaleHeight': False, 'trialN': 86, 'loaded': True, 'loadedTime': 2413.5, 'positionName': 'LEFT', 'positionCoords': [512.6, 335.5], 'bid': 8.58}, {'imgObject': {}, 'id': 'strawberries', 'src': '/static/foodstim60/strawberries.jpg', 'key': 'i', 'origWidth': 410, 'origHeight': 410, 'width': 410, 'height': 410, 'widthPercent': 0.45, 'rescaleHeight': False, 'trialN': 86, 'loaded': True, 'loadedTime': 2337.300000190735, 'positionName': 'RIGHT', 'positionCoords': [998.4, 335], 'bid': 8.620000000000001}]",160606.70000004768,1669830640667,eggs,strawberries,8.58,8.620000000000001,0.040000000000000924,strawberries,1385.4000000953674,1386,1385.5,True,i,162501.10000014305,1894.4000000953674,1669830642562,1895,HRV,HRV_0083,2022-11-30 17:54:13
87,"[{'imgObject': {}, 'id': 'blueberries', 'src': '/static/foodstim60/blueberries.jpg', 'key': 'u', 'origWidth': 411, 'origHeight': 411, 'width': 411, 'height': 411, 'widthPercent': 0.45, 'rescaleHeight': False, 'trialN': 87, 'loaded': True, 'loadedTime': 2542.2000000476837, 'positionName': 'LEFT', 'positionCoords': [510.6, 334.5], 'bid': 8.67}, {'imgObject': {}, 'id': 'strawberries', 'src': '/static/foodstim60/strawberries.jpg', 'key': 'i', 'origWidth': 410, 'origHeight': 410, 'width': 410, 'height': 410, 'widthPercent': 0.45, 'rescaleHeight': False, 'trialN': 87, 'loaded': True, 'loadedTime': 2340, 'positionName': 'RIGHT', 'positionCoords': [998.4, 335], 'bid': 8.620000000000001}]",162501.20000004768,1669830642562,blueberries,strawberries,8.67,8.620000000000001,-0.049999999999998934,strawberries,1071.7000000476837,1072,1071.7999999523163,True,i,164088.30000019073,1587.1000001430511,1669830644149,1587,HRV,HRV_0083,2022-11-30 17:54:13
88,"[{'imgObject': {}, 'id': 'turkeysandwich', 'src': '/static/foodstim60/turkeysandwich.jpg', 'key': 'u', 'origWidth': 409, 'origHeight': 409, 'width': 409, 'height': 409, 'widthPercent': 0.45, 'rescaleHeight': False, 'trialN': 88, 'loaded': True, 'loadedTime': 2505.9000000953674, 'positionName': 'LEFT', 'positionCoords': [512.6, 335.5], 'bid': 8.89}, {'imgObject': {}, 'id': 'shreddedwheatwithmilk', 'src': '/static/foodstim60/shreddedwheatwithmilk.jpg', 'key': 'i', 'origWidth': 410, 'origHeight': 410, 'width': 410, 'height': 410, 'widthPercent': 0.45, 'rescaleHeight': False, 'trialN': 88, 'loaded': True, 'loadedTime': 2591, 'positionName': 'RIGHT', 'positionCoords': [998.4, 335], 'bid': 9.02}]",164088.5,1669830644149,turkeysandwich,shreddedwheatwithmilk,8.89,9.02,0.129999999999999,turkeysandwich,2334.4000000953674,2335,2334.5,True,u,166936.20000004768,2847.7000000476837,1669830646997,2848,HRV,HRV_0083,2022-11-30 17:54:13
89,"[{'imgObject': {}, 'id': 'fried eggs', 'src': '/static/foodstim60/fried eggs.jpg', 'key': 'u', 'origWidth': 410, 'origHeight': 410, 'width': 410, 'height': 410, 'widthPercent': 0.45, 'rescaleHeight': False, 'trialN': 89, 'loaded': True, 'loadedTime': 2445.2000000476837, 'positionName': 'LEFT', 'positionCoords': [511.6, 335], 'bid': 5.93}, {'imgObject': {}, 'id': 'hashbrowns', 'src': '/static/foodstim60/hashbrowns.jpg', 'key': 'i', 'origWidth': 411, 'origHeight': 410, 'width': 411, 'height': 410, 'widthPercent': 0.45, 'rescaleHeight': False, 'trialN': 89, 'loaded': True, 'loadedTime': 2279.4000000953674, 'positionName': 'RIGHT', 'positionCoords': [998.4, 335], 'bid': 6.86}]",166936.30000019073,1669830646997,fried eggs,hashbrowns,5.93,6.86,0.9300000000000006,hashbrowns,1587.5999999046326,1588,1587.7999999523163,True,i,169041.20000004768,2104.899999856949,1669830649102,2105,HRV,HRV_0083,2022-11-30 17:54:13
90,"[{'imgObject': {}, 'id': 'eggsalad', 'src': '/static/foodstim60/eggsalad.jpg', 'key': 'u', 'origWidth': 410, 'origHeight': 409, 'width': 410, 'height': 409, 'widthPercent': 0.45, 'rescaleHeight': False, 'trialN': 90, 'loaded': True, 'loadedTime': 2489.800000190735, 'positionName': 'LEFT', 'positionCoords': [511.6, 335.5], 'bid': 4.83}, {'imgObject': {}, 'id': 'tacos', 'src': '/static/foodstim60/tacos.jpg', 'key': 'i', 'origWidth': 411, 'origHeight': 411, 'width': 411, 'height': 411, 'widthPercent': 0.45, 'rescaleHeight': False, 'trialN': 90, 'loaded': True, 'loadedTime': 2603.600000143051, 'positionName': 'RIGHT', 'positionCoords': [998.4, 334.5], 'bid': 7.11}]",201658.0,1669830681719,eggsalad,tacos,4.83,7.11,2.2800000000000002,tacos,1111.0,1111,1111.1000001430511,True,i,203285.90000009537,1627.9000000953674,1669830683347,1628,HRV,HRV_0083,2022-11-30 17:54:13
91,"[{'imgObject': {}, 'id': 'corn cob', 'src': '/static/foodstim60/corn cob.jpg', 'key': 'u', 'origWidth': 411, 'origHeight': 411, 'width': 411, 'height': 411, 'widthPercent': 0.45, 'rescaleHeight': False, 'trialN': 91, 'loaded': True, 'loadedTime': 2617, 'positionName': 'LEFT', 'positionCoords': [510.6, 334.5], 'bid': 3.43}, {'imgObject': {}, 'id': 'granola w milk', 'src': '/static/foodstim60/granola w milk.jpg', 'key': 'i', 'origWidth': 410, 'origHeight': 410, 'width': 410, 'height': 410, 'widthPercent': 0.45, 'rescaleHeight': False, 'trialN': 91, 'loaded': True, 'loadedTime': 2618, 'positionName': 'RIGHT', 'positionCoords': [998.4, 335], 'bid': 7.1000000000000005}]",203286.0,1669830683347,corn cob,granola w milk,3.43,7.1000000000000005,3.6700000000000004,granola w milk,1048.1000001430511,1049,1048.5,True,i,204852.30000019073,1566.3000001907349,1669830684913,1566,HRV,HRV_0083,2022-11-30 17:54:13
92,"[{'imgObject': {}, 'id': 'popsicles', 'src': '/static/foodstim60/popsicles.jpg', 'key': 'u', 'origWidth': 410, 'origHeight': 410, 'width': 410, 'height': 410, 'widthPercent': 0.45, 'rescaleHeight': False, 'trialN': 92, 'loaded': True, 'loadedTime': 2541.2000000476837, 'positionName': 'LEFT', 'positionCoords': [511.6, 335], 'bid': 1.81}, {'imgObject': {}, 'id': 'mac & cheese', 'src': '/static/foodstim60/mac & cheese.jpg', 'key': 'i', 'origWidth': 410, 'origHeight': 410, 'width': 410, 'height': 410, 'widthPercent': 0.45, 'rescaleHeight': False, 'trialN': 92, 'loaded': True, 'loadedTime': 2357.9000000953674, 'positionName': 'RIGHT', 'positionCoords': [998.4, 335], 'bid': 5.03}]",204852.40000009537,1669830684914,popsicles,mac & cheese,1.81,5.03,3.22,mac & cheese,918.4000000953674,918,918.7000000476837,True,i,206282.40000009537,1430.0,1669830686344,1430,HRV,HRV_0083,2022-11-30 17:54:13
93,"[{'imgObject': {}, 'id': 'burrito', 'src': '/static/foodstim60/burrito.jpg', 'key': 'u', 'origWidth': 410, 'origHeight': 410, 'width': 410, 'height': 410, 'widthPercent': 0.45, 'rescaleHeight': False, 'trialN': 93, 'loaded': True, 'loadedTime': 2370.2000000476837, 'positionName': 'LEFT', 'positionCoords': [511.6, 335], 'bid': 3.18}, {'imgObject': {}, 'id': 'blackbeanswithrice', 'src': '/static/foodstim60/blackbeanswithrice.jpg', 'key': 'i', 'origWidth': 410, 'origHeight': 410, 'width': 410, 'height': 410, 'widthPercent': 0.45, 'rescaleHeight': False, 'trialN': 93, 'loaded': True, 'loadedTime': 2577.100000143051, 'positionName': 'RIGHT', 'positionCoords': [998.4, 335], 'bid': 3.42}]",206282.5,1669830686344,burrito,blackbeanswithrice,3.18,3.42,0.23999999999999977,blackbeanswithrice,2992.4000000953674,2992,2992.600000143051,True,i,209784.10000014305,3501.600000143051,1669830689845,3501,HRV,HRV_0083,2022-11-30 17:54:13
94,"[{'imgObject': {}, 'id': 'avocado', 'src': '/static/foodstim60/avocado.jpg', 'key': 'u', 'origWidth': 409, 'origHeight': 409, 'width': 409, 'height': 409, 'widthPercent': 0.45, 'rescaleHeight': False, 'trialN': 94, 'loaded': True, 'loadedTime': 2560.7000000476837, 'positionName': 'LEFT', 'positionCoords': [512.6, 335.5], 'bid': 1.39}, {'imgObject': {}, 'id': 'orange slices', 'src': '/static/foodstim60/orange slices.jpg', 'key': 'i', 'origWidth': 409, 'origHeight': 410, 'width': 409, 'height': 410, 'widthPercent': 0.45, 'rescaleHeight': False, 'trialN': 94, 'loaded': True, 'loadedTime': 2586.7000000476837, 'positionName': 'RIGHT', 'positionCoords': [998.4, 335], 'bid': 6.5}]",209784.30000019073,1669830689846,avocado,orange slices,1.39,6.5,5.11,orange slices,933.5999999046326,933,933.6999998092651,True,i,211223.40000009537,1439.0999999046326,1669830691285,1439,HRV,HRV_0083,2022-11-30 17:54:13
95,"[{'imgObject': {}, 'id': 'cherry tomato', 'src': '/static/foodstim60/cherry tomato.jpg', 'key': 'u', 'origWidth': 410, 'origHeight': 410, 'width': 410, 'height': 410, 'widthPercent': 0.45, 'rescaleHeight': False, 'trialN': 95, 'loaded': True, 'loadedTime': 2589.300000190735, 'positionName': 'LEFT', 'positionCoords': [511.6, 335], 'bid': 8.03}, {'imgObject': {}, 'id': 'tacos', 'src': '/static/foodstim60/tacos.jpg', 'key': 'i', 'origWidth': 411, 'origHeight': 411, 'width': 411, 'height': 411, 'widthPercent': 0.45, 'rescaleHeight': False, 'trialN': 95, 'loaded': True, 'loadedTime': 2603.5, 'positionName': 'RIGHT', 'positionCoords': [998.4, 334.5], 'bid': 7.11}]",211223.5,1669830691285,cherry tomato,tacos,8.03,7.11,-0.919999999999999,tacos,1105.7000000476837,1106,1105.8000001907349,True,i,212837.90000009537,1614.4000000953674,1669830692899,1614,HRV,HRV_0083,2022-11-30 17:54:13
96,"[{'imgObject': {}, 'id': 'eggsalad', 'src': '/static/foodstim60/eggsalad.jpg', 'key': 'u', 'origWidth': 410, 'origHeight': 409, 'width': 410, 'height': 409, 'widthPercent': 0.45, 'rescaleHeight': False, 'trialN': 96, 'loaded': True, 'loadedTime': 2490.7000000476837, 'positionName': 'LEFT', 'positionCoords': [511.6, 335.5], 'bid': 4.83}, {'imgObject': {}, 'id': 'sweetpotato', 'src': '/static/foodstim60/sweetpotato.jpg', 'key': 'i', 'origWidth': 410, 'origHeight': 410, 'width': 410, 'height': 410, 'widthPercent': 0.45, 'rescaleHeight': False, 'trialN': 96, 'loaded': True, 'loadedTime': 2505.800000190735, 'positionName': 'RIGHT', 'positionCoords': [998.4, 335], 'bid': 6.5}]",212838.10000014305,1669830692899,eggsalad,sweetpotato,4.83,6.5,1.67,sweetpotato,1043.7000000476837,1044,1044.0,True,i,214391.5,1553.3999998569489,1669830694453,1554,HRV,HRV_0083,2022-11-30 17:54:13
97,"[{'imgObject': {}, 'id': 'olives', 'src': '/static/foodstim60/olives.jpg', 'key': 'u', 'origWidth': 410, 'origHeight': 410, 'width': 410, 'height': 410, 'widthPercent': 0.45, 'rescaleHeight': False, 'trialN': 97, 'loaded': True, 'loadedTime': 2443.7000000476837, 'positionName': 'LEFT', 'positionCoords': [511.6, 335], 'bid': 6.11}, {'imgObject': {}, 'id': 'froot loops w milk', 'src': '/static/foodstim60/froot loops w milk.jpg', 'key': 'i', 'origWidth': 410, 'origHeight': 410, 'width': 410, 'height': 410, 'widthPercent': 0.45, 'rescaleHeight': False, 'trialN': 97, 'loaded': True, 'loadedTime': 2582.4000000953674, 'positionName': 'RIGHT', 'positionCoords': [998.4, 335], 'bid': 1.12}]",214391.70000004768,1669830694453,olives,froot loops w milk,6.11,1.12,-4.99,olives,1175.2999999523163,1175,1175.4000000953674,True,u,216074.10000014305,1682.4000000953674,1669830696135,1682,HRV,HRV_0083,2022-11-30 17:54:13
98,"[{'imgObject': {}, 'id': 'baked potato', 'src': '/static/foodstim60/baked potato.jpg', 'key': 'u', 'origWidth': 409, 'origHeight': 410, 'width': 409, 'height': 410, 'widthPercent': 0.45, 'rescaleHeight': False, 'trialN': 98, 'loaded': True, 'loadedTime': 2615.9000000953674, 'positionName': 'LEFT', 'positionCoords': [512.6, 335], 'bid': 7.82}, {'imgObject': {}, 'id': 'froot loops w milk', 'src': '/static/foodstim60/froot loops w milk.jpg', 'key': 'i', 'origWidth': 410, 'origHeight': 410, 'width': 410, 'height': 410, 'widthPercent': 0.45, 'rescaleHeight': False, 'trialN': 98, 'loaded': True, 'loadedTime': 2583.100000143051, 'positionName': 'RIGHT', 'positionCoords': [998.4, 335], 'bid': 1.12}]",216074.20000004768,1669830696135,baked potato,froot loops w milk,7.82,1.12,-6.7,baked potato,1495.7000000476837,1496,1495.9000000953674,True,u,218084.60000014305,2010.4000000953674,1669830698146,2011,HRV,HRV_0083,2022-11-30 17:54:13
99,"[{'imgObject': {}, 'id': 'salmon', 'src': '/static/foodstim60/salmon.jpg', 'key': 'u', 'origWidth': 410, 'origHeight': 409, 'width': 410, 'height': 409, 'widthPercent': 0.45, 'rescaleHeight': False, 'trialN': 99, 'loaded': True, 'loadedTime': 2471.4000000953674, 'positionName': 'LEFT', 'positionCoords': [511.6, 335.5], 'bid': 9.56}, {'imgObject': {}, 'id': 'fruitsalad', 'src': '/static/foodstim60/fruitsalad.jpg', 'key': 'i', 'origWidth': 410, 'origHeight': 410, 'width': 410, 'height': 410, 'widthPercent': 0.45, 'rescaleHeight': False, 'trialN': 99, 'loaded': True, 'loadedTime': 2565.7000000476837, 'positionName': 'RIGHT', 'positionCoords': [998.4, 335], 'bid': 9.89}]",218084.70000004768,1669830698146,salmon,fruitsalad,9.56,9.89,0.33000000000000007,fruitsalad,1286.2000000476837,1286,1286.4000000953674,True,i,219887.60000014305,1802.9000000953674,1669830699949,1803,HRV,HRV_0083,2022-11-30 17:54:13
100,"[{'imgObject': {}, 'id': 'banana', 'src': '/static/foodstim60/banana.jpg', 'key': 'u', 'origWidth': 410, 'origHeight': 410, 'width': 410, 'height': 410, 'widthPercent': 0.45, 'rescaleHeight': False, 'trialN': 100, 'loaded': True, 'loadedTime': 2516.600000143051, 'positionName': 'LEFT', 'positionCoords': [511.6, 335], 'bid': 6.61}, {'imgObject': {}, 'id': 'shreddedwheatwithmilk', 'src': '/static/foodstim60/shreddedwheatwithmilk.jpg', 'key': 'i', 'origWidth': 410, 'origHeight': 410, 'width': 410, 'height': 410, 'widthPercent': 0.45, 'rescaleHeight': False, 'trialN': 100, 'loaded': True, 'loadedTime': 2591.100000143051, 'positionName': 'RIGHT', 'positionCoords': [998.4, 335], 'bid': 9.02}]",219887.70000004768,1669830699949,banana,shreddedwheatwithmilk,6.61,9.02,2.4099999999999993,shreddedwheatwithmilk,2116.2000000476837,2116,2116.4000000953674,True,i,222525.90000009537,2638.2000000476837,1669830702587,2638,HRV,HRV_0083,2022-11-30 17:54:13
101,"[{'imgObject': {}, 'id': 'luckycharms', 'src': '/static/foodstim60/luckycharms.jpg', 'key': 'u', 'origWidth': 410, 'origHeight': 409, 'width': 410, 'height': 409, 'widthPercent': 0.45, 'rescaleHeight': False, 'trialN': 101, 'loaded': True, 'loadedTime': 2604.800000190735, 'positionName': 'LEFT', 'positionCoords': [511.6, 335.5], 'bid': 0.76}, {'imgObject': {}, 'id': 'mashed potato', 'src': '/static/foodstim60/mashed potato.jpg', 'key': 'i', 'origWidth': 409, 'origHeight': 409, 'width': 409, 'height': 409, 'widthPercent': 0.45, 'rescaleHeight': False, 'trialN': 101, 'loaded': True, 'loadedTime': 2492.4000000953674, 'positionName': 'RIGHT', 'positionCoords': [998.4, 335.5], 'bid': 4.91}]",222526.10000014305,1669830702587,luckycharms,mashed potato,0.76,4.91,4.15,mashed potato,1463.8999998569489,1464,1464.0999999046326,True,i,224509.10000014305,1983.0,1669830704570,1983,HRV,HRV_0083,2022-11-30 17:54:13
102,"[{'imgObject': {}, 'id': 'cherry tomato', 'src': '/static/foodstim60/cherry tomato.jpg', 'key': 'u', 'origWidth': 410, 'origHeight': 410, 'width': 410, 'height': 410, 'widthPercent': 0.45, 'rescaleHeight': False, 'trialN': 102, 'loaded': True, 'loadedTime': 2588.300000190735, 'positionName': 'LEFT', 'positionCoords': [511.6, 335], 'bid': 8.03}, {'imgObject': {}, 'id': 'baked potato', 'src': '/static/foodstim60/baked potato.jpg', 'key': 'i', 'origWidth': 409, 'origHeight': 410, 'width': 409, 'height': 410, 'widthPercent': 0.45, 'rescaleHeight': False, 'trialN': 102, 'loaded': True, 'loadedTime': 2616.100000143051, 'positionName': 'RIGHT', 'positionCoords': [998.4, 335], 'bid': 7.82}]",224509.20000004768,1669830704570,cherry tomato,baked potato,8.03,7.82,-0.20999999999999908,cherry tomato,1402.7000000476837,1403,1403.0,True,u,226420.5,1911.2999999523163,1669830706482,1912,HRV,HRV_0083,2022-11-30 17:54:13
103,"[{'imgObject': {}, 'id': 'lox', 'src': '/static/foodstim60/lox.jpg', 'key': 'u', 'origWidth': 410, 'origHeight': 411, 'width': 410, 'height': 411, 'widthPercent': 0.45, 'rescaleHeight': False, 'trialN': 103, 'loaded': True, 'loadedTime': 2395.5, 'positionName': 'LEFT', 'positionCoords': [511.6, 334.5], 'bid': 8.040000000000001}, {'imgObject': {}, 'id': 'cheerios', 'src': '/static/foodstim60/cheerios.jpg', 'key': 'i', 'origWidth': 409, 'origHeight': 410, 'width': 409, 'height': 410, 'widthPercent': 0.45, 'rescaleHeight': False, 'trialN': 103, 'loaded': True, 'loadedTime': 2604.7000000476837, 'positionName': 'RIGHT', 'positionCoords': [998.4, 335], 'bid': 7.73}]",226420.70000004768,1669830706482,lox,cheerios,8.040000000000001,7.73,-0.3100000000000005,cheerios,1326.2000000476837,1326,1326.4000000953674,True,i,228261.0,1840.2999999523163,1669830708322,1840,HRV,HRV_0083,2022-11-30 17:54:13
104,"[{'imgObject': {}, 'id': 'seaweed', 'src': '/static/foodstim60/seaweed.jpg', 'key': 'u', 'origWidth': 410, 'origHeight': 410, 'width': 410, 'height': 410, 'widthPercent': 0.45, 'rescaleHeight': False, 'trialN': 104, 'loaded': True, 'loadedTime': 2292.800000190735, 'positionName': 'LEFT', 'positionCoords': [511.6, 335], 'bid': 6.5600000000000005}, {'imgObject': {}, 'id': 'salad w chicken', 'src': '/static/foodstim60/salad w chicken.jpg', 'key': 'i', 'origWidth': 411, 'origHeight': 411, 'width': 411, 'height': 411, 'widthPercent': 0.45, 'rescaleHeight': False, 'trialN': 104, 'loaded': True, 'loadedTime': 2487.4000000953674, 'positionName': 'RIGHT', 'positionCoords': [998.4, 334.5], 'bid': 9.01}]",228261.20000004768,1669830708322,seaweed,salad w chicken,6.5600000000000005,9.01,2.4499999999999993,salad w chicken,1090.7000000476837,1091,1091.0,True,i,229860.80000019073,1599.6000001430511,1669830709922,1600,HRV,HRV_0083,2022-11-30 17:54:13
105,"[{'imgObject': {}, 'id': 'tacos', 'src': '/static/foodstim60/tacos.jpg', 'key': 'u', 'origWidth': 411, 'origHeight': 411, 'width': 411, 'height': 411, 'widthPercent': 0.45, 'rescaleHeight': False, 'trialN': 105, 'loaded': True, 'loadedTime': 2603.4000000953674, 'positionName': 'LEFT', 'positionCoords': [510.6, 334.5], 'bid': 7.11}, {'imgObject': {}, 'id': 'ice cream sundae 002', 'src': '/static/foodstim60/ice cream sundae 002.jpg', 'key': 'i', 'origWidth': 409, 'origHeight': 409, 'width': 409, 'height': 409, 'widthPercent': 0.45, 'rescaleHeight': False, 'trialN': 105, 'loaded': True, 'loadedTime': 2317.800000190735, 'positionName': 'RIGHT', 'positionCoords': [998.4, 335.5], 'bid': 7.78}]",229861.0,1669830709922,tacos,ice cream sundae 002,7.11,7.78,0.6699999999999999,tacos,1106.9000000953674,1107,1107.1000001430511,True,u,231485.5,1624.5,1669830711547,1625,HRV,HRV_0083,2022-11-30 17:54:13
106,"[{'imgObject': {}, 'id': 'kiwi', 'src': '/static/foodstim60/kiwi.jpg', 'key': 'u', 'origWidth': 410, 'origHeight': 410, 'width': 410, 'height': 410, 'widthPercent': 0.45, 'rescaleHeight': False, 'trialN': 106, 'loaded': True, 'loadedTime': 2566.800000190735, 'positionName': 'LEFT', 'positionCoords': [511.6, 335], 'bid': 9.12}, {'imgObject': {}, 'id': 'yogurt no spoon', 'src': '/static/foodstim60/yogurt no spoon.jpg', 'key': 'i', 'origWidth': 411, 'origHeight': 410, 'width': 411, 'height': 410, 'widthPercent': 0.45, 'rescaleHeight': False, 'trialN': 106, 'loaded': True, 'loadedTime': 2578.7000000476837, 'positionName': 'RIGHT', 'positionCoords': [998.4, 335], 'bid': 9.42}]",231485.70000004768,1669830711547,kiwi,yogurt no spoon,9.12,9.42,0.3000000000000007,yogurt no spoon,1318.1000001430511,1318,1318.4000000953674,True,i,233319.70000004768,1834.0,1669830713381,1834,HRV,HRV_0083,2022-11-30 17:54:13
107,"[{'imgObject': {}, 'id': 'shreddedwheatwithmilk', 'src': '/static/foodstim60/shreddedwheatwithmilk.jpg', 'key': 'u', 'origWidth': 410, 'origHeight': 410, 'width': 410, 'height': 410, 'widthPercent': 0.45, 'rescaleHeight': False, 'trialN': 107, 'loaded': True, 'loadedTime': 2591.4000000953674, 'positionName': 'LEFT', 'positionCoords': [511.6, 335], 'bid': 9.02}, {'imgObject': {}, 'id': 'salad w chicken', 'src': '/static/foodstim60/salad w chicken.jpg', 'key': 'i', 'origWidth': 411, 'origHeight': 411, 'width': 411, 'height': 411, 'widthPercent': 0.45, 'rescaleHeight': False, 'trialN': 107, 'loaded': True, 'loadedTime': 2487.800000190735, 'positionName': 'RIGHT', 'positionCoords': [998.4, 334.5], 'bid': 9.01}]",233319.90000009537,1669830713381,shreddedwheatwithmilk,salad w chicken,9.02,9.01,-0.009999999999999787,salad w chicken,1071.2000000476837,1071,1071.4000000953674,True,i,234904.80000019073,1584.9000000953674,1669830714966,1585,HRV,HRV_0083,2022-11-30 17:54:13
