trialN,stimuli,trialStartTime,trialStartTime_UNIX,stimulus1,stimulus2,stimulus1Bid,stimulus2Bid,delta,selected,rt,rt_UNIX,rt_perfnow,receivedResponse,rsp,trialEndTime,trialDuration,trialEndTime_UNIX,trialDuration_UNIX,exp,subjectId,date
0,"[{'imgObject': {}, 'id': 'luckycharms', 'src': '/static/foodstim60/luckycharms.jpg', 'key': 'u', 'origWidth': 410, 'origHeight': 409, 'width': 410, 'height': 409, 'widthPercent': 0.45, 'rescaleHeight': False, 'trialN': 0, 'loaded': True, 'loadedTime': 3852.39999999851, 'positionName': 'LEFT', 'positionCoords': [818.8, 515.5], 'bid': 2.39}, {'imgObject': {}, 'id': 'cherries', 'src': '/static/foodstim60/cherries.jpg', 'key': 'i', 'origWidth': 410, 'origHeight': 411, 'width': 410, 'height': 411, 'widthPercent': 0.45, 'rescaleHeight': False, 'trialN': 0, 'loaded': True, 'loadedTime': 3889, 'positionName': 'RIGHT', 'positionCoords': [1331.2, 514.5], 'bid': 9.96}]",4336.39999999851,1669831542352,luckycharms,cherries,2.39,9.96,7.57,luckycharms,1451.1000000014901,1452,1451.800000000745,True,u,6306.099999997765,1969.699999999255,1669831544321,1969,HRV,HRV_0131,2022-11-30 18:12:10
1,"[{'imgObject': {}, 'id': 'rigatoni and sauce', 'src': '/static/foodstim60/rigatoni and sauce.jpg', 'key': 'u', 'origWidth': 410, 'origHeight': 411, 'width': 410, 'height': 411, 'widthPercent': 0.45, 'rescaleHeight': False, 'trialN': 1, 'loaded': True, 'loadedTime': 3907.800000000745, 'positionName': 'LEFT', 'positionCoords': [818.8, 514.5], 'bid': 10}, {'imgObject': {}, 'id': 'sushi w_condiments', 'src': '/static/foodstim60/sushi w_condiments.jpg', 'key': 'i', 'origWidth': 410, 'origHeight': 410, 'width': 410, 'height': 410, 'widthPercent': 0.45, 'rescaleHeight': False, 'trialN': 1, 'loaded': True, 'loadedTime': 3917.699999999255, 'positionName': 'RIGHT', 'positionCoords': [1331.2, 515], 'bid': 10}]",6306.300000000745,1669831544322,rigatoni and sauce,sushi w_condiments,10.0,10.0,0.0,sushi w_condiments,2015.2999999970198,2015,2015.5999999977648,True,i,8824.89999999851,2518.599999997765,1669831546840,2518,HRV,HRV_0131,2022-11-30 18:12:10
2,"[{'imgObject': {}, 'id': 'olives', 'src': '/static/foodstim60/olives.jpg', 'key': 'u', 'origWidth': 410, 'origHeight': 410, 'width': 410, 'height': 410, 'widthPercent': 0.45, 'rescaleHeight': False, 'trialN': 2, 'loaded': True, 'loadedTime': 3930.300000000745, 'positionName': 'LEFT', 'positionCoords': [818.8, 515], 'bid': 5}, {'imgObject': {}, 'id': 'mashed potato', 'src': '/static/foodstim60/mashed potato.jpg', 'key': 'i', 'origWidth': 409, 'origHeight': 409, 'width': 409, 'height': 409, 'widthPercent': 0.45, 'rescaleHeight': False, 'trialN': 2, 'loaded': True, 'loadedTime': 3938.699999999255, 'positionName': 'RIGHT', 'positionCoords': [1331.2, 515.5], 'bid': 2.29}]",8825.0,1669831546840,olives,mashed potato,5.0,2.29,-2.71,olives,1443.8999999985099,1445,1444.300000000745,True,u,10786.0,1961.0,1669831548801,1961,HRV,HRV_0131,2022-11-30 18:12:10
3,"[{'imgObject': {}, 'id': 'seaweed', 'src': '/static/foodstim60/seaweed.jpg', 'key': 'u', 'origWidth': 410, 'origHeight': 410, 'width': 410, 'height': 410, 'widthPercent': 0.45, 'rescaleHeight': False, 'trialN': 3, 'loaded': True, 'loadedTime': 3998.5, 'positionName': 'LEFT', 'positionCoords': [818.8, 515], 'bid': 7.49}, {'imgObject': {}, 'id': 'cherry tomato', 'src': '/static/foodstim60/cherry tomato.jpg', 'key': 'i', 'origWidth': 410, 'origHeight': 410, 'width': 410, 'height': 410, 'widthPercent': 0.45, 'rescaleHeight': False, 'trialN': 3, 'loaded': True, 'loadedTime': 4007.099999997765, 'positionName': 'RIGHT', 'positionCoords': [1331.2, 515], 'bid': 2.36}]",10786.300000000745,1669831548802,seaweed,cherry tomato,7.49,2.36,-5.130000000000001,seaweed,1764.0999999977648,1764,1764.5,True,u,13069.699999999255,2283.39999999851,1669831551085,2283,HRV,HRV_0131,2022-11-30 18:12:10
4,"[{'imgObject': {}, 'id': 'apple slices', 'src': '/static/foodstim60/apple slices.jpg', 'key': 'u', 'origWidth': 409, 'origHeight': 410, 'width': 409, 'height': 410, 'widthPercent': 0.45, 'rescaleHeight': False, 'trialN': 4, 'loaded': True, 'loadedTime': 3883.800000000745, 'positionName': 'LEFT', 'positionCoords': [819.8, 515], 'bid': 10}, {'imgObject': {}, 'id': 'cherries', 'src': '/static/foodstim60/cherries.jpg', 'key': 'i', 'origWidth': 410, 'origHeight': 411, 'width': 410, 'height': 411, 'widthPercent': 0.45, 'rescaleHeight': False, 'trialN': 4, 'loaded': True, 'loadedTime': 3884.099999997765, 'positionName': 'RIGHT', 'positionCoords': [1331.2, 514.5], 'bid': 9.96}]",13070.0,1669831551085,apple slices,cherries,10.0,9.96,-0.03999999999999915,apple slices,1109.8999999985099,1111,1110.5,True,u,14700.300000000745,1630.300000000745,1669831552716,1631,HRV,HRV_0131,2022-11-30 18:12:10
5,"[{'imgObject': {}, 'id': 'raspberries', 'src': '/static/foodstim60/raspberries.jpg', 'key': 'u', 'origWidth': 411, 'origHeight': 411, 'width': 411, 'height': 411, 'widthPercent': 0.45, 'rescaleHeight': False, 'trialN': 5, 'loaded': True, 'loadedTime': 3952.5, 'positionName': 'LEFT', 'positionCoords': [817.8, 514.5], 'bid': 9.89}, {'imgObject': {}, 'id': 'Tribe humus pita', 'src': '/static/foodstim60/Tribe humus pita.jpg', 'key': 'i', 'origWidth': 411, 'origHeight': 411, 'width': 411, 'height': 411, 'widthPercent': 0.45, 'rescaleHeight': False, 'trialN': 5, 'loaded': True, 'loadedTime': 3966.300000000745, 'positionName': 'RIGHT', 'positionCoords': [1331.2, 514.5], 'bid': 8.47}]",14700.599999997765,1669831552716,raspberries,Tribe humus pita,9.89,8.47,-1.42,Tribe humus pita,1263.1000000014901,1263,1263.6000000014901,True,i,16473.5,1772.9000000022352,1669831554489,1773,HRV,HRV_0131,2022-11-30 18:12:10
6,"[{'imgObject': {}, 'id': 'olives', 'src': '/static/foodstim60/olives.jpg', 'key': 'u', 'origWidth': 410, 'origHeight': 410, 'width': 410, 'height': 410, 'widthPercent': 0.45, 'rescaleHeight': False, 'trialN': 6, 'loaded': True, 'loadedTime': 3930.5, 'positionName': 'LEFT', 'positionCoords': [818.8, 515], 'bid': 5}, {'imgObject': {}, 'id': 'hashbrowns', 'src': '/static/foodstim60/hashbrowns.jpg', 'key': 'i', 'origWidth': 411, 'origHeight': 410, 'width': 411, 'height': 410, 'widthPercent': 0.45, 'rescaleHeight': False, 'trialN': 6, 'loaded': True, 'loadedTime': 3985.199999999255, 'positionName': 'RIGHT', 'positionCoords': [1331.2, 515], 'bid': 4.96}]",16473.699999999255,1669831554489,olives,hashbrowns,5.0,4.96,-0.040000000000000036,olives,1835.800000000745,1836,1836.1000000014901,True,u,18816.0,2342.300000000745,1669831556831,2342,HRV,HRV_0131,2022-11-30 18:12:10
7,"[{'imgObject': {}, 'id': 'hashbrowns', 'src': '/static/foodstim60/hashbrowns.jpg', 'key': 'u', 'origWidth': 411, 'origHeight': 410, 'width': 411, 'height': 410, 'widthPercent': 0.45, 'rescaleHeight': False, 'trialN': 7, 'loaded': True, 'loadedTime': 3985.099999997765, 'positionName': 'LEFT', 'positionCoords': [817.8, 515], 'bid': 4.96}, {'imgObject': {}, 'id': 'froot loops w milk', 'src': '/static/foodstim60/froot loops w milk.jpg', 'key': 'i', 'origWidth': 410, 'origHeight': 410, 'width': 410, 'height': 410, 'widthPercent': 0.45, 'rescaleHeight': False, 'trialN': 7, 'loaded': True, 'loadedTime': 4030.800000000745, 'positionName': 'RIGHT', 'positionCoords': [1331.2, 515], 'bid': 2.76}]",18816.199999999255,1669831556832,hashbrowns,froot loops w milk,4.96,2.76,-2.2,hashbrowns,2587.300000000745,2587,2587.60000000149,True,u,21912.099999997765,3095.89999999851,1669831559927,3095,HRV,HRV_0131,2022-11-30 18:12:10
8,"[{'imgObject': {}, 'id': 'tacos', 'src': '/static/foodstim60/tacos.jpg', 'key': 'u', 'origWidth': 411, 'origHeight': 411, 'width': 411, 'height': 411, 'widthPercent': 0.45, 'rescaleHeight': False, 'trialN': 8, 'loaded': True, 'loadedTime': 4035.599999997765, 'positionName': 'LEFT', 'positionCoords': [817.8, 514.5], 'bid': 10}, {'imgObject': {}, 'id': 'steak', 'src': '/static/foodstim60/steak.jpg', 'key': 'i', 'origWidth': 410, 'origHeight': 410, 'width': 410, 'height': 410, 'widthPercent': 0.45, 'rescaleHeight': False, 'trialN': 8, 'loaded': True, 'loadedTime': 4045, 'positionName': 'RIGHT', 'positionCoords': [1331.2, 515], 'bid': 9.99}]",21912.199999999255,1669831559928,tacos,steak,10.0,9.99,-0.009999999999999787,steak,1275.3999999985099,1275,1275.699999999255,True,i,23706.800000000745,1794.6000000014901,1669831561722,1794,HRV,HRV_0131,2022-11-30 18:12:10
9,"[{'imgObject': {}, 'id': 'mango', 'src': '/static/foodstim60/mango.jpg', 'key': 'u', 'origWidth': 411, 'origHeight': 411, 'width': 411, 'height': 411, 'widthPercent': 0.45, 'rescaleHeight': False, 'trialN': 9, 'loaded': True, 'loadedTime': 4050.199999999255, 'positionName': 'LEFT', 'positionCoords': [817.8, 514.5], 'bid': 10}, {'imgObject': {}, 'id': 'hotdog w must', 'src': '/static/foodstim60/hotdog w must.jpg', 'key': 'i', 'origWidth': 409, 'origHeight': 409, 'width': 409, 'height': 409, 'widthPercent': 0.45, 'rescaleHeight': False, 'trialN': 9, 'loaded': True, 'loadedTime': 4068.199999999255, 'positionName': 'RIGHT', 'positionCoords': [1331.2, 515.5], 'bid': 10}]",23706.89999999851,1669831561722,mango,hotdog w must,10.0,10.0,0.0,mango,1764.6000000014901,1765,1764.800000000745,True,u,25981.39999999851,2274.5,1669831563997,2275,HRV,HRV_0131,2022-11-30 18:12:10
10,"[{'imgObject': {}, 'id': 'cherry tomato', 'src': '/static/foodstim60/cherry tomato.jpg', 'key': 'u', 'origWidth': 410, 'origHeight': 410, 'width': 410, 'height': 410, 'widthPercent': 0.45, 'rescaleHeight': False, 'trialN': 10, 'loaded': True, 'loadedTime': 4016.699999999255, 'positionName': 'LEFT', 'positionCoords': [818.8, 515], 'bid': 2.36}, {'imgObject': {}, 'id': 'popsicles', 'src': '/static/foodstim60/popsicles.jpg', 'key': 'i', 'origWidth': 410, 'origHeight': 410, 'width': 410, 'height': 410, 'widthPercent': 0.45, 'rescaleHeight': False, 'trialN': 10, 'loaded': True, 'loadedTime': 4335.599999997765, 'positionName': 'RIGHT', 'positionCoords': [1331.2, 515], 'bid': 2.07}]",25981.599999997765,1669831563997,cherry tomato,popsicles,2.36,2.07,-0.29000000000000004,cherry tomato,1502.300000000745,1503,1502.6000000014901,True,u,27993.099999997765,2011.5,1669831566008,2011,HRV,HRV_0131,2022-11-30 18:12:10
11,"[{'imgObject': {}, 'id': 'cherry tomato', 'src': '/static/foodstim60/cherry tomato.jpg', 'key': 'u', 'origWidth': 410, 'origHeight': 410, 'width': 410, 'height': 410, 'widthPercent': 0.45, 'rescaleHeight': False, 'trialN': 11, 'loaded': True, 'loadedTime': 4007.800000000745, 'positionName': 'LEFT', 'positionCoords': [818.8, 515], 'bid': 2.36}, {'imgObject': {}, 'id': 'strawberries', 'src': '/static/foodstim60/strawberries.jpg', 'key': 'i', 'origWidth': 410, 'origHeight': 410, 'width': 410, 'height': 410, 'widthPercent': 0.45, 'rescaleHeight': False, 'trialN': 11, 'loaded': True, 'loadedTime': 4082.300000000745, 'positionName': 'RIGHT', 'positionCoords': [1331.2, 515], 'bid': 9.96}]",27993.300000000745,1669831566009,cherry tomato,strawberries,2.36,9.96,7.600000000000001,strawberries,1312.199999999255,1312,1312.5999999977648,True,i,29818.39999999851,1825.0999999977648,1669831567834,1825,HRV,HRV_0131,2022-11-30 18:12:10
12,"[{'imgObject': {}, 'id': 'fruitsalad', 'src': '/static/foodstim60/fruitsalad.jpg', 'key': 'u', 'origWidth': 410, 'origHeight': 410, 'width': 410, 'height': 410, 'widthPercent': 0.45, 'rescaleHeight': False, 'trialN': 12, 'loaded': True, 'loadedTime': 4087.300000000745, 'positionName': 'LEFT', 'positionCoords': [818.8, 515], 'bid': 9.93}, {'imgObject': {}, 'id': 'seaweed', 'src': '/static/foodstim60/seaweed.jpg', 'key': 'i', 'origWidth': 410, 'origHeight': 410, 'width': 410, 'height': 410, 'widthPercent': 0.45, 'rescaleHeight': False, 'trialN': 12, 'loaded': True, 'loadedTime': 3994.099999997765, 'positionName': 'RIGHT', 'positionCoords': [1331.2, 515], 'bid': 7.49}]",29818.5,1669831567834,fruitsalad,seaweed,9.93,7.49,-2.4399999999999995,fruitsalad,961,961,961.3999999985099,True,u,31288.099999997765,1469.5999999977648,1669831569303,1469,HRV,HRV_0131,2022-11-30 18:12:10
13,"[{'imgObject': {}, 'id': 'froot loops w milk', 'src': '/static/foodstim60/froot loops w milk.jpg', 'key': 'u', 'origWidth': 410, 'origHeight': 410, 'width': 410, 'height': 410, 'widthPercent': 0.45, 'rescaleHeight': False, 'trialN': 13, 'loaded': True, 'loadedTime': 4025.699999999255, 'positionName': 'LEFT', 'positionCoords': [818.8, 515], 'bid': 2.76}, {'imgObject': {}, 'id': 'Grapes', 'src': '/static/foodstim60/Grapes.jpg', 'key': 'i', 'origWidth': 411, 'origHeight': 411, 'width': 411, 'height': 411, 'widthPercent': 0.45, 'rescaleHeight': False, 'trialN': 13, 'loaded': True, 'loadedTime': 4109.89999999851, 'positionName': 'RIGHT', 'positionCoords': [1331.2, 514.5], 'bid': 9.98}]",31288.199999999255,1669831569304,froot loops w milk,Grapes,2.76,9.98,7.220000000000001,Grapes,1917.3999999985099,1917,1917.699999999255,True,i,33712.39999999851,2424.199999999255,1669831571728,2424,HRV,HRV_0131,2022-11-30 18:12:10
14,"[{'imgObject': {}, 'id': 'steak', 'src': '/static/foodstim60/steak.jpg', 'key': 'u', 'origWidth': 410, 'origHeight': 410, 'width': 410, 'height': 410, 'widthPercent': 0.45, 'rescaleHeight': False, 'trialN': 14, 'loaded': True, 'loadedTime': 4040.199999999255, 'positionName': 'LEFT', 'positionCoords': [818.8, 515], 'bid': 9.99}, {'imgObject': {}, 'id': 'chickenfingers', 'src': '/static/foodstim60/chickenfingers.jpg', 'key': 'i', 'origWidth': 410, 'origHeight': 410, 'width': 410, 'height': 410, 'widthPercent': 0.45, 'rescaleHeight': False, 'trialN': 14, 'loaded': True, 'loadedTime': 4124.099999997765, 'positionName': 'RIGHT', 'positionCoords': [1331.2, 515], 'bid': 10}]",33712.5,1669831571728,steak,chickenfingers,9.99,10.0,0.009999999999999787,steak,2050.89999999851,2051,2051.300000000745,True,u,36281.39999999851,2568.89999999851,1669831574297,2569,HRV,HRV_0131,2022-11-30 18:12:10
15,"[{'imgObject': {}, 'id': 'orange slices', 'src': '/static/foodstim60/orange slices.jpg', 'key': 'u', 'origWidth': 409, 'origHeight': 410, 'width': 409, 'height': 410, 'widthPercent': 0.45, 'rescaleHeight': False, 'trialN': 15, 'loaded': True, 'loadedTime': 4124.199999999255, 'positionName': 'LEFT', 'positionCoords': [819.8, 515], 'bid': 10}, {'imgObject': {}, 'id': 'banana', 'src': '/static/foodstim60/banana.jpg', 'key': 'i', 'origWidth': 410, 'origHeight': 410, 'width': 410, 'height': 410, 'widthPercent': 0.45, 'rescaleHeight': False, 'trialN': 15, 'loaded': True, 'loadedTime': 4141.39999999851, 'positionName': 'RIGHT', 'positionCoords': [1331.2, 515], 'bid': 10}]",36281.599999997765,1669831574297,orange slices,banana,10.0,10.0,0.0,banana,2242.400000002235,2243,2242.7000000029802,True,i,39037.5,2755.900000002235,1669831577053,2756,HRV,HRV_0131,2022-11-30 18:12:10
16,"[{'imgObject': {}, 'id': 'raspberries', 'src': '/static/foodstim60/raspberries.jpg', 'key': 'u', 'origWidth': 411, 'origHeight': 411, 'width': 411, 'height': 411, 'widthPercent': 0.45, 'rescaleHeight': False, 'trialN': 16, 'loaded': True, 'loadedTime': 3961.800000000745, 'positionName': 'LEFT', 'positionCoords': [817.8, 514.5], 'bid': 9.89}, {'imgObject': {}, 'id': 'cocktailshrimp', 'src': '/static/foodstim60/cocktailshrimp.jpg', 'key': 'i', 'origWidth': 410, 'origHeight': 410, 'width': 410, 'height': 410, 'widthPercent': 0.45, 'rescaleHeight': False, 'trialN': 16, 'loaded': True, 'loadedTime': 4155.89999999851, 'positionName': 'RIGHT', 'positionCoords': [1331.2, 515], 'bid': 2.5}]",39037.699999999255,1669831577053,raspberries,cocktailshrimp,9.89,2.5,-7.390000000000001,raspberries,1371,1372,1371.3999999985099,True,u,40924.300000000745,1886.6000000014901,1669831578940,1887,HRV,HRV_0131,2022-11-30 18:12:10
17,"[{'imgObject': {}, 'id': 'Grapes', 'src': '/static/foodstim60/Grapes.jpg', 'key': 'u', 'origWidth': 411, 'origHeight': 411, 'width': 411, 'height': 411, 'widthPercent': 0.45, 'rescaleHeight': False, 'trialN': 17, 'loaded': True, 'loadedTime': 4110.199999999255, 'positionName': 'LEFT', 'positionCoords': [817.8, 514.5], 'bid': 9.98}, {'imgObject': {}, 'id': 'cheerios', 'src': '/static/foodstim60/cheerios.jpg', 'key': 'i', 'origWidth': 409, 'origHeight': 410, 'width': 409, 'height': 410, 'widthPercent': 0.45, 'rescaleHeight': False, 'trialN': 17, 'loaded': True, 'loadedTime': 4166.5, 'positionName': 'RIGHT', 'positionCoords': [1331.2, 515], 'bid': 9.97}]",40924.5,1669831578940,Grapes,cheerios,9.98,9.97,-0.009999999999999787,cheerios,1885.5999999977648,1886,1885.8999999985099,True,i,43321.89999999851,2397.39999999851,1669831581337,2397,HRV,HRV_0131,2022-11-30 18:12:10
18,"[{'imgObject': {}, 'id': 'avocado', 'src': '/static/foodstim60/avocado.jpg', 'key': 'u', 'origWidth': 409, 'origHeight': 409, 'width': 409, 'height': 409, 'widthPercent': 0.45, 'rescaleHeight': False, 'trialN': 18, 'loaded': True, 'loadedTime': 4172, 'positionName': 'LEFT', 'positionCoords': [819.8, 515.5], 'bid': 9.89}, {'imgObject': {}, 'id': 'roastedpotatoes', 'src': '/static/foodstim60/roastedpotatoes.jpg', 'key': 'i', 'origWidth': 409, 'origHeight': 410, 'width': 409, 'height': 410, 'widthPercent': 0.45, 'rescaleHeight': False, 'trialN': 18, 'loaded': True, 'loadedTime': 4181.599999997765, 'positionName': 'RIGHT', 'positionCoords': [1331.2, 515], 'bid': 9.96}]",43322.099999997765,1669831581337,avocado,roastedpotatoes,9.89,9.96,0.07000000000000028,roastedpotatoes,1381.4000000022352,1382,1381.7000000029802,True,i,45208.300000000745,1886.2000000029802,1669831583224,1887,HRV,HRV_0131,2022-11-30 18:12:10
19,"[{'imgObject': {}, 'id': 'banana', 'src': '/static/foodstim60/banana.jpg', 'key': 'u', 'origWidth': 410, 'origHeight': 410, 'width': 410, 'height': 410, 'widthPercent': 0.45, 'rescaleHeight': False, 'trialN': 19, 'loaded': True, 'loadedTime': 4142, 'positionName': 'LEFT', 'positionCoords': [818.8, 515], 'bid': 10}, {'imgObject': {}, 'id': 'cheerios', 'src': '/static/foodstim60/cheerios.jpg', 'key': 'i', 'origWidth': 409, 'origHeight': 410, 'width': 409, 'height': 410, 'widthPercent': 0.45, 'rescaleHeight': False, 'trialN': 19, 'loaded': True, 'loadedTime': 4161.699999999255, 'positionName': 'RIGHT', 'positionCoords': [1331.2, 515], 'bid': 9.97}]",45208.39999999851,1669831583224,banana,cheerios,10.0,9.97,-0.02999999999999936,cheerios,1327.1000000014901,1327,1327.4000000022352,True,i,47050.0,1841.6000000014901,1669831585065,1841,HRV,HRV_0131,2022-11-30 18:12:10
20,"[{'imgObject': {}, 'id': 'chicken nuggets2', 'src': '/static/foodstim60/chicken nuggets2.jpg', 'key': 'u', 'origWidth': 410, 'origHeight': 409, 'width': 410, 'height': 409, 'widthPercent': 0.45, 'rescaleHeight': False, 'trialN': 20, 'loaded': True, 'loadedTime': 4190, 'positionName': 'LEFT', 'positionCoords': [818.8, 515.5], 'bid': 9.94}, {'imgObject': {}, 'id': 'hotdog w must', 'src': '/static/foodstim60/hotdog w must.jpg', 'key': 'i', 'origWidth': 409, 'origHeight': 409, 'width': 409, 'height': 409, 'widthPercent': 0.45, 'rescaleHeight': False, 'trialN': 20, 'loaded': True, 'loadedTime': 4072.699999999255, 'positionName': 'RIGHT', 'positionCoords': [1331.2, 515.5], 'bid': 10}]",47050.199999999255,1669831585066,chicken nuggets2,hotdog w must,9.94,10.0,0.0600000000000005,hotdog w must,1833.199999999255,1833,1833.3999999985099,True,i,49401.39999999851,2351.199999999255,1669831587417,2351,HRV,HRV_0131,2022-11-30 18:12:10
21,"[{'imgObject': {}, 'id': 'pear', 'src': '/static/foodstim60/pear.jpg', 'key': 'u', 'origWidth': 411, 'origHeight': 410, 'width': 411, 'height': 410, 'widthPercent': 0.45, 'rescaleHeight': False, 'trialN': 21, 'loaded': True, 'loadedTime': 4190.699999999255, 'positionName': 'LEFT', 'positionCoords': [817.8, 515], 'bid': 9.97}, {'imgObject': {}, 'id': 'fruitsalad', 'src': '/static/foodstim60/fruitsalad.jpg', 'key': 'i', 'origWidth': 410, 'origHeight': 410, 'width': 410, 'height': 410, 'widthPercent': 0.45, 'rescaleHeight': False, 'trialN': 21, 'loaded': True, 'loadedTime': 4086.599999997765, 'positionName': 'RIGHT', 'positionCoords': [1331.2, 515], 'bid': 9.93}]",49401.599999997765,1669831587417,pear,fruitsalad,9.97,9.93,-0.040000000000000924,fruitsalad,2032.300000000745,2033,2032.6000000014901,True,i,51939.199999999255,2537.60000000149,1669831589955,2538,HRV,HRV_0131,2022-11-30 18:12:10
22,"[{'imgObject': {}, 'id': 'tacos', 'src': '/static/foodstim60/tacos.jpg', 'key': 'u', 'origWidth': 411, 'origHeight': 411, 'width': 411, 'height': 411, 'widthPercent': 0.45, 'rescaleHeight': False, 'trialN': 22, 'loaded': True, 'loadedTime': 4031.599999997765, 'positionName': 'LEFT', 'positionCoords': [817.8, 514.5], 'bid': 10}, {'imgObject': {}, 'id': 'bagel plain', 'src': '/static/foodstim60/bagel plain.jpg', 'key': 'i', 'origWidth': 410, 'origHeight': 410, 'width': 410, 'height': 410, 'widthPercent': 0.45, 'rescaleHeight': False, 'trialN': 22, 'loaded': True, 'loadedTime': 4200.300000000745, 'positionName': 'RIGHT', 'positionCoords': [1331.2, 515], 'bid': 10}]",51939.300000000745,1669831589955,tacos,bagel plain,10.0,10.0,0.0,tacos,1916,1916,1916.3999999985099,True,u,54367.89999999851,2428.599999997765,1669831592383,2428,HRV,HRV_0131,2022-11-30 18:12:10
23,"[{'imgObject': {}, 'id': 'eggs', 'src': '/static/foodstim60/eggs.jpg', 'key': 'u', 'origWidth': 409, 'origHeight': 409, 'width': 409, 'height': 409, 'widthPercent': 0.45, 'rescaleHeight': False, 'trialN': 23, 'loaded': True, 'loadedTime': 4209.5, 'positionName': 'LEFT', 'positionCoords': [819.8, 515.5], 'bid': 10}, {'imgObject': {}, 'id': 'raspberries', 'src': '/static/foodstim60/raspberries.jpg', 'key': 'i', 'origWidth': 411, 'origHeight': 411, 'width': 411, 'height': 411, 'widthPercent': 0.45, 'rescaleHeight': False, 'trialN': 23, 'loaded': True, 'loadedTime': 3947.699999999255, 'positionName': 'RIGHT', 'positionCoords': [1331.2, 514.5], 'bid': 9.89}]",54368.0,1669831592383,eggs,raspberries,10.0,9.89,-0.10999999999999943,eggs,1629.5,1630,1629.800000000745,True,u,56499.0,2131.0,1669831594514,2131,HRV,HRV_0131,2022-11-30 18:12:10
24,"[{'imgObject': {}, 'id': 'omelette', 'src': '/static/foodstim60/omelette.jpg', 'key': 'u', 'origWidth': 410, 'origHeight': 409, 'width': 410, 'height': 409, 'widthPercent': 0.45, 'rescaleHeight': False, 'trialN': 24, 'loaded': True, 'loadedTime': 4209.800000000745, 'positionName': 'LEFT', 'positionCoords': [818.8, 515.5], 'bid': 9.98}, {'imgObject': {}, 'id': 'salmon', 'src': '/static/foodstim60/salmon.jpg', 'key': 'i', 'origWidth': 410, 'origHeight': 409, 'width': 410, 'height': 409, 'widthPercent': 0.45, 'rescaleHeight': False, 'trialN': 24, 'loaded': True, 'loadedTime': 4214.89999999851, 'positionName': 'RIGHT', 'positionCoords': [1331.2, 515.5], 'bid': 10}]",56499.0,1669831594514,omelette,salmon,9.98,10.0,0.019999999999999574,omelette,1620.300000000745,1621,1620.5999999977648,True,u,58634.0,2135.0,1669831596650,2136,HRV,HRV_0131,2022-11-30 18:12:10
25,"[{'imgObject': {}, 'id': 'cocktailshrimp', 'src': '/static/foodstim60/cocktailshrimp.jpg', 'key': 'u', 'origWidth': 410, 'origHeight': 410, 'width': 410, 'height': 410, 'widthPercent': 0.45, 'rescaleHeight': False, 'trialN': 25, 'loaded': True, 'loadedTime': 4156, 'positionName': 'LEFT', 'positionCoords': [818.8, 515], 'bid': 2.5}, {'imgObject': {}, 'id': 'lox', 'src': '/static/foodstim60/lox.jpg', 'key': 'i', 'origWidth': 410, 'origHeight': 411, 'width': 410, 'height': 411, 'widthPercent': 0.45, 'rescaleHeight': False, 'trialN': 25, 'loaded': True, 'loadedTime': 4232, 'positionName': 'RIGHT', 'positionCoords': [1331.2, 514.5], 'bid': 2.48}]",58634.199999999255,1669831596650,cocktailshrimp,lox,2.5,2.48,-0.020000000000000018,cocktailshrimp,1943.199999999255,1943,1943.5,True,u,61089.099999997765,2454.89999999851,1669831599105,2455,HRV,HRV_0131,2022-11-30 18:12:10
26,"[{'imgObject': {}, 'id': 'baked potato', 'src': '/static/foodstim60/baked potato.jpg', 'key': 'u', 'origWidth': 409, 'origHeight': 410, 'width': 409, 'height': 410, 'widthPercent': 0.45, 'rescaleHeight': False, 'trialN': 26, 'loaded': True, 'loadedTime': 4236.39999999851, 'positionName': 'LEFT', 'positionCoords': [819.8, 515], 'bid': 10}, {'imgObject': {}, 'id': 'grilled chicken strips', 'src': '/static/foodstim60/grilled chicken strips.jpg', 'key': 'i', 'origWidth': 410, 'origHeight': 411, 'width': 410, 'height': 411, 'widthPercent': 0.45, 'rescaleHeight': False, 'trialN': 26, 'loaded': True, 'loadedTime': 4241.5, 'positionName': 'RIGHT', 'positionCoords': [1331.2, 514.5], 'bid': 10}]",61089.199999999255,1669831599105,baked potato,grilled chicken strips,10.0,10.0,0.0,grilled chicken strips,2362.10000000149,2362,2362.5,True,i,63964.699999999255,2875.5,1669831601980,2875,HRV,HRV_0131,2022-11-30 18:12:10
27,"[{'imgObject': {}, 'id': 'sweetpotato', 'src': '/static/foodstim60/sweetpotato.jpg', 'key': 'u', 'origWidth': 410, 'origHeight': 410, 'width': 410, 'height': 410, 'widthPercent': 0.45, 'rescaleHeight': False, 'trialN': 27, 'loaded': True, 'loadedTime': 4242.099999997765, 'positionName': 'LEFT', 'positionCoords': [818.8, 515], 'bid': 9.99}, {'imgObject': {}, 'id': 'orange slices', 'src': '/static/foodstim60/orange slices.jpg', 'key': 'i', 'origWidth': 409, 'origHeight': 410, 'width': 409, 'height': 410, 'widthPercent': 0.45, 'rescaleHeight': False, 'trialN': 27, 'loaded': True, 'loadedTime': 4137.199999999255, 'positionName': 'RIGHT', 'positionCoords': [1331.2, 515], 'bid': 10}]",63964.800000000745,1669831601980,sweetpotato,orange slices,9.99,10.0,0.009999999999999787,sweetpotato,1386.5,1387,1386.8999999985099,True,u,65856.89999999851,1892.0999999977648,1669831603873,1893,HRV,HRV_0131,2022-11-30 18:12:10
28,"[{'imgObject': {}, 'id': 'burrito', 'src': '/static/foodstim60/burrito.jpg', 'key': 'u', 'origWidth': 410, 'origHeight': 410, 'width': 410, 'height': 410, 'widthPercent': 0.45, 'rescaleHeight': False, 'trialN': 28, 'loaded': True, 'loadedTime': 4246.89999999851, 'positionName': 'LEFT', 'positionCoords': [818.8, 515], 'bid': 10}, {'imgObject': {}, 'id': 'strawberries', 'src': '/static/foodstim60/strawberries.jpg', 'key': 'i', 'origWidth': 410, 'origHeight': 410, 'width': 410, 'height': 410, 'widthPercent': 0.45, 'rescaleHeight': False, 'trialN': 28, 'loaded': True, 'loadedTime': 4077.699999999255, 'positionName': 'RIGHT', 'positionCoords': [1331.2, 515], 'bid': 9.96}]",65857.0,1669831603873,burrito,strawberries,10.0,9.96,-0.03999999999999915,burrito,2036.3999999985099,2036,2036.699999999255,True,u,68399.30000000075,2542.300000000745,1669831606415,2542,HRV,HRV_0131,2022-11-30 18:12:10
29,"[{'imgObject': {}, 'id': 'raisin bran w milk', 'src': '/static/foodstim60/raisin bran w milk.jpg', 'key': 'u', 'origWidth': 411, 'origHeight': 411, 'width': 411, 'height': 411, 'widthPercent': 0.45, 'rescaleHeight': False, 'trialN': 29, 'loaded': True, 'loadedTime': 4251.199999999255, 'positionName': 'LEFT', 'positionCoords': [817.8, 514.5], 'bid': 7.82}, {'imgObject': {}, 'id': 'seaweed', 'src': '/static/foodstim60/seaweed.jpg', 'key': 'i', 'origWidth': 410, 'origHeight': 410, 'width': 410, 'height': 410, 'widthPercent': 0.45, 'rescaleHeight': False, 'trialN': 29, 'loaded': True, 'loadedTime': 3989.39999999851, 'positionName': 'RIGHT', 'positionCoords': [1331.2, 515], 'bid': 7.49}]",68399.5,1669831606415,raisin bran w milk,seaweed,7.82,7.49,-0.33000000000000007,raisin bran w milk,1443.800000000745,1444,1444.199999999255,True,u,70351.59999999776,1952.0999999977648,1669831608367,1952,HRV,HRV_0131,2022-11-30 18:12:10
30,"[{'imgObject': {}, 'id': 'luckycharms', 'src': '/static/foodstim60/luckycharms.jpg', 'key': 'u', 'origWidth': 410, 'origHeight': 409, 'width': 410, 'height': 409, 'widthPercent': 0.45, 'rescaleHeight': False, 'trialN': 30, 'loaded': True, 'loadedTime': 3833.89999999851, 'positionName': 'LEFT', 'positionCoords': [818.8, 515.5], 'bid': 2.39}, {'imgObject': {}, 'id': 'edamame', 'src': '/static/foodstim60/edamame.jpg', 'key': 'i', 'origWidth': 409, 'origHeight': 410, 'width': 409, 'height': 410, 'widthPercent': 0.45, 'rescaleHeight': False, 'trialN': 30, 'loaded': True, 'loadedTime': 4260.5, 'positionName': 'RIGHT', 'positionCoords': [1331.2, 515], 'bid': 2.48}]",70351.80000000075,1669831608367,luckycharms,edamame,2.39,2.48,0.08999999999999986,luckycharms,1389.3999999985099,1390,1389.7999999970198,True,u,72256.39999999851,1904.5999999977648,1669831610272,1905,HRV,HRV_0131,2022-11-30 18:12:10
31,"[{'imgObject': {}, 'id': 'froot loops w milk', 'src': '/static/foodstim60/froot loops w milk.jpg', 'key': 'u', 'origWidth': 410, 'origHeight': 410, 'width': 410, 'height': 410, 'widthPercent': 0.45, 'rescaleHeight': False, 'trialN': 31, 'loaded': True, 'loadedTime': 4021, 'positionName': 'LEFT', 'positionCoords': [818.8, 515], 'bid': 2.76}, {'imgObject': {}, 'id': 'corn cob', 'src': '/static/foodstim60/corn cob.jpg', 'key': 'i', 'origWidth': 411, 'origHeight': 411, 'width': 411, 'height': 411, 'widthPercent': 0.45, 'rescaleHeight': False, 'trialN': 31, 'loaded': True, 'loadedTime': 4270.599999997765, 'positionName': 'RIGHT', 'positionCoords': [1331.2, 514.5], 'bid': 8.24}]",72256.5,1669831610272,froot loops w milk,corn cob,2.76,8.24,5.48,froot loops w milk,2132.89999999851,2133,2133.199999999255,True,u,74903.5,2647.0,1669831612919,2647,HRV,HRV_0131,2022-11-30 18:12:10
32,"[{'imgObject': {}, 'id': 'mashed potato', 'src': '/static/foodstim60/mashed potato.jpg', 'key': 'u', 'origWidth': 409, 'origHeight': 409, 'width': 409, 'height': 409, 'widthPercent': 0.45, 'rescaleHeight': False, 'trialN': 32, 'loaded': True, 'loadedTime': 3943.300000000745, 'positionName': 'LEFT', 'positionCoords': [819.8, 515.5], 'bid': 2.29}, {'imgObject': {}, 'id': 'rigatoni', 'src': '/static/foodstim60/rigatoni.jpg', 'key': 'i', 'origWidth': 411, 'origHeight': 411, 'width': 411, 'height': 411, 'widthPercent': 0.45, 'rescaleHeight': False, 'trialN': 32, 'loaded': True, 'loadedTime': 4271.300000000745, 'positionName': 'RIGHT', 'positionCoords': [1331.2, 514.5], 'bid': 8.17}]",74903.69999999925,1669831612919,mashed potato,rigatoni,2.29,8.17,5.88,rigatoni,1589.6000000014901,1590,1589.8999999985099,True,i,77012.09999999776,2108.39999999851,1669831615028,2109,HRV,HRV_0131,2022-11-30 18:12:10
33,"[{'imgObject': {}, 'id': 'Tribe humus pita', 'src': '/static/foodstim60/Tribe humus pita.jpg', 'key': 'u', 'origWidth': 411, 'origHeight': 411, 'width': 411, 'height': 411, 'widthPercent': 0.45, 'rescaleHeight': False, 'trialN': 33, 'loaded': True, 'loadedTime': 3975.39999999851, 'positionName': 'LEFT', 'positionCoords': [817.8, 514.5], 'bid': 8.47}, {'imgObject': {}, 'id': 'tacos', 'src': '/static/foodstim60/tacos.jpg', 'key': 'i', 'origWidth': 411, 'origHeight': 411, 'width': 411, 'height': 411, 'widthPercent': 0.45, 'rescaleHeight': False, 'trialN': 33, 'loaded': True, 'loadedTime': 4030.89999999851, 'positionName': 'RIGHT', 'positionCoords': [1331.2, 514.5], 'bid': 10}]",77012.19999999925,1669831615028,Tribe humus pita,tacos,8.47,10.0,1.5299999999999994,Tribe humus pita,2135.199999999255,2135,2135.5,True,u,79663.80000000075,2651.60000000149,1669831617679,2651,HRV,HRV_0131,2022-11-30 18:12:10
34,"[{'imgObject': {}, 'id': 'salad w chicken', 'src': '/static/foodstim60/salad w chicken.jpg', 'key': 'u', 'origWidth': 411, 'origHeight': 411, 'width': 411, 'height': 411, 'widthPercent': 0.45, 'rescaleHeight': False, 'trialN': 34, 'loaded': True, 'loadedTime': 4280.699999999255, 'positionName': 'LEFT', 'positionCoords': [817.8, 514.5], 'bid': 10}, {'imgObject': {}, 'id': 'orange slices', 'src': '/static/foodstim60/orange slices.jpg', 'key': 'i', 'origWidth': 409, 'origHeight': 410, 'width': 409, 'height': 410, 'widthPercent': 0.45, 'rescaleHeight': False, 'trialN': 34, 'loaded': True, 'loadedTime': 4128.39999999851, 'positionName': 'RIGHT', 'positionCoords': [1331.2, 515], 'bid': 10}]",79663.89999999851,1669831617680,salad w chicken,orange slices,10.0,10.0,0.0,salad w chicken,1517.4000000022352,1517,1517.699999999255,True,u,81694.09999999776,2030.199999999255,1669831619710,2030,HRV,HRV_0131,2022-11-30 18:12:10
35,"[{'imgObject': {}, 'id': 'eggsalad', 'src': '/static/foodstim60/eggsalad.jpg', 'key': 'u', 'origWidth': 410, 'origHeight': 409, 'width': 410, 'height': 409, 'widthPercent': 0.45, 'rescaleHeight': False, 'trialN': 35, 'loaded': True, 'loadedTime': 4285.800000000745, 'positionName': 'LEFT', 'positionCoords': [818.8, 515.5], 'bid': 9.92}, {'imgObject': {}, 'id': 'shreddedwheatwithmilk', 'src': '/static/foodstim60/shreddedwheatwithmilk.jpg', 'key': 'i', 'origWidth': 410, 'origHeight': 410, 'width': 410, 'height': 410, 'widthPercent': 0.45, 'rescaleHeight': False, 'trialN': 35, 'loaded': True, 'loadedTime': 4294.89999999851, 'positionName': 'RIGHT', 'positionCoords': [1331.2, 515], 'bid': 9.92}]",81694.19999999925,1669831619710,eggsalad,shreddedwheatwithmilk,9.92,9.92,0.0,shreddedwheatwithmilk,1781,1781,1781.300000000745,True,i,83986.0,2291.800000000745,1669831622002,2292,HRV,HRV_0131,2022-11-30 18:12:10
36,"[{'imgObject': {}, 'id': 'Grapes', 'src': '/static/foodstim60/Grapes.jpg', 'key': 'u', 'origWidth': 411, 'origHeight': 411, 'width': 411, 'height': 411, 'widthPercent': 0.45, 'rescaleHeight': False, 'trialN': 36, 'loaded': True, 'loadedTime': 4101.89999999851, 'positionName': 'LEFT', 'positionCoords': [817.8, 514.5], 'bid': 9.98}, {'imgObject': {}, 'id': 'chicken nuggets2', 'src': '/static/foodstim60/chicken nuggets2.jpg', 'key': 'i', 'origWidth': 410, 'origHeight': 409, 'width': 410, 'height': 409, 'widthPercent': 0.45, 'rescaleHeight': False, 'trialN': 36, 'loaded': True, 'loadedTime': 4190, 'positionName': 'RIGHT', 'positionCoords': [1331.2, 515.5], 'bid': 9.94}]",83986.19999999925,1669831622002,Grapes,chicken nuggets2,9.98,9.94,-0.040000000000000924,chicken nuggets2,1842.8999999985099,1843,1843.300000000745,True,i,86336.59999999776,2350.39999999851,1669831624352,2350,HRV,HRV_0131,2022-11-30 18:12:10
37,"[{'imgObject': {}, 'id': 'roastedpotatoes', 'src': '/static/foodstim60/roastedpotatoes.jpg', 'key': 'u', 'origWidth': 409, 'origHeight': 410, 'width': 409, 'height': 410, 'widthPercent': 0.45, 'rescaleHeight': False, 'trialN': 37, 'loaded': True, 'loadedTime': 4181.39999999851, 'positionName': 'LEFT', 'positionCoords': [819.8, 515], 'bid': 9.96}, {'imgObject': {}, 'id': 'blueberries', 'src': '/static/foodstim60/blueberries.jpg', 'key': 'i', 'origWidth': 411, 'origHeight': 411, 'width': 411, 'height': 411, 'widthPercent': 0.45, 'rescaleHeight': False, 'trialN': 37, 'loaded': True, 'loadedTime': 4300.099999997765, 'positionName': 'RIGHT', 'positionCoords': [1331.2, 514.5], 'bid': 9.96}]",86336.69999999925,1669831624352,roastedpotatoes,blueberries,9.96,9.96,0.0,roastedpotatoes,1491.6000000014901,1492,1491.800000000745,True,u,88345.0,2008.300000000745,1669831626361,2009,HRV,HRV_0131,2022-11-30 18:12:10
38,"[{'imgObject': {}, 'id': 'blueberries', 'src': '/static/foodstim60/blueberries.jpg', 'key': 'u', 'origWidth': 411, 'origHeight': 411, 'width': 411, 'height': 411, 'widthPercent': 0.45, 'rescaleHeight': False, 'trialN': 38, 'loaded': True, 'loadedTime': 4295, 'positionName': 'LEFT', 'positionCoords': [817.8, 514.5], 'bid': 9.96}, {'imgObject': {}, 'id': 'cherries', 'src': '/static/foodstim60/cherries.jpg', 'key': 'i', 'origWidth': 410, 'origHeight': 411, 'width': 410, 'height': 411, 'widthPercent': 0.45, 'rescaleHeight': False, 'trialN': 38, 'loaded': True, 'loadedTime': 3889, 'positionName': 'RIGHT', 'positionCoords': [1331.2, 514.5], 'bid': 9.96}]",88345.09999999776,1669831626361,blueberries,cherries,9.96,9.96,0.0,cherries,2993.300000000745,2993,2993.60000000149,True,i,91857.69999999925,3512.60000000149,1669831629873,3512,HRV,HRV_0131,2022-11-30 18:12:10
39,"[{'imgObject': {}, 'id': 'veggieswithdip', 'src': '/static/foodstim60/veggieswithdip.jpg', 'key': 'u', 'origWidth': 409, 'origHeight': 409, 'width': 409, 'height': 409, 'widthPercent': 0.45, 'rescaleHeight': False, 'trialN': 39, 'loaded': True, 'loadedTime': 4309.5, 'positionName': 'LEFT', 'positionCoords': [819.8, 515.5], 'bid': 7.65}, {'imgObject': {}, 'id': 'seaweed', 'src': '/static/foodstim60/seaweed.jpg', 'key': 'i', 'origWidth': 410, 'origHeight': 410, 'width': 410, 'height': 410, 'widthPercent': 0.45, 'rescaleHeight': False, 'trialN': 39, 'loaded': True, 'loadedTime': 4002.699999999255, 'positionName': 'RIGHT', 'positionCoords': [1331.2, 515], 'bid': 7.49}]",91857.89999999851,1669831629874,veggieswithdip,seaweed,7.65,7.49,-0.16000000000000014,veggieswithdip,1394.4000000022352,1394,1394.6000000014901,True,u,93759.19999999925,1901.300000000745,1669831631775,1901,HRV,HRV_0131,2022-11-30 18:12:10
40,"[{'imgObject': {}, 'id': 'veggieswithdip', 'src': '/static/foodstim60/veggieswithdip.jpg', 'key': 'u', 'origWidth': 409, 'origHeight': 409, 'width': 409, 'height': 409, 'widthPercent': 0.45, 'rescaleHeight': False, 'trialN': 40, 'loaded': True, 'loadedTime': 4300.300000000745, 'positionName': 'LEFT', 'positionCoords': [819.8, 515.5], 'bid': 7.65}, {'imgObject': {}, 'id': 'blackbeanswithrice', 'src': '/static/foodstim60/blackbeanswithrice.jpg', 'key': 'i', 'origWidth': 410, 'origHeight': 410, 'width': 410, 'height': 410, 'widthPercent': 0.45, 'rescaleHeight': False, 'trialN': 40, 'loaded': True, 'loadedTime': 4310.39999999851, 'positionName': 'RIGHT', 'positionCoords': [1331.2, 515], 'bid': 2.37}]",93759.39999999851,1669831631775,veggieswithdip,blackbeanswithrice,7.65,2.37,-5.28,veggieswithdip,1322.699999999255,1323,1323.1000000014901,True,u,95597.19999999925,1837.800000000745,1669831633613,1838,HRV,HRV_0131,2022-11-30 18:12:10
41,"[{'imgObject': {}, 'id': 'granola w milk', 'src': '/static/foodstim60/granola w milk.jpg', 'key': 'u', 'origWidth': 410, 'origHeight': 410, 'width': 410, 'height': 410, 'widthPercent': 0.45, 'rescaleHeight': False, 'trialN': 41, 'loaded': True, 'loadedTime': 4310.89999999851, 'positionName': 'LEFT', 'positionCoords': [818.8, 515], 'bid': 8.46}, {'imgObject': {}, 'id': 'corn cob', 'src': '/static/foodstim60/corn cob.jpg', 'key': 'i', 'origWidth': 411, 'origHeight': 411, 'width': 411, 'height': 411, 'widthPercent': 0.45, 'rescaleHeight': False, 'trialN': 41, 'loaded': True, 'loadedTime': 4261.39999999851, 'positionName': 'RIGHT', 'positionCoords': [1331.2, 514.5], 'bid': 8.24}]",95597.30000000075,1669831633613,granola w milk,corn cob,8.46,8.24,-0.22000000000000064,granola w milk,1237.2999999970198,1238,1237.5999999977648,True,u,97346.59999999776,1749.2999999970198,1669831635362,1749,HRV,HRV_0131,2022-11-30 18:12:10
42,"[{'imgObject': {}, 'id': 'sweetpotato', 'src': '/static/foodstim60/sweetpotato.jpg', 'key': 'u', 'origWidth': 410, 'origHeight': 410, 'width': 410, 'height': 410, 'widthPercent': 0.45, 'rescaleHeight': False, 'trialN': 42, 'loaded': True, 'loadedTime': 4241.89999999851, 'positionName': 'LEFT', 'positionCoords': [818.8, 515], 'bid': 9.99}, {'imgObject': {}, 'id': 'steak', 'src': '/static/foodstim60/steak.jpg', 'key': 'i', 'origWidth': 410, 'origHeight': 410, 'width': 410, 'height': 410, 'widthPercent': 0.45, 'rescaleHeight': False, 'trialN': 42, 'loaded': True, 'loadedTime': 4045.39999999851, 'positionName': 'RIGHT', 'positionCoords': [1331.2, 515], 'bid': 9.99}]",97346.80000000075,1669831635362,sweetpotato,steak,9.99,9.99,0.0,steak,1873.2999999970198,1874,1873.5999999977648,True,i,99729.80000000075,2383.0,1669831637745,2383,HRV,HRV_0131,2022-11-30 18:12:10
43,"[{'imgObject': {}, 'id': 'mango', 'src': '/static/foodstim60/mango.jpg', 'key': 'u', 'origWidth': 411, 'origHeight': 411, 'width': 411, 'height': 411, 'widthPercent': 0.45, 'rescaleHeight': False, 'trialN': 43, 'loaded': True, 'loadedTime': 4067.800000000745, 'positionName': 'LEFT', 'positionCoords': [817.8, 514.5], 'bid': 10}, {'imgObject': {}, 'id': 'tacos', 'src': '/static/foodstim60/tacos.jpg', 'key': 'i', 'origWidth': 411, 'origHeight': 411, 'width': 411, 'height': 411, 'widthPercent': 0.45, 'rescaleHeight': False, 'trialN': 43, 'loaded': True, 'loadedTime': 4035.800000000745, 'positionName': 'RIGHT', 'positionCoords': [1331.2, 514.5], 'bid': 10}]",99730.0,1669831637746,mango,tacos,10.0,10.0,0.0,tacos,3204.89999999851,3205,3205.199999999255,True,i,103444.69999999925,3714.699999999255,1669831641460,3714,HRV,HRV_0131,2022-11-30 18:12:10
44,"[{'imgObject': {}, 'id': 'avocado', 'src': '/static/foodstim60/avocado.jpg', 'key': 'u', 'origWidth': 409, 'origHeight': 409, 'width': 409, 'height': 409, 'widthPercent': 0.45, 'rescaleHeight': False, 'trialN': 44, 'loaded': True, 'loadedTime': 4176.199999999255, 'positionName': 'LEFT', 'positionCoords': [819.8, 515.5], 'bid': 9.89}, {'imgObject': {}, 'id': 'yogurt no spoon', 'src': '/static/foodstim60/yogurt no spoon.jpg', 'key': 'i', 'origWidth': 411, 'origHeight': 410, 'width': 411, 'height': 410, 'widthPercent': 0.45, 'rescaleHeight': False, 'trialN': 44, 'loaded': True, 'loadedTime': 4316.099999997765, 'positionName': 'RIGHT', 'positionCoords': [1331.2, 515], 'bid': 8.23}]",103444.89999999851,1669831641461,avocado,yogurt no spoon,9.89,8.23,-1.6600000000000001,yogurt no spoon,1947.199999999255,1947,1947.6000000014901,True,i,105909.39999999851,2464.5,1669831643925,2464,HRV,HRV_0131,2022-11-30 18:12:10
45,"[{'imgObject': {}, 'id': 'raspberries', 'src': '/static/foodstim60/raspberries.jpg', 'key': 'u', 'origWidth': 411, 'origHeight': 411, 'width': 411, 'height': 411, 'widthPercent': 0.45, 'rescaleHeight': False, 'trialN': 45, 'loaded': True, 'loadedTime': 3957, 'positionName': 'LEFT', 'positionCoords': [817.8, 514.5], 'bid': 9.89}, {'imgObject': {}, 'id': 'avocado', 'src': '/static/foodstim60/avocado.jpg', 'key': 'i', 'origWidth': 409, 'origHeight': 409, 'width': 409, 'height': 409, 'widthPercent': 0.45, 'rescaleHeight': False, 'trialN': 45, 'loaded': True, 'loadedTime': 4172.099999997765, 'positionName': 'RIGHT', 'positionCoords': [1331.2, 515.5], 'bid': 9.89}]",105909.5,1669831643925,raspberries,avocado,9.89,9.89,0.0,avocado,1912.699999999255,1913,1913.0,True,i,108339.0,2429.5,1669831646355,2430,HRV,HRV_0131,2022-11-30 18:12:10
46,"[{'imgObject': {}, 'id': 'apple slices', 'src': '/static/foodstim60/apple slices.jpg', 'key': 'u', 'origWidth': 409, 'origHeight': 410, 'width': 409, 'height': 410, 'widthPercent': 0.45, 'rescaleHeight': False, 'trialN': 46, 'loaded': True, 'loadedTime': 3873.5, 'positionName': 'LEFT', 'positionCoords': [819.8, 515], 'bid': 10}, {'imgObject': {}, 'id': 'turkey sandwich', 'src': '/static/foodstim60/turkey sandwich.jpg', 'key': 'i', 'origWidth': 409, 'origHeight': 409, 'width': 409, 'height': 409, 'widthPercent': 0.45, 'rescaleHeight': False, 'trialN': 46, 'loaded': True, 'loadedTime': 4316.89999999851, 'positionName': 'RIGHT', 'positionCoords': [1331.2, 515.5], 'bid': 10}]",108339.09999999776,1669831646355,apple slices,turkey sandwich,10.0,10.0,0.0,turkey sandwich,1753.1000000014901,1753,1753.300000000745,True,i,110612.19999999925,2273.10000000149,1669831648628,2273,HRV,HRV_0131,2022-11-30 18:12:10
47,"[{'imgObject': {}, 'id': 'sweetpotato', 'src': '/static/foodstim60/sweetpotato.jpg', 'key': 'u', 'origWidth': 410, 'origHeight': 410, 'width': 410, 'height': 410, 'widthPercent': 0.45, 'rescaleHeight': False, 'trialN': 47, 'loaded': True, 'loadedTime': 4241.599999997765, 'positionName': 'LEFT', 'positionCoords': [818.8, 515], 'bid': 9.99}, {'imgObject': {}, 'id': 'bagel plain', 'src': '/static/foodstim60/bagel plain.jpg', 'key': 'i', 'origWidth': 410, 'origHeight': 410, 'width': 410, 'height': 410, 'widthPercent': 0.45, 'rescaleHeight': False, 'trialN': 47, 'loaded': True, 'loadedTime': 4200.300000000745, 'positionName': 'RIGHT', 'positionCoords': [1331.2, 515], 'bid': 10}]",110612.30000000075,1669831648628,sweetpotato,bagel plain,9.99,10.0,0.009999999999999787,sweetpotato,1549.8999999985099,1550,1550.199999999255,True,u,112674.69999999925,2062.39999999851,1669831650690,2062,HRV,HRV_0131,2022-11-30 18:12:10
48,"[{'imgObject': {}, 'id': 'turkeysandwich', 'src': '/static/foodstim60/turkeysandwich.jpg', 'key': 'u', 'origWidth': 409, 'origHeight': 409, 'width': 409, 'height': 409, 'widthPercent': 0.45, 'rescaleHeight': False, 'trialN': 48, 'loaded': True, 'loadedTime': 4321, 'positionName': 'LEFT', 'positionCoords': [819.8, 515.5], 'bid': 9.96}, {'imgObject': {}, 'id': 'mashed potato', 'src': '/static/foodstim60/mashed potato.jpg', 'key': 'i', 'origWidth': 409, 'origHeight': 409, 'width': 409, 'height': 409, 'widthPercent': 0.45, 'rescaleHeight': False, 'trialN': 48, 'loaded': True, 'loadedTime': 3943.099999997765, 'positionName': 'RIGHT', 'positionCoords': [1331.2, 515.5], 'bid': 2.29}]",112674.80000000075,1669831650690,turkeysandwich,mashed potato,9.96,2.29,-7.670000000000001,turkeysandwich,1781.3999999985099,1782,1781.699999999255,True,u,114964.80000000075,2290.0,1669831652980,2290,HRV,HRV_0131,2022-11-30 18:12:10
49,"[{'imgObject': {}, 'id': 'lox', 'src': '/static/foodstim60/lox.jpg', 'key': 'u', 'origWidth': 410, 'origHeight': 411, 'width': 410, 'height': 411, 'widthPercent': 0.45, 'rescaleHeight': False, 'trialN': 49, 'loaded': True, 'loadedTime': 4228, 'positionName': 'LEFT', 'positionCoords': [818.8, 514.5], 'bid': 2.48}, {'imgObject': {}, 'id': 'kiwi', 'src': '/static/foodstim60/kiwi.jpg', 'key': 'i', 'origWidth': 410, 'origHeight': 410, 'width': 410, 'height': 410, 'widthPercent': 0.45, 'rescaleHeight': False, 'trialN': 49, 'loaded': True, 'loadedTime': 4325.300000000745, 'positionName': 'RIGHT', 'positionCoords': [1331.2, 515], 'bid': 8.03}]",114965.0,1669831652981,lox,kiwi,2.48,8.03,5.549999999999999,kiwi,1306.199999999255,1306,1306.5,True,i,116788.09999999776,1823.0999999977648,1669831654804,1823,HRV,HRV_0131,2022-11-30 18:12:10
50,"[{'imgObject': {}, 'id': 'shreddedwheatwithmilk', 'src': '/static/foodstim60/shreddedwheatwithmilk.jpg', 'key': 'u', 'origWidth': 410, 'origHeight': 410, 'width': 410, 'height': 410, 'widthPercent': 0.45, 'rescaleHeight': False, 'trialN': 50, 'loaded': True, 'loadedTime': 4290.300000000745, 'positionName': 'LEFT', 'positionCoords': [818.8, 515], 'bid': 9.92}, {'imgObject': {}, 'id': 'rigatoni and sauce', 'src': '/static/foodstim60/rigatoni and sauce.jpg', 'key': 'i', 'origWidth': 410, 'origHeight': 411, 'width': 410, 'height': 411, 'widthPercent': 0.45, 'rescaleHeight': False, 'trialN': 50, 'loaded': True, 'loadedTime': 3907.599999997765, 'positionName': 'RIGHT', 'positionCoords': [1331.2, 514.5], 'bid': 10}]",116788.19999999925,1669831654804,shreddedwheatwithmilk,rigatoni and sauce,9.92,10.0,0.08000000000000007,rigatoni and sauce,1051.8999999985099,1052,1052.199999999255,True,i,118351.39999999851,1563.199999999255,1669831656367,1563,HRV,HRV_0131,2022-11-30 18:12:10
51,"[{'imgObject': {}, 'id': 'froot loops w milk', 'src': '/static/foodstim60/froot loops w milk.jpg', 'key': 'u', 'origWidth': 410, 'origHeight': 410, 'width': 410, 'height': 410, 'widthPercent': 0.45, 'rescaleHeight': False, 'trialN': 51, 'loaded': True, 'loadedTime': 4025.699999999255, 'positionName': 'LEFT', 'positionCoords': [818.8, 515], 'bid': 2.76}, {'imgObject': {}, 'id': 'avocado', 'src': '/static/foodstim60/avocado.jpg', 'key': 'i', 'origWidth': 409, 'origHeight': 409, 'width': 409, 'height': 409, 'widthPercent': 0.45, 'rescaleHeight': False, 'trialN': 51, 'loaded': True, 'loadedTime': 4171.199999999255, 'positionName': 'RIGHT', 'positionCoords': [1331.2, 515.5], 'bid': 9.89}]",118351.59999999776,1669831656367,froot loops w milk,avocado,2.76,9.89,7.130000000000001,avocado,1504.5,1505,1504.9000000022352,True,i,120366.5,2014.9000000022352,1669831658382,2015,HRV,HRV_0131,2022-11-30 18:12:10
52,"[{'imgObject': {}, 'id': 'roastedpotatoes', 'src': '/static/foodstim60/roastedpotatoes.jpg', 'key': 'u', 'origWidth': 409, 'origHeight': 410, 'width': 409, 'height': 410, 'widthPercent': 0.45, 'rescaleHeight': False, 'trialN': 52, 'loaded': True, 'loadedTime': 4180.599999997765, 'positionName': 'LEFT', 'positionCoords': [819.8, 515], 'bid': 9.96}, {'imgObject': {}, 'id': 'strawberries', 'src': '/static/foodstim60/strawberries.jpg', 'key': 'i', 'origWidth': 410, 'origHeight': 410, 'width': 410, 'height': 410, 'widthPercent': 0.45, 'rescaleHeight': False, 'trialN': 52, 'loaded': True, 'loadedTime': 4082.599999997765, 'positionName': 'RIGHT', 'positionCoords': [1331.2, 515], 'bid': 9.96}]",120366.69999999925,1669831658382,roastedpotatoes,strawberries,9.96,9.96,0.0,roastedpotatoes,805.3999999985099,806,805.6999999992549,True,u,121680.5,1313.800000000745,1669831659696,1314,HRV,HRV_0131,2022-11-30 18:12:10
53,"[{'imgObject': {}, 'id': 'Grapes', 'src': '/static/foodstim60/Grapes.jpg', 'key': 'u', 'origWidth': 411, 'origHeight': 411, 'width': 411, 'height': 411, 'widthPercent': 0.45, 'rescaleHeight': False, 'trialN': 53, 'loaded': True, 'loadedTime': 4110.099999997765, 'positionName': 'LEFT', 'positionCoords': [817.8, 514.5], 'bid': 9.98}, {'imgObject': {}, 'id': 'omelette', 'src': '/static/foodstim60/omelette.jpg', 'key': 'i', 'origWidth': 410, 'origHeight': 409, 'width': 410, 'height': 409, 'widthPercent': 0.45, 'rescaleHeight': False, 'trialN': 53, 'loaded': True, 'loadedTime': 4210.39999999851, 'positionName': 'RIGHT', 'positionCoords': [1331.2, 515.5], 'bid': 9.98}]",121680.69999999925,1669831659696,Grapes,omelette,9.98,9.98,0.0,omelette,1225.3999999985099,1226,1225.699999999255,True,i,123428.0,1747.300000000745,1669831661443,1747,HRV,HRV_0131,2022-11-30 18:12:10
54,"[{'imgObject': {}, 'id': 'rigatoni and sauce', 'src': '/static/foodstim60/rigatoni and sauce.jpg', 'key': 'u', 'origWidth': 410, 'origHeight': 411, 'width': 410, 'height': 411, 'widthPercent': 0.45, 'rescaleHeight': False, 'trialN': 54, 'loaded': True, 'loadedTime': 3903.199999999255, 'positionName': 'LEFT', 'positionCoords': [818.8, 514.5], 'bid': 10}, {'imgObject': {}, 'id': 'eggs', 'src': '/static/foodstim60/eggs.jpg', 'key': 'i', 'origWidth': 409, 'origHeight': 409, 'width': 409, 'height': 409, 'widthPercent': 0.45, 'rescaleHeight': False, 'trialN': 54, 'loaded': True, 'loadedTime': 4209.800000000745, 'positionName': 'RIGHT', 'positionCoords': [1331.2, 515.5], 'bid': 10}]",123428.09999999776,1669831661444,rigatoni and sauce,eggs,10.0,10.0,0.0,rigatoni and sauce,1600.2000000029802,1600,1600.4000000022352,True,u,125550.30000000075,2122.2000000029802,1669831663566,2122,HRV,HRV_0131,2022-11-30 18:12:10
55,"[{'imgObject': {}, 'id': 'Grapes', 'src': '/static/foodstim60/Grapes.jpg', 'key': 'u', 'origWidth': 411, 'origHeight': 411, 'width': 411, 'height': 411, 'widthPercent': 0.45, 'rescaleHeight': False, 'trialN': 55, 'loaded': True, 'loadedTime': 4101.199999999255, 'positionName': 'LEFT', 'positionCoords': [817.8, 514.5], 'bid': 9.98}, {'imgObject': {}, 'id': 'fried eggs', 'src': '/static/foodstim60/fried eggs.jpg', 'key': 'i', 'origWidth': 410, 'origHeight': 410, 'width': 410, 'height': 410, 'widthPercent': 0.45, 'rescaleHeight': False, 'trialN': 55, 'loaded': True, 'loadedTime': 4330.89999999851, 'positionName': 'RIGHT', 'positionCoords': [1331.2, 515], 'bid': 10}]",125550.5,1669831663566,Grapes,fried eggs,9.98,10.0,0.019999999999999574,fried eggs,1029.5999999977648,1030,1029.8999999985099,True,i,127099.0,1548.5,1669831665114,1548,HRV,HRV_0131,2022-11-30 18:12:10
56,"[{'imgObject': {}, 'id': 'bagel and cc', 'src': '/static/foodstim60/bagel and cc.jpg', 'key': 'u', 'origWidth': 410, 'origHeight': 410, 'width': 410, 'height': 410, 'widthPercent': 0.45, 'rescaleHeight': False, 'trialN': 56, 'loaded': True, 'loadedTime': 4331.099999997765, 'positionName': 'LEFT', 'positionCoords': [818.8, 515], 'bid': 9.92}, {'imgObject': {}, 'id': 'cheerios', 'src': '/static/foodstim60/cheerios.jpg', 'key': 'i', 'origWidth': 409, 'origHeight': 410, 'width': 409, 'height': 410, 'widthPercent': 0.45, 'rescaleHeight': False, 'trialN': 56, 'loaded': True, 'loadedTime': 4160.800000000745, 'positionName': 'RIGHT', 'positionCoords': [1331.2, 515], 'bid': 9.97}]",127099.09999999776,1669831665115,bagel and cc,cheerios,9.92,9.97,0.05000000000000071,bagel and cc,2275.10000000149,2275,2275.400000002235,True,u,129883.69999999925,2784.60000000149,1669831667899,2784,HRV,HRV_0131,2022-11-30 18:12:10
57,"[{'imgObject': {}, 'id': 'tacos', 'src': '/static/foodstim60/tacos.jpg', 'key': 'u', 'origWidth': 411, 'origHeight': 411, 'width': 411, 'height': 411, 'widthPercent': 0.45, 'rescaleHeight': False, 'trialN': 57, 'loaded': True, 'loadedTime': 4040, 'positionName': 'LEFT', 'positionCoords': [817.8, 514.5], 'bid': 10}, {'imgObject': {}, 'id': 'sushi w_condiments', 'src': '/static/foodstim60/sushi w_condiments.jpg', 'key': 'i', 'origWidth': 410, 'origHeight': 410, 'width': 410, 'height': 410, 'widthPercent': 0.45, 'rescaleHeight': False, 'trialN': 57, 'loaded': True, 'loadedTime': 3913.199999999255, 'positionName': 'RIGHT', 'positionCoords': [1331.2, 515], 'bid': 10}]",129883.89999999851,1669831667899,tacos,sushi w_condiments,10.0,10.0,0.0,sushi w_condiments,2004.199999999255,2005,2004.5,True,i,132404.69999999925,2520.800000000745,1669831670420,2521,HRV,HRV_0131,2022-11-30 18:12:10
58,"[{'imgObject': {}, 'id': 'fried eggs', 'src': '/static/foodstim60/fried eggs.jpg', 'key': 'u', 'origWidth': 410, 'origHeight': 410, 'width': 410, 'height': 410, 'widthPercent': 0.45, 'rescaleHeight': False, 'trialN': 58, 'loaded': True, 'loadedTime': 4331.099999997765, 'positionName': 'LEFT', 'positionCoords': [818.8, 515], 'bid': 10}, {'imgObject': {}, 'id': 'raisin bran w milk', 'src': '/static/foodstim60/raisin bran w milk.jpg', 'key': 'i', 'origWidth': 411, 'origHeight': 411, 'width': 411, 'height': 411, 'widthPercent': 0.45, 'rescaleHeight': False, 'trialN': 58, 'loaded': True, 'loadedTime': 4251.199999999255, 'positionName': 'RIGHT', 'positionCoords': [1331.2, 514.5], 'bid': 7.82}]",132404.80000000075,1669831670420,fried eggs,raisin bran w milk,10.0,7.82,-2.1799999999999997,fried eggs,2614.599999997765,2615,2614.89999999851,True,u,135533.0,3128.199999999255,1669831673548,3128,HRV,HRV_0131,2022-11-30 18:12:10
59,"[{'imgObject': {}, 'id': 'pear', 'src': '/static/foodstim60/pear.jpg', 'key': 'u', 'origWidth': 411, 'origHeight': 410, 'width': 411, 'height': 410, 'widthPercent': 0.45, 'rescaleHeight': False, 'trialN': 59, 'loaded': True, 'loadedTime': 4190.699999999255, 'positionName': 'LEFT', 'positionCoords': [817.8, 515], 'bid': 9.97}, {'imgObject': {}, 'id': 'orange slices', 'src': '/static/foodstim60/orange slices.jpg', 'key': 'i', 'origWidth': 409, 'origHeight': 410, 'width': 409, 'height': 410, 'widthPercent': 0.45, 'rescaleHeight': False, 'trialN': 59, 'loaded': True, 'loadedTime': 4133.099999997765, 'positionName': 'RIGHT', 'positionCoords': [1331.2, 515], 'bid': 10}]",135533.09999999776,1669831673549,pear,orange slices,9.97,10.0,0.02999999999999936,pear,2043.1000000014901,2043,2043.300000000745,True,u,138093.5,2560.400000002235,1669831676109,2560,HRV,HRV_0131,2022-11-30 18:12:10
60,"[{'imgObject': {}, 'id': 'turkey sandwich', 'src': '/static/foodstim60/turkey sandwich.jpg', 'key': 'u', 'origWidth': 409, 'origHeight': 409, 'width': 409, 'height': 409, 'widthPercent': 0.45, 'rescaleHeight': False, 'trialN': 60, 'loaded': True, 'loadedTime': 4316.699999999255, 'positionName': 'LEFT', 'positionCoords': [819.8, 515.5], 'bid': 10}, {'imgObject': {}, 'id': 'salmon', 'src': '/static/foodstim60/salmon.jpg', 'key': 'i', 'origWidth': 410, 'origHeight': 409, 'width': 410, 'height': 409, 'widthPercent': 0.45, 'rescaleHeight': False, 'trialN': 60, 'loaded': True, 'loadedTime': 4219.099999997765, 'positionName': 'RIGHT', 'positionCoords': [1331.2, 515.5], 'bid': 10}]",138093.59999999776,1669831676109,turkey sandwich,salmon,10.0,10.0,0.0,turkey sandwich,1400.5,1401,1400.9000000022352,True,u,139999.59999999776,1906.0,1669831678015,1906,HRV,HRV_0131,2022-11-30 18:12:10
61,"[{'imgObject': {}, 'id': 'corn cob', 'src': '/static/foodstim60/corn cob.jpg', 'key': 'u', 'origWidth': 411, 'origHeight': 411, 'width': 411, 'height': 411, 'widthPercent': 0.45, 'rescaleHeight': False, 'trialN': 61, 'loaded': True, 'loadedTime': 4260.800000000745, 'positionName': 'LEFT', 'positionCoords': [817.8, 514.5], 'bid': 8.24}, {'imgObject': {}, 'id': 'seaweed', 'src': '/static/foodstim60/seaweed.jpg', 'key': 'i', 'origWidth': 410, 'origHeight': 410, 'width': 410, 'height': 410, 'widthPercent': 0.45, 'rescaleHeight': False, 'trialN': 61, 'loaded': True, 'loadedTime': 3985.300000000745, 'positionName': 'RIGHT', 'positionCoords': [1331.2, 515], 'bid': 7.49}]",139999.69999999925,1669831678015,corn cob,seaweed,8.24,7.49,-0.75,seaweed,1786.6000000014901,1787,1786.800000000745,True,i,142295.19999999925,2295.5,1669831680311,2296,HRV,HRV_0131,2022-11-30 18:12:10
62,"[{'imgObject': {}, 'id': 'mac & cheese', 'src': '/static/foodstim60/mac & cheese.jpg', 'key': 'u', 'origWidth': 410, 'origHeight': 410, 'width': 410, 'height': 410, 'widthPercent': 0.45, 'rescaleHeight': False, 'trialN': 62, 'loaded': True, 'loadedTime': 4332.300000000745, 'positionName': 'LEFT', 'positionCoords': [818.8, 515], 'bid': 4.92}, {'imgObject': {}, 'id': 'froot loops w milk', 'src': '/static/foodstim60/froot loops w milk.jpg', 'key': 'i', 'origWidth': 410, 'origHeight': 410, 'width': 410, 'height': 410, 'widthPercent': 0.45, 'rescaleHeight': False, 'trialN': 62, 'loaded': True, 'loadedTime': 4021.599999997765, 'positionName': 'RIGHT', 'positionCoords': [1331.2, 515], 'bid': 2.76}]",142295.30000000075,1669831680311,mac & cheese,froot loops w milk,4.92,2.76,-2.16,froot loops w milk,2752.89999999851,2753,2753.099999997765,True,i,145565.19999999925,3269.89999999851,1669831683581,3270,HRV,HRV_0131,2022-11-30 18:12:10
63,"[{'imgObject': {}, 'id': 'blackbeanswithrice', 'src': '/static/foodstim60/blackbeanswithrice.jpg', 'key': 'u', 'origWidth': 410, 'origHeight': 410, 'width': 410, 'height': 410, 'widthPercent': 0.45, 'rescaleHeight': False, 'trialN': 63, 'loaded': True, 'loadedTime': 4310.300000000745, 'positionName': 'LEFT', 'positionCoords': [818.8, 515], 'bid': 2.37}, {'imgObject': {}, 'id': 'cherry tomato', 'src': '/static/foodstim60/cherry tomato.jpg', 'key': 'i', 'origWidth': 410, 'origHeight': 410, 'width': 410, 'height': 410, 'widthPercent': 0.45, 'rescaleHeight': False, 'trialN': 63, 'loaded': True, 'loadedTime': 4007.89999999851, 'positionName': 'RIGHT', 'positionCoords': [1331.2, 515], 'bid': 2.36}]",145565.3999999985,1669831683581,blackbeanswithrice,cherry tomato,2.37,2.36,-0.010000000000000231,cherry tomato,1858.699999999255,1859,1859.0,True,i,147938.59999999776,2373.199999999255,1669831685954,2373,HRV,HRV_0131,2022-11-30 18:12:10
64,"[{'imgObject': {}, 'id': 'burger', 'src': '/static/foodstim60/burger.jpg', 'key': 'u', 'origWidth': 409, 'origHeight': 409, 'width': 409, 'height': 409, 'widthPercent': 0.45, 'rescaleHeight': False, 'trialN': 64, 'loaded': True, 'loadedTime': 4333, 'positionName': 'LEFT', 'positionCoords': [819.8, 515.5], 'bid': 9.96}, {'imgObject': {}, 'id': 'turkeysandwich', 'src': '/static/foodstim60/turkeysandwich.jpg', 'key': 'i', 'origWidth': 409, 'origHeight': 409, 'width': 409, 'height': 409, 'widthPercent': 0.45, 'rescaleHeight': False, 'trialN': 64, 'loaded': True, 'loadedTime': 4316.89999999851, 'positionName': 'RIGHT', 'positionCoords': [1331.2, 515.5], 'bid': 9.96}]",147938.69999999925,1669831685954,burger,turkeysandwich,9.96,9.96,0.0,burger,2279.800000000745,2280,2280.0,True,u,150727.30000000075,2788.60000000149,1669831688743,2789,HRV,HRV_0131,2022-11-30 18:12:10
65,"[{'imgObject': {}, 'id': 'mac & cheese', 'src': '/static/foodstim60/mac & cheese.jpg', 'key': 'u', 'origWidth': 410, 'origHeight': 410, 'width': 410, 'height': 410, 'widthPercent': 0.45, 'rescaleHeight': False, 'trialN': 65, 'loaded': True, 'loadedTime': 4332.300000000745, 'positionName': 'LEFT', 'positionCoords': [818.8, 515], 'bid': 4.92}, {'imgObject': {}, 'id': 'olives', 'src': '/static/foodstim60/olives.jpg', 'key': 'i', 'origWidth': 410, 'origHeight': 410, 'width': 410, 'height': 410, 'widthPercent': 0.45, 'rescaleHeight': False, 'trialN': 65, 'loaded': True, 'loadedTime': 3934.39999999851, 'positionName': 'RIGHT', 'positionCoords': [1331.2, 515], 'bid': 5}]",150727.3999999985,1669831688743,mac & cheese,olives,4.92,5.0,0.08000000000000007,NaN,NaN,NaN,,False,NaN,154752.0,4024.60000000149,1669831692767,4024,HRV,HRV_0131,2022-11-30 18:12:10
66,"[{'imgObject': {}, 'id': 'hotdog w must', 'src': '/static/foodstim60/hotdog w must.jpg', 'key': 'u', 'origWidth': 409, 'origHeight': 409, 'width': 409, 'height': 409, 'widthPercent': 0.45, 'rescaleHeight': False, 'trialN': 66, 'loaded': True, 'loadedTime': 4076.89999999851, 'positionName': 'LEFT', 'positionCoords': [819.8, 515.5], 'bid': 10}, {'imgObject': {}, 'id': 'baked potato', 'src': '/static/foodstim60/baked potato.jpg', 'key': 'i', 'origWidth': 409, 'origHeight': 410, 'width': 409, 'height': 410, 'widthPercent': 0.45, 'rescaleHeight': False, 'trialN': 66, 'loaded': True, 'loadedTime': 4232, 'positionName': 'RIGHT', 'positionCoords': [1331.2, 515], 'bid': 10}]",154752.0,1669831692768,hotdog w must,baked potato,10.0,10.0,0.0,baked potato,1517.0999999977648,1517,1517.5999999977648,True,i,156779.30000000075,2027.300000000745,1669831694795,2027,HRV,HRV_0131,2022-11-30 18:12:10
67,"[{'imgObject': {}, 'id': 'chickenfingers', 'src': '/static/foodstim60/chickenfingers.jpg', 'key': 'u', 'origWidth': 410, 'origHeight': 410, 'width': 410, 'height': 410, 'widthPercent': 0.45, 'rescaleHeight': False, 'trialN': 67, 'loaded': True, 'loadedTime': 4119.5, 'positionName': 'LEFT', 'positionCoords': [818.8, 515], 'bid': 10}, {'imgObject': {}, 'id': 'rigatoni', 'src': '/static/foodstim60/rigatoni.jpg', 'key': 'i', 'origWidth': 411, 'origHeight': 411, 'width': 411, 'height': 411, 'widthPercent': 0.45, 'rescaleHeight': False, 'trialN': 67, 'loaded': True, 'loadedTime': 4271.300000000745, 'positionName': 'RIGHT', 'positionCoords': [1331.2, 514.5], 'bid': 8.17}]",156779.5,1669831694795,chickenfingers,rigatoni,10.0,8.17,-1.83,chickenfingers,1466.699999999255,1467,1467.199999999255,True,u,158759.59999999776,1980.0999999977648,1669831696775,1980,HRV,HRV_0131,2022-11-30 18:12:10
68,"[{'imgObject': {}, 'id': 'fried eggs', 'src': '/static/foodstim60/fried eggs.jpg', 'key': 'u', 'origWidth': 410, 'origHeight': 410, 'width': 410, 'height': 410, 'widthPercent': 0.45, 'rescaleHeight': False, 'trialN': 68, 'loaded': True, 'loadedTime': 4330.89999999851, 'positionName': 'LEFT', 'positionCoords': [818.8, 515], 'bid': 10}, {'imgObject': {}, 'id': 'chickenfingers', 'src': '/static/foodstim60/chickenfingers.jpg', 'key': 'i', 'origWidth': 410, 'origHeight': 410, 'width': 410, 'height': 410, 'widthPercent': 0.45, 'rescaleHeight': False, 'trialN': 68, 'loaded': True, 'loadedTime': 4115.699999999255, 'positionName': 'RIGHT', 'positionCoords': [1331.2, 515], 'bid': 10}]",158759.80000000075,1669831696775,fried eggs,chickenfingers,10.0,10.0,0.0,fried eggs,1666.2999999970198,1667,1666.5999999977648,True,u,160942.30000000075,2182.5,1669831698958,2183,HRV,HRV_0131,2022-11-30 18:12:10
69,"[{'imgObject': {}, 'id': 'cantaloupe', 'src': '/static/foodstim60/cantaloupe.jpg', 'key': 'u', 'origWidth': 409, 'origHeight': 409, 'width': 409, 'height': 409, 'widthPercent': 0.45, 'rescaleHeight': False, 'trialN': 69, 'loaded': True, 'loadedTime': 4333.699999999255, 'positionName': 'LEFT', 'positionCoords': [819.8, 515.5], 'bid': 9.95}, {'imgObject': {}, 'id': 'omelette', 'src': '/static/foodstim60/omelette.jpg', 'key': 'i', 'origWidth': 410, 'origHeight': 409, 'width': 410, 'height': 409, 'widthPercent': 0.45, 'rescaleHeight': False, 'trialN': 69, 'loaded': True, 'loadedTime': 4214.800000000745, 'positionName': 'RIGHT', 'positionCoords': [1331.2, 515.5], 'bid': 9.98}]",160942.5,1669831698958,cantaloupe,omelette,9.95,9.98,0.030000000000001137,omelette,1329.5999999977648,1330,1329.8999999985099,True,i,162784.09999999776,1841.5999999977648,1669831700800,1842,HRV,HRV_0131,2022-11-30 18:12:10
70,"[{'imgObject': {}, 'id': 'eggs', 'src': '/static/foodstim60/eggs.jpg', 'key': 'u', 'origWidth': 409, 'origHeight': 409, 'width': 409, 'height': 409, 'widthPercent': 0.45, 'rescaleHeight': False, 'trialN': 70, 'loaded': True, 'loadedTime': 4205.300000000745, 'positionName': 'LEFT', 'positionCoords': [819.8, 515.5], 'bid': 10}, {'imgObject': {}, 'id': 'pear', 'src': '/static/foodstim60/pear.jpg', 'key': 'i', 'origWidth': 411, 'origHeight': 410, 'width': 411, 'height': 410, 'widthPercent': 0.45, 'rescaleHeight': False, 'trialN': 70, 'loaded': True, 'loadedTime': 4190.699999999255, 'positionName': 'RIGHT', 'positionCoords': [1331.2, 515], 'bid': 9.97}]",162784.30000000075,1669831700800,eggs,pear,10.0,9.97,-0.02999999999999936,eggs,1958.8999999985099,1959,1959.199999999255,True,u,165261.59999999776,2477.2999999970198,1669831703277,2477,HRV,HRV_0131,2022-11-30 18:12:10
71,"[{'imgObject': {}, 'id': 'cherries', 'src': '/static/foodstim60/cherries.jpg', 'key': 'u', 'origWidth': 410, 'origHeight': 411, 'width': 410, 'height': 411, 'widthPercent': 0.45, 'rescaleHeight': False, 'trialN': 71, 'loaded': True, 'loadedTime': 3888.800000000745, 'positionName': 'LEFT', 'positionCoords': [818.8, 514.5], 'bid': 9.96}, {'imgObject': {}, 'id': 'shreddedwheatwithmilk', 'src': '/static/foodstim60/shreddedwheatwithmilk.jpg', 'key': 'i', 'origWidth': 410, 'origHeight': 410, 'width': 410, 'height': 410, 'widthPercent': 0.45, 'rescaleHeight': False, 'trialN': 71, 'loaded': True, 'loadedTime': 4294.699999999255, 'positionName': 'RIGHT', 'positionCoords': [1331.2, 515], 'bid': 9.92}]",165261.80000000075,1669831703277,cherries,shreddedwheatwithmilk,9.96,9.92,-0.040000000000000924,shreddedwheatwithmilk,1590.199999999255,1591,1590.5,True,i,167369.3999999985,2107.599999997765,1669831705385,2108,HRV,HRV_0131,2022-11-30 18:12:10
72,"[{'imgObject': {}, 'id': 'blackbeanswithrice', 'src': '/static/foodstim60/blackbeanswithrice.jpg', 'key': 'u', 'origWidth': 410, 'origHeight': 410, 'width': 410, 'height': 410, 'widthPercent': 0.45, 'rescaleHeight': False, 'trialN': 72, 'loaded': True, 'loadedTime': 4309.599999997765, 'positionName': 'LEFT', 'positionCoords': [818.8, 515], 'bid': 2.37}, {'imgObject': {}, 'id': 'mac & cheese', 'src': '/static/foodstim60/mac & cheese.jpg', 'key': 'i', 'origWidth': 410, 'origHeight': 410, 'width': 410, 'height': 410, 'widthPercent': 0.45, 'rescaleHeight': False, 'trialN': 72, 'loaded': True, 'loadedTime': 4332.300000000745, 'positionName': 'RIGHT', 'positionCoords': [1331.2, 515], 'bid': 4.92}]",167369.59999999776,1669831705385,blackbeanswithrice,mac & cheese,2.37,4.92,2.55,mac & cheese,1420.5,1421,1420.800000000745,True,i,169305.0,1935.4000000022352,1669831707320,1935,HRV,HRV_0131,2022-11-30 18:12:10
73,"[{'imgObject': {}, 'id': 'cheerios', 'src': '/static/foodstim60/cheerios.jpg', 'key': 'u', 'origWidth': 409, 'origHeight': 410, 'width': 409, 'height': 410, 'widthPercent': 0.45, 'rescaleHeight': False, 'trialN': 73, 'loaded': True, 'loadedTime': 4166.699999999255, 'positionName': 'LEFT', 'positionCoords': [819.8, 515], 'bid': 9.97}, {'imgObject': {}, 'id': 'bagel plain', 'src': '/static/foodstim60/bagel plain.jpg', 'key': 'i', 'origWidth': 410, 'origHeight': 410, 'width': 410, 'height': 410, 'widthPercent': 0.45, 'rescaleHeight': False, 'trialN': 73, 'loaded': True, 'loadedTime': 4204.699999999255, 'positionName': 'RIGHT', 'positionCoords': [1331.2, 515], 'bid': 10}]",169305.09999999776,1669831707321,cheerios,bagel plain,9.97,10.0,0.02999999999999936,cheerios,1931,1931,1931.300000000745,True,u,171753.09999999776,2448.0,1669831709769,2448,HRV,HRV_0131,2022-11-30 18:12:10
74,"[{'imgObject': {}, 'id': 'rigatoni', 'src': '/static/foodstim60/rigatoni.jpg', 'key': 'u', 'origWidth': 411, 'origHeight': 411, 'width': 411, 'height': 411, 'widthPercent': 0.45, 'rescaleHeight': False, 'trialN': 74, 'loaded': True, 'loadedTime': 4271.39999999851, 'positionName': 'LEFT', 'positionCoords': [817.8, 514.5], 'bid': 8.17}, {'imgObject': {}, 'id': 'raspberries', 'src': '/static/foodstim60/raspberries.jpg', 'key': 'i', 'origWidth': 411, 'origHeight': 411, 'width': 411, 'height': 411, 'widthPercent': 0.45, 'rescaleHeight': False, 'trialN': 74, 'loaded': True, 'loadedTime': 3961.599999997765, 'positionName': 'RIGHT', 'positionCoords': [1331.2, 514.5], 'bid': 9.89}]",171753.19999999925,1669831709769,rigatoni,raspberries,8.17,9.89,1.7200000000000006,rigatoni,2708.699999999255,2709,2709.0,True,u,174970.5,3217.300000000745,1669831712986,3217,HRV,HRV_0131,2022-11-30 18:12:10
75,"[{'imgObject': {}, 'id': 'grilled chicken strips', 'src': '/static/foodstim60/grilled chicken strips.jpg', 'key': 'u', 'origWidth': 410, 'origHeight': 411, 'width': 410, 'height': 411, 'widthPercent': 0.45, 'rescaleHeight': False, 'trialN': 75, 'loaded': True, 'loadedTime': 4240.599999997765, 'positionName': 'LEFT', 'positionCoords': [818.8, 514.5], 'bid': 10}, {'imgObject': {}, 'id': 'bagel plain', 'src': '/static/foodstim60/bagel plain.jpg', 'key': 'i', 'origWidth': 410, 'origHeight': 410, 'width': 410, 'height': 410, 'widthPercent': 0.45, 'rescaleHeight': False, 'trialN': 75, 'loaded': True, 'loadedTime': 4204.300000000745, 'positionName': 'RIGHT', 'positionCoords': [1331.2, 515], 'bid': 10}]",174970.59999999776,1669831712986,grilled chicken strips,bagel plain,10.0,10.0,0.0,grilled chicken strips,1213.4000000022352,1214,1213.7000000029802,True,u,176700.30000000075,1729.7000000029802,1669831714716,1730,HRV,HRV_0131,2022-11-30 18:12:10
76,"[{'imgObject': {}, 'id': 'mango', 'src': '/static/foodstim60/mango.jpg', 'key': 'u', 'origWidth': 411, 'origHeight': 411, 'width': 411, 'height': 411, 'widthPercent': 0.45, 'rescaleHeight': False, 'trialN': 76, 'loaded': True, 'loadedTime': 4058.39999999851, 'positionName': 'LEFT', 'positionCoords': [817.8, 514.5], 'bid': 10}, {'imgObject': {}, 'id': 'sweetpotato', 'src': '/static/foodstim60/sweetpotato.jpg', 'key': 'i', 'origWidth': 410, 'origHeight': 410, 'width': 410, 'height': 410, 'widthPercent': 0.45, 'rescaleHeight': False, 'trialN': 76, 'loaded': True, 'loadedTime': 4246.099999997765, 'positionName': 'RIGHT', 'positionCoords': [1331.2, 515], 'bid': 9.99}]",176700.3999999985,1669831714716,mango,sweetpotato,10.0,9.99,-0.009999999999999787,sweetpotato,2504.5,2505,2504.900000002235,True,i,179721.5,3021.10000000149,1669831717737,3021,HRV,HRV_0131,2022-11-30 18:12:10
77,"[{'imgObject': {}, 'id': 'fried eggs', 'src': '/static/foodstim60/fried eggs.jpg', 'key': 'u', 'origWidth': 410, 'origHeight': 410, 'width': 410, 'height': 410, 'widthPercent': 0.45, 'rescaleHeight': False, 'trialN': 77, 'loaded': True, 'loadedTime': 4330.300000000745, 'positionName': 'LEFT', 'positionCoords': [818.8, 515], 'bid': 10}, {'imgObject': {}, 'id': 'salmon', 'src': '/static/foodstim60/salmon.jpg', 'key': 'i', 'origWidth': 410, 'origHeight': 409, 'width': 410, 'height': 409, 'widthPercent': 0.45, 'rescaleHeight': False, 'trialN': 77, 'loaded': True, 'loadedTime': 4223.39999999851, 'positionName': 'RIGHT', 'positionCoords': [1331.2, 515.5], 'bid': 10}]",179721.59999999776,1669831717737,fried eggs,salmon,10.0,10.0,0.0,fried eggs,1324.4000000022352,1325,1324.7000000029802,True,u,181565.0,1843.4000000022352,1669831719581,1844,HRV,HRV_0131,2022-11-30 18:12:10
78,"[{'imgObject': {}, 'id': 'cantaloupe', 'src': '/static/foodstim60/cantaloupe.jpg', 'key': 'u', 'origWidth': 409, 'origHeight': 409, 'width': 409, 'height': 409, 'widthPercent': 0.45, 'rescaleHeight': False, 'trialN': 78, 'loaded': True, 'loadedTime': 4333.599999997765, 'positionName': 'LEFT', 'positionCoords': [819.8, 515.5], 'bid': 9.95}, {'imgObject': {}, 'id': 'raisin bran w milk', 'src': '/static/foodstim60/raisin bran w milk.jpg', 'key': 'i', 'origWidth': 411, 'origHeight': 411, 'width': 411, 'height': 411, 'widthPercent': 0.45, 'rescaleHeight': False, 'trialN': 78, 'loaded': True, 'loadedTime': 4251.199999999255, 'positionName': 'RIGHT', 'positionCoords': [1331.2, 514.5], 'bid': 7.82}]",181565.09999999776,1669831719581,cantaloupe,raisin bran w milk,9.95,7.82,-2.129999999999999,raisin bran w milk,1085.1000000014901,1085,1085.5,True,i,183174.19999999925,1609.1000000014901,1669831721190,1609,HRV,HRV_0131,2022-11-30 18:12:10
79,"[{'imgObject': {}, 'id': 'sweetpotato', 'src': '/static/foodstim60/sweetpotato.jpg', 'key': 'u', 'origWidth': 410, 'origHeight': 410, 'width': 410, 'height': 410, 'widthPercent': 0.45, 'rescaleHeight': False, 'trialN': 79, 'loaded': True, 'loadedTime': 4242, 'positionName': 'LEFT', 'positionCoords': [818.8, 515], 'bid': 9.99}, {'imgObject': {}, 'id': 'olives', 'src': '/static/foodstim60/olives.jpg', 'key': 'i', 'origWidth': 410, 'origHeight': 410, 'width': 410, 'height': 410, 'widthPercent': 0.45, 'rescaleHeight': False, 'trialN': 79, 'loaded': True, 'loadedTime': 3921.89999999851, 'positionName': 'RIGHT', 'positionCoords': [1331.2, 515], 'bid': 5}]",183174.3999999985,1669831721190,sweetpotato,olives,9.99,5.0,-4.99,sweetpotato,1333.699999999255,1334,1334.0,True,u,185017.3999999985,1843.0,1669831723033,1843,HRV,HRV_0131,2022-11-30 18:12:10
80,"[{'imgObject': {}, 'id': 'bagel plain', 'src': '/static/foodstim60/bagel plain.jpg', 'key': 'u', 'origWidth': 410, 'origHeight': 410, 'width': 410, 'height': 410, 'widthPercent': 0.45, 'rescaleHeight': False, 'trialN': 80, 'loaded': True, 'loadedTime': 4199.5, 'positionName': 'LEFT', 'positionCoords': [818.8, 515], 'bid': 10}, {'imgObject': {}, 'id': 'apple slices', 'src': '/static/foodstim60/apple slices.jpg', 'key': 'i', 'origWidth': 409, 'origHeight': 410, 'width': 409, 'height': 410, 'widthPercent': 0.45, 'rescaleHeight': False, 'trialN': 80, 'loaded': True, 'loadedTime': 3879.5, 'positionName': 'RIGHT', 'positionCoords': [1331.2, 515], 'bid': 10}]",185017.5,1669831723033,bagel plain,apple slices,10.0,10.0,0.0,bagel plain,2064.39999999851,2065,2064.699999999255,True,u,187585.0,2567.5,1669831725601,2568,HRV,HRV_0131,2022-11-30 18:12:10
81,"[{'imgObject': {}, 'id': 'strawberries', 'src': '/static/foodstim60/strawberries.jpg', 'key': 'u', 'origWidth': 410, 'origHeight': 410, 'width': 410, 'height': 410, 'widthPercent': 0.45, 'rescaleHeight': False, 'trialN': 81, 'loaded': True, 'loadedTime': 4082.599999997765, 'positionName': 'LEFT', 'positionCoords': [818.8, 515], 'bid': 9.96}, {'imgObject': {}, 'id': 'raspberries', 'src': '/static/foodstim60/raspberries.jpg', 'key': 'i', 'origWidth': 411, 'origHeight': 411, 'width': 411, 'height': 411, 'widthPercent': 0.45, 'rescaleHeight': False, 'trialN': 81, 'loaded': True, 'loadedTime': 3952.300000000745, 'positionName': 'RIGHT', 'positionCoords': [1331.2, 514.5], 'bid': 9.89}]",187585.19999999925,1669831725601,strawberries,raspberries,9.96,9.89,-0.07000000000000028,strawberries,1200.800000000745,1201,1201.0,True,u,189301.59999999776,1716.3999999985099,1669831727317,1716,HRV,HRV_0131,2022-11-30 18:12:10
82,"[{'imgObject': {}, 'id': 'luckycharms', 'src': '/static/foodstim60/luckycharms.jpg', 'key': 'u', 'origWidth': 410, 'origHeight': 409, 'width': 410, 'height': 409, 'widthPercent': 0.45, 'rescaleHeight': False, 'trialN': 82, 'loaded': True, 'loadedTime': 3847.599999997765, 'positionName': 'LEFT', 'positionCoords': [818.8, 515.5], 'bid': 2.39}, {'imgObject': {}, 'id': 'granola w milk', 'src': '/static/foodstim60/granola w milk.jpg', 'key': 'i', 'origWidth': 410, 'origHeight': 410, 'width': 410, 'height': 410, 'widthPercent': 0.45, 'rescaleHeight': False, 'trialN': 82, 'loaded': True, 'loadedTime': 4315.300000000745, 'positionName': 'RIGHT', 'positionCoords': [1331.2, 515], 'bid': 8.46}]",189301.69999999925,1669831727317,luckycharms,granola w milk,2.39,8.46,6.07,granola w milk,1300.1000000014901,1301,1300.3999999985099,True,i,191110.5,1808.800000000745,1669831729126,1809,HRV,HRV_0131,2022-11-30 18:12:10
83,"[{'imgObject': {}, 'id': 'ice cream sundae 002', 'src': '/static/foodstim60/ice cream sundae 002.jpg', 'key': 'u', 'origWidth': 409, 'origHeight': 409, 'width': 409, 'height': 409, 'widthPercent': 0.45, 'rescaleHeight': False, 'trialN': 83, 'loaded': True, 'loadedTime': 4334.300000000745, 'positionName': 'LEFT', 'positionCoords': [819.8, 515.5], 'bid': 8.52}, {'imgObject': {}, 'id': 'avocado', 'src': '/static/foodstim60/avocado.jpg', 'key': 'i', 'origWidth': 409, 'origHeight': 409, 'width': 409, 'height': 409, 'widthPercent': 0.45, 'rescaleHeight': False, 'trialN': 83, 'loaded': True, 'loadedTime': 4172.099999997765, 'positionName': 'RIGHT', 'positionCoords': [1331.2, 515.5], 'bid': 9.89}]",191110.59999999776,1669831729126,ice cream sundae 002,avocado,8.52,9.89,1.370000000000001,ice cream sundae 002,1945.5,1946,1945.800000000745,True,u,193569.0,2458.400000002235,1669831731585,2459,HRV,HRV_0131,2022-11-30 18:12:10
84,"[{'imgObject': {}, 'id': 'apple slices', 'src': '/static/foodstim60/apple slices.jpg', 'key': 'u', 'origWidth': 409, 'origHeight': 410, 'width': 409, 'height': 410, 'widthPercent': 0.45, 'rescaleHeight': False, 'trialN': 84, 'loaded': True, 'loadedTime': 3879.199999999255, 'positionName': 'LEFT', 'positionCoords': [819.8, 515], 'bid': 10}, {'imgObject': {}, 'id': 'granola w milk', 'src': '/static/foodstim60/granola w milk.jpg', 'key': 'i', 'origWidth': 410, 'origHeight': 410, 'width': 410, 'height': 410, 'widthPercent': 0.45, 'rescaleHeight': False, 'trialN': 84, 'loaded': True, 'loadedTime': 4315.5, 'positionName': 'RIGHT', 'positionCoords': [1331.2, 515], 'bid': 8.46}]",193569.09999999776,1669831731585,apple slices,granola w milk,10.0,8.46,-1.5399999999999991,granola w milk,1258.9000000022352,1259,1259.2000000029802,True,i,195335.30000000075,1766.2000000029802,1669831733351,1766,HRV,HRV_0131,2022-11-30 18:12:10
85,"[{'imgObject': {}, 'id': 'cantaloupe', 'src': '/static/foodstim60/cantaloupe.jpg', 'key': 'u', 'origWidth': 409, 'origHeight': 409, 'width': 409, 'height': 409, 'widthPercent': 0.45, 'rescaleHeight': False, 'trialN': 85, 'loaded': True, 'loadedTime': 4333.5, 'positionName': 'LEFT', 'positionCoords': [819.8, 515.5], 'bid': 9.95}, {'imgObject': {}, 'id': 'blueberries', 'src': '/static/foodstim60/blueberries.jpg', 'key': 'i', 'origWidth': 411, 'origHeight': 411, 'width': 411, 'height': 411, 'widthPercent': 0.45, 'rescaleHeight': False, 'trialN': 85, 'loaded': True, 'loadedTime': 4295.599999997765, 'positionName': 'RIGHT', 'positionCoords': [1331.2, 514.5], 'bid': 9.96}]",195335.5,1669831733351,cantaloupe,blueberries,9.95,9.96,0.010000000000001563,cantaloupe,1374.300000000745,1375,1374.699999999255,True,u,197223.19999999925,1887.699999999255,1669831735239,1888,HRV,HRV_0131,2022-11-30 18:12:10
86,"[{'imgObject': {}, 'id': 'yogurt no spoon', 'src': '/static/foodstim60/yogurt no spoon.jpg', 'key': 'u', 'origWidth': 411, 'origHeight': 410, 'width': 411, 'height': 410, 'widthPercent': 0.45, 'rescaleHeight': False, 'trialN': 86, 'loaded': True, 'loadedTime': 4316.199999999255, 'positionName': 'LEFT', 'positionCoords': [817.8, 515], 'bid': 8.23}, {'imgObject': {}, 'id': 'burrito', 'src': '/static/foodstim60/burrito.jpg', 'key': 'i', 'origWidth': 410, 'origHeight': 410, 'width': 410, 'height': 410, 'widthPercent': 0.45, 'rescaleHeight': False, 'trialN': 86, 'loaded': True, 'loadedTime': 4246.800000000745, 'positionName': 'RIGHT', 'positionCoords': [1331.2, 515], 'bid': 10}]",197223.3999999985,1669831735239,yogurt no spoon,burrito,8.23,10.0,1.7699999999999996,burrito,2094.5,2095,2094.699999999255,True,i,199823.19999999925,2599.800000000745,1669831737839,2600,HRV,HRV_0131,2022-11-30 18:12:10
87,"[{'imgObject': {}, 'id': 'chickenfingers', 'src': '/static/foodstim60/chickenfingers.jpg', 'key': 'u', 'origWidth': 410, 'origHeight': 410, 'width': 410, 'height': 410, 'widthPercent': 0.45, 'rescaleHeight': False, 'trialN': 87, 'loaded': True, 'loadedTime': 4115.599999997765, 'positionName': 'LEFT', 'positionCoords': [818.8, 515], 'bid': 10}, {'imgObject': {}, 'id': 'burrito', 'src': '/static/foodstim60/burrito.jpg', 'key': 'i', 'origWidth': 410, 'origHeight': 410, 'width': 410, 'height': 410, 'widthPercent': 0.45, 'rescaleHeight': False, 'trialN': 87, 'loaded': True, 'loadedTime': 4247, 'positionName': 'RIGHT', 'positionCoords': [1331.2, 515], 'bid': 10}]",199823.3999999985,1669831737839,chickenfingers,burrito,10.0,10.0,0.0,chickenfingers,1260.6000000014901,1261,1260.9000000022352,True,u,201602.30000000075,1778.9000000022352,1669831739618,1779,HRV,HRV_0131,2022-11-30 18:12:10
88,"[{'imgObject': {}, 'id': 'baked potato', 'src': '/static/foodstim60/baked potato.jpg', 'key': 'u', 'origWidth': 409, 'origHeight': 410, 'width': 409, 'height': 410, 'widthPercent': 0.45, 'rescaleHeight': False, 'trialN': 88, 'loaded': True, 'loadedTime': 4232.5, 'positionName': 'LEFT', 'positionCoords': [819.8, 515], 'bid': 10}, {'imgObject': {}, 'id': 'apple slices', 'src': '/static/foodstim60/apple slices.jpg', 'key': 'i', 'origWidth': 409, 'origHeight': 410, 'width': 409, 'height': 410, 'widthPercent': 0.45, 'rescaleHeight': False, 'trialN': 88, 'loaded': True, 'loadedTime': 3868.800000000745, 'positionName': 'RIGHT', 'positionCoords': [1331.2, 515], 'bid': 10}]",201602.3999999985,1669831739618,baked potato,apple slices,10.0,10.0,0.0,baked potato,2079.60000000149,2080,2079.800000000745,True,u,204188.5,2586.10000000149,1669831742204,2586,HRV,HRV_0131,2022-11-30 18:12:10
89,"[{'imgObject': {}, 'id': 'salad w chicken', 'src': '/static/foodstim60/salad w chicken.jpg', 'key': 'u', 'origWidth': 411, 'origHeight': 411, 'width': 411, 'height': 411, 'widthPercent': 0.45, 'rescaleHeight': False, 'trialN': 89, 'loaded': True, 'loadedTime': 4280.599999997765, 'positionName': 'LEFT', 'positionCoords': [817.8, 514.5], 'bid': 10}, {'imgObject': {}, 'id': 'eggs', 'src': '/static/foodstim60/eggs.jpg', 'key': 'i', 'origWidth': 409, 'origHeight': 409, 'width': 409, 'height': 409, 'widthPercent': 0.45, 'rescaleHeight': False, 'trialN': 89, 'loaded': True, 'loadedTime': 4205.300000000745, 'positionName': 'RIGHT', 'positionCoords': [1331.2, 515.5], 'bid': 10}]",204188.69999999925,1669831742204,salad w chicken,eggs,10.0,10.0,0.0,salad w chicken,971.5,972,971.8999999985099,True,u,205673.5,1484.800000000745,1669831743689,1485,HRV,HRV_0131,2022-11-30 18:12:10
90,"[{'imgObject': {}, 'id': 'cocktailshrimp', 'src': '/static/foodstim60/cocktailshrimp.jpg', 'key': 'u', 'origWidth': 410, 'origHeight': 410, 'width': 410, 'height': 410, 'widthPercent': 0.45, 'rescaleHeight': False, 'trialN': 90, 'loaded': True, 'loadedTime': 4156.099999997765, 'positionName': 'LEFT', 'positionCoords': [818.8, 515], 'bid': 2.5}, {'imgObject': {}, 'id': 'edamame', 'src': '/static/foodstim60/edamame.jpg', 'key': 'i', 'origWidth': 409, 'origHeight': 410, 'width': 409, 'height': 410, 'widthPercent': 0.45, 'rescaleHeight': False, 'trialN': 90, 'loaded': True, 'loadedTime': 4256.300000000745, 'positionName': 'RIGHT', 'positionCoords': [1331.2, 515], 'bid': 2.48}]",212397.59999999776,1669831750413,cocktailshrimp,edamame,2.5,2.48,-0.020000000000000018,cocktailshrimp,1958.4000000022352,1959,1958.6000000014901,True,u,214872.0,2474.400000002235,1669831752888,2475,HRV,HRV_0131,2022-11-30 18:12:10
91,"[{'imgObject': {}, 'id': 'fruitsalad', 'src': '/static/foodstim60/fruitsalad.jpg', 'key': 'u', 'origWidth': 410, 'origHeight': 410, 'width': 410, 'height': 410, 'widthPercent': 0.45, 'rescaleHeight': False, 'trialN': 91, 'loaded': True, 'loadedTime': 4091.699999999255, 'positionName': 'LEFT', 'positionCoords': [818.8, 515], 'bid': 9.93}, {'imgObject': {}, 'id': 'grilled chicken strips', 'src': '/static/foodstim60/grilled chicken strips.jpg', 'key': 'i', 'origWidth': 410, 'origHeight': 411, 'width': 410, 'height': 411, 'widthPercent': 0.45, 'rescaleHeight': False, 'trialN': 91, 'loaded': True, 'loadedTime': 4241.39999999851, 'positionName': 'RIGHT', 'positionCoords': [1331.2, 514.5], 'bid': 10}]",214872.09999999776,1669831752888,fruitsalad,grilled chicken strips,9.93,10.0,0.07000000000000028,grilled chicken strips,1513.800000000745,1514,1514.1000000014901,True,i,216888.0,2015.9000000022352,1669831754904,2016,HRV,HRV_0131,2022-11-30 18:12:10
92,"[{'imgObject': {}, 'id': 'cocktailshrimp', 'src': '/static/foodstim60/cocktailshrimp.jpg', 'key': 'u', 'origWidth': 410, 'origHeight': 410, 'width': 410, 'height': 410, 'widthPercent': 0.45, 'rescaleHeight': False, 'trialN': 92, 'loaded': True, 'loadedTime': 4152.199999999255, 'positionName': 'LEFT', 'positionCoords': [818.8, 515], 'bid': 2.5}, {'imgObject': {}, 'id': 'pear', 'src': '/static/foodstim60/pear.jpg', 'key': 'i', 'origWidth': 411, 'origHeight': 410, 'width': 411, 'height': 410, 'widthPercent': 0.45, 'rescaleHeight': False, 'trialN': 92, 'loaded': True, 'loadedTime': 4190.099999997765, 'positionName': 'RIGHT', 'positionCoords': [1331.2, 515], 'bid': 9.97}]",216888.09999999776,1669831754904,cocktailshrimp,pear,2.5,9.97,7.470000000000001,pear,1243.7000000029802,1244,1244.0,True,i,218641.0,1752.9000000022352,1669831756657,1753,HRV,HRV_0131,2022-11-30 18:12:10
93,"[{'imgObject': {}, 'id': 'hashbrowns', 'src': '/static/foodstim60/hashbrowns.jpg', 'key': 'u', 'origWidth': 411, 'origHeight': 410, 'width': 411, 'height': 410, 'widthPercent': 0.45, 'rescaleHeight': False, 'trialN': 93, 'loaded': True, 'loadedTime': 3980.39999999851, 'positionName': 'LEFT', 'positionCoords': [817.8, 515], 'bid': 4.96}, {'imgObject': {}, 'id': 'popsicles', 'src': '/static/foodstim60/popsicles.jpg', 'key': 'i', 'origWidth': 410, 'origHeight': 410, 'width': 410, 'height': 410, 'widthPercent': 0.45, 'rescaleHeight': False, 'trialN': 93, 'loaded': True, 'loadedTime': 4335.699999999255, 'positionName': 'RIGHT', 'positionCoords': [1331.2, 515], 'bid': 2.07}]",218641.19999999925,1669831756657,hashbrowns,popsicles,4.96,2.07,-2.89,hashbrowns,2320.60000000149,2321,2321.0,True,u,221473.0,2831.800000000745,1669831759489,2832,HRV,HRV_0131,2022-11-30 18:12:10
94,"[{'imgObject': {}, 'id': 'sushi w_condiments', 'src': '/static/foodstim60/sushi w_condiments.jpg', 'key': 'u', 'origWidth': 410, 'origHeight': 410, 'width': 410, 'height': 410, 'widthPercent': 0.45, 'rescaleHeight': False, 'trialN': 94, 'loaded': True, 'loadedTime': 3917.89999999851, 'positionName': 'LEFT', 'positionCoords': [818.8, 515], 'bid': 10}, {'imgObject': {}, 'id': 'roastedpotatoes', 'src': '/static/foodstim60/roastedpotatoes.jpg', 'key': 'i', 'origWidth': 409, 'origHeight': 410, 'width': 409, 'height': 410, 'widthPercent': 0.45, 'rescaleHeight': False, 'trialN': 94, 'loaded': True, 'loadedTime': 4181.5, 'positionName': 'RIGHT', 'positionCoords': [1331.2, 515], 'bid': 9.96}]",221473.19999999925,1669831759489,sushi w_condiments,roastedpotatoes,10.0,9.96,-0.03999999999999915,roastedpotatoes,1430.6000000014901,1431,1430.800000000745,True,i,223408.3999999985,1935.199999999255,1669831761424,1935,HRV,HRV_0131,2022-11-30 18:12:10
95,"[{'imgObject': {}, 'id': 'turkeysandwich', 'src': '/static/foodstim60/turkeysandwich.jpg', 'key': 'u', 'origWidth': 409, 'origHeight': 409, 'width': 409, 'height': 409, 'widthPercent': 0.45, 'rescaleHeight': False, 'trialN': 95, 'loaded': True, 'loadedTime': 4320.89999999851, 'positionName': 'LEFT', 'positionCoords': [819.8, 515.5], 'bid': 9.96}, {'imgObject': {}, 'id': 'chickenfingers', 'src': '/static/foodstim60/chickenfingers.jpg', 'key': 'i', 'origWidth': 410, 'origHeight': 410, 'width': 410, 'height': 410, 'widthPercent': 0.45, 'rescaleHeight': False, 'trialN': 95, 'loaded': True, 'loadedTime': 4123.89999999851, 'positionName': 'RIGHT', 'positionCoords': [1331.2, 515], 'bid': 10}]",223408.59999999776,1669831761424,turkeysandwich,chickenfingers,9.96,10.0,0.03999999999999915,chickenfingers,1488.2000000029802,1489,1488.5,True,i,225405.8999999985,1997.300000000745,1669831763422,1998,HRV,HRV_0131,2022-11-30 18:12:10
96,"[{'imgObject': {}, 'id': 'mac & cheese', 'src': '/static/foodstim60/mac & cheese.jpg', 'key': 'u', 'origWidth': 410, 'origHeight': 410, 'width': 410, 'height': 410, 'widthPercent': 0.45, 'rescaleHeight': False, 'trialN': 96, 'loaded': True, 'loadedTime': 4332.39999999851, 'positionName': 'LEFT', 'positionCoords': [818.8, 515], 'bid': 4.92}, {'imgObject': {}, 'id': 'shreddedwheatwithmilk', 'src': '/static/foodstim60/shreddedwheatwithmilk.jpg', 'key': 'i', 'origWidth': 410, 'origHeight': 410, 'width': 410, 'height': 410, 'widthPercent': 0.45, 'rescaleHeight': False, 'trialN': 96, 'loaded': True, 'loadedTime': 4294.89999999851, 'positionName': 'RIGHT', 'positionCoords': [1331.2, 515], 'bid': 9.92}]",225406.09999999776,1669831763422,mac & cheese,shreddedwheatwithmilk,4.92,9.92,5.0,shreddedwheatwithmilk,1257.800000000745,1258,1258.1000000014901,True,i,227167.8999999985,1761.800000000745,1669831765184,1762,HRV,HRV_0131,2022-11-30 18:12:10
97,"[{'imgObject': {}, 'id': 'olives', 'src': '/static/foodstim60/olives.jpg', 'key': 'u', 'origWidth': 410, 'origHeight': 410, 'width': 410, 'height': 410, 'widthPercent': 0.45, 'rescaleHeight': False, 'trialN': 97, 'loaded': True, 'loadedTime': 3926.099999997765, 'positionName': 'LEFT', 'positionCoords': [818.8, 515], 'bid': 5}, {'imgObject': {}, 'id': 'lox', 'src': '/static/foodstim60/lox.jpg', 'key': 'i', 'origWidth': 410, 'origHeight': 411, 'width': 410, 'height': 411, 'widthPercent': 0.45, 'rescaleHeight': False, 'trialN': 97, 'loaded': True, 'loadedTime': 4227.89999999851, 'positionName': 'RIGHT', 'positionCoords': [1331.2, 514.5], 'bid': 2.48}]",227168.0,1669831765184,olives,lox,5.0,2.48,-2.52,lox,2553.800000000745,2554,2554.099999997765,True,i,230234.69999999925,3066.699999999255,1669831768250,3066,HRV,HRV_0131,2022-11-30 18:12:10
98,"[{'imgObject': {}, 'id': 'blueberries', 'src': '/static/foodstim60/blueberries.jpg', 'key': 'u', 'origWidth': 411, 'origHeight': 411, 'width': 411, 'height': 411, 'widthPercent': 0.45, 'rescaleHeight': False, 'trialN': 98, 'loaded': True, 'loadedTime': 4300.199999999255, 'positionName': 'LEFT', 'positionCoords': [817.8, 514.5], 'bid': 9.96}, {'imgObject': {}, 'id': 'tacos', 'src': '/static/foodstim60/tacos.jpg', 'key': 'i', 'origWidth': 411, 'origHeight': 411, 'width': 411, 'height': 411, 'widthPercent': 0.45, 'rescaleHeight': False, 'trialN': 98, 'loaded': True, 'loadedTime': 4031.699999999255, 'positionName': 'RIGHT', 'positionCoords': [1331.2, 514.5], 'bid': 10}]",230234.8999999985,1669831768251,blueberries,tacos,9.96,10.0,0.03999999999999915,tacos,1350.800000000745,1351,1351.1000000014901,True,i,232095.5,1860.6000000014901,1669831770111,1860,HRV,HRV_0131,2022-11-30 18:12:10
99,"[{'imgObject': {}, 'id': 'turkey sandwich', 'src': '/static/foodstim60/turkey sandwich.jpg', 'key': 'u', 'origWidth': 409, 'origHeight': 409, 'width': 409, 'height': 409, 'widthPercent': 0.45, 'rescaleHeight': False, 'trialN': 99, 'loaded': True, 'loadedTime': 4316.89999999851, 'positionName': 'LEFT', 'positionCoords': [819.8, 515.5], 'bid': 10}, {'imgObject': {}, 'id': 'steak', 'src': '/static/foodstim60/steak.jpg', 'key': 'i', 'origWidth': 410, 'origHeight': 410, 'width': 410, 'height': 410, 'widthPercent': 0.45, 'rescaleHeight': False, 'trialN': 99, 'loaded': True, 'loadedTime': 4045.199999999255, 'positionName': 'RIGHT', 'positionCoords': [1331.2, 515], 'bid': 9.99}]",232095.59999999776,1669831770111,turkey sandwich,steak,10.0,9.99,-0.009999999999999787,steak,1172.1000000014901,1173,1172.4000000022352,True,i,233782.8999999985,1687.300000000745,1669831771799,1688,HRV,HRV_0131,2022-11-30 18:12:10
100,"[{'imgObject': {}, 'id': 'mac & cheese', 'src': '/static/foodstim60/mac & cheese.jpg', 'key': 'u', 'origWidth': 410, 'origHeight': 410, 'width': 410, 'height': 410, 'widthPercent': 0.45, 'rescaleHeight': False, 'trialN': 100, 'loaded': True, 'loadedTime': 4331.699999999255, 'positionName': 'LEFT', 'positionCoords': [818.8, 515], 'bid': 4.92}, {'imgObject': {}, 'id': 'omelette', 'src': '/static/foodstim60/omelette.jpg', 'key': 'i', 'origWidth': 410, 'origHeight': 409, 'width': 410, 'height': 409, 'widthPercent': 0.45, 'rescaleHeight': False, 'trialN': 100, 'loaded': True, 'loadedTime': 4210.5, 'positionName': 'RIGHT', 'positionCoords': [1331.2, 515.5], 'bid': 9.98}]",233783.0,1669831771799,mac & cheese,omelette,4.92,9.98,5.0600000000000005,omelette,1434.8999999985099,1435,1435.199999999255,True,i,235731.59999999776,1948.5999999977648,1669831773747,1948,HRV,HRV_0131,2022-11-30 18:12:10
101,"[{'imgObject': {}, 'id': 'froot loops w milk', 'src': '/static/foodstim60/froot loops w milk.jpg', 'key': 'u', 'origWidth': 410, 'origHeight': 410, 'width': 410, 'height': 410, 'widthPercent': 0.45, 'rescaleHeight': False, 'trialN': 101, 'loaded': True, 'loadedTime': 4025.5, 'positionName': 'LEFT', 'positionCoords': [818.8, 515], 'bid': 2.76}, {'imgObject': {}, 'id': 'cherry tomato', 'src': '/static/foodstim60/cherry tomato.jpg', 'key': 'i', 'origWidth': 410, 'origHeight': 410, 'width': 410, 'height': 410, 'widthPercent': 0.45, 'rescaleHeight': False, 'trialN': 101, 'loaded': True, 'loadedTime': 4017, 'positionName': 'RIGHT', 'positionCoords': [1331.2, 515], 'bid': 2.36}]",235731.69999999925,1669831773747,froot loops w milk,cherry tomato,2.76,2.36,-0.3999999999999999,cherry tomato,1472,1473,1472.300000000745,True,i,237717.0,1985.300000000745,1669831775733,1986,HRV,HRV_0131,2022-11-30 18:12:10
102,"[{'imgObject': {}, 'id': 'eggsalad', 'src': '/static/foodstim60/eggsalad.jpg', 'key': 'u', 'origWidth': 410, 'origHeight': 409, 'width': 410, 'height': 409, 'widthPercent': 0.45, 'rescaleHeight': False, 'trialN': 102, 'loaded': True, 'loadedTime': 4280.699999999255, 'positionName': 'LEFT', 'positionCoords': [818.8, 515.5], 'bid': 9.92}, {'imgObject': {}, 'id': 'turkey sandwich', 'src': '/static/foodstim60/turkey sandwich.jpg', 'key': 'i', 'origWidth': 409, 'origHeight': 409, 'width': 409, 'height': 409, 'widthPercent': 0.45, 'rescaleHeight': False, 'trialN': 102, 'loaded': True, 'loadedTime': 4316.89999999851, 'positionName': 'RIGHT', 'positionCoords': [1331.2, 515.5], 'bid': 10}]",237717.19999999925,1669831775733,eggsalad,turkey sandwich,9.92,10.0,0.08000000000000007,turkey sandwich,1322.5,1323,1322.800000000745,True,i,239544.19999999925,1827.0,1669831777560,1827,HRV,HRV_0131,2022-11-30 18:12:10
103,"[{'imgObject': {}, 'id': 'chicken nuggets2', 'src': '/static/foodstim60/chicken nuggets2.jpg', 'key': 'u', 'origWidth': 410, 'origHeight': 409, 'width': 410, 'height': 409, 'widthPercent': 0.45, 'rescaleHeight': False, 'trialN': 103, 'loaded': True, 'loadedTime': 4186.099999997765, 'positionName': 'LEFT', 'positionCoords': [818.8, 515.5], 'bid': 9.94}, {'imgObject': {}, 'id': 'burger', 'src': '/static/foodstim60/burger.jpg', 'key': 'i', 'origWidth': 409, 'origHeight': 409, 'width': 409, 'height': 409, 'widthPercent': 0.45, 'rescaleHeight': False, 'trialN': 103, 'loaded': True, 'loadedTime': 4333, 'positionName': 'RIGHT', 'positionCoords': [1331.2, 515.5], 'bid': 9.96}]",239544.30000000075,1669831777560,chicken nuggets2,burger,9.94,9.96,0.02000000000000135,burger,1903.2999999970198,1903,1903.5999999977648,True,i,241957.30000000075,2413.0,1669831779973,2413,HRV,HRV_0131,2022-11-30 18:12:10
104,"[{'imgObject': {}, 'id': 'raisin bran w milk', 'src': '/static/foodstim60/raisin bran w milk.jpg', 'key': 'u', 'origWidth': 411, 'origHeight': 411, 'width': 411, 'height': 411, 'widthPercent': 0.45, 'rescaleHeight': False, 'trialN': 104, 'loaded': True, 'loadedTime': 4250.89999999851, 'positionName': 'LEFT', 'positionCoords': [817.8, 514.5], 'bid': 7.82}, {'imgObject': {}, 'id': 'luckycharms', 'src': '/static/foodstim60/luckycharms.jpg', 'key': 'i', 'origWidth': 410, 'origHeight': 409, 'width': 410, 'height': 409, 'widthPercent': 0.45, 'rescaleHeight': False, 'trialN': 104, 'loaded': True, 'loadedTime': 3835.099999997765, 'positionName': 'RIGHT', 'positionCoords': [1331.2, 515.5], 'bid': 2.39}]",241957.5,1669831779973,raisin bran w milk,luckycharms,7.82,2.39,-5.43,raisin bran w milk,1968.8999999985099,1969,1969.0,True,u,244433.59999999776,2476.099999997765,1669831782449,2476,HRV,HRV_0131,2022-11-30 18:12:10
105,"[{'imgObject': {}, 'id': 'eggsalad', 'src': '/static/foodstim60/eggsalad.jpg', 'key': 'u', 'origWidth': 410, 'origHeight': 409, 'width': 410, 'height': 409, 'widthPercent': 0.45, 'rescaleHeight': False, 'trialN': 105, 'loaded': True, 'loadedTime': 4285.699999999255, 'positionName': 'LEFT', 'positionCoords': [818.8, 515.5], 'bid': 9.92}, {'imgObject': {}, 'id': 'blueberries', 'src': '/static/foodstim60/blueberries.jpg', 'key': 'i', 'origWidth': 411, 'origHeight': 411, 'width': 411, 'height': 411, 'widthPercent': 0.45, 'rescaleHeight': False, 'trialN': 105, 'loaded': True, 'loadedTime': 4299.89999999851, 'positionName': 'RIGHT', 'positionCoords': [1331.2, 514.5], 'bid': 9.96}]",244433.69999999925,1669831782449,eggsalad,blueberries,9.92,9.96,0.040000000000000924,eggsalad,2840.10000000149,2840,2840.39999999851,True,u,247776.5,3342.800000000745,1669831785792,3343,HRV,HRV_0131,2022-11-30 18:12:10
106,"[{'imgObject': {}, 'id': 'edamame', 'src': '/static/foodstim60/edamame.jpg', 'key': 'u', 'origWidth': 409, 'origHeight': 410, 'width': 409, 'height': 410, 'widthPercent': 0.45, 'rescaleHeight': False, 'trialN': 106, 'loaded': True, 'loadedTime': 4256.5, 'positionName': 'LEFT', 'positionCoords': [819.8, 515], 'bid': 2.48}, {'imgObject': {}, 'id': 'ice cream sundae 002', 'src': '/static/foodstim60/ice cream sundae 002.jpg', 'key': 'i', 'origWidth': 409, 'origHeight': 409, 'width': 409, 'height': 409, 'widthPercent': 0.45, 'rescaleHeight': False, 'trialN': 106, 'loaded': True, 'loadedTime': 4334.300000000745, 'positionName': 'RIGHT', 'positionCoords': [1331.2, 515.5], 'bid': 8.52}]",247776.69999999925,1669831785792,edamame,ice cream sundae 002,2.48,8.52,6.039999999999999,ice cream sundae 002,1381,1381,1381.300000000745,True,i,249668.59999999776,1891.8999999985099,1669831787684,1892,HRV,HRV_0131,2022-11-30 18:12:10
107,"[{'imgObject': {}, 'id': 'luckycharms', 'src': '/static/foodstim60/luckycharms.jpg', 'key': 'u', 'origWidth': 410, 'origHeight': 409, 'width': 410, 'height': 409, 'widthPercent': 0.45, 'rescaleHeight': False, 'trialN': 107, 'loaded': True, 'loadedTime': 3841.099999997765, 'positionName': 'LEFT', 'positionCoords': [818.8, 515.5], 'bid': 2.39}, {'imgObject': {}, 'id': 'hashbrowns', 'src': '/static/foodstim60/hashbrowns.jpg', 'key': 'i', 'origWidth': 411, 'origHeight': 410, 'width': 411, 'height': 410, 'widthPercent': 0.45, 'rescaleHeight': False, 'trialN': 107, 'loaded': True, 'loadedTime': 3984.89999999851, 'positionName': 'RIGHT', 'positionCoords': [1331.2, 515], 'bid': 4.96}]",249668.69999999925,1669831787684,luckycharms,hashbrowns,2.39,4.96,2.57,hashbrowns,1258.8999999985099,1259,1259.300000000745,True,i,251434.30000000075,1765.6000000014901,1669831789450,1766,HRV,HRV_0131,2022-11-30 18:12:10
108,"[{'imgObject': {}, 'id': 'popsicles', 'src': '/static/foodstim60/popsicles.jpg', 'key': 'u', 'origWidth': 410, 'origHeight': 410, 'width': 410, 'height': 410, 'widthPercent': 0.45, 'rescaleHeight': False, 'trialN': 108, 'loaded': True, 'loadedTime': 4335.699999999255, 'positionName': 'LEFT', 'positionCoords': [818.8, 515], 'bid': 2.07}, {'imgObject': {}, 'id': 'burger', 'src': '/static/foodstim60/burger.jpg', 'key': 'i', 'origWidth': 409, 'origHeight': 409, 'width': 409, 'height': 409, 'widthPercent': 0.45, 'rescaleHeight': False, 'trialN': 108, 'loaded': True, 'loadedTime': 4332.5, 'positionName': 'RIGHT', 'positionCoords': [1331.2, 515.5], 'bid': 9.96}]",251434.3999999985,1669831789450,popsicles,burger,2.07,9.96,7.890000000000001,burger,1446.6000000014901,1447,1447.1000000014901,True,i,253383.0,1948.6000000014901,1669831791398,1948,HRV,HRV_0131,2022-11-30 18:12:10
109,"[{'imgObject': {}, 'id': 'eggsalad', 'src': '/static/foodstim60/eggsalad.jpg', 'key': 'u', 'origWidth': 410, 'origHeight': 409, 'width': 410, 'height': 409, 'widthPercent': 0.45, 'rescaleHeight': False, 'trialN': 109, 'loaded': True, 'loadedTime': 4285.599999997765, 'positionName': 'LEFT', 'positionCoords': [818.8, 515.5], 'bid': 9.92}, {'imgObject': {}, 'id': 'fruitsalad', 'src': '/static/foodstim60/fruitsalad.jpg', 'key': 'i', 'origWidth': 410, 'origHeight': 410, 'width': 410, 'height': 410, 'widthPercent': 0.45, 'rescaleHeight': False, 'trialN': 109, 'loaded': True, 'loadedTime': 4091.39999999851, 'positionName': 'RIGHT', 'positionCoords': [1331.2, 515], 'bid': 9.93}]",253383.0,1669831791398,eggsalad,fruitsalad,9.92,9.93,0.009999999999999787,eggsalad,2449.89999999851,2451,2450.199999999255,True,u,256334.80000000075,2951.800000000745,1669831794350,2952,HRV,HRV_0131,2022-11-30 18:12:10
