success,trial_type,trial_index,time_elapsed,internal_node_id,missTrial,missTrialMsg,Block,TrialNumber,TrialTime,trialTimeDiff,FPS_avg,FPS_med,FPS_mode,TrialDur,winResizeTime,rt,block,button_pressed,MotCoh,MotDir,ColCoh,Color,ChoiceKey,Choice,Accuracy,RT,nFrames,FPS,PPD,onsetDelay,fullScreenExitTime,canvCenter,TrialType,Score,BlockTrial,stimulus,button_labels,exp,subjectId,date
True,fullscreen,0,3553,0.0-0.0,True,undefinedblurEvent ,0.0,0.0,,,,,,,,,,,,,,,,,,,,,,,,,,,,,,HRV,HRV_0131,2022-11-30 18:22:12
,wl-check-fps,1,8545,0.0-1.0,,,0.0,1.0,"[4080.8, 4083.3, 4099.9, 4116.5, 4133.2, 4149.9, 4166.6, 4183.2, 4199.9, 4216.6, 4233.5, 4250.1, 4266.8, 4283.5, 4300, 4316.8, 4333.4, 4350.1, 4366.9, 4383.6, 4400.2, 4417.1, 4433.8, 4450.3, 4467, 4483.6, 4500.4, 4517.1, 4534.6, 4550.4, 4567.1, 4583.8, 4600.2, 4617, 4633.7, 4650.3, 4667.1, 4683.7, 4700.4, 4717.1, 4733.8, 4750.4, 4767.2, 4783.9, 4800.5, 4817.2, 4833.8, 4850.6, 4867.2, 4883.8, 4900.5, 4917.2, 4933.9, 4950.6, 4967.2, 4984, 5000.7, 5017.5, 5034.1, 5050.9, 5067.4, 5084, 5100.7, 5117.5, 5134.1, 5150.8, 5167.5, 5184.2, 5200.8, 5217.4, 5234.1, 5250.8, 5267.5, 5284.1, 5300.8, 5317.6, 5334.2, 5351, 5367.6, 5384.2, 5400.9, 5417.7, 5434.3, 5450.9, 5467.7, 5484.3, 5501, 5517.7, 5534.7, 5551.1, 5567.8, 5584.4, 5601.1, 5617.8, 5634.4, 5651.1, 5667.9, 5684.5, 5701.3, 5717.8, 5734.6, 5751.2, 5767.9, 5784.5, 5801.3, 5817.9, 5834.7, 5851.3, 5868, 5884.6, 5901.4, 5918, 5934.7, 5952.7, 5968, 5984.7, 6001.5, 6018.1, 6034.8, 6051.4, 6068.1, 6085, 6101.6, 6118.3, 6134.9, 6151.5, 6168.3, 6184.9, 6201.6, 6218.4, 6234.9, 6251.7, 6268.4, 6285, 6301.8, 6318.3, 6335.1, 6351.7, 6368.4, 6385.1, 6401.7, 6418.5, 6435.1, 6451.8, 6468.5, 6485.1, 6501.9, 6518.5, 6535.5, 6551.8, 6568.5, 6585.2, 6601.9, 6618.6, 6635.3, 6652, 6668.7, 6685.4, 6702, 6718.7, 6735.4, 6752, 6768.7, 6785.4, 6802.1, 6818.8, 6835.5, 6852.2, 6868.8, 6885.4, 6902.2, 6918.9, 6935.5, 6952.2, 6968.9, 6985.6, 7002.4, 7018.9, 7035.6, 7052.4, 7069.1, 7085.7, 7102.4, 7119, 7135.8, 7152.4, 7169.1, 7185.8, 7202.4, 7219.1, 7235.7, 7252.4, 7269.1, 7285.8, 7302.6, 7319.2, 7335.9, 7352.5, 7369.3, 7385.9, 7402.7, 7419.2, 7436, 7452.6, 7469.3, 7486, 7502.6, 7519.4, 7536, 7552.7, 7569.4, 7586.1, 7602.7, 7619.4, 7636.1, 7652.8, 7669.5, 7686.2, 7702.8, 7719.5, 7736.2, 7752.8, 7769.6, 7786.3, 7802.9, 7819.6, 7836.3, 7853, 7869.6, 7886.4, 7903, 7919.7, 7936.4, 7953, 7969.7, 7986.4, 8003, 8019.7, 8036.6, 8053.1, 8069.9, 8086.6, 8103.1, 8119.8, 8136.6, 8153.3, 8169.9, 8186.6, 8203.2, 8220, 8236.6, 8253.4, 8270, 8286.7, 8303.3, 8320, 8336.7, 8353.3, 8370.1, 8386.8, 8403.4, 8420.1, 8436.8, 8453.5, 8470.1, 8486.8, 8503.5, 8520.1, 8536.9, 8553.4, 8570.2, 8587, 8603.6, 8620.2, 8636.9, 8653.6, 8670.3, 8687.1, 8703.7, 8720.3, 8737.1, 8753.7, 8770.3, 8787, 8803.8, 8820.4, 8837.1, 8853.8, 8870.4, 8887, 8903.8, 8920.5, 8937.3, 8953.8, 8970.7, 8987.3, 9004, 9020.6, 9037.2, 9054]","[0.8, 2.5, 16.6, 16.6, 16.7, 16.7, 16.7, 16.6, 16.7, 16.7, 16.9, 16.6, 16.7, 16.7, 16.5, 16.8, 16.6, 16.7, 16.8, 16.7, 16.6, 16.9, 16.7, 16.5, 16.7, 16.6, 16.8, 16.7, 17.5, 15.8, 16.7, 16.7, 16.4, 16.8, 16.7, 16.6, 16.8, 16.6, 16.7, 16.7, 16.7, 16.6, 16.8, 16.7, 16.6, 16.7, 16.6, 16.8, 16.6, 16.6, 16.7, 16.7, 16.7, 16.7, 16.6, 16.8, 16.7, 16.8, 16.6, 16.8, 16.5, 16.6, 16.7, 16.8, 16.6, 16.7, 16.7, 16.7, 16.6, 16.6, 16.7, 16.7, 16.7, 16.6, 16.7, 16.8, 16.6, 16.8, 16.6, 16.6, 16.7, 16.8, 16.6, 16.6, 16.8, 16.6, 16.7, 16.7, 17, 16.4, 16.7, 16.6, 16.7, 16.7, 16.6, 16.7, 16.8, 16.6, 16.8, 16.5, 16.8, 16.6, 16.7, 16.6, 16.8, 16.6, 16.8, 16.6, 16.7, 16.6, 16.8, 16.6, 16.7, 18, 15.3, 16.7, 16.8, 16.6, 16.7, 16.6, 16.7, 16.9, 16.6, 16.7, 16.6, 16.6, 16.8, 16.6, 16.7, 16.8, 16.5, 16.8, 16.7, 16.6, 16.8, 16.5, 16.8, 16.6, 16.7, 16.7, 16.6, 16.8, 16.6, 16.7, 16.7, 16.6, 16.8, 16.6, 17, 16.3, 16.7, 16.7, 16.7, 16.7, 16.7, 16.7, 16.7, 16.7, 16.6, 16.7, 16.7, 16.6, 16.7, 16.7, 16.7, 16.7, 16.7, 16.7, 16.6, 16.6, 16.8, 16.7, 16.6, 16.7, 16.7, 16.7, 16.8, 16.5, 16.7, 16.8, 16.7, 16.6, 16.7, 16.6, 16.8, 16.6, 16.7, 16.7, 16.6, 16.7, 16.6, 16.7, 16.7, 16.7, 16.8, 16.6, 16.7, 16.6, 16.8, 16.6, 16.8, 16.5, 16.8, 16.6, 16.7, 16.7, 16.6, 16.8, 16.6, 16.7, 16.7, 16.7, 16.6, 16.7, 16.7, 16.7, 16.7, 16.7, 16.6, 16.7, 16.7, 16.6, 16.8, 16.7, 16.6, 16.7, 16.7, 16.7, 16.6, 16.8, 16.6, 16.7, 16.7, 16.6, 16.7, 16.7, 16.6, 16.7, 16.9, 16.5, 16.8, 16.7, 16.5, 16.7, 16.8, 16.7, 16.6, 16.7, 16.6, 16.8, 16.6, 16.8, 16.6, 16.7, 16.6, 16.7, 16.7, 16.6, 16.8, 16.7, 16.6, 16.7, 16.7, 16.7, 16.6, 16.7, 16.7, 16.6, 16.8, 16.5, 16.8, 16.8, 16.6, 16.6, 16.7, 16.7, 16.7, 16.8, 16.6, 16.6, 16.8, 16.6, 16.6, 16.7, 16.8, 16.6, 16.7, 16.7, 16.6, 16.6, 16.8, 16.7, 16.8, 16.5, 16.9, 16.6, 16.7, 16.6, 16.6, 16.8]",60.0,61.0,60.0,4990.6,[],,,,,,,,,,,,,,,,,,,,,,,HRV,HRV_0131,2022-11-30 18:22:12
,wl-html-keyboard-response,2,27802,0.0-2.0-0.0,True,undefinedblurEvent ,0.0,1.0,,,,,,,,17248.0,0.0,0,,,,,,,,,,,,,,,,,,,,HRV,HRV_0131,2022-11-30 18:22:12
,wl-rdm,3,35233,0.0-3.0-0.0,False,,0.0,2.0,,,,,,,[],,,,0.0,0.0,87.9,0.0,u,0.0,True,1876.1999999955297,113.0,60.0,40.0,3000.0,[],"[1280, 720]",ColorTask_Demo,,,,,HRV,HRV_0131,2022-11-30 18:22:12
,wl-rdm,4,40087,0.0-3.0-1.0,False,,0.0,3.0,,,,,,,[],,,,0.0,0.0,87.9,1.0,i,1.0,True,797.2000000029802,48.0,60.0,40.0,2000.0,[],"[1280, 720]",ColorTask_Demo,,,,,HRV,HRV_0131,2022-11-30 18:22:12
,wl-html-keyboard-response,5,46497,0.0-3.0-2.0,,,0.0,4.0,,,,,,,,4406.300000000745,0.0,1,,,,,,,,,,,,,,,,,,,,HRV,HRV_0131,2022-11-30 18:22:12
,wl-html-keyboard-response,6,54796,0.0-4.0-0.0,,,0.0,5.0,,,,,,,,6287.89999999851,0.0,0,,,,,,,,,,,,,,,,,,,,HRV,HRV_0131,2022-11-30 18:22:12
,wl-html-keyboard-response,7,62385,0.0-5.0-0.0,,,0.0,6.0,,,,,,,,5580.60000000149,0.0,0,,,,,,,,,,,,,,,,,,,,HRV,HRV_0131,2022-11-30 18:22:12
,wl-rdm,8,64290,0.0-6.0-0.0,False,,0.0,7.0,,,,,,,[],,,,,,56.4,0.0,u,0.0,True,535.3000000007451,33.0,60.0,40.0,312.73230162991854,[],"[1280, 720]",ColorTask,1.0,1.0,,,HRV,HRV_0131,2022-11-30 18:22:12
,wl-rdm,9,66925,0.0-6.1-0.1,False,,0.0,8.0,,,,,,,[],,,,,,53.2,0.0,u,0.0,True,1292.300000000745,78.0,60.0,40.0,279.04643047402965,[],"[1280, 720]",ColorTask,2.0,2.0,,,HRV,HRV_0131,2022-11-30 18:22:12
,wl-rdm,10,69110,0.0-6.2-0.2,False,,0.0,9.0,,,,,,,[],,,,,,56.4,1.0,u,0.0,False,839.1999999992549,51.0,60.0,40.0,279.47749300165214,[],"[1280, 720]",ColorTask,1.0,3.0,,,HRV,HRV_0131,2022-11-30 18:22:12
,wl-rdm,11,71245,0.0-6.3-0.3,False,,0.0,10.0,,,,,,,[],,,,,,87.9,1.0,i,1.0,True,715.8999999985099,43.0,60.0,40.0,362.55680661478254,[],"[1280, 720]",ColorTask,2.0,4.0,,,HRV,HRV_0131,2022-11-30 18:22:12
,wl-rdm,12,73447,0.0-6.4-0.4,False,,0.0,11.0,,,,,,,[],,,,,,56.4,0.0,u,0.0,True,914.5,55.0,60.0,40.0,221.6577364103876,[],"[1280, 720]",ColorTask,3.0,5.0,,,HRV,HRV_0131,2022-11-30 18:22:12
,wl-rdm,13,75682,0.0-6.5-0.5,False,,0.0,12.0,,,,,,,[],,,,,,53.2,1.0,u,0.0,False,785.4000000022352,48.0,60.0,40.0,370.74114036131573,[],"[1280, 720]",ColorTask,2.0,6.0,,,HRV,HRV_0131,2022-11-30 18:22:12
,wl-rdm,14,77934,0.0-6.6-0.6,False,,0.0,13.0,,,,,,,[],,,,,,62.5,0.0,i,1.0,False,882.0,53.0,60.0,40.0,310.0654186262896,[],"[1280, 720]",ColorTask,1.0,7.0,,,HRV,HRV_0131,2022-11-30 18:22:12
,wl-rdm,15,80153,0.0-6.7-0.7,False,,0.0,14.0,,,,,,,[],,,,,,62.5,1.0,i,1.0,True,935.4000000022352,57.0,60.0,40.0,201.01097531570466,[],"[1280, 720]",ColorTask,2.0,8.0,,,HRV,HRV_0131,2022-11-30 18:22:12
,wl-rdm,16,82521,0.0-6.8-0.8,False,,0.0,15.0,,,,,,,[],,,,,,56.4,1.0,u,0.0,False,1032.699999999255,62.0,60.0,40.0,281.60055874006093,[],"[1280, 720]",ColorTask,1.0,9.0,,,HRV,HRV_0131,2022-11-30 18:22:12
,wl-rdm,17,84740,0.0-6.9-0.9,False,,0.0,16.0,,,,,,,[],,,,,,53.2,0.0,i,1.0,False,830.4000000022352,50.0,60.0,40.0,327.5788078132424,[],"[1280, 720]",ColorTask,0.0,10.0,,,HRV,HRV_0131,2022-11-30 18:22:12
,wl-rdm,18,86975,0.0-6.10-0.10,False,,0.0,17.0,,,,,,,[],,,,,,56.4,0.0,u,0.0,True,851.5,52.0,60.0,40.0,304.67459584316475,[],"[1280, 720]",ColorTask,1.0,11.0,,,HRV,HRV_0131,2022-11-30 18:22:12
,wl-rdm,19,89060,0.0-6.11-0.11,False,,0.0,18.0,,,,,,,[],,,,,,53.2,1.0,u,0.0,False,792.0999999977648,48.0,60.0,40.0,231.52403240830927,[],"[1280, 720]",ColorTask,0.0,12.0,,,HRV,HRV_0131,2022-11-30 18:22:12
,wl-rdm,20,91279,0.0-6.12-0.12,False,,0.0,19.0,,,,,,,[],,,,,,53.2,1.0,u,0.0,False,871.8999999985099,53.0,60.0,40.0,267.06170649254045,[],"[1280, 720]",ColorTask,-1.0,13.0,,,HRV,HRV_0131,2022-11-30 18:22:12
,wl-rdm,21,93731,0.0-6.13-0.13,False,,0.0,20.0,,,,,,,[],,,,,,56.4,0.0,u,0.0,True,1038.800000000745,63.0,60.0,40.0,333.7096570737561,[],"[1280, 720]",ColorTask,0.0,14.0,,,HRV,HRV_0131,2022-11-30 18:22:12
,wl-rdm,22,95849,0.0-6.14-0.14,False,,0.0,21.0,,,,,,,[],,,,,,62.5,0.0,u,0.0,True,762.6000000014901,46.0,60.0,40.0,286.538909657488,[],"[1280, 720]",ColorTask,1.0,15.0,,,HRV,HRV_0131,2022-11-30 18:22:12
,wl-rdm,23,98168,0.0-6.15-0.15,False,,0.0,22.0,,,,,,,[],,,,,,50.0,0.0,i,1.0,False,899.7999999970198,54.0,60.0,40.0,366.8688574992152,[],"[1280, 720]",ColorTask,0.0,16.0,,,HRV,HRV_0131,2022-11-30 18:22:12
,wl-rdm,24,100404,0.0-6.16-0.16,False,,0.0,23.0,,,,,,,[],,,,,,62.5,1.0,u,0.0,False,786.2999999970198,48.0,60.0,40.0,381.9423187596327,[],"[1280, 720]",ColorTask,-1.0,17.0,,,HRV,HRV_0131,2022-11-30 18:22:12
,wl-rdm,25,102505,0.0-6.17-0.17,False,,0.0,24.0,,,,,,,[],,,,,,87.9,1.0,i,1.0,True,716.8000000007451,43.0,60.0,40.0,330.4988530968846,[],"[1280, 720]",ColorTask,0.0,18.0,,,HRV,HRV_0131,2022-11-30 18:22:12
,wl-rdm,26,104490,0.0-6.18-0.18,False,,0.0,25.0,,,,,,,[],,,,,,87.9,1.0,i,1.0,True,703.0,43.0,60.0,40.0,201.30317877565287,[],"[1280, 720]",ColorTask,1.0,19.0,,,HRV,HRV_0131,2022-11-30 18:22:12
,wl-rdm,27,106659,0.0-6.19-0.19,False,,0.0,26.0,,,,,,,[],,,,,,53.2,0.0,i,1.0,False,896.6999999992549,54.0,60.0,40.0,215.4945669295538,[],"[1280, 720]",ColorTask,0.0,20.0,,,HRV,HRV_0131,2022-11-30 18:22:12
,wl-rdm,28,108710,0.0-6.20-0.20,False,,0.0,27.0,,,,,,,[],,,,,,87.9,0.0,u,0.0,True,702.4999999962747,43.0,60.0,40.0,267.8209132633333,[],"[1280, 720]",ColorTask,1.0,21.0,,,HRV,HRV_0131,2022-11-30 18:22:12
,wl-rdm,29,110779,0.0-6.21-0.21,False,,0.0,28.0,,,,,,,[],,,,,,62.5,0.0,u,0.0,True,672.2000000029802,41.0,60.0,40.0,329.17774631010394,[],"[1280, 720]",ColorTask,2.0,22.0,,,HRV,HRV_0131,2022-11-30 18:22:12
,wl-rdm,30,113014,0.0-6.22-0.22,False,,0.0,29.0,,,,,,,[],,,,,,53.2,1.0,i,1.0,True,810.1000000014901,49.0,60.0,40.0,355.5467764283161,[],"[1280, 720]",ColorTask,3.0,23.0,,,HRV,HRV_0131,2022-11-30 18:22:12
,wl-rdm,31,115115,0.0-6.23-0.23,False,,0.0,30.0,,,,,,,[],,,,,,73.6,1.0,i,1.0,True,733.1000000014901,44.0,60.0,40.0,304.65689796984253,[],"[1280, 720]",ColorTask,4.0,24.0,,,HRV,HRV_0131,2022-11-30 18:22:12
,wl-rdm,32,117367,0.0-6.24-0.24,False,,0.0,31.0,,,,,,,[],,,,,,62.5,0.0,i,1.0,False,856.5999999977648,52.0,60.0,40.0,329.5695855084997,[],"[1280, 720]",ColorTask,3.0,25.0,,,HRV,HRV_0131,2022-11-30 18:22:12
,wl-rdm,33,119469,0.0-6.25-0.25,False,,0.0,32.0,,,,,,,[],,,,,,73.6,1.0,i,1.0,True,818.2999999970198,50.0,60.0,40.0,206.95263746349318,[],"[1280, 720]",ColorTask,4.0,26.0,,,HRV,HRV_0131,2022-11-30 18:22:12
,wl-rdm,34,121804,0.0-6.26-0.26,False,,0.0,33.0,,,,,,,[],,,,,,56.4,1.0,i,1.0,True,949.1999999992549,57.0,60.0,40.0,325.09349037565363,[],"[1280, 720]",ColorTask,5.0,27.0,,,HRV,HRV_0131,2022-11-30 18:22:12
,wl-rdm,35,124106,0.0-6.27-0.27,False,,0.0,34.0,,,,,,,[],,,,,,56.4,0.0,u,0.0,True,898.8999999985099,54.0,60.0,40.0,347.0720571753371,[],"[1280, 720]",ColorTask,6.0,28.0,,,HRV,HRV_0131,2022-11-30 18:22:12
,wl-rdm,36,126408,0.0-6.28-0.28,False,,0.0,35.0,,,,,,,[],,,,,,56.4,1.0,i,1.0,True,974.6999999992549,59.0,60.0,40.0,264.3187969318858,[],"[1280, 720]",ColorTask,7.0,29.0,,,HRV,HRV_0131,2022-11-30 18:22:12
,wl-rdm,37,128643,0.0-6.29-0.29,False,,0.0,36.0,,,,,,,[],,,,,,62.5,0.0,u,0.0,True,898.0999999977648,54.0,60.0,40.0,273.19259678423896,[],"[1280, 720]",ColorTask,8.0,30.0,,,HRV,HRV_0131,2022-11-30 18:22:12
,wl-rdm,38,130762,0.0-6.30-0.30,False,,0.0,37.0,,,,,,,[],,,,,,53.2,0.0,u,0.0,True,804.5,49.0,60.0,40.0,242.1860846275026,[],"[1280, 720]",ColorTask,9.0,31.0,,,HRV,HRV_0131,2022-11-30 18:22:12
,wl-rdm,39,132930,0.0-6.31-0.31,False,,0.0,38.0,,,,,,,[],,,,,,50.0,1.0,u,0.0,False,774.5,47.0,60.0,40.0,318.9753292551962,[],"[1280, 720]",ColorTask,8.0,32.0,,,HRV,HRV_0131,2022-11-30 18:22:12
,wl-rdm,40,134915,0.0-6.32-0.32,False,,0.0,39.0,,,,,,,[],,,,,,62.5,1.0,i,1.0,True,665.0,40.0,60.0,40.0,254.11958664776301,[],"[1280, 720]",ColorTask,9.0,33.0,,,HRV,HRV_0131,2022-11-30 18:22:12
,wl-rdm,41,137133,0.0-6.33-0.33,False,,0.0,40.0,,,,,,,[],,,,,,50.0,1.0,u,0.0,False,858.5,52.0,60.0,40.0,298.6345164337003,[],"[1280, 720]",ColorTask,8.0,34.0,,,HRV,HRV_0131,2022-11-30 18:22:12
,wl-rdm,42,139269,0.0-6.34-0.34,False,,0.0,41.0,,,,,,,[],,,,,,56.4,0.0,i,1.0,False,811.2000000029802,49.0,60.0,40.0,254.7183906932799,[],"[1280, 720]",ColorTask,7.0,35.0,,,HRV,HRV_0131,2022-11-30 18:22:12
,wl-rdm,43,141704,0.0-6.35-0.35,False,,0.0,42.0,,,,,,,[],,,,,,53.2,0.0,u,0.0,True,1028.8999999985099,62.0,60.0,40.0,348.78342341140797,[],"[1280, 720]",ColorTask,8.0,36.0,,,HRV,HRV_0131,2022-11-30 18:22:12
,wl-rdm,44,144139,0.0-6.36-0.36,False,,0.0,43.0,,,,,,,[],,,,,,50.0,1.0,u,0.0,False,979.5,59.0,60.0,40.0,388.01953644561695,[],"[1280, 720]",ColorTask,7.0,37.0,,,HRV,HRV_0131,2022-11-30 18:22:12
,wl-rdm,45,146308,0.0-6.37-0.37,False,,0.0,44.0,,,,,,,[],,,,,,87.9,0.0,u,0.0,True,776.6000000014901,47.0,60.0,40.0,320.3178355510806,[],"[1280, 720]",ColorTask,8.0,38.0,,,HRV,HRV_0131,2022-11-30 18:22:12
,wl-rdm,46,148326,0.0-6.38-0.38,False,,0.0,45.0,,,,,,,[],,,,,,73.6,0.0,u,0.0,True,699.5,41.0,60.0,40.0,251.5059614485615,[],"[1280, 720]",ColorTask,9.0,39.0,,,HRV,HRV_0131,2022-11-30 18:22:12
,wl-rdm,47,150528,0.0-6.39-0.39,False,,0.0,46.0,,,,,,,[],,,,,,53.2,0.0,u,0.0,True,862.3000000007451,52.0,60.0,40.0,275.9626677068808,[],"[1280, 720]",ColorTask,10.0,40.0,,,HRV,HRV_0131,2022-11-30 18:22:12
,wl-rdm,48,152863,0.0-6.40-0.40,False,,0.0,47.0,,,,,,,[],,,,,,53.2,1.0,u,0.0,False,990.6999999992549,60.0,60.0,40.0,274.7554184061275,[],"[1280, 720]",ColorTask,9.0,41.0,,,HRV,HRV_0131,2022-11-30 18:22:12
,wl-rdm,49,155215,0.0-6.41-0.41,False,,0.0,48.0,,,,,,,[],,,,,,56.4,1.0,u,0.0,False,907.0999999977648,55.0,60.0,40.0,382.853085947246,[],"[1280, 720]",ColorTask,8.0,42.0,,,HRV,HRV_0131,2022-11-30 18:22:12
,wl-rdm,50,157333,0.0-6.42-0.42,False,,0.0,49.0,,,,,,,[],,,,,,50.0,0.0,i,1.0,False,812.6000000014901,49.0,60.0,40.0,240.60524522135373,[],"[1280, 720]",ColorTask,7.0,43.0,,,HRV,HRV_0131,2022-11-30 18:22:12
,wl-rdm,51,159668,0.0-6.43-0.43,False,,0.0,50.0,,,,,,,[],,,,,,50.0,1.0,u,0.0,False,961.7000000029802,58.0,60.0,40.0,302.12996378741235,[],"[1280, 720]",ColorTask,6.0,44.0,,,HRV,HRV_0131,2022-11-30 18:22:12
,wl-rdm,52,161904,0.0-6.44-0.44,False,,0.0,51.0,,,,,,,[],,,,,,53.2,1.0,u,0.0,False,816.0,49.0,60.0,40.0,353.6325539036179,[],"[1280, 720]",ColorTask,5.0,45.0,,,HRV,HRV_0131,2022-11-30 18:22:12
,wl-rdm,53,163955,0.0-6.45-0.45,False,,0.0,52.0,,,,,,,[],,,,,,73.6,0.0,u,0.0,True,691.7999999970198,42.0,60.0,40.0,286.5951329079329,[],"[1280, 720]",ColorTask,6.0,46.0,,,HRV,HRV_0131,2022-11-30 18:22:12
,wl-rdm,54,166691,0.0-6.46-0.46,False,,0.0,53.0,,,,,,,[],,,,,,56.4,0.0,u,0.0,True,1392.7000000029802,84.0,60.0,40.0,279.4483843109887,[],"[1280, 720]",ColorTask,7.0,47.0,,,HRV,HRV_0131,2022-11-30 18:22:12
,wl-rdm,55,169126,0.0-6.47-0.47,False,,0.0,54.0,,,,,,,[],,,,,,53.2,0.0,u,0.0,True,1103.800000000745,67.0,60.0,40.0,255.01997749764132,[],"[1280, 720]",ColorTask,8.0,48.0,,,HRV,HRV_0131,2022-11-30 18:22:12
,wl-rdm,56,171311,0.0-6.48-0.48,False,,0.0,55.0,,,,,,,[],,,,,,62.5,0.0,u,0.0,True,912.5,55.0,60.0,40.0,207.58502123187844,[],"[1280, 720]",ColorTask,9.0,49.0,,,HRV,HRV_0131,2022-11-30 18:22:12
,wl-rdm,57,173580,0.0-6.49-0.49,False,,0.0,56.0,,,,,,,[],,,,,,50.0,0.0,u,0.0,True,874.8000000007451,53.0,60.0,40.0,322.87353116036036,[],"[1280, 720]",ColorTask,10.0,50.0,,,HRV,HRV_0131,2022-11-30 18:22:12
,wl-rdm,58,175732,0.0-6.50-0.50,False,,0.0,57.0,,,,,,,[],,,,,,73.6,0.0,u,0.0,True,835.7999999970198,51.0,60.0,40.0,237.23870540272884,[],"[1280, 720]",ColorTask,11.0,51.0,,,HRV,HRV_0131,2022-11-30 18:22:12
,wl-rdm,59,178050,0.0-6.51-0.51,False,,0.0,58.0,,,,,,,[],,,,,,50.0,0.0,u,0.0,True,965.6000000014901,58.0,60.0,40.0,293.88591621522824,[],"[1280, 720]",ColorTask,12.0,52.0,,,HRV,HRV_0131,2022-11-30 18:22:12
,wl-rdm,60,180652,0.0-6.52-0.52,False,,0.0,59.0,,,,,,,[],,,,,,50.0,0.0,i,1.0,False,1155.800000000745,70.0,60.0,40.0,374.5745814338745,[],"[1280, 720]",ColorTask,11.0,53.0,,,HRV,HRV_0131,2022-11-30 18:22:12
,wl-rdm,61,182771,0.0-6.53-0.53,False,,0.0,60.0,,,,,,,[],,,,,,87.9,1.0,i,1.0,True,827.8000000007451,50.0,60.0,40.0,224.13590670166647,[],"[1280, 720]",ColorTask,12.0,54.0,,,HRV,HRV_0131,2022-11-30 18:22:12
,wl-rdm,62,185356,0.0-6.54-0.54,False,,0.0,61.0,,,,,,,[],,,,,,53.2,0.0,u,0.0,True,1193.4000000022352,72.0,60.0,40.0,323.2397408365183,[],"[1280, 720]",ColorTask,13.0,55.0,,,HRV,HRV_0131,2022-11-30 18:22:12
,wl-rdm,63,187408,0.0-6.55-0.55,False,,0.0,62.0,,,,,,,[],,,,,,87.9,1.0,i,1.0,True,778.0,47.0,60.0,40.0,215.52184643705726,[],"[1280, 720]",ColorTask,14.0,56.0,,,HRV,HRV_0131,2022-11-30 18:22:12
,wl-rdm,64,189660,0.0-6.56-0.56,False,,0.0,63.0,,,,,,,[],,,,,,50.0,1.0,u,0.0,False,936.6999999992549,57.0,60.0,40.0,234.6039050333872,[],"[1280, 720]",ColorTask,13.0,57.0,,,HRV,HRV_0131,2022-11-30 18:22:12
,wl-rdm,65,192028,0.0-6.57-0.57,False,,0.0,64.0,,,,,,,[],,,,,,56.4,0.0,u,0.0,True,986.0,60.0,60.0,40.0,307.0717320429836,[],"[1280, 720]",ColorTask,14.0,58.0,,,HRV,HRV_0131,2022-11-30 18:22:12
,wl-rdm,66,194280,0.0-6.58-0.58,False,,0.0,65.0,,,,,,,[],,,,,,50.0,1.0,u,0.0,False,962.6999999992549,58.0,60.0,40.0,227.2821446089502,[],"[1280, 720]",ColorTask,13.0,59.0,,,HRV,HRV_0131,2022-11-30 18:22:12
,wl-rdm,67,196365,0.0-6.59-0.59,False,,0.0,66.0,,,,,,,[],,,,,,87.9,0.0,u,0.0,True,808.1000000014901,49.0,60.0,40.0,202.68240749940185,[],"[1280, 720]",ColorTask,14.0,60.0,,,HRV,HRV_0131,2022-11-30 18:22:12
,wl-rdm,68,198984,0.0-6.60-0.60,False,,0.0,67.0,,,,,,,[],,,,,,50.0,0.0,u,0.0,True,1189.8000000044703,72.0,60.0,40.0,359.94292599444304,[],"[1280, 720]",ColorTask,15.0,61.0,,,HRV,HRV_0131,2022-11-30 18:22:12
,wl-rdm,69,201319,0.0-6.61-0.61,False,,0.0,68.0,,,,,,,[],,,,,,87.9,0.0,u,0.0,True,953.3999999985099,58.0,60.0,40.0,289.4479030161616,[],"[1280, 720]",ColorTask,16.0,62.0,,,HRV,HRV_0131,2022-11-30 18:22:12
,wl-rdm,70,203387,0.0-6.62-0.62,False,,0.0,69.0,,,,,,,[],,,,,,62.5,0.0,u,0.0,True,687.5,42.0,60.0,40.0,306.22830047357087,[],"[1280, 720]",ColorTask,17.0,63.0,,,HRV,HRV_0131,2022-11-30 18:22:12
,wl-rdm,71,205589,0.0-6.63-0.63,False,,0.0,70.0,,,,,,,[],,,,,,53.2,1.0,i,1.0,True,804.2999999970198,49.0,60.0,40.0,317.7707158073777,[],"[1280, 720]",ColorTask,18.0,64.0,,,HRV,HRV_0131,2022-11-30 18:22:12
,wl-rdm,72,208191,0.0-6.64-0.64,False,,0.0,71.0,,,,,,,[],,,,,,53.2,0.0,u,0.0,True,1145.8999999985099,69.0,60.0,40.0,395.54644121144787,[],"[1280, 720]",ColorTask,19.0,65.0,,,HRV,HRV_0131,2022-11-30 18:22:12
,wl-rdm,73,210393,0.0-6.65-0.65,False,,0.0,72.0,,,,,,,[],,,,,,73.6,0.0,u,0.0,True,834.9000000022352,51.0,60.0,40.0,287.7359933838445,[],"[1280, 720]",ColorTask,20.0,66.0,,,HRV,HRV_0131,2022-11-30 18:22:12
,wl-rdm,74,212678,0.0-6.66-0.66,False,,0.0,73.0,,,,,,,[],,,,,,62.5,1.0,u,0.0,False,952.0,58.0,60.0,40.0,257.3210424256561,[],"[1280, 720]",ColorTask,19.0,67.0,,,HRV,HRV_0131,2022-11-30 18:22:12
,wl-rdm,75,214713,0.0-6.67-0.67,False,,0.0,74.0,,,,,,,[],,,,,,73.6,1.0,i,1.0,True,754.3999999985099,46.0,60.0,40.0,202.21216750510897,[],"[1280, 720]",ColorTask,20.0,68.0,,,HRV,HRV_0131,2022-11-30 18:22:12
,wl-rdm,76,216698,0.0-6.68-0.68,False,,0.0,75.0,,,,,,,[],,,,,,87.9,1.0,i,1.0,True,679.7999999970198,41.0,60.0,40.0,242.6347743238664,[],"[1280, 720]",ColorTask,21.0,69.0,,,HRV,HRV_0131,2022-11-30 18:22:12
,wl-rdm,77,218833,0.0-6.69-0.69,False,,0.0,76.0,,,,,,,[],,,,,,62.5,0.0,u,0.0,True,828.8999999947846,50.0,60.0,40.0,243.4932390051492,[],"[1280, 720]",ColorTask,22.0,70.0,,,HRV,HRV_0131,2022-11-30 18:22:12
,wl-rdm,78,221052,0.0-6.70-0.70,False,,0.0,77.0,,,,,,,[],,,,,,62.5,0.0,u,0.0,True,882.6000000014901,53.0,60.0,40.0,278.07609367815166,[],"[1280, 720]",ColorTask,23.0,71.0,,,HRV,HRV_0131,2022-11-30 18:22:12
,wl-rdm,79,223070,0.0-6.71-0.71,False,,0.0,78.0,,,,,,,[],,,,,,73.6,0.0,u,0.0,True,701.3000000007451,43.0,60.0,40.0,235.6412367914301,[],"[1280, 720]",ColorTask,24.0,72.0,,,HRV,HRV_0131,2022-11-30 18:22:12
,wl-rdm,80,225455,0.0-6.72-0.72,False,,0.0,79.0,,,,,,,[],,,,,,56.4,1.0,i,1.0,True,1001.5,61.0,60.0,40.0,305.4637876783547,[],"[1280, 720]",ColorTask,25.0,73.0,,,HRV,HRV_0131,2022-11-30 18:22:12
,wl-rdm,81,227991,0.0-6.73-0.73,False,,0.0,80.0,,,,,,,[],,,,,,62.5,1.0,u,0.0,False,1169.8999999985099,71.0,60.0,40.0,284.5112726003201,[],"[1280, 720]",ColorTask,24.0,74.0,,,HRV,HRV_0131,2022-11-30 18:22:12
,wl-rdm,82,230026,0.0-6.74-0.74,False,,0.0,81.0,,,,,,,[],,,,,,50.0,0.0,i,1.0,False,749.3000000007451,45.0,60.0,40.0,223.29974331648307,[],"[1280, 720]",ColorTask,23.0,75.0,,,HRV,HRV_0131,2022-11-30 18:22:12
,wl-rdm,83,232011,0.0-6.75-0.75,False,,0.0,82.0,,,,,,,[],,,,,,87.9,1.0,i,1.0,True,608.9000000022352,37.0,60.0,40.0,314.0615278139811,[],"[1280, 720]",ColorTask,24.0,76.0,,,HRV,HRV_0131,2022-11-30 18:22:12
,wl-rdm,84,234346,0.0-6.76-0.76,False,,0.0,83.0,,,,,,,[],,,,,,50.0,0.0,u,0.0,True,976.9000000022352,59.0,60.0,40.0,283.721773830384,[],"[1280, 720]",ColorTask,25.0,77.0,,,HRV,HRV_0131,2022-11-30 18:22:12
,wl-rdm,85,236848,0.0-6.77-0.77,False,,0.0,84.0,,,,,,,[],,,,,,73.6,0.0,u,0.0,True,1228.5,74.0,60.0,40.0,205.83613272702772,[],"[1280, 720]",ColorTask,26.0,78.0,,,HRV,HRV_0131,2022-11-30 18:22:12
,wl-rdm,86,239517,0.0-6.78-0.78,False,,0.0,85.0,,,,,,,[],,,,,,62.5,1.0,i,1.0,True,1229.699999999255,74.0,60.0,40.0,372.00277295897547,[],"[1280, 720]",ColorTask,27.0,79.0,,,HRV,HRV_0131,2022-11-30 18:22:12
,wl-rdm,87,242002,0.0-6.79-0.79,False,,0.0,86.0,,,,,,,[],,,,,,53.2,1.0,u,0.0,False,1211.699999999255,73.0,60.0,40.0,212.43471372980653,[],"[1280, 720]",ColorTask,26.0,80.0,,,HRV,HRV_0131,2022-11-30 18:22:12
,wl-rdm,88,244271,0.0-6.80-0.80,False,,0.0,87.0,,,,,,,[],,,,,,53.2,1.0,i,1.0,True,948.2999999970198,57.0,60.0,40.0,252.01086451627214,[],"[1280, 720]",ColorTask,27.0,81.0,,,HRV,HRV_0131,2022-11-30 18:22:12
,wl-rdm,89,246622,0.0-6.81-0.81,False,,0.0,88.0,,,,,,,[],,,,,,50.0,1.0,u,0.0,False,1000.8000000007451,60.0,60.0,40.0,288.6591163646515,[],"[1280, 720]",ColorTask,26.0,82.0,,,HRV,HRV_0131,2022-11-30 18:22:12
,wl-rdm,90,248858,0.0-6.82-0.82,False,,0.0,89.0,,,,,,,[],,,,,,62.5,1.0,u,0.0,False,958.0,58.0,60.0,40.0,201.54993859682003,[],"[1280, 720]",ColorTask,25.0,83.0,,,HRV,HRV_0131,2022-11-30 18:22:12
,wl-rdm,91,250893,0.0-6.83-0.83,False,,0.0,90.0,,,,,,,[],,,,,,87.9,0.0,u,0.0,True,760.8000000007451,46.0,60.0,40.0,215.68747056405277,[],"[1280, 720]",ColorTask,26.0,84.0,,,HRV,HRV_0131,2022-11-30 18:22:12
,wl-rdm,92,252928,0.0-6.84-0.84,False,,0.0,91.0,,,,,,,[],,,,,,87.9,0.0,u,0.0,True,724.3000000007451,44.0,60.0,40.0,250.12736058100882,[],"[1280, 720]",ColorTask,27.0,85.0,,,HRV,HRV_0131,2022-11-30 18:22:12
,wl-rdm,93,255013,0.0-6.85-0.85,False,,0.0,92.0,,,,,,,[],,,,,,87.9,0.0,u,0.0,True,796.0,48.0,60.0,40.0,226.91619045284017,[],"[1280, 720]",ColorTask,28.0,86.0,,,HRV,HRV_0131,2022-11-30 18:22:12
,wl-rdm,94,257031,0.0-6.86-0.86,False,,0.0,93.0,,,,,,,[],,,,,,73.6,1.0,i,1.0,True,714.2999999970198,43.0,60.0,40.0,249.63180241437388,[],"[1280, 720]",ColorTask,29.0,87.0,,,HRV,HRV_0131,2022-11-30 18:22:12
,wl-rdm,95,259116,0.0-6.87-0.87,False,,0.0,94.0,,,,,,,[],,,,,,87.9,0.0,u,0.0,True,703.5000000037253,43.0,60.0,40.0,309.42502487343415,[],"[1280, 720]",ColorTask,30.0,88.0,,,HRV,HRV_0131,2022-11-30 18:22:12
,wl-rdm,96,261368,0.0-6.88-0.88,False,,0.0,95.0,,,,,,,[],,,,,,56.4,1.0,i,1.0,True,955.7999999970198,57.0,60.0,40.0,224.1182117890615,[],"[1280, 720]",ColorTask,31.0,89.0,,,HRV,HRV_0131,2022-11-30 18:22:12
,wl-rdm,97,263620,0.0-6.89-0.89,False,,0.0,96.0,,,,,,,[],,,,,,73.6,1.0,i,1.0,True,789.1999999992549,48.0,60.0,40.0,388.29481224498073,[],"[1280, 720]",ColorTask,32.0,90.0,,,HRV,HRV_0131,2022-11-30 18:22:12
,wl-rdm,98,265588,0.0-6.90-0.90,False,,0.0,97.0,,,,,,,[],,,,,,62.5,1.0,i,1.0,True,672.0,41.0,60.0,40.0,233.11692927368796,[],"[1280, 720]",ColorTask,33.0,91.0,,,HRV,HRV_0131,2022-11-30 18:22:12
,wl-rdm,99,267473,0.0-6.91-0.91,False,,0.0,98.0,,,,,,,[],,,,,,87.9,1.0,i,1.0,True,583.0999999977648,35.0,60.0,40.0,242.43486876720118,[],"[1280, 720]",ColorTask,34.0,92.0,,,HRV,HRV_0131,2022-11-30 18:22:12
,wl-rdm,100,269258,0.0-6.92-0.92,False,,0.0,99.0,,,,,,,[],,,,,,73.6,1.0,i,1.0,True,451.80000000074506,28.0,60.0,40.0,252.46607919362322,[],"[1280, 720]",ColorTask,35.0,93.0,,,HRV,HRV_0131,2022-11-30 18:22:12
,wl-rdm,101,271242,0.0-6.93-0.93,False,,0.0,100.0,,,,,,,[],,,,,,73.6,0.0,u,0.0,True,621.7000000029802,38.0,60.0,40.0,293.535282144254,[],"[1280, 720]",ColorTask,36.0,94.0,,,HRV,HRV_0131,2022-11-30 18:22:12
,wl-rdm,102,273194,0.0-6.94-0.94,False,,0.0,101.0,,,,,,,[],,,,,,87.9,0.0,u,0.0,True,562.8999999985099,34.0,60.0,40.0,319.9228411638994,[],"[1280, 720]",ColorTask,37.0,95.0,,,HRV,HRV_0131,2022-11-30 18:22:12
,wl-rdm,103,275250,0.0-6.95-0.95,False,,0.0,102.0,,,,,,,[],,,,,,56.4,1.0,i,1.0,True,744.6999999992549,45.0,60.0,40.0,242.3102887520687,[],"[1280, 720]",ColorTask,38.0,96.0,,,HRV,HRV_0131,2022-11-30 18:22:12
,wl-rdm,104,277448,0.0-6.96-0.96,False,,0.0,103.0,,,,,,,[],,,,,,73.6,1.0,i,1.0,True,820.9000000022352,50.0,60.0,40.0,301.30542418923096,[],"[1280, 720]",ColorTask,39.0,97.0,,,HRV,HRV_0131,2022-11-30 18:22:12
,wl-rdm,105,279649,0.0-6.97-0.97,False,,0.0,104.0,,,,,,,[],,,,,,73.6,1.0,i,1.0,True,780.6000000014901,47.0,60.0,40.0,359.5143426233076,[],"[1280, 720]",ColorTask,40.0,98.0,,,HRV,HRV_0131,2022-11-30 18:22:12
,wl-rdm,106,280717,0.0-6.98-0.98,True,too_early ,0.0,104.0,,,,,,,[],,,,,,73.6,0.0,i,,,125.70000000298023,0.0,60.0,40.0,348.26154587622057,[],"[1280, 720]",ColorTask,39.0,99.0,,,HRV,HRV_0131,2022-11-30 18:22:12
,wl-rdm,107,283102,0.0-6.99-0.99,False,,0.0,105.0,,,,,,,[],,,,,,50.0,1.0,u,0.0,False,1107.3999999985099,67.0,60.0,40.0,205.75499323243415,[],"[1280, 720]",ColorTask,38.0,100.0,,,HRV,HRV_0131,2022-11-30 18:22:12
,wl-rdm,108,285521,0.0-6.100-0.100,False,,0.0,106.0,,,,,,,[],,,,,,62.5,1.0,i,1.0,True,1102.7999999970198,67.0,60.0,40.0,243.53271542526588,[],"[1280, 720]",ColorTask,39.0,101.0,,,HRV,HRV_0131,2022-11-30 18:22:12
,wl-rdm,109,287639,0.0-6.101-0.101,False,,0.0,107.0,,,,,,,[],,,,,,73.6,1.0,i,1.0,True,835.8000000007451,51.0,60.0,40.0,211.18962716536984,[],"[1280, 720]",ColorTask,40.0,102.0,,,HRV,HRV_0131,2022-11-30 18:22:12
,wl-rdm,110,289891,0.0-6.102-0.102,False,,0.0,108.0,,,,,,,[],,,,,,56.4,1.0,i,1.0,True,883.0,53.0,60.0,40.0,309.01458536770093,[],"[1280, 720]",ColorTask,41.0,103.0,,,HRV,HRV_0131,2022-11-30 18:22:12
,wl-rdm,111,292226,0.0-6.103-0.103,False,,0.0,109.0,,,,,,,[],,,,,,50.0,1.0,u,0.0,False,903.7999999970198,55.0,60.0,40.0,354.919299161828,[],"[1280, 720]",ColorTask,40.0,104.0,,,HRV,HRV_0131,2022-11-30 18:22:12
,wl-rdm,112,294428,0.0-6.104-0.104,False,,0.0,110.0,,,,,,,[],,,,,,73.6,0.0,u,0.0,True,821.8000000007451,50.0,60.0,40.0,308.6459845330959,[],"[1280, 720]",ColorTask,41.0,105.0,,,HRV,HRV_0131,2022-11-30 18:22:12
,wl-rdm,113,296763,0.0-6.105-0.105,False,,0.0,111.0,,,,,,,[],,,,,,73.6,0.0,u,0.0,True,902.1999999992549,55.0,60.0,40.0,356.24959163508174,[],"[1280, 720]",ColorTask,42.0,106.0,,,HRV,HRV_0131,2022-11-30 18:22:12
,wl-rdm,114,298932,0.0-6.106-0.106,False,,0.0,112.0,,,,,,,[],,,,,,56.4,0.0,u,0.0,True,728.3000000007451,44.0,60.0,40.0,373.06542429499257,[],"[1280, 720]",ColorTask,43.0,107.0,,,HRV,HRV_0131,2022-11-30 18:22:12
,wl-rdm,115,301217,0.0-6.107-0.107,False,,0.0,113.0,,,,,,,[],,,,,,50.0,0.0,u,0.0,True,860.3999999985099,52.0,60.0,40.0,363.18019309882993,[],"[1280, 720]",ColorTask,44.0,108.0,,,HRV,HRV_0131,2022-11-30 18:22:12
,wl-rdm,116,303135,0.0-6.108-0.108,False,,0.0,114.0,,,,,,,[],,,,,,87.9,1.0,i,1.0,True,631.0999999977648,38.0,60.0,40.0,217.02777416749845,[],"[1280, 720]",ColorTask,45.0,109.0,,,HRV,HRV_0131,2022-11-30 18:22:12
,wl-html-keyboard-response,117,331393,0.0-7.0-0.0,True,undefinedblurEvent ,1.0,114.0,,,,,,,,26251.0,1.0,0,,,,,,,,,,,,,,,,,,,,HRV,HRV_0131,2022-11-30 18:22:12
,wl-rdm,118,333676,0.0-8.0-0.0,False,,1.0,115.0,,,,,,,[],,,,,,53.2,1.0,i,1.0,True,918.1999999992549,56.0,60.0,40.0,289.6950119369638,[],"[1280, 720]",ColorTask,46.0,1.0,,,HRV,HRV_0131,2022-11-30 18:22:12
,wl-rdm,119,335744,0.0-8.1-0.1,False,,1.0,116.0,,,,,,,[],,,,,,73.6,1.0,i,1.0,True,623.1999999992549,38.0,60.0,40.0,375.8202903729672,[],"[1280, 720]",ColorTask,47.0,2.0,,,HRV,HRV_0131,2022-11-30 18:22:12
,wl-rdm,120,337913,0.0-8.2-0.2,False,,1.0,117.0,,,,,,,[],,,,,,62.5,0.0,u,0.0,True,816.1999999992549,49.0,60.0,40.0,284.9277744030157,[],"[1280, 720]",ColorTask,48.0,3.0,,,HRV,HRV_0131,2022-11-30 18:22:12
,wl-rdm,121,339781,0.0-8.3-0.3,False,,1.0,118.0,,,,,,,[],,,,,,87.9,1.0,i,1.0,True,593.3000000044703,36.0,60.0,40.0,210.8039357970152,[],"[1280, 720]",ColorTask,49.0,4.0,,,HRV,HRV_0131,2022-11-30 18:22:12
,wl-rdm,122,341733,0.0-8.4-0.4,False,,1.0,119.0,,,,,,,[],,,,,,62.5,1.0,i,1.0,True,670.8999999985099,41.0,60.0,40.0,213.88441492759378,[],"[1280, 720]",ColorTask,50.0,5.0,,,HRV,HRV_0131,2022-11-30 18:22:12
,wl-rdm,123,343784,0.0-8.5-0.5,False,,1.0,120.0,,,,,,,[],,,,,,62.5,0.0,u,0.0,True,721.1999999992549,44.0,60.0,40.0,256.36968485937854,[],"[1280, 720]",ColorTask,51.0,6.0,,,HRV,HRV_0131,2022-11-30 18:22:12
,wl-rdm,124,345669,0.0-8.6-0.6,False,,1.0,121.0,,,,,,,[],,,,,,73.6,1.0,i,1.0,True,562.0,34.0,60.0,40.0,266.8152268037222,[],"[1280, 720]",ColorTask,52.0,7.0,,,HRV,HRV_0131,2022-11-30 18:22:12
,wl-rdm,125,347504,0.0-8.7-0.7,False,,1.0,122.0,,,,,,,[],,,,,,87.9,1.0,i,1.0,True,486.4999999962747,30.0,60.0,40.0,278.5290874702324,[],"[1280, 720]",ColorTask,53.0,8.0,,,HRV,HRV_0131,2022-11-30 18:22:12
,wl-rdm,126,349656,0.0-8.8-0.8,False,,1.0,123.0,,,,,,,[],,,,,,50.0,0.0,u,0.0,True,857.1999999992549,52.0,60.0,40.0,225.97509807393214,[],"[1280, 720]",ColorTask,54.0,9.0,,,HRV,HRV_0131,2022-11-30 18:22:12
,wl-rdm,127,351624,0.0-8.9-0.9,False,,1.0,124.0,,,,,,,[],,,,,,50.0,0.0,u,0.0,True,600.1999999992549,36.0,60.0,40.0,301.23056568486936,[],"[1280, 720]",ColorTask,55.0,10.0,,,HRV,HRV_0131,2022-11-30 18:22:12
,wl-rdm,128,353759,0.0-8.10-0.10,False,,1.0,125.0,,,,,,,[],,,,,,62.5,1.0,i,1.0,True,680.2999999970198,41.0,60.0,40.0,396.80560471517475,[],"[1280, 720]",ColorTask,56.0,11.0,,,HRV,HRV_0131,2022-11-30 18:22:12
,wl-rdm,129,355794,0.0-8.11-0.11,False,,1.0,126.0,,,,,,,[],,,,,,73.6,0.0,u,0.0,True,727.5,44.0,60.0,40.0,234.6436795860048,[],"[1280, 720]",ColorTask,57.0,12.0,,,HRV,HRV_0131,2022-11-30 18:22:12
,wl-rdm,130,357746,0.0-8.12-0.12,False,,1.0,127.0,,,,,,,[],,,,,,56.4,1.0,i,1.0,True,661.1999999992549,40.0,60.0,40.0,229.09164425808112,[],"[1280, 720]",ColorTask,58.0,13.0,,,HRV,HRV_0131,2022-11-30 18:22:12
,wl-rdm,131,359864,0.0-8.13-0.13,False,,1.0,128.0,,,,,,,[],,,,,,73.6,1.0,i,1.0,True,671.5,41.0,60.0,40.0,367.2079367518206,[],"[1280, 720]",ColorTask,59.0,14.0,,,HRV,HRV_0131,2022-11-30 18:22:12
,wl-rdm,132,362083,0.0-8.14-0.14,False,,1.0,129.0,,,,,,,[],,,,,,53.2,1.0,u,0.0,False,893.8999999985099,54.0,60.0,40.0,258.3191704713247,[],"[1280, 720]",ColorTask,58.0,15.0,,,HRV,HRV_0131,2022-11-30 18:22:12
,wl-rdm,133,364318,0.0-8.15-0.15,False,,1.0,130.0,,,,,,,[],,,,,,50.0,0.0,u,0.0,True,926.1000000014901,56.0,60.0,40.0,239.7415040203083,[],"[1280, 720]",ColorTask,59.0,16.0,,,HRV,HRV_0131,2022-11-30 18:22:12
,wl-rdm,134,366686,0.0-8.16-0.16,False,,1.0,131.0,,,,,,,[],,,,,,87.9,1.0,i,1.0,True,952.9000000022352,58.0,60.0,40.0,347.0796584178653,[],"[1280, 720]",ColorTask,60.0,17.0,,,HRV,HRV_0131,2022-11-30 18:22:12
,wl-rdm,135,368855,0.0-8.17-0.17,False,,1.0,132.0,,,,,,,[],,,,,,56.4,0.0,u,0.0,True,701.9000000022352,43.0,60.0,40.0,396.52919542295183,[],"[1280, 720]",ColorTask,61.0,18.0,,,HRV,HRV_0131,2022-11-30 18:22:12
,wl-rdm,136,370923,0.0-8.18-0.18,False,,1.0,133.0,,,,,,,[],,,,,,50.0,1.0,u,0.0,False,768.0,47.0,60.0,40.0,230.21294513579568,[],"[1280, 720]",ColorTask,60.0,19.0,,,HRV,HRV_0131,2022-11-30 18:22:12
,wl-rdm,137,373642,0.0-8.19-0.19,False,,1.0,134.0,,,,,,,[],,,,,,56.4,0.0,u,0.0,True,1329.0,80.0,60.0,40.0,320.73996134170056,[],"[1280, 720]",ColorTask,61.0,20.0,,,HRV,HRV_0131,2022-11-30 18:22:12
,wl-rdm,138,376228,0.0-8.20-0.20,False,,1.0,135.0,,,,,,,[],,,,,,62.5,1.0,i,1.0,True,1205.199999999255,73.0,60.0,40.0,300.75821106894864,[],"[1280, 720]",ColorTask,62.0,21.0,,,HRV,HRV_0131,2022-11-30 18:22:12
,wl-rdm,139,378530,0.0-8.21-0.21,False,,1.0,136.0,,,,,,,[],,,,,,50.0,1.0,i,1.0,True,922.8999999985099,56.0,60.0,40.0,312.4453672063754,[],"[1280, 720]",ColorTask,63.0,22.0,,,HRV,HRV_0131,2022-11-30 18:22:12
,wl-rdm,140,380698,0.0-8.22-0.22,False,,1.0,137.0,,,,,,,[],,,,,,73.6,1.0,i,1.0,True,889.0000000037253,54.0,60.0,40.0,203.7603980481049,[],"[1280, 720]",ColorTask,64.0,23.0,,,HRV,HRV_0131,2022-11-30 18:22:12
,wl-rdm,141,382917,0.0-8.23-0.23,False,,1.0,138.0,,,,,,,[],,,,,,62.5,0.0,u,0.0,True,857.1999999992549,52.0,60.0,40.0,287.94285611341564,[],"[1280, 720]",ColorTask,65.0,24.0,,,HRV,HRV_0131,2022-11-30 18:22:12
,wl-rdm,142,385302,0.0-8.24-0.24,False,,1.0,139.0,,,,,,,[],,,,,,62.5,1.0,i,1.0,True,1095.3999999985099,66.0,60.0,40.0,217.81272241372255,[],"[1280, 720]",ColorTask,66.0,25.0,,,HRV,HRV_0131,2022-11-30 18:22:12
,wl-rdm,143,387454,0.0-8.25-0.25,False,,1.0,140.0,,,,,,,[],,,,,,87.9,0.0,u,0.0,True,882.1000000014901,53.0,60.0,40.0,210.0650832139304,[],"[1280, 720]",ColorTask,67.0,26.0,,,HRV,HRV_0131,2022-11-30 18:22:12
,wl-rdm,144,389472,0.0-8.26-0.26,False,,1.0,141.0,,,,,,,[],,,,,,73.6,1.0,i,1.0,True,724.3000000007451,44.0,60.0,40.0,229.8126977842297,[],"[1280, 720]",ColorTask,68.0,27.0,,,HRV,HRV_0131,2022-11-30 18:22:12
,wl-rdm,145,392425,0.0-8.27-0.27,False,,1.0,142.0,,,,,,,[],,,,,,56.4,0.0,i,1.0,False,1624.800000000745,98.0,60.0,40.0,252.50863866639048,[],"[1280, 720]",ColorTask,67.0,28.0,,,HRV,HRV_0131,2022-11-30 18:22:12
,wl-rdm,146,394543,0.0-8.28-0.28,False,,1.0,143.0,,,,,,,[],,,,,,87.9,1.0,i,1.0,True,848.4000000022352,51.0,60.0,40.0,206.4983864638559,[],"[1280, 720]",ColorTask,68.0,29.0,,,HRV,HRV_0131,2022-11-30 18:22:12
,wl-rdm,147,396578,0.0-8.29-0.29,False,,1.0,144.0,,,,,,,[],,,,,,53.2,0.0,u,0.0,True,730.5,44.0,60.0,40.0,234.71699048886794,[],"[1280, 720]",ColorTask,69.0,30.0,,,HRV,HRV_0131,2022-11-30 18:22:12
,wl-rdm,148,398796,0.0-8.30-0.30,False,,1.0,145.0,,,,,,,[],,,,,,62.5,0.0,u,0.0,True,856.1999999992549,52.0,60.0,40.0,289.07832829049005,[],"[1280, 720]",ColorTask,70.0,31.0,,,HRV,HRV_0131,2022-11-30 18:22:12
,wl-rdm,149,400932,0.0-8.31-0.31,False,,1.0,146.0,,,,,,,[],,,,,,87.9,0.0,i,1.0,False,697.5999999977648,42.0,60.0,40.0,367.90943358815053,[],"[1280, 720]",ColorTask,69.0,32.0,,,HRV,HRV_0131,2022-11-30 18:22:12
,wl-rdm,150,403300,0.0-8.32-0.32,False,,1.0,147.0,,,,,,,[],,,,,,73.6,0.0,u,0.0,True,1087.4000000022352,65.0,60.0,40.0,213.47666981256052,[],"[1280, 720]",ColorTask,70.0,33.0,,,HRV,HRV_0131,2022-11-30 18:22:12
,wl-rdm,151,406036,0.0-8.33-0.33,False,,1.0,148.0,,,,,,,[],,,,,,53.2,0.0,u,0.0,True,1325.300000000745,80.0,60.0,40.0,338.77201896714047,[],"[1280, 720]",ColorTask,71.0,34.0,,,HRV,HRV_0131,2022-11-30 18:22:12
,wl-rdm,152,409238,0.0-8.34-0.34,False,,1.0,149.0,,,,,,,[],,,,,,62.5,1.0,u,0.0,False,1756.5,106.0,60.0,40.0,371.2166716724163,[],"[1280, 720]",ColorTask,70.0,35.0,,,HRV,HRV_0131,2022-11-30 18:22:12
,wl-rdm,153,411590,0.0-8.35-0.35,False,,1.0,150.0,,,,,,,[],,,,,,50.0,1.0,u,0.0,False,922.5,56.0,60.0,40.0,361.2466533228562,[],"[1280, 720]",ColorTask,69.0,36.0,,,HRV,HRV_0131,2022-11-30 18:22:12
,wl-rdm,154,413909,0.0-8.36-0.36,False,,1.0,151.0,,,,,,,[],,,,,,73.6,0.0,i,1.0,False,884.2000000029802,53.0,60.0,40.0,372.9904454648062,[],"[1280, 720]",ColorTask,68.0,37.0,,,HRV,HRV_0131,2022-11-30 18:22:12
,wl-rdm,155,416260,0.0-8.37-0.37,False,,1.0,152.0,,,,,,,[],,,,,,53.2,1.0,i,1.0,True,980.1000000014901,59.0,60.0,40.0,309.0926414879602,[],"[1280, 720]",ColorTask,69.0,38.0,,,HRV,HRV_0131,2022-11-30 18:22:12
,wl-rdm,156,418312,0.0-8.38-0.38,False,,1.0,153.0,,,,,,,[],,,,,,87.9,0.0,u,0.0,True,659.3999999985099,40.0,60.0,40.0,320.0429329066585,[],"[1280, 720]",ColorTask,70.0,39.0,,,HRV,HRV_0131,2022-11-30 18:22:12
,wl-rdm,157,421065,0.0-8.39-0.39,False,,1.0,154.0,,,,,,,[],,,,,,53.2,1.0,i,1.0,True,1416.0000000037253,85.0,60.0,40.0,272.9789165488627,[],"[1280, 720]",ColorTask,71.0,40.0,,,HRV,HRV_0131,2022-11-30 18:22:12
,wl-rdm,158,423583,0.0-8.40-0.40,False,,1.0,155.0,,,,,,,[],,,,,,87.9,1.0,i,1.0,True,1138.199999999255,69.0,60.0,40.0,313.9821927495018,[],"[1280, 720]",ColorTask,72.0,41.0,,,HRV,HRV_0131,2022-11-30 18:22:12
,wl-rdm,159,425785,0.0-8.41-0.41,False,,1.0,156.0,,,,,,,[],,,,,,73.6,0.0,u,0.0,True,908.8000000007451,55.0,60.0,40.0,222.9278334070547,[],"[1280, 720]",ColorTask,73.0,42.0,,,HRV,HRV_0131,2022-11-30 18:22:12
,wl-rdm,160,427937,0.0-8.42-0.42,False,,1.0,157.0,,,,,,,[],,,,,,56.4,0.0,u,0.0,True,748.4000000022352,45.0,60.0,40.0,336.4157349168687,[],"[1280, 720]",ColorTask,74.0,43.0,,,HRV,HRV_0131,2022-11-30 18:22:12
,wl-rdm,161,430406,0.0-8.43-0.43,False,,1.0,158.0,,,,,,,[],,,,,,56.4,1.0,i,1.0,True,1123.300000000745,68.0,60.0,40.0,281.71632800923476,[],"[1280, 720]",ColorTask,75.0,44.0,,,HRV,HRV_0131,2022-11-30 18:22:12
,wl-rdm,162,432691,0.0-8.44-0.44,False,,1.0,159.0,,,,,,,[],,,,,,50.0,0.0,i,1.0,False,898.5,54.0,60.0,40.0,333.4800665798683,[],"[1280, 720]",ColorTask,74.0,45.0,,,HRV,HRV_0131,2022-11-30 18:22:12
,wl-rdm,163,434743,0.0-8.45-0.45,False,,1.0,160.0,,,,,,,[],,,,,,62.5,1.0,i,1.0,True,675.9000000022352,41.0,60.0,40.0,314.10634948087744,[],"[1280, 720]",ColorTask,75.0,46.0,,,HRV,HRV_0131,2022-11-30 18:22:12
,wl-rdm,164,436694,0.0-8.46-0.46,False,,1.0,161.0,,,,,,,[],,,,,,62.5,1.0,i,1.0,True,622.5,38.0,60.0,40.0,258.2584648990506,[],"[1280, 720]",ColorTask,76.0,47.0,,,HRV,HRV_0131,2022-11-30 18:22:12
,wl-rdm,165,438545,0.0-8.47-0.47,False,,1.0,162.0,,,,,,,[],,,,,,73.6,1.0,i,1.0,True,537.7999999970198,33.0,60.0,40.0,249.8131820890885,[],"[1280, 720]",ColorTask,77.0,48.0,,,HRV,HRV_0131,2022-11-30 18:22:12
,wl-rdm,166,440397,0.0-8.48-0.48,False,,1.0,163.0,,,,,,,[],,,,,,56.4,0.0,i,1.0,False,539.9000000022352,33.0,60.0,40.0,243.80308380681376,[],"[1280, 720]",ColorTask,76.0,49.0,,,HRV,HRV_0131,2022-11-30 18:22:12
,wl-rdm,167,443249,0.0-8.49-0.49,False,,1.0,164.0,,,,,,,[],,,,,,50.0,1.0,i,1.0,True,1457.0,88.0,60.0,40.0,321.42567327015286,[],"[1280, 720]",ColorTask,77.0,50.0,,,HRV,HRV_0131,2022-11-30 18:22:12
,wl-rdm,168,446118,0.0-8.50-0.50,False,,1.0,165.0,,,,,,,[],,,,,,56.4,1.0,u,0.0,False,1404.0,84.0,60.0,40.0,386.34480912645444,[],"[1280, 720]",ColorTask,76.0,51.0,,,HRV,HRV_0131,2022-11-30 18:22:12
,wl-rdm,169,448086,0.0-8.51-0.51,False,,1.0,166.0,,,,,,,[],,,,,,87.9,1.0,i,1.0,True,686.5,42.0,60.0,40.0,205.62378359157555,[],"[1280, 720]",ColorTask,77.0,52.0,,,HRV,HRV_0131,2022-11-30 18:22:12
,wl-rdm,170,450088,0.0-8.52-0.52,False,,1.0,167.0,,,,,,,[],,,,,,87.9,0.0,u,0.0,True,724.3000000044703,44.0,60.0,40.0,216.01644746256366,[],"[1280, 720]",ColorTask,78.0,53.0,,,HRV,HRV_0131,2022-11-30 18:22:12
,wl-rdm,171,452740,0.0-8.53-0.53,False,,1.0,168.0,,,,,,,[],,,,,,53.2,0.0,i,1.0,False,1222.5000000037253,73.0,60.0,40.0,359.05509613916325,[],"[1280, 720]",ColorTask,77.0,54.0,,,HRV,HRV_0131,2022-11-30 18:22:12
,wl-rdm,172,455409,0.0-8.54-0.54,False,,1.0,169.0,,,,,,,[],,,,,,53.2,0.0,i,1.0,False,1355.0,82.0,60.0,40.0,235.03828242076008,[],"[1280, 720]",ColorTask,76.0,55.0,,,HRV,HRV_0131,2022-11-30 18:22:12
,wl-rdm,173,457644,0.0-8.55-0.55,False,,1.0,170.0,,,,,,,[],,,,,,56.4,0.0,u,0.0,True,905.6000000014901,55.0,60.0,40.0,253.76456954169586,[],"[1280, 720]",ColorTask,77.0,56.0,,,HRV,HRV_0131,2022-11-30 18:22:12
,wl-rdm,174,460013,0.0-8.56-0.56,False,,1.0,171.0,,,,,,,[],,,,,,50.0,1.0,u,0.0,False,1000.3000000007451,60.0,60.0,40.0,302.8921362194006,[],"[1280, 720]",ColorTask,76.0,57.0,,,HRV,HRV_0131,2022-11-30 18:22:12
,wl-rdm,175,462598,0.0-8.57-0.57,False,,1.0,172.0,,,,,,,[],,,,,,56.4,1.0,i,1.0,True,1192.800000000745,72.0,60.0,40.0,321.3779972093006,[],"[1280, 720]",ColorTask,77.0,58.0,,,HRV,HRV_0131,2022-11-30 18:22:12
,wl-rdm,176,465434,0.0-8.58-0.58,False,,1.0,173.0,,,,,,,[],,,,,,50.0,1.0,i,1.0,True,1502.300000000745,91.0,60.0,40.0,264.42022758084516,[],"[1280, 720]",ColorTask,78.0,59.0,,,HRV,HRV_0131,2022-11-30 18:22:12
,wl-rdm,177,468536,0.0-8.59-0.59,False,,1.0,174.0,,,,,,,[],,,,,,53.2,1.0,u,0.0,False,1780.3999999985099,107.0,60.0,40.0,259.5562623573006,[],"[1280, 720]",ColorTask,77.0,60.0,,,HRV,HRV_0131,2022-11-30 18:22:12
,wl-rdm,178,470621,0.0-8.60-0.60,False,,1.0,175.0,,,,,,,[],,,,,,87.9,1.0,i,1.0,True,787.3000000007451,48.0,60.0,40.0,222.54647203848086,[],"[1280, 720]",ColorTask,78.0,61.0,,,HRV,HRV_0131,2022-11-30 18:22:12
,wl-rdm,179,473891,0.0-8.61-0.61,False,,1.0,176.0,,,,,,,[],,,,,,56.4,1.0,i,1.0,True,1997.1000000014901,120.0,60.0,40.0,209.67684115481782,[],"[1280, 720]",ColorTask,79.0,62.0,,,HRV,HRV_0131,2022-11-30 18:22:12
,wl-rdm,180,476460,0.0-8.62-0.62,False,,1.0,177.0,,,,,,,[],,,,,,73.6,1.0,i,1.0,True,1160.5999999977648,70.0,60.0,40.0,339.0200984216371,[],"[1280, 720]",ColorTask,80.0,63.0,,,HRV,HRV_0131,2022-11-30 18:22:12
,wl-rdm,181,479912,0.0-8.63-0.63,False,,1.0,178.0,,,,,,,[],,,,,,50.0,0.0,i,1.0,False,2060.199999999255,124.0,60.0,40.0,332.70301821257,[],"[1280, 720]",ColorTask,79.0,64.0,,,HRV,HRV_0131,2022-11-30 18:22:12
,wl-rdm,182,482231,0.0-8.64-0.64,False,,1.0,179.0,,,,,,,[],,,,,,87.9,0.0,u,0.0,True,1044.2000000029802,62.0,60.0,40.0,212.84463050721843,[],"[1280, 720]",ColorTask,80.0,65.0,,,HRV,HRV_0131,2022-11-30 18:22:12
,wl-rdm,183,484383,0.0-8.65-0.65,False,,1.0,180.0,,,,,,,[],,,,,,87.9,0.0,u,0.0,True,825.5,50.0,60.0,40.0,251.6054009292997,[],"[1280, 720]",ColorTask,81.0,66.0,,,HRV,HRV_0131,2022-11-30 18:22:12
,wl-rdm,184,486484,0.0-8.66-0.66,False,,1.0,181.0,,,,,,,[],,,,,,87.9,0.0,u,0.0,True,762.8000000007451,46.0,60.0,40.0,275.84763824073855,[],"[1280, 720]",ColorTask,82.0,67.0,,,HRV,HRV_0131,2022-11-30 18:22:12
,wl-rdm,185,488603,0.0-8.67-0.67,False,,1.0,182.0,,,,,,,[],,,,,,50.0,0.0,u,0.0,True,840.1000000014901,51.0,60.0,40.0,210.76183389796535,[],"[1280, 720]",ColorTask,83.0,68.0,,,HRV,HRV_0131,2022-11-30 18:22:12
,wl-rdm,186,490688,0.0-8.68-0.68,False,,1.0,183.0,,,,,,,[],,,,,,62.5,1.0,i,1.0,True,789.3000000007451,48.0,60.0,40.0,225.8245378746226,[],"[1280, 720]",ColorTask,84.0,69.0,,,HRV,HRV_0131,2022-11-30 18:22:12
,wl-rdm,187,494207,0.0-8.69-0.69,False,,1.0,184.0,,,,,,,[],,,,,,56.4,1.0,i,1.0,True,2203.5,133.0,60.0,40.0,237.67945342832488,[],"[1280, 720]",ColorTask,85.0,70.0,,,HRV,HRV_0131,2022-11-30 18:22:12
,wl-rdm,188,496993,0.0-8.70-0.70,False,,1.0,185.0,,,,,,,[],,,,,,50.0,1.0,i,1.0,True,1498.6000000014901,90.0,60.0,40.0,218.07887508966968,[],"[1280, 720]",ColorTask,86.0,71.0,,,HRV,HRV_0131,2022-11-30 18:22:12
,wl-rdm,189,499278,0.0-8.71-0.71,False,,1.0,186.0,,,,,,,[],,,,,,73.6,0.0,u,0.0,True,837.0999999977648,51.0,60.0,40.0,377.33047576693343,[],"[1280, 720]",ColorTask,87.0,72.0,,,HRV,HRV_0131,2022-11-30 18:22:12
,wl-rdm,190,501930,0.0-8.72-0.72,False,,1.0,187.0,,,,,,,[],,,,,,56.4,0.0,u,0.0,True,1370.4999999962747,83.0,60.0,40.0,213.92901286849084,[],"[1280, 720]",ColorTask,88.0,73.0,,,HRV,HRV_0131,2022-11-30 18:22:12
,wl-rdm,191,504783,0.0-8.73-0.73,False,,1.0,188.0,,,,,,,[],,,,,,53.2,0.0,u,0.0,True,1546.1000000014901,93.0,60.0,40.0,247.99172111248475,[],"[1280, 720]",ColorTask,89.0,74.0,,,HRV,HRV_0131,2022-11-30 18:22:12
,wl-rdm,192,507368,0.0-8.74-0.74,False,,1.0,189.0,,,,,,,[],,,,,,50.0,0.0,u,0.0,True,1263.800000000745,76.0,60.0,40.0,259.64768752733136,[],"[1280, 720]",ColorTask,90.0,75.0,,,HRV,HRV_0131,2022-11-30 18:22:12
,wl-rdm,193,509820,0.0-8.75-0.75,False,,1.0,190.0,,,,,,,[],,,,,,73.6,0.0,u,0.0,True,1165.699999999255,70.0,60.0,40.0,217.17508637105107,[],"[1280, 720]",ColorTask,91.0,76.0,,,HRV,HRV_0131,2022-11-30 18:22:12
,wl-rdm,194,512740,0.0-8.76-0.76,False,,1.0,191.0,,,,,,,[],,,,,,50.0,1.0,i,1.0,True,1498.300000000745,90.0,60.0,40.0,360.9546124918028,[],"[1280, 720]",ColorTask,92.0,77.0,,,HRV,HRV_0131,2022-11-30 18:22:12
,wl-rdm,195,516492,0.0-8.77-0.77,False,,1.0,192.0,,,,,,,[],,,,,,62.5,0.0,u,0.0,True,2387.7999999970198,144.0,60.0,40.0,289.50525311103377,[],"[1280, 720]",ColorTask,93.0,78.0,,,HRV,HRV_0131,2022-11-30 18:22:12
,wl-rdm,196,518761,0.0-8.78-0.78,False,,1.0,193.0,,,,,,,[],,,,,,87.9,0.0,u,0.0,True,865.0,51.0,60.0,40.0,344.5524118034043,[],"[1280, 720]",ColorTask,94.0,79.0,,,HRV,HRV_0131,2022-11-30 18:22:12
,wl-rdm,197,521496,0.0-8.79-0.79,False,,1.0,194.0,,,,,,,[],,,,,,50.0,0.0,i,1.0,False,1449.0,87.0,60.0,40.0,224.24783507643207,[],"[1280, 720]",ColorTask,93.0,80.0,,,HRV,HRV_0131,2022-11-30 18:22:12
,wl-rdm,198,523748,0.0-8.80-0.80,False,,1.0,195.0,,,,,,,[],,,,,,73.6,1.0,i,1.0,True,886.6000000014901,54.0,60.0,40.0,296.9410745088898,[],"[1280, 720]",ColorTask,94.0,81.0,,,HRV,HRV_0131,2022-11-30 18:22:12
,wl-rdm,199,525883,0.0-8.81-0.81,False,,1.0,196.0,,,,,,,[],,,,,,87.9,1.0,i,1.0,True,764.0,46.0,60.0,40.0,306.6949629393524,[],"[1280, 720]",ColorTask,95.0,82.0,,,HRV,HRV_0131,2022-11-30 18:22:12
,wl-rdm,200,528302,0.0-8.82-0.82,False,,1.0,197.0,,,,,,,[],,,,,,50.0,1.0,i,1.0,True,982.3000000007451,59.0,60.0,40.0,375.1459807602625,[],"[1280, 720]",ColorTask,96.0,83.0,,,HRV,HRV_0131,2022-11-30 18:22:12
,wl-rdm,201,530604,0.0-8.83-0.83,False,,1.0,198.0,,,,,,,[],,,,,,53.2,0.0,i,1.0,False,926.5,56.0,60.0,40.0,300.85008387012624,[],"[1280, 720]",ColorTask,95.0,84.0,,,HRV,HRV_0131,2022-11-30 18:22:12
,wl-rdm,202,532872,0.0-8.84-0.84,False,,1.0,199.0,,,,,,,[],,,,,,56.4,1.0,i,1.0,True,829.9000000022352,50.0,60.0,40.0,372.0943957840052,[],"[1280, 720]",ColorTask,96.0,85.0,,,HRV,HRV_0131,2022-11-30 18:22:12
,wl-rdm,203,535057,0.0-8.85-0.85,False,,1.0,200.0,,,,,,,[],,,,,,53.2,0.0,u,0.0,True,897.3999999985099,54.0,60.0,40.0,225.25713932373512,[],"[1280, 720]",ColorTask,97.0,86.0,,,HRV,HRV_0131,2022-11-30 18:22:12
,wl-rdm,204,537543,0.0-8.86-0.86,False,,1.0,201.0,,,,,,,[],,,,,,73.6,0.0,u,0.0,True,1108.6000000014901,67.0,60.0,40.0,287.86084775106394,[],"[1280, 720]",ColorTask,98.0,87.0,,,HRV,HRV_0131,2022-11-30 18:22:12
,wl-rdm,205,539828,0.0-8.87-0.87,False,,1.0,202.0,,,,,,,[],,,,,,87.9,0.0,u,0.0,True,833.0999999977648,49.0,60.0,40.0,396.1716454221946,[],"[1280, 720]",ColorTask,99.0,88.0,,,HRV,HRV_0131,2022-11-30 18:22:12
,wl-rdm,206,542914,0.0-8.88-0.88,False,,1.0,203.0,,,,,,,[],,,,,,53.2,0.0,u,0.0,True,1659.6000000014901,100.0,60.0,40.0,356.9969259438996,[],"[1280, 720]",ColorTask,100.0,89.0,,,HRV,HRV_0131,2022-11-30 18:22:12
,wl-rdm,207,545566,0.0-8.89-0.89,False,,1.0,204.0,,,,,,,[],,,,,,62.5,1.0,i,1.0,True,1248.2999999970198,75.0,60.0,40.0,344.9295556624804,[],"[1280, 720]",ColorTask,101.0,90.0,,,HRV,HRV_0131,2022-11-30 18:22:12
,wl-rdm,208,547985,0.0-8.90-0.90,False,,1.0,205.0,,,,,,,[],,,,,,73.6,0.0,u,0.0,True,1124.9000000022352,68.0,60.0,40.0,232.27507965403709,[],"[1280, 720]",ColorTask,102.0,91.0,,,HRV,HRV_0131,2022-11-30 18:22:12
,wl-rdm,209,550971,0.0-8.91-0.91,False,,1.0,206.0,,,,,,,[],,,,,,56.4,0.0,i,1.0,False,1547.699999999255,93.0,60.0,40.0,379.4496337049403,[],"[1280, 720]",ColorTask,101.0,92.0,,,HRV,HRV_0131,2022-11-30 18:22:12
,wl-rdm,210,553422,0.0-8.92-0.92,False,,1.0,207.0,,,,,,,[],,,,,,53.2,1.0,i,1.0,True,1047.5,63.0,60.0,40.0,341.86248119694983,[],"[1280, 720]",ColorTask,102.0,93.0,,,HRV,HRV_0131,2022-11-30 18:22:12
,wl-rdm,211,556375,0.0-8.93-0.93,False,,1.0,208.0,,,,,,,[],,,,,,62.5,0.0,u,0.0,True,1573.0,95.0,60.0,40.0,312.1493902612468,[],"[1280, 720]",ColorTask,103.0,94.0,,,HRV,HRV_0131,2022-11-30 18:22:12
,wl-rdm,212,560228,0.0-8.94-0.94,False,,1.0,209.0,,,,,,,[],,,,,,62.5,0.0,i,1.0,False,2580.5,155.0,60.0,40.0,204.81304782771102,[],"[1280, 720]",ColorTask,102.0,95.0,,,HRV,HRV_0131,2022-11-30 18:22:12
,wl-rdm,213,562763,0.0-8.95-0.95,False,,1.0,210.0,,,,,,,[],,,,,,62.5,0.0,u,0.0,True,1231.8999999985099,74.0,60.0,40.0,244.46226659087986,[],"[1280, 720]",ColorTask,103.0,96.0,,,HRV,HRV_0131,2022-11-30 18:22:12
,wl-rdm,214,564982,0.0-8.96-0.96,False,,1.0,211.0,,,,,,,[],,,,,,62.5,0.0,u,0.0,True,888.1000000014901,54.0,60.0,40.0,252.6197341262371,[],"[1280, 720]",ColorTask,104.0,97.0,,,HRV,HRV_0131,2022-11-30 18:22:12
,wl-rdm,215,567084,0.0-8.97-0.97,False,,1.0,212.0,,,,,,,[],,,,,,56.4,0.0,u,0.0,True,808.8999999985099,49.0,60.0,40.0,218.68672831575552,[],"[1280, 720]",ColorTask,105.0,98.0,,,HRV,HRV_0131,2022-11-30 18:22:12
,wl-rdm,216,570236,0.0-8.98-0.98,False,,1.0,213.0,,,,,,,[],,,,,,53.2,0.0,u,0.0,True,1819.800000000745,109.0,60.0,40.0,261.2023979051277,[],"[1280, 720]",ColorTask,106.0,99.0,,,HRV,HRV_0131,2022-11-30 18:22:12
,wl-rdm,217,572338,0.0-8.99-0.99,False,,1.0,214.0,,,,,,,[],,,,,,73.6,1.0,i,1.0,True,760.5999999977648,46.0,60.0,40.0,275.43816992243734,[],"[1280, 720]",ColorTask,107.0,100.0,,,HRV,HRV_0131,2022-11-30 18:22:12
,wl-rdm,218,574406,0.0-8.100-0.100,False,,1.0,215.0,,,,,,,[],,,,,,53.2,1.0,i,1.0,True,741.6999999992549,45.0,60.0,40.0,259.2215160965723,[],"[1280, 720]",ColorTask,108.0,101.0,,,HRV,HRV_0131,2022-11-30 18:22:12
,wl-rdm,219,576658,0.0-8.101-0.101,False,,1.0,216.0,,,,,,,[],,,,,,73.6,0.0,u,0.0,True,912.4000000022352,55.0,60.0,40.0,279.0685847772008,[],"[1280, 720]",ColorTask,109.0,102.0,,,HRV,HRV_0131,2022-11-30 18:22:12
,wl-rdm,220,578893,0.0-8.102-0.102,False,,1.0,217.0,,,,,,,[],,,,,,53.2,1.0,i,1.0,True,855.0,52.0,60.0,40.0,306.2956129011807,[],"[1280, 720]",ColorTask,110.0,103.0,,,HRV,HRV_0131,2022-11-30 18:22:12
,wl-rdm,221,581078,0.0-8.103-0.103,False,,1.0,218.0,,,,,,,[],,,,,,56.4,1.0,i,1.0,True,780.8000000007451,47.0,60.0,40.0,348.97547830207066,[],"[1280, 720]",ColorTask,111.0,104.0,,,HRV,HRV_0131,2022-11-30 18:22:12
,wl-rdm,222,583764,0.0-8.104-0.104,False,,1.0,219.0,,,,,,,[],,,,,,56.4,1.0,i,1.0,True,1281.5999999977648,77.0,60.0,40.0,350.17413531081377,[],"[1280, 720]",ColorTask,112.0,105.0,,,HRV,HRV_0131,2022-11-30 18:22:12
,wl-rdm,223,586683,0.0-8.105-0.105,False,,1.0,220.0,,,,,,,[],,,,,,53.2,1.0,i,1.0,True,1569.300000000745,95.0,60.0,40.0,281.4298307375957,[],"[1280, 720]",ColorTask,113.0,106.0,,,HRV,HRV_0131,2022-11-30 18:22:12
,wl-rdm,224,589302,0.0-8.106-0.106,False,,1.0,221.0,,,,,,,[],,,,,,50.0,0.0,i,1.0,False,1319.5,79.0,60.0,40.0,228.1070242100299,[],"[1280, 720]",ColorTask,112.0,107.0,,,HRV,HRV_0131,2022-11-30 18:22:12
,wl-rdm,225,591737,0.0-8.107-0.107,False,,1.0,222.0,,,,,,,[],,,,,,87.9,1.0,i,1.0,True,1047.0,63.0,60.0,40.0,330.8851577943778,[],"[1280, 720]",ColorTask,113.0,108.0,,,HRV,HRV_0131,2022-11-30 18:22:12
,wl-html-button-response,226,595753,0.0-9.0-0.0,,,,,,,,,,,,4014.0,,0,,,,,,,,,,,,,,,,,,<h3>End of this session. Thank you!</h3><br>,['Close window'],HRV,HRV_0131,2022-11-30 18:22:12
