trialN,stimuli,trialStartTime,trialStartTime_UNIX,stimulus1,stimulus2,stimulus1Bid,stimulus2Bid,delta,selected,rt,rt_UNIX,rt_perfnow,receivedResponse,rsp,trialEndTime,trialDuration,trialEndTime_UNIX,trialDuration_UNIX,exp,subjectId,date
0,"[{'imgObject': {}, 'id': 'popsicles', 'src': '/static/foodstim60/popsicles.jpg', 'key': 'u', 'origWidth': 410, 'origHeight': 410, 'width': 410, 'height': 410, 'widthPercent': 0.45, 'rescaleHeight': False, 'trialN': 0, 'loaded': True, 'loadedTime': 2093.100000143051, 'positionName': 'LEFT', 'positionCoords': [511.6, 335], 'bid': 3.95}, {'imgObject': {}, 'id': 'raspberries', 'src': '/static/foodstim60/raspberries.jpg', 'key': 'i', 'origWidth': 411, 'origHeight': 411, 'width': 411, 'height': 411, 'widthPercent': 0.45, 'rescaleHeight': False, 'trialN': 0, 'loaded': True, 'loadedTime': 2175.5, 'positionName': 'RIGHT', 'positionCoords': [998.4, 334.5], 'bid': 3.08}]",2347.0,1669830143957,popsicles,raspberries,3.95,3.08,-0.8700000000000001,raspberries,1389.2000000476837,1391,1390.3000001907349,True,i,4242.0,1895.0,1669830145852,1895,HRV,HRV_0067,2022-11-30 17:46:45
1,"[{'imgObject': {}, 'id': 'mac & cheese', 'src': '/static/foodstim60/mac & cheese.jpg', 'key': 'u', 'origWidth': 410, 'origHeight': 410, 'width': 410, 'height': 410, 'widthPercent': 0.45, 'rescaleHeight': False, 'trialN': 1, 'loaded': True, 'loadedTime': 2184.9000000953674, 'positionName': 'LEFT', 'positionCoords': [511.6, 335], 'bid': 7.66}, {'imgObject': {}, 'id': 'bagel and cc', 'src': '/static/foodstim60/bagel and cc.jpg', 'key': 'i', 'origWidth': 410, 'origHeight': 410, 'width': 410, 'height': 410, 'widthPercent': 0.45, 'rescaleHeight': False, 'trialN': 1, 'loaded': True, 'loadedTime': 2192.100000143051, 'positionName': 'RIGHT', 'positionCoords': [998.4, 335], 'bid': 3.14}]",4242.400000095367,1669830145853,mac & cheese,bagel and cc,7.66,3.14,-4.52,mac & cheese,715.9000000953674,716,716.5,True,u,5469.200000047684,1226.7999999523163,1669830147079,1226,HRV,HRV_0067,2022-11-30 17:46:45
2,"[{'imgObject': {}, 'id': 'baked potato', 'src': '/static/foodstim60/baked potato.jpg', 'key': 'u', 'origWidth': 409, 'origHeight': 410, 'width': 409, 'height': 410, 'widthPercent': 0.45, 'rescaleHeight': False, 'trialN': 2, 'loaded': True, 'loadedTime': 2194, 'positionName': 'LEFT', 'positionCoords': [512.6, 335], 'bid': 4.75}, {'imgObject': {}, 'id': 'ice cream sundae 002', 'src': '/static/foodstim60/ice cream sundae 002.jpg', 'key': 'i', 'origWidth': 409, 'origHeight': 409, 'width': 409, 'height': 409, 'widthPercent': 0.45, 'rescaleHeight': False, 'trialN': 2, 'loaded': True, 'loadedTime': 2195.300000190735, 'positionName': 'RIGHT', 'positionCoords': [998.4, 335.5], 'bid': 7.27}]",5469.5,1669830147080,baked potato,ice cream sundae 002,4.75,7.27,2.5199999999999996,ice cream sundae 002,840.4000000953674,840,840.6000001430511,True,i,6831.400000095367,1361.9000000953674,1669830148442,1362,HRV,HRV_0067,2022-11-30 17:46:45
3,"[{'imgObject': {}, 'id': 'luckycharms', 'src': '/static/foodstim60/luckycharms.jpg', 'key': 'u', 'origWidth': 410, 'origHeight': 409, 'width': 410, 'height': 409, 'widthPercent': 0.45, 'rescaleHeight': False, 'trialN': 3, 'loaded': True, 'loadedTime': 2225.9000000953674, 'positionName': 'LEFT', 'positionCoords': [511.6, 335.5], 'bid': 1.11}, {'imgObject': {}, 'id': 'edamame', 'src': '/static/foodstim60/edamame.jpg', 'key': 'i', 'origWidth': 409, 'origHeight': 410, 'width': 409, 'height': 410, 'widthPercent': 0.45, 'rescaleHeight': False, 'trialN': 3, 'loaded': True, 'loadedTime': 2160.300000190735, 'positionName': 'RIGHT', 'positionCoords': [998.4, 335], 'bid': 1.86}]",6831.5,1669830148442,luckycharms,edamame,1.11,1.86,0.75,edamame,925.7000000476837,926,926.3000001907349,True,i,8281.600000143051,1450.1000001430511,1669830149892,1450,HRV,HRV_0067,2022-11-30 17:46:45
4,"[{'imgObject': {}, 'id': 'Grapes', 'src': '/static/foodstim60/Grapes.jpg', 'key': 'u', 'origWidth': 411, 'origHeight': 411, 'width': 411, 'height': 411, 'widthPercent': 0.45, 'rescaleHeight': False, 'trialN': 4, 'loaded': True, 'loadedTime': 2168.600000143051, 'positionName': 'LEFT', 'positionCoords': [510.6, 334.5], 'bid': 5.42}, {'imgObject': {}, 'id': 'strawberries', 'src': '/static/foodstim60/strawberries.jpg', 'key': 'i', 'origWidth': 410, 'origHeight': 410, 'width': 410, 'height': 410, 'widthPercent': 0.45, 'rescaleHeight': False, 'trialN': 4, 'loaded': True, 'loadedTime': 2175.5, 'positionName': 'RIGHT', 'positionCoords': [998.4, 335], 'bid': 5.54}]",8282.100000143051,1669830149892,Grapes,strawberries,5.42,5.54,0.1200000000000001,strawberries,888.2999999523163,889,888.8999998569489,True,i,9691.700000047684,1409.5999999046326,1669830151302,1410,HRV,HRV_0067,2022-11-30 17:46:45
5,"[{'imgObject': {}, 'id': 'sweetpotato', 'src': '/static/foodstim60/sweetpotato.jpg', 'key': 'u', 'origWidth': 410, 'origHeight': 410, 'width': 410, 'height': 410, 'widthPercent': 0.45, 'rescaleHeight': False, 'trialN': 5, 'loaded': True, 'loadedTime': 2181.600000143051, 'positionName': 'LEFT', 'positionCoords': [511.6, 335], 'bid': 2.27}, {'imgObject': {}, 'id': 'turkey sandwich', 'src': '/static/foodstim60/turkey sandwich.jpg', 'key': 'i', 'origWidth': 409, 'origHeight': 409, 'width': 409, 'height': 409, 'widthPercent': 0.45, 'rescaleHeight': False, 'trialN': 5, 'loaded': True, 'loadedTime': 2184, 'positionName': 'RIGHT', 'positionCoords': [998.4, 335.5], 'bid': 6.67}]",9691.900000095367,1669830151302,sweetpotato,turkey sandwich,2.27,6.67,4.4,turkey sandwich,863.9000000953674,864,864.2000000476837,True,i,11071.400000095367,1379.5,1669830152682,1380,HRV,HRV_0067,2022-11-30 17:46:45
6,"[{'imgObject': {}, 'id': 'omelette', 'src': '/static/foodstim60/omelette.jpg', 'key': 'u', 'origWidth': 410, 'origHeight': 409, 'width': 410, 'height': 409, 'widthPercent': 0.45, 'rescaleHeight': False, 'trialN': 6, 'loaded': True, 'loadedTime': 2186.100000143051, 'positionName': 'LEFT', 'positionCoords': [511.6, 335.5], 'bid': 3.93}, {'imgObject': {}, 'id': 'cherry tomato', 'src': '/static/foodstim60/cherry tomato.jpg', 'key': 'i', 'origWidth': 410, 'origHeight': 410, 'width': 410, 'height': 410, 'widthPercent': 0.45, 'rescaleHeight': False, 'trialN': 6, 'loaded': True, 'loadedTime': 2186.4000000953674, 'positionName': 'RIGHT', 'positionCoords': [998.4, 335], 'bid': 0.71}]",11071.600000143051,1669830152682,omelette,cherry tomato,3.93,0.71,-3.22,omelette,1036.2000000476837,1037,1036.5999999046326,True,u,12611.400000095367,1539.7999999523163,1669830154222,1540,HRV,HRV_0067,2022-11-30 17:46:45
7,"[{'imgObject': {}, 'id': 'mashed potato', 'src': '/static/foodstim60/mashed potato.jpg', 'key': 'u', 'origWidth': 409, 'origHeight': 409, 'width': 409, 'height': 409, 'widthPercent': 0.45, 'rescaleHeight': False, 'trialN': 7, 'loaded': True, 'loadedTime': 2188.100000143051, 'positionName': 'LEFT', 'positionCoords': [512.6, 335.5], 'bid': 2.72}, {'imgObject': {}, 'id': 'pear', 'src': '/static/foodstim60/pear.jpg', 'key': 'i', 'origWidth': 411, 'origHeight': 410, 'width': 411, 'height': 410, 'widthPercent': 0.45, 'rescaleHeight': False, 'trialN': 7, 'loaded': True, 'loadedTime': 2189.300000190735, 'positionName': 'RIGHT', 'positionCoords': [998.4, 335], 'bid': 2.54}]",12611.5,1669830154222,mashed potato,pear,2.72,2.54,-0.18000000000000016,pear,998.7000000476837,999,999.3000001907349,True,i,14121.400000095367,1509.9000000953674,1669830155732,1510,HRV,HRV_0067,2022-11-30 17:46:45
8,"[{'imgObject': {}, 'id': 'pear', 'src': '/static/foodstim60/pear.jpg', 'key': 'u', 'origWidth': 411, 'origHeight': 410, 'width': 411, 'height': 410, 'widthPercent': 0.45, 'rescaleHeight': False, 'trialN': 8, 'loaded': True, 'loadedTime': 2189.100000143051, 'positionName': 'LEFT', 'positionCoords': [510.6, 335], 'bid': 2.54}, {'imgObject': {}, 'id': 'rigatoni', 'src': '/static/foodstim60/rigatoni.jpg', 'key': 'i', 'origWidth': 411, 'origHeight': 411, 'width': 411, 'height': 411, 'widthPercent': 0.45, 'rescaleHeight': False, 'trialN': 8, 'loaded': True, 'loadedTime': 2190.5, 'positionName': 'RIGHT', 'positionCoords': [998.4, 334.5], 'bid': 2.07}]",14121.600000143051,1669830155732,pear,rigatoni,2.54,2.07,-0.4700000000000002,pear,823.2000000476837,824,823.7000000476837,True,u,15451.800000190735,1330.2000000476837,1669830157062,1330,HRV,HRV_0067,2022-11-30 17:46:45
9,"[{'imgObject': {}, 'id': 'corn cob', 'src': '/static/foodstim60/corn cob.jpg', 'key': 'u', 'origWidth': 411, 'origHeight': 411, 'width': 411, 'height': 411, 'widthPercent': 0.45, 'rescaleHeight': False, 'trialN': 9, 'loaded': True, 'loadedTime': 2191.5, 'positionName': 'LEFT', 'positionCoords': [510.6, 334.5], 'bid': 1.91}, {'imgObject': {}, 'id': 'lox', 'src': '/static/foodstim60/lox.jpg', 'key': 'i', 'origWidth': 410, 'origHeight': 411, 'width': 410, 'height': 411, 'widthPercent': 0.45, 'rescaleHeight': False, 'trialN': 9, 'loaded': True, 'loadedTime': 2195.2000000476837, 'positionName': 'RIGHT', 'positionCoords': [998.4, 334.5], 'bid': 1.15}]",15452.100000143051,1669830157062,corn cob,lox,1.91,1.15,-0.76,corn cob,982.7999999523163,984,983.0999999046326,True,u,16941.60000014305,1489.5,1669830158552,1490,HRV,HRV_0067,2022-11-30 17:46:45
10,"[{'imgObject': {}, 'id': 'olives', 'src': '/static/foodstim60/olives.jpg', 'key': 'u', 'origWidth': 410, 'origHeight': 410, 'width': 410, 'height': 410, 'widthPercent': 0.45, 'rescaleHeight': False, 'trialN': 10, 'loaded': True, 'loadedTime': 2197.4000000953674, 'positionName': 'LEFT', 'positionCoords': [511.6, 335], 'bid': 0.67}, {'imgObject': {}, 'id': 'veggieswithdip', 'src': '/static/foodstim60/veggieswithdip.jpg', 'key': 'i', 'origWidth': 409, 'origHeight': 409, 'width': 409, 'height': 409, 'widthPercent': 0.45, 'rescaleHeight': False, 'trialN': 10, 'loaded': True, 'loadedTime': 2197.5, 'positionName': 'RIGHT', 'positionCoords': [998.4, 335.5], 'bid': 3.81}]",16941.900000095367,1669830158552,olives,veggieswithdip,0.67,3.81,3.14,veggieswithdip,1031.0999999046326,1032,1031.5999999046326,True,i,18481.5,1539.5999999046326,1669830160092,1540,HRV,HRV_0067,2022-11-30 17:46:45
11,"[{'imgObject': {}, 'id': 'burger', 'src': '/static/foodstim60/burger.jpg', 'key': 'u', 'origWidth': 409, 'origHeight': 409, 'width': 409, 'height': 409, 'widthPercent': 0.45, 'rescaleHeight': False, 'trialN': 11, 'loaded': True, 'loadedTime': 2199.7000000476837, 'positionName': 'LEFT', 'positionCoords': [512.6, 335.5], 'bid': 1.12}, {'imgObject': {}, 'id': 'blueberries', 'src': '/static/foodstim60/blueberries.jpg', 'key': 'i', 'origWidth': 411, 'origHeight': 411, 'width': 411, 'height': 411, 'widthPercent': 0.45, 'rescaleHeight': False, 'trialN': 11, 'loaded': True, 'loadedTime': 2200.800000190735, 'positionName': 'RIGHT', 'positionCoords': [998.4, 334.5], 'bid': 2.28}]",18481.800000190735,1669830160092,burger,blueberries,1.12,2.28,1.1599999999999997,blueberries,1009.5,1010,1010.0,True,i,20001.5,1519.6999998092651,1669830161612,1520,HRV,HRV_0067,2022-11-30 17:46:45
12,"[{'imgObject': {}, 'id': 'mango', 'src': '/static/foodstim60/mango.jpg', 'key': 'u', 'origWidth': 411, 'origHeight': 411, 'width': 411, 'height': 411, 'widthPercent': 0.45, 'rescaleHeight': False, 'trialN': 12, 'loaded': True, 'loadedTime': 2201.800000190735, 'positionName': 'LEFT', 'positionCoords': [510.6, 334.5], 'bid': 4.8500000000000005}, {'imgObject': {}, 'id': 'froot loops w milk', 'src': '/static/foodstim60/froot loops w milk.jpg', 'key': 'i', 'origWidth': 410, 'origHeight': 410, 'width': 410, 'height': 410, 'widthPercent': 0.45, 'rescaleHeight': False, 'trialN': 12, 'loaded': True, 'loadedTime': 2204, 'positionName': 'RIGHT', 'positionCoords': [998.4, 335], 'bid': 1.48}]",20001.700000047684,1669830161612,mango,froot loops w milk,4.8500000000000005,1.48,-3.3700000000000006,mango,961.0,962,961.6000001430511,True,u,21481.900000095367,1480.2000000476837,1669830163092,1480,HRV,HRV_0067,2022-11-30 17:46:45
13,"[{'imgObject': {}, 'id': 'sweetpotato', 'src': '/static/foodstim60/sweetpotato.jpg', 'key': 'u', 'origWidth': 410, 'origHeight': 410, 'width': 410, 'height': 410, 'widthPercent': 0.45, 'rescaleHeight': False, 'trialN': 13, 'loaded': True, 'loadedTime': 2182.4000000953674, 'positionName': 'LEFT', 'positionCoords': [511.6, 335], 'bid': 2.27}, {'imgObject': {}, 'id': 'granola w milk', 'src': '/static/foodstim60/granola w milk.jpg', 'key': 'i', 'origWidth': 410, 'origHeight': 410, 'width': 410, 'height': 410, 'widthPercent': 0.45, 'rescaleHeight': False, 'trialN': 13, 'loaded': True, 'loadedTime': 2209.4000000953674, 'positionName': 'RIGHT', 'positionCoords': [998.4, 335], 'bid': 1.56}]",21482.200000047684,1669830163092,sweetpotato,granola w milk,2.27,1.56,-0.71,sweetpotato,1048.0,1049,1048.4000000953674,True,u,23041.400000095367,1559.2000000476837,1669830164652,1560,HRV,HRV_0067,2022-11-30 17:46:45
14,"[{'imgObject': {}, 'id': 'ice cream sundae 002', 'src': '/static/foodstim60/ice cream sundae 002.jpg', 'key': 'u', 'origWidth': 409, 'origHeight': 409, 'width': 409, 'height': 409, 'widthPercent': 0.45, 'rescaleHeight': False, 'trialN': 14, 'loaded': True, 'loadedTime': 2195.9000000953674, 'positionName': 'LEFT', 'positionCoords': [512.6, 335.5], 'bid': 7.27}, {'imgObject': {}, 'id': 'avocado', 'src': '/static/foodstim60/avocado.jpg', 'key': 'i', 'origWidth': 409, 'origHeight': 409, 'width': 409, 'height': 409, 'widthPercent': 0.45, 'rescaleHeight': False, 'trialN': 14, 'loaded': True, 'loadedTime': 2209.5, 'positionName': 'RIGHT', 'positionCoords': [998.4, 335.5], 'bid': 7.0200000000000005}]",23041.60000014305,1669830164652,ice cream sundae 002,avocado,7.27,7.0200000000000005,-0.2499999999999991,ice cream sundae 002,1008.0999999046326,1008,1008.2999999523163,True,u,24561.700000047684,1520.0999999046326,1669830166172,1520,HRV,HRV_0067,2022-11-30 17:46:45
15,"[{'imgObject': {}, 'id': 'fruitsalad', 'src': '/static/foodstim60/fruitsalad.jpg', 'key': 'u', 'origWidth': 410, 'origHeight': 410, 'width': 410, 'height': 410, 'widthPercent': 0.45, 'rescaleHeight': False, 'trialN': 15, 'loaded': True, 'loadedTime': 2219.7000000476837, 'positionName': 'LEFT', 'positionCoords': [511.6, 335], 'bid': 6.73}, {'imgObject': {}, 'id': 'cantaloupe', 'src': '/static/foodstim60/cantaloupe.jpg', 'key': 'i', 'origWidth': 409, 'origHeight': 409, 'width': 409, 'height': 409, 'widthPercent': 0.45, 'rescaleHeight': False, 'trialN': 15, 'loaded': True, 'loadedTime': 2230.2000000476837, 'positionName': 'RIGHT', 'positionCoords': [998.4, 335.5], 'bid': 4.36}]",24561.800000190735,1669830166172,fruitsalad,cantaloupe,6.73,4.36,-2.37,fruitsalad,1081.0999999046326,1082,1081.3999998569489,True,u,26161.700000047684,1599.8999998569489,1669830167772,1600,HRV,HRV_0067,2022-11-30 17:46:45
16,"[{'imgObject': {}, 'id': 'seaweed', 'src': '/static/foodstim60/seaweed.jpg', 'key': 'u', 'origWidth': 410, 'origHeight': 410, 'width': 410, 'height': 410, 'widthPercent': 0.45, 'rescaleHeight': False, 'trialN': 16, 'loaded': True, 'loadedTime': 2235, 'positionName': 'LEFT', 'positionCoords': [511.6, 335], 'bid': 0.81}, {'imgObject': {}, 'id': 'popsicles', 'src': '/static/foodstim60/popsicles.jpg', 'key': 'i', 'origWidth': 410, 'origHeight': 410, 'width': 410, 'height': 410, 'widthPercent': 0.45, 'rescaleHeight': False, 'trialN': 16, 'loaded': True, 'loadedTime': 2142.7000000476837, 'positionName': 'RIGHT', 'positionCoords': [998.4, 335], 'bid': 3.95}]",26161.800000190735,1669830167772,seaweed,popsicles,0.81,3.95,3.14,popsicles,1000.0,1001,1000.5,True,i,27671.900000095367,1510.0999999046326,1669830169282,1510,HRV,HRV_0067,2022-11-30 17:46:45
17,"[{'imgObject': {}, 'id': 'fruitsalad', 'src': '/static/foodstim60/fruitsalad.jpg', 'key': 'u', 'origWidth': 410, 'origHeight': 410, 'width': 410, 'height': 410, 'widthPercent': 0.45, 'rescaleHeight': False, 'trialN': 17, 'loaded': True, 'loadedTime': 2220.5, 'positionName': 'LEFT', 'positionCoords': [511.6, 335], 'bid': 6.73}, {'imgObject': {}, 'id': 'ice cream sundae 002', 'src': '/static/foodstim60/ice cream sundae 002.jpg', 'key': 'i', 'origWidth': 409, 'origHeight': 409, 'width': 409, 'height': 409, 'widthPercent': 0.45, 'rescaleHeight': False, 'trialN': 17, 'loaded': True, 'loadedTime': 2196.2000000476837, 'positionName': 'RIGHT', 'positionCoords': [998.4, 335.5], 'bid': 7.27}]",27672.300000190735,1669830169282,fruitsalad,ice cream sundae 002,6.73,7.27,0.5399999999999991,fruitsalad,1753.8999998569489,1755,1754.3999998569489,True,u,29931.700000047684,2259.399999856949,1669830171542,2260,HRV,HRV_0067,2022-11-30 17:46:45
18,"[{'imgObject': {}, 'id': 'hotdog w must', 'src': '/static/foodstim60/hotdog w must.jpg', 'key': 'u', 'origWidth': 409, 'origHeight': 409, 'width': 409, 'height': 409, 'widthPercent': 0.45, 'rescaleHeight': False, 'trialN': 18, 'loaded': True, 'loadedTime': 2235.100000143051, 'positionName': 'LEFT', 'positionCoords': [512.6, 335.5], 'bid': 5.6000000000000005}, {'imgObject': {}, 'id': 'avocado', 'src': '/static/foodstim60/avocado.jpg', 'key': 'i', 'origWidth': 409, 'origHeight': 409, 'width': 409, 'height': 409, 'widthPercent': 0.45, 'rescaleHeight': False, 'trialN': 18, 'loaded': True, 'loadedTime': 2214.600000143051, 'positionName': 'RIGHT', 'positionCoords': [998.4, 335.5], 'bid': 7.0200000000000005}]",29932.0,1669830171542,hotdog w must,avocado,5.6000000000000005,7.0200000000000005,1.42,hotdog w must,1259.8000001907349,1260,1260.3000001907349,True,u,31711.5,1779.5,1669830173321,1779,HRV,HRV_0067,2022-11-30 17:46:45
19,"[{'imgObject': {}, 'id': 'orange slices', 'src': '/static/foodstim60/orange slices.jpg', 'key': 'u', 'origWidth': 409, 'origHeight': 410, 'width': 409, 'height': 410, 'widthPercent': 0.45, 'rescaleHeight': False, 'trialN': 19, 'loaded': True, 'loadedTime': 2247.600000143051, 'positionName': 'LEFT', 'positionCoords': [512.6, 335], 'bid': 4.6000000000000005}, {'imgObject': {}, 'id': 'cantaloupe', 'src': '/static/foodstim60/cantaloupe.jpg', 'key': 'i', 'origWidth': 409, 'origHeight': 409, 'width': 409, 'height': 409, 'widthPercent': 0.45, 'rescaleHeight': False, 'trialN': 19, 'loaded': True, 'loadedTime': 2230.100000143051, 'positionName': 'RIGHT', 'positionCoords': [998.4, 335.5], 'bid': 4.36}]",31711.700000047684,1669830173322,orange slices,cantaloupe,4.6000000000000005,4.36,-0.2400000000000002,cantaloupe,1981.6000001430511,1982,1982.2999999523163,True,i,34201.40000009537,2489.7000000476837,1669830175811,2489,HRV,HRV_0067,2022-11-30 17:46:45
20,"[{'imgObject': {}, 'id': 'orange slices', 'src': '/static/foodstim60/orange slices.jpg', 'key': 'u', 'origWidth': 409, 'origHeight': 410, 'width': 409, 'height': 410, 'widthPercent': 0.45, 'rescaleHeight': False, 'trialN': 20, 'loaded': True, 'loadedTime': 2248.2000000476837, 'positionName': 'LEFT', 'positionCoords': [512.6, 335], 'bid': 4.6000000000000005}, {'imgObject': {}, 'id': 'avocado', 'src': '/static/foodstim60/avocado.jpg', 'key': 'i', 'origWidth': 409, 'origHeight': 409, 'width': 409, 'height': 409, 'widthPercent': 0.45, 'rescaleHeight': False, 'trialN': 20, 'loaded': True, 'loadedTime': 2210.100000143051, 'positionName': 'RIGHT', 'positionCoords': [998.4, 335.5], 'bid': 7.0200000000000005}]",34201.60000014305,1669830175812,orange slices,avocado,4.6000000000000005,7.0200000000000005,2.42,avocado,1441.0999999046326,1441,1441.2000000476837,True,i,36161.60000014305,1960.0,1669830177772,1960,HRV,HRV_0067,2022-11-30 17:46:45
21,"[{'imgObject': {}, 'id': 'orange slices', 'src': '/static/foodstim60/orange slices.jpg', 'key': 'u', 'origWidth': 409, 'origHeight': 410, 'width': 409, 'height': 410, 'widthPercent': 0.45, 'rescaleHeight': False, 'trialN': 21, 'loaded': True, 'loadedTime': 2243.600000143051, 'positionName': 'LEFT', 'positionCoords': [512.6, 335], 'bid': 4.6000000000000005}, {'imgObject': {}, 'id': 'hashbrowns', 'src': '/static/foodstim60/hashbrowns.jpg', 'key': 'i', 'origWidth': 411, 'origHeight': 410, 'width': 411, 'height': 410, 'widthPercent': 0.45, 'rescaleHeight': False, 'trialN': 21, 'loaded': True, 'loadedTime': 2248.2000000476837, 'positionName': 'RIGHT', 'positionCoords': [998.4, 335], 'bid': 4.11}]",36161.60000014305,1669830177772,orange slices,hashbrowns,4.6000000000000005,4.11,-0.4900000000000002,orange slices,677.5,677,677.7000000476837,True,u,37361.5,1199.8999998569489,1669830178972,1200,HRV,HRV_0067,2022-11-30 17:46:45
22,"[{'imgObject': {}, 'id': 'Tribe humus pita', 'src': '/static/foodstim60/Tribe humus pita.jpg', 'key': 'u', 'origWidth': 411, 'origHeight': 411, 'width': 411, 'height': 411, 'widthPercent': 0.45, 'rescaleHeight': False, 'trialN': 22, 'loaded': True, 'loadedTime': 2250.100000143051, 'positionName': 'LEFT', 'positionCoords': [510.6, 334.5], 'bid': 1.57}, {'imgObject': {}, 'id': 'bagel plain', 'src': '/static/foodstim60/bagel plain.jpg', 'key': 'i', 'origWidth': 410, 'origHeight': 410, 'width': 410, 'height': 410, 'widthPercent': 0.45, 'rescaleHeight': False, 'trialN': 22, 'loaded': True, 'loadedTime': 2254.7000000476837, 'positionName': 'RIGHT', 'positionCoords': [998.4, 335], 'bid': 2.75}]",37361.700000047684,1669830178972,Tribe humus pita,bagel plain,1.57,2.75,1.18,bagel plain,1749.9000000953674,1750,1750.0,True,i,39621.700000047684,2260.0,1669830181232,2260,HRV,HRV_0067,2022-11-30 17:46:45
23,"[{'imgObject': {}, 'id': 'bagel and cc', 'src': '/static/foodstim60/bagel and cc.jpg', 'key': 'u', 'origWidth': 410, 'origHeight': 410, 'width': 410, 'height': 410, 'widthPercent': 0.45, 'rescaleHeight': False, 'trialN': 23, 'loaded': True, 'loadedTime': 2193.2000000476837, 'positionName': 'LEFT', 'positionCoords': [511.6, 335], 'bid': 3.14}, {'imgObject': {}, 'id': 'raisin bran w milk', 'src': '/static/foodstim60/raisin bran w milk.jpg', 'key': 'i', 'origWidth': 411, 'origHeight': 411, 'width': 411, 'height': 411, 'widthPercent': 0.45, 'rescaleHeight': False, 'trialN': 23, 'loaded': True, 'loadedTime': 2260.5, 'positionName': 'RIGHT', 'positionCoords': [998.4, 334.5], 'bid': 1.78}]",39621.800000190735,1669830181232,bagel and cc,raisin bran w milk,3.14,1.78,-1.36,bagel and cc,1094.3999998569489,1095,1094.7999999523163,True,u,41231.60000014305,1609.7999999523163,1669830182842,1610,HRV,HRV_0067,2022-11-30 17:46:45
24,"[{'imgObject': {}, 'id': 'kiwi', 'src': '/static/foodstim60/kiwi.jpg', 'key': 'u', 'origWidth': 410, 'origHeight': 410, 'width': 410, 'height': 410, 'widthPercent': 0.45, 'rescaleHeight': False, 'trialN': 24, 'loaded': True, 'loadedTime': 2269.100000143051, 'positionName': 'LEFT', 'positionCoords': [511.6, 335], 'bid': 6.45}, {'imgObject': {}, 'id': 'grilled chicken strips', 'src': '/static/foodstim60/grilled chicken strips.jpg', 'key': 'i', 'origWidth': 410, 'origHeight': 411, 'width': 410, 'height': 411, 'widthPercent': 0.45, 'rescaleHeight': False, 'trialN': 24, 'loaded': True, 'loadedTime': 2275.9000000953674, 'positionName': 'RIGHT', 'positionCoords': [998.4, 334.5], 'bid': 7.37}]",41231.800000190735,1669830182842,kiwi,grilled chicken strips,6.45,7.37,0.9199999999999999,grilled chicken strips,1481.7999999523163,1482,1482.2999999523163,True,i,43231.800000190735,2000.0,1669830184842,2000,HRV,HRV_0067,2022-11-30 17:46:45
25,"[{'imgObject': {}, 'id': 'lox', 'src': '/static/foodstim60/lox.jpg', 'key': 'u', 'origWidth': 410, 'origHeight': 411, 'width': 410, 'height': 411, 'widthPercent': 0.45, 'rescaleHeight': False, 'trialN': 25, 'loaded': True, 'loadedTime': 2194.300000190735, 'positionName': 'LEFT', 'positionCoords': [511.6, 334.5], 'bid': 1.15}, {'imgObject': {}, 'id': 'burger', 'src': '/static/foodstim60/burger.jpg', 'key': 'i', 'origWidth': 409, 'origHeight': 409, 'width': 409, 'height': 409, 'widthPercent': 0.45, 'rescaleHeight': False, 'trialN': 25, 'loaded': True, 'loadedTime': 2199.5, 'positionName': 'RIGHT', 'positionCoords': [998.4, 335.5], 'bid': 1.12}]",43232.0,1669830184842,lox,burger,1.15,1.12,-0.029999999999999805,burger,1695.7000000476837,1696,1696.0,True,i,45451.40000009537,2219.4000000953674,1669830187061,2219,HRV,HRV_0067,2022-11-30 17:46:45
26,"[{'imgObject': {}, 'id': 'steak', 'src': '/static/foodstim60/steak.jpg', 'key': 'u', 'origWidth': 410, 'origHeight': 410, 'width': 410, 'height': 410, 'widthPercent': 0.45, 'rescaleHeight': False, 'trialN': 26, 'loaded': True, 'loadedTime': 2283.100000143051, 'positionName': 'LEFT', 'positionCoords': [511.6, 335], 'bid': 7.33}, {'imgObject': {}, 'id': 'Grapes', 'src': '/static/foodstim60/Grapes.jpg', 'key': 'i', 'origWidth': 411, 'origHeight': 411, 'width': 411, 'height': 411, 'widthPercent': 0.45, 'rescaleHeight': False, 'trialN': 26, 'loaded': True, 'loadedTime': 2164.9000000953674, 'positionName': 'RIGHT', 'positionCoords': [998.4, 334.5], 'bid': 5.42}]",45451.700000047684,1669830187062,steak,Grapes,7.33,5.42,-1.9100000000000001,steak,894.5,895,894.9000000953674,True,u,46851.700000047684,1400.0,1669830188462,1400,HRV,HRV_0067,2022-11-30 17:46:45
27,"[{'imgObject': {}, 'id': 'baked potato', 'src': '/static/foodstim60/baked potato.jpg', 'key': 'u', 'origWidth': 409, 'origHeight': 410, 'width': 409, 'height': 410, 'widthPercent': 0.45, 'rescaleHeight': False, 'trialN': 27, 'loaded': True, 'loadedTime': 2193.300000190735, 'positionName': 'LEFT', 'positionCoords': [512.6, 335], 'bid': 4.75}, {'imgObject': {}, 'id': 'Grapes', 'src': '/static/foodstim60/Grapes.jpg', 'key': 'i', 'origWidth': 411, 'origHeight': 411, 'width': 411, 'height': 411, 'widthPercent': 0.45, 'rescaleHeight': False, 'trialN': 27, 'loaded': True, 'loadedTime': 2165, 'positionName': 'RIGHT', 'positionCoords': [998.4, 334.5], 'bid': 5.42}]",46852.10000014305,1669830188462,baked potato,Grapes,4.75,5.42,0.6699999999999999,Grapes,886.0999999046326,887,886.5999999046326,True,i,48251.40000009537,1399.2999999523163,1669830189861,1399,HRV,HRV_0067,2022-11-30 17:46:45
28,"[{'imgObject': {}, 'id': 'roastedpotatoes', 'src': '/static/foodstim60/roastedpotatoes.jpg', 'key': 'u', 'origWidth': 409, 'origHeight': 410, 'width': 409, 'height': 410, 'widthPercent': 0.45, 'rescaleHeight': False, 'trialN': 28, 'loaded': True, 'loadedTime': 2290.100000143051, 'positionName': 'LEFT', 'positionCoords': [512.6, 335], 'bid': 7.42}, {'imgObject': {}, 'id': 'tacos', 'src': '/static/foodstim60/tacos.jpg', 'key': 'i', 'origWidth': 411, 'origHeight': 411, 'width': 411, 'height': 411, 'widthPercent': 0.45, 'rescaleHeight': False, 'trialN': 28, 'loaded': True, 'loadedTime': 2297.600000143051, 'positionName': 'RIGHT', 'positionCoords': [998.4, 334.5], 'bid': 7.95}]",48251.700000047684,1669830189862,roastedpotatoes,tacos,7.42,7.95,0.5300000000000002,roastedpotatoes,745.9000000953674,746,746.1000001430511,True,u,49521.60000014305,1269.9000000953674,1669830191132,1270,HRV,HRV_0067,2022-11-30 17:46:45
29,"[{'imgObject': {}, 'id': 'sushi w_condiments', 'src': '/static/foodstim60/sushi w_condiments.jpg', 'key': 'u', 'origWidth': 410, 'origHeight': 410, 'width': 410, 'height': 410, 'widthPercent': 0.45, 'rescaleHeight': False, 'trialN': 29, 'loaded': True, 'loadedTime': 2303.2000000476837, 'positionName': 'LEFT', 'positionCoords': [511.6, 335], 'bid': 6.26}, {'imgObject': {}, 'id': 'mac & cheese', 'src': '/static/foodstim60/mac & cheese.jpg', 'key': 'i', 'origWidth': 410, 'origHeight': 410, 'width': 410, 'height': 410, 'widthPercent': 0.45, 'rescaleHeight': False, 'trialN': 29, 'loaded': True, 'loadedTime': 2185, 'positionName': 'RIGHT', 'positionCoords': [998.4, 335], 'bid': 7.66}]",49521.800000190735,1669830191132,sushi w_condiments,mac & cheese,6.26,7.66,1.4000000000000004,mac & cheese,1422.8999998569489,1423,1423.0999999046326,True,i,51451.5,1929.6999998092651,1669830193062,1930,HRV,HRV_0067,2022-11-30 17:46:45
30,"[{'imgObject': {}, 'id': 'granola w milk', 'src': '/static/foodstim60/granola w milk.jpg', 'key': 'u', 'origWidth': 410, 'origHeight': 410, 'width': 410, 'height': 410, 'widthPercent': 0.45, 'rescaleHeight': False, 'trialN': 30, 'loaded': True, 'loadedTime': 2209.300000190735, 'positionName': 'LEFT', 'positionCoords': [511.6, 335], 'bid': 1.56}, {'imgObject': {}, 'id': 'seaweed', 'src': '/static/foodstim60/seaweed.jpg', 'key': 'i', 'origWidth': 410, 'origHeight': 410, 'width': 410, 'height': 410, 'widthPercent': 0.45, 'rescaleHeight': False, 'trialN': 30, 'loaded': True, 'loadedTime': 2234.800000190735, 'positionName': 'RIGHT', 'positionCoords': [998.4, 335], 'bid': 0.81}]",51451.700000047684,1669830193062,granola w milk,seaweed,1.56,0.81,-0.75,granola w milk,993.4000000953674,994,993.7999999523163,True,u,52961.5,1509.7999999523163,1669830194572,1510,HRV,HRV_0067,2022-11-30 17:46:45
31,"[{'imgObject': {}, 'id': 'lox', 'src': '/static/foodstim60/lox.jpg', 'key': 'u', 'origWidth': 410, 'origHeight': 411, 'width': 410, 'height': 411, 'widthPercent': 0.45, 'rescaleHeight': False, 'trialN': 31, 'loaded': True, 'loadedTime': 2195.2000000476837, 'positionName': 'LEFT', 'positionCoords': [511.6, 334.5], 'bid': 1.15}, {'imgObject': {}, 'id': 'froot loops w milk', 'src': '/static/foodstim60/froot loops w milk.jpg', 'key': 'i', 'origWidth': 410, 'origHeight': 410, 'width': 410, 'height': 410, 'widthPercent': 0.45, 'rescaleHeight': False, 'trialN': 31, 'loaded': True, 'loadedTime': 2205, 'positionName': 'RIGHT', 'positionCoords': [998.4, 335], 'bid': 1.48}]",52961.700000047684,1669830194572,lox,froot loops w milk,1.15,1.48,0.33000000000000007,froot loops w milk,1384.0,1384,1384.5,True,i,54851.5,1889.7999999523163,1669830196461,1889,HRV,HRV_0067,2022-11-30 17:46:45
32,"[{'imgObject': {}, 'id': 'Tribe humus pita', 'src': '/static/foodstim60/Tribe humus pita.jpg', 'key': 'u', 'origWidth': 411, 'origHeight': 411, 'width': 411, 'height': 411, 'widthPercent': 0.45, 'rescaleHeight': False, 'trialN': 32, 'loaded': True, 'loadedTime': 2249.100000143051, 'positionName': 'LEFT', 'positionCoords': [510.6, 334.5], 'bid': 1.57}, {'imgObject': {}, 'id': 'luckycharms', 'src': '/static/foodstim60/luckycharms.jpg', 'key': 'i', 'origWidth': 410, 'origHeight': 409, 'width': 410, 'height': 409, 'widthPercent': 0.45, 'rescaleHeight': False, 'trialN': 32, 'loaded': True, 'loadedTime': 2224.9000000953674, 'positionName': 'RIGHT', 'positionCoords': [998.4, 335.5], 'bid': 1.11}]",54851.700000047684,1669830196462,Tribe humus pita,luckycharms,1.57,1.11,-0.45999999999999996,Tribe humus pita,1435.5,1436,1435.9000000953674,True,u,56801.60000014305,1949.9000000953674,1669830198412,1950,HRV,HRV_0067,2022-11-30 17:46:45
33,"[{'imgObject': {}, 'id': 'turkey sandwich', 'src': '/static/foodstim60/turkey sandwich.jpg', 'key': 'u', 'origWidth': 409, 'origHeight': 409, 'width': 409, 'height': 409, 'widthPercent': 0.45, 'rescaleHeight': False, 'trialN': 33, 'loaded': True, 'loadedTime': 2183.4000000953674, 'positionName': 'LEFT', 'positionCoords': [512.6, 335.5], 'bid': 6.67}, {'imgObject': {}, 'id': 'hashbrowns', 'src': '/static/foodstim60/hashbrowns.jpg', 'key': 'i', 'origWidth': 411, 'origHeight': 410, 'width': 411, 'height': 410, 'widthPercent': 0.45, 'rescaleHeight': False, 'trialN': 33, 'loaded': True, 'loadedTime': 2249, 'positionName': 'RIGHT', 'positionCoords': [998.4, 335], 'bid': 4.11}]",56801.700000047684,1669830198412,turkey sandwich,hashbrowns,6.67,4.11,-2.5599999999999996,turkey sandwich,1001.0,1001,1001.2000000476837,True,u,58321.800000190735,1520.1000001430511,1669830199932,1520,HRV,HRV_0067,2022-11-30 17:46:45
34,"[{'imgObject': {}, 'id': 'froot loops w milk', 'src': '/static/foodstim60/froot loops w milk.jpg', 'key': 'u', 'origWidth': 410, 'origHeight': 410, 'width': 410, 'height': 410, 'widthPercent': 0.45, 'rescaleHeight': False, 'trialN': 34, 'loaded': True, 'loadedTime': 2204.9000000953674, 'positionName': 'LEFT', 'positionCoords': [511.6, 335], 'bid': 1.48}, {'imgObject': {}, 'id': 'banana', 'src': '/static/foodstim60/banana.jpg', 'key': 'i', 'origWidth': 410, 'origHeight': 410, 'width': 410, 'height': 410, 'widthPercent': 0.45, 'rescaleHeight': False, 'trialN': 34, 'loaded': True, 'loadedTime': 2310.2000000476837, 'positionName': 'RIGHT', 'positionCoords': [998.4, 335], 'bid': 2.1}]",58322.10000014305,1669830199932,froot loops w milk,banana,1.48,2.1,0.6200000000000001,banana,1303.8999998569489,1304,1304.0999999046326,True,i,60141.700000047684,1819.5999999046326,1669830201752,1820,HRV,HRV_0067,2022-11-30 17:46:45
35,"[{'imgObject': {}, 'id': 'yogurt no spoon', 'src': '/static/foodstim60/yogurt no spoon.jpg', 'key': 'u', 'origWidth': 411, 'origHeight': 410, 'width': 411, 'height': 410, 'widthPercent': 0.45, 'rescaleHeight': False, 'trialN': 35, 'loaded': True, 'loadedTime': 2311.2000000476837, 'positionName': 'LEFT', 'positionCoords': [510.6, 335], 'bid': 2.32}, {'imgObject': {}, 'id': 'fried eggs', 'src': '/static/foodstim60/fried eggs.jpg', 'key': 'i', 'origWidth': 410, 'origHeight': 410, 'width': 410, 'height': 410, 'widthPercent': 0.45, 'rescaleHeight': False, 'trialN': 35, 'loaded': True, 'loadedTime': 2316.300000190735, 'positionName': 'RIGHT', 'positionCoords': [998.4, 335], 'bid': 1.9}]",60142.0,1669830201752,yogurt no spoon,fried eggs,2.32,1.9,-0.41999999999999993,yogurt no spoon,1030.2000000476837,1031,1030.7000000476837,True,u,61691.60000014305,1549.6000001430511,1669830203302,1550,HRV,HRV_0067,2022-11-30 17:46:45
36,"[{'imgObject': {}, 'id': 'hotdog w must', 'src': '/static/foodstim60/hotdog w must.jpg', 'key': 'u', 'origWidth': 409, 'origHeight': 409, 'width': 409, 'height': 409, 'widthPercent': 0.45, 'rescaleHeight': False, 'trialN': 36, 'loaded': True, 'loadedTime': 2235.800000190735, 'positionName': 'LEFT', 'positionCoords': [512.6, 335.5], 'bid': 5.6000000000000005}, {'imgObject': {}, 'id': 'sushi w_condiments', 'src': '/static/foodstim60/sushi w_condiments.jpg', 'key': 'i', 'origWidth': 410, 'origHeight': 410, 'width': 410, 'height': 410, 'widthPercent': 0.45, 'rescaleHeight': False, 'trialN': 36, 'loaded': True, 'loadedTime': 2309.100000143051, 'positionName': 'RIGHT', 'positionCoords': [998.4, 335], 'bid': 6.26}]",61691.700000047684,1669830203302,hotdog w must,sushi w_condiments,5.6000000000000005,6.26,0.6599999999999993,sushi w_condiments,1841.5,1842,1842.0,True,i,64061.5,2369.7999999523163,1669830205672,2370,HRV,HRV_0067,2022-11-30 17:46:45
37,"[{'imgObject': {}, 'id': 'seaweed', 'src': '/static/foodstim60/seaweed.jpg', 'key': 'u', 'origWidth': 410, 'origHeight': 410, 'width': 410, 'height': 410, 'widthPercent': 0.45, 'rescaleHeight': False, 'trialN': 37, 'loaded': True, 'loadedTime': 2235, 'positionName': 'LEFT', 'positionCoords': [511.6, 335], 'bid': 0.81}, {'imgObject': {}, 'id': 'banana', 'src': '/static/foodstim60/banana.jpg', 'key': 'i', 'origWidth': 410, 'origHeight': 410, 'width': 410, 'height': 410, 'widthPercent': 0.45, 'rescaleHeight': False, 'trialN': 37, 'loaded': True, 'loadedTime': 2309.800000190735, 'positionName': 'RIGHT', 'positionCoords': [998.4, 335], 'bid': 2.1}]",64061.700000047684,1669830205672,seaweed,banana,0.81,2.1,1.29,banana,811.1000001430511,811,811.5,True,i,65392.40000009537,1330.7000000476837,1669830207002,1330,HRV,HRV_0067,2022-11-30 17:46:45
38,"[{'imgObject': {}, 'id': 'rigatoni and sauce', 'src': '/static/foodstim60/rigatoni and sauce.jpg', 'key': 'u', 'origWidth': 410, 'origHeight': 411, 'width': 410, 'height': 411, 'widthPercent': 0.45, 'rescaleHeight': False, 'trialN': 38, 'loaded': True, 'loadedTime': 2317.800000190735, 'positionName': 'LEFT', 'positionCoords': [511.6, 334.5], 'bid': 1.76}, {'imgObject': {}, 'id': 'lox', 'src': '/static/foodstim60/lox.jpg', 'key': 'i', 'origWidth': 410, 'origHeight': 411, 'width': 410, 'height': 411, 'widthPercent': 0.45, 'rescaleHeight': False, 'trialN': 38, 'loaded': True, 'loadedTime': 2195, 'positionName': 'RIGHT', 'positionCoords': [998.4, 334.5], 'bid': 1.15}]",65392.60000014305,1669830207003,rigatoni and sauce,lox,1.76,1.15,-0.6100000000000001,rigatoni and sauce,1282.0,1282,1282.2999999523163,True,u,67186.70000004768,1794.0999999046326,1669830208797,1794,HRV,HRV_0067,2022-11-30 17:46:45
39,"[{'imgObject': {}, 'id': 'Tribe humus pita', 'src': '/static/foodstim60/Tribe humus pita.jpg', 'key': 'u', 'origWidth': 411, 'origHeight': 411, 'width': 411, 'height': 411, 'widthPercent': 0.45, 'rescaleHeight': False, 'trialN': 39, 'loaded': True, 'loadedTime': 2254.4000000953674, 'positionName': 'LEFT', 'positionCoords': [510.6, 334.5], 'bid': 1.57}, {'imgObject': {}, 'id': 'blueberries', 'src': '/static/foodstim60/blueberries.jpg', 'key': 'i', 'origWidth': 411, 'origHeight': 411, 'width': 411, 'height': 411, 'widthPercent': 0.45, 'rescaleHeight': False, 'trialN': 39, 'loaded': True, 'loadedTime': 2200.600000143051, 'positionName': 'RIGHT', 'positionCoords': [998.4, 334.5], 'bid': 2.28}]",67187.0,1669830208797,Tribe humus pita,blueberries,1.57,2.28,0.7099999999999997,blueberries,1631.1000001430511,1632,1631.6000001430511,True,i,69321.90000009537,2134.9000000953674,1669830210932,2135,HRV,HRV_0067,2022-11-30 17:46:45
40,"[{'imgObject': {}, 'id': 'turkey sandwich', 'src': '/static/foodstim60/turkey sandwich.jpg', 'key': 'u', 'origWidth': 409, 'origHeight': 409, 'width': 409, 'height': 409, 'widthPercent': 0.45, 'rescaleHeight': False, 'trialN': 40, 'loaded': True, 'loadedTime': 2183.9000000953674, 'positionName': 'LEFT', 'positionCoords': [512.6, 335.5], 'bid': 6.67}, {'imgObject': {}, 'id': 'fruitsalad', 'src': '/static/foodstim60/fruitsalad.jpg', 'key': 'i', 'origWidth': 410, 'origHeight': 410, 'width': 410, 'height': 410, 'widthPercent': 0.45, 'rescaleHeight': False, 'trialN': 40, 'loaded': True, 'loadedTime': 2220.600000143051, 'positionName': 'RIGHT', 'positionCoords': [998.4, 335], 'bid': 6.73}]",69322.20000004768,1669830210932,turkey sandwich,fruitsalad,6.67,6.73,0.0600000000000005,turkey sandwich,1942.9000000953674,1944,1943.2999999523163,True,u,71781.70000004768,2459.5,1669830213392,2460,HRV,HRV_0067,2022-11-30 17:46:45
41,"[{'imgObject': {}, 'id': 'sushi w_condiments', 'src': '/static/foodstim60/sushi w_condiments.jpg', 'key': 'u', 'origWidth': 410, 'origHeight': 410, 'width': 410, 'height': 410, 'widthPercent': 0.45, 'rescaleHeight': False, 'trialN': 41, 'loaded': True, 'loadedTime': 2308.7000000476837, 'positionName': 'LEFT', 'positionCoords': [511.6, 335], 'bid': 6.26}, {'imgObject': {}, 'id': 'baked potato', 'src': '/static/foodstim60/baked potato.jpg', 'key': 'i', 'origWidth': 409, 'origHeight': 410, 'width': 409, 'height': 410, 'widthPercent': 0.45, 'rescaleHeight': False, 'trialN': 41, 'loaded': True, 'loadedTime': 2194.100000143051, 'positionName': 'RIGHT', 'positionCoords': [998.4, 335], 'bid': 4.75}]",71782.0,1669830213392,sushi w_condiments,baked potato,6.26,4.75,-1.5099999999999998,sushi w_condiments,1033.7000000476837,1034,1033.9000000953674,True,u,73329.30000019073,1547.3000001907349,1669830214939,1547,HRV,HRV_0067,2022-11-30 17:46:45
42,"[{'imgObject': {}, 'id': 'tacos', 'src': '/static/foodstim60/tacos.jpg', 'key': 'u', 'origWidth': 411, 'origHeight': 411, 'width': 411, 'height': 411, 'widthPercent': 0.45, 'rescaleHeight': False, 'trialN': 42, 'loaded': True, 'loadedTime': 2297.100000143051, 'positionName': 'LEFT', 'positionCoords': [510.6, 334.5], 'bid': 7.95}, {'imgObject': {}, 'id': 'cocktailshrimp', 'src': '/static/foodstim60/cocktailshrimp.jpg', 'key': 'i', 'origWidth': 410, 'origHeight': 410, 'width': 410, 'height': 410, 'widthPercent': 0.45, 'rescaleHeight': False, 'trialN': 42, 'loaded': True, 'loadedTime': 2323, 'positionName': 'RIGHT', 'positionCoords': [998.4, 335], 'bid': 7.28}]",73329.5,1669830214940,tacos,cocktailshrimp,7.95,7.28,-0.6699999999999999,tacos,1176.0,1176,1176.2000000476837,True,u,75011.30000019073,1681.8000001907349,1669830216621,1681,HRV,HRV_0067,2022-11-30 17:46:45
43,"[{'imgObject': {}, 'id': 'granola w milk', 'src': '/static/foodstim60/granola w milk.jpg', 'key': 'u', 'origWidth': 410, 'origHeight': 410, 'width': 410, 'height': 410, 'widthPercent': 0.45, 'rescaleHeight': False, 'trialN': 43, 'loaded': True, 'loadedTime': 2205.100000143051, 'positionName': 'LEFT', 'positionCoords': [511.6, 335], 'bid': 1.56}, {'imgObject': {}, 'id': 'Tribe humus pita', 'src': '/static/foodstim60/Tribe humus pita.jpg', 'key': 'i', 'origWidth': 411, 'origHeight': 411, 'width': 411, 'height': 411, 'widthPercent': 0.45, 'rescaleHeight': False, 'trialN': 43, 'loaded': True, 'loadedTime': 2250.300000190735, 'positionName': 'RIGHT', 'positionCoords': [998.4, 334.5], 'bid': 1.57}]",75011.5,1669830216622,granola w milk,Tribe humus pita,1.56,1.57,0.010000000000000009,granola w milk,1523.2000000476837,1523,1523.7000000476837,True,u,77051.40000009537,2039.9000000953674,1669830218661,2039,HRV,HRV_0067,2022-11-30 17:46:45
44,"[{'imgObject': {}, 'id': 'cherries', 'src': '/static/foodstim60/cherries.jpg', 'key': 'u', 'origWidth': 410, 'origHeight': 411, 'width': 410, 'height': 411, 'widthPercent': 0.45, 'rescaleHeight': False, 'trialN': 44, 'loaded': True, 'loadedTime': 2325.300000190735, 'positionName': 'LEFT', 'positionCoords': [511.6, 334.5], 'bid': 6.54}, {'imgObject': {}, 'id': 'kiwi', 'src': '/static/foodstim60/kiwi.jpg', 'key': 'i', 'origWidth': 410, 'origHeight': 410, 'width': 410, 'height': 410, 'widthPercent': 0.45, 'rescaleHeight': False, 'trialN': 44, 'loaded': True, 'loadedTime': 2269.300000190735, 'positionName': 'RIGHT', 'positionCoords': [998.4, 335], 'bid': 6.45}]",77051.5,1669830218662,cherries,kiwi,6.54,6.45,-0.08999999999999986,kiwi,2183.600000143051,2184,2184.100000143051,True,i,79751.70000004768,2700.2000000476837,1669830221362,2700,HRV,HRV_0067,2022-11-30 17:46:45
45,"[{'imgObject': {}, 'id': 'mac & cheese', 'src': '/static/foodstim60/mac & cheese.jpg', 'key': 'u', 'origWidth': 410, 'origHeight': 410, 'width': 410, 'height': 410, 'widthPercent': 0.45, 'rescaleHeight': False, 'trialN': 45, 'loaded': True, 'loadedTime': 2184, 'positionName': 'LEFT', 'positionCoords': [511.6, 335], 'bid': 7.66}, {'imgObject': {}, 'id': 'roastedpotatoes', 'src': '/static/foodstim60/roastedpotatoes.jpg', 'key': 'i', 'origWidth': 409, 'origHeight': 410, 'width': 409, 'height': 410, 'widthPercent': 0.45, 'rescaleHeight': False, 'trialN': 45, 'loaded': True, 'loadedTime': 2288.9000000953674, 'positionName': 'RIGHT', 'positionCoords': [998.4, 335], 'bid': 7.42}]",79751.80000019073,1669830221362,mac & cheese,roastedpotatoes,7.66,7.42,-0.2400000000000002,mac & cheese,1849.0,1849,1849.2999999523163,True,u,82111.20000004768,2359.399999856949,1669830223721,2359,HRV,HRV_0067,2022-11-30 17:46:45
46,"[{'imgObject': {}, 'id': 'hashbrowns', 'src': '/static/foodstim60/hashbrowns.jpg', 'key': 'u', 'origWidth': 411, 'origHeight': 410, 'width': 411, 'height': 410, 'widthPercent': 0.45, 'rescaleHeight': False, 'trialN': 46, 'loaded': True, 'loadedTime': 2248.9000000953674, 'positionName': 'LEFT', 'positionCoords': [510.6, 335], 'bid': 4.11}, {'imgObject': {}, 'id': 'mashed potato', 'src': '/static/foodstim60/mashed potato.jpg', 'key': 'i', 'origWidth': 409, 'origHeight': 409, 'width': 409, 'height': 409, 'widthPercent': 0.45, 'rescaleHeight': False, 'trialN': 46, 'loaded': True, 'loadedTime': 2188.4000000953674, 'positionName': 'RIGHT', 'positionCoords': [998.4, 335.5], 'bid': 2.72}]",82111.40000009537,1669830223721,hashbrowns,mashed potato,4.11,2.72,-1.3900000000000001,mashed potato,1999.2000000476837,2000,1999.4000000953674,True,i,84631.40000009537,2520.0,1669830226241,2520,HRV,HRV_0067,2022-11-30 17:46:45
47,"[{'imgObject': {}, 'id': 'steak', 'src': '/static/foodstim60/steak.jpg', 'key': 'u', 'origWidth': 410, 'origHeight': 410, 'width': 410, 'height': 410, 'widthPercent': 0.45, 'rescaleHeight': False, 'trialN': 47, 'loaded': True, 'loadedTime': 2276.4000000953674, 'positionName': 'LEFT', 'positionCoords': [511.6, 335], 'bid': 7.33}, {'imgObject': {}, 'id': 'cocktailshrimp', 'src': '/static/foodstim60/cocktailshrimp.jpg', 'key': 'i', 'origWidth': 410, 'origHeight': 410, 'width': 410, 'height': 410, 'widthPercent': 0.45, 'rescaleHeight': False, 'trialN': 47, 'loaded': True, 'loadedTime': 2324.2000000476837, 'positionName': 'RIGHT', 'positionCoords': [998.4, 335], 'bid': 7.28}]",84631.60000014305,1669830226242,steak,cocktailshrimp,7.33,7.28,-0.04999999999999982,steak,1079.7999999523163,1080,1080.0999999046326,True,u,86221.5,1589.8999998569489,1669830227832,1590,HRV,HRV_0067,2022-11-30 17:46:45
48,"[{'imgObject': {}, 'id': 'bagel and cc', 'src': '/static/foodstim60/bagel and cc.jpg', 'key': 'u', 'origWidth': 410, 'origHeight': 410, 'width': 410, 'height': 410, 'widthPercent': 0.45, 'rescaleHeight': False, 'trialN': 48, 'loaded': True, 'loadedTime': 2192.800000190735, 'positionName': 'LEFT', 'positionCoords': [511.6, 335], 'bid': 3.14}, {'imgObject': {}, 'id': 'mango', 'src': '/static/foodstim60/mango.jpg', 'key': 'i', 'origWidth': 411, 'origHeight': 411, 'width': 411, 'height': 411, 'widthPercent': 0.45, 'rescaleHeight': False, 'trialN': 48, 'loaded': True, 'loadedTime': 2204, 'positionName': 'RIGHT', 'positionCoords': [998.4, 334.5], 'bid': 4.8500000000000005}]",86221.80000019073,1669830227832,bagel and cc,mango,3.14,4.8500000000000005,1.7100000000000004,mango,1055.0,1055,1055.2999999523163,True,i,87801.60000014305,1579.7999999523163,1669830229412,1580,HRV,HRV_0067,2022-11-30 17:46:45
49,"[{'imgObject': {}, 'id': 'roastedpotatoes', 'src': '/static/foodstim60/roastedpotatoes.jpg', 'key': 'u', 'origWidth': 409, 'origHeight': 410, 'width': 409, 'height': 410, 'widthPercent': 0.45, 'rescaleHeight': False, 'trialN': 49, 'loaded': True, 'loadedTime': 2290.300000190735, 'positionName': 'LEFT', 'positionCoords': [512.6, 335], 'bid': 7.42}, {'imgObject': {}, 'id': 'burrito', 'src': '/static/foodstim60/burrito.jpg', 'key': 'i', 'origWidth': 410, 'origHeight': 410, 'width': 410, 'height': 410, 'widthPercent': 0.45, 'rescaleHeight': False, 'trialN': 49, 'loaded': True, 'loadedTime': 2326.2000000476837, 'positionName': 'RIGHT', 'positionCoords': [998.4, 335], 'bid': 5.93}]",87801.80000019073,1669830229412,roastedpotatoes,burrito,7.42,5.93,-1.4900000000000002,burrito,1220.0999999046326,1220,1220.2999999523163,True,i,89541.70000004768,1739.8999998569489,1669830231152,1740,HRV,HRV_0067,2022-11-30 17:46:45
50,"[{'imgObject': {}, 'id': 'Grapes', 'src': '/static/foodstim60/Grapes.jpg', 'key': 'u', 'origWidth': 411, 'origHeight': 411, 'width': 411, 'height': 411, 'widthPercent': 0.45, 'rescaleHeight': False, 'trialN': 50, 'loaded': True, 'loadedTime': 2163.9000000953674, 'positionName': 'LEFT', 'positionCoords': [510.6, 334.5], 'bid': 5.42}, {'imgObject': {}, 'id': 'blackbeanswithrice', 'src': '/static/foodstim60/blackbeanswithrice.jpg', 'key': 'i', 'origWidth': 410, 'origHeight': 410, 'width': 410, 'height': 410, 'widthPercent': 0.45, 'rescaleHeight': False, 'trialN': 50, 'loaded': True, 'loadedTime': 2330.800000190735, 'positionName': 'RIGHT', 'positionCoords': [998.4, 335], 'bid': 3.34}]",89542.0,1669830231152,Grapes,blackbeanswithrice,5.42,3.34,-2.08,Grapes,1146.5,1147,1146.8000001907349,True,u,91201.40000009537,1659.4000000953674,1669830232812,1660,HRV,HRV_0067,2022-11-30 17:46:45
51,"[{'imgObject': {}, 'id': 'rigatoni and sauce', 'src': '/static/foodstim60/rigatoni and sauce.jpg', 'key': 'u', 'origWidth': 410, 'origHeight': 411, 'width': 410, 'height': 411, 'widthPercent': 0.45, 'rescaleHeight': False, 'trialN': 51, 'loaded': True, 'loadedTime': 2318.800000190735, 'positionName': 'LEFT', 'positionCoords': [511.6, 334.5], 'bid': 1.76}, {'imgObject': {}, 'id': 'shreddedwheatwithmilk', 'src': '/static/foodstim60/shreddedwheatwithmilk.jpg', 'key': 'i', 'origWidth': 410, 'origHeight': 410, 'width': 410, 'height': 410, 'widthPercent': 0.45, 'rescaleHeight': False, 'trialN': 51, 'loaded': True, 'loadedTime': 2331.600000143051, 'positionName': 'RIGHT', 'positionCoords': [998.4, 335], 'bid': 1.72}]",91201.80000019073,1669830232812,rigatoni and sauce,shreddedwheatwithmilk,1.76,1.72,-0.040000000000000036,rigatoni and sauce,1322.2999999523163,1323,1322.6999998092651,True,u,93031.60000014305,1829.7999999523163,1669830234642,1830,HRV,HRV_0067,2022-11-30 17:46:45
52,"[{'imgObject': {}, 'id': 'cheerios', 'src': '/static/foodstim60/cheerios.jpg', 'key': 'u', 'origWidth': 409, 'origHeight': 410, 'width': 409, 'height': 410, 'widthPercent': 0.45, 'rescaleHeight': False, 'trialN': 52, 'loaded': True, 'loadedTime': 2332.300000190735, 'positionName': 'LEFT', 'positionCoords': [512.6, 335], 'bid': 1.47}, {'imgObject': {}, 'id': 'baked potato', 'src': '/static/foodstim60/baked potato.jpg', 'key': 'i', 'origWidth': 409, 'origHeight': 410, 'width': 409, 'height': 410, 'widthPercent': 0.45, 'rescaleHeight': False, 'trialN': 52, 'loaded': True, 'loadedTime': 2193.800000190735, 'positionName': 'RIGHT', 'positionCoords': [998.4, 335], 'bid': 4.75}]",93031.80000019073,1669830234642,cheerios,baked potato,1.47,4.75,3.2800000000000002,cheerios,919.1999998092651,920,919.3999998569489,True,u,94471.40000009537,1439.5999999046326,1669830236082,1440,HRV,HRV_0067,2022-11-30 17:46:45
53,"[{'imgObject': {}, 'id': 'apple slices', 'src': '/static/foodstim60/apple slices.jpg', 'key': 'u', 'origWidth': 409, 'origHeight': 410, 'width': 409, 'height': 410, 'widthPercent': 0.45, 'rescaleHeight': False, 'trialN': 53, 'loaded': True, 'loadedTime': 2337.100000143051, 'positionName': 'LEFT', 'positionCoords': [512.6, 335], 'bid': 3.51}, {'imgObject': {}, 'id': 'strawberries', 'src': '/static/foodstim60/strawberries.jpg', 'key': 'i', 'origWidth': 410, 'origHeight': 410, 'width': 410, 'height': 410, 'widthPercent': 0.45, 'rescaleHeight': False, 'trialN': 53, 'loaded': True, 'loadedTime': 2179.4000000953674, 'positionName': 'RIGHT', 'positionCoords': [998.4, 335], 'bid': 5.54}]",94471.60000014305,1669830236082,apple slices,strawberries,3.51,5.54,2.0300000000000002,strawberries,1206.0,1206,1206.2000000476837,True,i,96201.40000009537,1729.7999999523163,1669830237812,1730,HRV,HRV_0067,2022-11-30 17:46:45
54,"[{'imgObject': {}, 'id': 'luckycharms', 'src': '/static/foodstim60/luckycharms.jpg', 'key': 'u', 'origWidth': 410, 'origHeight': 409, 'width': 410, 'height': 409, 'widthPercent': 0.45, 'rescaleHeight': False, 'trialN': 54, 'loaded': True, 'loadedTime': 2225.9000000953674, 'positionName': 'LEFT', 'positionCoords': [511.6, 335.5], 'bid': 1.11}, {'imgObject': {}, 'id': 'hashbrowns', 'src': '/static/foodstim60/hashbrowns.jpg', 'key': 'i', 'origWidth': 411, 'origHeight': 410, 'width': 411, 'height': 410, 'widthPercent': 0.45, 'rescaleHeight': False, 'trialN': 54, 'loaded': True, 'loadedTime': 2248.9000000953674, 'positionName': 'RIGHT', 'positionCoords': [998.4, 335], 'bid': 4.11}]",96201.60000014305,1669830237812,luckycharms,hashbrowns,1.11,4.11,3.0,luckycharms,742.0999999046326,742,742.5,True,u,97451.40000009537,1249.7999999523163,1669830239062,1250,HRV,HRV_0067,2022-11-30 17:46:45
55,"[{'imgObject': {}, 'id': 'avocado', 'src': '/static/foodstim60/avocado.jpg', 'key': 'u', 'origWidth': 409, 'origHeight': 409, 'width': 409, 'height': 409, 'widthPercent': 0.45, 'rescaleHeight': False, 'trialN': 55, 'loaded': True, 'loadedTime': 2219.4000000953674, 'positionName': 'LEFT', 'positionCoords': [512.6, 335.5], 'bid': 7.0200000000000005}, {'imgObject': {}, 'id': 'turkey sandwich', 'src': '/static/foodstim60/turkey sandwich.jpg', 'key': 'i', 'origWidth': 409, 'origHeight': 409, 'width': 409, 'height': 409, 'widthPercent': 0.45, 'rescaleHeight': False, 'trialN': 55, 'loaded': True, 'loadedTime': 2183.600000143051, 'positionName': 'RIGHT', 'positionCoords': [998.4, 335.5], 'bid': 6.67}]",97451.60000014305,1669830239062,avocado,turkey sandwich,7.0200000000000005,6.67,-0.35000000000000053,turkey sandwich,578.0999999046326,578,578.5,True,i,98551.5,1099.8999998569489,1669830240162,1100,HRV,HRV_0067,2022-11-30 17:46:45
56,"[{'imgObject': {}, 'id': 'rigatoni and sauce', 'src': '/static/foodstim60/rigatoni and sauce.jpg', 'key': 'u', 'origWidth': 410, 'origHeight': 411, 'width': 410, 'height': 411, 'widthPercent': 0.45, 'rescaleHeight': False, 'trialN': 56, 'loaded': True, 'loadedTime': 2319.100000143051, 'positionName': 'LEFT', 'positionCoords': [511.6, 334.5], 'bid': 1.76}, {'imgObject': {}, 'id': 'raspberries', 'src': '/static/foodstim60/raspberries.jpg', 'key': 'i', 'origWidth': 411, 'origHeight': 411, 'width': 411, 'height': 411, 'widthPercent': 0.45, 'rescaleHeight': False, 'trialN': 56, 'loaded': True, 'loadedTime': 2175.4000000953674, 'positionName': 'RIGHT', 'positionCoords': [998.4, 334.5], 'bid': 3.08}]",98551.70000004768,1669830240162,rigatoni and sauce,raspberries,1.76,3.08,1.32,rigatoni and sauce,1548.7999999523163,1549,1548.9000000953674,True,u,100611.40000009537,2059.7000000476837,1669830242222,2060,HRV,HRV_0067,2022-11-30 17:46:45
57,"[{'imgObject': {}, 'id': 'fruitsalad', 'src': '/static/foodstim60/fruitsalad.jpg', 'key': 'u', 'origWidth': 410, 'origHeight': 410, 'width': 410, 'height': 410, 'widthPercent': 0.45, 'rescaleHeight': False, 'trialN': 57, 'loaded': True, 'loadedTime': 2220.600000143051, 'positionName': 'LEFT', 'positionCoords': [511.6, 335], 'bid': 6.73}, {'imgObject': {}, 'id': 'chickenfingers', 'src': '/static/foodstim60/chickenfingers.jpg', 'key': 'i', 'origWidth': 410, 'origHeight': 410, 'width': 410, 'height': 410, 'widthPercent': 0.45, 'rescaleHeight': False, 'trialN': 57, 'loaded': True, 'loadedTime': 2337.9000000953674, 'positionName': 'RIGHT', 'positionCoords': [998.4, 335], 'bid': 8.09}]",100611.60000014305,1669830242222,fruitsalad,chickenfingers,6.73,8.09,1.3599999999999994,chickenfingers,907.5999999046326,908,908.0,True,i,102041.60000014305,1430.0,1669830243652,1430,HRV,HRV_0067,2022-11-30 17:46:45
58,"[{'imgObject': {}, 'id': 'omelette', 'src': '/static/foodstim60/omelette.jpg', 'key': 'u', 'origWidth': 410, 'origHeight': 409, 'width': 410, 'height': 409, 'widthPercent': 0.45, 'rescaleHeight': False, 'trialN': 58, 'loaded': True, 'loadedTime': 2186.300000190735, 'positionName': 'LEFT', 'positionCoords': [511.6, 335.5], 'bid': 3.93}, {'imgObject': {}, 'id': 'eggs', 'src': '/static/foodstim60/eggs.jpg', 'key': 'i', 'origWidth': 409, 'origHeight': 409, 'width': 409, 'height': 409, 'widthPercent': 0.45, 'rescaleHeight': False, 'trialN': 58, 'loaded': True, 'loadedTime': 2338, 'positionName': 'RIGHT', 'positionCoords': [998.4, 335.5], 'bid': 2.9}]",102041.80000019073,1669830243652,omelette,eggs,3.93,2.9,-1.0300000000000002,omelette,977.2999999523163,978,977.7999999523163,True,u,103521.70000004768,1479.8999998569489,1669830245132,1480,HRV,HRV_0067,2022-11-30 17:46:45
59,"[{'imgObject': {}, 'id': 'blueberries', 'src': '/static/foodstim60/blueberries.jpg', 'key': 'u', 'origWidth': 411, 'origHeight': 411, 'width': 411, 'height': 411, 'widthPercent': 0.45, 'rescaleHeight': False, 'trialN': 59, 'loaded': True, 'loadedTime': 2200.7000000476837, 'positionName': 'LEFT', 'positionCoords': [510.6, 334.5], 'bid': 2.28}, {'imgObject': {}, 'id': 'fruitsalad', 'src': '/static/foodstim60/fruitsalad.jpg', 'key': 'i', 'origWidth': 410, 'origHeight': 410, 'width': 410, 'height': 410, 'widthPercent': 0.45, 'rescaleHeight': False, 'trialN': 59, 'loaded': True, 'loadedTime': 2224.5, 'positionName': 'RIGHT', 'positionCoords': [998.4, 335], 'bid': 6.73}]",103522.0,1669830245132,blueberries,fruitsalad,2.28,6.73,4.450000000000001,fruitsalad,843.1000001430511,844,843.7000000476837,True,i,104881.30000019073,1359.3000001907349,1669830246492,1360,HRV,HRV_0067,2022-11-30 17:46:45
60,"[{'imgObject': {}, 'id': 'fruitsalad', 'src': '/static/foodstim60/fruitsalad.jpg', 'key': 'u', 'origWidth': 410, 'origHeight': 410, 'width': 410, 'height': 410, 'widthPercent': 0.45, 'rescaleHeight': False, 'trialN': 60, 'loaded': True, 'loadedTime': 2220.4000000953674, 'positionName': 'LEFT', 'positionCoords': [511.6, 335], 'bid': 6.73}, {'imgObject': {}, 'id': 'turkeysandwich', 'src': '/static/foodstim60/turkeysandwich.jpg', 'key': 'i', 'origWidth': 409, 'origHeight': 409, 'width': 409, 'height': 409, 'widthPercent': 0.45, 'rescaleHeight': False, 'trialN': 60, 'loaded': True, 'loadedTime': 2342.9000000953674, 'positionName': 'RIGHT', 'positionCoords': [998.4, 335.5], 'bid': 7.41}]",104881.5,1669830246492,fruitsalad,turkeysandwich,6.73,7.41,0.6799999999999997,turkeysandwich,875.1000001430511,875,875.4000000953674,True,i,106281.40000009537,1399.9000000953674,1669830247892,1400,HRV,HRV_0067,2022-11-30 17:46:45
61,"[{'imgObject': {}, 'id': 'turkey sandwich', 'src': '/static/foodstim60/turkey sandwich.jpg', 'key': 'u', 'origWidth': 409, 'origHeight': 409, 'width': 409, 'height': 409, 'widthPercent': 0.45, 'rescaleHeight': False, 'trialN': 61, 'loaded': True, 'loadedTime': 2183.800000190735, 'positionName': 'LEFT', 'positionCoords': [512.6, 335.5], 'bid': 6.67}, {'imgObject': {}, 'id': 'tacos', 'src': '/static/foodstim60/tacos.jpg', 'key': 'i', 'origWidth': 411, 'origHeight': 411, 'width': 411, 'height': 411, 'widthPercent': 0.45, 'rescaleHeight': False, 'trialN': 61, 'loaded': True, 'loadedTime': 2295.800000190735, 'positionName': 'RIGHT', 'positionCoords': [998.4, 334.5], 'bid': 7.95}]",106281.5,1669830247892,turkey sandwich,tacos,6.67,7.95,1.2800000000000002,tacos,1460.8000001907349,1461,1461.0,True,i,108251.40000009537,1969.9000000953674,1669830249862,1970,HRV,HRV_0067,2022-11-30 17:46:45
62,"[{'imgObject': {}, 'id': 'avocado', 'src': '/static/foodstim60/avocado.jpg', 'key': 'u', 'origWidth': 409, 'origHeight': 409, 'width': 409, 'height': 409, 'widthPercent': 0.45, 'rescaleHeight': False, 'trialN': 62, 'loaded': True, 'loadedTime': 2214.5, 'positionName': 'LEFT', 'positionCoords': [512.6, 335.5], 'bid': 7.0200000000000005}, {'imgObject': {}, 'id': 'roastedpotatoes', 'src': '/static/foodstim60/roastedpotatoes.jpg', 'key': 'i', 'origWidth': 409, 'origHeight': 410, 'width': 409, 'height': 410, 'widthPercent': 0.45, 'rescaleHeight': False, 'trialN': 62, 'loaded': True, 'loadedTime': 2289.800000190735, 'positionName': 'RIGHT', 'positionCoords': [998.4, 335], 'bid': 7.42}]",108251.80000019073,1669830249862,avocado,roastedpotatoes,7.0200000000000005,7.42,0.39999999999999947,roastedpotatoes,1272.7999999523163,1273,1273.2999999523163,True,i,110051.60000014305,1799.7999999523163,1669830251662,1800,HRV,HRV_0067,2022-11-30 17:46:45
63,"[{'imgObject': {}, 'id': 'burger', 'src': '/static/foodstim60/burger.jpg', 'key': 'u', 'origWidth': 409, 'origHeight': 409, 'width': 409, 'height': 409, 'widthPercent': 0.45, 'rescaleHeight': False, 'trialN': 63, 'loaded': True, 'loadedTime': 2199.7000000476837, 'positionName': 'LEFT', 'positionCoords': [512.6, 335.5], 'bid': 1.12}, {'imgObject': {}, 'id': 'shreddedwheatwithmilk', 'src': '/static/foodstim60/shreddedwheatwithmilk.jpg', 'key': 'i', 'origWidth': 410, 'origHeight': 410, 'width': 410, 'height': 410, 'widthPercent': 0.45, 'rescaleHeight': False, 'trialN': 63, 'loaded': True, 'loadedTime': 2331.100000143051, 'positionName': 'RIGHT', 'positionCoords': [998.4, 335], 'bid': 1.72}]",110051.90000009537,1669830251662,burger,shreddedwheatwithmilk,1.12,1.72,0.5999999999999999,shreddedwheatwithmilk,1158.9000000953674,1160,1159.4000000953674,True,i,111721.60000014305,1669.7000000476837,1669830253332,1670,HRV,HRV_0067,2022-11-30 17:46:45
64,"[{'imgObject': {}, 'id': 'pear', 'src': '/static/foodstim60/pear.jpg', 'key': 'u', 'origWidth': 411, 'origHeight': 410, 'width': 411, 'height': 410, 'widthPercent': 0.45, 'rescaleHeight': False, 'trialN': 64, 'loaded': True, 'loadedTime': 2189.300000190735, 'positionName': 'LEFT', 'positionCoords': [510.6, 335], 'bid': 2.54}, {'imgObject': {}, 'id': 'yogurt no spoon', 'src': '/static/foodstim60/yogurt no spoon.jpg', 'key': 'i', 'origWidth': 411, 'origHeight': 410, 'width': 411, 'height': 410, 'widthPercent': 0.45, 'rescaleHeight': False, 'trialN': 64, 'loaded': True, 'loadedTime': 2311.5, 'positionName': 'RIGHT', 'positionCoords': [998.4, 335], 'bid': 2.32}]",111721.60000014305,1669830253332,pear,yogurt no spoon,2.54,2.32,-0.2200000000000002,yogurt no spoon,1081.5,1082,1081.8999998569489,True,i,113321.70000004768,1600.0999999046326,1669830254932,1600,HRV,HRV_0067,2022-11-30 17:46:45
65,"[{'imgObject': {}, 'id': 'avocado', 'src': '/static/foodstim60/avocado.jpg', 'key': 'u', 'origWidth': 409, 'origHeight': 409, 'width': 409, 'height': 409, 'widthPercent': 0.45, 'rescaleHeight': False, 'trialN': 65, 'loaded': True, 'loadedTime': 2214.2000000476837, 'positionName': 'LEFT', 'positionCoords': [512.6, 335.5], 'bid': 7.0200000000000005}, {'imgObject': {}, 'id': 'yogurt no spoon', 'src': '/static/foodstim60/yogurt no spoon.jpg', 'key': 'i', 'origWidth': 411, 'origHeight': 410, 'width': 411, 'height': 410, 'widthPercent': 0.45, 'rescaleHeight': False, 'trialN': 65, 'loaded': True, 'loadedTime': 2311.600000143051, 'positionName': 'RIGHT', 'positionCoords': [998.4, 335], 'bid': 2.32}]",113322.0,1669830254932,avocado,yogurt no spoon,7.0200000000000005,2.32,-4.700000000000001,avocado,950.7000000476837,951,951.1000001430511,True,u,114791.20000004768,1469.2000000476837,1669830256402,1470,HRV,HRV_0067,2022-11-30 17:46:45
66,"[{'imgObject': {}, 'id': 'luckycharms', 'src': '/static/foodstim60/luckycharms.jpg', 'key': 'u', 'origWidth': 410, 'origHeight': 409, 'width': 410, 'height': 409, 'widthPercent': 0.45, 'rescaleHeight': False, 'trialN': 66, 'loaded': True, 'loadedTime': 2225.9000000953674, 'positionName': 'LEFT', 'positionCoords': [511.6, 335.5], 'bid': 1.11}, {'imgObject': {}, 'id': 'cherry tomato', 'src': '/static/foodstim60/cherry tomato.jpg', 'key': 'i', 'origWidth': 410, 'origHeight': 410, 'width': 410, 'height': 410, 'widthPercent': 0.45, 'rescaleHeight': False, 'trialN': 66, 'loaded': True, 'loadedTime': 2187.4000000953674, 'positionName': 'RIGHT', 'positionCoords': [998.4, 335], 'bid': 0.71}]",114791.40000009537,1669830256402,luckycharms,cherry tomato,1.11,0.71,-0.40000000000000013,cherry tomato,1093.7000000476837,1094,1094.0999999046326,True,i,116394.90000009537,1603.5,1669830258005,1603,HRV,HRV_0067,2022-11-30 17:46:45
67,"[{'imgObject': {}, 'id': 'raspberries', 'src': '/static/foodstim60/raspberries.jpg', 'key': 'u', 'origWidth': 411, 'origHeight': 411, 'width': 411, 'height': 411, 'widthPercent': 0.45, 'rescaleHeight': False, 'trialN': 67, 'loaded': True, 'loadedTime': 2175.2000000476837, 'positionName': 'LEFT', 'positionCoords': [510.6, 334.5], 'bid': 3.08}, {'imgObject': {}, 'id': 'roastedpotatoes', 'src': '/static/foodstim60/roastedpotatoes.jpg', 'key': 'i', 'origWidth': 409, 'origHeight': 410, 'width': 409, 'height': 410, 'widthPercent': 0.45, 'rescaleHeight': False, 'trialN': 67, 'loaded': True, 'loadedTime': 2289.9000000953674, 'positionName': 'RIGHT', 'positionCoords': [998.4, 335], 'bid': 7.42}]",116395.10000014305,1669830258005,raspberries,roastedpotatoes,3.08,7.42,4.34,roastedpotatoes,1007.5,1008,1007.5999999046326,True,i,117921.5,1526.3999998569489,1669830259532,1527,HRV,HRV_0067,2022-11-30 17:46:45
68,"[{'imgObject': {}, 'id': 'burger', 'src': '/static/foodstim60/burger.jpg', 'key': 'u', 'origWidth': 409, 'origHeight': 409, 'width': 409, 'height': 409, 'widthPercent': 0.45, 'rescaleHeight': False, 'trialN': 68, 'loaded': True, 'loadedTime': 2199.9000000953674, 'positionName': 'LEFT', 'positionCoords': [512.6, 335.5], 'bid': 1.12}, {'imgObject': {}, 'id': 'fried eggs', 'src': '/static/foodstim60/fried eggs.jpg', 'key': 'i', 'origWidth': 410, 'origHeight': 410, 'width': 410, 'height': 410, 'widthPercent': 0.45, 'rescaleHeight': False, 'trialN': 68, 'loaded': True, 'loadedTime': 2317.600000143051, 'positionName': 'RIGHT', 'positionCoords': [998.4, 335], 'bid': 1.9}]",117921.70000004768,1669830259532,burger,fried eggs,1.12,1.9,0.7799999999999998,fried eggs,1206.7000000476837,1207,1206.9000000953674,True,i,119641.30000019073,1719.6000001430511,1669830261252,1720,HRV,HRV_0067,2022-11-30 17:46:45
69,"[{'imgObject': {}, 'id': 'raisin bran w milk', 'src': '/static/foodstim60/raisin bran w milk.jpg', 'key': 'u', 'origWidth': 411, 'origHeight': 411, 'width': 411, 'height': 411, 'widthPercent': 0.45, 'rescaleHeight': False, 'trialN': 69, 'loaded': True, 'loadedTime': 2255.800000190735, 'positionName': 'LEFT', 'positionCoords': [510.6, 334.5], 'bid': 1.78}, {'imgObject': {}, 'id': 'fried eggs', 'src': '/static/foodstim60/fried eggs.jpg', 'key': 'i', 'origWidth': 410, 'origHeight': 410, 'width': 410, 'height': 410, 'widthPercent': 0.45, 'rescaleHeight': False, 'trialN': 69, 'loaded': True, 'loadedTime': 2317.4000000953674, 'positionName': 'RIGHT', 'positionCoords': [998.4, 335], 'bid': 1.9}]",119641.60000014305,1669830261252,raisin bran w milk,fried eggs,1.78,1.9,0.11999999999999988,fried eggs,915.0,915,915.3999998569489,True,i,121081.40000009537,1439.7999999523163,1669830262692,1440,HRV,HRV_0067,2022-11-30 17:46:45
70,"[{'imgObject': {}, 'id': 'ice cream sundae 002', 'src': '/static/foodstim60/ice cream sundae 002.jpg', 'key': 'u', 'origWidth': 409, 'origHeight': 409, 'width': 409, 'height': 409, 'widthPercent': 0.45, 'rescaleHeight': False, 'trialN': 70, 'loaded': True, 'loadedTime': 2196.100000143051, 'positionName': 'LEFT', 'positionCoords': [512.6, 335.5], 'bid': 7.27}, {'imgObject': {}, 'id': 'burrito', 'src': '/static/foodstim60/burrito.jpg', 'key': 'i', 'origWidth': 410, 'origHeight': 410, 'width': 410, 'height': 410, 'widthPercent': 0.45, 'rescaleHeight': False, 'trialN': 70, 'loaded': True, 'loadedTime': 2326.300000190735, 'positionName': 'RIGHT', 'positionCoords': [998.4, 335], 'bid': 5.93}]",121081.60000014305,1669830262692,ice cream sundae 002,burrito,7.27,5.93,-1.3399999999999999,burrito,1300.3999998569489,1301,1300.8999998569489,True,i,122901.30000019073,1819.7000000476837,1669830264512,1820,HRV,HRV_0067,2022-11-30 17:46:45
71,"[{'imgObject': {}, 'id': 'hotdog w must', 'src': '/static/foodstim60/hotdog w must.jpg', 'key': 'u', 'origWidth': 409, 'origHeight': 409, 'width': 409, 'height': 409, 'widthPercent': 0.45, 'rescaleHeight': False, 'trialN': 71, 'loaded': True, 'loadedTime': 2243.300000190735, 'positionName': 'LEFT', 'positionCoords': [512.6, 335.5], 'bid': 5.6000000000000005}, {'imgObject': {}, 'id': 'cherries', 'src': '/static/foodstim60/cherries.jpg', 'key': 'i', 'origWidth': 410, 'origHeight': 411, 'width': 410, 'height': 411, 'widthPercent': 0.45, 'rescaleHeight': False, 'trialN': 71, 'loaded': True, 'loadedTime': 2325.5, 'positionName': 'RIGHT', 'positionCoords': [998.4, 334.5], 'bid': 6.54}]",122901.5,1669830264512,hotdog w must,cherries,5.6000000000000005,6.54,0.9399999999999995,cherries,1167.2000000476837,1167,1167.5,True,i,124581.70000004768,1680.2000000476837,1669830266192,1680,HRV,HRV_0067,2022-11-30 17:46:45
72,"[{'imgObject': {}, 'id': 'chickenfingers', 'src': '/static/foodstim60/chickenfingers.jpg', 'key': 'u', 'origWidth': 410, 'origHeight': 410, 'width': 410, 'height': 410, 'widthPercent': 0.45, 'rescaleHeight': False, 'trialN': 72, 'loaded': True, 'loadedTime': 2337.9000000953674, 'positionName': 'LEFT', 'positionCoords': [511.6, 335], 'bid': 8.09}, {'imgObject': {}, 'id': 'kiwi', 'src': '/static/foodstim60/kiwi.jpg', 'key': 'i', 'origWidth': 410, 'origHeight': 410, 'width': 410, 'height': 410, 'widthPercent': 0.45, 'rescaleHeight': False, 'trialN': 72, 'loaded': True, 'loadedTime': 2261.2000000476837, 'positionName': 'RIGHT', 'positionCoords': [998.4, 335], 'bid': 6.45}]",124581.90000009537,1669830266192,chickenfingers,kiwi,8.09,6.45,-1.6399999999999997,chickenfingers,986.2000000476837,987,986.5999999046326,True,u,126081.5,1499.5999999046326,1669830267692,1500,HRV,HRV_0067,2022-11-30 17:46:45
73,"[{'imgObject': {}, 'id': 'seaweed', 'src': '/static/foodstim60/seaweed.jpg', 'key': 'u', 'origWidth': 410, 'origHeight': 410, 'width': 410, 'height': 410, 'widthPercent': 0.45, 'rescaleHeight': False, 'trialN': 73, 'loaded': True, 'loadedTime': 2234.9000000953674, 'positionName': 'LEFT', 'positionCoords': [511.6, 335], 'bid': 0.81}, {'imgObject': {}, 'id': 'luckycharms', 'src': '/static/foodstim60/luckycharms.jpg', 'key': 'i', 'origWidth': 410, 'origHeight': 409, 'width': 410, 'height': 409, 'widthPercent': 0.45, 'rescaleHeight': False, 'trialN': 73, 'loaded': True, 'loadedTime': 2225.7000000476837, 'positionName': 'RIGHT', 'positionCoords': [998.4, 335.5], 'bid': 1.11}]",126081.70000004768,1669830267692,seaweed,luckycharms,0.81,1.11,0.30000000000000004,luckycharms,870.4000000953674,871,871.1000001430511,True,i,127466.5,1384.7999999523163,1669830269077,1385,HRV,HRV_0067,2022-11-30 17:46:45
74,"[{'imgObject': {}, 'id': 'veggieswithdip', 'src': '/static/foodstim60/veggieswithdip.jpg', 'key': 'u', 'origWidth': 409, 'origHeight': 409, 'width': 409, 'height': 409, 'widthPercent': 0.45, 'rescaleHeight': False, 'trialN': 74, 'loaded': True, 'loadedTime': 2198.5, 'positionName': 'LEFT', 'positionCoords': [512.6, 335.5], 'bid': 3.81}, {'imgObject': {}, 'id': 'bagel plain', 'src': '/static/foodstim60/bagel plain.jpg', 'key': 'i', 'origWidth': 410, 'origHeight': 410, 'width': 410, 'height': 410, 'widthPercent': 0.45, 'rescaleHeight': False, 'trialN': 74, 'loaded': True, 'loadedTime': 2255.600000143051, 'positionName': 'RIGHT', 'positionCoords': [998.4, 335], 'bid': 2.75}]",127466.70000004768,1669830269077,veggieswithdip,bagel plain,3.81,2.75,-1.06,bagel plain,1045.6000001430511,1046,1046.0,True,i,129031.70000004768,1565.0,1669830270642,1565,HRV,HRV_0067,2022-11-30 17:46:45
75,"[{'imgObject': {}, 'id': 'ice cream sundae 002', 'src': '/static/foodstim60/ice cream sundae 002.jpg', 'key': 'u', 'origWidth': 409, 'origHeight': 409, 'width': 409, 'height': 409, 'widthPercent': 0.45, 'rescaleHeight': False, 'trialN': 75, 'loaded': True, 'loadedTime': 2196.2000000476837, 'positionName': 'LEFT', 'positionCoords': [512.6, 335.5], 'bid': 7.27}, {'imgObject': {}, 'id': 'eggsalad', 'src': '/static/foodstim60/eggsalad.jpg', 'key': 'i', 'origWidth': 410, 'origHeight': 409, 'width': 410, 'height': 409, 'widthPercent': 0.45, 'rescaleHeight': False, 'trialN': 75, 'loaded': True, 'loadedTime': 2343.800000190735, 'positionName': 'RIGHT', 'positionCoords': [998.4, 335.5], 'bid': 2.46}]",129032.0,1669830270642,ice cream sundae 002,eggsalad,7.27,2.46,-4.81,ice cream sundae 002,1071.5,1072,1071.7000000476837,True,u,130621.40000009537,1589.4000000953674,1669830272232,1590,HRV,HRV_0067,2022-11-30 17:46:45
76,"[{'imgObject': {}, 'id': 'strawberries', 'src': '/static/foodstim60/strawberries.jpg', 'key': 'u', 'origWidth': 410, 'origHeight': 410, 'width': 410, 'height': 410, 'widthPercent': 0.45, 'rescaleHeight': False, 'trialN': 76, 'loaded': True, 'loadedTime': 2176.100000143051, 'positionName': 'LEFT', 'positionCoords': [511.6, 335], 'bid': 5.54}, {'imgObject': {}, 'id': 'salad w chicken', 'src': '/static/foodstim60/salad w chicken.jpg', 'key': 'i', 'origWidth': 411, 'origHeight': 411, 'width': 411, 'height': 411, 'widthPercent': 0.45, 'rescaleHeight': False, 'trialN': 76, 'loaded': True, 'loadedTime': 2344.800000190735, 'positionName': 'RIGHT', 'positionCoords': [998.4, 334.5], 'bid': 6.53}]",130621.60000014305,1669830272232,strawberries,salad w chicken,5.54,6.53,0.9900000000000002,salad w chicken,854.0,855,854.5999999046326,True,i,131981.40000009537,1359.7999999523163,1669830273592,1360,HRV,HRV_0067,2022-11-30 17:46:45
77,"[{'imgObject': {}, 'id': 'hashbrowns', 'src': '/static/foodstim60/hashbrowns.jpg', 'key': 'u', 'origWidth': 411, 'origHeight': 410, 'width': 411, 'height': 410, 'widthPercent': 0.45, 'rescaleHeight': False, 'trialN': 77, 'loaded': True, 'loadedTime': 2248.9000000953674, 'positionName': 'LEFT', 'positionCoords': [510.6, 335], 'bid': 4.11}, {'imgObject': {}, 'id': 'popsicles', 'src': '/static/foodstim60/popsicles.jpg', 'key': 'i', 'origWidth': 410, 'origHeight': 410, 'width': 410, 'height': 410, 'widthPercent': 0.45, 'rescaleHeight': False, 'trialN': 77, 'loaded': True, 'loadedTime': 2142, 'positionName': 'RIGHT', 'positionCoords': [998.4, 335], 'bid': 3.95}]",131981.40000009537,1669830273592,hashbrowns,popsicles,4.11,3.95,-0.16000000000000014,popsicles,1024.0999999046326,1024,1024.2999999523163,True,i,133531.5,1550.0999999046326,1669830275142,1550,HRV,HRV_0067,2022-11-30 17:46:45
78,"[{'imgObject': {}, 'id': 'froot loops w milk', 'src': '/static/foodstim60/froot loops w milk.jpg', 'key': 'u', 'origWidth': 410, 'origHeight': 410, 'width': 410, 'height': 410, 'widthPercent': 0.45, 'rescaleHeight': False, 'trialN': 78, 'loaded': True, 'loadedTime': 2204.7000000476837, 'positionName': 'LEFT', 'positionCoords': [511.6, 335], 'bid': 1.48}, {'imgObject': {}, 'id': 'pear', 'src': '/static/foodstim60/pear.jpg', 'key': 'i', 'origWidth': 411, 'origHeight': 410, 'width': 411, 'height': 410, 'widthPercent': 0.45, 'rescaleHeight': False, 'trialN': 78, 'loaded': True, 'loadedTime': 2188.5, 'positionName': 'RIGHT', 'positionCoords': [998.4, 335], 'bid': 2.54}]",133531.80000019073,1669830275142,froot loops w milk,pear,1.48,2.54,1.06,pear,896.1999998092651,897,896.6999998092651,True,i,134941.5,1409.6999998092651,1669830276552,1410,HRV,HRV_0067,2022-11-30 17:46:45
79,"[{'imgObject': {}, 'id': 'salad w chicken', 'src': '/static/foodstim60/salad w chicken.jpg', 'key': 'u', 'origWidth': 411, 'origHeight': 411, 'width': 411, 'height': 411, 'widthPercent': 0.45, 'rescaleHeight': False, 'trialN': 79, 'loaded': True, 'loadedTime': 2344.600000143051, 'positionName': 'LEFT', 'positionCoords': [510.6, 334.5], 'bid': 6.53}, {'imgObject': {}, 'id': 'kiwi', 'src': '/static/foodstim60/kiwi.jpg', 'key': 'i', 'origWidth': 410, 'origHeight': 410, 'width': 410, 'height': 410, 'widthPercent': 0.45, 'rescaleHeight': False, 'trialN': 79, 'loaded': True, 'loadedTime': 2262.2000000476837, 'positionName': 'RIGHT', 'positionCoords': [998.4, 335], 'bid': 6.45}]",134941.60000014305,1669830276552,salad w chicken,kiwi,6.53,6.45,-0.08000000000000007,salad w chicken,978.7999999523163,979,979.2000000476837,True,u,136441.5,1499.8999998569489,1669830278052,1500,HRV,HRV_0067,2022-11-30 17:46:45
80,"[{'imgObject': {}, 'id': 'bagel plain', 'src': '/static/foodstim60/bagel plain.jpg', 'key': 'u', 'origWidth': 410, 'origHeight': 410, 'width': 410, 'height': 410, 'widthPercent': 0.45, 'rescaleHeight': False, 'trialN': 80, 'loaded': True, 'loadedTime': 2255.600000143051, 'positionName': 'LEFT', 'positionCoords': [511.6, 335], 'bid': 2.75}, {'imgObject': {}, 'id': 'raspberries', 'src': '/static/foodstim60/raspberries.jpg', 'key': 'i', 'origWidth': 411, 'origHeight': 411, 'width': 411, 'height': 411, 'widthPercent': 0.45, 'rescaleHeight': False, 'trialN': 80, 'loaded': True, 'loadedTime': 2171.5, 'positionName': 'RIGHT', 'positionCoords': [998.4, 334.5], 'bid': 3.08}]",136441.60000014305,1669830278052,bagel plain,raspberries,2.75,3.08,0.33000000000000007,raspberries,950.3999998569489,951,950.8999998569489,True,i,137907.60000014305,1466.0,1669830279518,1466,HRV,HRV_0067,2022-11-30 17:46:45
81,"[{'imgObject': {}, 'id': 'bagel plain', 'src': '/static/foodstim60/bagel plain.jpg', 'key': 'u', 'origWidth': 410, 'origHeight': 410, 'width': 410, 'height': 410, 'widthPercent': 0.45, 'rescaleHeight': False, 'trialN': 81, 'loaded': True, 'loadedTime': 2255.600000143051, 'positionName': 'LEFT', 'positionCoords': [511.6, 335], 'bid': 2.75}, {'imgObject': {}, 'id': 'eggs', 'src': '/static/foodstim60/eggs.jpg', 'key': 'i', 'origWidth': 409, 'origHeight': 409, 'width': 409, 'height': 409, 'widthPercent': 0.45, 'rescaleHeight': False, 'trialN': 81, 'loaded': True, 'loadedTime': 2338.7000000476837, 'positionName': 'RIGHT', 'positionCoords': [998.4, 335.5], 'bid': 2.9}]",137907.70000004768,1669830279518,bagel plain,eggs,2.75,2.9,0.1499999999999999,bagel plain,1194.7000000476837,1195,1195.0,True,u,139609.60000014305,1701.9000000953674,1669830281220,1702,HRV,HRV_0067,2022-11-30 17:46:45
82,"[{'imgObject': {}, 'id': 'cocktailshrimp', 'src': '/static/foodstim60/cocktailshrimp.jpg', 'key': 'u', 'origWidth': 410, 'origHeight': 410, 'width': 410, 'height': 410, 'widthPercent': 0.45, 'rescaleHeight': False, 'trialN': 82, 'loaded': True, 'loadedTime': 2324.100000143051, 'positionName': 'LEFT', 'positionCoords': [511.6, 335], 'bid': 7.28}, {'imgObject': {}, 'id': 'mango', 'src': '/static/foodstim60/mango.jpg', 'key': 'i', 'origWidth': 411, 'origHeight': 411, 'width': 411, 'height': 411, 'widthPercent': 0.45, 'rescaleHeight': False, 'trialN': 82, 'loaded': True, 'loadedTime': 2201.7000000476837, 'positionName': 'RIGHT', 'positionCoords': [998.4, 334.5], 'bid': 4.8500000000000005}]",139609.90000009537,1669830281220,cocktailshrimp,mango,7.28,4.8500000000000005,-2.4299999999999997,cocktailshrimp,1346.0,1347,1346.5,True,u,141461.40000009537,1851.5,1669830283072,1852,HRV,HRV_0067,2022-11-30 17:46:45
83,"[{'imgObject': {}, 'id': 'cherries', 'src': '/static/foodstim60/cherries.jpg', 'key': 'u', 'origWidth': 410, 'origHeight': 411, 'width': 410, 'height': 411, 'widthPercent': 0.45, 'rescaleHeight': False, 'trialN': 83, 'loaded': True, 'loadedTime': 2325.100000143051, 'positionName': 'LEFT', 'positionCoords': [511.6, 334.5], 'bid': 6.54}, {'imgObject': {}, 'id': 'chicken nuggets2', 'src': '/static/foodstim60/chicken nuggets2.jpg', 'key': 'i', 'origWidth': 410, 'origHeight': 409, 'width': 410, 'height': 409, 'widthPercent': 0.45, 'rescaleHeight': False, 'trialN': 83, 'loaded': True, 'loadedTime': 2345.7000000476837, 'positionName': 'RIGHT', 'positionCoords': [998.4, 335.5], 'bid': 6.640000000000001}]",141461.70000004768,1669830283072,cherries,chicken nuggets2,6.54,6.640000000000001,0.10000000000000053,chicken nuggets2,956.9000000953674,957,957.2000000476837,True,i,142931.5,1469.7999999523163,1669830284542,1470,HRV,HRV_0067,2022-11-30 17:46:45
84,"[{'imgObject': {}, 'id': 'Tribe humus pita', 'src': '/static/foodstim60/Tribe humus pita.jpg', 'key': 'u', 'origWidth': 411, 'origHeight': 411, 'width': 411, 'height': 411, 'widthPercent': 0.45, 'rescaleHeight': False, 'trialN': 84, 'loaded': True, 'loadedTime': 2250.300000190735, 'positionName': 'LEFT', 'positionCoords': [510.6, 334.5], 'bid': 1.57}, {'imgObject': {}, 'id': 'rigatoni and sauce', 'src': '/static/foodstim60/rigatoni and sauce.jpg', 'key': 'i', 'origWidth': 410, 'origHeight': 411, 'width': 410, 'height': 411, 'widthPercent': 0.45, 'rescaleHeight': False, 'trialN': 84, 'loaded': True, 'loadedTime': 2318.7000000476837, 'positionName': 'RIGHT', 'positionCoords': [998.4, 334.5], 'bid': 1.76}]",142931.80000019073,1669830284542,Tribe humus pita,rigatoni and sauce,1.57,1.76,0.18999999999999995,rigatoni and sauce,965.1999998092651,966,965.5999999046326,True,i,144402.20000004768,1470.3999998569489,1669830286012,1470,HRV,HRV_0067,2022-11-30 17:46:45
85,"[{'imgObject': {}, 'id': 'burger', 'src': '/static/foodstim60/burger.jpg', 'key': 'u', 'origWidth': 409, 'origHeight': 409, 'width': 409, 'height': 409, 'widthPercent': 0.45, 'rescaleHeight': False, 'trialN': 85, 'loaded': True, 'loadedTime': 2198.600000143051, 'positionName': 'LEFT', 'positionCoords': [512.6, 335.5], 'bid': 1.12}, {'imgObject': {}, 'id': 'cantaloupe', 'src': '/static/foodstim60/cantaloupe.jpg', 'key': 'i', 'origWidth': 409, 'origHeight': 409, 'width': 409, 'height': 409, 'widthPercent': 0.45, 'rescaleHeight': False, 'trialN': 85, 'loaded': True, 'loadedTime': 2230.2000000476837, 'positionName': 'RIGHT', 'positionCoords': [998.4, 335.5], 'bid': 4.36}]",144402.40000009537,1669830286013,burger,cantaloupe,1.12,4.36,3.24,cantaloupe,956.5999999046326,957,957.0,True,i,145881.5,1479.0999999046326,1669830287492,1479,HRV,HRV_0067,2022-11-30 17:46:45
86,"[{'imgObject': {}, 'id': 'blackbeanswithrice', 'src': '/static/foodstim60/blackbeanswithrice.jpg', 'key': 'u', 'origWidth': 410, 'origHeight': 410, 'width': 410, 'height': 410, 'widthPercent': 0.45, 'rescaleHeight': False, 'trialN': 86, 'loaded': True, 'loadedTime': 2330.800000190735, 'positionName': 'LEFT', 'positionCoords': [511.6, 335], 'bid': 3.34}, {'imgObject': {}, 'id': 'edamame', 'src': '/static/foodstim60/edamame.jpg', 'key': 'i', 'origWidth': 409, 'origHeight': 410, 'width': 409, 'height': 410, 'widthPercent': 0.45, 'rescaleHeight': False, 'trialN': 86, 'loaded': True, 'loadedTime': 2159.800000190735, 'positionName': 'RIGHT', 'positionCoords': [998.4, 335], 'bid': 1.86}]",145881.80000019073,1669830287492,blackbeanswithrice,edamame,3.34,1.86,-1.4799999999999998,edamame,934.6999998092651,935,934.8999998569489,True,i,147341.30000019073,1459.5,1669830288952,1460,HRV,HRV_0067,2022-11-30 17:46:45
87,"[{'imgObject': {}, 'id': 'rigatoni', 'src': '/static/foodstim60/rigatoni.jpg', 'key': 'u', 'origWidth': 411, 'origHeight': 411, 'width': 411, 'height': 411, 'widthPercent': 0.45, 'rescaleHeight': False, 'trialN': 87, 'loaded': True, 'loadedTime': 2190.4000000953674, 'positionName': 'LEFT', 'positionCoords': [510.6, 334.5], 'bid': 2.07}, {'imgObject': {}, 'id': 'cherry tomato', 'src': '/static/foodstim60/cherry tomato.jpg', 'key': 'i', 'origWidth': 410, 'origHeight': 410, 'width': 410, 'height': 410, 'widthPercent': 0.45, 'rescaleHeight': False, 'trialN': 87, 'loaded': True, 'loadedTime': 2187.300000190735, 'positionName': 'RIGHT', 'positionCoords': [998.4, 335], 'bid': 0.71}]",147341.60000014305,1669830288952,rigatoni,cherry tomato,2.07,0.71,-1.3599999999999999,rigatoni,1362.3999998569489,1359,1362.8999998569489,True,u,149219.30000019073,1877.7000000476837,1669830290826,1874,HRV,HRV_0067,2022-11-30 17:46:45
88,"[{'imgObject': {}, 'id': 'sushi w_condiments', 'src': '/static/foodstim60/sushi w_condiments.jpg', 'key': 'u', 'origWidth': 410, 'origHeight': 410, 'width': 410, 'height': 410, 'widthPercent': 0.45, 'rescaleHeight': False, 'trialN': 88, 'loaded': True, 'loadedTime': 2304.2000000476837, 'positionName': 'LEFT', 'positionCoords': [511.6, 335], 'bid': 6.26}, {'imgObject': {}, 'id': 'cocktailshrimp', 'src': '/static/foodstim60/cocktailshrimp.jpg', 'key': 'i', 'origWidth': 410, 'origHeight': 410, 'width': 410, 'height': 410, 'widthPercent': 0.45, 'rescaleHeight': False, 'trialN': 88, 'loaded': True, 'loadedTime': 2324.2000000476837, 'positionName': 'RIGHT', 'positionCoords': [998.4, 335], 'bid': 7.28}]",149219.40000009537,1669830290826,sushi w_condiments,cocktailshrimp,6.26,7.28,1.0200000000000005,sushi w_condiments,951.0999999046326,952,951.2000000476837,True,u,150691.40000009537,1472.0,1669830292298,1472,HRV,HRV_0067,2022-11-30 17:46:45
89,"[{'imgObject': {}, 'id': 'burger', 'src': '/static/foodstim60/burger.jpg', 'key': 'u', 'origWidth': 409, 'origHeight': 409, 'width': 409, 'height': 409, 'widthPercent': 0.45, 'rescaleHeight': False, 'trialN': 89, 'loaded': True, 'loadedTime': 2199.9000000953674, 'positionName': 'LEFT', 'positionCoords': [512.6, 335.5], 'bid': 1.12}, {'imgObject': {}, 'id': 'cheerios', 'src': '/static/foodstim60/cheerios.jpg', 'key': 'i', 'origWidth': 409, 'origHeight': 410, 'width': 409, 'height': 410, 'widthPercent': 0.45, 'rescaleHeight': False, 'trialN': 89, 'loaded': True, 'loadedTime': 2332.4000000953674, 'positionName': 'RIGHT', 'positionCoords': [998.4, 335], 'bid': 1.47}]",150691.60000014305,1669830292299,burger,cheerios,1.12,1.47,0.34999999999999987,burger,1308.3999998569489,1308,1308.7999999523163,True,u,152521.60000014305,1830.0,1669830294129,1830,HRV,HRV_0067,2022-11-30 17:46:45
90,"[{'imgObject': {}, 'id': 'corn cob', 'src': '/static/foodstim60/corn cob.jpg', 'key': 'u', 'origWidth': 411, 'origHeight': 411, 'width': 411, 'height': 411, 'widthPercent': 0.45, 'rescaleHeight': False, 'trialN': 90, 'loaded': True, 'loadedTime': 2191.600000143051, 'positionName': 'LEFT', 'positionCoords': [510.6, 334.5], 'bid': 1.91}, {'imgObject': {}, 'id': 'eggsalad', 'src': '/static/foodstim60/eggsalad.jpg', 'key': 'i', 'origWidth': 410, 'origHeight': 409, 'width': 410, 'height': 409, 'widthPercent': 0.45, 'rescaleHeight': False, 'trialN': 90, 'loaded': True, 'loadedTime': 2343.800000190735, 'positionName': 'RIGHT', 'positionCoords': [998.4, 335.5], 'bid': 2.46}]",157211.5,1669830298819,corn cob,eggsalad,1.91,2.46,0.55,eggsalad,1380.4000000953674,1380,1380.9000000953674,True,i,159101.40000009537,1889.9000000953674,1669830300708,1889,HRV,HRV_0067,2022-11-30 17:46:45
91,"[{'imgObject': {}, 'id': 'pear', 'src': '/static/foodstim60/pear.jpg', 'key': 'u', 'origWidth': 411, 'origHeight': 410, 'width': 411, 'height': 410, 'widthPercent': 0.45, 'rescaleHeight': False, 'trialN': 91, 'loaded': True, 'loadedTime': 2189.2000000476837, 'positionName': 'LEFT', 'positionCoords': [510.6, 335], 'bid': 2.54}, {'imgObject': {}, 'id': 'popsicles', 'src': '/static/foodstim60/popsicles.jpg', 'key': 'i', 'origWidth': 410, 'origHeight': 410, 'width': 410, 'height': 410, 'widthPercent': 0.45, 'rescaleHeight': False, 'trialN': 91, 'loaded': True, 'loadedTime': 2141.600000143051, 'positionName': 'RIGHT', 'positionCoords': [998.4, 335], 'bid': 3.95}]",159101.60000014305,1669830300709,pear,popsicles,2.54,3.95,1.4100000000000001,popsicles,959.7999999523163,960,960.0,True,i,160586.60000014305,1485.0,1669830302194,1485,HRV,HRV_0067,2022-11-30 17:46:45
92,"[{'imgObject': {}, 'id': 'sweetpotato', 'src': '/static/foodstim60/sweetpotato.jpg', 'key': 'u', 'origWidth': 410, 'origHeight': 410, 'width': 410, 'height': 410, 'widthPercent': 0.45, 'rescaleHeight': False, 'trialN': 92, 'loaded': True, 'loadedTime': 2182.800000190735, 'positionName': 'LEFT', 'positionCoords': [511.6, 335], 'bid': 2.27}, {'imgObject': {}, 'id': 'raisin bran w milk', 'src': '/static/foodstim60/raisin bran w milk.jpg', 'key': 'i', 'origWidth': 411, 'origHeight': 411, 'width': 411, 'height': 411, 'widthPercent': 0.45, 'rescaleHeight': False, 'trialN': 92, 'loaded': True, 'loadedTime': 2261.100000143051, 'positionName': 'RIGHT', 'positionCoords': [998.4, 334.5], 'bid': 1.78}]",160586.80000019073,1669830302194,sweetpotato,raisin bran w milk,2.27,1.78,-0.49,sweetpotato,1021.1999998092651,1021,1021.5999999046326,True,u,162121.20000004768,1534.3999998569489,1669830303728,1534,HRV,HRV_0067,2022-11-30 17:46:45
93,"[{'imgObject': {}, 'id': 'cherry tomato', 'src': '/static/foodstim60/cherry tomato.jpg', 'key': 'u', 'origWidth': 410, 'origHeight': 410, 'width': 410, 'height': 410, 'widthPercent': 0.45, 'rescaleHeight': False, 'trialN': 93, 'loaded': True, 'loadedTime': 2187.4000000953674, 'positionName': 'LEFT', 'positionCoords': [511.6, 335], 'bid': 0.71}, {'imgObject': {}, 'id': 'olives', 'src': '/static/foodstim60/olives.jpg', 'key': 'i', 'origWidth': 410, 'origHeight': 410, 'width': 410, 'height': 410, 'widthPercent': 0.45, 'rescaleHeight': False, 'trialN': 93, 'loaded': True, 'loadedTime': 2197.100000143051, 'positionName': 'RIGHT', 'positionCoords': [998.4, 335], 'bid': 0.67}]",162121.5,1669830303728,cherry tomato,olives,0.71,0.67,-0.039999999999999925,cherry tomato,890.5,891,890.9000000953674,True,u,163531.20000004768,1409.7000000476837,1669830305138,1410,HRV,HRV_0067,2022-11-30 17:46:45
94,"[{'imgObject': {}, 'id': 'chickenfingers', 'src': '/static/foodstim60/chickenfingers.jpg', 'key': 'u', 'origWidth': 410, 'origHeight': 410, 'width': 410, 'height': 410, 'widthPercent': 0.45, 'rescaleHeight': False, 'trialN': 94, 'loaded': True, 'loadedTime': 2337.300000190735, 'positionName': 'LEFT', 'positionCoords': [511.6, 335], 'bid': 8.09}, {'imgObject': {}, 'id': 'steak', 'src': '/static/foodstim60/steak.jpg', 'key': 'i', 'origWidth': 410, 'origHeight': 410, 'width': 410, 'height': 410, 'widthPercent': 0.45, 'rescaleHeight': False, 'trialN': 94, 'loaded': True, 'loadedTime': 2283.2000000476837, 'positionName': 'RIGHT', 'positionCoords': [998.4, 335], 'bid': 7.33}]",163531.40000009537,1669830305138,chickenfingers,steak,8.09,7.33,-0.7599999999999998,steak,621.0999999046326,622,621.4000000953674,True,i,164671.10000014305,1139.7000000476837,1669830306278,1140,HRV,HRV_0067,2022-11-30 17:46:45
95,"[{'imgObject': {}, 'id': 'chickenfingers', 'src': '/static/foodstim60/chickenfingers.jpg', 'key': 'u', 'origWidth': 410, 'origHeight': 410, 'width': 410, 'height': 410, 'widthPercent': 0.45, 'rescaleHeight': False, 'trialN': 95, 'loaded': True, 'loadedTime': 2338, 'positionName': 'LEFT', 'positionCoords': [511.6, 335], 'bid': 8.09}, {'imgObject': {}, 'id': 'tacos', 'src': '/static/foodstim60/tacos.jpg', 'key': 'i', 'origWidth': 411, 'origHeight': 411, 'width': 411, 'height': 411, 'widthPercent': 0.45, 'rescaleHeight': False, 'trialN': 95, 'loaded': True, 'loadedTime': 2297.7000000476837, 'positionName': 'RIGHT', 'positionCoords': [998.4, 334.5], 'bid': 7.95}]",164671.30000019073,1669830306278,chickenfingers,tacos,8.09,7.95,-0.13999999999999968,chickenfingers,1102.5,1103,1102.8999998569489,True,u,166291.10000014305,1619.7999999523163,1669830307898,1620,HRV,HRV_0067,2022-11-30 17:46:45
96,"[{'imgObject': {}, 'id': 'blackbeanswithrice', 'src': '/static/foodstim60/blackbeanswithrice.jpg', 'key': 'u', 'origWidth': 410, 'origHeight': 410, 'width': 410, 'height': 410, 'widthPercent': 0.45, 'rescaleHeight': False, 'trialN': 96, 'loaded': True, 'loadedTime': 2330.800000190735, 'positionName': 'LEFT', 'positionCoords': [511.6, 335], 'bid': 3.34}, {'imgObject': {}, 'id': 'cantaloupe', 'src': '/static/foodstim60/cantaloupe.jpg', 'key': 'i', 'origWidth': 409, 'origHeight': 409, 'width': 409, 'height': 409, 'widthPercent': 0.45, 'rescaleHeight': False, 'trialN': 96, 'loaded': True, 'loadedTime': 2230, 'positionName': 'RIGHT', 'positionCoords': [998.4, 335.5], 'bid': 4.36}]",166291.20000004768,1669830307898,blackbeanswithrice,cantaloupe,3.34,4.36,1.0200000000000005,cantaloupe,874.4000000953674,875,874.6000001430511,True,i,167691.60000014305,1400.4000000953674,1669830309299,1401,HRV,HRV_0067,2022-11-30 17:46:45
97,"[{'imgObject': {}, 'id': 'lox', 'src': '/static/foodstim60/lox.jpg', 'key': 'u', 'origWidth': 410, 'origHeight': 411, 'width': 410, 'height': 411, 'widthPercent': 0.45, 'rescaleHeight': False, 'trialN': 97, 'loaded': True, 'loadedTime': 2195.100000143051, 'positionName': 'LEFT', 'positionCoords': [511.6, 334.5], 'bid': 1.15}, {'imgObject': {}, 'id': 'orange slices', 'src': '/static/foodstim60/orange slices.jpg', 'key': 'i', 'origWidth': 409, 'origHeight': 410, 'width': 409, 'height': 410, 'widthPercent': 0.45, 'rescaleHeight': False, 'trialN': 97, 'loaded': True, 'loadedTime': 2248, 'positionName': 'RIGHT', 'positionCoords': [998.4, 335], 'bid': 4.6000000000000005}]",167691.80000019073,1669830309299,lox,orange slices,1.15,4.6000000000000005,3.4500000000000006,orange slices,831.1999998092651,831,831.6999998092651,True,i,169041.60000014305,1349.7999999523163,1669830310649,1350,HRV,HRV_0067,2022-11-30 17:46:45
98,"[{'imgObject': {}, 'id': 'hashbrowns', 'src': '/static/foodstim60/hashbrowns.jpg', 'key': 'u', 'origWidth': 411, 'origHeight': 410, 'width': 411, 'height': 410, 'widthPercent': 0.45, 'rescaleHeight': False, 'trialN': 98, 'loaded': True, 'loadedTime': 2249, 'positionName': 'LEFT', 'positionCoords': [510.6, 335], 'bid': 4.11}, {'imgObject': {}, 'id': 'bagel and cc', 'src': '/static/foodstim60/bagel and cc.jpg', 'key': 'i', 'origWidth': 410, 'origHeight': 410, 'width': 410, 'height': 410, 'widthPercent': 0.45, 'rescaleHeight': False, 'trialN': 98, 'loaded': True, 'loadedTime': 2193.100000143051, 'positionName': 'RIGHT', 'positionCoords': [998.4, 335], 'bid': 3.14}]",169041.90000009537,1669830310649,hashbrowns,bagel and cc,4.11,3.14,-0.9700000000000002,bagel and cc,948.4000000953674,949,948.7999999523163,True,i,170501.60000014305,1459.7000000476837,1669830312109,1460,HRV,HRV_0067,2022-11-30 17:46:45
99,"[{'imgObject': {}, 'id': 'cocktailshrimp', 'src': '/static/foodstim60/cocktailshrimp.jpg', 'key': 'u', 'origWidth': 410, 'origHeight': 410, 'width': 410, 'height': 410, 'widthPercent': 0.45, 'rescaleHeight': False, 'trialN': 99, 'loaded': True, 'loadedTime': 2324.2000000476837, 'positionName': 'LEFT', 'positionCoords': [511.6, 335], 'bid': 7.28}, {'imgObject': {}, 'id': 'grilled chicken strips', 'src': '/static/foodstim60/grilled chicken strips.jpg', 'key': 'i', 'origWidth': 410, 'origHeight': 411, 'width': 410, 'height': 411, 'widthPercent': 0.45, 'rescaleHeight': False, 'trialN': 99, 'loaded': True, 'loadedTime': 2276.2000000476837, 'positionName': 'RIGHT', 'positionCoords': [998.4, 334.5], 'bid': 7.37}]",170501.70000004768,1669830312109,cocktailshrimp,grilled chicken strips,7.28,7.37,0.08999999999999986,grilled chicken strips,607.2000000476837,607,607.7000000476837,True,i,171621.5,1119.7999999523163,1669830313228,1119,HRV,HRV_0067,2022-11-30 17:46:45
100,"[{'imgObject': {}, 'id': 'salad w chicken', 'src': '/static/foodstim60/salad w chicken.jpg', 'key': 'u', 'origWidth': 411, 'origHeight': 411, 'width': 411, 'height': 411, 'widthPercent': 0.45, 'rescaleHeight': False, 'trialN': 100, 'loaded': True, 'loadedTime': 2344.7000000476837, 'positionName': 'LEFT', 'positionCoords': [510.6, 334.5], 'bid': 6.53}, {'imgObject': {}, 'id': 'veggieswithdip', 'src': '/static/foodstim60/veggieswithdip.jpg', 'key': 'i', 'origWidth': 409, 'origHeight': 409, 'width': 409, 'height': 409, 'widthPercent': 0.45, 'rescaleHeight': False, 'trialN': 100, 'loaded': True, 'loadedTime': 2198.4000000953674, 'positionName': 'RIGHT', 'positionCoords': [998.4, 335.5], 'bid': 3.81}]",171621.70000004768,1669830313229,salad w chicken,veggieswithdip,6.53,3.81,-2.72,salad w chicken,841.1000001430511,841,841.7000000476837,True,u,172981.40000009537,1359.7000000476837,1669830314588,1359,HRV,HRV_0067,2022-11-30 17:46:45
101,"[{'imgObject': {}, 'id': 'edamame', 'src': '/static/foodstim60/edamame.jpg', 'key': 'u', 'origWidth': 409, 'origHeight': 410, 'width': 409, 'height': 410, 'widthPercent': 0.45, 'rescaleHeight': False, 'trialN': 101, 'loaded': True, 'loadedTime': 2160.100000143051, 'positionName': 'LEFT', 'positionCoords': [512.6, 335], 'bid': 1.86}, {'imgObject': {}, 'id': 'blueberries', 'src': '/static/foodstim60/blueberries.jpg', 'key': 'i', 'origWidth': 411, 'origHeight': 411, 'width': 411, 'height': 411, 'widthPercent': 0.45, 'rescaleHeight': False, 'trialN': 101, 'loaded': True, 'loadedTime': 2200.800000190735, 'positionName': 'RIGHT', 'positionCoords': [998.4, 334.5], 'bid': 2.28}]",172981.70000004768,1669830314589,edamame,blueberries,1.86,2.28,0.4199999999999997,blueberries,877.0,877,877.2999999523163,True,i,174361.20000004768,1379.5,1669830315968,1379,HRV,HRV_0067,2022-11-30 17:46:45
102,"[{'imgObject': {}, 'id': 'froot loops w milk', 'src': '/static/foodstim60/froot loops w milk.jpg', 'key': 'u', 'origWidth': 410, 'origHeight': 410, 'width': 410, 'height': 410, 'widthPercent': 0.45, 'rescaleHeight': False, 'trialN': 102, 'loaded': True, 'loadedTime': 2204.9000000953674, 'positionName': 'LEFT', 'positionCoords': [511.6, 335], 'bid': 1.48}, {'imgObject': {}, 'id': 'cheerios', 'src': '/static/foodstim60/cheerios.jpg', 'key': 'i', 'origWidth': 409, 'origHeight': 410, 'width': 409, 'height': 410, 'widthPercent': 0.45, 'rescaleHeight': False, 'trialN': 102, 'loaded': True, 'loadedTime': 2332.5, 'positionName': 'RIGHT', 'positionCoords': [998.4, 335], 'bid': 1.47}]",174361.40000009537,1669830315968,froot loops w milk,cheerios,1.48,1.47,-0.010000000000000009,froot loops w milk,1415.4000000953674,1416,1415.7999999523163,True,u,176281.40000009537,1920.0,1669830317888,1920,HRV,HRV_0067,2022-11-30 17:46:45
103,"[{'imgObject': {}, 'id': 'Grapes', 'src': '/static/foodstim60/Grapes.jpg', 'key': 'u', 'origWidth': 411, 'origHeight': 411, 'width': 411, 'height': 411, 'widthPercent': 0.45, 'rescaleHeight': False, 'trialN': 103, 'loaded': True, 'loadedTime': 2168.2000000476837, 'positionName': 'LEFT', 'positionCoords': [510.6, 334.5], 'bid': 5.42}, {'imgObject': {}, 'id': 'granola w milk', 'src': '/static/foodstim60/granola w milk.jpg', 'key': 'i', 'origWidth': 410, 'origHeight': 410, 'width': 410, 'height': 410, 'widthPercent': 0.45, 'rescaleHeight': False, 'trialN': 103, 'loaded': True, 'loadedTime': 2209.300000190735, 'positionName': 'RIGHT', 'positionCoords': [998.4, 335], 'bid': 1.56}]",176281.5,1669830317888,Grapes,granola w milk,5.42,1.56,-3.86,Grapes,1061.1000001430511,1062,1061.2000000476837,True,u,177861.40000009537,1579.9000000953674,1669830319468,1580,HRV,HRV_0067,2022-11-30 17:46:45
104,"[{'imgObject': {}, 'id': 'rigatoni and sauce', 'src': '/static/foodstim60/rigatoni and sauce.jpg', 'key': 'u', 'origWidth': 410, 'origHeight': 411, 'width': 410, 'height': 411, 'widthPercent': 0.45, 'rescaleHeight': False, 'trialN': 104, 'loaded': True, 'loadedTime': 2319.100000143051, 'positionName': 'LEFT', 'positionCoords': [511.6, 334.5], 'bid': 1.76}, {'imgObject': {}, 'id': 'cherry tomato', 'src': '/static/foodstim60/cherry tomato.jpg', 'key': 'i', 'origWidth': 410, 'origHeight': 410, 'width': 410, 'height': 410, 'widthPercent': 0.45, 'rescaleHeight': False, 'trialN': 104, 'loaded': True, 'loadedTime': 2187, 'positionName': 'RIGHT', 'positionCoords': [998.4, 335], 'bid': 0.71}]",177861.40000009537,1669830319468,rigatoni and sauce,cherry tomato,1.76,0.71,-1.05,rigatoni and sauce,844.5999999046326,845,845.0999999046326,True,u,179231.10000014305,1369.7000000476837,1669830320838,1370,HRV,HRV_0067,2022-11-30 17:46:45
105,"[{'imgObject': {}, 'id': 'yogurt no spoon', 'src': '/static/foodstim60/yogurt no spoon.jpg', 'key': 'u', 'origWidth': 411, 'origHeight': 410, 'width': 411, 'height': 410, 'widthPercent': 0.45, 'rescaleHeight': False, 'trialN': 105, 'loaded': True, 'loadedTime': 2310.300000190735, 'positionName': 'LEFT', 'positionCoords': [510.6, 335], 'bid': 2.32}, {'imgObject': {}, 'id': 'veggieswithdip', 'src': '/static/foodstim60/veggieswithdip.jpg', 'key': 'i', 'origWidth': 409, 'origHeight': 409, 'width': 409, 'height': 409, 'widthPercent': 0.45, 'rescaleHeight': False, 'trialN': 105, 'loaded': True, 'loadedTime': 2198.2000000476837, 'positionName': 'RIGHT', 'positionCoords': [998.4, 335.5], 'bid': 3.81}]",179231.30000019073,1669830320838,yogurt no spoon,veggieswithdip,2.32,3.81,1.4900000000000002,yogurt no spoon,1048.0999999046326,1049,1048.2999999523163,True,u,180801.30000019073,1570.0,1669830322408,1570,HRV,HRV_0067,2022-11-30 17:46:45
106,"[{'imgObject': {}, 'id': 'cantaloupe', 'src': '/static/foodstim60/cantaloupe.jpg', 'key': 'u', 'origWidth': 409, 'origHeight': 409, 'width': 409, 'height': 409, 'widthPercent': 0.45, 'rescaleHeight': False, 'trialN': 106, 'loaded': True, 'loadedTime': 2230.300000190735, 'positionName': 'LEFT', 'positionCoords': [512.6, 335.5], 'bid': 4.36}, {'imgObject': {}, 'id': 'bagel plain', 'src': '/static/foodstim60/bagel plain.jpg', 'key': 'i', 'origWidth': 410, 'origHeight': 410, 'width': 410, 'height': 410, 'widthPercent': 0.45, 'rescaleHeight': False, 'trialN': 106, 'loaded': True, 'loadedTime': 2255.5, 'positionName': 'RIGHT', 'positionCoords': [998.4, 335], 'bid': 2.75}]",180801.30000019073,1669830322408,cantaloupe,bagel plain,4.36,2.75,-1.6100000000000003,cantaloupe,905.6999998092651,906,906.0999999046326,True,u,182211.5,1410.1999998092651,1669830323818,1410,HRV,HRV_0067,2022-11-30 17:46:45
107,"[{'imgObject': {}, 'id': 'salmon', 'src': '/static/foodstim60/salmon.jpg', 'key': 'u', 'origWidth': 410, 'origHeight': 409, 'width': 410, 'height': 409, 'widthPercent': 0.45, 'rescaleHeight': False, 'trialN': 107, 'loaded': True, 'loadedTime': 2346.5, 'positionName': 'LEFT', 'positionCoords': [511.6, 335.5], 'bid': 6.28}, {'imgObject': {}, 'id': 'burrito', 'src': '/static/foodstim60/burrito.jpg', 'key': 'i', 'origWidth': 410, 'origHeight': 410, 'width': 410, 'height': 410, 'widthPercent': 0.45, 'rescaleHeight': False, 'trialN': 107, 'loaded': True, 'loadedTime': 2326.300000190735, 'positionName': 'RIGHT', 'positionCoords': [998.4, 335], 'bid': 5.93}]",182212.0,1669830323819,salmon,burrito,6.28,5.93,-0.35000000000000053,burrito,757.0,757,757.3000001907349,True,i,183491.10000014305,1279.1000001430511,1669830325098,1279,HRV,HRV_0067,2022-11-30 17:46:45
108,"[{'imgObject': {}, 'id': 'seaweed', 'src': '/static/foodstim60/seaweed.jpg', 'key': 'u', 'origWidth': 410, 'origHeight': 410, 'width': 410, 'height': 410, 'widthPercent': 0.45, 'rescaleHeight': False, 'trialN': 108, 'loaded': True, 'loadedTime': 2233.7000000476837, 'positionName': 'LEFT', 'positionCoords': [511.6, 335], 'bid': 0.81}, {'imgObject': {}, 'id': 'raisin bran w milk', 'src': '/static/foodstim60/raisin bran w milk.jpg', 'key': 'i', 'origWidth': 411, 'origHeight': 411, 'width': 411, 'height': 411, 'widthPercent': 0.45, 'rescaleHeight': False, 'trialN': 108, 'loaded': True, 'loadedTime': 2261.100000143051, 'positionName': 'RIGHT', 'positionCoords': [998.4, 334.5], 'bid': 1.78}]",183491.30000019073,1669830325098,seaweed,raisin bran w milk,0.81,1.78,0.97,raisin bran w milk,835.5999999046326,836,836.0999999046326,True,i,184841.10000014305,1349.7999999523163,1669830326448,1350,HRV,HRV_0067,2022-11-30 17:46:45
