success,trial_type,trial_index,time_elapsed,internal_node_id,Block,TrialNumber,TrialTime,trialTimeDiff,FPS_avg,FPS_med,FPS_mode,TrialDur,winResizeTime,rt,block,button_pressed,MotCoh,MotDir,ColCoh,Color,ChoiceKey,Choice,Accuracy,RT,nFrames,FPS,PPD,missTrial,missTrialMsg,onsetDelay,fullScreenExitTime,canvCenter,TrialType,Score,BlockTrial,stimulus,button_labels,exp,subjectId,date
True,fullscreen,0,3891,0.0-0.0,0.0,1.0,,,,,,,,,,,,,,,,,,,,,,,,,,,,,,,,HRV,HRV_0067,2022-11-30 17:56:23
,wl-check-fps,1,8892,0.0-1.0,0.0,2.0,"[4311.2, 4318.7, 4335.4, 4352, 4368.7, 4385.5, 4402.1, 4419.1, 4435.8, 4452.3, 4468.8, 4485.5, 4502.3, 4519.2, 4535.6, 4552.3, 4568.9, 4585.7, 4602.5, 4619.6, 4636.2, 4652.9, 4669.7, 4686.2, 4703, 4719.7, 4736.4, 4753, 4769.7, 4786.3, 4803.1, 4819.7, 4835.9, 4852.7, 4869.3, 4886, 4902.6, 4919.4, 4936.3, 4952.7, 4969.3, 4986, 5002.7, 5019.4, 5036.3, 5053.1, 5069.8, 5086.6, 5102.9, 5119.6, 5136.2, 5152.8, 5169.6, 5186.3, 5202.9, 5219.7, 5236.5, 5253.5, 5270.1, 5286.9, 5304.1, 5319.8, 5336.4, 5353.1, 5369.8, 5386.4, 5403.2, 5420.2, 5438.4, 5453.5, 5470.1, 5487.1, 5503.2, 5519.9, 5536.5, 5553.2, 5570.1, 5586.8, 5603.6, 5620.3, 5636.9, 5653.7, 5670.3, 5687, 5703.7, 5720.4, 5737.1, 5753.8, 5770.5, 5787.1, 5803.8, 5820.5, 5837.1, 5853.6, 5870.1, 5886.9, 5903.5, 5920.3, 5937, 5953.8, 5970.7, 5987.3, 6004, 6020.6, 6037.4, 6054.1, 6070.7, 6087.5, 6104.1, 6120.6, 6137.2, 6153.9, 6170.6, 6187.2, 6203.9, 6220.9, 6237.5, 6254.3, 6270.9, 6287.6, 6304.4, 6320.7, 6337.4, 6354.1, 6370.7, 6387.3, 6404.1, 6421, 6437.8, 6454.4, 6471, 6487.5, 6504.3, 6520.9, 6537.5, 6554.2, 6571, 6587.6, 6604.3, 6620.9, 6637.7, 6654.4, 6671, 6687.7, 6704.5, 6721.1, 6737.9, 6754.7, 6771.4, 6788.1, 6804.8, 6821.6, 6837.9, 6854.5, 6871.2, 6887.9, 6904.6, 6921.3, 6938, 6954.8, 6971.4, 6988, 7004.7, 7021.5, 7038.4, 7055.1, 7071.7, 7088.1, 7104.9, 7121.6, 7138.2, 7154.9, 7171.5, 7188.2, 7205, 7221.5, 7238.3, 7255.2, 7272, 7288.6, 7305, 7321.7, 7338.4, 7355.1, 7371.7, 7388.5, 7405.4, 7422, 7438.9, 7455.2, 7471.8, 7488.6, 7505.2, 7521.9, 7538.6, 7555.4, 7572.2, 7588.9, 7605.6, 7622.4, 7639, 7655.6, 7672.3, 7689, 7705.8, 7722.4, 7739.1, 7755.7, 7772.4, 7789.1, 7805.8, 7822.6, 7839, 7855.5, 7872.3, 7888.9, 7905.5, 7922.2, 7939, 7955.7, 7972.6, 7989.4, 8005.6, 8022.4, 8039.2, 8056.2, 8072.8, 8089.6, 8106.2, 8122.5, 8139.3, 8155.9, 8172.6, 8189.3, 8206, 8222.7, 8239.8, 8256.4, 8273.3, 8290.2, 8306.2, 8322.8, 8339.6, 8356.1, 8372.7, 8389.4, 8406.1, 8422.9, 8439.6, 8456.1, 8473, 8489.5, 8506.4, 8523.5, 8540, 8556.6, 8573.3, 8590, 8606.7, 8623.3, 8640, 8656.6, 8673.2, 8689.9, 8706.7, 8723.4, 8740.1, 8756.8, 8773.4, 8790.1, 8806.7, 8823.5, 8839.9, 8856.5, 8873.2, 8890, 8906.6, 8923.3, 8940.3, 8956.9, 8973.3, 8990, 9006.7, 9023.4, 9040.5, 9057, 9073.7, 9090.4, 9107, 9123.5, 9140.3, 9156.9, 9173.5, 9190.2, 9206.9, 9223.6, 9240.3, 9257, 9273.8, 9290.6]","[0.7, 7.5, 16.7, 16.6, 16.7, 16.8, 16.6, 17, 16.7, 16.5, 16.5, 16.7, 16.8, 16.9, 16.4, 16.7, 16.6, 16.8, 16.8, 17.1, 16.6, 16.7, 16.8, 16.5, 16.8, 16.7, 16.7, 16.6, 16.7, 16.6, 16.8, 16.6, 16.2, 16.8, 16.6, 16.7, 16.6, 16.8, 16.9, 16.4, 16.6, 16.7, 16.7, 16.7, 16.9, 16.8, 16.7, 16.8, 16.3, 16.7, 16.6, 16.6, 16.8, 16.7, 16.6, 16.8, 16.8, 17, 16.6, 16.8, 17.2, 15.7, 16.6, 16.7, 16.7, 16.6, 16.8, 17, 18.2, 15.1, 16.6, 17, 16.1, 16.7, 16.6, 16.7, 16.9, 16.7, 16.8, 16.7, 16.6, 16.8, 16.6, 16.7, 16.7, 16.7, 16.7, 16.7, 16.7, 16.6, 16.7, 16.7, 16.6, 16.5, 16.5, 16.8, 16.6, 16.8, 16.7, 16.8, 16.9, 16.6, 16.7, 16.6, 16.8, 16.7, 16.6, 16.8, 16.6, 16.5, 16.6, 16.7, 16.7, 16.6, 16.7, 17, 16.6, 16.8, 16.6, 16.7, 16.8, 16.3, 16.7, 16.7, 16.6, 16.6, 16.8, 16.9, 16.8, 16.6, 16.6, 16.5, 16.8, 16.6, 16.6, 16.7, 16.8, 16.6, 16.7, 16.6, 16.8, 16.7, 16.6, 16.7, 16.8, 16.6, 16.8, 16.8, 16.7, 16.7, 16.7, 16.8, 16.3, 16.6, 16.7, 16.7, 16.7, 16.7, 16.7, 16.8, 16.6, 16.6, 16.7, 16.8, 16.9, 16.7, 16.6, 16.4, 16.8, 16.7, 16.6, 16.7, 16.6, 16.7, 16.8, 16.5, 16.8, 16.9, 16.8, 16.6, 16.4, 16.7, 16.7, 16.7, 16.6, 16.8, 16.9, 16.6, 16.9, 16.3, 16.6, 16.8, 16.6, 16.7, 16.7, 16.8, 16.8, 16.7, 16.7, 16.8, 16.6, 16.6, 16.7, 16.7, 16.8, 16.6, 16.7, 16.6, 16.7, 16.7, 16.7, 16.8, 16.4, 16.5, 16.8, 16.6, 16.6, 16.7, 16.8, 16.7, 16.9, 16.8, 16.2, 16.8, 16.8, 17, 16.6, 16.8, 16.6, 16.3, 16.8, 16.6, 16.7, 16.7, 16.7, 16.7, 17.1, 16.6, 16.9, 16.9, 16, 16.6, 16.8, 16.5, 16.6, 16.7, 16.7, 16.8, 16.7, 16.5, 16.9, 16.5, 16.9, 17.1, 16.5, 16.6, 16.7, 16.7, 16.7, 16.6, 16.7, 16.6, 16.6, 16.7, 16.8, 16.7, 16.7, 16.7, 16.6, 16.7, 16.6, 16.8, 16.4, 16.6, 16.7, 16.8, 16.6, 16.7, 17, 16.6, 16.4, 16.7, 16.7, 16.7, 17.1, 16.5, 16.7, 16.7, 16.6, 16.5, 16.8, 16.6, 16.6, 16.7, 16.7, 16.7, 16.7, 16.7, 16.8, 16.8]",60.0,60.0,60.0,4997.2,[],,,,,,,,,,,,,,,,,,,,,,,,,HRV,HRV_0067,2022-11-30 17:56:23
,wl-html-keyboard-response,2,25993,0.0-2.0-0.0,0.0,3.0,,,,,,,,15090.5,0.0,0,,,,,,,,,,,,,,,,,,,,,,HRV,HRV_0067,2022-11-30 17:56:23
,wl-rdm,3,33867,0.0-3.0-0.0,0.0,4.0,,,,,,,[],,,,0.0,0.0,87.9,0.0,u,0.0,True,2313.100000143051,139.0,60.0,40.0,False,,3000.0,[],"[960, 540]",ColorTask_Demo,,,,,HRV,HRV_0067,2022-11-30 17:56:23
,wl-rdm,4,38554,0.0-3.0-1.0,0.0,5.0,,,,,,,[],,,,0.0,0.0,87.9,1.0,i,1.0,True,631.7000002861023,38.0,60.0,40.0,False,,2000.0,[],"[960, 540]",ColorTask_Demo,,,,,HRV,HRV_0067,2022-11-30 17:56:23
,wl-html-keyboard-response,5,44364,0.0-3.0-2.0,0.0,6.0,,,,,,,,3803.0,0.0,1,,,,,,,,,,,,,,,,,,,,,,HRV,HRV_0067,2022-11-30 17:56:23
,wl-html-keyboard-response,6,53763,0.0-4.0-0.0,0.0,7.0,,,,,,,,7390.5,0.0,0,,,,,,,,,,,,,,,,,,,,,,HRV,HRV_0067,2022-11-30 17:56:23
,wl-html-keyboard-response,7,69020,0.0-5.0-0.0,0.0,8.0,,,,,,,,13253.700000047684,0.0,0,,,,,,,,,,,,,,,,,,,,,,HRV,HRV_0067,2022-11-30 17:56:23
,wl-rdm,8,73206,0.0-6.0-0.0,0.0,9.0,,,,,,,[],,,,,,53.2,0.0,i,1.0,False,2818.800000190735,169.0,60.0,40.0,False,,312.93219304538985,[],"[960, 540]",ColorTask,-1.0,1.0,,,HRV,HRV_0067,2022-11-30 17:56:23
,wl-rdm,9,75491,0.0-6.1-0.1,0.0,10.0,,,,,,,[],,,,,,62.5,1.0,i,1.0,True,935.599999666214,57.0,60.0,40.0,False,,281.0947547642706,[],"[960, 540]",ColorTask,0.0,2.0,,,HRV,HRV_0067,2022-11-30 17:56:23
,wl-rdm,10,77526,0.0-6.2-0.2,0.0,11.0,,,,,,,[],,,,,,87.9,1.0,i,1.0,True,728.0,44.0,60.0,40.0,False,,248.69329223060313,[],"[960, 540]",ColorTask,1.0,3.0,,,HRV,HRV_0067,2022-11-30 17:56:23
,wl-rdm,11,80413,0.0-6.3-0.3,0.0,12.0,,,,,,,[],,,,,,53.2,1.0,u,0.0,False,1428.5999999046326,86.0,60.0,40.0,False,,393.4428154420078,[],"[960, 540]",ColorTask,0.0,4.0,,,HRV,HRV_0067,2022-11-30 17:56:23
,wl-rdm,12,82865,0.0-6.4-0.4,0.0,13.0,,,,,,,[],,,,,,53.2,1.0,i,1.0,True,1045.0,63.0,60.0,40.0,False,,343.6122026030206,[],"[960, 540]",ColorTask,1.0,5.0,,,HRV,HRV_0067,2022-11-30 17:56:23
,wl-rdm,13,85367,0.0-6.5-0.5,0.0,14.0,,,,,,,[],,,,,,62.5,1.0,i,1.0,True,1069.2000000476837,65.0,60.0,40.0,False,,357.2201454110143,[],"[960, 540]",ColorTask,2.0,6.0,,,HRV,HRV_0067,2022-11-30 17:56:23
,wl-rdm,14,87836,0.0-6.6-0.6,0.0,15.0,,,,,,,[],,,,,,56.4,0.0,u,0.0,True,1181.8999998569489,71.0,60.0,40.0,False,,231.42064417393192,[],"[960, 540]",ColorTask,3.0,7.0,,,HRV,HRV_0067,2022-11-30 17:56:23
,wl-rdm,15,90072,0.0-6.7-0.7,0.0,16.0,,,,,,,[],,,,,,56.4,1.0,i,1.0,True,831.6000001430511,50.0,60.0,40.0,False,,334.6994303766373,[],"[960, 540]",ColorTask,4.0,8.0,,,HRV,HRV_0067,2022-11-30 17:56:23
,wl-rdm,16,94127,0.0-6.8-0.8,0.0,17.0,,,,,,,[],,,,,,53.2,1.0,i,1.0,True,2707.2999999523163,163.0,60.0,40.0,False,,277.29488965391874,[],"[960, 540]",ColorTask,5.0,9.0,,,HRV,HRV_0067,2022-11-30 17:56:23
,wl-rdm,17,96196,0.0-6.9-0.9,0.0,18.0,,,,,,,[],,,,,,87.9,1.0,i,1.0,True,665.2999999523163,40.0,60.0,40.0,False,,335.99610312051095,[],"[960, 540]",ColorTask,6.0,10.0,,,HRV,HRV_0067,2022-11-30 17:56:23
,wl-rdm,18,98264,0.0-6.10-0.10,0.0,19.0,,,,,,,[],,,,,,50.0,1.0,i,1.0,True,738.2000000476837,45.0,60.0,40.0,False,,261.823960186755,[],"[960, 540]",ColorTask,7.0,11.0,,,HRV,HRV_0067,2022-11-30 17:56:23
,wl-rdm,19,100350,0.0-6.11-0.11,0.0,20.0,,,,,,,[],,,,,,56.4,0.0,i,1.0,False,719.3999998569489,44.0,60.0,40.0,False,,297.9404433569728,[],"[960, 540]",ColorTask,6.0,12.0,,,HRV,HRV_0067,2022-11-30 17:56:23
,wl-rdm,20,103203,0.0-6.12-0.12,0.0,21.0,,,,,,,[],,,,,,56.4,0.0,u,0.0,True,1436.7999999523163,87.0,60.0,40.0,False,,341.14197466142525,[],"[960, 540]",ColorTask,7.0,13.0,,,HRV,HRV_0067,2022-11-30 17:56:23
,wl-rdm,21,105972,0.0-6.13-0.13,0.0,22.0,,,,,,,[],,,,,,56.4,0.0,i,1.0,False,1456.5,88.0,60.0,40.0,False,,239.39911118832345,[],"[960, 540]",ColorTask,6.0,14.0,,,HRV,HRV_0067,2022-11-30 17:56:23
,wl-rdm,22,108091,0.0-6.14-0.14,0.0,23.0,,,,,,,[],,,,,,87.9,1.0,i,1.0,True,692.0,42.0,60.0,40.0,False,,353.5329676339926,[],"[960, 540]",ColorTask,7.0,15.0,,,HRV,HRV_0067,2022-11-30 17:56:23
,wl-rdm,23,111244,0.0-6.15-0.15,0.0,24.0,,,,,,,[],,,,,,53.2,0.0,u,0.0,True,1791.9000000953674,108.0,60.0,40.0,False,,296.2503519119365,[],"[960, 540]",ColorTask,8.0,16.0,,,HRV,HRV_0067,2022-11-30 17:56:23
,wl-rdm,24,113913,0.0-6.16-0.16,0.0,25.0,,,,,,,[],,,,,,73.6,1.0,i,1.0,True,1215.3999998569489,73.0,60.0,40.0,False,,387.62433746982913,[],"[960, 540]",ColorTask,9.0,17.0,,,HRV,HRV_0067,2022-11-30 17:56:23
,wl-rdm,25,116666,0.0-6.17-0.17,0.0,26.0,,,,,,,[],,,,,,62.5,1.0,i,1.0,True,1303.7999999523163,79.0,60.0,40.0,False,,368.7986732097444,[],"[960, 540]",ColorTask,10.0,18.0,,,HRV,HRV_0067,2022-11-30 17:56:23
,wl-rdm,26,118685,0.0-6.18-0.18,0.0,27.0,,,,,,,[],,,,,,87.9,1.0,i,1.0,True,733.6000001430511,44.0,60.0,40.0,False,,227.59966913970936,[],"[960, 540]",ColorTask,11.0,19.0,,,HRV,HRV_0067,2022-11-30 17:56:23
,wl-rdm,27,122388,0.0-6.19-0.19,0.0,28.0,,,,,,,[],,,,,,56.4,1.0,i,1.0,True,2373.399999856949,143.0,60.0,40.0,False,,254.1114872903508,[],"[960, 540]",ColorTask,12.0,20.0,,,HRV,HRV_0067,2022-11-30 17:56:23
,wl-rdm,28,126826,0.0-6.20-0.20,0.0,28.0,,,,,,,[],,,,,,50.0,1.0,,,,,179.0,60.0,40.0,True,RT_timeout ,361.78336309191246,[],"[960, 540]",ColorTask,11.0,21.0,,,HRV,HRV_0067,2022-11-30 17:56:23
,wl-rdm,29,129161,0.0-6.21-0.21,0.0,29.0,,,,,,,[],,,,,,50.0,0.0,u,0.0,True,1031.5999999046326,62.0,60.0,40.0,False,,234.28423583448594,[],"[960, 540]",ColorTask,12.0,22.0,,,HRV,HRV_0067,2022-11-30 17:56:23
,wl-rdm,30,131498,0.0-6.22-0.22,0.0,30.0,,,,,,,[],,,,,,62.5,0.0,u,0.0,True,1057.3999998569489,64.0,60.0,40.0,False,,212.92481024494728,[],"[960, 540]",ColorTask,13.0,23.0,,,HRV,HRV_0067,2022-11-30 17:56:23
,wl-rdm,31,133799,0.0-6.23-0.23,0.0,31.0,,,,,,,[],,,,,,73.6,0.0,u,0.0,True,963.5,58.0,60.0,40.0,False,,276.40213549410225,[],"[960, 540]",ColorTask,14.0,24.0,,,HRV,HRV_0067,2022-11-30 17:56:23
,wl-rdm,32,135818,0.0-6.24-0.24,0.0,32.0,,,,,,,[],,,,,,73.6,1.0,i,1.0,True,680.5,41.0,60.0,40.0,False,,279.93310825021547,[],"[960, 540]",ColorTask,15.0,25.0,,,HRV,HRV_0067,2022-11-30 17:56:23
,wl-rdm,33,137970,0.0-6.25-0.25,0.0,33.0,,,,,,,[],,,,,,62.5,0.0,u,0.0,True,777.5,47.0,60.0,40.0,False,,316.1467309558261,[],"[960, 540]",ColorTask,16.0,26.0,,,HRV,HRV_0067,2022-11-30 17:56:23
,wl-rdm,34,140223,0.0-6.26-0.26,0.0,34.0,,,,,,,[],,,,,,53.2,0.0,u,0.0,True,875.8999998569489,53.0,60.0,40.0,False,,313.89827406442697,[],"[960, 540]",ColorTask,17.0,27.0,,,HRV,HRV_0067,2022-11-30 17:56:23
,wl-rdm,35,142275,0.0-6.27-0.27,0.0,35.0,,,,,,,[],,,,,,87.9,1.0,i,1.0,True,765.5,46.0,60.0,40.0,False,,221.30433380274565,[],"[960, 540]",ColorTask,18.0,28.0,,,HRV,HRV_0067,2022-11-30 17:56:23
,wl-rdm,36,144427,0.0-6.28-0.28,0.0,36.0,,,,,,,[],,,,,,50.0,0.0,i,1.0,False,785.2000000476837,48.0,60.0,40.0,False,,286.23018490809807,[],"[960, 540]",ColorTask,17.0,29.0,,,HRV,HRV_0067,2022-11-30 17:56:23
,wl-rdm,37,146763,0.0-6.29-0.29,0.0,37.0,,,,,,,[],,,,,,50.0,0.0,u,0.0,True,990.2000000476837,60.0,60.0,40.0,False,,277.8612475951643,[],"[960, 540]",ColorTask,18.0,30.0,,,HRV,HRV_0067,2022-11-30 17:56:23
,wl-rdm,38,148881,0.0-6.30-0.30,0.0,38.0,,,,,,,[],,,,,,62.5,1.0,i,1.0,True,714.3999998569489,43.0,60.0,40.0,False,,347.31939838286513,[],"[960, 540]",ColorTask,19.0,31.0,,,HRV,HRV_0067,2022-11-30 17:56:23
,wl-rdm,39,150850,0.0-6.31-0.31,0.0,39.0,,,,,,,[],,,,,,87.9,0.0,u,0.0,True,585.6999998092651,36.0,60.0,40.0,False,,306.16029507797845,[],"[960, 540]",ColorTask,20.0,32.0,,,HRV,HRV_0067,2022-11-30 17:56:23
,wl-rdm,40,153236,0.0-6.32-0.32,0.0,40.0,,,,,,,[],,,,,,50.0,1.0,i,1.0,True,994.0,60.0,60.0,40.0,False,,317.994147207929,[],"[960, 540]",ColorTask,21.0,33.0,,,HRV,HRV_0067,2022-11-30 17:56:23
,wl-rdm,41,155354,0.0-6.33-0.33,0.0,41.0,,,,,,,[],,,,,,50.0,1.0,i,1.0,True,677.900000333786,41.0,60.0,40.0,False,,374.01176651349806,[],"[960, 540]",ColorTask,22.0,34.0,,,HRV,HRV_0067,2022-11-30 17:56:23
,wl-rdm,42,157739,0.0-6.34-0.34,0.0,42.0,,,,,,,[],,,,,,50.0,0.0,i,1.0,False,1028.4000000953674,62.0,60.0,40.0,False,,298.9760572741487,[],"[960, 540]",ColorTask,21.0,35.0,,,HRV,HRV_0067,2022-11-30 17:56:23
,wl-rdm,43,160292,0.0-6.35-0.35,0.0,43.0,,,,,,,[],,,,,,56.4,0.0,i,1.0,False,1190.0,72.0,60.0,40.0,False,,289.2862998183607,[],"[960, 540]",ColorTask,20.0,36.0,,,HRV,HRV_0067,2022-11-30 17:56:23
,wl-rdm,44,162961,0.0-6.36-0.36,0.0,44.0,,,,,,,[],,,,,,50.0,0.0,u,0.0,True,1386.8999998569489,84.0,60.0,40.0,False,,212.3760512293396,[],"[960, 540]",ColorTask,21.0,37.0,,,HRV,HRV_0067,2022-11-30 17:56:23
,wl-rdm,45,165381,0.0-6.37-0.37,0.0,45.0,,,,,,,[],,,,,,50.0,1.0,u,0.0,False,1151.1000001430511,69.0,60.0,40.0,False,,205.0272501276335,[],"[960, 540]",ColorTask,20.0,38.0,,,HRV,HRV_0067,2022-11-30 17:56:23
,wl-rdm,46,167716,0.0-6.38-0.38,0.0,46.0,,,,,,,[],,,,,,53.2,0.0,u,0.0,True,1052.0,63.0,60.0,40.0,False,,201.35772431225536,[],"[960, 540]",ColorTask,21.0,39.0,,,HRV,HRV_0067,2022-11-30 17:56:23
,wl-rdm,47,169852,0.0-6.39-0.39,0.0,47.0,,,,,,,[],,,,,,62.5,0.0,i,1.0,False,859.7999999523163,52.0,60.0,40.0,False,,213.98066586517368,[],"[960, 540]",ColorTask,20.0,40.0,,,HRV,HRV_0067,2022-11-30 17:56:23
,wl-rdm,48,171870,0.0-6.40-0.40,0.0,48.0,,,,,,,[],,,,,,73.6,1.0,i,1.0,True,695.8000001907349,42.0,60.0,40.0,False,,236.2066794473162,[],"[960, 540]",ColorTask,21.0,41.0,,,HRV,HRV_0067,2022-11-30 17:56:23
,wl-rdm,49,173939,0.0-6.41-0.41,0.0,49.0,,,,,,,[],,,,,,62.5,1.0,i,1.0,True,752.5,46.0,60.0,40.0,False,,240.1678972443265,[],"[960, 540]",ColorTask,22.0,42.0,,,HRV,HRV_0067,2022-11-30 17:56:23
,wl-rdm,50,176258,0.0-6.42-0.42,0.0,50.0,,,,,,,[],,,,,,53.2,1.0,i,1.0,True,910.8999998569489,55.0,60.0,40.0,False,,336.9666116679316,[],"[960, 540]",ColorTask,23.0,43.0,,,HRV,HRV_0067,2022-11-30 17:56:23
,wl-rdm,51,178694,0.0-6.43-0.43,0.0,51.0,,,,,,,[],,,,,,53.2,1.0,i,1.0,True,996.9000000953674,60.0,60.0,40.0,False,,373.1471199589748,[],"[960, 540]",ColorTask,24.0,44.0,,,HRV,HRV_0067,2022-11-30 17:56:23
,wl-rdm,52,180796,0.0-6.44-0.44,0.0,52.0,,,,,,,[],,,,,,87.9,0.0,u,0.0,True,791.5,48.0,60.0,40.0,False,,242.60285274986884,[],"[960, 540]",ColorTask,25.0,45.0,,,HRV,HRV_0067,2022-11-30 17:56:23
,wl-rdm,53,182815,0.0-6.45-0.45,0.0,53.0,,,,,,,[],,,,,,87.9,0.0,u,0.0,True,747.7999999523163,45.0,60.0,40.0,False,,214.95890720887996,[],"[960, 540]",ColorTask,26.0,46.0,,,HRV,HRV_0067,2022-11-30 17:56:23
,wl-rdm,54,185450,0.0-6.46-0.46,0.0,54.0,,,,,,,[],,,,,,73.6,0.0,u,0.0,True,1266.7999999523163,76.0,60.0,40.0,False,,313.5912194615669,[],"[960, 540]",ColorTask,27.0,47.0,,,HRV,HRV_0067,2022-11-30 17:56:23
,wl-rdm,55,187919,0.0-6.47-0.47,0.0,55.0,,,,,,,[],,,,,,87.9,0.0,u,0.0,True,1077.5,65.0,60.0,40.0,False,,327.7900924846597,[],"[960, 540]",ColorTask,28.0,48.0,,,HRV,HRV_0067,2022-11-30 17:56:23
,wl-rdm,56,190706,0.0-6.48-0.48,0.0,56.0,,,,,,,[],,,,,,53.2,0.0,i,1.0,False,1484.0999999046326,89.0,60.0,40.0,False,,233.76871061578663,[],"[960, 540]",ColorTask,27.0,49.0,,,HRV,HRV_0067,2022-11-30 17:56:23
,wl-rdm,57,193158,0.0-6.49-0.49,0.0,57.0,,,,,,,[],,,,,,56.4,0.0,u,0.0,True,1183.4000000953674,71.0,60.0,40.0,False,,215.01574717705768,[],"[960, 540]",ColorTask,28.0,50.0,,,HRV,HRV_0067,2022-11-30 17:56:23
,wl-rdm,58,195694,0.0-6.50-0.50,0.0,58.0,,,,,,,[],,,,,,62.5,1.0,i,1.0,True,1106.2999999523163,67.0,60.0,40.0,False,,351.97263874669954,[],"[960, 540]",ColorTask,29.0,51.0,,,HRV,HRV_0067,2022-11-30 17:56:23
,wl-rdm,59,197947,0.0-6.51-0.51,0.0,59.0,,,,,,,[],,,,,,73.6,1.0,i,1.0,True,920.0999999046326,56.0,60.0,40.0,False,,258.7900428452435,[],"[960, 540]",ColorTask,30.0,52.0,,,HRV,HRV_0067,2022-11-30 17:56:23
,wl-rdm,60,200198,0.0-6.52-0.52,0.0,60.0,,,,,,,[],,,,,,87.9,0.0,u,0.0,True,924.7000000476837,56.0,60.0,40.0,False,,260.10351652481205,[],"[960, 540]",ColorTask,31.0,53.0,,,HRV,HRV_0067,2022-11-30 17:56:23
,wl-rdm,61,202351,0.0-6.53-0.53,0.0,61.0,,,,,,,[],,,,,,62.5,0.0,i,1.0,False,838.1000001430511,51.0,60.0,40.0,False,,236.37387740101752,[],"[960, 540]",ColorTask,30.0,54.0,,,HRV,HRV_0067,2022-11-30 17:56:23
,wl-rdm,62,204537,0.0-6.54-0.54,0.0,62.0,,,,,,,[],,,,,,56.4,1.0,i,1.0,True,752.4000000953674,46.0,60.0,40.0,False,,362.01795205434075,[],"[960, 540]",ColorTask,31.0,55.0,,,HRV,HRV_0067,2022-11-30 17:56:23
,wl-rdm,63,206805,0.0-6.55-0.55,0.0,63.0,,,,,,,[],,,,,,73.6,0.0,u,0.0,True,900.2000000476837,54.0,60.0,40.0,False,,309.02310061275557,[],"[960, 540]",ColorTask,32.0,56.0,,,HRV,HRV_0067,2022-11-30 17:56:23
,wl-rdm,64,209208,0.0-6.56-0.56,0.0,64.0,,,,,,,[],,,,,,56.4,0.0,u,0.0,True,1047.5999999046326,63.0,60.0,40.0,False,,298.52674121013337,[],"[960, 540]",ColorTask,33.0,57.0,,,HRV,HRV_0067,2022-11-30 17:56:23
,wl-rdm,65,211443,0.0-6.57-0.57,0.0,65.0,,,,,,,[],,,,,,87.9,0.0,u,0.0,True,853.6000001430511,52.0,60.0,40.0,False,,304.7916115339668,[],"[960, 540]",ColorTask,34.0,58.0,,,HRV,HRV_0067,2022-11-30 17:56:23
,wl-rdm,66,213796,0.0-6.58-0.58,0.0,66.0,,,,,,,[],,,,,,62.5,0.0,u,0.0,True,953.6000001430511,58.0,60.0,40.0,False,,332.7575110901397,[],"[960, 540]",ColorTask,35.0,59.0,,,HRV,HRV_0067,2022-11-30 17:56:23
,wl-rdm,67,216382,0.0-6.59-0.59,0.0,67.0,,,,,,,[],,,,,,53.2,0.0,u,0.0,True,1278.3999998569489,77.0,60.0,40.0,False,,248.91061990731015,[],"[960, 540]",ColorTask,36.0,60.0,,,HRV,HRV_0067,2022-11-30 17:56:23
,wl-rdm,68,218750,0.0-6.60-0.60,0.0,68.0,,,,,,,[],,,,,,50.0,0.0,i,1.0,False,905.4000000953674,55.0,60.0,40.0,False,,388.47563242298855,[],"[960, 540]",ColorTask,35.0,61.0,,,HRV,HRV_0067,2022-11-30 17:56:23
,wl-rdm,69,220936,0.0-6.61-0.61,0.0,69.0,,,,,,,[],,,,,,73.6,0.0,u,0.0,True,898.6000001430511,54.0,60.0,40.0,False,,220.87221701052238,[],"[960, 540]",ColorTask,36.0,62.0,,,HRV,HRV_0067,2022-11-30 17:56:23
,wl-rdm,70,223071,0.0-6.62-0.62,0.0,70.0,,,,,,,[],,,,,,73.6,1.0,i,1.0,True,861.1000001430511,52.0,60.0,40.0,False,,212.11498635708526,[],"[960, 540]",ColorTask,37.0,63.0,,,HRV,HRV_0067,2022-11-30 17:56:23
,wl-rdm,71,225507,0.0-6.63-0.63,0.0,71.0,,,,,,,[],,,,,,62.5,1.0,i,1.0,True,1084.4000000953674,65.0,60.0,40.0,False,,282.1938573404568,[],"[960, 540]",ColorTask,38.0,64.0,,,HRV,HRV_0067,2022-11-30 17:56:23
,wl-rdm,72,227893,0.0-6.64-0.64,0.0,72.0,,,,,,,[],,,,,,56.4,1.0,i,1.0,True,1046.0000002384186,63.0,60.0,40.0,False,,280.4218189348132,[],"[960, 540]",ColorTask,39.0,65.0,,,HRV,HRV_0067,2022-11-30 17:56:23
,wl-rdm,73,230362,0.0-6.65-0.65,0.0,73.0,,,,,,,[],,,,,,56.4,1.0,u,0.0,False,1136.3999998569489,69.0,60.0,40.0,False,,256.1031301099605,[],"[960, 540]",ColorTask,38.0,66.0,,,HRV,HRV_0067,2022-11-30 17:56:23
,wl-rdm,74,232631,0.0-6.66-0.66,0.0,74.0,,,,,,,[],,,,,,62.5,0.0,i,1.0,False,902.6000001430511,55.0,60.0,40.0,False,,296.61743330817285,[],"[960, 540]",ColorTask,37.0,67.0,,,HRV,HRV_0067,2022-11-30 17:56:23
,wl-rdm,75,234767,0.0-6.67-0.67,0.0,75.0,,,,,,,[],,,,,,73.6,0.0,u,0.0,True,738.2999999523163,45.0,60.0,40.0,False,,323.37762149489276,[],"[960, 540]",ColorTask,38.0,68.0,,,HRV,HRV_0067,2022-11-30 17:56:23
,wl-rdm,76,236902,0.0-6.68-0.68,0.0,76.0,,,,,,,[],,,,,,56.4,1.0,i,1.0,True,857.6999998092651,52.0,60.0,40.0,False,,203.67149797735357,[],"[960, 540]",ColorTask,39.0,69.0,,,HRV,HRV_0067,2022-11-30 17:56:23
,wl-rdm,77,239004,0.0-6.69-0.69,0.0,77.0,,,,,,,[],,,,,,73.6,0.0,u,0.0,True,719.7999999523163,44.0,60.0,40.0,False,,302.5577940874073,[],"[960, 540]",ColorTask,40.0,70.0,,,HRV,HRV_0067,2022-11-30 17:56:23
,wl-rdm,78,241423,0.0-6.70-0.70,0.0,78.0,,,,,,,[],,,,,,53.2,1.0,i,1.0,True,1130.7000000476837,68.0,60.0,40.0,False,,230.69899229445807,[],"[960, 540]",ColorTask,41.0,71.0,,,HRV,HRV_0067,2022-11-30 17:56:23
,wl-rdm,79,243625,0.0-6.71-0.71,0.0,79.0,,,,,,,[],,,,,,73.6,0.0,u,0.0,True,911.2000002861023,55.0,60.0,40.0,False,,224.41585348499373,[],"[960, 540]",ColorTask,42.0,72.0,,,HRV,HRV_0067,2022-11-30 17:56:23
,wl-rdm,80,246411,0.0-6.72-0.72,0.0,80.0,,,,,,,[],,,,,,56.4,1.0,i,1.0,True,1377.9000000953674,83.0,60.0,40.0,False,,342.45895717456887,[],"[960, 540]",ColorTask,43.0,73.0,,,HRV,HRV_0067,2022-11-30 17:56:23
,wl-rdm,81,248713,0.0-6.73-0.73,0.0,81.0,,,,,,,[],,,,,,56.4,1.0,i,1.0,True,1002.8999998569489,61.0,60.0,40.0,False,,228.58740977797612,[],"[960, 540]",ColorTask,44.0,74.0,,,HRV,HRV_0067,2022-11-30 17:56:23
,wl-rdm,82,250832,0.0-6.74-0.74,0.0,82.0,,,,,,,[],,,,,,87.9,1.0,i,1.0,True,786.9999997615814,48.0,60.0,40.0,False,,257.9720013396434,[],"[960, 540]",ColorTask,45.0,75.0,,,HRV,HRV_0067,2022-11-30 17:56:23
,wl-rdm,83,253168,0.0-6.75-0.75,0.0,83.0,,,,,,,[],,,,,,53.2,0.0,i,1.0,False,895.3000001907349,54.0,60.0,40.0,False,,374.9900042232231,[],"[960, 540]",ColorTask,44.0,76.0,,,HRV,HRV_0067,2022-11-30 17:56:23
,wl-rdm,84,255571,0.0-6.76-0.76,0.0,84.0,,,,,,,[],,,,,,56.4,1.0,i,1.0,True,1012.4000000953674,61.0,60.0,40.0,False,,332.46990037477315,[],"[960, 540]",ColorTask,45.0,77.0,,,HRV,HRV_0067,2022-11-30 17:56:23
,wl-rdm,85,258089,0.0-6.77-0.77,0.0,85.0,,,,,,,[],,,,,,53.2,0.0,u,0.0,True,1089.7000002861023,66.0,60.0,40.0,False,,336.776696281392,[],"[960, 540]",ColorTask,46.0,78.0,,,HRV,HRV_0067,2022-11-30 17:56:23
,wl-rdm,86,260125,0.0-6.78-0.78,0.0,86.0,,,,,,,[],,,,,,73.6,1.0,i,1.0,True,649.2999999523163,39.0,60.0,40.0,False,,317.6875468187145,[],"[960, 540]",ColorTask,47.0,79.0,,,HRV,HRV_0067,2022-11-30 17:56:23
,wl-rdm,87,262544,0.0-6.79-0.79,0.0,87.0,,,,,,,[],,,,,,62.5,0.0,i,1.0,False,1029.3999998569489,62.0,60.0,40.0,False,,321.44399050674264,[],"[960, 540]",ColorTask,46.0,80.0,,,HRV,HRV_0067,2022-11-30 17:56:23
,wl-rdm,88,265080,0.0-6.80-0.80,0.0,88.0,,,,,,,[],,,,,,50.0,1.0,i,1.0,True,1124.3000001907349,68.0,60.0,40.0,False,,338.8604030992775,[],"[960, 540]",ColorTask,47.0,81.0,,,HRV,HRV_0067,2022-11-30 17:56:23
,wl-rdm,89,267449,0.0-6.81-0.81,0.0,89.0,,,,,,,[],,,,,,56.4,0.0,i,1.0,False,1021.1999998092651,62.0,60.0,40.0,False,,278.20902089819765,[],"[960, 540]",ColorTask,46.0,82.0,,,HRV,HRV_0067,2022-11-30 17:56:23
,wl-rdm,90,269785,0.0-6.82-0.82,0.0,90.0,,,,,,,[],,,,,,62.5,0.0,u,0.0,True,1002.5999999046326,61.0,60.0,40.0,False,,258.7441340933005,[],"[960, 540]",ColorTask,47.0,83.0,,,HRV,HRV_0067,2022-11-30 17:56:23
,wl-rdm,91,272104,0.0-6.83-0.83,0.0,91.0,,,,,,,[],,,,,,50.0,1.0,i,1.0,True,1015.8000001907349,61.0,60.0,40.0,False,,233.78464479385417,[],"[960, 540]",ColorTask,48.0,84.0,,,HRV,HRV_0067,2022-11-30 17:56:23
,wl-rdm,92,274456,0.0-6.84-0.84,0.0,92.0,,,,,,,[],,,,,,50.0,1.0,i,1.0,True,1076.1999998092651,65.0,60.0,40.0,False,,212.1601218148096,[],"[960, 540]",ColorTask,49.0,85.0,,,HRV,HRV_0067,2022-11-30 17:56:23
,wl-rdm,93,277142,0.0-6.85-0.85,0.0,93.0,,,,,,,[],,,,,,50.0,0.0,u,0.0,True,1292.2999999523163,78.0,60.0,40.0,False,,323.5588939163255,[],"[960, 540]",ColorTask,50.0,86.0,,,HRV,HRV_0067,2022-11-30 17:56:23
,wl-rdm,94,279378,0.0-6.86-0.86,0.0,94.0,,,,,,,[],,,,,,73.6,1.0,i,1.0,True,879.0,53.0,60.0,40.0,False,,296.3192042501477,[],"[960, 540]",ColorTask,51.0,87.0,,,HRV,HRV_0067,2022-11-30 17:56:23
,wl-rdm,95,281864,0.0-6.87-0.87,0.0,95.0,,,,,,,[],,,,,,53.2,1.0,u,0.0,False,1167.4000000953674,70.0,60.0,40.0,False,,266.40861053066936,[],"[960, 540]",ColorTask,50.0,88.0,,,HRV,HRV_0067,2022-11-30 17:56:23
,wl-rdm,96,284099,0.0-6.88-0.88,0.0,96.0,,,,,,,[],,,,,,73.6,0.0,u,0.0,True,897.7000000476837,54.0,60.0,40.0,False,,267.6674581935155,[],"[960, 540]",ColorTask,51.0,89.0,,,HRV,HRV_0067,2022-11-30 17:56:23
,wl-rdm,97,286101,0.0-6.89-0.89,0.0,97.0,,,,,,,[],,,,,,73.6,1.0,i,1.0,True,729.2000000476837,44.0,60.0,40.0,False,,207.7000367584496,[],"[960, 540]",ColorTask,52.0,90.0,,,HRV,HRV_0067,2022-11-30 17:56:23
,wl-rdm,98,288271,0.0-6.90-0.90,0.0,98.0,,,,,,,[],,,,,,73.6,0.0,u,0.0,True,722.7000000476837,44.0,60.0,40.0,False,,379.0858249850383,[],"[960, 540]",ColorTask,53.0,91.0,,,HRV,HRV_0067,2022-11-30 17:56:23
,wl-rdm,99,290323,0.0-6.91-0.91,0.0,99.0,,,,,,,[],,,,,,87.9,0.0,u,0.0,True,755.5,46.0,60.0,40.0,False,,221.39483272928936,[],"[960, 540]",ColorTask,54.0,92.0,,,HRV,HRV_0067,2022-11-30 17:56:23
,wl-rdm,100,292741,0.0-6.92-0.92,0.0,100.0,,,,,,,[],,,,,,62.5,0.0,u,0.0,True,1069.2000000476837,65.0,60.0,40.0,False,,276.56593723784,[],"[960, 540]",ColorTask,55.0,93.0,,,HRV,HRV_0067,2022-11-30 17:56:23
,wl-rdm,101,294810,0.0-6.93-0.93,0.0,101.0,,,,,,,[],,,,,,73.6,1.0,i,1.0,True,726.8999998569489,44.0,60.0,40.0,False,,272.44652143566844,[],"[960, 540]",ColorTask,56.0,94.0,,,HRV,HRV_0067,2022-11-30 17:56:23
,wl-rdm,102,296963,0.0-6.94-0.94,0.0,102.0,,,,,,,[],,,,,,53.2,1.0,i,1.0,True,777.2999999523163,47.0,60.0,40.0,False,,312.67828809590173,[],"[960, 540]",ColorTask,57.0,95.0,,,HRV,HRV_0067,2022-11-30 17:56:23
,wl-rdm,103,299248,0.0-6.95-0.95,0.0,103.0,,,,,,,[],,,,,,53.2,0.0,u,0.0,True,992.5,60.0,60.0,40.0,False,,227.32384877993908,[],"[960, 540]",ColorTask,58.0,96.0,,,HRV,HRV_0067,2022-11-30 17:56:23
,wl-rdm,104,301600,0.0-6.96-0.96,0.0,104.0,,,,,,,[],,,,,,50.0,1.0,u,0.0,False,1075.8000001907349,65.0,60.0,40.0,False,,214.40223366802644,[],"[960, 540]",ColorTask,57.0,97.0,,,HRV,HRV_0067,2022-11-30 17:56:23
,wl-rdm,105,303636,0.0-6.97-0.97,0.0,105.0,,,,,,,[],,,,,,87.9,0.0,u,0.0,True,604.2000000476837,37.0,60.0,40.0,False,,355.05623024801,[],"[960, 540]",ColorTask,58.0,98.0,,,HRV,HRV_0067,2022-11-30 17:56:23
,wl-rdm,106,305688,0.0-6.98-0.98,0.0,106.0,,,,,,,[],,,,,,62.5,1.0,i,1.0,True,750.7999999523163,45.0,60.0,40.0,False,,233.64434580088079,[],"[960, 540]",ColorTask,59.0,99.0,,,HRV,HRV_0067,2022-11-30 17:56:23
,wl-rdm,107,308057,0.0-6.99-0.99,0.0,107.0,,,,,,,[],,,,,,62.5,1.0,i,1.0,True,1090.5,66.0,60.0,40.0,False,,200.36303554312892,[],"[960, 540]",ColorTask,60.0,100.0,,,HRV,HRV_0067,2022-11-30 17:56:23
,wl-rdm,108,310576,0.0-6.100-0.100,0.0,108.0,,,,,,,[],,,,,,50.0,0.0,u,0.0,True,1084.1999998092651,65.0,60.0,40.0,False,,371.8411016450689,[],"[960, 540]",ColorTask,61.0,101.0,,,HRV,HRV_0067,2022-11-30 17:56:23
,wl-rdm,109,312595,0.0-6.101-0.101,0.0,109.0,,,,,,,[],,,,,,87.9,0.0,u,0.0,True,712.2000000476837,43.0,60.0,40.0,False,,249.03188594816726,[],"[960, 540]",ColorTask,62.0,102.0,,,HRV,HRV_0067,2022-11-30 17:56:23
,wl-rdm,110,314613,0.0-6.102-0.102,0.0,110.0,,,,,,,[],,,,,,87.9,1.0,i,1.0,True,610.2000002861023,37.0,60.0,40.0,False,,343.1041058751858,[],"[960, 540]",ColorTask,63.0,103.0,,,HRV,HRV_0067,2022-11-30 17:56:23
,wl-rdm,111,317132,0.0-6.103-0.103,0.0,111.0,,,,,,,[],,,,,,53.2,1.0,u,0.0,False,1214.7999999523163,73.0,60.0,40.0,False,,245.94709011938954,[],"[960, 540]",ColorTask,62.0,104.0,,,HRV,HRV_0067,2022-11-30 17:56:23
,wl-rdm,112,319585,0.0-6.104-0.104,0.0,112.0,,,,,,,[],,,,,,50.0,1.0,u,0.0,False,1122.7000000476837,68.0,60.0,40.0,False,,263.23036742395084,[],"[960, 540]",ColorTask,61.0,105.0,,,HRV,HRV_0067,2022-11-30 17:56:23
,wl-rdm,113,321937,0.0-6.105-0.105,0.0,113.0,,,,,,,[],,,,,,56.4,0.0,i,1.0,False,1055.0999999046326,64.0,60.0,40.0,False,,221.33753896413955,[],"[960, 540]",ColorTask,60.0,106.0,,,HRV,HRV_0067,2022-11-30 17:56:23
,wl-rdm,114,324457,0.0-6.106-0.106,0.0,114.0,,,,,,,[],,,,,,50.0,0.0,u,0.0,True,1246.5000002384186,75.0,60.0,40.0,False,,211.23318608434548,[],"[960, 540]",ColorTask,61.0,107.0,,,HRV,HRV_0067,2022-11-30 17:56:23
,wl-rdm,115,326509,0.0-6.107-0.107,0.0,115.0,,,,,,,[],,,,,,87.9,1.0,i,1.0,True,611.8000001907349,37.0,60.0,40.0,False,,381.8541726854311,[],"[960, 540]",ColorTask,62.0,108.0,,,HRV,HRV_0067,2022-11-30 17:56:23
,wl-rdm,116,328511,0.0-6.108-0.108,0.0,116.0,,,,,,,[],,,,,,87.9,1.0,i,1.0,True,614.2000000476837,37.0,60.0,40.0,False,,317.3536287283664,[],"[960, 540]",ColorTask,63.0,109.0,,,HRV,HRV_0067,2022-11-30 17:56:23
,wl-html-keyboard-response,117,336842,0.0-7.0-0.0,1.0,117.0,,,,,,,,6321.0,1.0,0,,,,,,,,,,,,,,,,,,,,,,HRV,HRV_0067,2022-11-30 17:56:23
,wl-rdm,118,339388,0.0-8.0-0.0,1.0,118.0,,,,,,,[],,,,,,50.0,1.0,i,1.0,True,1236.9000000953674,75.0,60.0,40.0,False,,245.7522892805638,[],"[960, 540]",ColorTask,64.0,1.0,,,HRV,HRV_0067,2022-11-30 17:56:23
,wl-rdm,119,341673,0.0-8.1-0.1,1.0,119.0,,,,,,,[],,,,,,73.6,0.0,u,0.0,True,902.8999998569489,55.0,60.0,40.0,False,,311.763466244789,[],"[960, 540]",ColorTask,65.0,2.0,,,HRV,HRV_0067,2022-11-30 17:56:23
,wl-rdm,120,344309,0.0-8.2-0.2,1.0,120.0,,,,,,,[],,,,,,62.5,0.0,u,0.0,True,1205.5,73.0,60.0,40.0,False,,354.7085277264262,[],"[960, 540]",ColorTask,66.0,3.0,,,HRV,HRV_0067,2022-11-30 17:56:23
,wl-rdm,121,346778,0.0-8.3-0.3,1.0,121.0,,,,,,,[],,,,,,50.0,0.0,i,1.0,False,1178.6000001430511,71.0,60.0,40.0,False,,231.9730108575539,[],"[960, 540]",ColorTask,65.0,4.0,,,HRV,HRV_0067,2022-11-30 17:56:23
,wl-rdm,122,348830,0.0-8.4-0.4,1.0,122.0,,,,,,,[],,,,,,56.4,1.0,i,1.0,True,761.1000001430511,46.0,60.0,40.0,False,,225.8864205527369,[],"[960, 540]",ColorTask,66.0,5.0,,,HRV,HRV_0067,2022-11-30 17:56:23
,wl-rdm,123,350766,0.0-8.5-0.5,1.0,123.0,,,,,,,[],,,,,,87.9,0.0,u,0.0,True,665.4000000953674,40.0,60.0,40.0,False,,214.9892085848536,[],"[960, 540]",ColorTask,67.0,6.0,,,HRV,HRV_0067,2022-11-30 17:56:23
,wl-rdm,124,352717,0.0-8.6-0.6,1.0,124.0,,,,,,,[],,,,,,62.5,1.0,i,1.0,True,510.4999997615814,31.0,60.0,40.0,False,,379.9912918296808,[],"[960, 540]",ColorTask,68.0,7.0,,,HRV,HRV_0067,2022-11-30 17:56:23
,wl-rdm,125,354736,0.0-8.7-0.7,1.0,125.0,,,,,,,[],,,,,,73.6,0.0,u,0.0,True,652.5,40.0,60.0,40.0,False,,298.82892118434967,[],"[960, 540]",ColorTask,69.0,8.0,,,HRV,HRV_0067,2022-11-30 17:56:23
,wl-rdm,126,356721,0.0-8.8-0.8,1.0,126.0,,,,,,,[],,,,,,53.2,1.0,i,1.0,True,638.2999997138977,39.0,60.0,40.0,False,,278.67678009124353,[],"[960, 540]",ColorTask,70.0,9.0,,,HRV,HRV_0067,2022-11-30 17:56:23
,wl-rdm,127,358623,0.0-8.9-0.9,1.0,127.0,,,,,,,[],,,,,,73.6,0.0,u,0.0,True,587.7999999523163,36.0,60.0,40.0,False,,245.4375811774202,[],"[960, 540]",ColorTask,71.0,10.0,,,HRV,HRV_0067,2022-11-30 17:56:23
,wl-rdm,128,360742,0.0-8.10-0.10,1.0,128.0,,,,,,,[],,,,,,62.5,1.0,i,1.0,True,772.0000002384186,47.0,60.0,40.0,False,,269.697983233643,[],"[960, 540]",ColorTask,72.0,11.0,,,HRV,HRV_0067,2022-11-30 17:56:23
,wl-rdm,129,363111,0.0-8.11-0.11,1.0,129.0,,,,,,,[],,,,,,53.2,0.0,u,0.0,True,1052.7999999523163,64.0,60.0,40.0,False,,249.36802954278738,[],"[960, 540]",ColorTask,73.0,12.0,,,HRV,HRV_0067,2022-11-30 17:56:23
,wl-rdm,130,365981,0.0-8.12-0.12,1.0,130.0,,,,,,,[],,,,,,56.4,0.0,u,0.0,True,1476.3999998569489,89.0,60.0,40.0,False,,327.76299721551584,[],"[960, 540]",ColorTask,74.0,13.0,,,HRV,HRV_0067,2022-11-30 17:56:23
,wl-rdm,131,368099,0.0-8.13-0.13,1.0,131.0,,,,,,,[],,,,,,87.9,0.0,u,0.0,True,849.1999998092651,51.0,60.0,40.0,False,,215.93708869521458,[],"[960, 540]",ColorTask,75.0,14.0,,,HRV,HRV_0067,2022-11-30 17:56:23
,wl-rdm,132,370101,0.0-8.14-0.14,1.0,132.0,,,,,,,[],,,,,,73.6,1.0,i,1.0,True,656.2999999523163,40.0,60.0,40.0,False,,274.0784334658203,[],"[960, 540]",ColorTask,76.0,15.0,,,HRV,HRV_0067,2022-11-30 17:56:23
,wl-rdm,133,372704,0.0-8.15-0.15,1.0,133.0,,,,,,,[],,,,,,56.4,0.0,i,1.0,False,1237.2999997138977,75.0,60.0,40.0,False,,291.185221454371,[],"[960, 540]",ColorTask,75.0,16.0,,,HRV,HRV_0067,2022-11-30 17:56:23
,wl-rdm,134,375090,0.0-8.16-0.16,1.0,134.0,,,,,,,[],,,,,,50.0,0.0,u,0.0,True,1052.7999999523163,64.0,60.0,40.0,False,,256.4707901232854,[],"[960, 540]",ColorTask,76.0,17.0,,,HRV,HRV_0067,2022-11-30 17:56:23
,wl-rdm,135,377342,0.0-8.17-0.17,1.0,135.0,,,,,,,[],,,,,,62.5,0.0,u,0.0,True,880.2999997138977,53.0,60.0,40.0,False,,304.1933363134438,[],"[960, 540]",ColorTask,77.0,18.0,,,HRV,HRV_0067,2022-11-30 17:56:23
,wl-rdm,136,379377,0.0-8.18-0.18,1.0,136.0,,,,,,,[],,,,,,87.9,1.0,i,1.0,True,754.4000000953674,46.0,60.0,40.0,False,,201.40245400763558,[],"[960, 540]",ColorTask,78.0,19.0,,,HRV,HRV_0067,2022-11-30 17:56:23
,wl-rdm,137,381997,0.0-8.19-0.19,1.0,137.0,,,,,,,[],,,,,,53.2,0.0,u,0.0,True,1241.3999998569489,75.0,60.0,40.0,False,,308.03621205351135,[],"[960, 540]",ColorTask,79.0,20.0,,,HRV,HRV_0067,2022-11-30 17:56:23
,wl-rdm,138,383932,0.0-8.20-0.20,1.0,138.0,,,,,,,[],,,,,,56.4,0.0,i,1.0,False,661.2999999523163,40.0,60.0,40.0,False,,206.01273161584265,[],"[960, 540]",ColorTask,78.0,21.0,,,HRV,HRV_0067,2022-11-30 17:56:23
,wl-rdm,139,386051,0.0-8.21-0.21,1.0,139.0,,,,,,,[],,,,,,87.9,0.0,u,0.0,True,697.3000001907349,42.0,60.0,40.0,False,,363.0913520511982,[],"[960, 540]",ColorTask,79.0,22.0,,,HRV,HRV_0067,2022-11-30 17:56:23
,wl-rdm,140,387919,0.0-8.22-0.22,1.0,140.0,,,,,,,[],,,,,,87.9,0.0,u,0.0,True,549.7999999523163,33.0,60.0,40.0,False,,255.7435112371519,[],"[960, 540]",ColorTask,80.0,23.0,,,HRV,HRV_0067,2022-11-30 17:56:23
,wl-rdm,141,389855,0.0-8.23-0.23,1.0,141.0,,,,,,,[],,,,,,73.6,1.0,i,1.0,True,495.60000014305115,30.0,60.0,40.0,False,,370.2990975905198,[],"[960, 540]",ColorTask,81.0,24.0,,,HRV,HRV_0067,2022-11-30 17:56:23
,wl-rdm,142,391740,0.0-8.24-0.24,1.0,142.0,,,,,,,[],,,,,,73.6,1.0,i,1.0,True,593.7000000476837,36.0,60.0,40.0,False,,228.67098042162056,[],"[960, 540]",ColorTask,82.0,25.0,,,HRV,HRV_0067,2022-11-30 17:56:23
,wl-rdm,143,393992,0.0-8.25-0.25,1.0,143.0,,,,,,,[],,,,,,62.5,1.0,i,1.0,True,946.5,57.0,60.0,40.0,False,,234.97878869510913,[],"[960, 540]",ColorTask,83.0,26.0,,,HRV,HRV_0067,2022-11-30 17:56:23
,wl-rdm,144,396060,0.0-8.26-0.26,1.0,144.0,,,,,,,[],,,,,,53.2,0.0,u,0.0,True,732.0999999046326,44.0,60.0,40.0,False,,268.75131187788025,[],"[960, 540]",ColorTask,84.0,27.0,,,HRV,HRV_0067,2022-11-30 17:56:23
,wl-rdm,145,398446,0.0-8.27-0.27,1.0,145.0,,,,,,,[],,,,,,50.0,0.0,i,1.0,False,999.3999998569489,60.0,60.0,40.0,False,,322.42859246205245,[],"[960, 540]",ColorTask,83.0,28.0,,,HRV,HRV_0067,2022-11-30 17:56:23
,wl-rdm,146,400531,0.0-8.28-0.28,1.0,146.0,,,,,,,[],,,,,,62.5,0.0,u,0.0,True,787.9000000953674,48.0,60.0,40.0,False,,228.67276520151404,[],"[960, 540]",ColorTask,84.0,29.0,,,HRV,HRV_0067,2022-11-30 17:56:23
,wl-rdm,147,402533,0.0-8.29-0.29,1.0,147.0,,,,,,,[],,,,,,73.6,0.0,u,0.0,True,559.2000000476837,34.0,60.0,40.0,False,,382.8510233058136,[],"[960, 540]",ColorTask,85.0,30.0,,,HRV,HRV_0067,2022-11-30 17:56:23
,wl-rdm,148,404669,0.0-8.30-0.30,1.0,148.0,,,,,,,[],,,,,,50.0,1.0,i,1.0,True,748.7000000476837,45.0,60.0,40.0,False,,324.3940565543446,[],"[960, 540]",ColorTask,86.0,31.0,,,HRV,HRV_0067,2022-11-30 17:56:23
,wl-rdm,149,406871,0.0-8.31-0.31,1.0,149.0,,,,,,,[],,,,,,53.2,1.0,i,1.0,True,772.2999997138977,47.0,60.0,40.0,False,,360.7457501580588,[],"[960, 540]",ColorTask,87.0,32.0,,,HRV,HRV_0067,2022-11-30 17:56:23
,wl-rdm,150,409124,0.0-8.32-0.32,1.0,150.0,,,,,,,[],,,,,,56.4,0.0,u,0.0,True,793.0999999046326,48.0,60.0,40.0,False,,392.65668523336865,[],"[960, 540]",ColorTask,88.0,33.0,,,HRV,HRV_0067,2022-11-30 17:56:23
,wl-rdm,151,411109,0.0-8.33-0.33,1.0,151.0,,,,,,,[],,,,,,87.9,1.0,i,1.0,True,659.0,40.0,60.0,40.0,False,,255.67762820579318,[],"[960, 540]",ColorTask,89.0,34.0,,,HRV,HRV_0067,2022-11-30 17:56:23
,wl-rdm,152,413211,0.0-8.34-0.34,1.0,152.0,,,,,,,[],,,,,,62.5,1.0,u,0.0,False,790.2999999523163,48.0,60.0,40.0,False,,236.84146325897322,[],"[960, 540]",ColorTask,88.0,35.0,,,HRV,HRV_0067,2022-11-30 17:56:23
,wl-rdm,153,415263,0.0-8.35-0.35,1.0,153.0,,,,,,,[],,,,,,50.0,0.0,u,0.0,True,688.8999998569489,42.0,60.0,40.0,False,,297.0343894860663,[],"[960, 540]",ColorTask,89.0,36.0,,,HRV,HRV_0067,2022-11-30 17:56:23
,wl-rdm,154,417432,0.0-8.36-0.36,1.0,154.0,,,,,,,[],,,,,,56.4,0.0,u,0.0,True,746.4000000953674,45.0,60.0,40.0,False,,350.95544858625397,[],"[960, 540]",ColorTask,90.0,37.0,,,HRV,HRV_0067,2022-11-30 17:56:23
,wl-rdm,155,419884,0.0-8.37-0.37,1.0,155.0,,,,,,,[],,,,,,62.5,0.0,u,0.0,True,1151.8999998569489,70.0,60.0,40.0,False,,228.82720791599198,[],"[960, 540]",ColorTask,91.0,38.0,,,HRV,HRV_0067,2022-11-30 17:56:23
,wl-rdm,156,421836,0.0-8.38-0.38,1.0,156.0,,,,,,,[],,,,,,56.4,1.0,i,1.0,True,682.1999998092651,41.0,60.0,40.0,False,,203.59461543857202,[],"[960, 540]",ColorTask,92.0,39.0,,,HRV,HRV_0067,2022-11-30 17:56:23
,wl-rdm,157,424055,0.0-8.39-0.39,1.0,157.0,,,,,,,[],,,,,,50.0,1.0,i,1.0,True,859.0999999046326,52.0,60.0,40.0,False,,298.8288945432421,[],"[960, 540]",ColorTask,93.0,40.0,,,HRV,HRV_0067,2022-11-30 17:56:23
,wl-rdm,158,426141,0.0-8.40-0.40,1.0,158.0,,,,,,,[],,,,,,62.5,0.0,u,0.0,True,678.6999998092651,41.0,60.0,40.0,False,,341.87237124527996,[],"[960, 540]",ColorTask,94.0,41.0,,,HRV,HRV_0067,2022-11-30 17:56:23
,wl-rdm,159,428043,0.0-8.41-0.41,1.0,159.0,,,,,,,[],,,,,,87.9,0.0,u,0.0,True,588.400000333786,36.0,60.0,40.0,False,,235.05323007115493,[],"[960, 540]",ColorTask,95.0,42.0,,,HRV,HRV_0067,2022-11-30 17:56:23
,wl-rdm,160,429894,0.0-8.42-0.42,1.0,160.0,,,,,,,[],,,,,,73.6,1.0,i,1.0,True,504.2999999523163,31.0,60.0,40.0,False,,280.75609643950867,[],"[960, 540]",ColorTask,96.0,43.0,,,HRV,HRV_0067,2022-11-30 17:56:23
,wl-rdm,161,431796,0.0-8.43-0.43,1.0,161.0,,,,,,,[],,,,,,73.6,1.0,i,1.0,True,622.0999999046326,38.0,60.0,40.0,False,,204.76943143496334,[],"[960, 540]",ColorTask,97.0,44.0,,,HRV,HRV_0067,2022-11-30 17:56:23
,wl-rdm,162,433698,0.0-8.44-0.44,1.0,162.0,,,,,,,[],,,,,,56.4,1.0,i,1.0,True,591.3999998569489,36.0,60.0,40.0,False,,249.6693288959686,[],"[960, 540]",ColorTask,98.0,45.0,,,HRV,HRV_0067,2022-11-30 17:56:23
,wl-rdm,163,435733,0.0-8.45-0.45,1.0,163.0,,,,,,,[],,,,,,56.4,1.0,i,1.0,True,731.1999998092651,44.0,60.0,40.0,False,,237.13192119695043,[],"[960, 540]",ColorTask,99.0,46.0,,,HRV,HRV_0067,2022-11-30 17:56:23
,wl-rdm,164,437668,0.0-8.46-0.46,1.0,164.0,,,,,,,[],,,,,,50.0,1.0,i,1.0,True,579.2999999523163,35.0,60.0,40.0,False,,287.6231783465031,[],"[960, 540]",ColorTask,100.0,47.0,,,HRV,HRV_0067,2022-11-30 17:56:23
,wl-rdm,165,439554,0.0-8.47-0.47,1.0,165.0,,,,,,,[],,,,,,87.9,0.0,u,0.0,True,497.7000000476837,30.0,60.0,40.0,False,,325.90624602752393,[],"[960, 540]",ColorTask,101.0,48.0,,,HRV,HRV_0067,2022-11-30 17:56:23
,wl-rdm,166,441456,0.0-8.48-0.48,1.0,166.0,,,,,,,[],,,,,,62.5,1.0,i,1.0,True,560.4000000953674,34.0,60.0,40.0,False,,282.5954798695498,[],"[960, 540]",ColorTask,102.0,49.0,,,HRV,HRV_0067,2022-11-30 17:56:23
,wl-rdm,167,443558,0.0-8.49-0.49,1.0,167.0,,,,,,,[],,,,,,56.4,1.0,u,0.0,False,756.0,46.0,60.0,40.0,False,,275.6784812261403,[],"[960, 540]",ColorTask,101.0,50.0,,,HRV,HRV_0067,2022-11-30 17:56:23
,wl-rdm,168,445593,0.0-8.50-0.50,1.0,168.0,,,,,,,[],,,,,,62.5,1.0,i,1.0,True,659.7000000476837,40.0,60.0,40.0,False,,308.01194513752523,[],"[960, 540]",ColorTask,102.0,51.0,,,HRV,HRV_0067,2022-11-30 17:56:23
,wl-rdm,169,447946,0.0-8.51-0.51,1.0,169.0,,,,,,,[],,,,,,53.2,0.0,i,1.0,False,894.5999999046326,54.0,60.0,40.0,False,,395.45570402028625,[],"[960, 540]",ColorTask,101.0,52.0,,,HRV,HRV_0067,2022-11-30 17:56:23
,wl-rdm,170,450198,0.0-8.52-0.52,1.0,170.0,,,,,,,[],,,,,,53.2,1.0,i,1.0,True,870.2000000476837,53.0,60.0,40.0,False,,302.4250418147571,[],"[960, 540]",ColorTask,102.0,53.0,,,HRV,HRV_0067,2022-11-30 17:56:23
,wl-rdm,171,452366,0.0-8.53-0.53,1.0,171.0,,,,,,,[],,,,,,50.0,1.0,u,0.0,False,794.8999998569489,48.0,60.0,40.0,False,,313.28117700949224,[],"[960, 540]",ColorTask,101.0,54.0,,,HRV,HRV_0067,2022-11-30 17:56:23
,wl-rdm,172,454652,0.0-8.54-0.54,1.0,172.0,,,,,,,[],,,,,,50.0,1.0,i,1.0,True,852.7999999523163,52.0,60.0,40.0,False,,362.5479179731096,[],"[960, 540]",ColorTask,102.0,55.0,,,HRV,HRV_0067,2022-11-30 17:56:23
,wl-rdm,173,456972,0.0-8.55-0.55,1.0,173.0,,,,,,,[],,,,,,56.4,1.0,u,0.0,False,927.2999999523163,56.0,60.0,40.0,False,,326.90766930449684,[],"[960, 540]",ColorTask,101.0,56.0,,,HRV,HRV_0067,2022-11-30 17:56:23
,wl-rdm,174,459107,0.0-8.56-0.56,1.0,174.0,,,,,,,[],,,,,,73.6,1.0,i,1.0,True,835.2000000476837,51.0,60.0,40.0,False,,217.92940489571683,[],"[960, 540]",ColorTask,102.0,57.0,,,HRV,HRV_0067,2022-11-30 17:56:23
,wl-rdm,175,461109,0.0-8.57-0.57,1.0,175.0,,,,,,,[],,,,,,73.6,1.0,i,1.0,True,688.2000000476837,42.0,60.0,40.0,False,,249.71820631330183,[],"[960, 540]",ColorTask,103.0,58.0,,,HRV,HRV_0067,2022-11-30 17:56:23
,wl-rdm,176,463044,0.0-8.58-0.58,1.0,176.0,,,,,,,[],,,,,,73.6,0.0,u,0.0,True,653.5999999046326,40.0,60.0,40.0,False,,203.34514319033826,[],"[960, 540]",ColorTask,104.0,59.0,,,HRV,HRV_0067,2022-11-30 17:56:23
,wl-rdm,177,465030,0.0-8.59-0.59,1.0,177.0,,,,,,,[],,,,,,56.4,1.0,i,1.0,True,686.8999998569489,42.0,60.0,40.0,False,,227.9261076845057,[],"[960, 540]",ColorTask,105.0,60.0,,,HRV,HRV_0067,2022-11-30 17:56:23
,wl-rdm,178,466931,0.0-8.60-0.60,1.0,178.0,,,,,,,[],,,,,,87.9,1.0,i,1.0,True,602.2999999523163,37.0,60.0,40.0,False,,218.6950077502997,[],"[960, 540]",ColorTask,106.0,61.0,,,HRV,HRV_0067,2022-11-30 17:56:23
,wl-rdm,179,468783,0.0-8.61-0.61,1.0,179.0,,,,,,,[],,,,,,87.9,1.0,i,1.0,True,530.3999998569489,32.0,60.0,40.0,False,,265.92655171551974,[],"[960, 540]",ColorTask,107.0,62.0,,,HRV,HRV_0067,2022-11-30 17:56:23
,wl-rdm,180,470518,0.0-8.62-0.62,1.0,180.0,,,,,,,[],,,,,,87.9,1.0,i,1.0,True,437.2999999523163,27.0,60.0,40.0,False,,224.2843607034002,[],"[960, 540]",ColorTask,108.0,63.0,,,HRV,HRV_0067,2022-11-30 17:56:23
,wl-rdm,181,472737,0.0-8.63-0.63,1.0,181.0,,,,,,,[],,,,,,53.2,0.0,i,1.0,False,944.3999998569489,57.0,60.0,40.0,False,,216.3176949984914,[],"[960, 540]",ColorTask,107.0,64.0,,,HRV,HRV_0067,2022-11-30 17:56:23
,wl-rdm,182,474823,0.0-8.64-0.64,1.0,182.0,,,,,,,[],,,,,,73.6,0.0,u,0.0,True,779.2000000476837,47.0,60.0,40.0,False,,247.5269236950945,[],"[960, 540]",ColorTask,108.0,65.0,,,HRV,HRV_0067,2022-11-30 17:56:23
,wl-rdm,183,476908,0.0-8.65-0.65,1.0,183.0,,,,,,,[],,,,,,53.2,0.0,i,1.0,False,806.9000000953674,49.0,60.0,40.0,False,,200.17570826416883,[],"[960, 540]",ColorTask,107.0,66.0,,,HRV,HRV_0067,2022-11-30 17:56:23
,wl-rdm,184,479661,0.0-8.66-0.66,1.0,184.0,,,,,,,[],,,,,,56.4,0.0,i,1.0,False,1337.2000000476837,81.0,60.0,40.0,False,,335.0383539654081,[],"[960, 540]",ColorTask,106.0,67.0,,,HRV,HRV_0067,2022-11-30 17:56:23
,wl-rdm,185,481513,0.0-8.67-0.67,1.0,185.0,,,,,,,[],,,,,,87.9,1.0,i,1.0,True,494.2000000476837,30.0,60.0,40.0,False,,298.0176865595583,[],"[960, 540]",ColorTask,107.0,68.0,,,HRV,HRV_0067,2022-11-30 17:56:23
,wl-rdm,186,483782,0.0-8.68-0.68,1.0,186.0,,,,,,,[],,,,,,53.2,1.0,u,0.0,False,996.5999999046326,60.0,60.0,40.0,False,,202.05624101204248,[],"[960, 540]",ColorTask,106.0,69.0,,,HRV,HRV_0067,2022-11-30 17:56:23
,wl-rdm,187,485967,0.0-8.69-0.69,1.0,187.0,,,,,,,[],,,,,,62.5,0.0,u,0.0,True,750.4000000953674,45.0,60.0,40.0,False,,373.0267524414892,[],"[960, 540]",ColorTask,107.0,70.0,,,HRV,HRV_0067,2022-11-30 17:56:23
,wl-rdm,188,488453,0.0-8.70-0.70,1.0,188.0,,,,,,,[],,,,,,56.4,0.0,u,0.0,True,1108.6000001430511,67.0,60.0,40.0,False,,313.38134599488455,[],"[960, 540]",ColorTask,108.0,71.0,,,HRV,HRV_0067,2022-11-30 17:56:23
,wl-rdm,189,491272,0.0-8.71-0.71,1.0,189.0,,,,,,,[],,,,,,62.5,0.0,u,0.0,True,1413.7999999523163,85.0,60.0,40.0,False,,342.7112568229267,[],"[960, 540]",ColorTask,109.0,72.0,,,HRV,HRV_0067,2022-11-30 17:56:23
,wl-rdm,190,493541,0.0-8.72-0.72,1.0,190.0,,,,,,,[],,,,,,73.6,0.0,u,0.0,True,814.5,49.0,60.0,40.0,False,,386.3129216978881,[],"[960, 540]",ColorTask,110.0,73.0,,,HRV,HRV_0067,2022-11-30 17:56:23
,wl-rdm,191,495844,0.0-8.73-0.73,1.0,191.0,,,,,,,[],,,,,,53.2,0.0,i,1.0,False,986.2999999523163,60.0,60.0,40.0,False,,240.72254207545927,[],"[960, 540]",ColorTask,109.0,74.0,,,HRV,HRV_0067,2022-11-30 17:56:23
,wl-rdm,192,498229,0.0-8.74-0.74,1.0,192.0,,,,,,,[],,,,,,50.0,0.0,u,0.0,True,928.6000001430511,56.0,60.0,40.0,False,,390.9108990521082,[],"[960, 540]",ColorTask,110.0,75.0,,,HRV,HRV_0067,2022-11-30 17:56:23
,wl-rdm,193,500749,0.0-8.75-0.75,1.0,193.0,,,,,,,[],,,,,,53.2,1.0,u,0.0,False,1212.7999999523163,73.0,60.0,40.0,False,,243.10023142259143,[],"[960, 540]",ColorTask,109.0,76.0,,,HRV,HRV_0067,2022-11-30 17:56:23
,wl-rdm,194,502867,0.0-8.76-0.76,1.0,194.0,,,,,,,[],,,,,,50.0,0.0,i,1.0,False,796.5,48.0,60.0,40.0,False,,253.91796473239154,[],"[960, 540]",ColorTask,108.0,77.0,,,HRV,HRV_0067,2022-11-30 17:56:23
,wl-rdm,195,505203,0.0-8.77-0.77,1.0,195.0,,,,,,,[],,,,,,53.2,1.0,i,1.0,True,928.2000000476837,56.0,60.0,40.0,False,,349.23235454133504,[],"[960, 540]",ColorTask,109.0,78.0,,,HRV,HRV_0067,2022-11-30 17:56:23
,wl-rdm,196,507405,0.0-8.78-0.78,1.0,196.0,,,,,,,[],,,,,,53.2,1.0,i,1.0,True,844.5,51.0,60.0,40.0,False,,285.6826375811778,[],"[960, 540]",ColorTask,110.0,79.0,,,HRV,HRV_0067,2022-11-30 17:56:23
,wl-rdm,197,509473,0.0-8.79-0.79,1.0,197.0,,,,,,,[],,,,,,62.5,0.0,u,0.0,True,643.7000000476837,39.0,60.0,40.0,False,,358.840923735019,[],"[960, 540]",ColorTask,111.0,80.0,,,HRV,HRV_0067,2022-11-30 17:56:23
,wl-rdm,198,511559,0.0-8.80-0.80,1.0,198.0,,,,,,,[],,,,,,87.9,0.0,u,0.0,True,816.9000000953674,49.0,60.0,40.0,False,,214.20966199554243,[],"[960, 540]",ColorTask,112.0,81.0,,,HRV,HRV_0067,2022-11-30 17:56:23
,wl-rdm,199,513444,0.0-8.81-0.81,1.0,199.0,,,,,,,[],,,,,,56.4,1.0,i,1.0,True,596.7999999523163,36.0,60.0,40.0,False,,228.0717868816663,[],"[960, 540]",ColorTask,113.0,82.0,,,HRV,HRV_0067,2022-11-30 17:56:23
,wl-rdm,200,515597,0.0-8.82-0.82,1.0,200.0,,,,,,,[],,,,,,50.0,1.0,i,1.0,True,689.9000000953674,42.0,60.0,40.0,False,,398.3226931183543,[],"[960, 540]",ColorTask,114.0,83.0,,,HRV,HRV_0067,2022-11-30 17:56:23
,wl-rdm,201,517565,0.0-8.83-0.83,1.0,201.0,,,,,,,[],,,,,,73.6,0.0,u,0.0,True,651.0000002384186,39.0,60.0,40.0,False,,234.68036181721953,[],"[960, 540]",ColorTask,115.0,84.0,,,HRV,HRV_0067,2022-11-30 17:56:23
,wl-rdm,202,519818,0.0-8.84-0.84,1.0,202.0,,,,,,,[],,,,,,53.2,0.0,u,0.0,True,801.9999997615814,49.0,60.0,40.0,False,,378.73348222423783,[],"[960, 540]",ColorTask,116.0,85.0,,,HRV,HRV_0067,2022-11-30 17:56:23
,wl-rdm,203,521886,0.0-8.85-0.85,1.0,203.0,,,,,,,[],,,,,,87.9,0.0,u,0.0,True,781.4000000953674,47.0,60.0,40.0,False,,232.68784800500055,[],"[960, 540]",ColorTask,117.0,86.0,,,HRV,HRV_0067,2022-11-30 17:56:23
,wl-rdm,204,524005,0.0-8.86-0.86,1.0,204.0,,,,,,,[],,,,,,87.9,0.0,u,0.0,True,671.7000000476837,41.0,60.0,40.0,False,,370.5827177842811,[],"[960, 540]",ColorTask,118.0,87.0,,,HRV,HRV_0067,2022-11-30 17:56:23
,wl-rdm,205,526324,0.0-8.87-0.87,1.0,205.0,,,,,,,[],,,,,,56.4,1.0,i,1.0,True,1039.6000001430511,63.0,60.0,40.0,False,,201.5775251314211,[],"[960, 540]",ColorTask,119.0,88.0,,,HRV,HRV_0067,2022-11-30 17:56:23
,wl-rdm,206,528226,0.0-8.88-0.88,1.0,206.0,,,,,,,[],,,,,,87.9,1.0,i,1.0,True,561.7999999523163,34.0,60.0,40.0,False,,279.3627781550916,[],"[960, 540]",ColorTask,120.0,89.0,,,HRV,HRV_0067,2022-11-30 17:56:23
,wl-rdm,207,530478,0.0-8.89-0.89,1.0,207.0,,,,,,,[],,,,,,62.5,0.0,i,1.0,False,907.7000000476837,55.0,60.0,40.0,False,,276.22945121460805,[],"[960, 540]",ColorTask,119.0,90.0,,,HRV,HRV_0067,2022-11-30 17:56:23
,wl-rdm,208,532630,0.0-8.90-0.90,1.0,208.0,,,,,,,[],,,,,,56.4,0.0,u,0.0,True,846.7999999523163,51.0,60.0,40.0,False,,249.16613634027385,[],"[960, 540]",ColorTask,120.0,91.0,,,HRV,HRV_0067,2022-11-30 17:56:23
,wl-rdm,209,534849,0.0-8.91-0.91,1.0,209.0,,,,,,,[],,,,,,62.5,1.0,i,1.0,True,798.1000001430511,48.0,60.0,40.0,False,,358.94013475656595,[],"[960, 540]",ColorTask,121.0,92.0,,,HRV,HRV_0067,2022-11-30 17:56:23
,wl-rdm,210,536968,0.0-8.92-0.92,1.0,210.0,,,,,,,[],,,,,,73.6,1.0,i,1.0,True,842.8000001907349,51.0,60.0,40.0,False,,210.16703235676823,[],"[960, 540]",ColorTask,122.0,93.0,,,HRV,HRV_0067,2022-11-30 17:56:23
,wl-rdm,211,539220,0.0-8.93-0.93,1.0,211.0,,,,,,,[],,,,,,50.0,0.0,u,0.0,True,868.2000000476837,53.0,60.0,40.0,False,,309.4976399979626,[],"[960, 540]",ColorTask,123.0,94.0,,,HRV,HRV_0067,2022-11-30 17:56:23
,wl-rdm,212,541339,0.0-8.94-0.94,1.0,212.0,,,,,,,[],,,,,,87.9,1.0,i,1.0,True,657.9000000953674,40.0,60.0,40.0,False,,384.88210523896134,[],"[960, 540]",ColorTask,124.0,95.0,,,HRV,HRV_0067,2022-11-30 17:56:23
,wl-rdm,213,543307,0.0-8.95-0.95,1.0,213.0,,,,,,,[],,,,,,62.5,1.0,i,1.0,True,694.0999999046326,42.0,60.0,40.0,False,,211.3232411333074,[],"[960, 540]",ColorTask,125.0,96.0,,,HRV,HRV_0067,2022-11-30 17:56:23
,wl-rdm,214,545326,0.0-8.96-0.96,1.0,214.0,,,,,,,[],,,,,,62.5,1.0,i,1.0,True,691.1000001430511,42.0,60.0,40.0,False,,260.758844719499,[],"[960, 540]",ColorTask,126.0,97.0,,,HRV,HRV_0067,2022-11-30 17:56:23
,wl-rdm,215,547244,0.0-8.97-0.97,1.0,215.0,,,,,,,[],,,,,,73.6,0.0,u,0.0,True,599.5999999046326,36.0,60.0,40.0,False,,258.17389119386905,[],"[960, 540]",ColorTask,127.0,98.0,,,HRV,HRV_0067,2022-11-30 17:56:23
,wl-rdm,216,549597,0.0-8.98-0.98,1.0,216.0,,,,,,,[],,,,,,50.0,1.0,u,0.0,False,1021.4000000953674,62.0,60.0,40.0,False,,263.77536022473976,[],"[960, 540]",ColorTask,126.0,99.0,,,HRV,HRV_0067,2022-11-30 17:56:23
,wl-rdm,217,551633,0.0-8.99-0.99,1.0,217.0,,,,,,,[],,,,,,73.6,1.0,i,1.0,True,657.0,40.0,60.0,40.0,False,,310.27239399586813,[],"[960, 540]",ColorTask,127.0,100.0,,,HRV,HRV_0067,2022-11-30 17:56:23
,wl-rdm,218,553618,0.0-8.100-0.100,1.0,218.0,,,,,,,[],,,,,,50.0,0.0,i,1.0,False,711.4000000953674,43.0,60.0,40.0,False,,203.97989738901651,[],"[960, 540]",ColorTask,126.0,101.0,,,HRV,HRV_0067,2022-11-30 17:56:23
,wl-rdm,219,555669,0.0-8.101-0.101,1.0,219.0,,,,,,,[],,,,,,53.2,0.0,u,0.0,True,626.5,38.0,60.0,40.0,False,,361.6777686087702,[],"[960, 540]",ColorTask,127.0,102.0,,,HRV,HRV_0067,2022-11-30 17:56:23
,wl-rdm,220,557622,0.0-8.102-0.102,1.0,220.0,,,,,,,[],,,,,,53.2,1.0,i,1.0,True,682.4000000953674,41.0,60.0,40.0,False,,208.6618055310151,[],"[960, 540]",ColorTask,128.0,103.0,,,HRV,HRV_0067,2022-11-30 17:56:23
,wl-rdm,221,559523,0.0-8.103-0.103,1.0,221.0,,,,,,,[],,,,,,56.4,0.0,u,0.0,True,628.7999999523163,38.0,60.0,40.0,False,,201.68188240539988,[],"[960, 540]",ColorTask,129.0,104.0,,,HRV,HRV_0067,2022-11-30 17:56:23
,wl-rdm,222,561692,0.0-8.104-0.104,1.0,222.0,,,,,,,[],,,,,,53.2,1.0,u,0.0,False,742.7999999523163,45.0,60.0,40.0,False,,351.87100638155334,[],"[960, 540]",ColorTask,128.0,105.0,,,HRV,HRV_0067,2022-11-30 17:56:23
,wl-rdm,223,563544,0.0-8.105-0.105,1.0,223.0,,,,,,,[],,,,,,87.9,1.0,i,1.0,True,575.5999999046326,35.0,60.0,40.0,False,,213.4042700904065,[],"[960, 540]",ColorTask,129.0,106.0,,,HRV,HRV_0067,2022-11-30 17:56:23
,wl-rdm,224,565596,0.0-8.106-0.106,1.0,224.0,,,,,,,[],,,,,,50.0,1.0,i,1.0,True,697.5,42.0,60.0,40.0,False,,293.5820311686872,[],"[960, 540]",ColorTask,130.0,107.0,,,HRV,HRV_0067,2022-11-30 17:56:23
,wl-rdm,225,567681,0.0-8.107-0.107,1.0,225.0,,,,,,,[],,,,,,50.0,0.0,u,0.0,True,757.2000000476837,46.0,60.0,40.0,False,,260.4558900056713,[],"[960, 540]",ColorTask,131.0,108.0,,,HRV,HRV_0067,2022-11-30 17:56:23
,wl-html-button-response,226,571824,0.0-9.0-0.0,,,,,,,,,,4140.299999952316,,0,,,,,,,,,,,,,,,,,,,,<h3>End of this session. Thank you!</h3><br>,['Close window'],HRV,HRV_0067,2022-11-30 17:56:23
