trialN,stimuli,trialStartTime,trialStartTime_UNIX,stimulus1,stimulus2,stimulus1Bid,stimulus2Bid,delta,selected,rt,rt_UNIX,rt_perfnow,receivedResponse,rsp,trialEndTime,trialDuration,trialEndTime_UNIX,trialDuration_UNIX,exp,subjectId,date
0,"[{'imgObject': {}, 'id': 'veggieswithdip', 'src': '/static/foodstim60/veggieswithdip.jpg', 'key': 'u', 'origWidth': 409, 'origHeight': 409, 'width': 409, 'height': 409, 'widthPercent': 0.45, 'rescaleHeight': False, 'trialN': 0, 'loaded': True, 'loadedTime': 2356.400000002235, 'positionName': 'LEFT', 'positionCoords': [328.28, 227.5], 'bid': 5.42}, {'imgObject': {}, 'id': 'omelette', 'src': '/static/foodstim60/omelette.jpg', 'key': 'i', 'origWidth': 410, 'origHeight': 409, 'width': 410, 'height': 409, 'widthPercent': 0.45, 'rescaleHeight': False, 'trialN': 0, 'loaded': True, 'loadedTime': 2406.10000000149, 'positionName': 'RIGHT', 'positionCoords': [798.72, 227.5], 'bid': 5.92}]",2822.699999999255,1669832864791,veggieswithdip,omelette,5.42,5.92,0.5,omelette,1229.5,1230,1230.1000000014901,True,i,4574.400000002235,1751.7000000029802,1669832866543,1752,HRV,HRV_0194,2022-11-30 18:32:49
1,"[{'imgObject': {}, 'id': 'steak', 'src': '/static/foodstim60/steak.jpg', 'key': 'u', 'origWidth': 410, 'origHeight': 410, 'width': 410, 'height': 410, 'widthPercent': 0.45, 'rescaleHeight': False, 'trialN': 1, 'loaded': True, 'loadedTime': 2407.800000000745, 'positionName': 'LEFT', 'positionCoords': [327.28, 227], 'bid': 5}, {'imgObject': {}, 'id': 'chickenfingers', 'src': '/static/foodstim60/chickenfingers.jpg', 'key': 'i', 'origWidth': 410, 'origHeight': 410, 'width': 410, 'height': 410, 'widthPercent': 0.45, 'rescaleHeight': False, 'trialN': 1, 'loaded': True, 'loadedTime': 2409.10000000149, 'positionName': 'RIGHT', 'positionCoords': [798.72, 227], 'bid': 5.03}]",4574.800000000745,1669832866543,steak,chickenfingers,5.0,5.03,0.03000000000000025,steak,1148.8999999985099,1149,1149.5,True,u,6225.60000000149,1650.800000000745,1669832868194,1651,HRV,HRV_0194,2022-11-30 18:32:49
2,"[{'imgObject': {}, 'id': 'veggieswithdip', 'src': '/static/foodstim60/veggieswithdip.jpg', 'key': 'u', 'origWidth': 409, 'origHeight': 409, 'width': 409, 'height': 409, 'widthPercent': 0.45, 'rescaleHeight': False, 'trialN': 2, 'loaded': True, 'loadedTime': 2338.5, 'positionName': 'LEFT', 'positionCoords': [328.28, 227.5], 'bid': 5.42}, {'imgObject': {}, 'id': 'Tribe humus pita', 'src': '/static/foodstim60/Tribe humus pita.jpg', 'key': 'i', 'origWidth': 411, 'origHeight': 411, 'width': 411, 'height': 411, 'widthPercent': 0.45, 'rescaleHeight': False, 'trialN': 2, 'loaded': True, 'loadedTime': 2411.699999999255, 'positionName': 'RIGHT', 'positionCoords': [798.72, 226.5], 'bid': 6.9}]",6225.800000000745,1669832868194,veggieswithdip,Tribe humus pita,5.42,6.9,1.4800000000000004,veggieswithdip,1040.699999999255,1041,1041.199999999255,True,u,7781.900000002235,1556.1000000014901,1669832869750,1556,HRV,HRV_0194,2022-11-30 18:32:49
3,"[{'imgObject': {}, 'id': 'orange slices', 'src': '/static/foodstim60/orange slices.jpg', 'key': 'u', 'origWidth': 409, 'origHeight': 410, 'width': 409, 'height': 410, 'widthPercent': 0.45, 'rescaleHeight': False, 'trialN': 3, 'loaded': True, 'loadedTime': 2414.300000000745, 'positionName': 'LEFT', 'positionCoords': [328.28, 227], 'bid': 6.74}, {'imgObject': {}, 'id': 'luckycharms', 'src': '/static/foodstim60/luckycharms.jpg', 'key': 'i', 'origWidth': 410, 'origHeight': 409, 'width': 410, 'height': 409, 'widthPercent': 0.45, 'rescaleHeight': False, 'trialN': 3, 'loaded': True, 'loadedTime': 2418.60000000149, 'positionName': 'RIGHT', 'positionCoords': [798.72, 227.5], 'bid': 1.99}]",7782.10000000149,1669832869750,orange slices,luckycharms,6.74,1.99,-4.75,orange slices,643.5,644,643.8000000007451,True,u,8934.400000002235,1152.300000000745,1669832870903,1153,HRV,HRV_0194,2022-11-30 18:32:49
4,"[{'imgObject': {}, 'id': 'eggsalad', 'src': '/static/foodstim60/eggsalad.jpg', 'key': 'u', 'origWidth': 410, 'origHeight': 409, 'width': 410, 'height': 409, 'widthPercent': 0.45, 'rescaleHeight': False, 'trialN': 4, 'loaded': True, 'loadedTime': 2418.900000002235, 'positionName': 'LEFT', 'positionCoords': [327.28, 227.5], 'bid': 0.48}, {'imgObject': {}, 'id': 'cheerios', 'src': '/static/foodstim60/cheerios.jpg', 'key': 'i', 'origWidth': 409, 'origHeight': 410, 'width': 409, 'height': 410, 'widthPercent': 0.45, 'rescaleHeight': False, 'trialN': 4, 'loaded': True, 'loadedTime': 2421.10000000149, 'positionName': 'RIGHT', 'positionCoords': [798.72, 227], 'bid': 1.14}]",8934.900000002235,1669832870903,eggsalad,cheerios,0.48,1.14,0.6599999999999999,eggsalad,969.5,970,970.0999999977648,True,u,10423.900000002235,1489.0,1669832872392,1489,HRV,HRV_0194,2022-11-30 18:32:49
5,"[{'imgObject': {}, 'id': 'salad w chicken', 'src': '/static/foodstim60/salad w chicken.jpg', 'key': 'u', 'origWidth': 411, 'origHeight': 411, 'width': 411, 'height': 411, 'widthPercent': 0.45, 'rescaleHeight': False, 'trialN': 5, 'loaded': True, 'loadedTime': 2433.800000000745, 'positionName': 'LEFT', 'positionCoords': [326.28, 226.5], 'bid': 9.93}, {'imgObject': {}, 'id': 'strawberries', 'src': '/static/foodstim60/strawberries.jpg', 'key': 'i', 'origWidth': 410, 'origHeight': 410, 'width': 410, 'height': 410, 'widthPercent': 0.45, 'rescaleHeight': False, 'trialN': 5, 'loaded': True, 'loadedTime': 2435.5, 'positionName': 'RIGHT', 'positionCoords': [798.72, 227], 'bid': 9.93}]",10424.10000000149,1669832872392,salad w chicken,strawberries,9.93,9.93,0.0,strawberries,1416.5,1417,1417.0,True,i,12355.0,1930.8999999985099,1669832874323,1931,HRV,HRV_0194,2022-11-30 18:32:49
6,"[{'imgObject': {}, 'id': 'cocktailshrimp', 'src': '/static/foodstim60/cocktailshrimp.jpg', 'key': 'u', 'origWidth': 410, 'origHeight': 410, 'width': 410, 'height': 410, 'widthPercent': 0.45, 'rescaleHeight': False, 'trialN': 6, 'loaded': True, 'loadedTime': 2461, 'positionName': 'LEFT', 'positionCoords': [327.28, 227], 'bid': 4.68}, {'imgObject': {}, 'id': 'chickenfingers', 'src': '/static/foodstim60/chickenfingers.jpg', 'key': 'i', 'origWidth': 410, 'origHeight': 410, 'width': 410, 'height': 410, 'widthPercent': 0.45, 'rescaleHeight': False, 'trialN': 6, 'loaded': True, 'loadedTime': 2409.199999999255, 'positionName': 'RIGHT', 'positionCoords': [798.72, 227], 'bid': 5.03}]",12355.199999999255,1669832874323,cocktailshrimp,chickenfingers,4.68,5.03,0.35000000000000053,chickenfingers,972.8000000007451,974,973.3000000007451,True,i,13844.400000002235,1489.2000000029802,1669832875813,1490,HRV,HRV_0194,2022-11-30 18:32:49
7,"[{'imgObject': {}, 'id': 'fried eggs', 'src': '/static/foodstim60/fried eggs.jpg', 'key': 'u', 'origWidth': 410, 'origHeight': 410, 'width': 410, 'height': 410, 'widthPercent': 0.45, 'rescaleHeight': False, 'trialN': 7, 'loaded': True, 'loadedTime': 2491.400000002235, 'positionName': 'LEFT', 'positionCoords': [327.28, 227], 'bid': 4.37}, {'imgObject': {}, 'id': 'ice cream sundae 002', 'src': '/static/foodstim60/ice cream sundae 002.jpg', 'key': 'i', 'origWidth': 409, 'origHeight': 409, 'width': 409, 'height': 409, 'widthPercent': 0.45, 'rescaleHeight': False, 'trialN': 7, 'loaded': True, 'loadedTime': 2529.699999999255, 'positionName': 'RIGHT', 'positionCoords': [798.72, 227.5], 'bid': 4.53}]",13844.699999999255,1669832875813,fried eggs,ice cream sundae 002,4.37,4.53,0.16000000000000014,ice cream sundae 002,1165.6000000014901,1166,1165.9000000022352,True,i,15521.800000000745,1677.1000000014901,1669832877490,1677,HRV,HRV_0194,2022-11-30 18:32:49
8,"[{'imgObject': {}, 'id': 'mashed potato', 'src': '/static/foodstim60/mashed potato.jpg', 'key': 'u', 'origWidth': 409, 'origHeight': 409, 'width': 409, 'height': 409, 'widthPercent': 0.45, 'rescaleHeight': False, 'trialN': 8, 'loaded': True, 'loadedTime': 2531, 'positionName': 'LEFT', 'positionCoords': [328.28, 227.5], 'bid': 3.91}, {'imgObject': {}, 'id': 'turkeysandwich', 'src': '/static/foodstim60/turkeysandwich.jpg', 'key': 'i', 'origWidth': 409, 'origHeight': 409, 'width': 409, 'height': 409, 'widthPercent': 0.45, 'rescaleHeight': False, 'trialN': 8, 'loaded': True, 'loadedTime': 2572.199999999255, 'positionName': 'RIGHT', 'positionCoords': [798.72, 227.5], 'bid': 7.6}]",15521.900000002235,1669832877490,mashed potato,turkeysandwich,3.91,7.6,3.6899999999999995,turkeysandwich,892.0999999977648,893,892.5999999977648,True,i,16921.5,1399.5999999977648,1669832878890,1400,HRV,HRV_0194,2022-11-30 18:32:49
9,"[{'imgObject': {}, 'id': 'mashed potato', 'src': '/static/foodstim60/mashed potato.jpg', 'key': 'u', 'origWidth': 409, 'origHeight': 409, 'width': 409, 'height': 409, 'widthPercent': 0.45, 'rescaleHeight': False, 'trialN': 9, 'loaded': True, 'loadedTime': 2549.5, 'positionName': 'LEFT', 'positionCoords': [328.28, 227.5], 'bid': 3.91}, {'imgObject': {}, 'id': 'cantaloupe', 'src': '/static/foodstim60/cantaloupe.jpg', 'key': 'i', 'origWidth': 409, 'origHeight': 409, 'width': 409, 'height': 409, 'widthPercent': 0.45, 'rescaleHeight': False, 'trialN': 9, 'loaded': True, 'loadedTime': 2580.10000000149, 'positionName': 'RIGHT', 'positionCoords': [798.72, 227.5], 'bid': 4.21}]",16921.699999999255,1669832878890,mashed potato,cantaloupe,3.91,4.21,0.2999999999999998,cantaloupe,1375.2000000029802,1376,1375.7000000029802,True,i,18803.400000002235,1881.7000000029802,1669832880772,1882,HRV,HRV_0194,2022-11-30 18:32:49
10,"[{'imgObject': {}, 'id': 'rigatoni', 'src': '/static/foodstim60/rigatoni.jpg', 'key': 'u', 'origWidth': 411, 'origHeight': 411, 'width': 411, 'height': 411, 'widthPercent': 0.45, 'rescaleHeight': False, 'trialN': 10, 'loaded': True, 'loadedTime': 2583.800000000745, 'positionName': 'LEFT', 'positionCoords': [326.28, 226.5], 'bid': 8.63}, {'imgObject': {}, 'id': 'steak', 'src': '/static/foodstim60/steak.jpg', 'key': 'i', 'origWidth': 410, 'origHeight': 410, 'width': 410, 'height': 410, 'widthPercent': 0.45, 'rescaleHeight': False, 'trialN': 10, 'loaded': True, 'loadedTime': 2407.699999999255, 'positionName': 'RIGHT', 'positionCoords': [798.72, 227], 'bid': 5}]",18803.699999999255,1669832880772,rigatoni,steak,8.63,5.0,-3.630000000000001,rigatoni,1470.800000000745,1471,1471.300000000745,True,u,20790.0,1986.300000000745,1669832882758,1986,HRV,HRV_0194,2022-11-30 18:32:49
11,"[{'imgObject': {}, 'id': 'edamame', 'src': '/static/foodstim60/edamame.jpg', 'key': 'u', 'origWidth': 409, 'origHeight': 410, 'width': 409, 'height': 410, 'widthPercent': 0.45, 'rescaleHeight': False, 'trialN': 11, 'loaded': True, 'loadedTime': 2590.60000000149, 'positionName': 'LEFT', 'positionCoords': [328.28, 227], 'bid': 2.34}, {'imgObject': {}, 'id': 'cantaloupe', 'src': '/static/foodstim60/cantaloupe.jpg', 'key': 'i', 'origWidth': 409, 'origHeight': 409, 'width': 409, 'height': 409, 'widthPercent': 0.45, 'rescaleHeight': False, 'trialN': 11, 'loaded': True, 'loadedTime': 2580.900000002235, 'positionName': 'RIGHT', 'positionCoords': [798.72, 227.5], 'bid': 4.21}]",20790.5,1669832882759,edamame,cantaloupe,2.34,4.21,1.87,edamame,1263.4000000022352,1264,1263.9000000022352,True,u,22563.199999999255,1772.699999999255,1669832884531,1772,HRV,HRV_0194,2022-11-30 18:32:49
12,"[{'imgObject': {}, 'id': 'blueberries', 'src': '/static/foodstim60/blueberries.jpg', 'key': 'u', 'origWidth': 411, 'origHeight': 411, 'width': 411, 'height': 411, 'widthPercent': 0.45, 'rescaleHeight': False, 'trialN': 12, 'loaded': True, 'loadedTime': 2604.300000000745, 'positionName': 'LEFT', 'positionCoords': [326.28, 226.5], 'bid': 5.33}, {'imgObject': {}, 'id': 'veggieswithdip', 'src': '/static/foodstim60/veggieswithdip.jpg', 'key': 'i', 'origWidth': 409, 'origHeight': 409, 'width': 409, 'height': 409, 'widthPercent': 0.45, 'rescaleHeight': False, 'trialN': 12, 'loaded': True, 'loadedTime': 2339.5, 'positionName': 'RIGHT', 'positionCoords': [798.72, 227.5], 'bid': 5.42}]",22563.400000002235,1669832884532,blueberries,veggieswithdip,5.33,5.42,0.08999999999999986,blueberries,1425.8999999985099,1426,1426.3999999985099,True,u,24503.699999999255,1940.2999999970198,1669832886472,1940,HRV,HRV_0194,2022-11-30 18:32:49
13,"[{'imgObject': {}, 'id': 'cherry tomato', 'src': '/static/foodstim60/cherry tomato.jpg', 'key': 'u', 'origWidth': 410, 'origHeight': 410, 'width': 410, 'height': 410, 'widthPercent': 0.45, 'rescaleHeight': False, 'trialN': 13, 'loaded': True, 'loadedTime': 2605.199999999255, 'positionName': 'LEFT', 'positionCoords': [327.28, 227], 'bid': 0.26}, {'imgObject': {}, 'id': 'hashbrowns', 'src': '/static/foodstim60/hashbrowns.jpg', 'key': 'i', 'origWidth': 411, 'origHeight': 410, 'width': 411, 'height': 410, 'widthPercent': 0.45, 'rescaleHeight': False, 'trialN': 13, 'loaded': True, 'loadedTime': 2621.199999999255, 'positionName': 'RIGHT', 'positionCoords': [798.72, 227], 'bid': 1.05}]",24504.0,1669832886472,cherry tomato,hashbrowns,0.26,1.05,0.79,cherry tomato,1163.199999999255,1164,1163.699999999255,True,u,26183.300000000745,1679.300000000745,1669832888151,1679,HRV,HRV_0194,2022-11-30 18:32:49
14,"[{'imgObject': {}, 'id': 'veggieswithdip', 'src': '/static/foodstim60/veggieswithdip.jpg', 'key': 'u', 'origWidth': 409, 'origHeight': 409, 'width': 409, 'height': 409, 'widthPercent': 0.45, 'rescaleHeight': False, 'trialN': 14, 'loaded': True, 'loadedTime': 2339, 'positionName': 'LEFT', 'positionCoords': [328.28, 227.5], 'bid': 5.42}, {'imgObject': {}, 'id': 'salad w chicken', 'src': '/static/foodstim60/salad w chicken.jpg', 'key': 'i', 'origWidth': 411, 'origHeight': 411, 'width': 411, 'height': 411, 'widthPercent': 0.45, 'rescaleHeight': False, 'trialN': 14, 'loaded': True, 'loadedTime': 2433.400000002235, 'positionName': 'RIGHT', 'positionCoords': [798.72, 226.5], 'bid': 9.93}]",26183.699999999255,1669832888152,veggieswithdip,salad w chicken,5.42,9.93,4.51,salad w chicken,1375.7000000029802,1376,1376.2000000029802,True,i,28072.300000000745,1888.6000000014901,1669832890040,1888,HRV,HRV_0194,2022-11-30 18:32:49
15,"[{'imgObject': {}, 'id': 'raspberries', 'src': '/static/foodstim60/raspberries.jpg', 'key': 'u', 'origWidth': 411, 'origHeight': 411, 'width': 411, 'height': 411, 'widthPercent': 0.45, 'rescaleHeight': False, 'trialN': 15, 'loaded': True, 'loadedTime': 2625.400000002235, 'positionName': 'LEFT', 'positionCoords': [326.28, 226.5], 'bid': 4.98}, {'imgObject': {}, 'id': 'raisin bran w milk', 'src': '/static/foodstim60/raisin bran w milk.jpg', 'key': 'i', 'origWidth': 411, 'origHeight': 411, 'width': 411, 'height': 411, 'widthPercent': 0.45, 'rescaleHeight': False, 'trialN': 15, 'loaded': True, 'loadedTime': 2647.800000000745, 'positionName': 'RIGHT', 'positionCoords': [798.72, 226.5], 'bid': 0.03}]",28072.5,1669832890041,raspberries,raisin bran w milk,4.98,0.03,-4.95,raspberries,1059.6000000014901,1060,1060.199999999255,True,u,29641.699999999255,1569.199999999255,1669832891610,1569,HRV,HRV_0194,2022-11-30 18:32:49
16,"[{'imgObject': {}, 'id': 'fruitsalad', 'src': '/static/foodstim60/fruitsalad.jpg', 'key': 'u', 'origWidth': 410, 'origHeight': 410, 'width': 410, 'height': 410, 'widthPercent': 0.45, 'rescaleHeight': False, 'trialN': 16, 'loaded': True, 'loadedTime': 2665.699999999255, 'positionName': 'LEFT', 'positionCoords': [327.28, 227], 'bid': 4.58}, {'imgObject': {}, 'id': 'fried eggs', 'src': '/static/foodstim60/fried eggs.jpg', 'key': 'i', 'origWidth': 410, 'origHeight': 410, 'width': 410, 'height': 410, 'widthPercent': 0.45, 'rescaleHeight': False, 'trialN': 16, 'loaded': True, 'loadedTime': 2513.300000000745, 'positionName': 'RIGHT', 'positionCoords': [798.72, 227], 'bid': 4.37}]",29642.0,1669832891610,fruitsalad,fried eggs,4.58,4.37,-0.20999999999999996,fruitsalad,1137.699999999255,1138,1138.1000000014901,True,u,31289.900000002235,1647.9000000022352,1669832893258,1648,HRV,HRV_0194,2022-11-30 18:32:49
17,"[{'imgObject': {}, 'id': 'hotdog w must', 'src': '/static/foodstim60/hotdog w must.jpg', 'key': 'u', 'origWidth': 409, 'origHeight': 409, 'width': 409, 'height': 409, 'widthPercent': 0.45, 'rescaleHeight': False, 'trialN': 17, 'loaded': True, 'loadedTime': 2690, 'positionName': 'LEFT', 'positionCoords': [328.28, 227.5], 'bid': 0.05}, {'imgObject': {}, 'id': 'baked potato', 'src': '/static/foodstim60/baked potato.jpg', 'key': 'i', 'origWidth': 409, 'origHeight': 410, 'width': 409, 'height': 410, 'widthPercent': 0.45, 'rescaleHeight': False, 'trialN': 17, 'loaded': True, 'loadedTime': 2386.199999999255, 'positionName': 'RIGHT', 'positionCoords': [798.72, 227], 'bid': 1.54}]",31290.199999999255,1669832893258,hotdog w must,baked potato,0.05,1.54,1.49,baked potato,1093.1000000014901,1094,1093.5,True,i,32901.5,1611.300000000745,1669832894870,1612,HRV,HRV_0194,2022-11-30 18:32:49
18,"[{'imgObject': {}, 'id': 'banana', 'src': '/static/foodstim60/banana.jpg', 'key': 'u', 'origWidth': 410, 'origHeight': 410, 'width': 410, 'height': 410, 'widthPercent': 0.45, 'rescaleHeight': False, 'trialN': 18, 'loaded': True, 'loadedTime': 2394.60000000149, 'positionName': 'LEFT', 'positionCoords': [327.28, 227], 'bid': 4.98}, {'imgObject': {}, 'id': 'cocktailshrimp', 'src': '/static/foodstim60/cocktailshrimp.jpg', 'key': 'i', 'origWidth': 410, 'origHeight': 410, 'width': 410, 'height': 410, 'widthPercent': 0.45, 'rescaleHeight': False, 'trialN': 18, 'loaded': True, 'loadedTime': 2464, 'positionName': 'RIGHT', 'positionCoords': [798.72, 227], 'bid': 4.68}]",32901.699999999255,1669832894870,banana,cocktailshrimp,4.98,4.68,-0.3000000000000007,banana,784.5,785,785.1000000014901,True,u,34203.900000002235,1302.2000000029802,1669832896172,1302,HRV,HRV_0194,2022-11-30 18:32:49
19,"[{'imgObject': {}, 'id': 'apple slices', 'src': '/static/foodstim60/apple slices.jpg', 'key': 'u', 'origWidth': 409, 'origHeight': 410, 'width': 409, 'height': 410, 'widthPercent': 0.45, 'rescaleHeight': False, 'trialN': 19, 'loaded': True, 'loadedTime': 2402.10000000149, 'positionName': 'LEFT', 'positionCoords': [328.28, 227], 'bid': 6.0200000000000005}, {'imgObject': {}, 'id': 'orange slices', 'src': '/static/foodstim60/orange slices.jpg', 'key': 'i', 'origWidth': 409, 'origHeight': 410, 'width': 409, 'height': 410, 'widthPercent': 0.45, 'rescaleHeight': False, 'trialN': 19, 'loaded': True, 'loadedTime': 2414.5, 'positionName': 'RIGHT', 'positionCoords': [798.72, 227], 'bid': 6.74}]",34204.199999999255,1669832896172,apple slices,orange slices,6.0200000000000005,6.74,0.7199999999999998,orange slices,880.3000000007451,881,880.8000000007451,True,i,35603.900000002235,1399.7000000029802,1669832897572,1400,HRV,HRV_0194,2022-11-30 18:32:49
20,"[{'imgObject': {}, 'id': 'steak', 'src': '/static/foodstim60/steak.jpg', 'key': 'u', 'origWidth': 410, 'origHeight': 410, 'width': 410, 'height': 410, 'widthPercent': 0.45, 'rescaleHeight': False, 'trialN': 20, 'loaded': True, 'loadedTime': 2407.400000002235, 'positionName': 'LEFT', 'positionCoords': [327.28, 227], 'bid': 5}, {'imgObject': {}, 'id': 'cherries', 'src': '/static/foodstim60/cherries.jpg', 'key': 'i', 'origWidth': 410, 'origHeight': 411, 'width': 410, 'height': 411, 'widthPercent': 0.45, 'rescaleHeight': False, 'trialN': 20, 'loaded': True, 'loadedTime': 2404.60000000149, 'positionName': 'RIGHT', 'positionCoords': [798.72, 226.5], 'bid': 0.15}]",35604.199999999255,1669832897572,steak,cherries,5.0,0.15,-4.85,steak,798.2000000029802,799,798.7000000029802,True,u,36910.5,1306.300000000745,1669832898879,1307,HRV,HRV_0194,2022-11-30 18:32:49
21,"[{'imgObject': {}, 'id': 'salmon', 'src': '/static/foodstim60/salmon.jpg', 'key': 'u', 'origWidth': 410, 'origHeight': 409, 'width': 410, 'height': 409, 'widthPercent': 0.45, 'rescaleHeight': False, 'trialN': 21, 'loaded': True, 'loadedTime': 2413.10000000149, 'positionName': 'LEFT', 'positionCoords': [327.28, 227.5], 'bid': 5.03}, {'imgObject': {}, 'id': 'cherry tomato', 'src': '/static/foodstim60/cherry tomato.jpg', 'key': 'i', 'origWidth': 410, 'origHeight': 410, 'width': 410, 'height': 410, 'widthPercent': 0.45, 'rescaleHeight': False, 'trialN': 21, 'loaded': True, 'loadedTime': 2621, 'positionName': 'RIGHT', 'positionCoords': [798.72, 227], 'bid': 0.26}]",36910.900000002235,1669832898879,salmon,cherry tomato,5.03,0.26,-4.7700000000000005,salmon,1413.5,1414,1414.0,True,u,38837.10000000149,1926.199999999255,1669832900805,1926,HRV,HRV_0194,2022-11-30 18:32:49
22,"[{'imgObject': {}, 'id': 'rigatoni and sauce', 'src': '/static/foodstim60/rigatoni and sauce.jpg', 'key': 'u', 'origWidth': 410, 'origHeight': 411, 'width': 410, 'height': 411, 'widthPercent': 0.45, 'rescaleHeight': False, 'trialN': 22, 'loaded': True, 'loadedTime': 2414.60000000149, 'positionName': 'LEFT', 'positionCoords': [327.28, 226.5], 'bid': 7.31}, {'imgObject': {}, 'id': 'mango', 'src': '/static/foodstim60/mango.jpg', 'key': 'i', 'origWidth': 411, 'origHeight': 411, 'width': 411, 'height': 411, 'widthPercent': 0.45, 'rescaleHeight': False, 'trialN': 22, 'loaded': True, 'loadedTime': 2491, 'positionName': 'RIGHT', 'positionCoords': [798.72, 226.5], 'bid': 3.0700000000000003}]",38837.400000002235,1669832900806,rigatoni and sauce,mango,7.31,3.0700000000000003,-4.239999999999999,rigatoni and sauce,756.1999999992549,756,756.6999999992549,True,u,40096.699999999255,1259.2999999970198,1669832902065,1259,HRV,HRV_0194,2022-11-30 18:32:49
23,"[{'imgObject': {}, 'id': 'cherry tomato', 'src': '/static/foodstim60/cherry tomato.jpg', 'key': 'u', 'origWidth': 410, 'origHeight': 410, 'width': 410, 'height': 410, 'widthPercent': 0.45, 'rescaleHeight': False, 'trialN': 23, 'loaded': True, 'loadedTime': 2620.699999999255, 'positionName': 'LEFT', 'positionCoords': [327.28, 227], 'bid': 0.26}, {'imgObject': {}, 'id': 'shreddedwheatwithmilk', 'src': '/static/foodstim60/shreddedwheatwithmilk.jpg', 'key': 'i', 'origWidth': 410, 'origHeight': 410, 'width': 410, 'height': 410, 'widthPercent': 0.45, 'rescaleHeight': False, 'trialN': 23, 'loaded': True, 'loadedTime': 2567.60000000149, 'positionName': 'RIGHT', 'positionCoords': [798.72, 227], 'bid': 2.42}]",40097.0,1669832902065,cherry tomato,shreddedwheatwithmilk,0.26,2.42,2.16,shreddedwheatwithmilk,1470.800000000745,1472,1471.300000000745,True,i,42085.699999999255,1988.699999999255,1669832904054,1989,HRV,HRV_0194,2022-11-30 18:32:49
24,"[{'imgObject': {}, 'id': 'tacos', 'src': '/static/foodstim60/tacos.jpg', 'key': 'u', 'origWidth': 411, 'origHeight': 411, 'width': 411, 'height': 411, 'widthPercent': 0.45, 'rescaleHeight': False, 'trialN': 24, 'loaded': True, 'loadedTime': 2576.10000000149, 'positionName': 'LEFT', 'positionCoords': [326.28, 226.5], 'bid': 4.68}, {'imgObject': {}, 'id': 'cocktailshrimp', 'src': '/static/foodstim60/cocktailshrimp.jpg', 'key': 'i', 'origWidth': 410, 'origHeight': 410, 'width': 410, 'height': 410, 'widthPercent': 0.45, 'rescaleHeight': False, 'trialN': 24, 'loaded': True, 'loadedTime': 2462.60000000149, 'positionName': 'RIGHT', 'positionCoords': [798.72, 227], 'bid': 4.68}]",42086.0,1669832904054,tacos,cocktailshrimp,4.68,4.68,0.0,cocktailshrimp,1657.5,1658,1658.0,True,i,44262.400000002235,2176.400000002235,1669832906231,2177,HRV,HRV_0194,2022-11-30 18:32:49
25,"[{'imgObject': {}, 'id': 'lox', 'src': '/static/foodstim60/lox.jpg', 'key': 'u', 'origWidth': 410, 'origHeight': 411, 'width': 410, 'height': 411, 'widthPercent': 0.45, 'rescaleHeight': False, 'trialN': 25, 'loaded': True, 'loadedTime': 2586.699999999255, 'positionName': 'LEFT', 'positionCoords': [327.28, 226.5], 'bid': 0}, {'imgObject': {}, 'id': 'burger', 'src': '/static/foodstim60/burger.jpg', 'key': 'i', 'origWidth': 409, 'origHeight': 409, 'width': 409, 'height': 409, 'widthPercent': 0.45, 'rescaleHeight': False, 'trialN': 25, 'loaded': True, 'loadedTime': 2688, 'positionName': 'RIGHT', 'positionCoords': [798.72, 227.5], 'bid': 1.38}]",44262.699999999255,1669832906231,lox,burger,0.0,1.38,1.38,burger,1008.5,1009,1009.0,True,i,45785.0,1522.300000000745,1669832907753,1522,HRV,HRV_0194,2022-11-30 18:32:49
26,"[{'imgObject': {}, 'id': 'baked potato', 'src': '/static/foodstim60/baked potato.jpg', 'key': 'u', 'origWidth': 409, 'origHeight': 410, 'width': 409, 'height': 410, 'widthPercent': 0.45, 'rescaleHeight': False, 'trialN': 26, 'loaded': True, 'loadedTime': 2366.199999999255, 'positionName': 'LEFT', 'positionCoords': [328.28, 227], 'bid': 1.54}, {'imgObject': {}, 'id': 'granola w milk', 'src': '/static/foodstim60/granola w milk.jpg', 'key': 'i', 'origWidth': 410, 'origHeight': 410, 'width': 410, 'height': 410, 'widthPercent': 0.45, 'rescaleHeight': False, 'trialN': 26, 'loaded': True, 'loadedTime': 2713.10000000149, 'positionName': 'RIGHT', 'positionCoords': [798.72, 227], 'bid': 0}]",45785.199999999255,1669832907753,baked potato,granola w milk,1.54,0.0,-1.54,baked potato,1028.9000000022352,1030,1029.300000000745,True,u,47324.400000002235,1539.2000000029802,1669832909293,1540,HRV,HRV_0194,2022-11-30 18:32:49
27,"[{'imgObject': {}, 'id': 'fruitsalad', 'src': '/static/foodstim60/fruitsalad.jpg', 'key': 'u', 'origWidth': 410, 'origHeight': 410, 'width': 410, 'height': 410, 'widthPercent': 0.45, 'rescaleHeight': False, 'trialN': 27, 'loaded': True, 'loadedTime': 2665.400000002235, 'positionName': 'LEFT', 'positionCoords': [327.28, 227], 'bid': 4.58}, {'imgObject': {}, 'id': 'popsicles', 'src': '/static/foodstim60/popsicles.jpg', 'key': 'i', 'origWidth': 410, 'origHeight': 410, 'width': 410, 'height': 410, 'widthPercent': 0.45, 'rescaleHeight': False, 'trialN': 27, 'loaded': True, 'loadedTime': 2716.800000000745, 'positionName': 'RIGHT', 'positionCoords': [798.72, 227], 'bid': 4.8}]",47324.60000000149,1669832909293,fruitsalad,popsicles,4.58,4.8,0.21999999999999975,popsicles,1172.0999999977648,1172,1172.5,True,i,49001.5,1676.8999999985099,1669832910970,1677,HRV,HRV_0194,2022-11-30 18:32:49
28,"[{'imgObject': {}, 'id': 'apple slices', 'src': '/static/foodstim60/apple slices.jpg', 'key': 'u', 'origWidth': 409, 'origHeight': 410, 'width': 409, 'height': 410, 'widthPercent': 0.45, 'rescaleHeight': False, 'trialN': 28, 'loaded': True, 'loadedTime': 2400.400000002235, 'positionName': 'LEFT', 'positionCoords': [328.28, 227], 'bid': 6.0200000000000005}, {'imgObject': {}, 'id': 'sushi w_condiments', 'src': '/static/foodstim60/sushi w_condiments.jpg', 'key': 'i', 'origWidth': 410, 'origHeight': 410, 'width': 410, 'height': 410, 'widthPercent': 0.45, 'rescaleHeight': False, 'trialN': 28, 'loaded': True, 'loadedTime': 2732.60000000149, 'positionName': 'RIGHT', 'positionCoords': [798.72, 227], 'bid': 6.13}]",49001.60000000149,1669832910970,apple slices,sushi w_condiments,6.0200000000000005,6.13,0.10999999999999943,apple slices,1023.3999999985099,1024,1023.8999999985099,True,u,50540.300000000745,1538.699999999255,1669832912509,1539,HRV,HRV_0194,2022-11-30 18:32:49
29,"[{'imgObject': {}, 'id': 'kiwi', 'src': '/static/foodstim60/kiwi.jpg', 'key': 'u', 'origWidth': 410, 'origHeight': 410, 'width': 410, 'height': 410, 'widthPercent': 0.45, 'rescaleHeight': False, 'trialN': 29, 'loaded': True, 'loadedTime': 2734.400000002235, 'positionName': 'LEFT', 'positionCoords': [327.28, 227], 'bid': 3.99}, {'imgObject': {}, 'id': 'popsicles', 'src': '/static/foodstim60/popsicles.jpg', 'key': 'i', 'origWidth': 410, 'origHeight': 410, 'width': 410, 'height': 410, 'widthPercent': 0.45, 'rescaleHeight': False, 'trialN': 29, 'loaded': True, 'loadedTime': 2715.400000002235, 'positionName': 'RIGHT', 'positionCoords': [798.72, 227], 'bid': 4.8}]",50540.699999999255,1669832912509,kiwi,popsicles,3.99,4.8,0.8099999999999996,popsicles,1366.300000000745,1367,1367.0,True,i,52418.900000002235,1878.2000000029802,1669832914387,1878,HRV,HRV_0194,2022-11-30 18:32:49
30,"[{'imgObject': {}, 'id': 'raspberries', 'src': '/static/foodstim60/raspberries.jpg', 'key': 'u', 'origWidth': 411, 'origHeight': 411, 'width': 411, 'height': 411, 'widthPercent': 0.45, 'rescaleHeight': False, 'trialN': 30, 'loaded': True, 'loadedTime': 2624.699999999255, 'positionName': 'LEFT', 'positionCoords': [326.28, 226.5], 'bid': 4.98}, {'imgObject': {}, 'id': 'fried eggs', 'src': '/static/foodstim60/fried eggs.jpg', 'key': 'i', 'origWidth': 410, 'origHeight': 410, 'width': 410, 'height': 410, 'widthPercent': 0.45, 'rescaleHeight': False, 'trialN': 30, 'loaded': True, 'loadedTime': 2513.10000000149, 'positionName': 'RIGHT', 'positionCoords': [798.72, 227], 'bid': 4.37}]",52419.199999999255,1669832914387,raspberries,fried eggs,4.98,4.37,-0.6100000000000003,raspberries,1146.300000000745,1147,1146.7000000029802,True,u,54080.900000002235,1661.7000000029802,1669832916049,1662,HRV,HRV_0194,2022-11-30 18:32:49
31,"[{'imgObject': {}, 'id': 'burger', 'src': '/static/foodstim60/burger.jpg', 'key': 'u', 'origWidth': 409, 'origHeight': 409, 'width': 409, 'height': 409, 'widthPercent': 0.45, 'rescaleHeight': False, 'trialN': 31, 'loaded': True, 'loadedTime': 2667.199999999255, 'positionName': 'LEFT', 'positionCoords': [328.28, 227.5], 'bid': 1.38}, {'imgObject': {}, 'id': 'omelette', 'src': '/static/foodstim60/omelette.jpg', 'key': 'i', 'origWidth': 410, 'origHeight': 409, 'width': 410, 'height': 409, 'widthPercent': 0.45, 'rescaleHeight': False, 'trialN': 31, 'loaded': True, 'loadedTime': 2405.400000002235, 'positionName': 'RIGHT', 'positionCoords': [798.72, 227.5], 'bid': 5.92}]",54081.10000000149,1669832916049,burger,omelette,1.38,5.92,4.54,omelette,852.6999999992549,853,853.0999999977648,True,i,55450.60000000149,1369.5,1669832917419,1370,HRV,HRV_0194,2022-11-30 18:32:49
32,"[{'imgObject': {}, 'id': 'salmon', 'src': '/static/foodstim60/salmon.jpg', 'key': 'u', 'origWidth': 410, 'origHeight': 409, 'width': 410, 'height': 409, 'widthPercent': 0.45, 'rescaleHeight': False, 'trialN': 32, 'loaded': True, 'loadedTime': 2413.10000000149, 'positionName': 'LEFT', 'positionCoords': [327.28, 227.5], 'bid': 5.03}, {'imgObject': {}, 'id': 'chickenfingers', 'src': '/static/foodstim60/chickenfingers.jpg', 'key': 'i', 'origWidth': 410, 'origHeight': 410, 'width': 410, 'height': 410, 'widthPercent': 0.45, 'rescaleHeight': False, 'trialN': 32, 'loaded': True, 'loadedTime': 2409.400000002235, 'positionName': 'RIGHT', 'positionCoords': [798.72, 227], 'bid': 5.03}]",55450.800000000745,1669832917419,salmon,chickenfingers,5.03,5.03,0.0,chickenfingers,1385.8999999985099,1386,1386.5,True,i,57346.699999999255,1895.8999999985099,1669832919315,1896,HRV,HRV_0194,2022-11-30 18:32:49
33,"[{'imgObject': {}, 'id': 'froot loops w milk', 'src': '/static/foodstim60/froot loops w milk.jpg', 'key': 'u', 'origWidth': 410, 'origHeight': 410, 'width': 410, 'height': 410, 'widthPercent': 0.45, 'rescaleHeight': False, 'trialN': 33, 'loaded': True, 'loadedTime': 2735.400000002235, 'positionName': 'LEFT', 'positionCoords': [327.28, 227], 'bid': 1.18}, {'imgObject': {}, 'id': 'burger', 'src': '/static/foodstim60/burger.jpg', 'key': 'i', 'origWidth': 409, 'origHeight': 409, 'width': 409, 'height': 409, 'widthPercent': 0.45, 'rescaleHeight': False, 'trialN': 33, 'loaded': True, 'loadedTime': 2667.60000000149, 'positionName': 'RIGHT', 'positionCoords': [798.72, 227.5], 'bid': 1.38}]",57346.900000002235,1669832919315,froot loops w milk,burger,1.18,1.38,0.19999999999999996,froot loops w milk,652.2999999970198,653,652.6999999992549,True,u,58517.199999999255,1170.2999999970198,1669832920486,1171,HRV,HRV_0194,2022-11-30 18:32:49
34,"[{'imgObject': {}, 'id': 'eggs', 'src': '/static/foodstim60/eggs.jpg', 'key': 'u', 'origWidth': 409, 'origHeight': 409, 'width': 409, 'height': 409, 'widthPercent': 0.45, 'rescaleHeight': False, 'trialN': 34, 'loaded': True, 'loadedTime': 2748.300000000745, 'positionName': 'LEFT', 'positionCoords': [328.28, 227.5], 'bid': 2.42}, {'imgObject': {}, 'id': 'shreddedwheatwithmilk', 'src': '/static/foodstim60/shreddedwheatwithmilk.jpg', 'key': 'i', 'origWidth': 410, 'origHeight': 410, 'width': 410, 'height': 410, 'widthPercent': 0.45, 'rescaleHeight': False, 'trialN': 34, 'loaded': True, 'loadedTime': 2551.10000000149, 'positionName': 'RIGHT', 'positionCoords': [798.72, 227], 'bid': 2.42}]",58517.5,1669832920486,eggs,shreddedwheatwithmilk,2.42,2.42,0.0,shreddedwheatwithmilk,1230.1000000014901,1231,1230.699999999255,True,i,60255.699999999255,1738.199999999255,1669832922224,1738,HRV,HRV_0194,2022-11-30 18:32:49
35,"[{'imgObject': {}, 'id': 'turkey sandwich', 'src': '/static/foodstim60/turkey sandwich.jpg', 'key': 'u', 'origWidth': 409, 'origHeight': 409, 'width': 409, 'height': 409, 'widthPercent': 0.45, 'rescaleHeight': False, 'trialN': 35, 'loaded': True, 'loadedTime': 2750.199999999255, 'positionName': 'LEFT', 'positionCoords': [328.28, 227.5], 'bid': 9.23}, {'imgObject': {}, 'id': 'blackbeanswithrice', 'src': '/static/foodstim60/blackbeanswithrice.jpg', 'key': 'i', 'origWidth': 410, 'origHeight': 410, 'width': 410, 'height': 410, 'widthPercent': 0.45, 'rescaleHeight': False, 'trialN': 35, 'loaded': True, 'loadedTime': 2752.199999999255, 'positionName': 'RIGHT', 'positionCoords': [798.72, 227], 'bid': 9.89}]",60255.900000002235,1669832922224,turkey sandwich,blackbeanswithrice,9.23,9.89,0.6600000000000001,turkey sandwich,774.1999999992549,775,774.6999999992549,True,u,61544.5,1288.5999999977648,1669832923513,1289,HRV,HRV_0194,2022-11-30 18:32:49
36,"[{'imgObject': {}, 'id': 'cherries', 'src': '/static/foodstim60/cherries.jpg', 'key': 'u', 'origWidth': 410, 'origHeight': 411, 'width': 410, 'height': 411, 'widthPercent': 0.45, 'rescaleHeight': False, 'trialN': 36, 'loaded': True, 'loadedTime': 2403.199999999255, 'positionName': 'LEFT', 'positionCoords': [327.28, 226.5], 'bid': 0.15}, {'imgObject': {}, 'id': 'olives', 'src': '/static/foodstim60/olives.jpg', 'key': 'i', 'origWidth': 410, 'origHeight': 410, 'width': 410, 'height': 410, 'widthPercent': 0.45, 'rescaleHeight': False, 'trialN': 36, 'loaded': True, 'loadedTime': 2754, 'positionName': 'RIGHT', 'positionCoords': [798.72, 227], 'bid': 0}]",61544.800000000745,1669832923513,cherries,olives,0.15,0.0,-0.15,cherries,1747.300000000745,1748,1747.800000000745,True,u,63814.10000000149,2269.300000000745,1669832925783,2270,HRV,HRV_0194,2022-11-30 18:32:49
37,"[{'imgObject': {}, 'id': 'burrito', 'src': '/static/foodstim60/burrito.jpg', 'key': 'u', 'origWidth': 410, 'origHeight': 410, 'width': 410, 'height': 410, 'widthPercent': 0.45, 'rescaleHeight': False, 'trialN': 37, 'loaded': True, 'loadedTime': 2755.199999999255, 'positionName': 'LEFT', 'positionCoords': [327.28, 227], 'bid': 4.67}, {'imgObject': {}, 'id': 'roastedpotatoes', 'src': '/static/foodstim60/roastedpotatoes.jpg', 'key': 'i', 'origWidth': 409, 'origHeight': 410, 'width': 409, 'height': 410, 'widthPercent': 0.45, 'rescaleHeight': False, 'trialN': 37, 'loaded': True, 'loadedTime': 2774.300000000745, 'positionName': 'RIGHT', 'positionCoords': [798.72, 227], 'bid': 9.97}]",63814.400000002235,1669832925783,burrito,roastedpotatoes,4.67,9.97,5.300000000000001,roastedpotatoes,1035.5,1036,1036.0,True,i,65352.800000000745,1538.3999999985099,1669832927321,1538,HRV,HRV_0194,2022-11-30 18:32:49
38,"[{'imgObject': {}, 'id': 'fried eggs', 'src': '/static/foodstim60/fried eggs.jpg', 'key': 'u', 'origWidth': 410, 'origHeight': 410, 'width': 410, 'height': 410, 'widthPercent': 0.45, 'rescaleHeight': False, 'trialN': 38, 'loaded': True, 'loadedTime': 2512.10000000149, 'positionName': 'LEFT', 'positionCoords': [327.28, 227], 'bid': 4.37}, {'imgObject': {}, 'id': 'chicken nuggets2', 'src': '/static/foodstim60/chicken nuggets2.jpg', 'key': 'i', 'origWidth': 410, 'origHeight': 409, 'width': 410, 'height': 409, 'widthPercent': 0.45, 'rescaleHeight': False, 'trialN': 38, 'loaded': True, 'loadedTime': 2774.60000000149, 'positionName': 'RIGHT', 'positionCoords': [798.72, 227.5], 'bid': 4.68}]",65353.0,1669832927322,fried eggs,chicken nuggets2,4.37,4.68,0.3099999999999996,chicken nuggets2,1125.300000000745,1125,1125.800000000745,True,i,66991.60000000149,1638.6000000014901,1669832928960,1638,HRV,HRV_0194,2022-11-30 18:32:49
39,"[{'imgObject': {}, 'id': 'baked potato', 'src': '/static/foodstim60/baked potato.jpg', 'key': 'u', 'origWidth': 409, 'origHeight': 410, 'width': 409, 'height': 410, 'widthPercent': 0.45, 'rescaleHeight': False, 'trialN': 39, 'loaded': True, 'loadedTime': 2383, 'positionName': 'LEFT', 'positionCoords': [328.28, 227], 'bid': 1.54}, {'imgObject': {}, 'id': 'burger', 'src': '/static/foodstim60/burger.jpg', 'key': 'i', 'origWidth': 409, 'origHeight': 409, 'width': 409, 'height': 409, 'widthPercent': 0.45, 'rescaleHeight': False, 'trialN': 39, 'loaded': True, 'loadedTime': 2687.5, 'positionName': 'RIGHT', 'positionCoords': [798.72, 227.5], 'bid': 1.38}]",66991.69999999925,1669832928960,baked potato,burger,1.54,1.38,-0.16000000000000014,baked potato,909.4000000022352,910,909.9000000022352,True,u,68420.19999999925,1428.5,1669832930389,1429,HRV,HRV_0194,2022-11-30 18:32:49
40,"[{'imgObject': {}, 'id': 'olives', 'src': '/static/foodstim60/olives.jpg', 'key': 'u', 'origWidth': 410, 'origHeight': 410, 'width': 410, 'height': 410, 'widthPercent': 0.45, 'rescaleHeight': False, 'trialN': 40, 'loaded': True, 'loadedTime': 2753.900000002235, 'positionName': 'LEFT', 'positionCoords': [327.28, 227], 'bid': 0}, {'imgObject': {}, 'id': 'cheerios', 'src': '/static/foodstim60/cheerios.jpg', 'key': 'i', 'origWidth': 409, 'origHeight': 410, 'width': 409, 'height': 410, 'widthPercent': 0.45, 'rescaleHeight': False, 'trialN': 40, 'loaded': True, 'loadedTime': 2420.900000002235, 'positionName': 'RIGHT', 'positionCoords': [798.72, 227], 'bid': 1.14}]",68420.30000000075,1669832930389,olives,cheerios,0.0,1.14,1.14,cheerios,914.3999999985099,915,914.8999999985099,True,i,69840.80000000075,1420.5,1669832931809,1420,HRV,HRV_0194,2022-11-30 18:32:49
41,"[{'imgObject': {}, 'id': 'turkey sandwich', 'src': '/static/foodstim60/turkey sandwich.jpg', 'key': 'u', 'origWidth': 409, 'origHeight': 409, 'width': 409, 'height': 409, 'widthPercent': 0.45, 'rescaleHeight': False, 'trialN': 41, 'loaded': True, 'loadedTime': 2750.800000000745, 'positionName': 'LEFT', 'positionCoords': [328.28, 227.5], 'bid': 9.23}, {'imgObject': {}, 'id': 'cantaloupe', 'src': '/static/foodstim60/cantaloupe.jpg', 'key': 'i', 'origWidth': 409, 'origHeight': 409, 'width': 409, 'height': 409, 'widthPercent': 0.45, 'rescaleHeight': False, 'trialN': 41, 'loaded': True, 'loadedTime': 2581.400000002235, 'positionName': 'RIGHT', 'positionCoords': [798.72, 227.5], 'bid': 4.21}]",69841.0,1669832931809,turkey sandwich,cantaloupe,9.23,4.21,-5.0200000000000005,turkey sandwich,736.5,737,736.9000000022352,True,u,71084.69999999925,1243.699999999255,1669832933053,1244,HRV,HRV_0194,2022-11-30 18:32:49
42,"[{'imgObject': {}, 'id': 'rigatoni and sauce', 'src': '/static/foodstim60/rigatoni and sauce.jpg', 'key': 'u', 'origWidth': 410, 'origHeight': 411, 'width': 410, 'height': 411, 'widthPercent': 0.45, 'rescaleHeight': False, 'trialN': 42, 'loaded': True, 'loadedTime': 2415.800000000745, 'positionName': 'LEFT', 'positionCoords': [327.28, 226.5], 'bid': 7.31}, {'imgObject': {}, 'id': 'blueberries', 'src': '/static/foodstim60/blueberries.jpg', 'key': 'i', 'origWidth': 411, 'origHeight': 411, 'width': 411, 'height': 411, 'widthPercent': 0.45, 'rescaleHeight': False, 'trialN': 42, 'loaded': True, 'loadedTime': 2604.400000002235, 'positionName': 'RIGHT', 'positionCoords': [798.72, 226.5], 'bid': 5.33}]",71085.0,1669832933053,rigatoni and sauce,blueberries,7.31,5.33,-1.9799999999999995,rigatoni and sauce,732.1000000014901,733,732.6000000014901,True,u,72334.69999999925,1249.699999999255,1669832934303,1250,HRV,HRV_0194,2022-11-30 18:32:49
43,"[{'imgObject': {}, 'id': 'bagel plain', 'src': '/static/foodstim60/bagel plain.jpg', 'key': 'u', 'origWidth': 410, 'origHeight': 410, 'width': 410, 'height': 410, 'widthPercent': 0.45, 'rescaleHeight': False, 'trialN': 43, 'loaded': True, 'loadedTime': 2775.900000002235, 'positionName': 'LEFT', 'positionCoords': [327.28, 227], 'bid': 5}, {'imgObject': {}, 'id': 'fruitsalad', 'src': '/static/foodstim60/fruitsalad.jpg', 'key': 'i', 'origWidth': 410, 'origHeight': 410, 'width': 410, 'height': 410, 'widthPercent': 0.45, 'rescaleHeight': False, 'trialN': 43, 'loaded': True, 'loadedTime': 2665.699999999255, 'positionName': 'RIGHT', 'positionCoords': [798.72, 227], 'bid': 4.58}]",72334.90000000224,1669832934303,bagel plain,fruitsalad,5.0,4.58,-0.41999999999999993,bagel plain,1053.199999999255,1054,1053.5999999977648,True,u,73896.40000000224,1561.5,1669832935865,1562,HRV,HRV_0194,2022-11-30 18:32:49
44,"[{'imgObject': {}, 'id': 'bagel and cc', 'src': '/static/foodstim60/bagel and cc.jpg', 'key': 'u', 'origWidth': 410, 'origHeight': 410, 'width': 410, 'height': 410, 'widthPercent': 0.45, 'rescaleHeight': False, 'trialN': 44, 'loaded': True, 'loadedTime': 2791.60000000149, 'positionName': 'LEFT', 'positionCoords': [327.28, 227], 'bid': 7.03}, {'imgObject': {}, 'id': 'blackbeanswithrice', 'src': '/static/foodstim60/blackbeanswithrice.jpg', 'key': 'i', 'origWidth': 410, 'origHeight': 410, 'width': 410, 'height': 410, 'widthPercent': 0.45, 'rescaleHeight': False, 'trialN': 44, 'loaded': True, 'loadedTime': 2752.699999999255, 'positionName': 'RIGHT', 'positionCoords': [798.72, 227], 'bid': 9.89}]",73896.60000000149,1669832935865,bagel and cc,blackbeanswithrice,7.03,9.89,2.8600000000000003,blackbeanswithrice,695.5,696,696.0999999977648,True,i,75110.19999999925,1213.5999999977648,1669832937079,1214,HRV,HRV_0194,2022-11-30 18:32:49
45,"[{'imgObject': {}, 'id': 'roastedpotatoes', 'src': '/static/foodstim60/roastedpotatoes.jpg', 'key': 'u', 'origWidth': 409, 'origHeight': 410, 'width': 409, 'height': 410, 'widthPercent': 0.45, 'rescaleHeight': False, 'trialN': 45, 'loaded': True, 'loadedTime': 2772.900000002235, 'positionName': 'LEFT', 'positionCoords': [328.28, 227], 'bid': 9.97}, {'imgObject': {}, 'id': 'pear', 'src': '/static/foodstim60/pear.jpg', 'key': 'i', 'origWidth': 411, 'origHeight': 410, 'width': 411, 'height': 410, 'widthPercent': 0.45, 'rescaleHeight': False, 'trialN': 45, 'loaded': True, 'loadedTime': 2793.60000000149, 'positionName': 'RIGHT', 'positionCoords': [798.72, 227], 'bid': 6.97}]",75110.5,1669832937079,roastedpotatoes,pear,9.97,6.97,-3.000000000000001,roastedpotatoes,935.4000000022352,936,936.0,True,u,76556.10000000149,1445.6000000014901,1669832938525,1446,HRV,HRV_0194,2022-11-30 18:32:49
46,"[{'imgObject': {}, 'id': 'olives', 'src': '/static/foodstim60/olives.jpg', 'key': 'u', 'origWidth': 410, 'origHeight': 410, 'width': 410, 'height': 410, 'widthPercent': 0.45, 'rescaleHeight': False, 'trialN': 46, 'loaded': True, 'loadedTime': 2754.10000000149, 'positionName': 'LEFT', 'positionCoords': [327.28, 227], 'bid': 0}, {'imgObject': {}, 'id': 'granola w milk', 'src': '/static/foodstim60/granola w milk.jpg', 'key': 'i', 'origWidth': 410, 'origHeight': 410, 'width': 410, 'height': 410, 'widthPercent': 0.45, 'rescaleHeight': False, 'trialN': 46, 'loaded': True, 'loadedTime': 2692.800000000745, 'positionName': 'RIGHT', 'positionCoords': [798.72, 227], 'bid': 0}]",76556.40000000224,1669832938525,olives,granola w milk,0.0,0.0,0.0,granola w milk,1286.699999999255,1287,1287.199999999255,True,i,78357.69999999925,1801.2999999970198,1669832940326,1801,HRV,HRV_0194,2022-11-30 18:32:49
47,"[{'imgObject': {}, 'id': 'roastedpotatoes', 'src': '/static/foodstim60/roastedpotatoes.jpg', 'key': 'u', 'origWidth': 409, 'origHeight': 410, 'width': 409, 'height': 410, 'widthPercent': 0.45, 'rescaleHeight': False, 'trialN': 47, 'loaded': True, 'loadedTime': 2774.400000002235, 'positionName': 'LEFT', 'positionCoords': [328.28, 227], 'bid': 9.97}, {'imgObject': {}, 'id': 'salad w chicken', 'src': '/static/foodstim60/salad w chicken.jpg', 'key': 'i', 'origWidth': 411, 'origHeight': 411, 'width': 411, 'height': 411, 'widthPercent': 0.45, 'rescaleHeight': False, 'trialN': 47, 'loaded': True, 'loadedTime': 2422.800000000745, 'positionName': 'RIGHT', 'positionCoords': [798.72, 226.5], 'bid': 9.93}]",78358.0,1669832940326,roastedpotatoes,salad w chicken,9.97,9.93,-0.040000000000000924,roastedpotatoes,927.9000000022352,929,928.5,True,u,79806.69999999925,1448.699999999255,1669832941775,1449,HRV,HRV_0194,2022-11-30 18:32:49
48,"[{'imgObject': {}, 'id': 'chickenfingers', 'src': '/static/foodstim60/chickenfingers.jpg', 'key': 'u', 'origWidth': 410, 'origHeight': 410, 'width': 410, 'height': 410, 'widthPercent': 0.45, 'rescaleHeight': False, 'trialN': 48, 'loaded': True, 'loadedTime': 2408.900000002235, 'positionName': 'LEFT', 'positionCoords': [327.28, 227], 'bid': 5.03}, {'imgObject': {}, 'id': 'corn cob', 'src': '/static/foodstim60/corn cob.jpg', 'key': 'i', 'origWidth': 411, 'origHeight': 411, 'width': 411, 'height': 411, 'widthPercent': 0.45, 'rescaleHeight': False, 'trialN': 48, 'loaded': True, 'loadedTime': 2794.300000000745, 'positionName': 'RIGHT', 'positionCoords': [798.72, 226.5], 'bid': 9.73}]",79806.90000000224,1669832941775,chickenfingers,corn cob,5.03,9.73,4.7,corn cob,987.0999999977648,988,987.5,True,i,81301.19999999925,1494.2999999970198,1669832943270,1495,HRV,HRV_0194,2022-11-30 18:32:49
49,"[{'imgObject': {}, 'id': 'baked potato', 'src': '/static/foodstim60/baked potato.jpg', 'key': 'u', 'origWidth': 409, 'origHeight': 410, 'width': 409, 'height': 410, 'widthPercent': 0.45, 'rescaleHeight': False, 'trialN': 49, 'loaded': True, 'loadedTime': 2366.10000000149, 'positionName': 'LEFT', 'positionCoords': [328.28, 227], 'bid': 1.54}, {'imgObject': {}, 'id': 'mashed potato', 'src': '/static/foodstim60/mashed potato.jpg', 'key': 'i', 'origWidth': 409, 'origHeight': 409, 'width': 409, 'height': 409, 'widthPercent': 0.45, 'rescaleHeight': False, 'trialN': 49, 'loaded': True, 'loadedTime': 2549, 'positionName': 'RIGHT', 'positionCoords': [798.72, 227.5], 'bid': 3.91}]",81301.40000000224,1669832943270,baked potato,mashed potato,1.54,3.91,2.37,baked potato,1200.3999999985099,1201,1200.8999999985099,True,u,83013.40000000224,1712.0,1669832944982,1712,HRV,HRV_0194,2022-11-30 18:32:49
50,"[{'imgObject': {}, 'id': 'seaweed', 'src': '/static/foodstim60/seaweed.jpg', 'key': 'u', 'origWidth': 410, 'origHeight': 410, 'width': 410, 'height': 410, 'widthPercent': 0.45, 'rescaleHeight': False, 'trialN': 50, 'loaded': True, 'loadedTime': 2797.400000002235, 'positionName': 'LEFT', 'positionCoords': [327.28, 227], 'bid': 0.1}, {'imgObject': {}, 'id': 'bagel plain', 'src': '/static/foodstim60/bagel plain.jpg', 'key': 'i', 'origWidth': 410, 'origHeight': 410, 'width': 410, 'height': 410, 'widthPercent': 0.45, 'rescaleHeight': False, 'trialN': 50, 'loaded': True, 'loadedTime': 2776.900000002235, 'positionName': 'RIGHT', 'positionCoords': [798.72, 227], 'bid': 5}]",83013.60000000149,1669832944982,seaweed,bagel plain,0.1,5.0,4.9,bagel plain,801.1999999992549,802,801.5999999977648,True,i,84328.69999999925,1315.0999999977648,1669832946297,1315,HRV,HRV_0194,2022-11-30 18:32:49
51,"[{'imgObject': {}, 'id': 'popsicles', 'src': '/static/foodstim60/popsicles.jpg', 'key': 'u', 'origWidth': 410, 'origHeight': 410, 'width': 410, 'height': 410, 'widthPercent': 0.45, 'rescaleHeight': False, 'trialN': 51, 'loaded': True, 'loadedTime': 2716.300000000745, 'positionName': 'LEFT', 'positionCoords': [327.28, 227], 'bid': 4.8}, {'imgObject': {}, 'id': 'raspberries', 'src': '/static/foodstim60/raspberries.jpg', 'key': 'i', 'origWidth': 411, 'origHeight': 411, 'width': 411, 'height': 411, 'widthPercent': 0.45, 'rescaleHeight': False, 'trialN': 51, 'loaded': True, 'loadedTime': 2623, 'positionName': 'RIGHT', 'positionCoords': [798.72, 226.5], 'bid': 4.98}]",84328.90000000224,1669832946297,popsicles,raspberries,4.8,4.98,0.1800000000000006,popsicles,1054.0,1055,1054.5999999977648,True,u,85894.60000000149,1565.699999999255,1669832947863,1566,HRV,HRV_0194,2022-11-30 18:32:49
52,"[{'imgObject': {}, 'id': 'kiwi', 'src': '/static/foodstim60/kiwi.jpg', 'key': 'u', 'origWidth': 410, 'origHeight': 410, 'width': 410, 'height': 410, 'widthPercent': 0.45, 'rescaleHeight': False, 'trialN': 52, 'loaded': True, 'loadedTime': 2734.400000002235, 'positionName': 'LEFT', 'positionCoords': [327.28, 227], 'bid': 3.99}, {'imgObject': {}, 'id': 'mango', 'src': '/static/foodstim60/mango.jpg', 'key': 'i', 'origWidth': 411, 'origHeight': 411, 'width': 411, 'height': 411, 'widthPercent': 0.45, 'rescaleHeight': False, 'trialN': 52, 'loaded': True, 'loadedTime': 2465.5, 'positionName': 'RIGHT', 'positionCoords': [798.72, 226.5], 'bid': 3.0700000000000003}]",85894.80000000075,1669832947863,kiwi,mango,3.99,3.0700000000000003,-0.9199999999999999,mango,816.6999999992549,818,817.5,True,i,87219.10000000149,1324.300000000745,1669832949188,1325,HRV,HRV_0194,2022-11-30 18:32:49
53,"[{'imgObject': {}, 'id': 'kiwi', 'src': '/static/foodstim60/kiwi.jpg', 'key': 'u', 'origWidth': 410, 'origHeight': 410, 'width': 410, 'height': 410, 'widthPercent': 0.45, 'rescaleHeight': False, 'trialN': 53, 'loaded': True, 'loadedTime': 2734.300000000745, 'positionName': 'LEFT', 'positionCoords': [327.28, 227], 'bid': 3.99}, {'imgObject': {}, 'id': 'rigatoni', 'src': '/static/foodstim60/rigatoni.jpg', 'key': 'i', 'origWidth': 411, 'origHeight': 411, 'width': 411, 'height': 411, 'widthPercent': 0.45, 'rescaleHeight': False, 'trialN': 53, 'loaded': True, 'loadedTime': 2584.10000000149, 'positionName': 'RIGHT', 'positionCoords': [798.72, 226.5], 'bid': 8.63}]",87219.40000000224,1669832949188,kiwi,rigatoni,3.99,8.63,4.640000000000001,rigatoni,595.5999999977648,596,596.1999999992549,True,i,88321.19999999925,1101.7999999970198,1669832950290,1102,HRV,HRV_0194,2022-11-30 18:32:49
54,"[{'imgObject': {}, 'id': 'rigatoni and sauce', 'src': '/static/foodstim60/rigatoni and sauce.jpg', 'key': 'u', 'origWidth': 410, 'origHeight': 411, 'width': 410, 'height': 411, 'widthPercent': 0.45, 'rescaleHeight': False, 'trialN': 54, 'loaded': True, 'loadedTime': 2416.699999999255, 'positionName': 'LEFT', 'positionCoords': [327.28, 226.5], 'bid': 7.31}, {'imgObject': {}, 'id': 'salad w chicken', 'src': '/static/foodstim60/salad w chicken.jpg', 'key': 'i', 'origWidth': 411, 'origHeight': 411, 'width': 411, 'height': 411, 'widthPercent': 0.45, 'rescaleHeight': False, 'trialN': 54, 'loaded': True, 'loadedTime': 2422.699999999255, 'positionName': 'RIGHT', 'positionCoords': [798.72, 226.5], 'bid': 9.93}]",88321.40000000224,1669832950290,rigatoni and sauce,salad w chicken,7.31,9.93,2.62,rigatoni and sauce,602.8999999985099,603,603.5,True,u,89444.10000000149,1122.699999999255,1669832951413,1123,HRV,HRV_0194,2022-11-30 18:32:49
55,"[{'imgObject': {}, 'id': 'tacos', 'src': '/static/foodstim60/tacos.jpg', 'key': 'u', 'origWidth': 411, 'origHeight': 411, 'width': 411, 'height': 411, 'widthPercent': 0.45, 'rescaleHeight': False, 'trialN': 55, 'loaded': True, 'loadedTime': 2574, 'positionName': 'LEFT', 'positionCoords': [326.28, 226.5], 'bid': 4.68}, {'imgObject': {}, 'id': 'chicken nuggets2', 'src': '/static/foodstim60/chicken nuggets2.jpg', 'key': 'i', 'origWidth': 410, 'origHeight': 409, 'width': 410, 'height': 409, 'widthPercent': 0.45, 'rescaleHeight': False, 'trialN': 55, 'loaded': True, 'loadedTime': 2775.800000000745, 'positionName': 'RIGHT', 'positionCoords': [798.72, 227.5], 'bid': 4.68}]",89444.40000000224,1669832951413,tacos,chicken nuggets2,4.68,4.68,0.0,chicken nuggets2,1231.8999999985099,1232,1232.5,True,i,91198.69999999925,1754.2999999970198,1669832953167,1754,HRV,HRV_0194,2022-11-30 18:32:49
56,"[{'imgObject': {}, 'id': 'salad w chicken', 'src': '/static/foodstim60/salad w chicken.jpg', 'key': 'u', 'origWidth': 411, 'origHeight': 411, 'width': 411, 'height': 411, 'widthPercent': 0.45, 'rescaleHeight': False, 'trialN': 56, 'loaded': True, 'loadedTime': 2421.400000002235, 'positionName': 'LEFT', 'positionCoords': [326.28, 226.5], 'bid': 9.93}, {'imgObject': {}, 'id': 'orange slices', 'src': '/static/foodstim60/orange slices.jpg', 'key': 'i', 'origWidth': 409, 'origHeight': 410, 'width': 409, 'height': 410, 'widthPercent': 0.45, 'rescaleHeight': False, 'trialN': 56, 'loaded': True, 'loadedTime': 2413.300000000745, 'positionName': 'RIGHT', 'positionCoords': [798.72, 227], 'bid': 6.74}]",91198.90000000224,1669832953167,salad w chicken,orange slices,9.93,6.74,-3.1899999999999995,orange slices,1054.5999999977648,1056,1055.199999999255,True,i,92766.60000000149,1567.699999999255,1669832954735,1568,HRV,HRV_0194,2022-11-30 18:32:49
57,"[{'imgObject': {}, 'id': 'bagel plain', 'src': '/static/foodstim60/bagel plain.jpg', 'key': 'u', 'origWidth': 410, 'origHeight': 410, 'width': 410, 'height': 410, 'widthPercent': 0.45, 'rescaleHeight': False, 'trialN': 57, 'loaded': True, 'loadedTime': 2776.60000000149, 'positionName': 'LEFT', 'positionCoords': [327.28, 227], 'bid': 5}, {'imgObject': {}, 'id': 'salmon', 'src': '/static/foodstim60/salmon.jpg', 'key': 'i', 'origWidth': 410, 'origHeight': 409, 'width': 410, 'height': 409, 'widthPercent': 0.45, 'rescaleHeight': False, 'trialN': 57, 'loaded': True, 'loadedTime': 2413.199999999255, 'positionName': 'RIGHT', 'positionCoords': [798.72, 227.5], 'bid': 5.03}]",92766.80000000075,1669832954735,bagel plain,salmon,5.0,5.03,0.03000000000000025,bagel plain,1649.300000000745,1650,1650.1000000014901,True,u,94925.69999999925,2158.89999999851,1669832956894,2159,HRV,HRV_0194,2022-11-30 18:32:49
58,"[{'imgObject': {}, 'id': 'turkeysandwich', 'src': '/static/foodstim60/turkeysandwich.jpg', 'key': 'u', 'origWidth': 409, 'origHeight': 409, 'width': 409, 'height': 409, 'widthPercent': 0.45, 'rescaleHeight': False, 'trialN': 58, 'loaded': True, 'loadedTime': 2570.800000000745, 'positionName': 'LEFT', 'positionCoords': [328.28, 227.5], 'bid': 7.6}, {'imgObject': {}, 'id': 'bagel and cc', 'src': '/static/foodstim60/bagel and cc.jpg', 'key': 'i', 'origWidth': 410, 'origHeight': 410, 'width': 410, 'height': 410, 'widthPercent': 0.45, 'rescaleHeight': False, 'trialN': 58, 'loaded': True, 'loadedTime': 2790.60000000149, 'positionName': 'RIGHT', 'positionCoords': [798.72, 227], 'bid': 7.03}]",94925.90000000224,1669832956894,turkeysandwich,bagel and cc,7.6,7.03,-0.5699999999999994,bagel and cc,1090.0,1091,1090.5,True,i,96527.80000000075,1601.8999999985099,1669832958496,1602,HRV,HRV_0194,2022-11-30 18:32:49
59,"[{'imgObject': {}, 'id': 'turkey sandwich', 'src': '/static/foodstim60/turkey sandwich.jpg', 'key': 'u', 'origWidth': 409, 'origHeight': 409, 'width': 409, 'height': 409, 'widthPercent': 0.45, 'rescaleHeight': False, 'trialN': 59, 'loaded': True, 'loadedTime': 2750.400000002235, 'positionName': 'LEFT', 'positionCoords': [328.28, 227.5], 'bid': 9.23}, {'imgObject': {}, 'id': 'omelette', 'src': '/static/foodstim60/omelette.jpg', 'key': 'i', 'origWidth': 410, 'origHeight': 409, 'width': 410, 'height': 409, 'widthPercent': 0.45, 'rescaleHeight': False, 'trialN': 59, 'loaded': True, 'loadedTime': 2406.300000000745, 'positionName': 'RIGHT', 'positionCoords': [798.72, 227.5], 'bid': 5.92}]",96528.0,1669832958496,turkey sandwich,omelette,9.23,5.92,-3.3100000000000005,turkey sandwich,779.1999999992549,780,779.6999999992549,True,u,97817.5,1289.5,1669832959786,1290,HRV,HRV_0194,2022-11-30 18:32:49
60,"[{'imgObject': {}, 'id': 'fruitsalad', 'src': '/static/foodstim60/fruitsalad.jpg', 'key': 'u', 'origWidth': 410, 'origHeight': 410, 'width': 410, 'height': 410, 'widthPercent': 0.45, 'rescaleHeight': False, 'trialN': 60, 'loaded': True, 'loadedTime': 2664.10000000149, 'positionName': 'LEFT', 'positionCoords': [327.28, 227], 'bid': 4.58}, {'imgObject': {}, 'id': 'cheerios', 'src': '/static/foodstim60/cheerios.jpg', 'key': 'i', 'origWidth': 409, 'origHeight': 410, 'width': 409, 'height': 410, 'widthPercent': 0.45, 'rescaleHeight': False, 'trialN': 60, 'loaded': True, 'loadedTime': 2420.199999999255, 'positionName': 'RIGHT', 'positionCoords': [798.72, 227], 'bid': 1.14}]",97817.80000000075,1669832959786,fruitsalad,cheerios,4.58,1.14,-3.4400000000000004,fruitsalad,1251.5,1252,1251.8999999985099,True,u,99579.30000000075,1761.5,1669832961548,1762,HRV,HRV_0194,2022-11-30 18:32:49
61,"[{'imgObject': {}, 'id': 'turkey sandwich', 'src': '/static/foodstim60/turkey sandwich.jpg', 'key': 'u', 'origWidth': 409, 'origHeight': 409, 'width': 409, 'height': 409, 'widthPercent': 0.45, 'rescaleHeight': False, 'trialN': 61, 'loaded': True, 'loadedTime': 2750.5, 'positionName': 'LEFT', 'positionCoords': [328.28, 227.5], 'bid': 9.23}, {'imgObject': {}, 'id': 'rigatoni', 'src': '/static/foodstim60/rigatoni.jpg', 'key': 'i', 'origWidth': 411, 'origHeight': 411, 'width': 411, 'height': 411, 'widthPercent': 0.45, 'rescaleHeight': False, 'trialN': 61, 'loaded': True, 'loadedTime': 2582.400000002235, 'positionName': 'RIGHT', 'positionCoords': [798.72, 226.5], 'bid': 8.63}]",99579.60000000149,1669832961548,turkey sandwich,rigatoni,9.23,8.63,-0.5999999999999996,rigatoni,1303.0999999977648,1304,1303.5999999977648,True,i,101398.30000000075,1818.699999999255,1669832963367,1819,HRV,HRV_0194,2022-11-30 18:32:49
62,"[{'imgObject': {}, 'id': 'apple slices', 'src': '/static/foodstim60/apple slices.jpg', 'key': 'u', 'origWidth': 409, 'origHeight': 410, 'width': 409, 'height': 410, 'widthPercent': 0.45, 'rescaleHeight': False, 'trialN': 62, 'loaded': True, 'loadedTime': 2402.699999999255, 'positionName': 'LEFT', 'positionCoords': [328.28, 227], 'bid': 6.0200000000000005}, {'imgObject': {}, 'id': 'mac & cheese', 'src': '/static/foodstim60/mac & cheese.jpg', 'key': 'i', 'origWidth': 410, 'origHeight': 410, 'width': 410, 'height': 410, 'widthPercent': 0.45, 'rescaleHeight': False, 'trialN': 62, 'loaded': True, 'loadedTime': 2797.699999999255, 'positionName': 'RIGHT', 'positionCoords': [798.72, 227], 'bid': 9.97}]",101398.5,1669832963367,apple slices,mac & cheese,6.0200000000000005,9.97,3.95,mac & cheese,702.0,703,702.5,True,i,102609.19999999925,1210.699999999255,1669832964578,1211,HRV,HRV_0194,2022-11-30 18:32:49
63,"[{'imgObject': {}, 'id': 'blackbeanswithrice', 'src': '/static/foodstim60/blackbeanswithrice.jpg', 'key': 'u', 'origWidth': 410, 'origHeight': 410, 'width': 410, 'height': 410, 'widthPercent': 0.45, 'rescaleHeight': False, 'trialN': 63, 'loaded': True, 'loadedTime': 2752.60000000149, 'positionName': 'LEFT', 'positionCoords': [327.28, 227], 'bid': 9.89}, {'imgObject': {}, 'id': 'sushi w_condiments', 'src': '/static/foodstim60/sushi w_condiments.jpg', 'key': 'i', 'origWidth': 410, 'origHeight': 410, 'width': 410, 'height': 410, 'widthPercent': 0.45, 'rescaleHeight': False, 'trialN': 63, 'loaded': True, 'loadedTime': 2716.800000000745, 'positionName': 'RIGHT', 'positionCoords': [798.72, 227], 'bid': 6.13}]",102609.40000000224,1669832964578,blackbeanswithrice,sushi w_condiments,9.89,6.13,-3.7600000000000007,blackbeanswithrice,749.0,749,749.5999999977648,True,u,103868.69999999925,1259.2999999970198,1669832965837,1259,HRV,HRV_0194,2022-11-30 18:32:49
64,"[{'imgObject': {}, 'id': 'sweetpotato', 'src': '/static/foodstim60/sweetpotato.jpg', 'key': 'u', 'origWidth': 410, 'origHeight': 410, 'width': 410, 'height': 410, 'widthPercent': 0.45, 'rescaleHeight': False, 'trialN': 64, 'loaded': True, 'loadedTime': 2800, 'positionName': 'LEFT', 'positionCoords': [327.28, 227], 'bid': 0}, {'imgObject': {}, 'id': 'edamame', 'src': '/static/foodstim60/edamame.jpg', 'key': 'i', 'origWidth': 409, 'origHeight': 410, 'width': 409, 'height': 410, 'widthPercent': 0.45, 'rescaleHeight': False, 'trialN': 64, 'loaded': True, 'loadedTime': 2590.699999999255, 'positionName': 'RIGHT', 'positionCoords': [798.72, 227], 'bid': 2.34}]",103869.0,1669832965837,sweetpotato,edamame,0.0,2.34,2.34,edamame,1152.6000000014901,1154,1153.0,True,i,105530.10000000149,1661.1000000014901,1669832967499,1662,HRV,HRV_0194,2022-11-30 18:32:49
65,"[{'imgObject': {}, 'id': 'chicken nuggets2', 'src': '/static/foodstim60/chicken nuggets2.jpg', 'key': 'u', 'origWidth': 410, 'origHeight': 409, 'width': 410, 'height': 409, 'widthPercent': 0.45, 'rescaleHeight': False, 'trialN': 65, 'loaded': True, 'loadedTime': 2775.900000002235, 'positionName': 'LEFT', 'positionCoords': [327.28, 227.5], 'bid': 4.68}, {'imgObject': {}, 'id': 'mango', 'src': '/static/foodstim60/mango.jpg', 'key': 'i', 'origWidth': 411, 'origHeight': 411, 'width': 411, 'height': 411, 'widthPercent': 0.45, 'rescaleHeight': False, 'trialN': 65, 'loaded': True, 'loadedTime': 2487, 'positionName': 'RIGHT', 'positionCoords': [798.72, 226.5], 'bid': 3.0700000000000003}]",105530.30000000075,1669832967499,chicken nuggets2,mango,4.68,3.0700000000000003,-1.6099999999999994,chicken nuggets2,1023.5,1024,1023.8000000007451,True,u,107070.60000000149,1540.300000000745,1669832969039,1540,HRV,HRV_0194,2022-11-30 18:32:49
66,"[{'imgObject': {}, 'id': 'raspberries', 'src': '/static/foodstim60/raspberries.jpg', 'key': 'u', 'origWidth': 411, 'origHeight': 411, 'width': 411, 'height': 411, 'widthPercent': 0.45, 'rescaleHeight': False, 'trialN': 66, 'loaded': True, 'loadedTime': 2646.10000000149, 'positionName': 'LEFT', 'positionCoords': [326.28, 226.5], 'bid': 4.98}, {'imgObject': {}, 'id': 'banana', 'src': '/static/foodstim60/banana.jpg', 'key': 'i', 'origWidth': 410, 'origHeight': 410, 'width': 410, 'height': 410, 'widthPercent': 0.45, 'rescaleHeight': False, 'trialN': 66, 'loaded': True, 'loadedTime': 2396.699999999255, 'positionName': 'RIGHT', 'positionCoords': [798.72, 227], 'bid': 4.98}]",107070.80000000075,1669832969039,raspberries,banana,4.98,4.98,0.0,raspberries,2364.89999999851,2366,2365.39999999851,True,u,109948.30000000075,2877.5,1669832971917,2878,HRV,HRV_0194,2022-11-30 18:32:49
67,"[{'imgObject': {}, 'id': 'froot loops w milk', 'src': '/static/foodstim60/froot loops w milk.jpg', 'key': 'u', 'origWidth': 410, 'origHeight': 410, 'width': 410, 'height': 410, 'widthPercent': 0.45, 'rescaleHeight': False, 'trialN': 67, 'loaded': True, 'loadedTime': 2735.800000000745, 'positionName': 'LEFT', 'positionCoords': [327.28, 227], 'bid': 1.18}, {'imgObject': {}, 'id': 'Grapes', 'src': '/static/foodstim60/Grapes.jpg', 'key': 'i', 'origWidth': 411, 'origHeight': 411, 'width': 411, 'height': 411, 'widthPercent': 0.45, 'rescaleHeight': False, 'trialN': 67, 'loaded': True, 'loadedTime': 2800.199999999255, 'positionName': 'RIGHT', 'positionCoords': [798.72, 226.5], 'bid': 4.63}]",109948.60000000149,1669832971917,froot loops w milk,Grapes,1.18,4.63,3.45,Grapes,1356.199999999255,1357,1356.699999999255,True,i,111814.0,1865.3999999985099,1669832973783,1866,HRV,HRV_0194,2022-11-30 18:32:49
68,"[{'imgObject': {}, 'id': 'cheerios', 'src': '/static/foodstim60/cheerios.jpg', 'key': 'u', 'origWidth': 409, 'origHeight': 410, 'width': 409, 'height': 410, 'widthPercent': 0.45, 'rescaleHeight': False, 'trialN': 68, 'loaded': True, 'loadedTime': 2421.10000000149, 'positionName': 'LEFT', 'positionCoords': [328.28, 227], 'bid': 1.14}, {'imgObject': {}, 'id': 'veggieswithdip', 'src': '/static/foodstim60/veggieswithdip.jpg', 'key': 'i', 'origWidth': 409, 'origHeight': 409, 'width': 409, 'height': 409, 'widthPercent': 0.45, 'rescaleHeight': False, 'trialN': 68, 'loaded': True, 'loadedTime': 2337.900000002235, 'positionName': 'RIGHT', 'positionCoords': [798.72, 227.5], 'bid': 5.42}]",111814.19999999925,1669832973783,cheerios,veggieswithdip,1.14,5.42,4.28,veggieswithdip,1670.9000000022352,1671,1671.4000000022352,True,i,114000.5,2186.300000000745,1669832975969,2186,HRV,HRV_0194,2022-11-30 18:32:49
69,"[{'imgObject': {}, 'id': 'hashbrowns', 'src': '/static/foodstim60/hashbrowns.jpg', 'key': 'u', 'origWidth': 411, 'origHeight': 410, 'width': 411, 'height': 410, 'widthPercent': 0.45, 'rescaleHeight': False, 'trialN': 69, 'loaded': True, 'loadedTime': 2622.699999999255, 'positionName': 'LEFT', 'positionCoords': [326.28, 227], 'bid': 1.05}, {'imgObject': {}, 'id': 'granola w milk', 'src': '/static/foodstim60/granola w milk.jpg', 'key': 'i', 'origWidth': 410, 'origHeight': 410, 'width': 410, 'height': 410, 'widthPercent': 0.45, 'rescaleHeight': False, 'trialN': 69, 'loaded': True, 'loadedTime': 2693.699999999255, 'positionName': 'RIGHT', 'positionCoords': [798.72, 227], 'bid': 0}]",114000.69999999925,1669832975969,hashbrowns,granola w milk,1.05,0.0,-1.05,granola w milk,1841.2000000029802,1842,1841.7000000029802,True,i,116350.69999999925,2350.0,1669832978319,2350,HRV,HRV_0194,2022-11-30 18:32:49
70,"[{'imgObject': {}, 'id': 'sushi w_condiments', 'src': '/static/foodstim60/sushi w_condiments.jpg', 'key': 'u', 'origWidth': 410, 'origHeight': 410, 'width': 410, 'height': 410, 'widthPercent': 0.45, 'rescaleHeight': False, 'trialN': 70, 'loaded': True, 'loadedTime': 2717.60000000149, 'positionName': 'LEFT', 'positionCoords': [327.28, 227], 'bid': 6.13}, {'imgObject': {}, 'id': 'chicken nuggets2', 'src': '/static/foodstim60/chicken nuggets2.jpg', 'key': 'i', 'origWidth': 410, 'origHeight': 409, 'width': 410, 'height': 409, 'widthPercent': 0.45, 'rescaleHeight': False, 'trialN': 70, 'loaded': True, 'loadedTime': 2775.800000000745, 'positionName': 'RIGHT', 'positionCoords': [798.72, 227.5], 'bid': 4.68}]",116350.90000000224,1669832978319,sushi w_condiments,chicken nuggets2,6.13,4.68,-1.4500000000000002,chicken nuggets2,1484.2999999970198,1485,1484.5999999977648,True,i,118337.90000000224,1987.0,1669832980307,1988,HRV,HRV_0194,2022-11-30 18:32:49
71,"[{'imgObject': {}, 'id': 'cherries', 'src': '/static/foodstim60/cherries.jpg', 'key': 'u', 'origWidth': 410, 'origHeight': 411, 'width': 410, 'height': 411, 'widthPercent': 0.45, 'rescaleHeight': False, 'trialN': 71, 'loaded': True, 'loadedTime': 2405.300000000745, 'positionName': 'LEFT', 'positionCoords': [327.28, 226.5], 'bid': 0.15}, {'imgObject': {}, 'id': 'kiwi', 'src': '/static/foodstim60/kiwi.jpg', 'key': 'i', 'origWidth': 410, 'origHeight': 410, 'width': 410, 'height': 410, 'widthPercent': 0.45, 'rescaleHeight': False, 'trialN': 71, 'loaded': True, 'loadedTime': 2734.199999999255, 'positionName': 'RIGHT', 'positionCoords': [798.72, 227], 'bid': 3.99}]",118338.19999999925,1669832980307,cherries,kiwi,0.15,3.99,3.8400000000000003,kiwi,1653.6000000014901,1654,1654.1000000014901,True,i,120499.80000000075,2161.60000000149,1669832982468,2161,HRV,HRV_0194,2022-11-30 18:32:49
72,"[{'imgObject': {}, 'id': 'baked potato', 'src': '/static/foodstim60/baked potato.jpg', 'key': 'u', 'origWidth': 409, 'origHeight': 410, 'width': 409, 'height': 410, 'widthPercent': 0.45, 'rescaleHeight': False, 'trialN': 72, 'loaded': True, 'loadedTime': 2365.800000000745, 'positionName': 'LEFT', 'positionCoords': [328.28, 227], 'bid': 1.54}, {'imgObject': {}, 'id': 'sushi w_condiments', 'src': '/static/foodstim60/sushi w_condiments.jpg', 'key': 'i', 'origWidth': 410, 'origHeight': 410, 'width': 410, 'height': 410, 'widthPercent': 0.45, 'rescaleHeight': False, 'trialN': 72, 'loaded': True, 'loadedTime': 2732.800000000745, 'positionName': 'RIGHT', 'positionCoords': [798.72, 227], 'bid': 6.13}]",120499.90000000224,1669832982469,baked potato,sushi w_condiments,1.54,6.13,4.59,sushi w_condiments,1363.8999999985099,1364,1364.3999999985099,True,i,122383.10000000149,1883.199999999255,1669832984352,1883,HRV,HRV_0194,2022-11-30 18:32:49
73,"[{'imgObject': {}, 'id': 'sweetpotato', 'src': '/static/foodstim60/sweetpotato.jpg', 'key': 'u', 'origWidth': 410, 'origHeight': 410, 'width': 410, 'height': 410, 'widthPercent': 0.45, 'rescaleHeight': False, 'trialN': 73, 'loaded': True, 'loadedTime': 2799.800000000745, 'positionName': 'LEFT', 'positionCoords': [327.28, 227], 'bid': 0}, {'imgObject': {}, 'id': 'lox', 'src': '/static/foodstim60/lox.jpg', 'key': 'i', 'origWidth': 410, 'origHeight': 411, 'width': 410, 'height': 411, 'widthPercent': 0.45, 'rescaleHeight': False, 'trialN': 73, 'loaded': True, 'loadedTime': 2587.900000002235, 'positionName': 'RIGHT', 'positionCoords': [798.72, 226.5], 'bid': 0}]",122383.40000000224,1669832984352,sweetpotato,lox,0.0,0.0,0.0,sweetpotato,1064.8999999985099,1065,1065.2999999970198,True,u,123966.30000000075,1582.8999999985099,1669832985935,1583,HRV,HRV_0194,2022-11-30 18:32:49
74,"[{'imgObject': {}, 'id': 'turkey sandwich', 'src': '/static/foodstim60/turkey sandwich.jpg', 'key': 'u', 'origWidth': 409, 'origHeight': 409, 'width': 409, 'height': 409, 'widthPercent': 0.45, 'rescaleHeight': False, 'trialN': 74, 'loaded': True, 'loadedTime': 2749, 'positionName': 'LEFT', 'positionCoords': [328.28, 227.5], 'bid': 9.23}, {'imgObject': {}, 'id': 'salmon', 'src': '/static/foodstim60/salmon.jpg', 'key': 'i', 'origWidth': 410, 'origHeight': 409, 'width': 410, 'height': 409, 'widthPercent': 0.45, 'rescaleHeight': False, 'trialN': 74, 'loaded': True, 'loadedTime': 2412.900000002235, 'positionName': 'RIGHT', 'positionCoords': [798.72, 227.5], 'bid': 5.03}]",123966.5,1669832985935,turkey sandwich,salmon,9.23,5.03,-4.2,turkey sandwich,802.8000000007451,803,803.1000000014901,True,u,125272.90000000224,1306.4000000022352,1669832987242,1307,HRV,HRV_0194,2022-11-30 18:32:49
75,"[{'imgObject': {}, 'id': 'mango', 'src': '/static/foodstim60/mango.jpg', 'key': 'u', 'origWidth': 411, 'origHeight': 411, 'width': 411, 'height': 411, 'widthPercent': 0.45, 'rescaleHeight': False, 'trialN': 75, 'loaded': True, 'loadedTime': 2489.400000002235, 'positionName': 'LEFT', 'positionCoords': [326.28, 226.5], 'bid': 3.0700000000000003}, {'imgObject': {}, 'id': 'hotdog w must', 'src': '/static/foodstim60/hotdog w must.jpg', 'key': 'i', 'origWidth': 409, 'origHeight': 409, 'width': 409, 'height': 409, 'widthPercent': 0.45, 'rescaleHeight': False, 'trialN': 75, 'loaded': True, 'loadedTime': 2690.800000000745, 'positionName': 'RIGHT', 'positionCoords': [798.72, 227.5], 'bid': 0.05}]",125273.19999999925,1669832987242,mango,hotdog w must,3.0700000000000003,0.05,-3.0200000000000005,mango,1130.300000000745,1131,1130.9000000022352,True,u,126905.0,1631.800000000745,1669832988874,1632,HRV,HRV_0194,2022-11-30 18:32:49
76,"[{'imgObject': {}, 'id': 'blackbeanswithrice', 'src': '/static/foodstim60/blackbeanswithrice.jpg', 'key': 'u', 'origWidth': 410, 'origHeight': 410, 'width': 410, 'height': 410, 'widthPercent': 0.45, 'rescaleHeight': False, 'trialN': 76, 'loaded': True, 'loadedTime': 2752.60000000149, 'positionName': 'LEFT', 'positionCoords': [327.28, 227], 'bid': 9.89}, {'imgObject': {}, 'id': 'blueberries', 'src': '/static/foodstim60/blueberries.jpg', 'key': 'i', 'origWidth': 411, 'origHeight': 411, 'width': 411, 'height': 411, 'widthPercent': 0.45, 'rescaleHeight': False, 'trialN': 76, 'loaded': True, 'loadedTime': 2602.400000002235, 'positionName': 'RIGHT', 'positionCoords': [798.72, 226.5], 'bid': 5.33}]",126905.19999999925,1669832988874,blackbeanswithrice,blueberries,9.89,5.33,-4.5600000000000005,blackbeanswithrice,605.9000000022352,606,606.4000000022352,True,u,128023.80000000075,1118.6000000014901,1669832989992,1118,HRV,HRV_0194,2022-11-30 18:32:49
77,"[{'imgObject': {}, 'id': 'bagel and cc', 'src': '/static/foodstim60/bagel and cc.jpg', 'key': 'u', 'origWidth': 410, 'origHeight': 410, 'width': 410, 'height': 410, 'widthPercent': 0.45, 'rescaleHeight': False, 'trialN': 77, 'loaded': True, 'loadedTime': 2792.300000000745, 'positionName': 'LEFT', 'positionCoords': [327.28, 227], 'bid': 7.03}, {'imgObject': {}, 'id': 'mac & cheese', 'src': '/static/foodstim60/mac & cheese.jpg', 'key': 'i', 'origWidth': 410, 'origHeight': 410, 'width': 410, 'height': 410, 'widthPercent': 0.45, 'rescaleHeight': False, 'trialN': 77, 'loaded': True, 'loadedTime': 2799, 'positionName': 'RIGHT', 'positionCoords': [798.72, 227], 'bid': 9.97}]",128024.0,1669832989993,bagel and cc,mac & cheese,7.03,9.97,2.9400000000000004,mac & cheese,790.5,791,790.9000000022352,True,i,129324.60000000149,1300.6000000014901,1669832991293,1300,HRV,HRV_0194,2022-11-30 18:32:49
78,"[{'imgObject': {}, 'id': 'roastedpotatoes', 'src': '/static/foodstim60/roastedpotatoes.jpg', 'key': 'u', 'origWidth': 409, 'origHeight': 410, 'width': 409, 'height': 410, 'widthPercent': 0.45, 'rescaleHeight': False, 'trialN': 78, 'loaded': True, 'loadedTime': 2774.10000000149, 'positionName': 'LEFT', 'positionCoords': [328.28, 227], 'bid': 9.97}, {'imgObject': {}, 'id': 'rigatoni', 'src': '/static/foodstim60/rigatoni.jpg', 'key': 'i', 'origWidth': 411, 'origHeight': 411, 'width': 411, 'height': 411, 'widthPercent': 0.45, 'rescaleHeight': False, 'trialN': 78, 'loaded': True, 'loadedTime': 2584.900000002235, 'positionName': 'RIGHT', 'positionCoords': [798.72, 226.5], 'bid': 8.63}]",129324.80000000075,1669832991293,roastedpotatoes,rigatoni,9.97,8.63,-1.3399999999999999,roastedpotatoes,857.6000000014901,858,858.0,True,u,130693.60000000149,1368.800000000745,1669832992662,1369,HRV,HRV_0194,2022-11-30 18:32:49
79,"[{'imgObject': {}, 'id': 'apple slices', 'src': '/static/foodstim60/apple slices.jpg', 'key': 'u', 'origWidth': 409, 'origHeight': 410, 'width': 409, 'height': 410, 'widthPercent': 0.45, 'rescaleHeight': False, 'trialN': 79, 'loaded': True, 'loadedTime': 2397.800000000745, 'positionName': 'LEFT', 'positionCoords': [328.28, 227], 'bid': 6.0200000000000005}, {'imgObject': {}, 'id': 'avocado', 'src': '/static/foodstim60/avocado.jpg', 'key': 'i', 'origWidth': 409, 'origHeight': 409, 'width': 409, 'height': 409, 'widthPercent': 0.45, 'rescaleHeight': False, 'trialN': 79, 'loaded': True, 'loadedTime': 2818.800000000745, 'positionName': 'RIGHT', 'positionCoords': [798.72, 227.5], 'bid': 1.49}]",130693.90000000224,1669832992662,apple slices,avocado,6.0200000000000005,1.49,-4.53,apple slices,772.7999999970198,774,773.2999999970198,True,u,131983.0,1289.0999999977648,1669832993952,1290,HRV,HRV_0194,2022-11-30 18:32:49
80,"[{'imgObject': {}, 'id': 'steak', 'src': '/static/foodstim60/steak.jpg', 'key': 'u', 'origWidth': 410, 'origHeight': 410, 'width': 410, 'height': 410, 'widthPercent': 0.45, 'rescaleHeight': False, 'trialN': 80, 'loaded': True, 'loadedTime': 2406.60000000149, 'positionName': 'LEFT', 'positionCoords': [327.28, 227], 'bid': 5}, {'imgObject': {}, 'id': 'bagel plain', 'src': '/static/foodstim60/bagel plain.jpg', 'key': 'i', 'origWidth': 410, 'origHeight': 410, 'width': 410, 'height': 410, 'widthPercent': 0.45, 'rescaleHeight': False, 'trialN': 80, 'loaded': True, 'loadedTime': 2776.699999999255, 'positionName': 'RIGHT', 'positionCoords': [798.72, 227], 'bid': 5}]",131983.19999999925,1669832993952,steak,bagel plain,5.0,5.0,0.0,steak,1120.5,1121,1121.0,True,u,133624.90000000224,1641.7000000029802,1669832995593,1641,HRV,HRV_0194,2022-11-30 18:32:49
81,"[{'imgObject': {}, 'id': 'hashbrowns', 'src': '/static/foodstim60/hashbrowns.jpg', 'key': 'u', 'origWidth': 411, 'origHeight': 410, 'width': 411, 'height': 410, 'widthPercent': 0.45, 'rescaleHeight': False, 'trialN': 81, 'loaded': True, 'loadedTime': 2622.199999999255, 'positionName': 'LEFT', 'positionCoords': [326.28, 227], 'bid': 1.05}, {'imgObject': {}, 'id': 'ice cream sundae 002', 'src': '/static/foodstim60/ice cream sundae 002.jpg', 'key': 'i', 'origWidth': 409, 'origHeight': 409, 'width': 409, 'height': 409, 'widthPercent': 0.45, 'rescaleHeight': False, 'trialN': 81, 'loaded': True, 'loadedTime': 2530.60000000149, 'positionName': 'RIGHT', 'positionCoords': [798.72, 227.5], 'bid': 4.53}]",133625.1000000015,1669832995594,hashbrowns,ice cream sundae 002,1.05,4.53,3.4800000000000004,ice cream sundae 002,963.0,963,963.5999999977648,True,i,135100.80000000075,1475.699999999255,1669832997069,1475,HRV,HRV_0194,2022-11-30 18:32:49
82,"[{'imgObject': {}, 'id': 'tacos', 'src': '/static/foodstim60/tacos.jpg', 'key': 'u', 'origWidth': 411, 'origHeight': 411, 'width': 411, 'height': 411, 'widthPercent': 0.45, 'rescaleHeight': False, 'trialN': 82, 'loaded': True, 'loadedTime': 2575.800000000745, 'positionName': 'LEFT', 'positionCoords': [326.28, 226.5], 'bid': 4.68}, {'imgObject': {}, 'id': 'orange slices', 'src': '/static/foodstim60/orange slices.jpg', 'key': 'i', 'origWidth': 409, 'origHeight': 410, 'width': 409, 'height': 410, 'widthPercent': 0.45, 'rescaleHeight': False, 'trialN': 82, 'loaded': True, 'loadedTime': 2414.10000000149, 'positionName': 'RIGHT', 'positionCoords': [798.72, 227], 'bid': 6.74}]",135101.0,1669832997070,tacos,orange slices,4.68,6.74,2.0600000000000005,orange slices,759.9000000022352,760,760.4000000022352,True,i,136378.5,1277.5,1669832998347,1277,HRV,HRV_0194,2022-11-30 18:32:49
83,"[{'imgObject': {}, 'id': 'steak', 'src': '/static/foodstim60/steak.jpg', 'key': 'u', 'origWidth': 410, 'origHeight': 410, 'width': 410, 'height': 410, 'widthPercent': 0.45, 'rescaleHeight': False, 'trialN': 83, 'loaded': True, 'loadedTime': 2407.60000000149, 'positionName': 'LEFT', 'positionCoords': [327.28, 227], 'bid': 5}, {'imgObject': {}, 'id': 'Grapes', 'src': '/static/foodstim60/Grapes.jpg', 'key': 'i', 'origWidth': 411, 'origHeight': 411, 'width': 411, 'height': 411, 'widthPercent': 0.45, 'rescaleHeight': False, 'trialN': 83, 'loaded': True, 'loadedTime': 2816.800000000745, 'positionName': 'RIGHT', 'positionCoords': [798.72, 226.5], 'bid': 4.63}]",136378.80000000075,1669832998347,steak,Grapes,5.0,4.63,-0.3700000000000001,steak,994.5,995,995.0,True,u,137892.80000000075,1514.0,1669832999861,1514,HRV,HRV_0194,2022-11-30 18:32:49
84,"[{'imgObject': {}, 'id': 'omelette', 'src': '/static/foodstim60/omelette.jpg', 'key': 'u', 'origWidth': 410, 'origHeight': 409, 'width': 410, 'height': 409, 'widthPercent': 0.45, 'rescaleHeight': False, 'trialN': 84, 'loaded': True, 'loadedTime': 2406.10000000149, 'positionName': 'LEFT', 'positionCoords': [327.28, 227.5], 'bid': 5.92}, {'imgObject': {}, 'id': 'roastedpotatoes', 'src': '/static/foodstim60/roastedpotatoes.jpg', 'key': 'i', 'origWidth': 409, 'origHeight': 410, 'width': 409, 'height': 410, 'widthPercent': 0.45, 'rescaleHeight': False, 'trialN': 84, 'loaded': True, 'loadedTime': 2774.199999999255, 'positionName': 'RIGHT', 'positionCoords': [798.72, 227], 'bid': 9.97}]",137892.90000000224,1669832999862,omelette,roastedpotatoes,5.92,9.97,4.050000000000001,roastedpotatoes,645.0999999977648,645,645.5999999977648,True,i,139048.40000000224,1155.5,1669833001017,1155,HRV,HRV_0194,2022-11-30 18:32:49
85,"[{'imgObject': {}, 'id': 'banana', 'src': '/static/foodstim60/banana.jpg', 'key': 'u', 'origWidth': 410, 'origHeight': 410, 'width': 410, 'height': 410, 'widthPercent': 0.45, 'rescaleHeight': False, 'trialN': 85, 'loaded': True, 'loadedTime': 2397.199999999255, 'positionName': 'LEFT', 'positionCoords': [327.28, 227], 'bid': 4.98}, {'imgObject': {}, 'id': 'rigatoni and sauce', 'src': '/static/foodstim60/rigatoni and sauce.jpg', 'key': 'i', 'origWidth': 410, 'origHeight': 411, 'width': 410, 'height': 411, 'widthPercent': 0.45, 'rescaleHeight': False, 'trialN': 85, 'loaded': True, 'loadedTime': 2416.400000002235, 'positionName': 'RIGHT', 'positionCoords': [798.72, 226.5], 'bid': 7.31}]",139048.69999999925,1669833001017,banana,rigatoni and sauce,4.98,7.31,2.329999999999999,rigatoni and sauce,657.3000000007451,658,657.8000000007451,True,i,140210.80000000075,1162.1000000014901,1669833002179,1162,HRV,HRV_0194,2022-11-30 18:32:49
86,"[{'imgObject': {}, 'id': 'salmon', 'src': '/static/foodstim60/salmon.jpg', 'key': 'u', 'origWidth': 410, 'origHeight': 409, 'width': 410, 'height': 409, 'widthPercent': 0.45, 'rescaleHeight': False, 'trialN': 86, 'loaded': True, 'loadedTime': 2412.800000000745, 'positionName': 'LEFT', 'positionCoords': [327.28, 227.5], 'bid': 5.03}, {'imgObject': {}, 'id': 'apple slices', 'src': '/static/foodstim60/apple slices.jpg', 'key': 'i', 'origWidth': 409, 'origHeight': 410, 'width': 409, 'height': 410, 'widthPercent': 0.45, 'rescaleHeight': False, 'trialN': 86, 'loaded': True, 'loadedTime': 2399.5, 'positionName': 'RIGHT', 'positionCoords': [798.72, 227], 'bid': 6.0200000000000005}]",140211.0,1669833002180,salmon,apple slices,5.03,6.0200000000000005,0.9900000000000002,apple slices,997.5,998,998.0,True,i,141724.19999999925,1513.199999999255,1669833003693,1513,HRV,HRV_0194,2022-11-30 18:32:49
87,"[{'imgObject': {}, 'id': 'cantaloupe', 'src': '/static/foodstim60/cantaloupe.jpg', 'key': 'u', 'origWidth': 409, 'origHeight': 409, 'width': 409, 'height': 409, 'widthPercent': 0.45, 'rescaleHeight': False, 'trialN': 87, 'loaded': True, 'loadedTime': 2579.5, 'positionName': 'LEFT', 'positionCoords': [328.28, 227.5], 'bid': 4.21}, {'imgObject': {}, 'id': 'grilled chicken strips', 'src': '/static/foodstim60/grilled chicken strips.jpg', 'key': 'i', 'origWidth': 410, 'origHeight': 411, 'width': 410, 'height': 411, 'widthPercent': 0.45, 'rescaleHeight': False, 'trialN': 87, 'loaded': True, 'loadedTime': 2820.199999999255, 'positionName': 'RIGHT', 'positionCoords': [798.72, 226.5], 'bid': 4.97}]",141724.40000000224,1669833003693,cantaloupe,grilled chicken strips,4.21,4.97,0.7599999999999998,grilled chicken strips,1416.3999999985099,1417,1416.7999999970198,True,i,143663.40000000224,1939.0,1669833005632,1939,HRV,HRV_0194,2022-11-30 18:32:49
88,"[{'imgObject': {}, 'id': 'pear', 'src': '/static/foodstim60/pear.jpg', 'key': 'u', 'origWidth': 411, 'origHeight': 410, 'width': 411, 'height': 410, 'widthPercent': 0.45, 'rescaleHeight': False, 'trialN': 88, 'loaded': True, 'loadedTime': 2793.400000002235, 'positionName': 'LEFT', 'positionCoords': [326.28, 227], 'bid': 6.97}, {'imgObject': {}, 'id': 'shreddedwheatwithmilk', 'src': '/static/foodstim60/shreddedwheatwithmilk.jpg', 'key': 'i', 'origWidth': 410, 'origHeight': 410, 'width': 410, 'height': 410, 'widthPercent': 0.45, 'rescaleHeight': False, 'trialN': 88, 'loaded': True, 'loadedTime': 2552.400000002235, 'positionName': 'RIGHT', 'positionCoords': [798.72, 227], 'bid': 2.42}]",143663.6000000015,1669833005632,pear,shreddedwheatwithmilk,6.97,2.42,-4.55,pear,824.8999999985099,826,825.3000000007451,True,u,144996.80000000075,1333.199999999255,1669833006965,1333,HRV,HRV_0194,2022-11-30 18:32:49
89,"[{'imgObject': {}, 'id': 'olives', 'src': '/static/foodstim60/olives.jpg', 'key': 'u', 'origWidth': 410, 'origHeight': 410, 'width': 410, 'height': 410, 'widthPercent': 0.45, 'rescaleHeight': False, 'trialN': 89, 'loaded': True, 'loadedTime': 2753.800000000745, 'positionName': 'LEFT', 'positionCoords': [327.28, 227], 'bid': 0}, {'imgObject': {}, 'id': 'lox', 'src': '/static/foodstim60/lox.jpg', 'key': 'i', 'origWidth': 410, 'origHeight': 411, 'width': 410, 'height': 411, 'widthPercent': 0.45, 'rescaleHeight': False, 'trialN': 89, 'loaded': True, 'loadedTime': 2588.10000000149, 'positionName': 'RIGHT', 'positionCoords': [798.72, 226.5], 'bid': 0}]",144997.1000000015,1669833006966,olives,lox,0.0,0.0,0.0,olives,1239.300000000745,1239,1239.699999999255,True,u,146756.80000000075,1759.699999999255,1669833008725,1759,HRV,HRV_0194,2022-11-30 18:32:49
90,"[{'imgObject': {}, 'id': 'popsicles', 'src': '/static/foodstim60/popsicles.jpg', 'key': 'u', 'origWidth': 410, 'origHeight': 410, 'width': 410, 'height': 410, 'widthPercent': 0.45, 'rescaleHeight': False, 'trialN': 90, 'loaded': True, 'loadedTime': 2716.60000000149, 'positionName': 'LEFT', 'positionCoords': [327.28, 227], 'bid': 4.8}, {'imgObject': {}, 'id': 'sweetpotato', 'src': '/static/foodstim60/sweetpotato.jpg', 'key': 'i', 'origWidth': 410, 'origHeight': 410, 'width': 410, 'height': 410, 'widthPercent': 0.45, 'rescaleHeight': False, 'trialN': 90, 'loaded': True, 'loadedTime': 2799.10000000149, 'positionName': 'RIGHT', 'positionCoords': [798.72, 227], 'bid': 0}]",152957.5,1669833014926,popsicles,sweetpotato,4.8,0.0,-4.8,popsicles,1029.0,1030,1029.6000000014901,True,u,154500.90000000224,1543.4000000022352,1669833016469,1543,HRV,HRV_0194,2022-11-30 18:32:49
91,"[{'imgObject': {}, 'id': 'bagel and cc', 'src': '/static/foodstim60/bagel and cc.jpg', 'key': 'u', 'origWidth': 410, 'origHeight': 410, 'width': 410, 'height': 410, 'widthPercent': 0.45, 'rescaleHeight': False, 'trialN': 91, 'loaded': True, 'loadedTime': 2792, 'positionName': 'LEFT', 'positionCoords': [327.28, 227], 'bid': 7.03}, {'imgObject': {}, 'id': 'raspberries', 'src': '/static/foodstim60/raspberries.jpg', 'key': 'i', 'origWidth': 411, 'origHeight': 411, 'width': 411, 'height': 411, 'widthPercent': 0.45, 'rescaleHeight': False, 'trialN': 91, 'loaded': True, 'loadedTime': 2625, 'positionName': 'RIGHT', 'positionCoords': [798.72, 226.5], 'bid': 4.98}]",154501.1000000015,1669833016470,bagel and cc,raspberries,7.03,4.98,-2.05,bagel and cc,834.1999999992549,834,834.6999999992549,True,u,155841.0,1339.8999999985099,1669833017810,1340,HRV,HRV_0194,2022-11-30 18:32:49
92,"[{'imgObject': {}, 'id': 'sweetpotato', 'src': '/static/foodstim60/sweetpotato.jpg', 'key': 'u', 'origWidth': 410, 'origHeight': 410, 'width': 410, 'height': 410, 'widthPercent': 0.45, 'rescaleHeight': False, 'trialN': 92, 'loaded': True, 'loadedTime': 2800, 'positionName': 'LEFT', 'positionCoords': [327.28, 227], 'bid': 0}, {'imgObject': {}, 'id': 'cherry tomato', 'src': '/static/foodstim60/cherry tomato.jpg', 'key': 'i', 'origWidth': 410, 'origHeight': 410, 'width': 410, 'height': 410, 'widthPercent': 0.45, 'rescaleHeight': False, 'trialN': 92, 'loaded': True, 'loadedTime': 2605.400000002235, 'positionName': 'RIGHT', 'positionCoords': [798.72, 227], 'bid': 0.26}]",155841.19999999925,1669833017810,sweetpotato,cherry tomato,0.0,0.26,0.26,sweetpotato,917.8000000007451,918,918.4000000022352,True,u,157272.5,1431.300000000745,1669833019241,1431,HRV,HRV_0194,2022-11-30 18:32:49
93,"[{'imgObject': {}, 'id': 'eggs', 'src': '/static/foodstim60/eggs.jpg', 'key': 'u', 'origWidth': 409, 'origHeight': 409, 'width': 409, 'height': 409, 'widthPercent': 0.45, 'rescaleHeight': False, 'trialN': 93, 'loaded': True, 'loadedTime': 2748.800000000745, 'positionName': 'LEFT', 'positionCoords': [328.28, 227.5], 'bid': 2.42}, {'imgObject': {}, 'id': 'eggsalad', 'src': '/static/foodstim60/eggsalad.jpg', 'key': 'i', 'origWidth': 410, 'origHeight': 409, 'width': 410, 'height': 409, 'widthPercent': 0.45, 'rescaleHeight': False, 'trialN': 93, 'loaded': True, 'loadedTime': 2419.699999999255, 'positionName': 'RIGHT', 'positionCoords': [798.72, 227.5], 'bid': 0.48}]",157272.80000000075,1669833019241,eggs,eggsalad,2.42,0.48,-1.94,eggs,1114.1000000014901,1115,1114.6000000014901,True,u,158903.0,1630.199999999255,1669833020872,1631,HRV,HRV_0194,2022-11-30 18:32:49
94,"[{'imgObject': {}, 'id': 'Grapes', 'src': '/static/foodstim60/Grapes.jpg', 'key': 'u', 'origWidth': 411, 'origHeight': 411, 'width': 411, 'height': 411, 'widthPercent': 0.45, 'rescaleHeight': False, 'trialN': 94, 'loaded': True, 'loadedTime': 2816.60000000149, 'positionName': 'LEFT', 'positionCoords': [326.28, 226.5], 'bid': 4.63}, {'imgObject': {}, 'id': 'fruitsalad', 'src': '/static/foodstim60/fruitsalad.jpg', 'key': 'i', 'origWidth': 410, 'origHeight': 410, 'width': 410, 'height': 410, 'widthPercent': 0.45, 'rescaleHeight': False, 'trialN': 94, 'loaded': True, 'loadedTime': 2665, 'positionName': 'RIGHT', 'positionCoords': [798.72, 227], 'bid': 4.58}]",158903.19999999925,1669833020872,Grapes,fruitsalad,4.63,4.58,-0.04999999999999982,Grapes,785.8000000007451,786,786.1000000014901,True,u,160206.1000000015,1302.9000000022352,1669833022175,1303,HRV,HRV_0194,2022-11-30 18:32:49
95,"[{'imgObject': {}, 'id': 'mango', 'src': '/static/foodstim60/mango.jpg', 'key': 'u', 'origWidth': 411, 'origHeight': 411, 'width': 411, 'height': 411, 'widthPercent': 0.45, 'rescaleHeight': False, 'trialN': 95, 'loaded': True, 'loadedTime': 2488.60000000149, 'positionName': 'LEFT', 'positionCoords': [326.28, 226.5], 'bid': 3.0700000000000003}, {'imgObject': {}, 'id': 'avocado', 'src': '/static/foodstim60/avocado.jpg', 'key': 'i', 'origWidth': 409, 'origHeight': 409, 'width': 409, 'height': 409, 'widthPercent': 0.45, 'rescaleHeight': False, 'trialN': 95, 'loaded': True, 'loadedTime': 2816.900000002235, 'positionName': 'RIGHT', 'positionCoords': [798.72, 227.5], 'bid': 1.49}]",160206.30000000075,1669833022175,mango,avocado,3.0700000000000003,1.49,-1.5800000000000003,mango,767.6000000014901,768,768.1000000014901,True,u,161483.80000000075,1277.5,1669833023452,1277,HRV,HRV_0194,2022-11-30 18:32:49
96,"[{'imgObject': {}, 'id': 'chicken nuggets2', 'src': '/static/foodstim60/chicken nuggets2.jpg', 'key': 'u', 'origWidth': 410, 'origHeight': 409, 'width': 410, 'height': 409, 'widthPercent': 0.45, 'rescaleHeight': False, 'trialN': 96, 'loaded': True, 'loadedTime': 2775.60000000149, 'positionName': 'LEFT', 'positionCoords': [327.28, 227.5], 'bid': 4.68}, {'imgObject': {}, 'id': 'granola w milk', 'src': '/static/foodstim60/granola w milk.jpg', 'key': 'i', 'origWidth': 410, 'origHeight': 410, 'width': 410, 'height': 410, 'widthPercent': 0.45, 'rescaleHeight': False, 'trialN': 96, 'loaded': True, 'loadedTime': 2695, 'positionName': 'RIGHT', 'positionCoords': [798.72, 227], 'bid': 0}]",161484.0,1669833023453,chicken nuggets2,granola w milk,4.68,0.0,-4.68,chicken nuggets2,1048.4000000022352,1048,1048.9000000022352,True,u,163049.0,1565.0,1669833025018,1565,HRV,HRV_0194,2022-11-30 18:32:49
97,"[{'imgObject': {}, 'id': 'Tribe humus pita', 'src': '/static/foodstim60/Tribe humus pita.jpg', 'key': 'u', 'origWidth': 411, 'origHeight': 411, 'width': 411, 'height': 411, 'widthPercent': 0.45, 'rescaleHeight': False, 'trialN': 97, 'loaded': True, 'loadedTime': 2411.800000000745, 'positionName': 'LEFT', 'positionCoords': [326.28, 226.5], 'bid': 6.9}, {'imgObject': {}, 'id': 'popsicles', 'src': '/static/foodstim60/popsicles.jpg', 'key': 'i', 'origWidth': 410, 'origHeight': 410, 'width': 410, 'height': 410, 'widthPercent': 0.45, 'rescaleHeight': False, 'trialN': 97, 'loaded': True, 'loadedTime': 2716.699999999255, 'positionName': 'RIGHT', 'positionCoords': [798.72, 227], 'bid': 4.8}]",163049.19999999925,1669833025018,Tribe humus pita,popsicles,6.9,4.8,-2.1000000000000005,Tribe humus pita,1309.800000000745,1310,1310.0,True,u,164875.90000000224,1826.7000000029802,1669833026845,1827,HRV,HRV_0194,2022-11-30 18:32:49
98,"[{'imgObject': {}, 'id': 'ice cream sundae 002', 'src': '/static/foodstim60/ice cream sundae 002.jpg', 'key': 'u', 'origWidth': 409, 'origHeight': 409, 'width': 409, 'height': 409, 'widthPercent': 0.45, 'rescaleHeight': False, 'trialN': 98, 'loaded': True, 'loadedTime': 2530.10000000149, 'positionName': 'LEFT', 'positionCoords': [328.28, 227.5], 'bid': 4.53}, {'imgObject': {}, 'id': 'blackbeanswithrice', 'src': '/static/foodstim60/blackbeanswithrice.jpg', 'key': 'i', 'origWidth': 410, 'origHeight': 410, 'width': 410, 'height': 410, 'widthPercent': 0.45, 'rescaleHeight': False, 'trialN': 98, 'loaded': True, 'loadedTime': 2751, 'positionName': 'RIGHT', 'positionCoords': [798.72, 227], 'bid': 9.89}]",164876.1000000015,1669833026845,ice cream sundae 002,blackbeanswithrice,4.53,9.89,5.36,blackbeanswithrice,606.8999999985099,607,607.5,True,i,165994.1000000015,1118.0,1669833027963,1118,HRV,HRV_0194,2022-11-30 18:32:49
99,"[{'imgObject': {}, 'id': 'raisin bran w milk', 'src': '/static/foodstim60/raisin bran w milk.jpg', 'key': 'u', 'origWidth': 411, 'origHeight': 411, 'width': 411, 'height': 411, 'widthPercent': 0.45, 'rescaleHeight': False, 'trialN': 99, 'loaded': True, 'loadedTime': 2646.800000000745, 'positionName': 'LEFT', 'positionCoords': [326.28, 226.5], 'bid': 0.03}, {'imgObject': {}, 'id': 'hashbrowns', 'src': '/static/foodstim60/hashbrowns.jpg', 'key': 'i', 'origWidth': 411, 'origHeight': 410, 'width': 411, 'height': 410, 'widthPercent': 0.45, 'rescaleHeight': False, 'trialN': 99, 'loaded': True, 'loadedTime': 2622.300000000745, 'positionName': 'RIGHT', 'positionCoords': [798.72, 227], 'bid': 1.05}]",165994.40000000224,1669833027963,raisin bran w milk,hashbrowns,0.03,1.05,1.02,raisin bran w milk,1826.7999999970198,1827,1827.2999999970198,True,u,168337.6000000015,2343.199999999255,1669833030306,2343,HRV,HRV_0194,2022-11-30 18:32:49
100,"[{'imgObject': {}, 'id': 'veggieswithdip', 'src': '/static/foodstim60/veggieswithdip.jpg', 'key': 'u', 'origWidth': 409, 'origHeight': 409, 'width': 409, 'height': 409, 'widthPercent': 0.45, 'rescaleHeight': False, 'trialN': 100, 'loaded': True, 'loadedTime': 2336.300000000745, 'positionName': 'LEFT', 'positionCoords': [328.28, 227.5], 'bid': 5.42}, {'imgObject': {}, 'id': 'turkeysandwich', 'src': '/static/foodstim60/turkeysandwich.jpg', 'key': 'i', 'origWidth': 409, 'origHeight': 409, 'width': 409, 'height': 409, 'widthPercent': 0.45, 'rescaleHeight': False, 'trialN': 100, 'loaded': True, 'loadedTime': 2572, 'positionName': 'RIGHT', 'positionCoords': [798.72, 227.5], 'bid': 7.6}]",168337.90000000224,1669833030307,veggieswithdip,turkeysandwich,5.42,7.6,2.1799999999999997,turkeysandwich,1215.2999999970198,1215,1215.5999999977648,True,i,170067.90000000224,1730.0,1669833032037,1730,HRV,HRV_0194,2022-11-30 18:32:49
101,"[{'imgObject': {}, 'id': 'corn cob', 'src': '/static/foodstim60/corn cob.jpg', 'key': 'u', 'origWidth': 411, 'origHeight': 411, 'width': 411, 'height': 411, 'widthPercent': 0.45, 'rescaleHeight': False, 'trialN': 101, 'loaded': True, 'loadedTime': 2795.800000000745, 'positionName': 'LEFT', 'positionCoords': [326.28, 226.5], 'bid': 9.73}, {'imgObject': {}, 'id': 'pear', 'src': '/static/foodstim60/pear.jpg', 'key': 'i', 'origWidth': 411, 'origHeight': 410, 'width': 411, 'height': 410, 'widthPercent': 0.45, 'rescaleHeight': False, 'trialN': 101, 'loaded': True, 'loadedTime': 2793.800000000745, 'positionName': 'RIGHT', 'positionCoords': [798.72, 227], 'bid': 6.97}]",170068.19999999925,1669833032037,corn cob,pear,9.73,6.97,-2.7600000000000007,corn cob,933.4000000022352,934,933.9000000022352,True,u,171511.6000000015,1443.4000000022352,1669833033480,1443,HRV,HRV_0194,2022-11-30 18:32:49
102,"[{'imgObject': {}, 'id': 'burger', 'src': '/static/foodstim60/burger.jpg', 'key': 'u', 'origWidth': 409, 'origHeight': 409, 'width': 409, 'height': 409, 'widthPercent': 0.45, 'rescaleHeight': False, 'trialN': 102, 'loaded': True, 'loadedTime': 2688.199999999255, 'positionName': 'LEFT', 'positionCoords': [328.28, 227.5], 'bid': 1.38}, {'imgObject': {}, 'id': 'eggs', 'src': '/static/foodstim60/eggs.jpg', 'key': 'i', 'origWidth': 409, 'origHeight': 409, 'width': 409, 'height': 409, 'widthPercent': 0.45, 'rescaleHeight': False, 'trialN': 102, 'loaded': True, 'loadedTime': 2748.699999999255, 'positionName': 'RIGHT', 'positionCoords': [798.72, 227.5], 'bid': 2.42}]",171511.80000000075,1669833033480,burger,eggs,1.38,2.42,1.04,eggs,1222.6000000014901,1224,1223.199999999255,True,i,173247.40000000224,1735.6000000014901,1669833035216,1736,HRV,HRV_0194,2022-11-30 18:32:49
103,"[{'imgObject': {}, 'id': 'burrito', 'src': '/static/foodstim60/burrito.jpg', 'key': 'u', 'origWidth': 410, 'origHeight': 410, 'width': 410, 'height': 410, 'widthPercent': 0.45, 'rescaleHeight': False, 'trialN': 103, 'loaded': True, 'loadedTime': 2772.199999999255, 'positionName': 'LEFT', 'positionCoords': [327.28, 227], 'bid': 4.67}, {'imgObject': {}, 'id': 'salmon', 'src': '/static/foodstim60/salmon.jpg', 'key': 'i', 'origWidth': 410, 'origHeight': 409, 'width': 410, 'height': 409, 'widthPercent': 0.45, 'rescaleHeight': False, 'trialN': 103, 'loaded': True, 'loadedTime': 2412.10000000149, 'positionName': 'RIGHT', 'positionCoords': [798.72, 227.5], 'bid': 5.03}]",173247.6000000015,1669833035216,burrito,salmon,4.67,5.03,0.3600000000000003,burrito,2053.099999997765,2054,2053.5,True,u,175811.1000000015,2563.5,1669833037780,2564,HRV,HRV_0194,2022-11-30 18:32:49
104,"[{'imgObject': {}, 'id': 'froot loops w milk', 'src': '/static/foodstim60/froot loops w milk.jpg', 'key': 'u', 'origWidth': 410, 'origHeight': 410, 'width': 410, 'height': 410, 'widthPercent': 0.45, 'rescaleHeight': False, 'trialN': 104, 'loaded': True, 'loadedTime': 2734.400000002235, 'positionName': 'LEFT', 'positionCoords': [327.28, 227], 'bid': 1.18}, {'imgObject': {}, 'id': 'yogurt no spoon', 'src': '/static/foodstim60/yogurt no spoon.jpg', 'key': 'i', 'origWidth': 411, 'origHeight': 410, 'width': 411, 'height': 410, 'widthPercent': 0.45, 'rescaleHeight': False, 'trialN': 104, 'loaded': True, 'loadedTime': 2821.199999999255, 'positionName': 'RIGHT', 'positionCoords': [798.72, 227], 'bid': 5.5200000000000005}]",175811.30000000075,1669833037780,froot loops w milk,yogurt no spoon,1.18,5.5200000000000005,4.340000000000001,yogurt no spoon,1087.699999999255,1088,1088.1000000014901,True,i,177408.6000000015,1597.300000000745,1669833039377,1597,HRV,HRV_0194,2022-11-30 18:32:49
105,"[{'imgObject': {}, 'id': 'grilled chicken strips', 'src': '/static/foodstim60/grilled chicken strips.jpg', 'key': 'u', 'origWidth': 410, 'origHeight': 411, 'width': 410, 'height': 411, 'widthPercent': 0.45, 'rescaleHeight': False, 'trialN': 105, 'loaded': True, 'loadedTime': 2820.10000000149, 'positionName': 'LEFT', 'positionCoords': [327.28, 226.5], 'bid': 4.97}, {'imgObject': {}, 'id': 'pear', 'src': '/static/foodstim60/pear.jpg', 'key': 'i', 'origWidth': 411, 'origHeight': 410, 'width': 411, 'height': 410, 'widthPercent': 0.45, 'rescaleHeight': False, 'trialN': 105, 'loaded': True, 'loadedTime': 2792.60000000149, 'positionName': 'RIGHT', 'positionCoords': [798.72, 227], 'bid': 6.97}]",177408.80000000075,1669833039377,grilled chicken strips,pear,4.97,6.97,2.0,pear,1088.199999999255,1089,1088.699999999255,True,i,179015.90000000224,1607.1000000014901,1669833040984,1607,HRV,HRV_0194,2022-11-30 18:32:49
106,"[{'imgObject': {}, 'id': 'eggsalad', 'src': '/static/foodstim60/eggsalad.jpg', 'key': 'u', 'origWidth': 410, 'origHeight': 409, 'width': 410, 'height': 409, 'widthPercent': 0.45, 'rescaleHeight': False, 'trialN': 106, 'loaded': True, 'loadedTime': 2420, 'positionName': 'LEFT', 'positionCoords': [327.28, 227.5], 'bid': 0.48}, {'imgObject': {}, 'id': 'lox', 'src': '/static/foodstim60/lox.jpg', 'key': 'i', 'origWidth': 410, 'origHeight': 411, 'width': 410, 'height': 411, 'widthPercent': 0.45, 'rescaleHeight': False, 'trialN': 106, 'loaded': True, 'loadedTime': 2587.800000000745, 'positionName': 'RIGHT', 'positionCoords': [798.72, 226.5], 'bid': 0}]",179016.30000000075,1669833040985,eggsalad,lox,0.48,0.0,-0.48,eggsalad,703.8999999985099,704,704.3999999985099,True,u,180230.1000000015,1213.800000000745,1669833042199,1214,HRV,HRV_0194,2022-11-30 18:32:49
107,"[{'imgObject': {}, 'id': 'edamame', 'src': '/static/foodstim60/edamame.jpg', 'key': 'u', 'origWidth': 409, 'origHeight': 410, 'width': 409, 'height': 410, 'widthPercent': 0.45, 'rescaleHeight': False, 'trialN': 107, 'loaded': True, 'loadedTime': 2590.10000000149, 'positionName': 'LEFT', 'positionCoords': [328.28, 227], 'bid': 2.34}, {'imgObject': {}, 'id': 'cherries', 'src': '/static/foodstim60/cherries.jpg', 'key': 'i', 'origWidth': 410, 'origHeight': 411, 'width': 410, 'height': 411, 'widthPercent': 0.45, 'rescaleHeight': False, 'trialN': 107, 'loaded': True, 'loadedTime': 2404.300000000745, 'positionName': 'RIGHT', 'positionCoords': [798.72, 226.5], 'bid': 0.15}]",180230.40000000224,1669833042199,edamame,cherries,2.34,0.15,-2.19,edamame,1093.5,1094,1094.0,True,u,181834.5,1604.0999999977648,1669833043803,1604,HRV,HRV_0194,2022-11-30 18:32:49
108,"[{'imgObject': {}, 'id': 'grilled chicken strips', 'src': '/static/foodstim60/grilled chicken strips.jpg', 'key': 'u', 'origWidth': 410, 'origHeight': 411, 'width': 410, 'height': 411, 'widthPercent': 0.45, 'rescaleHeight': False, 'trialN': 108, 'loaded': True, 'loadedTime': 2818.900000002235, 'positionName': 'LEFT', 'positionCoords': [327.28, 226.5], 'bid': 4.97}, {'imgObject': {}, 'id': 'banana', 'src': '/static/foodstim60/banana.jpg', 'key': 'i', 'origWidth': 410, 'origHeight': 410, 'width': 410, 'height': 410, 'widthPercent': 0.45, 'rescaleHeight': False, 'trialN': 108, 'loaded': True, 'loadedTime': 2395.60000000149, 'positionName': 'RIGHT', 'positionCoords': [798.72, 227], 'bid': 4.98}]",181834.80000000075,1669833043803,grilled chicken strips,banana,4.97,4.98,0.010000000000000675,banana,1476.6000000014901,1477,1477.1000000014901,True,i,183822.69999999925,1987.8999999985099,1669833045791,1988,HRV,HRV_0194,2022-11-30 18:32:49
