success,trial_type,trial_index,time_elapsed,internal_node_id,Block,TrialNumber,TrialTime,trialTimeDiff,FPS_avg,FPS_med,FPS_mode,TrialDur,winResizeTime,rt,block,button_pressed,MotCoh,MotDir,ColCoh,Color,ChoiceKey,Choice,Accuracy,RT,nFrames,FPS,PPD,missTrial,missTrialMsg,onsetDelay,fullScreenExitTime,canvCenter,TrialType,Score,BlockTrial,stimulus,button_labels,exp,subjectId,date
True,fullscreen,0,2050,0.0-0.0,0.0,1.0,,,,,,,,,,,,,,,,,,,,,,,,,,,,,,,,HRV,HRV_0194,2022-11-30 18:57:46
,wl-check-fps,1,7053,0.0-1.0,0.0,2.0,"[2593.6, 2609.3, 2626, 2642.6, 2659.4, 2676, 2692.8, 2709.5, 2726, 2742.7, 2760.8, 2776, 2792.6, 2809.5, 2826.1, 2842.5, 2859.1, 2875.8, 2892.6, 2909.2, 2925.8, 2942.6, 2959.1, 2975.6, 2992.5, 3009.1, 3025.9, 3042.3, 3059.1, 3075.9, 3092.5, 3109.2, 3125.7, 3142.5, 3159.3, 3175.7, 3192.9, 3209.3, 3225.6, 3242.5, 3259, 3275.7, 3292.6, 3309.2, 3326.4, 3342.7, 3359, 3375.9, 3392.7, 3409.4, 3426, 3442.4, 3459.2, 3476, 3492.2, 3508.7, 3525.5, 3542.3, 3558.9, 3575.8, 3592.2, 3608.9, 3625.5, 3642.1, 3658.8, 3675.4, 3692.1, 3708.8, 3725.4, 3742.4, 3758.8, 3775.5, 3792.1, 3808.8, 3826, 3842.1, 3858.7, 3875.5, 3892.1, 3908.8, 3925.4, 3942.1, 3958.6, 3975.3, 3992.1, 4008.6, 4025.4, 4041.9, 4058.5, 4075.7, 4091.9, 4108.7, 4125.2, 4141.9, 4158.6, 4175.3, 4192, 4208.6, 4225.1, 4241.9, 4258.5, 4275.2, 4291.9, 4308.5, 4325.5, 4341.9, 4358.6, 4375.1, 4391.8, 4408.5, 4425.2, 4441.7, 4458.5, 4475.2, 4492, 4508.5, 4525.4, 4542.2, 4558.6, 4575.7, 4592, 4608.8, 4625.4, 4642.3, 4658.5, 4675.3, 4692.1, 4708.9, 4725.2, 4742.7, 4758.3, 4774.8, 4791.8, 4808.5, 4825.1, 4841.3, 4858.1, 4874.8, 4891.6, 4908.2, 4924.9, 4941.6, 4958.3, 4975, 4991.6, 5008.2, 5025.1, 5041.5, 5058.4, 5075.2, 5092, 5108.2, 5124.9, 5141.5, 5158.2, 5174.7, 5191.4, 5208.3, 5224.8, 5241.3, 5258.1, 5274.8, 5291.4, 5308.1, 5325.1, 5341.8, 5358, 5375, 5391.3, 5408.1, 5424.7, 5441.2, 5458, 5474.6, 5491.3, 5508, 5524.6, 5541.4, 5557.9, 5574.7, 5591.5, 5607.8, 5624.6, 5641.1, 5657.9, 5674.6, 5691.3, 5707.9, 5724.6, 5741.1, 5757.8, 5774.6, 5791.1, 5808, 5824.5, 5841.5, 5857.8, 5874.6, 5891.2, 5908.4, 5925, 5941.2, 5957.8, 5974.7, 5991.1, 6008.1, 6025, 6041.2, 6057.9, 6074.4, 6091.2, 6108, 6124.7, 6141.2, 6157.8, 6174.6, 6191.1, 6207.9, 6224.5, 6241.4, 6257.9, 6274.5, 6291.5, 6308.1, 6324.5, 6341.5, 6357.7, 6374.7, 6391.4, 6407.9, 6424.5, 6441.6, 6457.9, 6474.9, 6491.6, 6508.2, 6524.4, 6541.3, 6557.8, 6574.6, 6591.7, 6607.9, 6624.6, 6641.2, 6658.1, 6674.4, 6691.3, 6707.9, 6724.4, 6741.3, 6757.8, 6774.5, 6791.1, 6807.8, 6824.5, 6841.4, 6857.6, 6874.4, 6891.2, 6907.6, 6924.4, 6941.1, 6957.5, 6974.2, 6990.7, 7007.6, 7024.2, 7040.9, 7057.8, 7074.2, 7091, 7107.5, 7124, 7140.8, 7157.4, 7174.1, 7190.8, 7207.4, 7224.1, 7240.9, 7257.5, 7274, 7290.7, 7307.4, 7323.9, 7340.9, 7357.3, 7374.2, 7390.6, 7407.3, 7423.8, 7440.8, 7457.1, 7473.8, 7490.6, 7507.2, 7523.8, 7540.5, 7557, 7573.9]","[3.4, 15.7, 16.7, 16.6, 16.8, 16.6, 16.8, 16.7, 16.5, 16.7, 18.1, 15.2, 16.6, 16.9, 16.6, 16.4, 16.6, 16.7, 16.8, 16.6, 16.6, 16.8, 16.5, 16.5, 16.9, 16.6, 16.8, 16.4, 16.8, 16.8, 16.6, 16.7, 16.5, 16.8, 16.8, 16.4, 17.2, 16.4, 16.3, 16.9, 16.5, 16.7, 16.9, 16.6, 17.2, 16.3, 16.3, 16.9, 16.8, 16.7, 16.6, 16.4, 16.8, 16.8, 16.2, 16.5, 16.8, 16.8, 16.6, 16.9, 16.4, 16.7, 16.6, 16.6, 16.7, 16.6, 16.7, 16.7, 16.6, 17, 16.4, 16.7, 16.6, 16.7, 17.2, 16.1, 16.6, 16.8, 16.6, 16.7, 16.6, 16.7, 16.5, 16.7, 16.8, 16.5, 16.8, 16.5, 16.6, 17.2, 16.2, 16.8, 16.5, 16.7, 16.7, 16.7, 16.7, 16.6, 16.5, 16.8, 16.6, 16.7, 16.7, 16.6, 17, 16.4, 16.7, 16.5, 16.7, 16.7, 16.7, 16.5, 16.8, 16.7, 16.8, 16.5, 16.9, 16.8, 16.4, 17.1, 16.3, 16.8, 16.6, 16.9, 16.2, 16.8, 16.8, 16.8, 16.3, 17.5, 15.6, 16.5, 17, 16.7, 16.6, 16.2, 16.8, 16.7, 16.8, 16.6, 16.7, 16.7, 16.7, 16.7, 16.6, 16.6, 16.9, 16.4, 16.9, 16.8, 16.8, 16.2, 16.7, 16.6, 16.7, 16.5, 16.7, 16.9, 16.5, 16.5, 16.8, 16.7, 16.6, 16.7, 17, 16.7, 16.2, 17, 16.3, 16.8, 16.6, 16.5, 16.8, 16.6, 16.7, 16.7, 16.6, 16.8, 16.5, 16.8, 16.8, 16.3, 16.8, 16.5, 16.8, 16.7, 16.7, 16.6, 16.7, 16.5, 16.7, 16.8, 16.5, 16.9, 16.5, 17, 16.3, 16.8, 16.6, 17.2, 16.6, 16.2, 16.6, 16.9, 16.4, 17, 16.9, 16.2, 16.7, 16.5, 16.8, 16.8, 16.7, 16.5, 16.6, 16.8, 16.5, 16.8, 16.6, 16.9, 16.5, 16.6, 17, 16.6, 16.4, 17, 16.2, 17, 16.7, 16.5, 16.6, 17.1, 16.3, 17, 16.7, 16.6, 16.2, 16.9, 16.5, 16.8, 17.1, 16.2, 16.7, 16.6, 16.9, 16.3, 16.9, 16.6, 16.5, 16.9, 16.5, 16.7, 16.6, 16.7, 16.7, 16.9, 16.2, 16.8, 16.8, 16.4, 16.8, 16.7, 16.4, 16.7, 16.5, 16.9, 16.6, 16.7, 16.9, 16.4, 16.8, 16.5, 16.5, 16.8, 16.6, 16.7, 16.7, 16.6, 16.7, 16.8, 16.6, 16.5, 16.7, 16.7, 16.5, 17, 16.4, 16.9, 16.4, 16.7, 16.5, 17, 16.3, 16.7, 16.8, 16.6, 16.6, 16.7, 16.5, 16.9]",60.0,60.0,60.0,5000.7,[],,,,,,,,,,,,,,,,,,,,,,,,,HRV,HRV_0194,2022-11-30 18:57:46
,wl-html-keyboard-response,2,23685,0.0-2.0-0.0,0.0,3.0,,,,,,,,14616.60000000149,0.0,0,,,,,,,,,,,,,,,,,,,,,,HRV,HRV_0194,2022-11-30 18:57:46
,wl-rdm,3,30508,0.0-3.0-0.0,0.0,4.0,,,,,,,[],,,,0.0,0.0,87.9,0.0,u,0.0,True,1219.6000000014901,74.0,60.0,40.0,False,,3000.0,[],"[768, 432]",ColorTask_Demo,,,,,HRV,HRV_0194,2022-11-30 18:57:46
,wl-rdm,4,35139,0.0-3.0-1.0,0.0,5.0,,,,,,,[],,,,0.0,0.0,87.9,1.0,i,1.0,True,535.9000000022352,33.0,60.0,40.0,False,,2000.0,[],"[768, 432]",ColorTask_Demo,,,,,HRV,HRV_0194,2022-11-30 18:57:46
,wl-html-keyboard-response,5,39714,0.0-3.0-2.0,0.0,6.0,,,,,,,,2554.099999997765,0.0,1,,,,,,,,,,,,,,,,,,,,,,HRV,HRV_0194,2022-11-30 18:57:46
,wl-html-keyboard-response,6,47157,0.0-4.0-0.0,0.0,7.0,,,,,,,,5434.199999999255,0.0,0,,,,,,,,,,,,,,,,,,,,,,HRV,HRV_0194,2022-11-30 18:57:46
,wl-html-keyboard-response,7,67469,0.0-5.0-0.0,0.0,8.0,,,,,,,,18305.5,0.0,0,,,,,,,,,,,,,,,,,,,,,,HRV,HRV_0194,2022-11-30 18:57:46
,wl-rdm,8,69955,0.0-6.0-0.0,0.0,9.0,,,,,,,[],,,,,,73.6,0.0,u,0.0,True,1170.4000000022352,71.0,60.0,40.0,False,,225.06202126445123,[],"[768, 432]",ColorTask,1.0,1.0,,,HRV,HRV_0194,2022-11-30 18:57:46
,wl-rdm,9,71955,0.0-6.1-0.1,0.0,10.0,,,,,,,[],,,,,,73.6,1.0,i,1.0,True,668.1999999992549,41.0,60.0,40.0,False,,236.51656194825807,[],"[768, 432]",ColorTask,2.0,2.0,,,HRV,HRV_0194,2022-11-30 18:57:46
,wl-rdm,10,74055,0.0-6.2-0.2,0.0,11.0,,,,,,,[],,,,,,53.2,1.0,i,1.0,True,805.6000000014901,49.0,60.0,40.0,False,,209.9600058438905,[],"[768, 432]",ColorTask,3.0,3.0,,,HRV,HRV_0194,2022-11-30 18:57:46
,wl-rdm,11,76003,0.0-6.3-0.3,0.0,12.0,,,,,,,[],,,,,,87.9,0.0,u,0.0,True,589.9000000022352,36.0,60.0,40.0,False,,294.928012958302,[],"[768, 432]",ColorTask,4.0,4.0,,,HRV,HRV_0194,2022-11-30 18:57:46
,wl-rdm,12,78086,0.0-6.4-0.4,0.0,13.0,,,,,,,[],,,,,,73.6,0.0,u,0.0,True,717.9999999962747,44.0,60.0,40.0,False,,267.5167492610891,[],"[768, 432]",ColorTask,5.0,5.0,,,HRV,HRV_0194,2022-11-30 18:57:46
,wl-rdm,13,80068,0.0-6.5-0.5,0.0,14.0,,,,,,,[],,,,,,56.4,1.0,i,1.0,True,689.3999999985099,42.0,60.0,40.0,False,,216.03013635346923,[],"[768, 432]",ColorTask,6.0,6.0,,,HRV,HRV_0194,2022-11-30 18:57:46
,wl-rdm,14,82084,0.0-6.6-0.6,0.0,15.0,,,,,,,[],,,,,,73.6,0.0,u,0.0,True,672.8000000007451,41.0,60.0,40.0,False,,266.4704647062555,[],"[768, 432]",ColorTask,7.0,7.0,,,HRV,HRV_0194,2022-11-30 18:57:46
,wl-rdm,15,84300,0.0-6.7-0.7,0.0,16.0,,,,,,,[],,,,,,62.5,0.0,u,0.0,True,892.8000000007451,54.0,60.0,40.0,False,,243.32083081707262,[],"[768, 432]",ColorTask,8.0,8.0,,,HRV,HRV_0194,2022-11-30 18:57:46
,wl-rdm,16,86399,0.0-6.8-0.8,0.0,17.0,,,,,,,[],,,,,,73.6,0.0,u,0.0,True,811.0000000037253,49.0,60.0,40.0,False,,205.94072875916527,[],"[768, 432]",ColorTask,9.0,9.0,,,HRV,HRV_0194,2022-11-30 18:57:46
,wl-rdm,17,88415,0.0-6.9-0.9,0.0,18.0,,,,,,,[],,,,,,62.5,1.0,i,1.0,True,642.3999999985099,39.0,60.0,40.0,False,,298.25403639091905,[],"[768, 432]",ColorTask,10.0,10.0,,,HRV,HRV_0194,2022-11-30 18:57:46
,wl-rdm,18,90363,0.0-6.10-0.10,0.0,19.0,,,,,,,[],,,,,,53.2,1.0,i,1.0,True,635.0,39.0,60.0,40.0,False,,223.95897923795343,[],"[768, 432]",ColorTask,11.0,11.0,,,HRV,HRV_0194,2022-11-30 18:57:46
,wl-rdm,19,92396,0.0-6.11-0.11,0.0,20.0,,,,,,,[],,,,,,50.0,0.0,i,1.0,False,712.5,43.0,60.0,40.0,False,,235.07643934726423,[],"[768, 432]",ColorTask,10.0,12.0,,,HRV,HRV_0194,2022-11-30 18:57:46
,wl-rdm,20,94728,0.0-6.12-0.12,0.0,21.0,,,,,,,[],,,,,,56.4,0.0,u,0.0,True,1023.4000000022352,62.0,60.0,40.0,False,,222.31161305616214,[],"[768, 432]",ColorTask,11.0,13.0,,,HRV,HRV_0194,2022-11-30 18:57:46
,wl-rdm,21,97444,0.0-6.13-0.13,0.0,22.0,,,,,,,[],,,,,,53.2,1.0,u,0.0,False,1303.800000000745,79.0,60.0,40.0,False,,317.82675555209516,[],"[768, 432]",ColorTask,10.0,14.0,,,HRV,HRV_0194,2022-11-30 18:57:46
,wl-rdm,22,99659,0.0-6.14-0.14,0.0,23.0,,,,,,,[],,,,,,56.4,0.0,u,0.0,True,931.3999999985099,56.0,60.0,40.0,False,,216.09688991465407,[],"[768, 432]",ColorTask,11.0,15.0,,,HRV,HRV_0194,2022-11-30 18:57:46
,wl-rdm,23,101625,0.0-6.15-0.15,0.0,24.0,,,,,,,[],,,,,,87.9,1.0,i,1.0,True,668.2000000029802,41.0,60.0,40.0,False,,203.97253469942305,[],"[768, 432]",ColorTask,12.0,16.0,,,HRV,HRV_0194,2022-11-30 18:57:46
,wl-rdm,24,103674,0.0-6.16-0.16,0.0,25.0,,,,,,,[],,,,,,62.5,0.0,u,0.0,True,665.7000000029802,40.0,60.0,40.0,False,,310.82065668399775,[],"[768, 432]",ColorTask,13.0,17.0,,,HRV,HRV_0194,2022-11-30 18:57:46
,wl-rdm,25,105657,0.0-6.17-0.17,0.0,26.0,,,,,,,[],,,,,,53.2,0.0,u,0.0,True,689.8000000007451,42.0,60.0,40.0,False,,209.46668638626352,[],"[768, 432]",ColorTask,14.0,18.0,,,HRV,HRV_0194,2022-11-30 18:57:46
,wl-rdm,26,107639,0.0-6.18-0.18,0.0,27.0,,,,,,,[],,,,,,87.9,1.0,i,1.0,True,510.1000000014901,31.0,60.0,40.0,False,,397.3124531908989,[],"[768, 432]",ColorTask,15.0,19.0,,,HRV,HRV_0194,2022-11-30 18:57:46
,wl-rdm,27,109838,0.0-6.19-0.19,0.0,28.0,,,,,,,[],,,,,,62.5,0.0,u,0.0,True,741.7999999970198,45.0,60.0,40.0,False,,380.872335250314,[],"[768, 432]",ColorTask,16.0,20.0,,,HRV,HRV_0194,2022-11-30 18:57:46
,wl-rdm,28,111655,0.0-6.20-0.20,0.0,29.0,,,,,,,[],,,,,,87.9,1.0,i,1.0,True,499.9000000022352,30.0,60.0,40.0,False,,238.77660047326833,[],"[768, 432]",ColorTask,17.0,21.0,,,HRV,HRV_0194,2022-11-30 18:57:46
,wl-rdm,29,113587,0.0-6.21-0.21,0.0,30.0,,,,,,,[],,,,,,87.9,1.0,i,1.0,True,515.0999999977648,31.0,60.0,40.0,False,,341.0668635056439,[],"[768, 432]",ColorTask,18.0,22.0,,,HRV,HRV_0194,2022-11-30 18:57:46
,wl-rdm,30,115436,0.0-6.22-0.22,0.0,31.0,,,,,,,[],,,,,,53.2,0.0,i,1.0,False,457.70000000298023,28.0,60.0,40.0,False,,302.0075800255889,[],"[768, 432]",ColorTask,17.0,23.0,,,HRV,HRV_0194,2022-11-30 18:57:46
,wl-rdm,31,117502,0.0-6.23-0.23,0.0,32.0,,,,,,,[],,,,,,50.0,1.0,i,1.0,True,759.9000000022352,46.0,60.0,40.0,False,,223.2423581679484,[],"[768, 432]",ColorTask,18.0,24.0,,,HRV,HRV_0194,2022-11-30 18:57:46
,wl-rdm,32,119434,0.0-6.24-0.24,0.0,33.0,,,,,,,[],,,,,,87.9,0.0,u,0.0,True,610.3999999985099,37.0,60.0,40.0,False,,240.53663161063852,[],"[768, 432]",ColorTask,19.0,25.0,,,HRV,HRV_0194,2022-11-30 18:57:46
,wl-rdm,33,122332,0.0-6.25-0.25,0.0,34.0,,,,,,,[],,,,,,56.4,1.0,i,1.0,True,1519.4000000022352,92.0,60.0,40.0,False,,290.338724505409,[],"[768, 432]",ColorTask,20.0,26.0,,,HRV,HRV_0194,2022-11-30 18:57:46
,wl-rdm,34,124399,0.0-6.26-0.26,0.0,35.0,,,,,,,[],,,,,,87.9,0.0,u,0.0,True,637.1999999992549,39.0,60.0,40.0,False,,337.41838486341453,[],"[768, 432]",ColorTask,21.0,27.0,,,HRV,HRV_0194,2022-11-30 18:57:46
,wl-rdm,35,126398,0.0-6.27-0.27,0.0,36.0,,,,,,,[],,,,,,56.4,0.0,u,0.0,True,681.2999999970198,41.0,60.0,40.0,False,,236.80526798964786,[],"[768, 432]",ColorTask,22.0,28.0,,,HRV,HRV_0194,2022-11-30 18:57:46
,wl-rdm,36,128596,0.0-6.28-0.28,0.0,37.0,,,,,,,[],,,,,,53.2,0.0,u,0.0,True,865.5,52.0,60.0,40.0,False,,250.6611729370674,[],"[768, 432]",ColorTask,23.0,29.0,,,HRV,HRV_0194,2022-11-30 18:57:46
,wl-rdm,37,131029,0.0-6.29-0.29,0.0,38.0,,,,,,,[],,,,,,62.5,0.0,u,0.0,True,1051.9999999962747,64.0,60.0,40.0,False,,283.6113968518118,[],"[768, 432]",ColorTask,24.0,30.0,,,HRV,HRV_0194,2022-11-30 18:57:46
,wl-rdm,38,133295,0.0-6.30-0.30,0.0,39.0,,,,,,,[],,,,,,56.4,0.0,u,0.0,True,886.3000000007451,54.0,60.0,40.0,False,,284.18172790737344,[],"[768, 432]",ColorTask,25.0,31.0,,,HRV,HRV_0194,2022-11-30 18:57:46
,wl-rdm,39,135261,0.0-6.31-0.31,0.0,40.0,,,,,,,[],,,,,,87.9,0.0,u,0.0,True,673.3000000007451,41.0,60.0,40.0,False,,203.0803827544086,[],"[768, 432]",ColorTask,26.0,32.0,,,HRV,HRV_0194,2022-11-30 18:57:46
,wl-rdm,40,137360,0.0-6.32-0.32,0.0,41.0,,,,,,,[],,,,,,50.0,1.0,i,1.0,True,641.0,39.0,60.0,40.0,False,,380.03946732237574,[],"[768, 432]",ColorTask,27.0,33.0,,,HRV,HRV_0194,2022-11-30 18:57:46
,wl-rdm,41,139359,0.0-6.33-0.33,0.0,42.0,,,,,,,[],,,,,,87.9,0.0,u,0.0,True,548.8999999947846,33.0,60.0,40.0,False,,382.74840234502943,[],"[768, 432]",ColorTask,28.0,34.0,,,HRV,HRV_0194,2022-11-30 18:57:46
,wl-rdm,42,141507,0.0-6.34-0.34,0.0,43.0,,,,,,,[],,,,,,50.0,0.0,u,0.0,True,803.1999999992549,49.0,60.0,40.0,False,,255.10139436941984,[],"[768, 432]",ColorTask,29.0,35.0,,,HRV,HRV_0194,2022-11-30 18:57:46
,wl-rdm,43,144139,0.0-6.35-0.35,0.0,44.0,,,,,,,[],,,,,,53.2,1.0,i,1.0,True,1268.4999999962747,77.0,60.0,40.0,False,,275.06679836749765,[],"[768, 432]",ColorTask,30.0,36.0,,,HRV,HRV_0194,2022-11-30 18:57:46
,wl-rdm,44,146772,0.0-6.36-0.36,0.0,45.0,,,,,,,[],,,,,,56.4,0.0,u,0.0,True,1253.1999999955297,76.0,60.0,40.0,False,,298.5856766842883,[],"[768, 432]",ColorTask,31.0,37.0,,,HRV,HRV_0194,2022-11-30 18:57:46
,wl-rdm,45,149453,0.0-6.37-0.37,0.0,46.0,,,,,,,[],,,,,,87.9,1.0,i,1.0,True,1285.7000000029802,78.0,60.0,40.0,False,,301.8527249030851,[],"[768, 432]",ColorTask,32.0,38.0,,,HRV,HRV_0194,2022-11-30 18:57:46
,wl-rdm,46,152169,0.0-6.38-0.38,0.0,47.0,,,,,,,[],,,,,,53.2,1.0,i,1.0,True,1436.3999999985099,87.0,60.0,40.0,False,,206.05997015255662,[],"[768, 432]",ColorTask,33.0,39.0,,,HRV,HRV_0194,2022-11-30 18:57:46
,wl-rdm,47,154718,0.0-6.39-0.39,0.0,48.0,,,,,,,[],,,,,,62.5,1.0,i,1.0,True,1213.2000000029802,73.0,60.0,40.0,False,,251.6026591160179,[],"[768, 432]",ColorTask,34.0,40.0,,,HRV,HRV_0194,2022-11-30 18:57:46
,wl-rdm,48,157201,0.0-6.40-0.40,0.0,49.0,,,,,,,[],,,,,,62.5,0.0,i,1.0,False,1019.4999999962747,62.0,60.0,40.0,False,,397.62154844414255,[],"[768, 432]",ColorTask,33.0,41.0,,,HRV,HRV_0194,2022-11-30 18:57:46
,wl-rdm,49,159666,0.0-6.41-0.41,0.0,50.0,,,,,,,[],,,,,,56.4,1.0,i,1.0,True,1071.300000000745,65.0,60.0,40.0,False,,326.51826555898657,[],"[768, 432]",ColorTask,34.0,42.0,,,HRV,HRV_0194,2022-11-30 18:57:46
,wl-rdm,50,161598,0.0-6.42-0.42,0.0,51.0,,,,,,,[],,,,,,73.6,1.0,i,1.0,True,463.5,28.0,60.0,40.0,False,,396.15130228197074,[],"[768, 432]",ColorTask,35.0,43.0,,,HRV,HRV_0194,2022-11-30 18:57:46
,wl-rdm,51,163564,0.0-6.43-0.43,0.0,52.0,,,,,,,[],,,,,,62.5,0.0,u,0.0,True,642.3999999985099,39.0,60.0,40.0,False,,236.74327216050116,[],"[768, 432]",ColorTask,36.0,44.0,,,HRV,HRV_0194,2022-11-30 18:57:46
,wl-rdm,52,166063,0.0-6.44-0.44,0.0,53.0,,,,,,,[],,,,,,53.2,1.0,u,0.0,False,1169.1000000014901,71.0,60.0,40.0,False,,241.73587899580318,[],"[768, 432]",ColorTask,35.0,45.0,,,HRV,HRV_0194,2022-11-30 18:57:46
,wl-rdm,53,168195,0.0-6.45-0.45,0.0,54.0,,,,,,,[],,,,,,50.0,0.0,i,1.0,False,737.9999999962747,45.0,60.0,40.0,False,,322.6948428093299,[],"[768, 432]",ColorTask,34.0,46.0,,,HRV,HRV_0194,2022-11-30 18:57:46
,wl-rdm,54,170677,0.0-6.46-0.46,0.0,55.0,,,,,,,[],,,,,,56.4,0.0,u,0.0,True,1106.6000000014901,67.0,60.0,40.0,False,,290.0821579830748,[],"[768, 432]",ColorTask,35.0,47.0,,,HRV,HRV_0194,2022-11-30 18:57:46
,wl-rdm,55,172677,0.0-6.47-0.47,0.0,56.0,,,,,,,[],,,,,,62.5,1.0,i,1.0,True,677.1000000014901,41.0,60.0,40.0,False,,248.33795311376912,[],"[768, 432]",ColorTask,36.0,48.0,,,HRV,HRV_0194,2022-11-30 18:57:46
,wl-rdm,56,174726,0.0-6.48-0.48,0.0,57.0,,,,,,,[],,,,,,87.9,0.0,u,0.0,True,618.8000000007451,38.0,60.0,40.0,False,,359.4783797545919,[],"[768, 432]",ColorTask,37.0,49.0,,,HRV,HRV_0194,2022-11-30 18:57:46
,wl-rdm,57,176707,0.0-6.49-0.49,0.0,58.0,,,,,,,[],,,,,,62.5,1.0,i,1.0,True,664.8999999985099,40.0,60.0,40.0,False,,245.76423279803694,[],"[768, 432]",ColorTask,38.0,50.0,,,HRV,HRV_0194,2022-11-30 18:57:46
,wl-rdm,58,179124,0.0-6.50-0.50,0.0,59.0,,,,,,,[],,,,,,56.4,1.0,i,1.0,True,1115.0999999977648,67.0,60.0,40.0,False,,217.80481804005618,[],"[768, 432]",ColorTask,39.0,51.0,,,HRV,HRV_0194,2022-11-30 18:57:46
,wl-rdm,59,181605,0.0-6.51-0.51,0.0,60.0,,,,,,,[],,,,,,56.4,1.0,i,1.0,True,1138.1000000014901,69.0,60.0,40.0,False,,265.89781848933103,[],"[768, 432]",ColorTask,40.0,52.0,,,HRV,HRV_0194,2022-11-30 18:57:46
,wl-rdm,60,183506,0.0-6.52-0.52,0.0,61.0,,,,,,,[],,,,,,56.4,1.0,i,1.0,True,598.3000000007451,36.0,60.0,40.0,False,,223.9459370385935,[],"[768, 432]",ColorTask,41.0,53.0,,,HRV,HRV_0194,2022-11-30 18:57:46
,wl-rdm,61,186653,0.0-6.53-0.53,0.0,62.0,,,,,,,[],,,,,,50.0,1.0,u,0.0,False,1863.699999999255,112.0,60.0,40.0,False,,212.65997655565886,[],"[768, 432]",ColorTask,40.0,54.0,,,HRV,HRV_0194,2022-11-30 18:57:46
,wl-rdm,62,189136,0.0-6.54-0.54,0.0,63.0,,,,,,,[],,,,,,56.4,1.0,i,1.0,True,1156.4000000022352,70.0,60.0,40.0,False,,252.39234221099707,[],"[768, 432]",ColorTask,41.0,55.0,,,HRV,HRV_0194,2022-11-30 18:57:46
,wl-rdm,63,191501,0.0-6.55-0.55,0.0,64.0,,,,,,,[],,,,,,87.9,0.0,u,0.0,True,911.5000000037253,55.0,60.0,40.0,False,,379.7891317692562,[],"[768, 432]",ColorTask,42.0,56.0,,,HRV,HRV_0194,2022-11-30 18:57:46
,wl-rdm,64,193534,0.0-6.56-0.56,0.0,65.0,,,,,,,[],,,,,,73.6,1.0,i,1.0,True,702.4000000022352,43.0,60.0,40.0,False,,243.01451782693388,[],"[768, 432]",ColorTask,43.0,57.0,,,HRV,HRV_0194,2022-11-30 18:57:46
,wl-rdm,65,195666,0.0-6.57-0.57,0.0,66.0,,,,,,,[],,,,,,73.6,0.0,u,0.0,True,805.1999999992549,49.0,60.0,40.0,False,,234.82648798656302,[],"[768, 432]",ColorTask,44.0,58.0,,,HRV,HRV_0194,2022-11-30 18:57:46
,wl-rdm,66,198698,0.0-6.58-0.58,0.0,67.0,,,,,,,[],,,,,,53.2,0.0,u,0.0,True,1737.199999999255,105.0,60.0,40.0,False,,216.01524628634863,[],"[768, 432]",ColorTask,45.0,59.0,,,HRV,HRV_0194,2022-11-30 18:57:46
,wl-rdm,67,201414,0.0-6.59-0.59,0.0,68.0,,,,,,,[],,,,,,50.0,1.0,i,1.0,True,1426.2000000029802,86.0,60.0,40.0,False,,231.36002627123818,[],"[768, 432]",ColorTask,46.0,60.0,,,HRV,HRV_0194,2022-11-30 18:57:46
,wl-rdm,68,203579,0.0-6.60-0.60,0.0,69.0,,,,,,,[],,,,,,73.6,1.0,i,1.0,True,794.3000000007451,48.0,60.0,40.0,False,,300.19116034774476,[],"[768, 432]",ColorTask,47.0,61.0,,,HRV,HRV_0194,2022-11-30 18:57:46
,wl-rdm,69,205895,0.0-6.61-0.61,0.0,70.0,,,,,,,[],,,,,,62.5,1.0,i,1.0,True,968.7999999970198,59.0,60.0,40.0,False,,264.23906384312147,[],"[768, 432]",ColorTask,48.0,62.0,,,HRV,HRV_0194,2022-11-30 18:57:46
,wl-rdm,70,208160,0.0-6.62-0.62,0.0,71.0,,,,,,,[],,,,,,87.9,1.0,i,1.0,True,796.6999999992549,48.0,60.0,40.0,False,,398.7026560510206,[],"[768, 432]",ColorTask,49.0,63.0,,,HRV,HRV_0194,2022-11-30 18:57:46
,wl-rdm,71,212625,0.0-6.63-0.63,0.0,71.0,,,,,,,[],,,,,,53.2,0.0,,,,,179.0,60.0,40.0,True,RT_timeout ,376.28996103849363,[],"[768, 432]",ColorTask,48.0,64.0,,,HRV,HRV_0194,2022-11-30 18:57:46
,wl-rdm,72,215074,0.0-6.64-0.64,0.0,72.0,,,,,,,[],,,,,,53.2,0.0,i,1.0,False,1084.5,66.0,60.0,40.0,False,,291.5212096815502,[],"[768, 432]",ColorTask,47.0,65.0,,,HRV,HRV_0194,2022-11-30 18:57:46
,wl-rdm,73,217089,0.0-6.65-0.65,0.0,73.0,,,,,,,[],,,,,,73.6,0.0,u,0.0,True,646.3000000007451,39.0,60.0,40.0,False,,296.9606502952744,[],"[768, 432]",ColorTask,48.0,66.0,,,HRV,HRV_0194,2022-11-30 18:57:46
,wl-rdm,74,219705,0.0-6.66-0.66,0.0,74.0,,,,,,,[],,,,,,62.5,1.0,i,1.0,True,1209.2999999970198,73.0,60.0,40.0,False,,317.81663010583964,[],"[768, 432]",ColorTask,49.0,67.0,,,HRV,HRV_0194,2022-11-30 18:57:46
,wl-rdm,75,221820,0.0-6.67-0.67,0.0,75.0,,,,,,,[],,,,,,62.5,0.0,u,0.0,True,754.6000000014901,46.0,60.0,40.0,False,,274.6264834409888,[],"[768, 432]",ColorTask,50.0,68.0,,,HRV,HRV_0194,2022-11-30 18:57:46
,wl-rdm,76,224286,0.0-6.68-0.68,0.0,76.0,,,,,,,[],,,,,,53.2,0.0,u,0.0,True,1175.699999999255,71.0,60.0,40.0,False,,230.88533103139576,[],"[768, 432]",ColorTask,51.0,69.0,,,HRV,HRV_0194,2022-11-30 18:57:46
,wl-rdm,77,227102,0.0-6.69-0.69,0.0,77.0,,,,,,,[],,,,,,56.4,0.0,u,0.0,True,1415.5999999977648,85.0,60.0,40.0,False,,340.36117071985393,[],"[768, 432]",ColorTask,52.0,70.0,,,HRV,HRV_0194,2022-11-30 18:57:46
,wl-rdm,78,229601,0.0-6.70-0.70,0.0,78.0,,,,,,,[],,,,,,53.2,0.0,i,1.0,False,1180.3999999985099,71.0,60.0,40.0,False,,246.10899002594013,[],"[768, 432]",ColorTask,51.0,71.0,,,HRV,HRV_0194,2022-11-30 18:57:46
,wl-rdm,79,231799,0.0-6.71-0.71,0.0,79.0,,,,,,,[],,,,,,62.5,1.0,i,1.0,True,752.0,46.0,60.0,40.0,False,,356.63381733387166,[],"[768, 432]",ColorTask,52.0,72.0,,,HRV,HRV_0194,2022-11-30 18:57:46
,wl-rdm,80,233865,0.0-6.72-0.72,0.0,80.0,,,,,,,[],,,,,,62.5,1.0,i,1.0,True,693.6999999992549,42.0,60.0,40.0,False,,284.1929653099987,[],"[768, 432]",ColorTask,53.0,73.0,,,HRV,HRV_0194,2022-11-30 18:57:46
,wl-rdm,81,236298,0.0-6.73-0.73,0.0,81.0,,,,,,,[],,,,,,73.6,1.0,i,1.0,True,957.1999999955297,58.0,60.0,40.0,False,,384.25728403746194,[],"[768, 432]",ColorTask,54.0,74.0,,,HRV,HRV_0194,2022-11-30 18:57:46
,wl-rdm,82,238647,0.0-6.74-0.74,0.0,82.0,,,,,,,[],,,,,,73.6,0.0,u,0.0,True,985.1999999955297,60.0,60.0,40.0,False,,296.6274043752528,[],"[768, 432]",ColorTask,55.0,75.0,,,HRV,HRV_0194,2022-11-30 18:57:46
,wl-rdm,83,240663,0.0-6.75-0.75,0.0,83.0,,,,,,,[],,,,,,73.6,0.0,u,0.0,True,602.9000000022352,37.0,60.0,40.0,False,,331.6440782654536,[],"[768, 432]",ColorTask,56.0,76.0,,,HRV,HRV_0194,2022-11-30 18:57:46
,wl-rdm,84,242944,0.0-6.76-0.76,0.0,84.0,,,,,,,[],,,,,,50.0,0.0,i,1.0,False,1014.5,61.0,60.0,40.0,False,,207.82026780454743,[],"[768, 432]",ColorTask,55.0,77.0,,,HRV,HRV_0194,2022-11-30 18:57:46
,wl-rdm,85,245410,0.0-6.77-0.77,0.0,85.0,,,,,,,[],,,,,,53.2,1.0,i,1.0,True,1174.9000000022352,71.0,60.0,40.0,False,,200.48272110760064,[],"[768, 432]",ColorTask,56.0,78.0,,,HRV,HRV_0194,2022-11-30 18:57:46
,wl-rdm,86,247442,0.0-6.78-0.78,0.0,86.0,,,,,,,[],,,,,,73.6,1.0,i,1.0,True,615.7999999970198,37.0,60.0,40.0,False,,362.1715894229772,[],"[768, 432]",ColorTask,57.0,79.0,,,HRV,HRV_0194,2022-11-30 18:57:46
,wl-rdm,87,249441,0.0-6.79-0.79,0.0,87.0,,,,,,,[],,,,,,87.9,1.0,i,1.0,True,614.7000000029802,37.0,60.0,40.0,False,,318.6005775708198,[],"[768, 432]",ColorTask,58.0,80.0,,,HRV,HRV_0194,2022-11-30 18:57:46
,wl-rdm,88,252323,0.0-6.80-0.80,0.0,88.0,,,,,,,[],,,,,,53.2,1.0,i,1.0,True,1553.5,94.0,60.0,40.0,False,,245.4388135560024,[],"[768, 432]",ColorTask,59.0,81.0,,,HRV,HRV_0194,2022-11-30 18:57:46
,wl-rdm,89,255056,0.0-6.81-0.81,0.0,89.0,,,,,,,[],,,,,,53.2,0.0,i,1.0,False,1436.199999999255,87.0,60.0,40.0,False,,200.22987475112936,[],"[768, 432]",ColorTask,58.0,82.0,,,HRV,HRV_0194,2022-11-30 18:57:46
,wl-rdm,90,258021,0.0-6.82-0.82,0.0,90.0,,,,,,,[],,,,,,56.4,0.0,u,0.0,True,1530.0,92.0,60.0,40.0,False,,356.5496467071599,[],"[768, 432]",ColorTask,59.0,83.0,,,HRV,HRV_0194,2022-11-30 18:57:46
,wl-rdm,91,260737,0.0-6.83-0.83,0.0,91.0,,,,,,,[],,,,,,62.5,0.0,u,0.0,True,1248.1000000014901,75.0,60.0,40.0,False,,387.0547616008299,[],"[768, 432]",ColorTask,60.0,84.0,,,HRV,HRV_0194,2022-11-30 18:57:46
,wl-rdm,92,263451,0.0-6.84-0.84,0.0,92.0,,,,,,,[],,,,,,53.2,1.0,i,1.0,True,1381.3999999985099,83.0,60.0,40.0,False,,261.168725787392,[],"[768, 432]",ColorTask,61.0,85.0,,,HRV,HRV_0194,2022-11-30 18:57:46
,wl-rdm,93,266383,0.0-6.85-0.85,0.0,93.0,,,,,,,[],,,,,,50.0,1.0,u,0.0,False,1453.9000000022352,88.0,60.0,40.0,False,,385.34712361483844,[],"[768, 432]",ColorTask,60.0,86.0,,,HRV,HRV_0194,2022-11-30 18:57:46
,wl-rdm,94,269016,0.0-6.86-0.86,0.0,94.0,,,,,,,[],,,,,,56.4,0.0,u,0.0,True,1312.7999999970198,79.0,60.0,40.0,False,,242.72782299804166,[],"[768, 432]",ColorTask,61.0,87.0,,,HRV,HRV_0194,2022-11-30 18:57:46
,wl-rdm,95,271331,0.0-6.87-0.87,0.0,95.0,,,,,,,[],,,,,,73.6,1.0,i,1.0,True,975.7999999970198,59.0,60.0,40.0,False,,257.20407408673935,[],"[768, 432]",ColorTask,62.0,88.0,,,HRV,HRV_0194,2022-11-30 18:57:46
,wl-rdm,96,274063,0.0-6.88-0.88,0.0,96.0,,,,,,,[],,,,,,62.5,1.0,u,0.0,False,1307.6000000014901,79.0,60.0,40.0,False,,362.80723032916023,[],"[768, 432]",ColorTask,61.0,89.0,,,HRV,HRV_0194,2022-11-30 18:57:46
,wl-rdm,97,276213,0.0-6.89-0.89,0.0,97.0,,,,,,,[],,,,,,62.5,0.0,u,0.0,True,838.9999999962747,51.0,60.0,40.0,False,,239.24625649203622,[],"[768, 432]",ColorTask,62.0,90.0,,,HRV,HRV_0194,2022-11-30 18:57:46
,wl-rdm,98,278978,0.0-6.90-0.90,0.0,98.0,,,,,,,[],,,,,,50.0,1.0,u,0.0,False,1469.5,89.0,60.0,40.0,False,,215.2753168565234,[],"[768, 432]",ColorTask,61.0,91.0,,,HRV,HRV_0194,2022-11-30 18:57:46
,wl-rdm,99,280976,0.0-6.91-0.91,0.0,99.0,,,,,,,[],,,,,,87.9,1.0,i,1.0,True,684.9000000022352,42.0,60.0,40.0,False,,223.1472068979753,[],"[768, 432]",ColorTask,62.0,92.0,,,HRV,HRV_0194,2022-11-30 18:57:46
,wl-rdm,100,283643,0.0-6.92-0.92,0.0,100.0,,,,,,,[],,,,,,50.0,1.0,u,0.0,False,1205.5,73.0,60.0,40.0,False,,396.9099379223286,[],"[768, 432]",ColorTask,61.0,93.0,,,HRV,HRV_0194,2022-11-30 18:57:46
,wl-rdm,101,285641,0.0-6.93-0.93,0.0,101.0,,,,,,,[],,,,,,87.9,0.0,u,0.0,True,701.6999999992549,43.0,60.0,40.0,False,,215.7500677602311,[],"[768, 432]",ColorTask,62.0,94.0,,,HRV,HRV_0194,2022-11-30 18:57:46
,wl-rdm,102,288556,0.0-6.94-0.94,0.0,102.0,,,,,,,[],,,,,,56.4,1.0,i,1.0,True,1593.4000000022352,96.0,60.0,40.0,False,,236.26383086313356,[],"[768, 432]",ColorTask,63.0,95.0,,,HRV,HRV_0194,2022-11-30 18:57:46
,wl-rdm,103,290756,0.0-6.95-0.95,0.0,103.0,,,,,,,[],,,,,,87.9,0.0,u,0.0,True,776.3000000007451,47.0,60.0,40.0,False,,348.07115898973814,[],"[768, 432]",ColorTask,64.0,96.0,,,HRV,HRV_0194,2022-11-30 18:57:46
,wl-rdm,104,293005,0.0-6.96-0.96,0.0,104.0,,,,,,,[],,,,,,73.6,1.0,i,1.0,True,980.8000000007451,59.0,60.0,40.0,False,,210.70051158946677,[],"[768, 432]",ColorTask,65.0,97.0,,,HRV,HRV_0194,2022-11-30 18:57:46
,wl-rdm,105,296037,0.0-6.97-0.97,0.0,105.0,,,,,,,[],,,,,,53.2,0.0,u,0.0,True,1620.5,98.0,60.0,40.0,False,,342.06897822288215,[],"[768, 432]",ColorTask,66.0,98.0,,,HRV,HRV_0194,2022-11-30 18:57:46
,wl-rdm,106,299419,0.0-6.98-0.98,0.0,106.0,,,,,,,[],,,,,,50.0,1.0,u,0.0,False,1934.8999999985099,117.0,60.0,40.0,False,,352.962532935923,[],"[768, 432]",ColorTask,65.0,99.0,,,HRV,HRV_0194,2022-11-30 18:57:46
,wl-rdm,107,301635,0.0-6.99-0.99,0.0,107.0,,,,,,,[],,,,,,73.6,0.0,u,0.0,True,864.1999999955297,52.0,60.0,40.0,False,,292.40275982905865,[],"[768, 432]",ColorTask,66.0,100.0,,,HRV,HRV_0194,2022-11-30 18:57:46
,wl-rdm,108,303866,0.0-6.100-0.100,0.0,108.0,,,,,,,[],,,,,,50.0,0.0,i,1.0,False,899.1000000014901,54.0,60.0,40.0,False,,251.46481630093507,[],"[768, 432]",ColorTask,65.0,101.0,,,HRV,HRV_0194,2022-11-30 18:57:46
,wl-rdm,109,306582,0.0-6.101-0.101,0.0,109.0,,,,,,,[],,,,,,50.0,0.0,u,0.0,True,1340.6000000014901,81.0,60.0,40.0,False,,285.09805847956966,[],"[768, 432]",ColorTask,66.0,102.0,,,HRV,HRV_0194,2022-11-30 18:57:46
,wl-rdm,110,308764,0.0-6.102-0.102,0.0,110.0,,,,,,,[],,,,,,50.0,1.0,u,0.0,False,895.0999999977648,54.0,60.0,40.0,False,,204.5297579308965,[],"[768, 432]",ColorTask,65.0,103.0,,,HRV,HRV_0194,2022-11-30 18:57:46
,wl-rdm,111,311847,0.0-6.103-0.103,0.0,111.0,,,,,,,[],,,,,,50.0,0.0,u,0.0,True,1765.6000000014901,106.0,60.0,40.0,False,,243.98286499931874,[],"[768, 432]",ColorTask,66.0,104.0,,,HRV,HRV_0194,2022-11-30 18:57:46
,wl-rdm,112,315061,0.0-6.104-0.104,0.0,112.0,,,,,,,[],,,,,,50.0,0.0,i,1.0,False,1828.699999999255,110.0,60.0,40.0,False,,307.96959307837983,[],"[768, 432]",ColorTask,65.0,105.0,,,HRV,HRV_0194,2022-11-30 18:57:46
,wl-rdm,113,317161,0.0-6.105-0.105,0.0,113.0,,,,,,,[],,,,,,73.6,1.0,i,1.0,True,676.6000000014901,41.0,60.0,40.0,False,,344.04753960088067,[],"[768, 432]",ColorTask,66.0,106.0,,,HRV,HRV_0194,2022-11-30 18:57:46
,wl-rdm,114,320175,0.0-6.106-0.106,0.0,114.0,,,,,,,[],,,,,,56.4,1.0,u,0.0,False,1675.800000000745,101.0,60.0,40.0,False,,264.8010676913922,[],"[768, 432]",ColorTask,65.0,107.0,,,HRV,HRV_0194,2022-11-30 18:57:46
,wl-rdm,115,322458,0.0-6.107-0.107,0.0,115.0,,,,,,,[],,,,,,50.0,0.0,i,1.0,False,851.4999999962747,52.0,60.0,40.0,False,,339.2768398727358,[],"[768, 432]",ColorTask,64.0,108.0,,,HRV,HRV_0194,2022-11-30 18:57:46
,wl-rdm,116,324674,0.0-6.108-0.108,0.0,116.0,,,,,,,[],,,,,,87.9,1.0,i,1.0,True,770.7999999970198,47.0,60.0,40.0,False,,375.002261798821,[],"[768, 432]",ColorTask,65.0,109.0,,,HRV,HRV_0194,2022-11-30 18:57:46
,wl-html-keyboard-response,117,401250,0.0-7.0-0.0,1.0,117.0,,,,,,,,74553.40000000224,1.0,0,,,,,,,,,,,,,,,,,,,,,,HRV,HRV_0194,2022-11-30 18:57:46
,wl-rdm,118,404087,0.0-8.0-0.0,1.0,118.0,,,,,,,[],,,,,,62.5,0.0,u,0.0,True,1521.9000000022352,92.0,60.0,40.0,False,,218.8881366224628,[],"[768, 432]",ColorTask,66.0,1.0,,,HRV,HRV_0194,2022-11-30 18:57:46
,wl-rdm,119,406069,0.0-8.1-0.1,1.0,119.0,,,,,,,[],,,,,,87.9,0.0,u,0.0,True,698.4000000022352,42.0,60.0,40.0,False,,213.28163370938117,[],"[768, 432]",ColorTask,67.0,2.0,,,HRV,HRV_0194,2022-11-30 18:57:46
,wl-rdm,120,408051,0.0-8.2-0.2,1.0,120.0,,,,,,,[],,,,,,87.9,1.0,i,1.0,True,564.6000000014901,34.0,60.0,40.0,False,,335.41270738774904,[],"[768, 432]",ColorTask,68.0,3.0,,,HRV,HRV_0194,2022-11-30 18:57:46
,wl-rdm,121,411034,0.0-8.3-0.3,1.0,121.0,,,,,,,[],,,,,,56.4,0.0,u,0.0,True,1523.8000000044703,92.0,60.0,40.0,False,,386.2170781988,[],"[768, 432]",ColorTask,69.0,4.0,,,HRV,HRV_0194,2022-11-30 18:57:46
,wl-rdm,122,413432,0.0-8.4-0.4,1.0,122.0,,,,,,,[],,,,,,56.4,0.0,u,0.0,True,1103.800000000745,67.0,60.0,40.0,False,,201.6102342575213,[],"[768, 432]",ColorTask,70.0,5.0,,,HRV,HRV_0194,2022-11-30 18:57:46
,wl-rdm,123,415898,0.0-8.5-0.5,1.0,123.0,,,,,,,[],,,,,,53.2,1.0,i,1.0,True,1170.699999999255,71.0,60.0,40.0,False,,207.89087514411966,[],"[768, 432]",ColorTask,71.0,6.0,,,HRV,HRV_0194,2022-11-30 18:57:46
,wl-rdm,124,418363,0.0-8.6-0.6,1.0,124.0,,,,,,,[],,,,,,62.5,1.0,i,1.0,True,1110.3999999985099,67.0,60.0,40.0,False,,273.07558175718515,[],"[768, 432]",ColorTask,72.0,7.0,,,HRV,HRV_0194,2022-11-30 18:57:46
,wl-rdm,125,420496,0.0-8.7-0.7,1.0,125.0,,,,,,,[],,,,,,50.0,0.0,u,0.0,True,801.4000000022352,49.0,60.0,40.0,False,,243.74764726476994,[],"[768, 432]",ColorTask,73.0,8.0,,,HRV,HRV_0194,2022-11-30 18:57:46
,wl-rdm,126,422628,0.0-8.8-0.8,1.0,126.0,,,,,,,[],,,,,,73.6,1.0,i,1.0,True,708.6000000014901,43.0,60.0,40.0,False,,345.13475474425445,[],"[768, 432]",ColorTask,74.0,9.0,,,HRV,HRV_0194,2022-11-30 18:57:46
,wl-rdm,127,424611,0.0-8.9-0.9,1.0,127.0,,,,,,,[],,,,,,73.6,0.0,u,0.0,True,658.6999999992549,40.0,60.0,40.0,False,,239.455938786214,[],"[768, 432]",ColorTask,75.0,10.0,,,HRV,HRV_0194,2022-11-30 18:57:46
,wl-rdm,128,427059,0.0-8.10-0.10,1.0,128.0,,,,,,,[],,,,,,56.4,0.0,u,0.0,True,1088.5000000037253,66.0,60.0,40.0,False,,269.1583442011862,[],"[768, 432]",ColorTask,76.0,11.0,,,HRV,HRV_0194,2022-11-30 18:57:46
,wl-rdm,129,429592,0.0-8.11-0.11,1.0,129.0,,,,,,,[],,,,,,62.5,0.0,u,0.0,True,1070.699999999255,65.0,60.0,40.0,False,,378.1068736618804,[],"[768, 432]",ColorTask,77.0,12.0,,,HRV,HRV_0194,2022-11-30 18:57:46
,wl-rdm,130,432174,0.0-8.12-0.12,1.0,130.0,,,,,,,[],,,,,,53.2,1.0,u,0.0,False,1219.9000000022352,74.0,60.0,40.0,False,,268.81151220444156,[],"[768, 432]",ColorTask,76.0,13.0,,,HRV,HRV_0194,2022-11-30 18:57:46
,wl-rdm,131,435339,0.0-8.13-0.13,1.0,131.0,,,,,,,[],,,,,,50.0,1.0,u,0.0,False,1776.1000000014901,107.0,60.0,40.0,False,,315.7437182014692,[],"[768, 432]",ColorTask,75.0,14.0,,,HRV,HRV_0194,2022-11-30 18:57:46
,wl-rdm,132,437472,0.0-8.14-0.14,1.0,132.0,,,,,,,[],,,,,,62.5,1.0,i,1.0,True,703.4000000022352,43.0,60.0,40.0,False,,345.3506776987505,[],"[768, 432]",ColorTask,76.0,15.0,,,HRV,HRV_0194,2022-11-30 18:57:46
,wl-rdm,133,439704,0.0-8.15-0.15,1.0,133.0,,,,,,,[],,,,,,56.4,1.0,i,1.0,True,929.9000000022352,56.0,60.0,40.0,False,,224.46503124570586,[],"[768, 432]",ColorTask,77.0,16.0,,,HRV,HRV_0194,2022-11-30 18:57:46
,wl-rdm,134,441953,0.0-8.16-0.16,1.0,134.0,,,,,,,[],,,,,,50.0,0.0,u,0.0,True,923.0999999977648,56.0,60.0,40.0,False,,239.20100109512651,[],"[768, 432]",ColorTask,78.0,17.0,,,HRV,HRV_0194,2022-11-30 18:57:46
,wl-rdm,135,444435,0.0-8.17-0.17,1.0,135.0,,,,,,,[],,,,,,62.5,0.0,u,0.0,True,1171.1000000014901,71.0,60.0,40.0,False,,222.19753647719642,[],"[768, 432]",ColorTask,79.0,18.0,,,HRV,HRV_0194,2022-11-30 18:57:46
,wl-rdm,136,446968,0.0-8.18-0.18,1.0,136.0,,,,,,,[],,,,,,50.0,0.0,u,0.0,True,1201.699999999255,73.0,60.0,40.0,False,,237.63828209348827,[],"[768, 432]",ColorTask,80.0,19.0,,,HRV,HRV_0194,2022-11-30 18:57:46
,wl-rdm,137,449101,0.0-8.19-0.19,1.0,137.0,,,,,,,[],,,,,,62.5,1.0,i,1.0,True,718.1000000014901,44.0,60.0,40.0,False,,316.5171085682862,[],"[768, 432]",ColorTask,81.0,20.0,,,HRV,HRV_0194,2022-11-30 18:57:46
,wl-rdm,138,451049,0.0-8.20-0.20,1.0,138.0,,,,,,,[],,,,,,73.6,1.0,i,1.0,True,641.1999999992549,39.0,60.0,40.0,False,,230.05003783154268,[],"[768, 432]",ColorTask,82.0,21.0,,,HRV,HRV_0194,2022-11-30 18:57:46
,wl-rdm,139,453199,0.0-8.21-0.21,1.0,139.0,,,,,,,[],,,,,,50.0,1.0,u,0.0,False,878.4000000022352,53.0,60.0,40.0,False,,215.42001481242454,[],"[768, 432]",ColorTask,81.0,22.0,,,HRV,HRV_0194,2022-11-30 18:57:46
,wl-rdm,140,455281,0.0-8.22-0.22,1.0,140.0,,,,,,,[],,,,,,87.9,0.0,u,0.0,True,651.8999999985099,40.0,60.0,40.0,False,,345.179185336154,[],"[768, 432]",ColorTask,82.0,23.0,,,HRV,HRV_0194,2022-11-30 18:57:46
,wl-rdm,141,457180,0.0-8.23-0.23,1.0,141.0,,,,,,,[],,,,,,73.6,1.0,i,1.0,True,597.6000000014901,36.0,60.0,40.0,False,,220.8702192028913,[],"[768, 432]",ColorTask,83.0,24.0,,,HRV,HRV_0194,2022-11-30 18:57:46
,wl-rdm,142,459313,0.0-8.24-0.24,1.0,142.0,,,,,,,[],,,,,,53.2,0.0,u,0.0,True,818.3000000007451,50.0,60.0,40.0,False,,248.03578403453992,[],"[768, 432]",ColorTask,84.0,25.0,,,HRV,HRV_0194,2022-11-30 18:57:46
,wl-rdm,143,461628,0.0-8.25-0.25,1.0,143.0,,,,,,,[],,,,,,53.2,1.0,i,1.0,True,989.3000000007451,60.0,60.0,40.0,False,,241.19255851392325,[],"[768, 432]",ColorTask,85.0,26.0,,,HRV,HRV_0194,2022-11-30 18:57:46
,wl-rdm,144,463611,0.0-8.26-0.26,1.0,144.0,,,,,,,[],,,,,,87.9,0.0,u,0.0,True,630.9000000022352,38.0,60.0,40.0,False,,269.4920327410186,[],"[768, 432]",ColorTask,86.0,27.0,,,HRV,HRV_0194,2022-11-30 18:57:46
,wl-rdm,145,465626,0.0-8.27-0.27,1.0,145.0,,,,,,,[],,,,,,87.9,0.0,u,0.0,True,586.3000000007451,36.0,60.0,40.0,False,,340.00327227953665,[],"[768, 432]",ColorTask,87.0,28.0,,,HRV,HRV_0194,2022-11-30 18:57:46
,wl-rdm,146,467591,0.0-8.28-0.28,1.0,146.0,,,,,,,[],,,,,,73.6,0.0,u,0.0,True,496.0,30.0,60.0,40.0,False,,389.96389851558536,[],"[768, 432]",ColorTask,88.0,29.0,,,HRV,HRV_0194,2022-11-30 18:57:46
,wl-rdm,147,470257,0.0-8.29-0.29,1.0,147.0,,,,,,,[],,,,,,56.4,0.0,i,1.0,False,1359.0999999977648,82.0,60.0,40.0,False,,221.6996227098381,[],"[768, 432]",ColorTask,87.0,30.0,,,HRV,HRV_0194,2022-11-30 18:57:46
,wl-rdm,148,472508,0.0-8.30-0.30,1.0,148.0,,,,,,,[],,,,,,87.9,0.0,u,0.0,True,859.5000000037253,52.0,60.0,40.0,False,,320.6453159908079,[],"[768, 432]",ColorTask,88.0,31.0,,,HRV,HRV_0194,2022-11-30 18:57:46
,wl-rdm,149,474655,0.0-8.31-0.31,1.0,149.0,,,,,,,[],,,,,,56.4,1.0,i,1.0,True,697.1999999992549,42.0,60.0,40.0,False,,372.83027193189196,[],"[768, 432]",ColorTask,89.0,32.0,,,HRV,HRV_0194,2022-11-30 18:57:46
,wl-rdm,150,476738,0.0-8.32-0.32,1.0,150.0,,,,,,,[],,,,,,62.5,1.0,i,1.0,True,722.3000000007451,44.0,60.0,40.0,False,,278.87456468267214,[],"[768, 432]",ColorTask,90.0,33.0,,,HRV,HRV_0194,2022-11-30 18:57:46
,wl-rdm,151,479287,0.0-8.33-0.33,1.0,151.0,,,,,,,[],,,,,,50.0,1.0,i,1.0,True,1169.0999999977648,71.0,60.0,40.0,False,,303.42569784066706,[],"[768, 432]",ColorTask,91.0,34.0,,,HRV,HRV_0194,2022-11-30 18:57:46
,wl-rdm,152,481652,0.0-8.34-0.34,1.0,152.0,,,,,,,[],,,,,,62.5,1.0,i,1.0,True,1058.300000000745,64.0,60.0,40.0,False,,228.50568097500818,[],"[768, 432]",ColorTask,92.0,35.0,,,HRV,HRV_0194,2022-11-30 18:57:46
,wl-rdm,153,483668,0.0-8.35-0.35,1.0,153.0,,,,,,,[],,,,,,87.9,0.0,u,0.0,True,707.9000000022352,43.0,60.0,40.0,False,,236.35028352566925,[],"[768, 432]",ColorTask,93.0,36.0,,,HRV,HRV_0194,2022-11-30 18:57:46
,wl-rdm,154,486266,0.0-8.36-0.36,1.0,154.0,,,,,,,[],,,,,,50.0,1.0,i,1.0,True,1248.199999999255,75.0,60.0,40.0,False,,275.8976058908777,[],"[768, 432]",ColorTask,94.0,37.0,,,HRV,HRV_0194,2022-11-30 18:57:46
,wl-rdm,155,488165,0.0-8.37-0.37,1.0,155.0,,,,,,,[],,,,,,73.6,1.0,i,1.0,True,597.9000000022352,36.0,60.0,40.0,False,,230.54521475951606,[],"[768, 432]",ColorTask,95.0,38.0,,,HRV,HRV_0194,2022-11-30 18:57:46
,wl-rdm,156,490098,0.0-8.38-0.38,1.0,156.0,,,,,,,[],,,,,,53.2,1.0,i,1.0,True,647.6999999955297,39.0,60.0,40.0,False,,212.55064443737402,[],"[768, 432]",ColorTask,96.0,39.0,,,HRV,HRV_0194,2022-11-30 18:57:46
,wl-rdm,157,492781,0.0-8.39-0.39,1.0,157.0,,,,,,,[],,,,,,53.2,1.0,u,0.0,False,1363.5999999977648,82.0,60.0,40.0,False,,236.46983742782447,[],"[768, 432]",ColorTask,95.0,40.0,,,HRV,HRV_0194,2022-11-30 18:57:46
,wl-rdm,158,495080,0.0-8.40-0.40,1.0,158.0,,,,,,,[],,,,,,56.4,1.0,i,1.0,True,944.6999999992549,57.0,60.0,40.0,False,,278.6498771139701,[],"[768, 432]",ColorTask,96.0,41.0,,,HRV,HRV_0194,2022-11-30 18:57:46
,wl-rdm,159,497061,0.0-8.41-0.41,1.0,159.0,,,,,,,[],,,,,,87.9,1.0,i,1.0,True,599.2000000029802,36.0,60.0,40.0,False,,309.7758153736088,[],"[768, 432]",ColorTask,97.0,42.0,,,HRV,HRV_0194,2022-11-30 18:57:46
,wl-rdm,160,499427,0.0-8.42-0.42,1.0,160.0,,,,,,,[],,,,,,73.6,1.0,i,1.0,True,884.5999999977648,54.0,60.0,40.0,False,,390.9003496530539,[],"[768, 432]",ColorTask,98.0,43.0,,,HRV,HRV_0194,2022-11-30 18:57:46
,wl-rdm,161,501293,0.0-8.43-0.43,1.0,161.0,,,,,,,[],,,,,,73.6,1.0,i,1.0,True,575.5,35.0,60.0,40.0,False,,207.63052100512508,[],"[768, 432]",ColorTask,99.0,44.0,,,HRV,HRV_0194,2022-11-30 18:57:46
,wl-rdm,162,503475,0.0-8.44-0.44,1.0,162.0,,,,,,,[],,,,,,50.0,0.0,u,0.0,True,802.0999999977648,49.0,60.0,40.0,False,,292.64964599102234,[],"[768, 432]",ColorTask,100.0,45.0,,,HRV,HRV_0194,2022-11-30 18:57:46
,wl-rdm,163,505575,0.0-8.45-0.45,1.0,163.0,,,,,,,[],,,,,,50.0,1.0,i,1.0,True,785.4000000022352,48.0,60.0,40.0,False,,219.56504440019322,[],"[768, 432]",ColorTask,101.0,46.0,,,HRV,HRV_0194,2022-11-30 18:57:46
,wl-rdm,164,507891,0.0-8.46-0.46,1.0,164.0,,,,,,,[],,,,,,50.0,1.0,i,1.0,True,1045.2999999970198,63.0,60.0,40.0,False,,205.54758208058112,[],"[768, 432]",ColorTask,102.0,47.0,,,HRV,HRV_0194,2022-11-30 18:57:46
,wl-rdm,165,510573,0.0-8.47-0.47,1.0,165.0,,,,,,,[],,,,,,56.4,0.0,u,0.0,True,1291.8999999985099,78.0,60.0,40.0,False,,305.3632368327327,[],"[768, 432]",ColorTask,103.0,48.0,,,HRV,HRV_0194,2022-11-30 18:57:46
,wl-rdm,166,513222,0.0-8.48-0.48,1.0,166.0,,,,,,,[],,,,,,62.5,1.0,i,1.0,True,1230.9999999962747,74.0,60.0,40.0,False,,348.6544695264462,[],"[768, 432]",ColorTask,104.0,49.0,,,HRV,HRV_0194,2022-11-30 18:57:46
,wl-rdm,167,515637,0.0-8.49-0.49,1.0,167.0,,,,,,,[],,,,,,56.4,1.0,i,1.0,True,1113.2000000029802,67.0,60.0,40.0,False,,240.1249961988031,[],"[768, 432]",ColorTask,105.0,50.0,,,HRV,HRV_0194,2022-11-30 18:57:46
,wl-rdm,168,517669,0.0-8.50-0.50,1.0,168.0,,,,,,,[],,,,,,62.5,0.0,u,0.0,True,718.1000000014901,44.0,60.0,40.0,False,,224.85284261544035,[],"[768, 432]",ColorTask,106.0,51.0,,,HRV,HRV_0194,2022-11-30 18:57:46
,wl-rdm,169,519785,0.0-8.51-0.51,1.0,169.0,,,,,,,[],,,,,,53.2,0.0,u,0.0,True,768.4999999962747,47.0,60.0,40.0,False,,256.60434376433454,[],"[768, 432]",ColorTask,107.0,52.0,,,HRV,HRV_0194,2022-11-30 18:57:46
,wl-rdm,170,522035,0.0-8.52-0.52,1.0,170.0,,,,,,,[],,,,,,56.4,1.0,i,1.0,True,962.8000000007451,58.0,60.0,40.0,False,,225.63290928783388,[],"[768, 432]",ColorTask,108.0,53.0,,,HRV,HRV_0194,2022-11-30 18:57:46
,wl-rdm,171,524166,0.0-8.53-0.53,1.0,171.0,,,,,,,[],,,,,,56.4,0.0,u,0.0,True,848.6000000014901,51.0,60.0,40.0,False,,213.53520824274025,[],"[768, 432]",ColorTask,109.0,54.0,,,HRV,HRV_0194,2022-11-30 18:57:46
,wl-rdm,172,526249,0.0-8.54-0.54,1.0,172.0,,,,,,,[],,,,,,56.4,0.0,u,0.0,True,730.0,44.0,60.0,40.0,False,,266.98864688629334,[],"[768, 432]",ColorTask,110.0,55.0,,,HRV,HRV_0194,2022-11-30 18:57:46
,wl-rdm,173,528498,0.0-8.55-0.55,1.0,173.0,,,,,,,[],,,,,,53.2,0.0,i,1.0,False,920.0,56.0,60.0,40.0,False,,237.2435131115954,[],"[768, 432]",ColorTask,109.0,56.0,,,HRV,HRV_0194,2022-11-30 18:57:46
,wl-rdm,174,530863,0.0-8.56-0.56,1.0,174.0,,,,,,,[],,,,,,50.0,0.0,i,1.0,False,1035.300000000745,63.0,60.0,40.0,False,,265.36200935186434,[],"[768, 432]",ColorTask,108.0,57.0,,,HRV,HRV_0194,2022-11-30 18:57:46
,wl-rdm,175,532930,0.0-8.57-0.57,1.0,175.0,,,,,,,[],,,,,,87.9,1.0,i,1.0,True,668.6000000014901,41.0,60.0,40.0,False,,312.68401492741,[],"[768, 432]",ColorTask,109.0,58.0,,,HRV,HRV_0194,2022-11-30 18:57:46
,wl-rdm,176,535478,0.0-8.58-0.58,1.0,176.0,,,,,,,[],,,,,,50.0,0.0,i,1.0,False,1251.7999999970198,76.0,60.0,40.0,False,,225.31466984593024,[],"[768, 432]",ColorTask,108.0,59.0,,,HRV,HRV_0194,2022-11-30 18:57:46
,wl-rdm,177,537727,0.0-8.59-0.59,1.0,177.0,,,,,,,[],,,,,,87.9,1.0,i,1.0,True,954.1000000014901,58.0,60.0,40.0,False,,202.01494528684606,[],"[768, 432]",ColorTask,109.0,60.0,,,HRV,HRV_0194,2022-11-30 18:57:46
,wl-rdm,178,540809,0.0-8.60-0.60,1.0,178.0,,,,,,,[],,,,,,50.0,0.0,u,0.0,True,1640.7000000029802,99.0,60.0,40.0,False,,354.93814178708755,[],"[768, 432]",ColorTask,110.0,61.0,,,HRV,HRV_0194,2022-11-30 18:57:46
,wl-rdm,179,543191,0.0-8.61-0.61,1.0,179.0,,,,,,,[],,,,,,56.4,0.0,u,0.0,True,1080.300000000745,65.0,60.0,40.0,False,,228.15191086187534,[],"[768, 432]",ColorTask,111.0,62.0,,,HRV,HRV_0194,2022-11-30 18:57:46
,wl-rdm,180,545391,0.0-8.62-0.62,1.0,180.0,,,,,,,[],,,,,,53.2,0.0,i,1.0,False,889.5000000037253,54.0,60.0,40.0,False,,218.41753536959175,[],"[768, 432]",ColorTask,110.0,63.0,,,HRV,HRV_0194,2022-11-30 18:57:46
,wl-rdm,181,548156,0.0-8.63-0.63,1.0,181.0,,,,,,,[],,,,,,56.4,1.0,i,1.0,True,1443.0000000037253,87.0,60.0,40.0,False,,265.4932240146421,[],"[768, 432]",ColorTask,111.0,64.0,,,HRV,HRV_0194,2022-11-30 18:57:46
,wl-rdm,182,550355,0.0-8.64-0.64,1.0,182.0,,,,,,,[],,,,,,87.9,0.0,u,0.0,True,837.4000000022352,51.0,60.0,40.0,False,,295.77817684972564,[],"[768, 432]",ColorTask,112.0,65.0,,,HRV,HRV_0194,2022-11-30 18:57:46
,wl-rdm,183,552370,0.0-8.65-0.65,1.0,183.0,,,,,,,[],,,,,,62.5,0.0,u,0.0,True,686.3000000007451,42.0,60.0,40.0,False,,248.99511883556897,[],"[768, 432]",ColorTask,113.0,66.0,,,HRV,HRV_0194,2022-11-30 18:57:46
,wl-rdm,184,554402,0.0-8.66-0.66,1.0,184.0,,,,,,,[],,,,,,87.9,1.0,i,1.0,True,634.5000000037253,39.0,60.0,40.0,False,,310.1276587970955,[],"[768, 432]",ColorTask,114.0,67.0,,,HRV,HRV_0194,2022-11-30 18:57:46
,wl-rdm,185,556735,0.0-8.67-0.67,1.0,185.0,,,,,,,[],,,,,,53.2,0.0,u,0.0,True,893.1999999992549,54.0,60.0,40.0,False,,359.27659381393784,[],"[768, 432]",ColorTask,115.0,68.0,,,HRV,HRV_0194,2022-11-30 18:57:46
,wl-rdm,186,558917,0.0-8.68-0.68,1.0,186.0,,,,,,,[],,,,,,73.6,0.0,u,0.0,True,748.5999999977648,45.0,60.0,40.0,False,,366.4420334971678,[],"[768, 432]",ColorTask,116.0,69.0,,,HRV,HRV_0194,2022-11-30 18:57:46
,wl-rdm,187,561300,0.0-8.69-0.69,1.0,187.0,,,,,,,[],,,,,,62.5,0.0,i,1.0,False,1042.8000000044703,63.0,60.0,40.0,False,,263.3411743528113,[],"[768, 432]",ColorTask,115.0,70.0,,,HRV,HRV_0194,2022-11-30 18:57:46
,wl-rdm,188,563465,0.0-8.70-0.70,1.0,188.0,,,,,,,[],,,,,,73.6,1.0,i,1.0,True,735.4000000022352,45.0,60.0,40.0,False,,340.37587589914665,[],"[768, 432]",ColorTask,116.0,71.0,,,HRV,HRV_0194,2022-11-30 18:57:46
,wl-rdm,189,565781,0.0-8.71-0.71,1.0,189.0,,,,,,,[],,,,,,53.2,1.0,i,1.0,True,1024.1000000014901,62.0,60.0,40.0,False,,201.1247473014172,[],"[768, 432]",ColorTask,117.0,72.0,,,HRV,HRV_0194,2022-11-30 18:57:46
,wl-rdm,190,567830,0.0-8.72-0.72,1.0,190.0,,,,,,,[],,,,,,53.2,0.0,u,0.0,True,697.6000000014901,42.0,60.0,40.0,False,,274.03288905526705,[],"[768, 432]",ColorTask,118.0,73.0,,,HRV,HRV_0194,2022-11-30 18:57:46
,wl-rdm,191,569779,0.0-8.73-0.73,1.0,191.0,,,,,,,[],,,,,,62.5,1.0,u,0.0,False,646.4000000022352,39.0,60.0,40.0,False,,228.26486921724268,[],"[768, 432]",ColorTask,117.0,74.0,,,HRV,HRV_0194,2022-11-30 18:57:46
,wl-rdm,192,572261,0.0-8.74-0.74,1.0,192.0,,,,,,,[],,,,,,62.5,0.0,i,1.0,False,1208.3999999985099,73.0,60.0,40.0,False,,207.08138573826568,[],"[768, 432]",ColorTask,116.0,75.0,,,HRV,HRV_0194,2022-11-30 18:57:46
,wl-rdm,193,574576,0.0-8.75-0.75,1.0,193.0,,,,,,,[],,,,,,87.9,1.0,i,1.0,True,838.0,51.0,60.0,40.0,False,,394.1643608720163,[],"[768, 432]",ColorTask,117.0,76.0,,,HRV,HRV_0194,2022-11-30 18:57:46
,wl-rdm,194,576592,0.0-8.76-0.76,1.0,194.0,,,,,,,[],,,,,,73.6,0.0,u,0.0,True,711.7999999970198,43.0,60.0,40.0,False,,232.91061115142085,[],"[768, 432]",ColorTask,118.0,77.0,,,HRV,HRV_0194,2022-11-30 18:57:46
,wl-rdm,195,578675,0.0-8.77-0.77,1.0,195.0,,,,,,,[],,,,,,62.5,1.0,i,1.0,True,687.6000000014901,42.0,60.0,40.0,False,,327.13333384112235,[],"[768, 432]",ColorTask,119.0,78.0,,,HRV,HRV_0194,2022-11-30 18:57:46
,wl-rdm,196,580691,0.0-8.78-0.78,1.0,196.0,,,,,,,[],,,,,,73.6,0.0,u,0.0,True,721.5999999977648,44.0,60.0,40.0,False,,215.71787668337367,[],"[768, 432]",ColorTask,120.0,79.0,,,HRV,HRV_0194,2022-11-30 18:57:46
,wl-rdm,197,582707,0.0-8.79-0.79,1.0,197.0,,,,,,,[],,,,,,53.2,1.0,i,1.0,True,658.2999999970198,40.0,60.0,40.0,False,,296.65421250939914,[],"[768, 432]",ColorTask,121.0,80.0,,,HRV,HRV_0194,2022-11-30 18:57:46
,wl-rdm,198,585422,0.0-8.80-0.80,1.0,198.0,,,,,,,[],,,,,,50.0,1.0,u,0.0,False,1356.9000000022352,82.0,60.0,40.0,False,,274.4797144750781,[],"[768, 432]",ColorTask,120.0,81.0,,,HRV,HRV_0194,2022-11-30 18:57:46
,wl-rdm,199,587437,0.0-8.81-0.81,1.0,199.0,,,,,,,[],,,,,,87.9,1.0,i,1.0,True,679.0,41.0,60.0,40.0,False,,256.3545895031943,[],"[768, 432]",ColorTask,121.0,82.0,,,HRV,HRV_0194,2022-11-30 18:57:46
,wl-rdm,200,589487,0.0-8.82-0.82,1.0,200.0,,,,,,,[],,,,,,73.6,1.0,u,0.0,False,711.2999999970198,43.0,60.0,40.0,False,,259.09956331034056,[],"[768, 432]",ColorTask,120.0,83.0,,,HRV,HRV_0194,2022-11-30 18:57:46
,wl-rdm,201,592052,0.0-8.83-0.83,1.0,201.0,,,,,,,[],,,,,,50.0,1.0,i,1.0,True,1190.800000000745,72.0,60.0,40.0,False,,300.68022706400217,[],"[768, 432]",ColorTask,121.0,84.0,,,HRV,HRV_0194,2022-11-30 18:57:46
,wl-rdm,202,594751,0.0-8.84-0.84,1.0,202.0,,,,,,,[],,,,,,62.5,0.0,u,0.0,True,1390.8999999985099,84.0,60.0,40.0,False,,249.20633972948986,[],"[768, 432]",ColorTask,122.0,85.0,,,HRV,HRV_0194,2022-11-30 18:57:46
,wl-rdm,203,597150,0.0-8.85-0.85,1.0,203.0,,,,,,,[],,,,,,50.0,0.0,i,1.0,False,1056.0999999977648,64.0,60.0,40.0,False,,266.90380581864883,[],"[768, 432]",ColorTask,121.0,86.0,,,HRV,HRV_0194,2022-11-30 18:57:46
,wl-rdm,204,599466,0.0-8.86-0.86,1.0,204.0,,,,,,,[],,,,,,50.0,1.0,i,1.0,True,902.0,55.0,60.0,40.0,False,,323.35239979825224,[],"[768, 432]",ColorTask,122.0,87.0,,,HRV,HRV_0194,2022-11-30 18:57:46
,wl-rdm,205,601980,0.0-8.87-0.87,1.0,205.0,,,,,,,[],,,,,,62.5,0.0,u,0.0,True,1202.5000000037253,73.0,60.0,40.0,False,,227.65899751138608,[],"[768, 432]",ColorTask,123.0,88.0,,,HRV,HRV_0194,2022-11-30 18:57:46
,wl-rdm,206,604497,0.0-8.88-0.88,1.0,206.0,,,,,,,[],,,,,,53.2,0.0,u,0.0,True,1069.4000000022352,65.0,60.0,40.0,False,,356.64388161977433,[],"[768, 432]",ColorTask,124.0,89.0,,,HRV,HRV_0194,2022-11-30 18:57:46
,wl-rdm,207,606962,0.0-8.89-0.89,1.0,207.0,,,,,,,[],,,,,,56.4,1.0,u,0.0,False,1125.5,68.0,60.0,40.0,False,,259.7132792562285,[],"[768, 432]",ColorTask,123.0,90.0,,,HRV,HRV_0194,2022-11-30 18:57:46
,wl-rdm,208,609411,0.0-8.90-0.90,1.0,208.0,,,,,,,[],,,,,,73.6,0.0,u,0.0,True,1112.4000000022352,67.0,60.0,40.0,False,,256.364669002281,[],"[768, 432]",ColorTask,124.0,91.0,,,HRV,HRV_0194,2022-11-30 18:57:46
,wl-rdm,209,611493,0.0-8.91-0.91,1.0,209.0,,,,,,,[],,,,,,73.6,1.0,i,1.0,True,626.6999999992549,38.0,60.0,40.0,False,,389.3025423579376,[],"[768, 432]",ColorTask,125.0,92.0,,,HRV,HRV_0194,2022-11-30 18:57:46
,wl-rdm,210,613775,0.0-8.92-0.92,1.0,210.0,,,,,,,[],,,,,,53.2,0.0,i,1.0,False,994.5,60.0,60.0,40.0,False,,209.87823891717036,[],"[768, 432]",ColorTask,124.0,93.0,,,HRV,HRV_0194,2022-11-30 18:57:46
,wl-rdm,211,616290,0.0-8.93-0.93,1.0,211.0,,,,,,,[],,,,,,56.4,0.0,i,1.0,False,1158.0,70.0,60.0,40.0,False,,271.55535888564907,[],"[768, 432]",ColorTask,123.0,94.0,,,HRV,HRV_0194,2022-11-30 18:57:46
,wl-rdm,212,618856,0.0-8.94-0.94,1.0,212.0,,,,,,,[],,,,,,62.5,1.0,i,1.0,True,1218.0999999977648,74.0,60.0,40.0,False,,254.66237596831382,[],"[768, 432]",ColorTask,124.0,95.0,,,HRV,HRV_0194,2022-11-30 18:57:46
,wl-rdm,213,621154,0.0-8.95-0.95,1.0,213.0,,,,,,,[],,,,,,73.6,0.0,u,0.0,True,862.3000000044703,52.0,60.0,40.0,False,,357.0204047483994,[],"[768, 432]",ColorTask,125.0,96.0,,,HRV,HRV_0194,2022-11-30 18:57:46
,wl-rdm,214,623270,0.0-8.96-0.96,1.0,214.0,,,,,,,[],,,,,,87.9,0.0,u,0.0,True,642.6999999992549,39.0,60.0,40.0,False,,397.7858852523748,[],"[768, 432]",ColorTask,126.0,97.0,,,HRV,HRV_0194,2022-11-30 18:57:46
,wl-rdm,215,625286,0.0-8.97-0.97,1.0,215.0,,,,,,,[],,,,,,53.2,1.0,i,1.0,True,711.0999999977648,43.0,60.0,40.0,False,,223.87292712520428,[],"[768, 432]",ColorTask,127.0,98.0,,,HRV,HRV_0194,2022-11-30 18:57:46
,wl-rdm,216,627302,0.0-8.98-0.98,1.0,216.0,,,,,,,[],,,,,,56.4,1.0,i,1.0,True,725.0999999977648,44.0,60.0,40.0,False,,205.34838178497108,[],"[768, 432]",ColorTask,128.0,99.0,,,HRV,HRV_0194,2022-11-30 18:57:46
,wl-rdm,217,629701,0.0-8.99-0.99,1.0,217.0,,,,,,,[],,,,,,73.6,0.0,u,0.0,True,984.4999999962747,60.0,60.0,40.0,False,,319.59381119545867,[],"[768, 432]",ColorTask,129.0,100.0,,,HRV,HRV_0194,2022-11-30 18:57:46
,wl-rdm,218,631606,0.0-8.100-0.100,1.0,218.0,,,,,,,[],,,,,,87.9,1.0,i,1.0,True,604.1000000014901,37.0,60.0,40.0,False,,206.29002135553463,[],"[768, 432]",ColorTask,130.0,101.0,,,HRV,HRV_0194,2022-11-30 18:57:46
,wl-rdm,219,633682,0.0-8.101-0.101,1.0,219.0,,,,,,,[],,,,,,87.9,0.0,u,0.0,True,720.1000000014901,44.0,60.0,40.0,False,,272.3246490405699,[],"[768, 432]",ColorTask,131.0,102.0,,,HRV,HRV_0194,2022-11-30 18:57:46
,wl-rdm,220,635848,0.0-8.102-0.102,1.0,220.0,,,,,,,[],,,,,,56.4,1.0,i,1.0,True,860.0,52.0,60.0,40.0,False,,220.0064672725727,[],"[768, 432]",ColorTask,132.0,103.0,,,HRV,HRV_0194,2022-11-30 18:57:46
,wl-rdm,221,637931,0.0-8.103-0.103,1.0,221.0,,,,,,,[],,,,,,73.6,0.0,u,0.0,True,636.7999999970198,39.0,60.0,40.0,False,,370.429006697499,[],"[768, 432]",ColorTask,133.0,104.0,,,HRV,HRV_0194,2022-11-30 18:57:46
,wl-rdm,222,640746,0.0-8.104-0.104,1.0,222.0,,,,,,,[],,,,,,53.2,0.0,u,0.0,True,1510.699999999255,91.0,60.0,40.0,False,,220.97836624932017,[],"[768, 432]",ColorTask,134.0,105.0,,,HRV,HRV_0194,2022-11-30 18:57:46
,wl-rdm,223,643428,0.0-8.105-0.105,1.0,223.0,,,,,,,[],,,,,,53.2,1.0,i,1.0,True,1343.6000000014901,81.0,60.0,40.0,False,,262.24292865744286,[],"[768, 432]",ColorTask,135.0,106.0,,,HRV,HRV_0194,2022-11-30 18:57:46
,wl-rdm,224,646111,0.0-8.106-0.106,1.0,224.0,,,,,,,[],,,,,,50.0,0.0,i,1.0,False,1238.3000000044703,75.0,60.0,40.0,False,,358.46291562622207,[],"[768, 432]",ColorTask,134.0,107.0,,,HRV,HRV_0194,2022-11-30 18:57:46
,wl-rdm,225,648226,0.0-8.107-0.107,1.0,225.0,,,,,,,[],,,,,,87.9,1.0,i,1.0,True,831.9999999962747,50.0,60.0,40.0,False,,230.65819652540853,[],"[768, 432]",ColorTask,135.0,108.0,,,HRV,HRV_0194,2022-11-30 18:57:46
,wl-html-button-response,226,650581,0.0-9.0-0.0,,,,,,,,,,2348.199999999255,,0,,,,,,,,,,,,,,,,,,,,<h3>End of this session. Thank you!</h3><br>,['Close window'],HRV,HRV_0194,2022-11-30 18:57:46
