trialN,stimuli,trialStartTime,trialStartTime_UNIX,stimulus1,stimulus2,stimulus1Bid,stimulus2Bid,delta,selected,rt,rt_UNIX,rt_perfnow,receivedResponse,rsp,trialEndTime,trialDuration,trialEndTime_UNIX,trialDuration_UNIX,exp,subjectId,date
0,"[{'imgObject': {}, 'id': 'salad w chicken', 'src': '/static/foodstim60/salad w chicken.jpg', 'key': 'u', 'origWidth': 411, 'origHeight': 411, 'width': 411, 'height': 411, 'widthPercent': 0.45, 'rescaleHeight': False, 'trialN': 0, 'loaded': True, 'loadedTime': 1837.199999988079, 'positionName': 'LEFT', 'positionCoords': [203.4, 154.5], 'bid': 7.42}, {'imgObject': {}, 'id': 'cantaloupe', 'src': '/static/foodstim60/cantaloupe.jpg', 'key': 'i', 'origWidth': 409, 'origHeight': 409, 'width': 409, 'height': 409, 'widthPercent': 0.45, 'rescaleHeight': False, 'trialN': 0, 'loaded': True, 'loadedTime': 1912.699999988079, 'positionName': 'RIGHT', 'positionCoords': [665.6, 155.5], 'bid': 7.5}]",2480.0,1669831673847,salad w chicken,cantaloupe,7.42,7.5,0.08000000000000007,salad w chicken,1742.699999988079,1744,1743.9000000357628,True,u,4741.300000011921,2261.300000011921,1669831676108,2261,HRV,HRV_0180,2022-11-30 18:13:31
1,"[{'imgObject': {}, 'id': 'omelette', 'src': '/static/foodstim60/omelette.jpg', 'key': 'u', 'origWidth': 410, 'origHeight': 409, 'width': 410, 'height': 409, 'widthPercent': 0.45, 'rescaleHeight': False, 'trialN': 1, 'loaded': True, 'loadedTime': 1918.6000000238419, 'positionName': 'LEFT', 'positionCoords': [204.4, 155.5], 'bid': 5.89}, {'imgObject': {}, 'id': 'popsicles', 'src': '/static/foodstim60/popsicles.jpg', 'key': 'i', 'origWidth': 410, 'origHeight': 410, 'width': 410, 'height': 410, 'widthPercent': 0.45, 'rescaleHeight': False, 'trialN': 1, 'loaded': True, 'loadedTime': 2369.199999988079, 'positionName': 'RIGHT', 'positionCoords': [665.6, 155], 'bid': 1.59}]",4741.5,1669831676108,omelette,popsicles,5.89,1.59,-4.3,omelette,1080.1000000238419,1081,1081.199999988079,True,u,6332.800000011921,1591.300000011921,1669831677699,1591,HRV,HRV_0180,2022-11-30 18:13:31
2,"[{'imgObject': {}, 'id': 'burrito', 'src': '/static/foodstim60/burrito.jpg', 'key': 'u', 'origWidth': 410, 'origHeight': 410, 'width': 410, 'height': 410, 'widthPercent': 0.45, 'rescaleHeight': False, 'trialN': 2, 'loaded': True, 'loadedTime': 1942.199999988079, 'positionName': 'LEFT', 'positionCoords': [204.4, 155], 'bid': 4.95}, {'imgObject': {}, 'id': 'cantaloupe', 'src': '/static/foodstim60/cantaloupe.jpg', 'key': 'i', 'origWidth': 409, 'origHeight': 409, 'width': 409, 'height': 409, 'widthPercent': 0.45, 'rescaleHeight': False, 'trialN': 2, 'loaded': True, 'loadedTime': 1899.5, 'positionName': 'RIGHT', 'positionCoords': [665.6, 155.5], 'bid': 7.5}]",6333.199999988079,1669831677700,burrito,cantaloupe,4.95,7.5,2.55,cantaloupe,1121.300000011921,1122,1122.7000000476837,True,i,7971.0,1637.800000011921,1669831679338,1638,HRV,HRV_0180,2022-11-30 18:13:31
3,"[{'imgObject': {}, 'id': 'cantaloupe', 'src': '/static/foodstim60/cantaloupe.jpg', 'key': 'u', 'origWidth': 409, 'origHeight': 409, 'width': 409, 'height': 409, 'widthPercent': 0.45, 'rescaleHeight': False, 'trialN': 3, 'loaded': True, 'loadedTime': 1908.699999988079, 'positionName': 'LEFT', 'positionCoords': [205.4, 155.5], 'bid': 7.5}, {'imgObject': {}, 'id': 'bagel plain', 'src': '/static/foodstim60/bagel plain.jpg', 'key': 'i', 'origWidth': 410, 'origHeight': 410, 'width': 410, 'height': 410, 'widthPercent': 0.45, 'rescaleHeight': False, 'trialN': 3, 'loaded': True, 'loadedTime': 1959.199999988079, 'positionName': 'RIGHT', 'positionCoords': [665.6, 155], 'bid': 5.93}]",7972.0,1669831679339,cantaloupe,bagel plain,7.5,5.93,-1.5700000000000003,cantaloupe,855.6999999880791,856,856.1999999880791,True,u,9330.0,1358.0,1669831680697,1358,HRV,HRV_0180,2022-11-30 18:13:31
4,"[{'imgObject': {}, 'id': 'burrito', 'src': '/static/foodstim60/burrito.jpg', 'key': 'u', 'origWidth': 410, 'origHeight': 410, 'width': 410, 'height': 410, 'widthPercent': 0.45, 'rescaleHeight': False, 'trialN': 4, 'loaded': True, 'loadedTime': 1933.800000011921, 'positionName': 'LEFT', 'positionCoords': [204.4, 155], 'bid': 4.95}, {'imgObject': {}, 'id': 'yogurt no spoon', 'src': '/static/foodstim60/yogurt no spoon.jpg', 'key': 'i', 'origWidth': 411, 'origHeight': 410, 'width': 411, 'height': 410, 'widthPercent': 0.45, 'rescaleHeight': False, 'trialN': 4, 'loaded': True, 'loadedTime': 1980.800000011921, 'positionName': 'RIGHT', 'positionCoords': [665.6, 155], 'bid': 2.87}]",9330.900000035763,1669831680697,burrito,yogurt no spoon,4.95,2.87,-2.08,burrito,907.0999999642372,909,908.1999999880791,True,u,10747.699999988079,1416.7999999523163,1669831682114,1417,HRV,HRV_0180,2022-11-30 18:13:31
5,"[{'imgObject': {}, 'id': 'mango', 'src': '/static/foodstim60/mango.jpg', 'key': 'u', 'origWidth': 411, 'origHeight': 411, 'width': 411, 'height': 411, 'widthPercent': 0.45, 'rescaleHeight': False, 'trialN': 5, 'loaded': True, 'loadedTime': 1981.1000000238419, 'positionName': 'LEFT', 'positionCoords': [203.4, 154.5], 'bid': 7.09}, {'imgObject': {}, 'id': 'raspberries', 'src': '/static/foodstim60/raspberries.jpg', 'key': 'i', 'origWidth': 411, 'origHeight': 411, 'width': 411, 'height': 411, 'widthPercent': 0.45, 'rescaleHeight': False, 'trialN': 5, 'loaded': True, 'loadedTime': 2000.199999988079, 'positionName': 'RIGHT', 'positionCoords': [665.6, 154.5], 'bid': 9.06}]",10748.5,1669831682115,mango,raspberries,7.09,9.06,1.9700000000000006,raspberries,978.6999999880791,979,979.0,True,i,12235.5,1487.0,1669831683602,1487,HRV,HRV_0180,2022-11-30 18:13:31
6,"[{'imgObject': {}, 'id': 'rigatoni and sauce', 'src': '/static/foodstim60/rigatoni and sauce.jpg', 'key': 'u', 'origWidth': 410, 'origHeight': 411, 'width': 410, 'height': 411, 'widthPercent': 0.45, 'rescaleHeight': False, 'trialN': 6, 'loaded': True, 'loadedTime': 2007.1000000238419, 'positionName': 'LEFT', 'positionCoords': [204.4, 154.5], 'bid': 5.78}, {'imgObject': {}, 'id': 'tacos', 'src': '/static/foodstim60/tacos.jpg', 'key': 'i', 'origWidth': 411, 'origHeight': 411, 'width': 411, 'height': 411, 'widthPercent': 0.45, 'rescaleHeight': False, 'trialN': 6, 'loaded': True, 'loadedTime': 2015.300000011921, 'positionName': 'RIGHT', 'positionCoords': [665.6, 154.5], 'bid': 4.34}]",12236.0,1669831683603,rigatoni and sauce,tacos,5.78,4.34,-1.4400000000000004,rigatoni and sauce,1488.0,1488,1488.4000000357628,True,u,14234.800000011921,1998.800000011921,1669831685601,1998,HRV,HRV_0180,2022-11-30 18:13:31
7,"[{'imgObject': {}, 'id': 'apple slices', 'src': '/static/foodstim60/apple slices.jpg', 'key': 'u', 'origWidth': 409, 'origHeight': 410, 'width': 409, 'height': 410, 'widthPercent': 0.45, 'rescaleHeight': False, 'trialN': 7, 'loaded': True, 'loadedTime': 2040.4000000357628, 'positionName': 'LEFT', 'positionCoords': [205.4, 155], 'bid': 7.03}, {'imgObject': {}, 'id': 'banana', 'src': '/static/foodstim60/banana.jpg', 'key': 'i', 'origWidth': 410, 'origHeight': 410, 'width': 410, 'height': 410, 'widthPercent': 0.45, 'rescaleHeight': False, 'trialN': 7, 'loaded': True, 'loadedTime': 2056, 'positionName': 'RIGHT', 'positionCoords': [665.6, 155], 'bid': 7.85}]",14235.600000023842,1669831685602,apple slices,banana,7.03,7.85,0.8199999999999994,banana,1154.300000011921,1156,1155.3999999761581,True,i,15904.5,1668.8999999761581,1669831687271,1669,HRV,HRV_0180,2022-11-30 18:13:31
8,"[{'imgObject': {}, 'id': 'mashed potato', 'src': '/static/foodstim60/mashed potato.jpg', 'key': 'u', 'origWidth': 409, 'origHeight': 409, 'width': 409, 'height': 409, 'widthPercent': 0.45, 'rescaleHeight': False, 'trialN': 8, 'loaded': True, 'loadedTime': 2061.900000035763, 'positionName': 'LEFT', 'positionCoords': [205.4, 155.5], 'bid': 5.75}, {'imgObject': {}, 'id': 'rigatoni and sauce', 'src': '/static/foodstim60/rigatoni and sauce.jpg', 'key': 'i', 'origWidth': 410, 'origHeight': 411, 'width': 410, 'height': 411, 'widthPercent': 0.45, 'rescaleHeight': False, 'trialN': 8, 'loaded': True, 'loadedTime': 2008.9000000357628, 'positionName': 'RIGHT', 'positionCoords': [665.6, 154.5], 'bid': 5.78}]",15905.199999988079,1669831687272,mashed potato,rigatoni and sauce,5.75,5.78,0.03000000000000025,mashed potato,1547.300000011921,1548,1547.800000011921,True,u,17966.19999998808,2061.0,1669831689333,2061,HRV,HRV_0180,2022-11-30 18:13:31
9,"[{'imgObject': {}, 'id': 'eggsalad', 'src': '/static/foodstim60/eggsalad.jpg', 'key': 'u', 'origWidth': 410, 'origHeight': 409, 'width': 410, 'height': 409, 'widthPercent': 0.45, 'rescaleHeight': False, 'trialN': 9, 'loaded': True, 'loadedTime': 2093.100000023842, 'positionName': 'LEFT', 'positionCoords': [204.4, 155.5], 'bid': 4.39}, {'imgObject': {}, 'id': 'cherry tomato', 'src': '/static/foodstim60/cherry tomato.jpg', 'key': 'i', 'origWidth': 410, 'origHeight': 410, 'width': 410, 'height': 410, 'widthPercent': 0.45, 'rescaleHeight': False, 'trialN': 9, 'loaded': True, 'loadedTime': 2103.400000035763, 'positionName': 'RIGHT', 'positionCoords': [665.6, 155], 'bid': 4.42}]",17966.400000035763,1669831689333,eggsalad,cherry tomato,4.39,4.42,0.03000000000000025,cherry tomato,926.0999999642372,926,926.2999999523163,True,i,19414.69999998808,1448.2999999523163,1669831690781,1448,HRV,HRV_0180,2022-11-30 18:13:31
10,"[{'imgObject': {}, 'id': 'corn cob', 'src': '/static/foodstim60/corn cob.jpg', 'key': 'u', 'origWidth': 411, 'origHeight': 411, 'width': 411, 'height': 411, 'widthPercent': 0.45, 'rescaleHeight': False, 'trialN': 10, 'loaded': True, 'loadedTime': 2110.100000023842, 'positionName': 'LEFT', 'positionCoords': [203.4, 154.5], 'bid': 6.82}, {'imgObject': {}, 'id': 'apple slices', 'src': '/static/foodstim60/apple slices.jpg', 'key': 'i', 'origWidth': 409, 'origHeight': 410, 'width': 409, 'height': 410, 'widthPercent': 0.45, 'rescaleHeight': False, 'trialN': 10, 'loaded': True, 'loadedTime': 2047.9000000357628, 'positionName': 'RIGHT', 'positionCoords': [665.6, 155], 'bid': 7.03}]",19414.80000001192,1669831690781,corn cob,apple slices,6.82,7.03,0.20999999999999996,apple slices,1734.800000011921,1736,1736.1000000238419,True,i,21658.69999998808,2243.899999976158,1669831693025,2244,HRV,HRV_0180,2022-11-30 18:13:31
11,"[{'imgObject': {}, 'id': 'olives', 'src': '/static/foodstim60/olives.jpg', 'key': 'u', 'origWidth': 410, 'origHeight': 410, 'width': 410, 'height': 410, 'widthPercent': 0.45, 'rescaleHeight': False, 'trialN': 11, 'loaded': True, 'loadedTime': 2115.5, 'positionName': 'LEFT', 'positionCoords': [204.4, 155], 'bid': 5.28}, {'imgObject': {}, 'id': 'burger', 'src': '/static/foodstim60/burger.jpg', 'key': 'i', 'origWidth': 409, 'origHeight': 409, 'width': 409, 'height': 409, 'widthPercent': 0.45, 'rescaleHeight': False, 'trialN': 11, 'loaded': True, 'loadedTime': 2145.699999988079, 'positionName': 'RIGHT', 'positionCoords': [665.6, 155.5], 'bid': 5.03}]",21659.400000035763,1669831693026,olives,burger,5.28,5.03,-0.25,burger,1528.5999999642372,1529,1529.2999999523163,True,i,23705.5,2046.0999999642372,1669831695072,2046,HRV,HRV_0180,2022-11-30 18:13:31
12,"[{'imgObject': {}, 'id': 'turkey sandwich', 'src': '/static/foodstim60/turkey sandwich.jpg', 'key': 'u', 'origWidth': 409, 'origHeight': 409, 'width': 409, 'height': 409, 'widthPercent': 0.45, 'rescaleHeight': False, 'trialN': 12, 'loaded': True, 'loadedTime': 2158.400000035763, 'positionName': 'LEFT', 'positionCoords': [205.4, 155.5], 'bid': 5.8100000000000005}, {'imgObject': {}, 'id': 'burrito', 'src': '/static/foodstim60/burrito.jpg', 'key': 'i', 'origWidth': 410, 'origHeight': 410, 'width': 410, 'height': 410, 'widthPercent': 0.45, 'rescaleHeight': False, 'trialN': 12, 'loaded': True, 'loadedTime': 1938.9000000357628, 'positionName': 'RIGHT', 'positionCoords': [665.6, 155], 'bid': 4.95}]",23705.80000001192,1669831695072,turkey sandwich,burrito,5.8100000000000005,4.95,-0.8600000000000003,turkey sandwich,1042.6000000238419,1043,1042.8999999761581,True,u,25262.600000023842,1556.800000011921,1669831696629,1557,HRV,HRV_0180,2022-11-30 18:13:31
13,"[{'imgObject': {}, 'id': 'Grapes', 'src': '/static/foodstim60/Grapes.jpg', 'key': 'u', 'origWidth': 411, 'origHeight': 411, 'width': 411, 'height': 411, 'widthPercent': 0.45, 'rescaleHeight': False, 'trialN': 13, 'loaded': True, 'loadedTime': 2167.699999988079, 'positionName': 'LEFT', 'positionCoords': [203.4, 154.5], 'bid': 7.53}, {'imgObject': {}, 'id': 'blueberries', 'src': '/static/foodstim60/blueberries.jpg', 'key': 'i', 'origWidth': 411, 'origHeight': 411, 'width': 411, 'height': 411, 'widthPercent': 0.45, 'rescaleHeight': False, 'trialN': 13, 'loaded': True, 'loadedTime': 2173.300000011921, 'positionName': 'RIGHT', 'positionCoords': [665.6, 154.5], 'bid': 7.87}]",25263.0,1669831696630,Grapes,blueberries,7.53,7.87,0.33999999999999986,blueberries,1629.699999988079,1630,1630.699999988079,True,i,27401.19999998808,2138.199999988079,1669831698768,2138,HRV,HRV_0180,2022-11-30 18:13:31
14,"[{'imgObject': {}, 'id': 'blackbeanswithrice', 'src': '/static/foodstim60/blackbeanswithrice.jpg', 'key': 'u', 'origWidth': 410, 'origHeight': 410, 'width': 410, 'height': 410, 'widthPercent': 0.45, 'rescaleHeight': False, 'trialN': 14, 'loaded': True, 'loadedTime': 2180.100000023842, 'positionName': 'LEFT', 'positionCoords': [204.4, 155], 'bid': 4.09}, {'imgObject': {}, 'id': 'popsicles', 'src': '/static/foodstim60/popsicles.jpg', 'key': 'i', 'origWidth': 410, 'origHeight': 410, 'width': 410, 'height': 410, 'widthPercent': 0.45, 'rescaleHeight': False, 'trialN': 14, 'loaded': True, 'loadedTime': 2372.199999988079, 'positionName': 'RIGHT', 'positionCoords': [665.6, 155], 'bid': 1.59}]",27401.5,1669831698768,blackbeanswithrice,popsicles,4.09,1.59,-2.5,blackbeanswithrice,1170.6000000238419,1171,1171.0,True,u,29073.900000035763,1672.4000000357628,1669831700441,1673,HRV,HRV_0180,2022-11-30 18:13:31
15,"[{'imgObject': {}, 'id': 'lox', 'src': '/static/foodstim60/lox.jpg', 'key': 'u', 'origWidth': 410, 'origHeight': 411, 'width': 410, 'height': 411, 'widthPercent': 0.45, 'rescaleHeight': False, 'trialN': 15, 'loaded': True, 'loadedTime': 2203.600000023842, 'positionName': 'LEFT', 'positionCoords': [204.4, 154.5], 'bid': 1.06}, {'imgObject': {}, 'id': 'ice cream sundae 002', 'src': '/static/foodstim60/ice cream sundae 002.jpg', 'key': 'i', 'origWidth': 409, 'origHeight': 409, 'width': 409, 'height': 409, 'widthPercent': 0.45, 'rescaleHeight': False, 'trialN': 15, 'loaded': True, 'loadedTime': 2211.199999988079, 'positionName': 'RIGHT', 'positionCoords': [665.6, 155.5], 'bid': 3.48}]",29074.600000023842,1669831700441,lox,ice cream sundae 002,1.06,3.48,2.42,ice cream sundae 002,1098.699999988079,1100,1099.699999988079,True,i,30681.19999998808,1606.5999999642372,1669831702048,1607,HRV,HRV_0180,2022-11-30 18:13:31
16,"[{'imgObject': {}, 'id': 'blueberries', 'src': '/static/foodstim60/blueberries.jpg', 'key': 'u', 'origWidth': 411, 'origHeight': 411, 'width': 411, 'height': 411, 'widthPercent': 0.45, 'rescaleHeight': False, 'trialN': 16, 'loaded': True, 'loadedTime': 2171.600000023842, 'positionName': 'LEFT', 'positionCoords': [203.4, 154.5], 'bid': 7.87}, {'imgObject': {}, 'id': 'fruitsalad', 'src': '/static/foodstim60/fruitsalad.jpg', 'key': 'i', 'origWidth': 410, 'origHeight': 410, 'width': 410, 'height': 410, 'widthPercent': 0.45, 'rescaleHeight': False, 'trialN': 16, 'loaded': True, 'loadedTime': 2223.400000035763, 'positionName': 'RIGHT', 'positionCoords': [665.6, 155], 'bid': 8}]",30681.5,1669831702048,blueberries,fruitsalad,7.87,8.0,0.1299999999999999,fruitsalad,1028.5,1030,1029.9000000357628,True,i,32230.600000023842,1549.1000000238419,1669831703597,1549,HRV,HRV_0180,2022-11-30 18:13:31
17,"[{'imgObject': {}, 'id': 'chickenfingers', 'src': '/static/foodstim60/chickenfingers.jpg', 'key': 'u', 'origWidth': 410, 'origHeight': 410, 'width': 410, 'height': 410, 'widthPercent': 0.45, 'rescaleHeight': False, 'trialN': 17, 'loaded': True, 'loadedTime': 2225.900000035763, 'positionName': 'LEFT', 'positionCoords': [204.4, 155], 'bid': 6.84}, {'imgObject': {}, 'id': 'roastedpotatoes', 'src': '/static/foodstim60/roastedpotatoes.jpg', 'key': 'i', 'origWidth': 409, 'origHeight': 410, 'width': 409, 'height': 410, 'widthPercent': 0.45, 'rescaleHeight': False, 'trialN': 17, 'loaded': True, 'loadedTime': 2238, 'positionName': 'RIGHT', 'positionCoords': [665.6, 155], 'bid': 6.78}]",32230.900000035763,1669831703597,chickenfingers,roastedpotatoes,6.84,6.78,-0.05999999999999961,chickenfingers,1064.199999988079,1065,1064.5999999642372,True,u,33813.60000002384,1582.699999988079,1669831705180,1583,HRV,HRV_0180,2022-11-30 18:13:31
18,"[{'imgObject': {}, 'id': 'cherries', 'src': '/static/foodstim60/cherries.jpg', 'key': 'u', 'origWidth': 410, 'origHeight': 411, 'width': 410, 'height': 411, 'widthPercent': 0.45, 'rescaleHeight': False, 'trialN': 18, 'loaded': True, 'loadedTime': 2238.400000035763, 'positionName': 'LEFT', 'positionCoords': [204.4, 154.5], 'bid': 8.06}, {'imgObject': {}, 'id': 'raisin bran w milk', 'src': '/static/foodstim60/raisin bran w milk.jpg', 'key': 'i', 'origWidth': 411, 'origHeight': 411, 'width': 411, 'height': 411, 'widthPercent': 0.45, 'rescaleHeight': False, 'trialN': 18, 'loaded': True, 'loadedTime': 2245.300000011921, 'positionName': 'RIGHT', 'positionCoords': [665.6, 154.5], 'bid': 5.59}]",33814.30000001192,1669831705181,cherries,raisin bran w milk,8.06,5.59,-2.4700000000000006,cherries,1655.1000000238419,1656,1656.199999988079,True,u,35981.40000003576,2167.100000023842,1669831707348,2167,HRV,HRV_0180,2022-11-30 18:13:31
19,"[{'imgObject': {}, 'id': 'blueberries', 'src': '/static/foodstim60/blueberries.jpg', 'key': 'u', 'origWidth': 411, 'origHeight': 411, 'width': 411, 'height': 411, 'widthPercent': 0.45, 'rescaleHeight': False, 'trialN': 19, 'loaded': True, 'loadedTime': 2175.5, 'positionName': 'LEFT', 'positionCoords': [203.4, 154.5], 'bid': 7.87}, {'imgObject': {}, 'id': 'eggs', 'src': '/static/foodstim60/eggs.jpg', 'key': 'i', 'origWidth': 409, 'origHeight': 409, 'width': 409, 'height': 409, 'widthPercent': 0.45, 'rescaleHeight': False, 'trialN': 19, 'loaded': True, 'loadedTime': 2271.100000023842, 'positionName': 'RIGHT', 'positionCoords': [665.6, 155.5], 'bid': 7.37}]",35981.69999998808,1669831707348,blueberries,eggs,7.87,7.37,-0.5,blueberries,1344.0,1346,1345.300000011921,True,u,37845.5,1863.800000011921,1669831709212,1864,HRV,HRV_0180,2022-11-30 18:13:31
20,"[{'imgObject': {}, 'id': 'cherry tomato', 'src': '/static/foodstim60/cherry tomato.jpg', 'key': 'u', 'origWidth': 410, 'origHeight': 410, 'width': 410, 'height': 410, 'widthPercent': 0.45, 'rescaleHeight': False, 'trialN': 20, 'loaded': True, 'loadedTime': 2095.100000023842, 'positionName': 'LEFT', 'positionCoords': [204.4, 155], 'bid': 4.42}, {'imgObject': {}, 'id': 'froot loops w milk', 'src': '/static/foodstim60/froot loops w milk.jpg', 'key': 'i', 'origWidth': 410, 'origHeight': 410, 'width': 410, 'height': 410, 'widthPercent': 0.45, 'rescaleHeight': False, 'trialN': 20, 'loaded': True, 'loadedTime': 2281.600000023842, 'positionName': 'RIGHT', 'positionCoords': [665.6, 155], 'bid': 3}]",37846.10000002384,1669831709213,cherry tomato,froot loops w milk,4.42,3.0,-1.42,froot loops w milk,1207.5999999642372,1208,1208.5,True,i,39562.0,1715.8999999761581,1669831710929,1716,HRV,HRV_0180,2022-11-30 18:13:31
21,"[{'imgObject': {}, 'id': 'bagel plain', 'src': '/static/foodstim60/bagel plain.jpg', 'key': 'u', 'origWidth': 410, 'origHeight': 410, 'width': 410, 'height': 410, 'widthPercent': 0.45, 'rescaleHeight': False, 'trialN': 21, 'loaded': True, 'loadedTime': 1966.6000000238419, 'positionName': 'LEFT', 'positionCoords': [204.4, 155], 'bid': 5.93}, {'imgObject': {}, 'id': 'olives', 'src': '/static/foodstim60/olives.jpg', 'key': 'i', 'origWidth': 410, 'origHeight': 410, 'width': 410, 'height': 410, 'widthPercent': 0.45, 'rescaleHeight': False, 'trialN': 21, 'loaded': True, 'loadedTime': 2115.300000011921, 'positionName': 'RIGHT', 'positionCoords': [665.6, 155], 'bid': 5.28}]",39562.19999998808,1669831710929,bagel plain,olives,5.93,5.28,-0.6499999999999995,bagel plain,1218.0,1218,1218.5,True,u,41290.5,1728.300000011921,1669831712657,1728,HRV,HRV_0180,2022-11-30 18:13:31
22,"[{'imgObject': {}, 'id': 'apple slices', 'src': '/static/foodstim60/apple slices.jpg', 'key': 'u', 'origWidth': 409, 'origHeight': 410, 'width': 409, 'height': 410, 'widthPercent': 0.45, 'rescaleHeight': False, 'trialN': 22, 'loaded': True, 'loadedTime': 2046, 'positionName': 'LEFT', 'positionCoords': [205.4, 155], 'bid': 7.03}, {'imgObject': {}, 'id': 'salmon', 'src': '/static/foodstim60/salmon.jpg', 'key': 'i', 'origWidth': 410, 'origHeight': 409, 'width': 410, 'height': 409, 'widthPercent': 0.45, 'rescaleHeight': False, 'trialN': 22, 'loaded': True, 'loadedTime': 2289.800000011921, 'positionName': 'RIGHT', 'positionCoords': [665.6, 155.5], 'bid': 6}]",41290.60000002384,1669831712657,apple slices,salmon,7.03,6.0,-1.0300000000000002,salmon,1265.699999988079,1266,1266.0999999642372,True,i,43075.0,1784.3999999761581,1669831714442,1785,HRV,HRV_0180,2022-11-30 18:13:31
23,"[{'imgObject': {}, 'id': 'banana', 'src': '/static/foodstim60/banana.jpg', 'key': 'u', 'origWidth': 410, 'origHeight': 410, 'width': 410, 'height': 410, 'widthPercent': 0.45, 'rescaleHeight': False, 'trialN': 23, 'loaded': True, 'loadedTime': 2049.900000035763, 'positionName': 'LEFT', 'positionCoords': [204.4, 155], 'bid': 7.85}, {'imgObject': {}, 'id': 'Grapes', 'src': '/static/foodstim60/Grapes.jpg', 'key': 'i', 'origWidth': 411, 'origHeight': 411, 'width': 411, 'height': 411, 'widthPercent': 0.45, 'rescaleHeight': False, 'trialN': 23, 'loaded': True, 'loadedTime': 2167.5, 'positionName': 'RIGHT', 'positionCoords': [665.6, 154.5], 'bid': 7.53}]",43075.0,1669831714442,banana,Grapes,7.85,7.53,-0.3199999999999994,banana,1231.800000011921,1232,1232.699999988079,True,u,44821.69999998808,1746.699999988079,1669831716188,1746,HRV,HRV_0180,2022-11-30 18:13:31
24,"[{'imgObject': {}, 'id': 'raspberries', 'src': '/static/foodstim60/raspberries.jpg', 'key': 'u', 'origWidth': 411, 'origHeight': 411, 'width': 411, 'height': 411, 'widthPercent': 0.45, 'rescaleHeight': False, 'trialN': 24, 'loaded': True, 'loadedTime': 2000.4000000357628, 'positionName': 'LEFT', 'positionCoords': [203.4, 154.5], 'bid': 9.06}, {'imgObject': {}, 'id': 'rigatoni and sauce', 'src': '/static/foodstim60/rigatoni and sauce.jpg', 'key': 'i', 'origWidth': 410, 'origHeight': 411, 'width': 410, 'height': 411, 'widthPercent': 0.45, 'rescaleHeight': False, 'trialN': 24, 'loaded': True, 'loadedTime': 2010.9000000357628, 'positionName': 'RIGHT', 'positionCoords': [665.6, 154.5], 'bid': 5.78}]",44821.90000003576,1669831716188,raspberries,rigatoni and sauce,9.06,5.78,-3.2800000000000002,raspberries,1159.7999999523163,1162,1161.0999999642372,True,u,46492.0,1670.0999999642372,1669831717859,1671,HRV,HRV_0180,2022-11-30 18:13:31
25,"[{'imgObject': {}, 'id': 'burger', 'src': '/static/foodstim60/burger.jpg', 'key': 'u', 'origWidth': 409, 'origHeight': 409, 'width': 409, 'height': 409, 'widthPercent': 0.45, 'rescaleHeight': False, 'trialN': 25, 'loaded': True, 'loadedTime': 2145.900000035763, 'positionName': 'LEFT', 'positionCoords': [205.4, 155.5], 'bid': 5.03}, {'imgObject': {}, 'id': 'shreddedwheatwithmilk', 'src': '/static/foodstim60/shreddedwheatwithmilk.jpg', 'key': 'i', 'origWidth': 410, 'origHeight': 410, 'width': 410, 'height': 410, 'widthPercent': 0.45, 'rescaleHeight': False, 'trialN': 25, 'loaded': True, 'loadedTime': 2290.100000023842, 'positionName': 'RIGHT', 'positionCoords': [665.6, 155], 'bid': 5.9}]",46492.5,1669831717859,burger,shreddedwheatwithmilk,5.03,5.9,0.8700000000000001,burger,927.5,928,927.8000000119209,True,u,47926.90000003576,1434.4000000357628,1669831719293,1434,HRV,HRV_0180,2022-11-30 18:13:31
26,"[{'imgObject': {}, 'id': 'corn cob', 'src': '/static/foodstim60/corn cob.jpg', 'key': 'u', 'origWidth': 411, 'origHeight': 411, 'width': 411, 'height': 411, 'widthPercent': 0.45, 'rescaleHeight': False, 'trialN': 26, 'loaded': True, 'loadedTime': 2108.300000011921, 'positionName': 'LEFT', 'positionCoords': [203.4, 154.5], 'bid': 6.82}, {'imgObject': {}, 'id': 'roastedpotatoes', 'src': '/static/foodstim60/roastedpotatoes.jpg', 'key': 'i', 'origWidth': 409, 'origHeight': 410, 'width': 409, 'height': 410, 'widthPercent': 0.45, 'rescaleHeight': False, 'trialN': 26, 'loaded': True, 'loadedTime': 2238.199999988079, 'positionName': 'RIGHT', 'positionCoords': [665.6, 155], 'bid': 6.78}]",47927.19999998808,1669831719294,corn cob,roastedpotatoes,6.82,6.78,-0.040000000000000036,roastedpotatoes,966.5,967,967.5,True,i,49412.30000001192,1485.1000000238419,1669831720779,1485,HRV,HRV_0180,2022-11-30 18:13:31
27,"[{'imgObject': {}, 'id': 'rigatoni and sauce', 'src': '/static/foodstim60/rigatoni and sauce.jpg', 'key': 'u', 'origWidth': 410, 'origHeight': 411, 'width': 410, 'height': 411, 'widthPercent': 0.45, 'rescaleHeight': False, 'trialN': 27, 'loaded': True, 'loadedTime': 2011.1000000238419, 'positionName': 'LEFT', 'positionCoords': [204.4, 154.5], 'bid': 5.78}, {'imgObject': {}, 'id': 'grilled chicken strips', 'src': '/static/foodstim60/grilled chicken strips.jpg', 'key': 'i', 'origWidth': 410, 'origHeight': 411, 'width': 410, 'height': 411, 'widthPercent': 0.45, 'rescaleHeight': False, 'trialN': 27, 'loaded': True, 'loadedTime': 2301.199999988079, 'positionName': 'RIGHT', 'positionCoords': [665.6, 154.5], 'bid': 5.9}]",49412.5,1669831720779,rigatoni and sauce,grilled chicken strips,5.78,5.9,0.1200000000000001,rigatoni and sauce,1992.9000000357628,1994,1993.800000011921,True,u,51916.0,2503.5,1669831723283,2504,HRV,HRV_0180,2022-11-30 18:13:31
28,"[{'imgObject': {}, 'id': 'strawberries', 'src': '/static/foodstim60/strawberries.jpg', 'key': 'u', 'origWidth': 410, 'origHeight': 410, 'width': 410, 'height': 410, 'widthPercent': 0.45, 'rescaleHeight': False, 'trialN': 28, 'loaded': True, 'loadedTime': 2313.100000023842, 'positionName': 'LEFT', 'positionCoords': [204.4, 155], 'bid': 8.01}, {'imgObject': {}, 'id': 'kiwi', 'src': '/static/foodstim60/kiwi.jpg', 'key': 'i', 'origWidth': 410, 'origHeight': 410, 'width': 410, 'height': 410, 'widthPercent': 0.45, 'rescaleHeight': False, 'trialN': 28, 'loaded': True, 'loadedTime': 2329.800000011921, 'positionName': 'RIGHT', 'positionCoords': [665.6, 155], 'bid': 8.14}]",51916.69999998808,1669831723283,strawberries,kiwi,8.01,8.14,0.13000000000000078,strawberries,1793.4000000357628,1795,1794.7000000476837,True,u,54222.0,2305.300000011921,1669831725589,2306,HRV,HRV_0180,2022-11-30 18:13:31
29,"[{'imgObject': {}, 'id': 'eggs', 'src': '/static/foodstim60/eggs.jpg', 'key': 'u', 'origWidth': 409, 'origHeight': 409, 'width': 409, 'height': 409, 'widthPercent': 0.45, 'rescaleHeight': False, 'trialN': 29, 'loaded': True, 'loadedTime': 2271.300000011921, 'positionName': 'LEFT', 'positionCoords': [205.4, 155.5], 'bid': 7.37}, {'imgObject': {}, 'id': 'salad w chicken', 'src': '/static/foodstim60/salad w chicken.jpg', 'key': 'i', 'origWidth': 411, 'origHeight': 411, 'width': 411, 'height': 411, 'widthPercent': 0.45, 'rescaleHeight': False, 'trialN': 29, 'loaded': True, 'loadedTime': 1877.5, 'positionName': 'RIGHT', 'positionCoords': [665.6, 154.5], 'bid': 7.42}]",54222.40000003576,1669831725589,eggs,salad w chicken,7.37,7.42,0.04999999999999982,salad w chicken,1008.0,1008,1008.2999999523163,True,i,55740.40000003576,1518.0,1669831727107,1518,HRV,HRV_0180,2022-11-30 18:13:31
30,"[{'imgObject': {}, 'id': 'strawberries', 'src': '/static/foodstim60/strawberries.jpg', 'key': 'u', 'origWidth': 410, 'origHeight': 410, 'width': 410, 'height': 410, 'widthPercent': 0.45, 'rescaleHeight': False, 'trialN': 30, 'loaded': True, 'loadedTime': 2307.800000011921, 'positionName': 'LEFT', 'positionCoords': [204.4, 155], 'bid': 8.01}, {'imgObject': {}, 'id': 'cherries', 'src': '/static/foodstim60/cherries.jpg', 'key': 'i', 'origWidth': 410, 'origHeight': 411, 'width': 410, 'height': 411, 'widthPercent': 0.45, 'rescaleHeight': False, 'trialN': 30, 'loaded': True, 'loadedTime': 2243.5, 'positionName': 'RIGHT', 'positionCoords': [665.6, 154.5], 'bid': 8.06}]",55740.69999998808,1669831727107,strawberries,cherries,8.01,8.06,0.05000000000000071,cherries,1616.7000000476837,1618,1617.6000000238419,True,i,57874.10000002384,2133.400000035763,1669831729241,2134,HRV,HRV_0180,2022-11-30 18:13:31
31,"[{'imgObject': {}, 'id': 'avocado', 'src': '/static/foodstim60/avocado.jpg', 'key': 'u', 'origWidth': 409, 'origHeight': 409, 'width': 409, 'height': 409, 'widthPercent': 0.45, 'rescaleHeight': False, 'trialN': 31, 'loaded': True, 'loadedTime': 2339, 'positionName': 'LEFT', 'positionCoords': [205.4, 155.5], 'bid': 2.62}, {'imgObject': {}, 'id': 'baked potato', 'src': '/static/foodstim60/baked potato.jpg', 'key': 'i', 'origWidth': 409, 'origHeight': 410, 'width': 409, 'height': 410, 'widthPercent': 0.45, 'rescaleHeight': False, 'trialN': 31, 'loaded': True, 'loadedTime': 2344.800000011921, 'positionName': 'RIGHT', 'positionCoords': [665.6, 155], 'bid': 3.37}]",57874.30000001192,1669831729241,avocado,baked potato,2.62,3.37,0.75,baked potato,1049.8999999761581,1050,1050.300000011921,True,i,59434.69999998808,1560.3999999761581,1669831730801,1560,HRV,HRV_0180,2022-11-30 18:13:31
32,"[{'imgObject': {}, 'id': 'roastedpotatoes', 'src': '/static/foodstim60/roastedpotatoes.jpg', 'key': 'u', 'origWidth': 409, 'origHeight': 410, 'width': 409, 'height': 410, 'widthPercent': 0.45, 'rescaleHeight': False, 'trialN': 32, 'loaded': True, 'loadedTime': 2231.5, 'positionName': 'LEFT', 'positionCoords': [205.4, 155], 'bid': 6.78}, {'imgObject': {}, 'id': 'fruitsalad', 'src': '/static/foodstim60/fruitsalad.jpg', 'key': 'i', 'origWidth': 410, 'origHeight': 410, 'width': 410, 'height': 410, 'widthPercent': 0.45, 'rescaleHeight': False, 'trialN': 32, 'loaded': True, 'loadedTime': 2218.199999988079, 'positionName': 'RIGHT', 'positionCoords': [665.6, 155], 'bid': 8}]",59435.10000002384,1669831730802,roastedpotatoes,fruitsalad,6.78,8.0,1.2199999999999998,fruitsalad,1985.5999999642372,1986,1986.0999999642372,True,i,61929.19999998808,2494.099999964237,1669831733296,2494,HRV,HRV_0180,2022-11-30 18:13:31
33,"[{'imgObject': {}, 'id': 'bagel and cc', 'src': '/static/foodstim60/bagel and cc.jpg', 'key': 'u', 'origWidth': 410, 'origHeight': 410, 'width': 410, 'height': 410, 'widthPercent': 0.45, 'rescaleHeight': False, 'trialN': 33, 'loaded': True, 'loadedTime': 2354.699999988079, 'positionName': 'LEFT', 'positionCoords': [204.4, 155], 'bid': 6.59}, {'imgObject': {}, 'id': 'blueberries', 'src': '/static/foodstim60/blueberries.jpg', 'key': 'i', 'origWidth': 411, 'origHeight': 411, 'width': 411, 'height': 411, 'widthPercent': 0.45, 'rescaleHeight': False, 'trialN': 33, 'loaded': True, 'loadedTime': 2173.600000023842, 'positionName': 'RIGHT', 'positionCoords': [665.6, 154.5], 'bid': 7.87}]",61929.40000003576,1669831733296,bagel and cc,blueberries,6.59,7.87,1.2800000000000002,blueberries,1170.3999999761581,1171,1170.8999999761581,True,i,63610.5,1681.0999999642372,1669831734977,1681,HRV,HRV_0180,2022-11-30 18:13:31
34,"[{'imgObject': {}, 'id': 'avocado', 'src': '/static/foodstim60/avocado.jpg', 'key': 'u', 'origWidth': 409, 'origHeight': 409, 'width': 409, 'height': 409, 'widthPercent': 0.45, 'rescaleHeight': False, 'trialN': 34, 'loaded': True, 'loadedTime': 2335.199999988079, 'positionName': 'LEFT', 'positionCoords': [205.4, 155.5], 'bid': 2.62}, {'imgObject': {}, 'id': 'fried eggs', 'src': '/static/foodstim60/fried eggs.jpg', 'key': 'i', 'origWidth': 410, 'origHeight': 410, 'width': 410, 'height': 410, 'widthPercent': 0.45, 'rescaleHeight': False, 'trialN': 34, 'loaded': True, 'loadedTime': 2360.100000023842, 'positionName': 'RIGHT', 'positionCoords': [665.6, 155], 'bid': 4.7}]",63610.60000002384,1669831734977,avocado,fried eggs,2.62,4.7,2.08,fried eggs,1490.699999988079,1492,1492.300000011921,True,i,65619.19999998808,2008.5999999642372,1669831736986,2009,HRV,HRV_0180,2022-11-30 18:13:31
35,"[{'imgObject': {}, 'id': 'strawberries', 'src': '/static/foodstim60/strawberries.jpg', 'key': 'u', 'origWidth': 410, 'origHeight': 410, 'width': 410, 'height': 410, 'widthPercent': 0.45, 'rescaleHeight': False, 'trialN': 35, 'loaded': True, 'loadedTime': 2309, 'positionName': 'LEFT', 'positionCoords': [204.4, 155], 'bid': 8.01}, {'imgObject': {}, 'id': 'pear', 'src': '/static/foodstim60/pear.jpg', 'key': 'i', 'origWidth': 411, 'origHeight': 410, 'width': 411, 'height': 410, 'widthPercent': 0.45, 'rescaleHeight': False, 'trialN': 35, 'loaded': True, 'loadedTime': 2367, 'positionName': 'RIGHT', 'positionCoords': [665.6, 155], 'bid': 7.25}]",65620.0,1669831736987,strawberries,pear,8.01,7.25,-0.7599999999999998,strawberries,909.5,909,909.8000000119209,True,u,67038.90000003576,1418.9000000357628,1669831738405,1418,HRV,HRV_0180,2022-11-30 18:13:31
36,"[{'imgObject': {}, 'id': 'fried eggs', 'src': '/static/foodstim60/fried eggs.jpg', 'key': 'u', 'origWidth': 410, 'origHeight': 410, 'width': 410, 'height': 410, 'widthPercent': 0.45, 'rescaleHeight': False, 'trialN': 36, 'loaded': True, 'loadedTime': 2363.800000011921, 'positionName': 'LEFT', 'positionCoords': [204.4, 155], 'bid': 4.7}, {'imgObject': {}, 'id': 'steak', 'src': '/static/foodstim60/steak.jpg', 'key': 'i', 'origWidth': 410, 'origHeight': 410, 'width': 410, 'height': 410, 'widthPercent': 0.45, 'rescaleHeight': False, 'trialN': 36, 'loaded': True, 'loadedTime': 2376.400000035763, 'positionName': 'RIGHT', 'positionCoords': [665.6, 155], 'bid': 4.6000000000000005}]",67039.60000002384,1669831738406,fried eggs,steak,4.7,4.6000000000000005,-0.09999999999999964,fried eggs,1053.5999999642372,1055,1054.5999999642372,True,u,68603.0,1563.3999999761581,1669831739970,1564,HRV,HRV_0180,2022-11-30 18:13:31
37,"[{'imgObject': {}, 'id': 'turkey sandwich', 'src': '/static/foodstim60/turkey sandwich.jpg', 'key': 'u', 'origWidth': 409, 'origHeight': 409, 'width': 409, 'height': 409, 'widthPercent': 0.45, 'rescaleHeight': False, 'trialN': 37, 'loaded': True, 'loadedTime': 2156.300000011921, 'positionName': 'LEFT', 'positionCoords': [205.4, 155.5], 'bid': 5.8100000000000005}, {'imgObject': {}, 'id': 'turkeysandwich', 'src': '/static/foodstim60/turkeysandwich.jpg', 'key': 'i', 'origWidth': 409, 'origHeight': 409, 'width': 409, 'height': 409, 'widthPercent': 0.45, 'rescaleHeight': False, 'trialN': 37, 'loaded': True, 'loadedTime': 2402.800000011921, 'positionName': 'RIGHT', 'positionCoords': [665.6, 155.5], 'bid': 5.79}]",68603.5,1669831739970,turkey sandwich,turkeysandwich,5.8100000000000005,5.79,-0.020000000000000462,turkey sandwich,1266.0,1267,1267.0,True,u,70384.10000002384,1780.6000000238419,1669831741751,1781,HRV,HRV_0180,2022-11-30 18:13:31
38,"[{'imgObject': {}, 'id': 'turkey sandwich', 'src': '/static/foodstim60/turkey sandwich.jpg', 'key': 'u', 'origWidth': 409, 'origHeight': 409, 'width': 409, 'height': 409, 'widthPercent': 0.45, 'rescaleHeight': False, 'trialN': 38, 'loaded': True, 'loadedTime': 2152, 'positionName': 'LEFT', 'positionCoords': [205.4, 155.5], 'bid': 5.8100000000000005}, {'imgObject': {}, 'id': 'pear', 'src': '/static/foodstim60/pear.jpg', 'key': 'i', 'origWidth': 411, 'origHeight': 410, 'width': 411, 'height': 410, 'widthPercent': 0.45, 'rescaleHeight': False, 'trialN': 38, 'loaded': True, 'loadedTime': 2366.800000011921, 'positionName': 'RIGHT', 'positionCoords': [665.6, 155], 'bid': 7.25}]",70384.30000001192,1669831741751,turkey sandwich,pear,5.8100000000000005,7.25,1.4399999999999995,pear,1549.3999999761581,1550,1550.300000011921,True,i,72452.19999998808,2067.899999976158,1669831743819,2068,HRV,HRV_0180,2022-11-30 18:13:31
39,"[{'imgObject': {}, 'id': 'sushi w_condiments', 'src': '/static/foodstim60/sushi w_condiments.jpg', 'key': 'u', 'origWidth': 410, 'origHeight': 410, 'width': 410, 'height': 410, 'widthPercent': 0.45, 'rescaleHeight': False, 'trialN': 39, 'loaded': True, 'loadedTime': 2406.600000023842, 'positionName': 'LEFT', 'positionCoords': [204.4, 155], 'bid': 5.9}, {'imgObject': {}, 'id': 'sweetpotato', 'src': '/static/foodstim60/sweetpotato.jpg', 'key': 'i', 'origWidth': 410, 'origHeight': 410, 'width': 410, 'height': 410, 'widthPercent': 0.45, 'rescaleHeight': False, 'trialN': 39, 'loaded': True, 'loadedTime': 2411.100000023842, 'positionName': 'RIGHT', 'positionCoords': [665.6, 155], 'bid': 1.71}]",72452.60000002384,1669831743819,sushi w_condiments,sweetpotato,5.9,1.71,-4.19,sushi w_condiments,1288.8999999761581,1290,1289.800000011921,True,u,74251.80000001192,1799.199999988079,1669831745618,1799,HRV,HRV_0180,2022-11-30 18:13:31
40,"[{'imgObject': {}, 'id': 'sweetpotato', 'src': '/static/foodstim60/sweetpotato.jpg', 'key': 'u', 'origWidth': 410, 'origHeight': 410, 'width': 410, 'height': 410, 'widthPercent': 0.45, 'rescaleHeight': False, 'trialN': 40, 'loaded': True, 'loadedTime': 2408.400000035763, 'positionName': 'LEFT', 'positionCoords': [204.4, 155], 'bid': 1.71}, {'imgObject': {}, 'id': 'cocktailshrimp', 'src': '/static/foodstim60/cocktailshrimp.jpg', 'key': 'i', 'origWidth': 410, 'origHeight': 410, 'width': 410, 'height': 410, 'widthPercent': 0.45, 'rescaleHeight': False, 'trialN': 40, 'loaded': True, 'loadedTime': 2413.699999988079, 'positionName': 'RIGHT', 'positionCoords': [665.6, 155], 'bid': 3.31}]",74252.10000002384,1669831745619,sweetpotato,cocktailshrimp,1.71,3.31,1.6,sweetpotato,1376.300000011921,1376,1376.8999999761581,True,u,76146.0,1893.8999999761581,1669831747513,1894,HRV,HRV_0180,2022-11-30 18:13:31
41,"[{'imgObject': {}, 'id': 'sweetpotato', 'src': '/static/foodstim60/sweetpotato.jpg', 'key': 'u', 'origWidth': 410, 'origHeight': 410, 'width': 410, 'height': 410, 'widthPercent': 0.45, 'rescaleHeight': False, 'trialN': 41, 'loaded': True, 'loadedTime': 2411.300000011921, 'positionName': 'LEFT', 'positionCoords': [204.4, 155], 'bid': 1.71}, {'imgObject': {}, 'id': 'steak', 'src': '/static/foodstim60/steak.jpg', 'key': 'i', 'origWidth': 410, 'origHeight': 410, 'width': 410, 'height': 410, 'widthPercent': 0.45, 'rescaleHeight': False, 'trialN': 41, 'loaded': True, 'loadedTime': 2378.199999988079, 'positionName': 'RIGHT', 'positionCoords': [665.6, 155], 'bid': 4.6000000000000005}]",76146.19999998808,1669831747513,sweetpotato,steak,1.71,4.6000000000000005,2.8900000000000006,steak,1067.4000000357628,1067,1067.6000000238419,True,i,77722.40000003576,1576.2000000476837,1669831749089,1576,HRV,HRV_0180,2022-11-30 18:13:31
42,"[{'imgObject': {}, 'id': 'rigatoni', 'src': '/static/foodstim60/rigatoni.jpg', 'key': 'u', 'origWidth': 411, 'origHeight': 411, 'width': 411, 'height': 411, 'widthPercent': 0.45, 'rescaleHeight': False, 'trialN': 42, 'loaded': True, 'loadedTime': 2417.400000035763, 'positionName': 'LEFT', 'positionCoords': [203.4, 154.5], 'bid': 5.03}, {'imgObject': {}, 'id': 'cherry tomato', 'src': '/static/foodstim60/cherry tomato.jpg', 'key': 'i', 'origWidth': 410, 'origHeight': 410, 'width': 410, 'height': 410, 'widthPercent': 0.45, 'rescaleHeight': False, 'trialN': 42, 'loaded': True, 'loadedTime': 2103.600000023842, 'positionName': 'RIGHT', 'positionCoords': [665.6, 155], 'bid': 4.42}]",77722.5,1669831749089,rigatoni,cherry tomato,5.03,4.42,-0.6100000000000003,rigatoni,1507.9000000357628,1509,1508.9000000357628,True,u,79738.90000003576,2016.4000000357628,1669831751105,2016,HRV,HRV_0180,2022-11-30 18:13:31
43,"[{'imgObject': {}, 'id': 'shreddedwheatwithmilk', 'src': '/static/foodstim60/shreddedwheatwithmilk.jpg', 'key': 'u', 'origWidth': 410, 'origHeight': 410, 'width': 410, 'height': 410, 'widthPercent': 0.45, 'rescaleHeight': False, 'trialN': 43, 'loaded': True, 'loadedTime': 2297.100000023842, 'positionName': 'LEFT', 'positionCoords': [204.4, 155], 'bid': 5.9}, {'imgObject': {}, 'id': 'mashed potato', 'src': '/static/foodstim60/mashed potato.jpg', 'key': 'i', 'origWidth': 409, 'origHeight': 409, 'width': 409, 'height': 409, 'widthPercent': 0.45, 'rescaleHeight': False, 'trialN': 43, 'loaded': True, 'loadedTime': 2062.100000023842, 'positionName': 'RIGHT', 'positionCoords': [665.6, 155.5], 'bid': 5.75}]",79739.19999998808,1669831751106,shreddedwheatwithmilk,mashed potato,5.9,5.75,-0.15000000000000036,mashed potato,1154.800000011921,1156,1155.9000000357628,True,i,81411.5,1672.300000011921,1669831752779,1673,HRV,HRV_0180,2022-11-30 18:13:31
44,"[{'imgObject': {}, 'id': 'ice cream sundae 002', 'src': '/static/foodstim60/ice cream sundae 002.jpg', 'key': 'u', 'origWidth': 409, 'origHeight': 409, 'width': 409, 'height': 409, 'widthPercent': 0.45, 'rescaleHeight': False, 'trialN': 44, 'loaded': True, 'loadedTime': 2212.199999988079, 'positionName': 'LEFT', 'positionCoords': [205.4, 155.5], 'bid': 3.48}, {'imgObject': {}, 'id': 'hashbrowns', 'src': '/static/foodstim60/hashbrowns.jpg', 'key': 'i', 'origWidth': 411, 'origHeight': 410, 'width': 411, 'height': 410, 'widthPercent': 0.45, 'rescaleHeight': False, 'trialN': 44, 'loaded': True, 'loadedTime': 2426.800000011921, 'positionName': 'RIGHT', 'positionCoords': [665.6, 155], 'bid': 2.84}]",81411.80000001192,1669831752780,ice cream sundae 002,hashbrowns,3.48,2.84,-0.6400000000000001,ice cream sundae 002,1706.0,1707,1707.0,True,u,83630.80000001192,2219.0,1669831754999,2219,HRV,HRV_0180,2022-11-30 18:13:31
45,"[{'imgObject': {}, 'id': 'baked potato', 'src': '/static/foodstim60/baked potato.jpg', 'key': 'u', 'origWidth': 409, 'origHeight': 410, 'width': 409, 'height': 410, 'widthPercent': 0.45, 'rescaleHeight': False, 'trialN': 45, 'loaded': True, 'loadedTime': 2346.199999988079, 'positionName': 'LEFT', 'positionCoords': [205.4, 155], 'bid': 3.37}, {'imgObject': {}, 'id': 'roastedpotatoes', 'src': '/static/foodstim60/roastedpotatoes.jpg', 'key': 'i', 'origWidth': 409, 'origHeight': 410, 'width': 409, 'height': 410, 'widthPercent': 0.45, 'rescaleHeight': False, 'trialN': 45, 'loaded': True, 'loadedTime': 2234.400000035763, 'positionName': 'RIGHT', 'positionCoords': [665.6, 155], 'bid': 6.78}]",83631.0,1669831754999,baked potato,roastedpotatoes,3.37,6.78,3.41,roastedpotatoes,894.3000000119209,895,895.4000000357628,True,i,85044.80000001192,1413.800000011921,1669831756413,1414,HRV,HRV_0180,2022-11-30 18:13:31
46,"[{'imgObject': {}, 'id': 'omelette', 'src': '/static/foodstim60/omelette.jpg', 'key': 'u', 'origWidth': 410, 'origHeight': 409, 'width': 410, 'height': 409, 'widthPercent': 0.45, 'rescaleHeight': False, 'trialN': 46, 'loaded': True, 'loadedTime': 1923.699999988079, 'positionName': 'LEFT', 'positionCoords': [204.4, 155.5], 'bid': 5.89}, {'imgObject': {}, 'id': 'sushi w_condiments', 'src': '/static/foodstim60/sushi w_condiments.jpg', 'key': 'i', 'origWidth': 410, 'origHeight': 410, 'width': 410, 'height': 410, 'widthPercent': 0.45, 'rescaleHeight': False, 'trialN': 46, 'loaded': True, 'loadedTime': 2404.400000035763, 'positionName': 'RIGHT', 'positionCoords': [665.6, 155], 'bid': 5.9}]",85045.0,1669831756413,omelette,sushi w_condiments,5.89,5.9,0.010000000000000675,sushi w_condiments,984.1000000238419,985,985.3000000119209,True,i,86540.90000003576,1495.9000000357628,1669831757909,1496,HRV,HRV_0180,2022-11-30 18:13:31
47,"[{'imgObject': {}, 'id': 'yogurt no spoon', 'src': '/static/foodstim60/yogurt no spoon.jpg', 'key': 'u', 'origWidth': 411, 'origHeight': 410, 'width': 411, 'height': 410, 'widthPercent': 0.45, 'rescaleHeight': False, 'trialN': 47, 'loaded': True, 'loadedTime': 1976, 'positionName': 'LEFT', 'positionCoords': [203.4, 155], 'bid': 2.87}, {'imgObject': {}, 'id': 'eggsalad', 'src': '/static/foodstim60/eggsalad.jpg', 'key': 'i', 'origWidth': 410, 'origHeight': 409, 'width': 410, 'height': 409, 'widthPercent': 0.45, 'rescaleHeight': False, 'trialN': 47, 'loaded': True, 'loadedTime': 2094.900000035763, 'positionName': 'RIGHT', 'positionCoords': [665.6, 155.5], 'bid': 4.39}]",86541.0,1669831757909,yogurt no spoon,eggsalad,2.87,4.39,1.5199999999999996,eggsalad,3028.199999988079,3028,3028.5,True,i,90077.10000002384,3536.100000023842,1669831761445,3536,HRV,HRV_0180,2022-11-30 18:13:31
48,"[{'imgObject': {}, 'id': 'Grapes', 'src': '/static/foodstim60/Grapes.jpg', 'key': 'u', 'origWidth': 411, 'origHeight': 411, 'width': 411, 'height': 411, 'widthPercent': 0.45, 'rescaleHeight': False, 'trialN': 48, 'loaded': True, 'loadedTime': 2165.600000023842, 'positionName': 'LEFT', 'positionCoords': [203.4, 154.5], 'bid': 7.53}, {'imgObject': {}, 'id': 'kiwi', 'src': '/static/foodstim60/kiwi.jpg', 'key': 'i', 'origWidth': 410, 'origHeight': 410, 'width': 410, 'height': 410, 'widthPercent': 0.45, 'rescaleHeight': False, 'trialN': 48, 'loaded': True, 'loadedTime': 2330.100000023842, 'positionName': 'RIGHT', 'positionCoords': [665.6, 155], 'bid': 8.14}]",90077.5,1669831761445,Grapes,kiwi,7.53,8.14,0.6100000000000003,kiwi,1599.699999988079,1601,1600.5,True,i,92186.69999998808,2109.199999988079,1669831763554,2109,HRV,HRV_0180,2022-11-30 18:13:31
49,"[{'imgObject': {}, 'id': 'seaweed', 'src': '/static/foodstim60/seaweed.jpg', 'key': 'u', 'origWidth': 410, 'origHeight': 410, 'width': 410, 'height': 410, 'widthPercent': 0.45, 'rescaleHeight': False, 'trialN': 49, 'loaded': True, 'loadedTime': 2432.600000023842, 'positionName': 'LEFT', 'positionCoords': [204.4, 155], 'bid': 0.5700000000000001}, {'imgObject': {}, 'id': 'turkeysandwich', 'src': '/static/foodstim60/turkeysandwich.jpg', 'key': 'i', 'origWidth': 409, 'origHeight': 409, 'width': 409, 'height': 409, 'widthPercent': 0.45, 'rescaleHeight': False, 'trialN': 49, 'loaded': True, 'loadedTime': 2400.800000011921, 'positionName': 'RIGHT', 'positionCoords': [665.6, 155.5], 'bid': 5.79}]",92187.0,1669831763555,seaweed,turkeysandwich,0.5700000000000001,5.79,5.22,turkeysandwich,930.6000000238419,932,931.9000000357628,True,i,93628.0,1441.0,1669831764996,1441,HRV,HRV_0180,2022-11-30 18:13:31
50,"[{'imgObject': {}, 'id': 'bagel plain', 'src': '/static/foodstim60/bagel plain.jpg', 'key': 'u', 'origWidth': 410, 'origHeight': 410, 'width': 410, 'height': 410, 'widthPercent': 0.45, 'rescaleHeight': False, 'trialN': 50, 'loaded': True, 'loadedTime': 1962.199999988079, 'positionName': 'LEFT', 'positionCoords': [204.4, 155], 'bid': 5.93}, {'imgObject': {}, 'id': 'chickenfingers', 'src': '/static/foodstim60/chickenfingers.jpg', 'key': 'i', 'origWidth': 410, 'origHeight': 410, 'width': 410, 'height': 410, 'widthPercent': 0.45, 'rescaleHeight': False, 'trialN': 50, 'loaded': True, 'loadedTime': 2231.300000011921, 'positionName': 'RIGHT', 'positionCoords': [665.6, 155], 'bid': 6.84}]",93628.30000001192,1669831764996,bagel plain,chickenfingers,5.93,6.84,0.9100000000000001,chickenfingers,771.5,772,772.3000000119209,True,i,94912.40000003576,1284.1000000238419,1669831766280,1284,HRV,HRV_0180,2022-11-30 18:13:31
51,"[{'imgObject': {}, 'id': 'edamame', 'src': '/static/foodstim60/edamame.jpg', 'key': 'u', 'origWidth': 409, 'origHeight': 410, 'width': 409, 'height': 410, 'widthPercent': 0.45, 'rescaleHeight': False, 'trialN': 51, 'loaded': True, 'loadedTime': 2436.300000011921, 'positionName': 'LEFT', 'positionCoords': [205.4, 155], 'bid': 6.0600000000000005}, {'imgObject': {}, 'id': 'banana', 'src': '/static/foodstim60/banana.jpg', 'key': 'i', 'origWidth': 410, 'origHeight': 410, 'width': 410, 'height': 410, 'widthPercent': 0.45, 'rescaleHeight': False, 'trialN': 51, 'loaded': True, 'loadedTime': 2056.400000035763, 'positionName': 'RIGHT', 'positionCoords': [665.6, 155], 'bid': 7.85}]",94912.5,1669831766280,edamame,banana,6.0600000000000005,7.85,1.7899999999999991,banana,1261.800000011921,1263,1262.9000000357628,True,i,96690.69999998808,1778.199999988079,1669831768058,1778,HRV,HRV_0180,2022-11-30 18:13:31
52,"[{'imgObject': {}, 'id': 'bagel plain', 'src': '/static/foodstim60/bagel plain.jpg', 'key': 'u', 'origWidth': 410, 'origHeight': 410, 'width': 410, 'height': 410, 'widthPercent': 0.45, 'rescaleHeight': False, 'trialN': 52, 'loaded': True, 'loadedTime': 1964.6000000238419, 'positionName': 'LEFT', 'positionCoords': [204.4, 155], 'bid': 5.93}, {'imgObject': {}, 'id': 'salmon', 'src': '/static/foodstim60/salmon.jpg', 'key': 'i', 'origWidth': 410, 'origHeight': 409, 'width': 410, 'height': 409, 'widthPercent': 0.45, 'rescaleHeight': False, 'trialN': 52, 'loaded': True, 'loadedTime': 2289.100000023842, 'positionName': 'RIGHT', 'positionCoords': [665.6, 155.5], 'bid': 6}]",96691.60000002384,1669831768059,bagel plain,salmon,5.93,6.0,0.07000000000000028,salmon,1226.300000011921,1228,1227.3999999761581,True,i,98428.30000001192,1736.699999988079,1669831769796,1737,HRV,HRV_0180,2022-11-30 18:13:31
53,"[{'imgObject': {}, 'id': 'chicken nuggets2', 'src': '/static/foodstim60/chicken nuggets2.jpg', 'key': 'u', 'origWidth': 410, 'origHeight': 409, 'width': 410, 'height': 409, 'widthPercent': 0.45, 'rescaleHeight': False, 'trialN': 53, 'loaded': True, 'loadedTime': 2436.5, 'positionName': 'LEFT', 'positionCoords': [204.4, 155.5], 'bid': 7.32}, {'imgObject': {}, 'id': 'omelette', 'src': '/static/foodstim60/omelette.jpg', 'key': 'i', 'origWidth': 410, 'origHeight': 409, 'width': 410, 'height': 409, 'widthPercent': 0.45, 'rescaleHeight': False, 'trialN': 53, 'loaded': True, 'loadedTime': 1914.800000011921, 'positionName': 'RIGHT', 'positionCoords': [665.6, 155.5], 'bid': 5.89}]",98428.5,1669831769796,chicken nuggets2,omelette,7.32,5.89,-1.4300000000000006,chicken nuggets2,832.4000000357628,833,833.1000000238419,True,u,99773.5,1345.0,1669831771141,1345,HRV,HRV_0180,2022-11-30 18:13:31
54,"[{'imgObject': {}, 'id': 'strawberries', 'src': '/static/foodstim60/strawberries.jpg', 'key': 'u', 'origWidth': 410, 'origHeight': 410, 'width': 410, 'height': 410, 'widthPercent': 0.45, 'rescaleHeight': False, 'trialN': 54, 'loaded': True, 'loadedTime': 2311, 'positionName': 'LEFT', 'positionCoords': [204.4, 155], 'bid': 8.01}, {'imgObject': {}, 'id': 'veggieswithdip', 'src': '/static/foodstim60/veggieswithdip.jpg', 'key': 'i', 'origWidth': 409, 'origHeight': 409, 'width': 409, 'height': 409, 'widthPercent': 0.45, 'rescaleHeight': False, 'trialN': 54, 'loaded': True, 'loadedTime': 2443.699999988079, 'positionName': 'RIGHT', 'positionCoords': [665.6, 155.5], 'bid': 7.48}]",99773.90000003576,1669831771142,strawberries,veggieswithdip,8.01,7.48,-0.5299999999999994,strawberries,1746.0999999642372,1746,1746.3999999761581,True,u,102028.0,2254.099999964237,1669831773396,2254,HRV,HRV_0180,2022-11-30 18:13:31
55,"[{'imgObject': {}, 'id': 'cantaloupe', 'src': '/static/foodstim60/cantaloupe.jpg', 'key': 'u', 'origWidth': 409, 'origHeight': 409, 'width': 409, 'height': 409, 'widthPercent': 0.45, 'rescaleHeight': False, 'trialN': 55, 'loaded': True, 'loadedTime': 1905.6000000238419, 'positionName': 'LEFT', 'positionCoords': [205.4, 155.5], 'bid': 7.5}, {'imgObject': {}, 'id': 'veggieswithdip', 'src': '/static/foodstim60/veggieswithdip.jpg', 'key': 'i', 'origWidth': 409, 'origHeight': 409, 'width': 409, 'height': 409, 'widthPercent': 0.45, 'rescaleHeight': False, 'trialN': 55, 'loaded': True, 'loadedTime': 2443.5, 'positionName': 'RIGHT', 'positionCoords': [665.6, 155.5], 'bid': 7.48}]",102028.30000001192,1669831773396,cantaloupe,veggieswithdip,7.5,7.48,-0.019999999999999574,cantaloupe,1025.300000011921,1027,1026.699999988079,True,u,103575.0,1546.699999988079,1669831774943,1547,HRV,HRV_0180,2022-11-30 18:13:31
56,"[{'imgObject': {}, 'id': 'froot loops w milk', 'src': '/static/foodstim60/froot loops w milk.jpg', 'key': 'u', 'origWidth': 410, 'origHeight': 410, 'width': 410, 'height': 410, 'widthPercent': 0.45, 'rescaleHeight': False, 'trialN': 56, 'loaded': True, 'loadedTime': 2281.300000011921, 'positionName': 'LEFT', 'positionCoords': [204.4, 155], 'bid': 3}, {'imgObject': {}, 'id': 'yogurt no spoon', 'src': '/static/foodstim60/yogurt no spoon.jpg', 'key': 'i', 'origWidth': 411, 'origHeight': 410, 'width': 411, 'height': 410, 'widthPercent': 0.45, 'rescaleHeight': False, 'trialN': 56, 'loaded': True, 'loadedTime': 1968.5, 'positionName': 'RIGHT', 'positionCoords': [665.6, 155], 'bid': 2.87}]",103575.30000001192,1669831774943,froot loops w milk,yogurt no spoon,3.0,2.87,-0.1299999999999999,froot loops w milk,1317.8999999761581,1319,1319.0,True,u,105414.0,1838.699999988079,1669831776782,1839,HRV,HRV_0180,2022-11-30 18:13:31
57,"[{'imgObject': {}, 'id': 'bagel and cc', 'src': '/static/foodstim60/bagel and cc.jpg', 'key': 'u', 'origWidth': 410, 'origHeight': 410, 'width': 410, 'height': 410, 'widthPercent': 0.45, 'rescaleHeight': False, 'trialN': 57, 'loaded': True, 'loadedTime': 2356.699999988079, 'positionName': 'LEFT', 'positionCoords': [204.4, 155], 'bid': 6.59}, {'imgObject': {}, 'id': 'cocktailshrimp', 'src': '/static/foodstim60/cocktailshrimp.jpg', 'key': 'i', 'origWidth': 410, 'origHeight': 410, 'width': 410, 'height': 410, 'widthPercent': 0.45, 'rescaleHeight': False, 'trialN': 57, 'loaded': True, 'loadedTime': 2417.199999988079, 'positionName': 'RIGHT', 'positionCoords': [665.6, 155], 'bid': 3.31}]",105414.19999998808,1669831776782,bagel and cc,cocktailshrimp,6.59,3.31,-3.28,bagel and cc,1461.1000000238419,1461,1461.4000000357628,True,u,107381.60000002384,1967.4000000357628,1669831778749,1967,HRV,HRV_0180,2022-11-30 18:13:31
58,"[{'imgObject': {}, 'id': 'kiwi', 'src': '/static/foodstim60/kiwi.jpg', 'key': 'u', 'origWidth': 410, 'origHeight': 410, 'width': 410, 'height': 410, 'widthPercent': 0.45, 'rescaleHeight': False, 'trialN': 58, 'loaded': True, 'loadedTime': 2330.400000035763, 'positionName': 'LEFT', 'positionCoords': [204.4, 155], 'bid': 8.14}, {'imgObject': {}, 'id': 'raspberries', 'src': '/static/foodstim60/raspberries.jpg', 'key': 'i', 'origWidth': 411, 'origHeight': 411, 'width': 411, 'height': 411, 'widthPercent': 0.45, 'rescaleHeight': False, 'trialN': 58, 'loaded': True, 'loadedTime': 1993.699999988079, 'positionName': 'RIGHT', 'positionCoords': [665.6, 154.5], 'bid': 9.06}]",107381.80000001192,1669831778749,kiwi,raspberries,8.14,9.06,0.9199999999999999,raspberries,982.1000000238419,983,982.5,True,i,108869.10000002384,1487.300000011921,1669831780237,1488,HRV,HRV_0180,2022-11-30 18:13:31
59,"[{'imgObject': {}, 'id': 'chicken nuggets2', 'src': '/static/foodstim60/chicken nuggets2.jpg', 'key': 'u', 'origWidth': 410, 'origHeight': 409, 'width': 410, 'height': 409, 'widthPercent': 0.45, 'rescaleHeight': False, 'trialN': 59, 'loaded': True, 'loadedTime': 2437.800000011921, 'positionName': 'LEFT', 'positionCoords': [204.4, 155.5], 'bid': 7.32}, {'imgObject': {}, 'id': 'Tribe humus pita', 'src': '/static/foodstim60/Tribe humus pita.jpg', 'key': 'i', 'origWidth': 411, 'origHeight': 411, 'width': 411, 'height': 411, 'widthPercent': 0.45, 'rescaleHeight': False, 'trialN': 59, 'loaded': True, 'loadedTime': 2446.900000035763, 'positionName': 'RIGHT', 'positionCoords': [665.6, 154.5], 'bid': 7.17}]",108869.5,1669831780237,chicken nuggets2,Tribe humus pita,7.32,7.17,-0.15000000000000036,chicken nuggets2,902.6000000238419,903,903.0,True,u,110274.80000001192,1405.300000011921,1669831781643,1406,HRV,HRV_0180,2022-11-30 18:13:31
60,"[{'imgObject': {}, 'id': 'cherries', 'src': '/static/foodstim60/cherries.jpg', 'key': 'u', 'origWidth': 410, 'origHeight': 411, 'width': 410, 'height': 411, 'widthPercent': 0.45, 'rescaleHeight': False, 'trialN': 60, 'loaded': True, 'loadedTime': 2241.100000023842, 'positionName': 'LEFT', 'positionCoords': [204.4, 154.5], 'bid': 8.06}, {'imgObject': {}, 'id': 'chicken nuggets2', 'src': '/static/foodstim60/chicken nuggets2.jpg', 'key': 'i', 'origWidth': 410, 'origHeight': 409, 'width': 410, 'height': 409, 'widthPercent': 0.45, 'rescaleHeight': False, 'trialN': 60, 'loaded': True, 'loadedTime': 2440, 'positionName': 'RIGHT', 'positionCoords': [665.6, 155.5], 'bid': 7.32}]",110275.0,1669831781643,cherries,chicken nuggets2,8.06,7.32,-0.7400000000000002,cherries,1375.0,1375,1375.699999988079,True,u,112155.30000001192,1880.300000011921,1669831783523,1880,HRV,HRV_0180,2022-11-30 18:13:31
61,"[{'imgObject': {}, 'id': 'salad w chicken', 'src': '/static/foodstim60/salad w chicken.jpg', 'key': 'u', 'origWidth': 411, 'origHeight': 411, 'width': 411, 'height': 411, 'widthPercent': 0.45, 'rescaleHeight': False, 'trialN': 61, 'loaded': True, 'loadedTime': 1869.1000000238419, 'positionName': 'LEFT', 'positionCoords': [203.4, 154.5], 'bid': 7.42}, {'imgObject': {}, 'id': 'raspberries', 'src': '/static/foodstim60/raspberries.jpg', 'key': 'i', 'origWidth': 411, 'origHeight': 411, 'width': 411, 'height': 411, 'widthPercent': 0.45, 'rescaleHeight': False, 'trialN': 61, 'loaded': True, 'loadedTime': 2002.199999988079, 'positionName': 'RIGHT', 'positionCoords': [665.6, 154.5], 'bid': 9.06}]",112155.40000003576,1669831783523,salad w chicken,raspberries,7.42,9.06,1.6400000000000006,salad w chicken,753.5,756,755.3999999761581,True,u,113432.60000002384,1277.199999988079,1669831784800,1277,HRV,HRV_0180,2022-11-30 18:13:31
62,"[{'imgObject': {}, 'id': 'luckycharms', 'src': '/static/foodstim60/luckycharms.jpg', 'key': 'u', 'origWidth': 410, 'origHeight': 409, 'width': 410, 'height': 409, 'widthPercent': 0.45, 'rescaleHeight': False, 'trialN': 62, 'loaded': True, 'loadedTime': 2449.5, 'positionName': 'LEFT', 'positionCoords': [204.4, 155.5], 'bid': 3.06}, {'imgObject': {}, 'id': 'cocktailshrimp', 'src': '/static/foodstim60/cocktailshrimp.jpg', 'key': 'i', 'origWidth': 410, 'origHeight': 410, 'width': 410, 'height': 410, 'widthPercent': 0.45, 'rescaleHeight': False, 'trialN': 62, 'loaded': True, 'loadedTime': 2415.100000023842, 'positionName': 'RIGHT', 'positionCoords': [665.6, 155], 'bid': 3.31}]",113433.5,1669831784801,luckycharms,cocktailshrimp,3.06,3.31,0.25,luckycharms,2148.5,2151,2150.199999988079,True,u,116099.5,2666.0,1669831787467,2666,HRV,HRV_0180,2022-11-30 18:13:31
63,"[{'imgObject': {}, 'id': 'veggieswithdip', 'src': '/static/foodstim60/veggieswithdip.jpg', 'key': 'u', 'origWidth': 409, 'origHeight': 409, 'width': 409, 'height': 409, 'widthPercent': 0.45, 'rescaleHeight': False, 'trialN': 63, 'loaded': True, 'loadedTime': 2440.300000011921, 'positionName': 'LEFT', 'positionCoords': [205.4, 155.5], 'bid': 7.48}, {'imgObject': {}, 'id': 'roastedpotatoes', 'src': '/static/foodstim60/roastedpotatoes.jpg', 'key': 'i', 'origWidth': 409, 'origHeight': 410, 'width': 409, 'height': 410, 'widthPercent': 0.45, 'rescaleHeight': False, 'trialN': 63, 'loaded': True, 'loadedTime': 2232.5, 'positionName': 'RIGHT', 'positionCoords': [665.6, 155], 'bid': 6.78}]",116099.69999998808,1669831787468,veggieswithdip,roastedpotatoes,7.48,6.78,-0.7000000000000002,roastedpotatoes,1115.1000000238419,1117,1118.1000000238419,True,i,117728.5,1628.800000011921,1669831789096,1628,HRV,HRV_0180,2022-11-30 18:13:31
64,"[{'imgObject': {}, 'id': 'salad w chicken', 'src': '/static/foodstim60/salad w chicken.jpg', 'key': 'u', 'origWidth': 411, 'origHeight': 411, 'width': 411, 'height': 411, 'widthPercent': 0.45, 'rescaleHeight': False, 'trialN': 64, 'loaded': True, 'loadedTime': 1871.800000011921, 'positionName': 'LEFT', 'positionCoords': [203.4, 154.5], 'bid': 7.42}, {'imgObject': {}, 'id': 'fruitsalad', 'src': '/static/foodstim60/fruitsalad.jpg', 'key': 'i', 'origWidth': 410, 'origHeight': 410, 'width': 410, 'height': 410, 'widthPercent': 0.45, 'rescaleHeight': False, 'trialN': 64, 'loaded': True, 'loadedTime': 2223.600000023842, 'positionName': 'RIGHT', 'positionCoords': [665.6, 155], 'bid': 8}]",117729.0,1669831789097,salad w chicken,fruitsalad,7.42,8.0,0.5800000000000001,fruitsalad,1213.0,1214,1214.1000000238419,True,i,119459.30000001192,1730.300000011921,1669831790827,1730,HRV,HRV_0180,2022-11-30 18:13:31
65,"[{'imgObject': {}, 'id': 'burger', 'src': '/static/foodstim60/burger.jpg', 'key': 'u', 'origWidth': 409, 'origHeight': 409, 'width': 409, 'height': 409, 'widthPercent': 0.45, 'rescaleHeight': False, 'trialN': 65, 'loaded': True, 'loadedTime': 2122.699999988079, 'positionName': 'LEFT', 'positionCoords': [205.4, 155.5], 'bid': 5.03}, {'imgObject': {}, 'id': 'granola w milk', 'src': '/static/foodstim60/granola w milk.jpg', 'key': 'i', 'origWidth': 410, 'origHeight': 410, 'width': 410, 'height': 410, 'widthPercent': 0.45, 'rescaleHeight': False, 'trialN': 65, 'loaded': True, 'loadedTime': 2452.400000035763, 'positionName': 'RIGHT', 'positionCoords': [665.6, 155], 'bid': 5.23}]",119459.40000003576,1669831790827,burger,granola w milk,5.03,5.23,0.20000000000000018,burger,1144.5999999642372,1145,1144.8999999761581,True,u,121106.5,1647.0999999642372,1669831792474,1647,HRV,HRV_0180,2022-11-30 18:13:31
66,"[{'imgObject': {}, 'id': 'sushi w_condiments', 'src': '/static/foodstim60/sushi w_condiments.jpg', 'key': 'u', 'origWidth': 410, 'origHeight': 410, 'width': 410, 'height': 410, 'widthPercent': 0.45, 'rescaleHeight': False, 'trialN': 66, 'loaded': True, 'loadedTime': 2404.100000023842, 'positionName': 'LEFT', 'positionCoords': [204.4, 155], 'bid': 5.9}, {'imgObject': {}, 'id': 'eggs', 'src': '/static/foodstim60/eggs.jpg', 'key': 'i', 'origWidth': 409, 'origHeight': 409, 'width': 409, 'height': 409, 'widthPercent': 0.45, 'rescaleHeight': False, 'trialN': 66, 'loaded': True, 'loadedTime': 2269.300000011921, 'positionName': 'RIGHT', 'positionCoords': [665.6, 155.5], 'bid': 7.37}]",121106.69999998808,1669831792474,sushi w_condiments,eggs,5.9,7.37,1.4699999999999998,sushi w_condiments,1614.5,1615,1614.800000011921,True,u,123234.5,2127.800000011921,1669831794602,2128,HRV,HRV_0180,2022-11-30 18:13:31
67,"[{'imgObject': {}, 'id': 'fried eggs', 'src': '/static/foodstim60/fried eggs.jpg', 'key': 'u', 'origWidth': 410, 'origHeight': 410, 'width': 410, 'height': 410, 'widthPercent': 0.45, 'rescaleHeight': False, 'trialN': 67, 'loaded': True, 'loadedTime': 2360.199999988079, 'positionName': 'LEFT', 'positionCoords': [204.4, 155], 'bid': 4.7}, {'imgObject': {}, 'id': 'cocktailshrimp', 'src': '/static/foodstim60/cocktailshrimp.jpg', 'key': 'i', 'origWidth': 410, 'origHeight': 410, 'width': 410, 'height': 410, 'widthPercent': 0.45, 'rescaleHeight': False, 'trialN': 67, 'loaded': True, 'loadedTime': 2414.900000035763, 'positionName': 'RIGHT', 'positionCoords': [665.6, 155], 'bid': 3.31}]",123234.90000003576,1669831794603,fried eggs,cocktailshrimp,4.7,3.31,-1.3900000000000001,fried eggs,1098.8999999761581,1100,1099.8999999761581,True,u,124846.5,1611.5999999642372,1669831796214,1611,HRV,HRV_0180,2022-11-30 18:13:31
68,"[{'imgObject': {}, 'id': 'rigatoni', 'src': '/static/foodstim60/rigatoni.jpg', 'key': 'u', 'origWidth': 411, 'origHeight': 411, 'width': 411, 'height': 411, 'widthPercent': 0.45, 'rescaleHeight': False, 'trialN': 68, 'loaded': True, 'loadedTime': 2422.5, 'positionName': 'LEFT', 'positionCoords': [203.4, 154.5], 'bid': 5.03}, {'imgObject': {}, 'id': 'sushi w_condiments', 'src': '/static/foodstim60/sushi w_condiments.jpg', 'key': 'i', 'origWidth': 410, 'origHeight': 410, 'width': 410, 'height': 410, 'widthPercent': 0.45, 'rescaleHeight': False, 'trialN': 68, 'loaded': True, 'loadedTime': 2404.600000023842, 'positionName': 'RIGHT', 'positionCoords': [665.6, 155], 'bid': 5.9}]",124846.69999998808,1669831796215,rigatoni,sushi w_condiments,5.03,5.9,0.8700000000000001,sushi w_condiments,2126.300000011921,2126,2127.0,True,i,127493.90000003576,2647.2000000476837,1669831798862,2647,HRV,HRV_0180,2022-11-30 18:13:31
69,"[{'imgObject': {}, 'id': 'apple slices', 'src': '/static/foodstim60/apple slices.jpg', 'key': 'u', 'origWidth': 409, 'origHeight': 410, 'width': 409, 'height': 410, 'widthPercent': 0.45, 'rescaleHeight': False, 'trialN': 69, 'loaded': True, 'loadedTime': 2044.199999988079, 'positionName': 'LEFT', 'positionCoords': [205.4, 155], 'bid': 7.03}, {'imgObject': {}, 'id': 'orange slices', 'src': '/static/foodstim60/orange slices.jpg', 'key': 'i', 'origWidth': 409, 'origHeight': 410, 'width': 409, 'height': 410, 'widthPercent': 0.45, 'rescaleHeight': False, 'trialN': 69, 'loaded': True, 'loadedTime': 2455.800000011921, 'positionName': 'RIGHT', 'positionCoords': [665.6, 155], 'bid': 4.1}]",127494.19999998808,1669831798862,apple slices,orange slices,7.03,4.1,-2.9300000000000006,apple slices,1511.7000000476837,1513,1512.800000011921,True,u,129514.80000001192,2020.6000000238419,1669831800883,2021,HRV,HRV_0180,2022-11-30 18:13:31
70,"[{'imgObject': {}, 'id': 'hotdog w must', 'src': '/static/foodstim60/hotdog w must.jpg', 'key': 'u', 'origWidth': 409, 'origHeight': 409, 'width': 409, 'height': 409, 'widthPercent': 0.45, 'rescaleHeight': False, 'trialN': 70, 'loaded': True, 'loadedTime': 2457.5, 'positionName': 'LEFT', 'positionCoords': [205.4, 155.5], 'bid': 5.01}, {'imgObject': {}, 'id': 'rigatoni', 'src': '/static/foodstim60/rigatoni.jpg', 'key': 'i', 'origWidth': 411, 'origHeight': 411, 'width': 411, 'height': 411, 'widthPercent': 0.45, 'rescaleHeight': False, 'trialN': 70, 'loaded': True, 'loadedTime': 2418.900000035763, 'positionName': 'RIGHT', 'positionCoords': [665.6, 154.5], 'bid': 5.03}]",129515.0,1669831800883,hotdog w must,rigatoni,5.01,5.03,0.020000000000000462,rigatoni,883.8000000119209,885,885.1000000238419,True,i,130907.5,1392.5,1669831802275,1392,HRV,HRV_0180,2022-11-30 18:13:31
71,"[{'imgObject': {}, 'id': 'sweetpotato', 'src': '/static/foodstim60/sweetpotato.jpg', 'key': 'u', 'origWidth': 410, 'origHeight': 410, 'width': 410, 'height': 410, 'widthPercent': 0.45, 'rescaleHeight': False, 'trialN': 71, 'loaded': True, 'loadedTime': 2411.5, 'positionName': 'LEFT', 'positionCoords': [204.4, 155], 'bid': 1.71}, {'imgObject': {}, 'id': 'orange slices', 'src': '/static/foodstim60/orange slices.jpg', 'key': 'i', 'origWidth': 409, 'origHeight': 410, 'width': 409, 'height': 410, 'widthPercent': 0.45, 'rescaleHeight': False, 'trialN': 71, 'loaded': True, 'loadedTime': 2453.600000023842, 'positionName': 'RIGHT', 'positionCoords': [665.6, 155], 'bid': 4.1}]",130908.19999998808,1669831802276,sweetpotato,orange slices,1.71,4.1,2.3899999999999997,orange slices,992.1000000238419,992,992.4000000357628,True,i,132425.0,1516.800000011921,1669831803793,1517,HRV,HRV_0180,2022-11-30 18:13:31
72,"[{'imgObject': {}, 'id': 'grilled chicken strips', 'src': '/static/foodstim60/grilled chicken strips.jpg', 'key': 'u', 'origWidth': 410, 'origHeight': 411, 'width': 410, 'height': 411, 'widthPercent': 0.45, 'rescaleHeight': False, 'trialN': 72, 'loaded': True, 'loadedTime': 2297.400000035763, 'positionName': 'LEFT', 'positionCoords': [204.4, 154.5], 'bid': 5.9}, {'imgObject': {}, 'id': 'shreddedwheatwithmilk', 'src': '/static/foodstim60/shreddedwheatwithmilk.jpg', 'key': 'i', 'origWidth': 410, 'origHeight': 410, 'width': 410, 'height': 410, 'widthPercent': 0.45, 'rescaleHeight': False, 'trialN': 72, 'loaded': True, 'loadedTime': 2291.900000035763, 'positionName': 'RIGHT', 'positionCoords': [665.6, 155], 'bid': 5.9}]",132425.0,1669831803793,grilled chicken strips,shreddedwheatwithmilk,5.9,5.9,0.0,grilled chicken strips,1050.300000011921,1051,1051.1000000238419,True,u,133990.10000002384,1565.1000000238419,1669831805358,1565,HRV,HRV_0180,2022-11-30 18:13:31
73,"[{'imgObject': {}, 'id': 'granola w milk', 'src': '/static/foodstim60/granola w milk.jpg', 'key': 'u', 'origWidth': 410, 'origHeight': 410, 'width': 410, 'height': 410, 'widthPercent': 0.45, 'rescaleHeight': False, 'trialN': 73, 'loaded': True, 'loadedTime': 2452, 'positionName': 'LEFT', 'positionCoords': [204.4, 155], 'bid': 5.23}, {'imgObject': {}, 'id': 'baked potato', 'src': '/static/foodstim60/baked potato.jpg', 'key': 'i', 'origWidth': 409, 'origHeight': 410, 'width': 409, 'height': 410, 'widthPercent': 0.45, 'rescaleHeight': False, 'trialN': 73, 'loaded': True, 'loadedTime': 2350.100000023842, 'positionName': 'RIGHT', 'positionCoords': [665.6, 155], 'bid': 3.37}]",133990.5,1669831805358,granola w milk,baked potato,5.23,3.37,-1.8600000000000003,granola w milk,1400.800000011921,1402,1401.800000011921,True,u,135910.5,1920.0,1669831807278,1920,HRV,HRV_0180,2022-11-30 18:13:31
74,"[{'imgObject': {}, 'id': 'blueberries', 'src': '/static/foodstim60/blueberries.jpg', 'key': 'u', 'origWidth': 411, 'origHeight': 411, 'width': 411, 'height': 411, 'widthPercent': 0.45, 'rescaleHeight': False, 'trialN': 74, 'loaded': True, 'loadedTime': 2170.199999988079, 'positionName': 'LEFT', 'positionCoords': [203.4, 154.5], 'bid': 7.87}, {'imgObject': {}, 'id': 'mango', 'src': '/static/foodstim60/mango.jpg', 'key': 'i', 'origWidth': 411, 'origHeight': 411, 'width': 411, 'height': 411, 'widthPercent': 0.45, 'rescaleHeight': False, 'trialN': 74, 'loaded': True, 'loadedTime': 1991.800000011921, 'positionName': 'RIGHT', 'positionCoords': [665.6, 154.5], 'bid': 7.09}]",135910.80000001192,1669831807279,blueberries,mango,7.87,7.09,-0.7800000000000002,blueberries,1062.6000000238419,1063,1063.8999999761581,True,u,137492.69999998808,1581.8999999761581,1669831808860,1581,HRV,HRV_0180,2022-11-30 18:13:31
75,"[{'imgObject': {}, 'id': 'mashed potato', 'src': '/static/foodstim60/mashed potato.jpg', 'key': 'u', 'origWidth': 409, 'origHeight': 409, 'width': 409, 'height': 409, 'widthPercent': 0.45, 'rescaleHeight': False, 'trialN': 75, 'loaded': True, 'loadedTime': 2067.5, 'positionName': 'LEFT', 'positionCoords': [205.4, 155.5], 'bid': 5.75}, {'imgObject': {}, 'id': 'turkeysandwich', 'src': '/static/foodstim60/turkeysandwich.jpg', 'key': 'i', 'origWidth': 409, 'origHeight': 409, 'width': 409, 'height': 409, 'widthPercent': 0.45, 'rescaleHeight': False, 'trialN': 75, 'loaded': True, 'loadedTime': 2400.600000023842, 'positionName': 'RIGHT', 'positionCoords': [665.6, 155.5], 'bid': 5.79}]",137492.80000001192,1669831808861,mashed potato,turkeysandwich,5.75,5.79,0.040000000000000036,mashed potato,1113.0,1113,1113.8999999761581,True,u,139120.19999998808,1627.3999999761581,1669831810488,1627,HRV,HRV_0180,2022-11-30 18:13:31
76,"[{'imgObject': {}, 'id': 'bagel and cc', 'src': '/static/foodstim60/bagel and cc.jpg', 'key': 'u', 'origWidth': 410, 'origHeight': 410, 'width': 410, 'height': 410, 'widthPercent': 0.45, 'rescaleHeight': False, 'trialN': 76, 'loaded': True, 'loadedTime': 2352.900000035763, 'positionName': 'LEFT', 'positionCoords': [204.4, 155], 'bid': 6.59}, {'imgObject': {}, 'id': 'edamame', 'src': '/static/foodstim60/edamame.jpg', 'key': 'i', 'origWidth': 409, 'origHeight': 410, 'width': 409, 'height': 410, 'widthPercent': 0.45, 'rescaleHeight': False, 'trialN': 76, 'loaded': True, 'loadedTime': 2434, 'positionName': 'RIGHT', 'positionCoords': [665.6, 155], 'bid': 6.0600000000000005}]",139120.5,1669831810488,bagel and cc,edamame,6.59,6.0600000000000005,-0.5299999999999994,bagel and cc,1132.9000000357628,1134,1134.0,True,u,140762.90000003576,1642.4000000357628,1669831812131,1643,HRV,HRV_0180,2022-11-30 18:13:31
77,"[{'imgObject': {}, 'id': 'chickenfingers', 'src': '/static/foodstim60/chickenfingers.jpg', 'key': 'u', 'origWidth': 410, 'origHeight': 410, 'width': 410, 'height': 410, 'widthPercent': 0.45, 'rescaleHeight': False, 'trialN': 77, 'loaded': True, 'loadedTime': 2228.699999988079, 'positionName': 'LEFT', 'positionCoords': [204.4, 155], 'bid': 6.84}, {'imgObject': {}, 'id': 'Grapes', 'src': '/static/foodstim60/Grapes.jpg', 'key': 'i', 'origWidth': 411, 'origHeight': 411, 'width': 411, 'height': 411, 'widthPercent': 0.45, 'rescaleHeight': False, 'trialN': 77, 'loaded': True, 'loadedTime': 2161.699999988079, 'positionName': 'RIGHT', 'positionCoords': [665.6, 154.5], 'bid': 7.53}]",140763.19999998808,1669831812131,chickenfingers,Grapes,6.84,7.53,0.6900000000000004,Grapes,1200.7000000476837,1201,1200.9000000357628,True,i,142480.10000002384,1716.9000000357628,1669831813848,1717,HRV,HRV_0180,2022-11-30 18:13:31
78,"[{'imgObject': {}, 'id': 'grilled chicken strips', 'src': '/static/foodstim60/grilled chicken strips.jpg', 'key': 'u', 'origWidth': 410, 'origHeight': 411, 'width': 410, 'height': 411, 'widthPercent': 0.45, 'rescaleHeight': False, 'trialN': 78, 'loaded': True, 'loadedTime': 2299, 'positionName': 'LEFT', 'positionCoords': [204.4, 154.5], 'bid': 5.9}, {'imgObject': {}, 'id': 'granola w milk', 'src': '/static/foodstim60/granola w milk.jpg', 'key': 'i', 'origWidth': 410, 'origHeight': 410, 'width': 410, 'height': 410, 'widthPercent': 0.45, 'rescaleHeight': False, 'trialN': 78, 'loaded': True, 'loadedTime': 2451.800000011921, 'positionName': 'RIGHT', 'positionCoords': [665.6, 155], 'bid': 5.23}]",142480.5,1669831813849,grilled chicken strips,granola w milk,5.9,5.23,-0.6699999999999999,grilled chicken strips,1857.300000011921,1857,1857.699999988079,True,u,144847.0,2366.5,1669831816215,2366,HRV,HRV_0180,2022-11-30 18:13:31
79,"[{'imgObject': {}, 'id': 'turkeysandwich', 'src': '/static/foodstim60/turkeysandwich.jpg', 'key': 'u', 'origWidth': 409, 'origHeight': 409, 'width': 409, 'height': 409, 'widthPercent': 0.45, 'rescaleHeight': False, 'trialN': 79, 'loaded': True, 'loadedTime': 2397.699999988079, 'positionName': 'LEFT', 'positionCoords': [205.4, 155.5], 'bid': 5.79}, {'imgObject': {}, 'id': 'Tribe humus pita', 'src': '/static/foodstim60/Tribe humus pita.jpg', 'key': 'i', 'origWidth': 411, 'origHeight': 411, 'width': 411, 'height': 411, 'widthPercent': 0.45, 'rescaleHeight': False, 'trialN': 79, 'loaded': True, 'loadedTime': 2447.400000035763, 'positionName': 'RIGHT', 'positionCoords': [665.6, 154.5], 'bid': 7.17}]",144847.40000003576,1669831816215,turkeysandwich,Tribe humus pita,5.79,7.17,1.38,Tribe humus pita,1340.699999988079,1342,1341.0999999642372,True,i,146699.19999998808,1851.7999999523163,1669831818067,1852,HRV,HRV_0180,2022-11-30 18:13:31
80,"[{'imgObject': {}, 'id': 'burger', 'src': '/static/foodstim60/burger.jpg', 'key': 'u', 'origWidth': 409, 'origHeight': 409, 'width': 409, 'height': 409, 'widthPercent': 0.45, 'rescaleHeight': False, 'trialN': 80, 'loaded': True, 'loadedTime': 2125.400000035763, 'positionName': 'LEFT', 'positionCoords': [205.4, 155.5], 'bid': 5.03}, {'imgObject': {}, 'id': 'blueberries', 'src': '/static/foodstim60/blueberries.jpg', 'key': 'i', 'origWidth': 411, 'origHeight': 411, 'width': 411, 'height': 411, 'widthPercent': 0.45, 'rescaleHeight': False, 'trialN': 80, 'loaded': True, 'loadedTime': 2171.400000035763, 'positionName': 'RIGHT', 'positionCoords': [665.6, 154.5], 'bid': 7.87}]",146699.40000003576,1669831818068,burger,blueberries,5.03,7.87,2.84,blueberries,1427.199999988079,1428,1428.3999999761581,True,i,148636.90000003576,1937.5,1669831820005,1937,HRV,HRV_0180,2022-11-30 18:13:31
81,"[{'imgObject': {}, 'id': 'strawberries', 'src': '/static/foodstim60/strawberries.jpg', 'key': 'u', 'origWidth': 410, 'origHeight': 410, 'width': 410, 'height': 410, 'widthPercent': 0.45, 'rescaleHeight': False, 'trialN': 81, 'loaded': True, 'loadedTime': 2327.800000011921, 'positionName': 'LEFT', 'positionCoords': [204.4, 155], 'bid': 8.01}, {'imgObject': {}, 'id': 'olives', 'src': '/static/foodstim60/olives.jpg', 'key': 'i', 'origWidth': 410, 'origHeight': 410, 'width': 410, 'height': 410, 'widthPercent': 0.45, 'rescaleHeight': False, 'trialN': 81, 'loaded': True, 'loadedTime': 2117.199999988079, 'positionName': 'RIGHT', 'positionCoords': [665.6, 155], 'bid': 5.28}]",148637.10000002384,1669831820005,strawberries,olives,8.01,5.28,-2.7299999999999995,strawberries,1008.0999999642372,1009,1009.1999999880791,True,u,150155.19999998808,1518.0999999642372,1669831821523,1518,HRV,HRV_0180,2022-11-30 18:13:31
82,"[{'imgObject': {}, 'id': 'olives', 'src': '/static/foodstim60/olives.jpg', 'key': 'u', 'origWidth': 410, 'origHeight': 410, 'width': 410, 'height': 410, 'widthPercent': 0.45, 'rescaleHeight': False, 'trialN': 82, 'loaded': True, 'loadedTime': 2119, 'positionName': 'LEFT', 'positionCoords': [204.4, 155], 'bid': 5.28}, {'imgObject': {}, 'id': 'ice cream sundae 002', 'src': '/static/foodstim60/ice cream sundae 002.jpg', 'key': 'i', 'origWidth': 409, 'origHeight': 409, 'width': 409, 'height': 409, 'widthPercent': 0.45, 'rescaleHeight': False, 'trialN': 82, 'loaded': True, 'loadedTime': 2214, 'positionName': 'RIGHT', 'positionCoords': [665.6, 155.5], 'bid': 3.48}]",150155.5,1669831821524,olives,ice cream sundae 002,5.28,3.48,-1.8000000000000003,olives,1216.9000000357628,1217,1217.9000000357628,True,u,151889.5,1734.0,1669831823258,1734,HRV,HRV_0180,2022-11-30 18:13:31
83,"[{'imgObject': {}, 'id': 'fruitsalad', 'src': '/static/foodstim60/fruitsalad.jpg', 'key': 'u', 'origWidth': 410, 'origHeight': 410, 'width': 410, 'height': 410, 'widthPercent': 0.45, 'rescaleHeight': False, 'trialN': 83, 'loaded': True, 'loadedTime': 2221.699999988079, 'positionName': 'LEFT', 'positionCoords': [204.4, 155], 'bid': 8}, {'imgObject': {}, 'id': 'granola w milk', 'src': '/static/foodstim60/granola w milk.jpg', 'key': 'i', 'origWidth': 410, 'origHeight': 410, 'width': 410, 'height': 410, 'widthPercent': 0.45, 'rescaleHeight': False, 'trialN': 83, 'loaded': True, 'loadedTime': 2451.699999988079, 'positionName': 'RIGHT', 'positionCoords': [665.6, 155], 'bid': 5.23}]",151889.80000001192,1669831823258,fruitsalad,granola w milk,8.0,5.23,-2.7699999999999996,fruitsalad,940.1000000238419,941,941.1000000238419,True,u,153343.90000003576,1454.1000000238419,1669831824712,1454,HRV,HRV_0180,2022-11-30 18:13:31
84,"[{'imgObject': {}, 'id': 'apple slices', 'src': '/static/foodstim60/apple slices.jpg', 'key': 'u', 'origWidth': 409, 'origHeight': 410, 'width': 409, 'height': 410, 'widthPercent': 0.45, 'rescaleHeight': False, 'trialN': 84, 'loaded': True, 'loadedTime': 2037.6000000238419, 'positionName': 'LEFT', 'positionCoords': [205.4, 155], 'bid': 7.03}, {'imgObject': {}, 'id': 'kiwi', 'src': '/static/foodstim60/kiwi.jpg', 'key': 'i', 'origWidth': 410, 'origHeight': 410, 'width': 410, 'height': 410, 'widthPercent': 0.45, 'rescaleHeight': False, 'trialN': 84, 'loaded': True, 'loadedTime': 2330.699999988079, 'positionName': 'RIGHT', 'positionCoords': [665.6, 155], 'bid': 8.14}]",153344.60000002384,1669831824713,apple slices,kiwi,7.03,8.14,1.1100000000000003,kiwi,860.8000000119209,862,862.3000000119209,True,i,154719.60000002384,1375.0,1669831826088,1375,HRV,HRV_0180,2022-11-30 18:13:31
85,"[{'imgObject': {}, 'id': 'luckycharms', 'src': '/static/foodstim60/luckycharms.jpg', 'key': 'u', 'origWidth': 410, 'origHeight': 409, 'width': 410, 'height': 409, 'widthPercent': 0.45, 'rescaleHeight': False, 'trialN': 85, 'loaded': True, 'loadedTime': 2447.800000011921, 'positionName': 'LEFT', 'positionCoords': [204.4, 155.5], 'bid': 3.06}, {'imgObject': {}, 'id': 'rigatoni', 'src': '/static/foodstim60/rigatoni.jpg', 'key': 'i', 'origWidth': 411, 'origHeight': 411, 'width': 411, 'height': 411, 'widthPercent': 0.45, 'rescaleHeight': False, 'trialN': 85, 'loaded': True, 'loadedTime': 2420.699999988079, 'positionName': 'RIGHT', 'positionCoords': [665.6, 154.5], 'bid': 5.03}]",154720.0,1669831826088,luckycharms,rigatoni,3.06,5.03,1.9700000000000002,rigatoni,1072.699999988079,1073,1073.300000011921,True,i,156304.19999998808,1584.199999988079,1669831827672,1584,HRV,HRV_0180,2022-11-30 18:13:31
86,"[{'imgObject': {}, 'id': 'salmon', 'src': '/static/foodstim60/salmon.jpg', 'key': 'u', 'origWidth': 410, 'origHeight': 409, 'width': 410, 'height': 409, 'widthPercent': 0.45, 'rescaleHeight': False, 'trialN': 86, 'loaded': True, 'loadedTime': 2288.699999988079, 'positionName': 'LEFT', 'positionCoords': [204.4, 155.5], 'bid': 6}, {'imgObject': {}, 'id': 'Grapes', 'src': '/static/foodstim60/Grapes.jpg', 'key': 'i', 'origWidth': 411, 'origHeight': 411, 'width': 411, 'height': 411, 'widthPercent': 0.45, 'rescaleHeight': False, 'trialN': 86, 'loaded': True, 'loadedTime': 2158.800000011921, 'positionName': 'RIGHT', 'positionCoords': [665.6, 154.5], 'bid': 7.53}]",156304.60000002384,1669831827673,salmon,Grapes,6.0,7.53,1.5300000000000002,salmon,1850.699999988079,1851,1851.0999999642372,True,u,158669.10000002384,2364.5,1669831830037,2364,HRV,HRV_0180,2022-11-30 18:13:31
87,"[{'imgObject': {}, 'id': 'lox', 'src': '/static/foodstim60/lox.jpg', 'key': 'u', 'origWidth': 410, 'origHeight': 411, 'width': 410, 'height': 411, 'widthPercent': 0.45, 'rescaleHeight': False, 'trialN': 87, 'loaded': True, 'loadedTime': 2205.800000011921, 'positionName': 'LEFT', 'positionCoords': [204.4, 154.5], 'bid': 1.06}, {'imgObject': {}, 'id': 'froot loops w milk', 'src': '/static/foodstim60/froot loops w milk.jpg', 'key': 'i', 'origWidth': 410, 'origHeight': 410, 'width': 410, 'height': 410, 'widthPercent': 0.45, 'rescaleHeight': False, 'trialN': 87, 'loaded': True, 'loadedTime': 2278.5, 'positionName': 'RIGHT', 'positionCoords': [665.6, 155], 'bid': 3}]",158669.40000003576,1669831830037,lox,froot loops w milk,1.06,3.0,1.94,froot loops w milk,832.5,834,833.5,True,i,160015.0,1345.5999999642372,1669831831383,1346,HRV,HRV_0180,2022-11-30 18:13:31
88,"[{'imgObject': {}, 'id': 'lox', 'src': '/static/foodstim60/lox.jpg', 'key': 'u', 'origWidth': 410, 'origHeight': 411, 'width': 410, 'height': 411, 'widthPercent': 0.45, 'rescaleHeight': False, 'trialN': 88, 'loaded': True, 'loadedTime': 2207.600000023842, 'positionName': 'LEFT', 'positionCoords': [204.4, 154.5], 'bid': 1.06}, {'imgObject': {}, 'id': 'seaweed', 'src': '/static/foodstim60/seaweed.jpg', 'key': 'i', 'origWidth': 410, 'origHeight': 410, 'width': 410, 'height': 410, 'widthPercent': 0.45, 'rescaleHeight': False, 'trialN': 88, 'loaded': True, 'loadedTime': 2432.199999988079, 'positionName': 'RIGHT', 'positionCoords': [665.6, 155], 'bid': 0.5700000000000001}]",160015.30000001192,1669831831383,lox,seaweed,1.06,0.5700000000000001,-0.49,lox,845.8000000119209,847,846.8000000119209,True,u,161371.60000002384,1356.300000011921,1669831832740,1357,HRV,HRV_0180,2022-11-30 18:13:31
89,"[{'imgObject': {}, 'id': 'mango', 'src': '/static/foodstim60/mango.jpg', 'key': 'u', 'origWidth': 411, 'origHeight': 411, 'width': 411, 'height': 411, 'widthPercent': 0.45, 'rescaleHeight': False, 'trialN': 89, 'loaded': True, 'loadedTime': 1988.1000000238419, 'positionName': 'LEFT', 'positionCoords': [203.4, 154.5], 'bid': 7.09}, {'imgObject': {}, 'id': 'edamame', 'src': '/static/foodstim60/edamame.jpg', 'key': 'i', 'origWidth': 409, 'origHeight': 410, 'width': 409, 'height': 410, 'widthPercent': 0.45, 'rescaleHeight': False, 'trialN': 89, 'loaded': True, 'loadedTime': 2434.199999988079, 'positionName': 'RIGHT', 'positionCoords': [665.6, 155], 'bid': 6.0600000000000005}]",161371.90000003576,1669831832740,mango,edamame,7.09,6.0600000000000005,-1.0299999999999994,mango,1185.3999999761581,1187,1186.699999988079,True,u,163065.69999998808,1693.7999999523163,1669831834434,1694,HRV,HRV_0180,2022-11-30 18:13:31
90,"[{'imgObject': {}, 'id': 'sweetpotato', 'src': '/static/foodstim60/sweetpotato.jpg', 'key': 'u', 'origWidth': 410, 'origHeight': 410, 'width': 410, 'height': 410, 'widthPercent': 0.45, 'rescaleHeight': False, 'trialN': 90, 'loaded': True, 'loadedTime': 2413.300000011921, 'positionName': 'LEFT', 'positionCoords': [204.4, 155], 'bid': 1.71}, {'imgObject': {}, 'id': 'popsicles', 'src': '/static/foodstim60/popsicles.jpg', 'key': 'i', 'origWidth': 410, 'origHeight': 410, 'width': 410, 'height': 410, 'widthPercent': 0.45, 'rescaleHeight': False, 'trialN': 90, 'loaded': True, 'loadedTime': 2372.5, 'positionName': 'RIGHT', 'positionCoords': [665.6, 155], 'bid': 1.59}]",180283.30000001192,1669831851651,sweetpotato,popsicles,1.71,1.59,-0.11999999999999988,sweetpotato,1746.1000000238419,1748,1747.3999999761581,True,u,182542.30000001192,2259.0,1669831853910,2259,HRV,HRV_0180,2022-11-30 18:13:31
91,"[{'imgObject': {}, 'id': 'kiwi', 'src': '/static/foodstim60/kiwi.jpg', 'key': 'u', 'origWidth': 410, 'origHeight': 410, 'width': 410, 'height': 410, 'widthPercent': 0.45, 'rescaleHeight': False, 'trialN': 91, 'loaded': True, 'loadedTime': 2328.300000011921, 'positionName': 'LEFT', 'positionCoords': [204.4, 155], 'bid': 8.14}, {'imgObject': {}, 'id': 'mashed potato', 'src': '/static/foodstim60/mashed potato.jpg', 'key': 'i', 'origWidth': 409, 'origHeight': 409, 'width': 409, 'height': 409, 'widthPercent': 0.45, 'rescaleHeight': False, 'trialN': 91, 'loaded': True, 'loadedTime': 2063.900000035763, 'positionName': 'RIGHT', 'positionCoords': [665.6, 155.5], 'bid': 5.75}]",182542.60000002384,1669831853911,kiwi,mashed potato,8.14,5.75,-2.3900000000000006,kiwi,1503.300000011921,1504,1504.300000011921,True,u,184558.10000002384,2015.5,1669831855926,2015,HRV,HRV_0180,2022-11-30 18:13:31
92,"[{'imgObject': {}, 'id': 'raisin bran w milk', 'src': '/static/foodstim60/raisin bran w milk.jpg', 'key': 'u', 'origWidth': 411, 'origHeight': 411, 'width': 411, 'height': 411, 'widthPercent': 0.45, 'rescaleHeight': False, 'trialN': 92, 'loaded': True, 'loadedTime': 2246.5, 'positionName': 'LEFT', 'positionCoords': [203.4, 154.5], 'bid': 5.59}, {'imgObject': {}, 'id': 'sushi w_condiments', 'src': '/static/foodstim60/sushi w_condiments.jpg', 'key': 'i', 'origWidth': 410, 'origHeight': 410, 'width': 410, 'height': 410, 'widthPercent': 0.45, 'rescaleHeight': False, 'trialN': 92, 'loaded': True, 'loadedTime': 2406.300000011921, 'positionName': 'RIGHT', 'positionCoords': [665.6, 155], 'bid': 5.9}]",184558.69999998808,1669831855927,raisin bran w milk,sushi w_condiments,5.59,5.9,0.3100000000000005,sushi w_condiments,1277.2000000476837,1277,1277.4000000357628,True,i,186351.60000002384,1792.9000000357628,1669831857720,1793,HRV,HRV_0180,2022-11-30 18:13:31
93,"[{'imgObject': {}, 'id': 'raisin bran w milk', 'src': '/static/foodstim60/raisin bran w milk.jpg', 'key': 'u', 'origWidth': 411, 'origHeight': 411, 'width': 411, 'height': 411, 'widthPercent': 0.45, 'rescaleHeight': False, 'trialN': 93, 'loaded': True, 'loadedTime': 2261.699999988079, 'positionName': 'LEFT', 'positionCoords': [203.4, 154.5], 'bid': 5.59}, {'imgObject': {}, 'id': 'granola w milk', 'src': '/static/foodstim60/granola w milk.jpg', 'key': 'i', 'origWidth': 410, 'origHeight': 410, 'width': 410, 'height': 410, 'widthPercent': 0.45, 'rescaleHeight': False, 'trialN': 93, 'loaded': True, 'loadedTime': 2450.5, 'positionName': 'RIGHT', 'positionCoords': [665.6, 155], 'bid': 5.23}]",186352.40000003576,1669831857721,raisin bran w milk,granola w milk,5.59,5.23,-0.35999999999999943,granola w milk,1309.699999988079,1311,1311.699999988079,True,i,188172.0,1819.5999999642372,1669831859540,1819,HRV,HRV_0180,2022-11-30 18:13:31
94,"[{'imgObject': {}, 'id': 'popsicles', 'src': '/static/foodstim60/popsicles.jpg', 'key': 'u', 'origWidth': 410, 'origHeight': 410, 'width': 410, 'height': 410, 'widthPercent': 0.45, 'rescaleHeight': False, 'trialN': 94, 'loaded': True, 'loadedTime': 2370.300000011921, 'positionName': 'LEFT', 'positionCoords': [204.4, 155], 'bid': 1.59}, {'imgObject': {}, 'id': 'seaweed', 'src': '/static/foodstim60/seaweed.jpg', 'key': 'i', 'origWidth': 410, 'origHeight': 410, 'width': 410, 'height': 410, 'widthPercent': 0.45, 'rescaleHeight': False, 'trialN': 94, 'loaded': True, 'loadedTime': 2428.800000011921, 'positionName': 'RIGHT', 'positionCoords': [665.6, 155], 'bid': 0.5700000000000001}]",188172.19999998808,1669831859540,popsicles,seaweed,1.59,0.5700000000000001,-1.02,popsicles,959.7000000476837,960,959.9000000357628,True,u,189641.60000002384,1469.4000000357628,1669831861010,1470,HRV,HRV_0180,2022-11-30 18:13:31
95,"[{'imgObject': {}, 'id': 'luckycharms', 'src': '/static/foodstim60/luckycharms.jpg', 'key': 'u', 'origWidth': 410, 'origHeight': 409, 'width': 410, 'height': 409, 'widthPercent': 0.45, 'rescaleHeight': False, 'trialN': 95, 'loaded': True, 'loadedTime': 2449.800000011921, 'positionName': 'LEFT', 'positionCoords': [204.4, 155.5], 'bid': 3.06}, {'imgObject': {}, 'id': 'baked potato', 'src': '/static/foodstim60/baked potato.jpg', 'key': 'i', 'origWidth': 409, 'origHeight': 410, 'width': 409, 'height': 410, 'widthPercent': 0.45, 'rescaleHeight': False, 'trialN': 95, 'loaded': True, 'loadedTime': 2348.100000023842, 'positionName': 'RIGHT', 'positionCoords': [665.6, 155], 'bid': 3.37}]",189642.60000002384,1669831861011,luckycharms,baked potato,3.06,3.37,0.31000000000000005,baked potato,1410.5,1410,1410.699999988079,True,i,191572.40000003576,1929.800000011921,1669831862940,1929,HRV,HRV_0180,2022-11-30 18:13:31
96,"[{'imgObject': {}, 'id': 'burrito', 'src': '/static/foodstim60/burrito.jpg', 'key': 'u', 'origWidth': 410, 'origHeight': 410, 'width': 410, 'height': 410, 'widthPercent': 0.45, 'rescaleHeight': False, 'trialN': 96, 'loaded': True, 'loadedTime': 1942.6000000238419, 'positionName': 'LEFT', 'positionCoords': [204.4, 155], 'bid': 4.95}, {'imgObject': {}, 'id': 'rigatoni', 'src': '/static/foodstim60/rigatoni.jpg', 'key': 'i', 'origWidth': 411, 'origHeight': 411, 'width': 411, 'height': 411, 'widthPercent': 0.45, 'rescaleHeight': False, 'trialN': 96, 'loaded': True, 'loadedTime': 2418.5, 'positionName': 'RIGHT', 'positionCoords': [665.6, 154.5], 'bid': 5.03}]",191573.10000002384,1669831862941,burrito,rigatoni,4.95,5.03,0.08000000000000007,rigatoni,1239.300000011921,1240,1240.300000011921,True,i,193333.30000001192,1760.199999988079,1669831864701,1760,HRV,HRV_0180,2022-11-30 18:13:31
97,"[{'imgObject': {}, 'id': 'Tribe humus pita', 'src': '/static/foodstim60/Tribe humus pita.jpg', 'key': 'u', 'origWidth': 411, 'origHeight': 411, 'width': 411, 'height': 411, 'widthPercent': 0.45, 'rescaleHeight': False, 'trialN': 97, 'loaded': True, 'loadedTime': 2444.300000011921, 'positionName': 'LEFT', 'positionCoords': [203.4, 154.5], 'bid': 7.17}, {'imgObject': {}, 'id': 'mac & cheese', 'src': '/static/foodstim60/mac & cheese.jpg', 'key': 'i', 'origWidth': 410, 'origHeight': 410, 'width': 410, 'height': 410, 'widthPercent': 0.45, 'rescaleHeight': False, 'trialN': 97, 'loaded': True, 'loadedTime': 2461.100000023842, 'positionName': 'RIGHT', 'positionCoords': [665.6, 155], 'bid': 4.37}]",193333.80000001192,1669831864702,Tribe humus pita,mac & cheese,7.17,4.37,-2.8,Tribe humus pita,1142.800000011921,1144,1143.800000011921,True,u,194988.80000001192,1655.0,1669831866357,1655,HRV,HRV_0180,2022-11-30 18:13:31
98,"[{'imgObject': {}, 'id': 'seaweed', 'src': '/static/foodstim60/seaweed.jpg', 'key': 'u', 'origWidth': 410, 'origHeight': 410, 'width': 410, 'height': 410, 'widthPercent': 0.45, 'rescaleHeight': False, 'trialN': 98, 'loaded': True, 'loadedTime': 2430.100000023842, 'positionName': 'LEFT', 'positionCoords': [204.4, 155], 'bid': 0.5700000000000001}, {'imgObject': {}, 'id': 'mac & cheese', 'src': '/static/foodstim60/mac & cheese.jpg', 'key': 'i', 'origWidth': 410, 'origHeight': 410, 'width': 410, 'height': 410, 'widthPercent': 0.45, 'rescaleHeight': False, 'trialN': 98, 'loaded': True, 'loadedTime': 2461.300000011921, 'positionName': 'RIGHT', 'positionCoords': [665.6, 155], 'bid': 4.37}]",194989.10000002384,1669831866357,seaweed,mac & cheese,0.5700000000000001,4.37,3.8,mac & cheese,910.0,911,910.3000000119209,True,i,196404.0,1414.8999999761581,1669831867772,1415,HRV,HRV_0180,2022-11-30 18:13:31
99,"[{'imgObject': {}, 'id': 'granola w milk', 'src': '/static/foodstim60/granola w milk.jpg', 'key': 'u', 'origWidth': 410, 'origHeight': 410, 'width': 410, 'height': 410, 'widthPercent': 0.45, 'rescaleHeight': False, 'trialN': 99, 'loaded': True, 'loadedTime': 2452.199999988079, 'positionName': 'LEFT', 'positionCoords': [204.4, 155], 'bid': 5.23}, {'imgObject': {}, 'id': 'turkey sandwich', 'src': '/static/foodstim60/turkey sandwich.jpg', 'key': 'i', 'origWidth': 409, 'origHeight': 409, 'width': 409, 'height': 409, 'widthPercent': 0.45, 'rescaleHeight': False, 'trialN': 99, 'loaded': True, 'loadedTime': 2154, 'positionName': 'RIGHT', 'positionCoords': [665.6, 155.5], 'bid': 5.8100000000000005}]",196404.30000001192,1669831867772,granola w milk,turkey sandwich,5.23,5.8100000000000005,0.5800000000000001,turkey sandwich,1097.6000000238419,1099,1098.699999988079,True,i,198017.69999998808,1613.3999999761581,1669831869386,1614,HRV,HRV_0180,2022-11-30 18:13:31
100,"[{'imgObject': {}, 'id': 'pear', 'src': '/static/foodstim60/pear.jpg', 'key': 'u', 'origWidth': 411, 'origHeight': 410, 'width': 411, 'height': 410, 'widthPercent': 0.45, 'rescaleHeight': False, 'trialN': 100, 'loaded': True, 'loadedTime': 2369, 'positionName': 'LEFT', 'positionCoords': [203.4, 155], 'bid': 7.25}, {'imgObject': {}, 'id': 'roastedpotatoes', 'src': '/static/foodstim60/roastedpotatoes.jpg', 'key': 'i', 'origWidth': 409, 'origHeight': 410, 'width': 409, 'height': 410, 'widthPercent': 0.45, 'rescaleHeight': False, 'trialN': 100, 'loaded': True, 'loadedTime': 2236.199999988079, 'positionName': 'RIGHT', 'positionCoords': [665.6, 155], 'bid': 6.78}]",198018.10000002384,1669831869386,pear,roastedpotatoes,7.25,6.78,-0.46999999999999975,roastedpotatoes,2107.699999988079,2110,2109.399999976158,True,i,200644.40000003576,2626.300000011921,1669831872012,2626,HRV,HRV_0180,2022-11-30 18:13:31
101,"[{'imgObject': {}, 'id': 'yogurt no spoon', 'src': '/static/foodstim60/yogurt no spoon.jpg', 'key': 'u', 'origWidth': 411, 'origHeight': 410, 'width': 411, 'height': 410, 'widthPercent': 0.45, 'rescaleHeight': False, 'trialN': 101, 'loaded': True, 'loadedTime': 1978.6000000238419, 'positionName': 'LEFT', 'positionCoords': [203.4, 155], 'bid': 2.87}, {'imgObject': {}, 'id': 'bagel plain', 'src': '/static/foodstim60/bagel plain.jpg', 'key': 'i', 'origWidth': 410, 'origHeight': 410, 'width': 410, 'height': 410, 'widthPercent': 0.45, 'rescaleHeight': False, 'trialN': 101, 'loaded': True, 'loadedTime': 1959.699999988079, 'positionName': 'RIGHT', 'positionCoords': [665.6, 155], 'bid': 5.93}]",200645.10000002384,1669831872013,yogurt no spoon,bagel plain,2.87,5.93,3.0599999999999996,bagel plain,989.1999999880791,990,989.3999999761581,True,i,202145.10000002384,1500.0,1669831873514,1501,HRV,HRV_0180,2022-11-30 18:13:31
102,"[{'imgObject': {}, 'id': 'lox', 'src': '/static/foodstim60/lox.jpg', 'key': 'u', 'origWidth': 410, 'origHeight': 411, 'width': 410, 'height': 411, 'widthPercent': 0.45, 'rescaleHeight': False, 'trialN': 102, 'loaded': True, 'loadedTime': 2209.300000011921, 'positionName': 'LEFT', 'positionCoords': [204.4, 154.5], 'bid': 1.06}, {'imgObject': {}, 'id': 'sweetpotato', 'src': '/static/foodstim60/sweetpotato.jpg', 'key': 'i', 'origWidth': 410, 'origHeight': 410, 'width': 410, 'height': 410, 'widthPercent': 0.45, 'rescaleHeight': False, 'trialN': 102, 'loaded': True, 'loadedTime': 2413.5, 'positionName': 'RIGHT', 'positionCoords': [665.6, 155], 'bid': 1.71}]",202145.30000001192,1669831873514,lox,sweetpotato,1.06,1.71,0.6499999999999999,sweetpotato,777.8000000119209,778,778.1000000238419,True,i,203433.90000003576,1288.6000000238419,1669831874803,1289,HRV,HRV_0180,2022-11-30 18:13:31
103,"[{'imgObject': {}, 'id': 'cherries', 'src': '/static/foodstim60/cherries.jpg', 'key': 'u', 'origWidth': 410, 'origHeight': 411, 'width': 410, 'height': 411, 'widthPercent': 0.45, 'rescaleHeight': False, 'trialN': 103, 'loaded': True, 'loadedTime': 2243.300000011921, 'positionName': 'LEFT', 'positionCoords': [204.4, 154.5], 'bid': 8.06}, {'imgObject': {}, 'id': 'raspberries', 'src': '/static/foodstim60/raspberries.jpg', 'key': 'i', 'origWidth': 411, 'origHeight': 411, 'width': 411, 'height': 411, 'widthPercent': 0.45, 'rescaleHeight': False, 'trialN': 103, 'loaded': True, 'loadedTime': 1998.300000011921, 'positionName': 'RIGHT', 'positionCoords': [665.6, 154.5], 'bid': 9.06}]",203434.19999998808,1669831874803,cherries,raspberries,8.06,9.06,1.0,raspberries,1010.9000000357628,1012,1012.2000000476837,True,i,204958.40000003576,1524.2000000476837,1669831876327,1524,HRV,HRV_0180,2022-11-30 18:13:31
104,"[{'imgObject': {}, 'id': 'baked potato', 'src': '/static/foodstim60/baked potato.jpg', 'key': 'u', 'origWidth': 409, 'origHeight': 410, 'width': 409, 'height': 410, 'widthPercent': 0.45, 'rescaleHeight': False, 'trialN': 104, 'loaded': True, 'loadedTime': 2346.400000035763, 'positionName': 'LEFT', 'positionCoords': [205.4, 155], 'bid': 3.37}, {'imgObject': {}, 'id': 'seaweed', 'src': '/static/foodstim60/seaweed.jpg', 'key': 'i', 'origWidth': 410, 'origHeight': 410, 'width': 410, 'height': 410, 'widthPercent': 0.45, 'rescaleHeight': False, 'trialN': 104, 'loaded': True, 'loadedTime': 2432, 'positionName': 'RIGHT', 'positionCoords': [665.6, 155], 'bid': 0.5700000000000001}]",204958.60000002384,1669831876328,baked potato,seaweed,3.37,0.5700000000000001,-2.8,baked potato,735.3000000119209,736,736.1999999880791,True,u,206208.40000003576,1249.800000011921,1669831877577,1249,HRV,HRV_0180,2022-11-30 18:13:31
105,"[{'imgObject': {}, 'id': 'raisin bran w milk', 'src': '/static/foodstim60/raisin bran w milk.jpg', 'key': 'u', 'origWidth': 411, 'origHeight': 411, 'width': 411, 'height': 411, 'widthPercent': 0.45, 'rescaleHeight': False, 'trialN': 105, 'loaded': True, 'loadedTime': 2266.400000035763, 'positionName': 'LEFT', 'positionCoords': [203.4, 154.5], 'bid': 5.59}, {'imgObject': {}, 'id': 'blackbeanswithrice', 'src': '/static/foodstim60/blackbeanswithrice.jpg', 'key': 'i', 'origWidth': 410, 'origHeight': 410, 'width': 410, 'height': 410, 'widthPercent': 0.45, 'rescaleHeight': False, 'trialN': 105, 'loaded': True, 'loadedTime': 2183.900000035763, 'positionName': 'RIGHT', 'positionCoords': [665.6, 155], 'bid': 4.09}]",206208.5,1669831877577,raisin bran w milk,blackbeanswithrice,5.59,4.09,-1.5,raisin bran w milk,1950.199999988079,1952,1951.699999988079,True,u,208673.10000002384,2464.600000023842,1669831880042,2465,HRV,HRV_0180,2022-11-30 18:13:31
106,"[{'imgObject': {}, 'id': 'seaweed', 'src': '/static/foodstim60/seaweed.jpg', 'key': 'u', 'origWidth': 410, 'origHeight': 410, 'width': 410, 'height': 410, 'widthPercent': 0.45, 'rescaleHeight': False, 'trialN': 106, 'loaded': True, 'loadedTime': 2432.400000035763, 'positionName': 'LEFT', 'positionCoords': [204.4, 155], 'bid': 0.5700000000000001}, {'imgObject': {}, 'id': 'yogurt no spoon', 'src': '/static/foodstim60/yogurt no spoon.jpg', 'key': 'i', 'origWidth': 411, 'origHeight': 410, 'width': 411, 'height': 410, 'widthPercent': 0.45, 'rescaleHeight': False, 'trialN': 106, 'loaded': True, 'loadedTime': 1971.5, 'positionName': 'RIGHT', 'positionCoords': [665.6, 155], 'bid': 2.87}]",208673.40000003576,1669831880042,seaweed,yogurt no spoon,0.5700000000000001,2.87,2.3,yogurt no spoon,843.8999999761581,846,845.1999999880791,True,i,210031.5,1358.0999999642372,1669831881400,1358,HRV,HRV_0180,2022-11-30 18:13:31
107,"[{'imgObject': {}, 'id': 'eggs', 'src': '/static/foodstim60/eggs.jpg', 'key': 'u', 'origWidth': 409, 'origHeight': 409, 'width': 409, 'height': 409, 'widthPercent': 0.45, 'rescaleHeight': False, 'trialN': 107, 'loaded': True, 'loadedTime': 2266.600000023842, 'positionName': 'LEFT', 'positionCoords': [205.4, 155.5], 'bid': 7.37}, {'imgObject': {}, 'id': 'veggieswithdip', 'src': '/static/foodstim60/veggieswithdip.jpg', 'key': 'i', 'origWidth': 409, 'origHeight': 409, 'width': 409, 'height': 409, 'widthPercent': 0.45, 'rescaleHeight': False, 'trialN': 107, 'loaded': True, 'loadedTime': 2443.900000035763, 'positionName': 'RIGHT', 'positionCoords': [665.6, 155.5], 'bid': 7.48}]",210031.80000001192,1669831881401,eggs,veggieswithdip,7.37,7.48,0.11000000000000032,eggs,1387.300000011921,1387,1387.699999988079,True,u,211922.19999998808,1890.3999999761581,1669831883291,1890,HRV,HRV_0180,2022-11-30 18:13:31
108,"[{'imgObject': {}, 'id': 'tacos', 'src': '/static/foodstim60/tacos.jpg', 'key': 'u', 'origWidth': 411, 'origHeight': 411, 'width': 411, 'height': 411, 'widthPercent': 0.45, 'rescaleHeight': False, 'trialN': 108, 'loaded': True, 'loadedTime': 2017.199999988079, 'positionName': 'LEFT', 'positionCoords': [203.4, 154.5], 'bid': 4.34}, {'imgObject': {}, 'id': 'cheerios', 'src': '/static/foodstim60/cheerios.jpg', 'key': 'i', 'origWidth': 409, 'origHeight': 410, 'width': 409, 'height': 410, 'widthPercent': 0.45, 'rescaleHeight': False, 'trialN': 108, 'loaded': True, 'loadedTime': 2463.199999988079, 'positionName': 'RIGHT', 'positionCoords': [665.6, 155], 'bid': 4.89}]",211922.40000003576,1669831883291,tacos,cheerios,4.34,4.89,0.5499999999999998,cheerios,1199.0,1200,1199.699999988079,True,i,213640.40000003576,1718.0,1669831885009,1718,HRV,HRV_0180,2022-11-30 18:13:31
