success,trial_type,trial_index,time_elapsed,internal_node_id,Block,TrialNumber,TrialTime,trialTimeDiff,FPS_avg,FPS_med,FPS_mode,TrialDur,winResizeTime,rt,block,button_pressed,MotCoh,MotDir,ColCoh,Color,ChoiceKey,Choice,Accuracy,RT,nFrames,FPS,PPD,missTrial,missTrialMsg,onsetDelay,fullScreenExitTime,canvCenter,TrialType,Score,BlockTrial,stimulus,button_labels,exp,subjectId,date
True,fullscreen,0,3082,0.0-0.0,0.0,1.0,,,,,,,,,,,,,,,,,,,,,,,,,,,,,,,,HRV,HRV_0264,2022-11-30 20:05:23
,wl-check-fps,1,8087,0.0-1.0,0.0,2.0,"[3456.3, 3466.8, 3485.5, 3504.4, 3517.4, 3536.1, 3552.5, 3569.6, 3583.9, 3600.1, 3621.8, 3640.4, 3653.4, 3667.4, 3682.6, 3699.5, 3716.7, 3732.6, 3749.7, 3766.5, 3782.6, 3799.5, 3816.7, 3832.6, 3849.7, 3866.6, 3882.6, 3899.6, 3916.7, 3932.6, 3949.7, 3966.6, 3982.8, 3999.7, 4017.1, 4033.7, 4049.9, 4066.6, 4083.6, 4099.7, 4116.6, 4133.6, 4150, 4166.5, 4183.8, 4200.2, 4216.6, 4233.9, 4249.9, 4266.6, 4284.1, 4299.8, 4317.2, 4334.2, 4350.1, 4367.4, 4385.4, 4401.3, 4417.4, 4434.2, 4451.9, 4466.9, 4483.8, 4501, 4517, 4533.9, 4551.1, 4567.2, 4584, 4601.2, 4617.3, 4633.9, 4650.9, 4666.9, 4685.8, 4701.2, 4717, 4734.2, 4751.1, 4767.9, 4783.9, 4801.7, 4817.9, 4834, 4850.7, 4867.7, 4883.6, 4900.7, 4917.6, 4933.7, 4950.6, 4967.6, 4983.9, 5000.7, 5017.6, 5033.9, 5051, 5067.6, 5084, 5101.2, 5117.7, 5134.7, 5150.7, 5167.7, 5185.2, 5200.8, 5217.9, 5234.7, 5250.7, 5267.8, 5284.8, 5301, 5317.7, 5334.7, 5350.6, 5367.6, 5384.8, 5401.1, 5417.6, 5434.6, 5451.7, 5467.6, 5484.9, 5501.9, 5517.7, 5534.7, 5551.7, 5567.6, 5584.9, 5601.7, 5617.8, 5634.6, 5651.7, 5667.7, 5685.5, 5701.8, 5717.6, 5734.8, 5751.6, 5768.8, 5784.7, 5801.8, 5818.6, 5834.7, 5851.7, 5868.8, 5884.7, 5901.7, 5918.7, 5934.8, 5951.7, 5968.8, 5984.8, 6001.7, 6018.7, 6034.8, 6051.7, 6068.9, 6085.2, 6101.7, 6118.7, 6134.8, 6151.8, 6168.7, 6185.7, 6201.8, 6218.7, 6235.8, 6251.9, 6269.5, 6285.7, 6301.8, 6318.6, 6335.8, 6351.7, 6369, 6385.8, 6401.6, 6418.6, 6435.8, 6451.6, 6468.8, 6486, 6501.8, 6518.7, 6535.7, 6552.8, 6568.9, 6585.7, 6602.7, 6618.8, 6635.7, 6652.8, 6669.2, 6685.7, 6702.7, 6718.7, 6735.7, 6752.8, 6769.1, 6785.8, 6802.8, 6818.9, 6836.1, 6853.4, 6869.7, 6885.7, 6902.7, 6919.8, 6935.8, 6952.9, 6969.7, 6985.7, 7002.7, 7019.8, 7035.7, 7052.7, 7069.7, 7086.1, 7102.8, 7120.2, 7136.1, 7153.4, 7169.8, 7186.7, 7203.2, 7220.2, 7237.9, 7253.4, 7269.8, 7287.2, 7303, 7320, 7337.2, 7353.2, 7369.9, 7387.6, 7403, 7419.9, 7437, 7453.1, 7469.8, 7486.9, 7503.2, 7519.9, 7537, 7553.9, 7569.9, 7586.8, 7604.6, 7620.2, 7637.5, 7653.9, 7669.9, 7686.9, 7703.8, 7720.1, 7737.5, 7753.9, 7769.7, 7786.8, 7803.8, 7819.7, 7836.8, 7853.8, 7869.7, 7886.8, 7903.9, 7921.4, 7937.4, 7953.8, 7970.7, 7986.8, 8003.9, 8020.8, 8037.8, 8053.8, 8070.9, 8086.9, 8103.8, 8120.8, 8137, 8153.7, 8170.8, 8186.7, 8203.8, 8220.9, 8236.9, 8254, 8270.9, 8287.8, 8303.8, 8320.9, 8337.8, 8353.7, 8370.8, 8387.8, 8403.8, 8420.8, 8437.9]","[5.4, 10.5, 18.7, 18.9, 13, 18.7, 16.4, 17.1, 14.3, 16.2, 21.7, 18.6, 13, 14, 15.2, 16.9, 17.2, 15.9, 17.1, 16.8, 16.1, 16.9, 17.2, 15.9, 17.1, 16.9, 16, 17, 17.1, 15.9, 17.1, 16.9, 16.2, 16.9, 17.4, 16.6, 16.2, 16.7, 17, 16.1, 16.9, 17, 16.4, 16.5, 17.3, 16.4, 16.4, 17.3, 16, 16.7, 17.5, 15.7, 17.4, 17, 15.9, 17.3, 18, 15.9, 16.1, 16.8, 17.7, 15, 16.9, 17.2, 16, 16.9, 17.2, 16.1, 16.8, 17.2, 16.1, 16.6, 17, 16, 18.9, 15.4, 15.8, 17.2, 16.9, 16.8, 16, 17.8, 16.2, 16.1, 16.7, 17, 15.9, 17.1, 16.9, 16.1, 16.9, 17, 16.3, 16.8, 16.9, 16.3, 17.1, 16.6, 16.4, 17.2, 16.5, 17, 16, 17, 17.5, 15.6, 17.1, 16.8, 16, 17.1, 17, 16.2, 16.7, 17, 15.9, 17, 17.2, 16.3, 16.5, 17, 17.1, 15.9, 17.3, 17, 15.8, 17, 17, 15.9, 17.3, 16.8, 16.1, 16.8, 17.1, 16, 17.8, 16.3, 15.8, 17.2, 16.8, 17.2, 15.9, 17.1, 16.8, 16.1, 17, 17.1, 15.9, 17, 17, 16.1, 16.9, 17.1, 16, 16.9, 17, 16.1, 16.9, 17.2, 16.3, 16.5, 17, 16.1, 17, 16.9, 17, 16.1, 16.9, 17.1, 16.1, 17.6, 16.2, 16.1, 16.8, 17.2, 15.9, 17.3, 16.8, 15.8, 17, 17.2, 15.8, 17.2, 17.2, 15.8, 16.9, 17, 17.1, 16.1, 16.8, 17, 16.1, 16.9, 17.1, 16.4, 16.5, 17, 16, 17, 17.1, 16.3, 16.7, 17, 16.1, 17.2, 17.3, 16.3, 16, 17, 17.1, 16, 17.1, 16.8, 16, 17, 17.1, 15.9, 17, 17, 16.4, 16.7, 17.4, 15.9, 17.3, 16.4, 16.9, 16.5, 17, 17.7, 15.5, 16.4, 17.4, 15.8, 17, 17.2, 16, 16.7, 17.7, 15.4, 16.9, 17.1, 16.1, 16.7, 17.1, 16.3, 16.7, 17.1, 16.9, 16, 16.9, 17.8, 15.6, 17.3, 16.4, 16, 17, 16.9, 16.3, 17.4, 16.4, 15.8, 17.1, 17, 15.9, 17.1, 17, 15.9, 17.1, 17.1, 17.5, 16, 16.4, 16.9, 16.1, 17.1, 16.9, 17, 16, 17.1, 16, 16.9, 17, 16.2, 16.7, 17.1, 15.9, 17.1, 17.1, 16, 17.1, 16.9, 16.9, 16, 17.1, 16.9, 15.9, 17.1, 17, 16, 17, 17.1]",60.0,61.0,59.0,5002.9,[],,,,,,,,,,,,,,,,,,,,,,,,,HRV,HRV_0264,2022-11-30 20:05:23
,wl-html-keyboard-response,2,40498,0.0-2.0-0.0,0.0,3.0,,,,,,,,30403.5,0.0,0,,,,,,,,,,,,,,,,,,,,,,HRV,HRV_0264,2022-11-30 20:05:23
,wl-rdm,3,48927,0.0-3.0-0.0,0.0,4.0,,,,,,,[],,,,0.0,0.0,87.9,0.0,u,0.0,True,2858.099999666214,172.0,59.0,40.0,False,,3000.0,[],"[960, 540]",ColorTask_Demo,,,,,HRV,HRV_0264,2022-11-30 20:05:23
,wl-rdm,4,53782,0.0-3.0-1.0,0.0,5.0,,,,,,,[],,,,0.0,0.0,87.9,1.0,i,1.0,True,793.0000002384186,48.0,59.0,40.0,False,,2000.0,[],"[960, 540]",ColorTask_Demo,,,,,HRV,HRV_0264,2022-11-30 20:05:23
,wl-html-keyboard-response,5,64513,0.0-3.0-2.0,0.0,6.0,,,,,,,,8726.299999952316,0.0,1,,,,,,,,,,,,,,,,,,,,,,HRV,HRV_0264,2022-11-30 20:05:23
,wl-html-keyboard-response,6,76114,0.0-4.0-0.0,0.0,7.0,,,,,,,,9596.100000143051,0.0,0,,,,,,,,,,,,,,,,,,,,,,HRV,HRV_0264,2022-11-30 20:05:23
,wl-html-keyboard-response,7,91506,0.0-5.0-0.0,0.0,8.0,,,,,,,,13387.400000095367,0.0,0,,,,,,,,,,,,,,,,,,,,,,HRV,HRV_0264,2022-11-30 20:05:23
,wl-rdm,8,94140,0.0-6.0-0.0,0.0,9.0,,,,,,,[],,,,,,56.4,0.0,i,1.0,False,1310.7000000476837,79.0,59.0,40.0,False,,251.55159983489392,[],"[960, 540]",ColorTask,-1.0,1.0,,,HRV,HRV_0264,2022-11-30 20:05:23
,wl-rdm,9,96525,0.0-6.1-0.1,0.0,10.0,,,,,,,[],,,,,,73.6,0.0,u,0.0,True,959.0,58.0,59.0,40.0,False,,356.10997754375455,[],"[960, 540]",ColorTask,0.0,2.0,,,HRV,HRV_0264,2022-11-30 20:05:23
,wl-rdm,10,98961,0.0-6.2-0.2,0.0,11.0,,,,,,,[],,,,,,50.0,0.0,i,1.0,False,991.7000000476837,60.0,59.0,40.0,False,,376.485095041907,[],"[960, 540]",ColorTask,-1.0,3.0,,,HRV,HRV_0264,2022-11-30 20:05:23
,wl-rdm,11,101129,0.0-6.3-0.3,0.0,12.0,,,,,,,[],,,,,,87.9,1.0,i,1.0,True,747.6999998092651,45.0,59.0,40.0,False,,339.06707995557036,[],"[960, 540]",ColorTask,0.0,4.0,,,HRV,HRV_0264,2022-11-30 20:05:23
,wl-rdm,12,103466,0.0-6.4-0.4,0.0,13.0,,,,,,,[],,,,,,53.2,1.0,u,0.0,False,996.2000000476837,60.0,59.0,40.0,False,,257.9370460315327,[],"[960, 540]",ColorTask,-1.0,5.0,,,HRV,HRV_0264,2022-11-30 20:05:23
,wl-rdm,13,105571,0.0-6.5-0.5,0.0,14.0,,,,,,,[],,,,,,87.9,1.0,i,1.0,True,775.9000000953674,47.0,59.0,40.0,False,,236.971764203727,[],"[960, 540]",ColorTask,0.0,6.0,,,HRV,HRV_0264,2022-11-30 20:05:23
,wl-rdm,14,107886,0.0-6.6-0.6,0.0,15.0,,,,,,,[],,,,,,53.2,0.0,u,0.0,True,976.9999997615814,59.0,59.0,40.0,False,,273.35664306197464,[],"[960, 540]",ColorTask,1.0,7.0,,,HRV,HRV_0264,2022-11-30 20:05:23
,wl-rdm,15,110022,0.0-6.7-0.7,0.0,16.0,,,,,,,[],,,,,,87.9,0.0,u,0.0,True,802.1000001430511,48.0,59.0,40.0,False,,264.7910064292844,[],"[960, 540]",ColorTask,2.0,8.0,,,HRV,HRV_0264,2022-11-30 20:05:23
,wl-rdm,16,112224,0.0-6.8-0.8,0.0,17.0,,,,,,,[],,,,,,73.6,1.0,i,1.0,True,911.5,55.0,59.0,40.0,False,,210.27230962999317,[],"[960, 540]",ColorTask,3.0,9.0,,,HRV,HRV_0264,2022-11-30 20:05:23
,wl-rdm,17,114326,0.0-6.9-0.9,0.0,18.0,,,,,,,[],,,,,,73.6,1.0,i,1.0,True,815.9999997615814,49.0,59.0,40.0,False,,215.45731065494135,[],"[960, 540]",ColorTask,4.0,10.0,,,HRV,HRV_0264,2022-11-30 20:05:23
,wl-rdm,18,116344,0.0-6.10-0.10,0.0,19.0,,,,,,,[],,,,,,87.9,0.0,u,0.0,True,596.2000000476837,36.0,59.0,40.0,False,,354.7737435117166,[],"[960, 540]",ColorTask,5.0,11.0,,,HRV,HRV_0264,2022-11-30 20:05:23
,wl-rdm,19,118313,0.0-6.11-0.11,0.0,20.0,,,,,,,[],,,,,,87.9,0.0,u,0.0,True,646.3000001907349,39.0,59.0,40.0,False,,244.03620570984555,[],"[960, 540]",ColorTask,6.0,12.0,,,HRV,HRV_0264,2022-11-30 20:05:23
,wl-rdm,20,120699,0.0-6.12-0.12,0.0,21.0,,,,,,,[],,,,,,62.5,0.0,i,1.0,False,928.5,56.0,59.0,40.0,False,,396.07766216999426,[],"[960, 540]",ColorTask,5.0,13.0,,,HRV,HRV_0264,2022-11-30 20:05:23
,wl-rdm,21,123017,0.0-6.13-0.13,0.0,22.0,,,,,,,[],,,,,,50.0,0.0,i,1.0,False,979.5,59.0,59.0,40.0,False,,283.16355683021334,[],"[960, 540]",ColorTask,4.0,14.0,,,HRV,HRV_0264,2022-11-30 20:05:23
,wl-rdm,22,125386,0.0-6.14-0.14,0.0,23.0,,,,,,,[],,,,,,50.0,0.0,i,1.0,False,1094.5000002384186,66.0,59.0,40.0,False,,214.38778380426956,[],"[960, 540]",ColorTask,3.0,15.0,,,HRV,HRV_0264,2022-11-30 20:05:23
,wl-rdm,23,127790,0.0-6.15-0.15,0.0,24.0,,,,,,,[],,,,,,56.4,0.0,u,0.0,True,1027.0,62.0,59.0,40.0,False,,284.40793302248494,[],"[960, 540]",ColorTask,4.0,16.0,,,HRV,HRV_0264,2022-11-30 20:05:23
,wl-rdm,24,130208,0.0-6.16-0.16,0.0,25.0,,,,,,,[],,,,,,73.6,0.0,u,0.0,True,1142.3000001907349,69.0,59.0,40.0,False,,214.40520726335265,[],"[960, 540]",ColorTask,5.0,17.0,,,HRV,HRV_0264,2022-11-30 20:05:23
,wl-rdm,25,132260,0.0-6.17-0.17,0.0,26.0,,,,,,,[],,,,,,87.9,1.0,i,1.0,True,751.900000333786,45.0,59.0,40.0,False,,231.35379685836114,[],"[960, 540]",ColorTask,6.0,18.0,,,HRV,HRV_0264,2022-11-30 20:05:23
,wl-rdm,26,134663,0.0-6.18-0.18,0.0,27.0,,,,,,,[],,,,,,56.4,1.0,i,1.0,True,1066.4000000953674,64.0,59.0,40.0,False,,258.12297452235197,[],"[960, 540]",ColorTask,7.0,19.0,,,HRV,HRV_0264,2022-11-30 20:05:23
,wl-rdm,27,136915,0.0-6.19-0.19,0.0,28.0,,,,,,,[],,,,,,50.0,1.0,i,1.0,True,927.2000000476837,56.0,59.0,40.0,False,,242.24295616395233,[],"[960, 540]",ColorTask,8.0,20.0,,,HRV,HRV_0264,2022-11-30 20:05:23
,wl-rdm,28,139084,0.0-6.20-0.20,0.0,29.0,,,,,,,[],,,,,,87.9,0.0,u,0.0,True,776.9999997615814,47.0,59.0,40.0,False,,321.9881328948107,[],"[960, 540]",ColorTask,9.0,21.0,,,HRV,HRV_0264,2022-11-30 20:05:23
,wl-rdm,29,141386,0.0-6.21-0.21,0.0,30.0,,,,,,,[],,,,,,56.4,0.0,i,1.0,False,912.3999998569489,55.0,59.0,40.0,False,,308.7208837149684,[],"[960, 540]",ColorTask,8.0,22.0,,,HRV,HRV_0264,2022-11-30 20:05:23
,wl-rdm,30,143604,0.0-6.22-0.22,0.0,31.0,,,,,,,[],,,,,,53.2,1.0,i,1.0,True,935.0,56.0,59.0,40.0,False,,206.49571713443305,[],"[960, 540]",ColorTask,9.0,23.0,,,HRV,HRV_0264,2022-11-30 20:05:23
,wl-rdm,31,145808,0.0-6.23-0.23,0.0,32.0,,,,,,,[],,,,,,62.5,1.0,i,1.0,True,857.8999998569489,52.0,59.0,40.0,False,,278.63168438719464,[],"[960, 540]",ColorTask,10.0,24.0,,,HRV,HRV_0264,2022-11-30 20:05:23
,wl-rdm,32,147760,0.0-6.24-0.24,0.0,33.0,,,,,,,[],,,,,,50.0,1.0,i,1.0,True,641.7000000476837,39.0,59.0,40.0,False,,247.62158806671607,[],"[960, 540]",ColorTask,11.0,25.0,,,HRV,HRV_0264,2022-11-30 20:05:23
,wl-rdm,33,150279,0.0-6.25-0.25,0.0,34.0,,,,,,,[],,,,,,53.2,0.0,i,1.0,False,1199.7999999523163,72.0,59.0,40.0,False,,237.74003274203753,[],"[960, 540]",ColorTask,10.0,26.0,,,HRV,HRV_0264,2022-11-30 20:05:23
,wl-rdm,34,152365,0.0-6.26-0.26,0.0,35.0,,,,,,,[],,,,,,87.9,0.0,u,0.0,True,764.2999999523163,46.0,59.0,40.0,False,,249.50270978741543,[],"[960, 540]",ColorTask,11.0,27.0,,,HRV,HRV_0264,2022-11-30 20:05:23
,wl-rdm,35,154684,0.0-6.27-0.27,0.0,36.0,,,,,,,[],,,,,,56.4,1.0,i,1.0,True,945.1000001430511,57.0,59.0,40.0,False,,292.43450190483435,[],"[960, 540]",ColorTask,12.0,28.0,,,HRV,HRV_0264,2022-11-30 20:05:23
,wl-rdm,36,157102,0.0-6.28-0.28,0.0,37.0,,,,,,,[],,,,,,56.4,0.0,i,1.0,False,1026.6999998092651,62.0,59.0,40.0,False,,307.21909338887775,[],"[960, 540]",ColorTask,11.0,29.0,,,HRV,HRV_0264,2022-11-30 20:05:23
,wl-rdm,37,159104,0.0-6.29-0.29,0.0,38.0,,,,,,,[],,,,,,87.9,1.0,i,1.0,True,708.5,43.0,59.0,40.0,False,,228.49080141896843,[],"[960, 540]",ColorTask,12.0,30.0,,,HRV,HRV_0264,2022-11-30 20:05:23
,wl-rdm,38,161423,0.0-6.30-0.30,0.0,39.0,,,,,,,[],,,,,,56.4,1.0,u,0.0,False,1041.7000000476837,63.0,59.0,40.0,False,,208.85597131381434,[],"[960, 540]",ColorTask,11.0,31.0,,,HRV,HRV_0264,2022-11-30 20:05:23
,wl-rdm,39,163458,0.0-6.31-0.31,0.0,40.0,,,,,,,[],,,,,,50.0,1.0,i,1.0,True,758.599999666214,46.0,59.0,40.0,False,,210.4950987322965,[],"[960, 540]",ColorTask,12.0,32.0,,,HRV,HRV_0264,2022-11-30 20:05:23
,wl-rdm,40,165661,0.0-6.32-0.32,0.0,41.0,,,,,,,[],,,,,,53.2,0.0,i,1.0,False,843.5000002384186,51.0,59.0,40.0,False,,283.7090832464465,[],"[960, 540]",ColorTask,11.0,33.0,,,HRV,HRV_0264,2022-11-30 20:05:23
,wl-rdm,41,167829,0.0-6.33-0.33,0.0,42.0,,,,,,,[],,,,,,53.2,1.0,u,0.0,False,858.6999998092651,51.0,59.0,40.0,False,,249.60238978316897,[],"[960, 540]",ColorTask,10.0,34.0,,,HRV,HRV_0264,2022-11-30 20:05:23
,wl-rdm,42,170181,0.0-6.34-0.34,0.0,43.0,,,,,,,[],,,,,,53.2,0.0,i,1.0,False,899.5,54.0,59.0,40.0,False,,376.55355085494404,[],"[960, 540]",ColorTask,9.0,35.0,,,HRV,HRV_0264,2022-11-30 20:05:23
,wl-rdm,43,172651,0.0-6.35-0.35,0.0,44.0,,,,,,,[],,,,,,50.0,1.0,u,0.0,False,1112.5,67.0,59.0,40.0,False,,278.40976573569463,[],"[960, 540]",ColorTask,8.0,36.0,,,HRV,HRV_0264,2022-11-30 20:05:23
,wl-rdm,44,174737,0.0-6.36-0.36,0.0,45.0,,,,,,,[],,,,,,53.2,1.0,i,1.0,True,742.0000002384186,45.0,59.0,40.0,False,,268.76105963013583,[],"[960, 540]",ColorTask,9.0,37.0,,,HRV,HRV_0264,2022-11-30 20:05:23
,wl-rdm,45,177106,0.0-6.37-0.37,0.0,46.0,,,,,,,[],,,,,,73.6,0.0,u,0.0,True,1025.7999999523163,62.0,59.0,40.0,False,,253.2736142419329,[],"[960, 540]",ColorTask,10.0,38.0,,,HRV,HRV_0264,2022-11-30 20:05:23
,wl-rdm,46,179274,0.0-6.38-0.38,0.0,47.0,,,,,,,[],,,,,,50.0,1.0,i,1.0,True,879.5999999046326,53.0,59.0,40.0,False,,206.11400350868138,[],"[960, 540]",ColorTask,11.0,39.0,,,HRV,HRV_0264,2022-11-30 20:05:23
,wl-rdm,47,181777,0.0-6.39-0.39,0.0,48.0,,,,,,,[],,,,,,50.0,0.0,u,0.0,True,1059.0,64.0,59.0,40.0,False,,366.77001698931866,[],"[960, 540]",ColorTask,12.0,40.0,,,HRV,HRV_0264,2022-11-30 20:05:23
,wl-rdm,48,184046,0.0-6.40-0.40,0.0,49.0,,,,,,,[],,,,,,73.6,0.0,u,0.0,True,875.1999998092651,53.0,59.0,40.0,False,,314.55279067773864,[],"[960, 540]",ColorTask,13.0,41.0,,,HRV,HRV_0264,2022-11-30 20:05:23
,wl-rdm,49,186314,0.0-6.41-0.41,0.0,50.0,,,,,,,[],,,,,,56.4,1.0,u,0.0,False,928.8999998569489,56.0,59.0,40.0,False,,279.76889451468156,[],"[960, 540]",ColorTask,12.0,42.0,,,HRV,HRV_0264,2022-11-30 20:05:23
,wl-rdm,50,188484,0.0-6.42-0.42,0.0,51.0,,,,,,,[],,,,,,73.6,1.0,i,1.0,True,775.0999999046326,47.0,59.0,40.0,False,,329.1373051789482,[],"[960, 540]",ColorTask,13.0,43.0,,,HRV,HRV_0264,2022-11-30 20:05:23
,wl-rdm,51,190718,0.0-6.43-0.43,0.0,52.0,,,,,,,[],,,,,,56.4,0.0,i,1.0,False,842.0999999046326,51.0,59.0,40.0,False,,324.77260536752317,[],"[960, 540]",ColorTask,12.0,44.0,,,HRV,HRV_0264,2022-11-30 20:05:23
,wl-rdm,52,192705,0.0-6.44-0.44,0.0,53.0,,,,,,,[],,,,,,87.9,1.0,i,1.0,True,708.6000001430511,43.0,59.0,40.0,False,,203.87213935103517,[],"[960, 540]",ColorTask,13.0,45.0,,,HRV,HRV_0264,2022-11-30 20:05:23
,wl-rdm,53,195090,0.0-6.45-0.45,0.0,54.0,,,,,,,[],,,,,,53.2,1.0,i,1.0,True,1061.0999999046326,64.0,59.0,40.0,False,,261.972268537359,[],"[960, 540]",ColorTask,14.0,46.0,,,HRV,HRV_0264,2022-11-30 20:05:23
,wl-rdm,54,197292,0.0-6.46-0.46,0.0,55.0,,,,,,,[],,,,,,73.6,0.0,u,0.0,True,910.2999997138977,55.0,59.0,40.0,False,,207.2009022968097,[],"[960, 540]",ColorTask,15.0,47.0,,,HRV,HRV_0264,2022-11-30 20:05:23
,wl-rdm,55,199661,0.0-6.47-0.47,0.0,56.0,,,,,,,[],,,,,,50.0,1.0,u,0.0,False,1094.5,66.0,59.0,40.0,False,,206.8331939367543,[],"[960, 540]",ColorTask,14.0,48.0,,,HRV,HRV_0264,2022-11-30 20:05:23
,wl-rdm,56,202197,0.0-6.48-0.48,0.0,57.0,,,,,,,[],,,,,,62.5,0.0,i,1.0,False,1192.5999999046326,72.0,59.0,40.0,False,,274.98957904407746,[],"[960, 540]",ColorTask,13.0,49.0,,,HRV,HRV_0264,2022-11-30 20:05:23
,wl-rdm,57,204352,0.0-6.49-0.49,0.0,58.0,,,,,,,[],,,,,,50.0,1.0,i,1.0,True,809.5,49.0,59.0,40.0,False,,269.2328309568437,[],"[960, 540]",ColorTask,14.0,50.0,,,HRV,HRV_0264,2022-11-30 20:05:23
,wl-rdm,58,206736,0.0-6.50-0.50,0.0,59.0,,,,,,,[],,,,,,53.2,0.0,u,0.0,True,1077.0999999046326,65.0,59.0,40.0,False,,241.61083687069078,[],"[960, 540]",ColorTask,15.0,51.0,,,HRV,HRV_0264,2022-11-30 20:05:23
,wl-rdm,59,209155,0.0-6.51-0.51,0.0,60.0,,,,,,,[],,,,,,62.5,0.0,i,1.0,False,1142.7000000476837,68.0,59.0,40.0,False,,211.14520208127124,[],"[960, 540]",ColorTask,14.0,52.0,,,HRV,HRV_0264,2022-11-30 20:05:23
,wl-rdm,60,211407,0.0-6.52-0.52,0.0,61.0,,,,,,,[],,,,,,87.9,1.0,i,1.0,True,809.4000000953674,49.0,59.0,40.0,False,,360.8331981896251,[],"[960, 540]",ColorTask,15.0,53.0,,,HRV,HRV_0264,2022-11-30 20:05:23
,wl-rdm,61,213675,0.0-6.53-0.53,0.0,62.0,,,,,,,[],,,,,,73.6,0.0,u,0.0,True,879.5999999046326,53.0,59.0,40.0,False,,309.0419279968884,[],"[960, 540]",ColorTask,16.0,54.0,,,HRV,HRV_0264,2022-11-30 20:05:23
,wl-rdm,62,215894,0.0-6.54-0.54,0.0,63.0,,,,,,,[],,,,,,87.9,0.0,u,0.0,True,849.0999999046326,51.0,59.0,40.0,False,,314.2604455643177,[],"[960, 540]",ColorTask,17.0,55.0,,,HRV,HRV_0264,2022-11-30 20:05:23
,wl-rdm,63,218030,0.0-6.55-0.55,0.0,64.0,,,,,,,[],,,,,,73.6,1.0,i,1.0,True,859.7000000476837,52.0,59.0,40.0,False,,204.75927497304372,[],"[960, 540]",ColorTask,18.0,56.0,,,HRV,HRV_0264,2022-11-30 20:05:23
,wl-rdm,64,220249,0.0-6.56-0.56,0.0,65.0,,,,,,,[],,,,,,62.5,1.0,i,1.0,True,929.7999999523163,56.0,59.0,40.0,False,,228.40120494474846,[],"[960, 540]",ColorTask,19.0,57.0,,,HRV,HRV_0264,2022-11-30 20:05:23
,wl-rdm,65,222818,0.0-6.57-0.57,0.0,66.0,,,,,,,[],,,,,,53.2,0.0,i,1.0,False,1257.7000002861023,76.0,59.0,40.0,False,,225.4557965218977,[],"[960, 540]",ColorTask,18.0,58.0,,,HRV,HRV_0264,2022-11-30 20:05:23
,wl-rdm,66,225121,0.0-6.58-0.58,0.0,67.0,,,,,,,[],,,,,,62.5,0.0,u,0.0,True,1010.3000001907349,61.0,59.0,40.0,False,,226.3591449671651,[],"[960, 540]",ColorTask,19.0,59.0,,,HRV,HRV_0264,2022-11-30 20:05:23
,wl-rdm,67,227656,0.0-6.59-0.59,0.0,68.0,,,,,,,[],,,,,,56.4,1.0,u,0.0,False,1231.3999998569489,74.0,59.0,40.0,False,,230.72362834372288,[],"[960, 540]",ColorTask,18.0,60.0,,,HRV,HRV_0264,2022-11-30 20:05:23
,wl-rdm,68,230142,0.0-6.60-0.60,0.0,69.0,,,,,,,[],,,,,,73.6,0.0,u,0.0,True,1109.0999999046326,67.0,59.0,40.0,False,,309.77000011177375,[],"[960, 540]",ColorTask,19.0,61.0,,,HRV,HRV_0264,2022-11-30 20:05:23
,wl-rdm,69,232594,0.0-6.61-0.61,0.0,70.0,,,,,,,[],,,,,,73.6,0.0,u,0.0,True,1057.9000000953674,64.0,59.0,40.0,False,,307.68220348025824,[],"[960, 540]",ColorTask,20.0,62.0,,,HRV,HRV_0264,2022-11-30 20:05:23
,wl-rdm,70,235297,0.0-6.62-0.62,0.0,71.0,,,,,,,[],,,,,,53.2,0.0,i,1.0,False,1309.3999998569489,79.0,59.0,40.0,False,,300.83777609112815,[],"[960, 540]",ColorTask,19.0,63.0,,,HRV,HRV_0264,2022-11-30 20:05:23
,wl-rdm,71,237950,0.0-6.63-0.63,0.0,72.0,,,,,,,[],,,,,,62.5,0.0,u,0.0,True,1208.5999999046326,73.0,59.0,40.0,False,,374.951886533136,[],"[960, 540]",ColorTask,20.0,64.0,,,HRV,HRV_0264,2022-11-30 20:05:23
,wl-rdm,72,239986,0.0-6.64-0.64,0.0,73.0,,,,,,,[],,,,,,87.9,0.0,u,0.0,True,691.5999999046326,42.0,59.0,40.0,False,,276.2447205427744,[],"[960, 540]",ColorTask,21.0,65.0,,,HRV,HRV_0264,2022-11-30 20:05:23
,wl-rdm,73,242070,0.0-6.65-0.65,0.0,74.0,,,,,,,[],,,,,,62.5,1.0,i,1.0,True,782.0000002384186,47.0,59.0,40.0,False,,234.59657590661809,[],"[960, 540]",ColorTask,22.0,66.0,,,HRV,HRV_0264,2022-11-30 20:05:23
,wl-rdm,74,244306,0.0-6.66-0.66,0.0,75.0,,,,,,,[],,,,,,56.4,1.0,u,0.0,False,941.3999998569489,57.0,59.0,40.0,False,,230.85966181578067,[],"[960, 540]",ColorTask,21.0,67.0,,,HRV,HRV_0264,2022-11-30 20:05:23
,wl-rdm,75,246592,0.0-6.67-0.67,0.0,76.0,,,,,,,[],,,,,,50.0,0.0,i,1.0,False,876.3999998569489,53.0,59.0,40.0,False,,331.8238475986442,[],"[960, 540]",ColorTask,20.0,68.0,,,HRV,HRV_0264,2022-11-30 20:05:23
,wl-rdm,76,248761,0.0-6.68-0.68,0.0,77.0,,,,,,,[],,,,,,56.4,1.0,i,1.0,True,780.8000001907349,47.0,59.0,40.0,False,,325.29425905489967,[],"[960, 540]",ColorTask,21.0,69.0,,,HRV,HRV_0264,2022-11-30 20:05:23
,wl-rdm,77,250812,0.0-6.69-0.69,0.0,78.0,,,,,,,[],,,,,,53.2,1.0,i,1.0,True,742.8999998569489,45.0,59.0,40.0,False,,244.3441944125621,[],"[960, 540]",ColorTask,22.0,70.0,,,HRV,HRV_0264,2022-11-30 20:05:23
,wl-rdm,78,252966,0.0-6.70-0.70,0.0,79.0,,,,,,,[],,,,,,62.5,1.0,i,1.0,True,768.2000000476837,46.0,59.0,40.0,False,,301.27610983919385,[],"[960, 540]",ColorTask,23.0,71.0,,,HRV,HRV_0264,2022-11-30 20:05:23
,wl-rdm,79,255050,0.0-6.71-0.71,0.0,80.0,,,,,,,[],,,,,,87.9,1.0,i,1.0,True,661.7999999523163,40.0,59.0,40.0,False,,341.72388628386585,[],"[960, 540]",ColorTask,24.0,72.0,,,HRV,HRV_0264,2022-11-30 20:05:23
,wl-rdm,80,257222,0.0-6.72-0.72,0.0,81.0,,,,,,,[],,,,,,56.4,1.0,i,1.0,True,809.5,49.0,59.0,40.0,False,,296.27323933859634,[],"[960, 540]",ColorTask,25.0,73.0,,,HRV,HRV_0264,2022-11-30 20:05:23
,wl-rdm,81,259805,0.0-6.73-0.73,0.0,82.0,,,,,,,[],,,,,,53.2,0.0,u,0.0,True,1208.7000000476837,72.0,59.0,40.0,False,,304.44553108663047,[],"[960, 540]",ColorTask,26.0,74.0,,,HRV,HRV_0264,2022-11-30 20:05:23
,wl-rdm,82,262006,0.0-6.74-0.74,0.0,83.0,,,,,,,[],,,,,,53.2,1.0,u,0.0,False,747.3999998569489,45.0,59.0,40.0,False,,389.0327162075838,[],"[960, 540]",ColorTask,25.0,75.0,,,HRV,HRV_0264,2022-11-30 20:05:23
,wl-rdm,83,264559,0.0-6.75-0.75,0.0,84.0,,,,,,,[],,,,,,62.5,0.0,i,1.0,False,1175.7999999523163,71.0,59.0,40.0,False,,288.54574637227347,[],"[960, 540]",ColorTask,24.0,76.0,,,HRV,HRV_0264,2022-11-30 20:05:23
,wl-rdm,84,266662,0.0-6.76-0.76,0.0,85.0,,,,,,,[],,,,,,73.6,1.0,i,1.0,True,783.2999999523163,47.0,59.0,40.0,False,,243.06840594615826,[],"[960, 540]",ColorTask,25.0,77.0,,,HRV,HRV_0264,2022-11-30 20:05:23
,wl-rdm,85,269247,0.0-6.77-0.77,0.0,86.0,,,,,,,[],,,,,,50.0,0.0,u,0.0,True,1261.2999999523163,76.0,59.0,40.0,False,,244.75620097157073,[],"[960, 540]",ColorTask,26.0,78.0,,,HRV,HRV_0264,2022-11-30 20:05:23
,wl-rdm,86,271550,0.0-6.78-0.78,0.0,87.0,,,,,,,[],,,,,,73.6,1.0,u,0.0,False,908.5999999046326,55.0,59.0,40.0,False,,333.08353957828353,[],"[960, 540]",ColorTask,25.0,79.0,,,HRV,HRV_0264,2022-11-30 20:05:23
,wl-rdm,87,273953,0.0-6.79-0.79,0.0,88.0,,,,,,,[],,,,,,62.5,1.0,i,1.0,True,1009.0,61.0,59.0,40.0,False,,317.9496184386679,[],"[960, 540]",ColorTask,26.0,80.0,,,HRV,HRV_0264,2022-11-30 20:05:23
,wl-rdm,88,276605,0.0-6.80-0.80,0.0,89.0,,,,,,,[],,,,,,56.4,0.0,i,1.0,False,1209.8999998569489,73.0,59.0,40.0,False,,372.6479370648133,[],"[960, 540]",ColorTask,25.0,81.0,,,HRV,HRV_0264,2022-11-30 20:05:23
,wl-rdm,89,278974,0.0-6.81-0.81,0.0,90.0,,,,,,,[],,,,,,50.0,1.0,i,1.0,True,975.1000001430511,59.0,59.0,40.0,False,,320.8374351755066,[],"[960, 540]",ColorTask,26.0,82.0,,,HRV,HRV_0264,2022-11-30 20:05:23
,wl-rdm,90,281293,0.0-6.82-0.82,0.0,91.0,,,,,,,[],,,,,,62.5,0.0,u,0.0,True,959.7000000476837,58.0,59.0,40.0,False,,299.51341181304946,[],"[960, 540]",ColorTask,27.0,83.0,,,HRV,HRV_0264,2022-11-30 20:05:23
,wl-rdm,91,283429,0.0-6.83-0.83,0.0,92.0,,,,,,,[],,,,,,87.9,1.0,i,1.0,True,691.8000001907349,42.0,59.0,40.0,False,,350.94362990455943,[],"[960, 540]",ColorTask,28.0,84.0,,,HRV,HRV_0264,2022-11-30 20:05:23
,wl-rdm,92,285447,0.0-6.84-0.84,0.0,93.0,,,,,,,[],,,,,,62.5,1.0,i,1.0,True,748.0,45.0,59.0,40.0,False,,206.36344244634654,[],"[960, 540]",ColorTask,29.0,85.0,,,HRV,HRV_0264,2022-11-30 20:05:23
,wl-rdm,93,287566,0.0-6.85-0.85,0.0,94.0,,,,,,,[],,,,,,62.5,1.0,i,1.0,True,826.0,50.0,59.0,40.0,False,,201.79130217244264,[],"[960, 540]",ColorTask,30.0,86.0,,,HRV,HRV_0264,2022-11-30 20:05:23
,wl-rdm,94,289902,0.0-6.86-0.86,0.0,95.0,,,,,,,[],,,,,,73.6,1.0,i,1.0,True,943.0,57.0,59.0,40.0,False,,318.7272933798639,[],"[960, 540]",ColorTask,31.0,87.0,,,HRV,HRV_0264,2022-11-30 20:05:23
,wl-rdm,95,291937,0.0-6.87-0.87,0.0,96.0,,,,,,,[],,,,,,62.5,0.0,u,0.0,True,710.4000000953674,43.0,59.0,40.0,False,,236.20715422589117,[],"[960, 540]",ColorTask,32.0,88.0,,,HRV,HRV_0264,2022-11-30 20:05:23
,wl-rdm,96,294456,0.0-6.88-0.88,0.0,97.0,,,,,,,[],,,,,,73.6,1.0,i,1.0,True,1130.9999997615814,68.0,59.0,40.0,False,,330.906669684411,[],"[960, 540]",ColorTask,33.0,89.0,,,HRV,HRV_0264,2022-11-30 20:05:23
,wl-rdm,97,296492,0.0-6.89-0.89,0.0,98.0,,,,,,,[],,,,,,50.0,0.0,i,1.0,False,760.9999997615814,46.0,59.0,40.0,False,,202.24787597841734,[],"[960, 540]",ColorTask,32.0,90.0,,,HRV,HRV_0264,2022-11-30 20:05:23
,wl-rdm,98,298577,0.0-6.90-0.90,0.0,99.0,,,,,,,[],,,,,,87.9,0.0,u,0.0,True,758.5000002384186,45.0,59.0,40.0,False,,255.505080498884,[],"[960, 540]",ColorTask,33.0,91.0,,,HRV,HRV_0264,2022-11-30 20:05:23
,wl-rdm,99,300562,0.0-6.91-0.91,0.0,100.0,,,,,,,[],,,,,,87.9,0.0,u,0.0,True,625.0,38.0,59.0,40.0,False,,296.9202800925518,[],"[960, 540]",ColorTask,34.0,92.0,,,HRV,HRV_0264,2022-11-30 20:05:23
,wl-rdm,100,302814,0.0-6.92-0.92,0.0,101.0,,,,,,,[],,,,,,53.2,0.0,u,0.0,True,843.7999997138977,51.0,59.0,40.0,False,,343.90476712570603,[],"[960, 540]",ColorTask,35.0,93.0,,,HRV,HRV_0264,2022-11-30 20:05:23
,wl-rdm,101,305033,0.0-6.93-0.93,0.0,102.0,,,,,,,[],,,,,,73.6,1.0,i,1.0,True,912.1000001430511,55.0,59.0,40.0,False,,245.84555135315503,[],"[960, 540]",ColorTask,36.0,94.0,,,HRV,HRV_0264,2022-11-30 20:05:23
,wl-rdm,102,307452,0.0-6.94-0.94,0.0,103.0,,,,,,,[],,,,,,50.0,0.0,i,1.0,False,1010.2000000476837,61.0,59.0,40.0,False,,337.7469924694865,[],"[960, 540]",ColorTask,35.0,95.0,,,HRV,HRV_0264,2022-11-30 20:05:23
,wl-rdm,103,309604,0.0-6.95-0.95,0.0,104.0,,,,,,,[],,,,,,56.4,0.0,u,0.0,True,874.9000000953674,53.0,59.0,40.0,False,,214.1419046871476,[],"[960, 540]",ColorTask,36.0,96.0,,,HRV,HRV_0264,2022-11-30 20:05:23
,wl-rdm,104,311775,0.0-6.96-0.96,0.0,105.0,,,,,,,[],,,,,,53.2,1.0,i,1.0,True,826.2000000476837,50.0,59.0,40.0,False,,282.34335695187934,[],"[960, 540]",ColorTask,37.0,97.0,,,HRV,HRV_0264,2022-11-30 20:05:23
,wl-rdm,105,313742,0.0-6.97-0.97,0.0,106.0,,,,,,,[],,,,,,87.9,1.0,i,1.0,True,610.7000000476837,37.0,59.0,40.0,False,,274.20917073773467,[],"[960, 540]",ColorTask,38.0,98.0,,,HRV,HRV_0264,2022-11-30 20:05:23
,wl-rdm,106,316210,0.0-6.98-0.98,0.0,107.0,,,,,,,[],,,,,,53.2,1.0,i,1.0,True,1041.7999999523163,63.0,59.0,40.0,False,,348.9724224092695,[],"[960, 540]",ColorTask,39.0,99.0,,,HRV,HRV_0264,2022-11-30 20:05:23
,wl-rdm,107,318380,0.0-6.99-0.99,0.0,108.0,,,,,,,[],,,,,,56.4,1.0,u,0.0,False,827.1999998092651,50.0,59.0,40.0,False,,281.51137731914304,[],"[960, 540]",ColorTask,38.0,100.0,,,HRV,HRV_0264,2022-11-30 20:05:23
,wl-rdm,108,320666,0.0-6.100-0.100,0.0,109.0,,,,,,,[],,,,,,62.5,0.0,u,0.0,True,979.5999999046326,59.0,59.0,40.0,False,,238.03998667442954,[],"[960, 540]",ColorTask,39.0,101.0,,,HRV,HRV_0264,2022-11-30 20:05:23
,wl-rdm,109,323335,0.0-6.101-0.101,0.0,110.0,,,,,,,[],,,,,,62.5,1.0,u,0.0,False,1232.4000000953674,74.0,59.0,40.0,False,,351.44936676219857,[],"[960, 540]",ColorTask,38.0,102.0,,,HRV,HRV_0264,2022-11-30 20:05:23
,wl-rdm,110,325704,0.0-6.102-0.102,0.0,111.0,,,,,,,[],,,,,,50.0,0.0,u,0.0,True,1082.2000000476837,65.0,59.0,40.0,False,,209.43694291212418,[],"[960, 540]",ColorTask,39.0,103.0,,,HRV,HRV_0264,2022-11-30 20:05:23
,wl-rdm,111,328290,0.0-6.103-0.103,0.0,112.0,,,,,,,[],,,,,,50.0,1.0,u,0.0,False,1142.0000002384186,69.0,59.0,40.0,False,,353.07829269277113,[],"[960, 540]",ColorTask,38.0,104.0,,,HRV,HRV_0264,2022-11-30 20:05:23
,wl-rdm,112,330643,0.0-6.104-0.104,0.0,113.0,,,,,,,[],,,,,,56.4,0.0,i,1.0,False,1008.2999999523163,61.0,59.0,40.0,False,,264.65358319367306,[],"[960, 540]",ColorTask,37.0,105.0,,,HRV,HRV_0264,2022-11-30 20:05:23
,wl-rdm,113,332878,0.0-6.105-0.105,0.0,114.0,,,,,,,[],,,,,,62.5,1.0,i,1.0,True,941.0999999046326,57.0,59.0,40.0,False,,220.06541656636992,[],"[960, 540]",ColorTask,38.0,106.0,,,HRV,HRV_0264,2022-11-30 20:05:23
,wl-rdm,114,335180,0.0-6.106-0.106,0.0,115.0,,,,,,,[],,,,,,56.4,0.0,i,1.0,False,994.1000001430511,60.0,59.0,40.0,False,,246.1949652272746,[],"[960, 540]",ColorTask,37.0,107.0,,,HRV,HRV_0264,2022-11-30 20:05:23
,wl-rdm,115,337167,0.0-6.107-0.107,0.0,116.0,,,,,,,[],,,,,,73.6,0.0,u,0.0,True,693.7999999523163,42.0,59.0,40.0,False,,231.0371398485774,[],"[960, 540]",ColorTask,38.0,108.0,,,HRV,HRV_0264,2022-11-30 20:05:23
,wl-html-keyboard-response,116,367302,0.0-7.0-0.0,1.0,117.0,,,,,,,,28125.299999952316,1.0,0,,,,,,,,,,,,,,,,,,,,,,HRV,HRV_0264,2022-11-30 20:05:23
,wl-rdm,117,369781,0.0-8.0-0.0,1.0,118.0,,,,,,,[],,,,,,53.2,1.0,u,0.0,False,1050.400000333786,63.0,59.0,40.0,False,,376.78666148958985,[],"[960, 540]",ColorTask,37.0,1.0,,,HRV,HRV_0264,2022-11-30 20:05:23
,wl-rdm,118,372100,0.0-8.1-0.1,1.0,119.0,,,,,,,[],,,,,,50.0,1.0,u,0.0,False,958.6999998092651,58.0,59.0,40.0,False,,281.39753677035435,[],"[960, 540]",ColorTask,36.0,2.0,,,HRV,HRV_0264,2022-11-30 20:05:23
,wl-rdm,119,374519,0.0-8.2-0.2,1.0,120.0,,,,,,,[],,,,,,62.5,0.0,i,1.0,False,1098.3999998569489,66.0,59.0,40.0,False,,235.30242534695327,[],"[960, 540]",ColorTask,35.0,3.0,,,HRV,HRV_0264,2022-11-30 20:05:23
,wl-rdm,120,376822,0.0-8.3-0.3,1.0,121.0,,,,,,,[],,,,,,56.4,0.0,i,1.0,False,983.6000001430511,59.0,59.0,40.0,False,,260.14912398291165,[],"[960, 540]",ColorTask,34.0,4.0,,,HRV,HRV_0264,2022-11-30 20:05:23
,wl-rdm,121,379007,0.0-8.4-0.4,1.0,122.0,,,,,,,[],,,,,,56.4,0.0,u,0.0,True,909.0000002384186,55.0,59.0,40.0,False,,210.3933881835691,[],"[960, 540]",ColorTask,35.0,5.0,,,HRV,HRV_0264,2022-11-30 20:05:23
,wl-rdm,122,381343,0.0-8.5-0.5,1.0,123.0,,,,,,,[],,,,,,50.0,1.0,i,1.0,True,992.1000001430511,60.0,59.0,40.0,False,,279.0816058900934,[],"[960, 540]",ColorTask,36.0,6.0,,,HRV,HRV_0264,2022-11-30 20:05:23
,wl-rdm,123,383712,0.0-8.6-0.6,1.0,124.0,,,,,,,[],,,,,,50.0,0.0,i,1.0,False,987.7000000476837,60.0,59.0,40.0,False,,294.4050872898074,[],"[960, 540]",ColorTask,35.0,7.0,,,HRV,HRV_0264,2022-11-30 20:05:23
,wl-rdm,124,386048,0.0-8.7-0.7,1.0,125.0,,,,,,,[],,,,,,50.0,1.0,u,0.0,False,898.400000333786,54.0,59.0,40.0,False,,364.4367646807354,[],"[960, 540]",ColorTask,34.0,8.0,,,HRV,HRV_0264,2022-11-30 20:05:23
,wl-rdm,125,388150,0.0-8.8-0.8,1.0,126.0,,,,,,,[],,,,,,50.0,1.0,i,1.0,True,752.5000002384186,45.0,59.0,40.0,False,,273.37591070960605,[],"[960, 540]",ColorTask,35.0,9.0,,,HRV,HRV_0264,2022-11-30 20:05:23
,wl-rdm,126,390118,0.0-8.9-0.9,1.0,127.0,,,,,,,[],,,,,,87.9,1.0,i,1.0,True,614.2999999523163,37.0,59.0,40.0,False,,293.77162517661634,[],"[960, 540]",ColorTask,36.0,10.0,,,HRV,HRV_0264,2022-11-30 20:05:23
,wl-rdm,127,392038,0.0-8.10-0.10,1.0,128.0,,,,,,,[],,,,,,87.9,1.0,i,1.0,True,561.7999999523163,34.0,59.0,40.0,False,,274.6372273936102,[],"[960, 540]",ColorTask,37.0,11.0,,,HRV,HRV_0264,2022-11-30 20:05:23
,wl-rdm,128,394539,0.0-8.11-0.11,1.0,129.0,,,,,,,[],,,,,,50.0,0.0,u,0.0,True,1194.2999999523163,72.0,59.0,40.0,False,,241.48846228534387,[],"[960, 540]",ColorTask,38.0,12.0,,,HRV,HRV_0264,2022-11-30 20:05:23
,wl-rdm,129,396726,0.0-8.12-0.12,1.0,130.0,,,,,,,[],,,,,,73.6,0.0,u,0.0,True,800.0999999046326,48.0,59.0,40.0,False,,324.008713993292,[],"[960, 540]",ColorTask,39.0,13.0,,,HRV,HRV_0264,2022-11-30 20:05:23
,wl-rdm,130,399528,0.0-8.13-0.13,1.0,131.0,,,,,,,[],,,,,,56.4,0.0,i,1.0,False,1498.0,89.0,59.0,40.0,False,,250.06756618993552,[],"[960, 540]",ColorTask,38.0,14.0,,,HRV,HRV_0264,2022-11-30 20:05:23
,wl-rdm,131,401564,0.0-8.14-0.14,1.0,132.0,,,,,,,[],,,,,,87.9,1.0,i,1.0,True,710.9000000953674,43.0,59.0,40.0,False,,263.2378589378147,[],"[960, 540]",ColorTask,39.0,15.0,,,HRV,HRV_0264,2022-11-30 20:05:23
,wl-rdm,132,403983,0.0-8.15-0.15,1.0,133.0,,,,,,,[],,,,,,53.2,1.0,u,0.0,False,1125.2000000476837,68.0,59.0,40.0,False,,227.4114755115895,[],"[960, 540]",ColorTask,38.0,16.0,,,HRV,HRV_0264,2022-11-30 20:05:23
,wl-rdm,133,406185,0.0-8.16-0.16,1.0,134.0,,,,,,,[],,,,,,73.6,0.0,u,0.0,True,896.5999999046326,54.0,59.0,40.0,False,,250.29066708182285,[],"[960, 540]",ColorTask,39.0,17.0,,,HRV,HRV_0264,2022-11-30 20:05:23
,wl-rdm,134,408754,0.0-8.17-0.17,1.0,135.0,,,,,,,[],,,,,,62.5,1.0,i,1.0,True,1108.9000000953674,67.0,59.0,40.0,False,,371.61460733547415,[],"[960, 540]",ColorTask,40.0,18.0,,,HRV,HRV_0264,2022-11-30 20:05:23
,wl-rdm,135,410906,0.0-8.18-0.18,1.0,136.0,,,,,,,[],,,,,,87.9,1.0,i,1.0,True,729.9000000953674,44.0,59.0,40.0,False,,337.55408389686073,[],"[960, 540]",ColorTask,41.0,19.0,,,HRV,HRV_0264,2022-11-30 20:05:23
,wl-rdm,136,413341,0.0-8.19-0.19,1.0,137.0,,,,,,,[],,,,,,62.5,1.0,u,0.0,False,1044.0,63.0,59.0,40.0,False,,329.40824927255017,[],"[960, 540]",ColorTask,40.0,20.0,,,HRV,HRV_0264,2022-11-30 20:05:23
,wl-rdm,137,415393,0.0-8.20-0.20,1.0,138.0,,,,,,,[],,,,,,56.4,1.0,i,1.0,True,692.2000000476837,42.0,59.0,40.0,False,,285.6325247270487,[],"[960, 540]",ColorTask,41.0,21.0,,,HRV,HRV_0264,2022-11-30 20:05:23
,wl-rdm,138,417947,0.0-8.21-0.21,1.0,139.0,,,,,,,[],,,,,,50.0,1.0,u,0.0,False,1212.0,73.0,59.0,40.0,False,,281.7141148507479,[],"[960, 540]",ColorTask,40.0,22.0,,,HRV,HRV_0264,2022-11-30 20:05:23
,wl-rdm,139,420164,0.0-8.22-0.22,1.0,140.0,,,,,,,[],,,,,,73.6,0.0,u,0.0,True,783.5000002384186,47.0,59.0,40.0,False,,377.2892910640594,[],"[960, 540]",ColorTask,41.0,23.0,,,HRV,HRV_0264,2022-11-30 20:05:23
,wl-rdm,140,422418,0.0-8.23-0.23,1.0,141.0,,,,,,,[],,,,,,87.9,0.0,u,0.0,True,775.1000001430511,47.0,59.0,40.0,False,,385.6915886307414,[],"[960, 540]",ColorTask,42.0,24.0,,,HRV,HRV_0264,2022-11-30 20:05:23
,wl-rdm,141,424585,0.0-8.24-0.24,1.0,142.0,,,,,,,[],,,,,,73.6,0.0,u,0.0,True,846.3000001907349,51.0,59.0,40.0,False,,250.6140592576209,[],"[960, 540]",ColorTask,43.0,25.0,,,HRV,HRV_0264,2022-11-30 20:05:23
,wl-rdm,142,427372,0.0-8.25-0.25,1.0,143.0,,,,,,,[],,,,,,73.6,0.0,u,0.0,True,1378.2999999523163,83.0,59.0,40.0,False,,314.72352730969914,[],"[960, 540]",ColorTask,44.0,26.0,,,HRV,HRV_0264,2022-11-30 20:05:23
,wl-rdm,143,429808,0.0-8.26-0.26,1.0,144.0,,,,,,,[],,,,,,53.2,0.0,u,0.0,True,1009.4999997615814,61.0,59.0,40.0,False,,346.86609757605515,[],"[960, 540]",ColorTask,45.0,27.0,,,HRV,HRV_0264,2022-11-30 20:05:23
,wl-rdm,144,432093,0.0-8.27-0.27,1.0,145.0,,,,,,,[],,,,,,50.0,0.0,i,1.0,False,977.2999999523163,59.0,59.0,40.0,False,,229.58790309007557,[],"[960, 540]",ColorTask,44.0,28.0,,,HRV,HRV_0264,2022-11-30 20:05:23
,wl-rdm,145,434362,0.0-8.28-0.28,1.0,146.0,,,,,,,[],,,,,,62.5,0.0,i,1.0,False,995.8999998569489,60.0,59.0,40.0,False,,205.37907145979895,[],"[960, 540]",ColorTask,43.0,29.0,,,HRV,HRV_0264,2022-11-30 20:05:23
,wl-rdm,146,436498,0.0-8.29-0.29,1.0,147.0,,,,,,,[],,,,,,53.2,1.0,i,1.0,True,858.2000002861023,52.0,59.0,40.0,False,,208.4499835555527,[],"[960, 540]",ColorTask,44.0,30.0,,,HRV,HRV_0264,2022-11-30 20:05:23
,wl-rdm,147,439067,0.0-8.30-0.30,1.0,148.0,,,,,,,[],,,,,,62.5,1.0,i,1.0,True,1208.2000000476837,73.0,59.0,40.0,False,,272.2040362570385,[],"[960, 540]",ColorTask,45.0,31.0,,,HRV,HRV_0264,2022-11-30 20:05:23
,wl-rdm,148,441235,0.0-8.31-0.31,1.0,149.0,,,,,,,[],,,,,,53.2,0.0,i,1.0,False,825.5999999046326,50.0,59.0,40.0,False,,267.4200351437162,[],"[960, 540]",ColorTask,44.0,32.0,,,HRV,HRV_0264,2022-11-30 20:05:23
,wl-rdm,149,443457,0.0-8.32-0.32,1.0,150.0,,,,,,,[],,,,,,62.5,0.0,u,0.0,True,892.5,54.0,59.0,40.0,False,,257.6386385908797,[],"[960, 540]",ColorTask,45.0,33.0,,,HRV,HRV_0264,2022-11-30 20:05:23
,wl-rdm,150,445475,0.0-8.33-0.33,1.0,151.0,,,,,,,[],,,,,,87.9,0.0,u,0.0,True,615.0000002384186,38.0,59.0,40.0,False,,327.8564503189092,[],"[960, 540]",ColorTask,46.0,34.0,,,HRV,HRV_0264,2022-11-30 20:05:23
,wl-rdm,151,447627,0.0-8.34-0.34,1.0,152.0,,,,,,,[],,,,,,73.6,1.0,i,1.0,True,746.0999999046326,45.0,59.0,40.0,False,,332.660525047974,[],"[960, 540]",ColorTask,47.0,35.0,,,HRV,HRV_0264,2022-11-30 20:05:23
,wl-rdm,152,450029,0.0-8.35-0.35,1.0,153.0,,,,,,,[],,,,,,56.4,1.0,i,1.0,True,1093.2999999523163,66.0,59.0,40.0,False,,244.41921025375424,[],"[960, 540]",ColorTask,48.0,36.0,,,HRV,HRV_0264,2022-11-30 20:05:23
,wl-rdm,153,452148,0.0-8.36-0.36,1.0,154.0,,,,,,,[],,,,,,50.0,0.0,i,1.0,False,776.6000001430511,47.0,59.0,40.0,False,,264.0479999040159,[],"[960, 540]",ColorTask,47.0,37.0,,,HRV,HRV_0264,2022-11-30 20:05:23
,wl-rdm,154,454583,0.0-8.37-0.37,1.0,155.0,,,,,,,[],,,,,,53.2,0.0,i,1.0,False,1131.5000002384186,68.0,59.0,40.0,False,,241.85979730745316,[],"[960, 540]",ColorTask,46.0,38.0,,,HRV,HRV_0264,2022-11-30 20:05:23
,wl-rdm,155,456735,0.0-8.38-0.38,1.0,156.0,,,,,,,[],,,,,,73.6,1.0,i,1.0,True,761.7000000476837,46.0,59.0,40.0,False,,326.5967638057187,[],"[960, 540]",ColorTask,47.0,39.0,,,HRV,HRV_0264,2022-11-30 20:05:23
,wl-rdm,156,458772,0.0-8.39-0.39,1.0,157.0,,,,,,,[],,,,,,62.5,1.0,i,1.0,True,758.5999999046326,46.0,59.0,40.0,False,,215.880628510464,[],"[960, 540]",ColorTask,48.0,40.0,,,HRV,HRV_0264,2022-11-30 20:05:23
,wl-rdm,157,461241,0.0-8.40-0.40,1.0,158.0,,,,,,,[],,,,,,56.4,0.0,i,1.0,False,1082.4000000953674,65.0,59.0,40.0,False,,305.4792857788787,[],"[960, 540]",ColorTask,47.0,41.0,,,HRV,HRV_0264,2022-11-30 20:05:23
,wl-rdm,158,463710,0.0-8.41-0.41,1.0,159.0,,,,,,,[],,,,,,50.0,1.0,i,1.0,True,1143.8000001907349,69.0,59.0,40.0,False,,258.67552323789505,[],"[960, 540]",ColorTask,48.0,42.0,,,HRV,HRV_0264,2022-11-30 20:05:23
,wl-rdm,159,465811,0.0-8.42-0.42,1.0,160.0,,,,,,,[],,,,,,62.5,0.0,u,0.0,True,725.5,44.0,59.0,40.0,False,,310.6796091783675,[],"[960, 540]",ColorTask,49.0,43.0,,,HRV,HRV_0264,2022-11-30 20:05:23
,wl-rdm,160,467982,0.0-8.43-0.43,1.0,161.0,,,,,,,[],,,,,,87.9,1.0,i,1.0,True,760.5000002384186,46.0,59.0,40.0,False,,336.70515027170563,[],"[960, 540]",ColorTask,50.0,44.0,,,HRV,HRV_0264,2022-11-30 20:05:23
,wl-rdm,161,470349,0.0-8.44-0.44,1.0,162.0,,,,,,,[],,,,,,62.5,1.0,i,1.0,True,1058.8000001907349,64.0,59.0,40.0,False,,234.8399663845909,[],"[960, 540]",ColorTask,51.0,45.0,,,HRV,HRV_0264,2022-11-30 20:05:23
,wl-rdm,162,472669,0.0-8.45-0.45,1.0,163.0,,,,,,,[],,,,,,73.6,1.0,i,1.0,True,996.1000001430511,60.0,59.0,40.0,False,,247.30924755864092,[],"[960, 540]",ColorTask,52.0,46.0,,,HRV,HRV_0264,2022-11-30 20:05:23
,wl-rdm,163,475054,0.0-8.46-0.46,1.0,164.0,,,,,,,[],,,,,,53.2,1.0,u,0.0,False,977.0,59.0,59.0,40.0,False,,327.0807138114517,[],"[960, 540]",ColorTask,51.0,47.0,,,HRV,HRV_0264,2022-11-30 20:05:23
,wl-rdm,164,477222,0.0-8.47-0.47,1.0,165.0,,,,,,,[],,,,,,73.6,0.0,u,0.0,True,749.4999997615814,45.0,59.0,40.0,False,,366.6966281008346,[],"[960, 540]",ColorTask,52.0,48.0,,,HRV,HRV_0264,2022-11-30 20:05:23
,wl-rdm,165,479825,0.0-8.48-0.48,1.0,166.0,,,,,,,[],,,,,,50.0,1.0,u,0.0,False,1242.5,75.0,59.0,40.0,False,,299.93220898798313,[],"[960, 540]",ColorTask,51.0,49.0,,,HRV,HRV_0264,2022-11-30 20:05:23
,wl-rdm,166,481944,0.0-8.49-0.49,1.0,167.0,,,,,,,[],,,,,,87.9,0.0,u,0.0,True,831.2000000476837,50.0,59.0,40.0,False,,222.85533086272244,[],"[960, 540]",ColorTask,52.0,50.0,,,HRV,HRV_0264,2022-11-30 20:05:23
,wl-rdm,167,484145,0.0-8.50-0.50,1.0,168.0,,,,,,,[],,,,,,87.9,0.0,u,0.0,True,724.5,44.0,59.0,40.0,False,,387.6026024792134,[],"[960, 540]",ColorTask,53.0,51.0,,,HRV,HRV_0264,2022-11-30 20:05:23
,wl-rdm,168,486732,0.0-8.51-0.51,1.0,169.0,,,,,,,[],,,,,,53.2,0.0,u,0.0,True,1144.2999999523163,69.0,59.0,40.0,False,,378.911152986811,[],"[960, 540]",ColorTask,54.0,52.0,,,HRV,HRV_0264,2022-11-30 20:05:23
,wl-rdm,169,489034,0.0-8.52-0.52,1.0,170.0,,,,,,,[],,,,,,50.0,0.0,u,0.0,True,961.7999997138977,58.0,59.0,40.0,False,,281.79772999399705,[],"[960, 540]",ColorTask,55.0,53.0,,,HRV,HRV_0264,2022-11-30 20:05:23
,wl-rdm,170,491754,0.0-8.53-0.53,1.0,171.0,,,,,,,[],,,,,,56.4,0.0,u,0.0,True,1347.0999999046326,81.0,59.0,40.0,False,,302.4040757253942,[],"[960, 540]",ColorTask,56.0,54.0,,,HRV,HRV_0264,2022-11-30 20:05:23
,wl-rdm,171,493922,0.0-8.54-0.54,1.0,172.0,,,,,,,[],,,,,,73.6,1.0,i,1.0,True,741.3999998569489,45.0,59.0,40.0,False,,346.82379202363796,[],"[960, 540]",ColorTask,57.0,55.0,,,HRV,HRV_0264,2022-11-30 20:05:23
,wl-rdm,172,495941,0.0-8.55-0.55,1.0,173.0,,,,,,,[],,,,,,62.5,1.0,i,1.0,True,617.7000000476837,37.0,59.0,40.0,False,,340.9271822773719,[],"[960, 540]",ColorTask,58.0,56.0,,,HRV,HRV_0264,2022-11-30 20:05:23
,wl-rdm,173,498376,0.0-8.56-0.56,1.0,174.0,,,,,,,[],,,,,,53.2,0.0,i,1.0,False,997.2000000476837,60.0,59.0,40.0,False,,352.29114578922344,[],"[960, 540]",ColorTask,57.0,57.0,,,HRV,HRV_0264,2022-11-30 20:05:23
,wl-rdm,174,500529,0.0-8.57-0.57,1.0,175.0,,,,,,,[],,,,,,56.4,1.0,i,1.0,True,875.5,53.0,59.0,40.0,False,,205.19323596743578,[],"[960, 540]",ColorTask,58.0,58.0,,,HRV,HRV_0264,2022-11-30 20:05:23
,wl-rdm,175,502632,0.0-8.58-0.58,1.0,176.0,,,,,,,[],,,,,,87.9,1.0,i,1.0,True,816.4000000953674,49.0,59.0,40.0,False,,204.4045705263514,[],"[960, 540]",ColorTask,59.0,59.0,,,HRV,HRV_0264,2022-11-30 20:05:23
,wl-rdm,176,505100,0.0-8.59-0.59,1.0,177.0,,,,,,,[],,,,,,62.5,1.0,i,1.0,True,1144.5999999046326,69.0,59.0,40.0,False,,248.90249675011978,[],"[960, 540]",ColorTask,60.0,60.0,,,HRV,HRV_0264,2022-11-30 20:05:23
,wl-rdm,177,507303,0.0-8.60-0.60,1.0,178.0,,,,,,,[],,,,,,87.9,0.0,u,0.0,True,861.2000000476837,52.0,59.0,40.0,False,,258.87322819888664,[],"[960, 540]",ColorTask,61.0,61.0,,,HRV,HRV_0264,2022-11-30 20:05:23
,wl-rdm,178,509304,0.0-8.61-0.61,1.0,179.0,,,,,,,[],,,,,,87.9,0.0,u,0.0,True,646.6000001430511,39.0,59.0,40.0,False,,288.56381535188814,[],"[960, 540]",ColorTask,62.0,62.0,,,HRV,HRV_0264,2022-11-30 20:05:23
,wl-rdm,179,511773,0.0-8.62-0.62,1.0,180.0,,,,,,,[],,,,,,56.4,1.0,i,1.0,True,1176.5999999046326,71.0,59.0,40.0,False,,225.86062208103763,[],"[960, 540]",ColorTask,63.0,63.0,,,HRV,HRV_0264,2022-11-30 20:05:23
,wl-rdm,180,513709,0.0-8.63-0.63,1.0,181.0,,,,,,,[],,,,,,87.9,1.0,i,1.0,True,627.6999998092651,38.0,59.0,40.0,False,,224.75603058840613,[],"[960, 540]",ColorTask,64.0,64.0,,,HRV,HRV_0264,2022-11-30 20:05:23
,wl-rdm,181,515777,0.0-8.64-0.64,1.0,182.0,,,,,,,[],,,,,,50.0,0.0,i,1.0,False,640.9000000953674,39.0,59.0,40.0,False,,337.57952066666286,[],"[960, 540]",ColorTask,63.0,65.0,,,HRV,HRV_0264,2022-11-30 20:05:23
,wl-rdm,182,518063,0.0-8.65-0.65,1.0,183.0,,,,,,,[],,,,,,62.5,0.0,u,0.0,True,958.8999998569489,58.0,59.0,40.0,False,,234.04902080184195,[],"[960, 540]",ColorTask,64.0,66.0,,,HRV,HRV_0264,2022-11-30 20:05:23
,wl-rdm,183,520599,0.0-8.66-0.66,1.0,184.0,,,,,,,[],,,,,,56.4,1.0,i,1.0,True,1181.8999998569489,71.0,59.0,40.0,False,,286.34631509943154,[],"[960, 540]",ColorTask,65.0,67.0,,,HRV,HRV_0264,2022-11-30 20:05:23
,wl-rdm,184,523202,0.0-8.67-0.67,1.0,185.0,,,,,,,[],,,,,,50.0,0.0,i,1.0,False,1226.0,74.0,59.0,40.0,False,,307.15297138981447,[],"[960, 540]",ColorTask,64.0,68.0,,,HRV,HRV_0264,2022-11-30 20:05:23
,wl-rdm,185,525971,0.0-8.68-0.68,1.0,186.0,,,,,,,[],,,,,,56.4,1.0,i,1.0,True,1415.5999999046326,85.0,59.0,40.0,False,,275.0854217344068,[],"[960, 540]",ColorTask,65.0,69.0,,,HRV,HRV_0264,2022-11-30 20:05:23
,wl-rdm,186,528707,0.0-8.69-0.69,1.0,187.0,,,,,,,[],,,,,,56.4,0.0,u,0.0,True,1342.0999999046326,80.0,59.0,40.0,False,,332.43302903508686,[],"[960, 540]",ColorTask,66.0,70.0,,,HRV,HRV_0264,2022-11-30 20:05:23
,wl-rdm,187,530726,0.0-8.70-0.70,1.0,188.0,,,,,,,[],,,,,,73.6,0.0,u,0.0,True,724.2999999523163,44.0,59.0,40.0,False,,202.95678889929064,[],"[960, 540]",ColorTask,67.0,71.0,,,HRV,HRV_0264,2022-11-30 20:05:23
,wl-rdm,188,533412,0.0-8.71-0.71,1.0,189.0,,,,,,,[],,,,,,50.0,1.0,u,0.0,False,1326.4999997615814,80.0,59.0,40.0,False,,273.58197658011227,[],"[960, 540]",ColorTask,66.0,72.0,,,HRV,HRV_0264,2022-11-30 20:05:23
,wl-rdm,189,535780,0.0-8.72-0.72,1.0,190.0,,,,,,,[],,,,,,87.9,0.0,u,0.0,True,943.0,57.0,59.0,40.0,False,,348.565964301877,[],"[960, 540]",ColorTask,67.0,73.0,,,HRV,HRV_0264,2022-11-30 20:05:23
,wl-rdm,190,538133,0.0-8.73-0.73,1.0,191.0,,,,,,,[],,,,,,73.6,0.0,u,0.0,True,891.4000000953674,54.0,59.0,40.0,False,,370.1541307359689,[],"[960, 540]",ColorTask,68.0,74.0,,,HRV,HRV_0264,2022-11-30 20:05:23
,wl-rdm,191,540820,0.0-8.74-0.74,1.0,192.0,,,,,,,[],,,,,,62.5,1.0,i,1.0,True,1394.7999999523163,84.0,59.0,40.0,False,,230.3079950174294,[],"[960, 540]",ColorTask,69.0,75.0,,,HRV,HRV_0264,2022-11-30 20:05:23
,wl-rdm,192,543187,0.0-8.75-0.75,1.0,193.0,,,,,,,[],,,,,,53.2,1.0,i,1.0,True,1077.4000000953674,65.0,59.0,40.0,False,,203.83408327413105,[],"[960, 540]",ColorTask,70.0,76.0,,,HRV,HRV_0264,2022-11-30 20:05:23
,wl-rdm,193,545890,0.0-8.76-0.76,1.0,194.0,,,,,,,[],,,,,,53.2,1.0,u,0.0,False,1326.3999998569489,80.0,59.0,40.0,False,,302.08631194491886,[],"[960, 540]",ColorTask,69.0,77.0,,,HRV,HRV_0264,2022-11-30 20:05:23
,wl-rdm,194,548093,0.0-8.77-0.77,1.0,195.0,,,,,,,[],,,,,,73.6,1.0,i,1.0,True,909.7000000476837,55.0,59.0,40.0,False,,226.18126541165933,[],"[960, 540]",ColorTask,70.0,78.0,,,HRV,HRV_0264,2022-11-30 20:05:23
,wl-rdm,195,550762,0.0-8.78-0.78,1.0,196.0,,,,,,,[],,,,,,62.5,1.0,i,1.0,True,1395.5999999046326,84.0,59.0,40.0,False,,213.92086476792616,[],"[960, 540]",ColorTask,71.0,79.0,,,HRV,HRV_0264,2022-11-30 20:05:23
,wl-rdm,196,553381,0.0-8.79-0.79,1.0,197.0,,,,,,,[],,,,,,50.0,0.0,i,1.0,False,1243.5999999046326,75.0,59.0,40.0,False,,290.25210622323135,[],"[960, 540]",ColorTask,70.0,80.0,,,HRV,HRV_0264,2022-11-30 20:05:23
,wl-rdm,197,555750,0.0-8.80-0.80,1.0,198.0,,,,,,,[],,,,,,53.2,1.0,i,1.0,True,981.7999999523163,59.0,59.0,40.0,False,,328.4091563523757,[],"[960, 540]",ColorTask,71.0,81.0,,,HRV,HRV_0264,2022-11-30 20:05:23
,wl-rdm,198,558336,0.0-8.81-0.81,1.0,199.0,,,,,,,[],,,,,,62.5,0.0,u,0.0,True,1293.099999666214,78.0,59.0,40.0,False,,225.7545772131793,[],"[960, 540]",ColorTask,72.0,82.0,,,HRV,HRV_0264,2022-11-30 20:05:23
,wl-rdm,199,561305,0.0-8.82-0.82,1.0,200.0,,,,,,,[],,,,,,56.4,1.0,i,1.0,True,1646.7000000476837,99.0,59.0,40.0,False,,248.1483173012347,[],"[960, 540]",ColorTask,73.0,83.0,,,HRV,HRV_0264,2022-11-30 20:05:23
,wl-rdm,200,564409,0.0-8.83-0.83,1.0,201.0,,,,,,,[],,,,,,53.2,1.0,i,1.0,True,1630.4000000953674,97.0,59.0,40.0,False,,389.0112717466652,[],"[960, 540]",ColorTask,74.0,84.0,,,HRV,HRV_0264,2022-11-30 20:05:23
,wl-rdm,201,567131,0.0-8.84-0.84,1.0,202.0,,,,,,,[],,,,,,56.4,0.0,u,0.0,True,1281.2000000476837,77.0,59.0,40.0,False,,352.274849731961,[],"[960, 540]",ColorTask,75.0,85.0,,,HRV,HRV_0264,2022-11-30 20:05:23
,wl-rdm,202,569347,0.0-8.85-0.85,1.0,203.0,,,,,,,[],,,,,,87.9,1.0,i,1.0,True,825.4000000953674,50.0,59.0,40.0,False,,332.9202589244184,[],"[960, 540]",ColorTask,76.0,86.0,,,HRV,HRV_0264,2022-11-30 20:05:23
,wl-rdm,203,572500,0.0-8.86-0.86,1.0,204.0,,,,,,,[],,,,,,53.2,0.0,u,0.0,True,1775.9000000953674,107.0,59.0,40.0,False,,294.63428578736864,[],"[960, 540]",ColorTask,77.0,87.0,,,HRV,HRV_0264,2022-11-30 20:05:23
,wl-rdm,204,575794,0.0-8.87-0.87,1.0,205.0,,,,,,,[],,,,,,53.2,0.0,u,0.0,True,1862.4999997615814,112.0,59.0,40.0,False,,362.5344894136878,[],"[960, 540]",ColorTask,78.0,88.0,,,HRV,HRV_0264,2022-11-30 20:05:23
,wl-rdm,205,578023,0.0-8.88-0.88,1.0,206.0,,,,,,,[],,,,,,73.6,1.0,i,1.0,True,915.5999999046326,55.0,59.0,40.0,False,,237.63395443085116,[],"[960, 540]",ColorTask,79.0,89.0,,,HRV,HRV_0264,2022-11-30 20:05:23
,wl-rdm,206,580425,0.0-8.89-0.89,1.0,207.0,,,,,,,[],,,,,,56.4,1.0,i,1.0,True,1079.3999998569489,65.0,59.0,40.0,False,,253.9235471763406,[],"[960, 540]",ColorTask,80.0,90.0,,,HRV,HRV_0264,2022-11-30 20:05:23
,wl-rdm,207,582561,0.0-8.90-0.90,1.0,208.0,,,,,,,[],,,,,,62.5,0.0,u,0.0,True,859.3999998569489,52.0,59.0,40.0,False,,201.33651433893135,[],"[960, 540]",ColorTask,81.0,91.0,,,HRV,HRV_0264,2022-11-30 20:05:23
,wl-rdm,208,584696,0.0-8.91-0.91,1.0,209.0,,,,,,,[],,,,,,87.9,1.0,i,1.0,True,713.3999998569489,43.0,59.0,40.0,False,,366.2791510729448,[],"[960, 540]",ColorTask,82.0,92.0,,,HRV,HRV_0264,2022-11-30 20:05:23
,wl-rdm,209,586882,0.0-8.92-0.92,1.0,210.0,,,,,,,[],,,,,,73.6,1.0,i,1.0,True,821.3999998569489,50.0,59.0,40.0,False,,288.33852514357545,[],"[960, 540]",ColorTask,83.0,93.0,,,HRV,HRV_0264,2022-11-30 20:05:23
,wl-rdm,210,589584,0.0-8.93-0.93,1.0,211.0,,,,,,,[],,,,,,53.2,0.0,u,0.0,True,1257.9000000953674,76.0,59.0,40.0,False,,370.9245450050678,[],"[960, 540]",ColorTask,84.0,94.0,,,HRV,HRV_0264,2022-11-30 20:05:23
,wl-rdm,211,591903,0.0-8.94-0.94,1.0,212.0,,,,,,,[],,,,,,62.5,0.0,u,0.0,True,960.0999999046326,58.0,59.0,40.0,False,,299.63957732599596,[],"[960, 540]",ColorTask,85.0,95.0,,,HRV,HRV_0264,2022-11-30 20:05:23
,wl-rdm,212,594105,0.0-8.95-0.95,1.0,213.0,,,,,,,[],,,,,,56.4,0.0,u,0.0,True,929.2999997138977,56.0,59.0,40.0,False,,206.7330040880272,[],"[960, 540]",ColorTask,86.0,96.0,,,HRV,HRV_0264,2022-11-30 20:05:23
,wl-rdm,213,597158,0.0-8.96-0.96,1.0,214.0,,,,,,,[],,,,,,56.4,1.0,u,0.0,False,1615.8000001907349,97.0,59.0,40.0,False,,379.22355216508385,[],"[960, 540]",ColorTask,85.0,97.0,,,HRV,HRV_0264,2022-11-30 20:05:23
,wl-rdm,214,599343,0.0-8.97-0.97,1.0,215.0,,,,,,,[],,,,,,73.6,1.0,i,1.0,True,908.0999999046326,55.0,59.0,40.0,False,,208.66411151586945,[],"[960, 540]",ColorTask,86.0,98.0,,,HRV,HRV_0264,2022-11-30 20:05:23
,wl-rdm,215,602397,0.0-8.98-0.98,1.0,216.0,,,,,,,[],,,,,,50.0,1.0,i,1.0,True,1629.1000001430511,98.0,59.0,40.0,False,,352.48714536593906,[],"[960, 540]",ColorTask,87.0,99.0,,,HRV,HRV_0264,2022-11-30 20:05:23
,wl-rdm,216,605267,0.0-8.99-0.99,1.0,217.0,,,,,,,[],,,,,,50.0,0.0,u,0.0,True,1524.7999999523163,92.0,59.0,40.0,False,,276.28500505197,[],"[960, 540]",ColorTask,88.0,100.0,,,HRV,HRV_0264,2022-11-30 20:05:23
,wl-rdm,217,607402,0.0-8.100-0.100,1.0,218.0,,,,,,,[],,,,,,56.4,0.0,u,0.0,True,845.6999998092651,51.0,59.0,40.0,False,,218.27997584977084,[],"[960, 540]",ColorTask,89.0,101.0,,,HRV,HRV_0264,2022-11-30 20:05:23
,wl-rdm,218,609621,0.0-8.101-0.101,1.0,219.0,,,,,,,[],,,,,,62.5,0.0,u,0.0,True,874.5999999046326,53.0,59.0,40.0,False,,261.12813097936794,[],"[960, 540]",ColorTask,90.0,102.0,,,HRV,HRV_0264,2022-11-30 20:05:23
,wl-rdm,219,612090,0.0-8.102-0.102,1.0,220.0,,,,,,,[],,,,,,53.2,0.0,u,0.0,True,1111.8999998569489,67.0,59.0,40.0,False,,288.8962664370773,[],"[960, 540]",ColorTask,91.0,103.0,,,HRV,HRV_0264,2022-11-30 20:05:23
,wl-rdm,220,614459,0.0-8.103-0.103,1.0,221.0,,,,,,,[],,,,,,73.6,1.0,i,1.0,True,960.8000001907349,58.0,59.0,40.0,False,,346.3386078878914,[],"[960, 540]",ColorTask,92.0,104.0,,,HRV,HRV_0264,2022-11-30 20:05:23
,wl-rdm,221,616777,0.0-8.104-0.104,1.0,222.0,,,,,,,[],,,,,,87.9,0.0,u,0.0,True,880.1000001430511,53.0,59.0,40.0,False,,352.9198363189678,[],"[960, 540]",ColorTask,93.0,105.0,,,HRV,HRV_0264,2022-11-30 20:05:23
,wl-rdm,222,618916,0.0-8.105-0.105,1.0,223.0,,,,,,,[],,,,,,87.9,0.0,u,0.0,True,659.5000002384186,40.0,59.0,40.0,False,,396.3142436997839,[],"[960, 540]",ColorTask,94.0,106.0,,,HRV,HRV_0264,2022-11-30 20:05:23
,wl-rdm,223,620981,0.0-8.106-0.106,1.0,224.0,,,,,,,[],,,,,,73.6,0.0,u,0.0,True,749.0999999046326,45.0,59.0,40.0,False,,242.09757215050595,[],"[960, 540]",ColorTask,95.0,107.0,,,HRV,HRV_0264,2022-11-30 20:05:23
,wl-rdm,224,623935,0.0-8.107-0.107,1.0,225.0,,,,,,,[],,,,,,53.2,1.0,i,1.0,True,1577.5999999046326,95.0,59.0,40.0,False,,304.3262006587568,[],"[960, 540]",ColorTask,96.0,108.0,,,HRV,HRV_0264,2022-11-30 20:05:23
,wl-html-button-response,225,627865,0.0-9.0-0.0,,,,,,,,,,3922.399999856949,,0,,,,,,,,,,,,,,,,,,,,<h3>End of this session. Thank you!</h3><br>,['Close window'],HRV,HRV_0264,2022-11-30 20:05:23
