trialN,stimuli,trialStartTime,trialStartTime_UNIX,stimulus1,stimulus2,stimulus1Bid,stimulus2Bid,delta,selected,rt,rt_UNIX,rt_perfnow,receivedResponse,rsp,trialEndTime,trialDuration,trialEndTime_UNIX,trialDuration_UNIX,exp,subjectId,date
0,"[{'imgObject': {}, 'id': 'grilled chicken strips', 'src': '/static/foodstim60/grilled chicken strips.jpg', 'key': 'u', 'origWidth': 410, 'origHeight': 411, 'width': 410, 'height': 411, 'widthPercent': 0.45, 'rescaleHeight': False, 'trialN': 0, 'loaded': True, 'loadedTime': 2153.4000000953674, 'positionName': 'LEFT', 'positionCoords': [511.6, 334.5], 'bid': 0.03}, {'imgObject': {}, 'id': 'sushi w_condiments', 'src': '/static/foodstim60/sushi w_condiments.jpg', 'key': 'i', 'origWidth': 410, 'origHeight': 410, 'width': 410, 'height': 410, 'widthPercent': 0.45, 'rescaleHeight': False, 'trialN': 0, 'loaded': True, 'loadedTime': 2196, 'positionName': 'RIGHT', 'positionCoords': [998.4, 335], 'bid': 0}]",3450.100000143051,1669836804579,grilled chicken strips,sushi w_condiments,0.03,0.0,-0.03,grilled chicken strips,1513.0,1514,1513.5,True,u,5470.700000047684,2020.5999999046326,1669836806600,2021,HRV,HRV_0264,2022-11-30 19:39:00
1,"[{'imgObject': {}, 'id': 'tacos', 'src': '/static/foodstim60/tacos.jpg', 'key': 'u', 'origWidth': 411, 'origHeight': 411, 'width': 411, 'height': 411, 'widthPercent': 0.45, 'rescaleHeight': False, 'trialN': 1, 'loaded': True, 'loadedTime': 2218.100000143051, 'positionName': 'LEFT', 'positionCoords': [510.6, 334.5], 'bid': 0.02}, {'imgObject': {}, 'id': 'fruitsalad', 'src': '/static/foodstim60/fruitsalad.jpg', 'key': 'i', 'origWidth': 410, 'origHeight': 410, 'width': 410, 'height': 410, 'widthPercent': 0.45, 'rescaleHeight': False, 'trialN': 1, 'loaded': True, 'loadedTime': 2227.300000190735, 'positionName': 'RIGHT', 'positionCoords': [998.4, 335], 'bid': 0.23}]",5471.0,1669836806600,tacos,fruitsalad,0.02,0.23,0.21000000000000002,fruitsalad,1364.3000001907349,1365,1364.6000001430511,True,i,7342.300000190735,1871.3000001907349,1669836808471,1871,HRV,HRV_0264,2022-11-30 19:39:00
2,"[{'imgObject': {}, 'id': 'sushi w_condiments', 'src': '/static/foodstim60/sushi w_condiments.jpg', 'key': 'u', 'origWidth': 410, 'origHeight': 410, 'width': 410, 'height': 410, 'widthPercent': 0.45, 'rescaleHeight': False, 'trialN': 2, 'loaded': True, 'loadedTime': 2165.7000000476837, 'positionName': 'LEFT', 'positionCoords': [511.6, 335], 'bid': 0}, {'imgObject': {}, 'id': 'blackbeanswithrice', 'src': '/static/foodstim60/blackbeanswithrice.jpg', 'key': 'i', 'origWidth': 410, 'origHeight': 410, 'width': 410, 'height': 410, 'widthPercent': 0.45, 'rescaleHeight': False, 'trialN': 2, 'loaded': True, 'loadedTime': 2276.800000190735, 'positionName': 'RIGHT', 'positionCoords': [998.4, 335], 'bid': 0.01}]",7342.400000095367,1669836808471,sushi w_condiments,blackbeanswithrice,0.0,0.01,0.01,blackbeanswithrice,2053.0,2054,2053.2000000476837,True,i,9901.5,2559.0999999046326,1669836811030,2559,HRV,HRV_0264,2022-11-30 19:39:00
3,"[{'imgObject': {}, 'id': 'strawberries', 'src': '/static/foodstim60/strawberries.jpg', 'key': 'u', 'origWidth': 410, 'origHeight': 410, 'width': 410, 'height': 410, 'widthPercent': 0.45, 'rescaleHeight': False, 'trialN': 3, 'loaded': True, 'loadedTime': 2285.5, 'positionName': 'LEFT', 'positionCoords': [511.6, 335], 'bid': 0.1}, {'imgObject': {}, 'id': 'luckycharms', 'src': '/static/foodstim60/luckycharms.jpg', 'key': 'i', 'origWidth': 410, 'origHeight': 409, 'width': 410, 'height': 409, 'widthPercent': 0.45, 'rescaleHeight': False, 'trialN': 3, 'loaded': True, 'loadedTime': 2335.7000000476837, 'positionName': 'RIGHT', 'positionCoords': [998.4, 335.5], 'bid': 0.1}]",9901.800000190735,1669836811031,strawberries,luckycharms,0.1,0.1,0.0,luckycharms,1301.7999999523163,1302,1302.0999999046326,True,i,11709.5,1807.6999998092651,1669836812839,1808,HRV,HRV_0264,2022-11-30 19:39:00
4,"[{'imgObject': {}, 'id': 'blackbeanswithrice', 'src': '/static/foodstim60/blackbeanswithrice.jpg', 'key': 'u', 'origWidth': 410, 'origHeight': 410, 'width': 410, 'height': 410, 'widthPercent': 0.45, 'rescaleHeight': False, 'trialN': 4, 'loaded': True, 'loadedTime': 2268.4000000953674, 'positionName': 'LEFT', 'positionCoords': [511.6, 335], 'bid': 0.01}, {'imgObject': {}, 'id': 'Tribe humus pita', 'src': '/static/foodstim60/Tribe humus pita.jpg', 'key': 'i', 'origWidth': 411, 'origHeight': 411, 'width': 411, 'height': 411, 'widthPercent': 0.45, 'rescaleHeight': False, 'trialN': 4, 'loaded': True, 'loadedTime': 2355.4000000953674, 'positionName': 'RIGHT', 'positionCoords': [998.4, 334.5], 'bid': 0.06}]",11709.800000190735,1669836812839,blackbeanswithrice,Tribe humus pita,0.01,0.06,0.049999999999999996,blackbeanswithrice,2293.5,2294,2293.899999856949,True,u,14509.800000190735,2800.0,1669836815639,2800,HRV,HRV_0264,2022-11-30 19:39:00
5,"[{'imgObject': {}, 'id': 'rigatoni', 'src': '/static/foodstim60/rigatoni.jpg', 'key': 'u', 'origWidth': 411, 'origHeight': 411, 'width': 411, 'height': 411, 'widthPercent': 0.45, 'rescaleHeight': False, 'trialN': 5, 'loaded': True, 'loadedTime': 2403.100000143051, 'positionName': 'LEFT', 'positionCoords': [510.6, 334.5], 'bid': 0.21}, {'imgObject': {}, 'id': 'blackbeanswithrice', 'src': '/static/foodstim60/blackbeanswithrice.jpg', 'key': 'i', 'origWidth': 410, 'origHeight': 410, 'width': 410, 'height': 410, 'widthPercent': 0.45, 'rescaleHeight': False, 'trialN': 5, 'loaded': True, 'loadedTime': 2243.4000000953674, 'positionName': 'RIGHT', 'positionCoords': [998.4, 335], 'bid': 0.01}]",14509.900000095367,1669836815639,rigatoni,blackbeanswithrice,0.21,0.01,-0.19999999999999998,blackbeanswithrice,1509.2000000476837,1509,1509.4000000953674,True,i,16525.900000095367,2016.0,1669836817655,2016,HRV,HRV_0264,2022-11-30 19:39:00
6,"[{'imgObject': {}, 'id': 'shreddedwheatwithmilk', 'src': '/static/foodstim60/shreddedwheatwithmilk.jpg', 'key': 'u', 'origWidth': 410, 'origHeight': 410, 'width': 410, 'height': 410, 'widthPercent': 0.45, 'rescaleHeight': False, 'trialN': 6, 'loaded': True, 'loadedTime': 2418.800000190735, 'positionName': 'LEFT', 'positionCoords': [511.6, 335], 'bid': 0.12}, {'imgObject': {}, 'id': 'cheerios', 'src': '/static/foodstim60/cheerios.jpg', 'key': 'i', 'origWidth': 409, 'origHeight': 410, 'width': 409, 'height': 410, 'widthPercent': 0.45, 'rescaleHeight': False, 'trialN': 6, 'loaded': True, 'loadedTime': 2460.7000000476837, 'positionName': 'RIGHT', 'positionCoords': [998.4, 335], 'bid': 0.13}]",16526.0,1669836817655,shreddedwheatwithmilk,cheerios,0.12,0.13,0.010000000000000009,cheerios,1076.9000000953674,1077,1077.3000001907349,True,i,18109.900000095367,1583.9000000953674,1669836819239,1584,HRV,HRV_0264,2022-11-30 19:39:00
7,"[{'imgObject': {}, 'id': 'kiwi', 'src': '/static/foodstim60/kiwi.jpg', 'key': 'u', 'origWidth': 410, 'origHeight': 410, 'width': 410, 'height': 410, 'widthPercent': 0.45, 'rescaleHeight': False, 'trialN': 7, 'loaded': True, 'loadedTime': 2469.300000190735, 'positionName': 'LEFT', 'positionCoords': [511.6, 335], 'bid': 0.12}, {'imgObject': {}, 'id': 'lox', 'src': '/static/foodstim60/lox.jpg', 'key': 'i', 'origWidth': 410, 'origHeight': 411, 'width': 410, 'height': 411, 'widthPercent': 0.45, 'rescaleHeight': False, 'trialN': 7, 'loaded': True, 'loadedTime': 2504, 'positionName': 'RIGHT', 'positionCoords': [998.4, 334.5], 'bid': 0.12}]",18110.0,1669836819239,kiwi,lox,0.12,0.12,0.0,kiwi,1573.1000001430511,1573,1573.3000001907349,True,u,20190.200000047684,2080.2000000476837,1669836821319,2080,HRV,HRV_0264,2022-11-30 19:39:00
8,"[{'imgObject': {}, 'id': 'steak', 'src': '/static/foodstim60/steak.jpg', 'key': 'u', 'origWidth': 410, 'origHeight': 410, 'width': 410, 'height': 410, 'widthPercent': 0.45, 'rescaleHeight': False, 'trialN': 8, 'loaded': True, 'loadedTime': 2565.300000190735, 'positionName': 'LEFT', 'positionCoords': [511.6, 335], 'bid': 9.92}, {'imgObject': {}, 'id': 'granola w milk', 'src': '/static/foodstim60/granola w milk.jpg', 'key': 'i', 'origWidth': 410, 'origHeight': 410, 'width': 410, 'height': 410, 'widthPercent': 0.45, 'rescaleHeight': False, 'trialN': 8, 'loaded': True, 'loadedTime': 2582.800000190735, 'positionName': 'RIGHT', 'positionCoords': [998.4, 335], 'bid': 0.13}]",20190.300000190735,1669836821319,steak,granola w milk,9.92,0.13,-9.79,steak,884.5999999046326,885,884.8999998569489,True,u,21582.0,1391.6999998092651,1669836822711,1392,HRV,HRV_0264,2022-11-30 19:39:00
9,"[{'imgObject': {}, 'id': 'fruitsalad', 'src': '/static/foodstim60/fruitsalad.jpg', 'key': 'u', 'origWidth': 410, 'origHeight': 410, 'width': 410, 'height': 410, 'widthPercent': 0.45, 'rescaleHeight': False, 'trialN': 9, 'loaded': True, 'loadedTime': 2227.5, 'positionName': 'LEFT', 'positionCoords': [511.6, 335], 'bid': 0.23}, {'imgObject': {}, 'id': 'cantaloupe', 'src': '/static/foodstim60/cantaloupe.jpg', 'key': 'i', 'origWidth': 409, 'origHeight': 409, 'width': 409, 'height': 409, 'widthPercent': 0.45, 'rescaleHeight': False, 'trialN': 9, 'loaded': True, 'loadedTime': 2595.2000000476837, 'positionName': 'RIGHT', 'positionCoords': [998.4, 335.5], 'bid': 0.12}]",21582.10000014305,1669836822711,fruitsalad,cantaloupe,0.23,0.12,-0.11000000000000001,fruitsalad,981.5,982,981.8999998569489,True,u,23070.10000014305,1488.0,1669836824199,1488,HRV,HRV_0264,2022-11-30 19:39:00
10,"[{'imgObject': {}, 'id': 'popsicles', 'src': '/static/foodstim60/popsicles.jpg', 'key': 'u', 'origWidth': 410, 'origHeight': 410, 'width': 410, 'height': 410, 'widthPercent': 0.45, 'rescaleHeight': False, 'trialN': 10, 'loaded': True, 'loadedTime': 3442.4000000953674, 'positionName': 'LEFT', 'positionCoords': [511.6, 335], 'bid': 0.12}, {'imgObject': {}, 'id': 'strawberries', 'src': '/static/foodstim60/strawberries.jpg', 'key': 'i', 'origWidth': 410, 'origHeight': 410, 'width': 410, 'height': 410, 'widthPercent': 0.45, 'rescaleHeight': False, 'trialN': 10, 'loaded': True, 'loadedTime': 2289, 'positionName': 'RIGHT', 'positionCoords': [998.4, 335], 'bid': 0.1}]",23070.400000095367,1669836824199,popsicles,strawberries,0.12,0.1,-0.01999999999999999,popsicles,1060.2999999523163,1061,1060.5999999046326,True,u,24638.200000047684,1567.7999999523163,1669836825767,1568,HRV,HRV_0264,2022-11-30 19:39:00
11,"[{'imgObject': {}, 'id': 'sweetpotato', 'src': '/static/foodstim60/sweetpotato.jpg', 'key': 'u', 'origWidth': 410, 'origHeight': 410, 'width': 410, 'height': 410, 'widthPercent': 0.45, 'rescaleHeight': False, 'trialN': 11, 'loaded': True, 'loadedTime': 2645.4000000953674, 'positionName': 'LEFT', 'positionCoords': [511.6, 335], 'bid': 7.0200000000000005}, {'imgObject': {}, 'id': 'roastedpotatoes', 'src': '/static/foodstim60/roastedpotatoes.jpg', 'key': 'i', 'origWidth': 409, 'origHeight': 410, 'width': 409, 'height': 410, 'widthPercent': 0.45, 'rescaleHeight': False, 'trialN': 11, 'loaded': True, 'loadedTime': 2652.4000000953674, 'positionName': 'RIGHT', 'positionCoords': [998.4, 335], 'bid': 7.25}]",24638.400000095367,1669836825767,sweetpotato,roastedpotatoes,7.0200000000000005,7.25,0.22999999999999954,sweetpotato,1524.7999999523163,1527,1525.0999999046326,True,u,26670.300000190735,2031.9000000953674,1669836827800,2033,HRV,HRV_0264,2022-11-30 19:39:00
12,"[{'imgObject': {}, 'id': 'bagel and cc', 'src': '/static/foodstim60/bagel and cc.jpg', 'key': 'u', 'origWidth': 410, 'origHeight': 410, 'width': 410, 'height': 410, 'widthPercent': 0.45, 'rescaleHeight': False, 'trialN': 12, 'loaded': True, 'loadedTime': 2708, 'positionName': 'LEFT', 'positionCoords': [511.6, 335], 'bid': 1.07}, {'imgObject': {}, 'id': 'mango', 'src': '/static/foodstim60/mango.jpg', 'key': 'i', 'origWidth': 411, 'origHeight': 411, 'width': 411, 'height': 411, 'widthPercent': 0.45, 'rescaleHeight': False, 'trialN': 12, 'loaded': True, 'loadedTime': 2740.2000000476837, 'positionName': 'RIGHT', 'positionCoords': [998.4, 334.5], 'bid': 4.16}]",26670.400000095367,1669836827800,bagel and cc,mango,1.07,4.16,3.09,mango,1684.7000000476837,1686,1685.0,True,i,28862.400000095367,2192.0,1669836829992,2192,HRV,HRV_0264,2022-11-30 19:39:00
13,"[{'imgObject': {}, 'id': 'hotdog w must', 'src': '/static/foodstim60/hotdog w must.jpg', 'key': 'u', 'origWidth': 409, 'origHeight': 409, 'width': 409, 'height': 409, 'widthPercent': 0.45, 'rescaleHeight': False, 'trialN': 13, 'loaded': True, 'loadedTime': 2760.300000190735, 'positionName': 'LEFT', 'positionCoords': [512.6, 335.5], 'bid': 0.06}, {'imgObject': {}, 'id': 'avocado', 'src': '/static/foodstim60/avocado.jpg', 'key': 'i', 'origWidth': 409, 'origHeight': 409, 'width': 409, 'height': 409, 'widthPercent': 0.45, 'rescaleHeight': False, 'trialN': 13, 'loaded': True, 'loadedTime': 2777.2000000476837, 'positionName': 'RIGHT', 'positionCoords': [998.4, 335.5], 'bid': 0.07}]",28862.400000095367,1669836829993,hotdog w must,avocado,0.06,0.07,0.010000000000000009,hotdog w must,1812.2999999523163,1812,1812.7000000476837,True,u,31181.60000014305,2319.2000000476837,1669836832312,2319,HRV,HRV_0264,2022-11-30 19:39:00
14,"[{'imgObject': {}, 'id': 'edamame', 'src': '/static/foodstim60/edamame.jpg', 'key': 'u', 'origWidth': 409, 'origHeight': 410, 'width': 409, 'height': 410, 'widthPercent': 0.45, 'rescaleHeight': False, 'trialN': 14, 'loaded': True, 'loadedTime': 2814, 'positionName': 'LEFT', 'positionCoords': [512.6, 335], 'bid': 0.12}, {'imgObject': {}, 'id': 'mashed potato', 'src': '/static/foodstim60/mashed potato.jpg', 'key': 'i', 'origWidth': 409, 'origHeight': 409, 'width': 409, 'height': 409, 'widthPercent': 0.45, 'rescaleHeight': False, 'trialN': 14, 'loaded': True, 'loadedTime': 2860.4000000953674, 'positionName': 'RIGHT', 'positionCoords': [998.4, 335.5], 'bid': 0.59}]",31181.700000047684,1669836832312,edamame,mashed potato,0.12,0.59,0.47,mashed potato,1109.2999999523163,1109,1109.6000001430511,True,i,32798.40000009537,1616.7000000476837,1669836833929,1617,HRV,HRV_0264,2022-11-30 19:39:00
15,"[{'imgObject': {}, 'id': 'olives', 'src': '/static/foodstim60/olives.jpg', 'key': 'u', 'origWidth': 410, 'origHeight': 410, 'width': 410, 'height': 410, 'widthPercent': 0.45, 'rescaleHeight': False, 'trialN': 15, 'loaded': True, 'loadedTime': 2867.5, 'positionName': 'LEFT', 'positionCoords': [511.6, 335], 'bid': 0.09}, {'imgObject': {}, 'id': 'blueberries', 'src': '/static/foodstim60/blueberries.jpg', 'key': 'i', 'origWidth': 411, 'origHeight': 411, 'width': 411, 'height': 411, 'widthPercent': 0.45, 'rescaleHeight': False, 'trialN': 15, 'loaded': True, 'loadedTime': 2888, 'positionName': 'RIGHT', 'positionCoords': [998.4, 334.5], 'bid': 0.13}]",32798.5,1669836833929,olives,blueberries,0.09,0.13,0.04000000000000001,blueberries,1380.9000000953674,1381,1381.3000001907349,True,i,34685.700000047684,1887.2000000476837,1669836835816,1887,HRV,HRV_0264,2022-11-30 19:39:00
16,"[{'imgObject': {}, 'id': 'raspberries', 'src': '/static/foodstim60/raspberries.jpg', 'key': 'u', 'origWidth': 411, 'origHeight': 411, 'width': 411, 'height': 411, 'widthPercent': 0.45, 'rescaleHeight': False, 'trialN': 16, 'loaded': True, 'loadedTime': 2899.600000143051, 'positionName': 'LEFT', 'positionCoords': [510.6, 334.5], 'bid': 1.55}, {'imgObject': {}, 'id': 'hotdog w must', 'src': '/static/foodstim60/hotdog w must.jpg', 'key': 'i', 'origWidth': 409, 'origHeight': 409, 'width': 409, 'height': 409, 'widthPercent': 0.45, 'rescaleHeight': False, 'trialN': 16, 'loaded': True, 'loadedTime': 2764.100000143051, 'positionName': 'RIGHT', 'positionCoords': [998.4, 335.5], 'bid': 0.06}]",34685.90000009537,1669836835816,raspberries,hotdog w must,1.55,0.06,-1.49,raspberries,1173.2000000476837,1174,1173.7000000476837,True,u,36365.700000047684,1679.7999999523163,1669836837496,1680,HRV,HRV_0264,2022-11-30 19:39:00
17,"[{'imgObject': {}, 'id': 'rigatoni and sauce', 'src': '/static/foodstim60/rigatoni and sauce.jpg', 'key': 'u', 'origWidth': 410, 'origHeight': 411, 'width': 410, 'height': 411, 'widthPercent': 0.45, 'rescaleHeight': False, 'trialN': 17, 'loaded': True, 'loadedTime': 2935.800000190735, 'positionName': 'LEFT', 'positionCoords': [511.6, 334.5], 'bid': 1.72}, {'imgObject': {}, 'id': 'avocado', 'src': '/static/foodstim60/avocado.jpg', 'key': 'i', 'origWidth': 409, 'origHeight': 409, 'width': 409, 'height': 409, 'widthPercent': 0.45, 'rescaleHeight': False, 'trialN': 17, 'loaded': True, 'loadedTime': 2772.300000190735, 'positionName': 'RIGHT', 'positionCoords': [998.4, 335.5], 'bid': 0.07}]",36365.90000009537,1669836837496,rigatoni and sauce,avocado,1.72,0.07,-1.65,rigatoni and sauce,980.9000000953674,981,981.2000000476837,True,u,37853.700000047684,1487.7999999523163,1669836838984,1488,HRV,HRV_0264,2022-11-30 19:39:00
18,"[{'imgObject': {}, 'id': 'sweetpotato', 'src': '/static/foodstim60/sweetpotato.jpg', 'key': 'u', 'origWidth': 410, 'origHeight': 410, 'width': 410, 'height': 410, 'widthPercent': 0.45, 'rescaleHeight': False, 'trialN': 18, 'loaded': True, 'loadedTime': 2637.9000000953674, 'positionName': 'LEFT', 'positionCoords': [511.6, 335], 'bid': 7.0200000000000005}, {'imgObject': {}, 'id': 'turkeysandwich', 'src': '/static/foodstim60/turkeysandwich.jpg', 'key': 'i', 'origWidth': 409, 'origHeight': 409, 'width': 409, 'height': 409, 'widthPercent': 0.45, 'rescaleHeight': False, 'trialN': 18, 'loaded': True, 'loadedTime': 2941.4000000953674, 'positionName': 'RIGHT', 'positionCoords': [998.4, 335.5], 'bid': 4.94}]",37853.800000190735,1669836838984,sweetpotato,turkeysandwich,7.0200000000000005,4.94,-2.08,sweetpotato,949.0,949,949.2999999523163,True,u,39309.800000190735,1456.0,1669836840440,1456,HRV,HRV_0264,2022-11-30 19:39:00
19,"[{'imgObject': {}, 'id': 'Grapes', 'src': '/static/foodstim60/Grapes.jpg', 'key': 'u', 'origWidth': 411, 'origHeight': 411, 'width': 411, 'height': 411, 'widthPercent': 0.45, 'rescaleHeight': False, 'trialN': 19, 'loaded': True, 'loadedTime': 2970.100000143051, 'positionName': 'LEFT', 'positionCoords': [510.6, 334.5], 'bid': 4.4}, {'imgObject': {}, 'id': 'pear', 'src': '/static/foodstim60/pear.jpg', 'key': 'i', 'origWidth': 411, 'origHeight': 410, 'width': 411, 'height': 410, 'widthPercent': 0.45, 'rescaleHeight': False, 'trialN': 19, 'loaded': True, 'loadedTime': 3011.800000190735, 'positionName': 'RIGHT', 'positionCoords': [998.4, 335], 'bid': 6.4}]",39309.800000190735,1669836840440,Grapes,pear,4.4,6.4,2.0,Grapes,757.0,757,757.2999999523163,True,u,40573.90000009537,1264.0999999046326,1669836841704,1264,HRV,HRV_0264,2022-11-30 19:39:00
20,"[{'imgObject': {}, 'id': 'Grapes', 'src': '/static/foodstim60/Grapes.jpg', 'key': 'u', 'origWidth': 411, 'origHeight': 411, 'width': 411, 'height': 411, 'widthPercent': 0.45, 'rescaleHeight': False, 'trialN': 20, 'loaded': True, 'loadedTime': 2994.9000000953674, 'positionName': 'LEFT', 'positionCoords': [510.6, 334.5], 'bid': 4.4}, {'imgObject': {}, 'id': 'fried eggs', 'src': '/static/foodstim60/fried eggs.jpg', 'key': 'i', 'origWidth': 410, 'origHeight': 410, 'width': 410, 'height': 410, 'widthPercent': 0.45, 'rescaleHeight': False, 'trialN': 20, 'loaded': True, 'loadedTime': 3025.600000143051, 'positionName': 'RIGHT', 'positionCoords': [998.4, 335], 'bid': 1.53}]",40574.10000014305,1669836841704,Grapes,fried eggs,4.4,1.53,-2.87,Grapes,1236.3999998569489,1237,1236.7000000476837,True,u,42317.90000009537,1743.7999999523163,1669836843448,1744,HRV,HRV_0264,2022-11-30 19:39:00
21,"[{'imgObject': {}, 'id': 'fried eggs', 'src': '/static/foodstim60/fried eggs.jpg', 'key': 'u', 'origWidth': 410, 'origHeight': 410, 'width': 410, 'height': 410, 'widthPercent': 0.45, 'rescaleHeight': False, 'trialN': 21, 'loaded': True, 'loadedTime': 3024, 'positionName': 'LEFT', 'positionCoords': [511.6, 335], 'bid': 1.53}, {'imgObject': {}, 'id': 'rigatoni and sauce', 'src': '/static/foodstim60/rigatoni and sauce.jpg', 'key': 'i', 'origWidth': 410, 'origHeight': 411, 'width': 410, 'height': 411, 'widthPercent': 0.45, 'rescaleHeight': False, 'trialN': 21, 'loaded': True, 'loadedTime': 2930.800000190735, 'positionName': 'RIGHT', 'positionCoords': [998.4, 334.5], 'bid': 1.72}]",42318.0,1669836843448,fried eggs,rigatoni and sauce,1.53,1.72,0.18999999999999995,fried eggs,1268.5,1269,1268.9000000953674,True,u,44093.90000009537,1775.9000000953674,1669836845224,1776,HRV,HRV_0264,2022-11-30 19:39:00
22,"[{'imgObject': {}, 'id': 'lox', 'src': '/static/foodstim60/lox.jpg', 'key': 'u', 'origWidth': 410, 'origHeight': 411, 'width': 410, 'height': 411, 'widthPercent': 0.45, 'rescaleHeight': False, 'trialN': 22, 'loaded': True, 'loadedTime': 2507.7000000476837, 'positionName': 'LEFT', 'positionCoords': [511.6, 334.5], 'bid': 0.12}, {'imgObject': {}, 'id': 'olives', 'src': '/static/foodstim60/olives.jpg', 'key': 'i', 'origWidth': 410, 'origHeight': 410, 'width': 410, 'height': 410, 'widthPercent': 0.45, 'rescaleHeight': False, 'trialN': 22, 'loaded': True, 'loadedTime': 2874.9000000953674, 'positionName': 'RIGHT', 'positionCoords': [998.4, 335], 'bid': 0.09}]",44094.10000014305,1669836845224,lox,olives,0.12,0.09,-0.03,lox,3317.0999999046326,3318,3317.5,True,u,47918.200000047684,3824.0999999046326,1669836849048,3824,HRV,HRV_0264,2022-11-30 19:39:00
23,"[{'imgObject': {}, 'id': 'strawberries', 'src': '/static/foodstim60/strawberries.jpg', 'key': 'u', 'origWidth': 410, 'origHeight': 410, 'width': 410, 'height': 410, 'widthPercent': 0.45, 'rescaleHeight': False, 'trialN': 23, 'loaded': True, 'loadedTime': 2281.9000000953674, 'positionName': 'LEFT', 'positionCoords': [511.6, 335], 'bid': 0.1}, {'imgObject': {}, 'id': 'burrito', 'src': '/static/foodstim60/burrito.jpg', 'key': 'i', 'origWidth': 410, 'origHeight': 410, 'width': 410, 'height': 410, 'widthPercent': 0.45, 'rescaleHeight': False, 'trialN': 23, 'loaded': True, 'loadedTime': 3045.9000000953674, 'positionName': 'RIGHT', 'positionCoords': [998.4, 335], 'bid': 0.1}]",47918.300000190735,1669836849048,strawberries,burrito,0.1,0.1,0.0,burrito,1668.1999998092651,1669,1668.5999999046326,True,i,50094.300000190735,2176.0,1669836851224,2176,HRV,HRV_0264,2022-11-30 19:39:00
24,"[{'imgObject': {}, 'id': 'baked potato', 'src': '/static/foodstim60/baked potato.jpg', 'key': 'u', 'origWidth': 409, 'origHeight': 410, 'width': 409, 'height': 410, 'widthPercent': 0.45, 'rescaleHeight': False, 'trialN': 24, 'loaded': True, 'loadedTime': 3046.4000000953674, 'positionName': 'LEFT', 'positionCoords': [512.6, 335], 'bid': 5.62}, {'imgObject': {}, 'id': 'chickenfingers', 'src': '/static/foodstim60/chickenfingers.jpg', 'key': 'i', 'origWidth': 410, 'origHeight': 410, 'width': 410, 'height': 410, 'widthPercent': 0.45, 'rescaleHeight': False, 'trialN': 24, 'loaded': True, 'loadedTime': 3117.100000143051, 'positionName': 'RIGHT', 'positionCoords': [998.4, 335], 'bid': 9.95}]",50094.5,1669836851225,baked potato,chickenfingers,5.62,9.95,4.329999999999999,chickenfingers,772.4000000953674,772,772.7000000476837,True,i,51374.40000009537,1279.9000000953674,1669836852504,1279,HRV,HRV_0264,2022-11-30 19:39:00
25,"[{'imgObject': {}, 'id': 'chickenfingers', 'src': '/static/foodstim60/chickenfingers.jpg', 'key': 'u', 'origWidth': 410, 'origHeight': 410, 'width': 410, 'height': 410, 'widthPercent': 0.45, 'rescaleHeight': False, 'trialN': 25, 'loaded': True, 'loadedTime': 3115.7000000476837, 'positionName': 'LEFT', 'positionCoords': [511.6, 335], 'bid': 9.95}, {'imgObject': {}, 'id': 'turkeysandwich', 'src': '/static/foodstim60/turkeysandwich.jpg', 'key': 'i', 'origWidth': 409, 'origHeight': 409, 'width': 409, 'height': 409, 'widthPercent': 0.45, 'rescaleHeight': False, 'trialN': 25, 'loaded': True, 'loadedTime': 2942.800000190735, 'positionName': 'RIGHT', 'positionCoords': [998.4, 335.5], 'bid': 4.94}]",51374.5,1669836852505,chickenfingers,turkeysandwich,9.95,4.94,-5.009999999999999,chickenfingers,1299.9000000953674,1300,1300.3000001907349,True,u,53182.40000009537,1807.9000000953674,1669836854312,1807,HRV,HRV_0264,2022-11-30 19:39:00
26,"[{'imgObject': {}, 'id': 'roastedpotatoes', 'src': '/static/foodstim60/roastedpotatoes.jpg', 'key': 'u', 'origWidth': 409, 'origHeight': 410, 'width': 409, 'height': 410, 'widthPercent': 0.45, 'rescaleHeight': False, 'trialN': 26, 'loaded': True, 'loadedTime': 2691.600000143051, 'positionName': 'LEFT', 'positionCoords': [512.6, 335], 'bid': 7.25}, {'imgObject': {}, 'id': 'edamame', 'src': '/static/foodstim60/edamame.jpg', 'key': 'i', 'origWidth': 409, 'origHeight': 410, 'width': 409, 'height': 410, 'widthPercent': 0.45, 'rescaleHeight': False, 'trialN': 26, 'loaded': True, 'loadedTime': 2813.7000000476837, 'positionName': 'RIGHT', 'positionCoords': [998.4, 335], 'bid': 0.12}]",53182.5,1669836854313,roastedpotatoes,edamame,7.25,0.12,-7.13,roastedpotatoes,963.9000000953674,964,964.5,True,u,54653.60000014305,1471.1000001430511,1669836855784,1471,HRV,HRV_0264,2022-11-30 19:39:00
27,"[{'imgObject': {}, 'id': 'sushi w_condiments', 'src': '/static/foodstim60/sushi w_condiments.jpg', 'key': 'u', 'origWidth': 410, 'origHeight': 410, 'width': 410, 'height': 410, 'widthPercent': 0.45, 'rescaleHeight': False, 'trialN': 27, 'loaded': True, 'loadedTime': 2169.9000000953674, 'positionName': 'LEFT', 'positionCoords': [511.6, 335], 'bid': 0}, {'imgObject': {}, 'id': 'seaweed', 'src': '/static/foodstim60/seaweed.jpg', 'key': 'i', 'origWidth': 410, 'origHeight': 410, 'width': 410, 'height': 410, 'widthPercent': 0.45, 'rescaleHeight': False, 'trialN': 27, 'loaded': True, 'loadedTime': 3128.4000000953674, 'positionName': 'RIGHT', 'positionCoords': [998.4, 335], 'bid': 0.08}]",54653.700000047684,1669836855784,sushi w_condiments,seaweed,0.0,0.08,0.08,sushi w_condiments,1988.6000001430511,1989,1988.9000000953674,True,u,57149.60000014305,2495.9000000953674,1669836858280,2496,HRV,HRV_0264,2022-11-30 19:39:00
28,"[{'imgObject': {}, 'id': 'sweetpotato', 'src': '/static/foodstim60/sweetpotato.jpg', 'key': 'u', 'origWidth': 410, 'origHeight': 410, 'width': 410, 'height': 410, 'widthPercent': 0.45, 'rescaleHeight': False, 'trialN': 28, 'loaded': True, 'loadedTime': 2641.5, 'positionName': 'LEFT', 'positionCoords': [511.6, 335], 'bid': 7.0200000000000005}, {'imgObject': {}, 'id': 'rigatoni and sauce', 'src': '/static/foodstim60/rigatoni and sauce.jpg', 'key': 'i', 'origWidth': 410, 'origHeight': 411, 'width': 410, 'height': 411, 'widthPercent': 0.45, 'rescaleHeight': False, 'trialN': 28, 'loaded': True, 'loadedTime': 2941.100000143051, 'positionName': 'RIGHT', 'positionCoords': [998.4, 334.5], 'bid': 1.72}]",57149.800000190735,1669836858280,sweetpotato,rigatoni and sauce,7.0200000000000005,1.72,-5.300000000000001,sweetpotato,869.2999999523163,870,869.6999998092651,True,u,58525.60000014305,1375.7999999523163,1669836859656,1376,HRV,HRV_0264,2022-11-30 19:39:00
29,"[{'imgObject': {}, 'id': 'omelette', 'src': '/static/foodstim60/omelette.jpg', 'key': 'u', 'origWidth': 410, 'origHeight': 409, 'width': 410, 'height': 409, 'widthPercent': 0.45, 'rescaleHeight': False, 'trialN': 29, 'loaded': True, 'loadedTime': 3150.7000000476837, 'positionName': 'LEFT', 'positionCoords': [511.6, 335.5], 'bid': 2.06}, {'imgObject': {}, 'id': 'eggs', 'src': '/static/foodstim60/eggs.jpg', 'key': 'i', 'origWidth': 409, 'origHeight': 409, 'width': 409, 'height': 409, 'widthPercent': 0.45, 'rescaleHeight': False, 'trialN': 29, 'loaded': True, 'loadedTime': 3182.9000000953674, 'positionName': 'RIGHT', 'positionCoords': [998.4, 335.5], 'bid': 5.8500000000000005}]",58525.800000190735,1669836859656,omelette,eggs,2.06,5.8500000000000005,3.7900000000000005,omelette,1092.6999998092651,1093,1093.0,True,u,60125.800000190735,1600.0,1669836861256,1600,HRV,HRV_0264,2022-11-30 19:39:00
30,"[{'imgObject': {}, 'id': 'burrito', 'src': '/static/foodstim60/burrito.jpg', 'key': 'u', 'origWidth': 410, 'origHeight': 410, 'width': 410, 'height': 410, 'widthPercent': 0.45, 'rescaleHeight': False, 'trialN': 30, 'loaded': True, 'loadedTime': 3039, 'positionName': 'LEFT', 'positionCoords': [511.6, 335], 'bid': 0.1}, {'imgObject': {}, 'id': 'granola w milk', 'src': '/static/foodstim60/granola w milk.jpg', 'key': 'i', 'origWidth': 410, 'origHeight': 410, 'width': 410, 'height': 410, 'widthPercent': 0.45, 'rescaleHeight': False, 'trialN': 30, 'loaded': True, 'loadedTime': 2578, 'positionName': 'RIGHT', 'positionCoords': [998.4, 335], 'bid': 0.13}]",60125.800000190735,1669836861256,burrito,granola w milk,0.1,0.13,0.03,granola w milk,1124.5,1125,1124.7999999523163,True,i,61757.90000009537,1632.0999999046326,1669836862888,1632,HRV,HRV_0264,2022-11-30 19:39:00
31,"[{'imgObject': {}, 'id': 'baked potato', 'src': '/static/foodstim60/baked potato.jpg', 'key': 'u', 'origWidth': 409, 'origHeight': 410, 'width': 409, 'height': 410, 'widthPercent': 0.45, 'rescaleHeight': False, 'trialN': 31, 'loaded': True, 'loadedTime': 3105.4000000953674, 'positionName': 'LEFT', 'positionCoords': [512.6, 335], 'bid': 5.62}, {'imgObject': {}, 'id': 'cherry tomato', 'src': '/static/foodstim60/cherry tomato.jpg', 'key': 'i', 'origWidth': 410, 'origHeight': 410, 'width': 410, 'height': 410, 'widthPercent': 0.45, 'rescaleHeight': False, 'trialN': 31, 'loaded': True, 'loadedTime': 3199.5, 'positionName': 'RIGHT', 'positionCoords': [998.4, 335], 'bid': 0.12}]",61758.0,1669836862888,baked potato,cherry tomato,5.62,0.12,-5.5,baked potato,932.3000001907349,933,932.7000000476837,True,u,63198.700000047684,1440.7000000476837,1669836864329,1441,HRV,HRV_0264,2022-11-30 19:39:00
32,"[{'imgObject': {}, 'id': 'mac & cheese', 'src': '/static/foodstim60/mac & cheese.jpg', 'key': 'u', 'origWidth': 410, 'origHeight': 410, 'width': 410, 'height': 410, 'widthPercent': 0.45, 'rescaleHeight': False, 'trialN': 32, 'loaded': True, 'loadedTime': 3220, 'positionName': 'LEFT', 'positionCoords': [511.6, 335], 'bid': 9.63}, {'imgObject': {}, 'id': 'blueberries', 'src': '/static/foodstim60/blueberries.jpg', 'key': 'i', 'origWidth': 411, 'origHeight': 411, 'width': 411, 'height': 411, 'widthPercent': 0.45, 'rescaleHeight': False, 'trialN': 32, 'loaded': True, 'loadedTime': 2884, 'positionName': 'RIGHT', 'positionCoords': [998.4, 334.5], 'bid': 0.13}]",63198.800000190735,1669836864329,mac & cheese,blueberries,9.63,0.13,-9.5,mac & cheese,739.3999998569489,740,739.7999999523163,True,u,64445.90000009537,1247.0999999046326,1669836865576,1247,HRV,HRV_0264,2022-11-30 19:39:00
33,"[{'imgObject': {}, 'id': 'kiwi', 'src': '/static/foodstim60/kiwi.jpg', 'key': 'u', 'origWidth': 410, 'origHeight': 410, 'width': 410, 'height': 410, 'widthPercent': 0.45, 'rescaleHeight': False, 'trialN': 33, 'loaded': True, 'loadedTime': 2464.600000143051, 'positionName': 'LEFT', 'positionCoords': [511.6, 335], 'bid': 0.12}, {'imgObject': {}, 'id': 'chicken nuggets2', 'src': '/static/foodstim60/chicken nuggets2.jpg', 'key': 'i', 'origWidth': 410, 'origHeight': 409, 'width': 410, 'height': 409, 'widthPercent': 0.45, 'rescaleHeight': False, 'trialN': 33, 'loaded': True, 'loadedTime': 3248.9000000953674, 'positionName': 'RIGHT', 'positionCoords': [998.4, 335.5], 'bid': 5.33}]",64446.10000014305,1669836865576,kiwi,chicken nuggets2,0.12,5.33,5.21,chicken nuggets2,1060.2000000476837,1061,1060.8999998569489,True,i,66014.0,1567.8999998569489,1669836867144,1568,HRV,HRV_0264,2022-11-30 19:39:00
34,"[{'imgObject': {}, 'id': 'hotdog w must', 'src': '/static/foodstim60/hotdog w must.jpg', 'key': 'u', 'origWidth': 409, 'origHeight': 409, 'width': 409, 'height': 409, 'widthPercent': 0.45, 'rescaleHeight': False, 'trialN': 34, 'loaded': True, 'loadedTime': 2768, 'positionName': 'LEFT', 'positionCoords': [512.6, 335.5], 'bid': 0.06}, {'imgObject': {}, 'id': 'lox', 'src': '/static/foodstim60/lox.jpg', 'key': 'i', 'origWidth': 410, 'origHeight': 411, 'width': 410, 'height': 411, 'widthPercent': 0.45, 'rescaleHeight': False, 'trialN': 34, 'loaded': True, 'loadedTime': 2504.2000000476837, 'positionName': 'RIGHT', 'positionCoords': [998.4, 334.5], 'bid': 0.12}]",66014.20000004768,1669836867144,hotdog w must,lox,0.06,0.12,0.06,hotdog w must,1140.2000000476837,1141,1140.5,True,u,67662.10000014305,1647.9000000953674,1669836868792,1648,HRV,HRV_0264,2022-11-30 19:39:00
35,"[{'imgObject': {}, 'id': 'blueberries', 'src': '/static/foodstim60/blueberries.jpg', 'key': 'u', 'origWidth': 411, 'origHeight': 411, 'width': 411, 'height': 411, 'widthPercent': 0.45, 'rescaleHeight': False, 'trialN': 35, 'loaded': True, 'loadedTime': 2880, 'positionName': 'LEFT', 'positionCoords': [510.6, 334.5], 'bid': 0.13}, {'imgObject': {}, 'id': 'cheerios', 'src': '/static/foodstim60/cheerios.jpg', 'key': 'i', 'origWidth': 409, 'origHeight': 410, 'width': 409, 'height': 410, 'widthPercent': 0.45, 'rescaleHeight': False, 'trialN': 35, 'loaded': True, 'loadedTime': 2461, 'positionName': 'RIGHT', 'positionCoords': [998.4, 335], 'bid': 0.13}]",67662.20000004768,1669836868792,blueberries,cheerios,0.13,0.13,0.0,cheerios,1252.7000000476837,1253,1253.0,True,i,69422.30000019073,1760.1000001430511,1669836870552,1760,HRV,HRV_0264,2022-11-30 19:39:00
36,"[{'imgObject': {}, 'id': 'lox', 'src': '/static/foodstim60/lox.jpg', 'key': 'u', 'origWidth': 410, 'origHeight': 411, 'width': 410, 'height': 411, 'widthPercent': 0.45, 'rescaleHeight': False, 'trialN': 36, 'loaded': True, 'loadedTime': 2499.100000143051, 'positionName': 'LEFT', 'positionCoords': [511.6, 334.5], 'bid': 0.12}, {'imgObject': {}, 'id': 'cocktailshrimp', 'src': '/static/foodstim60/cocktailshrimp.jpg', 'key': 'i', 'origWidth': 410, 'origHeight': 410, 'width': 410, 'height': 410, 'widthPercent': 0.45, 'rescaleHeight': False, 'trialN': 36, 'loaded': True, 'loadedTime': 3257.2000000476837, 'positionName': 'RIGHT', 'positionCoords': [998.4, 335], 'bid': 0.02}]",69422.40000009537,1669836870553,lox,cocktailshrimp,0.12,0.02,-0.09999999999999999,lox,1684.2000000476837,1684,1684.5999999046326,True,u,71614.20000004768,2191.7999999523163,1669836872744,2191,HRV,HRV_0264,2022-11-30 19:39:00
37,"[{'imgObject': {}, 'id': 'luckycharms', 'src': '/static/foodstim60/luckycharms.jpg', 'key': 'u', 'origWidth': 410, 'origHeight': 409, 'width': 410, 'height': 409, 'widthPercent': 0.45, 'rescaleHeight': False, 'trialN': 37, 'loaded': True, 'loadedTime': 2330.600000143051, 'positionName': 'LEFT', 'positionCoords': [511.6, 335.5], 'bid': 0.1}, {'imgObject': {}, 'id': 'olives', 'src': '/static/foodstim60/olives.jpg', 'key': 'i', 'origWidth': 410, 'origHeight': 410, 'width': 410, 'height': 410, 'widthPercent': 0.45, 'rescaleHeight': False, 'trialN': 37, 'loaded': True, 'loadedTime': 2867.100000143051, 'positionName': 'RIGHT', 'positionCoords': [998.4, 335], 'bid': 0.09}]",71614.40000009537,1669836872744,luckycharms,olives,0.1,0.09,-0.010000000000000009,luckycharms,2147.7999999523163,2149,2148.0999999046326,True,u,74270.30000019073,2655.9000000953674,1669836875400,2656,HRV,HRV_0264,2022-11-30 19:39:00
38,"[{'imgObject': {}, 'id': 'orange slices', 'src': '/static/foodstim60/orange slices.jpg', 'key': 'u', 'origWidth': 409, 'origHeight': 410, 'width': 409, 'height': 410, 'widthPercent': 0.45, 'rescaleHeight': False, 'trialN': 38, 'loaded': True, 'loadedTime': 3274.2000000476837, 'positionName': 'LEFT', 'positionCoords': [512.6, 335], 'bid': 5.1000000000000005}, {'imgObject': {}, 'id': 'strawberries', 'src': '/static/foodstim60/strawberries.jpg', 'key': 'i', 'origWidth': 410, 'origHeight': 410, 'width': 410, 'height': 410, 'widthPercent': 0.45, 'rescaleHeight': False, 'trialN': 38, 'loaded': True, 'loadedTime': 2278.5, 'positionName': 'RIGHT', 'positionCoords': [998.4, 335], 'bid': 0.1}]",74270.5,1669836875401,orange slices,strawberries,5.1000000000000005,0.1,-5.000000000000001,orange slices,883.9000000953674,884,884.2000000476837,True,u,75662.40000009537,1391.9000000953674,1669836876792,1391,HRV,HRV_0264,2022-11-30 19:39:00
39,"[{'imgObject': {}, 'id': 'corn cob', 'src': '/static/foodstim60/corn cob.jpg', 'key': 'u', 'origWidth': 411, 'origHeight': 411, 'width': 411, 'height': 411, 'widthPercent': 0.45, 'rescaleHeight': False, 'trialN': 39, 'loaded': True, 'loadedTime': 3274.7000000476837, 'positionName': 'LEFT', 'positionCoords': [510.6, 334.5], 'bid': 2.94}, {'imgObject': {}, 'id': 'froot loops w milk', 'src': '/static/foodstim60/froot loops w milk.jpg', 'key': 'i', 'origWidth': 410, 'origHeight': 410, 'width': 410, 'height': 410, 'widthPercent': 0.45, 'rescaleHeight': False, 'trialN': 39, 'loaded': True, 'loadedTime': 3316.800000190735, 'positionName': 'RIGHT', 'positionCoords': [998.4, 335], 'bid': 0.09}]",75662.60000014305,1669836876793,corn cob,froot loops w milk,2.94,0.09,-2.85,corn cob,1315.8999998569489,1316,1316.2000000476837,True,u,77485.60000014305,1823.0,1669836878616,1823,HRV,HRV_0264,2022-11-30 19:39:00
40,"[{'imgObject': {}, 'id': 'blackbeanswithrice', 'src': '/static/foodstim60/blackbeanswithrice.jpg', 'key': 'u', 'origWidth': 410, 'origHeight': 410, 'width': 410, 'height': 410, 'widthPercent': 0.45, 'rescaleHeight': False, 'trialN': 40, 'loaded': True, 'loadedTime': 2273, 'positionName': 'LEFT', 'positionCoords': [511.6, 335], 'bid': 0.01}, {'imgObject': {}, 'id': 'cocktailshrimp', 'src': '/static/foodstim60/cocktailshrimp.jpg', 'key': 'i', 'origWidth': 410, 'origHeight': 410, 'width': 410, 'height': 410, 'widthPercent': 0.45, 'rescaleHeight': False, 'trialN': 40, 'loaded': True, 'loadedTime': 3256.9000000953674, 'positionName': 'RIGHT', 'positionCoords': [998.4, 335], 'bid': 0.02}]",77485.70000004768,1669836878616,blackbeanswithrice,cocktailshrimp,0.01,0.02,0.01,blackbeanswithrice,1044.2999999523163,1044,1044.7000000476837,True,u,79037.5,1551.7999999523163,1669836880168,1552,HRV,HRV_0264,2022-11-30 19:39:00
41,"[{'imgObject': {}, 'id': 'veggieswithdip', 'src': '/static/foodstim60/veggieswithdip.jpg', 'key': 'u', 'origWidth': 409, 'origHeight': 409, 'width': 409, 'height': 409, 'widthPercent': 0.45, 'rescaleHeight': False, 'trialN': 41, 'loaded': True, 'loadedTime': 3326.600000143051, 'positionName': 'LEFT', 'positionCoords': [512.6, 335.5], 'bid': 8.78}, {'imgObject': {}, 'id': 'cheerios', 'src': '/static/foodstim60/cheerios.jpg', 'key': 'i', 'origWidth': 409, 'origHeight': 410, 'width': 409, 'height': 410, 'widthPercent': 0.45, 'rescaleHeight': False, 'trialN': 41, 'loaded': True, 'loadedTime': 2448.9000000953674, 'positionName': 'RIGHT', 'positionCoords': [998.4, 335], 'bid': 0.13}]",79037.70000004768,1669836880168,veggieswithdip,cheerios,8.78,0.13,-8.649999999999999,veggieswithdip,884.7999999523163,885,885.1000001430511,True,u,80429.70000004768,1392.0,1669836881560,1392,HRV,HRV_0264,2022-11-30 19:39:00
42,"[{'imgObject': {}, 'id': 'burger', 'src': '/static/foodstim60/burger.jpg', 'key': 'u', 'origWidth': 409, 'origHeight': 409, 'width': 409, 'height': 409, 'widthPercent': 0.45, 'rescaleHeight': False, 'trialN': 42, 'loaded': True, 'loadedTime': 3329.2000000476837, 'positionName': 'LEFT', 'positionCoords': [512.6, 335.5], 'bid': 0.14}, {'imgObject': {}, 'id': 'rigatoni', 'src': '/static/foodstim60/rigatoni.jpg', 'key': 'i', 'origWidth': 411, 'origHeight': 411, 'width': 411, 'height': 411, 'widthPercent': 0.45, 'rescaleHeight': False, 'trialN': 42, 'loaded': True, 'loadedTime': 2403.4000000953674, 'positionName': 'RIGHT', 'positionCoords': [998.4, 334.5], 'bid': 0.21}]",80429.80000019073,1669836881560,burger,rigatoni,0.14,0.21,0.06999999999999998,burger,1364.1999998092651,1365,1364.7999999523163,True,u,82301.80000019073,1872.0,1669836883432,1872,HRV,HRV_0264,2022-11-30 19:39:00
43,"[{'imgObject': {}, 'id': 'turkey sandwich', 'src': '/static/foodstim60/turkey sandwich.jpg', 'key': 'u', 'origWidth': 409, 'origHeight': 409, 'width': 409, 'height': 409, 'widthPercent': 0.45, 'rescaleHeight': False, 'trialN': 43, 'loaded': True, 'loadedTime': 3336.4000000953674, 'positionName': 'LEFT', 'positionCoords': [512.6, 335.5], 'bid': 6.3500000000000005}, {'imgObject': {}, 'id': 'steak', 'src': '/static/foodstim60/steak.jpg', 'key': 'i', 'origWidth': 410, 'origHeight': 410, 'width': 410, 'height': 410, 'widthPercent': 0.45, 'rescaleHeight': False, 'trialN': 43, 'loaded': True, 'loadedTime': 2523.2000000476837, 'positionName': 'RIGHT', 'positionCoords': [998.4, 335], 'bid': 9.92}]",82301.80000019073,1669836883432,turkey sandwich,steak,6.3500000000000005,9.92,3.5699999999999994,steak,1044.1999998092651,1045,1044.6999998092651,True,i,83853.70000004768,1551.8999998569489,1669836884984,1552,HRV,HRV_0264,2022-11-30 19:39:00
44,"[{'imgObject': {}, 'id': 'raspberries', 'src': '/static/foodstim60/raspberries.jpg', 'key': 'u', 'origWidth': 411, 'origHeight': 411, 'width': 411, 'height': 411, 'widthPercent': 0.45, 'rescaleHeight': False, 'trialN': 44, 'loaded': True, 'loadedTime': 2900, 'positionName': 'LEFT', 'positionCoords': [510.6, 334.5], 'bid': 1.55}, {'imgObject': {}, 'id': 'turkeysandwich', 'src': '/static/foodstim60/turkeysandwich.jpg', 'key': 'i', 'origWidth': 409, 'origHeight': 409, 'width': 409, 'height': 409, 'widthPercent': 0.45, 'rescaleHeight': False, 'trialN': 44, 'loaded': True, 'loadedTime': 2953, 'positionName': 'RIGHT', 'positionCoords': [998.4, 335.5], 'bid': 4.94}]",83853.70000004768,1669836884984,raspberries,turkeysandwich,1.55,4.94,3.3900000000000006,turkeysandwich,836.2999999523163,837,836.9000000953674,True,i,85197.80000019073,1344.1000001430511,1669836886328,1344,HRV,HRV_0264,2022-11-30 19:39:00
45,"[{'imgObject': {}, 'id': 'eggsalad', 'src': '/static/foodstim60/eggsalad.jpg', 'key': 'u', 'origWidth': 410, 'origHeight': 409, 'width': 410, 'height': 409, 'widthPercent': 0.45, 'rescaleHeight': False, 'trialN': 45, 'loaded': True, 'loadedTime': 3339.2000000476837, 'positionName': 'LEFT', 'positionCoords': [511.6, 335.5], 'bid': 6}, {'imgObject': {}, 'id': 'popsicles', 'src': '/static/foodstim60/popsicles.jpg', 'key': 'i', 'origWidth': 410, 'origHeight': 410, 'width': 410, 'height': 410, 'widthPercent': 0.45, 'rescaleHeight': False, 'trialN': 45, 'loaded': True, 'loadedTime': 3442.9000000953674, 'positionName': 'RIGHT', 'positionCoords': [998.4, 335], 'bid': 0.12}]",85197.90000009537,1669836886328,eggsalad,popsicles,6.0,0.12,-5.88,eggsalad,1044.0999999046326,1045,1044.5999999046326,True,u,86749.90000009537,1552.0,1669836887880,1552,HRV,HRV_0264,2022-11-30 19:39:00
46,"[{'imgObject': {}, 'id': 'blackbeanswithrice', 'src': '/static/foodstim60/blackbeanswithrice.jpg', 'key': 'u', 'origWidth': 410, 'origHeight': 410, 'width': 410, 'height': 410, 'widthPercent': 0.45, 'rescaleHeight': False, 'trialN': 46, 'loaded': True, 'loadedTime': 2252.800000190735, 'positionName': 'LEFT', 'positionCoords': [511.6, 335], 'bid': 0.01}, {'imgObject': {}, 'id': 'kiwi', 'src': '/static/foodstim60/kiwi.jpg', 'key': 'i', 'origWidth': 410, 'origHeight': 410, 'width': 410, 'height': 410, 'widthPercent': 0.45, 'rescaleHeight': False, 'trialN': 46, 'loaded': True, 'loadedTime': 2469.100000143051, 'positionName': 'RIGHT', 'positionCoords': [998.4, 335], 'bid': 0.12}]",86750.10000014305,1669836887881,blackbeanswithrice,kiwi,0.01,0.12,0.11,blackbeanswithrice,1284.0,1284,1284.3999998569489,True,u,88542.0,1791.8999998569489,1669836889672,1791,HRV,HRV_0264,2022-11-30 19:39:00
47,"[{'imgObject': {}, 'id': 'mango', 'src': '/static/foodstim60/mango.jpg', 'key': 'u', 'origWidth': 411, 'origHeight': 411, 'width': 411, 'height': 411, 'widthPercent': 0.45, 'rescaleHeight': False, 'trialN': 47, 'loaded': True, 'loadedTime': 2716.7000000476837, 'positionName': 'LEFT', 'positionCoords': [510.6, 334.5], 'bid': 4.16}, {'imgObject': {}, 'id': 'Grapes', 'src': '/static/foodstim60/Grapes.jpg', 'key': 'i', 'origWidth': 411, 'origHeight': 411, 'width': 411, 'height': 411, 'widthPercent': 0.45, 'rescaleHeight': False, 'trialN': 47, 'loaded': True, 'loadedTime': 3004.300000190735, 'positionName': 'RIGHT', 'positionCoords': [998.4, 334.5], 'bid': 4.4}]",88542.10000014305,1669836889673,mango,Grapes,4.16,4.4,0.2400000000000002,Grapes,1380.0,1380,1380.5,True,i,90430.10000014305,1888.0,1669836891560,1887,HRV,HRV_0264,2022-11-30 19:39:00
48,"[{'imgObject': {}, 'id': 'lox', 'src': '/static/foodstim60/lox.jpg', 'key': 'u', 'origWidth': 410, 'origHeight': 411, 'width': 410, 'height': 411, 'widthPercent': 0.45, 'rescaleHeight': False, 'trialN': 48, 'loaded': True, 'loadedTime': 2511.100000143051, 'positionName': 'LEFT', 'positionCoords': [511.6, 334.5], 'bid': 0.12}, {'imgObject': {}, 'id': 'apple slices', 'src': '/static/foodstim60/apple slices.jpg', 'key': 'i', 'origWidth': 409, 'origHeight': 410, 'width': 409, 'height': 410, 'widthPercent': 0.45, 'rescaleHeight': False, 'trialN': 48, 'loaded': True, 'loadedTime': 3344.9000000953674, 'positionName': 'RIGHT', 'positionCoords': [998.4, 335], 'bid': 5.46}]",90430.20000004768,1669836891561,lox,apple slices,0.12,5.46,5.34,apple slices,1172.5,1173,1172.9000000953674,True,i,92110.10000014305,1679.9000000953674,1669836893241,1680,HRV,HRV_0264,2022-11-30 19:39:00
49,"[{'imgObject': {}, 'id': 'apple slices', 'src': '/static/foodstim60/apple slices.jpg', 'key': 'u', 'origWidth': 409, 'origHeight': 410, 'width': 409, 'height': 410, 'widthPercent': 0.45, 'rescaleHeight': False, 'trialN': 49, 'loaded': True, 'loadedTime': 3351.9000000953674, 'positionName': 'LEFT', 'positionCoords': [512.6, 335], 'bid': 5.46}, {'imgObject': {}, 'id': 'steak', 'src': '/static/foodstim60/steak.jpg', 'key': 'i', 'origWidth': 410, 'origHeight': 410, 'width': 410, 'height': 410, 'widthPercent': 0.45, 'rescaleHeight': False, 'trialN': 49, 'loaded': True, 'loadedTime': 2560.800000190735, 'positionName': 'RIGHT', 'positionCoords': [998.4, 335], 'bid': 9.92}]",92110.20000004768,1669836893241,apple slices,steak,5.46,9.92,4.46,steak,931.7000000476837,932,932.1000001430511,True,i,93550.20000004768,1440.0,1669836894681,1440,HRV,HRV_0264,2022-11-30 19:39:00
50,"[{'imgObject': {}, 'id': 'granola w milk', 'src': '/static/foodstim60/granola w milk.jpg', 'key': 'u', 'origWidth': 410, 'origHeight': 410, 'width': 410, 'height': 410, 'widthPercent': 0.45, 'rescaleHeight': False, 'trialN': 50, 'loaded': True, 'loadedTime': 2587.4000000953674, 'positionName': 'LEFT', 'positionCoords': [511.6, 335], 'bid': 0.13}, {'imgObject': {}, 'id': 'raspberries', 'src': '/static/foodstim60/raspberries.jpg', 'key': 'i', 'origWidth': 411, 'origHeight': 411, 'width': 411, 'height': 411, 'widthPercent': 0.45, 'rescaleHeight': False, 'trialN': 50, 'loaded': True, 'loadedTime': 2899.2000000476837, 'positionName': 'RIGHT', 'positionCoords': [998.4, 334.5], 'bid': 1.55}]",93550.20000004768,1669836894681,granola w milk,raspberries,0.13,1.55,1.42,raspberries,1091.6000001430511,1093,1093.0,True,i,95150.30000019073,1600.1000001430511,1669836896281,1600,HRV,HRV_0264,2022-11-30 19:39:00
51,"[{'imgObject': {}, 'id': 'ice cream sundae 002', 'src': '/static/foodstim60/ice cream sundae 002.jpg', 'key': 'u', 'origWidth': 409, 'origHeight': 409, 'width': 409, 'height': 409, 'widthPercent': 0.45, 'rescaleHeight': False, 'trialN': 51, 'loaded': True, 'loadedTime': 3362.9000000953674, 'positionName': 'LEFT', 'positionCoords': [512.6, 335.5], 'bid': 0.12}, {'imgObject': {}, 'id': 'pear', 'src': '/static/foodstim60/pear.jpg', 'key': 'i', 'origWidth': 411, 'origHeight': 410, 'width': 411, 'height': 410, 'widthPercent': 0.45, 'rescaleHeight': False, 'trialN': 51, 'loaded': True, 'loadedTime': 3017.300000190735, 'positionName': 'RIGHT', 'positionCoords': [998.4, 335], 'bid': 6.4}]",95150.40000009537,1669836896281,ice cream sundae 002,pear,0.12,6.4,6.28,pear,1075.5,1076,1075.7999999523163,True,i,96734.30000019073,1583.9000000953674,1669836897865,1584,HRV,HRV_0264,2022-11-30 19:39:00
52,"[{'imgObject': {}, 'id': 'chicken nuggets2', 'src': '/static/foodstim60/chicken nuggets2.jpg', 'key': 'u', 'origWidth': 410, 'origHeight': 409, 'width': 410, 'height': 409, 'widthPercent': 0.45, 'rescaleHeight': False, 'trialN': 52, 'loaded': True, 'loadedTime': 3254.5, 'positionName': 'LEFT', 'positionCoords': [511.6, 335.5], 'bid': 5.33}, {'imgObject': {}, 'id': 'omelette', 'src': '/static/foodstim60/omelette.jpg', 'key': 'i', 'origWidth': 410, 'origHeight': 409, 'width': 410, 'height': 409, 'widthPercent': 0.45, 'rescaleHeight': False, 'trialN': 52, 'loaded': True, 'loadedTime': 3161.300000190735, 'positionName': 'RIGHT', 'positionCoords': [998.4, 335.5], 'bid': 2.06}]",96734.40000009537,1669836897865,chicken nuggets2,omelette,5.33,2.06,-3.27,omelette,1475.4000000953674,1476,1475.7999999523163,True,i,98718.40000009537,1984.0,1669836899849,1984,HRV,HRV_0264,2022-11-30 19:39:00
53,"[{'imgObject': {}, 'id': 'pear', 'src': '/static/foodstim60/pear.jpg', 'key': 'u', 'origWidth': 411, 'origHeight': 410, 'width': 411, 'height': 410, 'widthPercent': 0.45, 'rescaleHeight': False, 'trialN': 53, 'loaded': True, 'loadedTime': 3004.9000000953674, 'positionName': 'LEFT', 'positionCoords': [510.6, 335], 'bid': 6.4}, {'imgObject': {}, 'id': 'turkey sandwich', 'src': '/static/foodstim60/turkey sandwich.jpg', 'key': 'i', 'origWidth': 409, 'origHeight': 409, 'width': 409, 'height': 409, 'widthPercent': 0.45, 'rescaleHeight': False, 'trialN': 53, 'loaded': True, 'loadedTime': 3336.2000000476837, 'positionName': 'RIGHT', 'positionCoords': [998.4, 335.5], 'bid': 6.3500000000000005}]",98718.5,1669836899849,pear,turkey sandwich,6.4,6.3500000000000005,-0.04999999999999982,turkey sandwich,1523.3000001907349,1524,1523.8000001907349,True,i,100749.5,2031.0,1669836901880,2031,HRV,HRV_0264,2022-11-30 19:39:00
54,"[{'imgObject': {}, 'id': 'salmon', 'src': '/static/foodstim60/salmon.jpg', 'key': 'u', 'origWidth': 410, 'origHeight': 409, 'width': 410, 'height': 409, 'widthPercent': 0.45, 'rescaleHeight': False, 'trialN': 54, 'loaded': True, 'loadedTime': 3368.300000190735, 'positionName': 'LEFT', 'positionCoords': [511.6, 335.5], 'bid': 0.12}, {'imgObject': {}, 'id': 'luckycharms', 'src': '/static/foodstim60/luckycharms.jpg', 'key': 'i', 'origWidth': 410, 'origHeight': 409, 'width': 410, 'height': 409, 'widthPercent': 0.45, 'rescaleHeight': False, 'trialN': 54, 'loaded': True, 'loadedTime': 2347.2000000476837, 'positionName': 'RIGHT', 'positionCoords': [998.4, 335.5], 'bid': 0.1}]",100749.70000004768,1669836901880,salmon,luckycharms,0.12,0.1,-0.01999999999999999,luckycharms,1364.5,1365,1364.7999999523163,True,i,102621.70000004768,1872.0,1669836903752,1872,HRV,HRV_0264,2022-11-30 19:39:00
55,"[{'imgObject': {}, 'id': 'hashbrowns', 'src': '/static/foodstim60/hashbrowns.jpg', 'key': 'u', 'origWidth': 411, 'origHeight': 410, 'width': 411, 'height': 410, 'widthPercent': 0.45, 'rescaleHeight': False, 'trialN': 55, 'loaded': True, 'loadedTime': 3411.600000143051, 'positionName': 'LEFT', 'positionCoords': [510.6, 335], 'bid': 0.03}, {'imgObject': {}, 'id': 'cherry tomato', 'src': '/static/foodstim60/cherry tomato.jpg', 'key': 'i', 'origWidth': 410, 'origHeight': 410, 'width': 410, 'height': 410, 'widthPercent': 0.45, 'rescaleHeight': False, 'trialN': 55, 'loaded': True, 'loadedTime': 3200.9000000953674, 'positionName': 'RIGHT', 'positionCoords': [998.4, 335], 'bid': 0.12}]",102621.70000004768,1669836903752,hashbrowns,cherry tomato,0.03,0.12,0.09,hashbrowns,1284.1000001430511,1285,1284.6000001430511,True,u,104413.80000019073,1792.1000001430511,1669836905544,1792,HRV,HRV_0264,2022-11-30 19:39:00
56,"[{'imgObject': {}, 'id': 'mac & cheese', 'src': '/static/foodstim60/mac & cheese.jpg', 'key': 'u', 'origWidth': 410, 'origHeight': 410, 'width': 410, 'height': 410, 'widthPercent': 0.45, 'rescaleHeight': False, 'trialN': 56, 'loaded': True, 'loadedTime': 3225.4000000953674, 'positionName': 'LEFT', 'positionCoords': [511.6, 335], 'bid': 9.63}, {'imgObject': {}, 'id': 'veggieswithdip', 'src': '/static/foodstim60/veggieswithdip.jpg', 'key': 'i', 'origWidth': 409, 'origHeight': 409, 'width': 409, 'height': 409, 'widthPercent': 0.45, 'rescaleHeight': False, 'trialN': 56, 'loaded': True, 'loadedTime': 3326.800000190735, 'positionName': 'RIGHT', 'positionCoords': [998.4, 335.5], 'bid': 8.78}]",104413.80000019073,1669836905544,mac & cheese,veggieswithdip,9.63,8.78,-0.8500000000000014,veggieswithdip,1780.0,1781,1780.5999999046326,True,i,106701.80000019073,2288.0,1669836907832,2288,HRV,HRV_0264,2022-11-30 19:39:00
57,"[{'imgObject': {}, 'id': 'burger', 'src': '/static/foodstim60/burger.jpg', 'key': 'u', 'origWidth': 409, 'origHeight': 409, 'width': 409, 'height': 409, 'widthPercent': 0.45, 'rescaleHeight': False, 'trialN': 57, 'loaded': True, 'loadedTime': 3328.7000000476837, 'positionName': 'LEFT', 'positionCoords': [512.6, 335.5], 'bid': 0.14}, {'imgObject': {}, 'id': 'orange slices', 'src': '/static/foodstim60/orange slices.jpg', 'key': 'i', 'origWidth': 409, 'origHeight': 410, 'width': 409, 'height': 410, 'widthPercent': 0.45, 'rescaleHeight': False, 'trialN': 57, 'loaded': True, 'loadedTime': 3262.2000000476837, 'positionName': 'RIGHT', 'positionCoords': [998.4, 335], 'bid': 5.1000000000000005}]",106701.90000009537,1669836907832,burger,orange slices,0.14,5.1000000000000005,4.960000000000001,orange slices,1028.0,1029,1028.5,True,i,108237.80000019073,1535.9000000953674,1669836909368,1536,HRV,HRV_0264,2022-11-30 19:39:00
58,"[{'imgObject': {}, 'id': 'yogurt no spoon', 'src': '/static/foodstim60/yogurt no spoon.jpg', 'key': 'u', 'origWidth': 411, 'origHeight': 410, 'width': 411, 'height': 410, 'widthPercent': 0.45, 'rescaleHeight': False, 'trialN': 58, 'loaded': True, 'loadedTime': 3420.2000000476837, 'positionName': 'LEFT', 'positionCoords': [510.6, 335], 'bid': 0.12}, {'imgObject': {}, 'id': 'cherry tomato', 'src': '/static/foodstim60/cherry tomato.jpg', 'key': 'i', 'origWidth': 410, 'origHeight': 410, 'width': 410, 'height': 410, 'widthPercent': 0.45, 'rescaleHeight': False, 'trialN': 58, 'loaded': True, 'loadedTime': 3207.2000000476837, 'positionName': 'RIGHT', 'positionCoords': [998.4, 335], 'bid': 0.12}]",108238.0,1669836909368,yogurt no spoon,cherry tomato,0.12,0.12,0.0,yogurt no spoon,1779.8000001907349,1781,1780.3000001907349,True,u,110526.0,2288.0,1669836911656,2288,HRV,HRV_0264,2022-11-30 19:39:00
59,"[{'imgObject': {}, 'id': 'yogurt no spoon', 'src': '/static/foodstim60/yogurt no spoon.jpg', 'key': 'u', 'origWidth': 411, 'origHeight': 410, 'width': 411, 'height': 410, 'widthPercent': 0.45, 'rescaleHeight': False, 'trialN': 59, 'loaded': True, 'loadedTime': 3412.4000000953674, 'positionName': 'LEFT', 'positionCoords': [510.6, 335], 'bid': 0.12}, {'imgObject': {}, 'id': 'Tribe humus pita', 'src': '/static/foodstim60/Tribe humus pita.jpg', 'key': 'i', 'origWidth': 411, 'origHeight': 411, 'width': 411, 'height': 411, 'widthPercent': 0.45, 'rescaleHeight': False, 'trialN': 59, 'loaded': True, 'loadedTime': 2355.7000000476837, 'positionName': 'RIGHT', 'positionCoords': [998.4, 334.5], 'bid': 0.06}]",110526.10000014305,1669836911657,yogurt no spoon,Tribe humus pita,0.12,0.06,-0.06,yogurt no spoon,1123.8999998569489,1124,1124.5,True,u,112158.10000014305,1632.0,1669836913289,1632,HRV,HRV_0264,2022-11-30 19:39:00
60,"[{'imgObject': {}, 'id': 'salmon', 'src': '/static/foodstim60/salmon.jpg', 'key': 'u', 'origWidth': 410, 'origHeight': 409, 'width': 410, 'height': 409, 'widthPercent': 0.45, 'rescaleHeight': False, 'trialN': 60, 'loaded': True, 'loadedTime': 3374.9000000953674, 'positionName': 'LEFT', 'positionCoords': [511.6, 335.5], 'bid': 0.12}, {'imgObject': {}, 'id': 'cantaloupe', 'src': '/static/foodstim60/cantaloupe.jpg', 'key': 'i', 'origWidth': 409, 'origHeight': 409, 'width': 409, 'height': 409, 'widthPercent': 0.45, 'rescaleHeight': False, 'trialN': 60, 'loaded': True, 'loadedTime': 2624.9000000953674, 'positionName': 'RIGHT', 'positionCoords': [998.4, 335.5], 'bid': 0.12}]",112158.10000014305,1669836913289,salmon,cantaloupe,0.12,0.12,0.0,salmon,2116.399999856949,2116,2116.899999856949,True,u,114782.10000014305,2624.0,1669836915913,2624,HRV,HRV_0264,2022-11-30 19:39:00
61,"[{'imgObject': {}, 'id': 'raisin bran w milk', 'src': '/static/foodstim60/raisin bran w milk.jpg', 'key': 'u', 'origWidth': 411, 'origHeight': 411, 'width': 411, 'height': 411, 'widthPercent': 0.45, 'rescaleHeight': False, 'trialN': 61, 'loaded': True, 'loadedTime': 3424.300000190735, 'positionName': 'LEFT', 'positionCoords': [510.6, 334.5], 'bid': 0.38}, {'imgObject': {}, 'id': 'mashed potato', 'src': '/static/foodstim60/mashed potato.jpg', 'key': 'i', 'origWidth': 409, 'origHeight': 409, 'width': 409, 'height': 409, 'widthPercent': 0.45, 'rescaleHeight': False, 'trialN': 61, 'loaded': True, 'loadedTime': 2830.7000000476837, 'positionName': 'RIGHT', 'positionCoords': [998.4, 335.5], 'bid': 0.59}]",114782.30000019073,1669836915913,raisin bran w milk,mashed potato,0.38,0.59,0.20999999999999996,mashed potato,1091.2999999523163,1091,1091.6999998092651,True,i,116382.10000014305,1599.7999999523163,1669836917513,1600,HRV,HRV_0264,2022-11-30 19:39:00
62,"[{'imgObject': {}, 'id': 'froot loops w milk', 'src': '/static/foodstim60/froot loops w milk.jpg', 'key': 'u', 'origWidth': 410, 'origHeight': 410, 'width': 410, 'height': 410, 'widthPercent': 0.45, 'rescaleHeight': False, 'trialN': 62, 'loaded': True, 'loadedTime': 3319.600000143051, 'positionName': 'LEFT', 'positionCoords': [511.6, 335], 'bid': 0.09}, {'imgObject': {}, 'id': 'avocado', 'src': '/static/foodstim60/avocado.jpg', 'key': 'i', 'origWidth': 409, 'origHeight': 409, 'width': 409, 'height': 409, 'widthPercent': 0.45, 'rescaleHeight': False, 'trialN': 62, 'loaded': True, 'loadedTime': 2777.5, 'positionName': 'RIGHT', 'positionCoords': [998.4, 335.5], 'bid': 0.07}]",116382.30000019073,1669836917513,froot loops w milk,avocado,0.09,0.07,-0.01999999999999999,froot loops w milk,867.2999999523163,867,867.6999998092651,True,u,117758.30000019073,1376.0,1669836918889,1376,HRV,HRV_0264,2022-11-30 19:39:00
63,"[{'imgObject': {}, 'id': 'granola w milk', 'src': '/static/foodstim60/granola w milk.jpg', 'key': 'u', 'origWidth': 410, 'origHeight': 410, 'width': 410, 'height': 410, 'widthPercent': 0.45, 'rescaleHeight': False, 'trialN': 63, 'loaded': True, 'loadedTime': 2573.300000190735, 'positionName': 'LEFT', 'positionCoords': [511.6, 335], 'bid': 0.13}, {'imgObject': {}, 'id': 'burger', 'src': '/static/foodstim60/burger.jpg', 'key': 'i', 'origWidth': 409, 'origHeight': 409, 'width': 409, 'height': 409, 'widthPercent': 0.45, 'rescaleHeight': False, 'trialN': 63, 'loaded': True, 'loadedTime': 3327.4000000953674, 'positionName': 'RIGHT', 'positionCoords': [998.4, 335.5], 'bid': 0.14}]",117758.30000019073,1669836918889,granola w milk,burger,0.13,0.14,0.010000000000000009,granola w milk,1155.2999999523163,1155,1155.5999999046326,True,u,119422.40000009537,1664.0999999046326,1669836920553,1664,HRV,HRV_0264,2022-11-30 19:39:00
64,"[{'imgObject': {}, 'id': 'edamame', 'src': '/static/foodstim60/edamame.jpg', 'key': 'u', 'origWidth': 409, 'origHeight': 410, 'width': 409, 'height': 410, 'widthPercent': 0.45, 'rescaleHeight': False, 'trialN': 64, 'loaded': True, 'loadedTime': 2813.300000190735, 'positionName': 'LEFT', 'positionCoords': [512.6, 335], 'bid': 0.12}, {'imgObject': {}, 'id': 'rigatoni', 'src': '/static/foodstim60/rigatoni.jpg', 'key': 'i', 'origWidth': 411, 'origHeight': 411, 'width': 411, 'height': 411, 'widthPercent': 0.45, 'rescaleHeight': False, 'trialN': 64, 'loaded': True, 'loadedTime': 2385.800000190735, 'positionName': 'RIGHT', 'positionCoords': [998.4, 334.5], 'bid': 0.21}]",119422.5,1669836920553,edamame,rigatoni,0.12,0.21,0.09,rigatoni,2755.100000143051,2756,2755.600000143051,True,i,122686.40000009537,3263.9000000953674,1669836923817,3264,HRV,HRV_0264,2022-11-30 19:39:00
65,"[{'imgObject': {}, 'id': 'cherries', 'src': '/static/foodstim60/cherries.jpg', 'key': 'u', 'origWidth': 410, 'origHeight': 411, 'width': 410, 'height': 411, 'widthPercent': 0.45, 'rescaleHeight': False, 'trialN': 65, 'loaded': True, 'loadedTime': 3428.4000000953674, 'positionName': 'LEFT', 'positionCoords': [511.6, 334.5], 'bid': 0.03}, {'imgObject': {}, 'id': 'strawberries', 'src': '/static/foodstim60/strawberries.jpg', 'key': 'i', 'origWidth': 410, 'origHeight': 410, 'width': 410, 'height': 410, 'widthPercent': 0.45, 'rescaleHeight': False, 'trialN': 65, 'loaded': True, 'loadedTime': 2292.7000000476837, 'positionName': 'RIGHT', 'positionCoords': [998.4, 335], 'bid': 0.1}]",122686.5,1669836923817,cherries,strawberries,0.03,0.1,0.07,cherries,2547.5,2548,2547.9000000953674,True,u,125741.70000004768,3055.2000000476837,1669836926872,3055,HRV,HRV_0264,2022-11-30 19:39:00
66,"[{'imgObject': {}, 'id': 'bagel plain', 'src': '/static/foodstim60/bagel plain.jpg', 'key': 'u', 'origWidth': 410, 'origHeight': 410, 'width': 410, 'height': 410, 'widthPercent': 0.45, 'rescaleHeight': False, 'trialN': 66, 'loaded': True, 'loadedTime': 3431.600000143051, 'positionName': 'LEFT', 'positionCoords': [511.6, 335], 'bid': 0.59}, {'imgObject': {}, 'id': 'shreddedwheatwithmilk', 'src': '/static/foodstim60/shreddedwheatwithmilk.jpg', 'key': 'i', 'origWidth': 410, 'origHeight': 410, 'width': 410, 'height': 410, 'widthPercent': 0.45, 'rescaleHeight': False, 'trialN': 66, 'loaded': True, 'loadedTime': 2411.600000143051, 'positionName': 'RIGHT', 'positionCoords': [998.4, 335], 'bid': 0.12}]",125741.80000019073,1669836926872,bagel plain,shreddedwheatwithmilk,0.59,0.12,-0.47,bagel plain,1059.7999999523163,1060,1060.1999998092651,True,u,127309.80000019073,1568.0,1669836928440,1568,HRV,HRV_0264,2022-11-30 19:39:00
67,"[{'imgObject': {}, 'id': 'cherries', 'src': '/static/foodstim60/cherries.jpg', 'key': 'u', 'origWidth': 410, 'origHeight': 411, 'width': 410, 'height': 411, 'widthPercent': 0.45, 'rescaleHeight': False, 'trialN': 67, 'loaded': True, 'loadedTime': 3426.800000190735, 'positionName': 'LEFT', 'positionCoords': [511.6, 334.5], 'bid': 0.03}, {'imgObject': {}, 'id': 'mashed potato', 'src': '/static/foodstim60/mashed potato.jpg', 'key': 'i', 'origWidth': 409, 'origHeight': 409, 'width': 409, 'height': 409, 'widthPercent': 0.45, 'rescaleHeight': False, 'trialN': 67, 'loaded': True, 'loadedTime': 2821.9000000953674, 'positionName': 'RIGHT', 'positionCoords': [998.4, 335.5], 'bid': 0.59}]",127309.90000009537,1669836928440,cherries,mashed potato,0.03,0.59,0.5599999999999999,mashed potato,835.5,836,836.0,True,i,128653.70000004768,1343.7999999523163,1669836929784,1344,HRV,HRV_0264,2022-11-30 19:39:00
68,"[{'imgObject': {}, 'id': 'veggieswithdip', 'src': '/static/foodstim60/veggieswithdip.jpg', 'key': 'u', 'origWidth': 409, 'origHeight': 409, 'width': 409, 'height': 409, 'widthPercent': 0.45, 'rescaleHeight': False, 'trialN': 68, 'loaded': True, 'loadedTime': 3326.2000000476837, 'positionName': 'LEFT', 'positionCoords': [512.6, 335.5], 'bid': 8.78}, {'imgObject': {}, 'id': 'corn cob', 'src': '/static/foodstim60/corn cob.jpg', 'key': 'i', 'origWidth': 411, 'origHeight': 411, 'width': 411, 'height': 411, 'widthPercent': 0.45, 'rescaleHeight': False, 'trialN': 68, 'loaded': True, 'loadedTime': 3291.600000143051, 'positionName': 'RIGHT', 'positionCoords': [998.4, 334.5], 'bid': 2.94}]",128653.90000009537,1669836929784,veggieswithdip,corn cob,8.78,2.94,-5.84,veggieswithdip,1075.9000000953674,1077,1076.5,True,u,130237.80000019073,1583.9000000953674,1669836931368,1584,HRV,HRV_0264,2022-11-30 19:39:00
69,"[{'imgObject': {}, 'id': 'orange slices', 'src': '/static/foodstim60/orange slices.jpg', 'key': 'u', 'origWidth': 409, 'origHeight': 410, 'width': 409, 'height': 410, 'widthPercent': 0.45, 'rescaleHeight': False, 'trialN': 69, 'loaded': True, 'loadedTime': 3273.9000000953674, 'positionName': 'LEFT', 'positionCoords': [512.6, 335], 'bid': 5.1000000000000005}, {'imgObject': {}, 'id': 'rigatoni and sauce', 'src': '/static/foodstim60/rigatoni and sauce.jpg', 'key': 'i', 'origWidth': 410, 'origHeight': 411, 'width': 410, 'height': 411, 'widthPercent': 0.45, 'rescaleHeight': False, 'trialN': 69, 'loaded': True, 'loadedTime': 2922.2000000476837, 'positionName': 'RIGHT', 'positionCoords': [998.4, 334.5], 'bid': 1.72}]",130238.0,1669836931368,orange slices,rigatoni and sauce,5.1000000000000005,1.72,-3.380000000000001,orange slices,723.8000001907349,725,724.1000001430511,True,u,131469.90000009537,1231.9000000953674,1669836932600,1232,HRV,HRV_0264,2022-11-30 19:39:00
70,"[{'imgObject': {}, 'id': 'blueberries', 'src': '/static/foodstim60/blueberries.jpg', 'key': 'u', 'origWidth': 411, 'origHeight': 411, 'width': 411, 'height': 411, 'widthPercent': 0.45, 'rescaleHeight': False, 'trialN': 70, 'loaded': True, 'loadedTime': 2880.300000190735, 'positionName': 'LEFT', 'positionCoords': [510.6, 334.5], 'bid': 0.13}, {'imgObject': {}, 'id': 'fried eggs', 'src': '/static/foodstim60/fried eggs.jpg', 'key': 'i', 'origWidth': 410, 'origHeight': 410, 'width': 410, 'height': 410, 'widthPercent': 0.45, 'rescaleHeight': False, 'trialN': 70, 'loaded': True, 'loadedTime': 3025.9000000953674, 'positionName': 'RIGHT', 'positionCoords': [998.4, 335], 'bid': 1.53}]",131470.0,1669836932600,blueberries,fried eggs,0.13,1.53,1.4,fried eggs,835.8000001907349,837,836.2000000476837,True,i,132814.0,1344.0,1669836933944,1344,HRV,HRV_0264,2022-11-30 19:39:00
71,"[{'imgObject': {}, 'id': 'hashbrowns', 'src': '/static/foodstim60/hashbrowns.jpg', 'key': 'u', 'origWidth': 411, 'origHeight': 410, 'width': 411, 'height': 410, 'widthPercent': 0.45, 'rescaleHeight': False, 'trialN': 71, 'loaded': True, 'loadedTime': 3412, 'positionName': 'LEFT', 'positionCoords': [510.6, 335], 'bid': 0.03}, {'imgObject': {}, 'id': 'seaweed', 'src': '/static/foodstim60/seaweed.jpg', 'key': 'i', 'origWidth': 410, 'origHeight': 410, 'width': 410, 'height': 410, 'widthPercent': 0.45, 'rescaleHeight': False, 'trialN': 71, 'loaded': True, 'loadedTime': 3143.5, 'positionName': 'RIGHT', 'positionCoords': [998.4, 335], 'bid': 0.08}]",132814.0,1669836933945,hashbrowns,seaweed,0.03,0.08,0.05,hashbrowns,931.8000001907349,932,932.4000000953674,True,u,134254.0,1440.0,1669836935384,1439,HRV,HRV_0264,2022-11-30 19:39:00
72,"[{'imgObject': {}, 'id': 'chickenfingers', 'src': '/static/foodstim60/chickenfingers.jpg', 'key': 'u', 'origWidth': 410, 'origHeight': 410, 'width': 410, 'height': 410, 'widthPercent': 0.45, 'rescaleHeight': False, 'trialN': 72, 'loaded': True, 'loadedTime': 3126.800000190735, 'positionName': 'LEFT', 'positionCoords': [511.6, 335], 'bid': 9.95}, {'imgObject': {}, 'id': 'steak', 'src': '/static/foodstim60/steak.jpg', 'key': 'i', 'origWidth': 410, 'origHeight': 410, 'width': 410, 'height': 410, 'widthPercent': 0.45, 'rescaleHeight': False, 'trialN': 72, 'loaded': True, 'loadedTime': 2569.4000000953674, 'positionName': 'RIGHT', 'positionCoords': [998.4, 335], 'bid': 9.92}]",134254.10000014305,1669836935385,chickenfingers,steak,9.95,9.92,-0.02999999999999936,steak,2020.0999999046326,2020,2020.5,True,i,136782.10000014305,2528.0,1669836937913,2528,HRV,HRV_0264,2022-11-30 19:39:00
73,"[{'imgObject': {}, 'id': 'eggs', 'src': '/static/foodstim60/eggs.jpg', 'key': 'u', 'origWidth': 409, 'origHeight': 409, 'width': 409, 'height': 409, 'widthPercent': 0.45, 'rescaleHeight': False, 'trialN': 73, 'loaded': True, 'loadedTime': 3193.5, 'positionName': 'LEFT', 'positionCoords': [512.6, 335.5], 'bid': 5.8500000000000005}, {'imgObject': {}, 'id': 'apple slices', 'src': '/static/foodstim60/apple slices.jpg', 'key': 'i', 'origWidth': 409, 'origHeight': 410, 'width': 409, 'height': 410, 'widthPercent': 0.45, 'rescaleHeight': False, 'trialN': 73, 'loaded': True, 'loadedTime': 3346.2000000476837, 'positionName': 'RIGHT', 'positionCoords': [998.4, 335], 'bid': 5.46}]",136782.20000004768,1669836937913,eggs,apple slices,5.8500000000000005,5.46,-0.39000000000000057,apple slices,1427.6000001430511,1428,1428.0,True,i,138718.10000014305,1935.9000000953674,1669836939849,1936,HRV,HRV_0264,2022-11-30 19:39:00
74,"[{'imgObject': {}, 'id': 'fried eggs', 'src': '/static/foodstim60/fried eggs.jpg', 'key': 'u', 'origWidth': 410, 'origHeight': 410, 'width': 410, 'height': 410, 'widthPercent': 0.45, 'rescaleHeight': False, 'trialN': 74, 'loaded': True, 'loadedTime': 3026.300000190735, 'positionName': 'LEFT', 'positionCoords': [511.6, 335], 'bid': 1.53}, {'imgObject': {}, 'id': 'turkey sandwich', 'src': '/static/foodstim60/turkey sandwich.jpg', 'key': 'i', 'origWidth': 409, 'origHeight': 409, 'width': 409, 'height': 409, 'widthPercent': 0.45, 'rescaleHeight': False, 'trialN': 74, 'loaded': True, 'loadedTime': 3336.7000000476837, 'positionName': 'RIGHT', 'positionCoords': [998.4, 335.5], 'bid': 6.3500000000000005}]",138718.30000019073,1669836939849,fried eggs,turkey sandwich,1.53,6.3500000000000005,4.82,turkey sandwich,1203.0999999046326,1203,1203.5999999046326,True,i,140430.20000004768,1711.8999998569489,1669836941561,1712,HRV,HRV_0264,2022-11-30 19:39:00
75,"[{'imgObject': {}, 'id': 'cherries', 'src': '/static/foodstim60/cherries.jpg', 'key': 'u', 'origWidth': 410, 'origHeight': 411, 'width': 410, 'height': 411, 'widthPercent': 0.45, 'rescaleHeight': False, 'trialN': 75, 'loaded': True, 'loadedTime': 3424.600000143051, 'positionName': 'LEFT', 'positionCoords': [511.6, 334.5], 'bid': 0.03}, {'imgObject': {}, 'id': 'froot loops w milk', 'src': '/static/foodstim60/froot loops w milk.jpg', 'key': 'i', 'origWidth': 410, 'origHeight': 410, 'width': 410, 'height': 410, 'widthPercent': 0.45, 'rescaleHeight': False, 'trialN': 75, 'loaded': True, 'loadedTime': 3319.800000190735, 'positionName': 'RIGHT', 'positionCoords': [998.4, 335], 'bid': 0.09}]",140430.40000009537,1669836941561,cherries,froot loops w milk,0.03,0.09,0.06,froot loops w milk,946.9000000953674,947,947.4000000953674,True,i,141886.30000019073,1455.9000000953674,1669836943017,1456,HRV,HRV_0264,2022-11-30 19:39:00
76,"[{'imgObject': {}, 'id': 'kiwi', 'src': '/static/foodstim60/kiwi.jpg', 'key': 'u', 'origWidth': 410, 'origHeight': 410, 'width': 410, 'height': 410, 'widthPercent': 0.45, 'rescaleHeight': False, 'trialN': 76, 'loaded': True, 'loadedTime': 2472.800000190735, 'positionName': 'LEFT', 'positionCoords': [511.6, 335], 'bid': 0.12}, {'imgObject': {}, 'id': 'yogurt no spoon', 'src': '/static/foodstim60/yogurt no spoon.jpg', 'key': 'i', 'origWidth': 411, 'origHeight': 410, 'width': 411, 'height': 410, 'widthPercent': 0.45, 'rescaleHeight': False, 'trialN': 76, 'loaded': True, 'loadedTime': 3420.100000143051, 'positionName': 'RIGHT', 'positionCoords': [998.4, 335], 'bid': 0.12}]",141886.40000009537,1669836943017,kiwi,yogurt no spoon,0.12,0.12,0.0,yogurt no spoon,963.0,963,963.4000000953674,True,i,143358.40000009537,1472.0,1669836944489,1472,HRV,HRV_0264,2022-11-30 19:39:00
77,"[{'imgObject': {}, 'id': 'sushi w_condiments', 'src': '/static/foodstim60/sushi w_condiments.jpg', 'key': 'u', 'origWidth': 410, 'origHeight': 410, 'width': 410, 'height': 410, 'widthPercent': 0.45, 'rescaleHeight': False, 'trialN': 77, 'loaded': True, 'loadedTime': 2157.2000000476837, 'positionName': 'LEFT', 'positionCoords': [511.6, 335], 'bid': 0}, {'imgObject': {}, 'id': 'burger', 'src': '/static/foodstim60/burger.jpg', 'key': 'i', 'origWidth': 409, 'origHeight': 409, 'width': 409, 'height': 409, 'widthPercent': 0.45, 'rescaleHeight': False, 'trialN': 77, 'loaded': True, 'loadedTime': 3329, 'positionName': 'RIGHT', 'positionCoords': [998.4, 335.5], 'bid': 0.14}]",143358.5,1669836944489,sushi w_condiments,burger,0.0,0.14,0.14,burger,1251.0,1251,1251.5,True,i,145119.80000019073,1761.3000001907349,1669836946250,1761,HRV,HRV_0264,2022-11-30 19:39:00
78,"[{'imgObject': {}, 'id': 'sushi w_condiments', 'src': '/static/foodstim60/sushi w_condiments.jpg', 'key': 'u', 'origWidth': 410, 'origHeight': 410, 'width': 410, 'height': 410, 'widthPercent': 0.45, 'rescaleHeight': False, 'trialN': 78, 'loaded': True, 'loadedTime': 2161.9000000953674, 'positionName': 'LEFT', 'positionCoords': [511.6, 335], 'bid': 0}, {'imgObject': {}, 'id': 'tacos', 'src': '/static/foodstim60/tacos.jpg', 'key': 'i', 'origWidth': 411, 'origHeight': 411, 'width': 411, 'height': 411, 'widthPercent': 0.45, 'rescaleHeight': False, 'trialN': 78, 'loaded': True, 'loadedTime': 2222, 'positionName': 'RIGHT', 'positionCoords': [998.4, 334.5], 'bid': 0.02}]",145120.0,1669836946250,sushi w_condiments,tacos,0.0,0.02,0.02,tacos,1202.0,1204,1202.7000000476837,True,i,146829.60000014305,1709.6000001430511,1669836947961,1711,HRV,HRV_0264,2022-11-30 19:39:00
79,"[{'imgObject': {}, 'id': 'turkeysandwich', 'src': '/static/foodstim60/turkeysandwich.jpg', 'key': 'u', 'origWidth': 409, 'origHeight': 409, 'width': 409, 'height': 409, 'widthPercent': 0.45, 'rescaleHeight': False, 'trialN': 79, 'loaded': True, 'loadedTime': 2953.5, 'positionName': 'LEFT', 'positionCoords': [512.6, 335.5], 'bid': 4.94}, {'imgObject': {}, 'id': 'chicken nuggets2', 'src': '/static/foodstim60/chicken nuggets2.jpg', 'key': 'i', 'origWidth': 410, 'origHeight': 409, 'width': 410, 'height': 409, 'widthPercent': 0.45, 'rescaleHeight': False, 'trialN': 79, 'loaded': True, 'loadedTime': 3254.800000190735, 'positionName': 'RIGHT', 'positionCoords': [998.4, 335.5], 'bid': 5.33}]",146829.70000004768,1669836947961,turkeysandwich,chicken nuggets2,4.94,5.33,0.3899999999999997,turkeysandwich,1475.9000000953674,1477,1476.5,True,u,148813.70000004768,1984.0,1669836949945,1984,HRV,HRV_0264,2022-11-30 19:39:00
80,"[{'imgObject': {}, 'id': 'banana', 'src': '/static/foodstim60/banana.jpg', 'key': 'u', 'origWidth': 410, 'origHeight': 410, 'width': 410, 'height': 410, 'widthPercent': 0.45, 'rescaleHeight': False, 'trialN': 80, 'loaded': True, 'loadedTime': 3434.2000000476837, 'positionName': 'LEFT', 'positionCoords': [511.6, 335], 'bid': 5.44}, {'imgObject': {}, 'id': 'corn cob', 'src': '/static/foodstim60/corn cob.jpg', 'key': 'i', 'origWidth': 411, 'origHeight': 411, 'width': 411, 'height': 411, 'widthPercent': 0.45, 'rescaleHeight': False, 'trialN': 80, 'loaded': True, 'loadedTime': 3281.300000190735, 'positionName': 'RIGHT', 'positionCoords': [998.4, 334.5], 'bid': 2.94}]",148813.80000019073,1669836949946,banana,corn cob,5.44,2.94,-2.5000000000000004,banana,1411.3999998569489,1411,1411.8999998569489,True,u,150733.70000004768,1919.8999998569489,1669836951866,1920,HRV,HRV_0264,2022-11-30 19:39:00
81,"[{'imgObject': {}, 'id': 'tacos', 'src': '/static/foodstim60/tacos.jpg', 'key': 'u', 'origWidth': 411, 'origHeight': 411, 'width': 411, 'height': 411, 'widthPercent': 0.45, 'rescaleHeight': False, 'trialN': 81, 'loaded': True, 'loadedTime': 2203.300000190735, 'positionName': 'LEFT', 'positionCoords': [510.6, 334.5], 'bid': 0.02}, {'imgObject': {}, 'id': 'hotdog w must', 'src': '/static/foodstim60/hotdog w must.jpg', 'key': 'i', 'origWidth': 409, 'origHeight': 409, 'width': 409, 'height': 409, 'widthPercent': 0.45, 'rescaleHeight': False, 'trialN': 81, 'loaded': True, 'loadedTime': 2760.100000143051, 'positionName': 'RIGHT', 'positionCoords': [998.4, 335.5], 'bid': 0.06}]",150733.80000019073,1669836951866,tacos,hotdog w must,0.02,0.06,0.039999999999999994,hotdog w must,1411.8999998569489,1412,1412.3999998569489,True,i,152653.80000019073,1920.0,1669836953786,1920,HRV,HRV_0264,2022-11-30 19:39:00
82,"[{'imgObject': {}, 'id': 'luckycharms', 'src': '/static/foodstim60/luckycharms.jpg', 'key': 'u', 'origWidth': 410, 'origHeight': 409, 'width': 410, 'height': 409, 'widthPercent': 0.45, 'rescaleHeight': False, 'trialN': 82, 'loaded': True, 'loadedTime': 2339.800000190735, 'positionName': 'LEFT', 'positionCoords': [511.6, 335.5], 'bid': 0.1}, {'imgObject': {}, 'id': 'turkeysandwich', 'src': '/static/foodstim60/turkeysandwich.jpg', 'key': 'i', 'origWidth': 409, 'origHeight': 409, 'width': 409, 'height': 409, 'widthPercent': 0.45, 'rescaleHeight': False, 'trialN': 82, 'loaded': True, 'loadedTime': 2953.300000190735, 'positionName': 'RIGHT', 'positionCoords': [998.4, 335.5], 'bid': 4.94}]",152654.0,1669836953786,luckycharms,turkeysandwich,0.1,4.94,4.840000000000001,turkeysandwich,1043.3000001907349,1043,1043.5,True,i,154205.90000009537,1551.9000000953674,1669836955338,1552,HRV,HRV_0264,2022-11-30 19:39:00
83,"[{'imgObject': {}, 'id': 'yogurt no spoon', 'src': '/static/foodstim60/yogurt no spoon.jpg', 'key': 'u', 'origWidth': 411, 'origHeight': 410, 'width': 411, 'height': 410, 'widthPercent': 0.45, 'rescaleHeight': False, 'trialN': 83, 'loaded': True, 'loadedTime': 3419.5, 'positionName': 'LEFT', 'positionCoords': [510.6, 335], 'bid': 0.12}, {'imgObject': {}, 'id': 'ice cream sundae 002', 'src': '/static/foodstim60/ice cream sundae 002.jpg', 'key': 'i', 'origWidth': 409, 'origHeight': 409, 'width': 409, 'height': 409, 'widthPercent': 0.45, 'rescaleHeight': False, 'trialN': 83, 'loaded': True, 'loadedTime': 3358, 'positionName': 'RIGHT', 'positionCoords': [998.4, 335.5], 'bid': 0.12}]",154206.0,1669836955338,yogurt no spoon,ice cream sundae 002,0.12,0.12,0.0,yogurt no spoon,1267.4000000953674,1268,1267.9000000953674,True,u,155982.0,1776.0,1669836957114,1776,HRV,HRV_0264,2022-11-30 19:39:00
84,"[{'imgObject': {}, 'id': 'cheerios', 'src': '/static/foodstim60/cheerios.jpg', 'key': 'u', 'origWidth': 409, 'origHeight': 410, 'width': 409, 'height': 410, 'widthPercent': 0.45, 'rescaleHeight': False, 'trialN': 84, 'loaded': True, 'loadedTime': 2457.300000190735, 'positionName': 'LEFT', 'positionCoords': [512.6, 335], 'bid': 0.13}, {'imgObject': {}, 'id': 'bagel and cc', 'src': '/static/foodstim60/bagel and cc.jpg', 'key': 'i', 'origWidth': 410, 'origHeight': 410, 'width': 410, 'height': 410, 'widthPercent': 0.45, 'rescaleHeight': False, 'trialN': 84, 'loaded': True, 'loadedTime': 2695.5, 'positionName': 'RIGHT', 'positionCoords': [998.4, 335], 'bid': 1.07}]",155982.10000014305,1669836957114,cheerios,bagel and cc,0.13,1.07,0.9400000000000001,cheerios,1939.3999998569489,1940,1939.8999998569489,True,u,158430.10000014305,2448.0,1669836959562,2448,HRV,HRV_0264,2022-11-30 19:39:00
85,"[{'imgObject': {}, 'id': 'olives', 'src': '/static/foodstim60/olives.jpg', 'key': 'u', 'origWidth': 410, 'origHeight': 410, 'width': 410, 'height': 410, 'widthPercent': 0.45, 'rescaleHeight': False, 'trialN': 85, 'loaded': True, 'loadedTime': 2867.300000190735, 'positionName': 'LEFT', 'positionCoords': [511.6, 335], 'bid': 0.09}, {'imgObject': {}, 'id': 'tacos', 'src': '/static/foodstim60/tacos.jpg', 'key': 'i', 'origWidth': 411, 'origHeight': 411, 'width': 411, 'height': 411, 'widthPercent': 0.45, 'rescaleHeight': False, 'trialN': 85, 'loaded': True, 'loadedTime': 2208.600000143051, 'positionName': 'RIGHT', 'positionCoords': [998.4, 334.5], 'bid': 0.02}]",158430.20000004768,1669836959562,olives,tacos,0.09,0.02,-0.06999999999999999,tacos,1187.2999999523163,1188,1187.6000001430511,True,i,160126.20000004768,1696.0,1669836961258,1696,HRV,HRV_0264,2022-11-30 19:39:00
86,"[{'imgObject': {}, 'id': 'seaweed', 'src': '/static/foodstim60/seaweed.jpg', 'key': 'u', 'origWidth': 410, 'origHeight': 410, 'width': 410, 'height': 410, 'widthPercent': 0.45, 'rescaleHeight': False, 'trialN': 86, 'loaded': True, 'loadedTime': 3130.5, 'positionName': 'LEFT', 'positionCoords': [511.6, 335], 'bid': 0.08}, {'imgObject': {}, 'id': 'edamame', 'src': '/static/foodstim60/edamame.jpg', 'key': 'i', 'origWidth': 409, 'origHeight': 410, 'width': 409, 'height': 410, 'widthPercent': 0.45, 'rescaleHeight': False, 'trialN': 86, 'loaded': True, 'loadedTime': 2818, 'positionName': 'RIGHT', 'positionCoords': [998.4, 335], 'bid': 0.12}]",160126.30000019073,1669836961258,seaweed,edamame,0.08,0.12,0.039999999999999994,edamame,1778.8999998569489,1779,1779.1999998092651,True,i,162414.20000004768,2287.899999856949,1669836963546,2288,HRV,HRV_0264,2022-11-30 19:39:00
87,"[{'imgObject': {}, 'id': 'bagel plain', 'src': '/static/foodstim60/bagel plain.jpg', 'key': 'u', 'origWidth': 410, 'origHeight': 410, 'width': 410, 'height': 410, 'widthPercent': 0.45, 'rescaleHeight': False, 'trialN': 87, 'loaded': True, 'loadedTime': 3431.2000000476837, 'positionName': 'LEFT', 'positionCoords': [511.6, 335], 'bid': 0.59}, {'imgObject': {}, 'id': 'granola w milk', 'src': '/static/foodstim60/granola w milk.jpg', 'key': 'i', 'origWidth': 410, 'origHeight': 410, 'width': 410, 'height': 410, 'widthPercent': 0.45, 'rescaleHeight': False, 'trialN': 87, 'loaded': True, 'loadedTime': 2583.100000143051, 'positionName': 'RIGHT', 'positionCoords': [998.4, 335], 'bid': 0.13}]",162414.30000019073,1669836963546,bagel plain,granola w milk,0.59,0.13,-0.45999999999999996,bagel plain,963.0,964,963.3999998569489,True,u,163886.30000019073,1472.0,1669836965018,1472,HRV,HRV_0264,2022-11-30 19:39:00
88,"[{'imgObject': {}, 'id': 'cantaloupe', 'src': '/static/foodstim60/cantaloupe.jpg', 'key': 'u', 'origWidth': 409, 'origHeight': 409, 'width': 409, 'height': 409, 'widthPercent': 0.45, 'rescaleHeight': False, 'trialN': 88, 'loaded': True, 'loadedTime': 2628.9000000953674, 'positionName': 'LEFT', 'positionCoords': [512.6, 335.5], 'bid': 0.12}, {'imgObject': {}, 'id': 'Tribe humus pita', 'src': '/static/foodstim60/Tribe humus pita.jpg', 'key': 'i', 'origWidth': 411, 'origHeight': 411, 'width': 411, 'height': 411, 'widthPercent': 0.45, 'rescaleHeight': False, 'trialN': 88, 'loaded': True, 'loadedTime': 2351.9000000953674, 'positionName': 'RIGHT', 'positionCoords': [998.4, 334.5], 'bid': 0.06}]",163886.40000009537,1669836965018,cantaloupe,Tribe humus pita,0.12,0.06,-0.06,Tribe humus pita,2306.9000000953674,2308,2307.4000000953674,True,i,166702.40000009537,2816.0,1669836967834,2816,HRV,HRV_0264,2022-11-30 19:39:00
89,"[{'imgObject': {}, 'id': 'cherries', 'src': '/static/foodstim60/cherries.jpg', 'key': 'u', 'origWidth': 410, 'origHeight': 411, 'width': 410, 'height': 411, 'widthPercent': 0.45, 'rescaleHeight': False, 'trialN': 89, 'loaded': True, 'loadedTime': 3427.600000143051, 'positionName': 'LEFT', 'positionCoords': [511.6, 334.5], 'bid': 0.03}, {'imgObject': {}, 'id': 'Tribe humus pita', 'src': '/static/foodstim60/Tribe humus pita.jpg', 'key': 'i', 'origWidth': 411, 'origHeight': 411, 'width': 411, 'height': 411, 'widthPercent': 0.45, 'rescaleHeight': False, 'trialN': 89, 'loaded': True, 'loadedTime': 2359.100000143051, 'positionName': 'RIGHT', 'positionCoords': [998.4, 334.5], 'bid': 0.06}]",166702.5,1669836967834,cherries,Tribe humus pita,0.03,0.06,0.03,Tribe humus pita,1555.4000000953674,1556,1555.7000000476837,True,i,168766.5,2064.0,1669836969898,2064,HRV,HRV_0264,2022-11-30 19:39:00
90,"[{'imgObject': {}, 'id': 'blueberries', 'src': '/static/foodstim60/blueberries.jpg', 'key': 'u', 'origWidth': 411, 'origHeight': 411, 'width': 411, 'height': 411, 'widthPercent': 0.45, 'rescaleHeight': False, 'trialN': 90, 'loaded': True, 'loadedTime': 2879.800000190735, 'positionName': 'LEFT', 'positionCoords': [510.6, 334.5], 'bid': 0.13}, {'imgObject': {}, 'id': 'edamame', 'src': '/static/foodstim60/edamame.jpg', 'key': 'i', 'origWidth': 409, 'origHeight': 410, 'width': 409, 'height': 410, 'widthPercent': 0.45, 'rescaleHeight': False, 'trialN': 90, 'loaded': True, 'loadedTime': 2808.300000190735, 'positionName': 'RIGHT', 'positionCoords': [998.4, 335], 'bid': 0.12}]",173838.0,1669836974970,blueberries,edamame,0.13,0.12,-0.010000000000000009,blueberries,3219.0,3219,3219.4000000953674,True,u,177557.90000009537,3719.9000000953674,1669836978690,3720,HRV,HRV_0264,2022-11-30 19:39:00
91,"[{'imgObject': {}, 'id': 'salad w chicken', 'src': '/static/foodstim60/salad w chicken.jpg', 'key': 'u', 'origWidth': 411, 'origHeight': 411, 'width': 411, 'height': 411, 'widthPercent': 0.45, 'rescaleHeight': False, 'trialN': 91, 'loaded': True, 'loadedTime': 3438.2000000476837, 'positionName': 'LEFT', 'positionCoords': [510.6, 334.5], 'bid': 0.14}, {'imgObject': {}, 'id': 'chickenfingers', 'src': '/static/foodstim60/chickenfingers.jpg', 'key': 'i', 'origWidth': 410, 'origHeight': 410, 'width': 410, 'height': 410, 'widthPercent': 0.45, 'rescaleHeight': False, 'trialN': 91, 'loaded': True, 'loadedTime': 3121.800000190735, 'positionName': 'RIGHT', 'positionCoords': [998.4, 335], 'bid': 9.95}]",177558.0,1669836978690,salad w chicken,chickenfingers,0.14,9.95,9.809999999999999,chickenfingers,1179.7000000476837,1180,1180.0,True,i,179246.0,1688.0,1669836980378,1688,HRV,HRV_0264,2022-11-30 19:39:00
92,"[{'imgObject': {}, 'id': 'chicken nuggets2', 'src': '/static/foodstim60/chicken nuggets2.jpg', 'key': 'u', 'origWidth': 410, 'origHeight': 409, 'width': 410, 'height': 409, 'widthPercent': 0.45, 'rescaleHeight': False, 'trialN': 92, 'loaded': True, 'loadedTime': 3242.800000190735, 'positionName': 'LEFT', 'positionCoords': [511.6, 335.5], 'bid': 5.33}, {'imgObject': {}, 'id': 'veggieswithdip', 'src': '/static/foodstim60/veggieswithdip.jpg', 'key': 'i', 'origWidth': 409, 'origHeight': 409, 'width': 409, 'height': 409, 'widthPercent': 0.45, 'rescaleHeight': False, 'trialN': 92, 'loaded': True, 'loadedTime': 3327.2000000476837, 'positionName': 'RIGHT', 'positionCoords': [998.4, 335.5], 'bid': 8.78}]",179246.10000014305,1669836980378,chicken nuggets2,veggieswithdip,5.33,8.78,3.4499999999999993,veggieswithdip,819.0,819,819.2000000476837,True,i,180566.10000014305,1320.0,1669836981698,1320,HRV,HRV_0264,2022-11-30 19:39:00
93,"[{'imgObject': {}, 'id': 'veggieswithdip', 'src': '/static/foodstim60/veggieswithdip.jpg', 'key': 'u', 'origWidth': 409, 'origHeight': 409, 'width': 409, 'height': 409, 'widthPercent': 0.45, 'rescaleHeight': False, 'trialN': 93, 'loaded': True, 'loadedTime': 3324.800000190735, 'positionName': 'LEFT', 'positionCoords': [512.6, 335.5], 'bid': 8.78}, {'imgObject': {}, 'id': 'steak', 'src': '/static/foodstim60/steak.jpg', 'key': 'i', 'origWidth': 410, 'origHeight': 410, 'width': 410, 'height': 410, 'widthPercent': 0.45, 'rescaleHeight': False, 'trialN': 93, 'loaded': True, 'loadedTime': 2518.600000143051, 'positionName': 'RIGHT', 'positionCoords': [998.4, 335], 'bid': 9.92}]",180566.10000014305,1669836981698,veggieswithdip,steak,8.78,9.92,1.1400000000000006,steak,843.0,843,843.2999999523163,True,i,181910.10000014305,1344.0,1669836983042,1344,HRV,HRV_0264,2022-11-30 19:39:00
94,"[{'imgObject': {}, 'id': 'banana', 'src': '/static/foodstim60/banana.jpg', 'key': 'u', 'origWidth': 410, 'origHeight': 410, 'width': 410, 'height': 410, 'widthPercent': 0.45, 'rescaleHeight': False, 'trialN': 94, 'loaded': True, 'loadedTime': 3432.2000000476837, 'positionName': 'LEFT', 'positionCoords': [511.6, 335], 'bid': 5.44}, {'imgObject': {}, 'id': 'orange slices', 'src': '/static/foodstim60/orange slices.jpg', 'key': 'i', 'origWidth': 409, 'origHeight': 410, 'width': 409, 'height': 410, 'widthPercent': 0.45, 'rescaleHeight': False, 'trialN': 94, 'loaded': True, 'loadedTime': 3268.9000000953674, 'positionName': 'RIGHT', 'positionCoords': [998.4, 335], 'bid': 5.1000000000000005}]",181910.10000014305,1669836983042,banana,orange slices,5.44,5.1000000000000005,-0.33999999999999986,orange slices,794.7999999523163,795,795.2999999523163,True,i,183206.30000019073,1296.2000000476837,1669836984338,1296,HRV,HRV_0264,2022-11-30 19:39:00
95,"[{'imgObject': {}, 'id': 'hashbrowns', 'src': '/static/foodstim60/hashbrowns.jpg', 'key': 'u', 'origWidth': 411, 'origHeight': 410, 'width': 411, 'height': 410, 'widthPercent': 0.45, 'rescaleHeight': False, 'trialN': 95, 'loaded': True, 'loadedTime': 3397.9000000953674, 'positionName': 'LEFT', 'positionCoords': [510.6, 335], 'bid': 0.03}, {'imgObject': {}, 'id': 'luckycharms', 'src': '/static/foodstim60/luckycharms.jpg', 'key': 'i', 'origWidth': 410, 'origHeight': 409, 'width': 410, 'height': 409, 'widthPercent': 0.45, 'rescaleHeight': False, 'trialN': 95, 'loaded': True, 'loadedTime': 2336, 'positionName': 'RIGHT', 'positionCoords': [998.4, 335.5], 'bid': 0.1}]",183206.30000019073,1669836984338,hashbrowns,luckycharms,0.03,0.1,0.07,hashbrowns,1226.5999999046326,1227,1227.0,True,u,184934.20000004768,1727.8999998569489,1669836986066,1728,HRV,HRV_0264,2022-11-30 19:39:00
96,"[{'imgObject': {}, 'id': 'salad w chicken', 'src': '/static/foodstim60/salad w chicken.jpg', 'key': 'u', 'origWidth': 411, 'origHeight': 411, 'width': 411, 'height': 411, 'widthPercent': 0.45, 'rescaleHeight': False, 'trialN': 96, 'loaded': True, 'loadedTime': 3437.800000190735, 'positionName': 'LEFT', 'positionCoords': [510.6, 334.5], 'bid': 0.14}, {'imgObject': {}, 'id': 'mashed potato', 'src': '/static/foodstim60/mashed potato.jpg', 'key': 'i', 'origWidth': 409, 'origHeight': 409, 'width': 409, 'height': 409, 'widthPercent': 0.45, 'rescaleHeight': False, 'trialN': 96, 'loaded': True, 'loadedTime': 2826.800000190735, 'positionName': 'RIGHT', 'positionCoords': [998.4, 335.5], 'bid': 0.59}]",184934.30000019073,1669836986066,salad w chicken,mashed potato,0.14,0.59,0.44999999999999996,mashed potato,1274.5999999046326,1275,1275.0999999046326,True,i,186710.30000019073,1776.0,1669836987842,1776,HRV,HRV_0264,2022-11-30 19:39:00
97,"[{'imgObject': {}, 'id': 'grilled chicken strips', 'src': '/static/foodstim60/grilled chicken strips.jpg', 'key': 'u', 'origWidth': 410, 'origHeight': 411, 'width': 410, 'height': 411, 'widthPercent': 0.45, 'rescaleHeight': False, 'trialN': 97, 'loaded': True, 'loadedTime': 2127.300000190735, 'positionName': 'LEFT', 'positionCoords': [511.6, 334.5], 'bid': 0.03}, {'imgObject': {}, 'id': 'kiwi', 'src': '/static/foodstim60/kiwi.jpg', 'key': 'i', 'origWidth': 410, 'origHeight': 410, 'width': 410, 'height': 410, 'widthPercent': 0.45, 'rescaleHeight': False, 'trialN': 97, 'loaded': True, 'loadedTime': 2494, 'positionName': 'RIGHT', 'positionCoords': [998.4, 335], 'bid': 0.12}]",186710.40000009537,1669836987842,grilled chicken strips,kiwi,0.03,0.12,0.09,grilled chicken strips,1242.7999999523163,1243,1243.0999999046326,True,u,188454.30000019073,1743.9000000953674,1669836989586,1744,HRV,HRV_0264,2022-11-30 19:39:00
98,"[{'imgObject': {}, 'id': 'burger', 'src': '/static/foodstim60/burger.jpg', 'key': 'u', 'origWidth': 409, 'origHeight': 409, 'width': 409, 'height': 409, 'widthPercent': 0.45, 'rescaleHeight': False, 'trialN': 98, 'loaded': True, 'loadedTime': 3329.300000190735, 'positionName': 'LEFT', 'positionCoords': [512.6, 335.5], 'bid': 0.14}, {'imgObject': {}, 'id': 'salmon', 'src': '/static/foodstim60/salmon.jpg', 'key': 'i', 'origWidth': 410, 'origHeight': 409, 'width': 410, 'height': 409, 'widthPercent': 0.45, 'rescaleHeight': False, 'trialN': 98, 'loaded': True, 'loadedTime': 3375.100000143051, 'positionName': 'RIGHT', 'positionCoords': [998.4, 335.5], 'bid': 0.12}]",188454.5,1669836989586,burger,salmon,0.14,0.12,-0.020000000000000018,salmon,1835.0,1836,1835.5,True,i,190798.40000009537,2343.9000000953674,1669836991930,2344,HRV,HRV_0264,2022-11-30 19:39:00
99,"[{'imgObject': {}, 'id': 'eggsalad', 'src': '/static/foodstim60/eggsalad.jpg', 'key': 'u', 'origWidth': 410, 'origHeight': 409, 'width': 410, 'height': 409, 'widthPercent': 0.45, 'rescaleHeight': False, 'trialN': 99, 'loaded': True, 'loadedTime': 3344.2000000476837, 'positionName': 'LEFT', 'positionCoords': [511.6, 335.5], 'bid': 6}, {'imgObject': {}, 'id': 'eggs', 'src': '/static/foodstim60/eggs.jpg', 'key': 'i', 'origWidth': 409, 'origHeight': 409, 'width': 409, 'height': 409, 'widthPercent': 0.45, 'rescaleHeight': False, 'trialN': 99, 'loaded': True, 'loadedTime': 3188.100000143051, 'positionName': 'RIGHT', 'positionCoords': [998.4, 335.5], 'bid': 5.8500000000000005}]",190798.60000014305,1669836991930,eggsalad,eggs,6.0,5.8500000000000005,-0.14999999999999947,eggsalad,1314.5,1315,1314.7999999523163,True,u,192613.5,1814.8999998569489,1669836993745,1815,HRV,HRV_0264,2022-11-30 19:39:00
100,"[{'imgObject': {}, 'id': 'grilled chicken strips', 'src': '/static/foodstim60/grilled chicken strips.jpg', 'key': 'u', 'origWidth': 410, 'origHeight': 411, 'width': 410, 'height': 411, 'widthPercent': 0.45, 'rescaleHeight': False, 'trialN': 100, 'loaded': True, 'loadedTime': 2139.5, 'positionName': 'LEFT', 'positionCoords': [511.6, 334.5], 'bid': 0.03}, {'imgObject': {}, 'id': 'popsicles', 'src': '/static/foodstim60/popsicles.jpg', 'key': 'i', 'origWidth': 410, 'origHeight': 410, 'width': 410, 'height': 410, 'widthPercent': 0.45, 'rescaleHeight': False, 'trialN': 100, 'loaded': True, 'loadedTime': 3442, 'positionName': 'RIGHT', 'positionCoords': [998.4, 335], 'bid': 0.12}]",192613.70000004768,1669836993745,grilled chicken strips,popsicles,0.03,0.12,0.09,popsicles,1707.5,1708,1707.9000000953674,True,i,194829.70000004768,2216.0,1669836995961,2216,HRV,HRV_0264,2022-11-30 19:39:00
101,"[{'imgObject': {}, 'id': 'kiwi', 'src': '/static/foodstim60/kiwi.jpg', 'key': 'u', 'origWidth': 410, 'origHeight': 410, 'width': 410, 'height': 410, 'widthPercent': 0.45, 'rescaleHeight': False, 'trialN': 101, 'loaded': True, 'loadedTime': 2494.5, 'positionName': 'LEFT', 'positionCoords': [511.6, 335], 'bid': 0.12}, {'imgObject': {}, 'id': 'cantaloupe', 'src': '/static/foodstim60/cantaloupe.jpg', 'key': 'i', 'origWidth': 409, 'origHeight': 409, 'width': 409, 'height': 409, 'widthPercent': 0.45, 'rescaleHeight': False, 'trialN': 101, 'loaded': True, 'loadedTime': 2596.5, 'positionName': 'RIGHT', 'positionCoords': [998.4, 335.5], 'bid': 0.12}]",194829.80000019073,1669836995962,kiwi,cantaloupe,0.12,0.12,0.0,kiwi,1443.2999999523163,1443,1443.5999999046326,True,u,196773.70000004768,1943.8999998569489,1669836997906,1944,HRV,HRV_0264,2022-11-30 19:39:00
102,"[{'imgObject': {}, 'id': 'banana', 'src': '/static/foodstim60/banana.jpg', 'key': 'u', 'origWidth': 410, 'origHeight': 410, 'width': 410, 'height': 410, 'widthPercent': 0.45, 'rescaleHeight': False, 'trialN': 102, 'loaded': True, 'loadedTime': 3434.5, 'positionName': 'LEFT', 'positionCoords': [511.6, 335], 'bid': 5.44}, {'imgObject': {}, 'id': 'yogurt no spoon', 'src': '/static/foodstim60/yogurt no spoon.jpg', 'key': 'i', 'origWidth': 411, 'origHeight': 410, 'width': 411, 'height': 410, 'widthPercent': 0.45, 'rescaleHeight': False, 'trialN': 102, 'loaded': True, 'loadedTime': 3413.800000190735, 'positionName': 'RIGHT', 'positionCoords': [998.4, 335], 'bid': 0.12}]",196773.90000009537,1669836997906,banana,yogurt no spoon,5.44,0.12,-5.32,yogurt no spoon,795.2000000476837,795,795.5,True,i,198069.90000009537,1296.0,1669836999202,1296,HRV,HRV_0264,2022-11-30 19:39:00
103,"[{'imgObject': {}, 'id': 'cocktailshrimp', 'src': '/static/foodstim60/cocktailshrimp.jpg', 'key': 'u', 'origWidth': 410, 'origHeight': 410, 'width': 410, 'height': 410, 'widthPercent': 0.45, 'rescaleHeight': False, 'trialN': 103, 'loaded': True, 'loadedTime': 3256.7000000476837, 'positionName': 'LEFT', 'positionCoords': [511.6, 335], 'bid': 0.02}, {'imgObject': {}, 'id': 'avocado', 'src': '/static/foodstim60/avocado.jpg', 'key': 'i', 'origWidth': 409, 'origHeight': 409, 'width': 409, 'height': 409, 'widthPercent': 0.45, 'rescaleHeight': False, 'trialN': 103, 'loaded': True, 'loadedTime': 2798.7000000476837, 'positionName': 'RIGHT', 'positionCoords': [998.4, 335.5], 'bid': 0.07}]",198070.20000004768,1669836999202,cocktailshrimp,avocado,0.02,0.07,0.05,avocado,2827.2999999523163,2828,2827.600000143051,True,i,201405.90000009537,3335.7000000476837,1669837002538,3336,HRV,HRV_0264,2022-11-30 19:39:00
104,"[{'imgObject': {}, 'id': 'raisin bran w milk', 'src': '/static/foodstim60/raisin bran w milk.jpg', 'key': 'u', 'origWidth': 411, 'origHeight': 411, 'width': 411, 'height': 411, 'widthPercent': 0.45, 'rescaleHeight': False, 'trialN': 104, 'loaded': True, 'loadedTime': 3423.300000190735, 'positionName': 'LEFT', 'positionCoords': [510.6, 334.5], 'bid': 0.38}, {'imgObject': {}, 'id': 'cocktailshrimp', 'src': '/static/foodstim60/cocktailshrimp.jpg', 'key': 'i', 'origWidth': 410, 'origHeight': 410, 'width': 410, 'height': 410, 'widthPercent': 0.45, 'rescaleHeight': False, 'trialN': 104, 'loaded': True, 'loadedTime': 3257.4000000953674, 'positionName': 'RIGHT', 'positionCoords': [998.4, 335], 'bid': 0.02}]",201406.0,1669837002538,raisin bran w milk,cocktailshrimp,0.38,0.02,-0.36,raisin bran w milk,1266.5,1267,1267.0,True,u,203174.10000014305,1768.1000001430511,1669837004306,1768,HRV,HRV_0264,2022-11-30 19:39:00
105,"[{'imgObject': {}, 'id': 'eggsalad', 'src': '/static/foodstim60/eggsalad.jpg', 'key': 'u', 'origWidth': 410, 'origHeight': 409, 'width': 410, 'height': 409, 'widthPercent': 0.45, 'rescaleHeight': False, 'trialN': 105, 'loaded': True, 'loadedTime': 3337, 'positionName': 'LEFT', 'positionCoords': [511.6, 335.5], 'bid': 6}, {'imgObject': {}, 'id': 'bagel and cc', 'src': '/static/foodstim60/bagel and cc.jpg', 'key': 'i', 'origWidth': 410, 'origHeight': 410, 'width': 410, 'height': 410, 'widthPercent': 0.45, 'rescaleHeight': False, 'trialN': 105, 'loaded': True, 'loadedTime': 2697, 'positionName': 'RIGHT', 'positionCoords': [998.4, 335], 'bid': 1.07}]",203174.10000014305,1669837004306,eggsalad,bagel and cc,6.0,1.07,-4.93,eggsalad,842.5999999046326,843,842.8999998569489,True,u,204518.20000004768,1344.0999999046326,1669837005650,1344,HRV,HRV_0264,2022-11-30 19:39:00
106,"[{'imgObject': {}, 'id': 'turkey sandwich', 'src': '/static/foodstim60/turkey sandwich.jpg', 'key': 'u', 'origWidth': 409, 'origHeight': 409, 'width': 409, 'height': 409, 'widthPercent': 0.45, 'rescaleHeight': False, 'trialN': 106, 'loaded': True, 'loadedTime': 3336.600000143051, 'positionName': 'LEFT', 'positionCoords': [512.6, 335.5], 'bid': 6.3500000000000005}, {'imgObject': {}, 'id': 'cantaloupe', 'src': '/static/foodstim60/cantaloupe.jpg', 'key': 'i', 'origWidth': 409, 'origHeight': 409, 'width': 409, 'height': 409, 'widthPercent': 0.45, 'rescaleHeight': False, 'trialN': 106, 'loaded': True, 'loadedTime': 2629.100000143051, 'positionName': 'RIGHT', 'positionCoords': [998.4, 335.5], 'bid': 0.12}]",204518.20000004768,1669837005650,turkey sandwich,cantaloupe,6.3500000000000005,0.12,-6.23,turkey sandwich,1018.2999999523163,1019,1018.7999999523163,True,u,206038.20000004768,1520.0,1669837007170,1520,HRV,HRV_0264,2022-11-30 19:39:00
107,"[{'imgObject': {}, 'id': 'shreddedwheatwithmilk', 'src': '/static/foodstim60/shreddedwheatwithmilk.jpg', 'key': 'u', 'origWidth': 410, 'origHeight': 410, 'width': 410, 'height': 410, 'widthPercent': 0.45, 'rescaleHeight': False, 'trialN': 107, 'loaded': True, 'loadedTime': 2440.800000190735, 'positionName': 'LEFT', 'positionCoords': [511.6, 335], 'bid': 0.12}, {'imgObject': {}, 'id': 'sweetpotato', 'src': '/static/foodstim60/sweetpotato.jpg', 'key': 'i', 'origWidth': 410, 'origHeight': 410, 'width': 410, 'height': 410, 'widthPercent': 0.45, 'rescaleHeight': False, 'trialN': 107, 'loaded': True, 'loadedTime': 2645.2000000476837, 'positionName': 'RIGHT', 'positionCoords': [998.4, 335], 'bid': 7.0200000000000005}]",206038.40000009537,1669837007170,shreddedwheatwithmilk,sweetpotato,0.12,7.0200000000000005,6.9,sweetpotato,1210.0999999046326,1211,1210.4000000953674,True,i,207750.20000004768,1711.7999999523163,1669837008882,1712,HRV,HRV_0264,2022-11-30 19:39:00
108,"[{'imgObject': {}, 'id': 'ice cream sundae 002', 'src': '/static/foodstim60/ice cream sundae 002.jpg', 'key': 'u', 'origWidth': 409, 'origHeight': 409, 'width': 409, 'height': 409, 'widthPercent': 0.45, 'rescaleHeight': False, 'trialN': 108, 'loaded': True, 'loadedTime': 3363.100000143051, 'positionName': 'LEFT', 'positionCoords': [512.6, 335.5], 'bid': 0.12}, {'imgObject': {}, 'id': 'popsicles', 'src': '/static/foodstim60/popsicles.jpg', 'key': 'i', 'origWidth': 410, 'origHeight': 410, 'width': 410, 'height': 410, 'widthPercent': 0.45, 'rescaleHeight': False, 'trialN': 108, 'loaded': True, 'loadedTime': 3443.300000190735, 'positionName': 'RIGHT', 'positionCoords': [998.4, 335], 'bid': 0.12}]",207750.40000009537,1669837008882,ice cream sundae 002,popsicles,0.12,0.12,0.0,popsicles,1130.2000000476837,1131,1130.5,True,i,209382.30000019073,1631.9000000953674,1669837010514,1632,HRV,HRV_0264,2022-11-30 19:39:00
109,"[{'imgObject': {}, 'id': 'shreddedwheatwithmilk', 'src': '/static/foodstim60/shreddedwheatwithmilk.jpg', 'key': 'u', 'origWidth': 410, 'origHeight': 410, 'width': 410, 'height': 410, 'widthPercent': 0.45, 'rescaleHeight': False, 'trialN': 109, 'loaded': True, 'loadedTime': 2415.2000000476837, 'positionName': 'LEFT', 'positionCoords': [511.6, 335], 'bid': 0.12}, {'imgObject': {}, 'id': 'avocado', 'src': '/static/foodstim60/avocado.jpg', 'key': 'i', 'origWidth': 409, 'origHeight': 409, 'width': 409, 'height': 409, 'widthPercent': 0.45, 'rescaleHeight': False, 'trialN': 109, 'loaded': True, 'loadedTime': 2808, 'positionName': 'RIGHT', 'positionCoords': [998.4, 335.5], 'bid': 0.07}]",209382.40000009537,1669837010515,shreddedwheatwithmilk,avocado,0.12,0.07,-0.04999999999999999,shreddedwheatwithmilk,1226.2000000476837,1226,1226.5,True,u,211110.30000019073,1727.9000000953674,1669837012242,1727,HRV,HRV_0264,2022-11-30 19:39:00
