success,trial_type,trial_index,time_elapsed,internal_node_id,Block,TrialNumber,TrialTime,trialTimeDiff,FPS_avg,FPS_med,FPS_mode,TrialDur,winResizeTime,rt,block,button_pressed,MotCoh,MotDir,ColCoh,Color,ChoiceKey,Choice,Accuracy,RT,nFrames,FPS,PPD,missTrial,missTrialMsg,onsetDelay,fullScreenExitTime,canvCenter,TrialType,Score,BlockTrial,stimulus,button_labels,exp,subjectId,date
True,fullscreen,0,5709,0.0-0.0,0.0,1.0,,,,,,,,,,,,,,,,,,,,,,,,,,,,,,,,HRV,HRV_0129,2022-11-30 18:14:35
,wl-check-fps,1,10708,0.0-1.0,0.0,2.0,"[7840.9, 7852, 7868.6, 7885.9, 7902, 7918.7, 7935.3, 7952.1, 7968.8, 7985.6, 8002.5, 8019, 8035.5, 8052.1, 8069.3, 8085.6, 8102.2, 8119.1, 8135.5, 8152.2, 8168.7, 8185.3, 8202, 8218.8, 8235.4, 8251.9, 8268.8, 8285.7, 8301.9, 8318.8, 8335.7, 8352.2, 8370.4, 8385.6, 8402.1, 8418.9, 8435.5, 8452, 8468.7, 8485.5, 8502, 8518.8, 8535.5, 8551.9, 8568.8, 8585.5, 8602.1, 8618.8, 8635.4, 8652.1, 8668.7, 8685.7, 8702, 8718.7, 8735.6, 8752.2, 8768.9, 8785.8, 8802.2, 8819.4, 8835.6, 8852.3, 8868.9, 8885.6, 8902.2, 8919.5, 8936.1, 8952.3, 8969.1, 8985.9, 9002.2, 9018.9, 9035.5, 9052, 9068.7, 9085.5, 9102, 9119, 9135.3, 9152, 9168.6, 9185.5, 9202, 9218.8, 9235.4, 9251.9, 9268.7, 9285.4, 9302, 9318.7, 9335.5, 9352.1, 9368.7, 9385.5, 9402, 9418.7, 9435.4, 9452.2, 9468.9, 9485.4, 9502.1, 9519.1, 9535.6, 9552.1, 9568.8, 9585.4, 9602, 9618.7, 9635.5, 9652.1, 9668.7, 9685.6, 9702.1, 9718.7, 9735.4, 9752, 9768.7, 9785.4, 9802, 9818.7, 9835.3, 9852.3, 9869.2, 9885.4, 9902, 9918.7, 9935.3, 9952.1, 9968.8, 9985.6, 10002.2, 10018.8, 10035.4, 10052.1, 10068.9, 10085.6, 10102.2, 10118.9, 10137.2, 10152.1, 10169, 10185.5, 10202.2, 10218.7, 10235.7, 10252.1, 10268.7, 10285.3, 10302.1, 10318.9, 10335.6, 10352.1, 10368.9, 10385.8, 10402, 10418.7, 10435.4, 10452, 10469.3, 10485.4, 10502, 10518.9, 10535.5, 10552.1, 10568.7, 10585.5, 10602.1, 10619, 10635.4, 10652.1, 10668.8, 10685.4, 10702, 10718.8, 10735.5, 10752, 10768.7, 10785.4, 10802.1, 10818.9, 10835.5, 10852, 10868.7, 10885.3, 10902.1, 10918.7, 10935.5, 10952.2, 10968.8, 10985.4, 11002, 11018.7, 11035.4, 11052.1, 11068.7, 11085.5, 11102.1, 11118.8, 11135.4, 11152.1, 11168.8, 11185.6, 11202.1, 11218.9, 11235.5, 11252, 11268.9, 11285.5, 11302.1, 11318.9, 11335.4, 11352.2, 11368.8, 11385.4, 11402.2, 11418.7, 11435.4, 11452.3, 11468.9, 11485.7, 11502.3, 11520.5, 11535.8, 11552.4, 11569.1, 11585.5, 11602.2, 11619, 11635.5, 11652.2, 11669.1, 11685.5, 11702.2, 11718.8, 11735.5, 11752.1, 11768.8, 11785.4, 11802.3, 11818.9, 11835.6, 11852.1, 11869, 11885.5, 11902.1, 11918.8, 11935.4, 11952.1, 11968.9, 11985.5, 12002.2, 12019, 12035.7, 12052.2, 12068.8, 12085.8, 12102.5, 12119.1, 12135.7, 12152.3, 12169, 12185.6, 12202.2, 12218.9, 12235.7, 12252.2, 12268.8, 12285.5, 12302.4, 12318.9, 12335.5, 12352.1, 12369, 12385.6, 12402.3, 12418.8, 12435.5, 12452.2, 12468.8, 12485.5, 12502.3, 12518.9, 12535.8, 12552.1, 12568.9, 12585.6, 12602.2, 12619, 12635.5, 12652.6, 12668.9, 12685.6, 12702.2, 12719.1, 12735.5, 12752.2, 12768.8, 12785.8, 12802.2, 12818.8]","[1.6, 11.1, 16.6, 17.3, 16.1, 16.7, 16.6, 16.8, 16.7, 16.8, 16.9, 16.5, 16.5, 16.6, 17.2, 16.3, 16.6, 16.9, 16.4, 16.7, 16.5, 16.6, 16.7, 16.8, 16.6, 16.5, 16.9, 16.9, 16.2, 16.9, 16.9, 16.5, 18.2, 15.2, 16.5, 16.8, 16.6, 16.5, 16.7, 16.8, 16.5, 16.8, 16.7, 16.4, 16.9, 16.7, 16.6, 16.7, 16.6, 16.7, 16.6, 17, 16.3, 16.7, 16.9, 16.6, 16.7, 16.9, 16.4, 17.2, 16.2, 16.7, 16.6, 16.7, 16.6, 17.3, 16.6, 16.2, 16.8, 16.8, 16.3, 16.7, 16.6, 16.5, 16.7, 16.8, 16.5, 17, 16.3, 16.7, 16.6, 16.9, 16.5, 16.8, 16.6, 16.5, 16.8, 16.7, 16.6, 16.7, 16.8, 16.6, 16.6, 16.8, 16.5, 16.7, 16.7, 16.8, 16.7, 16.5, 16.7, 17, 16.5, 16.5, 16.7, 16.6, 16.6, 16.7, 16.8, 16.6, 16.6, 16.9, 16.5, 16.6, 16.7, 16.6, 16.7, 16.7, 16.6, 16.7, 16.6, 17, 16.9, 16.2, 16.6, 16.7, 16.6, 16.8, 16.7, 16.8, 16.6, 16.6, 16.6, 16.7, 16.8, 16.7, 16.6, 16.7, 18.3, 14.9, 16.9, 16.5, 16.7, 16.5, 17, 16.4, 16.6, 16.6, 16.8, 16.8, 16.7, 16.5, 16.8, 16.9, 16.2, 16.7, 16.7, 16.6, 17.3, 16.1, 16.6, 16.9, 16.6, 16.6, 16.6, 16.8, 16.6, 16.9, 16.4, 16.7, 16.7, 16.6, 16.6, 16.8, 16.7, 16.5, 16.7, 16.7, 16.7, 16.8, 16.6, 16.5, 16.7, 16.6, 16.8, 16.6, 16.8, 16.7, 16.6, 16.6, 16.6, 16.7, 16.7, 16.7, 16.6, 16.8, 16.6, 16.7, 16.6, 16.7, 16.7, 16.8, 16.5, 16.8, 16.6, 16.5, 16.9, 16.6, 16.6, 16.8, 16.5, 16.8, 16.6, 16.6, 16.8, 16.5, 16.7, 16.9, 16.6, 16.8, 16.6, 18.2, 15.3, 16.6, 16.7, 16.4, 16.7, 16.8, 16.5, 16.7, 16.9, 16.4, 16.7, 16.6, 16.7, 16.6, 16.7, 16.6, 16.9, 16.6, 16.7, 16.5, 16.9, 16.5, 16.6, 16.7, 16.6, 16.7, 16.8, 16.6, 16.7, 16.8, 16.7, 16.5, 16.6, 17, 16.7, 16.6, 16.6, 16.6, 16.7, 16.6, 16.6, 16.7, 16.8, 16.5, 16.6, 16.7, 16.9, 16.5, 16.6, 16.6, 16.9, 16.6, 16.7, 16.5, 16.7, 16.7, 16.6, 16.7, 16.8, 16.6, 16.9, 16.3, 16.8, 16.7, 16.6, 16.8, 16.5, 17.1, 16.3, 16.7, 16.6, 16.9, 16.4, 16.7, 16.6, 17, 16.4, 16.6]",60.0,60.0,60.0,4996.2,[],,,,,,,,,,,,,,,,,,,,,,,,,HRV,HRV_0129,2022-11-30 18:14:35
,wl-html-keyboard-response,2,20381,0.0-2.0-0.0,0.0,3.0,,,,,,,,7665.299999999814,0.0,0,,,,,,,,,,,,,,,,,,,,,,HRV,HRV_0129,2022-11-30 18:14:35
,wl-rdm,3,29475,0.0-3.0-0.0,0.0,4.0,,,,,,,[],,,,0.0,0.0,87.9,0.0,u,0.0,True,3515.699999999255,211.0,60.0,40.0,False,,3000.0,[],"[960, 540]",ColorTask_Demo,,,,,HRV,HRV_0129,2022-11-30 18:14:35
,wl-rdm,4,34595,0.0-3.0-1.0,0.0,5.0,,,,,,,[],,,,0.0,0.0,87.9,1.0,i,1.0,True,1031.5999999996275,62.0,60.0,40.0,False,,2000.0,[],"[960, 540]",ColorTask_Demo,,,,,HRV,HRV_0129,2022-11-30 18:14:35
,wl-html-keyboard-response,5,41069,0.0-3.0-2.0,0.0,6.0,,,,,,,,4470.100000000559,0.0,1,,,,,,,,,,,,,,,,,,,,,,HRV,HRV_0129,2022-11-30 18:14:35
,wl-html-keyboard-response,6,50414,0.0-4.0-0.0,0.0,7.0,,,,,,,,7340.899999999441,0.0,0,,,,,,,,,,,,,,,,,,,,,,HRV,HRV_0129,2022-11-30 18:14:35
,wl-html-keyboard-response,7,71446,0.0-5.0-0.0,0.0,8.0,,,,,,,,19020.700000000186,0.0,0,,,,,,,,,,,,,,,,,,,,,,HRV,HRV_0129,2022-11-30 18:14:35
,wl-rdm,8,75563,0.0-6.0-0.0,0.0,9.0,,,,,,,[],,,,,,50.0,0.0,i,1.0,False,2764.0,166.0,60.0,40.0,False,,299.46454673857943,[],"[960, 540]",ColorTask,-1.0,1.0,,,HRV,HRV_0129,2022-11-30 18:14:35
,wl-rdm,9,78163,0.0-6.1-0.1,0.0,10.0,,,,,,,[],,,,,,62.5,1.0,i,1.0,True,1280.7999999998137,77.0,60.0,40.0,False,,260.355606778894,[],"[960, 540]",ColorTask,0.0,2.0,,,HRV,HRV_0129,2022-11-30 18:14:35
,wl-rdm,10,80446,0.0-6.2-0.2,0.0,11.0,,,,,,,[],,,,,,73.6,0.0,u,0.0,True,836.5999999996275,51.0,60.0,40.0,False,,360.26700246827227,[],"[960, 540]",ColorTask,1.0,3.0,,,HRV,HRV_0129,2022-11-30 18:14:35
,wl-rdm,11,82846,0.0-6.3-0.3,0.0,12.0,,,,,,,[],,,,,,73.6,1.0,i,1.0,True,927.5,56.0,60.0,40.0,False,,387.7406351581642,[],"[960, 540]",ColorTask,2.0,4.0,,,HRV,HRV_0129,2022-11-30 18:14:35
,wl-rdm,12,86163,0.0-6.4-0.4,0.0,13.0,,,,,,,[],,,,,,50.0,1.0,u,0.0,False,1956.0999999996275,118.0,60.0,40.0,False,,271.80815629479844,[],"[960, 540]",ColorTask,1.0,5.0,,,HRV,HRV_0129,2022-11-30 18:14:35
,wl-rdm,13,88946,0.0-6.5-0.5,0.0,14.0,,,,,,,[],,,,,,56.4,1.0,i,1.0,True,1464.699999999255,88.0,60.0,40.0,False,,253.88390803006013,[],"[960, 540]",ColorTask,2.0,6.0,,,HRV,HRV_0129,2022-11-30 18:14:35
,wl-rdm,14,91130,0.0-6.6-0.6,0.0,15.0,,,,,,,[],,,,,,56.4,0.0,u,0.0,True,857.5,52.0,60.0,40.0,False,,237.22809607793198,[],"[960, 540]",ColorTask,3.0,7.0,,,HRV,HRV_0129,2022-11-30 18:14:35
,wl-rdm,15,93313,0.0-6.7-0.7,0.0,16.0,,,,,,,[],,,,,,87.9,1.0,i,1.0,True,824.6999999992549,50.0,60.0,40.0,False,,272.5076405707157,[],"[960, 540]",ColorTask,4.0,8.0,,,HRV,HRV_0129,2022-11-30 18:14:35
,wl-rdm,16,96030,0.0-6.8-0.8,0.0,17.0,,,,,,,[],,,,,,56.4,0.0,u,0.0,True,1352.6000000005588,82.0,60.0,40.0,False,,283.91706994467694,[],"[960, 540]",ColorTask,5.0,9.0,,,HRV,HRV_0129,2022-11-30 18:14:35
,wl-rdm,17,98080,0.0-6.9-0.9,0.0,18.0,,,,,,,[],,,,,,87.9,1.0,i,1.0,True,775.4000000003725,47.0,60.0,40.0,False,,208.80271578796297,[],"[960, 540]",ColorTask,6.0,10.0,,,HRV,HRV_0129,2022-11-30 18:14:35
,wl-rdm,18,100614,0.0-6.10-0.10,0.0,19.0,,,,,,,[],,,,,,53.2,0.0,i,1.0,False,1153.2000000001863,70.0,60.0,40.0,False,,304.23473242403696,[],"[960, 540]",ColorTask,5.0,11.0,,,HRV,HRV_0129,2022-11-30 18:14:35
,wl-rdm,19,102714,0.0-6.11-0.11,0.0,20.0,,,,,,,[],,,,,,73.6,0.0,u,0.0,True,791.3999999994412,48.0,60.0,40.0,False,,225.7193757563524,[],"[960, 540]",ColorTask,6.0,12.0,,,HRV,HRV_0129,2022-11-30 18:14:35
,wl-rdm,20,104814,0.0-6.12-0.12,0.0,21.0,,,,,,,[],,,,,,87.9,1.0,i,1.0,True,827.9000000003725,50.0,60.0,40.0,False,,207.83522375212377,[],"[960, 540]",ColorTask,7.0,13.0,,,HRV,HRV_0129,2022-11-30 18:14:35
,wl-rdm,21,107480,0.0-6.13-0.13,0.0,22.0,,,,,,,[],,,,,,50.0,1.0,u,0.0,False,1217.4000000003725,73.0,60.0,40.0,False,,380.3452727899154,[],"[960, 540]",ColorTask,6.0,14.0,,,HRV,HRV_0129,2022-11-30 18:14:35
,wl-rdm,22,110031,0.0-6.14-0.14,0.0,23.0,,,,,,,[],,,,,,62.5,0.0,u,0.0,True,1243.2999999998137,75.0,60.0,40.0,False,,241.14712411041126,[],"[960, 540]",ColorTask,7.0,15.0,,,HRV,HRV_0129,2022-11-30 18:14:35
,wl-rdm,23,114181,0.0-6.15-0.15,0.0,24.0,,,,,,,[],,,,,,50.0,0.0,i,1.0,False,2704.7999999998137,163.0,60.0,40.0,False,,356.5786590083378,[],"[960, 540]",ColorTask,6.0,16.0,,,HRV,HRV_0129,2022-11-30 18:14:35
,wl-rdm,24,116464,0.0-6.16-0.16,0.0,25.0,,,,,,,[],,,,,,73.6,1.0,i,1.0,True,1002.0999999996275,61.0,60.0,40.0,False,,210.5419997673535,[],"[960, 540]",ColorTask,7.0,17.0,,,HRV,HRV_0129,2022-11-30 18:14:35
,wl-rdm,25,118615,0.0-6.17-0.17,0.0,26.0,,,,,,,[],,,,,,56.4,0.0,u,0.0,True,844.3999999994412,51.0,60.0,40.0,False,,222.7844637845442,[],"[960, 540]",ColorTask,8.0,18.0,,,HRV,HRV_0129,2022-11-30 18:14:35
,wl-rdm,26,120681,0.0-6.18-0.18,0.0,27.0,,,,,,,[],,,,,,73.6,1.0,i,1.0,True,741.9000000013039,45.0,60.0,40.0,False,,240.1015876993199,[],"[960, 540]",ColorTask,9.0,19.0,,,HRV,HRV_0129,2022-11-30 18:14:35
,wl-rdm,27,123164,0.0-6.19-0.19,0.0,28.0,,,,,,,[],,,,,,53.2,1.0,u,0.0,False,1079.3999999994412,65.0,60.0,40.0,False,,340.3969512551877,[],"[960, 540]",ColorTask,8.0,20.0,,,HRV,HRV_0129,2022-11-30 18:14:35
,wl-rdm,28,126231,0.0-6.20-0.20,0.0,29.0,,,,,,,[],,,,,,62.5,0.0,u,0.0,True,1735.2000000001863,105.0,60.0,40.0,False,,263.79239128977827,[],"[960, 540]",ColorTask,9.0,21.0,,,HRV,HRV_0129,2022-11-30 18:14:35
,wl-rdm,29,128731,0.0-6.21-0.21,0.0,30.0,,,,,,,[],,,,,,62.5,1.0,i,1.0,True,1188.7999999998137,72.0,60.0,40.0,False,,248.82374225790736,[],"[960, 540]",ColorTask,10.0,22.0,,,HRV,HRV_0129,2022-11-30 18:14:35
,wl-rdm,30,131081,0.0-6.22-0.22,0.0,31.0,,,,,,,[],,,,,,53.2,1.0,i,1.0,True,1024.5999999996275,62.0,60.0,40.0,False,,236.3913555871561,[],"[960, 540]",ColorTask,11.0,23.0,,,HRV,HRV_0129,2022-11-30 18:14:35
,wl-rdm,31,133549,0.0-6.23-0.23,0.0,32.0,,,,,,,[],,,,,,53.2,0.0,u,0.0,True,1012.7000000001863,61.0,60.0,40.0,False,,388.8252121902659,[],"[960, 540]",ColorTask,12.0,24.0,,,HRV,HRV_0129,2022-11-30 18:14:35
,wl-rdm,32,135798,0.0-6.24-0.24,0.0,33.0,,,,,,,[],,,,,,73.6,1.0,i,1.0,True,936.5,57.0,60.0,40.0,False,,226.42475265328707,[],"[960, 540]",ColorTask,13.0,25.0,,,HRV,HRV_0129,2022-11-30 18:14:35
,wl-rdm,33,139232,0.0-6.25-0.25,0.0,34.0,,,,,,,[],,,,,,73.6,0.0,u,0.0,True,2143.2000000011176,129.0,60.0,40.0,False,,208.14560762806843,[],"[960, 540]",ColorTask,14.0,26.0,,,HRV,HRV_0129,2022-11-30 18:14:35
,wl-rdm,34,141798,0.0-6.26-0.26,0.0,35.0,,,,,,,[],,,,,,87.9,0.0,u,0.0,True,1176.800000000745,71.0,60.0,40.0,False,,303.58033576503203,[],"[960, 540]",ColorTask,15.0,27.0,,,HRV,HRV_0129,2022-11-30 18:14:35
,wl-rdm,35,144248,0.0-6.27-0.27,0.0,36.0,,,,,,,[],,,,,,50.0,0.0,i,1.0,False,1108.9999999990687,67.0,60.0,40.0,False,,264.83369146954385,[],"[960, 540]",ColorTask,14.0,28.0,,,HRV,HRV_0129,2022-11-30 18:14:35
,wl-rdm,36,146449,0.0-6.28-0.28,0.0,37.0,,,,,,,[],,,,,,56.4,0.0,u,0.0,True,874.5,53.0,60.0,40.0,False,,256.6127191215531,[],"[960, 540]",ColorTask,15.0,29.0,,,HRV,HRV_0129,2022-11-30 18:14:35
,wl-rdm,37,148515,0.0-6.29-0.29,0.0,38.0,,,,,,,[],,,,,,87.9,0.0,u,0.0,True,722.0999999996275,44.0,60.0,40.0,False,,252.67660409721702,[],"[960, 540]",ColorTask,16.0,30.0,,,HRV,HRV_0129,2022-11-30 18:14:35
,wl-rdm,38,150815,0.0-6.30-0.30,0.0,39.0,,,,,,,[],,,,,,56.4,1.0,i,1.0,True,976.6000000005588,59.0,60.0,40.0,False,,234.92398747279233,[],"[960, 540]",ColorTask,17.0,31.0,,,HRV,HRV_0129,2022-11-30 18:14:35
,wl-rdm,39,153399,0.0-6.31-0.31,0.0,40.0,,,,,,,[],,,,,,53.2,0.0,u,0.0,True,1243.2999999998137,75.0,60.0,40.0,False,,271.6931405214459,[],"[960, 540]",ColorTask,18.0,32.0,,,HRV,HRV_0129,2022-11-30 18:14:35
,wl-rdm,40,156282,0.0-6.32-0.32,0.0,41.0,,,,,,,[],,,,,,50.0,1.0,u,0.0,False,1473.0,89.0,60.0,40.0,False,,340.3966632846128,[],"[960, 540]",ColorTask,17.0,33.0,,,HRV,HRV_0129,2022-11-30 18:14:35
,wl-rdm,41,158365,0.0-6.33-0.33,0.0,42.0,,,,,,,[],,,,,,87.9,0.0,u,0.0,True,727.7999999988824,44.0,60.0,40.0,False,,295.2606818882183,[],"[960, 540]",ColorTask,18.0,34.0,,,HRV,HRV_0129,2022-11-30 18:14:35
,wl-rdm,42,160932,0.0-6.34-0.34,0.0,43.0,,,,,,,[],,,,,,56.4,1.0,i,1.0,True,1187.7999999998137,72.0,60.0,40.0,False,,309.74949516382026,[],"[960, 540]",ColorTask,19.0,35.0,,,HRV,HRV_0129,2022-11-30 18:14:35
,wl-rdm,43,163299,0.0-6.35-0.35,0.0,44.0,,,,,,,[],,,,,,50.0,0.0,i,1.0,False,1072.5,65.0,60.0,40.0,False,,217.79394348526574,[],"[960, 540]",ColorTask,18.0,36.0,,,HRV,HRV_0129,2022-11-30 18:14:35
,wl-rdm,44,166449,0.0-6.36-0.36,0.0,45.0,,,,,,,[],,,,,,62.5,0.0,u,0.0,True,1866.7000000001863,112.0,60.0,40.0,False,,211.19330771373683,[],"[960, 540]",ColorTask,19.0,37.0,,,HRV,HRV_0129,2022-11-30 18:14:35
,wl-rdm,45,170133,0.0-6.37-0.37,0.0,46.0,,,,,,,[],,,,,,56.4,0.0,u,0.0,True,2338.2999999998137,141.0,60.0,40.0,False,,260.35976545667063,[],"[960, 540]",ColorTask,20.0,38.0,,,HRV,HRV_0129,2022-11-30 18:14:35
,wl-rdm,46,172533,0.0-6.38-0.38,0.0,47.0,,,,,,,[],,,,,,53.2,0.0,i,1.0,False,963.7000000001863,58.0,60.0,40.0,False,,351.3616852580845,[],"[960, 540]",ColorTask,19.0,39.0,,,HRV,HRV_0129,2022-11-30 18:14:35
,wl-rdm,47,175300,0.0-6.39-0.39,0.0,48.0,,,,,,,[],,,,,,56.4,1.0,i,1.0,True,1397.300000000745,84.0,60.0,40.0,False,,297.7677966123107,[],"[960, 540]",ColorTask,20.0,40.0,,,HRV,HRV_0129,2022-11-30 18:14:35
,wl-rdm,48,177350,0.0-6.40-0.40,0.0,49.0,,,,,,,[],,,,,,73.6,0.0,u,0.0,True,687.3000000007451,42.0,60.0,40.0,False,,273.4736098404771,[],"[960, 540]",ColorTask,21.0,41.0,,,HRV,HRV_0129,2022-11-30 18:14:35
,wl-rdm,49,179616,0.0-6.41-0.41,0.0,50.0,,,,,,,[],,,,,,73.6,0.0,u,0.0,True,901.9000000003725,55.0,60.0,40.0,False,,273.238507449096,[],"[960, 540]",ColorTask,22.0,42.0,,,HRV,HRV_0129,2022-11-30 18:14:35
,wl-rdm,50,182350,0.0-6.42-0.42,0.0,51.0,,,,,,,[],,,,,,53.2,1.0,i,1.0,True,1327.7000000001863,80.0,60.0,40.0,False,,334.230719513936,[],"[960, 540]",ColorTask,23.0,43.0,,,HRV,HRV_0129,2022-11-30 18:14:35
,wl-rdm,51,186467,0.0-6.43-0.43,0.0,52.0,,,,,,,[],,,,,,50.0,0.0,u,0.0,True,2806.9000000003725,169.0,60.0,40.0,False,,223.16760959307956,[],"[960, 540]",ColorTask,24.0,44.0,,,HRV,HRV_0129,2022-11-30 18:14:35
,wl-rdm,52,188950,0.0-6.44-0.44,0.0,53.0,,,,,,,[],,,,,,62.5,1.0,i,1.0,True,1086.7999999988824,66.0,60.0,40.0,False,,310.94843517667647,[],"[960, 540]",ColorTask,25.0,45.0,,,HRV,HRV_0129,2022-11-30 18:14:35
,wl-rdm,53,192917,0.0-6.45-0.45,0.0,54.0,,,,,,,[],,,,,,50.0,0.0,i,1.0,False,2605.100000000559,157.0,60.0,40.0,False,,271.1203558454288,[],"[960, 540]",ColorTask,24.0,46.0,,,HRV,HRV_0129,2022-11-30 18:14:35
,wl-rdm,54,194867,0.0-6.46-0.46,0.0,55.0,,,,,,,[],,,,,,87.9,0.0,u,0.0,True,531.1000000005588,32.0,60.0,40.0,False,,336.51886187938976,[],"[960, 540]",ColorTask,25.0,47.0,,,HRV,HRV_0129,2022-11-30 18:14:35
,wl-rdm,55,196950,0.0-6.47-0.47,0.0,56.0,,,,,,,[],,,,,,87.9,0.0,u,0.0,True,753.6000000005588,46.0,60.0,40.0,False,,234.5083050866749,[],"[960, 540]",ColorTask,26.0,48.0,,,HRV,HRV_0129,2022-11-30 18:14:35
,wl-rdm,56,198934,0.0-6.48-0.48,0.0,57.0,,,,,,,[],,,,,,87.9,1.0,i,1.0,True,644.5999999996275,39.0,60.0,40.0,False,,274.3805222537526,[],"[960, 540]",ColorTask,27.0,49.0,,,HRV,HRV_0129,2022-11-30 18:14:35
,wl-rdm,57,201000,0.0-6.49-0.49,0.0,58.0,,,,,,,[],,,,,,87.9,1.0,i,1.0,True,659.6000000005588,40.0,60.0,40.0,False,,327.80865008991356,[],"[960, 540]",ColorTask,28.0,50.0,,,HRV,HRV_0129,2022-11-30 18:14:35
,wl-rdm,58,203333,0.0-6.50-0.50,0.0,59.0,,,,,,,[],,,,,,62.5,1.0,i,1.0,True,928.5,56.0,60.0,40.0,False,,330.3699228265933,[],"[960, 540]",ColorTask,29.0,51.0,,,HRV,HRV_0129,2022-11-30 18:14:35
,wl-rdm,59,205950,0.0-6.51-0.51,0.0,60.0,,,,,,,[],,,,,,53.2,1.0,i,1.0,True,1218.9999999990687,74.0,60.0,40.0,False,,329.60203988086454,[],"[960, 540]",ColorTask,30.0,52.0,,,HRV,HRV_0129,2022-11-30 18:14:35
,wl-rdm,60,208267,0.0-6.52-0.52,0.0,61.0,,,,,,,[],,,,,,62.5,1.0,i,1.0,True,881.2999999998137,53.0,60.0,40.0,False,,352.97093008865494,[],"[960, 540]",ColorTask,31.0,53.0,,,HRV,HRV_0129,2022-11-30 18:14:35
,wl-rdm,61,210467,0.0-6.53-0.53,0.0,62.0,,,,,,,[],,,,,,87.9,0.0,u,0.0,True,780.4999999990687,47.0,60.0,40.0,False,,361.6496408412188,[],"[960, 540]",ColorTask,32.0,54.0,,,HRV,HRV_0129,2022-11-30 18:14:35
,wl-rdm,62,213017,0.0-6.54-0.54,0.0,63.0,,,,,,,[],,,,,,56.4,0.0,u,0.0,True,1158.5,70.0,60.0,40.0,False,,310.39448295572845,[],"[960, 540]",ColorTask,33.0,55.0,,,HRV,HRV_0129,2022-11-30 18:14:35
,wl-rdm,63,215234,0.0-6.55-0.55,0.0,64.0,,,,,,,[],,,,,,62.5,0.0,u,0.0,True,939.8000000007451,57.0,60.0,40.0,False,,204.98817440294752,[],"[960, 540]",ColorTask,34.0,56.0,,,HRV,HRV_0129,2022-11-30 18:14:35
,wl-rdm,64,217534,0.0-6.56-0.56,0.0,65.0,,,,,,,[],,,,,,53.2,0.0,u,0.0,True,936.2000000001863,57.0,60.0,40.0,False,,269.5885298380149,[],"[960, 540]",ColorTask,35.0,57.0,,,HRV,HRV_0129,2022-11-30 18:14:35
,wl-rdm,65,220117,0.0-6.57-0.57,0.0,66.0,,,,,,,[],,,,,,53.2,1.0,u,0.0,False,1236.6000000005588,75.0,60.0,40.0,False,,268.4162752515701,[],"[960, 540]",ColorTask,34.0,58.0,,,HRV,HRV_0129,2022-11-30 18:14:35
,wl-rdm,66,222784,0.0-6.58-0.58,0.0,67.0,,,,,,,[],,,,,,56.4,0.0,u,0.0,True,1234.9000000003725,75.0,60.0,40.0,False,,339.1425455701085,[],"[960, 540]",ColorTask,35.0,59.0,,,HRV,HRV_0129,2022-11-30 18:14:35
,wl-rdm,67,225167,0.0-6.59-0.59,0.0,68.0,,,,,,,[],,,,,,62.5,1.0,i,1.0,True,1042.3999999994412,63.0,60.0,40.0,False,,270.0015118463099,[],"[960, 540]",ColorTask,36.0,60.0,,,HRV,HRV_0129,2022-11-30 18:14:35
,wl-rdm,68,227584,0.0-6.60-0.60,0.0,69.0,,,,,,,[],,,,,,56.4,1.0,i,1.0,True,1008.7999999998137,61.0,60.0,40.0,False,,330.2563520090656,[],"[960, 540]",ColorTask,37.0,61.0,,,HRV,HRV_0129,2022-11-30 18:14:35
,wl-rdm,69,229901,0.0-6.61-0.61,0.0,70.0,,,,,,,[],,,,,,56.4,1.0,i,1.0,True,895.3000000007451,54.0,60.0,40.0,False,,343.64933589551356,[],"[960, 540]",ColorTask,38.0,62.0,,,HRV,HRV_0129,2022-11-30 18:14:35
,wl-rdm,70,231984,0.0-6.62-0.62,0.0,71.0,,,,,,,[],,,,,,87.9,0.0,u,0.0,True,808.0000000009313,49.0,60.0,40.0,False,,200.09856109052686,[],"[960, 540]",ColorTask,39.0,63.0,,,HRV,HRV_0129,2022-11-30 18:14:35
,wl-rdm,71,235884,0.0-6.63-0.63,0.0,72.0,,,,,,,[],,,,,,53.2,1.0,i,1.0,True,2605.0999999996275,157.0,60.0,40.0,False,,214.86318749291468,[],"[960, 540]",ColorTask,40.0,64.0,,,HRV,HRV_0129,2022-11-30 18:14:35
,wl-rdm,72,238584,0.0-6.64-0.64,0.0,73.0,,,,,,,[],,,,,,53.2,0.0,i,1.0,False,1325.0,80.0,60.0,40.0,False,,288.68996825662737,[],"[960, 540]",ColorTask,39.0,65.0,,,HRV,HRV_0129,2022-11-30 18:14:35
,wl-rdm,73,241884,0.0-6.65-0.65,0.0,74.0,,,,,,,[],,,,,,73.6,1.0,i,1.0,True,1861.7999999998137,112.0,60.0,40.0,False,,382.2901790198123,[],"[960, 540]",ColorTask,40.0,66.0,,,HRV,HRV_0129,2022-11-30 18:14:35
,wl-rdm,74,244001,0.0-6.66-0.66,0.0,75.0,,,,,,,[],,,,,,73.6,0.0,u,0.0,True,815.7999999998137,49.0,60.0,40.0,False,,228.5991725183125,[],"[960, 540]",ColorTask,41.0,67.0,,,HRV,HRV_0129,2022-11-30 18:14:35
,wl-rdm,75,246085,0.0-6.67-0.67,0.0,76.0,,,,,,,[],,,,,,87.9,0.0,u,0.0,True,637.5999999996275,39.0,60.0,40.0,False,,352.5809928050445,[],"[960, 540]",ColorTask,42.0,68.0,,,HRV,HRV_0129,2022-11-30 18:14:35
,wl-rdm,76,249985,0.0-6.68-0.68,0.0,77.0,,,,,,,[],,,,,,53.2,1.0,i,1.0,True,2533.0,152.0,60.0,40.0,False,,299.6624978100648,[],"[960, 540]",ColorTask,43.0,69.0,,,HRV,HRV_0129,2022-11-30 18:14:35
,wl-rdm,77,254185,0.0-6.69-0.69,0.0,78.0,,,,,,,[],,,,,,50.0,1.0,i,1.0,True,2849.2999999998137,171.0,60.0,40.0,False,,267.3503041447634,[],"[960, 540]",ColorTask,44.0,70.0,,,HRV,HRV_0129,2022-11-30 18:14:35
,wl-rdm,78,256685,0.0-6.70-0.70,0.0,79.0,,,,,,,[],,,,,,62.5,0.0,u,0.0,True,1053.5,64.0,60.0,40.0,False,,354.02954029438956,[],"[960, 540]",ColorTask,45.0,71.0,,,HRV,HRV_0129,2022-11-30 18:14:35
,wl-rdm,79,259152,0.0-6.71-0.71,0.0,80.0,,,,,,,[],,,,,,56.4,0.0,i,1.0,False,1152.6000000005588,70.0,60.0,40.0,False,,236.5108999672879,[],"[960, 540]",ColorTask,44.0,72.0,,,HRV,HRV_0129,2022-11-30 18:14:35
,wl-rdm,80,261785,0.0-6.72-0.72,0.0,81.0,,,,,,,[],,,,,,62.5,0.0,i,1.0,False,1340.800000000745,81.0,60.0,40.0,False,,213.1400983355596,[],"[960, 540]",ColorTask,43.0,73.0,,,HRV,HRV_0129,2022-11-30 18:14:35
,wl-rdm,81,264518,0.0-6.73-0.73,0.0,82.0,,,,,,,[],,,,,,53.2,1.0,i,1.0,True,1319.199999999255,79.0,60.0,40.0,False,,346.1841331180535,[],"[960, 540]",ColorTask,44.0,74.0,,,HRV,HRV_0129,2022-11-30 18:14:35
,wl-rdm,82,266585,0.0-6.74-0.74,0.0,83.0,,,,,,,[],,,,,,73.6,0.0,u,0.0,True,757.5,46.0,60.0,40.0,False,,220.47069008448764,[],"[960, 540]",ColorTask,45.0,75.0,,,HRV,HRV_0129,2022-11-30 18:14:35
,wl-rdm,83,268752,0.0-6.75-0.75,0.0,84.0,,,,,,,[],,,,,,87.9,1.0,i,1.0,True,866.6999999992549,52.0,60.0,40.0,False,,218.4850842744493,[],"[960, 540]",ColorTask,46.0,76.0,,,HRV,HRV_0129,2022-11-30 18:14:35
,wl-rdm,84,272486,0.0-6.76-0.76,0.0,85.0,,,,,,,[],,,,,,50.0,1.0,u,0.0,False,2386.7999999998137,144.0,60.0,40.0,False,,250.88436972106456,[],"[960, 540]",ColorTask,45.0,77.0,,,HRV,HRV_0129,2022-11-30 18:14:35
,wl-rdm,85,274602,0.0-6.77-0.77,0.0,86.0,,,,,,,[],,,,,,73.6,1.0,i,1.0,True,789.5999999996275,48.0,60.0,40.0,False,,234.89503549506335,[],"[960, 540]",ColorTask,46.0,78.0,,,HRV,HRV_0129,2022-11-30 18:14:35
,wl-rdm,86,276786,0.0-6.78-0.78,0.0,87.0,,,,,,,[],,,,,,87.9,1.0,i,1.0,True,848.9000000003725,51.0,60.0,40.0,False,,250.70057962507127,[],"[960, 540]",ColorTask,47.0,79.0,,,HRV,HRV_0129,2022-11-30 18:14:35
,wl-rdm,87,278936,0.0-6.79-0.79,0.0,88.0,,,,,,,[],,,,,,73.6,1.0,i,1.0,True,785.0,48.0,60.0,40.0,False,,285.3888049619954,[],"[960, 540]",ColorTask,48.0,80.0,,,HRV,HRV_0129,2022-11-30 18:14:35
,wl-rdm,88,282319,0.0-6.80-0.80,0.0,89.0,,,,,,,[],,,,,,50.0,1.0,i,1.0,True,2076.600000000559,125.0,60.0,40.0,False,,225.52529030154707,[],"[960, 540]",ColorTask,49.0,81.0,,,HRV,HRV_0129,2022-11-30 18:14:35
,wl-rdm,89,284519,0.0-6.81-0.81,0.0,90.0,,,,,,,[],,,,,,73.6,0.0,u,0.0,True,802.3000000007451,49.0,60.0,40.0,False,,303.5465725584755,[],"[960, 540]",ColorTask,50.0,82.0,,,HRV,HRV_0129,2022-11-30 18:14:35
,wl-rdm,90,287136,0.0-6.82-0.82,0.0,91.0,,,,,,,[],,,,,,53.2,0.0,u,0.0,True,1218.7000000001863,74.0,60.0,40.0,False,,330.3485499878049,[],"[960, 540]",ColorTask,51.0,83.0,,,HRV,HRV_0129,2022-11-30 18:14:35
,wl-rdm,91,290253,0.0-6.83-0.83,0.0,92.0,,,,,,,[],,,,,,73.6,1.0,i,1.0,True,1670.0999999996275,101.0,60.0,40.0,False,,377.03515233318666,[],"[960, 540]",ColorTask,52.0,84.0,,,HRV,HRV_0129,2022-11-30 18:14:35
,wl-rdm,92,293186,0.0-6.84-0.84,0.0,93.0,,,,,,,[],,,,,,50.0,0.0,i,1.0,False,1523.2000000001863,92.0,60.0,40.0,False,,321.2192976246219,[],"[960, 540]",ColorTask,51.0,85.0,,,HRV,HRV_0129,2022-11-30 18:14:35
,wl-rdm,93,295220,0.0-6.85-0.85,0.0,94.0,,,,,,,[],,,,,,56.4,0.0,u,0.0,True,612.3000000007451,37.0,60.0,40.0,False,,356.3036507882961,[],"[960, 540]",ColorTask,52.0,86.0,,,HRV,HRV_0129,2022-11-30 18:14:35
,wl-rdm,94,298270,0.0-6.86-0.86,0.0,95.0,,,,,,,[],,,,,,50.0,0.0,i,1.0,False,1619.0999999996275,98.0,60.0,40.0,False,,353.52611339242594,[],"[960, 540]",ColorTask,51.0,87.0,,,HRV,HRV_0129,2022-11-30 18:14:35
,wl-rdm,95,301053,0.0-6.87-0.87,0.0,96.0,,,,,,,[],,,,,,50.0,1.0,u,0.0,False,1369.5999999996275,83.0,60.0,40.0,False,,335.34692441181267,[],"[960, 540]",ColorTask,50.0,88.0,,,HRV,HRV_0129,2022-11-30 18:14:35
,wl-rdm,96,303870,0.0-6.88-0.88,0.0,97.0,,,,,,,[],,,,,,50.0,1.0,i,1.0,True,1511.2000000001863,91.0,60.0,40.0,False,,217.0378167290939,[],"[960, 540]",ColorTask,51.0,89.0,,,HRV,HRV_0129,2022-11-30 18:14:35
,wl-rdm,97,306454,0.0-6.89-0.89,0.0,98.0,,,,,,,[],,,,,,53.2,0.0,u,0.0,True,1270.0999999996275,77.0,60.0,40.0,False,,217.10456416725282,[],"[960, 540]",ColorTask,52.0,90.0,,,HRV,HRV_0129,2022-11-30 18:14:35
,wl-rdm,98,309837,0.0-6.90-0.90,0.0,99.0,,,,,,,[],,,,,,56.4,1.0,i,1.0,True,2020.9000000003725,122.0,60.0,40.0,False,,277.71455079904075,[],"[960, 540]",ColorTask,53.0,91.0,,,HRV,HRV_0129,2022-11-30 18:14:35
,wl-rdm,99,312370,0.0-6.91-0.91,0.0,100.0,,,,,,,[],,,,,,73.6,0.0,u,0.0,True,1123.0,68.0,60.0,40.0,False,,331.07193764679096,[],"[960, 540]",ColorTask,54.0,92.0,,,HRV,HRV_0129,2022-11-30 18:14:35
,wl-rdm,100,314787,0.0-6.92-0.92,0.0,101.0,,,,,,,[],,,,,,50.0,1.0,u,0.0,False,1122.199999999255,68.0,60.0,40.0,False,,222.5754481419076,[],"[960, 540]",ColorTask,53.0,93.0,,,HRV,HRV_0129,2022-11-30 18:14:35
,wl-rdm,101,316970,0.0-6.93-0.93,0.0,102.0,,,,,,,[],,,,,,62.5,0.0,u,0.0,True,830.8999999994412,50.0,60.0,40.0,False,,272.6945123010661,[],"[960, 540]",ColorTask,54.0,94.0,,,HRV,HRV_0129,2022-11-30 18:14:35
,wl-rdm,102,321187,0.0-6.94-0.94,0.0,103.0,,,,,,,[],,,,,,53.2,0.0,u,0.0,True,2881.0,173.0,60.0,40.0,False,,262.9477541125606,[],"[960, 540]",ColorTask,55.0,95.0,,,HRV,HRV_0129,2022-11-30 18:14:35
,wl-rdm,103,324887,0.0-6.95-0.95,0.0,104.0,,,,,,,[],,,,,,62.5,1.0,i,1.0,True,2258.800000000745,136.0,60.0,40.0,False,,381.40918372080023,[],"[960, 540]",ColorTask,56.0,96.0,,,HRV,HRV_0129,2022-11-30 18:14:35
,wl-rdm,104,329171,0.0-6.96-0.96,0.0,104.0,,,,,,,[],,,,,,56.4,1.0,,,,,179.0,60.0,40.0,True,RT_timeout ,214.11121405490343,[],"[960, 540]",ColorTask,55.0,97.0,,,HRV,HRV_0129,2022-11-30 18:14:35
,wl-rdm,105,330238,0.0-6.97-0.97,0.0,104.0,,,,,,,[],,,,,,73.6,1.0,u,,,100.6000000005588,0.0,60.0,40.0,True,too_early ,292.0141759022754,[],"[960, 540]",ColorTask,54.0,98.0,,,HRV,HRV_0129,2022-11-30 18:14:35
,wl-rdm,106,331304,0.0-6.98-0.98,0.0,104.0,,,,,,,[],,,,,,62.5,0.0,u,,,81.8999999994412,0.0,60.0,40.0,True,too_early ,380.8607286060876,[],"[960, 540]",ColorTask,53.0,99.0,,,HRV,HRV_0129,2022-11-30 18:14:35
,wl-rdm,107,333887,0.0-6.99-0.99,0.0,105.0,,,,,,,[],,,,,,87.9,1.0,i,1.0,True,1185.9000000003725,72.0,60.0,40.0,False,,301.1963414415845,[],"[960, 540]",ColorTask,54.0,100.0,,,HRV,HRV_0129,2022-11-30 18:14:35
,wl-rdm,108,336471,0.0-6.100-0.100,0.0,106.0,,,,,,,[],,,,,,62.5,1.0,i,1.0,True,1218.9000000003725,74.0,60.0,40.0,False,,284.4821287290353,[],"[960, 540]",ColorTask,55.0,101.0,,,HRV,HRV_0129,2022-11-30 18:14:35
,wl-rdm,109,338521,0.0-6.101-0.101,0.0,107.0,,,,,,,[],,,,,,87.9,0.0,u,0.0,True,766.0999999996275,46.0,60.0,40.0,False,,203.63277731008046,[],"[960, 540]",ColorTask,56.0,102.0,,,HRV,HRV_0129,2022-11-30 18:14:35
,wl-rdm,110,341237,0.0-6.102-0.102,0.0,108.0,,,,,,,[],,,,,,62.5,1.0,i,1.0,True,1319.2999999998137,80.0,60.0,40.0,False,,329.55194794178044,[],"[960, 540]",ColorTask,57.0,103.0,,,HRV,HRV_0129,2022-11-30 18:14:35
,wl-rdm,111,345571,0.0-6.103-0.103,0.0,108.0,,,,,,,[],,,,,,50.0,0.0,,,,,179.0,60.0,40.0,True,RT_timeout ,230.33075832440406,[],"[960, 540]",ColorTask,56.0,104.0,,,HRV,HRV_0129,2022-11-30 18:14:35
,wl-rdm,112,346654,0.0-6.104-0.104,0.0,108.0,,,,,,,[],,,,,,73.6,1.0,i,,,68.09999999962747,0.0,60.0,40.0,True,too_early ,376.6604532481988,[],"[960, 540]",ColorTask,55.0,105.0,,,HRV,HRV_0129,2022-11-30 18:14:35
,wl-rdm,113,349038,0.0-6.105-0.105,0.0,109.0,,,,,,,[],,,,,,62.5,0.0,u,0.0,True,968.2999999998137,59.0,60.0,40.0,False,,341.9870556158173,[],"[960, 540]",ColorTask,56.0,106.0,,,HRV,HRV_0129,2022-11-30 18:14:35
,wl-rdm,114,351421,0.0-6.106-0.106,0.0,110.0,,,,,,,[],,,,,,73.6,1.0,i,1.0,True,1086.5,66.0,60.0,40.0,False,,210.64214182803914,[],"[960, 540]",ColorTask,57.0,107.0,,,HRV,HRV_0129,2022-11-30 18:14:35
,wl-rdm,115,353538,0.0-6.107-0.107,0.0,111.0,,,,,,,[],,,,,,56.4,1.0,i,1.0,True,806.5999999996275,49.0,60.0,40.0,False,,227.82294534675952,[],"[960, 540]",ColorTask,58.0,108.0,,,HRV,HRV_0129,2022-11-30 18:14:35
,wl-rdm,116,355738,0.0-6.108-0.108,0.0,112.0,,,,,,,[],,,,,,62.5,0.0,u,0.0,True,765.5,46.0,60.0,40.0,False,,350.9742702110722,[],"[960, 540]",ColorTask,59.0,109.0,,,HRV,HRV_0129,2022-11-30 18:14:35
,wl-rdm,117,357871,0.0-6.109-0.109,0.0,113.0,,,,,,,[],,,,,,53.2,1.0,u,0.0,False,841.8999999994412,51.0,60.0,40.0,False,,224.53678890039387,[],"[960, 540]",ColorTask,58.0,110.0,,,HRV,HRV_0129,2022-11-30 18:14:35
,wl-rdm,118,360405,0.0-6.110-0.110,0.0,114.0,,,,,,,[],,,,,,56.4,1.0,i,1.0,True,1170.2999999998137,71.0,60.0,40.0,False,,280.6214050611528,[],"[960, 540]",ColorTask,59.0,111.0,,,HRV,HRV_0129,2022-11-30 18:14:35
,wl-rdm,119,362888,0.0-6.111-0.111,0.0,115.0,,,,,,,[],,,,,,50.0,0.0,i,1.0,False,1041.7000000001863,63.0,60.0,40.0,False,,361.0670404451205,[],"[960, 540]",ColorTask,58.0,112.0,,,HRV,HRV_0129,2022-11-30 18:14:35
,wl-rdm,120,364855,0.0-6.112-0.112,0.0,116.0,,,,,,,[],,,,,,87.9,1.0,i,1.0,True,668.1000000005588,41.0,60.0,40.0,False,,209.07283114311872,[],"[960, 540]",ColorTask,59.0,113.0,,,HRV,HRV_0129,2022-11-30 18:14:35
,wl-html-keyboard-response,121,399654,0.0-7.0-0.0,1.0,117.0,,,,,,,,32793.300000000745,1.0,0,,,,,,,,,,,,,,,,,,,,,,HRV,HRV_0129,2022-11-30 18:14:35
,wl-rdm,122,401990,0.0-8.0-0.0,1.0,118.0,,,,,,,[],,,,,,73.6,0.0,u,0.0,True,985.5,60.0,60.0,40.0,False,,269.43507616439456,[],"[960, 540]",ColorTask,60.0,1.0,,,HRV,HRV_0129,2022-11-30 18:14:35
,wl-rdm,123,404507,0.0-8.1-0.1,1.0,119.0,,,,,,,[],,,,,,56.4,0.0,u,0.0,True,1189.300000000745,72.0,60.0,40.0,False,,237.99659498499932,[],"[960, 540]",ColorTask,61.0,2.0,,,HRV,HRV_0129,2022-11-30 18:14:35
,wl-rdm,124,408357,0.0-8.2-0.2,1.0,120.0,,,,,,,[],,,,,,50.0,1.0,u,0.0,False,2470.899999999441,149.0,60.0,40.0,False,,299.7986586448315,[],"[960, 540]",ColorTask,60.0,3.0,,,HRV,HRV_0129,2022-11-30 18:14:35
,wl-rdm,125,410273,0.0-8.3-0.3,1.0,121.0,,,,,,,[],,,,,,87.9,0.0,u,0.0,True,631.2000000001863,38.0,60.0,40.0,False,,226.81043501226063,[],"[960, 540]",ColorTask,61.0,4.0,,,HRV,HRV_0129,2022-11-30 18:14:35
,wl-rdm,126,413123,0.0-8.4-0.4,1.0,122.0,,,,,,,[],,,,,,56.4,0.0,i,1.0,False,1505.2999999998137,91.0,60.0,40.0,False,,256.9405439139904,[],"[960, 540]",ColorTask,60.0,5.0,,,HRV,HRV_0129,2022-11-30 18:14:35
,wl-rdm,127,415473,0.0-8.5-0.5,1.0,123.0,,,,,,,[],,,,,,56.4,1.0,i,1.0,True,956.9999999990687,58.0,60.0,40.0,False,,310.11148510952705,[],"[960, 540]",ColorTask,61.0,6.0,,,HRV,HRV_0129,2022-11-30 18:14:35
,wl-rdm,128,417440,0.0-8.6-0.6,1.0,124.0,,,,,,,[],,,,,,73.6,1.0,i,1.0,True,641.8000000007451,39.0,60.0,40.0,False,,241.560393059413,[],"[960, 540]",ColorTask,62.0,7.0,,,HRV,HRV_0129,2022-11-30 18:14:35
,wl-rdm,129,419824,0.0-8.7-0.7,1.0,125.0,,,,,,,[],,,,,,56.4,1.0,i,1.0,True,1076.1000000005588,65.0,60.0,40.0,False,,226.61690930625795,[],"[960, 540]",ColorTask,63.0,8.0,,,HRV,HRV_0129,2022-11-30 18:14:35
,wl-rdm,130,422124,0.0-8.8-0.8,1.0,126.0,,,,,,,[],,,,,,62.5,1.0,i,1.0,True,1013.1999999992549,61.0,60.0,40.0,False,,215.99734800559202,[],"[960, 540]",ColorTask,64.0,9.0,,,HRV,HRV_0129,2022-11-30 18:14:35
,wl-rdm,131,424307,0.0-8.9-0.9,1.0,127.0,,,,,,,[],,,,,,73.6,1.0,i,1.0,True,830.5999999996275,50.0,60.0,40.0,False,,282.11026844334333,[],"[960, 540]",ColorTask,65.0,10.0,,,HRV,HRV_0129,2022-11-30 18:14:35
,wl-rdm,132,426474,0.0-8.10-0.10,1.0,128.0,,,,,,,[],,,,,,56.4,0.0,u,0.0,True,756.5999999996275,46.0,60.0,40.0,False,,321.7981454580182,[],"[960, 540]",ColorTask,66.0,11.0,,,HRV,HRV_0129,2022-11-30 18:14:35
,wl-rdm,133,428541,0.0-8.11-0.11,1.0,129.0,,,,,,,[],,,,,,62.5,0.0,u,0.0,True,670.6000000005588,41.0,60.0,40.0,False,,309.13585794643836,[],"[960, 540]",ColorTask,67.0,12.0,,,HRV,HRV_0129,2022-11-30 18:14:35
,wl-rdm,134,430957,0.0-8.12-0.12,1.0,130.0,,,,,,,[],,,,,,56.4,1.0,i,1.0,True,1144.5,69.0,60.0,40.0,False,,210.39373992003007,[],"[960, 540]",ColorTask,68.0,13.0,,,HRV,HRV_0129,2022-11-30 18:14:35
,wl-rdm,135,433141,0.0-8.13-0.13,1.0,131.0,,,,,,,[],,,,,,62.5,0.0,u,0.0,True,787.2000000001863,48.0,60.0,40.0,False,,315.58593311808187,[],"[960, 540]",ColorTask,69.0,14.0,,,HRV,HRV_0129,2022-11-30 18:14:35
,wl-rdm,136,435491,0.0-8.14-0.14,1.0,132.0,,,,,,,[],,,,,,62.5,1.0,i,1.0,True,922.7000000011176,56.0,60.0,40.0,False,,349.303967987002,[],"[960, 540]",ColorTask,70.0,15.0,,,HRV,HRV_0129,2022-11-30 18:14:35
,wl-rdm,137,437924,0.0-8.15-0.15,1.0,133.0,,,,,,,[],,,,,,50.0,0.0,u,0.0,True,1112.8999999994412,67.0,60.0,40.0,False,,239.7081222750165,[],"[960, 540]",ColorTask,71.0,16.0,,,HRV,HRV_0129,2022-11-30 18:14:35
,wl-rdm,138,440641,0.0-8.16-0.16,1.0,134.0,,,,,,,[],,,,,,53.2,0.0,u,0.0,True,1324.2000000001863,80.0,60.0,40.0,False,,311.7999568541288,[],"[960, 540]",ColorTask,72.0,17.0,,,HRV,HRV_0129,2022-11-30 18:14:35
,wl-rdm,139,443024,0.0-8.17-0.17,1.0,135.0,,,,,,,[],,,,,,62.5,1.0,i,1.0,True,1024.8999999994412,62.0,60.0,40.0,False,,271.046769253985,[],"[960, 540]",ColorTask,73.0,18.0,,,HRV,HRV_0129,2022-11-30 18:14:35
,wl-rdm,140,445541,0.0-8.18-0.18,1.0,136.0,,,,,,,[],,,,,,53.2,0.0,u,0.0,True,1211.0999999996275,73.0,60.0,40.0,False,,238.56774977245675,[],"[960, 540]",ColorTask,74.0,19.0,,,HRV,HRV_0129,2022-11-30 18:14:35
,wl-rdm,141,448374,0.0-8.19-0.19,1.0,137.0,,,,,,,[],,,,,,50.0,0.0,u,0.0,True,1493.4000000003725,90.0,60.0,40.0,False,,250.5498748873456,[],"[960, 540]",ColorTask,75.0,20.0,,,HRV,HRV_0129,2022-11-30 18:14:35
,wl-rdm,142,450425,0.0-8.20-0.20,1.0,138.0,,,,,,,[],,,,,,87.9,1.0,i,1.0,True,724.6999999992549,44.0,60.0,40.0,False,,235.2562144513288,[],"[960, 540]",ColorTask,76.0,21.0,,,HRV,HRV_0129,2022-11-30 18:14:35
,wl-rdm,143,452591,0.0-8.21-0.21,1.0,139.0,,,,,,,[],,,,,,73.6,0.0,u,0.0,True,775.1000000005588,47.0,60.0,40.0,False,,327.2330215514176,[],"[960, 540]",ColorTask,77.0,22.0,,,HRV,HRV_0129,2022-11-30 18:14:35
,wl-rdm,144,455658,0.0-8.22-0.22,1.0,140.0,,,,,,,[],,,,,,50.0,1.0,u,0.0,False,1614.1000000005588,97.0,60.0,40.0,False,,387.6763707668593,[],"[960, 540]",ColorTask,76.0,23.0,,,HRV,HRV_0129,2022-11-30 18:14:35
,wl-rdm,145,457892,0.0-8.23-0.23,1.0,141.0,,,,,,,[],,,,,,87.9,1.0,i,1.0,True,771.9000000003725,47.0,60.0,40.0,False,,375.8721611096977,[],"[960, 540]",ColorTask,77.0,24.0,,,HRV,HRV_0129,2022-11-30 18:14:35
,wl-rdm,146,460708,0.0-8.24-0.24,1.0,142.0,,,,,,,[],,,,,,53.2,0.0,u,0.0,True,1478.9999999990687,89.0,60.0,40.0,False,,264.0148074681696,[],"[960, 540]",ColorTask,78.0,25.0,,,HRV,HRV_0129,2022-11-30 18:14:35
,wl-rdm,147,462842,0.0-8.25-0.25,1.0,143.0,,,,,,,[],,,,,,56.4,0.0,u,0.0,True,714.2000000001863,43.0,60.0,40.0,False,,354.1776277122312,[],"[960, 540]",ColorTask,79.0,26.0,,,HRV,HRV_0129,2022-11-30 18:14:35
,wl-rdm,148,464858,0.0-8.26-0.26,1.0,144.0,,,,,,,[],,,,,,73.6,0.0,u,0.0,True,713.5,43.0,60.0,40.0,False,,245.1345434481454,[],"[960, 540]",ColorTask,80.0,27.0,,,HRV,HRV_0129,2022-11-30 18:14:35
,wl-rdm,149,466959,0.0-8.27-0.27,1.0,145.0,,,,,,,[],,,,,,53.2,1.0,u,0.0,False,760.5999999996275,46.0,60.0,40.0,False,,265.96530231827234,[],"[960, 540]",ColorTask,79.0,28.0,,,HRV,HRV_0129,2022-11-30 18:14:35
,wl-rdm,150,469342,0.0-8.28-0.28,1.0,146.0,,,,,,,[],,,,,,56.4,0.0,u,0.0,True,1085.5999999996275,66.0,60.0,40.0,False,,223.73955949713127,[],"[960, 540]",ColorTask,80.0,29.0,,,HRV,HRV_0129,2022-11-30 18:14:35
,wl-rdm,151,471809,0.0-8.29-0.29,1.0,147.0,,,,,,,[],,,,,,73.6,1.0,i,1.0,True,1174.2999999998137,71.0,60.0,40.0,False,,209.4223276140767,[],"[960, 540]",ColorTask,81.0,30.0,,,HRV,HRV_0129,2022-11-30 18:14:35
,wl-rdm,152,474125,0.0-8.30-0.30,1.0,148.0,,,,,,,[],,,,,,53.2,1.0,u,0.0,False,1035.0999999996275,63.0,60.0,40.0,False,,207.14629542359117,[],"[960, 540]",ColorTask,80.0,31.0,,,HRV,HRV_0129,2022-11-30 18:14:35
,wl-rdm,153,476242,0.0-8.31-0.31,1.0,149.0,,,,,,,[],,,,,,73.6,0.0,u,0.0,True,673.0,41.0,60.0,40.0,False,,358.5585479481955,[],"[960, 540]",ColorTask,81.0,32.0,,,HRV,HRV_0129,2022-11-30 18:14:35
,wl-rdm,154,478692,0.0-8.32-0.32,1.0,150.0,,,,,,,[],,,,,,53.2,1.0,u,0.0,False,1129.7999999998137,68.0,60.0,40.0,False,,238.8761797541212,[],"[960, 540]",ColorTask,80.0,33.0,,,HRV,HRV_0129,2022-11-30 18:14:35
,wl-rdm,155,481042,0.0-8.33-0.33,1.0,151.0,,,,,,,[],,,,,,73.6,0.0,u,0.0,True,913.8999999994412,55.0,60.0,40.0,False,,381.33728629117115,[],"[960, 540]",ColorTask,81.0,34.0,,,HRV,HRV_0129,2022-11-30 18:14:35
,wl-rdm,156,483442,0.0-8.34-0.34,1.0,152.0,,,,,,,[],,,,,,56.4,1.0,i,1.0,True,1022.2999999998137,62.0,60.0,40.0,False,,314.4144033740863,[],"[960, 540]",ColorTask,82.0,35.0,,,HRV,HRV_0129,2022-11-30 18:14:35
,wl-rdm,157,486726,0.0-8.35-0.35,1.0,153.0,,,,,,,[],,,,,,53.2,0.0,i,1.0,False,1827.2999999988824,110.0,60.0,40.0,False,,376.7745325479967,[],"[960, 540]",ColorTask,81.0,36.0,,,HRV,HRV_0129,2022-11-30 18:14:35
,wl-rdm,158,488792,0.0-8.36-0.36,1.0,154.0,,,,,,,[],,,,,,62.5,0.0,u,0.0,True,765.5,46.0,60.0,40.0,False,,248.72781024752567,[],"[960, 540]",ColorTask,82.0,37.0,,,HRV,HRV_0129,2022-11-30 18:14:35
,wl-rdm,159,492326,0.0-8.37-0.37,1.0,155.0,,,,,,,[],,,,,,50.0,0.0,i,1.0,False,2210.7000000011176,133.0,60.0,40.0,False,,235.67766222439172,[],"[960, 540]",ColorTask,81.0,38.0,,,HRV,HRV_0129,2022-11-30 18:14:35
,wl-rdm,160,494376,0.0-8.38-0.38,1.0,156.0,,,,,,,[],,,,,,87.9,0.0,u,0.0,True,735.3999999994412,45.0,60.0,40.0,False,,223.9634179580056,[],"[960, 540]",ColorTask,82.0,39.0,,,HRV,HRV_0129,2022-11-30 18:14:35
,wl-rdm,161,497076,0.0-8.39-0.39,1.0,157.0,,,,,,,[],,,,,,53.2,0.0,u,0.0,True,1420.5999999996275,86.0,60.0,40.0,False,,203.8979857284045,[],"[960, 540]",ColorTask,83.0,40.0,,,HRV,HRV_0129,2022-11-30 18:14:35
,wl-rdm,162,499643,0.0-8.40-0.40,1.0,158.0,,,,,,,[],,,,,,53.2,1.0,i,1.0,True,1262.7000000001863,76.0,60.0,40.0,False,,246.28188178735945,[],"[960, 540]",ColorTask,84.0,41.0,,,HRV,HRV_0129,2022-11-30 18:14:35
,wl-rdm,163,501809,0.0-8.41-0.41,1.0,159.0,,,,,,,[],,,,,,73.6,0.0,u,0.0,True,773.0,47.0,60.0,40.0,False,,321.22984443425196,[],"[960, 540]",ColorTask,85.0,42.0,,,HRV,HRV_0129,2022-11-30 18:14:35
,wl-rdm,164,504159,0.0-8.42-0.42,1.0,160.0,,,,,,,[],,,,,,87.9,1.0,i,1.0,True,1033.5999999996275,62.0,60.0,40.0,False,,233.87327599139678,[],"[960, 540]",ColorTask,86.0,43.0,,,HRV,HRV_0129,2022-11-30 18:14:35
,wl-rdm,165,506226,0.0-8.43-0.43,1.0,161.0,,,,,,,[],,,,,,87.9,0.0,u,0.0,True,746.5,45.0,60.0,40.0,False,,259.3017912593718,[],"[960, 540]",ColorTask,87.0,44.0,,,HRV,HRV_0129,2022-11-30 18:14:35
,wl-rdm,166,508376,0.0-8.44-0.44,1.0,162.0,,,,,,,[],,,,,,73.6,1.0,i,1.0,True,666.8999999994412,41.0,60.0,40.0,False,,398.1217174589657,[],"[960, 540]",ColorTask,88.0,45.0,,,HRV,HRV_0129,2022-11-30 18:14:35
,wl-rdm,167,511093,0.0-8.45-0.45,1.0,163.0,,,,,,,[],,,,,,56.4,1.0,i,1.0,True,1352.7000000001863,82.0,60.0,40.0,False,,288.8692553127852,[],"[960, 540]",ColorTask,89.0,46.0,,,HRV,HRV_0129,2022-11-30 18:14:35
,wl-rdm,168,514860,0.0-8.46-0.46,1.0,164.0,,,,,,,[],,,,,,56.4,0.0,u,0.0,True,2287.7999999998137,138.0,60.0,40.0,False,,387.7626521267489,[],"[960, 540]",ColorTask,90.0,47.0,,,HRV,HRV_0129,2022-11-30 18:14:35
,wl-rdm,169,517160,0.0-8.47-0.47,1.0,165.0,,,,,,,[],,,,,,56.4,0.0,u,0.0,True,932.1000000005588,56.0,60.0,40.0,False,,305.8054994919381,[],"[960, 540]",ColorTask,91.0,48.0,,,HRV,HRV_0129,2022-11-30 18:14:35
,wl-rdm,170,519361,0.0-8.48-0.48,1.0,166.0,,,,,,,[],,,,,,56.4,1.0,i,1.0,True,883.4000000003725,53.0,60.0,40.0,False,,248.91552352724872,[],"[960, 540]",ColorTask,92.0,49.0,,,HRV,HRV_0129,2022-11-30 18:14:35
,wl-rdm,171,522244,0.0-8.49-0.49,1.0,167.0,,,,,,,[],,,,,,53.2,0.0,u,0.0,True,1529.1000000005588,92.0,60.0,40.0,False,,299.5096922591777,[],"[960, 540]",ColorTask,93.0,50.0,,,HRV,HRV_0129,2022-11-30 18:14:35
,wl-rdm,172,524444,0.0-8.50-0.50,1.0,168.0,,,,,,,[],,,,,,50.0,0.0,i,1.0,False,855.4000000003725,52.0,60.0,40.0,False,,255.44969386888636,[],"[960, 540]",ColorTask,92.0,51.0,,,HRV,HRV_0129,2022-11-30 18:14:35
,wl-rdm,173,527860,0.0-8.51-0.51,1.0,169.0,,,,,,,[],,,,,,50.0,0.0,u,0.0,True,2002.9999999990687,121.0,60.0,40.0,False,,340.5754392493013,[],"[960, 540]",ColorTask,93.0,52.0,,,HRV,HRV_0129,2022-11-30 18:14:35
,wl-rdm,174,530761,0.0-8.52-0.52,1.0,170.0,,,,,,,[],,,,,,56.4,0.0,u,0.0,True,1477.0,89.0,60.0,40.0,False,,336.8074055822916,[],"[960, 540]",ColorTask,94.0,53.0,,,HRV,HRV_0129,2022-11-30 18:14:35
,wl-rdm,175,532877,0.0-8.53-0.53,1.0,171.0,,,,,,,[],,,,,,73.6,1.0,i,1.0,True,820.0,50.0,60.0,40.0,False,,206.62250169772997,[],"[960, 540]",ColorTask,95.0,54.0,,,HRV,HRV_0129,2022-11-30 18:14:35
,wl-rdm,176,535694,0.0-8.54-0.54,1.0,172.0,,,,,,,[],,,,,,50.0,0.0,u,0.0,True,1485.8999999994412,90.0,60.0,40.0,False,,242.51104389225665,[],"[960, 540]",ColorTask,96.0,55.0,,,HRV,HRV_0129,2022-11-30 18:14:35
,wl-rdm,177,538244,0.0-8.55-0.55,1.0,173.0,,,,,,,[],,,,,,50.0,1.0,u,0.0,False,1237.5,75.0,60.0,40.0,False,,232.88511396042293,[],"[960, 540]",ColorTask,95.0,56.0,,,HRV,HRV_0129,2022-11-30 18:14:35
,wl-rdm,178,540228,0.0-8.56-0.56,1.0,174.0,,,,,,,[],,,,,,87.9,0.0,u,0.0,True,704.2000000001863,43.0,60.0,40.0,False,,207.17705302929133,[],"[960, 540]",ColorTask,96.0,57.0,,,HRV,HRV_0129,2022-11-30 18:14:35
,wl-rdm,179,542645,0.0-8.57-0.57,1.0,175.0,,,,,,,[],,,,,,62.5,1.0,i,1.0,True,1111.9000000003725,67.0,60.0,40.0,False,,247.9852614498459,[],"[960, 540]",ColorTask,97.0,58.0,,,HRV,HRV_0129,2022-11-30 18:14:35
,wl-rdm,180,545044,0.0-8.58-0.58,1.0,176.0,,,,,,,[],,,,,,56.4,1.0,i,1.0,True,1112.300000000745,67.0,60.0,40.0,False,,210.7474953177392,[],"[960, 540]",ColorTask,98.0,59.0,,,HRV,HRV_0129,2022-11-30 18:14:35
,wl-rdm,181,547444,0.0-8.59-0.59,1.0,177.0,,,,,,,[],,,,,,73.6,0.0,u,0.0,True,1087.8999999994412,66.0,60.0,40.0,False,,227.6764443066677,[],"[960, 540]",ColorTask,99.0,60.0,,,HRV,HRV_0129,2022-11-30 18:14:35
,wl-rdm,182,549678,0.0-8.60-0.60,1.0,178.0,,,,,,,[],,,,,,53.2,1.0,i,1.0,True,869.2999999998137,53.0,60.0,40.0,False,,268.2972142654458,[],"[960, 540]",ColorTask,100.0,61.0,,,HRV,HRV_0129,2022-11-30 18:14:35
,wl-rdm,183,552161,0.0-8.61-0.61,1.0,179.0,,,,,,,[],,,,,,62.5,1.0,i,1.0,True,1173.9000000003725,71.0,60.0,40.0,False,,220.282644070024,[],"[960, 540]",ColorTask,101.0,62.0,,,HRV,HRV_0129,2022-11-30 18:14:35
,wl-rdm,184,554628,0.0-8.62-0.62,1.0,180.0,,,,,,,[],,,,,,53.2,1.0,u,0.0,False,1004.6999999992549,61.0,60.0,40.0,False,,368.70520699901124,[],"[960, 540]",ColorTask,100.0,63.0,,,HRV,HRV_0129,2022-11-30 18:14:35
,wl-rdm,185,557328,0.0-8.63-0.63,1.0,181.0,,,,,,,[],,,,,,50.0,1.0,i,1.0,True,1258.3999999994412,76.0,60.0,40.0,False,,364.6169376141347,[],"[960, 540]",ColorTask,101.0,64.0,,,HRV,HRV_0129,2022-11-30 18:14:35
,wl-rdm,186,560495,0.0-8.64-0.64,1.0,182.0,,,,,,,[],,,,,,56.4,1.0,i,1.0,True,1851.9000000003725,112.0,60.0,40.0,False,,223.6523058416874,[],"[960, 540]",ColorTask,102.0,65.0,,,HRV,HRV_0129,2022-11-30 18:14:35
,wl-rdm,187,562978,0.0-8.65-0.65,1.0,183.0,,,,,,,[],,,,,,62.5,1.0,i,1.0,True,1189.3999999994412,72.0,60.0,40.0,False,,211.0018058527687,[],"[960, 540]",ColorTask,103.0,66.0,,,HRV,HRV_0129,2022-11-30 18:14:35
,wl-rdm,188,565412,0.0-8.66-0.66,1.0,184.0,,,,,,,[],,,,,,62.5,0.0,u,0.0,True,1037.5,63.0,60.0,40.0,False,,332.7050261128464,[],"[960, 540]",ColorTask,104.0,67.0,,,HRV,HRV_0129,2022-11-30 18:14:35
,wl-rdm,189,568145,0.0-8.67-0.67,1.0,185.0,,,,,,,[],,,,,,50.0,1.0,u,0.0,False,1407.4000000013039,85.0,60.0,40.0,False,,236.76190101647427,[],"[960, 540]",ColorTask,103.0,68.0,,,HRV,HRV_0129,2022-11-30 18:14:35
,wl-rdm,190,570362,0.0-8.68-0.68,1.0,186.0,,,,,,,[],,,,,,50.0,0.0,i,1.0,False,806.2999999998137,49.0,60.0,40.0,False,,332.70714807241643,[],"[960, 540]",ColorTask,102.0,69.0,,,HRV,HRV_0129,2022-11-30 18:14:35
,wl-rdm,191,572462,0.0-8.69-0.69,1.0,187.0,,,,,,,[],,,,,,50.0,1.0,u,0.0,False,810.2000000001863,49.0,60.0,40.0,False,,223.48465375461697,[],"[960, 540]",ColorTask,101.0,70.0,,,HRV,HRV_0129,2022-11-30 18:14:35
,wl-rdm,192,575112,0.0-8.70-0.70,1.0,188.0,,,,,,,[],,,,,,62.5,1.0,i,1.0,True,1241.7000000001863,75.0,60.0,40.0,False,,330.34714503331963,[],"[960, 540]",ColorTask,102.0,71.0,,,HRV,HRV_0129,2022-11-30 18:14:35
,wl-rdm,193,577745,0.0-8.71-0.71,1.0,189.0,,,,,,,[],,,,,,62.5,0.0,u,0.0,True,1224.0999999996275,74.0,60.0,40.0,False,,324.00018801191214,[],"[960, 540]",ColorTask,103.0,72.0,,,HRV,HRV_0129,2022-11-30 18:14:35
,wl-rdm,194,579879,0.0-8.72-0.72,1.0,190.0,,,,,,,[],,,,,,62.5,0.0,u,0.0,True,676.5000000009313,41.0,60.0,40.0,False,,376.9999335233913,[],"[960, 540]",ColorTask,104.0,73.0,,,HRV,HRV_0129,2022-11-30 18:14:35
,wl-rdm,195,582279,0.0-8.73-0.73,1.0,191.0,,,,,,,[],,,,,,53.2,0.0,u,0.0,True,1125.2000000001863,68.0,60.0,40.0,False,,202.49800130369684,[],"[960, 540]",ColorTask,105.0,74.0,,,HRV,HRV_0129,2022-11-30 18:14:35
,wl-rdm,196,584895,0.0-8.74-0.74,1.0,192.0,,,,,,,[],,,,,,56.4,1.0,i,1.0,True,1166.7000000001863,70.0,60.0,40.0,False,,368.0328731963974,[],"[960, 540]",ColorTask,106.0,75.0,,,HRV,HRV_0129,2022-11-30 18:14:35
,wl-rdm,197,587046,0.0-8.75-0.75,1.0,193.0,,,,,,,[],,,,,,87.9,0.0,u,0.0,True,827.0,50.0,60.0,40.0,False,,239.35412771057173,[],"[960, 540]",ColorTask,107.0,76.0,,,HRV,HRV_0129,2022-11-30 18:14:35
,wl-rdm,198,589546,0.0-8.76-0.76,1.0,194.0,,,,,,,[],,,,,,62.5,0.0,u,0.0,True,1145.4000000003725,69.0,60.0,40.0,False,,273.91078161129917,[],"[960, 540]",ColorTask,108.0,77.0,,,HRV,HRV_0129,2022-11-30 18:14:35
,wl-rdm,199,591629,0.0-8.77-0.77,1.0,195.0,,,,,,,[],,,,,,73.6,0.0,u,0.0,True,690.2000000001863,42.0,60.0,40.0,False,,302.62429155897553,[],"[960, 540]",ColorTask,109.0,78.0,,,HRV,HRV_0129,2022-11-30 18:14:35
,wl-rdm,200,593879,0.0-8.78-0.78,1.0,196.0,,,,,,,[],,,,,,50.0,1.0,i,1.0,True,918.6000000005588,56.0,60.0,40.0,False,,251.62239946427218,[],"[960, 540]",ColorTask,110.0,79.0,,,HRV,HRV_0129,2022-11-30 18:14:35
,wl-rdm,201,596096,0.0-8.79-0.79,1.0,197.0,,,,,,,[],,,,,,87.9,1.0,i,1.0,True,849.7000000001863,51.0,60.0,40.0,False,,283.8099023911735,[],"[960, 540]",ColorTask,111.0,80.0,,,HRV,HRV_0129,2022-11-30 18:14:35
,wl-rdm,202,598146,0.0-8.80-0.80,1.0,198.0,,,,,,,[],,,,,,53.2,1.0,u,0.0,False,739.1000000005588,45.0,60.0,40.0,False,,246.9527388016647,[],"[960, 540]",ColorTask,110.0,81.0,,,HRV,HRV_0129,2022-11-30 18:14:35
,wl-rdm,203,600646,0.0-8.81-0.81,1.0,199.0,,,,,,,[],,,,,,73.6,1.0,i,1.0,True,1043.5999999996275,63.0,60.0,40.0,False,,372.0866485883265,[],"[960, 540]",ColorTask,111.0,82.0,,,HRV,HRV_0129,2022-11-30 18:14:35
,wl-rdm,204,602779,0.0-8.82-0.82,1.0,200.0,,,,,,,[],,,,,,87.9,0.0,u,0.0,True,838.5,51.0,60.0,40.0,False,,203.54060055669413,[],"[960, 540]",ColorTask,112.0,83.0,,,HRV,HRV_0129,2022-11-30 18:14:35
,wl-rdm,205,607230,0.0-8.83-0.83,1.0,200.0,,,,,,,[],,,,,,73.6,1.0,i,,,3427.7999999998137,179.0,60.0,40.0,True,RT_timeout ,336.9443322417353,[],"[960, 540]",ColorTask,111.0,84.0,,,HRV,HRV_0129,2022-11-30 18:14:35
,wl-rdm,206,609413,0.0-8.84-0.84,1.0,201.0,,,,,,,[],,,,,,87.9,1.0,i,1.0,True,860.5000000009313,52.0,60.0,40.0,False,,256.78547821131593,[],"[960, 540]",ColorTask,112.0,85.0,,,HRV,HRV_0129,2022-11-30 18:14:35
,wl-rdm,207,611496,0.0-8.85-0.85,1.0,202.0,,,,,,,[],,,,,,62.5,1.0,i,1.0,True,740.6999999992549,45.0,60.0,40.0,False,,266.452311737467,[],"[960, 540]",ColorTask,113.0,86.0,,,HRV,HRV_0129,2022-11-30 18:14:35
,wl-rdm,208,613413,0.0-8.86-0.86,1.0,203.0,,,,,,,[],,,,,,73.6,1.0,i,1.0,True,610.4000000003725,37.0,60.0,40.0,False,,250.2469732949114,[],"[960, 540]",ColorTask,114.0,87.0,,,HRV,HRV_0129,2022-11-30 18:14:35
,wl-rdm,209,615464,0.0-8.87-0.87,1.0,204.0,,,,,,,[],,,,,,87.9,0.0,u,0.0,True,609.1999999992549,37.0,60.0,40.0,False,,355.51328136808445,[],"[960, 540]",ColorTask,115.0,88.0,,,HRV,HRV_0129,2022-11-30 18:14:35
,wl-rdm,210,617248,0.0-8.88-0.88,1.0,205.0,,,,,,,[],,,,,,87.9,0.0,u,0.0,True,425.29999999981374,26.0,60.0,40.0,False,,296.1286719533209,[],"[960, 540]",ColorTask,116.0,89.0,,,HRV,HRV_0129,2022-11-30 18:14:35
,wl-rdm,211,619363,0.0-8.89-0.89,1.0,206.0,,,,,,,[],,,,,,87.9,1.0,i,1.0,True,662.9000000003725,40.0,60.0,40.0,False,,383.6127117250136,[],"[960, 540]",ColorTask,117.0,90.0,,,HRV,HRV_0129,2022-11-30 18:14:35
,wl-rdm,212,622397,0.0-8.90-0.90,1.0,207.0,,,,,,,[],,,,,,50.0,0.0,i,1.0,False,1670.4000000003725,101.0,60.0,40.0,False,,277.3023792866917,[],"[960, 540]",ColorTask,116.0,91.0,,,HRV,HRV_0129,2022-11-30 18:14:35
,wl-rdm,213,624464,0.0-8.91-0.91,1.0,208.0,,,,,,,[],,,,,,62.5,1.0,i,1.0,True,791.3999999994412,48.0,60.0,40.0,False,,201.16217225777433,[],"[960, 540]",ColorTask,117.0,92.0,,,HRV,HRV_0129,2022-11-30 18:14:35
,wl-rdm,214,627364,0.0-8.92-0.92,1.0,209.0,,,,,,,[],,,,,,50.0,1.0,i,1.0,True,1521.7999999998137,92.0,60.0,40.0,False,,298.24702707740073,[],"[960, 540]",ColorTask,118.0,93.0,,,HRV,HRV_0129,2022-11-30 18:14:35
,wl-rdm,215,629663,0.0-8.93-0.93,1.0,210.0,,,,,,,[],,,,,,73.6,1.0,i,1.0,True,985.0999999996275,60.0,60.0,40.0,False,,236.0472767903189,[],"[960, 540]",ColorTask,119.0,94.0,,,HRV,HRV_0129,2022-11-30 18:14:35
,wl-rdm,216,632097,0.0-8.94-0.94,1.0,211.0,,,,,,,[],,,,,,53.2,0.0,u,0.0,True,1131.1000000005588,68.0,60.0,40.0,False,,234.70516343206526,[],"[960, 540]",ColorTask,120.0,95.0,,,HRV,HRV_0129,2022-11-30 18:14:35
,wl-rdm,217,634197,0.0-8.95-0.95,1.0,212.0,,,,,,,[],,,,,,87.9,1.0,i,1.0,True,811.0,49.0,60.0,40.0,False,,223.14325995611713,[],"[960, 540]",ColorTask,121.0,96.0,,,HRV,HRV_0129,2022-11-30 18:14:35
,wl-rdm,218,637314,0.0-8.96-0.96,1.0,213.0,,,,,,,[],,,,,,62.5,0.0,u,0.0,True,1764.2999999988824,106.0,60.0,40.0,False,,277.54390043576996,[],"[960, 540]",ColorTask,122.0,97.0,,,HRV,HRV_0129,2022-11-30 18:14:35
,wl-rdm,219,639764,0.0-8.97-0.97,1.0,214.0,,,,,,,[],,,,,,53.2,1.0,u,0.0,False,1087.2999999998137,66.0,60.0,40.0,False,,282.0791733315755,[],"[960, 540]",ColorTask,121.0,98.0,,,HRV,HRV_0129,2022-11-30 18:14:35
,wl-rdm,220,641764,0.0-8.98-0.98,1.0,215.0,,,,,,,[],,,,,,73.6,1.0,i,1.0,True,640.5,39.0,60.0,40.0,False,,269.3216504611672,[],"[960, 540]",ColorTask,122.0,99.0,,,HRV,HRV_0129,2022-11-30 18:14:35
,wl-rdm,221,644614,0.0-8.99-0.99,1.0,216.0,,,,,,,[],,,,,,50.0,1.0,i,1.0,True,1452.2000000001863,88.0,60.0,40.0,False,,311.2340091799165,[],"[960, 540]",ColorTask,123.0,100.0,,,HRV,HRV_0129,2022-11-30 18:14:35
,wl-rdm,222,646931,0.0-8.100-0.100,1.0,217.0,,,,,,,[],,,,,,53.2,0.0,u,0.0,True,1045.9000000003725,63.0,60.0,40.0,False,,205.7637724710135,[],"[960, 540]",ColorTask,124.0,101.0,,,HRV,HRV_0129,2022-11-30 18:14:35
,wl-rdm,223,649380,0.0-8.101-0.101,1.0,218.0,,,,,,,[],,,,,,73.6,0.0,u,0.0,True,1095.0999999996275,66.0,60.0,40.0,False,,281.12453397003964,[],"[960, 540]",ColorTask,125.0,102.0,,,HRV,HRV_0129,2022-11-30 18:14:35
,wl-rdm,224,652097,0.0-8.102-0.102,1.0,219.0,,,,,,,[],,,,,,53.2,1.0,u,0.0,False,1347.0999999996275,81.0,60.0,40.0,False,,309.17541778718055,[],"[960, 540]",ColorTask,124.0,103.0,,,HRV,HRV_0129,2022-11-30 18:14:35
,wl-rdm,225,654381,0.0-8.103-0.103,1.0,220.0,,,,,,,[],,,,,,87.9,1.0,i,1.0,True,960.5,58.0,60.0,40.0,False,,252.9183741598098,[],"[960, 540]",ColorTask,125.0,104.0,,,HRV,HRV_0129,2022-11-30 18:14:35
,wl-rdm,226,656481,0.0-8.104-0.104,1.0,221.0,,,,,,,[],,,,,,87.9,0.0,u,0.0,True,781.3999999994412,47.0,60.0,40.0,False,,263.5263214441313,[],"[960, 540]",ColorTask,126.0,105.0,,,HRV,HRV_0129,2022-11-30 18:14:35
,wl-rdm,227,658831,0.0-8.105-0.105,1.0,222.0,,,,,,,[],,,,,,50.0,0.0,u,0.0,True,1035.1000000005588,63.0,60.0,40.0,False,,226.7050367498718,[],"[960, 540]",ColorTask,127.0,106.0,,,HRV,HRV_0129,2022-11-30 18:14:35
,wl-rdm,228,660864,0.0-8.106-0.106,1.0,223.0,,,,,,,[],,,,,,62.5,0.0,u,0.0,True,691.0,42.0,60.0,40.0,False,,260.146296047908,[],"[960, 540]",ColorTask,128.0,107.0,,,HRV,HRV_0129,2022-11-30 18:14:35
,wl-rdm,229,664131,0.0-8.107-0.107,1.0,224.0,,,,,,,[],,,,,,56.4,0.0,u,0.0,True,1863.0999999996275,112.0,60.0,40.0,False,,325.8559281515973,[],"[960, 540]",ColorTask,129.0,108.0,,,HRV,HRV_0129,2022-11-30 18:14:35
,wl-rdm,230,666364,0.0-8.108-0.108,1.0,225.0,,,,,,,[],,,,,,87.9,1.0,i,1.0,True,844.7000000001863,51.0,60.0,40.0,False,,312.1313293195989,[],"[960, 540]",ColorTask,130.0,109.0,,,HRV,HRV_0129,2022-11-30 18:14:35
,wl-html-button-response,231,669383,0.0-9.0-0.0,,,,,,,,,,3014.7000000001863,,0,,,,,,,,,,,,,,,,,,,,<h3>End of this session. Thank you!</h3><br>,['Close window'],HRV,HRV_0129,2022-11-30 18:14:35
