trialN,stimuli,question,trialStartTime,trialStartTime_UNIX,stimulus1,rt,receivedResponse,rating,trialEndTime,trialDuration,stimulus1Loaded,exp,subjectId,date
0,"[{'imgObject': {}, 'id': 'sweetpotato', 'src': '/static/foodstim60/sweetpotato.jpg', 'key': 'NaN', 'origWidth': 410, 'origHeight': 410, 'width': 410, 'height': 410, 'widthPercent': 0.8, 'rescaleHeight': True, 'trialN': 0, 'loaded': True, 'loadedTime': 2375.7000000001863, 'positionName': 'CENTER', 'positionCoords': [755, 335]}]",Rate how much you want to eat this food from 0 (least) to 10 (most).,2812.2999999998137,1669830927344,sweetpotato,2853.2000000001863,True,0.23,5665.5,2853.2000000001863,True,HRV,HRV_0129,2022-11-30 17:57:17
1,"[{'imgObject': {}, 'id': 'sushi w_condiments', 'src': '/static/foodstim60/sushi w_condiments.jpg', 'key': 'NaN', 'origWidth': 410, 'origHeight': 410, 'width': 410, 'height': 410, 'widthPercent': 0.8, 'rescaleHeight': True, 'trialN': 1, 'loaded': True, 'loadedTime': 2381.600000000559, 'positionName': 'CENTER', 'positionCoords': [755, 335]}]",Rate how much you want to eat this food from 0 (least) to 10 (most).,5668.700000000186,1669830930201,sushi w_condiments,2299.7999999998137,True,0.18,7968.5,2299.7999999998137,True,HRV,HRV_0129,2022-11-30 17:57:17
2,"[{'imgObject': {}, 'id': 'steak', 'src': '/static/foodstim60/steak.jpg', 'key': 'NaN', 'origWidth': 410, 'origHeight': 410, 'width': 410, 'height': 410, 'widthPercent': 0.8, 'rescaleHeight': True, 'trialN': 2, 'loaded': True, 'loadedTime': 2383.100000000559, 'positionName': 'CENTER', 'positionCoords': [755, 335]}]",Rate how much you want to eat this food from 0 (least) to 10 (most).,7970.200000000186,1669830932502,steak,1970.2000000001863,True,9.85,9940.400000000373,1970.2000000001863,True,HRV,HRV_0129,2022-11-30 17:57:17
3,"[{'imgObject': {}, 'id': 'hashbrowns', 'src': '/static/foodstim60/hashbrowns.jpg', 'key': 'NaN', 'origWidth': 411, 'origHeight': 410, 'width': 411, 'height': 410, 'widthPercent': 0.8, 'rescaleHeight': True, 'trialN': 3, 'loaded': True, 'loadedTime': 2408.5, 'positionName': 'CENTER', 'positionCoords': [754.5, 335]}]",Rate how much you want to eat this food from 0 (least) to 10 (most).,9942.200000000186,1669830934474,hashbrowns,2125.7999999998137,True,0.13,12068.0,2125.7999999998137,True,HRV,HRV_0129,2022-11-30 17:57:17
4,"[{'imgObject': {}, 'id': 'eggs', 'src': '/static/foodstim60/eggs.jpg', 'key': 'NaN', 'origWidth': 409, 'origHeight': 409, 'width': 409, 'height': 409, 'widthPercent': 0.8, 'rescaleHeight': True, 'trialN': 4, 'loaded': True, 'loadedTime': 2410, 'positionName': 'CENTER', 'positionCoords': [755.5, 335.5]}]",Rate how much you want to eat this food from 0 (least) to 10 (most).,12069.799999999814,1669830936602,eggs,1794.6000000005588,True,9.84,13864.400000000373,1794.6000000005588,True,HRV,HRV_0129,2022-11-30 17:57:17
5,"[{'imgObject': {}, 'id': 'fried eggs', 'src': '/static/foodstim60/fried eggs.jpg', 'key': 'NaN', 'origWidth': 410, 'origHeight': 410, 'width': 410, 'height': 410, 'widthPercent': 0.8, 'rescaleHeight': True, 'trialN': 5, 'loaded': True, 'loadedTime': 2439.7000000001863, 'positionName': 'CENTER', 'positionCoords': [755, 335]}]",Rate how much you want to eat this food from 0 (least) to 10 (most).,13866.100000000559,1669830938398,fried eggs,1192.199999999255,True,9.83,15058.299999999814,1192.199999999255,True,HRV,HRV_0129,2022-11-30 17:57:17
6,"[{'imgObject': {}, 'id': 'rigatoni and sauce', 'src': '/static/foodstim60/rigatoni and sauce.jpg', 'key': 'NaN', 'origWidth': 410, 'origHeight': 411, 'width': 410, 'height': 411, 'widthPercent': 0.8, 'rescaleHeight': True, 'trialN': 6, 'loaded': True, 'loadedTime': 2441.4000000003725, 'positionName': 'CENTER', 'positionCoords': [755, 334.5]}]",Rate how much you want to eat this food from 0 (least) to 10 (most).,15060.200000000186,1669830939592,rigatoni and sauce,1909.4000000003725,True,0.15,16969.60000000056,1909.4000000003725,True,HRV,HRV_0129,2022-11-30 17:57:17
7,"[{'imgObject': {}, 'id': 'bagel and cc', 'src': '/static/foodstim60/bagel and cc.jpg', 'key': 'NaN', 'origWidth': 410, 'origHeight': 410, 'width': 410, 'height': 410, 'widthPercent': 0.8, 'rescaleHeight': True, 'trialN': 7, 'loaded': True, 'loadedTime': 2445.100000000559, 'positionName': 'CENTER', 'positionCoords': [755, 335]}]",Rate how much you want to eat this food from 0 (least) to 10 (most).,16971.299999999814,1669830941503,bagel and cc,2112.2000000001863,True,9.790000000000001,19083.5,2112.2000000001863,True,HRV,HRV_0129,2022-11-30 17:57:17
8,"[{'imgObject': {}, 'id': 'orange slices', 'src': '/static/foodstim60/orange slices.jpg', 'key': 'NaN', 'origWidth': 409, 'origHeight': 410, 'width': 409, 'height': 410, 'widthPercent': 0.8, 'rescaleHeight': True, 'trialN': 8, 'loaded': True, 'loadedTime': 2472.4000000003725, 'positionName': 'CENTER', 'positionCoords': [755.5, 335]}]",Rate how much you want to eat this food from 0 (least) to 10 (most).,19084.700000000186,1669830943617,orange slices,1651.5999999996275,True,7.7700000000000005,20736.299999999814,1651.5999999996275,True,HRV,HRV_0129,2022-11-30 17:57:17
9,"[{'imgObject': {}, 'id': 'veggieswithdip', 'src': '/static/foodstim60/veggieswithdip.jpg', 'key': 'NaN', 'origWidth': 409, 'origHeight': 409, 'width': 409, 'height': 409, 'widthPercent': 0.8, 'rescaleHeight': True, 'trialN': 9, 'loaded': True, 'loadedTime': 2480.7000000001863, 'positionName': 'CENTER', 'positionCoords': [755.5, 335.5]}]",Rate how much you want to eat this food from 0 (least) to 10 (most).,20738.10000000056,1669830945270,veggieswithdip,1407.5999999996275,True,8.08,22145.700000000186,1407.5999999996275,True,HRV,HRV_0129,2022-11-30 17:57:17
10,"[{'imgObject': {}, 'id': 'Grapes', 'src': '/static/foodstim60/Grapes.jpg', 'key': 'NaN', 'origWidth': 411, 'origHeight': 411, 'width': 411, 'height': 411, 'widthPercent': 0.8, 'rescaleHeight': True, 'trialN': 10, 'loaded': True, 'loadedTime': 2405.2000000001863, 'positionName': 'CENTER', 'positionCoords': [754.5, 334.5]}]",Rate how much you want to eat this food from 0 (least) to 10 (most).,22147.400000000373,1669830946679,Grapes,1360.5999999996275,True,2.62,23508.0,1360.5999999996275,True,HRV,HRV_0129,2022-11-30 17:57:17
11,"[{'imgObject': {}, 'id': 'seaweed', 'src': '/static/foodstim60/seaweed.jpg', 'key': 'NaN', 'origWidth': 410, 'origHeight': 410, 'width': 410, 'height': 410, 'widthPercent': 0.8, 'rescaleHeight': True, 'trialN': 11, 'loaded': True, 'loadedTime': 2469.600000000559, 'positionName': 'CENTER', 'positionCoords': [755, 335]}]",Rate how much you want to eat this food from 0 (least) to 10 (most).,23509.700000000186,1669830948042,seaweed,2084.4000000003725,True,0.15,25594.10000000056,2084.4000000003725,True,HRV,HRV_0129,2022-11-30 17:57:17
12,"[{'imgObject': {}, 'id': 'cherries', 'src': '/static/foodstim60/cherries.jpg', 'key': 'NaN', 'origWidth': 410, 'origHeight': 411, 'width': 410, 'height': 411, 'widthPercent': 0.8, 'rescaleHeight': True, 'trialN': 12, 'loaded': True, 'loadedTime': 2496.2000000001863, 'positionName': 'CENTER', 'positionCoords': [755, 334.5]}]",Rate how much you want to eat this food from 0 (least) to 10 (most).,25595.900000000373,1669830950128,cherries,1313.7999999998137,True,0.11,26909.700000000186,1313.7999999998137,True,HRV,HRV_0129,2022-11-30 17:57:17
13,"[{'imgObject': {}, 'id': 'shreddedwheatwithmilk', 'src': '/static/foodstim60/shreddedwheatwithmilk.jpg', 'key': 'NaN', 'origWidth': 410, 'origHeight': 410, 'width': 410, 'height': 410, 'widthPercent': 0.8, 'rescaleHeight': True, 'trialN': 13, 'loaded': True, 'loadedTime': 2498.2000000001863, 'positionName': 'CENTER', 'positionCoords': [755, 335]}]",Rate how much you want to eat this food from 0 (least) to 10 (most).,26911.5,1669830951444,shreddedwheatwithmilk,1710.4000000003725,True,0.16,28621.900000000373,1710.4000000003725,True,HRV,HRV_0129,2022-11-30 17:57:17
14,"[{'imgObject': {}, 'id': 'avocado', 'src': '/static/foodstim60/avocado.jpg', 'key': 'NaN', 'origWidth': 409, 'origHeight': 409, 'width': 409, 'height': 409, 'widthPercent': 0.8, 'rescaleHeight': True, 'trialN': 14, 'loaded': True, 'loadedTime': 2500.4000000003725, 'positionName': 'CENTER', 'positionCoords': [755.5, 335.5]}]",Rate how much you want to eat this food from 0 (least) to 10 (most).,28623.799999999814,1669830953156,avocado,1704.2000000001863,True,0.06,30328.0,1704.2000000001863,True,HRV,HRV_0129,2022-11-30 17:57:17
15,"[{'imgObject': {}, 'id': 'corn cob', 'src': '/static/foodstim60/corn cob.jpg', 'key': 'NaN', 'origWidth': 411, 'origHeight': 411, 'width': 411, 'height': 411, 'widthPercent': 0.8, 'rescaleHeight': True, 'trialN': 15, 'loaded': True, 'loadedTime': 2501.9000000003725, 'positionName': 'CENTER', 'positionCoords': [754.5, 334.5]}]",Rate how much you want to eat this food from 0 (least) to 10 (most).,30329.700000000186,1669830954862,corn cob,2318.2000000001863,True,9.81,32647.900000000373,2318.2000000001863,True,HRV,HRV_0129,2022-11-30 17:57:17
16,"[{'imgObject': {}, 'id': 'mac & cheese', 'src': '/static/foodstim60/mac & cheese.jpg', 'key': 'NaN', 'origWidth': 410, 'origHeight': 410, 'width': 410, 'height': 410, 'widthPercent': 0.8, 'rescaleHeight': True, 'trialN': 16, 'loaded': True, 'loadedTime': 2505.4000000003725, 'positionName': 'CENTER', 'positionCoords': [755, 335]}]",Rate how much you want to eat this food from 0 (least) to 10 (most).,32650.400000000373,1669830957183,mac & cheese,2307.5999999996275,True,9.89,34958.0,2307.5999999996275,True,HRV,HRV_0129,2022-11-30 17:57:17
17,"[{'imgObject': {}, 'id': 'salmon', 'src': '/static/foodstim60/salmon.jpg', 'key': 'NaN', 'origWidth': 410, 'origHeight': 409, 'width': 410, 'height': 409, 'widthPercent': 0.8, 'rescaleHeight': True, 'trialN': 17, 'loaded': True, 'loadedTime': 2508.2999999998137, 'positionName': 'CENTER', 'positionCoords': [755, 335.5]}]",Rate how much you want to eat this food from 0 (least) to 10 (most).,34959.90000000037,1669830959492,salmon,2512.5,True,0.16,37472.40000000037,2512.5,True,HRV,HRV_0129,2022-11-30 17:57:17
18,"[{'imgObject': {}, 'id': 'mashed potato', 'src': '/static/foodstim60/mashed potato.jpg', 'key': 'NaN', 'origWidth': 409, 'origHeight': 409, 'width': 409, 'height': 409, 'widthPercent': 0.8, 'rescaleHeight': True, 'trialN': 18, 'loaded': True, 'loadedTime': 2520.7000000001863, 'positionName': 'CENTER', 'positionCoords': [755.5, 335.5]}]",Rate how much you want to eat this food from 0 (least) to 10 (most).,37474.40000000037,1669830962007,mashed potato,1843.2000000001863,True,4.94,39317.60000000056,1843.2000000001863,True,HRV,HRV_0129,2022-11-30 17:57:17
19,"[{'imgObject': {}, 'id': 'burrito', 'src': '/static/foodstim60/burrito.jpg', 'key': 'NaN', 'origWidth': 410, 'origHeight': 410, 'width': 410, 'height': 410, 'widthPercent': 0.8, 'rescaleHeight': True, 'trialN': 19, 'loaded': True, 'loadedTime': 2525.100000000559, 'positionName': 'CENTER', 'positionCoords': [755, 335]}]",Rate how much you want to eat this food from 0 (least) to 10 (most).,39319.299999999814,1669830963852,burrito,1798.9000000003725,True,9.48,41118.200000000186,1798.9000000003725,True,HRV,HRV_0129,2022-11-30 17:57:17
20,"[{'imgObject': {}, 'id': 'omelette', 'src': '/static/foodstim60/omelette.jpg', 'key': 'NaN', 'origWidth': 410, 'origHeight': 409, 'width': 410, 'height': 409, 'widthPercent': 0.8, 'rescaleHeight': True, 'trialN': 20, 'loaded': True, 'loadedTime': 2526.600000000559, 'positionName': 'CENTER', 'positionCoords': [755, 335.5]}]",Rate how much you want to eat this food from 0 (least) to 10 (most).,41120.5,1669830965653,omelette,881.7999999998137,True,9.46,42002.299999999814,881.7999999998137,True,HRV,HRV_0129,2022-11-30 17:57:17
21,"[{'imgObject': {}, 'id': 'tacos', 'src': '/static/foodstim60/tacos.jpg', 'key': 'NaN', 'origWidth': 411, 'origHeight': 411, 'width': 411, 'height': 411, 'widthPercent': 0.8, 'rescaleHeight': True, 'trialN': 21, 'loaded': True, 'loadedTime': 2583.4000000003725, 'positionName': 'CENTER', 'positionCoords': [754.5, 334.5]}]",Rate how much you want to eat this food from 0 (least) to 10 (most).,42004.200000000186,1669830966537,tacos,1241.4000000003725,True,9.64,43245.60000000056,1241.4000000003725,True,HRV,HRV_0129,2022-11-30 17:57:17
22,"[{'imgObject': {}, 'id': 'cheerios', 'src': '/static/foodstim60/cheerios.jpg', 'key': 'NaN', 'origWidth': 409, 'origHeight': 410, 'width': 409, 'height': 410, 'widthPercent': 0.8, 'rescaleHeight': True, 'trialN': 22, 'loaded': True, 'loadedTime': 2586.2000000001863, 'positionName': 'CENTER', 'positionCoords': [755.5, 335]}]",Rate how much you want to eat this food from 0 (least) to 10 (most).,43247.799999999814,1669830967780,cheerios,1885.800000000745,True,0.34,45133.60000000056,1885.800000000745,True,HRV,HRV_0129,2022-11-30 17:57:17
23,"[{'imgObject': {}, 'id': 'cherry tomato', 'src': '/static/foodstim60/cherry tomato.jpg', 'key': 'NaN', 'origWidth': 410, 'origHeight': 410, 'width': 410, 'height': 410, 'widthPercent': 0.8, 'rescaleHeight': True, 'trialN': 23, 'loaded': True, 'loadedTime': 2588.5, 'positionName': 'CENTER', 'positionCoords': [755, 335]}]",Rate how much you want to eat this food from 0 (least) to 10 (most).,45135.700000000186,1669830969668,cherry tomato,1757.7999999998137,True,0.22,46893.5,1757.7999999998137,True,HRV,HRV_0129,2022-11-30 17:57:17
24,"[{'imgObject': {}, 'id': 'chickenfingers', 'src': '/static/foodstim60/chickenfingers.jpg', 'key': 'NaN', 'origWidth': 410, 'origHeight': 410, 'width': 410, 'height': 410, 'widthPercent': 0.8, 'rescaleHeight': True, 'trialN': 24, 'loaded': True, 'loadedTime': 2613.7000000001863, 'positionName': 'CENTER', 'positionCoords': [755, 335]}]",Rate how much you want to eat this food from 0 (least) to 10 (most).,46895.200000000186,1669830971428,chickenfingers,1712.5,True,9.870000000000001,48607.700000000186,1712.5,True,HRV,HRV_0129,2022-11-30 17:57:17
25,"[{'imgObject': {}, 'id': 'burger', 'src': '/static/foodstim60/burger.jpg', 'key': 'NaN', 'origWidth': 409, 'origHeight': 409, 'width': 409, 'height': 409, 'widthPercent': 0.8, 'rescaleHeight': True, 'trialN': 25, 'loaded': True, 'loadedTime': 2620.5, 'positionName': 'CENTER', 'positionCoords': [755.5, 335.5]}]",Rate how much you want to eat this food from 0 (least) to 10 (most).,48610.200000000186,1669830973143,burger,1200.0999999996275,True,9.83,49810.299999999814,1200.0999999996275,True,HRV,HRV_0129,2022-11-30 17:57:17
26,"[{'imgObject': {}, 'id': 'yogurt no spoon', 'src': '/static/foodstim60/yogurt no spoon.jpg', 'key': 'NaN', 'origWidth': 411, 'origHeight': 410, 'width': 411, 'height': 410, 'widthPercent': 0.8, 'rescaleHeight': True, 'trialN': 26, 'loaded': True, 'loadedTime': 2622, 'positionName': 'CENTER', 'positionCoords': [754.5, 335]}]",Rate how much you want to eat this food from 0 (least) to 10 (most).,49812.60000000056,1669830974345,yogurt no spoon,2189.699999999255,True,5.0200000000000005,52002.299999999814,2189.699999999255,True,HRV,HRV_0129,2022-11-30 17:57:17
27,"[{'imgObject': {}, 'id': 'blueberries', 'src': '/static/foodstim60/blueberries.jpg', 'key': 'NaN', 'origWidth': 411, 'origHeight': 411, 'width': 411, 'height': 411, 'widthPercent': 0.8, 'rescaleHeight': True, 'trialN': 27, 'loaded': True, 'loadedTime': 2627.2999999998137, 'positionName': 'CENTER', 'positionCoords': [754.5, 334.5]}]",Rate how much you want to eat this food from 0 (least) to 10 (most).,52004.299999999814,1669830976537,blueberries,2445.5,True,0.16,54449.799999999814,2445.5,True,HRV,HRV_0129,2022-11-30 17:57:17
28,"[{'imgObject': {}, 'id': 'eggsalad', 'src': '/static/foodstim60/eggsalad.jpg', 'key': 'NaN', 'origWidth': 410, 'origHeight': 409, 'width': 410, 'height': 409, 'widthPercent': 0.8, 'rescaleHeight': True, 'trialN': 28, 'loaded': True, 'loadedTime': 2635.7000000001863, 'positionName': 'CENTER', 'positionCoords': [755, 335.5]}]",Rate how much you want to eat this food from 0 (least) to 10 (most).,54451.5,1669830978984,eggsalad,2408.0,True,0.3,56859.5,2408.0,True,HRV,HRV_0129,2022-11-30 17:57:17
29,"[{'imgObject': {}, 'id': 'kiwi', 'src': '/static/foodstim60/kiwi.jpg', 'key': 'NaN', 'origWidth': 410, 'origHeight': 410, 'width': 410, 'height': 410, 'widthPercent': 0.8, 'rescaleHeight': True, 'trialN': 29, 'loaded': True, 'loadedTime': 2640.2000000001863, 'positionName': 'CENTER', 'positionCoords': [755, 335]}]",Rate how much you want to eat this food from 0 (least) to 10 (most).,56860.90000000037,1669830981393,kiwi,1542.7000000001863,True,0.07,58403.60000000056,1542.7000000001863,True,HRV,HRV_0129,2022-11-30 17:57:17
30,"[{'imgObject': {}, 'id': 'hotdog w must', 'src': '/static/foodstim60/hotdog w must.jpg', 'key': 'NaN', 'origWidth': 409, 'origHeight': 409, 'width': 409, 'height': 409, 'widthPercent': 0.8, 'rescaleHeight': True, 'trialN': 30, 'loaded': True, 'loadedTime': 2643.100000000559, 'positionName': 'CENTER', 'positionCoords': [755.5, 335.5]}]",Rate how much you want to eat this food from 0 (least) to 10 (most).,58405.10000000056,1669830982938,hotdog w must,1882.3999999994412,True,8.98,60287.5,1882.3999999994412,True,HRV,HRV_0129,2022-11-30 17:57:17
31,"[{'imgObject': {}, 'id': 'salad w chicken', 'src': '/static/foodstim60/salad w chicken.jpg', 'key': 'NaN', 'origWidth': 411, 'origHeight': 411, 'width': 411, 'height': 411, 'widthPercent': 0.8, 'rescaleHeight': True, 'trialN': 31, 'loaded': True, 'loadedTime': 2644.7999999998137, 'positionName': 'CENTER', 'positionCoords': [754.5, 334.5]}]",Rate how much you want to eat this food from 0 (least) to 10 (most).,60289.5,1669830984822,salad w chicken,1196.2000000001863,True,9.040000000000001,61485.700000000186,1196.2000000001863,True,HRV,HRV_0129,2022-11-30 17:57:17
32,"[{'imgObject': {}, 'id': 'turkeysandwich', 'src': '/static/foodstim60/turkeysandwich.jpg', 'key': 'NaN', 'origWidth': 409, 'origHeight': 409, 'width': 409, 'height': 409, 'widthPercent': 0.8, 'rescaleHeight': True, 'trialN': 32, 'loaded': True, 'loadedTime': 2647.100000000559, 'positionName': 'CENTER', 'positionCoords': [755.5, 335.5]}]",Rate how much you want to eat this food from 0 (least) to 10 (most).,61487.90000000037,1669830986020,turkeysandwich,1637.7999999998137,True,9.0,63125.700000000186,1637.7999999998137,True,HRV,HRV_0129,2022-11-30 17:57:17
33,"[{'imgObject': {}, 'id': 'grilled chicken strips', 'src': '/static/foodstim60/grilled chicken strips.jpg', 'key': 'NaN', 'origWidth': 410, 'origHeight': 411, 'width': 410, 'height': 411, 'widthPercent': 0.8, 'rescaleHeight': True, 'trialN': 33, 'loaded': True, 'loadedTime': 2651.600000000559, 'positionName': 'CENTER', 'positionCoords': [755, 334.5]}]",Rate how much you want to eat this food from 0 (least) to 10 (most).,63127.200000000186,1669830987660,grilled chicken strips,1242.7000000001863,True,9.120000000000001,64369.90000000037,1242.7000000001863,True,HRV,HRV_0129,2022-11-30 17:57:17
34,"[{'imgObject': {}, 'id': 'baked potato', 'src': '/static/foodstim60/baked potato.jpg', 'key': 'NaN', 'origWidth': 409, 'origHeight': 410, 'width': 409, 'height': 410, 'widthPercent': 0.8, 'rescaleHeight': True, 'trialN': 34, 'loaded': True, 'loadedTime': 2654.600000000559, 'positionName': 'CENTER', 'positionCoords': [755.5, 335]}]",Rate how much you want to eat this food from 0 (least) to 10 (most).,64371.90000000037,1669830988904,baked potato,974.2000000001863,True,9.47,65346.10000000056,974.2000000001863,True,HRV,HRV_0129,2022-11-30 17:57:17
35,"[{'imgObject': {}, 'id': 'luckycharms', 'src': '/static/foodstim60/luckycharms.jpg', 'key': 'NaN', 'origWidth': 410, 'origHeight': 409, 'width': 410, 'height': 409, 'widthPercent': 0.8, 'rescaleHeight': True, 'trialN': 35, 'loaded': True, 'loadedTime': 2658.2000000001863, 'positionName': 'CENTER', 'positionCoords': [755, 335.5]}]",Rate how much you want to eat this food from 0 (least) to 10 (most).,65348.200000000186,1669830989881,luckycharms,1943.4000000003725,True,5.05,67291.60000000056,1943.4000000003725,True,HRV,HRV_0129,2022-11-30 17:57:17
36,"[{'imgObject': {}, 'id': 'granola w milk', 'src': '/static/foodstim60/granola w milk.jpg', 'key': 'NaN', 'origWidth': 410, 'origHeight': 410, 'width': 410, 'height': 410, 'widthPercent': 0.8, 'rescaleHeight': True, 'trialN': 36, 'loaded': True, 'loadedTime': 2660.100000000559, 'positionName': 'CENTER', 'positionCoords': [755, 335]}]",Rate how much you want to eat this food from 0 (least) to 10 (most).,67293.79999999981,1669830991826,granola w milk,1420.0,True,0.17,68713.79999999981,1420.0,True,HRV,HRV_0129,2022-11-30 17:57:17
37,"[{'imgObject': {}, 'id': 'bagel plain', 'src': '/static/foodstim60/bagel plain.jpg', 'key': 'NaN', 'origWidth': 410, 'origHeight': 410, 'width': 410, 'height': 410, 'widthPercent': 0.8, 'rescaleHeight': True, 'trialN': 37, 'loaded': True, 'loadedTime': 2661.600000000559, 'positionName': 'CENTER', 'positionCoords': [755, 335]}]",Rate how much you want to eat this food from 0 (least) to 10 (most).,68715.5,1669830993248,bagel plain,2087.4000000003725,True,9.86,70802.90000000037,2087.4000000003725,True,HRV,HRV_0129,2022-11-30 17:57:17
38,"[{'imgObject': {}, 'id': 'mango', 'src': '/static/foodstim60/mango.jpg', 'key': 'NaN', 'origWidth': 411, 'origHeight': 411, 'width': 411, 'height': 411, 'widthPercent': 0.8, 'rescaleHeight': True, 'trialN': 38, 'loaded': True, 'loadedTime': 2668.4000000003725, 'positionName': 'CENTER', 'positionCoords': [754.5, 334.5]}]",Rate how much you want to eat this food from 0 (least) to 10 (most).,70804.79999999981,1669830995337,mango,1714.9000000003725,True,0.1,72519.70000000019,1714.9000000003725,True,HRV,HRV_0129,2022-11-30 17:57:17
39,"[{'imgObject': {}, 'id': 'edamame', 'src': '/static/foodstim60/edamame.jpg', 'key': 'NaN', 'origWidth': 409, 'origHeight': 410, 'width': 409, 'height': 410, 'widthPercent': 0.8, 'rescaleHeight': True, 'trialN': 39, 'loaded': True, 'loadedTime': 2677.100000000559, 'positionName': 'CENTER', 'positionCoords': [755.5, 335]}]",Rate how much you want to eat this food from 0 (least) to 10 (most).,72522.0,1669830997055,edamame,2381.7000000001863,True,5.04,74903.70000000019,2381.7000000001863,True,HRV,HRV_0129,2022-11-30 17:57:17
40,"[{'imgObject': {}, 'id': 'chicken nuggets2', 'src': '/static/foodstim60/chicken nuggets2.jpg', 'key': 'NaN', 'origWidth': 410, 'origHeight': 409, 'width': 410, 'height': 409, 'widthPercent': 0.8, 'rescaleHeight': True, 'trialN': 40, 'loaded': True, 'loadedTime': 2681, 'positionName': 'CENTER', 'positionCoords': [755, 335.5]}]",Rate how much you want to eat this food from 0 (least) to 10 (most).,74905.79999999981,1669830999438,chicken nuggets2,2238.0,True,9.75,77143.79999999981,2238.0,True,HRV,HRV_0129,2022-11-30 17:57:17
41,"[{'imgObject': {}, 'id': 'roastedpotatoes', 'src': '/static/foodstim60/roastedpotatoes.jpg', 'key': 'NaN', 'origWidth': 409, 'origHeight': 410, 'width': 409, 'height': 410, 'widthPercent': 0.8, 'rescaleHeight': True, 'trialN': 41, 'loaded': True, 'loadedTime': 2720.4000000003725, 'positionName': 'CENTER', 'positionCoords': [755.5, 335]}]",Rate how much you want to eat this food from 0 (least) to 10 (most).,77145.60000000056,1669831001678,roastedpotatoes,712.0,True,9.75,77857.60000000056,712.0,True,HRV,HRV_0129,2022-11-30 17:57:17
42,"[{'imgObject': {}, 'id': 'raisin bran w milk', 'src': '/static/foodstim60/raisin bran w milk.jpg', 'key': 'NaN', 'origWidth': 411, 'origHeight': 411, 'width': 411, 'height': 411, 'widthPercent': 0.8, 'rescaleHeight': True, 'trialN': 42, 'loaded': True, 'loadedTime': 2722.7000000001863, 'positionName': 'CENTER', 'positionCoords': [754.5, 334.5]}]",Rate how much you want to eat this food from 0 (least) to 10 (most).,77859.79999999981,1669831002392,raisin bran w milk,2163.800000000745,True,0.22,80023.60000000056,2163.800000000745,True,HRV,HRV_0129,2022-11-30 17:57:17
43,"[{'imgObject': {}, 'id': 'fruitsalad', 'src': '/static/foodstim60/fruitsalad.jpg', 'key': 'NaN', 'origWidth': 410, 'origHeight': 410, 'width': 410, 'height': 410, 'widthPercent': 0.8, 'rescaleHeight': True, 'trialN': 43, 'loaded': True, 'loadedTime': 2726.2999999998137, 'positionName': 'CENTER', 'positionCoords': [755, 335]}]",Rate how much you want to eat this food from 0 (least) to 10 (most).,80025.29999999981,1669831004558,fruitsalad,2804.100000000559,True,4.98,82829.40000000037,2804.100000000559,True,HRV,HRV_0129,2022-11-30 17:57:17
44,"[{'imgObject': {}, 'id': 'raspberries', 'src': '/static/foodstim60/raspberries.jpg', 'key': 'NaN', 'origWidth': 411, 'origHeight': 411, 'width': 411, 'height': 411, 'widthPercent': 0.8, 'rescaleHeight': True, 'trialN': 44, 'loaded': True, 'loadedTime': 2737, 'positionName': 'CENTER', 'positionCoords': [754.5, 334.5]}]",Rate how much you want to eat this food from 0 (least) to 10 (most).,82830.79999999981,1669831007363,raspberries,1612.9000000003725,True,0.29,84443.70000000019,1612.9000000003725,True,HRV,HRV_0129,2022-11-30 17:57:17
45,"[{'imgObject': {}, 'id': 'lox', 'src': '/static/foodstim60/lox.jpg', 'key': 'NaN', 'origWidth': 410, 'origHeight': 411, 'width': 410, 'height': 411, 'widthPercent': 0.8, 'rescaleHeight': True, 'trialN': 45, 'loaded': True, 'loadedTime': 2738.5, 'positionName': 'CENTER', 'positionCoords': [755, 334.5]}]",Rate how much you want to eat this food from 0 (least) to 10 (most).,84445.20000000019,1669831008978,lox,1422.4000000003725,True,0.16,85867.60000000056,1422.4000000003725,True,HRV,HRV_0129,2022-11-30 17:57:17
46,"[{'imgObject': {}, 'id': 'turkey sandwich', 'src': '/static/foodstim60/turkey sandwich.jpg', 'key': 'NaN', 'origWidth': 409, 'origHeight': 409, 'width': 409, 'height': 409, 'widthPercent': 0.8, 'rescaleHeight': True, 'trialN': 46, 'loaded': True, 'loadedTime': 2742.600000000559, 'positionName': 'CENTER', 'positionCoords': [755.5, 335.5]}]",Rate how much you want to eat this food from 0 (least) to 10 (most).,85869.70000000019,1669831010402,turkey sandwich,2146.0,True,9.77,88015.70000000019,2146.0,True,HRV,HRV_0129,2022-11-30 17:57:17
47,"[{'imgObject': {}, 'id': 'cocktailshrimp', 'src': '/static/foodstim60/cocktailshrimp.jpg', 'key': 'NaN', 'origWidth': 410, 'origHeight': 410, 'width': 410, 'height': 410, 'widthPercent': 0.8, 'rescaleHeight': True, 'trialN': 47, 'loaded': True, 'loadedTime': 2744.4000000003725, 'positionName': 'CENTER', 'positionCoords': [755, 335]}]",Rate how much you want to eat this food from 0 (least) to 10 (most).,88018.0,1669831012550,cocktailshrimp,1210.0,True,9.78,89228.0,1210.0,True,HRV,HRV_0129,2022-11-30 17:57:17
48,"[{'imgObject': {}, 'id': 'pear', 'src': '/static/foodstim60/pear.jpg', 'key': 'NaN', 'origWidth': 411, 'origHeight': 410, 'width': 411, 'height': 410, 'widthPercent': 0.8, 'rescaleHeight': True, 'trialN': 48, 'loaded': True, 'loadedTime': 2746.9000000003725, 'positionName': 'CENTER', 'positionCoords': [754.5, 335]}]",Rate how much you want to eat this food from 0 (least) to 10 (most).,89230.20000000019,1669831013763,pear,2101.4000000003725,True,4.93,91331.60000000056,2101.4000000003725,True,HRV,HRV_0129,2022-11-30 17:57:17
49,"[{'imgObject': {}, 'id': 'blackbeanswithrice', 'src': '/static/foodstim60/blackbeanswithrice.jpg', 'key': 'NaN', 'origWidth': 410, 'origHeight': 410, 'width': 410, 'height': 410, 'widthPercent': 0.8, 'rescaleHeight': True, 'trialN': 49, 'loaded': True, 'loadedTime': 2749.5, 'positionName': 'CENTER', 'positionCoords': [755, 335]}]",Rate how much you want to eat this food from 0 (least) to 10 (most).,91333.90000000037,1669831015866,blackbeanswithrice,1668.8999999994412,True,0.2,93002.79999999981,1668.8999999994412,True,HRV,HRV_0129,2022-11-30 17:57:17
50,"[{'imgObject': {}, 'id': 'froot loops w milk', 'src': '/static/foodstim60/froot loops w milk.jpg', 'key': 'NaN', 'origWidth': 410, 'origHeight': 410, 'width': 410, 'height': 410, 'widthPercent': 0.8, 'rescaleHeight': True, 'trialN': 50, 'loaded': True, 'loadedTime': 2755.7999999998137, 'positionName': 'CENTER', 'positionCoords': [755, 335]}]",Rate how much you want to eat this food from 0 (least) to 10 (most).,93004.5,1669831017537,froot loops w milk,1795.2000000001863,True,0.13,94799.70000000019,1795.2000000001863,True,HRV,HRV_0129,2022-11-30 17:57:17
51,"[{'imgObject': {}, 'id': 'strawberries', 'src': '/static/foodstim60/strawberries.jpg', 'key': 'NaN', 'origWidth': 410, 'origHeight': 410, 'width': 410, 'height': 410, 'widthPercent': 0.8, 'rescaleHeight': True, 'trialN': 51, 'loaded': True, 'loadedTime': 2763.9000000003725, 'positionName': 'CENTER', 'positionCoords': [755, 335]}]",Rate how much you want to eat this food from 0 (least) to 10 (most).,94802.20000000019,1669831019335,strawberries,2239.5,True,0.2,97041.70000000019,2239.5,True,HRV,HRV_0129,2022-11-30 17:57:17
52,"[{'imgObject': {}, 'id': 'popsicles', 'src': '/static/foodstim60/popsicles.jpg', 'key': 'NaN', 'origWidth': 410, 'origHeight': 410, 'width': 410, 'height': 410, 'widthPercent': 0.8, 'rescaleHeight': True, 'trialN': 52, 'loaded': True, 'loadedTime': 2768.600000000559, 'positionName': 'CENTER', 'positionCoords': [755, 335]}]",Rate how much you want to eat this food from 0 (least) to 10 (most).,97044.29999999981,1669831021577,popsicles,1777.300000000745,True,5.04,98821.60000000056,1777.300000000745,True,HRV,HRV_0129,2022-11-30 17:57:17
53,"[{'imgObject': {}, 'id': 'ice cream sundae 002', 'src': '/static/foodstim60/ice cream sundae 002.jpg', 'key': 'NaN', 'origWidth': 409, 'origHeight': 409, 'width': 409, 'height': 409, 'widthPercent': 0.8, 'rescaleHeight': True, 'trialN': 53, 'loaded': True, 'loadedTime': 2789.9000000003725, 'positionName': 'CENTER', 'positionCoords': [755.5, 335.5]}]",Rate how much you want to eat this food from 0 (least) to 10 (most).,98824.0,1669831023356,ice cream sundae 002,1541.6000000005588,True,8.25,100365.60000000056,1541.6000000005588,True,HRV,HRV_0129,2022-11-30 17:57:17
54,"[{'imgObject': {}, 'id': 'apple slices', 'src': '/static/foodstim60/apple slices.jpg', 'key': 'NaN', 'origWidth': 409, 'origHeight': 410, 'width': 409, 'height': 410, 'widthPercent': 0.8, 'rescaleHeight': True, 'trialN': 54, 'loaded': True, 'loadedTime': 2791.7999999998137, 'positionName': 'CENTER', 'positionCoords': [755.5, 335]}]",Rate how much you want to eat this food from 0 (least) to 10 (most).,100368.0,1669831024900,apple slices,1699.7000000001863,True,4.94,102067.70000000019,1699.7000000001863,True,HRV,HRV_0129,2022-11-30 17:57:17
55,"[{'imgObject': {}, 'id': 'cantaloupe', 'src': '/static/foodstim60/cantaloupe.jpg', 'key': 'NaN', 'origWidth': 409, 'origHeight': 409, 'width': 409, 'height': 409, 'widthPercent': 0.8, 'rescaleHeight': True, 'trialN': 55, 'loaded': True, 'loadedTime': 2794.2000000001863, 'positionName': 'CENTER', 'positionCoords': [755.5, 335.5]}]",Rate how much you want to eat this food from 0 (least) to 10 (most).,102069.70000000019,1669831026602,cantaloupe,1419.7999999998137,True,4.98,103489.5,1419.7999999998137,True,HRV,HRV_0129,2022-11-30 17:57:17
56,"[{'imgObject': {}, 'id': 'olives', 'src': '/static/foodstim60/olives.jpg', 'key': 'NaN', 'origWidth': 410, 'origHeight': 410, 'width': 410, 'height': 410, 'widthPercent': 0.8, 'rescaleHeight': True, 'trialN': 56, 'loaded': True, 'loadedTime': 2795.5, 'positionName': 'CENTER', 'positionCoords': [755, 335]}]",Rate how much you want to eat this food from 0 (least) to 10 (most).,103491.79999999981,1669831028024,olives,1293.6000000005588,True,4.97,104785.40000000037,1293.6000000005588,True,HRV,HRV_0129,2022-11-30 17:57:17
57,"[{'imgObject': {}, 'id': 'rigatoni', 'src': '/static/foodstim60/rigatoni.jpg', 'key': 'NaN', 'origWidth': 411, 'origHeight': 411, 'width': 411, 'height': 411, 'widthPercent': 0.8, 'rescaleHeight': True, 'trialN': 57, 'loaded': True, 'loadedTime': 2797.7000000001863, 'positionName': 'CENTER', 'positionCoords': [754.5, 334.5]}]",Rate how much you want to eat this food from 0 (least) to 10 (most).,104786.90000000037,1669831029319,rigatoni,2214.5,True,0.19,107001.40000000037,2214.5,True,HRV,HRV_0129,2022-11-30 17:57:17
58,"[{'imgObject': {}, 'id': 'Tribe humus pita', 'src': '/static/foodstim60/Tribe humus pita.jpg', 'key': 'NaN', 'origWidth': 411, 'origHeight': 411, 'width': 411, 'height': 411, 'widthPercent': 0.8, 'rescaleHeight': True, 'trialN': 58, 'loaded': True, 'loadedTime': 2806.2999999998137, 'positionName': 'CENTER', 'positionCoords': [754.5, 334.5]}]",Rate how much you want to eat this food from 0 (least) to 10 (most).,107003.20000000019,1669831031536,Tribe humus pita,2338.2000000001863,True,7.73,109341.40000000037,2338.2000000001863,True,HRV,HRV_0129,2022-11-30 17:57:17
59,"[{'imgObject': {}, 'id': 'banana', 'src': '/static/foodstim60/banana.jpg', 'key': 'NaN', 'origWidth': 410, 'origHeight': 410, 'width': 410, 'height': 410, 'widthPercent': 0.8, 'rescaleHeight': True, 'trialN': 59, 'loaded': True, 'loadedTime': 2809.100000000559, 'positionName': 'CENTER', 'positionCoords': [755, 335]}]",Rate how much you want to eat this food from 0 (least) to 10 (most).,109342.79999999981,1669831033875,banana,1346.800000000745,True,7.8,110689.60000000056,1346.800000000745,True,HRV,HRV_0129,2022-11-30 17:57:17
