trialN,stimuli,trialStartTime,trialStartTime_UNIX,stimulus1,stimulus2,stimulus1Bid,stimulus2Bid,delta,selected,rt,rt_UNIX,rt_perfnow,receivedResponse,rsp,trialEndTime,trialDuration,trialEndTime_UNIX,trialDuration_UNIX,exp,subjectId,date
0,"[{'imgObject': {}, 'id': 'shreddedwheatwithmilk', 'src': '/static/foodstim60/shreddedwheatwithmilk.jpg', 'key': 'u', 'origWidth': 410, 'origHeight': 410, 'width': 410, 'height': 410, 'widthPercent': 0.45, 'rescaleHeight': False, 'trialN': 0, 'loaded': True, 'loadedTime': 2225, 'positionName': 'LEFT', 'positionCoords': [511.6, 335], 'bid': 0.16}, {'imgObject': {}, 'id': 'lox', 'src': '/static/foodstim60/lox.jpg', 'key': 'i', 'origWidth': 410, 'origHeight': 411, 'width': 410, 'height': 411, 'widthPercent': 0.45, 'rescaleHeight': False, 'trialN': 0, 'loaded': True, 'loadedTime': 2284.0999999996275, 'positionName': 'RIGHT', 'positionCoords': [998.4, 334.5], 'bid': 0.16}]",3427.5999999996275,1669831093707,shreddedwheatwithmilk,lox,0.16,0.16,0.0,shreddedwheatwithmilk,1808.4000000003725,1809,1809.5,True,u,5749.799999999814,2322.2000000001863,1669831096029,2322,HRV,HRV_0129,2022-11-30 18:03:18
1,"[{'imgObject': {}, 'id': 'mac & cheese', 'src': '/static/foodstim60/mac & cheese.jpg', 'key': 'u', 'origWidth': 410, 'origHeight': 410, 'width': 410, 'height': 410, 'widthPercent': 0.45, 'rescaleHeight': False, 'trialN': 1, 'loaded': True, 'loadedTime': 2334.7999999998137, 'positionName': 'LEFT', 'positionCoords': [511.6, 335], 'bid': 9.89}, {'imgObject': {}, 'id': 'fried eggs', 'src': '/static/foodstim60/fried eggs.jpg', 'key': 'i', 'origWidth': 410, 'origHeight': 410, 'width': 410, 'height': 410, 'widthPercent': 0.45, 'rescaleHeight': False, 'trialN': 1, 'loaded': True, 'loadedTime': 2338, 'positionName': 'RIGHT', 'positionCoords': [998.4, 335], 'bid': 9.83}]",5750.399999999441,1669831096030,mac & cheese,fried eggs,9.89,9.83,-0.0600000000000005,fried eggs,1309.6000000005588,1310,1310.2000000001863,True,i,7567.799999999814,1817.4000000003725,1669831097847,1817,HRV,HRV_0129,2022-11-30 18:03:18
2,"[{'imgObject': {}, 'id': 'veggieswithdip', 'src': '/static/foodstim60/veggieswithdip.jpg', 'key': 'u', 'origWidth': 409, 'origHeight': 409, 'width': 409, 'height': 409, 'widthPercent': 0.45, 'rescaleHeight': False, 'trialN': 2, 'loaded': True, 'loadedTime': 2353.0999999996275, 'positionName': 'LEFT', 'positionCoords': [512.6, 335.5], 'bid': 8.08}, {'imgObject': {}, 'id': 'hotdog w must', 'src': '/static/foodstim60/hotdog w must.jpg', 'key': 'i', 'origWidth': 409, 'origHeight': 409, 'width': 409, 'height': 409, 'widthPercent': 0.45, 'rescaleHeight': False, 'trialN': 2, 'loaded': True, 'loadedTime': 2356.5999999996275, 'positionName': 'RIGHT', 'positionCoords': [998.4, 335.5], 'bid': 8.98}]",7568.200000000186,1669831097847,veggieswithdip,hotdog w must,8.08,8.98,0.9000000000000004,hotdog w must,1067.5,1068,1067.7999999998137,True,i,9152.099999999627,1583.8999999994412,1669831099431,1584,HRV,HRV_0129,2022-11-30 18:03:18
3,"[{'imgObject': {}, 'id': 'shreddedwheatwithmilk', 'src': '/static/foodstim60/shreddedwheatwithmilk.jpg', 'key': 'u', 'origWidth': 410, 'origHeight': 410, 'width': 410, 'height': 410, 'widthPercent': 0.45, 'rescaleHeight': False, 'trialN': 3, 'loaded': True, 'loadedTime': 2250, 'positionName': 'LEFT', 'positionCoords': [511.6, 335], 'bid': 0.16}, {'imgObject': {}, 'id': 'salmon', 'src': '/static/foodstim60/salmon.jpg', 'key': 'i', 'origWidth': 410, 'origHeight': 409, 'width': 410, 'height': 409, 'widthPercent': 0.45, 'rescaleHeight': False, 'trialN': 3, 'loaded': True, 'loadedTime': 2401.899999999441, 'positionName': 'RIGHT', 'positionCoords': [998.4, 335.5], 'bid': 0.16}]",9152.700000000186,1669831099432,shreddedwheatwithmilk,salmon,0.16,0.16,0.0,shreddedwheatwithmilk,1388.0999999996275,1388,1388.3999999994412,True,u,11051.599999999627,1898.8999999994412,1669831101331,1899,HRV,HRV_0129,2022-11-30 18:03:18
4,"[{'imgObject': {}, 'id': 'froot loops w milk', 'src': '/static/foodstim60/froot loops w milk.jpg', 'key': 'u', 'origWidth': 410, 'origHeight': 410, 'width': 410, 'height': 410, 'widthPercent': 0.45, 'rescaleHeight': False, 'trialN': 4, 'loaded': True, 'loadedTime': 2425.2000000001863, 'positionName': 'LEFT', 'positionCoords': [511.6, 335], 'bid': 0.13}, {'imgObject': {}, 'id': 'hashbrowns', 'src': '/static/foodstim60/hashbrowns.jpg', 'key': 'i', 'origWidth': 411, 'origHeight': 410, 'width': 411, 'height': 410, 'widthPercent': 0.45, 'rescaleHeight': False, 'trialN': 4, 'loaded': True, 'loadedTime': 2429.7999999998137, 'positionName': 'RIGHT', 'positionCoords': [998.4, 335], 'bid': 0.13}]",11052.0,1669831101331,froot loops w milk,hashbrowns,0.13,0.13,0.0,froot loops w milk,1520.3999999994412,1521,1520.7000000001863,True,u,13085.599999999627,2033.5999999996275,1669831103365,2034,HRV,HRV_0129,2022-11-30 18:03:18
5,"[{'imgObject': {}, 'id': 'cherries', 'src': '/static/foodstim60/cherries.jpg', 'key': 'u', 'origWidth': 410, 'origHeight': 411, 'width': 410, 'height': 411, 'widthPercent': 0.45, 'rescaleHeight': False, 'trialN': 5, 'loaded': True, 'loadedTime': 2447.0999999996275, 'positionName': 'LEFT', 'positionCoords': [511.6, 334.5], 'bid': 0.11}, {'imgObject': {}, 'id': 'lox', 'src': '/static/foodstim60/lox.jpg', 'key': 'i', 'origWidth': 410, 'origHeight': 411, 'width': 410, 'height': 411, 'widthPercent': 0.45, 'rescaleHeight': False, 'trialN': 5, 'loaded': True, 'loadedTime': 2319.5999999996275, 'positionName': 'RIGHT', 'positionCoords': [998.4, 334.5], 'bid': 0.16}]",13086.200000000186,1669831103365,cherries,lox,0.11,0.16,0.05,cherries,1118.0,1119,1118.3999999994412,True,u,14719.200000000186,1633.0,1669831104998,1633,HRV,HRV_0129,2022-11-30 18:03:18
6,"[{'imgObject': {}, 'id': 'cantaloupe', 'src': '/static/foodstim60/cantaloupe.jpg', 'key': 'u', 'origWidth': 409, 'origHeight': 409, 'width': 409, 'height': 409, 'widthPercent': 0.45, 'rescaleHeight': False, 'trialN': 6, 'loaded': True, 'loadedTime': 2460.5, 'positionName': 'LEFT', 'positionCoords': [512.6, 335.5], 'bid': 4.98}, {'imgObject': {}, 'id': 'Tribe humus pita', 'src': '/static/foodstim60/Tribe humus pita.jpg', 'key': 'i', 'origWidth': 411, 'origHeight': 411, 'width': 411, 'height': 411, 'widthPercent': 0.45, 'rescaleHeight': False, 'trialN': 6, 'loaded': True, 'loadedTime': 2476.7999999998137, 'positionName': 'RIGHT', 'positionCoords': [998.4, 334.5], 'bid': 7.73}]",14719.599999999627,1669831104999,cantaloupe,Tribe humus pita,4.98,7.73,2.75,Tribe humus pita,1261.0,1261,1261.4000000003725,True,i,16486.700000000186,1767.1000000005588,1669831106766,1767,HRV,HRV_0129,2022-11-30 18:03:18
7,"[{'imgObject': {}, 'id': 'hashbrowns', 'src': '/static/foodstim60/hashbrowns.jpg', 'key': 'u', 'origWidth': 411, 'origHeight': 410, 'width': 411, 'height': 410, 'widthPercent': 0.45, 'rescaleHeight': False, 'trialN': 7, 'loaded': True, 'loadedTime': 2432.2999999998137, 'positionName': 'LEFT', 'positionCoords': [510.6, 335], 'bid': 0.13}, {'imgObject': {}, 'id': 'rigatoni', 'src': '/static/foodstim60/rigatoni.jpg', 'key': 'i', 'origWidth': 411, 'origHeight': 411, 'width': 411, 'height': 411, 'widthPercent': 0.45, 'rescaleHeight': False, 'trialN': 7, 'loaded': True, 'loadedTime': 2472.5999999996275, 'positionName': 'RIGHT', 'positionCoords': [998.4, 334.5], 'bid': 0.19}]",16487.200000000186,1669831106766,hashbrowns,rigatoni,0.13,0.19,0.06,rigatoni,845.1999999992549,846,845.7999999998137,True,i,17850.799999999814,1363.5999999996275,1669831108130,1364,HRV,HRV_0129,2022-11-30 18:03:18
8,"[{'imgObject': {}, 'id': 'avocado', 'src': '/static/foodstim60/avocado.jpg', 'key': 'u', 'origWidth': 409, 'origHeight': 409, 'width': 409, 'height': 409, 'widthPercent': 0.45, 'rescaleHeight': False, 'trialN': 8, 'loaded': True, 'loadedTime': 2519.399999999441, 'positionName': 'LEFT', 'positionCoords': [512.6, 335.5], 'bid': 0.06}, {'imgObject': {}, 'id': 'mango', 'src': '/static/foodstim60/mango.jpg', 'key': 'i', 'origWidth': 411, 'origHeight': 411, 'width': 411, 'height': 411, 'widthPercent': 0.45, 'rescaleHeight': False, 'trialN': 8, 'loaded': True, 'loadedTime': 2562.5999999996275, 'positionName': 'RIGHT', 'positionCoords': [998.4, 334.5], 'bid': 0.1}]",17851.299999999814,1669831108130,avocado,mango,0.06,0.1,0.04000000000000001,mango,1032.9000000003725,1034,1033.2000000001863,True,i,19397.599999999627,1546.2999999998137,1669831109677,1547,HRV,HRV_0129,2022-11-30 18:03:18
9,"[{'imgObject': {}, 'id': 'cherry tomato', 'src': '/static/foodstim60/cherry tomato.jpg', 'key': 'u', 'origWidth': 410, 'origHeight': 410, 'width': 410, 'height': 410, 'widthPercent': 0.45, 'rescaleHeight': False, 'trialN': 9, 'loaded': True, 'loadedTime': 2592.5, 'positionName': 'LEFT', 'positionCoords': [511.6, 335], 'bid': 0.22}, {'imgObject': {}, 'id': 'shreddedwheatwithmilk', 'src': '/static/foodstim60/shreddedwheatwithmilk.jpg', 'key': 'i', 'origWidth': 410, 'origHeight': 410, 'width': 410, 'height': 410, 'widthPercent': 0.45, 'rescaleHeight': False, 'trialN': 9, 'loaded': True, 'loadedTime': 2252.399999999441, 'positionName': 'RIGHT', 'positionCoords': [998.4, 335], 'bid': 0.16}]",19398.0,1669831109677,cherry tomato,shreddedwheatwithmilk,0.22,0.16,-0.06,shreddedwheatwithmilk,2086.0999999996275,2087,2086.5,True,i,21995.599999999627,2597.5999999996275,1669831112275,2598,HRV,HRV_0129,2022-11-30 18:03:18
10,"[{'imgObject': {}, 'id': 'cheerios', 'src': '/static/foodstim60/cheerios.jpg', 'key': 'u', 'origWidth': 409, 'origHeight': 410, 'width': 409, 'height': 410, 'widthPercent': 0.45, 'rescaleHeight': False, 'trialN': 10, 'loaded': True, 'loadedTime': 2655.5, 'positionName': 'LEFT', 'positionCoords': [512.6, 335], 'bid': 0.34}, {'imgObject': {}, 'id': 'Grapes', 'src': '/static/foodstim60/Grapes.jpg', 'key': 'i', 'origWidth': 411, 'origHeight': 411, 'width': 411, 'height': 411, 'widthPercent': 0.45, 'rescaleHeight': False, 'trialN': 10, 'loaded': True, 'loadedTime': 2679.7000000001863, 'positionName': 'RIGHT', 'positionCoords': [998.4, 334.5], 'bid': 2.62}]",21996.0,1669831112275,cheerios,Grapes,0.34,2.62,2.2800000000000002,Grapes,1152.3999999994412,1153,1153.0,True,i,23668.5,1672.5,1669831113948,1673,HRV,HRV_0129,2022-11-30 18:03:18
11,"[{'imgObject': {}, 'id': 'omelette', 'src': '/static/foodstim60/omelette.jpg', 'key': 'u', 'origWidth': 410, 'origHeight': 409, 'width': 410, 'height': 409, 'widthPercent': 0.45, 'rescaleHeight': False, 'trialN': 11, 'loaded': True, 'loadedTime': 2708, 'positionName': 'LEFT', 'positionCoords': [511.6, 335.5], 'bid': 9.46}, {'imgObject': {}, 'id': 'sushi w_condiments', 'src': '/static/foodstim60/sushi w_condiments.jpg', 'key': 'i', 'origWidth': 410, 'origHeight': 410, 'width': 410, 'height': 410, 'widthPercent': 0.45, 'rescaleHeight': False, 'trialN': 11, 'loaded': True, 'loadedTime': 2758.5, 'positionName': 'RIGHT', 'positionCoords': [998.4, 335], 'bid': 0.18}]",23668.89999999944,1669831113948,omelette,sushi w_condiments,9.46,0.18,-9.280000000000001,omelette,1079.1000000005588,1080,1079.6000000005588,True,u,25263.200000000186,1594.300000000745,1669831115542,1594,HRV,HRV_0129,2022-11-30 18:03:18
12,"[{'imgObject': {}, 'id': 'froot loops w milk', 'src': '/static/foodstim60/froot loops w milk.jpg', 'key': 'u', 'origWidth': 410, 'origHeight': 410, 'width': 410, 'height': 410, 'widthPercent': 0.45, 'rescaleHeight': False, 'trialN': 12, 'loaded': True, 'loadedTime': 2421.5999999996275, 'positionName': 'LEFT', 'positionCoords': [511.6, 335], 'bid': 0.13}, {'imgObject': {}, 'id': 'blueberries', 'src': '/static/foodstim60/blueberries.jpg', 'key': 'i', 'origWidth': 411, 'origHeight': 411, 'width': 411, 'height': 411, 'widthPercent': 0.45, 'rescaleHeight': False, 'trialN': 12, 'loaded': True, 'loadedTime': 2759.2999999998137, 'positionName': 'RIGHT', 'positionCoords': [998.4, 334.5], 'bid': 0.16}]",25264.0,1669831115543,froot loops w milk,blueberries,0.13,0.16,0.03,froot loops w milk,764.2000000001863,765,764.5999999996275,True,u,26546.799999999814,1282.7999999998137,1669831116826,1283,HRV,HRV_0129,2022-11-30 18:03:18
13,"[{'imgObject': {}, 'id': 'strawberries', 'src': '/static/foodstim60/strawberries.jpg', 'key': 'u', 'origWidth': 410, 'origHeight': 410, 'width': 410, 'height': 410, 'widthPercent': 0.45, 'rescaleHeight': False, 'trialN': 13, 'loaded': True, 'loadedTime': 2812.5999999996275, 'positionName': 'LEFT', 'positionCoords': [511.6, 335], 'bid': 0.2}, {'imgObject': {}, 'id': 'cheerios', 'src': '/static/foodstim60/cheerios.jpg', 'key': 'i', 'origWidth': 409, 'origHeight': 410, 'width': 409, 'height': 410, 'widthPercent': 0.45, 'rescaleHeight': False, 'trialN': 13, 'loaded': True, 'loadedTime': 2626.7999999998137, 'positionName': 'RIGHT', 'positionCoords': [998.4, 335], 'bid': 0.34}]",26547.299999999814,1669831116826,strawberries,cheerios,0.2,0.34,0.14,strawberries,752.4000000003725,753,752.7000000001863,True,u,27818.39999999944,1271.0999999996275,1669831118098,1272,HRV,HRV_0129,2022-11-30 18:03:18
14,"[{'imgObject': {}, 'id': 'strawberries', 'src': '/static/foodstim60/strawberries.jpg', 'key': 'u', 'origWidth': 410, 'origHeight': 410, 'width': 410, 'height': 410, 'widthPercent': 0.45, 'rescaleHeight': False, 'trialN': 14, 'loaded': True, 'loadedTime': 2812.0999999996275, 'positionName': 'LEFT', 'positionCoords': [511.6, 335], 'bid': 0.2}, {'imgObject': {}, 'id': 'rigatoni and sauce', 'src': '/static/foodstim60/rigatoni and sauce.jpg', 'key': 'i', 'origWidth': 410, 'origHeight': 411, 'width': 410, 'height': 411, 'widthPercent': 0.45, 'rescaleHeight': False, 'trialN': 14, 'loaded': True, 'loadedTime': 2812.7000000001863, 'positionName': 'RIGHT', 'positionCoords': [998.4, 334.5], 'bid': 0.15}]",27818.700000000186,1669831118098,strawberries,rigatoni and sauce,0.2,0.15,-0.05000000000000002,strawberries,1113.5,1114,1113.8999999994412,True,u,29451.89999999944,1633.199999999255,1669831119731,1633,HRV,HRV_0129,2022-11-30 18:03:18
15,"[{'imgObject': {}, 'id': 'raisin bran w milk', 'src': '/static/foodstim60/raisin bran w milk.jpg', 'key': 'u', 'origWidth': 411, 'origHeight': 411, 'width': 411, 'height': 411, 'widthPercent': 0.45, 'rescaleHeight': False, 'trialN': 15, 'loaded': True, 'loadedTime': 2865.7999999998137, 'positionName': 'LEFT', 'positionCoords': [510.6, 334.5], 'bid': 0.22}, {'imgObject': {}, 'id': 'seaweed', 'src': '/static/foodstim60/seaweed.jpg', 'key': 'i', 'origWidth': 410, 'origHeight': 410, 'width': 410, 'height': 410, 'widthPercent': 0.45, 'rescaleHeight': False, 'trialN': 15, 'loaded': True, 'loadedTime': 2912.7999999998137, 'positionName': 'RIGHT', 'positionCoords': [998.4, 335], 'bid': 0.15}]",29452.200000000186,1669831119731,raisin bran w milk,seaweed,0.22,0.15,-0.07,raisin bran w milk,1696.199999999255,1697,1696.7999999998137,True,u,31655.599999999627,2203.399999999441,1669831121935,2204,HRV,HRV_0129,2022-11-30 18:03:18
16,"[{'imgObject': {}, 'id': 'granola w milk', 'src': '/static/foodstim60/granola w milk.jpg', 'key': 'u', 'origWidth': 410, 'origHeight': 410, 'width': 410, 'height': 410, 'widthPercent': 0.45, 'rescaleHeight': False, 'trialN': 16, 'loaded': True, 'loadedTime': 2914.399999999441, 'positionName': 'LEFT', 'positionCoords': [511.6, 335], 'bid': 0.17}, {'imgObject': {}, 'id': 'olives', 'src': '/static/foodstim60/olives.jpg', 'key': 'i', 'origWidth': 410, 'origHeight': 410, 'width': 410, 'height': 410, 'widthPercent': 0.45, 'rescaleHeight': False, 'trialN': 16, 'loaded': True, 'loadedTime': 2937.0999999996275, 'positionName': 'RIGHT', 'positionCoords': [998.4, 335], 'bid': 4.97}]",31656.200000000186,1669831121935,granola w milk,olives,0.17,4.97,4.8,olives,1156.0,1157,1156.3999999994412,True,i,33319.299999999814,1663.0999999996275,1669831123598,1663,HRV,HRV_0129,2022-11-30 18:03:18
17,"[{'imgObject': {}, 'id': 'olives', 'src': '/static/foodstim60/olives.jpg', 'key': 'u', 'origWidth': 410, 'origHeight': 410, 'width': 410, 'height': 410, 'widthPercent': 0.45, 'rescaleHeight': False, 'trialN': 17, 'loaded': True, 'loadedTime': 2962.2999999998137, 'positionName': 'LEFT', 'positionCoords': [511.6, 335], 'bid': 4.97}, {'imgObject': {}, 'id': 'luckycharms', 'src': '/static/foodstim60/luckycharms.jpg', 'key': 'i', 'origWidth': 410, 'origHeight': 409, 'width': 410, 'height': 409, 'widthPercent': 0.45, 'rescaleHeight': False, 'trialN': 17, 'loaded': True, 'loadedTime': 2962.899999999441, 'positionName': 'RIGHT', 'positionCoords': [998.4, 335.5], 'bid': 5.05}]",33319.799999999814,1669831123599,olives,luckycharms,4.97,5.05,0.08000000000000007,luckycharms,1212.0999999996275,1213,1212.7000000001863,True,i,35053.09999999963,1733.2999999998137,1669831125332,1733,HRV,HRV_0129,2022-11-30 18:03:18
18,"[{'imgObject': {}, 'id': 'fruitsalad', 'src': '/static/foodstim60/fruitsalad.jpg', 'key': 'u', 'origWidth': 410, 'origHeight': 410, 'width': 410, 'height': 410, 'widthPercent': 0.45, 'rescaleHeight': False, 'trialN': 18, 'loaded': True, 'loadedTime': 2994.0999999996275, 'positionName': 'LEFT', 'positionCoords': [511.6, 335], 'bid': 4.98}, {'imgObject': {}, 'id': 'edamame', 'src': '/static/foodstim60/edamame.jpg', 'key': 'i', 'origWidth': 409, 'origHeight': 410, 'width': 409, 'height': 410, 'widthPercent': 0.45, 'rescaleHeight': False, 'trialN': 18, 'loaded': True, 'loadedTime': 3000.2000000001863, 'positionName': 'RIGHT', 'positionCoords': [998.4, 335], 'bid': 5.04}]",35053.39999999944,1669831125333,fruitsalad,edamame,4.98,5.04,0.05999999999999961,edamame,1414.2000000001863,1414,1414.6000000005588,True,i,36985.89999999944,1932.5,1669831127265,1932,HRV,HRV_0129,2022-11-30 18:03:18
19,"[{'imgObject': {}, 'id': 'mashed potato', 'src': '/static/foodstim60/mashed potato.jpg', 'key': 'u', 'origWidth': 409, 'origHeight': 409, 'width': 409, 'height': 409, 'widthPercent': 0.45, 'rescaleHeight': False, 'trialN': 19, 'loaded': True, 'loadedTime': 3006.5, 'positionName': 'LEFT', 'positionCoords': [512.6, 335.5], 'bid': 4.94}, {'imgObject': {}, 'id': 'edamame', 'src': '/static/foodstim60/edamame.jpg', 'key': 'i', 'origWidth': 409, 'origHeight': 410, 'width': 409, 'height': 410, 'widthPercent': 0.45, 'rescaleHeight': False, 'trialN': 19, 'loaded': True, 'loadedTime': 3004.5, 'positionName': 'RIGHT', 'positionCoords': [998.4, 335], 'bid': 5.04}]",36986.39999999944,1669831127266,mashed potato,edamame,4.94,5.04,0.09999999999999964,mashed potato,1089.6000000005588,1090,1090.300000000745,True,u,38586.200000000186,1599.800000000745,1669831128865,1599,HRV,HRV_0129,2022-11-30 18:03:18
20,"[{'imgObject': {}, 'id': 'corn cob', 'src': '/static/foodstim60/corn cob.jpg', 'key': 'u', 'origWidth': 411, 'origHeight': 411, 'width': 411, 'height': 411, 'widthPercent': 0.45, 'rescaleHeight': False, 'trialN': 20, 'loaded': True, 'loadedTime': 3024.5, 'positionName': 'LEFT', 'positionCoords': [510.6, 334.5], 'bid': 9.81}, {'imgObject': {}, 'id': 'burger', 'src': '/static/foodstim60/burger.jpg', 'key': 'i', 'origWidth': 409, 'origHeight': 409, 'width': 409, 'height': 409, 'widthPercent': 0.45, 'rescaleHeight': False, 'trialN': 20, 'loaded': True, 'loadedTime': 3025.899999999441, 'positionName': 'RIGHT', 'positionCoords': [998.4, 335.5], 'bid': 9.83}]",38586.39999999944,1669831128866,corn cob,burger,9.81,9.83,0.019999999999999574,corn cob,649.6000000005588,650,650.0,True,u,39746.09999999963,1159.7000000001863,1669831130026,1160,HRV,HRV_0129,2022-11-30 18:03:18
21,"[{'imgObject': {}, 'id': 'mac & cheese', 'src': '/static/foodstim60/mac & cheese.jpg', 'key': 'u', 'origWidth': 410, 'origHeight': 410, 'width': 410, 'height': 410, 'widthPercent': 0.45, 'rescaleHeight': False, 'trialN': 21, 'loaded': True, 'loadedTime': 2333.5, 'positionName': 'LEFT', 'positionCoords': [511.6, 335], 'bid': 9.89}, {'imgObject': {}, 'id': 'baked potato', 'src': '/static/foodstim60/baked potato.jpg', 'key': 'i', 'origWidth': 409, 'origHeight': 410, 'width': 409, 'height': 410, 'widthPercent': 0.45, 'rescaleHeight': False, 'trialN': 21, 'loaded': True, 'loadedTime': 3034.5999999996275, 'positionName': 'RIGHT', 'positionCoords': [998.4, 335], 'bid': 9.47}]",39746.39999999944,1669831130026,mac & cheese,baked potato,9.89,9.47,-0.41999999999999993,baked potato,1305.2000000001863,1305,1305.6000000005588,True,i,41567.0,1820.6000000005588,1669831131846,1820,HRV,HRV_0129,2022-11-30 18:03:18
22,"[{'imgObject': {}, 'id': 'roastedpotatoes', 'src': '/static/foodstim60/roastedpotatoes.jpg', 'key': 'u', 'origWidth': 409, 'origHeight': 410, 'width': 409, 'height': 410, 'widthPercent': 0.45, 'rescaleHeight': False, 'trialN': 22, 'loaded': True, 'loadedTime': 3060.7999999998137, 'positionName': 'LEFT', 'positionCoords': [512.6, 335], 'bid': 9.75}, {'imgObject': {}, 'id': 'burger', 'src': '/static/foodstim60/burger.jpg', 'key': 'i', 'origWidth': 409, 'origHeight': 409, 'width': 409, 'height': 409, 'widthPercent': 0.45, 'rescaleHeight': False, 'trialN': 22, 'loaded': True, 'loadedTime': 3029.2000000001863, 'positionName': 'RIGHT', 'positionCoords': [998.4, 335.5], 'bid': 9.83}]",41567.299999999814,1669831131847,roastedpotatoes,burger,9.75,9.83,0.08000000000000007,burger,1381.0999999996275,1381,1381.4000000003725,True,i,43456.5,1889.2000000001863,1669831133736,1889,HRV,HRV_0129,2022-11-30 18:03:18
23,"[{'imgObject': {}, 'id': 'bagel plain', 'src': '/static/foodstim60/bagel plain.jpg', 'key': 'u', 'origWidth': 410, 'origHeight': 410, 'width': 410, 'height': 410, 'widthPercent': 0.45, 'rescaleHeight': False, 'trialN': 23, 'loaded': True, 'loadedTime': 3116.399999999441, 'positionName': 'LEFT', 'positionCoords': [511.6, 335], 'bid': 9.86}, {'imgObject': {}, 'id': 'mac & cheese', 'src': '/static/foodstim60/mac & cheese.jpg', 'key': 'i', 'origWidth': 410, 'origHeight': 410, 'width': 410, 'height': 410, 'widthPercent': 0.45, 'rescaleHeight': False, 'trialN': 23, 'loaded': True, 'loadedTime': 2331.399999999441, 'positionName': 'RIGHT', 'positionCoords': [998.4, 335], 'bid': 9.89}]",43456.799999999814,1669831133736,bagel plain,mac & cheese,9.86,9.89,0.030000000000001137,bagel plain,1147.4000000003725,1148,1147.7999999998137,True,u,45125.89999999944,1669.0999999996275,1669831135405,1669,HRV,HRV_0129,2022-11-30 18:03:18
24,"[{'imgObject': {}, 'id': 'mango', 'src': '/static/foodstim60/mango.jpg', 'key': 'u', 'origWidth': 411, 'origHeight': 411, 'width': 411, 'height': 411, 'widthPercent': 0.45, 'rescaleHeight': False, 'trialN': 24, 'loaded': True, 'loadedTime': 2521.7000000001863, 'positionName': 'LEFT', 'positionCoords': [510.6, 334.5], 'bid': 0.1}, {'imgObject': {}, 'id': 'granola w milk', 'src': '/static/foodstim60/granola w milk.jpg', 'key': 'i', 'origWidth': 410, 'origHeight': 410, 'width': 410, 'height': 410, 'widthPercent': 0.45, 'rescaleHeight': False, 'trialN': 24, 'loaded': True, 'loadedTime': 2913, 'positionName': 'RIGHT', 'positionCoords': [998.4, 335], 'bid': 0.17}]",45126.09999999963,1669831135406,mango,granola w milk,0.1,0.17,0.07,granola w milk,1622.2000000001863,1622,1622.7999999998137,True,i,47256.5,2130.4000000003725,1669831137536,2130,HRV,HRV_0129,2022-11-30 18:03:18
25,"[{'imgObject': {}, 'id': 'eggsalad', 'src': '/static/foodstim60/eggsalad.jpg', 'key': 'u', 'origWidth': 410, 'origHeight': 409, 'width': 410, 'height': 409, 'widthPercent': 0.45, 'rescaleHeight': False, 'trialN': 25, 'loaded': True, 'loadedTime': 3146.0999999996275, 'positionName': 'LEFT', 'positionCoords': [511.6, 335.5], 'bid': 0.3}, {'imgObject': {}, 'id': 'rigatoni and sauce', 'src': '/static/foodstim60/rigatoni and sauce.jpg', 'key': 'i', 'origWidth': 410, 'origHeight': 411, 'width': 410, 'height': 411, 'widthPercent': 0.45, 'rescaleHeight': False, 'trialN': 25, 'loaded': True, 'loadedTime': 2838, 'positionName': 'RIGHT', 'positionCoords': [998.4, 334.5], 'bid': 0.15}]",47257.0,1669831137536,eggsalad,rigatoni and sauce,0.3,0.15,-0.15,eggsalad,1290.7999999998137,1292,1291.2000000001863,True,u,49056.5,1799.5,1669831139336,1800,HRV,HRV_0129,2022-11-30 18:03:18
26,"[{'imgObject': {}, 'id': 'popsicles', 'src': '/static/foodstim60/popsicles.jpg', 'key': 'u', 'origWidth': 410, 'origHeight': 410, 'width': 410, 'height': 410, 'widthPercent': 0.45, 'rescaleHeight': False, 'trialN': 26, 'loaded': True, 'loadedTime': 3146.899999999441, 'positionName': 'LEFT', 'positionCoords': [511.6, 335], 'bid': 5.04}, {'imgObject': {}, 'id': 'mango', 'src': '/static/foodstim60/mango.jpg', 'key': 'i', 'origWidth': 411, 'origHeight': 411, 'width': 411, 'height': 411, 'widthPercent': 0.45, 'rescaleHeight': False, 'trialN': 26, 'loaded': True, 'loadedTime': 2563, 'positionName': 'RIGHT', 'positionCoords': [998.4, 334.5], 'bid': 0.1}]",49056.89999999944,1669831139336,popsicles,mango,5.04,0.1,-4.94,popsicles,1299.300000000745,1300,1299.9000000003725,True,u,50866.0,1809.1000000005588,1669831141145,1809,HRV,HRV_0129,2022-11-30 18:03:18
27,"[{'imgObject': {}, 'id': 'roastedpotatoes', 'src': '/static/foodstim60/roastedpotatoes.jpg', 'key': 'u', 'origWidth': 409, 'origHeight': 410, 'width': 409, 'height': 410, 'widthPercent': 0.45, 'rescaleHeight': False, 'trialN': 27, 'loaded': True, 'loadedTime': 3062.7000000001863, 'positionName': 'LEFT', 'positionCoords': [512.6, 335], 'bid': 9.75}, {'imgObject': {}, 'id': 'cherry tomato', 'src': '/static/foodstim60/cherry tomato.jpg', 'key': 'i', 'origWidth': 410, 'origHeight': 410, 'width': 410, 'height': 410, 'widthPercent': 0.45, 'rescaleHeight': False, 'trialN': 27, 'loaded': True, 'loadedTime': 2563.2999999998137, 'positionName': 'RIGHT', 'positionCoords': [998.4, 335], 'bid': 0.22}]",50866.39999999944,1669831141146,roastedpotatoes,cherry tomato,9.75,0.22,-9.53,roastedpotatoes,905.3000000007451,905,905.6000000005588,True,u,52285.299999999814,1418.9000000003725,1669831142565,1419,HRV,HRV_0129,2022-11-30 18:03:18
28,"[{'imgObject': {}, 'id': 'eggs', 'src': '/static/foodstim60/eggs.jpg', 'key': 'u', 'origWidth': 409, 'origHeight': 409, 'width': 409, 'height': 409, 'widthPercent': 0.45, 'rescaleHeight': False, 'trialN': 28, 'loaded': True, 'loadedTime': 3176.7999999998137, 'positionName': 'LEFT', 'positionCoords': [512.6, 335.5], 'bid': 9.84}, {'imgObject': {}, 'id': 'burrito', 'src': '/static/foodstim60/burrito.jpg', 'key': 'i', 'origWidth': 410, 'origHeight': 410, 'width': 410, 'height': 410, 'widthPercent': 0.45, 'rescaleHeight': False, 'trialN': 28, 'loaded': True, 'loadedTime': 3202.399999999441, 'positionName': 'RIGHT', 'positionCoords': [998.4, 335], 'bid': 9.48}]",52285.700000000186,1669831142565,eggs,burrito,9.84,9.48,-0.35999999999999943,eggs,1022.3999999994412,1023,1022.7999999998137,True,u,53828.799999999814,1543.0999999996275,1669831144108,1543,HRV,HRV_0129,2022-11-30 18:03:18
29,"[{'imgObject': {}, 'id': 'blackbeanswithrice', 'src': '/static/foodstim60/blackbeanswithrice.jpg', 'key': 'u', 'origWidth': 410, 'origHeight': 410, 'width': 410, 'height': 410, 'widthPercent': 0.45, 'rescaleHeight': False, 'trialN': 29, 'loaded': True, 'loadedTime': 3234.2999999998137, 'positionName': 'LEFT', 'positionCoords': [511.6, 335], 'bid': 0.2}, {'imgObject': {}, 'id': 'burrito', 'src': '/static/foodstim60/burrito.jpg', 'key': 'i', 'origWidth': 410, 'origHeight': 410, 'width': 410, 'height': 410, 'widthPercent': 0.45, 'rescaleHeight': False, 'trialN': 29, 'loaded': True, 'loadedTime': 3202.7000000001863, 'positionName': 'RIGHT', 'positionCoords': [998.4, 335], 'bid': 9.48}]",53829.09999999963,1669831144109,blackbeanswithrice,burrito,0.2,9.48,9.280000000000001,burrito,967.0,967,967.7000000001863,True,i,55309.09999999963,1480.0,1669831145589,1480,HRV,HRV_0129,2022-11-30 18:03:18
30,"[{'imgObject': {}, 'id': 'hotdog w must', 'src': '/static/foodstim60/hotdog w must.jpg', 'key': 'u', 'origWidth': 409, 'origHeight': 409, 'width': 409, 'height': 409, 'widthPercent': 0.45, 'rescaleHeight': False, 'trialN': 30, 'loaded': True, 'loadedTime': 2356.0999999996275, 'positionName': 'LEFT', 'positionCoords': [512.6, 335.5], 'bid': 8.98}, {'imgObject': {}, 'id': 'fruitsalad', 'src': '/static/foodstim60/fruitsalad.jpg', 'key': 'i', 'origWidth': 410, 'origHeight': 410, 'width': 410, 'height': 410, 'widthPercent': 0.45, 'rescaleHeight': False, 'trialN': 30, 'loaded': True, 'loadedTime': 2991.5, 'positionName': 'RIGHT', 'positionCoords': [998.4, 335], 'bid': 4.98}]",55309.39999999944,1669831145589,hotdog w must,fruitsalad,8.98,4.98,-4.0,hotdog w must,830.3000000007451,830,830.6000000005588,True,u,56649.09999999963,1339.7000000001863,1669831146929,1340,HRV,HRV_0129,2022-11-30 18:03:18
31,"[{'imgObject': {}, 'id': 'froot loops w milk', 'src': '/static/foodstim60/froot loops w milk.jpg', 'key': 'u', 'origWidth': 410, 'origHeight': 410, 'width': 410, 'height': 410, 'widthPercent': 0.45, 'rescaleHeight': False, 'trialN': 31, 'loaded': True, 'loadedTime': 2409.0999999996275, 'positionName': 'LEFT', 'positionCoords': [511.6, 335], 'bid': 0.13}, {'imgObject': {}, 'id': 'orange slices', 'src': '/static/foodstim60/orange slices.jpg', 'key': 'i', 'origWidth': 409, 'origHeight': 410, 'width': 409, 'height': 410, 'widthPercent': 0.45, 'rescaleHeight': False, 'trialN': 31, 'loaded': True, 'loadedTime': 3236.0999999996275, 'positionName': 'RIGHT', 'positionCoords': [998.4, 335], 'bid': 7.77}]",56649.39999999944,1669831146929,froot loops w milk,orange slices,0.13,7.77,7.64,froot loops w milk,1003.1000000005588,1004,1003.6000000005588,True,u,58169.59999999963,1520.2000000001863,1669831148449,1520,HRV,HRV_0129,2022-11-30 18:03:18
32,"[{'imgObject': {}, 'id': 'corn cob', 'src': '/static/foodstim60/corn cob.jpg', 'key': 'u', 'origWidth': 411, 'origHeight': 411, 'width': 411, 'height': 411, 'widthPercent': 0.45, 'rescaleHeight': False, 'trialN': 32, 'loaded': True, 'loadedTime': 3023.0999999996275, 'positionName': 'LEFT', 'positionCoords': [510.6, 334.5], 'bid': 9.81}, {'imgObject': {}, 'id': 'grilled chicken strips', 'src': '/static/foodstim60/grilled chicken strips.jpg', 'key': 'i', 'origWidth': 410, 'origHeight': 411, 'width': 410, 'height': 411, 'widthPercent': 0.45, 'rescaleHeight': False, 'trialN': 32, 'loaded': True, 'loadedTime': 3258.5999999996275, 'positionName': 'RIGHT', 'positionCoords': [998.4, 334.5], 'bid': 9.12}]",58169.799999999814,1669831148449,corn cob,grilled chicken strips,9.81,9.12,-0.6900000000000013,grilled chicken strips,1410.0,1411,1410.5,True,i,60087.299999999814,1917.5,1669831150367,1918,HRV,HRV_0129,2022-11-30 18:03:18
33,"[{'imgObject': {}, 'id': 'sushi w_condiments', 'src': '/static/foodstim60/sushi w_condiments.jpg', 'key': 'u', 'origWidth': 410, 'origHeight': 410, 'width': 410, 'height': 410, 'widthPercent': 0.45, 'rescaleHeight': False, 'trialN': 33, 'loaded': True, 'loadedTime': 2759.0999999996275, 'positionName': 'LEFT', 'positionCoords': [511.6, 335], 'bid': 0.18}, {'imgObject': {}, 'id': 'sweetpotato', 'src': '/static/foodstim60/sweetpotato.jpg', 'key': 'i', 'origWidth': 410, 'origHeight': 410, 'width': 410, 'height': 410, 'widthPercent': 0.45, 'rescaleHeight': False, 'trialN': 33, 'loaded': True, 'loadedTime': 3262.0999999996275, 'positionName': 'RIGHT', 'positionCoords': [998.4, 335], 'bid': 0.23}]",60087.39999999944,1669831150367,sushi w_condiments,sweetpotato,0.18,0.23,0.05000000000000002,sweetpotato,2156.9000000003725,2157,2157.300000000745,True,i,62759.59999999963,2672.2000000001863,1669831153039,2672,HRV,HRV_0129,2022-11-30 18:03:18
34,"[{'imgObject': {}, 'id': 'chicken nuggets2', 'src': '/static/foodstim60/chicken nuggets2.jpg', 'key': 'u', 'origWidth': 410, 'origHeight': 409, 'width': 410, 'height': 409, 'widthPercent': 0.45, 'rescaleHeight': False, 'trialN': 34, 'loaded': True, 'loadedTime': 3294.2999999998137, 'positionName': 'LEFT', 'positionCoords': [511.6, 335.5], 'bid': 9.75}, {'imgObject': {}, 'id': 'bagel plain', 'src': '/static/foodstim60/bagel plain.jpg', 'key': 'i', 'origWidth': 410, 'origHeight': 410, 'width': 410, 'height': 410, 'widthPercent': 0.45, 'rescaleHeight': False, 'trialN': 34, 'loaded': True, 'loadedTime': 3086.2000000001863, 'positionName': 'RIGHT', 'positionCoords': [998.4, 335], 'bid': 9.86}]",62760.0,1669831153039,chicken nuggets2,bagel plain,9.75,9.86,0.10999999999999943,chicken nuggets2,835.8999999994412,837,836.2999999998137,True,u,64114.89999999944,1354.8999999994412,1669831154394,1355,HRV,HRV_0129,2022-11-30 18:03:18
35,"[{'imgObject': {}, 'id': 'sweetpotato', 'src': '/static/foodstim60/sweetpotato.jpg', 'key': 'u', 'origWidth': 410, 'origHeight': 410, 'width': 410, 'height': 410, 'widthPercent': 0.45, 'rescaleHeight': False, 'trialN': 35, 'loaded': True, 'loadedTime': 3259.0999999996275, 'positionName': 'LEFT', 'positionCoords': [511.6, 335], 'bid': 0.23}, {'imgObject': {}, 'id': 'raisin bran w milk', 'src': '/static/foodstim60/raisin bran w milk.jpg', 'key': 'i', 'origWidth': 411, 'origHeight': 411, 'width': 411, 'height': 411, 'widthPercent': 0.45, 'rescaleHeight': False, 'trialN': 35, 'loaded': True, 'loadedTime': 2865.899999999441, 'positionName': 'RIGHT', 'positionCoords': [998.4, 334.5], 'bid': 0.22}]",64115.299999999814,1669831154395,sweetpotato,raisin bran w milk,0.23,0.22,-0.010000000000000009,raisin bran w milk,1345.2000000001863,1345,1345.7000000001863,True,i,65968.39999999944,1853.0999999996275,1669831156248,1853,HRV,HRV_0129,2022-11-30 18:03:18
36,"[{'imgObject': {}, 'id': 'granola w milk', 'src': '/static/foodstim60/granola w milk.jpg', 'key': 'u', 'origWidth': 410, 'origHeight': 410, 'width': 410, 'height': 410, 'widthPercent': 0.45, 'rescaleHeight': False, 'trialN': 36, 'loaded': True, 'loadedTime': 2914.0999999996275, 'positionName': 'LEFT', 'positionCoords': [511.6, 335], 'bid': 0.17}, {'imgObject': {}, 'id': 'rigatoni', 'src': '/static/foodstim60/rigatoni.jpg', 'key': 'i', 'origWidth': 411, 'origHeight': 411, 'width': 411, 'height': 411, 'widthPercent': 0.45, 'rescaleHeight': False, 'trialN': 36, 'loaded': True, 'loadedTime': 2465.7999999998137, 'positionName': 'RIGHT', 'positionCoords': [998.4, 334.5], 'bid': 0.19}]",65968.79999999981,1669831156248,granola w milk,rigatoni,0.17,0.19,0.01999999999999999,granola w milk,1155.5999999996275,1156,1156.0999999996275,True,u,67641.59999999963,1672.7999999998137,1669831157921,1673,HRV,HRV_0129,2022-11-30 18:03:18
37,"[{'imgObject': {}, 'id': 'salmon', 'src': '/static/foodstim60/salmon.jpg', 'key': 'u', 'origWidth': 410, 'origHeight': 409, 'width': 410, 'height': 409, 'widthPercent': 0.45, 'rescaleHeight': False, 'trialN': 37, 'loaded': True, 'loadedTime': 2364, 'positionName': 'LEFT', 'positionCoords': [511.6, 335.5], 'bid': 0.16}, {'imgObject': {}, 'id': 'blueberries', 'src': '/static/foodstim60/blueberries.jpg', 'key': 'i', 'origWidth': 411, 'origHeight': 411, 'width': 411, 'height': 411, 'widthPercent': 0.45, 'rescaleHeight': False, 'trialN': 37, 'loaded': True, 'loadedTime': 2761, 'positionName': 'RIGHT', 'positionCoords': [998.4, 334.5], 'bid': 0.16}]",67642.0,1669831157921,salmon,blueberries,0.16,0.16,0.0,salmon,1690.5,1692,1691.0999999996275,True,u,69838.79999999981,2196.7999999998137,1669831160118,2197,HRV,HRV_0129,2022-11-30 18:03:18
38,"[{'imgObject': {}, 'id': 'roastedpotatoes', 'src': '/static/foodstim60/roastedpotatoes.jpg', 'key': 'u', 'origWidth': 409, 'origHeight': 410, 'width': 409, 'height': 410, 'widthPercent': 0.45, 'rescaleHeight': False, 'trialN': 38, 'loaded': True, 'loadedTime': 3062.2999999998137, 'positionName': 'LEFT', 'positionCoords': [512.6, 335], 'bid': 9.75}, {'imgObject': {}, 'id': 'cocktailshrimp', 'src': '/static/foodstim60/cocktailshrimp.jpg', 'key': 'i', 'origWidth': 410, 'origHeight': 410, 'width': 410, 'height': 410, 'widthPercent': 0.45, 'rescaleHeight': False, 'trialN': 38, 'loaded': True, 'loadedTime': 3296.0999999996275, 'positionName': 'RIGHT', 'positionCoords': [998.4, 335], 'bid': 9.78}]",69839.29999999981,1669831160119,roastedpotatoes,cocktailshrimp,9.75,9.78,0.02999999999999936,roastedpotatoes,716.5,717,716.9000000003725,True,u,71069.29999999981,1230.0,1669831161349,1230,HRV,HRV_0129,2022-11-30 18:03:18
39,"[{'imgObject': {}, 'id': 'popsicles', 'src': '/static/foodstim60/popsicles.jpg', 'key': 'u', 'origWidth': 410, 'origHeight': 410, 'width': 410, 'height': 410, 'widthPercent': 0.45, 'rescaleHeight': False, 'trialN': 39, 'loaded': True, 'loadedTime': 3175.2000000001863, 'positionName': 'LEFT', 'positionCoords': [511.6, 335], 'bid': 5.04}, {'imgObject': {}, 'id': 'cheerios', 'src': '/static/foodstim60/cheerios.jpg', 'key': 'i', 'origWidth': 409, 'origHeight': 410, 'width': 409, 'height': 410, 'widthPercent': 0.45, 'rescaleHeight': False, 'trialN': 39, 'loaded': True, 'loadedTime': 2655.7000000001863, 'positionName': 'RIGHT', 'positionCoords': [998.4, 335], 'bid': 0.34}]",71069.79999999981,1669831161349,popsicles,cheerios,5.04,0.34,-4.7,popsicles,773.7999999998137,774,774.2000000001863,True,u,72365.59999999963,1295.7999999998137,1669831162645,1296,HRV,HRV_0129,2022-11-30 18:03:18
40,"[{'imgObject': {}, 'id': 'tacos', 'src': '/static/foodstim60/tacos.jpg', 'key': 'u', 'origWidth': 411, 'origHeight': 411, 'width': 411, 'height': 411, 'widthPercent': 0.45, 'rescaleHeight': False, 'trialN': 40, 'loaded': True, 'loadedTime': 3310.399999999441, 'positionName': 'LEFT', 'positionCoords': [510.6, 334.5], 'bid': 9.64}, {'imgObject': {}, 'id': 'strawberries', 'src': '/static/foodstim60/strawberries.jpg', 'key': 'i', 'origWidth': 410, 'origHeight': 410, 'width': 410, 'height': 410, 'widthPercent': 0.45, 'rescaleHeight': False, 'trialN': 40, 'loaded': True, 'loadedTime': 2812.399999999441, 'positionName': 'RIGHT', 'positionCoords': [998.4, 335], 'bid': 0.2}]",72366.09999999963,1669831162646,tacos,strawberries,9.64,0.2,-9.440000000000001,tacos,934.0,934,934.6000000005588,True,u,73820.5,1454.4000000003725,1669831164100,1454,HRV,HRV_0129,2022-11-30 18:03:18
41,"[{'imgObject': {}, 'id': 'bagel plain', 'src': '/static/foodstim60/bagel plain.jpg', 'key': 'u', 'origWidth': 410, 'origHeight': 410, 'width': 410, 'height': 410, 'widthPercent': 0.45, 'rescaleHeight': False, 'trialN': 41, 'loaded': True, 'loadedTime': 3116.5, 'positionName': 'LEFT', 'positionCoords': [511.6, 335], 'bid': 9.86}, {'imgObject': {}, 'id': 'bagel and cc', 'src': '/static/foodstim60/bagel and cc.jpg', 'key': 'i', 'origWidth': 410, 'origHeight': 410, 'width': 410, 'height': 410, 'widthPercent': 0.45, 'rescaleHeight': False, 'trialN': 41, 'loaded': True, 'loadedTime': 3333.899999999441, 'positionName': 'RIGHT', 'positionCoords': [998.4, 335], 'bid': 9.79}]",73821.0,1669831164100,bagel plain,bagel and cc,9.86,9.79,-0.07000000000000028,bagel and cc,1167.0,1168,1167.3999999994412,True,i,75503.79999999981,1682.7999999998137,1669831165783,1683,HRV,HRV_0129,2022-11-30 18:03:18
42,"[{'imgObject': {}, 'id': 'olives', 'src': '/static/foodstim60/olives.jpg', 'key': 'u', 'origWidth': 410, 'origHeight': 410, 'width': 410, 'height': 410, 'widthPercent': 0.45, 'rescaleHeight': False, 'trialN': 42, 'loaded': True, 'loadedTime': 2938.5, 'positionName': 'LEFT', 'positionCoords': [511.6, 335], 'bid': 4.97}, {'imgObject': {}, 'id': 'veggieswithdip', 'src': '/static/foodstim60/veggieswithdip.jpg', 'key': 'i', 'origWidth': 409, 'origHeight': 409, 'width': 409, 'height': 409, 'widthPercent': 0.45, 'rescaleHeight': False, 'trialN': 42, 'loaded': True, 'loadedTime': 2352.399999999441, 'positionName': 'RIGHT', 'positionCoords': [998.4, 335.5], 'bid': 8.08}]",75504.39999999944,1669831165784,olives,veggieswithdip,4.97,8.08,3.1100000000000003,olives,795.8000000007451,796,796.4000000003725,True,u,76821.39999999944,1317.0,1669831167101,1317,HRV,HRV_0129,2022-11-30 18:03:18
43,"[{'imgObject': {}, 'id': 'raspberries', 'src': '/static/foodstim60/raspberries.jpg', 'key': 'u', 'origWidth': 411, 'origHeight': 411, 'width': 411, 'height': 411, 'widthPercent': 0.45, 'rescaleHeight': False, 'trialN': 43, 'loaded': True, 'loadedTime': 3338.2999999998137, 'positionName': 'LEFT', 'positionCoords': [510.6, 334.5], 'bid': 0.29}, {'imgObject': {}, 'id': 'rigatoni', 'src': '/static/foodstim60/rigatoni.jpg', 'key': 'i', 'origWidth': 411, 'origHeight': 411, 'width': 411, 'height': 411, 'widthPercent': 0.45, 'rescaleHeight': False, 'trialN': 43, 'loaded': True, 'loadedTime': 2469.5, 'positionName': 'RIGHT', 'positionCoords': [998.4, 334.5], 'bid': 0.19}]",76821.89999999944,1669831167101,raspberries,rigatoni,0.29,0.19,-0.09999999999999998,rigatoni,1958.5,1959,1959.0,True,i,79286.79999999981,2464.9000000003725,1669831169566,2465,HRV,HRV_0129,2022-11-30 18:03:18
44,"[{'imgObject': {}, 'id': 'banana', 'src': '/static/foodstim60/banana.jpg', 'key': 'u', 'origWidth': 410, 'origHeight': 410, 'width': 410, 'height': 410, 'widthPercent': 0.45, 'rescaleHeight': False, 'trialN': 44, 'loaded': True, 'loadedTime': 3342, 'positionName': 'LEFT', 'positionCoords': [511.6, 335], 'bid': 7.8}, {'imgObject': {}, 'id': 'rigatoni and sauce', 'src': '/static/foodstim60/rigatoni and sauce.jpg', 'key': 'i', 'origWidth': 410, 'origHeight': 411, 'width': 410, 'height': 411, 'widthPercent': 0.45, 'rescaleHeight': False, 'trialN': 44, 'loaded': True, 'loadedTime': 2816, 'positionName': 'RIGHT', 'positionCoords': [998.4, 334.5], 'bid': 0.15}]",79287.0,1669831169566,banana,rigatoni and sauce,7.8,0.15,-7.6499999999999995,banana,1421.3999999994412,1422,1421.8999999994412,True,u,81220.59999999963,1933.5999999996275,1669831171500,1934,HRV,HRV_0129,2022-11-30 18:03:18
45,"[{'imgObject': {}, 'id': 'fruitsalad', 'src': '/static/foodstim60/fruitsalad.jpg', 'key': 'u', 'origWidth': 410, 'origHeight': 410, 'width': 410, 'height': 410, 'widthPercent': 0.45, 'rescaleHeight': False, 'trialN': 45, 'loaded': True, 'loadedTime': 2993.2000000001863, 'positionName': 'LEFT', 'positionCoords': [511.6, 335], 'bid': 4.98}, {'imgObject': {}, 'id': 'cantaloupe', 'src': '/static/foodstim60/cantaloupe.jpg', 'key': 'i', 'origWidth': 409, 'origHeight': 409, 'width': 409, 'height': 409, 'widthPercent': 0.45, 'rescaleHeight': False, 'trialN': 45, 'loaded': True, 'loadedTime': 2461.5999999996275, 'positionName': 'RIGHT', 'positionCoords': [998.4, 335.5], 'bid': 4.98}]",81221.0,1669831171501,fruitsalad,cantaloupe,4.98,4.98,0.0,cantaloupe,1271.3999999994412,1271,1271.8999999994412,True,i,83003.20000000019,1782.2000000001863,1669831173283,1782,HRV,HRV_0129,2022-11-30 18:03:18
46,"[{'imgObject': {}, 'id': 'granola w milk', 'src': '/static/foodstim60/granola w milk.jpg', 'key': 'u', 'origWidth': 410, 'origHeight': 410, 'width': 410, 'height': 410, 'widthPercent': 0.45, 'rescaleHeight': False, 'trialN': 46, 'loaded': True, 'loadedTime': 2914.399999999441, 'positionName': 'LEFT', 'positionCoords': [511.6, 335], 'bid': 0.17}, {'imgObject': {}, 'id': 'cherry tomato', 'src': '/static/foodstim60/cherry tomato.jpg', 'key': 'i', 'origWidth': 410, 'origHeight': 410, 'width': 410, 'height': 410, 'widthPercent': 0.45, 'rescaleHeight': False, 'trialN': 46, 'loaded': True, 'loadedTime': 2592, 'positionName': 'RIGHT', 'positionCoords': [998.4, 335], 'bid': 0.22}]",83003.5,1669831173283,granola w milk,cherry tomato,0.17,0.22,0.04999999999999999,granola w milk,880.7999999998137,881,881.2999999998137,True,u,84398.70000000019,1395.2000000001863,1669831174678,1395,HRV,HRV_0129,2022-11-30 18:03:18
47,"[{'imgObject': {}, 'id': 'Tribe humus pita', 'src': '/static/foodstim60/Tribe humus pita.jpg', 'key': 'u', 'origWidth': 411, 'origHeight': 411, 'width': 411, 'height': 411, 'widthPercent': 0.45, 'rescaleHeight': False, 'trialN': 47, 'loaded': True, 'loadedTime': 2476.2000000001863, 'positionName': 'LEFT', 'positionCoords': [510.6, 334.5], 'bid': 7.73}, {'imgObject': {}, 'id': 'orange slices', 'src': '/static/foodstim60/orange slices.jpg', 'key': 'i', 'origWidth': 409, 'origHeight': 410, 'width': 409, 'height': 410, 'widthPercent': 0.45, 'rescaleHeight': False, 'trialN': 47, 'loaded': True, 'loadedTime': 3236.2000000001863, 'positionName': 'RIGHT', 'positionCoords': [998.4, 335], 'bid': 7.77}]",84398.89999999944,1669831174678,Tribe humus pita,orange slices,7.73,7.77,0.03999999999999915,Tribe humus pita,829.2000000001863,830,829.5,True,u,85736.89999999944,1338.0,1669831176016,1338,HRV,HRV_0129,2022-11-30 18:03:18
48,"[{'imgObject': {}, 'id': 'blueberries', 'src': '/static/foodstim60/blueberries.jpg', 'key': 'u', 'origWidth': 411, 'origHeight': 411, 'width': 411, 'height': 411, 'widthPercent': 0.45, 'rescaleHeight': False, 'trialN': 48, 'loaded': True, 'loadedTime': 2783.0999999996275, 'positionName': 'LEFT', 'positionCoords': [510.6, 334.5], 'bid': 0.16}, {'imgObject': {}, 'id': 'apple slices', 'src': '/static/foodstim60/apple slices.jpg', 'key': 'i', 'origWidth': 409, 'origHeight': 410, 'width': 409, 'height': 410, 'widthPercent': 0.45, 'rescaleHeight': False, 'trialN': 48, 'loaded': True, 'loadedTime': 3349.0999999996275, 'positionName': 'RIGHT', 'positionCoords': [998.4, 335], 'bid': 4.94}]",85737.20000000019,1669831176017,blueberries,apple slices,0.16,4.94,4.78,apple slices,1090.7999999998137,1091,1091.3999999994412,True,i,87337.09999999963,1599.8999999994412,1669831177617,1600,HRV,HRV_0129,2022-11-30 18:03:18
49,"[{'imgObject': {}, 'id': 'yogurt no spoon', 'src': '/static/foodstim60/yogurt no spoon.jpg', 'key': 'u', 'origWidth': 411, 'origHeight': 410, 'width': 411, 'height': 410, 'widthPercent': 0.45, 'rescaleHeight': False, 'trialN': 49, 'loaded': True, 'loadedTime': 3380.5, 'positionName': 'LEFT', 'positionCoords': [510.6, 335], 'bid': 5.0200000000000005}, {'imgObject': {}, 'id': 'cantaloupe', 'src': '/static/foodstim60/cantaloupe.jpg', 'key': 'i', 'origWidth': 409, 'origHeight': 409, 'width': 409, 'height': 409, 'widthPercent': 0.45, 'rescaleHeight': False, 'trialN': 49, 'loaded': True, 'loadedTime': 2459.399999999441, 'positionName': 'RIGHT', 'positionCoords': [998.4, 335.5], 'bid': 4.98}]",87337.5,1669831177617,yogurt no spoon,cantaloupe,5.0200000000000005,4.98,-0.040000000000000036,yogurt no spoon,842.0999999996275,842,842.5,True,u,88687.09999999963,1349.5999999996275,1669831178967,1350,HRV,HRV_0129,2022-11-30 18:03:18
50,"[{'imgObject': {}, 'id': 'olives', 'src': '/static/foodstim60/olives.jpg', 'key': 'u', 'origWidth': 410, 'origHeight': 410, 'width': 410, 'height': 410, 'widthPercent': 0.45, 'rescaleHeight': False, 'trialN': 50, 'loaded': True, 'loadedTime': 2938.7000000001863, 'positionName': 'LEFT', 'positionCoords': [511.6, 335], 'bid': 4.97}, {'imgObject': {}, 'id': 'apple slices', 'src': '/static/foodstim60/apple slices.jpg', 'key': 'i', 'origWidth': 409, 'origHeight': 410, 'width': 409, 'height': 410, 'widthPercent': 0.45, 'rescaleHeight': False, 'trialN': 50, 'loaded': True, 'loadedTime': 3349, 'positionName': 'RIGHT', 'positionCoords': [998.4, 335], 'bid': 4.94}]",88687.59999999963,1669831178967,olives,apple slices,4.97,4.94,-0.02999999999999936,olives,948.1000000005588,949,948.5,True,u,90150.09999999963,1462.5,1669831180430,1463,HRV,HRV_0129,2022-11-30 18:03:18
51,"[{'imgObject': {}, 'id': 'chicken nuggets2', 'src': '/static/foodstim60/chicken nuggets2.jpg', 'key': 'u', 'origWidth': 410, 'origHeight': 409, 'width': 410, 'height': 409, 'widthPercent': 0.45, 'rescaleHeight': False, 'trialN': 51, 'loaded': True, 'loadedTime': 3262.399999999441, 'positionName': 'LEFT', 'positionCoords': [511.6, 335.5], 'bid': 9.75}, {'imgObject': {}, 'id': 'tacos', 'src': '/static/foodstim60/tacos.jpg', 'key': 'i', 'origWidth': 411, 'origHeight': 411, 'width': 411, 'height': 411, 'widthPercent': 0.45, 'rescaleHeight': False, 'trialN': 51, 'loaded': True, 'loadedTime': 3320.5, 'positionName': 'RIGHT', 'positionCoords': [998.4, 334.5], 'bid': 9.64}]",90150.39999999944,1669831180430,chicken nuggets2,tacos,9.75,9.64,-0.10999999999999943,chicken nuggets2,773.6000000005588,774,774.2000000001863,True,u,91437.79999999981,1287.4000000003725,1669831181717,1287,HRV,HRV_0129,2022-11-30 18:03:18
52,"[{'imgObject': {}, 'id': 'baked potato', 'src': '/static/foodstim60/baked potato.jpg', 'key': 'u', 'origWidth': 409, 'origHeight': 410, 'width': 409, 'height': 410, 'widthPercent': 0.45, 'rescaleHeight': False, 'trialN': 52, 'loaded': True, 'loadedTime': 3034.5999999996275, 'positionName': 'LEFT', 'positionCoords': [512.6, 335], 'bid': 9.47}, {'imgObject': {}, 'id': 'rigatoni', 'src': '/static/foodstim60/rigatoni.jpg', 'key': 'i', 'origWidth': 411, 'origHeight': 411, 'width': 411, 'height': 411, 'widthPercent': 0.45, 'rescaleHeight': False, 'trialN': 52, 'loaded': True, 'loadedTime': 2471.5999999996275, 'positionName': 'RIGHT', 'positionCoords': [998.4, 334.5], 'bid': 0.19}]",91438.09999999963,1669831181718,baked potato,rigatoni,9.47,0.19,-9.280000000000001,baked potato,1054.2999999998137,1054,1054.9000000003725,True,u,93005.89999999944,1567.7999999998137,1669831183285,1567,HRV,HRV_0129,2022-11-30 18:03:18
53,"[{'imgObject': {}, 'id': 'lox', 'src': '/static/foodstim60/lox.jpg', 'key': 'u', 'origWidth': 410, 'origHeight': 411, 'width': 410, 'height': 411, 'widthPercent': 0.45, 'rescaleHeight': False, 'trialN': 53, 'loaded': True, 'loadedTime': 2283.7999999998137, 'positionName': 'LEFT', 'positionCoords': [511.6, 334.5], 'bid': 0.16}, {'imgObject': {}, 'id': 'blueberries', 'src': '/static/foodstim60/blueberries.jpg', 'key': 'i', 'origWidth': 411, 'origHeight': 411, 'width': 411, 'height': 411, 'widthPercent': 0.45, 'rescaleHeight': False, 'trialN': 53, 'loaded': True, 'loadedTime': 2783.5999999996275, 'positionName': 'RIGHT', 'positionCoords': [998.4, 334.5], 'bid': 0.16}]",93006.09999999963,1669831183286,lox,blueberries,0.16,0.16,0.0,lox,1878.2999999998137,1879,1879.0,True,u,95404.5,2398.4000000003725,1669831185684,2398,HRV,HRV_0129,2022-11-30 18:03:18
54,"[{'imgObject': {}, 'id': 'mac & cheese', 'src': '/static/foodstim60/mac & cheese.jpg', 'key': 'u', 'origWidth': 410, 'origHeight': 410, 'width': 410, 'height': 410, 'widthPercent': 0.45, 'rescaleHeight': False, 'trialN': 54, 'loaded': True, 'loadedTime': 2337.2999999998137, 'positionName': 'LEFT', 'positionCoords': [511.6, 335], 'bid': 9.89}, {'imgObject': {}, 'id': 'fruitsalad', 'src': '/static/foodstim60/fruitsalad.jpg', 'key': 'i', 'origWidth': 410, 'origHeight': 410, 'width': 410, 'height': 410, 'widthPercent': 0.45, 'rescaleHeight': False, 'trialN': 54, 'loaded': True, 'loadedTime': 2993.899999999441, 'positionName': 'RIGHT', 'positionCoords': [998.4, 335], 'bid': 4.98}]",95404.89999999944,1669831185684,mac & cheese,fruitsalad,9.89,4.98,-4.91,mac & cheese,839.3000000007451,840,839.9000000003725,True,u,96754.0,1349.1000000005588,1669831187033,1349,HRV,HRV_0129,2022-11-30 18:03:18
55,"[{'imgObject': {}, 'id': 'chickenfingers', 'src': '/static/foodstim60/chickenfingers.jpg', 'key': 'u', 'origWidth': 410, 'origHeight': 410, 'width': 410, 'height': 410, 'widthPercent': 0.45, 'rescaleHeight': False, 'trialN': 55, 'loaded': True, 'loadedTime': 3382.7999999998137, 'positionName': 'LEFT', 'positionCoords': [511.6, 335], 'bid': 9.87}, {'imgObject': {}, 'id': 'omelette', 'src': '/static/foodstim60/omelette.jpg', 'key': 'i', 'origWidth': 410, 'origHeight': 409, 'width': 410, 'height': 409, 'widthPercent': 0.45, 'rescaleHeight': False, 'trialN': 55, 'loaded': True, 'loadedTime': 2708.2999999998137, 'positionName': 'RIGHT', 'positionCoords': [998.4, 335.5], 'bid': 9.46}]",96754.39999999944,1669831187034,chickenfingers,omelette,9.87,9.46,-0.40999999999999837,chickenfingers,793.4000000003725,794,794.0,True,u,98069.39999999944,1315.0,1669831188349,1315,HRV,HRV_0129,2022-11-30 18:03:18
56,"[{'imgObject': {}, 'id': 'cherry tomato', 'src': '/static/foodstim60/cherry tomato.jpg', 'key': 'u', 'origWidth': 410, 'origHeight': 410, 'width': 410, 'height': 410, 'widthPercent': 0.45, 'rescaleHeight': False, 'trialN': 56, 'loaded': True, 'loadedTime': 2592.5999999996275, 'positionName': 'LEFT', 'positionCoords': [511.6, 335], 'bid': 0.22}, {'imgObject': {}, 'id': 'strawberries', 'src': '/static/foodstim60/strawberries.jpg', 'key': 'i', 'origWidth': 410, 'origHeight': 410, 'width': 410, 'height': 410, 'widthPercent': 0.45, 'rescaleHeight': False, 'trialN': 56, 'loaded': True, 'loadedTime': 2811.5999999996275, 'positionName': 'RIGHT', 'positionCoords': [998.4, 335], 'bid': 0.2}]",98069.70000000019,1669831188349,cherry tomato,strawberries,0.22,0.2,-0.01999999999999999,strawberries,1094.699999999255,1096,1095.3999999994412,True,i,99671.5,1601.7999999998137,1669831189951,1602,HRV,HRV_0129,2022-11-30 18:03:18
57,"[{'imgObject': {}, 'id': 'olives', 'src': '/static/foodstim60/olives.jpg', 'key': 'u', 'origWidth': 410, 'origHeight': 410, 'width': 410, 'height': 410, 'widthPercent': 0.45, 'rescaleHeight': False, 'trialN': 57, 'loaded': True, 'loadedTime': 2939.399999999441, 'positionName': 'LEFT', 'positionCoords': [511.6, 335], 'bid': 4.97}, {'imgObject': {}, 'id': 'bagel plain', 'src': '/static/foodstim60/bagel plain.jpg', 'key': 'i', 'origWidth': 410, 'origHeight': 410, 'width': 410, 'height': 410, 'widthPercent': 0.45, 'rescaleHeight': False, 'trialN': 57, 'loaded': True, 'loadedTime': 3116, 'positionName': 'RIGHT', 'positionCoords': [998.4, 335], 'bid': 9.86}]",99671.89999999944,1669831189951,olives,bagel plain,4.97,9.86,4.89,olives,804.4000000003725,805,805.1000000005588,True,u,100988.89999999944,1317.0,1669831191268,1317,HRV,HRV_0129,2022-11-30 18:03:18
58,"[{'imgObject': {}, 'id': 'raspberries', 'src': '/static/foodstim60/raspberries.jpg', 'key': 'u', 'origWidth': 411, 'origHeight': 411, 'width': 411, 'height': 411, 'widthPercent': 0.45, 'rescaleHeight': False, 'trialN': 58, 'loaded': True, 'loadedTime': 3336.2999999998137, 'positionName': 'LEFT', 'positionCoords': [510.6, 334.5], 'bid': 0.29}, {'imgObject': {}, 'id': 'cocktailshrimp', 'src': '/static/foodstim60/cocktailshrimp.jpg', 'key': 'i', 'origWidth': 410, 'origHeight': 410, 'width': 410, 'height': 410, 'widthPercent': 0.45, 'rescaleHeight': False, 'trialN': 58, 'loaded': True, 'loadedTime': 3296.2000000001863, 'positionName': 'RIGHT', 'positionCoords': [998.4, 335], 'bid': 9.78}]",100989.29999999981,1669831191268,raspberries,cocktailshrimp,0.29,9.78,9.49,cocktailshrimp,1198.2999999998137,1199,1198.5999999996275,True,i,102706.09999999963,1716.7999999998137,1669831192985,1717,HRV,HRV_0129,2022-11-30 18:03:18
59,"[{'imgObject': {}, 'id': 'mashed potato', 'src': '/static/foodstim60/mashed potato.jpg', 'key': 'u', 'origWidth': 409, 'origHeight': 409, 'width': 409, 'height': 409, 'widthPercent': 0.45, 'rescaleHeight': False, 'trialN': 59, 'loaded': True, 'loadedTime': 3013.5, 'positionName': 'LEFT', 'positionCoords': [512.6, 335.5], 'bid': 4.94}, {'imgObject': {}, 'id': 'orange slices', 'src': '/static/foodstim60/orange slices.jpg', 'key': 'i', 'origWidth': 409, 'origHeight': 410, 'width': 409, 'height': 410, 'widthPercent': 0.45, 'rescaleHeight': False, 'trialN': 59, 'loaded': True, 'loadedTime': 3235.7000000001863, 'positionName': 'RIGHT', 'positionCoords': [998.4, 335], 'bid': 7.77}]",102706.59999999963,1669831192986,mashed potato,orange slices,4.94,7.77,2.829999999999999,mashed potato,1113.7000000001863,1114,1114.2000000001863,True,u,104337.0,1630.4000000003725,1669831194616,1630,HRV,HRV_0129,2022-11-30 18:03:18
60,"[{'imgObject': {}, 'id': 'bagel plain', 'src': '/static/foodstim60/bagel plain.jpg', 'key': 'u', 'origWidth': 410, 'origHeight': 410, 'width': 410, 'height': 410, 'widthPercent': 0.45, 'rescaleHeight': False, 'trialN': 60, 'loaded': True, 'loadedTime': 3084.5, 'positionName': 'LEFT', 'positionCoords': [511.6, 335], 'bid': 9.86}, {'imgObject': {}, 'id': 'grilled chicken strips', 'src': '/static/foodstim60/grilled chicken strips.jpg', 'key': 'i', 'origWidth': 410, 'origHeight': 411, 'width': 410, 'height': 411, 'widthPercent': 0.45, 'rescaleHeight': False, 'trialN': 60, 'loaded': True, 'loadedTime': 3259, 'positionName': 'RIGHT', 'positionCoords': [998.4, 334.5], 'bid': 9.12}]",104337.39999999944,1669831194616,bagel plain,grilled chicken strips,9.86,9.12,-0.7400000000000002,grilled chicken strips,1162.9000000003725,1164,1163.4000000003725,True,i,106022.20000000019,1684.800000000745,1669831196301,1685,HRV,HRV_0129,2022-11-30 18:03:18
61,"[{'imgObject': {}, 'id': 'eggs', 'src': '/static/foodstim60/eggs.jpg', 'key': 'u', 'origWidth': 409, 'origHeight': 409, 'width': 409, 'height': 409, 'widthPercent': 0.45, 'rescaleHeight': False, 'trialN': 61, 'loaded': True, 'loadedTime': 3176.5999999996275, 'positionName': 'LEFT', 'positionCoords': [512.6, 335.5], 'bid': 9.84}, {'imgObject': {}, 'id': 'turkey sandwich', 'src': '/static/foodstim60/turkey sandwich.jpg', 'key': 'i', 'origWidth': 409, 'origHeight': 409, 'width': 409, 'height': 409, 'widthPercent': 0.45, 'rescaleHeight': False, 'trialN': 61, 'loaded': True, 'loadedTime': 3383.0999999996275, 'positionName': 'RIGHT', 'positionCoords': [998.4, 335.5], 'bid': 9.77}]",106022.59999999963,1669831196302,eggs,turkey sandwich,9.84,9.77,-0.07000000000000028,turkey sandwich,1389.6000000005588,1390,1389.9000000003725,True,i,107921.09999999963,1898.5,1669831198200,1898,HRV,HRV_0129,2022-11-30 18:03:18
62,"[{'imgObject': {}, 'id': 'rigatoni and sauce', 'src': '/static/foodstim60/rigatoni and sauce.jpg', 'key': 'u', 'origWidth': 410, 'origHeight': 411, 'width': 410, 'height': 411, 'widthPercent': 0.45, 'rescaleHeight': False, 'trialN': 62, 'loaded': True, 'loadedTime': 2815.7999999998137, 'positionName': 'LEFT', 'positionCoords': [511.6, 334.5], 'bid': 0.15}, {'imgObject': {}, 'id': 'hashbrowns', 'src': '/static/foodstim60/hashbrowns.jpg', 'key': 'i', 'origWidth': 411, 'origHeight': 410, 'width': 411, 'height': 410, 'widthPercent': 0.45, 'rescaleHeight': False, 'trialN': 62, 'loaded': True, 'loadedTime': 2430.2000000001863, 'positionName': 'RIGHT', 'positionCoords': [998.4, 335], 'bid': 0.13}]",107921.39999999944,1669831198200,rigatoni and sauce,hashbrowns,0.15,0.13,-0.01999999999999999,hashbrowns,2066.2000000001863,2067,2066.600000000559,True,i,110509.59999999963,2588.2000000001863,1669831200789,2589,HRV,HRV_0129,2022-11-30 18:03:18
63,"[{'imgObject': {}, 'id': 'cocktailshrimp', 'src': '/static/foodstim60/cocktailshrimp.jpg', 'key': 'u', 'origWidth': 410, 'origHeight': 410, 'width': 410, 'height': 410, 'widthPercent': 0.45, 'rescaleHeight': False, 'trialN': 63, 'loaded': True, 'loadedTime': 3294.5999999996275, 'positionName': 'LEFT', 'positionCoords': [511.6, 335], 'bid': 9.78}, {'imgObject': {}, 'id': 'turkeysandwich', 'src': '/static/foodstim60/turkeysandwich.jpg', 'key': 'i', 'origWidth': 409, 'origHeight': 409, 'width': 409, 'height': 409, 'widthPercent': 0.45, 'rescaleHeight': False, 'trialN': 63, 'loaded': True, 'loadedTime': 3386.7000000001863, 'positionName': 'RIGHT', 'positionCoords': [998.4, 335.5], 'bid': 9}]",110510.0,1669831200789,cocktailshrimp,turkeysandwich,9.78,9.0,-0.7799999999999994,turkeysandwich,1182.0,1183,1182.5,True,i,112212.29999999981,1702.2999999998137,1669831202491,1702,HRV,HRV_0129,2022-11-30 18:03:18
64,"[{'imgObject': {}, 'id': 'granola w milk', 'src': '/static/foodstim60/granola w milk.jpg', 'key': 'u', 'origWidth': 410, 'origHeight': 410, 'width': 410, 'height': 410, 'widthPercent': 0.45, 'rescaleHeight': False, 'trialN': 64, 'loaded': True, 'loadedTime': 2914.7000000001863, 'positionName': 'LEFT', 'positionCoords': [511.6, 335], 'bid': 0.17}, {'imgObject': {}, 'id': 'sushi w_condiments', 'src': '/static/foodstim60/sushi w_condiments.jpg', 'key': 'i', 'origWidth': 410, 'origHeight': 410, 'width': 410, 'height': 410, 'widthPercent': 0.45, 'rescaleHeight': False, 'trialN': 64, 'loaded': True, 'loadedTime': 2735.899999999441, 'positionName': 'RIGHT', 'positionCoords': [998.4, 335], 'bid': 0.18}]",112212.59999999963,1669831202492,granola w milk,sushi w_condiments,0.17,0.18,0.009999999999999981,granola w milk,1503.4000000003725,1503,1503.9000000003725,True,u,114227.39999999944,2014.7999999998137,1669831204506,2014,HRV,HRV_0129,2022-11-30 18:03:18
65,"[{'imgObject': {}, 'id': 'raspberries', 'src': '/static/foodstim60/raspberries.jpg', 'key': 'u', 'origWidth': 411, 'origHeight': 411, 'width': 411, 'height': 411, 'widthPercent': 0.45, 'rescaleHeight': False, 'trialN': 65, 'loaded': True, 'loadedTime': 3337.899999999441, 'positionName': 'LEFT', 'positionCoords': [510.6, 334.5], 'bid': 0.29}, {'imgObject': {}, 'id': 'eggsalad', 'src': '/static/foodstim60/eggsalad.jpg', 'key': 'i', 'origWidth': 410, 'origHeight': 409, 'width': 410, 'height': 409, 'widthPercent': 0.45, 'rescaleHeight': False, 'trialN': 65, 'loaded': True, 'loadedTime': 3146.5999999996275, 'positionName': 'RIGHT', 'positionCoords': [998.4, 335.5], 'bid': 0.3}]",114227.89999999944,1669831204507,raspberries,eggsalad,0.29,0.3,0.010000000000000009,eggsalad,887.7000000001863,888,888.1000000005588,True,i,115630.70000000019,1402.800000000745,1669831205910,1403,HRV,HRV_0129,2022-11-30 18:03:18
66,"[{'imgObject': {}, 'id': 'mashed potato', 'src': '/static/foodstim60/mashed potato.jpg', 'key': 'u', 'origWidth': 409, 'origHeight': 409, 'width': 409, 'height': 409, 'widthPercent': 0.45, 'rescaleHeight': False, 'trialN': 66, 'loaded': True, 'loadedTime': 3013.399999999441, 'positionName': 'LEFT', 'positionCoords': [512.6, 335.5], 'bid': 4.94}, {'imgObject': {}, 'id': 'salmon', 'src': '/static/foodstim60/salmon.jpg', 'key': 'i', 'origWidth': 410, 'origHeight': 409, 'width': 410, 'height': 409, 'widthPercent': 0.45, 'rescaleHeight': False, 'trialN': 66, 'loaded': True, 'loadedTime': 2365.2999999998137, 'positionName': 'RIGHT', 'positionCoords': [998.4, 335.5], 'bid': 0.16}]",115631.0,1669831205910,mashed potato,salmon,4.94,0.16,-4.78,mashed potato,1101.2000000001863,1102,1101.7999999998137,True,u,117240.59999999963,1609.5999999996275,1669831207520,1610,HRV,HRV_0129,2022-11-30 18:03:18
67,"[{'imgObject': {}, 'id': 'bagel plain', 'src': '/static/foodstim60/bagel plain.jpg', 'key': 'u', 'origWidth': 410, 'origHeight': 410, 'width': 410, 'height': 410, 'widthPercent': 0.45, 'rescaleHeight': False, 'trialN': 67, 'loaded': True, 'loadedTime': 3086, 'positionName': 'LEFT', 'positionCoords': [511.6, 335], 'bid': 9.86}, {'imgObject': {}, 'id': 'steak', 'src': '/static/foodstim60/steak.jpg', 'key': 'i', 'origWidth': 410, 'origHeight': 410, 'width': 410, 'height': 410, 'widthPercent': 0.45, 'rescaleHeight': False, 'trialN': 67, 'loaded': True, 'loadedTime': 3388.399999999441, 'positionName': 'RIGHT', 'positionCoords': [998.4, 335], 'bid': 9.85}]",117241.09999999963,1669831207520,bagel plain,steak,9.86,9.85,-0.009999999999999787,steak,747.1000000005588,748,747.6000000005588,True,i,118496.59999999963,1255.5,1669831208776,1256,HRV,HRV_0129,2022-11-30 18:03:18
68,"[{'imgObject': {}, 'id': 'cantaloupe', 'src': '/static/foodstim60/cantaloupe.jpg', 'key': 'u', 'origWidth': 409, 'origHeight': 409, 'width': 409, 'height': 409, 'widthPercent': 0.45, 'rescaleHeight': False, 'trialN': 68, 'loaded': True, 'loadedTime': 2457.0999999996275, 'positionName': 'LEFT', 'positionCoords': [512.6, 335.5], 'bid': 4.98}, {'imgObject': {}, 'id': 'ice cream sundae 002', 'src': '/static/foodstim60/ice cream sundae 002.jpg', 'key': 'i', 'origWidth': 409, 'origHeight': 409, 'width': 409, 'height': 409, 'widthPercent': 0.45, 'rescaleHeight': False, 'trialN': 68, 'loaded': True, 'loadedTime': 3420.399999999441, 'positionName': 'RIGHT', 'positionCoords': [998.4, 335.5], 'bid': 8.25}]",118497.09999999963,1669831208776,cantaloupe,ice cream sundae 002,4.98,8.25,3.2699999999999996,ice cream sundae 002,954.6000000005588,955,955.2000000001863,True,i,119971.79999999981,1474.7000000001863,1669831210251,1475,HRV,HRV_0129,2022-11-30 18:03:18
69,"[{'imgObject': {}, 'id': 'blackbeanswithrice', 'src': '/static/foodstim60/blackbeanswithrice.jpg', 'key': 'u', 'origWidth': 410, 'origHeight': 410, 'width': 410, 'height': 410, 'widthPercent': 0.45, 'rescaleHeight': False, 'trialN': 69, 'loaded': True, 'loadedTime': 3232.7999999998137, 'positionName': 'LEFT', 'positionCoords': [511.6, 335], 'bid': 0.2}, {'imgObject': {}, 'id': 'froot loops w milk', 'src': '/static/foodstim60/froot loops w milk.jpg', 'key': 'i', 'origWidth': 410, 'origHeight': 410, 'width': 410, 'height': 410, 'widthPercent': 0.45, 'rescaleHeight': False, 'trialN': 69, 'loaded': True, 'loadedTime': 2419.899999999441, 'positionName': 'RIGHT', 'positionCoords': [998.4, 335], 'bid': 0.13}]",119972.20000000019,1669831210251,blackbeanswithrice,froot loops w milk,0.2,0.13,-0.07,froot loops w milk,839.3999999994412,840,839.8999999994412,True,i,121321.70000000019,1349.5,1669831211601,1350,HRV,HRV_0129,2022-11-30 18:03:18
70,"[{'imgObject': {}, 'id': 'chicken nuggets2', 'src': '/static/foodstim60/chicken nuggets2.jpg', 'key': 'u', 'origWidth': 410, 'origHeight': 409, 'width': 410, 'height': 409, 'widthPercent': 0.45, 'rescaleHeight': False, 'trialN': 70, 'loaded': True, 'loadedTime': 3293.7000000001863, 'positionName': 'LEFT', 'positionCoords': [511.6, 335.5], 'bid': 9.75}, {'imgObject': {}, 'id': 'raisin bran w milk', 'src': '/static/foodstim60/raisin bran w milk.jpg', 'key': 'i', 'origWidth': 411, 'origHeight': 411, 'width': 411, 'height': 411, 'widthPercent': 0.45, 'rescaleHeight': False, 'trialN': 70, 'loaded': True, 'loadedTime': 2864.2000000001863, 'positionName': 'RIGHT', 'positionCoords': [998.4, 334.5], 'bid': 0.22}]",121322.09999999963,1669831211601,chicken nuggets2,raisin bran w milk,9.75,0.22,-9.53,chicken nuggets2,1073.6000000005588,1074,1073.9000000003725,True,u,122911.29999999981,1589.2000000001863,1669831213190,1589,HRV,HRV_0129,2022-11-30 18:03:18
71,"[{'imgObject': {}, 'id': 'chickenfingers', 'src': '/static/foodstim60/chickenfingers.jpg', 'key': 'u', 'origWidth': 410, 'origHeight': 410, 'width': 410, 'height': 410, 'widthPercent': 0.45, 'rescaleHeight': False, 'trialN': 71, 'loaded': True, 'loadedTime': 3382.5, 'positionName': 'LEFT', 'positionCoords': [511.6, 335], 'bid': 9.87}, {'imgObject': {}, 'id': 'steak', 'src': '/static/foodstim60/steak.jpg', 'key': 'i', 'origWidth': 410, 'origHeight': 410, 'width': 410, 'height': 410, 'widthPercent': 0.45, 'rescaleHeight': False, 'trialN': 71, 'loaded': True, 'loadedTime': 3388.2000000001863, 'positionName': 'RIGHT', 'positionCoords': [998.4, 335], 'bid': 9.85}]",122911.59999999963,1669831213191,chickenfingers,steak,9.87,9.85,-0.019999999999999574,chickenfingers,1004.7999999998137,1005,1005.2999999998137,True,u,124429.20000000019,1517.6000000005588,1669831214708,1517,HRV,HRV_0129,2022-11-30 18:03:18
72,"[{'imgObject': {}, 'id': 'froot loops w milk', 'src': '/static/foodstim60/froot loops w milk.jpg', 'key': 'u', 'origWidth': 410, 'origHeight': 410, 'width': 410, 'height': 410, 'widthPercent': 0.45, 'rescaleHeight': False, 'trialN': 72, 'loaded': True, 'loadedTime': 2422.2999999998137, 'positionName': 'LEFT', 'positionCoords': [511.6, 335], 'bid': 0.13}, {'imgObject': {}, 'id': 'seaweed', 'src': '/static/foodstim60/seaweed.jpg', 'key': 'i', 'origWidth': 410, 'origHeight': 410, 'width': 410, 'height': 410, 'widthPercent': 0.45, 'rescaleHeight': False, 'trialN': 72, 'loaded': True, 'loadedTime': 2912.2999999998137, 'positionName': 'RIGHT', 'positionCoords': [998.4, 335], 'bid': 0.15}]",124429.59999999963,1669831214709,froot loops w milk,seaweed,0.13,0.15,0.01999999999999999,froot loops w milk,1150.5,1151,1151.1000000005588,True,u,126087.70000000019,1658.1000000005588,1669831216367,1658,HRV,HRV_0129,2022-11-30 18:03:18
73,"[{'imgObject': {}, 'id': 'salad w chicken', 'src': '/static/foodstim60/salad w chicken.jpg', 'key': 'u', 'origWidth': 411, 'origHeight': 411, 'width': 411, 'height': 411, 'widthPercent': 0.45, 'rescaleHeight': False, 'trialN': 73, 'loaded': True, 'loadedTime': 3422.0999999996275, 'positionName': 'LEFT', 'positionCoords': [510.6, 334.5], 'bid': 9.04}, {'imgObject': {}, 'id': 'steak', 'src': '/static/foodstim60/steak.jpg', 'key': 'i', 'origWidth': 410, 'origHeight': 410, 'width': 410, 'height': 410, 'widthPercent': 0.45, 'rescaleHeight': False, 'trialN': 73, 'loaded': True, 'loadedTime': 3388.5, 'positionName': 'RIGHT', 'positionCoords': [998.4, 335], 'bid': 9.85}]",126087.89999999944,1669831216367,salad w chicken,steak,9.04,9.85,0.8100000000000005,steak,652.3000000007451,653,652.9000000003725,True,i,127251.59999999963,1163.7000000001863,1669831217531,1164,HRV,HRV_0129,2022-11-30 18:03:18
74,"[{'imgObject': {}, 'id': 'apple slices', 'src': '/static/foodstim60/apple slices.jpg', 'key': 'u', 'origWidth': 409, 'origHeight': 410, 'width': 409, 'height': 410, 'widthPercent': 0.45, 'rescaleHeight': False, 'trialN': 74, 'loaded': True, 'loadedTime': 3348.899999999441, 'positionName': 'LEFT', 'positionCoords': [512.6, 335], 'bid': 4.94}, {'imgObject': {}, 'id': 'popsicles', 'src': '/static/foodstim60/popsicles.jpg', 'key': 'i', 'origWidth': 410, 'origHeight': 410, 'width': 410, 'height': 410, 'widthPercent': 0.45, 'rescaleHeight': False, 'trialN': 74, 'loaded': True, 'loadedTime': 3150.7999999998137, 'positionName': 'RIGHT', 'positionCoords': [998.4, 335], 'bid': 5.04}]",127252.09999999963,1669831217531,apple slices,popsicles,4.94,5.04,0.09999999999999964,apple slices,1393.1000000005588,1394,1393.5,True,u,129154.79999999981,1902.7000000001863,1669831219434,1903,HRV,HRV_0129,2022-11-30 18:03:18
75,"[{'imgObject': {}, 'id': 'hashbrowns', 'src': '/static/foodstim60/hashbrowns.jpg', 'key': 'u', 'origWidth': 411, 'origHeight': 410, 'width': 411, 'height': 410, 'widthPercent': 0.45, 'rescaleHeight': False, 'trialN': 75, 'loaded': True, 'loadedTime': 2430, 'positionName': 'LEFT', 'positionCoords': [510.6, 335], 'bid': 0.13}, {'imgObject': {}, 'id': 'salmon', 'src': '/static/foodstim60/salmon.jpg', 'key': 'i', 'origWidth': 410, 'origHeight': 409, 'width': 410, 'height': 409, 'widthPercent': 0.45, 'rescaleHeight': False, 'trialN': 75, 'loaded': True, 'loadedTime': 2396.7000000001863, 'positionName': 'RIGHT', 'positionCoords': [998.4, 335.5], 'bid': 0.16}]",129155.29999999981,1669831219434,hashbrowns,salmon,0.13,0.16,0.03,hashbrowns,1193.0999999996275,1194,1193.5999999996275,True,u,130855.0,1699.7000000001863,1669831221134,1700,HRV,HRV_0129,2022-11-30 18:03:18
76,"[{'imgObject': {}, 'id': 'hotdog w must', 'src': '/static/foodstim60/hotdog w must.jpg', 'key': 'u', 'origWidth': 409, 'origHeight': 409, 'width': 409, 'height': 409, 'widthPercent': 0.45, 'rescaleHeight': False, 'trialN': 76, 'loaded': True, 'loadedTime': 2355.2000000001863, 'positionName': 'LEFT', 'positionCoords': [512.6, 335.5], 'bid': 8.98}, {'imgObject': {}, 'id': 'burger', 'src': '/static/foodstim60/burger.jpg', 'key': 'i', 'origWidth': 409, 'origHeight': 409, 'width': 409, 'height': 409, 'widthPercent': 0.45, 'rescaleHeight': False, 'trialN': 76, 'loaded': True, 'loadedTime': 3032.7999999998137, 'positionName': 'RIGHT', 'positionCoords': [998.4, 335.5], 'bid': 9.83}]",130855.39999999944,1669831221134,hotdog w must,burger,8.98,9.83,0.8499999999999996,burger,1212.300000000745,1213,1212.6000000005588,True,i,132602.39999999944,1747.0,1669831222881,1747,HRV,HRV_0129,2022-11-30 18:03:18
77,"[{'imgObject': {}, 'id': 'tacos', 'src': '/static/foodstim60/tacos.jpg', 'key': 'u', 'origWidth': 411, 'origHeight': 411, 'width': 411, 'height': 411, 'widthPercent': 0.45, 'rescaleHeight': False, 'trialN': 77, 'loaded': True, 'loadedTime': 3314.0999999996275, 'positionName': 'LEFT', 'positionCoords': [510.6, 334.5], 'bid': 9.64}, {'imgObject': {}, 'id': 'turkeysandwich', 'src': '/static/foodstim60/turkeysandwich.jpg', 'key': 'i', 'origWidth': 409, 'origHeight': 409, 'width': 409, 'height': 409, 'widthPercent': 0.45, 'rescaleHeight': False, 'trialN': 77, 'loaded': True, 'loadedTime': 3386.899999999441, 'positionName': 'RIGHT', 'positionCoords': [998.4, 335.5], 'bid': 9}]",132602.7000000002,1669831222882,tacos,turkeysandwich,9.64,9.0,-0.6400000000000006,turkeysandwich,840.7999999998137,841,841.3999999994412,True,i,133960.0,1357.2999999998137,1669831224239,1357,HRV,HRV_0129,2022-11-30 18:03:18
78,"[{'imgObject': {}, 'id': 'avocado', 'src': '/static/foodstim60/avocado.jpg', 'key': 'u', 'origWidth': 409, 'origHeight': 409, 'width': 409, 'height': 409, 'widthPercent': 0.45, 'rescaleHeight': False, 'trialN': 78, 'loaded': True, 'loadedTime': 2519.7999999998137, 'positionName': 'LEFT', 'positionCoords': [512.6, 335.5], 'bid': 0.06}, {'imgObject': {}, 'id': 'blackbeanswithrice', 'src': '/static/foodstim60/blackbeanswithrice.jpg', 'key': 'i', 'origWidth': 410, 'origHeight': 410, 'width': 410, 'height': 410, 'widthPercent': 0.45, 'rescaleHeight': False, 'trialN': 78, 'loaded': True, 'loadedTime': 3234.399999999441, 'positionName': 'RIGHT', 'positionCoords': [998.4, 335], 'bid': 0.2}]",133960.39999999944,1669831224239,avocado,blackbeanswithrice,0.06,0.2,0.14,avocado,780.0,781,780.6000000005588,True,u,135259.7000000002,1299.300000000745,1669831225539,1300,HRV,HRV_0129,2022-11-30 18:03:18
79,"[{'imgObject': {}, 'id': 'luckycharms', 'src': '/static/foodstim60/luckycharms.jpg', 'key': 'u', 'origWidth': 410, 'origHeight': 409, 'width': 410, 'height': 409, 'widthPercent': 0.45, 'rescaleHeight': False, 'trialN': 79, 'loaded': True, 'loadedTime': 2986.7000000001863, 'positionName': 'LEFT', 'positionCoords': [511.6, 335.5], 'bid': 5.05}, {'imgObject': {}, 'id': 'roastedpotatoes', 'src': '/static/foodstim60/roastedpotatoes.jpg', 'key': 'i', 'origWidth': 409, 'origHeight': 410, 'width': 409, 'height': 410, 'widthPercent': 0.45, 'rescaleHeight': False, 'trialN': 79, 'loaded': True, 'loadedTime': 3062.5999999996275, 'positionName': 'RIGHT', 'positionCoords': [998.4, 335], 'bid': 9.75}]",135260.0,1669831225539,luckycharms,roastedpotatoes,5.05,9.75,4.7,luckycharms,720.0,720,720.5,True,u,136499.39999999944,1239.3999999994412,1669831226778,1239,HRV,HRV_0129,2022-11-30 18:03:18
80,"[{'imgObject': {}, 'id': 'steak', 'src': '/static/foodstim60/steak.jpg', 'key': 'u', 'origWidth': 410, 'origHeight': 410, 'width': 410, 'height': 410, 'widthPercent': 0.45, 'rescaleHeight': False, 'trialN': 80, 'loaded': True, 'loadedTime': 3387, 'positionName': 'LEFT', 'positionCoords': [511.6, 335], 'bid': 9.85}, {'imgObject': {}, 'id': 'tacos', 'src': '/static/foodstim60/tacos.jpg', 'key': 'i', 'origWidth': 411, 'origHeight': 411, 'width': 411, 'height': 411, 'widthPercent': 0.45, 'rescaleHeight': False, 'trialN': 80, 'loaded': True, 'loadedTime': 3316.899999999441, 'positionName': 'RIGHT', 'positionCoords': [998.4, 334.5], 'bid': 9.64}]",136499.7999999998,1669831226779,steak,tacos,9.85,9.64,-0.20999999999999908,steak,960.0,961,960.7999999998137,True,u,137974.5,1474.7000000001863,1669831228253,1474,HRV,HRV_0129,2022-11-30 18:03:18
81,"[{'imgObject': {}, 'id': 'cheerios', 'src': '/static/foodstim60/cheerios.jpg', 'key': 'u', 'origWidth': 409, 'origHeight': 410, 'width': 409, 'height': 410, 'widthPercent': 0.45, 'rescaleHeight': False, 'trialN': 81, 'loaded': True, 'loadedTime': 2628.399999999441, 'positionName': 'LEFT', 'positionCoords': [512.6, 335], 'bid': 0.34}, {'imgObject': {}, 'id': 'corn cob', 'src': '/static/foodstim60/corn cob.jpg', 'key': 'i', 'origWidth': 411, 'origHeight': 411, 'width': 411, 'height': 411, 'widthPercent': 0.45, 'rescaleHeight': False, 'trialN': 81, 'loaded': True, 'loadedTime': 3024.2999999998137, 'positionName': 'RIGHT', 'positionCoords': [998.4, 334.5], 'bid': 9.81}]",137974.7999999998,1669831228254,cheerios,corn cob,0.34,9.81,9.47,corn cob,894.0,894,894.5999999996275,True,i,139379.59999999963,1404.7999999998137,1669831229659,1405,HRV,HRV_0129,2022-11-30 18:03:18
82,"[{'imgObject': {}, 'id': 'rigatoni and sauce', 'src': '/static/foodstim60/rigatoni and sauce.jpg', 'key': 'u', 'origWidth': 410, 'origHeight': 411, 'width': 410, 'height': 411, 'widthPercent': 0.45, 'rescaleHeight': False, 'trialN': 82, 'loaded': True, 'loadedTime': 2838.2999999998137, 'positionName': 'LEFT', 'positionCoords': [511.6, 334.5], 'bid': 0.15}, {'imgObject': {}, 'id': 'seaweed', 'src': '/static/foodstim60/seaweed.jpg', 'key': 'i', 'origWidth': 410, 'origHeight': 410, 'width': 410, 'height': 410, 'widthPercent': 0.45, 'rescaleHeight': False, 'trialN': 82, 'loaded': True, 'loadedTime': 2912.5, 'positionName': 'RIGHT', 'positionCoords': [998.4, 335], 'bid': 0.15}]",139379.89999999944,1669831229659,rigatoni and sauce,seaweed,0.15,0.15,0.0,seaweed,1200.0,1200,1200.5,True,i,141089.59999999963,1709.7000000001863,1669831231369,1710,HRV,HRV_0129,2022-11-30 18:03:18
83,"[{'imgObject': {}, 'id': 'apple slices', 'src': '/static/foodstim60/apple slices.jpg', 'key': 'u', 'origWidth': 409, 'origHeight': 410, 'width': 409, 'height': 410, 'widthPercent': 0.45, 'rescaleHeight': False, 'trialN': 83, 'loaded': True, 'loadedTime': 3349.2999999998137, 'positionName': 'LEFT', 'positionCoords': [512.6, 335], 'bid': 4.94}, {'imgObject': {}, 'id': 'pear', 'src': '/static/foodstim60/pear.jpg', 'key': 'i', 'origWidth': 411, 'origHeight': 410, 'width': 411, 'height': 410, 'widthPercent': 0.45, 'rescaleHeight': False, 'trialN': 83, 'loaded': True, 'loadedTime': 3424.0999999996275, 'positionName': 'RIGHT', 'positionCoords': [998.4, 335], 'bid': 4.93}]",141090.0,1669831231369,apple slices,pear,4.94,4.93,-0.010000000000000675,pear,1361.5,1362,1361.8999999994412,True,i,142969.2999999998,1879.2999999998137,1669831233248,1879,HRV,HRV_0129,2022-11-30 18:03:18
84,"[{'imgObject': {}, 'id': 'olives', 'src': '/static/foodstim60/olives.jpg', 'key': 'u', 'origWidth': 410, 'origHeight': 410, 'width': 410, 'height': 410, 'widthPercent': 0.45, 'rescaleHeight': False, 'trialN': 84, 'loaded': True, 'loadedTime': 2939, 'positionName': 'LEFT', 'positionCoords': [511.6, 335], 'bid': 4.97}, {'imgObject': {}, 'id': 'mashed potato', 'src': '/static/foodstim60/mashed potato.jpg', 'key': 'i', 'origWidth': 409, 'origHeight': 409, 'width': 409, 'height': 409, 'widthPercent': 0.45, 'rescaleHeight': False, 'trialN': 84, 'loaded': True, 'loadedTime': 3013.2000000001863, 'positionName': 'RIGHT', 'positionCoords': [998.4, 335.5], 'bid': 4.94}]",142969.7000000002,1669831233249,olives,mashed potato,4.97,4.94,-0.02999999999999936,olives,850.2999999998137,850,850.7999999998137,True,u,144327.2999999998,1357.5999999996275,1669831234606,1357,HRV,HRV_0129,2022-11-30 18:03:18
85,"[{'imgObject': {}, 'id': 'kiwi', 'src': '/static/foodstim60/kiwi.jpg', 'key': 'u', 'origWidth': 410, 'origHeight': 410, 'width': 410, 'height': 410, 'widthPercent': 0.45, 'rescaleHeight': False, 'trialN': 85, 'loaded': True, 'loadedTime': 3424.2999999998137, 'positionName': 'LEFT', 'positionCoords': [511.6, 335], 'bid': 0.07}, {'imgObject': {}, 'id': 'strawberries', 'src': '/static/foodstim60/strawberries.jpg', 'key': 'i', 'origWidth': 410, 'origHeight': 410, 'width': 410, 'height': 410, 'widthPercent': 0.45, 'rescaleHeight': False, 'trialN': 85, 'loaded': True, 'loadedTime': 2786.2999999998137, 'positionName': 'RIGHT', 'positionCoords': [998.4, 335], 'bid': 0.2}]",144327.7999999998,1669831234607,kiwi,strawberries,0.07,0.2,0.13,strawberries,956.2999999998137,957,956.9000000003725,True,i,145799.59999999963,1471.7999999998137,1669831236078,1471,HRV,HRV_0129,2022-11-30 18:03:18
86,"[{'imgObject': {}, 'id': 'turkeysandwich', 'src': '/static/foodstim60/turkeysandwich.jpg', 'key': 'u', 'origWidth': 409, 'origHeight': 409, 'width': 409, 'height': 409, 'widthPercent': 0.45, 'rescaleHeight': False, 'trialN': 86, 'loaded': True, 'loadedTime': 3386.7999999998137, 'positionName': 'LEFT', 'positionCoords': [512.6, 335.5], 'bid': 9}, {'imgObject': {}, 'id': 'salmon', 'src': '/static/foodstim60/salmon.jpg', 'key': 'i', 'origWidth': 410, 'origHeight': 409, 'width': 410, 'height': 409, 'widthPercent': 0.45, 'rescaleHeight': False, 'trialN': 86, 'loaded': True, 'loadedTime': 2365.5999999996275, 'positionName': 'RIGHT', 'positionCoords': [998.4, 335.5], 'bid': 0.16}]",145799.89999999944,1669831236079,turkeysandwich,salmon,9.0,0.16,-8.84,turkeysandwich,995.9000000003725,996,996.5,True,u,147317.0,1517.1000000005588,1669831237596,1517,HRV,HRV_0129,2022-11-30 18:03:18
87,"[{'imgObject': {}, 'id': 'eggs', 'src': '/static/foodstim60/eggs.jpg', 'key': 'u', 'origWidth': 409, 'origHeight': 409, 'width': 409, 'height': 409, 'widthPercent': 0.45, 'rescaleHeight': False, 'trialN': 87, 'loaded': True, 'loadedTime': 3176.5999999996275, 'positionName': 'LEFT', 'positionCoords': [512.6, 335.5], 'bid': 9.84}, {'imgObject': {}, 'id': 'fried eggs', 'src': '/static/foodstim60/fried eggs.jpg', 'key': 'i', 'origWidth': 410, 'origHeight': 410, 'width': 410, 'height': 410, 'widthPercent': 0.45, 'rescaleHeight': False, 'trialN': 87, 'loaded': True, 'loadedTime': 2347.399999999441, 'positionName': 'RIGHT', 'positionCoords': [998.4, 335], 'bid': 9.83}]",147317.2999999998,1669831237596,eggs,fried eggs,9.84,9.83,-0.009999999999999787,fried eggs,880.7000000001863,882,881.4000000003725,True,i,148705.09999999963,1387.7999999998137,1669831238984,1388,HRV,HRV_0129,2022-11-30 18:03:18
88,"[{'imgObject': {}, 'id': 'popsicles', 'src': '/static/foodstim60/popsicles.jpg', 'key': 'u', 'origWidth': 410, 'origHeight': 410, 'width': 410, 'height': 410, 'widthPercent': 0.45, 'rescaleHeight': False, 'trialN': 88, 'loaded': True, 'loadedTime': 3150.0999999996275, 'positionName': 'LEFT', 'positionCoords': [511.6, 335], 'bid': 5.04}, {'imgObject': {}, 'id': 'chicken nuggets2', 'src': '/static/foodstim60/chicken nuggets2.jpg', 'key': 'i', 'origWidth': 410, 'origHeight': 409, 'width': 410, 'height': 409, 'widthPercent': 0.45, 'rescaleHeight': False, 'trialN': 88, 'loaded': True, 'loadedTime': 3294.2000000001863, 'positionName': 'RIGHT', 'positionCoords': [998.4, 335.5], 'bid': 9.75}]",148705.39999999944,1669831238984,popsicles,chicken nuggets2,5.04,9.75,4.71,chicken nuggets2,922.9000000003725,924,923.5,True,i,150134.5,1429.1000000005588,1669831240414,1430,HRV,HRV_0129,2022-11-30 18:03:18
89,"[{'imgObject': {}, 'id': 'burger', 'src': '/static/foodstim60/burger.jpg', 'key': 'u', 'origWidth': 409, 'origHeight': 409, 'width': 409, 'height': 409, 'widthPercent': 0.45, 'rescaleHeight': False, 'trialN': 89, 'loaded': True, 'loadedTime': 3028.399999999441, 'positionName': 'LEFT', 'positionCoords': [512.6, 335.5], 'bid': 9.83}, {'imgObject': {}, 'id': 'pear', 'src': '/static/foodstim60/pear.jpg', 'key': 'i', 'origWidth': 411, 'origHeight': 410, 'width': 411, 'height': 410, 'widthPercent': 0.45, 'rescaleHeight': False, 'trialN': 89, 'loaded': True, 'loadedTime': 3424.2000000001863, 'positionName': 'RIGHT', 'positionCoords': [998.4, 335], 'bid': 4.93}]",150134.89999999944,1669831240414,burger,pear,9.83,4.93,-4.9,burger,748.6000000005588,749,748.9000000003725,True,u,151405.0,1270.1000000005588,1669831241684,1270,HRV,HRV_0129,2022-11-30 18:03:18
90,"[{'imgObject': {}, 'id': 'banana', 'src': '/static/foodstim60/banana.jpg', 'key': 'u', 'origWidth': 410, 'origHeight': 410, 'width': 410, 'height': 410, 'widthPercent': 0.45, 'rescaleHeight': False, 'trialN': 90, 'loaded': True, 'loadedTime': 3342.2999999998137, 'positionName': 'LEFT', 'positionCoords': [511.6, 335], 'bid': 7.8}, {'imgObject': {}, 'id': 'apple slices', 'src': '/static/foodstim60/apple slices.jpg', 'key': 'i', 'origWidth': 409, 'origHeight': 410, 'width': 409, 'height': 410, 'widthPercent': 0.45, 'rescaleHeight': False, 'trialN': 90, 'loaded': True, 'loadedTime': 3349.2000000001863, 'positionName': 'RIGHT', 'positionCoords': [998.4, 335], 'bid': 4.94}]",165423.2000000002,1669831255703,banana,apple slices,7.8,4.94,-2.8599999999999994,banana,2420.5999999996275,2421,2421.2999999998137,True,u,168355.09999999963,2931.899999999441,1669831258635,2932,HRV,HRV_0129,2022-11-30 18:03:18
91,"[{'imgObject': {}, 'id': 'turkeysandwich', 'src': '/static/foodstim60/turkeysandwich.jpg', 'key': 'u', 'origWidth': 409, 'origHeight': 409, 'width': 409, 'height': 409, 'widthPercent': 0.45, 'rescaleHeight': False, 'trialN': 91, 'loaded': True, 'loadedTime': 3384.7999999998137, 'positionName': 'LEFT', 'positionCoords': [512.6, 335.5], 'bid': 9}, {'imgObject': {}, 'id': 'salad w chicken', 'src': '/static/foodstim60/salad w chicken.jpg', 'key': 'i', 'origWidth': 411, 'origHeight': 411, 'width': 411, 'height': 411, 'widthPercent': 0.45, 'rescaleHeight': False, 'trialN': 91, 'loaded': True, 'loadedTime': 3420.5, 'positionName': 'RIGHT', 'positionCoords': [998.4, 334.5], 'bid': 9.04}]",168355.5,1669831258635,turkeysandwich,salad w chicken,9.0,9.04,0.03999999999999915,turkeysandwich,952.2999999998137,953,952.7999999998137,True,u,169823.39999999944,1467.8999999994412,1669831260103,1468,HRV,HRV_0129,2022-11-30 18:03:18
92,"[{'imgObject': {}, 'id': 'ice cream sundae 002', 'src': '/static/foodstim60/ice cream sundae 002.jpg', 'key': 'u', 'origWidth': 409, 'origHeight': 409, 'width': 409, 'height': 409, 'widthPercent': 0.45, 'rescaleHeight': False, 'trialN': 92, 'loaded': True, 'loadedTime': 3418.2999999998137, 'positionName': 'LEFT', 'positionCoords': [512.6, 335.5], 'bid': 8.25}, {'imgObject': {}, 'id': 'shreddedwheatwithmilk', 'src': '/static/foodstim60/shreddedwheatwithmilk.jpg', 'key': 'i', 'origWidth': 410, 'origHeight': 410, 'width': 410, 'height': 410, 'widthPercent': 0.45, 'rescaleHeight': False, 'trialN': 92, 'loaded': True, 'loadedTime': 2223.0999999996275, 'positionName': 'RIGHT', 'positionCoords': [998.4, 335], 'bid': 0.16}]",169823.7999999998,1669831260103,ice cream sundae 002,shreddedwheatwithmilk,8.25,0.16,-8.09,ice cream sundae 002,708.2000000001863,709,708.7000000001863,True,u,171039.7999999998,1216.0,1669831261319,1216,HRV,HRV_0129,2022-11-30 18:03:18
93,"[{'imgObject': {}, 'id': 'blueberries', 'src': '/static/foodstim60/blueberries.jpg', 'key': 'u', 'origWidth': 411, 'origHeight': 411, 'width': 411, 'height': 411, 'widthPercent': 0.45, 'rescaleHeight': False, 'trialN': 93, 'loaded': True, 'loadedTime': 2761.2000000001863, 'positionName': 'LEFT', 'positionCoords': [510.6, 334.5], 'bid': 0.16}, {'imgObject': {}, 'id': 'kiwi', 'src': '/static/foodstim60/kiwi.jpg', 'key': 'i', 'origWidth': 410, 'origHeight': 410, 'width': 410, 'height': 410, 'widthPercent': 0.45, 'rescaleHeight': False, 'trialN': 93, 'loaded': True, 'loadedTime': 3425.5999999996275, 'positionName': 'RIGHT', 'positionCoords': [998.4, 335], 'bid': 0.07}]",171040.09999999963,1669831261320,blueberries,kiwi,0.16,0.07,-0.09,blueberries,1091.7000000001863,1092,1092.2000000001863,True,u,172650.5,1610.4000000003725,1669831262930,1610,HRV,HRV_0129,2022-11-30 18:03:18
94,"[{'imgObject': {}, 'id': 'turkeysandwich', 'src': '/static/foodstim60/turkeysandwich.jpg', 'key': 'u', 'origWidth': 409, 'origHeight': 409, 'width': 409, 'height': 409, 'widthPercent': 0.45, 'rescaleHeight': False, 'trialN': 94, 'loaded': True, 'loadedTime': 3386.2000000001863, 'positionName': 'LEFT', 'positionCoords': [512.6, 335.5], 'bid': 9}, {'imgObject': {}, 'id': 'eggs', 'src': '/static/foodstim60/eggs.jpg', 'key': 'i', 'origWidth': 409, 'origHeight': 409, 'width': 409, 'height': 409, 'widthPercent': 0.45, 'rescaleHeight': False, 'trialN': 94, 'loaded': True, 'loadedTime': 3177, 'positionName': 'RIGHT', 'positionCoords': [998.4, 335.5], 'bid': 9.84}]",172650.7999999998,1669831262930,turkeysandwich,eggs,9.0,9.84,0.8399999999999999,turkeysandwich,585.5999999996275,586,586.0999999996275,True,u,173757.7000000002,1106.9000000003725,1669831264037,1107,HRV,HRV_0129,2022-11-30 18:03:18
95,"[{'imgObject': {}, 'id': 'apple slices', 'src': '/static/foodstim60/apple slices.jpg', 'key': 'u', 'origWidth': 409, 'origHeight': 410, 'width': 409, 'height': 410, 'widthPercent': 0.45, 'rescaleHeight': False, 'trialN': 95, 'loaded': True, 'loadedTime': 3347.0999999996275, 'positionName': 'LEFT', 'positionCoords': [512.6, 335], 'bid': 4.94}, {'imgObject': {}, 'id': 'steak', 'src': '/static/foodstim60/steak.jpg', 'key': 'i', 'origWidth': 410, 'origHeight': 410, 'width': 410, 'height': 410, 'widthPercent': 0.45, 'rescaleHeight': False, 'trialN': 95, 'loaded': True, 'loadedTime': 3415.2999999998137, 'positionName': 'RIGHT', 'positionCoords': [998.4, 335], 'bid': 9.85}]",173758.2999999998,1669831264038,apple slices,steak,4.94,9.85,4.909999999999999,steak,637.7999999998137,638,638.2000000001863,True,i,174909.09999999963,1150.7999999998137,1669831265189,1151,HRV,HRV_0129,2022-11-30 18:03:18
96,"[{'imgObject': {}, 'id': 'yogurt no spoon', 'src': '/static/foodstim60/yogurt no spoon.jpg', 'key': 'u', 'origWidth': 411, 'origHeight': 410, 'width': 411, 'height': 410, 'widthPercent': 0.45, 'rescaleHeight': False, 'trialN': 96, 'loaded': True, 'loadedTime': 3380.7000000001863, 'positionName': 'LEFT', 'positionCoords': [510.6, 335], 'bid': 5.0200000000000005}, {'imgObject': {}, 'id': 'edamame', 'src': '/static/foodstim60/edamame.jpg', 'key': 'i', 'origWidth': 409, 'origHeight': 410, 'width': 409, 'height': 410, 'widthPercent': 0.45, 'rescaleHeight': False, 'trialN': 96, 'loaded': True, 'loadedTime': 3002.0999999996275, 'positionName': 'RIGHT', 'positionCoords': [998.4, 335], 'bid': 5.04}]",174909.5,1669831265189,yogurt no spoon,edamame,5.0200000000000005,5.04,0.019999999999999574,edamame,751.3999999994412,752,751.7999999998137,True,i,176167.89999999944,1258.3999999994412,1669831266447,1258,HRV,HRV_0129,2022-11-30 18:03:18
97,"[{'imgObject': {}, 'id': 'burger', 'src': '/static/foodstim60/burger.jpg', 'key': 'u', 'origWidth': 409, 'origHeight': 409, 'width': 409, 'height': 409, 'widthPercent': 0.45, 'rescaleHeight': False, 'trialN': 97, 'loaded': True, 'loadedTime': 3027.7000000001863, 'positionName': 'LEFT', 'positionCoords': [512.6, 335.5], 'bid': 9.83}, {'imgObject': {}, 'id': 'baked potato', 'src': '/static/foodstim60/baked potato.jpg', 'key': 'i', 'origWidth': 409, 'origHeight': 410, 'width': 409, 'height': 410, 'widthPercent': 0.45, 'rescaleHeight': False, 'trialN': 97, 'loaded': True, 'loadedTime': 3033, 'positionName': 'RIGHT', 'positionCoords': [998.4, 335], 'bid': 9.47}]",176168.2999999998,1669831266448,burger,baked potato,9.83,9.47,-0.35999999999999943,baked potato,804.2000000001863,805,804.7000000001863,True,i,177490.2000000002,1321.9000000003725,1669831267770,1322,HRV,HRV_0129,2022-11-30 18:03:18
98,"[{'imgObject': {}, 'id': 'grilled chicken strips', 'src': '/static/foodstim60/grilled chicken strips.jpg', 'key': 'u', 'origWidth': 410, 'origHeight': 411, 'width': 410, 'height': 411, 'widthPercent': 0.45, 'rescaleHeight': False, 'trialN': 98, 'loaded': True, 'loadedTime': 3237.5999999996275, 'positionName': 'LEFT', 'positionCoords': [511.6, 334.5], 'bid': 9.12}, {'imgObject': {}, 'id': 'banana', 'src': '/static/foodstim60/banana.jpg', 'key': 'i', 'origWidth': 410, 'origHeight': 410, 'width': 410, 'height': 410, 'widthPercent': 0.45, 'rescaleHeight': False, 'trialN': 98, 'loaded': True, 'loadedTime': 3341.7999999998137, 'positionName': 'RIGHT', 'positionCoords': [998.4, 335], 'bid': 7.8}]",177490.39999999944,1669831267770,grilled chicken strips,banana,9.12,7.8,-1.3199999999999994,grilled chicken strips,905.9000000003725,906,906.5,True,u,178915.59999999963,1425.2000000001863,1669831269195,1425,HRV,HRV_0129,2022-11-30 18:03:18
99,"[{'imgObject': {}, 'id': 'mashed potato', 'src': '/static/foodstim60/mashed potato.jpg', 'key': 'u', 'origWidth': 409, 'origHeight': 409, 'width': 409, 'height': 409, 'widthPercent': 0.45, 'rescaleHeight': False, 'trialN': 99, 'loaded': True, 'loadedTime': 3010.5, 'positionName': 'LEFT', 'positionCoords': [512.6, 335.5], 'bid': 4.94}, {'imgObject': {}, 'id': 'eggs', 'src': '/static/foodstim60/eggs.jpg', 'key': 'i', 'origWidth': 409, 'origHeight': 409, 'width': 409, 'height': 409, 'widthPercent': 0.45, 'rescaleHeight': False, 'trialN': 99, 'loaded': True, 'loadedTime': 3175.2999999998137, 'positionName': 'RIGHT', 'positionCoords': [998.4, 335.5], 'bid': 9.84}]",178916.2000000002,1669831269196,mashed potato,eggs,4.94,9.84,4.8999999999999995,mashed potato,808.0999999996275,808,808.3999999994412,True,u,180232.2000000002,1316.0,1669831270512,1316,HRV,HRV_0129,2022-11-30 18:03:18
100,"[{'imgObject': {}, 'id': 'turkeysandwich', 'src': '/static/foodstim60/turkeysandwich.jpg', 'key': 'u', 'origWidth': 409, 'origHeight': 409, 'width': 409, 'height': 409, 'widthPercent': 0.45, 'rescaleHeight': False, 'trialN': 100, 'loaded': True, 'loadedTime': 3386.5999999996275, 'positionName': 'LEFT', 'positionCoords': [512.6, 335.5], 'bid': 9}, {'imgObject': {}, 'id': 'grilled chicken strips', 'src': '/static/foodstim60/grilled chicken strips.jpg', 'key': 'i', 'origWidth': 410, 'origHeight': 411, 'width': 410, 'height': 411, 'widthPercent': 0.45, 'rescaleHeight': False, 'trialN': 100, 'loaded': True, 'loadedTime': 3237.2999999998137, 'positionName': 'RIGHT', 'positionCoords': [998.4, 334.5], 'bid': 9.12}]",180232.59999999963,1669831270512,turkeysandwich,grilled chicken strips,9.0,9.12,0.11999999999999922,grilled chicken strips,923.7000000001863,924,924.2999999998137,True,i,181663.7999999998,1431.2000000001863,1669831271943,1431,HRV,HRV_0129,2022-11-30 18:03:18
101,"[{'imgObject': {}, 'id': 'Grapes', 'src': '/static/foodstim60/Grapes.jpg', 'key': 'u', 'origWidth': 411, 'origHeight': 411, 'width': 411, 'height': 411, 'widthPercent': 0.45, 'rescaleHeight': False, 'trialN': 101, 'loaded': True, 'loadedTime': 2682.5999999996275, 'positionName': 'LEFT', 'positionCoords': [510.6, 334.5], 'bid': 2.62}, {'imgObject': {}, 'id': 'shreddedwheatwithmilk', 'src': '/static/foodstim60/shreddedwheatwithmilk.jpg', 'key': 'i', 'origWidth': 410, 'origHeight': 410, 'width': 410, 'height': 410, 'widthPercent': 0.45, 'rescaleHeight': False, 'trialN': 101, 'loaded': True, 'loadedTime': 2225.5999999996275, 'positionName': 'RIGHT', 'positionCoords': [998.4, 335], 'bid': 0.16}]",181664.2000000002,1669831271944,Grapes,shreddedwheatwithmilk,2.62,0.16,-2.46,Grapes,1283.7999999998137,1284,1284.2999999998137,True,u,183456.89999999944,1792.699999999255,1669831273736,1792,HRV,HRV_0129,2022-11-30 18:03:18
102,"[{'imgObject': {}, 'id': 'avocado', 'src': '/static/foodstim60/avocado.jpg', 'key': 'u', 'origWidth': 409, 'origHeight': 409, 'width': 409, 'height': 409, 'widthPercent': 0.45, 'rescaleHeight': False, 'trialN': 102, 'loaded': True, 'loadedTime': 2484.7000000001863, 'positionName': 'LEFT', 'positionCoords': [512.6, 335.5], 'bid': 0.06}, {'imgObject': {}, 'id': 'rigatoni and sauce', 'src': '/static/foodstim60/rigatoni and sauce.jpg', 'key': 'i', 'origWidth': 410, 'origHeight': 411, 'width': 410, 'height': 411, 'widthPercent': 0.45, 'rescaleHeight': False, 'trialN': 102, 'loaded': True, 'loadedTime': 2837.5, 'positionName': 'RIGHT', 'positionCoords': [998.4, 334.5], 'bid': 0.15}]",183457.39999999944,1669831273737,avocado,rigatoni and sauce,0.06,0.15,0.09,rigatoni and sauce,746.2000000001863,746,746.4000000003725,True,i,184713.5,1256.1000000005588,1669831274993,1256,HRV,HRV_0129,2022-11-30 18:03:18
103,"[{'imgObject': {}, 'id': 'sushi w_condiments', 'src': '/static/foodstim60/sushi w_condiments.jpg', 'key': 'u', 'origWidth': 410, 'origHeight': 410, 'width': 410, 'height': 410, 'widthPercent': 0.45, 'rescaleHeight': False, 'trialN': 103, 'loaded': True, 'loadedTime': 2736.0999999996275, 'positionName': 'LEFT', 'positionCoords': [511.6, 335], 'bid': 0.18}, {'imgObject': {}, 'id': 'blackbeanswithrice', 'src': '/static/foodstim60/blackbeanswithrice.jpg', 'key': 'i', 'origWidth': 410, 'origHeight': 410, 'width': 410, 'height': 410, 'widthPercent': 0.45, 'rescaleHeight': False, 'trialN': 103, 'loaded': True, 'loadedTime': 3234, 'positionName': 'RIGHT', 'positionCoords': [998.4, 335], 'bid': 0.2}]",184713.7999999998,1669831274993,sushi w_condiments,blackbeanswithrice,0.18,0.2,0.020000000000000018,blackbeanswithrice,1609.9000000003725,1611,1610.2000000001863,True,i,186836.2000000002,2122.4000000003725,1669831277116,2123,HRV,HRV_0129,2022-11-30 18:03:18
104,"[{'imgObject': {}, 'id': 'lox', 'src': '/static/foodstim60/lox.jpg', 'key': 'u', 'origWidth': 410, 'origHeight': 411, 'width': 410, 'height': 411, 'widthPercent': 0.45, 'rescaleHeight': False, 'trialN': 104, 'loaded': True, 'loadedTime': 2314.2999999998137, 'positionName': 'LEFT', 'positionCoords': [511.6, 334.5], 'bid': 0.16}, {'imgObject': {}, 'id': 'pear', 'src': '/static/foodstim60/pear.jpg', 'key': 'i', 'origWidth': 411, 'origHeight': 410, 'width': 411, 'height': 410, 'widthPercent': 0.45, 'rescaleHeight': False, 'trialN': 104, 'loaded': True, 'loadedTime': 3422.5, 'positionName': 'RIGHT', 'positionCoords': [998.4, 335], 'bid': 4.93}]",186836.59999999963,1669831277116,lox,pear,0.16,4.93,4.77,pear,975.2000000001863,976,975.5,True,i,188323.39999999944,1486.7999999998137,1669831278603,1487,HRV,HRV_0129,2022-11-30 18:03:18
105,"[{'imgObject': {}, 'id': 'Tribe humus pita', 'src': '/static/foodstim60/Tribe humus pita.jpg', 'key': 'u', 'origWidth': 411, 'origHeight': 411, 'width': 411, 'height': 411, 'widthPercent': 0.45, 'rescaleHeight': False, 'trialN': 105, 'loaded': True, 'loadedTime': 2475.2000000001863, 'positionName': 'LEFT', 'positionCoords': [510.6, 334.5], 'bid': 7.73}, {'imgObject': {}, 'id': 'popsicles', 'src': '/static/foodstim60/popsicles.jpg', 'key': 'i', 'origWidth': 410, 'origHeight': 410, 'width': 410, 'height': 410, 'widthPercent': 0.45, 'rescaleHeight': False, 'trialN': 105, 'loaded': True, 'loadedTime': 3174.7999999998137, 'positionName': 'RIGHT', 'positionCoords': [998.4, 335], 'bid': 5.04}]",188323.7000000002,1669831278603,Tribe humus pita,popsicles,7.73,5.04,-2.6900000000000004,Tribe humus pita,823.7999999998137,824,824.0999999996275,True,u,189656.7999999998,1333.0999999996275,1669831279936,1333,HRV,HRV_0129,2022-11-30 18:03:18
106,"[{'imgObject': {}, 'id': 'yogurt no spoon', 'src': '/static/foodstim60/yogurt no spoon.jpg', 'key': 'u', 'origWidth': 411, 'origHeight': 410, 'width': 411, 'height': 410, 'widthPercent': 0.45, 'rescaleHeight': False, 'trialN': 106, 'loaded': True, 'loadedTime': 3379, 'positionName': 'LEFT', 'positionCoords': [510.6, 335], 'bid': 5.0200000000000005}, {'imgObject': {}, 'id': 'avocado', 'src': '/static/foodstim60/avocado.jpg', 'key': 'i', 'origWidth': 409, 'origHeight': 409, 'width': 409, 'height': 409, 'widthPercent': 0.45, 'rescaleHeight': False, 'trialN': 106, 'loaded': True, 'loadedTime': 2482.7999999998137, 'positionName': 'RIGHT', 'positionCoords': [998.4, 335.5], 'bid': 0.06}]",189657.09999999963,1669831279937,yogurt no spoon,avocado,5.0200000000000005,0.06,-4.960000000000001,yogurt no spoon,922.4000000003725,923,922.9000000003725,True,u,191090.89999999944,1433.7999999998137,1669831281370,1433,HRV,HRV_0129,2022-11-30 18:03:18
107,"[{'imgObject': {}, 'id': 'chickenfingers', 'src': '/static/foodstim60/chickenfingers.jpg', 'key': 'u', 'origWidth': 410, 'origHeight': 410, 'width': 410, 'height': 410, 'widthPercent': 0.45, 'rescaleHeight': False, 'trialN': 107, 'loaded': True, 'loadedTime': 3381, 'positionName': 'LEFT', 'positionCoords': [511.6, 335], 'bid': 9.87}, {'imgObject': {}, 'id': 'roastedpotatoes', 'src': '/static/foodstim60/roastedpotatoes.jpg', 'key': 'i', 'origWidth': 409, 'origHeight': 410, 'width': 409, 'height': 410, 'widthPercent': 0.45, 'rescaleHeight': False, 'trialN': 107, 'loaded': True, 'loadedTime': 3062.7000000001863, 'positionName': 'RIGHT', 'positionCoords': [998.4, 335], 'bid': 9.75}]",191091.2999999998,1669831281371,chickenfingers,roastedpotatoes,9.87,9.75,-0.11999999999999922,chickenfingers,1856.5999999996275,1857,1857.0,True,u,193456.89999999944,2365.5999999996275,1669831283736,2365,HRV,HRV_0129,2022-11-30 18:03:18
108,"[{'imgObject': {}, 'id': 'mango', 'src': '/static/foodstim60/mango.jpg', 'key': 'u', 'origWidth': 411, 'origHeight': 411, 'width': 411, 'height': 411, 'widthPercent': 0.45, 'rescaleHeight': False, 'trialN': 108, 'loaded': True, 'loadedTime': 2562.7999999998137, 'positionName': 'LEFT', 'positionCoords': [510.6, 334.5], 'bid': 0.1}, {'imgObject': {}, 'id': 'raisin bran w milk', 'src': '/static/foodstim60/raisin bran w milk.jpg', 'key': 'i', 'origWidth': 411, 'origHeight': 411, 'width': 411, 'height': 411, 'widthPercent': 0.45, 'rescaleHeight': False, 'trialN': 108, 'loaded': True, 'loadedTime': 2865.5999999996275, 'positionName': 'RIGHT', 'positionCoords': [998.4, 334.5], 'bid': 0.22}]",193457.2999999998,1669831283737,mango,raisin bran w milk,0.1,0.22,0.12,raisin bran w milk,850.2000000001863,850,850.5999999996275,True,i,194825.0,1367.7000000001863,1669831285104,1367,HRV,HRV_0129,2022-11-30 18:03:18
