success,trial_type,trial_index,time_elapsed,internal_node_id,Block,TrialNumber,TrialTime,trialTimeDiff,FPS_avg,FPS_med,FPS_mode,TrialDur,winResizeTime,rt,block,button_pressed,MotCoh,MotDir,ColCoh,Color,ChoiceKey,Choice,Accuracy,RT,nFrames,FPS,PPD,missTrial,missTrialMsg,onsetDelay,fullScreenExitTime,canvCenter,TrialType,Score,BlockTrial,stimulus,button_labels,exp,subjectId,date
True,fullscreen,0,2873,0.0-0.0,0.0,1.0,,,,,,,,,,,,,,,,,,,,,,,,,,,,,,,,HRV,HRV_0053,2022-11-30 17:52:27
,wl-check-fps,1,9483,0.0-1.0,0.0,2.0,"[4783.5, 4810.4, 4863.4, 4971.6, 5009.8, 5034.4, 5061.1, 5090, 5111.4, 5215.2, 5282.6, 5309.5, 5346.2, 5379.8, 5407, 5422.7, 5442.3, 5465.8, 5482.1, 5506.5, 5522.3, 5540.7, 5555.2, 5573.5, 5594, 5607.7, 5627.4, 5647.3, 5673.3, 5694.6, 5708.8, 5727.9, 5749.6, 5776.9, 5790.2, 5809.4, 5824.2, 5843.6, 5857.4, 5877.7, 5890.8, 5910.6, 5926.8, 5946.1, 5972.4, 5994.2, 6010.5, 6044.7, 6065.4, 6095.5, 6111.6, 6130.9, 6157.3, 6178.3, 6192.5, 6212.6, 6226, 6245.2, 6265.1, 6286.7, 6300.2, 6327.7, 6342.8, 6379.5, 6393.1, 6436, 6467.3, 6500.7, 6534.6, 6548.7, 6584.2, 6598.7, 6630.4, 6644, 6678.8, 6693.1, 6726, 6747, 6766.7, 6794.8, 6812.9, 6845.9, 6863.5, 6883.4, 6903.5, 6917.7, 6943.7, 6957, 6977.7, 6991.3, 7021.4, 7038.4, 7062.3, 7082.5, 7111, 7132.4, 7149.1, 7170.7, 7183.7, 7203.7, 7216.7, 7238.1, 7250.5, 7266.6, 7287.8, 7298.6, 7326.5, 7333.4, 7350.1, 7366.9, 7393.8, 7413.7, 7427, 7445.8, 7460.6, 7481.8, 7506.7, 7528.9, 7541.9, 7561.4, 7575.3, 7595.1, 7608.5, 7635.8, 7651.1, 7683.6, 7699.6, 7734.5, 7749.6, 7773.2, 7795.2, 7808.9, 7829, 7842.8, 7862.4, 7875.5, 7895.1, 7908.6, 7928, 7941.4, 7961.5, 7983.5, 7999.2, 8017.8, 8044.2, 8058.2, 8078.5, 8092, 8116.5, 8132.5, 8156.4, 8178.2, 8191.8, 8211, 8224.6, 8243.8, 8257.3, 8277.7, 8293.3, 8312.5, 8325.6, 8345, 8366.6, 8393.9, 8410.7, 8431.8, 8445.6, 8473.4, 8495.9, 8530.5, 8547.2, 8589.6, 8612.7, 8629.6, 8660.2, 8682.5, 8706.4, 8726.7, 8742.9, 8750.6, 8777.1, 8800.3, 8833.8, 8854.2, 8884, 8900.3, 8934.7, 8958.2, 8985, 9000.4, 9029.3, 9047.7, 9076.5, 9095.2, 9118.3, 9145.5, 9163, 9192.6, 9215.4, 9232, 9257.9, 9281.1, 9297.8, 9328.5, 9343.6, 9365.7, 9381.9, 9412.1, 9427.8, 9450.3, 9479.7, 9493.5, 9524.7, 9551, 9570, 9598.2, 9623.3, 9649.7, 9667.2, 9698.1, 9714.1, 9745.4, 9761.4, 9786.3, 9814.9, 9832.1, 9855.9, 9879.1, 9892.9, 9912.3, 9926.9, 9946.4, 9960.3, 9980.8, 9993.9, 10013.8, 10028.4, 10048.6, 10072, 10089.7, 10115.9, 10130.6, 10151.1, 10174.6, 10198.3, 10213.3, 10245.7, 10262.4, 10283.8, 10304.7, 10324, 10342.2, 10365.4, 10380.3, 10406.5, 10434, 10450.8, 10481.1, 10495.7, 10526.5, 10550.4, 10574.2, 10590.6, 10613.6, 10627.9, 10650.4, 10667, 10690, 10710.9, 10728, 10748.9, 10764.2, 10790.6, 10807.5, 10827.3, 10848.8, 10865.3, 10895, 10909, 10931.9, 10946.8, 10968.5, 10997.3, 11014.5, 11044.3, 11059.4, 11079.7, 11093.1, 11115.3, 11130.6, 11158, 11181.4, 11198, 11228.2, 11247.1, 11278.4, 11300.6, 11319.6, 11334, 11361.7]","[6.7, 26.9, 53, 108.2, 38.2, 24.6, 26.7, 28.9, 21.4, 103.8, 67.4, 26.9, 36.7, 33.6, 27.2, 15.7, 19.6, 23.5, 16.3, 24.4, 15.8, 18.4, 14.5, 18.3, 20.5, 13.7, 19.7, 19.9, 26, 21.3, 14.2, 19.1, 21.7, 27.3, 13.3, 19.2, 14.8, 19.4, 13.8, 20.3, 13.1, 19.8, 16.2, 19.3, 26.3, 21.8, 16.3, 34.2, 20.7, 30.1, 16.1, 19.3, 26.4, 21, 14.2, 20.1, 13.4, 19.2, 19.9, 21.6, 13.5, 27.5, 15.1, 36.7, 13.6, 42.9, 31.3, 33.4, 33.9, 14.1, 35.5, 14.5, 31.7, 13.6, 34.8, 14.3, 32.9, 21, 19.7, 28.1, 18.1, 33, 17.6, 19.9, 20.1, 14.2, 26, 13.3, 20.7, 13.6, 30.1, 17, 23.9, 20.2, 28.5, 21.4, 16.7, 21.6, 13, 20, 13, 21.4, 12.4, 16.1, 21.2, 10.8, 27.9, 6.9, 16.7, 16.8, 26.9, 19.9, 13.3, 18.8, 14.8, 21.2, 24.9, 22.2, 13, 19.5, 13.9, 19.8, 13.4, 27.3, 15.3, 32.5, 16, 34.9, 15.1, 23.6, 22, 13.7, 20.1, 13.8, 19.6, 13.1, 19.6, 13.5, 19.4, 13.4, 20.1, 22, 15.7, 18.6, 26.4, 14, 20.3, 13.5, 24.5, 16, 23.9, 21.8, 13.6, 19.2, 13.6, 19.2, 13.5, 20.4, 15.6, 19.2, 13.1, 19.4, 21.6, 27.3, 16.8, 21.1, 13.8, 27.8, 22.5, 34.6, 16.7, 42.4, 23.1, 16.9, 30.6, 22.3, 23.9, 20.3, 16.2, 7.7, 26.5, 23.2, 33.5, 20.4, 29.8, 16.3, 34.4, 23.5, 26.8, 15.4, 28.9, 18.4, 28.8, 18.7, 23.1, 27.2, 17.5, 29.6, 22.8, 16.6, 25.9, 23.2, 16.7, 30.7, 15.1, 22.1, 16.2, 30.2, 15.7, 22.5, 29.4, 13.8, 31.2, 26.3, 19, 28.2, 25.1, 26.4, 17.5, 30.9, 16, 31.3, 16, 24.9, 28.6, 17.2, 23.8, 23.2, 13.8, 19.4, 14.6, 19.5, 13.9, 20.5, 13.1, 19.9, 14.6, 20.2, 23.4, 17.7, 26.2, 14.7, 20.5, 23.5, 23.7, 15, 32.4, 16.7, 21.4, 20.9, 19.3, 18.2, 23.2, 14.9, 26.2, 27.5, 16.8, 30.3, 14.6, 30.8, 23.9, 23.8, 16.4, 23, 14.3, 22.5, 16.6, 23, 20.9, 17.1, 20.9, 15.3, 26.4, 16.9, 19.8, 21.5, 16.5, 29.7, 14, 22.9, 14.9, 21.7, 28.8, 17.2, 29.8, 15.1, 20.3, 13.4, 22.2, 15.3, 27.4, 23.4, 16.6, 30.2, 18.9, 31.3, 22.2, 19, 14.4, 27.7]",46.0,50.0,60.0,6598.5,[],,,,,,,,,,,,,,,,,,,,,,,,,HRV,HRV_0053,2022-11-30 17:52:27
,wl-html-keyboard-response,2,19893,0.0-2.0-0.0,0.0,3.0,,,,,,,,8405.699999999255,0.0,0,,,,,,,,,,,,,,,,,,,,,,HRV,HRV_0053,2022-11-30 17:52:27
,wl-rdm,3,26279,0.0-3.0-0.0,0.0,4.0,,,,,,,[],,,,0.0,0.0,87.9,0.0,u,0.0,True,2752.1000000052154,39.0,60.0,40.0,False,,3000.0,[],"[640, 400]",ColorTask_Demo,,,,,HRV,HRV_0053,2022-11-30 17:52:27
,wl-rdm,4,31025,0.0-3.0-1.0,0.0,5.0,,,,,,,[],,,,0.0,0.0,87.9,1.0,i,1.0,True,653.2999999970198,32.0,60.0,40.0,False,,2000.0,[],"[640, 400]",ColorTask_Demo,,,,,HRV,HRV_0053,2022-11-30 17:52:27
,wl-html-keyboard-response,5,35702,0.0-3.0-2.0,0.0,6.0,,,,,,,,2669.5,0.0,1,,,,,,,,,,,,,,,,,,,,,,HRV,HRV_0053,2022-11-30 17:52:27
,wl-html-keyboard-response,6,43527,0.0-4.0-0.0,0.0,7.0,,,,,,,,5819.5,0.0,0,,,,,,,,,,,,,,,,,,,,,,HRV,HRV_0053,2022-11-30 17:52:27
,wl-html-keyboard-response,7,51089,0.0-5.0-0.0,0.0,8.0,,,,,,,,5557.60000000149,0.0,0,,,,,,,,,,,,,,,,,,,,,,HRV,HRV_0053,2022-11-30 17:52:27
,wl-rdm,8,53533,0.0-6.0-0.0,0.0,9.0,,,,,,,[],,,,,,50.0,1.0,i,1.0,True,1132.0999999977648,54.0,60.0,40.0,False,,220.13929520937165,[],"[640, 400]",ColorTask,1.0,1.0,,,HRV,HRV_0053,2022-11-30 17:52:27
,wl-rdm,9,55565,0.0-6.1-0.1,0.0,10.0,,,,,,,[],,,,,,87.9,0.0,u,0.0,True,704.6999999955297,36.0,60.0,40.0,False,,271.53540550247055,[],"[640, 400]",ColorTask,2.0,2.0,,,HRV,HRV_0053,2022-11-30 17:52:27
,wl-rdm,10,57739,0.0-6.2-0.2,0.0,11.0,,,,,,,[],,,,,,87.9,0.0,u,0.0,True,731.8000000007451,38.0,60.0,40.0,False,,360.1828924863061,[],"[640, 400]",ColorTask,3.0,3.0,,,HRV,HRV_0053,2022-11-30 17:52:27
,wl-rdm,11,59835,0.0-6.3-0.3,0.0,12.0,,,,,,,[],,,,,,50.0,0.0,i,1.0,False,634.1000000014901,33.0,60.0,40.0,False,,377.14437435818996,[],"[640, 400]",ColorTask,2.0,4.0,,,HRV,HRV_0053,2022-11-30 17:52:27
,wl-rdm,12,62119,0.0-6.4-0.4,0.0,13.0,,,,,,,[],,,,,,50.0,0.0,i,1.0,False,921.9000000022352,45.0,60.0,40.0,False,,283.3902771448003,[],"[640, 400]",ColorTask,1.0,5.0,,,HRV,HRV_0053,2022-11-30 17:52:27
,wl-rdm,13,64367,0.0-6.5-0.5,0.0,14.0,,,,,,,[],,,,,,50.0,0.0,i,1.0,False,934.6999999992549,47.0,60.0,40.0,False,,227.05435657079556,[],"[640, 400]",ColorTask,0.0,6.0,,,HRV,HRV_0053,2022-11-30 17:52:27
,wl-rdm,14,66417,0.0-6.6-0.6,0.0,15.0,,,,,,,[],,,,,,53.2,0.0,u,0.0,True,639.0,33.0,60.0,40.0,False,,347.0143345488422,[],"[640, 400]",ColorTask,1.0,7.0,,,HRV,HRV_0053,2022-11-30 17:52:27
,wl-rdm,15,68608,0.0-6.7-0.7,0.0,16.0,,,,,,,[],,,,,,53.2,0.0,u,0.0,True,871.3000000007451,42.0,60.0,40.0,False,,227.10094247258323,[],"[640, 400]",ColorTask,2.0,8.0,,,HRV,HRV_0053,2022-11-30 17:52:27
,wl-rdm,16,70711,0.0-6.8-0.8,0.0,17.0,,,,,,,[],,,,,,62.5,1.0,u,0.0,False,646.4000000022352,32.0,60.0,40.0,False,,392.69065656966757,[],"[640, 400]",ColorTask,1.0,9.0,,,HRV,HRV_0053,2022-11-30 17:52:27
,wl-rdm,17,72607,0.0-6.9-0.9,0.0,18.0,,,,,,,[],,,,,,50.0,1.0,i,1.0,True,471.5999999977648,25.0,60.0,40.0,False,,333.37795629935056,[],"[640, 400]",ColorTask,2.0,10.0,,,HRV,HRV_0053,2022-11-30 17:52:27
,wl-rdm,18,74681,0.0-6.10-0.10,0.0,19.0,,,,,,,[],,,,,,73.6,0.0,u,0.0,True,765.9999999962747,41.0,60.0,40.0,False,,268.3363745081918,[],"[640, 400]",ColorTask,3.0,11.0,,,HRV,HRV_0053,2022-11-30 17:52:27
,wl-rdm,19,77139,0.0-6.11-0.11,0.0,20.0,,,,,,,[],,,,,,53.2,0.0,i,1.0,False,1082.6000000014901,54.0,60.0,40.0,False,,273.08771380412435,[],"[640, 400]",ColorTask,2.0,12.0,,,HRV,HRV_0053,2022-11-30 17:52:27
,wl-rdm,20,80230,0.0-6.12-0.12,0.0,21.0,,,,,,,[],,,,,,62.5,0.0,i,1.0,False,1710.7999999970198,87.0,60.0,40.0,False,,301.72642870667937,[],"[640, 400]",ColorTask,1.0,13.0,,,HRV,HRV_0053,2022-11-30 17:52:27
,wl-rdm,21,82883,0.0-6.13-0.13,0.0,22.0,,,,,,,[],,,,,,50.0,1.0,i,1.0,True,1230.8999999985099,61.0,60.0,40.0,False,,324.70006882793257,[],"[640, 400]",ColorTask,2.0,14.0,,,HRV,HRV_0053,2022-11-30 17:52:27
,wl-rdm,22,85175,0.0-6.14-0.14,0.0,23.0,,,,,,,[],,,,,,53.2,0.0,u,0.0,True,992.7000000029802,49.0,60.0,40.0,False,,241.79440315788486,[],"[640, 400]",ColorTask,3.0,15.0,,,HRV,HRV_0053,2022-11-30 17:52:27
,wl-rdm,23,87259,0.0-6.15-0.15,0.0,24.0,,,,,,,[],,,,,,50.0,0.0,u,0.0,True,815.6999999992549,40.0,60.0,40.0,False,,208.35612158507925,[],"[640, 400]",ColorTask,4.0,16.0,,,HRV,HRV_0053,2022-11-30 17:52:27
,wl-rdm,24,89229,0.0-6.16-0.16,0.0,25.0,,,,,,,[],,,,,,56.4,0.0,u,0.0,True,564.7999999970198,27.0,60.0,40.0,False,,323.09753100625915,[],"[640, 400]",ColorTask,5.0,17.0,,,HRV,HRV_0053,2022-11-30 17:52:27
,wl-rdm,25,91250,0.0-6.17-0.17,0.0,26.0,,,,,,,[],,,,,,73.6,1.0,i,1.0,True,687.4000000022352,35.0,60.0,40.0,False,,268.4483780518293,[],"[640, 400]",ColorTask,6.0,18.0,,,HRV,HRV_0053,2022-11-30 17:52:27
,wl-rdm,26,93353,0.0-6.18-0.18,0.0,27.0,,,,,,,[],,,,,,62.5,1.0,i,1.0,True,801.8999999985099,40.0,60.0,40.0,False,,232.30168088855214,[],"[640, 400]",ColorTask,7.0,19.0,,,HRV,HRV_0053,2022-11-30 17:52:27
,wl-rdm,27,95468,0.0-6.19-0.19,0.0,28.0,,,,,,,[],,,,,,87.9,1.0,i,1.0,True,764.1000000014901,38.0,60.0,40.0,False,,254.62893467627487,[],"[640, 400]",ColorTask,8.0,20.0,,,HRV,HRV_0053,2022-11-30 17:52:27
,wl-rdm,28,97855,0.0-6.20-0.20,0.0,29.0,,,,,,,[],,,,,,53.2,0.0,i,1.0,False,963.0999999977648,49.0,60.0,40.0,False,,339.7702441990514,[],"[640, 400]",ColorTask,7.0,21.0,,,HRV,HRV_0053,2022-11-30 17:52:27
,wl-rdm,29,100642,0.0-6.21-0.21,0.0,30.0,,,,,,,[],,,,,,50.0,1.0,i,1.0,True,1382.0999999977648,70.0,60.0,40.0,False,,324.5999243253189,[],"[640, 400]",ColorTask,8.0,22.0,,,HRV,HRV_0053,2022-11-30 17:52:27
,wl-rdm,30,102791,0.0-6.22-0.22,0.0,31.0,,,,,,,[],,,,,,73.6,1.0,i,1.0,True,687.3999999985099,34.0,60.0,40.0,False,,390.89835958507047,[],"[640, 400]",ColorTask,9.0,23.0,,,HRV,HRV_0053,2022-11-30 17:52:27
,wl-rdm,31,105129,0.0-6.23-0.23,0.0,32.0,,,,,,,[],,,,,,50.0,0.0,u,0.0,True,1035.199999999255,53.0,60.0,40.0,False,,235.01898030621476,[],"[640, 400]",ColorTask,10.0,24.0,,,HRV,HRV_0053,2022-11-30 17:52:27
,wl-rdm,32,107591,0.0-6.24-0.24,0.0,33.0,,,,,,,[],,,,,,87.9,0.0,u,0.0,True,1108.0999999977648,58.0,60.0,40.0,False,,279.93446341686115,[],"[640, 400]",ColorTask,11.0,25.0,,,HRV,HRV_0053,2022-11-30 17:52:27
,wl-rdm,33,109828,0.0-6.25-0.25,0.0,34.0,,,,,,,[],,,,,,50.0,0.0,i,1.0,False,850.8000000007451,43.0,60.0,40.0,False,,314.8582072981021,[],"[640, 400]",ColorTask,10.0,26.0,,,HRV,HRV_0053,2022-11-30 17:52:27
,wl-rdm,34,112134,0.0-6.26-0.26,0.0,35.0,,,,,,,[],,,,,,56.4,1.0,i,1.0,True,906.0999999977648,48.0,60.0,40.0,False,,297.90692850420197,[],"[640, 400]",ColorTask,11.0,27.0,,,HRV,HRV_0053,2022-11-30 17:52:27
,wl-rdm,35,114482,0.0-6.27-0.27,0.0,36.0,,,,,,,[],,,,,,50.0,1.0,u,0.0,False,1079.7000000029802,56.0,60.0,40.0,False,,200.16856062744802,[],"[640, 400]",ColorTask,10.0,28.0,,,HRV,HRV_0053,2022-11-30 17:52:27
,wl-rdm,36,116032,0.0-6.28-0.28,0.0,37.0,,,,,,,[],,,,,,62.5,0.0,i,1.0,False,185.5,9.0,60.0,40.0,False,,286.51656076854323,[],"[640, 400]",ColorTask,9.0,29.0,,,HRV,HRV_0053,2022-11-30 17:52:27
,wl-rdm,37,117109,0.0-6.29-0.29,0.0,37.0,,,,,,,[],,,,,,87.9,0.0,i,,,446.30000000074506,0.0,60.0,40.0,True,too_early ,330.3165320374105,[],"[640, 400]",ColorTask,8.0,30.0,,,HRV,HRV_0053,2022-11-30 17:52:27
,wl-rdm,38,119294,0.0-6.30-0.30,0.0,38.0,,,,,,,[],,,,,,56.4,0.0,i,1.0,False,759.1000000014901,38.0,60.0,40.0,False,,333.8614776092935,[],"[640, 400]",ColorTask,7.0,31.0,,,HRV,HRV_0053,2022-11-30 17:52:27
,wl-rdm,39,121273,0.0-6.31-0.31,0.0,39.0,,,,,,,[],,,,,,62.5,1.0,i,1.0,True,688.3000000007451,35.0,60.0,40.0,False,,213.43948582657424,[],"[640, 400]",ColorTask,8.0,32.0,,,HRV,HRV_0053,2022-11-30 17:52:27
,wl-rdm,40,123741,0.0-6.32-0.32,0.0,40.0,,,,,,,[],,,,,,50.0,1.0,u,0.0,False,1015.3000000007451,51.0,60.0,40.0,False,,378.6076097962771,[],"[640, 400]",ColorTask,7.0,33.0,,,HRV,HRV_0053,2022-11-30 17:52:27
,wl-rdm,41,125841,0.0-6.33-0.33,0.0,41.0,,,,,,,[],,,,,,62.5,0.0,i,1.0,False,698.8000000007451,36.0,60.0,40.0,False,,308.1777495363076,[],"[640, 400]",ColorTask,6.0,34.0,,,HRV,HRV_0053,2022-11-30 17:52:27
,wl-rdm,42,128199,0.0-6.34-0.34,0.0,42.0,,,,,,,[],,,,,,56.4,1.0,u,0.0,False,1008.4000000022352,50.0,60.0,40.0,False,,275.73026614722676,[],"[640, 400]",ColorTask,5.0,35.0,,,HRV,HRV_0053,2022-11-30 17:52:27
,wl-rdm,43,130231,0.0-6.35-0.35,0.0,43.0,,,,,,,[],,,,,,87.9,1.0,i,1.0,True,658.2000000029802,34.0,60.0,40.0,False,,308.1198666491996,[],"[640, 400]",ColorTask,6.0,36.0,,,HRV,HRV_0053,2022-11-30 17:52:27
,wl-rdm,44,132382,0.0-6.36-0.36,0.0,44.0,,,,,,,[],,,,,,56.4,0.0,i,1.0,False,802.5999999977648,41.0,60.0,40.0,False,,269.4442665299732,[],"[640, 400]",ColorTask,5.0,37.0,,,HRV,HRV_0053,2022-11-30 17:52:27
,wl-rdm,45,133463,0.0-6.37-0.37,0.0,44.0,,,,,,,[],,,,,,87.9,1.0,i,,,353.0,0.0,60.0,40.0,True,too_early ,293.76833080544156,[],"[640, 400]",ColorTask,4.0,38.0,,,HRV,HRV_0053,2022-11-30 17:52:27
,wl-rdm,46,135657,0.0-6.38-0.38,0.0,45.0,,,,,,,[],,,,,,87.9,1.0,u,0.0,False,846.1000000014901,43.0,60.0,40.0,False,,269.01721137288837,[],"[640, 400]",ColorTask,3.0,39.0,,,HRV,HRV_0053,2022-11-30 17:52:27
,wl-rdm,47,138406,0.0-6.39-0.39,0.0,46.0,,,,,,,[],,,,,,50.0,1.0,i,1.0,True,1414.5999999977648,72.0,60.0,40.0,False,,249.35522185984084,[],"[640, 400]",ColorTask,4.0,40.0,,,HRV,HRV_0053,2022-11-30 17:52:27
,wl-rdm,48,140883,0.0-6.40-0.40,0.0,47.0,,,,,,,[],,,,,,56.4,0.0,u,0.0,True,1116.699999999255,58.0,60.0,40.0,False,,292.98613297886016,[],"[640, 400]",ColorTask,5.0,41.0,,,HRV,HRV_0053,2022-11-30 17:52:27
,wl-rdm,49,142947,0.0-6.41-0.41,0.0,48.0,,,,,,,[],,,,,,56.4,1.0,i,1.0,True,794.0,41.0,60.0,40.0,False,,210.42811904728617,[],"[640, 400]",ColorTask,6.0,42.0,,,HRV,HRV_0053,2022-11-30 17:52:27
,wl-rdm,50,145247,0.0-6.42-0.42,0.0,49.0,,,,,,,[],,,,,,53.2,0.0,i,1.0,False,1014.5,51.0,60.0,40.0,False,,226.19269268885427,[],"[640, 400]",ColorTask,5.0,43.0,,,HRV,HRV_0053,2022-11-30 17:52:27
,wl-rdm,51,147577,0.0-6.43-0.43,0.0,50.0,,,,,,,[],,,,,,56.4,0.0,u,0.0,True,945.5999999977648,49.0,60.0,40.0,False,,321.7015249368973,[],"[640, 400]",ColorTask,6.0,44.0,,,HRV,HRV_0053,2022-11-30 17:52:27
,wl-rdm,52,149699,0.0-6.44-0.44,0.0,51.0,,,,,,,[],,,,,,53.2,0.0,i,1.0,False,841.5,41.0,60.0,40.0,False,,216.8162528381111,[],"[640, 400]",ColorTask,5.0,45.0,,,HRV,HRV_0053,2022-11-30 17:52:27
,wl-rdm,53,151994,0.0-6.45-0.45,0.0,52.0,,,,,,,[],,,,,,73.6,1.0,i,1.0,True,979.8999999985099,51.0,60.0,40.0,False,,221.84744692427333,[],"[640, 400]",ColorTask,6.0,46.0,,,HRV,HRV_0053,2022-11-30 17:52:27
,wl-rdm,54,154117,0.0-6.46-0.46,0.0,53.0,,,,,,,[],,,,,,62.5,1.0,i,1.0,True,746.3999999985099,38.0,60.0,40.0,False,,310.995945517539,[],"[640, 400]",ColorTask,7.0,47.0,,,HRV,HRV_0053,2022-11-30 17:52:27
,wl-rdm,55,156401,0.0-6.47-0.47,0.0,54.0,,,,,,,[],,,,,,53.2,1.0,i,1.0,True,817.3000000007451,41.0,60.0,40.0,False,,383.5602838955361,[],"[640, 400]",ColorTask,8.0,48.0,,,HRV,HRV_0053,2022-11-30 17:52:27
,wl-rdm,56,158555,0.0-6.48-0.48,0.0,55.0,,,,,,,[],,,,,,62.5,0.0,u,0.0,True,813.1999999992549,42.0,60.0,40.0,False,,268.1484791282218,[],"[640, 400]",ColorTask,9.0,49.0,,,HRV,HRV_0053,2022-11-30 17:52:27
,wl-rdm,57,161184,0.0-6.49-0.49,0.0,56.0,,,,,,,[],,,,,,73.6,1.0,i,1.0,True,1181.1000000014901,58.0,60.0,40.0,False,,364.18529043300225,[],"[640, 400]",ColorTask,10.0,50.0,,,HRV,HRV_0053,2022-11-30 17:52:27
,wl-rdm,58,163556,0.0-6.50-0.50,0.0,57.0,,,,,,,[],,,,,,87.9,1.0,i,1.0,True,943.4999999962747,48.0,60.0,40.0,False,,345.86969072130034,[],"[640, 400]",ColorTask,11.0,51.0,,,HRV,HRV_0053,2022-11-30 17:52:27
,wl-rdm,59,166210,0.0-6.51-0.51,0.0,58.0,,,,,,,[],,,,,,73.6,1.0,u,0.0,False,1373.4000000022352,71.0,60.0,40.0,False,,206.40062210328037,[],"[640, 400]",ColorTask,10.0,52.0,,,HRV,HRV_0053,2022-11-30 17:52:27
,wl-rdm,60,168366,0.0-6.52-0.52,0.0,59.0,,,,,,,[],,,,,,87.9,1.0,i,1.0,True,710.1000000014901,37.0,60.0,40.0,False,,364.27645871097764,[],"[640, 400]",ColorTask,11.0,53.0,,,HRV,HRV_0053,2022-11-30 17:52:27
,wl-rdm,61,170504,0.0-6.53-0.53,0.0,60.0,,,,,,,[],,,,,,87.9,0.0,u,0.0,True,846.9999999962747,43.0,60.0,40.0,False,,213.38417460964496,[],"[640, 400]",ColorTask,12.0,54.0,,,HRV,HRV_0053,2022-11-30 17:52:27
,wl-rdm,62,173282,0.0-6.54-0.54,0.0,61.0,,,,,,,[],,,,,,53.2,1.0,i,1.0,True,1418.4000000022352,70.0,60.0,40.0,False,,272.3647008409802,[],"[640, 400]",ColorTask,13.0,55.0,,,HRV,HRV_0053,2022-11-30 17:52:27
,wl-rdm,63,175614,0.0-6.55-0.55,0.0,62.0,,,,,,,[],,,,,,50.0,0.0,u,0.0,True,938.7000000029802,51.0,60.0,40.0,False,,321.8690322315236,[],"[640, 400]",ColorTask,14.0,56.0,,,HRV,HRV_0053,2022-11-30 17:52:27
,wl-rdm,64,178577,0.0-6.56-0.56,0.0,63.0,,,,,,,[],,,,,,62.5,0.0,i,1.0,False,1489.8999999985099,79.0,60.0,40.0,False,,393.7787223984819,[],"[640, 400]",ColorTask,13.0,57.0,,,HRV,HRV_0053,2022-11-30 17:52:27
,wl-rdm,65,180672,0.0-6.57-0.57,0.0,64.0,,,,,,,[],,,,,,73.6,1.0,i,1.0,True,810.1000000014901,42.0,60.0,40.0,False,,212.5311127330859,[],"[640, 400]",ColorTask,14.0,58.0,,,HRV,HRV_0053,2022-11-30 17:52:27
,wl-rdm,66,183113,0.0-6.58-0.58,0.0,65.0,,,,,,,[],,,,,,73.6,0.0,i,1.0,False,1092.6000000014901,56.0,60.0,40.0,False,,274.267900751838,[],"[640, 400]",ColorTask,13.0,59.0,,,HRV,HRV_0053,2022-11-30 17:52:27
,wl-rdm,67,185444,0.0-6.59-0.59,0.0,66.0,,,,,,,[],,,,,,62.5,0.0,i,1.0,False,1044.2999999970198,54.0,60.0,40.0,False,,211.58509587764956,[],"[640, 400]",ColorTask,12.0,60.0,,,HRV,HRV_0053,2022-11-30 17:52:27
,wl-rdm,68,187642,0.0-6.60-0.60,0.0,67.0,,,,,,,[],,,,,,73.6,1.0,i,1.0,True,819.3000000007451,43.0,60.0,40.0,False,,300.8005076342249,[],"[640, 400]",ColorTask,13.0,61.0,,,HRV,HRV_0053,2022-11-30 17:52:27
,wl-rdm,69,189810,0.0-6.61-0.61,0.0,68.0,,,,,,,[],,,,,,62.5,0.0,i,1.0,False,848.3000000044703,41.0,60.0,40.0,False,,236.54447043066662,[],"[640, 400]",ColorTask,12.0,62.0,,,HRV,HRV_0053,2022-11-30 17:52:27
,wl-rdm,70,192207,0.0-6.62-0.62,0.0,69.0,,,,,,,[],,,,,,87.9,1.0,i,1.0,True,1034.0,52.0,60.0,40.0,False,,297.68742202434623,[],"[640, 400]",ColorTask,13.0,63.0,,,HRV,HRV_0053,2022-11-30 17:52:27
,wl-rdm,71,194829,0.0-6.63-0.63,0.0,70.0,,,,,,,[],,,,,,53.2,0.0,i,1.0,False,1322.5,70.0,60.0,40.0,False,,220.15561679149118,[],"[640, 400]",ColorTask,12.0,64.0,,,HRV,HRV_0053,2022-11-30 17:52:27
,wl-rdm,72,197421,0.0-6.64-0.64,0.0,71.0,,,,,,,[],,,,,,73.6,1.0,i,1.0,True,1153.0,56.0,60.0,40.0,False,,364.4743687261199,[],"[640, 400]",ColorTask,13.0,65.0,,,HRV,HRV_0053,2022-11-30 17:52:27
,wl-rdm,73,200131,0.0-6.65-0.65,0.0,72.0,,,,,,,[],,,,,,73.6,0.0,i,1.0,False,1377.5999999977648,73.0,60.0,40.0,False,,261.3018205260878,[],"[640, 400]",ColorTask,12.0,66.0,,,HRV,HRV_0053,2022-11-30 17:52:27
,wl-rdm,74,202480,0.0-6.66-0.66,0.0,73.0,,,,,,,[],,,,,,73.6,0.0,i,1.0,False,984.1999999992549,50.0,60.0,40.0,False,,280.38122310943413,[],"[640, 400]",ColorTask,11.0,67.0,,,HRV,HRV_0053,2022-11-30 17:52:27
,wl-rdm,75,204698,0.0-6.67-0.67,0.0,74.0,,,,,,,[],,,,,,73.6,0.0,i,1.0,False,873.0999999977648,47.0,60.0,40.0,False,,268.66148467832204,[],"[640, 400]",ColorTask,10.0,68.0,,,HRV,HRV_0053,2022-11-30 17:52:27
,wl-rdm,76,207032,0.0-6.68-0.68,0.0,75.0,,,,,,,[],,,,,,56.4,0.0,i,1.0,False,1034.0999999977648,54.0,60.0,40.0,False,,232.29899419032725,[],"[640, 400]",ColorTask,9.0,69.0,,,HRV,HRV_0053,2022-11-30 17:52:27
,wl-rdm,77,209381,0.0-6.69-0.69,0.0,76.0,,,,,,,[],,,,,,50.0,0.0,i,1.0,False,999.0,51.0,60.0,40.0,False,,283.6578185201821,[],"[640, 400]",ColorTask,8.0,70.0,,,HRV,HRV_0053,2022-11-30 17:52:27
,wl-rdm,78,211497,0.0-6.70-0.70,0.0,77.0,,,,,,,[],,,,,,87.9,0.0,u,0.0,True,701.7000000029802,37.0,60.0,40.0,False,,341.3596555394727,[],"[640, 400]",ColorTask,9.0,71.0,,,HRV,HRV_0053,2022-11-30 17:52:27
,wl-rdm,79,213778,0.0-6.71-0.71,0.0,78.0,,,,,,,[],,,,,,87.9,0.0,u,0.0,True,826.0,43.0,60.0,40.0,False,,383.0906792300177,[],"[640, 400]",ColorTask,10.0,72.0,,,HRV,HRV_0053,2022-11-30 17:52:27
,wl-rdm,80,216109,0.0-6.72-0.72,0.0,79.0,,,,,,,[],,,,,,73.6,0.0,u,0.0,True,1019.5,52.0,60.0,40.0,False,,255.75594078542395,[],"[640, 400]",ColorTask,11.0,73.0,,,HRV,HRV_0053,2022-11-30 17:52:27
,wl-rdm,81,218433,0.0-6.73-0.73,0.0,80.0,,,,,,,[],,,,,,53.2,0.0,i,1.0,False,1028.9000000022352,53.0,60.0,40.0,False,,223.9294308837422,[],"[640, 400]",ColorTask,10.0,74.0,,,HRV,HRV_0053,2022-11-30 17:52:27
,wl-rdm,82,220773,0.0-6.74-0.74,0.0,81.0,,,,,,,[],,,,,,56.4,1.0,i,1.0,True,1017.8999999985099,49.0,60.0,40.0,False,,253.85514301061926,[],"[640, 400]",ColorTask,11.0,75.0,,,HRV,HRV_0053,2022-11-30 17:52:27
,wl-rdm,83,223187,0.0-6.75-0.75,0.0,82.0,,,,,,,[],,,,,,62.5,1.0,u,0.0,False,1141.0,60.0,60.0,40.0,False,,227.44294031532232,[],"[640, 400]",ColorTask,10.0,76.0,,,HRV,HRV_0053,2022-11-30 17:52:27
,wl-rdm,84,225374,0.0-6.76-0.76,0.0,83.0,,,,,,,[],,,,,,62.5,1.0,i,1.0,True,901.5,47.0,60.0,40.0,False,,217.06629030047782,[],"[640, 400]",ColorTask,11.0,77.0,,,HRV,HRV_0053,2022-11-30 17:52:27
,wl-rdm,85,227554,0.0-6.77-0.77,0.0,84.0,,,,,,,[],,,,,,62.5,0.0,i,1.0,False,890.6999999955297,46.0,60.0,40.0,False,,234.33574716452412,[],"[640, 400]",ColorTask,10.0,78.0,,,HRV,HRV_0053,2022-11-30 17:52:27
,wl-rdm,86,229805,0.0-6.78-0.78,0.0,85.0,,,,,,,[],,,,,,73.6,0.0,u,0.0,True,956.2000000029802,49.0,60.0,40.0,False,,248.2018996904832,[],"[640, 400]",ColorTask,11.0,79.0,,,HRV,HRV_0053,2022-11-30 17:52:27
,wl-rdm,87,231982,0.0-6.79-0.79,0.0,86.0,,,,,,,[],,,,,,53.2,1.0,i,1.0,True,893.8000000044703,46.0,60.0,40.0,False,,200.6962330748688,[],"[640, 400]",ColorTask,12.0,80.0,,,HRV,HRV_0053,2022-11-30 17:52:27
,wl-rdm,88,234692,0.0-6.80-0.80,0.0,87.0,,,,,,,[],,,,,,62.5,0.0,u,0.0,True,1321.3999999985099,67.0,60.0,40.0,False,,317.99779188678815,[],"[640, 400]",ColorTask,13.0,81.0,,,HRV,HRV_0053,2022-11-30 17:52:27
,wl-rdm,89,237128,0.0-6.81-0.81,0.0,88.0,,,,,,,[],,,,,,56.4,1.0,i,1.0,True,968.3000000007451,50.0,60.0,40.0,False,,398.2144546473038,[],"[640, 400]",ColorTask,14.0,82.0,,,HRV,HRV_0053,2022-11-30 17:52:27
,wl-rdm,90,239198,0.0-6.82-0.82,0.0,89.0,,,,,,,[],,,,,,87.9,1.0,i,1.0,True,752.0000000037253,39.0,60.0,40.0,False,,265.2705023239855,[],"[640, 400]",ColorTask,15.0,83.0,,,HRV,HRV_0053,2022-11-30 17:52:27
,wl-rdm,91,241598,0.0-6.83-0.83,0.0,90.0,,,,,,,[],,,,,,56.4,1.0,i,1.0,True,997.9000000022352,51.0,60.0,40.0,False,,334.04799198409677,[],"[640, 400]",ColorTask,16.0,84.0,,,HRV,HRV_0053,2022-11-30 17:52:27
,wl-rdm,92,243880,0.0-6.84-0.84,0.0,91.0,,,,,,,[],,,,,,62.5,1.0,i,1.0,True,1000.5999999977648,53.0,60.0,40.0,False,,204.8214092250806,[],"[640, 400]",ColorTask,17.0,85.0,,,HRV,HRV_0053,2022-11-30 17:52:27
,wl-rdm,93,246227,0.0-6.85-0.85,0.0,92.0,,,,,,,[],,,,,,87.9,0.0,u,0.0,True,949.8000000007451,50.0,60.0,40.0,False,,321.7502972131803,[],"[640, 400]",ColorTask,18.0,86.0,,,HRV,HRV_0053,2022-11-30 17:52:27
,wl-rdm,94,248532,0.0-6.86-0.86,0.0,93.0,,,,,,,[],,,,,,50.0,0.0,i,1.0,False,837.8000000007451,44.0,60.0,40.0,False,,382.3999906917111,[],"[640, 400]",ColorTask,17.0,87.0,,,HRV,HRV_0053,2022-11-30 17:52:27
,wl-rdm,95,250627,0.0-6.87-0.87,0.0,94.0,,,,,,,[],,,,,,53.2,1.0,i,1.0,True,767.6000000014901,40.0,60.0,40.0,False,,252.2673007777278,[],"[640, 400]",ColorTask,18.0,88.0,,,HRV,HRV_0053,2022-11-30 17:52:27
,wl-rdm,96,252871,0.0-6.88-0.88,0.0,95.0,,,,,,,[],,,,,,53.2,1.0,i,1.0,True,854.8999999985099,46.0,60.0,40.0,False,,316.6311737962085,[],"[640, 400]",ColorTask,19.0,89.0,,,HRV,HRV_0053,2022-11-30 17:52:27
,wl-rdm,97,255183,0.0-6.89-0.89,0.0,96.0,,,,,,,[],,,,,,53.2,1.0,i,1.0,True,962.4000000022352,51.0,60.0,40.0,False,,284.8650034518693,[],"[640, 400]",ColorTask,20.0,90.0,,,HRV,HRV_0053,2022-11-30 17:52:27
,wl-rdm,98,257385,0.0-6.90-0.90,0.0,97.0,,,,,,,[],,,,,,87.9,1.0,i,1.0,True,753.1999999992549,39.0,60.0,40.0,False,,371.3842920985252,[],"[640, 400]",ColorTask,21.0,91.0,,,HRV,HRV_0053,2022-11-30 17:52:27
,wl-rdm,99,259852,0.0-6.91-0.91,0.0,98.0,,,,,,,[],,,,,,62.5,1.0,i,1.0,True,1066.4000000022352,57.0,60.0,40.0,False,,330.94833852297756,[],"[640, 400]",ColorTask,22.0,92.0,,,HRV,HRV_0053,2022-11-30 17:52:27
,wl-rdm,100,262171,0.0-6.92-0.92,0.0,99.0,,,,,,,[],,,,,,62.5,1.0,i,1.0,True,1039.9000000022352,53.0,60.0,40.0,False,,220.1227594771279,[],"[640, 400]",ColorTask,23.0,93.0,,,HRV,HRV_0053,2022-11-30 17:52:27
,wl-rdm,101,264357,0.0-6.93-0.93,0.0,100.0,,,,,,,[],,,,,,87.9,0.0,u,0.0,True,809.1000000014901,42.0,60.0,40.0,False,,315.5999370746762,[],"[640, 400]",ColorTask,24.0,94.0,,,HRV,HRV_0053,2022-11-30 17:52:27
,wl-rdm,102,266595,0.0-6.94-0.94,0.0,101.0,,,,,,,[],,,,,,56.4,0.0,i,1.0,False,979.1000000014901,50.0,60.0,40.0,False,,209.67028246698686,[],"[640, 400]",ColorTask,23.0,95.0,,,HRV,HRV_0053,2022-11-30 17:52:27
,wl-rdm,103,268925,0.0-6.95-0.95,0.0,102.0,,,,,,,[],,,,,,53.2,1.0,i,1.0,True,1018.5,51.0,60.0,40.0,False,,243.94258927723874,[],"[640, 400]",ColorTask,24.0,96.0,,,HRV,HRV_0053,2022-11-30 17:52:27
,wl-rdm,104,271331,0.0-6.96-0.96,0.0,103.0,,,,,,,[],,,,,,53.2,1.0,i,1.0,True,1036.199999999255,51.0,60.0,40.0,False,,286.47598386271284,[],"[640, 400]",ColorTask,25.0,97.0,,,HRV,HRV_0053,2022-11-30 17:52:27
,wl-rdm,105,273653,0.0-6.97-0.97,0.0,104.0,,,,,,,[],,,,,,73.6,0.0,i,1.0,False,1016.6000000014901,53.0,60.0,40.0,False,,212.8539721944337,[],"[640, 400]",ColorTask,24.0,98.0,,,HRV,HRV_0053,2022-11-30 17:52:27
,wl-rdm,106,275937,0.0-6.98-0.98,0.0,105.0,,,,,,,[],,,,,,50.0,1.0,u,0.0,False,912.8999999985099,44.0,60.0,40.0,False,,297.1749152385833,[],"[640, 400]",ColorTask,23.0,99.0,,,HRV,HRV_0053,2022-11-30 17:52:27
,wl-rdm,107,278360,0.0-6.99-0.99,0.0,106.0,,,,,,,[],,,,,,56.4,0.0,u,0.0,True,952.8000000007451,50.0,60.0,40.0,False,,390.0197025603894,[],"[640, 400]",ColorTask,24.0,100.0,,,HRV,HRV_0053,2022-11-30 17:52:27
,wl-rdm,108,280598,0.0-6.100-0.100,0.0,107.0,,,,,,,[],,,,,,73.6,0.0,i,1.0,False,807.5,42.0,60.0,40.0,False,,329.73707026081235,[],"[640, 400]",ColorTask,23.0,101.0,,,HRV,HRV_0053,2022-11-30 17:52:27
,wl-rdm,109,282709,0.0-6.101-0.101,0.0,108.0,,,,,,,[],,,,,,50.0,1.0,u,0.0,False,767.3000000007451,40.0,60.0,40.0,False,,248.32090351080586,[],"[640, 400]",ColorTask,22.0,102.0,,,HRV,HRV_0053,2022-11-30 17:52:27
,wl-rdm,110,284951,0.0-6.102-0.102,0.0,109.0,,,,,,,[],,,,,,87.9,1.0,i,1.0,True,958.0,49.0,60.0,40.0,False,,218.83558443118872,[],"[640, 400]",ColorTask,23.0,103.0,,,HRV,HRV_0053,2022-11-30 17:52:27
,wl-rdm,111,287119,0.0-6.103-0.103,0.0,110.0,,,,,,,[],,,,,,56.4,1.0,i,1.0,True,815.3000000007451,41.0,60.0,40.0,False,,278.23290067869567,[],"[640, 400]",ColorTask,24.0,104.0,,,HRV,HRV_0053,2022-11-30 17:52:27
,wl-rdm,112,289102,0.0-6.104-0.104,0.0,111.0,,,,,,,[],,,,,,73.6,1.0,i,1.0,True,667.5000000037253,36.0,60.0,40.0,False,,274.6543332073884,[],"[640, 400]",ColorTask,25.0,105.0,,,HRV,HRV_0053,2022-11-30 17:52:27
,wl-rdm,113,291111,0.0-6.105-0.105,0.0,112.0,,,,,,,[],,,,,,56.4,0.0,i,1.0,False,717.8000000007451,37.0,60.0,40.0,False,,219.35129216532803,[],"[640, 400]",ColorTask,24.0,106.0,,,HRV,HRV_0053,2022-11-30 17:52:27
,wl-rdm,114,293319,0.0-6.106-0.106,0.0,113.0,,,,,,,[],,,,,,56.4,1.0,i,1.0,True,743.1000000014901,38.0,60.0,40.0,False,,396.4216036258127,[],"[640, 400]",ColorTask,25.0,107.0,,,HRV,HRV_0053,2022-11-30 17:52:27
,wl-rdm,115,295381,0.0-6.107-0.107,0.0,114.0,,,,,,,[],,,,,,53.2,1.0,i,1.0,True,665.6000000014901,35.0,60.0,40.0,False,,318.98862111750526,[],"[640, 400]",ColorTask,26.0,108.0,,,HRV,HRV_0053,2022-11-30 17:52:27
,wl-rdm,116,297794,0.0-6.108-0.108,0.0,115.0,,,,,,,[],,,,,,87.9,0.0,u,0.0,True,1062.1000000014901,56.0,60.0,40.0,False,,272.95789571692364,[],"[640, 400]",ColorTask,27.0,109.0,,,HRV,HRV_0053,2022-11-30 17:52:27
,wl-rdm,117,300043,0.0-6.109-0.109,0.0,116.0,,,,,,,[],,,,,,56.4,1.0,i,1.0,True,937.0,48.0,60.0,40.0,False,,234.68930345374855,[],"[640, 400]",ColorTask,28.0,110.0,,,HRV,HRV_0053,2022-11-30 17:52:27
,wl-html-keyboard-response,118,322524,0.0-7.0-0.0,1.0,116.0,,,,,,,,20475.10000000149,1.0,0,,,,,,,,,,,,True,undefinedblurEvent ,,,,,,,,,HRV,HRV_0053,2022-11-30 17:52:27
,wl-rdm,119,324702,0.0-8.0-0.0,1.0,117.0,,,,,,,[],,,,,,53.2,0.0,i,1.0,False,865.8999999985099,42.0,60.0,40.0,False,,239.19184278723074,[],"[640, 400]",ColorTask,27.0,1.0,,,HRV,HRV_0053,2022-11-30 17:52:27
,wl-rdm,120,326954,0.0-8.1-0.1,1.0,118.0,,,,,,,[],,,,,,73.6,1.0,i,1.0,True,798.3999999985099,41.0,60.0,40.0,False,,380.2193829052834,[],"[640, 400]",ColorTask,28.0,2.0,,,HRV,HRV_0053,2022-11-30 17:52:27
,wl-rdm,121,329270,0.0-8.2-0.2,1.0,119.0,,,,,,,[],,,,,,56.4,0.0,u,0.0,True,881.4000000022352,45.0,60.0,40.0,False,,362.56220290177225,[],"[640, 400]",ColorTask,29.0,3.0,,,HRV,HRV_0053,2022-11-30 17:52:27
,wl-rdm,122,331506,0.0-8.3-0.3,1.0,120.0,,,,,,,[],,,,,,50.0,0.0,i,1.0,False,887.1000000014901,47.0,60.0,40.0,False,,278.43616338418065,[],"[640, 400]",ColorTask,28.0,4.0,,,HRV,HRV_0053,2022-11-30 17:52:27
,wl-rdm,123,333641,0.0-8.4-0.4,1.0,121.0,,,,,,,[],,,,,,50.0,1.0,u,0.0,False,826.4000000022352,42.0,60.0,40.0,False,,236.71553058200442,[],"[640, 400]",ColorTask,27.0,5.0,,,HRV,HRV_0053,2022-11-30 17:52:27
,wl-rdm,124,335918,0.0-8.5-0.5,1.0,122.0,,,,,,,[],,,,,,50.0,0.0,i,1.0,False,942.8000000007451,48.0,60.0,40.0,False,,262.04134286174246,[],"[640, 400]",ColorTask,26.0,6.0,,,HRV,HRV_0053,2022-11-30 17:52:27
,wl-rdm,125,338173,0.0-8.6-0.6,1.0,123.0,,,,,,,[],,,,,,53.2,0.0,i,1.0,False,950.0,50.0,60.0,40.0,False,,250.89902951256994,[],"[640, 400]",ColorTask,25.0,7.0,,,HRV,HRV_0053,2022-11-30 17:52:27
,wl-rdm,126,340455,0.0-8.7-0.7,1.0,124.0,,,,,,,[],,,,,,62.5,1.0,i,1.0,True,921.5,45.0,60.0,40.0,False,,299.21354611818845,[],"[640, 400]",ColorTask,26.0,8.0,,,HRV,HRV_0053,2022-11-30 17:52:27
,wl-rdm,127,342697,0.0-8.8-0.8,1.0,125.0,,,,,,,[],,,,,,87.9,1.0,i,1.0,True,830.2000000029802,44.0,60.0,40.0,False,,347.06055191379346,[],"[640, 400]",ColorTask,27.0,9.0,,,HRV,HRV_0053,2022-11-30 17:52:27
,wl-rdm,128,345010,0.0-8.9-0.9,1.0,126.0,,,,,,,[],,,,,,53.2,0.0,u,0.0,True,887.4000000022352,46.0,60.0,40.0,False,,333.0772652060192,[],"[640, 400]",ColorTask,28.0,10.0,,,HRV,HRV_0053,2022-11-30 17:52:27
,wl-rdm,129,347531,0.0-8.10-0.10,1.0,127.0,,,,,,,[],,,,,,53.2,1.0,i,1.0,True,1115.800000000745,56.0,60.0,40.0,False,,345.2417895077507,[],"[640, 400]",ColorTask,29.0,11.0,,,HRV,HRV_0053,2022-11-30 17:52:27
,wl-rdm,130,349619,0.0-8.11-0.11,1.0,128.0,,,,,,,[],,,,,,73.6,1.0,i,1.0,True,785.4000000022352,41.0,60.0,40.0,False,,236.2268109426286,[],"[640, 400]",ColorTask,30.0,12.0,,,HRV,HRV_0053,2022-11-30 17:52:27
,wl-rdm,131,351591,0.0-8.12-0.12,1.0,129.0,,,,,,,[],,,,,,62.5,1.0,i,1.0,True,610.0,32.0,60.0,40.0,False,,297.48873976107564,[],"[640, 400]",ColorTask,31.0,13.0,,,HRV,HRV_0053,2022-11-30 17:52:27
,wl-rdm,132,353384,0.0-8.13-0.13,1.0,130.0,,,,,,,[],,,,,,53.2,0.0,i,1.0,False,423.0,22.0,60.0,40.0,False,,273.62970692052545,[],"[640, 400]",ColorTask,30.0,14.0,,,HRV,HRV_0053,2022-11-30 17:52:27
,wl-rdm,133,354935,0.0-8.14-0.14,1.0,131.0,,,,,,,[],,,,,,87.9,0.0,i,1.0,False,201.39999999850988,10.0,60.0,40.0,False,,286.17003158065563,[],"[640, 400]",ColorTask,29.0,15.0,,,HRV,HRV_0053,2022-11-30 17:52:27
,wl-rdm,134,356346,0.0-8.15-0.15,1.0,131.0,,,,,,,[],,,,,,53.2,0.0,u,,,867.8999999985099,0.0,60.0,40.0,True,too_early ,374.559810733451,[],"[640, 400]",ColorTask,28.0,16.0,,,HRV,HRV_0053,2022-11-30 17:52:27
,wl-rdm,135,358139,0.0-8.16-0.16,1.0,132.0,,,,,,,[],,,,,,50.0,1.0,i,1.0,True,314.69999999925494,17.0,60.0,40.0,False,,399.56575267185235,[],"[640, 400]",ColorTask,29.0,17.0,,,HRV,HRV_0053,2022-11-30 17:52:27
,wl-rdm,136,359835,0.0-8.17-0.17,1.0,133.0,,,,,,,[],,,,,,56.4,1.0,i,1.0,True,325.29999999701977,16.0,60.0,40.0,False,,305.71334390167027,[],"[640, 400]",ColorTask,30.0,18.0,,,HRV,HRV_0053,2022-11-30 17:52:27
,wl-rdm,137,361624,0.0-8.18-0.18,1.0,134.0,,,,,,,[],,,,,,62.5,0.0,i,1.0,False,348.5,18.0,60.0,40.0,False,,376.2821005646198,[],"[640, 400]",ColorTask,29.0,19.0,,,HRV,HRV_0053,2022-11-30 17:52:27
,wl-rdm,138,363417,0.0-8.19-0.19,1.0,135.0,,,,,,,[],,,,,,50.0,1.0,u,0.0,False,384.0,20.0,60.0,40.0,False,,350.65491630980387,[],"[640, 400]",ColorTask,28.0,20.0,,,HRV,HRV_0053,2022-11-30 17:52:27
,wl-rdm,139,365086,0.0-8.20-0.20,1.0,136.0,,,,,,,[],,,,,,87.9,1.0,i,1.0,True,350.0000000037253,18.0,60.0,40.0,False,,245.1851377466087,[],"[640, 400]",ColorTask,29.0,21.0,,,HRV,HRV_0053,2022-11-30 17:52:27
,wl-rdm,140,366707,0.0-8.21-0.21,1.0,137.0,,,,,,,[],,,,,,62.5,1.0,i,1.0,True,189.20000000298023,10.0,60.0,40.0,False,,354.6954717136473,[],"[640, 400]",ColorTask,30.0,22.0,,,HRV,HRV_0053,2022-11-30 17:52:27
,wl-rdm,141,368388,0.0-8.22-0.22,1.0,138.0,,,,,,,[],,,,,,62.5,1.0,i,1.0,True,318.19999999925494,17.0,60.0,40.0,False,,299.79438665799677,[],"[640, 400]",ColorTask,31.0,23.0,,,HRV,HRV_0053,2022-11-30 17:52:27
,wl-rdm,142,370077,0.0-8.23-0.23,1.0,139.0,,,,,,,[],,,,,,56.4,0.0,i,1.0,False,331.0000000037253,17.0,60.0,40.0,False,,303.5312476269722,[],"[640, 400]",ColorTask,30.0,24.0,,,HRV,HRV_0053,2022-11-30 17:52:27
,wl-rdm,143,371733,0.0-8.24-0.24,1.0,140.0,,,,,,,[],,,,,,53.2,1.0,i,1.0,True,283.80000000074506,14.0,60.0,40.0,False,,286.1527404981454,[],"[640, 400]",ColorTask,31.0,25.0,,,HRV,HRV_0053,2022-11-30 17:52:27
,wl-rdm,144,373300,0.0-8.25-0.25,1.0,141.0,,,,,,,[],,,,,,56.4,0.0,i,1.0,False,277.8999999985099,14.0,60.0,40.0,False,,216.3692326335179,[],"[640, 400]",ColorTask,30.0,26.0,,,HRV,HRV_0053,2022-11-30 17:52:27
,wl-rdm,145,374917,0.0-8.26-0.26,1.0,142.0,,,,,,,[],,,,,,73.6,0.0,i,1.0,False,247.79999999701977,12.0,60.0,40.0,False,,288.33587041327877,[],"[640, 400]",ColorTask,29.0,27.0,,,HRV,HRV_0053,2022-11-30 17:52:27
,wl-rdm,146,376698,0.0-8.27-0.27,1.0,143.0,,,,,,,[],,,,,,56.4,0.0,u,0.0,True,317.1000000014901,16.0,60.0,40.0,False,,374.9371382654956,[],"[640, 400]",ColorTask,30.0,28.0,,,HRV,HRV_0053,2022-11-30 17:52:27
,wl-rdm,147,378362,0.0-8.28-0.28,1.0,144.0,,,,,,,[],,,,,,56.4,0.0,u,0.0,True,320.5999999977648,17.0,60.0,40.0,False,,276.2999857471708,[],"[640, 400]",ColorTask,31.0,29.0,,,HRV,HRV_0053,2022-11-30 17:52:27
,wl-rdm,148,380012,0.0-8.29-0.29,1.0,145.0,,,,,,,[],,,,,,62.5,0.0,u,0.0,True,314.5999999977648,17.0,60.0,40.0,False,,270.2493911441142,[],"[640, 400]",ColorTask,32.0,30.0,,,HRV,HRV_0053,2022-11-30 17:52:27
,wl-rdm,149,381563,0.0-8.30-0.30,1.0,146.0,,,,,,,[],,,,,,87.9,1.0,u,0.0,False,248.39999999850988,12.0,60.0,40.0,False,,212.19852147253619,[],"[640, 400]",ColorTask,31.0,31.0,,,HRV,HRV_0053,2022-11-30 17:52:27
,wl-rdm,150,383191,0.0-8.31-0.31,1.0,147.0,,,,,,,[],,,,,,56.4,1.0,i,1.0,True,196.9999999962747,11.0,60.0,40.0,False,,348.00924825833056,[],"[640, 400]",ColorTask,32.0,32.0,,,HRV,HRV_0053,2022-11-30 17:52:27
,wl-rdm,151,384815,0.0-8.32-0.32,1.0,148.0,,,,,,,[],,,,,,62.5,1.0,i,1.0,True,284.19999999925494,15.0,60.0,40.0,False,,259.0808814849429,[],"[640, 400]",ColorTask,33.0,33.0,,,HRV,HRV_0053,2022-11-30 17:52:27
,wl-rdm,152,386541,0.0-8.33-0.33,1.0,149.0,,,,,,,[],,,,,,73.6,1.0,i,1.0,True,366.8999999985099,19.0,60.0,40.0,False,,275.6251375916079,[],"[640, 400]",ColorTask,34.0,34.0,,,HRV,HRV_0053,2022-11-30 17:52:27
,wl-rdm,153,388191,0.0-8.34-0.34,1.0,150.0,,,,,,,[],,,,,,56.4,0.0,i,1.0,False,172.40000000223517,9.0,60.0,40.0,False,,378.4470282006801,[],"[640, 400]",ColorTask,33.0,35.0,,,HRV,HRV_0053,2022-11-30 17:52:27
,wl-rdm,154,389837,0.0-8.35-0.35,1.0,151.0,,,,,,,[],,,,,,62.5,1.0,u,0.0,False,312.19999999925494,15.0,60.0,40.0,False,,238.84224804846164,[],"[640, 400]",ColorTask,32.0,36.0,,,HRV,HRV_0053,2022-11-30 17:52:27
,wl-rdm,155,391443,0.0-8.36-0.36,1.0,152.0,,,,,,,[],,,,,,73.6,0.0,i,1.0,False,204.20000000298023,10.0,60.0,40.0,False,,333.74580496157597,[],"[640, 400]",ColorTask,31.0,37.0,,,HRV,HRV_0053,2022-11-30 17:52:27
,wl-rdm,156,392938,0.0-8.37-0.37,1.0,153.0,,,,,,,[],,,,,,53.2,0.0,u,0.0,True,122.50000000372529,6.0,60.0,40.0,False,,284.048328709642,[],"[640, 400]",ColorTask,32.0,38.0,,,HRV,HRV_0053,2022-11-30 17:52:27
,wl-rdm,157,394516,0.0-8.38-0.38,1.0,154.0,,,,,,,[],,,,,,62.5,0.0,u,0.0,True,165.10000000149012,8.0,60.0,40.0,False,,323.7214329131678,[],"[640, 400]",ColorTask,33.0,39.0,,,HRV,HRV_0053,2022-11-30 17:52:27
,wl-rdm,158,396005,0.0-8.39-0.39,1.0,155.0,,,,,,,[],,,,,,73.6,0.0,u,0.0,True,168.60000000149012,9.0,60.0,40.0,False,,246.1774453566558,[],"[640, 400]",ColorTask,34.0,40.0,,,HRV,HRV_0053,2022-11-30 17:52:27
,wl-rdm,159,397575,0.0-8.40-0.40,1.0,155.0,,,,,,,[],,,,,,73.6,1.0,u,0.0,False,97.89999999850988,5.0,60.0,40.0,True,too_early ,398.2934587628685,[],"[640, 400]",ColorTask,33.0,41.0,,,HRV,HRV_0053,2022-11-30 17:52:27
,wl-rdm,160,399240,0.0-8.41-0.41,1.0,156.0,,,,,,,[],,,,,,87.9,0.0,i,1.0,False,330.9000000022352,17.0,60.0,40.0,False,,256.90518665338794,[],"[640, 400]",ColorTask,32.0,42.0,,,HRV,HRV_0053,2022-11-30 17:52:27
,wl-rdm,161,400973,0.0-8.42-0.42,1.0,157.0,,,,,,,[],,,,,,73.6,1.0,u,0.0,False,355.19999999925494,19.0,60.0,40.0,False,,294.6342435005215,[],"[640, 400]",ColorTask,31.0,43.0,,,HRV,HRV_0053,2022-11-30 17:52:27
,wl-rdm,162,402590,0.0-8.43-0.43,1.0,158.0,,,,,,,[],,,,,,87.9,1.0,i,1.0,True,242.60000000149012,12.0,60.0,40.0,False,,314.53216893663426,[],"[640, 400]",ColorTask,32.0,44.0,,,HRV,HRV_0053,2022-11-30 17:52:27
,wl-rdm,163,404340,0.0-8.44-0.44,1.0,159.0,,,,,,,[],,,,,,50.0,1.0,i,1.0,True,341.5,17.0,60.0,40.0,False,,334.4435917638567,[],"[640, 400]",ColorTask,33.0,45.0,,,HRV,HRV_0053,2022-11-30 17:52:27
,wl-rdm,164,405935,0.0-8.45-0.45,1.0,160.0,,,,,,,[],,,,,,73.6,1.0,i,1.0,True,259.8999999985099,13.0,60.0,40.0,False,,290.2873837847892,[],"[640, 400]",ColorTask,34.0,46.0,,,HRV,HRV_0053,2022-11-30 17:52:27
,wl-rdm,165,407741,0.0-8.46-0.46,1.0,161.0,,,,,,,[],,,,,,87.9,1.0,i,1.0,True,472.30000000074506,25.0,60.0,40.0,False,,235.0329681642755,[],"[640, 400]",ColorTask,35.0,47.0,,,HRV,HRV_0053,2022-11-30 17:52:27
,wl-rdm,166,409463,0.0-8.47-0.47,1.0,162.0,,,,,,,[],,,,,,50.0,0.0,i,1.0,False,413.0000000037253,21.0,60.0,40.0,False,,239.71858850923127,[],"[640, 400]",ColorTask,34.0,48.0,,,HRV,HRV_0053,2022-11-30 17:52:27
,wl-rdm,167,411281,0.0-8.48-0.48,1.0,163.0,,,,,,,[],,,,,,50.0,0.0,u,0.0,True,471.3999999947846,23.0,60.0,40.0,False,,269.3419938861081,[],"[640, 400]",ColorTask,35.0,49.0,,,HRV,HRV_0053,2022-11-30 17:52:27
,wl-rdm,168,412898,0.0-8.49-0.49,1.0,164.0,,,,,,,[],,,,,,50.0,1.0,u,0.0,False,297.69999999925494,15.0,60.0,40.0,False,,254.6028684935286,[],"[640, 400]",ColorTask,34.0,50.0,,,HRV,HRV_0053,2022-11-30 17:52:27
,wl-rdm,169,414395,0.0-8.50-0.50,1.0,164.0,,,,,,,[],,,,,,50.0,1.0,i,1.0,True,78.70000000298023,3.0,60.0,40.0,True,too_early ,333.90290265129966,[],"[640, 400]",ColorTask,35.0,51.0,,,HRV,HRV_0053,2022-11-30 17:52:27
,wl-rdm,170,415889,0.0-8.51-0.51,1.0,164.0,,,,,,,[],,,,,,53.2,1.0,u,0.0,False,37.79999999701977,2.0,60.0,40.0,True,too_early ,389.3841473481831,[],"[640, 400]",ColorTask,34.0,52.0,,,HRV,HRV_0053,2022-11-30 17:52:27
,wl-rdm,171,417566,0.0-8.52-0.52,1.0,165.0,,,,,,,[],,,,,,56.4,1.0,i,1.0,True,224.39999999850988,11.0,60.0,40.0,False,,394.4092848821408,[],"[640, 400]",ColorTask,35.0,53.0,,,HRV,HRV_0053,2022-11-30 17:52:27
,wl-rdm,172,419187,0.0-8.53-0.53,1.0,166.0,,,,,,,[],,,,,,87.9,0.0,i,1.0,False,223.90000000223517,12.0,60.0,40.0,False,,340.2216716973606,[],"[640, 400]",ColorTask,34.0,54.0,,,HRV,HRV_0053,2022-11-30 17:52:27
,wl-rdm,173,420799,0.0-8.54-0.54,1.0,167.0,,,,,,,[],,,,,,73.6,0.0,u,0.0,True,307.5999999977648,16.0,60.0,40.0,False,,267.79803356805076,[],"[640, 400]",ColorTask,35.0,55.0,,,HRV,HRV_0053,2022-11-30 17:52:27
,wl-rdm,174,422536,0.0-8.55-0.55,1.0,168.0,,,,,,,[],,,,,,62.5,1.0,u,0.0,False,402.3999999985099,21.0,60.0,40.0,False,,266.3857838581996,[],"[640, 400]",ColorTask,34.0,56.0,,,HRV,HRV_0053,2022-11-30 17:52:27
,wl-rdm,175,424218,0.0-8.56-0.56,1.0,169.0,,,,,,,[],,,,,,87.9,1.0,i,1.0,True,377.19999999925494,20.0,60.0,40.0,False,,222.8424512456489,[],"[640, 400]",ColorTask,35.0,57.0,,,HRV,HRV_0053,2022-11-30 17:52:27
,wl-rdm,176,425870,0.0-8.57-0.57,1.0,170.0,,,,,,,[],,,,,,87.9,0.0,i,1.0,False,320.3999999985099,16.0,60.0,40.0,False,,237.10415652967095,[],"[640, 400]",ColorTask,34.0,58.0,,,HRV,HRV_0053,2022-11-30 17:52:27
,wl-rdm,177,427507,0.0-8.58-0.58,1.0,171.0,,,,,,,[],,,,,,50.0,1.0,u,0.0,False,302.1000000014901,16.0,60.0,40.0,False,,240.3878393686975,[],"[640, 400]",ColorTask,33.0,59.0,,,HRV,HRV_0053,2022-11-30 17:52:27
,wl-rdm,178,429018,0.0-8.59-0.59,1.0,172.0,,,,,,,[],,,,,,53.2,1.0,u,0.0,False,181.90000000223517,9.0,60.0,40.0,False,,278.83554312851544,[],"[640, 400]",ColorTask,32.0,60.0,,,HRV,HRV_0053,2022-11-30 17:52:27
,wl-rdm,179,430555,0.0-8.60-0.60,1.0,172.0,,,,,,,[],,,,,,56.4,1.0,i,1.0,True,66.10000000149012,3.0,60.0,40.0,True,too_early ,395.8497313235415,[],"[640, 400]",ColorTask,33.0,61.0,,,HRV,HRV_0053,2022-11-30 17:52:27
,wl-rdm,180,432172,0.0-8.61-0.61,1.0,173.0,,,,,,,[],,,,,,53.2,0.0,i,1.0,False,152.29999999701977,8.0,60.0,40.0,False,,398.14005490225895,[],"[640, 400]",ColorTask,32.0,62.0,,,HRV,HRV_0053,2022-11-30 17:52:27
,wl-rdm,181,433853,0.0-8.62-0.62,1.0,174.0,,,,,,,[],,,,,,56.4,1.0,i,1.0,True,231.10000000149012,12.0,60.0,40.0,False,,378.1766139932484,[],"[640, 400]",ColorTask,33.0,63.0,,,HRV,HRV_0053,2022-11-30 17:52:27
,wl-rdm,182,435552,0.0-8.63-0.63,1.0,175.0,,,,,,,[],,,,,,87.9,0.0,i,1.0,False,240.59999999776483,12.0,60.0,40.0,False,,382.7350320922575,[],"[640, 400]",ColorTask,32.0,64.0,,,HRV,HRV_0053,2022-11-30 17:52:27
,wl-rdm,183,437214,0.0-8.64-0.64,1.0,176.0,,,,,,,[],,,,,,73.6,0.0,u,0.0,True,370.3999999985099,17.0,60.0,40.0,False,,225.24799008473087,[],"[640, 400]",ColorTask,33.0,65.0,,,HRV,HRV_0053,2022-11-30 17:52:27
,wl-rdm,184,438935,0.0-8.65-0.65,1.0,177.0,,,,,,,[],,,,,,53.2,0.0,u,0.0,True,371.0000000037253,18.0,60.0,40.0,False,,281.9734567446898,[],"[640, 400]",ColorTask,34.0,66.0,,,HRV,HRV_0053,2022-11-30 17:52:27
,wl-rdm,185,440823,0.0-8.66-0.66,1.0,178.0,,,,,,,[],,,,,,73.6,1.0,i,1.0,True,479.0,24.0,60.0,40.0,False,,335.8572916086048,[],"[640, 400]",ColorTask,35.0,67.0,,,HRV,HRV_0053,2022-11-30 17:52:27
,wl-rdm,186,442664,0.0-8.67-0.67,1.0,179.0,,,,,,,[],,,,,,50.0,0.0,i,1.0,False,517.1999999992549,26.0,60.0,40.0,False,,244.960658788199,[],"[640, 400]",ColorTask,34.0,68.0,,,HRV,HRV_0053,2022-11-30 17:52:27
,wl-rdm,187,444249,0.0-8.68-0.68,1.0,180.0,,,,,,,[],,,,,,87.9,0.0,u,0.0,True,277.30000000074506,14.0,60.0,40.0,False,,234.84590813226623,[],"[640, 400]",ColorTask,35.0,69.0,,,HRV,HRV_0053,2022-11-30 17:52:27
,wl-rdm,188,446026,0.0-8.69-0.69,1.0,181.0,,,,,,,[],,,,,,53.2,1.0,u,0.0,False,349.1000000052154,17.0,60.0,40.0,False,,325.6697564974932,[],"[640, 400]",ColorTask,34.0,70.0,,,HRV,HRV_0053,2022-11-30 17:52:27
,wl-rdm,189,447516,0.0-8.70-0.70,1.0,181.0,,,,,,,[],,,,,,62.5,1.0,i,1.0,True,36.400000002235174,2.0,60.0,40.0,True,too_early ,361.1769071339816,[],"[640, 400]",ColorTask,35.0,71.0,,,HRV,HRV_0053,2022-11-30 17:52:27
,wl-rdm,190,449249,0.0-8.71-0.71,1.0,182.0,,,,,,,[],,,,,,73.6,1.0,i,1.0,True,406.9000000022352,20.0,60.0,40.0,False,,242.38291290486382,[],"[640, 400]",ColorTask,36.0,72.0,,,HRV,HRV_0053,2022-11-30 17:52:27
,wl-rdm,191,450958,0.0-8.72-0.72,1.0,183.0,,,,,,,[],,,,,,50.0,1.0,i,1.0,True,347.80000000074506,17.0,60.0,40.0,False,,300.4125987237645,[],"[640, 400]",ColorTask,37.0,73.0,,,HRV,HRV_0053,2022-11-30 17:52:27
,wl-rdm,192,452702,0.0-8.73-0.73,1.0,184.0,,,,,,,[],,,,,,73.6,0.0,i,1.0,False,433.0,22.0,60.0,40.0,False,,242.60286651618807,[],"[640, 400]",ColorTask,36.0,74.0,,,HRV,HRV_0053,2022-11-30 17:52:27
,wl-rdm,193,454420,0.0-8.74-0.74,1.0,185.0,,,,,,,[],,,,,,62.5,0.0,i,1.0,False,391.30000000074506,20.0,60.0,40.0,False,,261.9713980172342,[],"[640, 400]",ColorTask,35.0,75.0,,,HRV,HRV_0053,2022-11-30 17:52:27
,wl-rdm,194,456216,0.0-8.75-0.75,1.0,186.0,,,,,,,[],,,,,,53.2,0.0,u,0.0,True,349.3999999985099,18.0,60.0,40.0,False,,380.6346861345705,[],"[640, 400]",ColorTask,36.0,76.0,,,HRV,HRV_0053,2022-11-30 17:52:27
,wl-rdm,195,457940,0.0-8.76-0.76,1.0,187.0,,,,,,,[],,,,,,53.2,1.0,u,0.0,False,354.1000000014901,19.0,60.0,40.0,False,,293.1451031490402,[],"[640, 400]",ColorTask,35.0,77.0,,,HRV,HRV_0053,2022-11-30 17:52:27
,wl-rdm,196,459753,0.0-8.77-0.77,1.0,188.0,,,,,,,[],,,,,,56.4,1.0,i,1.0,True,538.2000000029802,28.0,60.0,40.0,False,,211.5305847476182,[],"[640, 400]",ColorTask,36.0,78.0,,,HRV,HRV_0053,2022-11-30 17:52:27
,wl-rdm,197,461488,0.0-8.78-0.78,1.0,189.0,,,,,,,[],,,,,,73.6,1.0,i,1.0,True,293.69999999925494,15.0,60.0,40.0,False,,381.0399594856726,[],"[640, 400]",ColorTask,37.0,79.0,,,HRV,HRV_0053,2022-11-30 17:52:27
,wl-rdm,198,463422,0.0-8.79-0.79,1.0,190.0,,,,,,,[],,,,,,62.5,0.0,i,1.0,False,588.7000000029802,31.0,60.0,40.0,False,,254.5341988171695,[],"[640, 400]",ColorTask,36.0,80.0,,,HRV,HRV_0053,2022-11-30 17:52:27
,wl-rdm,199,465471,0.0-8.80-0.80,1.0,191.0,,,,,,,[],,,,,,56.4,0.0,i,1.0,False,746.3000000007451,37.0,60.0,40.0,False,,224.0795454085374,[],"[640, 400]",ColorTask,35.0,81.0,,,HRV,HRV_0053,2022-11-30 17:52:27
,wl-rdm,200,467165,0.0-8.81-0.81,1.0,192.0,,,,,,,[],,,,,,50.0,0.0,u,0.0,True,405.19999999925494,18.0,60.0,40.0,False,,211.93958213493812,[],"[640, 400]",ColorTask,36.0,82.0,,,HRV,HRV_0053,2022-11-30 17:52:27
,wl-rdm,201,469106,0.0-8.82-0.82,1.0,193.0,,,,,,,[],,,,,,50.0,0.0,u,0.0,True,642.5,33.0,60.0,40.0,False,,229.58314681311765,[],"[640, 400]",ColorTask,37.0,83.0,,,HRV,HRV_0053,2022-11-30 17:52:27
,wl-rdm,202,470906,0.0-8.83-0.83,1.0,194.0,,,,,,,[],,,,,,62.5,1.0,u,0.0,False,348.69999999925494,18.0,60.0,40.0,False,,365.81220134687544,[],"[640, 400]",ColorTask,36.0,84.0,,,HRV,HRV_0053,2022-11-30 17:52:27
,wl-rdm,203,472627,0.0-8.84-0.84,1.0,195.0,,,,,,,[],,,,,,53.2,0.0,i,1.0,False,448.70000000298023,22.0,60.0,40.0,False,,206.9865441354877,[],"[640, 400]",ColorTask,35.0,85.0,,,HRV,HRV_0053,2022-11-30 17:52:27
,wl-rdm,204,474312,0.0-8.85-0.85,1.0,196.0,,,,,,,[],,,,,,87.9,0.0,i,1.0,False,314.69999999925494,17.0,60.0,40.0,False,,301.1601668420346,[],"[640, 400]",ColorTask,34.0,86.0,,,HRV,HRV_0053,2022-11-30 17:52:27
,wl-rdm,205,476058,0.0-8.86-0.86,1.0,197.0,,,,,,,[],,,,,,62.5,0.0,i,1.0,False,290.0,15.0,60.0,40.0,False,,352.84807318529397,[],"[640, 400]",ColorTask,33.0,87.0,,,HRV,HRV_0053,2022-11-30 17:52:27
,wl-rdm,206,477769,0.0-8.87-0.87,1.0,198.0,,,,,,,[],,,,,,50.0,0.0,u,0.0,True,345.5,17.0,60.0,40.0,False,,314.96584467549013,[],"[640, 400]",ColorTask,34.0,88.0,,,HRV,HRV_0053,2022-11-30 17:52:27
,wl-rdm,207,479395,0.0-8.88-0.88,1.0,199.0,,,,,,,[],,,,,,50.0,1.0,u,0.0,False,237.59999999776483,12.0,60.0,40.0,False,,319.3972794859758,[],"[640, 400]",ColorTask,33.0,89.0,,,HRV,HRV_0053,2022-11-30 17:52:27
,wl-rdm,208,481095,0.0-8.89-0.89,1.0,200.0,,,,,,,[],,,,,,53.2,1.0,u,0.0,False,448.0000000037253,23.0,60.0,40.0,False,,205.75148795403143,[],"[640, 400]",ColorTask,32.0,90.0,,,HRV,HRV_0053,2022-11-30 17:52:27
,wl-rdm,209,482837,0.0-8.90-0.90,1.0,201.0,,,,,,,[],,,,,,73.6,0.0,i,1.0,False,403.9000000022352,21.0,60.0,40.0,False,,296.0303189431593,[],"[640, 400]",ColorTask,31.0,91.0,,,HRV,HRV_0053,2022-11-30 17:52:27
,wl-rdm,210,484400,0.0-8.91-0.91,1.0,202.0,,,,,,,[],,,,,,87.9,1.0,i,1.0,True,279.9000000022352,13.0,60.0,40.0,False,,224.6112267064624,[],"[640, 400]",ColorTask,32.0,92.0,,,HRV,HRV_0053,2022-11-30 17:52:27
,wl-rdm,211,485931,0.0-8.92-0.92,1.0,202.0,,,,,,,[],,,,,,56.4,1.0,i,1.0,True,96.30000000074506,5.0,60.0,40.0,True,too_early ,368.36558745694583,[],"[640, 400]",ColorTask,33.0,93.0,,,HRV,HRV_0053,2022-11-30 17:52:27
,wl-rdm,212,487768,0.0-8.93-0.93,1.0,203.0,,,,,,,[],,,,,,87.9,0.0,u,0.0,True,533.1000000014901,26.0,60.0,40.0,False,,216.98324844756513,[],"[640, 400]",ColorTask,34.0,94.0,,,HRV,HRV_0053,2022-11-30 17:52:27
,wl-rdm,213,489500,0.0-8.94-0.94,1.0,204.0,,,,,,,[],,,,,,56.4,1.0,i,1.0,True,441.5,23.0,60.0,40.0,False,,205.2151368709117,[],"[640, 400]",ColorTask,35.0,95.0,,,HRV,HRV_0053,2022-11-30 17:52:27
,wl-rdm,214,491274,0.0-8.95-0.95,1.0,205.0,,,,,,,[],,,,,,62.5,1.0,u,0.0,False,429.4000000022352,21.0,60.0,40.0,False,,266.51588142180196,[],"[640, 400]",ColorTask,34.0,96.0,,,HRV,HRV_0053,2022-11-30 17:52:27
,wl-rdm,215,493058,0.0-8.96-0.96,1.0,206.0,,,,,,,[],,,,,,56.4,0.0,i,1.0,False,423.4000000022352,21.0,60.0,40.0,False,,305.96619464114207,[],"[640, 400]",ColorTask,33.0,97.0,,,HRV,HRV_0053,2022-11-30 17:52:27
,wl-rdm,216,494736,0.0-8.97-0.97,1.0,207.0,,,,,,,[],,,,,,56.4,0.0,u,0.0,True,376.80000000447035,19.0,60.0,40.0,False,,237.6305654834694,[],"[640, 400]",ColorTask,34.0,98.0,,,HRV,HRV_0053,2022-11-30 17:52:27
,wl-rdm,217,496355,0.0-8.98-0.98,1.0,208.0,,,,,,,[],,,,,,53.2,1.0,u,0.0,False,344.4000000022352,18.0,60.0,40.0,False,,207.75460875049419,[],"[640, 400]",ColorTask,33.0,99.0,,,HRV,HRV_0053,2022-11-30 17:52:27
,wl-rdm,218,498048,0.0-8.99-0.99,1.0,209.0,,,,,,,[],,,,,,56.4,1.0,i,1.0,True,290.80000000074506,16.0,60.0,40.0,False,,325.23194339947315,[],"[640, 400]",ColorTask,34.0,100.0,,,HRV,HRV_0053,2022-11-30 17:52:27
,wl-rdm,219,499559,0.0-8.100-0.100,1.0,210.0,,,,,,,[],,,,,,56.4,1.0,i,1.0,True,210.10000000149012,11.0,60.0,40.0,False,,235.17549923664026,[],"[640, 400]",ColorTask,35.0,101.0,,,HRV,HRV_0053,2022-11-30 17:52:27
,wl-rdm,220,501172,0.0-8.101-0.101,1.0,211.0,,,,,,,[],,,,,,53.2,1.0,i,1.0,True,328.30000000074506,17.0,60.0,40.0,False,,214.30476361196537,[],"[640, 400]",ColorTask,36.0,102.0,,,HRV,HRV_0053,2022-11-30 17:52:27
,wl-rdm,221,502661,0.0-8.102-0.102,1.0,212.0,,,,,,,[],,,,,,87.9,0.0,i,1.0,False,224.20000000298023,12.0,60.0,40.0,False,,201.98957874333954,[],"[640, 400]",ColorTask,35.0,103.0,,,HRV,HRV_0053,2022-11-30 17:52:27
,wl-rdm,222,504195,0.0-8.103-0.103,1.0,213.0,,,,,,,[],,,,,,56.4,1.0,u,0.0,False,238.30000000074506,12.0,60.0,40.0,False,,219.56951451660316,[],"[640, 400]",ColorTask,34.0,104.0,,,HRV,HRV_0053,2022-11-30 17:52:27
,wl-rdm,223,505771,0.0-8.104-0.104,1.0,214.0,,,,,,,[],,,,,,73.6,0.0,u,0.0,True,283.0999999977648,14.0,60.0,40.0,False,,243.260934141276,[],"[640, 400]",ColorTask,35.0,105.0,,,HRV,HRV_0053,2022-11-30 17:52:27
,wl-rdm,224,507296,0.0-8.105-0.105,1.0,215.0,,,,,,,[],,,,,,73.6,0.0,u,0.0,True,237.60000000149012,12.0,60.0,40.0,False,,202.49921341354124,[],"[640, 400]",ColorTask,36.0,106.0,,,HRV,HRV_0053,2022-11-30 17:52:27
,wl-rdm,225,508793,0.0-8.106-0.106,1.0,216.0,,,,,,,[],,,,,,62.5,0.0,i,1.0,False,213.30000000074506,11.0,60.0,40.0,False,,225.82082625046075,[],"[640, 400]",ColorTask,35.0,107.0,,,HRV,HRV_0053,2022-11-30 17:52:27
,wl-rdm,226,510290,0.0-8.107-0.107,1.0,216.0,,,,,,,[],,,,,,50.0,1.0,i,1.0,True,57.600000001490116,3.0,60.0,40.0,True,too_early ,367.6638737487259,[],"[640, 400]",ColorTask,36.0,108.0,,,HRV,HRV_0053,2022-11-30 17:52:27
,wl-rdm,227,512219,0.0-8.108-0.108,1.0,217.0,,,,,,,[],,,,,,62.5,0.0,i,1.0,False,483.19999999925494,25.0,60.0,40.0,False,,364.938519517845,[],"[640, 400]",ColorTask,35.0,109.0,,,HRV,HRV_0053,2022-11-30 17:52:27
,wl-rdm,228,513906,0.0-8.109-0.109,1.0,218.0,,,,,,,[],,,,,,50.0,1.0,u,0.0,False,378.19999999925494,20.0,60.0,40.0,False,,224.4867186234244,[],"[640, 400]",ColorTask,34.0,110.0,,,HRV,HRV_0053,2022-11-30 17:52:27
,wl-rdm,229,515573,0.0-8.110-0.110,1.0,219.0,,,,,,,[],,,,,,53.2,1.0,i,1.0,True,215.89999999850988,11.0,60.0,40.0,False,,382.10327041518417,[],"[640, 400]",ColorTask,35.0,111.0,,,HRV,HRV_0053,2022-11-30 17:52:27
,wl-rdm,230,517147,0.0-8.111-0.111,1.0,220.0,,,,,,,[],,,,,,62.5,0.0,i,1.0,False,138.39999999850988,7.0,60.0,40.0,False,,385.872846710032,[],"[640, 400]",ColorTask,34.0,112.0,,,HRV,HRV_0053,2022-11-30 17:52:27
,wl-rdm,231,518768,0.0-8.112-0.112,1.0,221.0,,,,,,,[],,,,,,87.9,1.0,u,0.0,False,228.30000000074506,12.0,60.0,40.0,False,,317.14596292917713,[],"[640, 400]",ColorTask,33.0,113.0,,,HRV,HRV_0053,2022-11-30 17:52:27
,wl-rdm,232,520335,0.0-8.113-0.113,1.0,222.0,,,,,,,[],,,,,,73.6,1.0,u,0.0,False,134.20000000298023,6.0,60.0,40.0,False,,339.0704216541756,[],"[640, 400]",ColorTask,32.0,114.0,,,HRV,HRV_0053,2022-11-30 17:52:27
,wl-rdm,233,521956,0.0-8.114-0.114,1.0,223.0,,,,,,,[],,,,,,87.9,1.0,i,1.0,True,347.1000000014901,17.0,60.0,40.0,False,,229.35410839111705,[],"[640, 400]",ColorTask,33.0,115.0,,,HRV,HRV_0053,2022-11-30 17:52:27
,wl-rdm,234,523587,0.0-8.115-0.115,1.0,224.0,,,,,,,[],,,,,,50.0,0.0,i,1.0,False,342.80000000074506,18.0,60.0,40.0,False,,215.81772326170721,[],"[640, 400]",ColorTask,32.0,116.0,,,HRV,HRV_0053,2022-11-30 17:52:27
,wl-html-button-response,235,527585,0.0-9.0-0.0,,,,,,,,,,3994.800000000745,,0,,,,,,,,,,,,,,,,,,,,<h3>End of this session. Thank you!</h3><br>,['Close window'],HRV,HRV_0053,2022-11-30 17:52:27
