trialN,stimuli,trialStartTime,trialStartTime_UNIX,stimulus1,stimulus2,stimulus1Bid,stimulus2Bid,delta,selected,rt,rt_UNIX,rt_perfnow,receivedResponse,rsp,trialEndTime,trialDuration,trialEndTime_UNIX,trialDuration_UNIX,exp,subjectId,date
0,"[{'imgObject': {}, 'id': 'rigatoni and sauce', 'src': '/static/foodstim60/rigatoni and sauce.jpg', 'key': 'u', 'origWidth': 410, 'origHeight': 411, 'width': 410, 'height': 411, 'widthPercent': 0.45, 'rescaleHeight': False, 'trialN': 0, 'loaded': True, 'loadedTime': 6267.5, 'positionName': 'LEFT', 'positionCoords': [204.4, 194.5], 'bid': 8.03}, {'imgObject': {}, 'id': 'cherries', 'src': '/static/foodstim60/cherries.jpg', 'key': 'i', 'origWidth': 410, 'origHeight': 411, 'width': 410, 'height': 411, 'widthPercent': 0.45, 'rescaleHeight': False, 'trialN': 0, 'loaded': True, 'loadedTime': 6271.10000000149, 'positionName': 'RIGHT', 'positionCoords': [665.6, 194.5], 'bid': 7.98}]",5657.699999999255,1669830080256,rigatoni and sauce,cherries,8.03,7.98,-0.049999999999998934,rigatoni and sauce,926.4000000022352,930,930.2000000029802,True,u,7092.199999999255,1434.5,1669830081690,1434,HRV,HRV_0053,2022-11-30 17:43:30
1,"[{'imgObject': {}, 'id': 'turkeysandwich', 'src': '/static/foodstim60/turkeysandwich.jpg', 'key': 'u', 'origWidth': 409, 'origHeight': 409, 'width': 409, 'height': 409, 'widthPercent': 0.45, 'rescaleHeight': False, 'trialN': 1, 'loaded': True, 'loadedTime': 7098.199999999255, 'positionName': 'LEFT', 'positionCoords': [205.4, 195.5], 'bid': 7.01}, {'imgObject': {}, 'id': 'mango', 'src': '/static/foodstim60/mango.jpg', 'key': 'i', 'origWidth': 411, 'origHeight': 411, 'width': 411, 'height': 411, 'widthPercent': 0.45, 'rescaleHeight': False, 'trialN': 1, 'loaded': True, 'loadedTime': 7101.900000002235, 'positionName': 'RIGHT', 'positionCoords': [665.6, 194.5], 'bid': 8.4}]",7092.800000000745,1669830081691,turkeysandwich,mango,7.01,8.4,1.3900000000000006,turkeysandwich,352.30000000074506,358,357.80000000074506,True,u,7952.199999999255,859.3999999985099,1669830082550,859,HRV,HRV_0053,2022-11-30 17:43:30
2,"[{'imgObject': {}, 'id': 'raisin bran w milk', 'src': '/static/foodstim60/raisin bran w milk.jpg', 'key': 'u', 'origWidth': 411, 'origHeight': 411, 'width': 411, 'height': 411, 'widthPercent': 0.45, 'rescaleHeight': False, 'trialN': 2, 'loaded': True, 'loadedTime': 7958.199999999255, 'positionName': 'LEFT', 'positionCoords': [203.4, 194.5], 'bid': 8.26}, {'imgObject': {}, 'id': 'seaweed', 'src': '/static/foodstim60/seaweed.jpg', 'key': 'i', 'origWidth': 410, 'origHeight': 410, 'width': 410, 'height': 410, 'widthPercent': 0.45, 'rescaleHeight': False, 'trialN': 2, 'loaded': True, 'loadedTime': 7962.10000000149, 'positionName': 'RIGHT', 'positionCoords': [665.6, 195], 'bid': 7.9}]",7952.800000000745,1669830082551,raisin bran w milk,seaweed,8.26,7.9,-0.35999999999999943,raisin bran w milk,343.19999999925494,348,348.19999999925494,True,u,8801.199999999255,848.3999999985099,1669830083399,848,HRV,HRV_0053,2022-11-30 17:43:30
3,"[{'imgObject': {}, 'id': 'mac & cheese', 'src': '/static/foodstim60/mac & cheese.jpg', 'key': 'u', 'origWidth': 410, 'origHeight': 410, 'width': 410, 'height': 410, 'widthPercent': 0.45, 'rescaleHeight': False, 'trialN': 3, 'loaded': True, 'loadedTime': 8804.699999999255, 'positionName': 'LEFT', 'positionCoords': [204.4, 195], 'bid': 7.01}, {'imgObject': {}, 'id': 'kiwi', 'src': '/static/foodstim60/kiwi.jpg', 'key': 'i', 'origWidth': 410, 'origHeight': 410, 'width': 410, 'height': 410, 'widthPercent': 0.45, 'rescaleHeight': False, 'trialN': 3, 'loaded': True, 'loadedTime': 8805, 'positionName': 'RIGHT', 'positionCoords': [665.6, 195], 'bid': 6.390000000000001}]",8801.5,1669830083400,mac & cheese,kiwi,7.01,6.390000000000001,-0.6199999999999992,mac & cheese,339.5,343,343.1000000014901,True,u,9646.10000000149,844.6000000014901,1669830084244,844,HRV,HRV_0053,2022-11-30 17:43:30
4,"[{'imgObject': {}, 'id': 'eggs', 'src': '/static/foodstim60/eggs.jpg', 'key': 'u', 'origWidth': 409, 'origHeight': 409, 'width': 409, 'height': 409, 'widthPercent': 0.45, 'rescaleHeight': False, 'trialN': 4, 'loaded': True, 'loadedTime': 9652.10000000149, 'positionName': 'LEFT', 'positionCoords': [205.4, 195.5], 'bid': 7.6}, {'imgObject': {}, 'id': 'banana', 'src': '/static/foodstim60/banana.jpg', 'key': 'i', 'origWidth': 410, 'origHeight': 410, 'width': 410, 'height': 410, 'widthPercent': 0.45, 'rescaleHeight': False, 'trialN': 4, 'loaded': True, 'loadedTime': 9655.800000000745, 'positionName': 'RIGHT', 'positionCoords': [665.6, 195], 'bid': 7.56}]",9646.60000000149,1669830084245,eggs,banana,7.6,7.56,-0.040000000000000036,banana,337.19999999925494,342,341.80000000074506,True,i,10490.400000002235,843.8000000007451,1669830085089,844,HRV,HRV_0053,2022-11-30 17:43:30
5,"[{'imgObject': {}, 'id': 'bagel and cc', 'src': '/static/foodstim60/bagel and cc.jpg', 'key': 'u', 'origWidth': 410, 'origHeight': 410, 'width': 410, 'height': 410, 'widthPercent': 0.45, 'rescaleHeight': False, 'trialN': 5, 'loaded': True, 'loadedTime': 10496.5, 'positionName': 'LEFT', 'positionCoords': [204.4, 195], 'bid': 9.31}, {'imgObject': {}, 'id': 'cheerios', 'src': '/static/foodstim60/cheerios.jpg', 'key': 'i', 'origWidth': 409, 'origHeight': 410, 'width': 409, 'height': 410, 'widthPercent': 0.45, 'rescaleHeight': False, 'trialN': 5, 'loaded': True, 'loadedTime': 10500.199999999255, 'positionName': 'RIGHT', 'positionCoords': [665.6, 195], 'bid': 8.700000000000001}]",10490.900000002235,1669830085089,bagel and cc,cheerios,9.31,8.700000000000001,-0.6099999999999994,cheerios,374.0,381,380.3999999985099,True,i,11373.10000000149,882.1999999992549,1669830085971,882,HRV,HRV_0053,2022-11-30 17:43:30
6,"[{'imgObject': {}, 'id': 'roastedpotatoes', 'src': '/static/foodstim60/roastedpotatoes.jpg', 'key': 'u', 'origWidth': 409, 'origHeight': 410, 'width': 409, 'height': 410, 'widthPercent': 0.45, 'rescaleHeight': False, 'trialN': 6, 'loaded': True, 'loadedTime': 11378.400000002235, 'positionName': 'LEFT', 'positionCoords': [205.4, 195], 'bid': 8.32}, {'imgObject': {}, 'id': 'popsicles', 'src': '/static/foodstim60/popsicles.jpg', 'key': 'i', 'origWidth': 410, 'origHeight': 410, 'width': 410, 'height': 410, 'widthPercent': 0.45, 'rescaleHeight': False, 'trialN': 6, 'loaded': True, 'loadedTime': 11388.400000002235, 'positionName': 'RIGHT', 'positionCoords': [665.6, 195], 'bid': 8.51}]",11373.5,1669830085972,roastedpotatoes,popsicles,8.32,8.51,0.1899999999999995,popsicles,357.30000000074506,361,361.6000000014901,True,i,12235.800000000745,862.3000000007451,1669830086834,862,HRV,HRV_0053,2022-11-30 17:43:30
7,"[{'imgObject': {}, 'id': 'kiwi', 'src': '/static/foodstim60/kiwi.jpg', 'key': 'u', 'origWidth': 410, 'origHeight': 410, 'width': 410, 'height': 410, 'widthPercent': 0.45, 'rescaleHeight': False, 'trialN': 7, 'loaded': True, 'loadedTime': 12240.699999999255, 'positionName': 'LEFT', 'positionCoords': [204.4, 195], 'bid': 6.390000000000001}, {'imgObject': {}, 'id': 'chickenfingers', 'src': '/static/foodstim60/chickenfingers.jpg', 'key': 'i', 'origWidth': 410, 'origHeight': 410, 'width': 410, 'height': 410, 'widthPercent': 0.45, 'rescaleHeight': False, 'trialN': 7, 'loaded': True, 'loadedTime': 12244.199999999255, 'positionName': 'RIGHT', 'positionCoords': [665.6, 195], 'bid': 7.15}]",12236.300000000745,1669830086835,kiwi,chickenfingers,6.390000000000001,7.15,0.7599999999999998,chickenfingers,367.5,373,373.30000000074506,True,i,13113.400000002235,877.1000000014901,1669830087712,877,HRV,HRV_0053,2022-11-30 17:43:30
8,"[{'imgObject': {}, 'id': 'mac & cheese', 'src': '/static/foodstim60/mac & cheese.jpg', 'key': 'u', 'origWidth': 410, 'origHeight': 410, 'width': 410, 'height': 410, 'widthPercent': 0.45, 'rescaleHeight': False, 'trialN': 8, 'loaded': True, 'loadedTime': 13119, 'positionName': 'LEFT', 'positionCoords': [204.4, 195], 'bid': 7.01}, {'imgObject': {}, 'id': 'chicken nuggets2', 'src': '/static/foodstim60/chicken nuggets2.jpg', 'key': 'i', 'origWidth': 410, 'origHeight': 409, 'width': 410, 'height': 409, 'widthPercent': 0.45, 'rescaleHeight': False, 'trialN': 8, 'loaded': True, 'loadedTime': 13122.800000000745, 'positionName': 'RIGHT', 'positionCoords': [665.6, 195.5], 'bid': 8.39}]",13113.800000000745,1669830087712,mac & cheese,chicken nuggets2,7.01,8.39,1.3800000000000008,chicken nuggets2,283.80000000074506,289,289.5,True,i,13908.0,794.1999999992549,1669830088506,794,HRV,HRV_0053,2022-11-30 17:43:30
9,"[{'imgObject': {}, 'id': 'froot loops w milk', 'src': '/static/foodstim60/froot loops w milk.jpg', 'key': 'u', 'origWidth': 410, 'origHeight': 410, 'width': 410, 'height': 410, 'widthPercent': 0.45, 'rescaleHeight': False, 'trialN': 9, 'loaded': True, 'loadedTime': 13914.400000002235, 'positionName': 'LEFT', 'positionCoords': [204.4, 195], 'bid': 7.890000000000001}, {'imgObject': {}, 'id': 'olives', 'src': '/static/foodstim60/olives.jpg', 'key': 'i', 'origWidth': 410, 'origHeight': 410, 'width': 410, 'height': 410, 'widthPercent': 0.45, 'rescaleHeight': False, 'trialN': 9, 'loaded': True, 'loadedTime': 13918, 'positionName': 'RIGHT', 'positionCoords': [665.6, 195], 'bid': 8.21}]",13908.699999999255,1669830088507,froot loops w milk,olives,7.890000000000001,8.21,0.3200000000000003,olives,335.0,340,340.20000000298023,True,i,14754.199999999255,845.5,1669830089353,846,HRV,HRV_0053,2022-11-30 17:43:30
10,"[{'imgObject': {}, 'id': 'salmon', 'src': '/static/foodstim60/salmon.jpg', 'key': 'u', 'origWidth': 410, 'origHeight': 409, 'width': 410, 'height': 409, 'widthPercent': 0.45, 'rescaleHeight': False, 'trialN': 10, 'loaded': True, 'loadedTime': 14760, 'positionName': 'LEFT', 'positionCoords': [204.4, 195.5], 'bid': 8.57}, {'imgObject': {}, 'id': 'baked potato', 'src': '/static/foodstim60/baked potato.jpg', 'key': 'i', 'origWidth': 409, 'origHeight': 410, 'width': 409, 'height': 410, 'widthPercent': 0.45, 'rescaleHeight': False, 'trialN': 10, 'loaded': True, 'loadedTime': 14763.5, 'positionName': 'RIGHT', 'positionCoords': [665.6, 195], 'bid': 8.82}]",14754.699999999255,1669830089353,salmon,baked potato,8.57,8.82,0.25,baked potato,310.0,315,314.9000000022352,True,i,15569.900000002235,815.2000000029802,1669830090168,815,HRV,HRV_0053,2022-11-30 17:43:30
11,"[{'imgObject': {}, 'id': 'granola w milk', 'src': '/static/foodstim60/granola w milk.jpg', 'key': 'u', 'origWidth': 410, 'origHeight': 410, 'width': 410, 'height': 410, 'widthPercent': 0.45, 'rescaleHeight': False, 'trialN': 11, 'loaded': True, 'loadedTime': 15576.300000000745, 'positionName': 'LEFT', 'positionCoords': [204.4, 195], 'bid': 8.120000000000001}, {'imgObject': {}, 'id': 'cherry tomato', 'src': '/static/foodstim60/cherry tomato.jpg', 'key': 'i', 'origWidth': 410, 'origHeight': 410, 'width': 410, 'height': 410, 'widthPercent': 0.45, 'rescaleHeight': False, 'trialN': 11, 'loaded': True, 'loadedTime': 15579.900000002235, 'positionName': 'RIGHT', 'positionCoords': [665.6, 195], 'bid': 7.9}]",15570.699999999255,1669830090169,granola w milk,cherry tomato,8.120000000000001,7.9,-0.22000000000000064,cherry tomato,290.9000000022352,297,296.4000000022352,True,i,16369.60000000149,798.9000000022352,1669830090968,799,HRV,HRV_0053,2022-11-30 17:43:30
12,"[{'imgObject': {}, 'id': 'baked potato', 'src': '/static/foodstim60/baked potato.jpg', 'key': 'u', 'origWidth': 409, 'origHeight': 410, 'width': 409, 'height': 410, 'widthPercent': 0.45, 'rescaleHeight': False, 'trialN': 12, 'loaded': True, 'loadedTime': 16375.5, 'positionName': 'LEFT', 'positionCoords': [205.4, 195], 'bid': 8.82}, {'imgObject': {}, 'id': 'shreddedwheatwithmilk', 'src': '/static/foodstim60/shreddedwheatwithmilk.jpg', 'key': 'i', 'origWidth': 410, 'origHeight': 410, 'width': 410, 'height': 410, 'widthPercent': 0.45, 'rescaleHeight': False, 'trialN': 12, 'loaded': True, 'loadedTime': 16379.10000000149, 'positionName': 'RIGHT', 'positionCoords': [665.6, 195], 'bid': 8.82}]",16370.0,1669830090968,baked potato,shreddedwheatwithmilk,8.82,8.82,0.0,baked potato,298.6000000014901,303,303.0,True,u,17173.199999999255,803.1999999992549,1669830091772,804,HRV,HRV_0053,2022-11-30 17:43:30
13,"[{'imgObject': {}, 'id': 'cantaloupe', 'src': '/static/foodstim60/cantaloupe.jpg', 'key': 'u', 'origWidth': 409, 'origHeight': 409, 'width': 409, 'height': 409, 'widthPercent': 0.45, 'rescaleHeight': False, 'trialN': 13, 'loaded': True, 'loadedTime': 17178.10000000149, 'positionName': 'LEFT', 'positionCoords': [205.4, 195.5], 'bid': 8.59}, {'imgObject': {}, 'id': 'tacos', 'src': '/static/foodstim60/tacos.jpg', 'key': 'i', 'origWidth': 411, 'origHeight': 411, 'width': 411, 'height': 411, 'widthPercent': 0.45, 'rescaleHeight': False, 'trialN': 13, 'loaded': True, 'loadedTime': 17189.699999999255, 'positionName': 'RIGHT', 'positionCoords': [665.6, 194.5], 'bid': 8.09}]",17173.60000000149,1669830091772,cantaloupe,tacos,8.59,8.09,-0.5,cantaloupe,263.80000000074506,267,267.19999999925494,True,u,17943.199999999255,769.5999999977648,1669830092542,770,HRV,HRV_0053,2022-11-30 17:43:30
14,"[{'imgObject': {}, 'id': 'cherries', 'src': '/static/foodstim60/cherries.jpg', 'key': 'u', 'origWidth': 410, 'origHeight': 411, 'width': 410, 'height': 411, 'widthPercent': 0.45, 'rescaleHeight': False, 'trialN': 14, 'loaded': True, 'loadedTime': 17949.10000000149, 'positionName': 'LEFT', 'positionCoords': [204.4, 194.5], 'bid': 7.98}, {'imgObject': {}, 'id': 'orange slices', 'src': '/static/foodstim60/orange slices.jpg', 'key': 'i', 'origWidth': 409, 'origHeight': 410, 'width': 409, 'height': 410, 'widthPercent': 0.45, 'rescaleHeight': False, 'trialN': 14, 'loaded': True, 'loadedTime': 17952.60000000149, 'positionName': 'RIGHT', 'positionCoords': [665.6, 195], 'bid': 9.06}]",17943.699999999255,1669830092542,cherries,orange slices,7.98,9.06,1.08,orange slices,315.9000000022352,321,320.9000000022352,True,i,18768.900000002235,825.2000000029802,1669830093367,825,HRV,HRV_0053,2022-11-30 17:43:30
15,"[{'imgObject': {}, 'id': 'mashed potato', 'src': '/static/foodstim60/mashed potato.jpg', 'key': 'u', 'origWidth': 409, 'origHeight': 409, 'width': 409, 'height': 409, 'widthPercent': 0.45, 'rescaleHeight': False, 'trialN': 15, 'loaded': True, 'loadedTime': 18775.60000000149, 'positionName': 'LEFT', 'positionCoords': [205.4, 195.5], 'bid': 6.8100000000000005}, {'imgObject': {}, 'id': 'eggs', 'src': '/static/foodstim60/eggs.jpg', 'key': 'i', 'origWidth': 409, 'origHeight': 409, 'width': 409, 'height': 409, 'widthPercent': 0.45, 'rescaleHeight': False, 'trialN': 15, 'loaded': True, 'loadedTime': 18779.199999999255, 'positionName': 'RIGHT', 'positionCoords': [665.6, 195.5], 'bid': 7.6}]",18769.800000000745,1669830093368,mashed potato,eggs,6.8100000000000005,7.6,0.7899999999999991,mashed potato,212.5,217,216.30000000074506,True,u,19486.300000000745,716.5,1669830094085,717,HRV,HRV_0053,2022-11-30 17:43:30
16,"[{'imgObject': {}, 'id': 'grilled chicken strips', 'src': '/static/foodstim60/grilled chicken strips.jpg', 'key': 'u', 'origWidth': 410, 'origHeight': 411, 'width': 410, 'height': 411, 'widthPercent': 0.45, 'rescaleHeight': False, 'trialN': 16, 'loaded': True, 'loadedTime': 19491.199999999255, 'positionName': 'LEFT', 'positionCoords': [204.4, 194.5], 'bid': 7.15}, {'imgObject': {}, 'id': 'turkeysandwich', 'src': '/static/foodstim60/turkeysandwich.jpg', 'key': 'i', 'origWidth': 409, 'origHeight': 409, 'width': 409, 'height': 409, 'widthPercent': 0.45, 'rescaleHeight': False, 'trialN': 16, 'loaded': True, 'loadedTime': 19502.699999999255, 'positionName': 'RIGHT', 'positionCoords': [665.6, 195.5], 'bid': 7.01}]",19486.60000000149,1669830094085,grilled chicken strips,turkeysandwich,7.15,7.01,-0.14000000000000057,grilled chicken strips,255.80000000074506,261,261.30000000074506,True,u,20250.199999999255,763.5999999977648,1669830094849,764,HRV,HRV_0053,2022-11-30 17:43:30
17,"[{'imgObject': {}, 'id': 'baked potato', 'src': '/static/foodstim60/baked potato.jpg', 'key': 'u', 'origWidth': 409, 'origHeight': 410, 'width': 409, 'height': 410, 'widthPercent': 0.45, 'rescaleHeight': False, 'trialN': 17, 'loaded': True, 'loadedTime': 20255.900000002235, 'positionName': 'LEFT', 'positionCoords': [205.4, 195], 'bid': 8.82}, {'imgObject': {}, 'id': 'omelette', 'src': '/static/foodstim60/omelette.jpg', 'key': 'i', 'origWidth': 410, 'origHeight': 409, 'width': 410, 'height': 409, 'widthPercent': 0.45, 'rescaleHeight': False, 'trialN': 17, 'loaded': True, 'loadedTime': 20259.60000000149, 'positionName': 'RIGHT', 'positionCoords': [665.6, 195.5], 'bid': 8.78}]",20251.0,1669830094849,baked potato,omelette,8.82,8.78,-0.040000000000000924,baked potato,187.40000000223517,191,190.80000000074506,True,u,20943.60000000149,692.6000000014901,1669830095542,693,HRV,HRV_0053,2022-11-30 17:43:30
18,"[{'imgObject': {}, 'id': 'Grapes', 'src': '/static/foodstim60/Grapes.jpg', 'key': 'u', 'origWidth': 411, 'origHeight': 411, 'width': 411, 'height': 411, 'widthPercent': 0.45, 'rescaleHeight': False, 'trialN': 18, 'loaded': True, 'loadedTime': 20949.699999999255, 'positionName': 'LEFT', 'positionCoords': [203.4, 194.5], 'bid': 8.82}, {'imgObject': {}, 'id': 'edamame', 'src': '/static/foodstim60/edamame.jpg', 'key': 'i', 'origWidth': 409, 'origHeight': 410, 'width': 409, 'height': 410, 'widthPercent': 0.45, 'rescaleHeight': False, 'trialN': 18, 'loaded': True, 'loadedTime': 20960.699999999255, 'positionName': 'RIGHT', 'positionCoords': [665.6, 195], 'bid': 8.48}]",20944.60000000149,1669830095543,Grapes,edamame,8.82,8.48,-0.33999999999999986,Grapes,274.5999999977648,280,280.0,True,u,21724.800000000745,780.1999999992549,1669830096323,780,HRV,HRV_0053,2022-11-30 17:43:30
19,"[{'imgObject': {}, 'id': 'salmon', 'src': '/static/foodstim60/salmon.jpg', 'key': 'u', 'origWidth': 410, 'origHeight': 409, 'width': 410, 'height': 409, 'widthPercent': 0.45, 'rescaleHeight': False, 'trialN': 19, 'loaded': True, 'loadedTime': 21729.5, 'positionName': 'LEFT', 'positionCoords': [204.4, 195.5], 'bid': 8.57}, {'imgObject': {}, 'id': 'corn cob', 'src': '/static/foodstim60/corn cob.jpg', 'key': 'i', 'origWidth': 411, 'origHeight': 411, 'width': 411, 'height': 411, 'widthPercent': 0.45, 'rescaleHeight': False, 'trialN': 19, 'loaded': True, 'loadedTime': 21732.900000002235, 'positionName': 'RIGHT', 'positionCoords': [665.6, 194.5], 'bid': 8.56}]",21725.10000000149,1669830096324,salmon,corn cob,8.57,8.56,-0.009999999999999787,corn cob,232.19999999925494,238,237.89999999850988,True,i,22464.60000000149,739.5,1669830097063,739,HRV,HRV_0053,2022-11-30 17:43:30
20,"[{'imgObject': {}, 'id': 'turkeysandwich', 'src': '/static/foodstim60/turkeysandwich.jpg', 'key': 'u', 'origWidth': 409, 'origHeight': 409, 'width': 409, 'height': 409, 'widthPercent': 0.45, 'rescaleHeight': False, 'trialN': 20, 'loaded': True, 'loadedTime': 22470.5, 'positionName': 'LEFT', 'positionCoords': [205.4, 195.5], 'bid': 7.01}, {'imgObject': {}, 'id': 'sweetpotato', 'src': '/static/foodstim60/sweetpotato.jpg', 'key': 'i', 'origWidth': 410, 'origHeight': 410, 'width': 410, 'height': 410, 'widthPercent': 0.45, 'rescaleHeight': False, 'trialN': 20, 'loaded': True, 'loadedTime': 22474.10000000149, 'positionName': 'RIGHT', 'positionCoords': [665.6, 195], 'bid': 7.87}]",22465.300000000745,1669830097064,turkeysandwich,sweetpotato,7.01,7.87,0.8600000000000003,sweetpotato,223.80000000074506,228,228.30000000074506,True,i,23196.10000000149,730.8000000007451,1669830097795,731,HRV,HRV_0053,2022-11-30 17:43:30
21,"[{'imgObject': {}, 'id': 'Grapes', 'src': '/static/foodstim60/Grapes.jpg', 'key': 'u', 'origWidth': 411, 'origHeight': 411, 'width': 411, 'height': 411, 'widthPercent': 0.45, 'rescaleHeight': False, 'trialN': 21, 'loaded': True, 'loadedTime': 23202, 'positionName': 'LEFT', 'positionCoords': [203.4, 194.5], 'bid': 8.82}, {'imgObject': {}, 'id': 'luckycharms', 'src': '/static/foodstim60/luckycharms.jpg', 'key': 'i', 'origWidth': 410, 'origHeight': 409, 'width': 410, 'height': 409, 'widthPercent': 0.45, 'rescaleHeight': False, 'trialN': 21, 'loaded': True, 'loadedTime': 23205.5, 'positionName': 'RIGHT', 'positionCoords': [665.6, 195.5], 'bid': 8.71}]",23196.60000000149,1669830097795,Grapes,luckycharms,8.82,8.71,-0.10999999999999943,luckycharms,212.59999999776483,219,218.69999999925494,True,i,23915.900000002235,719.3000000007451,1669830098514,719,HRV,HRV_0053,2022-11-30 17:43:30
22,"[{'imgObject': {}, 'id': 'steak', 'src': '/static/foodstim60/steak.jpg', 'key': 'u', 'origWidth': 410, 'origHeight': 410, 'width': 410, 'height': 410, 'widthPercent': 0.45, 'rescaleHeight': False, 'trialN': 22, 'loaded': True, 'loadedTime': 23922.900000002235, 'positionName': 'LEFT', 'positionCoords': [204.4, 195], 'bid': 7.71}, {'imgObject': {}, 'id': 'cocktailshrimp', 'src': '/static/foodstim60/cocktailshrimp.jpg', 'key': 'i', 'origWidth': 410, 'origHeight': 410, 'width': 410, 'height': 410, 'widthPercent': 0.45, 'rescaleHeight': False, 'trialN': 22, 'loaded': True, 'loadedTime': 23926.5, 'positionName': 'RIGHT', 'positionCoords': [665.6, 195], 'bid': 7.79}]",23916.5,1669830098515,steak,cocktailshrimp,7.71,7.79,0.08000000000000007,steak,196.60000000149012,202,201.80000000074506,True,u,24619.0,702.5,1669830099218,703,HRV,HRV_0053,2022-11-30 17:43:30
23,"[{'imgObject': {}, 'id': 'fried eggs', 'src': '/static/foodstim60/fried eggs.jpg', 'key': 'u', 'origWidth': 410, 'origHeight': 410, 'width': 410, 'height': 410, 'widthPercent': 0.45, 'rescaleHeight': False, 'trialN': 23, 'loaded': True, 'loadedTime': 24625.60000000149, 'positionName': 'LEFT', 'positionCoords': [204.4, 195], 'bid': 6.67}, {'imgObject': {}, 'id': 'sushi w_condiments', 'src': '/static/foodstim60/sushi w_condiments.jpg', 'key': 'i', 'origWidth': 410, 'origHeight': 410, 'width': 410, 'height': 410, 'widthPercent': 0.45, 'rescaleHeight': False, 'trialN': 23, 'loaded': True, 'loadedTime': 24629, 'positionName': 'RIGHT', 'positionCoords': [665.6, 195], 'bid': 7.5}]",24619.5,1669830099218,fried eggs,sushi w_condiments,6.67,7.5,0.8300000000000001,fried eggs,194.60000000149012,200,200.10000000149012,True,u,25321.400000002235,701.9000000022352,1669830099920,702,HRV,HRV_0053,2022-11-30 17:43:30
24,"[{'imgObject': {}, 'id': 'steak', 'src': '/static/foodstim60/steak.jpg', 'key': 'u', 'origWidth': 410, 'origHeight': 410, 'width': 410, 'height': 410, 'widthPercent': 0.45, 'rescaleHeight': False, 'trialN': 24, 'loaded': True, 'loadedTime': 25327.199999999255, 'positionName': 'LEFT', 'positionCoords': [204.4, 195], 'bid': 7.71}, {'imgObject': {}, 'id': 'hotdog w must', 'src': '/static/foodstim60/hotdog w must.jpg', 'key': 'i', 'origWidth': 409, 'origHeight': 409, 'width': 409, 'height': 409, 'widthPercent': 0.45, 'rescaleHeight': False, 'trialN': 24, 'loaded': True, 'loadedTime': 25330.699999999255, 'positionName': 'RIGHT', 'positionCoords': [665.6, 195.5], 'bid': 7.4}]",25321.900000002235,1669830099921,steak,hotdog w must,7.71,7.4,-0.3099999999999996,steak,197.19999999925494,201,201.69999999925494,True,u,26024.300000000745,702.3999999985099,1669830100623,702,HRV,HRV_0053,2022-11-30 17:43:30
25,"[{'imgObject': {}, 'id': 'apple slices', 'src': '/static/foodstim60/apple slices.jpg', 'key': 'u', 'origWidth': 409, 'origHeight': 410, 'width': 409, 'height': 410, 'widthPercent': 0.45, 'rescaleHeight': False, 'trialN': 25, 'loaded': True, 'loadedTime': 26029.699999999255, 'positionName': 'LEFT', 'positionCoords': [205.4, 195], 'bid': 6.68}, {'imgObject': {}, 'id': 'grilled chicken strips', 'src': '/static/foodstim60/grilled chicken strips.jpg', 'key': 'i', 'origWidth': 410, 'origHeight': 411, 'width': 410, 'height': 411, 'widthPercent': 0.45, 'rescaleHeight': False, 'trialN': 25, 'loaded': True, 'loadedTime': 26033.199999999255, 'positionName': 'RIGHT', 'positionCoords': [665.6, 194.5], 'bid': 7.15}]",26024.699999999255,1669830100623,apple slices,grilled chicken strips,6.68,7.15,0.47000000000000064,apple slices,222.30000000074506,228,227.90000000223517,True,u,26754.199999999255,729.5,1669830101353,730,HRV,HRV_0053,2022-11-30 17:43:30
26,"[{'imgObject': {}, 'id': 'shreddedwheatwithmilk', 'src': '/static/foodstim60/shreddedwheatwithmilk.jpg', 'key': 'u', 'origWidth': 410, 'origHeight': 410, 'width': 410, 'height': 410, 'widthPercent': 0.45, 'rescaleHeight': False, 'trialN': 26, 'loaded': True, 'loadedTime': 26760, 'positionName': 'LEFT', 'positionCoords': [204.4, 195], 'bid': 8.82}, {'imgObject': {}, 'id': 'sweetpotato', 'src': '/static/foodstim60/sweetpotato.jpg', 'key': 'i', 'origWidth': 410, 'origHeight': 410, 'width': 410, 'height': 410, 'widthPercent': 0.45, 'rescaleHeight': False, 'trialN': 26, 'loaded': True, 'loadedTime': 26763.60000000149, 'positionName': 'RIGHT', 'positionCoords': [665.6, 195], 'bid': 7.87}]",26754.60000000149,1669830101353,shreddedwheatwithmilk,sweetpotato,8.82,7.87,-0.9500000000000002,shreddedwheatwithmilk,194.5,200,200.0,True,u,27456.900000002235,702.3000000007451,1669830102056,703,HRV,HRV_0053,2022-11-30 17:43:30
27,"[{'imgObject': {}, 'id': 'bagel plain', 'src': '/static/foodstim60/bagel plain.jpg', 'key': 'u', 'origWidth': 410, 'origHeight': 410, 'width': 410, 'height': 410, 'widthPercent': 0.45, 'rescaleHeight': False, 'trialN': 27, 'loaded': True, 'loadedTime': 27462.800000000745, 'positionName': 'LEFT', 'positionCoords': [204.4, 195], 'bid': 8.09}, {'imgObject': {}, 'id': 'granola w milk', 'src': '/static/foodstim60/granola w milk.jpg', 'key': 'i', 'origWidth': 410, 'origHeight': 410, 'width': 410, 'height': 410, 'widthPercent': 0.45, 'rescaleHeight': False, 'trialN': 27, 'loaded': True, 'loadedTime': 27466.900000002235, 'positionName': 'RIGHT', 'positionCoords': [665.6, 195], 'bid': 8.120000000000001}]",27457.5,1669830102056,bagel plain,granola w milk,8.09,8.120000000000001,0.030000000000001137,bagel plain,212.40000000223517,217,216.90000000223517,True,u,28175.60000000149,718.1000000014901,1669830102774,718,HRV,HRV_0053,2022-11-30 17:43:30
28,"[{'imgObject': {}, 'id': 'fruitsalad', 'src': '/static/foodstim60/fruitsalad.jpg', 'key': 'u', 'origWidth': 410, 'origHeight': 410, 'width': 410, 'height': 410, 'widthPercent': 0.45, 'rescaleHeight': False, 'trialN': 28, 'loaded': True, 'loadedTime': 28180.10000000149, 'positionName': 'LEFT', 'positionCoords': [204.4, 195], 'bid': 7.390000000000001}, {'imgObject': {}, 'id': 'banana', 'src': '/static/foodstim60/banana.jpg', 'key': 'i', 'origWidth': 410, 'origHeight': 410, 'width': 410, 'height': 410, 'widthPercent': 0.45, 'rescaleHeight': False, 'trialN': 28, 'loaded': True, 'loadedTime': 28183.400000002235, 'positionName': 'RIGHT', 'positionCoords': [665.6, 195], 'bid': 7.56}]",28175.900000002235,1669830102775,fruitsalad,banana,7.390000000000001,7.56,0.16999999999999904,banana,218.0,223,223.39999999850988,True,i,28899.800000000745,723.8999999985099,1669830103498,723,HRV,HRV_0053,2022-11-30 17:43:30
29,"[{'imgObject': {}, 'id': 'chickenfingers', 'src': '/static/foodstim60/chickenfingers.jpg', 'key': 'u', 'origWidth': 410, 'origHeight': 410, 'width': 410, 'height': 410, 'widthPercent': 0.45, 'rescaleHeight': False, 'trialN': 29, 'loaded': True, 'loadedTime': 28906.10000000149, 'positionName': 'LEFT', 'positionCoords': [204.4, 195], 'bid': 7.15}, {'imgObject': {}, 'id': 'fruitsalad', 'src': '/static/foodstim60/fruitsalad.jpg', 'key': 'i', 'origWidth': 410, 'origHeight': 410, 'width': 410, 'height': 410, 'widthPercent': 0.45, 'rescaleHeight': False, 'trialN': 29, 'loaded': True, 'loadedTime': 28909.800000000745, 'positionName': 'RIGHT', 'positionCoords': [665.6, 195], 'bid': 7.390000000000001}]",28900.699999999255,1669830103499,chickenfingers,fruitsalad,7.15,7.390000000000001,0.2400000000000002,chickenfingers,156.40000000223517,162,161.5,True,u,29567.199999999255,666.5,1669830104166,667,HRV,HRV_0053,2022-11-30 17:43:30
30,"[{'imgObject': {}, 'id': 'mashed potato', 'src': '/static/foodstim60/mashed potato.jpg', 'key': 'u', 'origWidth': 409, 'origHeight': 409, 'width': 409, 'height': 409, 'widthPercent': 0.45, 'rescaleHeight': False, 'trialN': 30, 'loaded': True, 'loadedTime': 29573.5, 'positionName': 'LEFT', 'positionCoords': [205.4, 195.5], 'bid': 6.8100000000000005}, {'imgObject': {}, 'id': 'raisin bran w milk', 'src': '/static/foodstim60/raisin bran w milk.jpg', 'key': 'i', 'origWidth': 411, 'origHeight': 411, 'width': 411, 'height': 411, 'widthPercent': 0.45, 'rescaleHeight': False, 'trialN': 30, 'loaded': True, 'loadedTime': 29577.10000000149, 'positionName': 'RIGHT', 'positionCoords': [665.6, 194.5], 'bid': 8.26}]",29567.699999999255,1669830104166,mashed potato,raisin bran w milk,6.8100000000000005,8.26,1.4499999999999993,mashed potato,162.0,166,166.0,True,u,30237.199999999255,669.5,1669830104836,670,HRV,HRV_0053,2022-11-30 17:43:30
31,"[{'imgObject': {}, 'id': 'edamame', 'src': '/static/foodstim60/edamame.jpg', 'key': 'u', 'origWidth': 409, 'origHeight': 410, 'width': 409, 'height': 410, 'widthPercent': 0.45, 'rescaleHeight': False, 'trialN': 31, 'loaded': True, 'loadedTime': 30241.400000002235, 'positionName': 'LEFT', 'positionCoords': [205.4, 195], 'bid': 8.48}, {'imgObject': {}, 'id': 'lox', 'src': '/static/foodstim60/lox.jpg', 'key': 'i', 'origWidth': 410, 'origHeight': 411, 'width': 410, 'height': 411, 'widthPercent': 0.45, 'rescaleHeight': False, 'trialN': 31, 'loaded': True, 'loadedTime': 30245.10000000149, 'positionName': 'RIGHT', 'positionCoords': [665.6, 194.5], 'bid': 8.48}]",30237.5,1669830104836,edamame,lox,8.48,8.48,0.0,edamame,163.30000000074506,169,168.80000000074506,True,u,30911.60000000149,674.1000000014901,1669830105510,674,HRV,HRV_0053,2022-11-30 17:43:30
32,"[{'imgObject': {}, 'id': 'mac & cheese', 'src': '/static/foodstim60/mac & cheese.jpg', 'key': 'u', 'origWidth': 410, 'origHeight': 410, 'width': 410, 'height': 410, 'widthPercent': 0.45, 'rescaleHeight': False, 'trialN': 32, 'loaded': True, 'loadedTime': 30917.400000002235, 'positionName': 'LEFT', 'positionCoords': [204.4, 195], 'bid': 7.01}, {'imgObject': {}, 'id': 'cocktailshrimp', 'src': '/static/foodstim60/cocktailshrimp.jpg', 'key': 'i', 'origWidth': 410, 'origHeight': 410, 'width': 410, 'height': 410, 'widthPercent': 0.45, 'rescaleHeight': False, 'trialN': 32, 'loaded': True, 'loadedTime': 30921, 'positionName': 'RIGHT', 'positionCoords': [665.6, 195], 'bid': 7.79}]",30912.10000000149,1669830105511,mac & cheese,cocktailshrimp,7.01,7.79,0.7800000000000002,cocktailshrimp,215.5,219,219.39999999850988,True,i,31635.400000002235,723.3000000007451,1669830106234,723,HRV,HRV_0053,2022-11-30 17:43:30
33,"[{'imgObject': {}, 'id': 'sushi w_condiments', 'src': '/static/foodstim60/sushi w_condiments.jpg', 'key': 'u', 'origWidth': 410, 'origHeight': 410, 'width': 410, 'height': 410, 'widthPercent': 0.45, 'rescaleHeight': False, 'trialN': 33, 'loaded': True, 'loadedTime': 31640, 'positionName': 'LEFT', 'positionCoords': [204.4, 195], 'bid': 7.5}, {'imgObject': {}, 'id': 'turkeysandwich', 'src': '/static/foodstim60/turkeysandwich.jpg', 'key': 'i', 'origWidth': 409, 'origHeight': 409, 'width': 409, 'height': 409, 'widthPercent': 0.45, 'rescaleHeight': False, 'trialN': 33, 'loaded': True, 'loadedTime': 31643.300000000745, 'positionName': 'RIGHT', 'positionCoords': [665.6, 195.5], 'bid': 7.01}]",31635.900000002235,1669830106235,sushi w_condiments,turkeysandwich,7.5,7.01,-0.4900000000000002,sushi w_condiments,91.79999999701977,96,96.5,True,u,32235.300000000745,599.3999999985099,1669830106834,599,HRV,HRV_0053,2022-11-30 17:43:30
34,"[{'imgObject': {}, 'id': 'raisin bran w milk', 'src': '/static/foodstim60/raisin bran w milk.jpg', 'key': 'u', 'origWidth': 411, 'origHeight': 411, 'width': 411, 'height': 411, 'widthPercent': 0.45, 'rescaleHeight': False, 'trialN': 34, 'loaded': True, 'loadedTime': 32240.10000000149, 'positionName': 'LEFT', 'positionCoords': [203.4, 194.5], 'bid': 8.26}, {'imgObject': {}, 'id': 'eggsalad', 'src': '/static/foodstim60/eggsalad.jpg', 'key': 'i', 'origWidth': 410, 'origHeight': 409, 'width': 410, 'height': 409, 'widthPercent': 0.45, 'rescaleHeight': False, 'trialN': 34, 'loaded': True, 'loadedTime': 32251.199999999255, 'positionName': 'RIGHT', 'positionCoords': [665.6, 195.5], 'bid': 8.5}]",32235.60000000149,1669830106834,raisin bran w milk,eggsalad,8.26,8.5,0.2400000000000002,eggsalad,59.099999997764826,64,63.5,True,i,32804.10000000149,568.5,1669830107403,569,HRV,HRV_0053,2022-11-30 17:43:30
35,"[{'imgObject': {}, 'id': 'cocktailshrimp', 'src': '/static/foodstim60/cocktailshrimp.jpg', 'key': 'u', 'origWidth': 410, 'origHeight': 410, 'width': 410, 'height': 410, 'widthPercent': 0.45, 'rescaleHeight': False, 'trialN': 35, 'loaded': True, 'loadedTime': 32810.10000000149, 'positionName': 'LEFT', 'positionCoords': [204.4, 195], 'bid': 7.79}, {'imgObject': {}, 'id': 'eggs', 'src': '/static/foodstim60/eggs.jpg', 'key': 'i', 'origWidth': 409, 'origHeight': 409, 'width': 409, 'height': 409, 'widthPercent': 0.45, 'rescaleHeight': False, 'trialN': 35, 'loaded': True, 'loadedTime': 32813.699999999255, 'positionName': 'RIGHT', 'positionCoords': [665.6, 195.5], 'bid': 7.6}]",32804.60000000149,1669830107403,cocktailshrimp,eggs,7.79,7.6,-0.1900000000000004,cocktailshrimp,160.0,165,164.89999999850988,True,u,33471.10000000149,666.5,1669830108070,667,HRV,HRV_0053,2022-11-30 17:43:30
36,"[{'imgObject': {}, 'id': 'rigatoni and sauce', 'src': '/static/foodstim60/rigatoni and sauce.jpg', 'key': 'u', 'origWidth': 410, 'origHeight': 411, 'width': 410, 'height': 411, 'widthPercent': 0.45, 'rescaleHeight': False, 'trialN': 36, 'loaded': True, 'loadedTime': 33475.60000000149, 'positionName': 'LEFT', 'positionCoords': [204.4, 194.5], 'bid': 8.03}, {'imgObject': {}, 'id': 'Tribe humus pita', 'src': '/static/foodstim60/Tribe humus pita.jpg', 'key': 'i', 'origWidth': 411, 'origHeight': 411, 'width': 411, 'height': 411, 'widthPercent': 0.45, 'rescaleHeight': False, 'trialN': 36, 'loaded': True, 'loadedTime': 33479.10000000149, 'positionName': 'RIGHT', 'positionCoords': [665.6, 194.5], 'bid': 5.6000000000000005}]",33471.5,1669830108070,rigatoni and sauce,Tribe humus pita,8.03,5.6000000000000005,-2.429999999999999,rigatoni and sauce,41.19999999925494,103,102.30000000074506,True,u,34076.400000002235,604.9000000022352,1669830108675,605,HRV,HRV_0053,2022-11-30 17:43:30
37,"[{'imgObject': {}, 'id': 'seaweed', 'src': '/static/foodstim60/seaweed.jpg', 'key': 'u', 'origWidth': 410, 'origHeight': 410, 'width': 410, 'height': 410, 'widthPercent': 0.45, 'rescaleHeight': False, 'trialN': 37, 'loaded': True, 'loadedTime': 34080.900000002235, 'positionName': 'LEFT', 'positionCoords': [204.4, 195], 'bid': 7.9}, {'imgObject': {}, 'id': 'bagel plain', 'src': '/static/foodstim60/bagel plain.jpg', 'key': 'i', 'origWidth': 410, 'origHeight': 410, 'width': 410, 'height': 410, 'widthPercent': 0.45, 'rescaleHeight': False, 'trialN': 37, 'loaded': True, 'loadedTime': 34084.300000000745, 'positionName': 'RIGHT', 'positionCoords': [665.6, 195], 'bid': 8.09}]",34076.699999999255,1669830108676,seaweed,bagel plain,7.9,8.09,0.1899999999999995,bagel plain,89.80000000074506,106,106.0,True,i,34687.800000000745,611.1000000014901,1669830109287,611,HRV,HRV_0053,2022-11-30 17:43:30
38,"[{'imgObject': {}, 'id': 'corn cob', 'src': '/static/foodstim60/corn cob.jpg', 'key': 'u', 'origWidth': 411, 'origHeight': 411, 'width': 411, 'height': 411, 'widthPercent': 0.45, 'rescaleHeight': False, 'trialN': 38, 'loaded': True, 'loadedTime': 34692.10000000149, 'positionName': 'LEFT', 'positionCoords': [203.4, 194.5], 'bid': 8.56}, {'imgObject': {}, 'id': 'shreddedwheatwithmilk', 'src': '/static/foodstim60/shreddedwheatwithmilk.jpg', 'key': 'i', 'origWidth': 410, 'origHeight': 410, 'width': 410, 'height': 410, 'widthPercent': 0.45, 'rescaleHeight': False, 'trialN': 38, 'loaded': True, 'loadedTime': 34695.60000000149, 'positionName': 'RIGHT', 'positionCoords': [665.6, 195], 'bid': 8.82}]",34688.0,1669830109287,corn cob,shreddedwheatwithmilk,8.56,8.82,0.2599999999999998,corn cob,115.40000000223517,119,119.30000000074506,True,u,35308.199999999255,620.1999999992549,1669830109907,620,HRV,HRV_0053,2022-11-30 17:43:30
39,"[{'imgObject': {}, 'id': 'hashbrowns', 'src': '/static/foodstim60/hashbrowns.jpg', 'key': 'u', 'origWidth': 411, 'origHeight': 410, 'width': 411, 'height': 410, 'widthPercent': 0.45, 'rescaleHeight': False, 'trialN': 39, 'loaded': True, 'loadedTime': 35314.10000000149, 'positionName': 'LEFT', 'positionCoords': [203.4, 195], 'bid': 6.92}, {'imgObject': {}, 'id': 'strawberries', 'src': '/static/foodstim60/strawberries.jpg', 'key': 'i', 'origWidth': 410, 'origHeight': 410, 'width': 410, 'height': 410, 'widthPercent': 0.45, 'rescaleHeight': False, 'trialN': 39, 'loaded': True, 'loadedTime': 35326.699999999255, 'positionName': 'RIGHT', 'positionCoords': [665.6, 195], 'bid': 7.42}]",35308.699999999255,1669830109908,hashbrowns,strawberries,6.92,7.42,0.5,strawberries,204.90000000223517,211,211.20000000298023,True,i,36020.400000002235,711.7000000029802,1669830110619,711,HRV,HRV_0053,2022-11-30 17:43:30
40,"[{'imgObject': {}, 'id': 'blackbeanswithrice', 'src': '/static/foodstim60/blackbeanswithrice.jpg', 'key': 'u', 'origWidth': 410, 'origHeight': 410, 'width': 410, 'height': 410, 'widthPercent': 0.45, 'rescaleHeight': False, 'trialN': 40, 'loaded': True, 'loadedTime': 36025.900000002235, 'positionName': 'LEFT', 'positionCoords': [204.4, 195], 'bid': 8.620000000000001}, {'imgObject': {}, 'id': 'luckycharms', 'src': '/static/foodstim60/luckycharms.jpg', 'key': 'i', 'origWidth': 410, 'origHeight': 409, 'width': 410, 'height': 409, 'widthPercent': 0.45, 'rescaleHeight': False, 'trialN': 40, 'loaded': True, 'loadedTime': 36029.60000000149, 'positionName': 'RIGHT', 'positionCoords': [665.6, 195.5], 'bid': 8.71}]",36021.10000000149,1669830110620,blackbeanswithrice,luckycharms,8.620000000000001,8.71,0.08999999999999986,blackbeanswithrice,214.30000000074506,218,217.89999999850988,True,u,36742.199999999255,721.0999999977648,1669830111341,721,HRV,HRV_0053,2022-11-30 17:43:30
41,"[{'imgObject': {}, 'id': 'froot loops w milk', 'src': '/static/foodstim60/froot loops w milk.jpg', 'key': 'u', 'origWidth': 410, 'origHeight': 410, 'width': 410, 'height': 410, 'widthPercent': 0.45, 'rescaleHeight': False, 'trialN': 41, 'loaded': True, 'loadedTime': 36748.10000000149, 'positionName': 'LEFT', 'positionCoords': [204.4, 195], 'bid': 7.890000000000001}, {'imgObject': {}, 'id': 'baked potato', 'src': '/static/foodstim60/baked potato.jpg', 'key': 'i', 'origWidth': 409, 'origHeight': 410, 'width': 409, 'height': 410, 'widthPercent': 0.45, 'rescaleHeight': False, 'trialN': 41, 'loaded': True, 'loadedTime': 36752.400000002235, 'positionName': 'RIGHT', 'positionCoords': [665.6, 195], 'bid': 8.82}]",36742.699999999255,1669830111342,froot loops w milk,baked potato,7.890000000000001,8.82,0.9299999999999997,froot loops w milk,194.80000000074506,199,199.5,True,u,37447.400000002235,704.7000000029802,1669830112046,704,HRV,HRV_0053,2022-11-30 17:43:30
42,"[{'imgObject': {}, 'id': 'popsicles', 'src': '/static/foodstim60/popsicles.jpg', 'key': 'u', 'origWidth': 410, 'origHeight': 410, 'width': 410, 'height': 410, 'widthPercent': 0.45, 'rescaleHeight': False, 'trialN': 42, 'loaded': True, 'loadedTime': 37453.199999999255, 'positionName': 'LEFT', 'positionCoords': [204.4, 195], 'bid': 8.51}, {'imgObject': {}, 'id': 'orange slices', 'src': '/static/foodstim60/orange slices.jpg', 'key': 'i', 'origWidth': 409, 'origHeight': 410, 'width': 409, 'height': 410, 'widthPercent': 0.45, 'rescaleHeight': False, 'trialN': 42, 'loaded': True, 'loadedTime': 37457, 'positionName': 'RIGHT', 'positionCoords': [665.6, 195], 'bid': 9.06}]",37447.900000002235,1669830112047,popsicles,orange slices,8.51,9.06,0.5500000000000007,popsicles,255.5,261,261.0999999977648,True,u,38209.60000000149,761.6999999992549,1669830112809,762,HRV,HRV_0053,2022-11-30 17:43:30
43,"[{'imgObject': {}, 'id': 'banana', 'src': '/static/foodstim60/banana.jpg', 'key': 'u', 'origWidth': 410, 'origHeight': 410, 'width': 410, 'height': 410, 'widthPercent': 0.45, 'rescaleHeight': False, 'trialN': 43, 'loaded': True, 'loadedTime': 38215.400000002235, 'positionName': 'LEFT', 'positionCoords': [204.4, 195], 'bid': 7.56}, {'imgObject': {}, 'id': 'rigatoni and sauce', 'src': '/static/foodstim60/rigatoni and sauce.jpg', 'key': 'i', 'origWidth': 410, 'origHeight': 411, 'width': 410, 'height': 411, 'widthPercent': 0.45, 'rescaleHeight': False, 'trialN': 43, 'loaded': True, 'loadedTime': 38226.5, 'positionName': 'RIGHT', 'positionCoords': [665.6, 194.5], 'bid': 8.03}]",38210.10000000149,1669830112809,banana,rigatoni and sauce,7.56,8.03,0.46999999999999975,banana,194.30000000074506,200,199.69999999925494,True,u,38909.900000002235,699.8000000007451,1669830113509,700,HRV,HRV_0053,2022-11-30 17:43:30
44,"[{'imgObject': {}, 'id': 'burrito', 'src': '/static/foodstim60/burrito.jpg', 'key': 'u', 'origWidth': 410, 'origHeight': 410, 'width': 410, 'height': 410, 'widthPercent': 0.45, 'rescaleHeight': False, 'trialN': 44, 'loaded': True, 'loadedTime': 38915.800000000745, 'positionName': 'LEFT', 'positionCoords': [204.4, 195], 'bid': 7.0600000000000005}, {'imgObject': {}, 'id': 'fried eggs', 'src': '/static/foodstim60/fried eggs.jpg', 'key': 'i', 'origWidth': 410, 'origHeight': 410, 'width': 410, 'height': 410, 'widthPercent': 0.45, 'rescaleHeight': False, 'trialN': 44, 'loaded': True, 'loadedTime': 38919.699999999255, 'positionName': 'RIGHT', 'positionCoords': [665.6, 195], 'bid': 6.67}]",38910.400000002235,1669830113509,burrito,fried eggs,7.0600000000000005,6.67,-0.39000000000000057,burrito,202.89999999850988,208,207.59999999776483,True,u,39619.0,708.5999999977648,1669830114218,709,HRV,HRV_0053,2022-11-30 17:43:30
45,"[{'imgObject': {}, 'id': 'sushi w_condiments', 'src': '/static/foodstim60/sushi w_condiments.jpg', 'key': 'u', 'origWidth': 410, 'origHeight': 410, 'width': 410, 'height': 410, 'widthPercent': 0.45, 'rescaleHeight': False, 'trialN': 45, 'loaded': True, 'loadedTime': 39626.400000002235, 'positionName': 'LEFT', 'positionCoords': [204.4, 195], 'bid': 7.5}, {'imgObject': {}, 'id': 'strawberries', 'src': '/static/foodstim60/strawberries.jpg', 'key': 'i', 'origWidth': 410, 'origHeight': 410, 'width': 410, 'height': 410, 'widthPercent': 0.45, 'rescaleHeight': False, 'trialN': 45, 'loaded': True, 'loadedTime': 39630.199999999255, 'positionName': 'RIGHT', 'positionCoords': [665.6, 195], 'bid': 7.42}]",39619.60000000149,1669830114219,sushi w_condiments,strawberries,7.5,7.42,-0.08000000000000007,sushi w_condiments,248.80000000074506,253,253.30000000074506,True,u,40377.10000000149,757.5,1669830114976,757,HRV,HRV_0053,2022-11-30 17:43:30
46,"[{'imgObject': {}, 'id': 'burger', 'src': '/static/foodstim60/burger.jpg', 'key': 'u', 'origWidth': 409, 'origHeight': 409, 'width': 409, 'height': 409, 'widthPercent': 0.45, 'rescaleHeight': False, 'trialN': 46, 'loaded': True, 'loadedTime': 40381.60000000149, 'positionName': 'LEFT', 'positionCoords': [205.4, 195.5], 'bid': 8.93}, {'imgObject': {}, 'id': 'cherry tomato', 'src': '/static/foodstim60/cherry tomato.jpg', 'key': 'i', 'origWidth': 410, 'origHeight': 410, 'width': 410, 'height': 410, 'widthPercent': 0.45, 'rescaleHeight': False, 'trialN': 46, 'loaded': True, 'loadedTime': 40385.60000000149, 'positionName': 'RIGHT', 'positionCoords': [665.6, 195], 'bid': 7.9}]",40377.400000002235,1669830114977,burger,cherry tomato,8.93,7.9,-1.0299999999999994,cherry tomato,180.89999999850988,186,186.29999999701977,True,i,41064.199999999255,686.7999999970198,1669830115663,686,HRV,HRV_0053,2022-11-30 17:43:30
47,"[{'imgObject': {}, 'id': 'granola w milk', 'src': '/static/foodstim60/granola w milk.jpg', 'key': 'u', 'origWidth': 410, 'origHeight': 410, 'width': 410, 'height': 410, 'widthPercent': 0.45, 'rescaleHeight': False, 'trialN': 47, 'loaded': True, 'loadedTime': 41070.5, 'positionName': 'LEFT', 'positionCoords': [204.4, 195], 'bid': 8.120000000000001}, {'imgObject': {}, 'id': 'blackbeanswithrice', 'src': '/static/foodstim60/blackbeanswithrice.jpg', 'key': 'i', 'origWidth': 410, 'origHeight': 410, 'width': 410, 'height': 410, 'widthPercent': 0.45, 'rescaleHeight': False, 'trialN': 47, 'loaded': True, 'loadedTime': 41074.199999999255, 'positionName': 'RIGHT', 'positionCoords': [665.6, 195], 'bid': 8.620000000000001}]",41064.60000000149,1669830115664,granola w milk,blackbeanswithrice,8.120000000000001,8.620000000000001,0.5,granola w milk,228.59999999776483,233,233.19999999925494,True,u,41802.900000002235,738.3000000007451,1669830116402,738,HRV,HRV_0053,2022-11-30 17:43:30
48,"[{'imgObject': {}, 'id': 'mac & cheese', 'src': '/static/foodstim60/mac & cheese.jpg', 'key': 'u', 'origWidth': 410, 'origHeight': 410, 'width': 410, 'height': 410, 'widthPercent': 0.45, 'rescaleHeight': False, 'trialN': 48, 'loaded': True, 'loadedTime': 41808.800000000745, 'positionName': 'LEFT', 'positionCoords': [204.4, 195], 'bid': 7.01}, {'imgObject': {}, 'id': 'veggieswithdip', 'src': '/static/foodstim60/veggieswithdip.jpg', 'key': 'i', 'origWidth': 409, 'origHeight': 409, 'width': 409, 'height': 409, 'widthPercent': 0.45, 'rescaleHeight': False, 'trialN': 48, 'loaded': True, 'loadedTime': 41812.5, 'positionName': 'RIGHT', 'positionCoords': [665.6, 195.5], 'bid': 7.48}]",41803.400000002235,1669830116403,mac & cheese,veggieswithdip,7.01,7.48,0.47000000000000064,mac & cheese,221.79999999701977,225,225.69999999925494,True,u,42529.300000000745,725.8999999985099,1669830117128,725,HRV,HRV_0053,2022-11-30 17:43:30
49,"[{'imgObject': {}, 'id': 'rigatoni', 'src': '/static/foodstim60/rigatoni.jpg', 'key': 'u', 'origWidth': 411, 'origHeight': 411, 'width': 411, 'height': 411, 'widthPercent': 0.45, 'rescaleHeight': False, 'trialN': 49, 'loaded': True, 'loadedTime': 42534.5, 'positionName': 'LEFT', 'positionCoords': [203.4, 194.5], 'bid': 8.01}, {'imgObject': {}, 'id': 'mango', 'src': '/static/foodstim60/mango.jpg', 'key': 'i', 'origWidth': 411, 'origHeight': 411, 'width': 411, 'height': 411, 'widthPercent': 0.45, 'rescaleHeight': False, 'trialN': 49, 'loaded': True, 'loadedTime': 42537.900000002235, 'positionName': 'RIGHT', 'positionCoords': [665.6, 194.5], 'bid': 8.4}]",42529.699999999255,1669830117129,rigatoni,mango,8.01,8.4,0.39000000000000057,rigatoni,205.30000000074506,210,209.70000000298023,True,u,43244.60000000149,714.9000000022352,1669830117844,715,HRV,HRV_0053,2022-11-30 17:43:30
50,"[{'imgObject': {}, 'id': 'bagel and cc', 'src': '/static/foodstim60/bagel and cc.jpg', 'key': 'u', 'origWidth': 410, 'origHeight': 410, 'width': 410, 'height': 410, 'widthPercent': 0.45, 'rescaleHeight': False, 'trialN': 50, 'loaded': True, 'loadedTime': 43250.900000002235, 'positionName': 'LEFT', 'positionCoords': [204.4, 195], 'bid': 9.31}, {'imgObject': {}, 'id': 'omelette', 'src': '/static/foodstim60/omelette.jpg', 'key': 'i', 'origWidth': 410, 'origHeight': 409, 'width': 410, 'height': 409, 'widthPercent': 0.45, 'rescaleHeight': False, 'trialN': 50, 'loaded': True, 'loadedTime': 43262.5, 'positionName': 'RIGHT', 'positionCoords': [665.6, 195.5], 'bid': 8.78}]",43245.199999999255,1669830117844,bagel and cc,omelette,9.31,8.78,-0.5300000000000011,bagel and cc,117.0,123,122.5,True,u,43868.900000002235,623.7000000029802,1669830118468,624,HRV,HRV_0053,2022-11-30 17:43:30
51,"[{'imgObject': {}, 'id': 'salad w chicken', 'src': '/static/foodstim60/salad w chicken.jpg', 'key': 'u', 'origWidth': 411, 'origHeight': 411, 'width': 411, 'height': 411, 'widthPercent': 0.45, 'rescaleHeight': False, 'trialN': 51, 'loaded': True, 'loadedTime': 43875.400000002235, 'positionName': 'LEFT', 'positionCoords': [203.4, 194.5], 'bid': 8.75}, {'imgObject': {}, 'id': 'raisin bran w milk', 'src': '/static/foodstim60/raisin bran w milk.jpg', 'key': 'i', 'origWidth': 411, 'origHeight': 411, 'width': 411, 'height': 411, 'widthPercent': 0.45, 'rescaleHeight': False, 'trialN': 51, 'loaded': True, 'loadedTime': 43879.10000000149, 'positionName': 'RIGHT', 'positionCoords': [665.6, 194.5], 'bid': 8.26}]",43869.60000000149,1669830118469,salad w chicken,raisin bran w milk,8.75,8.26,-0.4900000000000002,salad w chicken,151.39999999850988,157,156.89999999850988,True,u,44528.60000000149,659.0,1669830119128,659,HRV,HRV_0053,2022-11-30 17:43:30
52,"[{'imgObject': {}, 'id': 'lox', 'src': '/static/foodstim60/lox.jpg', 'key': 'u', 'origWidth': 410, 'origHeight': 411, 'width': 410, 'height': 411, 'widthPercent': 0.45, 'rescaleHeight': False, 'trialN': 52, 'loaded': True, 'loadedTime': 44534.199999999255, 'positionName': 'LEFT', 'positionCoords': [204.4, 194.5], 'bid': 8.48}, {'imgObject': {}, 'id': 'luckycharms', 'src': '/static/foodstim60/luckycharms.jpg', 'key': 'i', 'origWidth': 410, 'origHeight': 409, 'width': 410, 'height': 409, 'widthPercent': 0.45, 'rescaleHeight': False, 'trialN': 52, 'loaded': True, 'loadedTime': 44537.60000000149, 'positionName': 'RIGHT', 'positionCoords': [665.6, 195.5], 'bid': 8.71}]",44529.199999999255,1669830119128,lox,luckycharms,8.48,8.71,0.23000000000000043,lox,130.90000000223517,138,137.10000000149012,True,u,45169.199999999255,640.0,1669830119768,640,HRV,HRV_0053,2022-11-30 17:43:30
53,"[{'imgObject': {}, 'id': 'popsicles', 'src': '/static/foodstim60/popsicles.jpg', 'key': 'u', 'origWidth': 410, 'origHeight': 410, 'width': 410, 'height': 410, 'widthPercent': 0.45, 'rescaleHeight': False, 'trialN': 53, 'loaded': True, 'loadedTime': 45175, 'positionName': 'LEFT', 'positionCoords': [204.4, 195], 'bid': 8.51}, {'imgObject': {}, 'id': 'eggsalad', 'src': '/static/foodstim60/eggsalad.jpg', 'key': 'i', 'origWidth': 410, 'origHeight': 409, 'width': 410, 'height': 409, 'widthPercent': 0.45, 'rescaleHeight': False, 'trialN': 53, 'loaded': True, 'loadedTime': 45178.699999999255, 'positionName': 'RIGHT', 'positionCoords': [665.6, 195.5], 'bid': 8.5}]",45169.60000000149,1669830119769,popsicles,eggsalad,8.51,8.5,-0.009999999999999787,popsicles,169.30000000074506,173,172.89999999850988,True,u,45843.300000000745,673.6999999992549,1669830120443,674,HRV,HRV_0053,2022-11-30 17:43:30
54,"[{'imgObject': {}, 'id': 'edamame', 'src': '/static/foodstim60/edamame.jpg', 'key': 'u', 'origWidth': 409, 'origHeight': 410, 'width': 409, 'height': 410, 'widthPercent': 0.45, 'rescaleHeight': False, 'trialN': 54, 'loaded': True, 'loadedTime': 45849.5, 'positionName': 'LEFT', 'positionCoords': [205.4, 195], 'bid': 8.48}, {'imgObject': {}, 'id': 'grilled chicken strips', 'src': '/static/foodstim60/grilled chicken strips.jpg', 'key': 'i', 'origWidth': 410, 'origHeight': 411, 'width': 410, 'height': 411, 'widthPercent': 0.45, 'rescaleHeight': False, 'trialN': 54, 'loaded': True, 'loadedTime': 45853.10000000149, 'positionName': 'RIGHT', 'positionCoords': [665.6, 194.5], 'bid': 7.15}]",45843.800000000745,1669830120443,edamame,grilled chicken strips,8.48,7.15,-1.33,grilled chicken strips,172.10000000149012,178,177.69999999925494,True,i,46524.699999999255,680.8999999985099,1669830121124,681,HRV,HRV_0053,2022-11-30 17:43:30
55,"[{'imgObject': {}, 'id': 'mac & cheese', 'src': '/static/foodstim60/mac & cheese.jpg', 'key': 'u', 'origWidth': 410, 'origHeight': 410, 'width': 410, 'height': 410, 'widthPercent': 0.45, 'rescaleHeight': False, 'trialN': 55, 'loaded': True, 'loadedTime': 46528.199999999255, 'positionName': 'LEFT', 'positionCoords': [204.4, 195], 'bid': 7.01}, {'imgObject': {}, 'id': 'burrito', 'src': '/static/foodstim60/burrito.jpg', 'key': 'i', 'origWidth': 410, 'origHeight': 410, 'width': 410, 'height': 410, 'widthPercent': 0.45, 'rescaleHeight': False, 'trialN': 55, 'loaded': True, 'loadedTime': 46528.5, 'positionName': 'RIGHT', 'positionCoords': [665.6, 195], 'bid': 7.0600000000000005}]",46524.900000002235,1669830121124,mac & cheese,burrito,7.01,7.0600000000000005,0.05000000000000071,burrito,139.0,145,144.69999999925494,True,i,47171.300000000745,646.3999999985099,1669830121771,647,HRV,HRV_0053,2022-11-30 17:43:30
56,"[{'imgObject': {}, 'id': 'eggs', 'src': '/static/foodstim60/eggs.jpg', 'key': 'u', 'origWidth': 409, 'origHeight': 409, 'width': 409, 'height': 409, 'widthPercent': 0.45, 'rescaleHeight': False, 'trialN': 56, 'loaded': True, 'loadedTime': 47175.5, 'positionName': 'LEFT', 'positionCoords': [205.4, 195.5], 'bid': 7.6}, {'imgObject': {}, 'id': 'salad w chicken', 'src': '/static/foodstim60/salad w chicken.jpg', 'key': 'i', 'origWidth': 411, 'origHeight': 411, 'width': 411, 'height': 411, 'widthPercent': 0.45, 'rescaleHeight': False, 'trialN': 56, 'loaded': True, 'loadedTime': 47176, 'positionName': 'RIGHT', 'positionCoords': [665.6, 194.5], 'bid': 8.75}]",47171.699999999255,1669830121771,eggs,salad w chicken,7.6,8.75,1.1500000000000004,eggs,103.10000000149012,107,107.30000000074506,True,u,47781.900000002235,610.2000000029802,1669830122381,610,HRV,HRV_0053,2022-11-30 17:43:30
57,"[{'imgObject': {}, 'id': 'popsicles', 'src': '/static/foodstim60/popsicles.jpg', 'key': 'u', 'origWidth': 410, 'origHeight': 410, 'width': 410, 'height': 410, 'widthPercent': 0.45, 'rescaleHeight': False, 'trialN': 57, 'loaded': True, 'loadedTime': 47786.900000002235, 'positionName': 'LEFT', 'positionCoords': [204.4, 195], 'bid': 8.51}, {'imgObject': {}, 'id': 'omelette', 'src': '/static/foodstim60/omelette.jpg', 'key': 'i', 'origWidth': 410, 'origHeight': 409, 'width': 410, 'height': 409, 'widthPercent': 0.45, 'rescaleHeight': False, 'trialN': 57, 'loaded': True, 'loadedTime': 47790.300000000745, 'positionName': 'RIGHT', 'positionCoords': [665.6, 195.5], 'bid': 8.78}]",47782.199999999255,1669830122382,popsicles,omelette,8.51,8.78,0.2699999999999996,omelette,115.70000000298023,122,122.20000000298023,True,i,48408.10000000149,625.9000000022352,1669830123007,625,HRV,HRV_0053,2022-11-30 17:43:30
58,"[{'imgObject': {}, 'id': 'raisin bran w milk', 'src': '/static/foodstim60/raisin bran w milk.jpg', 'key': 'u', 'origWidth': 411, 'origHeight': 411, 'width': 411, 'height': 411, 'widthPercent': 0.45, 'rescaleHeight': False, 'trialN': 58, 'loaded': True, 'loadedTime': 48414.10000000149, 'positionName': 'LEFT', 'positionCoords': [203.4, 194.5], 'bid': 8.26}, {'imgObject': {}, 'id': 'chicken nuggets2', 'src': '/static/foodstim60/chicken nuggets2.jpg', 'key': 'i', 'origWidth': 410, 'origHeight': 409, 'width': 410, 'height': 409, 'widthPercent': 0.45, 'rescaleHeight': False, 'trialN': 58, 'loaded': True, 'loadedTime': 48417.800000000745, 'positionName': 'RIGHT', 'positionCoords': [665.6, 195.5], 'bid': 8.39}]",48408.60000000149,1669830123008,raisin bran w milk,chicken nuggets2,8.26,8.39,0.13000000000000078,raisin bran w milk,106.19999999925494,112,111.69999999925494,True,u,49021.5,612.8999999985099,1669830123621,613,HRV,HRV_0053,2022-11-30 17:43:30
59,"[{'imgObject': {}, 'id': 'sushi w_condiments', 'src': '/static/foodstim60/sushi w_condiments.jpg', 'key': 'u', 'origWidth': 410, 'origHeight': 410, 'width': 410, 'height': 410, 'widthPercent': 0.45, 'rescaleHeight': False, 'trialN': 59, 'loaded': True, 'loadedTime': 49026.199999999255, 'positionName': 'LEFT', 'positionCoords': [204.4, 195], 'bid': 7.5}, {'imgObject': {}, 'id': 'blueberries', 'src': '/static/foodstim60/blueberries.jpg', 'key': 'i', 'origWidth': 411, 'origHeight': 411, 'width': 411, 'height': 411, 'widthPercent': 0.45, 'rescaleHeight': False, 'trialN': 59, 'loaded': True, 'loadedTime': 49029.800000000745, 'positionName': 'RIGHT', 'positionCoords': [665.6, 194.5], 'bid': 7.390000000000001}]",49021.800000000745,1669830123621,sushi w_condiments,blueberries,7.5,7.390000000000001,-0.10999999999999943,sushi w_condiments,35.899999998509884,94,93.89999999850988,True,u,49620.60000000149,598.8000000007451,1669830124220,599,HRV,HRV_0053,2022-11-30 17:43:30
60,"[{'imgObject': {}, 'id': 'raspberries', 'src': '/static/foodstim60/raspberries.jpg', 'key': 'u', 'origWidth': 411, 'origHeight': 411, 'width': 411, 'height': 411, 'widthPercent': 0.45, 'rescaleHeight': False, 'trialN': 60, 'loaded': True, 'loadedTime': 49625.60000000149, 'positionName': 'LEFT', 'positionCoords': [203.4, 194.5], 'bid': 6.6000000000000005}, {'imgObject': {}, 'id': 'kiwi', 'src': '/static/foodstim60/kiwi.jpg', 'key': 'i', 'origWidth': 410, 'origHeight': 410, 'width': 410, 'height': 410, 'widthPercent': 0.45, 'rescaleHeight': False, 'trialN': 60, 'loaded': True, 'loadedTime': 49629.10000000149, 'positionName': 'RIGHT', 'positionCoords': [665.6, 195], 'bid': 6.390000000000001}]",49621.0,1669830124220,raspberries,kiwi,6.6000000000000005,6.390000000000001,-0.20999999999999996,kiwi,95.80000000074506,101,100.5,True,i,50224.300000000745,603.3000000007451,1669830124824,604,HRV,HRV_0053,2022-11-30 17:43:30
61,"[{'imgObject': {}, 'id': 'popsicles', 'src': '/static/foodstim60/popsicles.jpg', 'key': 'u', 'origWidth': 410, 'origHeight': 410, 'width': 410, 'height': 410, 'widthPercent': 0.45, 'rescaleHeight': False, 'trialN': 61, 'loaded': True, 'loadedTime': 50229.199999999255, 'positionName': 'LEFT', 'positionCoords': [204.4, 195], 'bid': 8.51}, {'imgObject': {}, 'id': 'edamame', 'src': '/static/foodstim60/edamame.jpg', 'key': 'i', 'origWidth': 409, 'origHeight': 410, 'width': 409, 'height': 410, 'widthPercent': 0.45, 'rescaleHeight': False, 'trialN': 61, 'loaded': True, 'loadedTime': 50233.5, 'positionName': 'RIGHT', 'positionCoords': [665.6, 195], 'bid': 8.48}]",50224.5,1669830124824,popsicles,edamame,8.51,8.48,-0.02999999999999936,popsicles,72.19999999925494,77,77.19999999925494,True,u,50804.60000000149,580.1000000014901,1669830125404,580,HRV,HRV_0053,2022-11-30 17:43:30
62,"[{'imgObject': {}, 'id': 'corn cob', 'src': '/static/foodstim60/corn cob.jpg', 'key': 'u', 'origWidth': 411, 'origHeight': 411, 'width': 411, 'height': 411, 'widthPercent': 0.45, 'rescaleHeight': False, 'trialN': 62, 'loaded': True, 'loadedTime': 50810.400000002235, 'positionName': 'LEFT', 'positionCoords': [203.4, 194.5], 'bid': 8.56}, {'imgObject': {}, 'id': 'cantaloupe', 'src': '/static/foodstim60/cantaloupe.jpg', 'key': 'i', 'origWidth': 409, 'origHeight': 409, 'width': 409, 'height': 409, 'widthPercent': 0.45, 'rescaleHeight': False, 'trialN': 62, 'loaded': True, 'loadedTime': 50814, 'positionName': 'RIGHT', 'positionCoords': [665.6, 195.5], 'bid': 8.59}]",50805.10000000149,1669830125405,corn cob,cantaloupe,8.56,8.59,0.02999999999999936,corn cob,84.59999999776483,89,89.89999999850988,True,u,51399.199999999255,594.0999999977648,1669830125999,594,HRV,HRV_0053,2022-11-30 17:43:30
63,"[{'imgObject': {}, 'id': 'cantaloupe', 'src': '/static/foodstim60/cantaloupe.jpg', 'key': 'u', 'origWidth': 409, 'origHeight': 409, 'width': 409, 'height': 409, 'widthPercent': 0.45, 'rescaleHeight': False, 'trialN': 63, 'loaded': True, 'loadedTime': 51405, 'positionName': 'LEFT', 'positionCoords': [205.4, 195.5], 'bid': 8.59}, {'imgObject': {}, 'id': 'Grapes', 'src': '/static/foodstim60/Grapes.jpg', 'key': 'i', 'origWidth': 411, 'origHeight': 411, 'width': 411, 'height': 411, 'widthPercent': 0.45, 'rescaleHeight': False, 'trialN': 63, 'loaded': True, 'loadedTime': 51408.900000002235, 'positionName': 'RIGHT', 'positionCoords': [665.6, 194.5], 'bid': 8.82}]",51399.699999999255,1669830125999,cantaloupe,Grapes,8.59,8.82,0.23000000000000043,cantaloupe,25.800000000745058,33,32.70000000298023,True,u,51932.60000000149,532.9000000022352,1669830126532,533,HRV,HRV_0053,2022-11-30 17:43:30
64,"[{'imgObject': {}, 'id': 'cherries', 'src': '/static/foodstim60/cherries.jpg', 'key': 'u', 'origWidth': 410, 'origHeight': 411, 'width': 410, 'height': 411, 'widthPercent': 0.45, 'rescaleHeight': False, 'trialN': 64, 'loaded': True, 'loadedTime': 51937.199999999255, 'positionName': 'LEFT', 'positionCoords': [204.4, 194.5], 'bid': 7.98}, {'imgObject': {}, 'id': 'blueberries', 'src': '/static/foodstim60/blueberries.jpg', 'key': 'i', 'origWidth': 411, 'origHeight': 411, 'width': 411, 'height': 411, 'widthPercent': 0.45, 'rescaleHeight': False, 'trialN': 64, 'loaded': True, 'loadedTime': 51942.10000000149, 'positionName': 'RIGHT', 'positionCoords': [665.6, 194.5], 'bid': 7.390000000000001}]",51932.900000002235,1669830126532,cherries,blueberries,7.98,7.390000000000001,-0.5899999999999999,cherries,68.59999999776483,88,87.29999999701977,True,u,52523.0,590.0999999977648,1669830127122,590,HRV,HRV_0053,2022-11-30 17:43:30
65,"[{'imgObject': {}, 'id': 'hotdog w must', 'src': '/static/foodstim60/hotdog w must.jpg', 'key': 'u', 'origWidth': 409, 'origHeight': 409, 'width': 409, 'height': 409, 'widthPercent': 0.45, 'rescaleHeight': False, 'trialN': 65, 'loaded': True, 'loadedTime': 52528.300000000745, 'positionName': 'LEFT', 'positionCoords': [205.4, 195.5], 'bid': 7.4}, {'imgObject': {}, 'id': 'mashed potato', 'src': '/static/foodstim60/mashed potato.jpg', 'key': 'i', 'origWidth': 409, 'origHeight': 409, 'width': 409, 'height': 409, 'widthPercent': 0.45, 'rescaleHeight': False, 'trialN': 65, 'loaded': True, 'loadedTime': 52531.800000000745, 'positionName': 'RIGHT', 'positionCoords': [665.6, 195.5], 'bid': 6.8100000000000005}]",52523.900000002235,1669830127123,hotdog w must,mashed potato,7.4,6.8100000000000005,-0.5899999999999999,hotdog w must,39.69999999925494,87,86.69999999925494,True,u,53114.900000002235,591.0,1669830127714,591,HRV,HRV_0053,2022-11-30 17:43:30
66,"[{'imgObject': {}, 'id': 'luckycharms', 'src': '/static/foodstim60/luckycharms.jpg', 'key': 'u', 'origWidth': 410, 'origHeight': 409, 'width': 410, 'height': 409, 'widthPercent': 0.45, 'rescaleHeight': False, 'trialN': 66, 'loaded': True, 'loadedTime': 53121.300000000745, 'positionName': 'LEFT', 'positionCoords': [204.4, 195.5], 'bid': 8.71}, {'imgObject': {}, 'id': 'olives', 'src': '/static/foodstim60/olives.jpg', 'key': 'i', 'origWidth': 410, 'origHeight': 410, 'width': 410, 'height': 410, 'widthPercent': 0.45, 'rescaleHeight': False, 'trialN': 66, 'loaded': True, 'loadedTime': 53125, 'positionName': 'RIGHT', 'positionCoords': [665.6, 195], 'bid': 8.21}]",53115.60000000149,1669830127715,luckycharms,olives,8.71,8.21,-0.5,luckycharms,17.899999998509884,30,29.899999998509884,True,u,53649.0,533.3999999985099,1669830128248,533,HRV,HRV_0053,2022-11-30 17:43:30
67,"[{'imgObject': {}, 'id': 'turkey sandwich', 'src': '/static/foodstim60/turkey sandwich.jpg', 'key': 'u', 'origWidth': 409, 'origHeight': 409, 'width': 409, 'height': 409, 'widthPercent': 0.45, 'rescaleHeight': False, 'trialN': 67, 'loaded': True, 'loadedTime': 53655, 'positionName': 'LEFT', 'positionCoords': [205.4, 195.5], 'bid': 8.17}, {'imgObject': {}, 'id': 'cheerios', 'src': '/static/foodstim60/cheerios.jpg', 'key': 'i', 'origWidth': 409, 'origHeight': 410, 'width': 409, 'height': 410, 'widthPercent': 0.45, 'rescaleHeight': False, 'trialN': 67, 'loaded': True, 'loadedTime': 53658.60000000149, 'positionName': 'RIGHT', 'positionCoords': [665.6, 195], 'bid': 8.700000000000001}]",53649.800000000745,1669830128249,turkey sandwich,cheerios,8.17,8.700000000000001,0.5300000000000011,turkey sandwich,18.699999999254942,29,28.5,True,u,54182.900000002235,533.1000000014901,1669830128782,533,HRV,HRV_0053,2022-11-30 17:43:30
68,"[{'imgObject': {}, 'id': 'Grapes', 'src': '/static/foodstim60/Grapes.jpg', 'key': 'u', 'origWidth': 411, 'origHeight': 411, 'width': 411, 'height': 411, 'widthPercent': 0.45, 'rescaleHeight': False, 'trialN': 68, 'loaded': True, 'loadedTime': 54189.300000000745, 'positionName': 'LEFT', 'positionCoords': [203.4, 194.5], 'bid': 8.82}, {'imgObject': {}, 'id': 'seaweed', 'src': '/static/foodstim60/seaweed.jpg', 'key': 'i', 'origWidth': 410, 'origHeight': 410, 'width': 410, 'height': 410, 'widthPercent': 0.45, 'rescaleHeight': False, 'trialN': 68, 'loaded': True, 'loadedTime': 54192.699999999255, 'positionName': 'RIGHT', 'positionCoords': [665.6, 195], 'bid': 7.9}]",54183.699999999255,1669830128783,Grapes,seaweed,8.82,7.9,-0.9199999999999999,Grapes,0.7000000029802322,6,5.5,True,u,54690.400000002235,506.70000000298023,1669830129290,507,HRV,HRV_0053,2022-11-30 17:43:30
69,"[{'imgObject': {}, 'id': 'salad w chicken', 'src': '/static/foodstim60/salad w chicken.jpg', 'key': 'u', 'origWidth': 411, 'origHeight': 411, 'width': 411, 'height': 411, 'widthPercent': 0.45, 'rescaleHeight': False, 'trialN': 69, 'loaded': True, 'loadedTime': 54696.60000000149, 'positionName': 'LEFT', 'positionCoords': [203.4, 194.5], 'bid': 8.75}, {'imgObject': {}, 'id': 'cheerios', 'src': '/static/foodstim60/cheerios.jpg', 'key': 'i', 'origWidth': 409, 'origHeight': 410, 'width': 409, 'height': 410, 'widthPercent': 0.45, 'rescaleHeight': False, 'trialN': 69, 'loaded': True, 'loadedTime': 54700.199999999255, 'positionName': 'RIGHT', 'positionCoords': [665.6, 195], 'bid': 8.700000000000001}]",54690.900000002235,1669830129290,salad w chicken,cheerios,8.75,8.700000000000001,-0.049999999999998934,cheerios,15.399999998509884,27,26.199999999254942,True,i,55219.699999999255,528.7999999970198,1669830129819,529,HRV,HRV_0053,2022-11-30 17:43:30
70,"[{'imgObject': {}, 'id': 'tacos', 'src': '/static/foodstim60/tacos.jpg', 'key': 'u', 'origWidth': 411, 'origHeight': 411, 'width': 411, 'height': 411, 'widthPercent': 0.45, 'rescaleHeight': False, 'trialN': 70, 'loaded': True, 'loadedTime': 55225.699999999255, 'positionName': 'LEFT', 'positionCoords': [203.4, 194.5], 'bid': 8.09}, {'imgObject': {}, 'id': 'rigatoni', 'src': '/static/foodstim60/rigatoni.jpg', 'key': 'i', 'origWidth': 411, 'origHeight': 411, 'width': 411, 'height': 411, 'widthPercent': 0.45, 'rescaleHeight': False, 'trialN': 70, 'loaded': True, 'loadedTime': 55226.199999999255, 'positionName': 'RIGHT', 'positionCoords': [665.6, 194.5], 'bid': 8.01}]",55220.199999999255,1669830129820,tacos,rigatoni,8.09,8.01,-0.08000000000000007,tacos,382.20000000298023,387,387.1000000014901,True,u,56109.199999999255,889.0,1669830130709,889,HRV,HRV_0053,2022-11-30 17:43:30
71,"[{'imgObject': {}, 'id': 'mashed potato', 'src': '/static/foodstim60/mashed potato.jpg', 'key': 'u', 'origWidth': 409, 'origHeight': 409, 'width': 409, 'height': 409, 'widthPercent': 0.45, 'rescaleHeight': False, 'trialN': 71, 'loaded': True, 'loadedTime': 56115, 'positionName': 'LEFT', 'positionCoords': [205.4, 195.5], 'bid': 6.8100000000000005}, {'imgObject': {}, 'id': 'fried eggs', 'src': '/static/foodstim60/fried eggs.jpg', 'key': 'i', 'origWidth': 410, 'origHeight': 410, 'width': 410, 'height': 410, 'widthPercent': 0.45, 'rescaleHeight': False, 'trialN': 71, 'loaded': True, 'loadedTime': 56118.60000000149, 'positionName': 'RIGHT', 'positionCoords': [665.6, 195], 'bid': 6.67}]",56110.0,1669830130710,mashed potato,fried eggs,6.8100000000000005,6.67,-0.14000000000000057,mashed potato,441.30000000074506,445,445.4000000022352,True,u,57060.5,950.5,1669830131660,950,HRV,HRV_0053,2022-11-30 17:43:30
72,"[{'imgObject': {}, 'id': 'eggsalad', 'src': '/static/foodstim60/eggsalad.jpg', 'key': 'u', 'origWidth': 410, 'origHeight': 409, 'width': 410, 'height': 409, 'widthPercent': 0.45, 'rescaleHeight': False, 'trialN': 72, 'loaded': True, 'loadedTime': 57066.400000002235, 'positionName': 'LEFT', 'positionCoords': [204.4, 195.5], 'bid': 8.5}, {'imgObject': {}, 'id': 'lox', 'src': '/static/foodstim60/lox.jpg', 'key': 'i', 'origWidth': 410, 'origHeight': 411, 'width': 410, 'height': 411, 'widthPercent': 0.45, 'rescaleHeight': False, 'trialN': 72, 'loaded': True, 'loadedTime': 57069.900000002235, 'positionName': 'RIGHT', 'positionCoords': [665.6, 194.5], 'bid': 8.48}]",57060.900000002235,1669830131661,eggsalad,lox,8.5,8.48,-0.019999999999999574,eggsalad,9.599999997764826,18,18.099999997764826,True,u,57579.60000000149,518.6999999992549,1669830132179,518,HRV,HRV_0053,2022-11-30 17:43:30
73,"[{'imgObject': {}, 'id': 'blackbeanswithrice', 'src': '/static/foodstim60/blackbeanswithrice.jpg', 'key': 'u', 'origWidth': 410, 'origHeight': 410, 'width': 410, 'height': 410, 'widthPercent': 0.45, 'rescaleHeight': False, 'trialN': 73, 'loaded': True, 'loadedTime': 57584.199999999255, 'positionName': 'LEFT', 'positionCoords': [204.4, 195], 'bid': 8.620000000000001}, {'imgObject': {}, 'id': 'cheerios', 'src': '/static/foodstim60/cheerios.jpg', 'key': 'i', 'origWidth': 409, 'origHeight': 410, 'width': 409, 'height': 410, 'widthPercent': 0.45, 'rescaleHeight': False, 'trialN': 73, 'loaded': True, 'loadedTime': 57598.60000000149, 'positionName': 'RIGHT', 'positionCoords': [665.6, 195], 'bid': 8.700000000000001}]",57580.0,1669830132180,blackbeanswithrice,cheerios,8.620000000000001,8.700000000000001,0.08000000000000007,blackbeanswithrice,35.400000002235174,92,92.80000000074506,True,u,58174.800000000745,594.8000000007451,1669830132774,594,HRV,HRV_0053,2022-11-30 17:43:30
74,"[{'imgObject': {}, 'id': 'blackbeanswithrice', 'src': '/static/foodstim60/blackbeanswithrice.jpg', 'key': 'u', 'origWidth': 410, 'origHeight': 410, 'width': 410, 'height': 410, 'widthPercent': 0.45, 'rescaleHeight': False, 'trialN': 74, 'loaded': True, 'loadedTime': 58180.300000000745, 'positionName': 'LEFT', 'positionCoords': [204.4, 195], 'bid': 8.620000000000001}, {'imgObject': {}, 'id': 'veggieswithdip', 'src': '/static/foodstim60/veggieswithdip.jpg', 'key': 'i', 'origWidth': 409, 'origHeight': 409, 'width': 409, 'height': 409, 'widthPercent': 0.45, 'rescaleHeight': False, 'trialN': 74, 'loaded': True, 'loadedTime': 58192.5, 'positionName': 'RIGHT', 'positionCoords': [665.6, 195.5], 'bid': 7.48}]",58175.199999999255,1669830132775,blackbeanswithrice,veggieswithdip,8.620000000000001,7.48,-1.1400000000000006,veggieswithdip,28.100000001490116,88,88.20000000298023,True,i,58764.0,588.8000000007451,1669830133364,589,HRV,HRV_0053,2022-11-30 17:43:30
75,"[{'imgObject': {}, 'id': 'grilled chicken strips', 'src': '/static/foodstim60/grilled chicken strips.jpg', 'key': 'u', 'origWidth': 410, 'origHeight': 411, 'width': 410, 'height': 411, 'widthPercent': 0.45, 'rescaleHeight': False, 'trialN': 75, 'loaded': True, 'loadedTime': 58769.5, 'positionName': 'LEFT', 'positionCoords': [204.4, 194.5], 'bid': 7.15}, {'imgObject': {}, 'id': 'yogurt no spoon', 'src': '/static/foodstim60/yogurt no spoon.jpg', 'key': 'i', 'origWidth': 411, 'origHeight': 410, 'width': 411, 'height': 410, 'widthPercent': 0.45, 'rescaleHeight': False, 'trialN': 75, 'loaded': True, 'loadedTime': 58773.10000000149, 'positionName': 'RIGHT', 'positionCoords': [665.6, 195], 'bid': 6.37}]",58764.5,1669830133364,grilled chicken strips,yogurt no spoon,7.15,6.37,-0.7800000000000002,grilled chicken strips,454.69999999925494,460,459.4000000022352,True,u,59724.0,959.5,1669830134324,960,HRV,HRV_0053,2022-11-30 17:43:30
76,"[{'imgObject': {}, 'id': 'eggsalad', 'src': '/static/foodstim60/eggsalad.jpg', 'key': 'u', 'origWidth': 410, 'origHeight': 409, 'width': 410, 'height': 409, 'widthPercent': 0.45, 'rescaleHeight': False, 'trialN': 76, 'loaded': True, 'loadedTime': 59729, 'positionName': 'LEFT', 'positionCoords': [204.4, 195.5], 'bid': 8.5}, {'imgObject': {}, 'id': 'avocado', 'src': '/static/foodstim60/avocado.jpg', 'key': 'i', 'origWidth': 409, 'origHeight': 409, 'width': 409, 'height': 409, 'widthPercent': 0.45, 'rescaleHeight': False, 'trialN': 76, 'loaded': True, 'loadedTime': 59732.300000000745, 'positionName': 'RIGHT', 'positionCoords': [665.6, 195.5], 'bid': 8.75}]",59724.5,1669830134324,eggsalad,avocado,8.5,8.75,0.25,eggsalad,37.600000001490116,94,94.0,True,u,60321.800000000745,597.3000000007451,1669830134921,597,HRV,HRV_0053,2022-11-30 17:43:30
77,"[{'imgObject': {}, 'id': 'avocado', 'src': '/static/foodstim60/avocado.jpg', 'key': 'u', 'origWidth': 409, 'origHeight': 409, 'width': 409, 'height': 409, 'widthPercent': 0.45, 'rescaleHeight': False, 'trialN': 77, 'loaded': True, 'loadedTime': 60327.10000000149, 'positionName': 'LEFT', 'positionCoords': [205.4, 195.5], 'bid': 8.75}, {'imgObject': {}, 'id': 'shreddedwheatwithmilk', 'src': '/static/foodstim60/shreddedwheatwithmilk.jpg', 'key': 'i', 'origWidth': 410, 'origHeight': 410, 'width': 410, 'height': 410, 'widthPercent': 0.45, 'rescaleHeight': False, 'trialN': 77, 'loaded': True, 'loadedTime': 60330.60000000149, 'positionName': 'RIGHT', 'positionCoords': [665.6, 195], 'bid': 8.82}]",60322.400000002235,1669830134922,avocado,shreddedwheatwithmilk,8.75,8.82,0.07000000000000028,shreddedwheatwithmilk,432.69999999925494,438,437.5,True,i,61265.10000000149,942.6999999992549,1669830135865,943,HRV,HRV_0053,2022-11-30 17:43:30
78,"[{'imgObject': {}, 'id': 'seaweed', 'src': '/static/foodstim60/seaweed.jpg', 'key': 'u', 'origWidth': 410, 'origHeight': 410, 'width': 410, 'height': 410, 'widthPercent': 0.45, 'rescaleHeight': False, 'trialN': 78, 'loaded': True, 'loadedTime': 61271.300000000745, 'positionName': 'LEFT', 'positionCoords': [204.4, 195], 'bid': 7.9}, {'imgObject': {}, 'id': 'grilled chicken strips', 'src': '/static/foodstim60/grilled chicken strips.jpg', 'key': 'i', 'origWidth': 410, 'origHeight': 411, 'width': 410, 'height': 411, 'widthPercent': 0.45, 'rescaleHeight': False, 'trialN': 78, 'loaded': True, 'loadedTime': 61283.10000000149, 'positionName': 'RIGHT', 'positionCoords': [665.6, 194.5], 'bid': 7.15}]",61265.699999999255,1669830135865,seaweed,grilled chicken strips,7.9,7.15,-0.75,seaweed,172.30000000074506,177,176.30000000074506,True,u,61945.199999999255,679.5,1669830136545,680,HRV,HRV_0053,2022-11-30 17:43:30
79,"[{'imgObject': {}, 'id': 'eggsalad', 'src': '/static/foodstim60/eggsalad.jpg', 'key': 'u', 'origWidth': 410, 'origHeight': 409, 'width': 410, 'height': 409, 'widthPercent': 0.45, 'rescaleHeight': False, 'trialN': 79, 'loaded': True, 'loadedTime': 61951.800000000745, 'positionName': 'LEFT', 'positionCoords': [204.4, 195.5], 'bid': 8.5}, {'imgObject': {}, 'id': 'burger', 'src': '/static/foodstim60/burger.jpg', 'key': 'i', 'origWidth': 409, 'origHeight': 409, 'width': 409, 'height': 409, 'widthPercent': 0.45, 'rescaleHeight': False, 'trialN': 79, 'loaded': True, 'loadedTime': 61955.400000002235, 'positionName': 'RIGHT', 'positionCoords': [665.6, 195.5], 'bid': 8.93}]",61946.199999999255,1669830136546,eggsalad,burger,8.5,8.93,0.4299999999999997,eggsalad,133.80000000074506,138,137.90000000223517,True,u,62587.699999999255,641.5,1669830137187,641,HRV,HRV_0053,2022-11-30 17:43:30
80,"[{'imgObject': {}, 'id': 'avocado', 'src': '/static/foodstim60/avocado.jpg', 'key': 'u', 'origWidth': 409, 'origHeight': 409, 'width': 409, 'height': 409, 'widthPercent': 0.45, 'rescaleHeight': False, 'trialN': 80, 'loaded': True, 'loadedTime': 62592, 'positionName': 'LEFT', 'positionCoords': [205.4, 195.5], 'bid': 8.75}, {'imgObject': {}, 'id': 'omelette', 'src': '/static/foodstim60/omelette.jpg', 'key': 'i', 'origWidth': 410, 'origHeight': 409, 'width': 410, 'height': 409, 'widthPercent': 0.45, 'rescaleHeight': False, 'trialN': 80, 'loaded': True, 'loadedTime': 62595.5, 'positionName': 'RIGHT', 'positionCoords': [665.6, 195.5], 'bid': 8.78}]",62587.900000002235,1669830137188,avocado,omelette,8.75,8.78,0.02999999999999936,avocado,455.19999999925494,460,460.29999999701977,True,u,63551.10000000149,963.1999999992549,1669830138151,963,HRV,HRV_0053,2022-11-30 17:43:30
81,"[{'imgObject': {}, 'id': 'rigatoni and sauce', 'src': '/static/foodstim60/rigatoni and sauce.jpg', 'key': 'u', 'origWidth': 410, 'origHeight': 411, 'width': 410, 'height': 411, 'widthPercent': 0.45, 'rescaleHeight': False, 'trialN': 81, 'loaded': True, 'loadedTime': 63555.800000000745, 'positionName': 'LEFT', 'positionCoords': [204.4, 194.5], 'bid': 8.03}, {'imgObject': {}, 'id': 'tacos', 'src': '/static/foodstim60/tacos.jpg', 'key': 'i', 'origWidth': 411, 'origHeight': 411, 'width': 411, 'height': 411, 'widthPercent': 0.45, 'rescaleHeight': False, 'trialN': 81, 'loaded': True, 'loadedTime': 63559.10000000149, 'positionName': 'RIGHT', 'positionCoords': [665.6, 194.5], 'bid': 8.09}]",63551.60000000149,1669830138151,rigatoni and sauce,tacos,8.03,8.09,0.0600000000000005,rigatoni and sauce,216.39999999850988,221,221.0,True,u,64272.699999999255,721.0999999977648,1669830138872,721,HRV,HRV_0053,2022-11-30 17:43:30
82,"[{'imgObject': {}, 'id': 'burrito', 'src': '/static/foodstim60/burrito.jpg', 'key': 'u', 'origWidth': 410, 'origHeight': 410, 'width': 410, 'height': 410, 'widthPercent': 0.45, 'rescaleHeight': False, 'trialN': 82, 'loaded': True, 'loadedTime': 64277.60000000149, 'positionName': 'LEFT', 'positionCoords': [204.4, 195], 'bid': 7.0600000000000005}, {'imgObject': {}, 'id': 'Tribe humus pita', 'src': '/static/foodstim60/Tribe humus pita.jpg', 'key': 'i', 'origWidth': 411, 'origHeight': 411, 'width': 411, 'height': 411, 'widthPercent': 0.45, 'rescaleHeight': False, 'trialN': 82, 'loaded': True, 'loadedTime': 64288.900000002235, 'positionName': 'RIGHT', 'positionCoords': [665.6, 194.5], 'bid': 5.6000000000000005}]",64273.0,1669830138873,burrito,Tribe humus pita,7.0600000000000005,5.6000000000000005,-1.46,burrito,160.80000000074506,164,164.60000000149012,True,u,64939.900000002235,666.9000000022352,1669830139540,667,HRV,HRV_0053,2022-11-30 17:43:30
83,"[{'imgObject': {}, 'id': 'froot loops w milk', 'src': '/static/foodstim60/froot loops w milk.jpg', 'key': 'u', 'origWidth': 410, 'origHeight': 410, 'width': 410, 'height': 410, 'widthPercent': 0.45, 'rescaleHeight': False, 'trialN': 83, 'loaded': True, 'loadedTime': 64945.199999999255, 'positionName': 'LEFT', 'positionCoords': [204.4, 195], 'bid': 7.890000000000001}, {'imgObject': {}, 'id': 'sweetpotato', 'src': '/static/foodstim60/sweetpotato.jpg', 'key': 'i', 'origWidth': 410, 'origHeight': 410, 'width': 410, 'height': 410, 'widthPercent': 0.45, 'rescaleHeight': False, 'trialN': 83, 'loaded': True, 'loadedTime': 64949.10000000149, 'positionName': 'RIGHT', 'positionCoords': [665.6, 195], 'bid': 7.87}]",64940.699999999255,1669830139541,froot loops w milk,sweetpotato,7.890000000000001,7.87,-0.020000000000000462,froot loops w milk,200.20000000298023,203,203.80000000074506,True,u,65649.80000000075,709.1000000014901,1669830140250,709,HRV,HRV_0053,2022-11-30 17:43:30
84,"[{'imgObject': {}, 'id': 'hashbrowns', 'src': '/static/foodstim60/hashbrowns.jpg', 'key': 'u', 'origWidth': 411, 'origHeight': 410, 'width': 411, 'height': 410, 'widthPercent': 0.45, 'rescaleHeight': False, 'trialN': 84, 'loaded': True, 'loadedTime': 65655.69999999925, 'positionName': 'LEFT', 'positionCoords': [203.4, 195], 'bid': 6.92}, {'imgObject': {}, 'id': 'yogurt no spoon', 'src': '/static/foodstim60/yogurt no spoon.jpg', 'key': 'i', 'origWidth': 411, 'origHeight': 410, 'width': 411, 'height': 410, 'widthPercent': 0.45, 'rescaleHeight': False, 'trialN': 84, 'loaded': True, 'loadedTime': 65659.19999999925, 'positionName': 'RIGHT', 'positionCoords': [665.6, 195], 'bid': 6.37}]",65650.19999999925,1669830140250,hashbrowns,yogurt no spoon,6.92,6.37,-0.5499999999999998,hashbrowns,127.60000000149012,131,131.10000000149012,True,u,66285.30000000075,635.1000000014901,1669830140885,635,HRV,HRV_0053,2022-11-30 17:43:30
85,"[{'imgObject': {}, 'id': 'chicken nuggets2', 'src': '/static/foodstim60/chicken nuggets2.jpg', 'key': 'u', 'origWidth': 410, 'origHeight': 409, 'width': 410, 'height': 409, 'widthPercent': 0.45, 'rescaleHeight': False, 'trialN': 85, 'loaded': True, 'loadedTime': 66289.80000000075, 'positionName': 'LEFT', 'positionCoords': [204.4, 195.5], 'bid': 8.39}, {'imgObject': {}, 'id': 'mango', 'src': '/static/foodstim60/mango.jpg', 'key': 'i', 'origWidth': 411, 'origHeight': 411, 'width': 411, 'height': 411, 'widthPercent': 0.45, 'rescaleHeight': False, 'trialN': 85, 'loaded': True, 'loadedTime': 66293.60000000149, 'positionName': 'RIGHT', 'positionCoords': [665.6, 194.5], 'bid': 8.4}]",66285.60000000149,1669830140885,chicken nuggets2,mango,8.39,8.4,0.009999999999999787,chicken nuggets2,86.09999999776483,90,89.80000000074506,True,u,66875.5,589.8999999985099,1669830141475,590,HRV,HRV_0053,2022-11-30 17:43:30
86,"[{'imgObject': {}, 'id': 'tacos', 'src': '/static/foodstim60/tacos.jpg', 'key': 'u', 'origWidth': 411, 'origHeight': 411, 'width': 411, 'height': 411, 'widthPercent': 0.45, 'rescaleHeight': False, 'trialN': 86, 'loaded': True, 'loadedTime': 66880.10000000149, 'positionName': 'LEFT', 'positionCoords': [203.4, 194.5], 'bid': 8.09}, {'imgObject': {}, 'id': 'eggs', 'src': '/static/foodstim60/eggs.jpg', 'key': 'i', 'origWidth': 409, 'origHeight': 409, 'width': 409, 'height': 409, 'widthPercent': 0.45, 'rescaleHeight': False, 'trialN': 86, 'loaded': True, 'loadedTime': 66883.60000000149, 'positionName': 'RIGHT', 'positionCoords': [665.6, 195.5], 'bid': 7.6}]",66875.90000000224,1669830141476,tacos,eggs,8.09,7.6,-0.4900000000000002,eggs,77.89999999850988,83,83.39999999850988,True,i,67464.5,588.5999999977648,1669830142064,588,HRV,HRV_0053,2022-11-30 17:43:30
87,"[{'imgObject': {}, 'id': 'avocado', 'src': '/static/foodstim60/avocado.jpg', 'key': 'u', 'origWidth': 409, 'origHeight': 409, 'width': 409, 'height': 409, 'widthPercent': 0.45, 'rescaleHeight': False, 'trialN': 87, 'loaded': True, 'loadedTime': 67470.69999999925, 'positionName': 'LEFT', 'positionCoords': [205.4, 195.5], 'bid': 8.75}, {'imgObject': {}, 'id': 'roastedpotatoes', 'src': '/static/foodstim60/roastedpotatoes.jpg', 'key': 'i', 'origWidth': 409, 'origHeight': 410, 'width': 409, 'height': 410, 'widthPercent': 0.45, 'rescaleHeight': False, 'trialN': 87, 'loaded': True, 'loadedTime': 67474.30000000075, 'positionName': 'RIGHT', 'positionCoords': [665.6, 195], 'bid': 8.32}]",67464.90000000224,1669830142065,avocado,roastedpotatoes,8.75,8.32,-0.4299999999999997,roastedpotatoes,31.899999998509884,44,43.899999998509884,True,i,68009.80000000075,544.8999999985099,1669830142610,545,HRV,HRV_0053,2022-11-30 17:43:30
88,"[{'imgObject': {}, 'id': 'fried eggs', 'src': '/static/foodstim60/fried eggs.jpg', 'key': 'u', 'origWidth': 410, 'origHeight': 410, 'width': 410, 'height': 410, 'widthPercent': 0.45, 'rescaleHeight': False, 'trialN': 88, 'loaded': True, 'loadedTime': 68015.60000000149, 'positionName': 'LEFT', 'positionCoords': [204.4, 195], 'bid': 6.67}, {'imgObject': {}, 'id': 'apple slices', 'src': '/static/foodstim60/apple slices.jpg', 'key': 'i', 'origWidth': 409, 'origHeight': 410, 'width': 409, 'height': 410, 'widthPercent': 0.45, 'rescaleHeight': False, 'trialN': 88, 'loaded': True, 'loadedTime': 68019.30000000075, 'positionName': 'RIGHT', 'positionCoords': [665.6, 195], 'bid': 6.68}]",68010.40000000224,1669830142610,fried eggs,apple slices,6.67,6.68,0.009999999999999787,fried eggs,50.399999998509884,89,88.89999999850988,True,u,68601.40000000224,591.0,1669830143201,591,HRV,HRV_0053,2022-11-30 17:43:30
89,"[{'imgObject': {}, 'id': 'mac & cheese', 'src': '/static/foodstim60/mac & cheese.jpg', 'key': 'u', 'origWidth': 410, 'origHeight': 410, 'width': 410, 'height': 410, 'widthPercent': 0.45, 'rescaleHeight': False, 'trialN': 89, 'loaded': True, 'loadedTime': 68607.40000000224, 'positionName': 'LEFT', 'positionCoords': [204.4, 195], 'bid': 7.01}, {'imgObject': {}, 'id': 'turkeysandwich', 'src': '/static/foodstim60/turkeysandwich.jpg', 'key': 'i', 'origWidth': 409, 'origHeight': 409, 'width': 409, 'height': 409, 'widthPercent': 0.45, 'rescaleHeight': False, 'trialN': 89, 'loaded': True, 'loadedTime': 68610.90000000224, 'positionName': 'RIGHT', 'positionCoords': [665.6, 195.5], 'bid': 7.01}]",68601.90000000224,1669830143202,mac & cheese,turkeysandwich,7.01,7.01,0.0,mac & cheese,380.69999999925494,384,384.0999999977648,True,u,69491.0,889.0999999977648,1669830144091,889,HRV,HRV_0053,2022-11-30 17:43:30
90,"[{'imgObject': {}, 'id': 'froot loops w milk', 'src': '/static/foodstim60/froot loops w milk.jpg', 'key': 'u', 'origWidth': 410, 'origHeight': 410, 'width': 410, 'height': 410, 'widthPercent': 0.45, 'rescaleHeight': False, 'trialN': 90, 'loaded': True, 'loadedTime': 71770.30000000075, 'positionName': 'LEFT', 'positionCoords': [204.4, 195], 'bid': 7.890000000000001}, {'imgObject': {}, 'id': 'burrito', 'src': '/static/foodstim60/burrito.jpg', 'key': 'i', 'origWidth': 410, 'origHeight': 410, 'width': 410, 'height': 410, 'widthPercent': 0.45, 'rescaleHeight': False, 'trialN': 90, 'loaded': True, 'loadedTime': 71775.69999999925, 'positionName': 'RIGHT', 'positionCoords': [665.6, 195], 'bid': 7.0600000000000005}]",71769.40000000224,1669830146369,froot loops w milk,burrito,7.890000000000001,7.0600000000000005,-0.8300000000000001,froot loops w milk,389.29999999701977,394,394.0,True,u,72666.19999999925,896.7999999970198,1669830147266,897,HRV,HRV_0053,2022-11-30 17:43:30
91,"[{'imgObject': {}, 'id': 'orange slices', 'src': '/static/foodstim60/orange slices.jpg', 'key': 'u', 'origWidth': 409, 'origHeight': 410, 'width': 409, 'height': 410, 'widthPercent': 0.45, 'rescaleHeight': False, 'trialN': 91, 'loaded': True, 'loadedTime': 72672.69999999925, 'positionName': 'LEFT', 'positionCoords': [205.4, 195], 'bid': 9.06}, {'imgObject': {}, 'id': 'Grapes', 'src': '/static/foodstim60/Grapes.jpg', 'key': 'i', 'origWidth': 411, 'origHeight': 411, 'width': 411, 'height': 411, 'widthPercent': 0.45, 'rescaleHeight': False, 'trialN': 91, 'loaded': True, 'loadedTime': 72676.40000000224, 'positionName': 'RIGHT', 'positionCoords': [665.6, 194.5], 'bid': 8.82}]",72666.69999999925,1669830147267,orange slices,Grapes,9.06,8.82,-0.2400000000000002,Grapes,59.80000000074506,65,65.70000000298023,True,i,73233.10000000149,566.4000000022352,1669830147833,566,HRV,HRV_0053,2022-11-30 17:43:30
92,"[{'imgObject': {}, 'id': 'hashbrowns', 'src': '/static/foodstim60/hashbrowns.jpg', 'key': 'u', 'origWidth': 411, 'origHeight': 410, 'width': 411, 'height': 410, 'widthPercent': 0.45, 'rescaleHeight': False, 'trialN': 92, 'loaded': True, 'loadedTime': 73237.90000000224, 'positionName': 'LEFT', 'positionCoords': [203.4, 195], 'bid': 6.92}, {'imgObject': {}, 'id': 'steak', 'src': '/static/foodstim60/steak.jpg', 'key': 'i', 'origWidth': 410, 'origHeight': 410, 'width': 410, 'height': 410, 'widthPercent': 0.45, 'rescaleHeight': False, 'trialN': 92, 'loaded': True, 'loadedTime': 73241.19999999925, 'positionName': 'RIGHT', 'positionCoords': [665.6, 195], 'bid': 7.71}]",73233.40000000224,1669830147833,hashbrowns,steak,6.92,7.71,0.79,steak,52.0,85,85.0,True,i,73818.90000000224,585.5,1669830148419,586,HRV,HRV_0053,2022-11-30 17:43:30
93,"[{'imgObject': {}, 'id': 'chicken nuggets2', 'src': '/static/foodstim60/chicken nuggets2.jpg', 'key': 'u', 'origWidth': 410, 'origHeight': 409, 'width': 410, 'height': 409, 'widthPercent': 0.45, 'rescaleHeight': False, 'trialN': 93, 'loaded': True, 'loadedTime': 73825, 'positionName': 'LEFT', 'positionCoords': [204.4, 195.5], 'bid': 8.39}, {'imgObject': {}, 'id': 'omelette', 'src': '/static/foodstim60/omelette.jpg', 'key': 'i', 'origWidth': 410, 'origHeight': 409, 'width': 410, 'height': 409, 'widthPercent': 0.45, 'rescaleHeight': False, 'trialN': 93, 'loaded': True, 'loadedTime': 73838.19999999925, 'positionName': 'RIGHT', 'positionCoords': [665.6, 195.5], 'bid': 8.78}]",73819.40000000224,1669830148419,chicken nuggets2,omelette,8.39,8.78,0.3899999999999988,chicken nuggets2,8.199999999254942,19,18.599999997764826,True,u,74338.30000000075,518.8999999985099,1669830148938,519,HRV,HRV_0053,2022-11-30 17:43:30
94,"[{'imgObject': {}, 'id': 'banana', 'src': '/static/foodstim60/banana.jpg', 'key': 'u', 'origWidth': 410, 'origHeight': 410, 'width': 410, 'height': 410, 'widthPercent': 0.45, 'rescaleHeight': False, 'trialN': 94, 'loaded': True, 'loadedTime': 74342.5, 'positionName': 'LEFT', 'positionCoords': [204.4, 195], 'bid': 7.56}, {'imgObject': {}, 'id': 'luckycharms', 'src': '/static/foodstim60/luckycharms.jpg', 'key': 'i', 'origWidth': 410, 'origHeight': 409, 'width': 410, 'height': 409, 'widthPercent': 0.45, 'rescaleHeight': False, 'trialN': 94, 'loaded': True, 'loadedTime': 74345.90000000224, 'positionName': 'RIGHT', 'positionCoords': [665.6, 195.5], 'bid': 8.71}]",74338.60000000149,1669830148939,banana,luckycharms,7.56,8.71,1.1500000000000012,banana,451.80000000074506,458,457.8999999985099,True,u,75297.10000000149,958.5,1669830149897,958,HRV,HRV_0053,2022-11-30 17:43:30
95,"[{'imgObject': {}, 'id': 'cantaloupe', 'src': '/static/foodstim60/cantaloupe.jpg', 'key': 'u', 'origWidth': 409, 'origHeight': 409, 'width': 409, 'height': 409, 'widthPercent': 0.45, 'rescaleHeight': False, 'trialN': 95, 'loaded': True, 'loadedTime': 75303, 'positionName': 'LEFT', 'positionCoords': [205.4, 195.5], 'bid': 8.59}, {'imgObject': {}, 'id': 'hotdog w must', 'src': '/static/foodstim60/hotdog w must.jpg', 'key': 'i', 'origWidth': 409, 'origHeight': 409, 'width': 409, 'height': 409, 'widthPercent': 0.45, 'rescaleHeight': False, 'trialN': 95, 'loaded': True, 'loadedTime': 75306.69999999925, 'positionName': 'RIGHT', 'positionCoords': [665.6, 195.5], 'bid': 7.4}]",75297.60000000149,1669830149898,cantaloupe,hotdog w must,8.59,7.4,-1.1899999999999995,cantaloupe,271.69999999925494,276,276.5999999977648,True,u,76076.69999999925,779.0999999977648,1669830150677,779,HRV,HRV_0053,2022-11-30 17:43:30
96,"[{'imgObject': {}, 'id': 'corn cob', 'src': '/static/foodstim60/corn cob.jpg', 'key': 'u', 'origWidth': 411, 'origHeight': 411, 'width': 411, 'height': 411, 'widthPercent': 0.45, 'rescaleHeight': False, 'trialN': 96, 'loaded': True, 'loadedTime': 76081.69999999925, 'positionName': 'LEFT', 'positionCoords': [203.4, 194.5], 'bid': 8.56}, {'imgObject': {}, 'id': 'chicken nuggets2', 'src': '/static/foodstim60/chicken nuggets2.jpg', 'key': 'i', 'origWidth': 410, 'origHeight': 409, 'width': 410, 'height': 409, 'widthPercent': 0.45, 'rescaleHeight': False, 'trialN': 96, 'loaded': True, 'loadedTime': 76085.10000000149, 'positionName': 'RIGHT', 'positionCoords': [665.6, 195.5], 'bid': 8.39}]",76077.10000000149,1669830150677,corn cob,chicken nuggets2,8.56,8.39,-0.16999999999999993,corn cob,33.30000000074506,90,90.19999999925494,True,u,76668.60000000149,591.5,1669830151269,592,HRV,HRV_0053,2022-11-30 17:43:30
97,"[{'imgObject': {}, 'id': 'veggieswithdip', 'src': '/static/foodstim60/veggieswithdip.jpg', 'key': 'u', 'origWidth': 409, 'origHeight': 409, 'width': 409, 'height': 409, 'widthPercent': 0.45, 'rescaleHeight': False, 'trialN': 97, 'loaded': True, 'loadedTime': 76674.69999999925, 'positionName': 'LEFT', 'positionCoords': [205.4, 195.5], 'bid': 7.48}, {'imgObject': {}, 'id': 'sushi w_condiments', 'src': '/static/foodstim60/sushi w_condiments.jpg', 'key': 'i', 'origWidth': 410, 'origHeight': 410, 'width': 410, 'height': 410, 'widthPercent': 0.45, 'rescaleHeight': False, 'trialN': 97, 'loaded': True, 'loadedTime': 76678.19999999925, 'positionName': 'RIGHT', 'positionCoords': [665.6, 195], 'bid': 7.5}]",76669.10000000149,1669830151269,veggieswithdip,sushi w_condiments,7.48,7.5,0.019999999999999574,veggieswithdip,538.1999999992549,544,543.5,True,u,77715.5,1046.3999999985099,1669830152316,1047,HRV,HRV_0053,2022-11-30 17:43:30
98,"[{'imgObject': {}, 'id': 'burger', 'src': '/static/foodstim60/burger.jpg', 'key': 'u', 'origWidth': 409, 'origHeight': 409, 'width': 409, 'height': 409, 'widthPercent': 0.45, 'rescaleHeight': False, 'trialN': 98, 'loaded': True, 'loadedTime': 77721.5, 'positionName': 'LEFT', 'positionCoords': [205.4, 195.5], 'bid': 8.93}, {'imgObject': {}, 'id': 'Grapes', 'src': '/static/foodstim60/Grapes.jpg', 'key': 'i', 'origWidth': 411, 'origHeight': 411, 'width': 411, 'height': 411, 'widthPercent': 0.45, 'rescaleHeight': False, 'trialN': 98, 'loaded': True, 'loadedTime': 77725, 'positionName': 'RIGHT', 'positionCoords': [665.6, 194.5], 'bid': 8.82}]",77715.80000000075,1669830152316,burger,Grapes,8.93,8.82,-0.10999999999999943,Grapes,203.39999999850988,208,208.39999999850988,True,i,78428.40000000224,712.6000000014901,1669830153029,713,HRV,HRV_0053,2022-11-30 17:43:30
99,"[{'imgObject': {}, 'id': 'pear', 'src': '/static/foodstim60/pear.jpg', 'key': 'u', 'origWidth': 411, 'origHeight': 410, 'width': 411, 'height': 410, 'widthPercent': 0.45, 'rescaleHeight': False, 'trialN': 99, 'loaded': True, 'loadedTime': 78433.10000000149, 'positionName': 'LEFT', 'positionCoords': [203.4, 195], 'bid': 7.4}, {'imgObject': {}, 'id': 'salmon', 'src': '/static/foodstim60/salmon.jpg', 'key': 'i', 'origWidth': 410, 'origHeight': 409, 'width': 410, 'height': 409, 'widthPercent': 0.45, 'rescaleHeight': False, 'trialN': 99, 'loaded': True, 'loadedTime': 78437.10000000149, 'positionName': 'RIGHT', 'positionCoords': [665.6, 195.5], 'bid': 8.57}]",78428.69999999925,1669830153029,pear,salmon,7.4,8.57,1.17,pear,41.5,105,105.0,True,u,79034.30000000075,605.6000000014901,1669830153635,606,HRV,HRV_0053,2022-11-30 17:43:30
100,"[{'imgObject': {}, 'id': 'burger', 'src': '/static/foodstim60/burger.jpg', 'key': 'u', 'origWidth': 409, 'origHeight': 409, 'width': 409, 'height': 409, 'widthPercent': 0.45, 'rescaleHeight': False, 'trialN': 100, 'loaded': True, 'loadedTime': 79039, 'positionName': 'LEFT', 'positionCoords': [205.4, 195.5], 'bid': 8.93}, {'imgObject': {}, 'id': 'salad w chicken', 'src': '/static/foodstim60/salad w chicken.jpg', 'key': 'i', 'origWidth': 411, 'origHeight': 411, 'width': 411, 'height': 411, 'widthPercent': 0.45, 'rescaleHeight': False, 'trialN': 100, 'loaded': True, 'loadedTime': 79042.40000000224, 'positionName': 'RIGHT', 'positionCoords': [665.6, 194.5], 'bid': 8.75}]",79034.69999999925,1669830153635,burger,salad w chicken,8.93,8.75,-0.17999999999999972,salad w chicken,14.300000000745058,24,24.0,True,i,79561.40000000224,526.7000000029802,1669830154162,527,HRV,HRV_0053,2022-11-30 17:43:30
101,"[{'imgObject': {}, 'id': 'bagel plain', 'src': '/static/foodstim60/bagel plain.jpg', 'key': 'u', 'origWidth': 410, 'origHeight': 410, 'width': 410, 'height': 410, 'widthPercent': 0.45, 'rescaleHeight': False, 'trialN': 101, 'loaded': True, 'loadedTime': 79572.5, 'positionName': 'LEFT', 'positionCoords': [204.4, 195], 'bid': 8.09}, {'imgObject': {}, 'id': 'kiwi', 'src': '/static/foodstim60/kiwi.jpg', 'key': 'i', 'origWidth': 410, 'origHeight': 410, 'width': 410, 'height': 410, 'widthPercent': 0.45, 'rescaleHeight': False, 'trialN': 101, 'loaded': True, 'loadedTime': 79584.60000000149, 'positionName': 'RIGHT', 'positionCoords': [665.6, 195], 'bid': 6.390000000000001}]",79562.0,1669830154162,bagel plain,kiwi,8.09,6.390000000000001,-1.6999999999999993,kiwi,1.9000000022351742,23,22.400000002235174,True,i,80087.10000000149,525.1000000014901,1669830154687,525,HRV,HRV_0053,2022-11-30 17:43:30
102,"[{'imgObject': {}, 'id': 'cherry tomato', 'src': '/static/foodstim60/cherry tomato.jpg', 'key': 'u', 'origWidth': 410, 'origHeight': 410, 'width': 410, 'height': 410, 'widthPercent': 0.45, 'rescaleHeight': False, 'trialN': 102, 'loaded': True, 'loadedTime': 80092.19999999925, 'positionName': 'LEFT', 'positionCoords': [204.4, 195], 'bid': 7.9}, {'imgObject': {}, 'id': 'froot loops w milk', 'src': '/static/foodstim60/froot loops w milk.jpg', 'key': 'i', 'origWidth': 410, 'origHeight': 410, 'width': 410, 'height': 410, 'widthPercent': 0.45, 'rescaleHeight': False, 'trialN': 102, 'loaded': True, 'loadedTime': 80097.80000000075, 'positionName': 'RIGHT', 'positionCoords': [665.6, 195], 'bid': 7.890000000000001}]",80087.5,1669830154688,cherry tomato,froot loops w milk,7.9,7.890000000000001,-0.009999999999999787,froot loops w milk,6.5,18,18.400000002235174,True,i,80608.10000000149,520.6000000014901,1669830155208,520,HRV,HRV_0053,2022-11-30 17:43:30
103,"[{'imgObject': {}, 'id': 'apple slices', 'src': '/static/foodstim60/apple slices.jpg', 'key': 'u', 'origWidth': 409, 'origHeight': 410, 'width': 409, 'height': 410, 'widthPercent': 0.45, 'rescaleHeight': False, 'trialN': 103, 'loaded': True, 'loadedTime': 80614.80000000075, 'positionName': 'LEFT', 'positionCoords': [205.4, 195], 'bid': 6.68}, {'imgObject': {}, 'id': 'banana', 'src': '/static/foodstim60/banana.jpg', 'key': 'i', 'origWidth': 410, 'origHeight': 410, 'width': 410, 'height': 410, 'widthPercent': 0.45, 'rescaleHeight': False, 'trialN': 103, 'loaded': True, 'loadedTime': 80618.19999999925, 'positionName': 'RIGHT', 'positionCoords': [665.6, 195], 'bid': 7.56}]",80609.0,1669830155209,apple slices,banana,6.68,7.56,0.8799999999999999,banana,510.9000000022352,516,515.6000000014901,True,i,81628.30000000075,1019.3000000007451,1669830156229,1020,HRV,HRV_0053,2022-11-30 17:43:30
104,"[{'imgObject': {}, 'id': 'granola w milk', 'src': '/static/foodstim60/granola w milk.jpg', 'key': 'u', 'origWidth': 410, 'origHeight': 410, 'width': 410, 'height': 410, 'widthPercent': 0.45, 'rescaleHeight': False, 'trialN': 104, 'loaded': True, 'loadedTime': 81633.30000000075, 'positionName': 'LEFT', 'positionCoords': [204.4, 195], 'bid': 8.120000000000001}, {'imgObject': {}, 'id': 'cocktailshrimp', 'src': '/static/foodstim60/cocktailshrimp.jpg', 'key': 'i', 'origWidth': 410, 'origHeight': 410, 'width': 410, 'height': 410, 'widthPercent': 0.45, 'rescaleHeight': False, 'trialN': 104, 'loaded': True, 'loadedTime': 81636.60000000149, 'positionName': 'RIGHT', 'positionCoords': [665.6, 195], 'bid': 7.79}]",81628.69999999925,1669830156229,granola w milk,cocktailshrimp,8.120000000000001,7.79,-0.33000000000000096,cocktailshrimp,379.30000000074506,385,384.6000000014901,True,i,82515.40000000224,886.7000000029802,1669830157116,887,HRV,HRV_0053,2022-11-30 17:43:30
105,"[{'imgObject': {}, 'id': 'blueberries', 'src': '/static/foodstim60/blueberries.jpg', 'key': 'u', 'origWidth': 411, 'origHeight': 411, 'width': 411, 'height': 411, 'widthPercent': 0.45, 'rescaleHeight': False, 'trialN': 105, 'loaded': True, 'loadedTime': 82521.40000000224, 'positionName': 'LEFT', 'positionCoords': [203.4, 194.5], 'bid': 7.390000000000001}, {'imgObject': {}, 'id': 'popsicles', 'src': '/static/foodstim60/popsicles.jpg', 'key': 'i', 'origWidth': 410, 'origHeight': 410, 'width': 410, 'height': 410, 'widthPercent': 0.45, 'rescaleHeight': False, 'trialN': 105, 'loaded': True, 'loadedTime': 82525.40000000224, 'positionName': 'RIGHT', 'positionCoords': [665.6, 195], 'bid': 8.51}]",82515.80000000075,1669830157116,blueberries,popsicles,7.390000000000001,8.51,1.1199999999999992,popsicles,187.19999999925494,192,191.89999999850988,True,i,83208.0,692.1999999992549,1669830157808,692,HRV,HRV_0053,2022-11-30 17:43:30
106,"[{'imgObject': {}, 'id': 'raspberries', 'src': '/static/foodstim60/raspberries.jpg', 'key': 'u', 'origWidth': 411, 'origHeight': 411, 'width': 411, 'height': 411, 'widthPercent': 0.45, 'rescaleHeight': False, 'trialN': 106, 'loaded': True, 'loadedTime': 83213.80000000075, 'positionName': 'LEFT', 'positionCoords': [203.4, 194.5], 'bid': 6.6000000000000005}, {'imgObject': {}, 'id': 'blueberries', 'src': '/static/foodstim60/blueberries.jpg', 'key': 'i', 'origWidth': 411, 'origHeight': 411, 'width': 411, 'height': 411, 'widthPercent': 0.45, 'rescaleHeight': False, 'trialN': 106, 'loaded': True, 'loadedTime': 83225.19999999925, 'positionName': 'RIGHT', 'positionCoords': [665.6, 194.5], 'bid': 7.390000000000001}]",83208.5,1669830157809,raspberries,blueberries,6.6000000000000005,7.390000000000001,0.79,blueberries,201.40000000223517,207,207.19999999925494,True,i,83916.40000000224,707.9000000022352,1669830158517,708,HRV,HRV_0053,2022-11-30 17:43:30
107,"[{'imgObject': {}, 'id': 'ice cream sundae 002', 'src': '/static/foodstim60/ice cream sundae 002.jpg', 'key': 'u', 'origWidth': 409, 'origHeight': 409, 'width': 409, 'height': 409, 'widthPercent': 0.45, 'rescaleHeight': False, 'trialN': 107, 'loaded': True, 'loadedTime': 83923, 'positionName': 'LEFT', 'positionCoords': [205.4, 195.5], 'bid': 8.6}, {'imgObject': {}, 'id': 'strawberries', 'src': '/static/foodstim60/strawberries.jpg', 'key': 'i', 'origWidth': 410, 'origHeight': 410, 'width': 410, 'height': 410, 'widthPercent': 0.45, 'rescaleHeight': False, 'trialN': 107, 'loaded': True, 'loadedTime': 83926.5, 'positionName': 'RIGHT', 'positionCoords': [665.6, 195], 'bid': 7.42}]",83916.90000000224,1669830158517,ice cream sundae 002,strawberries,8.6,7.42,-1.1799999999999997,strawberries,159.89999999850988,165,164.39999999850988,True,i,84585.30000000075,668.3999999985099,1669830159186,669,HRV,HRV_0053,2022-11-30 17:43:30
