success,trial_type,trial_index,time_elapsed,internal_node_id,Block,TrialNumber,TrialTime,trialTimeDiff,FPS_avg,FPS_med,FPS_mode,TrialDur,winResizeTime,rt,block,button_pressed,MotCoh,MotDir,ColCoh,Color,ChoiceKey,Choice,Accuracy,RT,nFrames,FPS,PPD,missTrial,missTrialMsg,onsetDelay,fullScreenExitTime,canvCenter,TrialType,Score,BlockTrial,stimulus,button_labels,exp,subjectId,date
True,fullscreen,0,2551,0.0-0.0,0.0,1.0,,,,,,,,,,,,,,,,,,,,,,,,,,,,,,,,HRV,HRV_0079,2022-11-30 18:03:59
,wl-check-fps,1,8016,0.0-1.0,0.0,2.0,"[5356.2, 5358.9, 5383.6, 5388.5, 5431, 5438.7, 5452.1, 5468.8, 5485, 5501.6, 5526.7, 5534.8, 5551.6, 5568.3, 5585.6, 5601.5, 5618.4, 5634.8, 5651.4, 5668.6, 5684.8, 5701.5, 5718.5, 5734.8, 5751.6, 5768.2, 5784.8, 5801.5, 5818.2, 5834.8, 6259.1, 6322.9, 6324.3, 6336.7, 6351.2, 6368.2, 6384.6, 6401.1, 6418, 6436.1, 6451.9, 6468.2, 6486.7, 6503.3, 6518, 6534.9, 6551.3, 6568, 6584.9, 6601.6, 6618.1, 6634.4, 6651.3, 6667.9, 6684.8, 6701.7, 6718.7, 6735.7, 6751.4, 6767.9, 6784.7, 6801.3, 6817.8, 6834.5, 6851.5, 6867.9, 6884.7, 6901.6, 6918.1, 6934.6, 6951.6, 6967.9, 6984.8, 7001.6, 7017.9, 7034.9, 7052, 7068.6, 7084.5, 7101.3, 7118, 7135, 7151.6, 7168, 7184.4, 7201.4, 7218.2, 7235, 7251.2, 7268, 7284.7, 7301.7, 7317.8, 7334.8, 7352.8, 7368.5, 7386.3, 7405.9, 7420.8, 7437.2, 7454.1, 7469.5, 7487.3, 7502.6, 7519.1, 7536, 7552.2, 7569.2, 7586.5, 7602.5, 7620.2, 7636.3, 7655.2, 7667.7, 7686, 7702.2, 7719, 7734.4, 7751.1, 7767.7, 7784.4, 7801.1, 7819.8, 7834.4, 7851.1, 7868.2, 7884.4, 7901, 7917.7, 7934.6, 7951.5, 7967.9, 7984.8, 8002, 8018, 8036.4, 8052.8, 8068.7, 8085.5, 8101.5, 8118.1, 8135, 8151.7, 8168.3, 8184.6, 8204.1, 8218.2, 8234.9, 8251.3, 8268, 8284.4, 8301.1, 8318.1, 8335, 8351.6, 8368.7, 8384.9, 8401.6, 8418.5, 8436.2, 8452.8, 8468.1, 8484.8, 8501.2, 8518, 8538.3, 8552, 8568.5, 8585.5, 8601.7, 8618.3, 8634.8, 8651.1, 8668.6, 8686.6, 8702.2, 8719.5, 8736.5, 8752.3, 8769.2, 8786.4, 8802.5, 8819.1, 8837.5, 8853.5, 8869.2, 8886.8, 8902.6, 8919.1, 8936, 8951.6, 8969.8, 8986.6, 9002.7, 9019.3, 9036.2, 9053, 9070.9, 9087.4, 9102.7, 9119.1, 9136.4, 9152.8, 9170.1, 9184.5, 9201.7, 9217.8, 9234.8, 9252.5, 9269.6, 9287, 9302.5, 9317.7, 9334.4, 9351.1, 9368.2, 9384.5, 9401.4, 9418.1, 9434.7, 9451.6, 9467.7, 9484.5, 9501.6, 9517.9, 9535, 9551, 9567.9, 9584.6, 9601.5, 9617.8, 9634.7, 9651, 9668, 9684.9, 9701.3, 9718.1, 9734.9, 9751.4, 9768.2, 9784.6, 9801.5, 9818.3, 9834.7, 9851.7, 9868.5, 9884.7, 9901.6, 9918.3, 9934.6, 9951.5, 9967.9, 9984.7, 10001.5, 10017.9, 10035.1, 10051.6, 10068.2, 10084.9, 10102, 10118.1, 10135.1, 10151.2, 10167.8, 10184.8, 10201.2, 10220.3, 10236.1, 10251.5, 10268.2, 10284.6, 10301.1, 10317.8, 10334.5, 10351.1, 10367.9, 10384.6, 10401.3, 10418.1, 10434.5, 10451.5, 10467.9, 10484.5, 10501.2, 10517.9, 10534.6, 10551.5, 10567.8, 10585.9, 10601.3, 10617.9, 10634.9, 10651.1, 10667.8, 10684.5, 10701.1, 10717.9, 10734.4, 10751, 10768.1]","[23.4, 2.7, 24.7, 4.9, 42.5, 7.7, 13.4, 16.7, 16.2, 16.6, 25.1, 8.1, 16.8, 16.7, 17.3, 15.9, 16.9, 16.4, 16.6, 17.2, 16.2, 16.7, 17, 16.3, 16.8, 16.6, 16.6, 16.7, 16.7, 16.6, 424.3, 63.8, 1.4, 12.4, 14.5, 17, 16.4, 16.5, 16.9, 18.1, 15.8, 16.3, 18.5, 16.6, 14.7, 16.9, 16.4, 16.7, 16.9, 16.7, 16.5, 16.3, 16.9, 16.6, 16.9, 16.9, 17, 17, 15.7, 16.5, 16.8, 16.6, 16.5, 16.7, 17, 16.4, 16.8, 16.9, 16.5, 16.5, 17, 16.3, 16.9, 16.8, 16.3, 17, 17.1, 16.6, 15.9, 16.8, 16.7, 17, 16.6, 16.4, 16.4, 17, 16.8, 16.8, 16.2, 16.8, 16.7, 17, 16.1, 17, 18, 15.7, 17.8, 19.6, 14.9, 16.4, 16.9, 15.4, 17.8, 15.3, 16.5, 16.9, 16.2, 17, 17.3, 16, 17.7, 16.1, 18.9, 12.5, 18.3, 16.2, 16.8, 15.4, 16.7, 16.6, 16.7, 16.7, 18.7, 14.6, 16.7, 17.1, 16.2, 16.6, 16.7, 16.9, 16.9, 16.4, 16.9, 17.2, 16, 18.4, 16.4, 15.9, 16.8, 16, 16.6, 16.9, 16.7, 16.6, 16.3, 19.5, 14.1, 16.7, 16.4, 16.7, 16.4, 16.7, 17, 16.9, 16.6, 17.1, 16.2, 16.7, 16.9, 17.7, 16.6, 15.3, 16.7, 16.4, 16.8, 20.3, 13.7, 16.5, 17, 16.2, 16.6, 16.5, 16.3, 17.5, 18, 15.6, 17.3, 17, 15.8, 16.9, 17.2, 16.1, 16.6, 18.4, 16, 15.7, 17.6, 15.8, 16.5, 16.9, 15.6, 18.2, 16.8, 16.1, 16.6, 16.9, 16.8, 17.9, 16.5, 15.3, 16.4, 17.3, 16.4, 17.3, 14.4, 17.2, 16.1, 17, 17.7, 17.1, 17.4, 15.5, 15.2, 16.7, 16.7, 17.1, 16.3, 16.9, 16.7, 16.6, 16.9, 16.1, 16.8, 17.1, 16.3, 17.1, 16, 16.9, 16.7, 16.9, 16.3, 16.9, 16.3, 17, 16.9, 16.4, 16.8, 16.8, 16.5, 16.8, 16.4, 16.9, 16.8, 16.4, 17, 16.8, 16.2, 16.9, 16.7, 16.3, 16.9, 16.4, 16.8, 16.8, 16.4, 17.2, 16.5, 16.6, 16.7, 17.1, 16.1, 17, 16.1, 16.6, 17, 16.4, 19.1, 15.8, 15.4, 16.7, 16.4, 16.5, 16.7, 16.7, 16.6, 16.8, 16.7, 16.7, 16.8, 16.4, 17, 16.4, 16.6, 16.7, 16.7, 16.7, 16.9, 16.3, 18.1, 15.4, 16.6, 17, 16.2, 16.7, 16.7, 16.6, 16.8, 16.5, 16.6, 17.1]",55.0,60.0,60.0,5452.1,[],,,,,,,,,,,,,,,,,,,,,,,,,HRV,HRV_0079,2022-11-30 18:03:59
,wl-html-keyboard-response,2,17483,0.0-2.0-0.0,0.0,3.0,,,,,,,,7435.5,0.0,0,,,,,,,,,,,,,,,,,,,,,,HRV,HRV_0079,2022-11-30 18:03:59
,wl-rdm,3,36462,0.0-3.0-0.0,0.0,4.0,,,,,,,[],,,,0.0,0.0,87.9,0.0,u,0.0,True,457.0,28.0,60.0,40.0,False,too_early too_early too_early too_early ,3000.0,[],"[683, 384]",ColorTask_Demo,,,,,HRV,HRV_0079,2022-11-30 18:03:59
,wl-rdm,4,43178,0.0-3.0-1.0,0.0,5.0,,,,,,,[],,,,0.0,0.0,87.9,1.0,i,1.0,True,2617.9999998807907,157.0,60.0,40.0,False,,2000.0,[],"[683, 384]",ColorTask_Demo,,,,,HRV,HRV_0079,2022-11-30 18:03:59
,wl-html-keyboard-response,5,47949,0.0-3.0-2.0,0.0,6.0,,,,,,,,2647.0,0.0,1,,,,,,,,,,,,,,,,,,,,,,HRV,HRV_0079,2022-11-30 18:03:59
,wl-html-keyboard-response,6,55596,0.0-4.0-0.0,0.0,7.0,,,,,,,,5637.899999976158,0.0,0,,,,,,,,,,,,,,,,,,,,,,HRV,HRV_0079,2022-11-30 18:03:59
,wl-html-keyboard-response,7,63277,0.0-5.0-0.0,0.0,8.0,,,,,,,,5648.100000023842,0.0,0,,,,,,,,,,,,,,,,,,,,,,HRV,HRV_0079,2022-11-30 18:03:59
,wl-rdm,8,66273,0.0-6.0-0.0,0.0,9.0,,,,,,,[],,,,,,62.5,1.0,i,1.0,True,1645.1000000238419,99.0,60.0,40.0,False,,286.9443841210996,[],"[683, 384]",ColorTask,1.0,1.0,,,HRV,HRV_0079,2022-11-30 18:03:59
,wl-rdm,9,69406,0.0-6.1-0.1,0.0,10.0,,,,,,,[],,,,,,62.5,0.0,u,0.0,True,1817.8999999761581,109.0,60.0,40.0,False,,242.39778938968777,[],"[683, 384]",ColorTask,2.0,2.0,,,HRV,HRV_0079,2022-11-30 18:03:59
,wl-rdm,10,72439,0.0-6.2-0.2,0.0,11.0,,,,,,,[],,,,,,56.4,0.0,u,0.0,True,1680.1999999284744,101.0,60.0,40.0,False,,267.3645354174142,[],"[683, 384]",ColorTask,3.0,3.0,,,HRV,HRV_0079,2022-11-30 18:03:59
,wl-rdm,11,75156,0.0-6.3-0.3,0.0,12.0,,,,,,,[],,,,,,73.6,0.0,u,0.0,True,1289.0,78.0,60.0,40.0,False,,365.2828932294011,[],"[683, 384]",ColorTask,4.0,4.0,,,HRV,HRV_0079,2022-11-30 18:03:59
,wl-rdm,12,77806,0.0-6.4-0.4,0.0,13.0,,,,,,,[],,,,,,62.5,0.0,i,1.0,False,1313.3000000715256,79.0,60.0,40.0,False,,266.1671396689397,[],"[683, 384]",ColorTask,3.0,5.0,,,HRV,HRV_0079,2022-11-30 18:03:59
,wl-rdm,13,80307,0.0-6.5-0.5,0.0,14.0,,,,,,,[],,,,,,73.6,1.0,i,1.0,True,1143.3999999761581,69.0,60.0,40.0,False,,267.4093810073338,[],"[683, 384]",ColorTask,4.0,6.0,,,HRV,HRV_0079,2022-11-30 18:03:59
,wl-rdm,14,82840,0.0-6.6-0.6,0.0,15.0,,,,,,,[],,,,,,50.0,1.0,u,0.0,False,1088.6000001430511,66.0,60.0,40.0,False,,352.51187667259876,[],"[683, 384]",ColorTask,3.0,7.0,,,HRV,HRV_0079,2022-11-30 18:03:59
,wl-rdm,15,85724,0.0-6.7-0.7,0.0,16.0,,,,,,,[],,,,,,62.5,1.0,i,1.0,True,1538.5000001192093,93.0,60.0,40.0,False,,257.3004888360371,[],"[683, 384]",ColorTask,4.0,8.0,,,HRV,HRV_0079,2022-11-30 18:03:59
,wl-rdm,16,88140,0.0-6.8-0.8,0.0,17.0,,,,,,,[],,,,,,53.2,1.0,i,1.0,True,1072.2999999523163,65.0,60.0,40.0,False,,279.2101210027206,[],"[683, 384]",ColorTask,5.0,9.0,,,HRV,HRV_0079,2022-11-30 18:03:59
,wl-rdm,17,91339,0.0-6.9-0.9,0.0,18.0,,,,,,,[],,,,,,56.4,1.0,i,1.0,True,1821.1999999284744,110.0,60.0,40.0,False,,284.57828662206646,[],"[683, 384]",ColorTask,6.0,10.0,,,HRV,HRV_0079,2022-11-30 18:03:59
,wl-rdm,18,93656,0.0-6.10-0.10,0.0,19.0,,,,,,,[],,,,,,87.9,1.0,i,1.0,True,966.5000001192093,58.0,60.0,40.0,False,,267.5010539178955,[],"[683, 384]",ColorTask,7.0,11.0,,,HRV,HRV_0079,2022-11-30 18:03:59
,wl-rdm,19,95971,0.0-6.11-0.11,0.0,20.0,,,,,,,[],,,,,,87.9,1.0,i,1.0,True,874.5,53.0,60.0,40.0,False,,350.03876597358556,[],"[683, 384]",ColorTask,8.0,12.0,,,HRV,HRV_0079,2022-11-30 18:03:59
,wl-rdm,20,98255,0.0-6.12-0.12,0.0,21.0,,,,,,,[],,,,,,73.6,0.0,u,0.0,True,892.7000000476837,54.0,60.0,40.0,False,,307.3836498795091,[],"[683, 384]",ColorTask,9.0,13.0,,,HRV,HRV_0079,2022-11-30 18:03:59
,wl-rdm,21,100989,0.0-6.13-0.13,0.0,22.0,,,,,,,[],,,,,,50.0,1.0,u,0.0,False,1288.5,78.0,60.0,40.0,False,,308.4956122190405,[],"[683, 384]",ColorTask,8.0,14.0,,,HRV,HRV_0079,2022-11-30 18:03:59
,wl-rdm,22,103271,0.0-6.14-0.14,0.0,23.0,,,,,,,[],,,,,,53.2,0.0,i,1.0,False,989.5,60.0,60.0,40.0,False,,233.22685249201157,[],"[683, 384]",ColorTask,7.0,15.0,,,HRV,HRV_0079,2022-11-30 18:03:59
,wl-rdm,23,105721,0.0-6.15-0.15,0.0,24.0,,,,,,,[],,,,,,73.6,1.0,i,1.0,True,988.1000000238419,60.0,60.0,40.0,False,,398.5012486888428,[],"[683, 384]",ColorTask,8.0,16.0,,,HRV,HRV_0079,2022-11-30 18:03:59
,wl-rdm,24,108588,0.0-6.16-0.16,0.0,25.0,,,,,,,[],,,,,,50.0,1.0,u,0.0,False,1582.2999999523163,95.0,60.0,40.0,False,,229.82990579452678,[],"[683, 384]",ColorTask,7.0,17.0,,,HRV,HRV_0079,2022-11-30 18:03:59
,wl-rdm,25,111355,0.0-6.17-0.17,0.0,26.0,,,,,,,[],,,,,,56.4,0.0,i,1.0,False,1327.2000000476837,80.0,60.0,40.0,False,,374.03558002579496,[],"[683, 384]",ColorTask,6.0,18.0,,,HRV,HRV_0079,2022-11-30 18:03:59
,wl-rdm,26,114605,0.0-6.18-0.18,0.0,27.0,,,,,,,[],,,,,,62.5,1.0,i,1.0,True,1410.7000000476837,85.0,60.0,40.0,False,,307.1983186369529,[],"[683, 384]",ColorTask,7.0,19.0,,,HRV,HRV_0079,2022-11-30 18:03:59
,wl-rdm,27,116871,0.0-6.19-0.19,0.0,28.0,,,,,,,[],,,,,,87.9,0.0,u,0.0,True,871.8999998569489,53.0,60.0,40.0,False,,299.744634611929,[],"[683, 384]",ColorTask,8.0,20.0,,,HRV,HRV_0079,2022-11-30 18:03:59
,wl-rdm,28,119270,0.0-6.20-0.20,0.0,29.0,,,,,,,[],,,,,,73.6,1.0,i,1.0,True,831.0,50.0,60.0,40.0,False,,239.44868305919329,[],"[683, 384]",ColorTask,9.0,21.0,,,HRV,HRV_0079,2022-11-30 18:03:59
,wl-rdm,29,122403,0.0-6.21-0.21,0.0,30.0,,,,,,,[],,,,,,53.2,0.0,u,0.0,True,1703.6000000238419,103.0,60.0,40.0,False,,363.83744415544925,[],"[683, 384]",ColorTask,10.0,22.0,,,HRV,HRV_0079,2022-11-30 18:03:59
,wl-rdm,30,125204,0.0-6.22-0.22,0.0,31.0,,,,,,,[],,,,,,53.2,0.0,i,1.0,False,1505.7000000476837,91.0,60.0,40.0,False,,218.09949550911364,[],"[683, 384]",ColorTask,9.0,23.0,,,HRV,HRV_0079,2022-11-30 18:03:59
,wl-rdm,31,128020,0.0-6.23-0.23,0.0,32.0,,,,,,,[],,,,,,50.0,0.0,u,0.0,True,1360.4000000953674,82.0,60.0,40.0,False,,387.6081107540621,[],"[683, 384]",ColorTask,10.0,24.0,,,HRV,HRV_0079,2022-11-30 18:03:59
,wl-rdm,32,131186,0.0-6.24-0.24,0.0,33.0,,,,,,,[],,,,,,62.5,0.0,u,0.0,True,1831.7999999523163,110.0,60.0,40.0,False,,250.57377679613575,[],"[683, 384]",ColorTask,11.0,25.0,,,HRV,HRV_0079,2022-11-30 18:03:59
,wl-rdm,33,133936,0.0-6.25-0.25,0.0,34.0,,,,,,,[],,,,,,53.2,1.0,i,1.0,True,1351.8999999761581,82.0,60.0,40.0,False,,308.7634886117223,[],"[683, 384]",ColorTask,12.0,26.0,,,HRV,HRV_0079,2022-11-30 18:03:59
,wl-rdm,34,136436,0.0-6.26-0.26,0.0,35.0,,,,,,,[],,,,,,87.9,0.0,u,0.0,True,1214.8999999761581,73.0,60.0,40.0,False,,225.5501424887688,[],"[683, 384]",ColorTask,13.0,27.0,,,HRV,HRV_0079,2022-11-30 18:03:59
,wl-rdm,35,139569,0.0-6.27-0.27,0.0,36.0,,,,,,,[],,,,,,50.0,0.0,i,1.0,False,1773.3000000715256,107.0,60.0,40.0,False,,274.35255444062454,[],"[683, 384]",ColorTask,12.0,28.0,,,HRV,HRV_0079,2022-11-30 18:03:59
,wl-rdm,36,141836,0.0-6.28-0.28,0.0,37.0,,,,,,,[],,,,,,62.5,0.0,u,0.0,True,865.0,52.0,60.0,40.0,False,,344.10202626369113,[],"[683, 384]",ColorTask,13.0,29.0,,,HRV,HRV_0079,2022-11-30 18:03:59
,wl-rdm,37,145035,0.0-6.29-0.29,0.0,38.0,,,,,,,[],,,,,,53.2,1.0,u,0.0,False,1873.4000000953674,113.0,60.0,40.0,False,,234.74197985961553,[],"[683, 384]",ColorTask,12.0,30.0,,,HRV,HRV_0079,2022-11-30 18:03:59
,wl-rdm,38,147486,0.0-6.30-0.30,0.0,39.0,,,,,,,[],,,,,,53.2,1.0,u,0.0,False,1007.1999999284744,61.0,60.0,40.0,False,,359.5500254513013,[],"[683, 384]",ColorTask,11.0,31.0,,,HRV,HRV_0079,2022-11-30 18:03:59
,wl-rdm,39,150035,0.0-6.31-0.31,0.0,40.0,,,,,,,[],,,,,,56.4,1.0,u,0.0,False,1095.6000001430511,66.0,60.0,40.0,False,,373.0520752113921,[],"[683, 384]",ColorTask,10.0,32.0,,,HRV,HRV_0079,2022-11-30 18:03:59
,wl-rdm,40,152436,0.0-6.32-0.32,0.0,41.0,,,,,,,[],,,,,,73.6,0.0,u,0.0,True,1077.4999998807907,64.0,60.0,40.0,False,,250.68477077966946,[],"[683, 384]",ColorTask,11.0,33.0,,,HRV,HRV_0079,2022-11-30 18:03:59
,wl-rdm,41,155319,0.0-6.33-0.33,0.0,42.0,,,,,,,[],,,,,,53.2,0.0,i,1.0,False,1575.1000000238419,95.0,60.0,40.0,False,,220.21068152407437,[],"[683, 384]",ColorTask,10.0,34.0,,,HRV,HRV_0079,2022-11-30 18:03:59
,wl-rdm,42,158136,0.0-6.34-0.34,0.0,43.0,,,,,,,[],,,,,,56.4,1.0,u,0.0,False,1407.4000000953674,85.0,60.0,40.0,False,,336.8863984907031,[],"[683, 384]",ColorTask,9.0,35.0,,,HRV,HRV_0079,2022-11-30 18:03:59
,wl-rdm,43,160719,0.0-6.35-0.35,0.0,44.0,,,,,,,[],,,,,,87.9,1.0,i,1.0,True,1158.4999998807907,70.0,60.0,40.0,False,,341.4562803608877,[],"[683, 384]",ColorTask,10.0,36.0,,,HRV,HRV_0079,2022-11-30 18:03:59
,wl-rdm,44,163435,0.0-6.36-0.36,0.0,45.0,,,,,,,[],,,,,,73.6,1.0,i,1.0,True,1388.0,84.0,60.0,40.0,False,,263.56699952942887,[],"[683, 384]",ColorTask,11.0,37.0,,,HRV,HRV_0079,2022-11-30 18:03:59
,wl-rdm,45,166034,0.0-6.37-0.37,0.0,46.0,,,,,,,[],,,,,,87.9,0.0,u,0.0,True,1130.3000000715256,68.0,60.0,40.0,False,,384.49398677275383,[],"[683, 384]",ColorTask,12.0,38.0,,,HRV,HRV_0079,2022-11-30 18:03:59
,wl-rdm,46,168768,0.0-6.38-0.38,0.0,47.0,,,,,,,[],,,,,,50.0,1.0,i,1.0,True,1388.1000000238419,84.0,60.0,40.0,False,,267.4793371405525,[],"[683, 384]",ColorTask,13.0,39.0,,,HRV,HRV_0079,2022-11-30 18:03:59
,wl-rdm,47,171285,0.0-6.39-0.39,0.0,48.0,,,,,,,[],,,,,,73.6,0.0,u,0.0,True,1247.7999999523163,75.0,60.0,40.0,False,,203.02143682537547,[],"[683, 384]",ColorTask,14.0,40.0,,,HRV,HRV_0079,2022-11-30 18:03:59
,wl-rdm,48,173517,0.0-6.40-0.40,0.0,49.0,,,,,,,[],,,,,,73.6,1.0,i,1.0,True,889.5,54.0,60.0,40.0,False,,267.7695207241113,[],"[683, 384]",ColorTask,15.0,41.0,,,HRV,HRV_0079,2022-11-30 18:03:59
,wl-rdm,49,176018,0.0-6.41-0.41,0.0,50.0,,,,,,,[],,,,,,56.4,0.0,u,0.0,True,1064.799999833107,64.0,60.0,40.0,False,,377.52362992543135,[],"[683, 384]",ColorTask,16.0,42.0,,,HRV,HRV_0079,2022-11-30 18:03:59
,wl-rdm,50,178236,0.0-6.42-0.42,0.0,51.0,,,,,,,[],,,,,,50.0,1.0,i,1.0,True,924.7000000476837,56.0,60.0,40.0,False,,225.55948312957565,[],"[683, 384]",ColorTask,17.0,43.0,,,HRV,HRV_0079,2022-11-30 18:03:59
,wl-rdm,51,181300,0.0-6.43-0.43,0.0,52.0,,,,,,,[],,,,,,56.4,1.0,i,1.0,True,1710.9999998807907,103.0,60.0,40.0,False,,271.741567067166,[],"[683, 384]",ColorTask,18.0,44.0,,,HRV,HRV_0079,2022-11-30 18:03:59
,wl-rdm,52,184317,0.0-6.44-0.44,0.0,53.0,,,,,,,[],,,,,,50.0,0.0,u,0.0,True,1697.6000000238419,102.0,60.0,40.0,False,,254.9237081666423,[],"[683, 384]",ColorTask,19.0,45.0,,,HRV,HRV_0079,2022-11-30 18:03:59
,wl-rdm,53,187334,0.0-6.45-0.45,0.0,54.0,,,,,,,[],,,,,,62.5,1.0,i,1.0,True,1593.1000001430511,96.0,60.0,40.0,False,,341.6773971965531,[],"[683, 384]",ColorTask,20.0,46.0,,,HRV,HRV_0079,2022-11-30 18:03:59
,wl-rdm,54,191650,0.0-6.46-0.46,0.0,54.0,,,,,,,[],,,,,,53.2,0.0,i,,,3277.899999976158,179.0,60.0,40.0,True,RT_timeout ,218.25959929159862,[],"[683, 384]",ColorTask,19.0,47.0,,,HRV,HRV_0079,2022-11-30 18:03:59
,wl-rdm,55,194634,0.0-6.47-0.47,0.0,55.0,,,,,,,[],,,,,,50.0,0.0,i,1.0,False,1656.0999999046326,100.0,60.0,40.0,False,,236.73310164516772,[],"[683, 384]",ColorTask,18.0,48.0,,,HRV,HRV_0079,2022-11-30 18:03:59
,wl-rdm,56,197483,0.0-6.48-0.48,0.0,56.0,,,,,,,[],,,,,,56.4,0.0,u,0.0,True,1426.0,86.0,60.0,40.0,False,,338.5047564517953,[],"[683, 384]",ColorTask,19.0,49.0,,,HRV,HRV_0079,2022-11-30 18:03:59
,wl-rdm,57,200658,0.0-6.49-0.49,0.0,57.0,,,,,,,[],,,,,,73.6,1.0,i,1.0,True,1296.5999999046326,78.0,60.0,40.0,False,,343.35102618404613,[],"[683, 384]",ColorTask,20.0,50.0,,,HRV,HRV_0079,2022-11-30 18:03:59
,wl-rdm,58,202983,0.0-6.50-0.50,0.0,58.0,,,,,,,[],,,,,,87.9,0.0,u,0.0,True,1013.4000000953674,61.0,60.0,40.0,False,,239.6047688617296,[],"[683, 384]",ColorTask,21.0,51.0,,,HRV,HRV_0079,2022-11-30 18:03:59
,wl-rdm,59,205333,0.0-6.51-0.51,0.0,59.0,,,,,,,[],,,,,,87.9,0.0,u,0.0,True,1072.2999999523163,65.0,60.0,40.0,False,,211.78815319794018,[],"[683, 384]",ColorTask,22.0,52.0,,,HRV,HRV_0079,2022-11-30 18:03:59
,wl-rdm,60,207616,0.0-6.52-0.52,0.0,60.0,,,,,,,[],,,,,,87.9,1.0,i,1.0,True,871.4000000953674,53.0,60.0,40.0,False,,317.244236511998,[],"[683, 384]",ColorTask,23.0,53.0,,,HRV,HRV_0079,2022-11-30 18:03:59
,wl-rdm,61,210699,0.0-6.53-0.53,0.0,61.0,,,,,,,[],,,,,,53.2,0.0,u,0.0,True,1656.2000000476837,100.0,60.0,40.0,False,,338.79599024430064,[],"[683, 384]",ColorTask,24.0,54.0,,,HRV,HRV_0079,2022-11-30 18:03:59
,wl-rdm,62,213483,0.0-6.54-0.54,0.0,62.0,,,,,,,[],,,,,,62.5,0.0,i,1.0,False,1488.5,90.0,60.0,40.0,False,,201.3600213456069,[],"[683, 384]",ColorTask,23.0,55.0,,,HRV,HRV_0079,2022-11-30 18:03:59
,wl-rdm,63,216916,0.0-6.55-0.55,0.0,63.0,,,,,,,[],,,,,,53.2,1.0,i,1.0,True,2147.2000000476837,129.0,60.0,40.0,False,,220.2279807748538,[],"[683, 384]",ColorTask,24.0,56.0,,,HRV,HRV_0079,2022-11-30 18:03:59
,wl-rdm,64,219449,0.0-6.56-0.56,0.0,64.0,,,,,,,[],,,,,,73.6,1.0,i,1.0,True,1128.3999999761581,68.0,60.0,40.0,False,,347.2652365617911,[],"[683, 384]",ColorTask,25.0,57.0,,,HRV,HRV_0079,2022-11-30 18:03:59
,wl-rdm,65,222232,0.0-6.57-0.57,0.0,65.0,,,,,,,[],,,,,,87.9,1.0,i,1.0,True,1357.5,82.0,60.0,40.0,False,,337.7646970456194,[],"[683, 384]",ColorTask,26.0,58.0,,,HRV,HRV_0079,2022-11-30 18:03:59
,wl-rdm,66,226198,0.0-6.58-0.58,0.0,66.0,,,,,,,[],,,,,,73.6,0.0,u,0.0,True,2580.5999999046326,155.0,60.0,40.0,False,,311.17929822308787,[],"[683, 384]",ColorTask,27.0,59.0,,,HRV,HRV_0079,2022-11-30 18:03:59
,wl-rdm,67,229084,0.0-6.59-0.59,0.0,67.0,,,,,,,[],,,,,,53.2,0.0,i,1.0,False,1447.5,87.0,60.0,40.0,False,,379.0611185869355,[],"[683, 384]",ColorTask,26.0,60.0,,,HRV,HRV_0079,2022-11-30 18:03:59
,wl-rdm,68,231698,0.0-6.60-0.60,0.0,68.0,,,,,,,[],,,,,,62.5,1.0,i,1.0,True,1253.3999999761581,76.0,60.0,40.0,False,,284.42698542968276,[],"[683, 384]",ColorTask,27.0,61.0,,,HRV,HRV_0079,2022-11-30 18:03:59
,wl-rdm,69,234447,0.0-6.61-0.61,0.0,69.0,,,,,,,[],,,,,,73.6,0.0,u,0.0,True,1289.5,78.0,60.0,40.0,False,,367.372528002591,[],"[683, 384]",ColorTask,28.0,62.0,,,HRV,HRV_0079,2022-11-30 18:03:59
,wl-rdm,70,236981,0.0-6.62-0.62,0.0,70.0,,,,,,,[],,,,,,53.2,0.0,i,1.0,False,1154.6999999284744,70.0,60.0,40.0,False,,290.04065875086786,[],"[683, 384]",ColorTask,27.0,63.0,,,HRV,HRV_0079,2022-11-30 18:03:59
,wl-rdm,71,239398,0.0-6.63-0.63,0.0,71.0,,,,,,,[],,,,,,56.4,1.0,u,0.0,False,1122.6000000238419,68.0,60.0,40.0,False,,230.0436710419932,[],"[683, 384]",ColorTask,26.0,64.0,,,HRV,HRV_0079,2022-11-30 18:03:59
,wl-rdm,72,242165,0.0-6.64-0.64,0.0,72.0,,,,,,,[],,,,,,62.5,1.0,i,1.0,True,1326.1000000238419,80.0,60.0,40.0,False,,349.6420681758161,[],"[683, 384]",ColorTask,27.0,65.0,,,HRV,HRV_0079,2022-11-30 18:03:59
,wl-rdm,73,244814,0.0-6.65-0.65,0.0,73.0,,,,,,,[],,,,,,50.0,0.0,i,1.0,False,1242.3999998569489,75.0,60.0,40.0,False,,319.517223354248,[],"[683, 384]",ColorTask,26.0,66.0,,,HRV,HRV_0079,2022-11-30 18:03:59
,wl-rdm,74,247230,0.0-6.66-0.66,0.0,74.0,,,,,,,[],,,,,,62.5,0.0,i,1.0,False,1056.1000000238419,64.0,60.0,40.0,False,,291.35807919009426,[],"[683, 384]",ColorTask,25.0,67.0,,,HRV,HRV_0079,2022-11-30 18:03:59
,wl-rdm,75,249564,0.0-6.67-0.67,0.0,75.0,,,,,,,[],,,,,,73.6,1.0,i,1.0,True,978.7999999523163,59.0,60.0,40.0,False,,299.50556180270746,[],"[683, 384]",ColorTask,26.0,68.0,,,HRV,HRV_0079,2022-11-30 18:03:59
,wl-rdm,76,252714,0.0-6.68-0.68,0.0,76.0,,,,,,,[],,,,,,50.0,1.0,u,0.0,False,1367.7999999523163,81.0,60.0,40.0,False,,275.4643347914927,[],"[683, 384]",ColorTask,25.0,69.0,,,HRV,HRV_0079,2022-11-30 18:03:59
,wl-rdm,77,255180,0.0-6.69-0.69,0.0,77.0,,,,,,,[],,,,,,87.9,1.0,i,1.0,True,1106.6000000238419,67.0,60.0,40.0,False,,295.1765569097538,[],"[683, 384]",ColorTask,26.0,70.0,,,HRV,HRV_0079,2022-11-30 18:03:59
,wl-rdm,78,258097,0.0-6.70-0.70,0.0,78.0,,,,,,,[],,,,,,62.5,0.0,u,0.0,True,1581.1999999284744,95.0,60.0,40.0,False,,271.7570520309754,[],"[683, 384]",ColorTask,27.0,71.0,,,HRV,HRV_0079,2022-11-30 18:03:59
,wl-rdm,79,260764,0.0-6.71-0.71,0.0,79.0,,,,,,,[],,,,,,53.2,0.0,i,1.0,False,1322.2000000476837,80.0,60.0,40.0,False,,256.9047544918028,[],"[683, 384]",ColorTask,26.0,72.0,,,HRV,HRV_0079,2022-11-30 18:03:59
,wl-rdm,80,263445,0.0-6.72-0.72,0.0,80.0,,,,,,,[],,,,,,50.0,1.0,u,0.0,False,1305.4999998807907,79.0,60.0,40.0,False,,286.71594994090407,[],"[683, 384]",ColorTask,25.0,73.0,,,HRV,HRV_0079,2022-11-30 18:03:59
,wl-rdm,81,265995,0.0-6.73-0.73,0.0,81.0,,,,,,,[],,,,,,53.2,1.0,i,1.0,True,1208.2999999523163,73.0,60.0,40.0,False,,266.1701696937474,[],"[683, 384]",ColorTask,26.0,74.0,,,HRV,HRV_0079,2022-11-30 18:03:59
,wl-rdm,82,268762,0.0-6.74-0.74,0.0,82.0,,,,,,,[],,,,,,53.2,1.0,u,0.0,False,1489.9999998807907,90.0,60.0,40.0,False,,213.03025521266196,[],"[683, 384]",ColorTask,25.0,75.0,,,HRV,HRV_0079,2022-11-30 18:03:59
,wl-rdm,83,271679,0.0-6.75-0.75,0.0,83.0,,,,,,,[],,,,,,56.4,0.0,i,1.0,False,1545.299999833107,93.0,60.0,40.0,False,,285.12804744283744,[],"[683, 384]",ColorTask,24.0,76.0,,,HRV,HRV_0079,2022-11-30 18:03:59
,wl-rdm,84,274179,0.0-6.76-0.76,0.0,84.0,,,,,,,[],,,,,,53.2,1.0,u,0.0,False,1188.8999998569489,72.0,60.0,40.0,False,,225.54554466111165,[],"[683, 384]",ColorTask,23.0,77.0,,,HRV,HRV_0079,2022-11-30 18:03:59
,wl-rdm,85,276595,0.0-6.77-0.77,0.0,85.0,,,,,,,[],,,,,,73.6,0.0,u,0.0,True,1045.6000000238419,63.0,60.0,40.0,False,,293.88955204917795,[],"[683, 384]",ColorTask,24.0,78.0,,,HRV,HRV_0079,2022-11-30 18:03:59
,wl-rdm,86,279912,0.0-6.78-0.78,0.0,86.0,,,,,,,[],,,,,,50.0,0.0,i,1.0,False,1973.0000001192093,119.0,60.0,40.0,False,,263.3888263322206,[],"[683, 384]",ColorTask,23.0,79.0,,,HRV,HRV_0079,2022-11-30 18:03:59
,wl-rdm,87,282444,0.0-6.79-0.79,0.0,87.0,,,,,,,[],,,,,,62.5,1.0,u,0.0,False,1090.1000000238419,66.0,60.0,40.0,False,,356.0339139503411,[],"[683, 384]",ColorTask,22.0,80.0,,,HRV,HRV_0079,2022-11-30 18:03:59
,wl-rdm,88,284644,0.0-6.80-0.80,0.0,88.0,,,,,,,[],,,,,,50.0,1.0,i,1.0,True,913.0,55.0,60.0,40.0,False,,203.74601190211044,[],"[683, 384]",ColorTask,23.0,81.0,,,HRV,HRV_0079,2022-11-30 18:03:59
,wl-rdm,89,287044,0.0-6.81-0.81,0.0,89.0,,,,,,,[],,,,,,62.5,0.0,u,0.0,True,1020.7999999523163,62.0,60.0,40.0,False,,298.36072820071087,[],"[683, 384]",ColorTask,24.0,82.0,,,HRV,HRV_0079,2022-11-30 18:03:59
,wl-rdm,90,289377,0.0-6.82-0.82,0.0,90.0,,,,,,,[],,,,,,56.4,1.0,u,0.0,False,1039.3999999761581,63.0,60.0,40.0,False,,200.32830428230952,[],"[683, 384]",ColorTask,23.0,83.0,,,HRV,HRV_0079,2022-11-30 18:03:59
,wl-rdm,91,291394,0.0-6.83-0.83,0.0,91.0,,,,,,,[],,,,,,56.4,0.0,i,1.0,False,729.0999999046326,44.0,60.0,40.0,False,,223.96029408630324,[],"[683, 384]",ColorTask,22.0,84.0,,,HRV,HRV_0079,2022-11-30 18:03:59
,wl-rdm,92,293527,0.0-6.84-0.84,0.0,92.0,,,,,,,[],,,,,,87.9,1.0,u,0.0,False,767.3999999761581,46.0,60.0,40.0,False,,299.0476329464487,[],"[683, 384]",ColorTask,21.0,85.0,,,HRV,HRV_0079,2022-11-30 18:03:59
,wl-rdm,93,295827,0.0-6.85-0.85,0.0,93.0,,,,,,,[],,,,,,56.4,0.0,i,1.0,False,940.0,57.0,60.0,40.0,False,,293.98535148332496,[],"[683, 384]",ColorTask,20.0,86.0,,,HRV,HRV_0079,2022-11-30 18:03:59
,wl-rdm,94,298410,0.0-6.86-0.86,0.0,94.0,,,,,,,[],,,,,,73.6,0.0,u,0.0,True,1133.5000001192093,68.0,60.0,40.0,False,,381.22102439375726,[],"[683, 384]",ColorTask,21.0,87.0,,,HRV,HRV_0079,2022-11-30 18:03:59
,wl-rdm,95,301027,0.0-6.87-0.87,0.0,95.0,,,,,,,[],,,,,,73.6,0.0,i,1.0,False,1224.5,74.0,60.0,40.0,False,,329.4347440758477,[],"[683, 384]",ColorTask,20.0,88.0,,,HRV,HRV_0079,2022-11-30 18:03:59
,wl-rdm,96,303510,0.0-6.88-0.88,0.0,96.0,,,,,,,[],,,,,,53.2,0.0,u,0.0,True,879.1999999284744,53.0,60.0,40.0,False,,212.97409930149215,[],"[683, 384]",ColorTask,21.0,89.0,,,HRV,HRV_0079,2022-11-30 18:03:59
,wl-rdm,97,305944,0.0-6.89-0.89,0.0,97.0,,,,,,,[],,,,,,87.9,1.0,i,1.0,True,1103.8999999761581,67.0,60.0,40.0,False,,234.4953863871297,[],"[683, 384]",ColorTask,22.0,90.0,,,HRV,HRV_0079,2022-11-30 18:03:59
,wl-rdm,98,308261,0.0-6.90-0.90,0.0,98.0,,,,,,,[],,,,,,62.5,0.0,u,0.0,True,1007.1000000238419,61.0,60.0,40.0,False,,232.72514060573297,[],"[683, 384]",ColorTask,23.0,91.0,,,HRV,HRV_0079,2022-11-30 18:03:59
,wl-rdm,99,310576,0.0-6.91-0.91,0.0,99.0,,,,,,,[],,,,,,62.5,1.0,i,1.0,True,887.1999999284744,53.0,60.0,40.0,False,,364.26717475417877,[],"[683, 384]",ColorTask,24.0,92.0,,,HRV,HRV_0079,2022-11-30 18:03:59
,wl-rdm,100,312960,0.0-6.92-0.92,0.0,100.0,,,,,,,[],,,,,,56.4,0.0,u,0.0,True,958.0,58.0,60.0,40.0,False,,351.81941608395493,[],"[683, 384]",ColorTask,25.0,93.0,,,HRV,HRV_0079,2022-11-30 18:03:59
,wl-rdm,101,316193,0.0-6.93-0.93,0.0,101.0,,,,,,,[],,,,,,56.4,0.0,u,0.0,True,1839.3999999761581,111.0,60.0,40.0,False,,304.18092105847666,[],"[683, 384]",ColorTask,26.0,94.0,,,HRV,HRV_0079,2022-11-30 18:03:59
,wl-rdm,102,318560,0.0-6.94-0.94,0.0,102.0,,,,,,,[],,,,,,87.9,0.0,u,0.0,True,937.8999999761581,57.0,60.0,40.0,False,,333.5779962824122,[],"[683, 384]",ColorTask,27.0,95.0,,,HRV,HRV_0079,2022-11-30 18:03:59
,wl-rdm,103,320627,0.0-6.95-0.95,0.0,103.0,,,,,,,[],,,,,,56.4,1.0,i,1.0,True,739.1000000238419,45.0,60.0,40.0,False,,239.13181917016004,[],"[683, 384]",ColorTask,28.0,96.0,,,HRV,HRV_0079,2022-11-30 18:03:59
,wl-rdm,104,323160,0.0-6.96-0.96,0.0,104.0,,,,,,,[],,,,,,50.0,0.0,i,1.0,False,1261.2999999523163,76.0,60.0,40.0,False,,211.56931091443013,[],"[683, 384]",ColorTask,27.0,97.0,,,HRV,HRV_0079,2022-11-30 18:03:59
,wl-rdm,105,325276,0.0-6.97-0.97,0.0,105.0,,,,,,,[],,,,,,50.0,0.0,u,0.0,True,827.2999999523163,50.0,60.0,40.0,False,,222.60742335387323,[],"[683, 384]",ColorTask,28.0,98.0,,,HRV,HRV_0079,2022-11-30 18:03:59
,wl-rdm,106,327259,0.0-6.98-0.98,0.0,106.0,,,,,,,[],,,,,,73.6,1.0,i,1.0,True,606.7000000476837,37.0,60.0,40.0,False,,303.032542264393,[],"[683, 384]",ColorTask,29.0,99.0,,,HRV,HRV_0079,2022-11-30 18:03:59
,wl-rdm,107,329525,0.0-6.99-0.99,0.0,107.0,,,,,,,[],,,,,,56.4,1.0,i,1.0,True,860.9000000953674,52.0,60.0,40.0,False,,333.1813811990455,[],"[683, 384]",ColorTask,30.0,100.0,,,HRV,HRV_0079,2022-11-30 18:03:59
,wl-rdm,108,331542,0.0-6.100-0.100,0.0,108.0,,,,,,,[],,,,,,87.9,0.0,u,0.0,True,688.9000000953674,42.0,60.0,40.0,False,,238.38991765639108,[],"[683, 384]",ColorTask,31.0,101.0,,,HRV,HRV_0079,2022-11-30 18:03:59
,wl-rdm,109,333958,0.0-6.101-0.101,0.0,109.0,,,,,,,[],,,,,,87.9,0.0,u,0.0,True,1090.4000000953674,66.0,60.0,40.0,False,,267.8705966272403,[],"[683, 384]",ColorTask,32.0,102.0,,,HRV,HRV_0079,2022-11-30 18:03:59
,wl-rdm,110,336608,0.0-6.102-0.102,0.0,110.0,,,,,,,[],,,,,,50.0,0.0,i,1.0,False,1307.3999999761581,79.0,60.0,40.0,False,,258.05565024235045,[],"[683, 384]",ColorTask,31.0,103.0,,,HRV,HRV_0079,2022-11-30 18:03:59
,wl-rdm,111,338675,0.0-6.103-0.103,0.0,111.0,,,,,,,[],,,,,,62.5,1.0,i,1.0,True,762.7999999523163,46.0,60.0,40.0,False,,223.3124111494725,[],"[683, 384]",ColorTask,32.0,104.0,,,HRV,HRV_0079,2022-11-30 18:03:59
,wl-rdm,112,340892,0.0-6.104-0.104,0.0,112.0,,,,,,,[],,,,,,87.9,0.0,u,0.0,True,822.299999833107,50.0,60.0,40.0,False,,309.9394639346239,[],"[683, 384]",ColorTask,33.0,105.0,,,HRV,HRV_0079,2022-11-30 18:03:59
,wl-rdm,113,343191,0.0-6.105-0.105,0.0,113.0,,,,,,,[],,,,,,50.0,1.0,i,1.0,True,993.3999999761581,60.0,60.0,40.0,False,,223.80121012770672,[],"[683, 384]",ColorTask,34.0,106.0,,,HRV,HRV_0079,2022-11-30 18:03:59
,wl-rdm,114,345441,0.0-6.106-0.106,0.0,114.0,,,,,,,[],,,,,,56.4,1.0,i,1.0,True,953.2999999523163,58.0,60.0,40.0,False,,209.08376337958316,[],"[683, 384]",ColorTask,35.0,107.0,,,HRV,HRV_0079,2022-11-30 18:03:59
,wl-rdm,115,347408,0.0-6.107-0.107,0.0,115.0,,,,,,,[],,,,,,87.9,1.0,i,1.0,True,689.2000000476837,42.0,60.0,40.0,False,,203.89149229307782,[],"[683, 384]",ColorTask,36.0,108.0,,,HRV,HRV_0079,2022-11-30 18:03:59
,wl-rdm,116,349858,0.0-6.108-0.108,0.0,116.0,,,,,,,[],,,,,,53.2,1.0,i,1.0,True,974.6000001430511,59.0,60.0,40.0,False,,391.7289329664909,[],"[683, 384]",ColorTask,37.0,109.0,,,HRV,HRV_0079,2022-11-30 18:03:59
,wl-html-keyboard-response,117,359261,0.0-7.0-0.0,1.0,117.0,,,,,,,,7387.899999976158,1.0,0,,,,,,,,,,,,,,,,,,,,,,HRV,HRV_0079,2022-11-30 18:03:59
,wl-rdm,118,361474,0.0-8.0-0.0,1.0,118.0,,,,,,,[],,,,,,56.4,0.0,i,1.0,False,836.9000000953674,51.0,60.0,40.0,False,,303.7676283525735,[],"[683, 384]",ColorTask,36.0,1.0,,,HRV,HRV_0079,2022-11-30 18:03:59
,wl-rdm,119,363574,0.0-8.1-0.1,1.0,119.0,,,,,,,[],,,,,,53.2,0.0,u,0.0,True,705.1000000238419,43.0,60.0,40.0,False,,306.55080479251427,[],"[683, 384]",ColorTask,37.0,2.0,,,HRV,HRV_0079,2022-11-30 18:03:59
,wl-rdm,120,365992,0.0-8.2-0.2,1.0,120.0,,,,,,,[],,,,,,50.0,1.0,i,1.0,True,1093.6999999284744,66.0,60.0,40.0,False,,255.247738516066,[],"[683, 384]",ColorTask,38.0,3.0,,,HRV,HRV_0079,2022-11-30 18:03:59
,wl-rdm,121,368056,0.0-8.3-0.3,1.0,121.0,,,,,,,[],,,,,,56.4,1.0,u,0.0,False,754.6000000238419,46.0,60.0,40.0,False,,218.10766566582453,[],"[683, 384]",ColorTask,37.0,4.0,,,HRV,HRV_0079,2022-11-30 18:03:59
,wl-rdm,122,369990,0.0-8.4-0.4,1.0,122.0,,,,,,,[],,,,,,53.2,1.0,i,1.0,True,613.8000000715256,37.0,60.0,40.0,False,,246.76737660631431,[],"[683, 384]",ColorTask,38.0,5.0,,,HRV,HRV_0079,2022-11-30 18:03:59
,wl-rdm,123,372257,0.0-8.5-0.5,1.0,123.0,,,,,,,[],,,,,,50.0,1.0,u,0.0,False,806.0999999046326,49.0,60.0,40.0,False,,374.74979855181687,[],"[683, 384]",ColorTask,37.0,6.0,,,HRV,HRV_0079,2022-11-30 18:03:59
,wl-rdm,124,374290,0.0-8.6-0.6,1.0,124.0,,,,,,,[],,,,,,62.5,0.0,i,1.0,False,706.6999999284744,43.0,60.0,40.0,False,,254.44672887427578,[],"[683, 384]",ColorTask,36.0,7.0,,,HRV,HRV_0079,2022-11-30 18:03:59
,wl-rdm,125,376440,0.0-8.7-0.7,1.0,125.0,,,,,,,[],,,,,,62.5,0.0,u,0.0,True,796.8999999761581,48.0,60.0,40.0,False,,278.928996487975,[],"[683, 384]",ColorTask,37.0,8.0,,,HRV,HRV_0079,2022-11-30 18:03:59
,wl-rdm,126,378622,0.0-8.8-0.8,1.0,126.0,,,,,,,[],,,,,,56.4,0.0,i,1.0,False,821.7999999523163,50.0,60.0,40.0,False,,291.72608616229695,[],"[683, 384]",ColorTask,36.0,9.0,,,HRV,HRV_0079,2022-11-30 18:03:59
,wl-rdm,127,381089,0.0-8.9-0.9,1.0,127.0,,,,,,,[],,,,,,50.0,1.0,i,1.0,True,1010.1999999284744,61.0,60.0,40.0,False,,368.4934157769279,[],"[683, 384]",ColorTask,37.0,10.0,,,HRV,HRV_0079,2022-11-30 18:03:59
,wl-rdm,128,383490,0.0-8.10-0.10,1.0,128.0,,,,,,,[],,,,,,62.5,0.0,i,1.0,False,1099.1000000238419,66.0,60.0,40.0,False,,218.45876792102953,[],"[683, 384]",ColorTask,36.0,11.0,,,HRV,HRV_0079,2022-11-30 18:03:59
,wl-rdm,129,385639,0.0-8.11-0.11,1.0,129.0,,,,,,,[],,,,,,50.0,0.0,u,0.0,True,792.7999999523163,48.0,60.0,40.0,False,,281.61861032816444,[],"[683, 384]",ColorTask,37.0,12.0,,,HRV,HRV_0079,2022-11-30 18:03:59
,wl-rdm,130,387823,0.0-8.12-0.12,1.0,130.0,,,,,,,[],,,,,,87.9,0.0,u,0.0,True,859.6999999284744,52.0,60.0,40.0,False,,243.42346075024176,[],"[683, 384]",ColorTask,38.0,13.0,,,HRV,HRV_0079,2022-11-30 18:03:59
,wl-rdm,131,390440,0.0-8.13-0.13,1.0,131.0,,,,,,,[],,,,,,50.0,0.0,u,0.0,True,1140.3999999761581,69.0,60.0,40.0,False,,386.7571381367228,[],"[683, 384]",ColorTask,39.0,14.0,,,HRV,HRV_0079,2022-11-30 18:03:59
,wl-rdm,132,392539,0.0-8.14-0.14,1.0,132.0,,,,,,,[],,,,,,62.5,1.0,i,1.0,True,725.1000000238419,44.0,60.0,40.0,False,,291.35503662392415,[],"[683, 384]",ColorTask,40.0,15.0,,,HRV,HRV_0079,2022-11-30 18:03:59
,wl-rdm,133,394789,0.0-8.15-0.15,1.0,133.0,,,,,,,[],,,,,,53.2,0.0,i,1.0,False,889.2000000476837,54.0,60.0,40.0,False,,287.845133447099,[],"[683, 384]",ColorTask,39.0,16.0,,,HRV,HRV_0079,2022-11-30 18:03:59
,wl-rdm,134,396923,0.0-8.16-0.16,1.0,134.0,,,,,,,[],,,,,,50.0,0.0,u,0.0,True,822.0,50.0,60.0,40.0,False,,229.42884160131655,[],"[683, 384]",ColorTask,40.0,17.0,,,HRV,HRV_0079,2022-11-30 18:03:59
,wl-rdm,135,399239,0.0-8.17-0.17,1.0,135.0,,,,,,,[],,,,,,53.2,1.0,i,1.0,True,871.7000000476837,53.0,60.0,40.0,False,,356.8460353592976,[],"[683, 384]",ColorTask,41.0,18.0,,,HRV,HRV_0079,2022-11-30 18:03:59
,wl-rdm,136,401506,0.0-8.18-0.18,1.0,136.0,,,,,,,[],,,,,,53.2,1.0,i,1.0,True,891.1000000238419,54.0,60.0,40.0,False,,288.71345663994987,[],"[683, 384]",ColorTask,42.0,19.0,,,HRV,HRV_0079,2022-11-30 18:03:59
,wl-rdm,137,403622,0.0-8.19-0.19,1.0,137.0,,,,,,,[],,,,,,50.0,1.0,u,0.0,False,806.3999999761581,49.0,60.0,40.0,False,,223.77909261802736,[],"[683, 384]",ColorTask,41.0,20.0,,,HRV,HRV_0079,2022-11-30 18:03:59
,wl-rdm,138,405805,0.0-8.20-0.20,1.0,138.0,,,,,,,[],,,,,,62.5,0.0,u,0.0,True,743.0999999046326,45.0,60.0,40.0,False,,371.5207240290114,[],"[683, 384]",ColorTask,42.0,21.0,,,HRV,HRV_0079,2022-11-30 18:03:59
,wl-rdm,139,407838,0.0-8.21-0.21,1.0,139.0,,,,,,,[],,,,,,53.2,1.0,i,1.0,True,730.2000000476837,44.0,60.0,40.0,False,,220.18818204067975,[],"[683, 384]",ColorTask,43.0,22.0,,,HRV,HRV_0079,2022-11-30 18:03:59
,wl-rdm,140,409971,0.0-8.22-0.22,1.0,140.0,,,,,,,[],,,,,,73.6,1.0,i,1.0,True,653.8999999761581,40.0,60.0,40.0,False,,387.22652901314814,[],"[683, 384]",ColorTask,44.0,23.0,,,HRV,HRV_0079,2022-11-30 18:03:59
,wl-rdm,141,411888,0.0-8.23-0.23,1.0,141.0,,,,,,,[],,,,,,62.5,1.0,i,1.0,True,572.8999999761581,35.0,60.0,40.0,False,,266.0718769596666,[],"[683, 384]",ColorTask,45.0,24.0,,,HRV,HRV_0079,2022-11-30 18:03:59
,wl-rdm,142,414155,0.0-8.24-0.24,1.0,142.0,,,,,,,[],,,,,,50.0,0.0,i,1.0,False,668.3000000715256,30.0,60.0,40.0,False,,214.7438599613524,[],"[683, 384]",ColorTask,44.0,25.0,,,HRV,HRV_0079,2022-11-30 18:03:59
,wl-rdm,143,416154,0.0-8.25-0.25,1.0,143.0,,,,,,,[],,,,,,73.6,1.0,u,0.0,False,633.8000000715256,38.0,60.0,40.0,False,,288.23476039445944,[],"[683, 384]",ColorTask,43.0,26.0,,,HRV,HRV_0079,2022-11-30 18:03:59
,wl-rdm,144,418504,0.0-8.26-0.26,1.0,144.0,,,,,,,[],,,,,,56.4,0.0,i,1.0,False,997.6000000238419,60.0,60.0,40.0,False,,269.07681193768775,[],"[683, 384]",ColorTask,42.0,27.0,,,HRV,HRV_0079,2022-11-30 18:03:59
,wl-rdm,145,420571,0.0-8.27-0.27,1.0,145.0,,,,,,,[],,,,,,62.5,1.0,i,1.0,True,690.0999999046326,42.0,60.0,40.0,False,,315.6210821265694,[],"[683, 384]",ColorTask,43.0,28.0,,,HRV,HRV_0079,2022-11-30 18:03:59
,wl-rdm,146,422670,0.0-8.28-0.28,1.0,146.0,,,,,,,[],,,,,,62.5,0.0,u,0.0,True,795.6000000238419,48.0,60.0,40.0,False,,229.54205471600056,[],"[683, 384]",ColorTask,44.0,29.0,,,HRV,HRV_0079,2022-11-30 18:03:59
,wl-rdm,147,425004,0.0-8.29-0.29,1.0,147.0,,,,,,,[],,,,,,50.0,1.0,u,0.0,False,906.3999999761581,55.0,60.0,40.0,False,,351.04648712929577,[],"[683, 384]",ColorTask,43.0,30.0,,,HRV,HRV_0079,2022-11-30 18:03:59
,wl-rdm,148,427037,0.0-8.30-0.30,1.0,148.0,,,,,,,[],,,,,,56.4,0.0,i,1.0,False,727.4000000953674,44.0,60.0,40.0,False,,217.28131135943275,[],"[683, 384]",ColorTask,42.0,31.0,,,HRV,HRV_0079,2022-11-30 18:03:59
,wl-rdm,149,429204,0.0-8.31-0.31,1.0,149.0,,,,,,,[],,,,,,50.0,0.0,i,1.0,False,707.1000000238419,43.0,60.0,40.0,False,,376.9948261508855,[],"[683, 384]",ColorTask,41.0,32.0,,,HRV,HRV_0079,2022-11-30 18:03:59
,wl-rdm,150,431587,0.0-8.32-0.32,1.0,150.0,,,,,,,[],,,,,,56.4,0.0,u,0.0,True,973.8999999761581,59.0,60.0,40.0,False,,338.2590608195698,[],"[683, 384]",ColorTask,42.0,33.0,,,HRV,HRV_0079,2022-11-30 18:03:59
,wl-rdm,151,433770,0.0-8.33-0.33,1.0,151.0,,,,,,,[],,,,,,53.2,0.0,i,1.0,False,840.8000000715256,51.0,60.0,40.0,False,,277.41467963602054,[],"[683, 384]",ColorTask,41.0,34.0,,,HRV,HRV_0079,2022-11-30 18:03:59
,wl-rdm,152,435954,0.0-8.34-0.34,1.0,152.0,,,,,,,[],,,,,,73.6,1.0,i,1.0,True,741.5000001192093,45.0,60.0,40.0,False,,379.3876068258984,[],"[683, 384]",ColorTask,42.0,35.0,,,HRV,HRV_0079,2022-11-30 18:03:59
,wl-rdm,153,437920,0.0-8.35-0.35,1.0,153.0,,,,,,,[],,,,,,73.6,1.0,i,1.0,True,659.8999999761581,40.0,60.0,40.0,False,,221.7453870038955,[],"[683, 384]",ColorTask,43.0,36.0,,,HRV,HRV_0079,2022-11-30 18:03:59
,wl-rdm,154,440320,0.0-8.36-0.36,1.0,154.0,,,,,,,[],,,,,,73.6,1.0,i,1.0,True,1005.4999998807907,61.0,60.0,40.0,False,,331.2111701977466,[],"[683, 384]",ColorTask,44.0,37.0,,,HRV,HRV_0079,2022-11-30 18:03:59
,wl-rdm,155,442520,0.0-8.37-0.37,1.0,155.0,,,,,,,[],,,,,,73.6,0.0,u,0.0,True,878.5999999046326,53.0,60.0,40.0,False,,249.09958595737405,[],"[683, 384]",ColorTask,45.0,38.0,,,HRV,HRV_0079,2022-11-30 18:03:59
,wl-rdm,156,444786,0.0-8.38-0.38,1.0,156.0,,,,,,,[],,,,,,87.9,1.0,i,1.0,True,873.3999998569489,53.0,60.0,40.0,False,,315.3453948870796,[],"[683, 384]",ColorTask,46.0,39.0,,,HRV,HRV_0079,2022-11-30 18:03:59
,wl-rdm,157,446636,0.0-8.39-0.39,1.0,157.0,,,,,,,[],,,,,,73.6,1.0,i,1.0,True,581.8000000715256,35.0,60.0,40.0,False,,215.91635492020643,[],"[683, 384]",ColorTask,47.0,40.0,,,HRV,HRV_0079,2022-11-30 18:03:59
,wl-rdm,158,448536,0.0-8.40-0.40,1.0,158.0,,,,,,,[],,,,,,53.2,0.0,i,1.0,False,581.1000001430511,35.0,60.0,40.0,False,,259.4139574519073,[],"[683, 384]",ColorTask,46.0,41.0,,,HRV,HRV_0079,2022-11-30 18:03:59
,wl-rdm,159,450605,0.0-8.41-0.41,1.0,159.0,,,,,,,[],,,,,,62.5,1.0,i,1.0,True,717.6000000238419,43.0,60.0,40.0,False,,276.5775556107093,[],"[683, 384]",ColorTask,47.0,42.0,,,HRV,HRV_0079,2022-11-30 18:03:59
,wl-rdm,160,452873,0.0-8.42-0.42,1.0,160.0,,,,,,,[],,,,,,53.2,1.0,u,0.0,False,942.7000000476837,57.0,60.0,40.0,False,,238.5216170942207,[],"[683, 384]",ColorTask,46.0,43.0,,,HRV,HRV_0079,2022-11-30 18:03:59
,wl-rdm,161,455173,0.0-8.43-0.43,1.0,161.0,,,,,,,[],,,,,,87.9,0.0,u,0.0,True,1010.3999999761581,61.0,60.0,40.0,False,,203.75952953825777,[],"[683, 384]",ColorTask,47.0,44.0,,,HRV,HRV_0079,2022-11-30 18:03:59
,wl-rdm,162,457406,0.0-8.44-0.44,1.0,162.0,,,,,,,[],,,,,,73.6,0.0,u,0.0,True,946.9000000953674,57.0,60.0,40.0,False,,216.02228397863942,[],"[683, 384]",ColorTask,48.0,45.0,,,HRV,HRV_0079,2022-11-30 18:03:59
,wl-rdm,163,460322,0.0-8.45-0.45,1.0,163.0,,,,,,,[],,,,,,73.6,0.0,u,0.0,True,1450.8999999761581,87.0,60.0,40.0,False,,384.9876344176896,[],"[683, 384]",ColorTask,49.0,46.0,,,HRV,HRV_0079,2022-11-30 18:03:59
,wl-rdm,164,462389,0.0-8.46-0.46,1.0,164.0,,,,,,,[],,,,,,56.4,1.0,i,1.0,True,666.0,40.0,60.0,40.0,False,,321.58199697265275,[],"[683, 384]",ColorTask,50.0,47.0,,,HRV,HRV_0079,2022-11-30 18:03:59
,wl-rdm,165,464554,0.0-8.47-0.47,1.0,165.0,,,,,,,[],,,,,,87.9,0.0,u,0.0,True,712.2000000476837,43.0,60.0,40.0,False,,396.7924113523379,[],"[683, 384]",ColorTask,51.0,48.0,,,HRV,HRV_0079,2022-11-30 18:03:59
,wl-rdm,166,468922,0.0-8.48-0.48,1.0,165.0,,,,,,,[],,,,,,62.5,0.0,i,,,3253.100000023842,179.0,60.0,40.0,True,RT_timeout ,289.4332087264284,[],"[683, 384]",ColorTask,50.0,49.0,,,HRV,HRV_0079,2022-11-30 18:03:59
,wl-rdm,167,471105,0.0-8.49-0.49,1.0,166.0,,,,,,,[],,,,,,62.5,1.0,i,1.0,True,836.3999999761581,51.0,60.0,40.0,False,,251.34023116455683,[],"[683, 384]",ColorTask,51.0,50.0,,,HRV,HRV_0079,2022-11-30 18:03:59
,wl-rdm,168,473839,0.0-8.50-0.50,1.0,167.0,,,,,,,[],,,,,,53.2,0.0,u,0.0,True,1310.8000000715256,79.0,60.0,40.0,False,,364.0942976106385,[],"[683, 384]",ColorTask,52.0,51.0,,,HRV,HRV_0079,2022-11-30 18:03:59
,wl-rdm,169,476938,0.0-8.51-0.51,1.0,168.0,,,,,,,[],,,,,,56.4,1.0,i,1.0,True,1650.3000000715256,99.0,60.0,40.0,False,,379.0607610625776,[],"[683, 384]",ColorTask,53.0,52.0,,,HRV,HRV_0079,2022-11-30 18:03:59
,wl-rdm,170,479636,0.0-8.52-0.52,1.0,169.0,,,,,,,[],,,,,,53.2,1.0,i,1.0,True,1260.7999999523163,76.0,60.0,40.0,False,,354.8980143370768,[],"[683, 384]",ColorTask,54.0,53.0,,,HRV,HRV_0079,2022-11-30 18:03:59
,wl-rdm,171,481721,0.0-8.53-0.53,1.0,170.0,,,,,,,[],,,,,,87.9,1.0,i,1.0,True,654.2000000476837,40.0,60.0,40.0,False,,348.6270224378399,[],"[683, 384]",ColorTask,55.0,54.0,,,HRV,HRV_0079,2022-11-30 18:03:59
,wl-rdm,172,483654,0.0-8.54-0.54,1.0,171.0,,,,,,,[],,,,,,73.6,1.0,i,1.0,True,493.89999997615814,30.0,60.0,40.0,False,,364.9145735465303,[],"[683, 384]",ColorTask,56.0,55.0,,,HRV,HRV_0079,2022-11-30 18:03:59
,wl-rdm,173,485639,0.0-8.55-0.55,1.0,172.0,,,,,,,[],,,,,,53.2,1.0,i,1.0,True,552.7000000476837,34.0,60.0,40.0,False,,347.72836840359355,[],"[683, 384]",ColorTask,57.0,56.0,,,HRV,HRV_0079,2022-11-30 18:03:59
,wl-rdm,174,487853,0.0-8.56-0.56,1.0,173.0,,,,,,,[],,,,,,50.0,0.0,i,1.0,False,919.7000000476837,56.0,60.0,40.0,False,,219.96065072478984,[],"[683, 384]",ColorTask,56.0,57.0,,,HRV,HRV_0079,2022-11-30 18:03:59
,wl-rdm,175,489971,0.0-8.57-0.57,1.0,174.0,,,,,,,[],,,,,,87.9,0.0,u,0.0,True,735.2000000476837,44.0,60.0,40.0,False,,313.8327791195387,[],"[683, 384]",ColorTask,57.0,58.0,,,HRV,HRV_0079,2022-11-30 18:03:59
,wl-rdm,176,491937,0.0-8.58-0.58,1.0,175.0,,,,,,,[],,,,,,87.9,1.0,i,1.0,True,672.3000000715256,41.0,60.0,40.0,False,,223.0793075587579,[],"[683, 384]",ColorTask,58.0,59.0,,,HRV,HRV_0079,2022-11-30 18:03:59
,wl-rdm,177,494489,0.0-8.59-0.59,1.0,176.0,,,,,,,[],,,,,,56.4,1.0,u,0.0,False,1109.6000000238419,67.0,60.0,40.0,False,,363.9891581204302,[],"[683, 384]",ColorTask,57.0,60.0,,,HRV,HRV_0079,2022-11-30 18:03:59
,wl-rdm,178,496786,0.0-8.60-0.60,1.0,177.0,,,,,,,[],,,,,,50.0,0.0,i,1.0,False,885.1999999284744,54.0,60.0,40.0,False,,321.7834954410333,[],"[683, 384]",ColorTask,56.0,61.0,,,HRV,HRV_0079,2022-11-30 18:03:59
,wl-rdm,179,499170,0.0-8.61-0.61,1.0,178.0,,,,,,,[],,,,,,50.0,1.0,i,1.0,True,954.2999999523163,58.0,60.0,40.0,False,,355.7099010820914,[],"[683, 384]",ColorTask,57.0,62.0,,,HRV,HRV_0079,2022-11-30 18:03:59
,wl-rdm,180,502932,0.0-8.62-0.62,1.0,179.0,,,,,,,[],,,,,,62.5,1.0,i,1.0,True,2359.1999999284744,114.0,60.0,40.0,False,,327.19415032009306,[],"[683, 384]",ColorTask,58.0,63.0,,,HRV,HRV_0079,2022-11-30 18:03:59
,wl-rdm,181,505465,0.0-8.63-0.63,1.0,180.0,,,,,,,[],,,,,,56.4,0.0,u,0.0,True,1132.5,68.0,60.0,40.0,False,,330.7451876577585,[],"[683, 384]",ColorTask,59.0,64.0,,,HRV,HRV_0079,2022-11-30 18:03:59
,wl-rdm,182,507999,0.0-8.64-0.64,1.0,181.0,,,,,,,[],,,,,,73.6,0.0,u,0.0,True,1177.1999999284744,71.0,60.0,40.0,False,,281.76537959769064,[],"[683, 384]",ColorTask,60.0,65.0,,,HRV,HRV_0079,2022-11-30 18:03:59
,wl-rdm,183,510933,0.0-8.65-0.65,1.0,182.0,,,,,,,[],,,,,,73.6,0.0,u,0.0,True,1557.5999999046326,94.0,60.0,40.0,False,,296.610460856456,[],"[683, 384]",ColorTask,61.0,66.0,,,HRV,HRV_0079,2022-11-30 18:03:59
,wl-rdm,184,513932,0.0-8.66-0.66,1.0,183.0,,,,,,,[],,,,,,62.5,1.0,i,1.0,True,1555.8000000715256,94.0,60.0,40.0,False,,376.4993954197357,[],"[683, 384]",ColorTask,62.0,67.0,,,HRV,HRV_0079,2022-11-30 18:03:59
,wl-rdm,185,517248,0.0-8.67-0.67,1.0,184.0,,,,,,,[],,,,,,53.2,0.0,i,1.0,False,1946.6000000238419,117.0,60.0,40.0,False,,288.74753089448905,[],"[683, 384]",ColorTask,61.0,68.0,,,HRV,HRV_0079,2022-11-30 18:03:59
,wl-rdm,186,520032,0.0-8.68-0.68,1.0,185.0,,,,,,,[],,,,,,56.4,0.0,u,0.0,True,1490.2000000476837,90.0,60.0,40.0,False,,223.04040187003253,[],"[683, 384]",ColorTask,62.0,69.0,,,HRV,HRV_0079,2022-11-30 18:03:59
,wl-rdm,187,522997,0.0-8.69-0.69,1.0,186.0,,,,,,,[],,,,,,53.2,0.0,i,1.0,False,1595.1999999284744,96.0,60.0,40.0,False,,294.3616343214071,[],"[683, 384]",ColorTask,61.0,70.0,,,HRV,HRV_0079,2022-11-30 18:03:59
,wl-rdm,188,525264,0.0-8.70-0.70,1.0,187.0,,,,,,,[],,,,,,62.5,0.0,u,0.0,True,922.3999999761581,56.0,60.0,40.0,False,,276.39944573298067,[],"[683, 384]",ColorTask,62.0,71.0,,,HRV,HRV_0079,2022-11-30 18:03:59
,wl-rdm,189,527631,0.0-8.71-0.71,1.0,188.0,,,,,,,[],,,,,,87.9,1.0,i,1.0,True,1055.8000000715256,64.0,60.0,40.0,False,,236.1063827748632,[],"[683, 384]",ColorTask,63.0,72.0,,,HRV,HRV_0079,2022-11-30 18:03:59
,wl-rdm,190,530497,0.0-8.72-0.72,1.0,189.0,,,,,,,[],,,,,,50.0,1.0,i,1.0,True,1539.7000000476837,93.0,60.0,40.0,False,,264.4921508290387,[],"[683, 384]",ColorTask,64.0,73.0,,,HRV,HRV_0079,2022-11-30 18:03:59
,wl-rdm,191,533064,0.0-8.73-0.73,1.0,190.0,,,,,,,[],,,,,,73.6,0.0,u,0.0,True,1172.299999833107,71.0,60.0,40.0,False,,306.8326130000992,[],"[683, 384]",ColorTask,65.0,74.0,,,HRV,HRV_0079,2022-11-30 18:03:59
,wl-rdm,192,536013,0.0-8.74-0.74,1.0,191.0,,,,,,,[],,,,,,56.4,1.0,i,1.0,True,1645.7999999523163,99.0,60.0,40.0,False,,237.77203307467664,[],"[683, 384]",ColorTask,66.0,75.0,,,HRV,HRV_0079,2022-11-30 18:03:59
,wl-rdm,193,538464,0.0-8.75-0.75,1.0,192.0,,,,,,,[],,,,,,73.6,0.0,u,0.0,True,1015.4999998807907,61.0,60.0,40.0,False,,377.18616937850874,[],"[683, 384]",ColorTask,67.0,76.0,,,HRV,HRV_0079,2022-11-30 18:03:59
,wl-rdm,194,540647,0.0-8.76-0.76,1.0,193.0,,,,,,,[],,,,,,87.9,0.0,u,0.0,True,727.7000000476837,44.0,60.0,40.0,False,,370.0100385823538,[],"[683, 384]",ColorTask,68.0,77.0,,,HRV,HRV_0079,2022-11-30 18:03:59
,wl-rdm,195,543030,0.0-8.77-0.77,1.0,194.0,,,,,,,[],,,,,,53.2,0.0,i,1.0,False,997.9000000953674,60.0,60.0,40.0,False,,311.46159065244285,[],"[683, 384]",ColorTask,67.0,78.0,,,HRV,HRV_0079,2022-11-30 18:03:59
,wl-rdm,196,545630,0.0-8.78-0.78,1.0,195.0,,,,,,,[],,,,,,87.9,0.0,u,0.0,True,1193.8000000715256,72.0,60.0,40.0,False,,322.3938000666582,[],"[683, 384]",ColorTask,68.0,79.0,,,HRV,HRV_0079,2022-11-30 18:03:59
,wl-rdm,197,547796,0.0-8.79-0.79,1.0,196.0,,,,,,,[],,,,,,87.9,0.0,u,0.0,True,809.6000000238419,49.0,60.0,40.0,False,,278.9086655466186,[],"[683, 384]",ColorTask,69.0,80.0,,,HRV,HRV_0079,2022-11-30 18:03:59
,wl-rdm,198,549880,0.0-8.80-0.80,1.0,197.0,,,,,,,[],,,,,,50.0,1.0,i,1.0,True,688.7999999523163,42.0,60.0,40.0,False,,319.9985403057952,[],"[683, 384]",ColorTask,70.0,81.0,,,HRV,HRV_0079,2022-11-30 18:03:59
,wl-rdm,199,552130,0.0-8.81-0.81,1.0,198.0,,,,,,,[],,,,,,62.5,1.0,i,1.0,True,917.3000000715256,55.0,60.0,40.0,False,,256.082160650322,[],"[683, 384]",ColorTask,71.0,82.0,,,HRV,HRV_0079,2022-11-30 18:03:59
,wl-rdm,200,554096,0.0-8.82-0.82,1.0,199.0,,,,,,,[],,,,,,87.9,1.0,i,1.0,True,593.7999999523163,36.0,60.0,40.0,False,,290.35519697438343,[],"[683, 384]",ColorTask,72.0,83.0,,,HRV,HRV_0079,2022-11-30 18:03:59
,wl-rdm,201,556279,0.0-8.83-0.83,1.0,200.0,,,,,,,[],,,,,,56.4,1.0,i,1.0,True,858.7999999523163,52.0,60.0,40.0,False,,251.7659652752135,[],"[683, 384]",ColorTask,73.0,84.0,,,HRV,HRV_0079,2022-11-30 18:03:59
,wl-rdm,202,558495,0.0-8.84-0.84,1.0,201.0,,,,,,,[],,,,,,73.6,0.0,u,0.0,True,901.5,26.0,60.0,40.0,False,,233.68121957600417,[],"[683, 384]",ColorTask,74.0,85.0,,,HRV,HRV_0079,2022-11-30 18:03:59
,wl-rdm,203,561347,0.0-8.85-0.85,1.0,202.0,,,,,,,[],,,,,,50.0,0.0,u,0.0,True,1523.3999999761581,92.0,60.0,40.0,False,,255.63360508737,[],"[683, 384]",ColorTask,75.0,86.0,,,HRV,HRV_0079,2022-11-30 18:03:59
,wl-rdm,204,563546,0.0-8.86-0.86,1.0,203.0,,,,,,,[],,,,,,62.5,0.0,i,1.0,False,805.2999999523163,49.0,60.0,40.0,False,,327.7997268442944,[],"[683, 384]",ColorTask,74.0,87.0,,,HRV,HRV_0079,2022-11-30 18:03:59
,wl-rdm,205,565597,0.0-8.87-0.87,1.0,204.0,,,,,,,[],,,,,,87.9,1.0,i,1.0,True,708.1999999284744,43.0,60.0,40.0,False,,257.02086417300427,[],"[683, 384]",ColorTask,75.0,88.0,,,HRV,HRV_0079,2022-11-30 18:03:59
,wl-rdm,206,567479,0.0-8.88-0.88,1.0,205.0,,,,,,,[],,,,,,87.9,1.0,i,1.0,True,471.2999999523163,29.0,60.0,40.0,False,,339.3963341944677,[],"[683, 384]",ColorTask,76.0,89.0,,,HRV,HRV_0079,2022-11-30 18:03:59
,wl-rdm,207,569830,0.0-8.89-0.89,1.0,206.0,,,,,,,[],,,,,,53.2,1.0,u,0.0,False,942.1000000238419,57.0,60.0,40.0,False,,322.09089397322293,[],"[683, 384]",ColorTask,75.0,90.0,,,HRV,HRV_0079,2022-11-30 18:03:59
,wl-rdm,208,572662,0.0-8.90-0.90,1.0,207.0,,,,,,,[],,,,,,62.5,0.0,u,0.0,True,1472.4999998807907,89.0,60.0,40.0,False,,280.8481260363304,[],"[683, 384]",ColorTask,76.0,91.0,,,HRV,HRV_0079,2022-11-30 18:03:59
,wl-rdm,209,574829,0.0-8.91-0.91,1.0,208.0,,,,,,,[],,,,,,87.9,1.0,i,1.0,True,873.3000000715256,53.0,60.0,40.0,False,,205.0955527037068,[],"[683, 384]",ColorTask,77.0,92.0,,,HRV,HRV_0079,2022-11-30 18:03:59
,wl-rdm,210,577595,0.0-8.92-0.92,1.0,209.0,,,,,,,[],,,,,,56.4,1.0,i,1.0,True,1473.7000000476837,89.0,60.0,40.0,False,,201.3975158313585,[],"[683, 384]",ColorTask,78.0,93.0,,,HRV,HRV_0079,2022-11-30 18:03:59
,wl-rdm,211,579562,0.0-8.93-0.93,1.0,210.0,,,,,,,[],,,,,,87.9,1.0,i,1.0,True,639.1999999284744,39.0,60.0,40.0,False,,240.62040345781557,[],"[683, 384]",ColorTask,79.0,94.0,,,HRV,HRV_0079,2022-11-30 18:03:59
,wl-rdm,212,582347,0.0-8.94-0.94,1.0,211.0,,,,,,,[],,,,,,56.4,1.0,i,1.0,True,1357.0,82.0,60.0,40.0,False,,321.4404824888645,[],"[683, 384]",ColorTask,80.0,95.0,,,HRV,HRV_0079,2022-11-30 18:03:59
,wl-rdm,213,585212,0.0-8.95-0.95,1.0,212.0,,,,,,,[],,,,,,56.4,1.0,u,0.0,False,1589.5,96.0,60.0,40.0,False,,208.92691889869891,[],"[683, 384]",ColorTask,79.0,96.0,,,HRV,HRV_0079,2022-11-30 18:03:59
,wl-rdm,214,587712,0.0-8.96-0.96,1.0,213.0,,,,,,,[],,,,,,50.0,0.0,u,0.0,True,1081.8000000715256,65.0,60.0,40.0,False,,354.22338258813306,[],"[683, 384]",ColorTask,80.0,97.0,,,HRV,HRV_0079,2022-11-30 18:03:59
,wl-rdm,215,589913,0.0-8.97-0.97,1.0,214.0,,,,,,,[],,,,,,53.2,1.0,i,1.0,True,722.3000000715256,44.0,60.0,40.0,False,,393.34190962999463,[],"[683, 384]",ColorTask,81.0,98.0,,,HRV,HRV_0079,2022-11-30 18:03:59
,wl-rdm,216,592395,0.0-8.98-0.98,1.0,215.0,,,,,,,[],,,,,,56.4,0.0,i,1.0,False,1077.1000000238419,65.0,60.0,40.0,False,,328.6978439764578,[],"[683, 384]",ColorTask,80.0,99.0,,,HRV,HRV_0079,2022-11-30 18:03:59
,wl-rdm,217,594995,0.0-8.99-0.99,1.0,216.0,,,,,,,[],,,,,,62.5,0.0,u,0.0,True,1281.5,77.0,60.0,40.0,False,,241.29777882980125,[],"[683, 384]",ColorTask,81.0,100.0,,,HRV,HRV_0079,2022-11-30 18:03:59
,wl-rdm,218,596911,0.0-8.100-0.100,1.0,217.0,,,,,,,[],,,,,,73.6,1.0,i,1.0,True,644.8999999761581,39.0,60.0,40.0,False,,207.66254760760083,[],"[683, 384]",ColorTask,82.0,101.0,,,HRV,HRV_0079,2022-11-30 18:03:59
,wl-rdm,219,598794,0.0-8.101-0.101,1.0,218.0,,,,,,,[],,,,,,62.5,1.0,i,1.0,True,523.0,32.0,60.0,40.0,False,,296.3658862433061,[],"[683, 384]",ColorTask,83.0,102.0,,,HRV,HRV_0079,2022-11-30 18:03:59
,wl-rdm,220,601061,0.0-8.102-0.102,1.0,219.0,,,,,,,[],,,,,,73.6,0.0,u,0.0,True,911.7000000476837,55.0,60.0,40.0,False,,267.4308882242392,[],"[683, 384]",ColorTask,84.0,103.0,,,HRV,HRV_0079,2022-11-30 18:03:59
,wl-rdm,221,604127,0.0-8.103-0.103,1.0,220.0,,,,,,,[],,,,,,53.2,0.0,i,1.0,False,1738.3000000715256,105.0,60.0,40.0,False,,244.61785431338157,[],"[683, 384]",ColorTask,83.0,104.0,,,HRV,HRV_0079,2022-11-30 18:03:59
,wl-rdm,222,606527,0.0-8.104-0.104,1.0,221.0,,,,,,,[],,,,,,73.6,1.0,i,1.0,True,1010.3000000715256,61.0,60.0,40.0,False,,320.4089778811152,[],"[683, 384]",ColorTask,84.0,105.0,,,HRV,HRV_0079,2022-11-30 18:03:59
,wl-rdm,223,608744,0.0-8.105-0.105,1.0,222.0,,,,,,,[],,,,,,87.9,0.0,u,0.0,True,929.5000001192093,56.0,60.0,40.0,False,,218.26807977744332,[],"[683, 384]",ColorTask,85.0,106.0,,,HRV,HRV_0079,2022-11-30 18:03:59
,wl-rdm,224,611444,0.0-8.106-0.106,1.0,223.0,,,,,,,[],,,,,,87.9,0.0,u,0.0,True,1281.3999999761581,77.0,60.0,40.0,False,,359.72050738815517,[],"[683, 384]",ColorTask,86.0,107.0,,,HRV,HRV_0079,2022-11-30 18:03:59
,wl-rdm,225,614294,0.0-8.107-0.107,1.0,224.0,,,,,,,[],,,,,,56.4,0.0,i,1.0,False,1423.1000000238419,86.0,60.0,40.0,False,,360.5224525164524,[],"[683, 384]",ColorTask,85.0,108.0,,,HRV,HRV_0079,2022-11-30 18:03:59
,wl-rdm,226,616760,0.0-8.108-0.108,1.0,225.0,,,,,,,[],,,,,,50.0,1.0,u,0.0,False,998.2000000476837,60.0,60.0,40.0,False,,396.60384899543726,[],"[683, 384]",ColorTask,84.0,109.0,,,HRV,HRV_0079,2022-11-30 18:03:59
,wl-html-button-response,227,620667,0.0-9.0-0.0,,,,,,,,,,3899.2999999523163,,0,,,,,,,,,,,,,,,,,,,,<h3>End of this session. Thank you!</h3><br>,['Close window'],HRV,HRV_0079,2022-11-30 18:03:59
