trialN,stimuli,trialStartTime,trialStartTime_UNIX,stimulus1,stimulus2,stimulus1Bid,stimulus2Bid,delta,selected,rt,rt_UNIX,rt_perfnow,receivedResponse,rsp,trialEndTime,trialDuration,trialEndTime_UNIX,trialDuration_UNIX,exp,subjectId,date
0,"[{'imgObject': {}, 'id': 'strawberries', 'src': '/static/foodstim60/strawberries.jpg', 'key': 'u', 'origWidth': 410, 'origHeight': 410, 'width': 410, 'height': 410, 'widthPercent': 0.45, 'rescaleHeight': False, 'trialN': 0, 'loaded': True, 'loadedTime': 6184.300000071526, 'positionName': 'LEFT', 'positionCoords': [245.68, 179], 'bid': 5.24}, {'imgObject': {}, 'id': 'pear', 'src': '/static/foodstim60/pear.jpg', 'key': 'i', 'origWidth': 411, 'origHeight': 410, 'width': 411, 'height': 410, 'widthPercent': 0.45, 'rescaleHeight': False, 'trialN': 0, 'loaded': True, 'loadedTime': 6199.600000023842, 'positionName': 'RIGHT', 'positionCoords': [710.32, 179], 'bid': 1.76}]",7265.800000071526,1669830657550,strawberries,pear,5.24,1.76,-3.4800000000000004,strawberries,990.1999999284744,991,991.2999999523163,True,u,8777.899999976158,1512.0999999046326,1669830659062,1512,HRV,HRV_0079,2022-11-30 17:53:31
1,"[{'imgObject': {}, 'id': 'cantaloupe', 'src': '/static/foodstim60/cantaloupe.jpg', 'key': 'u', 'origWidth': 409, 'origHeight': 409, 'width': 409, 'height': 409, 'widthPercent': 0.45, 'rescaleHeight': False, 'trialN': 1, 'loaded': True, 'loadedTime': 6267.300000071526, 'positionName': 'LEFT', 'positionCoords': [246.68, 179.5], 'bid': 7.29}, {'imgObject': {}, 'id': 'tacos', 'src': '/static/foodstim60/tacos.jpg', 'key': 'i', 'origWidth': 411, 'origHeight': 411, 'width': 411, 'height': 411, 'widthPercent': 0.45, 'rescaleHeight': False, 'trialN': 1, 'loaded': True, 'loadedTime': 6213.700000047684, 'positionName': 'RIGHT', 'positionCoords': [710.32, 178.5], 'bid': 5.6000000000000005}]",8778.399999976158,1669830659062,cantaloupe,tacos,7.29,5.6000000000000005,-1.6899999999999995,tacos,470.3000000715256,471,471.10000002384186,True,i,9768.200000047684,989.8000000715256,1669830660052,990,HRV,HRV_0079,2022-11-30 17:53:31
2,"[{'imgObject': {}, 'id': 'blueberries', 'src': '/static/foodstim60/blueberries.jpg', 'key': 'u', 'origWidth': 411, 'origHeight': 411, 'width': 411, 'height': 411, 'widthPercent': 0.45, 'rescaleHeight': False, 'trialN': 2, 'loaded': True, 'loadedTime': 6309.899999976158, 'positionName': 'LEFT', 'positionCoords': [244.68, 178.5], 'bid': 4.32}, {'imgObject': {}, 'id': 'veggieswithdip', 'src': '/static/foodstim60/veggieswithdip.jpg', 'key': 'i', 'origWidth': 409, 'origHeight': 409, 'width': 409, 'height': 409, 'widthPercent': 0.45, 'rescaleHeight': False, 'trialN': 2, 'loaded': True, 'loadedTime': 6315.700000047684, 'positionName': 'RIGHT', 'positionCoords': [710.32, 179.5], 'bid': 8.36}]",9768.600000023842,1669830660052,blueberries,veggieswithdip,4.32,8.36,4.039999999999999,blueberries,411.5,413,412.60000002384186,True,u,10696.399999976158,927.7999999523163,1669830660980,928,HRV,HRV_0079,2022-11-30 17:53:31
3,"[{'imgObject': {}, 'id': 'baked potato', 'src': '/static/foodstim60/baked potato.jpg', 'key': 'u', 'origWidth': 409, 'origHeight': 410, 'width': 409, 'height': 410, 'widthPercent': 0.45, 'rescaleHeight': False, 'trialN': 3, 'loaded': True, 'loadedTime': 6219.200000047684, 'positionName': 'LEFT', 'positionCoords': [246.68, 179], 'bid': 3.74}, {'imgObject': {}, 'id': 'omelette', 'src': '/static/foodstim60/omelette.jpg', 'key': 'i', 'origWidth': 410, 'origHeight': 409, 'width': 410, 'height': 409, 'widthPercent': 0.45, 'rescaleHeight': False, 'trialN': 3, 'loaded': True, 'loadedTime': 6226.5, 'positionName': 'RIGHT', 'positionCoords': [710.32, 179.5], 'bid': 3.75}]",10696.700000047684,1669830660981,baked potato,omelette,3.74,3.75,0.009999999999999787,baked potato,305.89999997615814,306,306.60000002384186,True,u,11512.700000047684,816.0,1669830661796,815,HRV,HRV_0079,2022-11-30 17:53:31
4,"[{'imgObject': {}, 'id': 'orange slices', 'src': '/static/foodstim60/orange slices.jpg', 'key': 'u', 'origWidth': 409, 'origHeight': 410, 'width': 409, 'height': 410, 'widthPercent': 0.45, 'rescaleHeight': False, 'trialN': 4, 'loaded': True, 'loadedTime': 6410, 'positionName': 'LEFT', 'positionCoords': [246.68, 179], 'bid': 4.53}, {'imgObject': {}, 'id': 'salad w chicken', 'src': '/static/foodstim60/salad w chicken.jpg', 'key': 'i', 'origWidth': 411, 'origHeight': 411, 'width': 411, 'height': 411, 'widthPercent': 0.45, 'rescaleHeight': False, 'trialN': 4, 'loaded': True, 'loadedTime': 6431.200000047684, 'positionName': 'RIGHT', 'positionCoords': [710.32, 178.5], 'bid': 4.54}]",11513.0,1669830661797,orange slices,salad w chicken,4.53,4.54,0.009999999999999787,salad w chicken,274.89999997615814,275,275.3000000715256,True,i,12297.700000047684,784.7000000476837,1669830662582,785,HRV,HRV_0079,2022-11-30 17:53:31
5,"[{'imgObject': {}, 'id': 'chicken nuggets2', 'src': '/static/foodstim60/chicken nuggets2.jpg', 'key': 'u', 'origWidth': 410, 'origHeight': 409, 'width': 410, 'height': 409, 'widthPercent': 0.45, 'rescaleHeight': False, 'trialN': 5, 'loaded': True, 'loadedTime': 6439.600000023842, 'positionName': 'LEFT', 'positionCoords': [245.68, 179.5], 'bid': 2.64}, {'imgObject': {}, 'id': 'fruitsalad', 'src': '/static/foodstim60/fruitsalad.jpg', 'key': 'i', 'origWidth': 410, 'origHeight': 410, 'width': 410, 'height': 410, 'widthPercent': 0.45, 'rescaleHeight': False, 'trialN': 5, 'loaded': True, 'loadedTime': 6628.5, 'positionName': 'RIGHT', 'positionCoords': [710.32, 179], 'bid': 4.26}]",12298.0,1669830662582,chicken nuggets2,fruitsalad,2.64,4.26,1.6199999999999997,fruitsalad,324,324,324.60000002384186,True,i,13132.200000047684,834.2000000476837,1669830663416,834,HRV,HRV_0079,2022-11-30 17:53:31
6,"[{'imgObject': {}, 'id': 'cheerios', 'src': '/static/foodstim60/cheerios.jpg', 'key': 'u', 'origWidth': 409, 'origHeight': 410, 'width': 409, 'height': 410, 'widthPercent': 0.45, 'rescaleHeight': False, 'trialN': 6, 'loaded': True, 'loadedTime': 6677.899999976158, 'positionName': 'LEFT', 'positionCoords': [246.68, 179], 'bid': 5.9}, {'imgObject': {}, 'id': 'apple slices', 'src': '/static/foodstim60/apple slices.jpg', 'key': 'i', 'origWidth': 409, 'origHeight': 410, 'width': 409, 'height': 410, 'widthPercent': 0.45, 'rescaleHeight': False, 'trialN': 6, 'loaded': True, 'loadedTime': 6704.399999976158, 'positionName': 'RIGHT', 'positionCoords': [710.32, 179], 'bid': 6.46}]",13132.5,1669830663416,cheerios,apple slices,5.9,6.46,0.5599999999999996,cheerios,470.2000000476837,471,470.8000000715256,True,u,14112.300000071526,979.8000000715256,1669830664396,980,HRV,HRV_0079,2022-11-30 17:53:31
7,"[{'imgObject': {}, 'id': 'avocado', 'src': '/static/foodstim60/avocado.jpg', 'key': 'u', 'origWidth': 409, 'origHeight': 409, 'width': 409, 'height': 409, 'widthPercent': 0.45, 'rescaleHeight': False, 'trialN': 7, 'loaded': True, 'loadedTime': 6504.800000071526, 'positionName': 'LEFT', 'positionCoords': [246.68, 179.5], 'bid': 2.08}, {'imgObject': {}, 'id': 'roastedpotatoes', 'src': '/static/foodstim60/roastedpotatoes.jpg', 'key': 'i', 'origWidth': 409, 'origHeight': 410, 'width': 409, 'height': 410, 'widthPercent': 0.45, 'rescaleHeight': False, 'trialN': 7, 'loaded': True, 'loadedTime': 6526.5, 'positionName': 'RIGHT', 'positionCoords': [710.32, 179], 'bid': 0.62}]",14112.800000071526,1669830664397,avocado,roastedpotatoes,2.08,0.62,-1.46,roastedpotatoes,326.09999990463257,326,326.7999999523163,True,i,14964.700000047684,851.8999999761581,1669830665249,852,HRV,HRV_0079,2022-11-30 17:53:31
8,"[{'imgObject': {}, 'id': 'banana', 'src': '/static/foodstim60/banana.jpg', 'key': 'u', 'origWidth': 410, 'origHeight': 410, 'width': 410, 'height': 410, 'widthPercent': 0.45, 'rescaleHeight': False, 'trialN': 8, 'loaded': True, 'loadedTime': 6577.899999976158, 'positionName': 'LEFT', 'positionCoords': [245.68, 179], 'bid': 7.75}, {'imgObject': {}, 'id': 'omelette', 'src': '/static/foodstim60/omelette.jpg', 'key': 'i', 'origWidth': 410, 'origHeight': 409, 'width': 410, 'height': 409, 'widthPercent': 0.45, 'rescaleHeight': False, 'trialN': 8, 'loaded': True, 'loadedTime': 6225.700000047684, 'positionName': 'RIGHT', 'positionCoords': [710.32, 179.5], 'bid': 3.75}]",14965.0,1669830665249,banana,omelette,7.75,3.75,-4.0,omelette,238.10000002384186,239,238.89999997615814,True,i,15723.300000071526,758.3000000715256,1669830666007,758,HRV,HRV_0079,2022-11-30 17:53:31
9,"[{'imgObject': {}, 'id': 'mac & cheese', 'src': '/static/foodstim60/mac & cheese.jpg', 'key': 'u', 'origWidth': 410, 'origHeight': 410, 'width': 410, 'height': 410, 'widthPercent': 0.45, 'rescaleHeight': False, 'trialN': 9, 'loaded': True, 'loadedTime': 6638.700000047684, 'positionName': 'LEFT', 'positionCoords': [245.68, 179], 'bid': 5.99}, {'imgObject': {}, 'id': 'corn cob', 'src': '/static/foodstim60/corn cob.jpg', 'key': 'i', 'origWidth': 411, 'origHeight': 411, 'width': 411, 'height': 411, 'widthPercent': 0.45, 'rescaleHeight': False, 'trialN': 9, 'loaded': True, 'loadedTime': 6679.100000023842, 'positionName': 'RIGHT', 'positionCoords': [710.32, 178.5], 'bid': 6.66}]",15723.600000023842,1669830666007,mac & cheese,corn cob,5.99,6.66,0.6699999999999999,corn cob,340.7999999523163,342,341.5,True,i,16582.700000047684,859.1000000238419,1669830666867,860,HRV,HRV_0079,2022-11-30 17:53:31
10,"[{'imgObject': {}, 'id': 'cherries', 'src': '/static/foodstim60/cherries.jpg', 'key': 'u', 'origWidth': 410, 'origHeight': 411, 'width': 410, 'height': 411, 'widthPercent': 0.45, 'rescaleHeight': False, 'trialN': 10, 'loaded': True, 'loadedTime': 6705.200000047684, 'positionName': 'LEFT', 'positionCoords': [245.68, 178.5], 'bid': 7.0200000000000005}, {'imgObject': {}, 'id': 'blackbeanswithrice', 'src': '/static/foodstim60/blackbeanswithrice.jpg', 'key': 'i', 'origWidth': 410, 'origHeight': 410, 'width': 410, 'height': 410, 'widthPercent': 0.45, 'rescaleHeight': False, 'trialN': 10, 'loaded': True, 'loadedTime': 6744.100000023842, 'positionName': 'RIGHT', 'positionCoords': [710.32, 179], 'bid': 5.04}]",16583.0,1669830666867,cherries,blackbeanswithrice,7.0200000000000005,5.04,-1.9800000000000004,cherries,598,599,599.2000000476837,True,u,17692.800000071526,1109.8000000715256,1669830667977,1110,HRV,HRV_0079,2022-11-30 17:53:31
11,"[{'imgObject': {}, 'id': 'bagel plain', 'src': '/static/foodstim60/bagel plain.jpg', 'key': 'u', 'origWidth': 410, 'origHeight': 410, 'width': 410, 'height': 410, 'widthPercent': 0.45, 'rescaleHeight': False, 'trialN': 11, 'loaded': True, 'loadedTime': 6749.700000047684, 'positionName': 'LEFT', 'positionCoords': [245.68, 179], 'bid': 8.32}, {'imgObject': {}, 'id': 'bagel and cc', 'src': '/static/foodstim60/bagel and cc.jpg', 'key': 'i', 'origWidth': 410, 'origHeight': 410, 'width': 410, 'height': 410, 'widthPercent': 0.45, 'rescaleHeight': False, 'trialN': 11, 'loaded': True, 'loadedTime': 6779.899999976158, 'positionName': 'RIGHT', 'positionCoords': [710.32, 179], 'bid': 7.15}]",17693.200000047684,1669830667977,bagel plain,bagel and cc,8.32,7.15,-1.17,bagel and cc,614.6000000238419,616,616.1000000238419,True,i,18814.800000071526,1121.6000000238419,1669830669099,1122,HRV,HRV_0079,2022-11-30 17:53:31
12,"[{'imgObject': {}, 'id': 'chicken nuggets2', 'src': '/static/foodstim60/chicken nuggets2.jpg', 'key': 'u', 'origWidth': 410, 'origHeight': 409, 'width': 410, 'height': 409, 'widthPercent': 0.45, 'rescaleHeight': False, 'trialN': 12, 'loaded': True, 'loadedTime': 6435.800000071526, 'positionName': 'LEFT', 'positionCoords': [245.68, 179.5], 'bid': 2.64}, {'imgObject': {}, 'id': 'edamame', 'src': '/static/foodstim60/edamame.jpg', 'key': 'i', 'origWidth': 409, 'origHeight': 410, 'width': 409, 'height': 410, 'widthPercent': 0.45, 'rescaleHeight': False, 'trialN': 12, 'loaded': True, 'loadedTime': 6813.899999976158, 'positionName': 'RIGHT', 'positionCoords': [710.32, 179], 'bid': 2.29}]",18815.100000023842,1669830669099,chicken nuggets2,edamame,2.64,2.29,-0.3500000000000001,chicken nuggets2,586.2000000476837,588,587.7000000476837,True,u,19921.800000071526,1106.7000000476837,1669830670206,1107,HRV,HRV_0079,2022-11-30 17:53:31
13,"[{'imgObject': {}, 'id': 'veggieswithdip', 'src': '/static/foodstim60/veggieswithdip.jpg', 'key': 'u', 'origWidth': 409, 'origHeight': 409, 'width': 409, 'height': 409, 'widthPercent': 0.45, 'rescaleHeight': False, 'trialN': 13, 'loaded': True, 'loadedTime': 6385.200000047684, 'positionName': 'LEFT', 'positionCoords': [246.68, 179.5], 'bid': 8.36}, {'imgObject': {}, 'id': 'sweetpotato', 'src': '/static/foodstim60/sweetpotato.jpg', 'key': 'i', 'origWidth': 410, 'origHeight': 410, 'width': 410, 'height': 410, 'widthPercent': 0.45, 'rescaleHeight': False, 'trialN': 13, 'loaded': True, 'loadedTime': 6818, 'positionName': 'RIGHT', 'positionCoords': [710.32, 179], 'bid': 8.950000000000001}]",19922.200000047684,1669830670206,veggieswithdip,sweetpotato,8.36,8.950000000000001,0.5900000000000016,sweetpotato,373.2999999523163,375,375.1999999284744,True,i,20807.200000047684,885.0,1669830671091,885,HRV,HRV_0079,2022-11-30 17:53:31
14,"[{'imgObject': {}, 'id': 'mac & cheese', 'src': '/static/foodstim60/mac & cheese.jpg', 'key': 'u', 'origWidth': 410, 'origHeight': 410, 'width': 410, 'height': 410, 'widthPercent': 0.45, 'rescaleHeight': False, 'trialN': 14, 'loaded': True, 'loadedTime': 6629.300000071526, 'positionName': 'LEFT', 'positionCoords': [245.68, 179], 'bid': 5.99}, {'imgObject': {}, 'id': 'chicken nuggets2', 'src': '/static/foodstim60/chicken nuggets2.jpg', 'key': 'i', 'origWidth': 410, 'origHeight': 409, 'width': 410, 'height': 409, 'widthPercent': 0.45, 'rescaleHeight': False, 'trialN': 14, 'loaded': True, 'loadedTime': 6432, 'positionName': 'RIGHT', 'positionCoords': [710.32, 179.5], 'bid': 2.64}]",20807.600000023842,1669830671091,mac & cheese,chicken nuggets2,5.99,2.64,-3.35,chicken nuggets2,546.8999999761581,549,548.2999999523163,True,i,21869.200000047684,1061.6000000238419,1669830672153,1062,HRV,HRV_0079,2022-11-30 17:53:31
15,"[{'imgObject': {}, 'id': 'luckycharms', 'src': '/static/foodstim60/luckycharms.jpg', 'key': 'u', 'origWidth': 410, 'origHeight': 409, 'width': 410, 'height': 409, 'widthPercent': 0.45, 'rescaleHeight': False, 'trialN': 15, 'loaded': True, 'loadedTime': 6847.5, 'positionName': 'LEFT', 'positionCoords': [245.68, 179.5], 'bid': 3.0500000000000003}, {'imgObject': {}, 'id': 'granola w milk', 'src': '/static/foodstim60/granola w milk.jpg', 'key': 'i', 'origWidth': 410, 'origHeight': 410, 'width': 410, 'height': 410, 'widthPercent': 0.45, 'rescaleHeight': False, 'trialN': 15, 'loaded': True, 'loadedTime': 6867.399999976158, 'positionName': 'RIGHT', 'positionCoords': [710.32, 179], 'bid': 2.8000000000000003}]",21869.700000047684,1669830672153,luckycharms,granola w milk,3.0500000000000003,2.8000000000000003,-0.25,granola w milk,1066.1000000238419,1067,1067.0,True,i,23449.100000023842,1579.3999999761581,1669830673733,1580,HRV,HRV_0079,2022-11-30 17:53:31
16,"[{'imgObject': {}, 'id': 'mashed potato', 'src': '/static/foodstim60/mashed potato.jpg', 'key': 'u', 'origWidth': 409, 'origHeight': 409, 'width': 409, 'height': 409, 'widthPercent': 0.45, 'rescaleHeight': False, 'trialN': 16, 'loaded': True, 'loadedTime': 6885.899999976158, 'positionName': 'LEFT', 'positionCoords': [246.68, 179.5], 'bid': 8.64}, {'imgObject': {}, 'id': 'orange slices', 'src': '/static/foodstim60/orange slices.jpg', 'key': 'i', 'origWidth': 409, 'origHeight': 410, 'width': 409, 'height': 410, 'widthPercent': 0.45, 'rescaleHeight': False, 'trialN': 16, 'loaded': True, 'loadedTime': 6393, 'positionName': 'RIGHT', 'positionCoords': [710.32, 179], 'bid': 4.53}]",23450.100000023842,1669830673734,mashed potato,orange slices,8.64,4.53,-4.11,orange slices,1050.2000000476837,1052,1052.5,True,i,25023.5,1573.3999999761581,1669830675307,1573,HRV,HRV_0079,2022-11-30 17:53:31
17,"[{'imgObject': {}, 'id': 'raisin bran w milk', 'src': '/static/foodstim60/raisin bran w milk.jpg', 'key': 'u', 'origWidth': 411, 'origHeight': 411, 'width': 411, 'height': 411, 'widthPercent': 0.45, 'rescaleHeight': False, 'trialN': 17, 'loaded': True, 'loadedTime': 6889.700000047684, 'positionName': 'LEFT', 'positionCoords': [244.68, 178.5], 'bid': 3.44}, {'imgObject': {}, 'id': 'yogurt no spoon', 'src': '/static/foodstim60/yogurt no spoon.jpg', 'key': 'i', 'origWidth': 411, 'origHeight': 410, 'width': 411, 'height': 410, 'widthPercent': 0.45, 'rescaleHeight': False, 'trialN': 17, 'loaded': True, 'loadedTime': 6905, 'positionName': 'RIGHT', 'positionCoords': [710.32, 179], 'bid': 3.16}]",25023.899999976158,1669830675308,raisin bran w milk,yogurt no spoon,3.44,3.16,-0.2799999999999998,raisin bran w milk,334.60000002384186,335,335.40000009536743,True,u,25880.700000047684,856.8000000715256,1669830676165,857,HRV,HRV_0079,2022-11-30 17:53:31
18,"[{'imgObject': {}, 'id': 'mashed potato', 'src': '/static/foodstim60/mashed potato.jpg', 'key': 'u', 'origWidth': 409, 'origHeight': 409, 'width': 409, 'height': 409, 'widthPercent': 0.45, 'rescaleHeight': False, 'trialN': 18, 'loaded': True, 'loadedTime': 6885.399999976158, 'positionName': 'LEFT', 'positionCoords': [246.68, 179.5], 'bid': 8.64}, {'imgObject': {}, 'id': 'sweetpotato', 'src': '/static/foodstim60/sweetpotato.jpg', 'key': 'i', 'origWidth': 410, 'origHeight': 410, 'width': 410, 'height': 410, 'widthPercent': 0.45, 'rescaleHeight': False, 'trialN': 18, 'loaded': True, 'loadedTime': 6818.5, 'positionName': 'RIGHT', 'positionCoords': [710.32, 179], 'bid': 8.950000000000001}]",25881.0,1669830676165,mashed potato,sweetpotato,8.64,8.950000000000001,0.3100000000000005,sweetpotato,459.3000000715256,461,461.7000000476837,True,i,26923.5,1042.5,1669830677207,1042,HRV,HRV_0079,2022-11-30 17:53:31
19,"[{'imgObject': {}, 'id': 'granola w milk', 'src': '/static/foodstim60/granola w milk.jpg', 'key': 'u', 'origWidth': 410, 'origHeight': 410, 'width': 410, 'height': 410, 'widthPercent': 0.45, 'rescaleHeight': False, 'trialN': 19, 'loaded': True, 'loadedTime': 6870.200000047684, 'positionName': 'LEFT', 'positionCoords': [245.68, 179], 'bid': 2.8000000000000003}, {'imgObject': {}, 'id': 'raisin bran w milk', 'src': '/static/foodstim60/raisin bran w milk.jpg', 'key': 'i', 'origWidth': 411, 'origHeight': 411, 'width': 411, 'height': 411, 'widthPercent': 0.45, 'rescaleHeight': False, 'trialN': 19, 'loaded': True, 'loadedTime': 6889.5, 'positionName': 'RIGHT', 'positionCoords': [710.32, 178.5], 'bid': 3.44}]",26923.800000071526,1669830677208,granola w milk,raisin bran w milk,2.8000000000000003,3.44,0.6399999999999997,NaN,NaN,NaN,,False,NaN,30949.899999976158,4026.0999999046326,1669830681234,4026,HRV,HRV_0079,2022-11-30 17:53:31
20,"[{'imgObject': {}, 'id': 'Grapes', 'src': '/static/foodstim60/Grapes.jpg', 'key': 'u', 'origWidth': 411, 'origHeight': 411, 'width': 411, 'height': 411, 'widthPercent': 0.45, 'rescaleHeight': False, 'trialN': 20, 'loaded': True, 'loadedTime': 6906, 'positionName': 'LEFT', 'positionCoords': [244.68, 178.5], 'bid': 6.9}, {'imgObject': {}, 'id': 'cherries', 'src': '/static/foodstim60/cherries.jpg', 'key': 'i', 'origWidth': 410, 'origHeight': 411, 'width': 410, 'height': 411, 'widthPercent': 0.45, 'rescaleHeight': False, 'trialN': 20, 'loaded': True, 'loadedTime': 6739.300000071526, 'positionName': 'RIGHT', 'positionCoords': [710.32, 178.5], 'bid': 7.0200000000000005}]",30950.200000047684,1669830681234,Grapes,cherries,6.9,7.0200000000000005,0.1200000000000001,NaN,NaN,NaN,,False,NaN,34991.200000047684,4041.0,1669830685275,4041,HRV,HRV_0079,2022-11-30 17:53:31
21,"[{'imgObject': {}, 'id': 'shreddedwheatwithmilk', 'src': '/static/foodstim60/shreddedwheatwithmilk.jpg', 'key': 'u', 'origWidth': 410, 'origHeight': 410, 'width': 410, 'height': 410, 'widthPercent': 0.45, 'rescaleHeight': False, 'trialN': 21, 'loaded': True, 'loadedTime': 6918.200000047684, 'positionName': 'LEFT', 'positionCoords': [245.68, 179], 'bid': 6.7700000000000005}, {'imgObject': {}, 'id': 'rigatoni and sauce', 'src': '/static/foodstim60/rigatoni and sauce.jpg', 'key': 'i', 'origWidth': 410, 'origHeight': 411, 'width': 410, 'height': 411, 'widthPercent': 0.45, 'rescaleHeight': False, 'trialN': 21, 'loaded': True, 'loadedTime': 6956.600000023842, 'positionName': 'RIGHT', 'positionCoords': [710.32, 178.5], 'bid': 4.95}]",34991.60000002384,1669830685275,shreddedwheatwithmilk,rigatoni and sauce,6.7700000000000005,4.95,-1.8200000000000003,NaN,NaN,NaN,,False,NaN,39019.60000002384,4028.0,1669830689303,4028,HRV,HRV_0079,2022-11-30 17:53:31
22,"[{'imgObject': {}, 'id': 'banana', 'src': '/static/foodstim60/banana.jpg', 'key': 'u', 'origWidth': 410, 'origHeight': 410, 'width': 410, 'height': 410, 'widthPercent': 0.45, 'rescaleHeight': False, 'trialN': 22, 'loaded': True, 'loadedTime': 6532.300000071526, 'positionName': 'LEFT', 'positionCoords': [245.68, 179], 'bid': 7.75}, {'imgObject': {}, 'id': 'corn cob', 'src': '/static/foodstim60/corn cob.jpg', 'key': 'i', 'origWidth': 411, 'origHeight': 411, 'width': 411, 'height': 411, 'widthPercent': 0.45, 'rescaleHeight': False, 'trialN': 22, 'loaded': True, 'loadedTime': 6683.399999976158, 'positionName': 'RIGHT', 'positionCoords': [710.32, 178.5], 'bid': 6.66}]",39020.10000002384,1669830689304,banana,corn cob,7.75,6.66,-1.0899999999999999,NaN,NaN,NaN,,False,NaN,43028.800000071526,4008.7000000476837,1669830693313,4009,HRV,HRV_0079,2022-11-30 17:53:31
23,"[{'imgObject': {}, 'id': 'blueberries', 'src': '/static/foodstim60/blueberries.jpg', 'key': 'u', 'origWidth': 411, 'origHeight': 411, 'width': 411, 'height': 411, 'widthPercent': 0.45, 'rescaleHeight': False, 'trialN': 23, 'loaded': True, 'loadedTime': 6272.5, 'positionName': 'LEFT', 'positionCoords': [244.68, 178.5], 'bid': 4.32}, {'imgObject': {}, 'id': 'eggs', 'src': '/static/foodstim60/eggs.jpg', 'key': 'i', 'origWidth': 409, 'origHeight': 409, 'width': 409, 'height': 409, 'widthPercent': 0.45, 'rescaleHeight': False, 'trialN': 23, 'loaded': True, 'loadedTime': 6960.399999976158, 'positionName': 'RIGHT', 'positionCoords': [710.32, 179.5], 'bid': 5.23}]",43029.10000002384,1669830693313,blueberries,eggs,4.32,5.23,0.9100000000000001,NaN,NaN,NaN,,False,NaN,47039.300000071526,4010.2000000476837,1669830697323,4010,HRV,HRV_0079,2022-11-30 17:53:31
24,"[{'imgObject': {}, 'id': 'avocado', 'src': '/static/foodstim60/avocado.jpg', 'key': 'u', 'origWidth': 409, 'origHeight': 409, 'width': 409, 'height': 409, 'widthPercent': 0.45, 'rescaleHeight': False, 'trialN': 24, 'loaded': True, 'loadedTime': 6503.899999976158, 'positionName': 'LEFT', 'positionCoords': [246.68, 179.5], 'bid': 2.08}, {'imgObject': {}, 'id': 'baked potato', 'src': '/static/foodstim60/baked potato.jpg', 'key': 'i', 'origWidth': 409, 'origHeight': 410, 'width': 409, 'height': 410, 'widthPercent': 0.45, 'rescaleHeight': False, 'trialN': 24, 'loaded': True, 'loadedTime': 6220.899999976158, 'positionName': 'RIGHT', 'positionCoords': [710.32, 179], 'bid': 3.74}]",47039.60000002384,1669830697323,avocado,baked potato,2.08,3.74,1.6600000000000001,baked potato,681.1000000238419,683,682.6000000238419,True,i,48234.10000002384,1194.5,1669830698518,1195,HRV,HRV_0079,2022-11-30 17:53:31
25,"[{'imgObject': {}, 'id': 'kiwi', 'src': '/static/foodstim60/kiwi.jpg', 'key': 'u', 'origWidth': 410, 'origHeight': 410, 'width': 410, 'height': 410, 'widthPercent': 0.45, 'rescaleHeight': False, 'trialN': 25, 'loaded': True, 'loadedTime': 7027.700000047684, 'positionName': 'LEFT', 'positionCoords': [245.68, 179], 'bid': 5.49}, {'imgObject': {}, 'id': 'salad w chicken', 'src': '/static/foodstim60/salad w chicken.jpg', 'key': 'i', 'origWidth': 411, 'origHeight': 411, 'width': 411, 'height': 411, 'widthPercent': 0.45, 'rescaleHeight': False, 'trialN': 25, 'loaded': True, 'loadedTime': 6418.200000047684, 'positionName': 'RIGHT', 'positionCoords': [710.32, 178.5], 'bid': 4.54}]",48234.5,1669830698518,kiwi,salad w chicken,5.49,4.54,-0.9500000000000002,kiwi,127.10000002384186,128,127.60000002384186,True,u,48875.5,641.0,1669830699159,641,HRV,HRV_0079,2022-11-30 17:53:31
26,"[{'imgObject': {}, 'id': 'strawberries', 'src': '/static/foodstim60/strawberries.jpg', 'key': 'u', 'origWidth': 410, 'origHeight': 410, 'width': 410, 'height': 410, 'widthPercent': 0.45, 'rescaleHeight': False, 'trialN': 26, 'loaded': True, 'loadedTime': 6182.899999976158, 'positionName': 'LEFT', 'positionCoords': [245.68, 179], 'bid': 5.24}, {'imgObject': {}, 'id': 'blackbeanswithrice', 'src': '/static/foodstim60/blackbeanswithrice.jpg', 'key': 'i', 'origWidth': 410, 'origHeight': 410, 'width': 410, 'height': 410, 'widthPercent': 0.45, 'rescaleHeight': False, 'trialN': 26, 'loaded': True, 'loadedTime': 6744.899999976158, 'positionName': 'RIGHT', 'positionCoords': [710.32, 179], 'bid': 5.04}]",48876.39999997616,1669830699160,strawberries,blackbeanswithrice,5.24,5.04,-0.20000000000000018,strawberries,133,135,134.30000007152557,True,u,49524.200000047684,647.8000000715256,1669830699808,648,HRV,HRV_0079,2022-11-30 17:53:31
27,"[{'imgObject': {}, 'id': 'corn cob', 'src': '/static/foodstim60/corn cob.jpg', 'key': 'u', 'origWidth': 411, 'origHeight': 411, 'width': 411, 'height': 411, 'widthPercent': 0.45, 'rescaleHeight': False, 'trialN': 27, 'loaded': True, 'loadedTime': 6682.300000071526, 'positionName': 'LEFT', 'positionCoords': [244.68, 178.5], 'bid': 6.66}, {'imgObject': {}, 'id': 'mashed potato', 'src': '/static/foodstim60/mashed potato.jpg', 'key': 'i', 'origWidth': 409, 'origHeight': 409, 'width': 409, 'height': 409, 'widthPercent': 0.45, 'rescaleHeight': False, 'trialN': 27, 'loaded': True, 'loadedTime': 6886.100000023842, 'positionName': 'RIGHT', 'positionCoords': [710.32, 179.5], 'bid': 8.64}]",49524.60000002384,1669830699808,corn cob,mashed potato,6.66,8.64,1.9800000000000004,mashed potato,239,241,241.0,True,i,50274.200000047684,749.6000000238419,1669830700558,750,HRV,HRV_0079,2022-11-30 17:53:31
28,"[{'imgObject': {}, 'id': 'raspberries', 'src': '/static/foodstim60/raspberries.jpg', 'key': 'u', 'origWidth': 411, 'origHeight': 411, 'width': 411, 'height': 411, 'widthPercent': 0.45, 'rescaleHeight': False, 'trialN': 28, 'loaded': True, 'loadedTime': 6973.800000071526, 'positionName': 'LEFT', 'positionCoords': [244.68, 178.5], 'bid': 3.08}, {'imgObject': {}, 'id': 'baked potato', 'src': '/static/foodstim60/baked potato.jpg', 'key': 'i', 'origWidth': 409, 'origHeight': 410, 'width': 409, 'height': 410, 'widthPercent': 0.45, 'rescaleHeight': False, 'trialN': 28, 'loaded': True, 'loadedTime': 6221.300000071526, 'positionName': 'RIGHT', 'positionCoords': [710.32, 179], 'bid': 3.74}]",50274.5,1669830700558,raspberries,baked potato,3.08,3.74,0.6600000000000001,baked potato,32.89999997615814,34,33.5,True,i,50814.300000071526,539.8000000715256,1669830701098,540,HRV,HRV_0079,2022-11-30 17:53:31
29,"[{'imgObject': {}, 'id': 'rigatoni', 'src': '/static/foodstim60/rigatoni.jpg', 'key': 'u', 'origWidth': 411, 'origHeight': 411, 'width': 411, 'height': 411, 'widthPercent': 0.45, 'rescaleHeight': False, 'trialN': 29, 'loaded': True, 'loadedTime': 7053.100000023842, 'positionName': 'LEFT', 'positionCoords': [244.68, 178.5], 'bid': 2.36}, {'imgObject': {}, 'id': 'chicken nuggets2', 'src': '/static/foodstim60/chicken nuggets2.jpg', 'key': 'i', 'origWidth': 410, 'origHeight': 409, 'width': 410, 'height': 409, 'widthPercent': 0.45, 'rescaleHeight': False, 'trialN': 29, 'loaded': True, 'loadedTime': 6436.5, 'positionName': 'RIGHT', 'positionCoords': [710.32, 179.5], 'bid': 2.64}]",50815.200000047684,1669830701099,rigatoni,chicken nuggets2,2.36,2.64,0.28000000000000025,chicken nuggets2,12.699999928474426,14,13.699999928474426,True,i,51334.10000002384,518.8999999761581,1669830701618,519,HRV,HRV_0079,2022-11-30 17:53:31
30,"[{'imgObject': {}, 'id': 'mango', 'src': '/static/foodstim60/mango.jpg', 'key': 'u', 'origWidth': 411, 'origHeight': 411, 'width': 411, 'height': 411, 'widthPercent': 0.45, 'rescaleHeight': False, 'trialN': 30, 'loaded': True, 'loadedTime': 7047.100000023842, 'positionName': 'LEFT', 'positionCoords': [244.68, 178.5], 'bid': 4.23}, {'imgObject': {}, 'id': 'kiwi', 'src': '/static/foodstim60/kiwi.jpg', 'key': 'i', 'origWidth': 410, 'origHeight': 410, 'width': 410, 'height': 410, 'widthPercent': 0.45, 'rescaleHeight': False, 'trialN': 30, 'loaded': True, 'loadedTime': 7027, 'positionName': 'RIGHT', 'positionCoords': [710.32, 179], 'bid': 5.49}]",51334.5,1669830701618,mango,kiwi,4.23,5.49,1.2599999999999998,kiwi,152.80000007152557,154,153.30000007152557,True,i,51999.700000047684,665.2000000476837,1669830702283,665,HRV,HRV_0079,2022-11-30 17:53:31
31,"[{'imgObject': {}, 'id': 'baked potato', 'src': '/static/foodstim60/baked potato.jpg', 'key': 'u', 'origWidth': 409, 'origHeight': 410, 'width': 409, 'height': 410, 'widthPercent': 0.45, 'rescaleHeight': False, 'trialN': 31, 'loaded': True, 'loadedTime': 6216.600000023842, 'positionName': 'LEFT', 'positionCoords': [246.68, 179], 'bid': 3.74}, {'imgObject': {}, 'id': 'Tribe humus pita', 'src': '/static/foodstim60/Tribe humus pita.jpg', 'key': 'i', 'origWidth': 411, 'origHeight': 411, 'width': 411, 'height': 411, 'widthPercent': 0.45, 'rescaleHeight': False, 'trialN': 31, 'loaded': True, 'loadedTime': 7118.600000023842, 'positionName': 'RIGHT', 'positionCoords': [710.32, 178.5], 'bid': 7.4}]",52000.10000002384,1669830702284,baked potato,Tribe humus pita,3.74,7.4,3.66,baked potato,172,174,173.79999995231628,True,u,52686.300000071526,686.2000000476837,1669830702970,686,HRV,HRV_0079,2022-11-30 17:53:31
32,"[{'imgObject': {}, 'id': 'sushi w_condiments', 'src': '/static/foodstim60/sushi w_condiments.jpg', 'key': 'u', 'origWidth': 410, 'origHeight': 410, 'width': 410, 'height': 410, 'widthPercent': 0.45, 'rescaleHeight': False, 'trialN': 32, 'loaded': True, 'loadedTime': 7058.200000047684, 'positionName': 'LEFT', 'positionCoords': [245.68, 179], 'bid': 3.33}, {'imgObject': {}, 'id': 'ice cream sundae 002', 'src': '/static/foodstim60/ice cream sundae 002.jpg', 'key': 'i', 'origWidth': 409, 'origHeight': 409, 'width': 409, 'height': 409, 'widthPercent': 0.45, 'rescaleHeight': False, 'trialN': 32, 'loaded': True, 'loadedTime': 7080, 'positionName': 'RIGHT', 'positionCoords': [710.32, 179.5], 'bid': 1.38}]",52686.800000071526,1669830702971,sushi w_condiments,ice cream sundae 002,3.33,1.38,-1.9500000000000002,sushi w_condiments,168,169,169.19999992847443,True,u,53374.800000071526,688.0,1669830703659,688,HRV,HRV_0079,2022-11-30 17:53:31
33,"[{'imgObject': {}, 'id': 'fruitsalad', 'src': '/static/foodstim60/fruitsalad.jpg', 'key': 'u', 'origWidth': 410, 'origHeight': 410, 'width': 410, 'height': 410, 'widthPercent': 0.45, 'rescaleHeight': False, 'trialN': 33, 'loaded': True, 'loadedTime': 6597.5, 'positionName': 'LEFT', 'positionCoords': [245.68, 179], 'bid': 4.26}, {'imgObject': {}, 'id': 'cocktailshrimp', 'src': '/static/foodstim60/cocktailshrimp.jpg', 'key': 'i', 'origWidth': 410, 'origHeight': 410, 'width': 410, 'height': 410, 'widthPercent': 0.45, 'rescaleHeight': False, 'trialN': 33, 'loaded': True, 'loadedTime': 7083.800000071526, 'positionName': 'RIGHT', 'positionCoords': [710.32, 179], 'bid': 3.94}]",53375.0,1669830703659,fruitsalad,cocktailshrimp,4.26,3.94,-0.31999999999999984,cocktailshrimp,116.30000007152557,117,117.0,True,i,54005.0,630.0,1669830704289,630,HRV,HRV_0079,2022-11-30 17:53:31
34,"[{'imgObject': {}, 'id': 'popsicles', 'src': '/static/foodstim60/popsicles.jpg', 'key': 'u', 'origWidth': 410, 'origHeight': 410, 'width': 410, 'height': 410, 'widthPercent': 0.45, 'rescaleHeight': False, 'trialN': 34, 'loaded': True, 'loadedTime': 7085, 'positionName': 'LEFT', 'positionCoords': [245.68, 179], 'bid': 2.92}, {'imgObject': {}, 'id': 'luckycharms', 'src': '/static/foodstim60/luckycharms.jpg', 'key': 'i', 'origWidth': 410, 'origHeight': 409, 'width': 410, 'height': 409, 'widthPercent': 0.45, 'rescaleHeight': False, 'trialN': 34, 'loaded': True, 'loadedTime': 6859.600000023842, 'positionName': 'RIGHT', 'positionCoords': [710.32, 179.5], 'bid': 3.0500000000000003}]",54005.5,1669830704289,popsicles,luckycharms,2.92,3.0500000000000003,0.13000000000000034,popsicles,56.5,57,57.0,True,u,54573.60000002384,568.1000000238419,1669830704857,568,HRV,HRV_0079,2022-11-30 17:53:31
35,"[{'imgObject': {}, 'id': 'eggsalad', 'src': '/static/foodstim60/eggsalad.jpg', 'key': 'u', 'origWidth': 410, 'origHeight': 409, 'width': 410, 'height': 409, 'widthPercent': 0.45, 'rescaleHeight': False, 'trialN': 35, 'loaded': True, 'loadedTime': 7090.200000047684, 'positionName': 'LEFT', 'positionCoords': [245.68, 179.5], 'bid': 8.32}, {'imgObject': {}, 'id': 'salmon', 'src': '/static/foodstim60/salmon.jpg', 'key': 'i', 'origWidth': 410, 'origHeight': 409, 'width': 410, 'height': 409, 'widthPercent': 0.45, 'rescaleHeight': False, 'trialN': 35, 'loaded': True, 'loadedTime': 7115.800000071526, 'positionName': 'RIGHT', 'positionCoords': [710.32, 179.5], 'bid': 7.13}]",54574.10000002384,1669830704858,eggsalad,salmon,8.32,7.13,-1.1900000000000004,salmon,78.10000002384186,79,78.79999995231628,True,i,55155.5,581.3999999761581,1669830705439,581,HRV,HRV_0079,2022-11-30 17:53:31
36,"[{'imgObject': {}, 'id': 'tacos', 'src': '/static/foodstim60/tacos.jpg', 'key': 'u', 'origWidth': 411, 'origHeight': 411, 'width': 411, 'height': 411, 'widthPercent': 0.45, 'rescaleHeight': False, 'trialN': 36, 'loaded': True, 'loadedTime': 6215.600000023842, 'positionName': 'LEFT', 'positionCoords': [244.68, 178.5], 'bid': 5.6000000000000005}, {'imgObject': {}, 'id': 'fried eggs', 'src': '/static/foodstim60/fried eggs.jpg', 'key': 'i', 'origWidth': 410, 'origHeight': 410, 'width': 410, 'height': 410, 'widthPercent': 0.45, 'rescaleHeight': False, 'trialN': 36, 'loaded': True, 'loadedTime': 7125.300000071526, 'positionName': 'RIGHT', 'positionCoords': [710.32, 179], 'bid': 5.65}]",55155.89999997616,1669830705440,tacos,fried eggs,5.6000000000000005,5.65,0.04999999999999982,fried eggs,28,28,28.5,True,i,55693.700000047684,537.8000000715256,1669830705977,537,HRV,HRV_0079,2022-11-30 17:53:31
37,"[{'imgObject': {}, 'id': 'apple slices', 'src': '/static/foodstim60/apple slices.jpg', 'key': 'u', 'origWidth': 409, 'origHeight': 410, 'width': 409, 'height': 410, 'widthPercent': 0.45, 'rescaleHeight': False, 'trialN': 37, 'loaded': True, 'loadedTime': 6700.899999976158, 'positionName': 'LEFT', 'positionCoords': [246.68, 179], 'bid': 6.46}, {'imgObject': {}, 'id': 'turkeysandwich', 'src': '/static/foodstim60/turkeysandwich.jpg', 'key': 'i', 'origWidth': 409, 'origHeight': 409, 'width': 409, 'height': 409, 'widthPercent': 0.45, 'rescaleHeight': False, 'trialN': 37, 'loaded': True, 'loadedTime': 7131, 'positionName': 'RIGHT', 'positionCoords': [710.32, 179.5], 'bid': 2.73}]",55694.0,1669830705978,apple slices,turkeysandwich,6.46,2.73,-3.73,apple slices,110.5,150,150.10000002384186,True,u,56360.800000071526,666.8000000715256,1669830706645,667,HRV,HRV_0079,2022-11-30 17:53:31
38,"[{'imgObject': {}, 'id': 'edamame', 'src': '/static/foodstim60/edamame.jpg', 'key': 'u', 'origWidth': 409, 'origHeight': 410, 'width': 409, 'height': 410, 'widthPercent': 0.45, 'rescaleHeight': False, 'trialN': 38, 'loaded': True, 'loadedTime': 6788.899999976158, 'positionName': 'LEFT', 'positionCoords': [246.68, 179], 'bid': 2.29}, {'imgObject': {}, 'id': 'froot loops w milk', 'src': '/static/foodstim60/froot loops w milk.jpg', 'key': 'i', 'origWidth': 410, 'origHeight': 410, 'width': 410, 'height': 410, 'widthPercent': 0.45, 'rescaleHeight': False, 'trialN': 38, 'loaded': True, 'loadedTime': 7147.300000071526, 'positionName': 'RIGHT', 'positionCoords': [710.32, 179], 'bid': 2.26}]",56361.300000071526,1669830706645,edamame,froot loops w milk,2.29,2.26,-0.03000000000000025,froot loops w milk,107.59999990463257,109,108.39999997615814,True,i,56973.89999997616,612.5999999046326,1669830707258,613,HRV,HRV_0079,2022-11-30 17:53:31
39,"[{'imgObject': {}, 'id': 'olives', 'src': '/static/foodstim60/olives.jpg', 'key': 'u', 'origWidth': 410, 'origHeight': 410, 'width': 410, 'height': 410, 'widthPercent': 0.45, 'rescaleHeight': False, 'trialN': 39, 'loaded': True, 'loadedTime': 7148.200000047684, 'positionName': 'LEFT', 'positionCoords': [245.68, 179], 'bid': 7.04}, {'imgObject': {}, 'id': 'mashed potato', 'src': '/static/foodstim60/mashed potato.jpg', 'key': 'i', 'origWidth': 409, 'origHeight': 409, 'width': 409, 'height': 409, 'widthPercent': 0.45, 'rescaleHeight': False, 'trialN': 39, 'loaded': True, 'loadedTime': 6873.600000023842, 'positionName': 'RIGHT', 'positionCoords': [710.32, 179.5], 'bid': 8.64}]",56974.60000002384,1669830707258,olives,mashed potato,7.04,8.64,1.6000000000000005,mashed potato,165.39999997615814,166,165.79999995231628,True,i,57651.60000002384,677.0,1669830707935,677,HRV,HRV_0079,2022-11-30 17:53:31
40,"[{'imgObject': {}, 'id': 'bagel plain', 'src': '/static/foodstim60/bagel plain.jpg', 'key': 'u', 'origWidth': 410, 'origHeight': 410, 'width': 410, 'height': 410, 'widthPercent': 0.45, 'rescaleHeight': False, 'trialN': 40, 'loaded': True, 'loadedTime': 6749.399999976158, 'positionName': 'LEFT', 'positionCoords': [245.68, 179], 'bid': 8.32}, {'imgObject': {}, 'id': 'mac & cheese', 'src': '/static/foodstim60/mac & cheese.jpg', 'key': 'i', 'origWidth': 410, 'origHeight': 410, 'width': 410, 'height': 410, 'widthPercent': 0.45, 'rescaleHeight': False, 'trialN': 40, 'loaded': True, 'loadedTime': 6634.200000047684, 'positionName': 'RIGHT', 'positionCoords': [710.32, 179], 'bid': 5.99}]",57651.800000071526,1669830707936,bagel plain,mac & cheese,8.32,5.99,-2.33,mac & cheese,99.79999995231628,100,100.39999997615814,True,i,58266.10000002384,614.2999999523163,1669830708550,614,HRV,HRV_0079,2022-11-30 17:53:31
41,"[{'imgObject': {}, 'id': 'rigatoni and sauce', 'src': '/static/foodstim60/rigatoni and sauce.jpg', 'key': 'u', 'origWidth': 410, 'origHeight': 411, 'width': 410, 'height': 411, 'widthPercent': 0.45, 'rescaleHeight': False, 'trialN': 41, 'loaded': True, 'loadedTime': 6955, 'positionName': 'LEFT', 'positionCoords': [245.68, 178.5], 'bid': 4.95}, {'imgObject': {}, 'id': 'seaweed', 'src': '/static/foodstim60/seaweed.jpg', 'key': 'i', 'origWidth': 410, 'origHeight': 410, 'width': 410, 'height': 410, 'widthPercent': 0.45, 'rescaleHeight': False, 'trialN': 41, 'loaded': True, 'loadedTime': 7157, 'positionName': 'RIGHT', 'positionCoords': [710.32, 179], 'bid': 3.72}]",58266.60000002384,1669830708550,rigatoni and sauce,seaweed,4.95,3.72,-1.23,rigatoni and sauce,158.79999995231628,162,161.70000004768372,True,u,58934.300000071526,667.7000000476837,1669830709218,668,HRV,HRV_0079,2022-11-30 17:53:31
42,"[{'imgObject': {}, 'id': 'rigatoni and sauce', 'src': '/static/foodstim60/rigatoni and sauce.jpg', 'key': 'u', 'origWidth': 410, 'origHeight': 411, 'width': 410, 'height': 411, 'widthPercent': 0.45, 'rescaleHeight': False, 'trialN': 42, 'loaded': True, 'loadedTime': 6950.700000047684, 'positionName': 'LEFT', 'positionCoords': [245.68, 178.5], 'bid': 4.95}, {'imgObject': {}, 'id': 'cocktailshrimp', 'src': '/static/foodstim60/cocktailshrimp.jpg', 'key': 'i', 'origWidth': 410, 'origHeight': 410, 'width': 410, 'height': 410, 'widthPercent': 0.45, 'rescaleHeight': False, 'trialN': 42, 'loaded': True, 'loadedTime': 7080.600000023842, 'positionName': 'RIGHT', 'positionCoords': [710.32, 179], 'bid': 3.94}]",58935.0,1669830709219,rigatoni and sauce,cocktailshrimp,4.95,3.94,-1.0100000000000002,cocktailshrimp,157.70000004768372,159,159.30000007152557,True,i,59595.700000047684,660.7000000476837,1669830709880,661,HRV,HRV_0079,2022-11-30 17:53:31
43,"[{'imgObject': {}, 'id': 'avocado', 'src': '/static/foodstim60/avocado.jpg', 'key': 'u', 'origWidth': 409, 'origHeight': 409, 'width': 409, 'height': 409, 'widthPercent': 0.45, 'rescaleHeight': False, 'trialN': 43, 'loaded': True, 'loadedTime': 6505.399999976158, 'positionName': 'LEFT', 'positionCoords': [246.68, 179.5], 'bid': 2.08}, {'imgObject': {}, 'id': 'yogurt no spoon', 'src': '/static/foodstim60/yogurt no spoon.jpg', 'key': 'i', 'origWidth': 411, 'origHeight': 410, 'width': 411, 'height': 410, 'widthPercent': 0.45, 'rescaleHeight': False, 'trialN': 43, 'loaded': True, 'loadedTime': 6893.300000071526, 'positionName': 'RIGHT', 'positionCoords': [710.32, 179], 'bid': 3.16}]",59595.89999997616,1669830709880,avocado,yogurt no spoon,2.08,3.16,1.08,yogurt no spoon,191.20000004768372,192,191.90000009536743,True,i,60300.200000047684,704.3000000715256,1669830710584,704,HRV,HRV_0079,2022-11-30 17:53:31
44,"[{'imgObject': {}, 'id': 'orange slices', 'src': '/static/foodstim60/orange slices.jpg', 'key': 'u', 'origWidth': 409, 'origHeight': 410, 'width': 409, 'height': 410, 'widthPercent': 0.45, 'rescaleHeight': False, 'trialN': 44, 'loaded': True, 'loadedTime': 6388.5, 'positionName': 'LEFT', 'positionCoords': [246.68, 179], 'bid': 4.53}, {'imgObject': {}, 'id': 'rigatoni and sauce', 'src': '/static/foodstim60/rigatoni and sauce.jpg', 'key': 'i', 'origWidth': 410, 'origHeight': 411, 'width': 410, 'height': 411, 'widthPercent': 0.45, 'rescaleHeight': False, 'trialN': 44, 'loaded': True, 'loadedTime': 6957.399999976158, 'positionName': 'RIGHT', 'positionCoords': [710.32, 178.5], 'bid': 4.95}]",60300.800000071526,1669830710585,orange slices,rigatoni and sauce,4.53,4.95,0.41999999999999993,orange slices,66.19999992847443,67,67.79999995231628,True,u,60880.200000047684,579.3999999761581,1669830711164,579,HRV,HRV_0079,2022-11-30 17:53:31
45,"[{'imgObject': {}, 'id': 'pear', 'src': '/static/foodstim60/pear.jpg', 'key': 'u', 'origWidth': 411, 'origHeight': 410, 'width': 411, 'height': 410, 'widthPercent': 0.45, 'rescaleHeight': False, 'trialN': 45, 'loaded': True, 'loadedTime': 6205.600000023842, 'positionName': 'LEFT', 'positionCoords': [244.68, 179], 'bid': 1.76}, {'imgObject': {}, 'id': 'rigatoni', 'src': '/static/foodstim60/rigatoni.jpg', 'key': 'i', 'origWidth': 411, 'origHeight': 411, 'width': 411, 'height': 411, 'widthPercent': 0.45, 'rescaleHeight': False, 'trialN': 45, 'loaded': True, 'loadedTime': 7047.700000047684, 'positionName': 'RIGHT', 'positionCoords': [710.32, 178.5], 'bid': 2.36}]",60880.60000002384,1669830711164,pear,rigatoni,1.76,2.36,0.5999999999999999,rigatoni,173,174,173.89999997615814,True,i,61571.200000047684,690.6000000238419,1669830711855,691,HRV,HRV_0079,2022-11-30 17:53:31
46,"[{'imgObject': {}, 'id': 'salmon', 'src': '/static/foodstim60/salmon.jpg', 'key': 'u', 'origWidth': 410, 'origHeight': 409, 'width': 410, 'height': 409, 'widthPercent': 0.45, 'rescaleHeight': False, 'trialN': 46, 'loaded': True, 'loadedTime': 7113.300000071526, 'positionName': 'LEFT', 'positionCoords': [245.68, 179.5], 'bid': 7.13}, {'imgObject': {}, 'id': 'olives', 'src': '/static/foodstim60/olives.jpg', 'key': 'i', 'origWidth': 410, 'origHeight': 410, 'width': 410, 'height': 410, 'widthPercent': 0.45, 'rescaleHeight': False, 'trialN': 46, 'loaded': True, 'loadedTime': 7150.100000023842, 'positionName': 'RIGHT', 'positionCoords': [710.32, 179], 'bid': 7.04}]",61571.700000047684,1669830711856,salmon,olives,7.13,7.04,-0.08999999999999986,salmon,58.10000002384186,112,112.10000002384186,True,u,62193.800000071526,622.1000000238419,1669830712478,622,HRV,HRV_0079,2022-11-30 17:53:31
47,"[{'imgObject': {}, 'id': 'seaweed', 'src': '/static/foodstim60/seaweed.jpg', 'key': 'u', 'origWidth': 410, 'origHeight': 410, 'width': 410, 'height': 410, 'widthPercent': 0.45, 'rescaleHeight': False, 'trialN': 47, 'loaded': True, 'loadedTime': 7156.700000047684, 'positionName': 'LEFT', 'positionCoords': [245.68, 179], 'bid': 3.72}, {'imgObject': {}, 'id': 'burrito', 'src': '/static/foodstim60/burrito.jpg', 'key': 'i', 'origWidth': 410, 'origHeight': 410, 'width': 410, 'height': 410, 'widthPercent': 0.45, 'rescaleHeight': False, 'trialN': 47, 'loaded': True, 'loadedTime': 7162.899999976158, 'positionName': 'RIGHT', 'positionCoords': [710.32, 179], 'bid': 1.79}]",62194.200000047684,1669830712478,seaweed,burrito,3.72,1.79,-1.9300000000000002,seaweed,112.79999995231628,114,114.29999995231628,True,u,62816.800000071526,622.6000000238419,1669830713101,623,HRV,HRV_0079,2022-11-30 17:53:31
48,"[{'imgObject': {}, 'id': 'strawberries', 'src': '/static/foodstim60/strawberries.jpg', 'key': 'u', 'origWidth': 410, 'origHeight': 410, 'width': 410, 'height': 410, 'widthPercent': 0.45, 'rescaleHeight': False, 'trialN': 48, 'loaded': True, 'loadedTime': 6178.399999976158, 'positionName': 'LEFT', 'positionCoords': [245.68, 179], 'bid': 5.24}, {'imgObject': {}, 'id': 'kiwi', 'src': '/static/foodstim60/kiwi.jpg', 'key': 'i', 'origWidth': 410, 'origHeight': 410, 'width': 410, 'height': 410, 'widthPercent': 0.45, 'rescaleHeight': False, 'trialN': 48, 'loaded': True, 'loadedTime': 7029.700000047684, 'positionName': 'RIGHT', 'positionCoords': [710.32, 179], 'bid': 5.49}]",62817.300000071526,1669830713101,strawberries,kiwi,5.24,5.49,0.25,strawberries,128.89999997615814,130,129.69999992847443,True,u,63455.10000002384,637.7999999523163,1669830713739,638,HRV,HRV_0079,2022-11-30 17:53:31
49,"[{'imgObject': {}, 'id': 'hotdog w must', 'src': '/static/foodstim60/hotdog w must.jpg', 'key': 'u', 'origWidth': 409, 'origHeight': 409, 'width': 409, 'height': 409, 'widthPercent': 0.45, 'rescaleHeight': False, 'trialN': 49, 'loaded': True, 'loadedTime': 7188, 'positionName': 'LEFT', 'positionCoords': [246.68, 179.5], 'bid': 5.84}, {'imgObject': {}, 'id': 'banana', 'src': '/static/foodstim60/banana.jpg', 'key': 'i', 'origWidth': 410, 'origHeight': 410, 'width': 410, 'height': 410, 'widthPercent': 0.45, 'rescaleHeight': False, 'trialN': 49, 'loaded': True, 'loadedTime': 6529.300000071526, 'positionName': 'RIGHT', 'positionCoords': [710.32, 179], 'bid': 7.75}]",63455.5,1669830713739,hotdog w must,banana,5.84,7.75,1.9100000000000001,hotdog w must,115.20000004768372,116,116.0,True,u,64081.39999997616,625.8999999761581,1669830714365,626,HRV,HRV_0079,2022-11-30 17:53:31
50,"[{'imgObject': {}, 'id': 'tacos', 'src': '/static/foodstim60/tacos.jpg', 'key': 'u', 'origWidth': 411, 'origHeight': 411, 'width': 411, 'height': 411, 'widthPercent': 0.45, 'rescaleHeight': False, 'trialN': 50, 'loaded': True, 'loadedTime': 6213, 'positionName': 'LEFT', 'positionCoords': [244.68, 178.5], 'bid': 5.6000000000000005}, {'imgObject': {}, 'id': 'fruitsalad', 'src': '/static/foodstim60/fruitsalad.jpg', 'key': 'i', 'origWidth': 410, 'origHeight': 410, 'width': 410, 'height': 410, 'widthPercent': 0.45, 'rescaleHeight': False, 'trialN': 50, 'loaded': True, 'loadedTime': 6598.600000023842, 'positionName': 'RIGHT', 'positionCoords': [710.32, 179], 'bid': 4.26}]",64082.200000047684,1669830714366,tacos,fruitsalad,5.6000000000000005,4.26,-1.3400000000000007,tacos,73.79999995231628,75,75.19999992847443,True,u,64660.200000047684,578.0,1669830714939,573,HRV,HRV_0079,2022-11-30 17:53:31
51,"[{'imgObject': {}, 'id': 'banana', 'src': '/static/foodstim60/banana.jpg', 'key': 'u', 'origWidth': 410, 'origHeight': 410, 'width': 410, 'height': 410, 'widthPercent': 0.45, 'rescaleHeight': False, 'trialN': 51, 'loaded': True, 'loadedTime': 6586.300000071526, 'positionName': 'LEFT', 'positionCoords': [245.68, 179], 'bid': 7.75}, {'imgObject': {}, 'id': 'eggsalad', 'src': '/static/foodstim60/eggsalad.jpg', 'key': 'i', 'origWidth': 410, 'origHeight': 409, 'width': 410, 'height': 409, 'widthPercent': 0.45, 'rescaleHeight': False, 'trialN': 51, 'loaded': True, 'loadedTime': 7112.600000023842, 'positionName': 'RIGHT', 'positionCoords': [710.32, 179.5], 'bid': 8.32}]",64660.5,1669830714939,banana,eggsalad,7.75,8.32,0.5700000000000003,eggsalad,266.5,268,267.60000002384186,True,i,65431.39999997616,770.8999999761581,1669830715710,771,HRV,HRV_0079,2022-11-30 17:53:31
52,"[{'imgObject': {}, 'id': 'Tribe humus pita', 'src': '/static/foodstim60/Tribe humus pita.jpg', 'key': 'u', 'origWidth': 411, 'origHeight': 411, 'width': 411, 'height': 411, 'widthPercent': 0.45, 'rescaleHeight': False, 'trialN': 52, 'loaded': True, 'loadedTime': 7117.600000023842, 'positionName': 'LEFT', 'positionCoords': [244.68, 178.5], 'bid': 7.4}, {'imgObject': {}, 'id': 'mashed potato', 'src': '/static/foodstim60/mashed potato.jpg', 'key': 'i', 'origWidth': 409, 'origHeight': 409, 'width': 409, 'height': 409, 'widthPercent': 0.45, 'rescaleHeight': False, 'trialN': 52, 'loaded': True, 'loadedTime': 6884.800000071526, 'positionName': 'RIGHT', 'positionCoords': [710.32, 179.5], 'bid': 8.64}]",65432.0,1669830715711,Tribe humus pita,mashed potato,7.4,8.64,1.2400000000000002,mashed potato,220.89999997615814,222,221.89999997615814,True,i,66160.10000002384,728.1000000238419,1669830716439,728,HRV,HRV_0079,2022-11-30 17:53:31
53,"[{'imgObject': {}, 'id': 'bagel plain', 'src': '/static/foodstim60/bagel plain.jpg', 'key': 'u', 'origWidth': 410, 'origHeight': 410, 'width': 410, 'height': 410, 'widthPercent': 0.45, 'rescaleHeight': False, 'trialN': 53, 'loaded': True, 'loadedTime': 6746, 'positionName': 'LEFT', 'positionCoords': [245.68, 179], 'bid': 8.32}, {'imgObject': {}, 'id': 'fruitsalad', 'src': '/static/foodstim60/fruitsalad.jpg', 'key': 'i', 'origWidth': 410, 'origHeight': 410, 'width': 410, 'height': 410, 'widthPercent': 0.45, 'rescaleHeight': False, 'trialN': 53, 'loaded': True, 'loadedTime': 6592.100000023842, 'positionName': 'RIGHT', 'positionCoords': [710.32, 179], 'bid': 4.26}]",66160.70000004768,1669830716439,bagel plain,fruitsalad,8.32,4.26,-4.0600000000000005,bagel plain,76.60000002384186,78,77.89999997615814,True,u,66750.70000004768,590.0,1669830717029,590,HRV,HRV_0079,2022-11-30 17:53:31
54,"[{'imgObject': {}, 'id': 'veggieswithdip', 'src': '/static/foodstim60/veggieswithdip.jpg', 'key': 'u', 'origWidth': 409, 'origHeight': 409, 'width': 409, 'height': 409, 'widthPercent': 0.45, 'rescaleHeight': False, 'trialN': 54, 'loaded': True, 'loadedTime': 6387.5, 'positionName': 'LEFT', 'positionCoords': [246.68, 179.5], 'bid': 8.36}, {'imgObject': {}, 'id': 'apple slices', 'src': '/static/foodstim60/apple slices.jpg', 'key': 'i', 'origWidth': 409, 'origHeight': 410, 'width': 409, 'height': 410, 'widthPercent': 0.45, 'rescaleHeight': False, 'trialN': 54, 'loaded': True, 'loadedTime': 6704, 'positionName': 'RIGHT', 'positionCoords': [710.32, 179], 'bid': 6.46}]",66750.89999997616,1669830717030,veggieswithdip,apple slices,8.36,6.46,-1.8999999999999995,veggieswithdip,614.8000000715256,616,616.3000000715256,True,u,67879.0,1128.1000000238419,1669830718158,1128,HRV,HRV_0079,2022-11-30 17:53:31
55,"[{'imgObject': {}, 'id': 'cherries', 'src': '/static/foodstim60/cherries.jpg', 'key': 'u', 'origWidth': 410, 'origHeight': 411, 'width': 410, 'height': 411, 'widthPercent': 0.45, 'rescaleHeight': False, 'trialN': 55, 'loaded': True, 'loadedTime': 6707.600000023842, 'positionName': 'LEFT', 'positionCoords': [245.68, 178.5], 'bid': 7.0200000000000005}, {'imgObject': {}, 'id': 'veggieswithdip', 'src': '/static/foodstim60/veggieswithdip.jpg', 'key': 'i', 'origWidth': 409, 'origHeight': 409, 'width': 409, 'height': 409, 'widthPercent': 0.45, 'rescaleHeight': False, 'trialN': 55, 'loaded': True, 'loadedTime': 6386.399999976158, 'positionName': 'RIGHT', 'positionCoords': [710.32, 179.5], 'bid': 8.36}]",67879.30000007153,1669830718158,cherries,veggieswithdip,7.0200000000000005,8.36,1.339999999999999,veggieswithdip,93.09999990463257,94,94.29999995231628,True,i,68496.39999997616,617.0999999046326,1669830718775,617,HRV,HRV_0079,2022-11-30 17:53:31
56,"[{'imgObject': {}, 'id': 'eggs', 'src': '/static/foodstim60/eggs.jpg', 'key': 'u', 'origWidth': 409, 'origHeight': 409, 'width': 409, 'height': 409, 'widthPercent': 0.45, 'rescaleHeight': False, 'trialN': 56, 'loaded': True, 'loadedTime': 6960.800000071526, 'positionName': 'LEFT', 'positionCoords': [246.68, 179.5], 'bid': 5.23}, {'imgObject': {}, 'id': 'kiwi', 'src': '/static/foodstim60/kiwi.jpg', 'key': 'i', 'origWidth': 410, 'origHeight': 410, 'width': 410, 'height': 410, 'widthPercent': 0.45, 'rescaleHeight': False, 'trialN': 56, 'loaded': True, 'loadedTime': 7029, 'positionName': 'RIGHT', 'positionCoords': [710.32, 179], 'bid': 5.49}]",68497.20000004768,1669830718776,eggs,kiwi,5.23,5.49,0.2599999999999998,eggs,267.1999999284744,268,268.10000002384186,True,u,69266.80000007153,769.6000000238419,1669830719546,770,HRV,HRV_0079,2022-11-30 17:53:31
57,"[{'imgObject': {}, 'id': 'eggsalad', 'src': '/static/foodstim60/eggsalad.jpg', 'key': 'u', 'origWidth': 410, 'origHeight': 409, 'width': 410, 'height': 409, 'widthPercent': 0.45, 'rescaleHeight': False, 'trialN': 57, 'loaded': True, 'loadedTime': 7112.800000071526, 'positionName': 'LEFT', 'positionCoords': [245.68, 179.5], 'bid': 8.32}, {'imgObject': {}, 'id': 'burger', 'src': '/static/foodstim60/burger.jpg', 'key': 'i', 'origWidth': 409, 'origHeight': 409, 'width': 409, 'height': 409, 'widthPercent': 0.45, 'rescaleHeight': False, 'trialN': 57, 'loaded': True, 'loadedTime': 7194.600000023842, 'positionName': 'RIGHT', 'positionCoords': [710.32, 179.5], 'bid': 8.22}]",69267.10000002384,1669830719546,eggsalad,burger,8.32,8.22,-0.09999999999999964,burger,119.79999995231628,121,120.89999997615814,True,i,69895.20000004768,628.1000000238419,1669830720174,628,HRV,HRV_0079,2022-11-30 17:53:31
58,"[{'imgObject': {}, 'id': 'mango', 'src': '/static/foodstim60/mango.jpg', 'key': 'u', 'origWidth': 411, 'origHeight': 411, 'width': 411, 'height': 411, 'widthPercent': 0.45, 'rescaleHeight': False, 'trialN': 58, 'loaded': True, 'loadedTime': 7030.300000071526, 'positionName': 'LEFT', 'positionCoords': [244.68, 178.5], 'bid': 4.23}, {'imgObject': {}, 'id': 'rigatoni', 'src': '/static/foodstim60/rigatoni.jpg', 'key': 'i', 'origWidth': 411, 'origHeight': 411, 'width': 411, 'height': 411, 'widthPercent': 0.45, 'rescaleHeight': False, 'trialN': 58, 'loaded': True, 'loadedTime': 7051, 'positionName': 'RIGHT', 'positionCoords': [710.32, 178.5], 'bid': 2.36}]",69895.60000002384,1669830720174,mango,rigatoni,4.23,2.36,-1.8700000000000006,mango,158.10000002384186,159,159.0,True,u,70559.30000007153,663.7000000476837,1669830720838,664,HRV,HRV_0079,2022-11-30 17:53:31
59,"[{'imgObject': {}, 'id': 'cherries', 'src': '/static/foodstim60/cherries.jpg', 'key': 'u', 'origWidth': 410, 'origHeight': 411, 'width': 410, 'height': 411, 'widthPercent': 0.45, 'rescaleHeight': False, 'trialN': 59, 'loaded': True, 'loadedTime': 6708.600000023842, 'positionName': 'LEFT', 'positionCoords': [245.68, 178.5], 'bid': 7.0200000000000005}, {'imgObject': {}, 'id': 'yogurt no spoon', 'src': '/static/foodstim60/yogurt no spoon.jpg', 'key': 'i', 'origWidth': 411, 'origHeight': 410, 'width': 411, 'height': 410, 'widthPercent': 0.45, 'rescaleHeight': False, 'trialN': 59, 'loaded': True, 'loadedTime': 6892.800000071526, 'positionName': 'RIGHT', 'positionCoords': [710.32, 179], 'bid': 3.16}]",70559.70000004768,1669830720838,cherries,yogurt no spoon,7.0200000000000005,3.16,-3.8600000000000003,yogurt no spoon,17.799999952316284,19,18.299999952316284,True,i,71096.30000007153,536.6000000238419,1669830721375,537,HRV,HRV_0079,2022-11-30 17:53:31
60,"[{'imgObject': {}, 'id': 'strawberries', 'src': '/static/foodstim60/strawberries.jpg', 'key': 'u', 'origWidth': 410, 'origHeight': 410, 'width': 410, 'height': 410, 'widthPercent': 0.45, 'rescaleHeight': False, 'trialN': 60, 'loaded': True, 'loadedTime': 6183.899999976158, 'positionName': 'LEFT', 'positionCoords': [245.68, 179], 'bid': 5.24}, {'imgObject': {}, 'id': 'salmon', 'src': '/static/foodstim60/salmon.jpg', 'key': 'i', 'origWidth': 410, 'origHeight': 409, 'width': 410, 'height': 409, 'widthPercent': 0.45, 'rescaleHeight': False, 'trialN': 60, 'loaded': True, 'loadedTime': 7115.600000023842, 'positionName': 'RIGHT', 'positionCoords': [710.32, 179.5], 'bid': 7.13}]",71096.60000002384,1669830721375,strawberries,salmon,5.24,7.13,1.8899999999999997,strawberries,46.5,48,47.39999997615814,True,u,71663.30000007153,566.7000000476837,1669830721942,567,HRV,HRV_0079,2022-11-30 17:53:31
61,"[{'imgObject': {}, 'id': 'turkeysandwich', 'src': '/static/foodstim60/turkeysandwich.jpg', 'key': 'u', 'origWidth': 409, 'origHeight': 409, 'width': 409, 'height': 409, 'widthPercent': 0.45, 'rescaleHeight': False, 'trialN': 61, 'loaded': True, 'loadedTime': 7132.399999976158, 'positionName': 'LEFT', 'positionCoords': [246.68, 179.5], 'bid': 2.73}, {'imgObject': {}, 'id': 'granola w milk', 'src': '/static/foodstim60/granola w milk.jpg', 'key': 'i', 'origWidth': 410, 'origHeight': 410, 'width': 410, 'height': 410, 'widthPercent': 0.45, 'rescaleHeight': False, 'trialN': 61, 'loaded': True, 'loadedTime': 6868.100000023842, 'positionName': 'RIGHT', 'positionCoords': [710.32, 179], 'bid': 2.8000000000000003}]",71664.10000002384,1669830721943,turkeysandwich,granola w milk,2.73,2.8000000000000003,0.07000000000000028,granola w milk,29.5,30,30.399999976158142,True,i,72195.39999997616,531.2999999523163,1669830722474,531,HRV,HRV_0079,2022-11-30 17:53:31
62,"[{'imgObject': {}, 'id': 'froot loops w milk', 'src': '/static/foodstim60/froot loops w milk.jpg', 'key': 'u', 'origWidth': 410, 'origHeight': 410, 'width': 410, 'height': 410, 'widthPercent': 0.45, 'rescaleHeight': False, 'trialN': 62, 'loaded': True, 'loadedTime': 7147.600000023842, 'positionName': 'LEFT', 'positionCoords': [245.68, 179], 'bid': 2.26}, {'imgObject': {}, 'id': 'sushi w_condiments', 'src': '/static/foodstim60/sushi w_condiments.jpg', 'key': 'i', 'origWidth': 410, 'origHeight': 410, 'width': 410, 'height': 410, 'widthPercent': 0.45, 'rescaleHeight': False, 'trialN': 62, 'loaded': True, 'loadedTime': 7053.600000023842, 'positionName': 'RIGHT', 'positionCoords': [710.32, 179], 'bid': 3.33}]",72195.89999997616,1669830722475,froot loops w milk,sushi w_condiments,2.26,3.33,1.0700000000000003,froot loops w milk,12.900000095367432,14,14.200000047683716,True,u,72728.10000002384,532.2000000476837,1669830723007,532,HRV,HRV_0079,2022-11-30 17:53:31
63,"[{'imgObject': {}, 'id': 'salad w chicken', 'src': '/static/foodstim60/salad w chicken.jpg', 'key': 'u', 'origWidth': 411, 'origHeight': 411, 'width': 411, 'height': 411, 'widthPercent': 0.45, 'rescaleHeight': False, 'trialN': 63, 'loaded': True, 'loadedTime': 6430.100000023842, 'positionName': 'LEFT', 'positionCoords': [244.68, 178.5], 'bid': 4.54}, {'imgObject': {}, 'id': 'sweetpotato', 'src': '/static/foodstim60/sweetpotato.jpg', 'key': 'i', 'origWidth': 410, 'origHeight': 410, 'width': 410, 'height': 410, 'widthPercent': 0.45, 'rescaleHeight': False, 'trialN': 63, 'loaded': True, 'loadedTime': 6815.100000023842, 'positionName': 'RIGHT', 'positionCoords': [710.32, 179], 'bid': 8.950000000000001}]",72729.0,1669830723008,salad w chicken,sweetpotato,4.54,8.950000000000001,4.410000000000001,sweetpotato,41.5,43,43.0,True,i,73281.0,552.0,1669830723560,552,HRV,HRV_0079,2022-11-30 17:53:31
64,"[{'imgObject': {}, 'id': 'cherry tomato', 'src': '/static/foodstim60/cherry tomato.jpg', 'key': 'u', 'origWidth': 410, 'origHeight': 410, 'width': 410, 'height': 410, 'widthPercent': 0.45, 'rescaleHeight': False, 'trialN': 64, 'loaded': True, 'loadedTime': 7201.800000071526, 'positionName': 'LEFT', 'positionCoords': [245.68, 179], 'bid': 6.68}, {'imgObject': {}, 'id': 'Grapes', 'src': '/static/foodstim60/Grapes.jpg', 'key': 'i', 'origWidth': 411, 'origHeight': 411, 'width': 411, 'height': 411, 'widthPercent': 0.45, 'rescaleHeight': False, 'trialN': 64, 'loaded': True, 'loadedTime': 6910, 'positionName': 'RIGHT', 'positionCoords': [710.32, 178.5], 'bid': 6.9}]",73281.30000007153,1669830723560,cherry tomato,Grapes,6.68,6.9,0.22000000000000064,cherry tomato,64.29999995231628,81,81.5,True,u,73874.10000002384,592.7999999523163,1669830724153,593,HRV,HRV_0079,2022-11-30 17:53:31
65,"[{'imgObject': {}, 'id': 'burger', 'src': '/static/foodstim60/burger.jpg', 'key': 'u', 'origWidth': 409, 'origHeight': 409, 'width': 409, 'height': 409, 'widthPercent': 0.45, 'rescaleHeight': False, 'trialN': 65, 'loaded': True, 'loadedTime': 7195, 'positionName': 'LEFT', 'positionCoords': [246.68, 179.5], 'bid': 8.22}, {'imgObject': {}, 'id': 'grilled chicken strips', 'src': '/static/foodstim60/grilled chicken strips.jpg', 'key': 'i', 'origWidth': 410, 'origHeight': 411, 'width': 410, 'height': 411, 'widthPercent': 0.45, 'rescaleHeight': False, 'trialN': 65, 'loaded': True, 'loadedTime': 7207, 'positionName': 'RIGHT', 'positionCoords': [710.32, 178.5], 'bid': 5.89}]",73874.5,1669830724153,burger,grilled chicken strips,8.22,5.89,-2.330000000000001,grilled chicken strips,40.700000047683716,42,41.800000071525574,True,i,74430.60000002384,556.1000000238419,1669830724709,556,HRV,HRV_0079,2022-11-30 17:53:31
66,"[{'imgObject': {}, 'id': 'fried eggs', 'src': '/static/foodstim60/fried eggs.jpg', 'key': 'u', 'origWidth': 410, 'origHeight': 410, 'width': 410, 'height': 410, 'widthPercent': 0.45, 'rescaleHeight': False, 'trialN': 66, 'loaded': True, 'loadedTime': 7124.5, 'positionName': 'LEFT', 'positionCoords': [245.68, 179], 'bid': 5.65}, {'imgObject': {}, 'id': 'Tribe humus pita', 'src': '/static/foodstim60/Tribe humus pita.jpg', 'key': 'i', 'origWidth': 411, 'origHeight': 411, 'width': 411, 'height': 411, 'widthPercent': 0.45, 'rescaleHeight': False, 'trialN': 66, 'loaded': True, 'loadedTime': 7118.200000047684, 'positionName': 'RIGHT', 'positionCoords': [710.32, 178.5], 'bid': 7.4}]",74431.10000002384,1669830724710,fried eggs,Tribe humus pita,5.65,7.4,1.75,fried eggs,151.5,152,152.39999997615814,True,u,75100.60000002384,669.5,1669830725379,669,HRV,HRV_0079,2022-11-30 17:53:31
67,"[{'imgObject': {}, 'id': 'blackbeanswithrice', 'src': '/static/foodstim60/blackbeanswithrice.jpg', 'key': 'u', 'origWidth': 410, 'origHeight': 410, 'width': 410, 'height': 410, 'widthPercent': 0.45, 'rescaleHeight': False, 'trialN': 67, 'loaded': True, 'loadedTime': 6744.700000047684, 'positionName': 'LEFT', 'positionCoords': [245.68, 179], 'bid': 5.04}, {'imgObject': {}, 'id': 'fruitsalad', 'src': '/static/foodstim60/fruitsalad.jpg', 'key': 'i', 'origWidth': 410, 'origHeight': 410, 'width': 410, 'height': 410, 'widthPercent': 0.45, 'rescaleHeight': False, 'trialN': 67, 'loaded': True, 'loadedTime': 6600.800000071526, 'positionName': 'RIGHT', 'positionCoords': [710.32, 179], 'bid': 4.26}]",75101.10000002384,1669830725380,blackbeanswithrice,fruitsalad,5.04,4.26,-0.7800000000000002,fruitsalad,14.5,15,15.100000023841858,True,i,75627.89999997616,526.7999999523163,1669830725907,527,HRV,HRV_0079,2022-11-30 17:53:31
68,"[{'imgObject': {}, 'id': 'corn cob', 'src': '/static/foodstim60/corn cob.jpg', 'key': 'u', 'origWidth': 411, 'origHeight': 411, 'width': 411, 'height': 411, 'widthPercent': 0.45, 'rescaleHeight': False, 'trialN': 68, 'loaded': True, 'loadedTime': 6683.600000023842, 'positionName': 'LEFT', 'positionCoords': [244.68, 178.5], 'bid': 6.66}, {'imgObject': {}, 'id': 'apple slices', 'src': '/static/foodstim60/apple slices.jpg', 'key': 'i', 'origWidth': 409, 'origHeight': 410, 'width': 409, 'height': 410, 'widthPercent': 0.45, 'rescaleHeight': False, 'trialN': 68, 'loaded': True, 'loadedTime': 6703.5, 'positionName': 'RIGHT', 'positionCoords': [710.32, 179], 'bid': 6.46}]",75628.60000002384,1669830725907,corn cob,apple slices,6.66,6.46,-0.20000000000000018,apple slices,240.29999995231628,242,241.60000002384186,True,i,76380.89999997616,752.2999999523163,1669830726660,753,HRV,HRV_0079,2022-11-30 17:53:31
69,"[{'imgObject': {}, 'id': 'mango', 'src': '/static/foodstim60/mango.jpg', 'key': 'u', 'origWidth': 411, 'origHeight': 411, 'width': 411, 'height': 411, 'widthPercent': 0.45, 'rescaleHeight': False, 'trialN': 69, 'loaded': True, 'loadedTime': 7035.100000023842, 'positionName': 'LEFT', 'positionCoords': [244.68, 178.5], 'bid': 4.23}, {'imgObject': {}, 'id': 'turkey sandwich', 'src': '/static/foodstim60/turkey sandwich.jpg', 'key': 'i', 'origWidth': 409, 'origHeight': 409, 'width': 409, 'height': 409, 'widthPercent': 0.45, 'rescaleHeight': False, 'trialN': 69, 'loaded': True, 'loadedTime': 7212.5, 'positionName': 'RIGHT', 'positionCoords': [710.32, 179.5], 'bid': 4.98}]",76381.10000002384,1669830726660,mango,turkey sandwich,4.23,4.98,0.75,mango,68.89999997615814,69,69.60000002384186,True,u,76963.89999997616,582.7999999523163,1669830727243,583,HRV,HRV_0079,2022-11-30 17:53:31
70,"[{'imgObject': {}, 'id': 'blackbeanswithrice', 'src': '/static/foodstim60/blackbeanswithrice.jpg', 'key': 'u', 'origWidth': 410, 'origHeight': 410, 'width': 410, 'height': 410, 'widthPercent': 0.45, 'rescaleHeight': False, 'trialN': 70, 'loaded': True, 'loadedTime': 6745.100000023842, 'positionName': 'LEFT', 'positionCoords': [245.68, 179], 'bid': 5.04}, {'imgObject': {}, 'id': 'baked potato', 'src': '/static/foodstim60/baked potato.jpg', 'key': 'i', 'origWidth': 409, 'origHeight': 410, 'width': 409, 'height': 410, 'widthPercent': 0.45, 'rescaleHeight': False, 'trialN': 70, 'loaded': True, 'loadedTime': 6220, 'positionName': 'RIGHT', 'positionCoords': [710.32, 179], 'bid': 3.74}]",76965.20000004768,1669830727244,blackbeanswithrice,baked potato,5.04,3.74,-1.2999999999999998,baked potato,70.79999995231628,71,71.5,True,i,77546.70000004768,581.5,1669830727825,581,HRV,HRV_0079,2022-11-30 17:53:31
71,"[{'imgObject': {}, 'id': 'olives', 'src': '/static/foodstim60/olives.jpg', 'key': 'u', 'origWidth': 410, 'origHeight': 410, 'width': 410, 'height': 410, 'widthPercent': 0.45, 'rescaleHeight': False, 'trialN': 71, 'loaded': True, 'loadedTime': 7151.800000071526, 'positionName': 'LEFT', 'positionCoords': [245.68, 179], 'bid': 7.04}, {'imgObject': {}, 'id': 'sushi w_condiments', 'src': '/static/foodstim60/sushi w_condiments.jpg', 'key': 'i', 'origWidth': 410, 'origHeight': 410, 'width': 410, 'height': 410, 'widthPercent': 0.45, 'rescaleHeight': False, 'trialN': 71, 'loaded': True, 'loadedTime': 7057.800000071526, 'positionName': 'RIGHT', 'positionCoords': [710.32, 179], 'bid': 3.33}]",77547.60000002384,1669830727826,olives,sushi w_condiments,7.04,3.33,-3.71,olives,207.60000002384186,209,208.70000004768372,True,u,78264.0,716.3999999761581,1669830728543,717,HRV,HRV_0079,2022-11-30 17:53:31
72,"[{'imgObject': {}, 'id': 'banana', 'src': '/static/foodstim60/banana.jpg', 'key': 'u', 'origWidth': 410, 'origHeight': 410, 'width': 410, 'height': 410, 'widthPercent': 0.45, 'rescaleHeight': False, 'trialN': 72, 'loaded': True, 'loadedTime': 6582.600000023842, 'positionName': 'LEFT', 'positionCoords': [245.68, 179], 'bid': 7.75}, {'imgObject': {}, 'id': 'sweetpotato', 'src': '/static/foodstim60/sweetpotato.jpg', 'key': 'i', 'origWidth': 410, 'origHeight': 410, 'width': 410, 'height': 410, 'widthPercent': 0.45, 'rescaleHeight': False, 'trialN': 72, 'loaded': True, 'loadedTime': 6819.600000023842, 'positionName': 'RIGHT', 'positionCoords': [710.32, 179], 'bid': 8.950000000000001}]",78264.5,1669830728543,banana,sweetpotato,7.75,8.950000000000001,1.200000000000001,sweetpotato,106.70000004768372,107,107.30000007152557,True,i,78881.30000007153,616.8000000715256,1669830729160,617,HRV,HRV_0079,2022-11-30 17:53:31
73,"[{'imgObject': {}, 'id': 'granola w milk', 'src': '/static/foodstim60/granola w milk.jpg', 'key': 'u', 'origWidth': 410, 'origHeight': 410, 'width': 410, 'height': 410, 'widthPercent': 0.45, 'rescaleHeight': False, 'trialN': 73, 'loaded': True, 'loadedTime': 6860, 'positionName': 'LEFT', 'positionCoords': [245.68, 179], 'bid': 2.8000000000000003}, {'imgObject': {}, 'id': 'orange slices', 'src': '/static/foodstim60/orange slices.jpg', 'key': 'i', 'origWidth': 409, 'origHeight': 410, 'width': 409, 'height': 410, 'widthPercent': 0.45, 'rescaleHeight': False, 'trialN': 73, 'loaded': True, 'loadedTime': 6411.800000071526, 'positionName': 'RIGHT', 'positionCoords': [710.32, 179], 'bid': 4.53}]",78882.10000002384,1669830729161,granola w milk,orange slices,2.8000000000000003,4.53,1.73,orange slices,145.29999995231628,147,146.79999995231628,True,i,79545.30000007153,663.2000000476837,1669830729824,663,HRV,HRV_0079,2022-11-30 17:53:31
74,"[{'imgObject': {}, 'id': 'corn cob', 'src': '/static/foodstim60/corn cob.jpg', 'key': 'u', 'origWidth': 411, 'origHeight': 411, 'width': 411, 'height': 411, 'widthPercent': 0.45, 'rescaleHeight': False, 'trialN': 74, 'loaded': True, 'loadedTime': 6683, 'positionName': 'LEFT', 'positionCoords': [244.68, 178.5], 'bid': 6.66}, {'imgObject': {}, 'id': 'fried eggs', 'src': '/static/foodstim60/fried eggs.jpg', 'key': 'i', 'origWidth': 410, 'origHeight': 410, 'width': 410, 'height': 410, 'widthPercent': 0.45, 'rescaleHeight': False, 'trialN': 74, 'loaded': True, 'loadedTime': 7123.899999976158, 'positionName': 'RIGHT', 'positionCoords': [710.32, 179], 'bid': 5.65}]",79545.80000007153,1669830729825,corn cob,fried eggs,6.66,5.65,-1.0099999999999998,fried eggs,137.79999995231628,138,138.79999995231628,True,i,80198.10000002384,652.2999999523163,1669830730477,652,HRV,HRV_0079,2022-11-30 17:53:31
75,"[{'imgObject': {}, 'id': 'eggsalad', 'src': '/static/foodstim60/eggsalad.jpg', 'key': 'u', 'origWidth': 410, 'origHeight': 409, 'width': 410, 'height': 409, 'widthPercent': 0.45, 'rescaleHeight': False, 'trialN': 75, 'loaded': True, 'loadedTime': 7111.399999976158, 'positionName': 'LEFT', 'positionCoords': [245.68, 179.5], 'bid': 8.32}, {'imgObject': {}, 'id': 'mango', 'src': '/static/foodstim60/mango.jpg', 'key': 'i', 'origWidth': 411, 'origHeight': 411, 'width': 411, 'height': 411, 'widthPercent': 0.45, 'rescaleHeight': False, 'trialN': 75, 'loaded': True, 'loadedTime': 7034.200000047684, 'positionName': 'RIGHT', 'positionCoords': [710.32, 178.5], 'bid': 4.23}]",80198.5,1669830730477,eggsalad,mango,8.32,4.23,-4.09,eggsalad,15,372,371.5,True,u,81090.70000004768,892.2000000476837,1669830731369,892,HRV,HRV_0079,2022-11-30 17:53:31
76,"[{'imgObject': {}, 'id': 'lox', 'src': '/static/foodstim60/lox.jpg', 'key': 'u', 'origWidth': 410, 'origHeight': 411, 'width': 410, 'height': 411, 'widthPercent': 0.45, 'rescaleHeight': False, 'trialN': 76, 'loaded': True, 'loadedTime': 7217.600000023842, 'positionName': 'LEFT', 'positionCoords': [245.68, 178.5], 'bid': 1.25}, {'imgObject': {}, 'id': 'chickenfingers', 'src': '/static/foodstim60/chickenfingers.jpg', 'key': 'i', 'origWidth': 410, 'origHeight': 410, 'width': 410, 'height': 410, 'widthPercent': 0.45, 'rescaleHeight': False, 'trialN': 76, 'loaded': True, 'loadedTime': 7241.5, 'positionName': 'RIGHT', 'positionCoords': [710.32, 179], 'bid': 0.02}]",81091.10000002384,1669830731370,lox,chickenfingers,1.25,0.02,-1.23,lox,242.70000004768372,243,243.39999997615814,True,u,81845.89999997616,754.7999999523163,1669830732125,755,HRV,HRV_0079,2022-11-30 17:53:31
77,"[{'imgObject': {}, 'id': 'chickenfingers', 'src': '/static/foodstim60/chickenfingers.jpg', 'key': 'u', 'origWidth': 410, 'origHeight': 410, 'width': 410, 'height': 410, 'widthPercent': 0.45, 'rescaleHeight': False, 'trialN': 77, 'loaded': True, 'loadedTime': 7241.800000071526, 'positionName': 'LEFT', 'positionCoords': [245.68, 179], 'bid': 0.02}, {'imgObject': {}, 'id': 'rigatoni and sauce', 'src': '/static/foodstim60/rigatoni and sauce.jpg', 'key': 'i', 'origWidth': 410, 'origHeight': 411, 'width': 410, 'height': 411, 'widthPercent': 0.45, 'rescaleHeight': False, 'trialN': 77, 'loaded': True, 'loadedTime': 6956.100000023842, 'positionName': 'RIGHT', 'positionCoords': [710.32, 178.5], 'bid': 4.95}]",81846.5,1669830732125,chickenfingers,rigatoni and sauce,0.02,4.95,4.930000000000001,rigatoni and sauce,153.20000004768372,155,154.80000007152557,True,i,82512.39999997616,665.8999999761581,1669830732791,666,HRV,HRV_0079,2022-11-30 17:53:31
78,"[{'imgObject': {}, 'id': 'bagel plain', 'src': '/static/foodstim60/bagel plain.jpg', 'key': 'u', 'origWidth': 410, 'origHeight': 410, 'width': 410, 'height': 410, 'widthPercent': 0.45, 'rescaleHeight': False, 'trialN': 78, 'loaded': True, 'loadedTime': 6748.700000047684, 'positionName': 'LEFT', 'positionCoords': [245.68, 179], 'bid': 8.32}, {'imgObject': {}, 'id': 'Grapes', 'src': '/static/foodstim60/Grapes.jpg', 'key': 'i', 'origWidth': 411, 'origHeight': 411, 'width': 411, 'height': 411, 'widthPercent': 0.45, 'rescaleHeight': False, 'trialN': 78, 'loaded': True, 'loadedTime': 6908.399999976158, 'positionName': 'RIGHT', 'positionCoords': [710.32, 178.5], 'bid': 6.9}]",82512.80000007153,1669830732792,bagel plain,Grapes,8.32,6.9,-1.42,bagel plain,177.39999997615814,178,178.5,True,u,83197.39999997616,684.5999999046326,1669830733476,684,HRV,HRV_0079,2022-11-30 17:53:31
79,"[{'imgObject': {}, 'id': 'edamame', 'src': '/static/foodstim60/edamame.jpg', 'key': 'u', 'origWidth': 409, 'origHeight': 410, 'width': 409, 'height': 410, 'widthPercent': 0.45, 'rescaleHeight': False, 'trialN': 79, 'loaded': True, 'loadedTime': 6810.5, 'positionName': 'LEFT', 'positionCoords': [246.68, 179], 'bid': 2.29}, {'imgObject': {}, 'id': 'grilled chicken strips', 'src': '/static/foodstim60/grilled chicken strips.jpg', 'key': 'i', 'origWidth': 410, 'origHeight': 411, 'width': 410, 'height': 411, 'widthPercent': 0.45, 'rescaleHeight': False, 'trialN': 79, 'loaded': True, 'loadedTime': 7206.600000023842, 'positionName': 'RIGHT', 'positionCoords': [710.32, 178.5], 'bid': 5.89}]",83197.80000007153,1669830733477,edamame,grilled chicken strips,2.29,5.89,3.5999999999999996,grilled chicken strips,97.69999992847443,98,98.29999995231628,True,i,83811.20000004768,613.3999999761581,1669830734090,613,HRV,HRV_0079,2022-11-30 17:53:31
80,"[{'imgObject': {}, 'id': 'pear', 'src': '/static/foodstim60/pear.jpg', 'key': 'u', 'origWidth': 411, 'origHeight': 410, 'width': 411, 'height': 410, 'widthPercent': 0.45, 'rescaleHeight': False, 'trialN': 80, 'loaded': True, 'loadedTime': 6191.700000047684, 'positionName': 'LEFT', 'positionCoords': [244.68, 179], 'bid': 1.76}, {'imgObject': {}, 'id': 'popsicles', 'src': '/static/foodstim60/popsicles.jpg', 'key': 'i', 'origWidth': 410, 'origHeight': 410, 'width': 410, 'height': 410, 'widthPercent': 0.45, 'rescaleHeight': False, 'trialN': 80, 'loaded': True, 'loadedTime': 7088.200000047684, 'positionName': 'RIGHT', 'positionCoords': [710.32, 179], 'bid': 2.92}]",83812.10000002384,1669830734091,pear,popsicles,1.76,2.92,1.16,pear,101.70000004768372,102,102.29999995231628,True,u,84427.70000004768,615.6000000238419,1669830734706,615,HRV,HRV_0079,2022-11-30 17:53:31
81,"[{'imgObject': {}, 'id': 'mac & cheese', 'src': '/static/foodstim60/mac & cheese.jpg', 'key': 'u', 'origWidth': 410, 'origHeight': 410, 'width': 410, 'height': 410, 'widthPercent': 0.45, 'rescaleHeight': False, 'trialN': 81, 'loaded': True, 'loadedTime': 6632.899999976158, 'positionName': 'LEFT', 'positionCoords': [245.68, 179], 'bid': 5.99}, {'imgObject': {}, 'id': 'cantaloupe', 'src': '/static/foodstim60/cantaloupe.jpg', 'key': 'i', 'origWidth': 409, 'origHeight': 409, 'width': 409, 'height': 409, 'widthPercent': 0.45, 'rescaleHeight': False, 'trialN': 81, 'loaded': True, 'loadedTime': 6269.100000023842, 'positionName': 'RIGHT', 'positionCoords': [710.32, 179.5], 'bid': 7.29}]",84428.10000002384,1669830734707,mac & cheese,cantaloupe,5.99,7.29,1.2999999999999998,cantaloupe,70.29999995231628,239,239.20000004768372,True,i,85214.80000007153,786.7000000476837,1669830735494,787,HRV,HRV_0079,2022-11-30 17:53:31
82,"[{'imgObject': {}, 'id': 'raspberries', 'src': '/static/foodstim60/raspberries.jpg', 'key': 'u', 'origWidth': 411, 'origHeight': 411, 'width': 411, 'height': 411, 'widthPercent': 0.45, 'rescaleHeight': False, 'trialN': 82, 'loaded': True, 'loadedTime': 6973.200000047684, 'positionName': 'LEFT', 'positionCoords': [244.68, 178.5], 'bid': 3.08}, {'imgObject': {}, 'id': 'Grapes', 'src': '/static/foodstim60/Grapes.jpg', 'key': 'i', 'origWidth': 411, 'origHeight': 411, 'width': 411, 'height': 411, 'widthPercent': 0.45, 'rescaleHeight': False, 'trialN': 82, 'loaded': True, 'loadedTime': 6909.300000071526, 'positionName': 'RIGHT', 'positionCoords': [710.32, 178.5], 'bid': 6.9}]",85215.20000004768,1669830735494,raspberries,Grapes,3.08,6.9,3.8200000000000003,Grapes,90,91,91.10000002384186,True,i,85812.20000004768,597.0,1669830736091,597,HRV,HRV_0079,2022-11-30 17:53:31
83,"[{'imgObject': {}, 'id': 'omelette', 'src': '/static/foodstim60/omelette.jpg', 'key': 'u', 'origWidth': 410, 'origHeight': 409, 'width': 410, 'height': 409, 'widthPercent': 0.45, 'rescaleHeight': False, 'trialN': 83, 'loaded': True, 'loadedTime': 6227.5, 'positionName': 'LEFT', 'positionCoords': [245.68, 179.5], 'bid': 3.75}, {'imgObject': {}, 'id': 'eggs', 'src': '/static/foodstim60/eggs.jpg', 'key': 'i', 'origWidth': 409, 'origHeight': 409, 'width': 409, 'height': 409, 'widthPercent': 0.45, 'rescaleHeight': False, 'trialN': 83, 'loaded': True, 'loadedTime': 6962.100000023842, 'positionName': 'RIGHT', 'positionCoords': [710.32, 179.5], 'bid': 5.23}]",85813.10000002384,1669830736092,omelette,eggs,3.75,5.23,1.4800000000000004,omelette,134.10000002384186,135,135.60000002384186,True,u,86463.20000004768,650.1000000238419,1669830736742,650,HRV,HRV_0079,2022-11-30 17:53:31
84,"[{'imgObject': {}, 'id': 'seaweed', 'src': '/static/foodstim60/seaweed.jpg', 'key': 'u', 'origWidth': 410, 'origHeight': 410, 'width': 410, 'height': 410, 'widthPercent': 0.45, 'rescaleHeight': False, 'trialN': 84, 'loaded': True, 'loadedTime': 7156.200000047684, 'positionName': 'LEFT', 'positionCoords': [245.68, 179], 'bid': 3.72}, {'imgObject': {}, 'id': 'hashbrowns', 'src': '/static/foodstim60/hashbrowns.jpg', 'key': 'i', 'origWidth': 411, 'origHeight': 410, 'width': 411, 'height': 410, 'widthPercent': 0.45, 'rescaleHeight': False, 'trialN': 84, 'loaded': True, 'loadedTime': 7246.5, 'positionName': 'RIGHT', 'positionCoords': [710.32, 179], 'bid': 3.72}]",86463.39999997616,1669830736742,seaweed,hashbrowns,3.72,3.72,0.0,hashbrowns,56.10000002384186,267,266.8000000715256,True,i,87320.30000007153,856.9000000953674,1669830737599,857,HRV,HRV_0079,2022-11-30 17:53:31
85,"[{'imgObject': {}, 'id': 'grilled chicken strips', 'src': '/static/foodstim60/grilled chicken strips.jpg', 'key': 'u', 'origWidth': 410, 'origHeight': 411, 'width': 410, 'height': 411, 'widthPercent': 0.45, 'rescaleHeight': False, 'trialN': 85, 'loaded': True, 'loadedTime': 7206.399999976158, 'positionName': 'LEFT', 'positionCoords': [245.68, 178.5], 'bid': 5.89}, {'imgObject': {}, 'id': 'shreddedwheatwithmilk', 'src': '/static/foodstim60/shreddedwheatwithmilk.jpg', 'key': 'i', 'origWidth': 410, 'origHeight': 410, 'width': 410, 'height': 410, 'widthPercent': 0.45, 'rescaleHeight': False, 'trialN': 85, 'loaded': True, 'loadedTime': 6911.700000047684, 'positionName': 'RIGHT', 'positionCoords': [710.32, 179], 'bid': 6.7700000000000005}]",87320.39999997616,1669830737599,grilled chicken strips,shreddedwheatwithmilk,5.89,6.7700000000000005,0.8800000000000008,grilled chicken strips,182.40000009536743,443,443.3000000715256,True,u,88266.89999997616,946.5,1669830738546,947,HRV,HRV_0079,2022-11-30 17:53:31
86,"[{'imgObject': {}, 'id': 'Tribe humus pita', 'src': '/static/foodstim60/Tribe humus pita.jpg', 'key': 'u', 'origWidth': 411, 'origHeight': 411, 'width': 411, 'height': 411, 'widthPercent': 0.45, 'rescaleHeight': False, 'trialN': 86, 'loaded': True, 'loadedTime': 7115.899999976158, 'positionName': 'LEFT', 'positionCoords': [244.68, 178.5], 'bid': 7.4}, {'imgObject': {}, 'id': 'apple slices', 'src': '/static/foodstim60/apple slices.jpg', 'key': 'i', 'origWidth': 409, 'origHeight': 410, 'width': 409, 'height': 410, 'widthPercent': 0.45, 'rescaleHeight': False, 'trialN': 86, 'loaded': True, 'loadedTime': 6704.600000023842, 'positionName': 'RIGHT', 'positionCoords': [710.32, 179], 'bid': 6.46}]",88267.30000007153,1669830738546,Tribe humus pita,apple slices,7.4,6.46,-0.9400000000000004,apple slices,212,463,463.09999990463257,True,i,89247.5,980.1999999284744,1669830739526,980,HRV,HRV_0079,2022-11-30 17:53:31
87,"[{'imgObject': {}, 'id': 'eggsalad', 'src': '/static/foodstim60/eggsalad.jpg', 'key': 'u', 'origWidth': 410, 'origHeight': 409, 'width': 410, 'height': 409, 'widthPercent': 0.45, 'rescaleHeight': False, 'trialN': 87, 'loaded': True, 'loadedTime': 7112, 'positionName': 'LEFT', 'positionCoords': [245.68, 179.5], 'bid': 8.32}, {'imgObject': {}, 'id': 'shreddedwheatwithmilk', 'src': '/static/foodstim60/shreddedwheatwithmilk.jpg', 'key': 'i', 'origWidth': 410, 'origHeight': 410, 'width': 410, 'height': 410, 'widthPercent': 0.45, 'rescaleHeight': False, 'trialN': 87, 'loaded': True, 'loadedTime': 6916.200000047684, 'positionName': 'RIGHT', 'positionCoords': [710.32, 179], 'bid': 6.7700000000000005}]",89248.10000002384,1669830739527,eggsalad,shreddedwheatwithmilk,8.32,6.7700000000000005,-1.5499999999999998,shreddedwheatwithmilk,318.89999997615814,320,319.7000000476837,True,i,90089.5,841.3999999761581,1669830740368,841,HRV,HRV_0079,2022-11-30 17:53:31
88,"[{'imgObject': {}, 'id': 'hotdog w must', 'src': '/static/foodstim60/hotdog w must.jpg', 'key': 'u', 'origWidth': 409, 'origHeight': 409, 'width': 409, 'height': 409, 'widthPercent': 0.45, 'rescaleHeight': False, 'trialN': 88, 'loaded': True, 'loadedTime': 7189.200000047684, 'positionName': 'LEFT', 'positionCoords': [246.68, 179.5], 'bid': 5.84}, {'imgObject': {}, 'id': 'cherry tomato', 'src': '/static/foodstim60/cherry tomato.jpg', 'key': 'i', 'origWidth': 410, 'origHeight': 410, 'width': 410, 'height': 410, 'widthPercent': 0.45, 'rescaleHeight': False, 'trialN': 88, 'loaded': True, 'loadedTime': 7200.5, 'positionName': 'RIGHT', 'positionCoords': [710.32, 179], 'bid': 6.68}]",90090.20000004768,1669830740369,hotdog w must,cherry tomato,5.84,6.68,0.8399999999999999,hotdog w must,277.7999999523163,278,278.39999997615814,True,u,90877.20000004768,787.0,1669830741156,787,HRV,HRV_0079,2022-11-30 17:53:31
89,"[{'imgObject': {}, 'id': 'mac & cheese', 'src': '/static/foodstim60/mac & cheese.jpg', 'key': 'u', 'origWidth': 410, 'origHeight': 410, 'width': 410, 'height': 410, 'widthPercent': 0.45, 'rescaleHeight': False, 'trialN': 89, 'loaded': True, 'loadedTime': 6635.5, 'positionName': 'LEFT', 'positionCoords': [245.68, 179], 'bid': 5.99}, {'imgObject': {}, 'id': 'cherries', 'src': '/static/foodstim60/cherries.jpg', 'key': 'i', 'origWidth': 410, 'origHeight': 411, 'width': 410, 'height': 411, 'widthPercent': 0.45, 'rescaleHeight': False, 'trialN': 89, 'loaded': True, 'loadedTime': 6708.5, 'positionName': 'RIGHT', 'positionCoords': [710.32, 178.5], 'bid': 7.0200000000000005}]",90877.60000002384,1669830741156,mac & cheese,cherries,5.99,7.0200000000000005,1.0300000000000002,mac & cheese,308.7999999523163,311,310.39999997615814,True,u,91696.0,818.3999999761581,1669830741975,819,HRV,HRV_0079,2022-11-30 17:53:31
90,"[{'imgObject': {}, 'id': 'tacos', 'src': '/static/foodstim60/tacos.jpg', 'key': 'u', 'origWidth': 411, 'origHeight': 411, 'width': 411, 'height': 411, 'widthPercent': 0.45, 'rescaleHeight': False, 'trialN': 90, 'loaded': True, 'loadedTime': 6214.899999976158, 'positionName': 'LEFT', 'positionCoords': [244.68, 178.5], 'bid': 5.6000000000000005}, {'imgObject': {}, 'id': 'steak', 'src': '/static/foodstim60/steak.jpg', 'key': 'i', 'origWidth': 410, 'origHeight': 410, 'width': 410, 'height': 410, 'widthPercent': 0.45, 'rescaleHeight': False, 'trialN': 90, 'loaded': True, 'loadedTime': 7252.300000071526, 'positionName': 'RIGHT', 'positionCoords': [710.32, 179], 'bid': 1.85}]",94047.20000004768,1669830744326,tacos,steak,5.6000000000000005,1.85,-3.7500000000000004,tacos,1444.5,1446,1445.8999999761581,True,u,95993.89999997616,1946.6999999284744,1669830746273,1947,HRV,HRV_0079,2022-11-30 17:53:31
91,"[{'imgObject': {}, 'id': 'eggsalad', 'src': '/static/foodstim60/eggsalad.jpg', 'key': 'u', 'origWidth': 410, 'origHeight': 409, 'width': 410, 'height': 409, 'widthPercent': 0.45, 'rescaleHeight': False, 'trialN': 91, 'loaded': True, 'loadedTime': 7112.300000071526, 'positionName': 'LEFT', 'positionCoords': [245.68, 179.5], 'bid': 8.32}, {'imgObject': {}, 'id': 'cheerios', 'src': '/static/foodstim60/cheerios.jpg', 'key': 'i', 'origWidth': 409, 'origHeight': 410, 'width': 409, 'height': 410, 'widthPercent': 0.45, 'rescaleHeight': False, 'trialN': 91, 'loaded': True, 'loadedTime': 6646.399999976158, 'positionName': 'RIGHT', 'positionCoords': [710.32, 179], 'bid': 5.9}]",95994.89999997616,1669830746274,eggsalad,cheerios,8.32,5.9,-2.42,cheerios,165.70000004768372,169,169.0,True,i,96676.5,681.6000000238419,1669830746955,681,HRV,HRV_0079,2022-11-30 17:53:31
92,"[{'imgObject': {}, 'id': 'raisin bran w milk', 'src': '/static/foodstim60/raisin bran w milk.jpg', 'key': 'u', 'origWidth': 411, 'origHeight': 411, 'width': 411, 'height': 411, 'widthPercent': 0.45, 'rescaleHeight': False, 'trialN': 92, 'loaded': True, 'loadedTime': 6886.300000071526, 'positionName': 'LEFT', 'positionCoords': [244.68, 178.5], 'bid': 3.44}, {'imgObject': {}, 'id': 'salmon', 'src': '/static/foodstim60/salmon.jpg', 'key': 'i', 'origWidth': 410, 'origHeight': 409, 'width': 410, 'height': 409, 'widthPercent': 0.45, 'rescaleHeight': False, 'trialN': 92, 'loaded': True, 'loadedTime': 7115.200000047684, 'positionName': 'RIGHT', 'positionCoords': [710.32, 179.5], 'bid': 7.13}]",96676.89999997616,1669830746956,raisin bran w milk,salmon,3.44,7.13,3.69,raisin bran w milk,173,173,173.80000007152557,True,u,97367.60000002384,690.7000000476837,1669830747646,690,HRV,HRV_0079,2022-11-30 17:53:31
93,"[{'imgObject': {}, 'id': 'cocktailshrimp', 'src': '/static/foodstim60/cocktailshrimp.jpg', 'key': 'u', 'origWidth': 410, 'origHeight': 410, 'width': 410, 'height': 410, 'widthPercent': 0.45, 'rescaleHeight': False, 'trialN': 93, 'loaded': True, 'loadedTime': 7084.399999976158, 'positionName': 'LEFT', 'positionCoords': [245.68, 179], 'bid': 3.94}, {'imgObject': {}, 'id': 'burger', 'src': '/static/foodstim60/burger.jpg', 'key': 'i', 'origWidth': 409, 'origHeight': 409, 'width': 409, 'height': 409, 'widthPercent': 0.45, 'rescaleHeight': False, 'trialN': 93, 'loaded': True, 'loadedTime': 7194.200000047684, 'positionName': 'RIGHT', 'positionCoords': [710.32, 179.5], 'bid': 8.22}]",97369.60000002384,1669830747648,cocktailshrimp,burger,3.94,8.22,4.280000000000001,burger,39.5,41,40.89999997615814,True,i,97926.70000004768,557.1000000238419,1669830748205,557,HRV,HRV_0079,2022-11-30 17:53:31
94,"[{'imgObject': {}, 'id': 'salad w chicken', 'src': '/static/foodstim60/salad w chicken.jpg', 'key': 'u', 'origWidth': 411, 'origHeight': 411, 'width': 411, 'height': 411, 'widthPercent': 0.45, 'rescaleHeight': False, 'trialN': 94, 'loaded': True, 'loadedTime': 6413.600000023842, 'positionName': 'LEFT', 'positionCoords': [244.68, 178.5], 'bid': 4.54}, {'imgObject': {}, 'id': 'grilled chicken strips', 'src': '/static/foodstim60/grilled chicken strips.jpg', 'key': 'i', 'origWidth': 410, 'origHeight': 411, 'width': 410, 'height': 411, 'widthPercent': 0.45, 'rescaleHeight': False, 'trialN': 94, 'loaded': True, 'loadedTime': 7205.899999976158, 'positionName': 'RIGHT', 'positionCoords': [710.32, 178.5], 'bid': 5.89}]",97927.5,1669830748206,salad w chicken,grilled chicken strips,4.54,5.89,1.3499999999999996,salad w chicken,5.5,8,8.0,True,u,98445.39999997616,517.8999999761581,1669830748724,518,HRV,HRV_0079,2022-11-30 17:53:31
95,"[{'imgObject': {}, 'id': 'seaweed', 'src': '/static/foodstim60/seaweed.jpg', 'key': 'u', 'origWidth': 410, 'origHeight': 410, 'width': 410, 'height': 410, 'widthPercent': 0.45, 'rescaleHeight': False, 'trialN': 95, 'loaded': True, 'loadedTime': 7156, 'positionName': 'LEFT', 'positionCoords': [245.68, 179], 'bid': 3.72}, {'imgObject': {}, 'id': 'popsicles', 'src': '/static/foodstim60/popsicles.jpg', 'key': 'i', 'origWidth': 410, 'origHeight': 410, 'width': 410, 'height': 410, 'widthPercent': 0.45, 'rescaleHeight': False, 'trialN': 95, 'loaded': True, 'loadedTime': 7089.700000047684, 'positionName': 'RIGHT', 'positionCoords': [710.32, 179], 'bid': 2.92}]",98446.5,1669830748725,seaweed,popsicles,3.72,2.92,-0.8000000000000003,popsicles,179.10000002384186,181,180.39999997615814,True,i,99135.0,688.5,1669830749414,689,HRV,HRV_0079,2022-11-30 17:53:31
96,"[{'imgObject': {}, 'id': 'roastedpotatoes', 'src': '/static/foodstim60/roastedpotatoes.jpg', 'key': 'u', 'origWidth': 409, 'origHeight': 410, 'width': 409, 'height': 410, 'widthPercent': 0.45, 'rescaleHeight': False, 'trialN': 96, 'loaded': True, 'loadedTime': 6527.800000071526, 'positionName': 'LEFT', 'positionCoords': [246.68, 179], 'bid': 0.62}, {'imgObject': {}, 'id': 'ice cream sundae 002', 'src': '/static/foodstim60/ice cream sundae 002.jpg', 'key': 'i', 'origWidth': 409, 'origHeight': 409, 'width': 409, 'height': 409, 'widthPercent': 0.45, 'rescaleHeight': False, 'trialN': 96, 'loaded': True, 'loadedTime': 7080.300000071526, 'positionName': 'RIGHT', 'positionCoords': [710.32, 179.5], 'bid': 1.38}]",99135.30000007153,1669830749414,roastedpotatoes,ice cream sundae 002,0.62,1.38,0.7599999999999999,roastedpotatoes,75.29999995231628,77,76.89999997615814,True,u,99727.30000007153,592.0,1669830750006,592,HRV,HRV_0079,2022-11-30 17:53:31
97,"[{'imgObject': {}, 'id': 'seaweed', 'src': '/static/foodstim60/seaweed.jpg', 'key': 'u', 'origWidth': 410, 'origHeight': 410, 'width': 410, 'height': 410, 'widthPercent': 0.45, 'rescaleHeight': False, 'trialN': 97, 'loaded': True, 'loadedTime': 7155.5, 'positionName': 'LEFT', 'positionCoords': [245.68, 179], 'bid': 3.72}, {'imgObject': {}, 'id': 'bagel and cc', 'src': '/static/foodstim60/bagel and cc.jpg', 'key': 'i', 'origWidth': 410, 'origHeight': 410, 'width': 410, 'height': 410, 'widthPercent': 0.45, 'rescaleHeight': False, 'trialN': 97, 'loaded': True, 'loadedTime': 6783.399999976158, 'positionName': 'RIGHT', 'positionCoords': [710.32, 179], 'bid': 7.15}]",99727.70000004768,1669830750007,seaweed,bagel and cc,3.72,7.15,3.43,bagel and cc,133.69999992847443,393,393.7999999523163,True,i,100629.39999997616,901.6999999284744,1669830750908,901,HRV,HRV_0079,2022-11-30 17:53:31
98,"[{'imgObject': {}, 'id': 'burger', 'src': '/static/foodstim60/burger.jpg', 'key': 'u', 'origWidth': 409, 'origHeight': 409, 'width': 409, 'height': 409, 'widthPercent': 0.45, 'rescaleHeight': False, 'trialN': 98, 'loaded': True, 'loadedTime': 7193, 'positionName': 'LEFT', 'positionCoords': [246.68, 179.5], 'bid': 8.22}, {'imgObject': {}, 'id': 'cherry tomato', 'src': '/static/foodstim60/cherry tomato.jpg', 'key': 'i', 'origWidth': 410, 'origHeight': 410, 'width': 410, 'height': 410, 'widthPercent': 0.45, 'rescaleHeight': False, 'trialN': 98, 'loaded': True, 'loadedTime': 7202, 'positionName': 'RIGHT', 'positionCoords': [710.32, 179], 'bid': 6.68}]",100630.30000007153,1669830750909,burger,cherry tomato,8.22,6.68,-1.540000000000001,burger,425.59999990463257,427,427.2999999523163,True,u,101568.89999997616,938.5999999046326,1669830751848,939,HRV,HRV_0079,2022-11-30 17:53:31
99,"[{'imgObject': {}, 'id': 'lox', 'src': '/static/foodstim60/lox.jpg', 'key': 'u', 'origWidth': 410, 'origHeight': 411, 'width': 410, 'height': 411, 'widthPercent': 0.45, 'rescaleHeight': False, 'trialN': 99, 'loaded': True, 'loadedTime': 7217.399999976158, 'positionName': 'LEFT', 'positionCoords': [245.68, 178.5], 'bid': 1.25}, {'imgObject': {}, 'id': 'yogurt no spoon', 'src': '/static/foodstim60/yogurt no spoon.jpg', 'key': 'i', 'origWidth': 411, 'origHeight': 410, 'width': 411, 'height': 410, 'widthPercent': 0.45, 'rescaleHeight': False, 'trialN': 99, 'loaded': True, 'loadedTime': 6893.5, 'positionName': 'RIGHT', 'positionCoords': [710.32, 179], 'bid': 3.16}]",101569.39999997616,1669830751848,lox,yogurt no spoon,1.25,3.16,1.9100000000000001,lox,155.30000007152557,156,156.20000004768372,True,u,102230.70000004768,661.3000000715256,1669830752509,661,HRV,HRV_0079,2022-11-30 17:53:31
100,"[{'imgObject': {}, 'id': 'bagel and cc', 'src': '/static/foodstim60/bagel and cc.jpg', 'key': 'u', 'origWidth': 410, 'origHeight': 410, 'width': 410, 'height': 410, 'widthPercent': 0.45, 'rescaleHeight': False, 'trialN': 100, 'loaded': True, 'loadedTime': 6782.5, 'positionName': 'LEFT', 'positionCoords': [245.68, 179], 'bid': 7.15}, {'imgObject': {}, 'id': 'cantaloupe', 'src': '/static/foodstim60/cantaloupe.jpg', 'key': 'i', 'origWidth': 409, 'origHeight': 409, 'width': 409, 'height': 409, 'widthPercent': 0.45, 'rescaleHeight': False, 'trialN': 100, 'loaded': True, 'loadedTime': 6268.300000071526, 'positionName': 'RIGHT', 'positionCoords': [710.32, 179.5], 'bid': 7.29}]",102231.60000002384,1669830752510,bagel and cc,cantaloupe,7.15,7.29,0.13999999999999968,cantaloupe,292.89999997615814,295,294.2000000476837,True,i,103028.0,796.3999999761581,1669830753307,797,HRV,HRV_0079,2022-11-30 17:53:31
101,"[{'imgObject': {}, 'id': 'steak', 'src': '/static/foodstim60/steak.jpg', 'key': 'u', 'origWidth': 410, 'origHeight': 410, 'width': 410, 'height': 410, 'widthPercent': 0.45, 'rescaleHeight': False, 'trialN': 101, 'loaded': True, 'loadedTime': 7248, 'positionName': 'LEFT', 'positionCoords': [245.68, 179], 'bid': 1.85}, {'imgObject': {}, 'id': 'raspberries', 'src': '/static/foodstim60/raspberries.jpg', 'key': 'i', 'origWidth': 411, 'origHeight': 411, 'width': 411, 'height': 411, 'widthPercent': 0.45, 'rescaleHeight': False, 'trialN': 101, 'loaded': True, 'loadedTime': 6965.399999976158, 'positionName': 'RIGHT', 'positionCoords': [710.32, 178.5], 'bid': 3.08}]",103028.20000004768,1669830753307,steak,raspberries,1.85,3.08,1.23,raspberries,409.89999997615814,412,411.60000002384186,True,i,103947.5,919.2999999523163,1669830754226,919,HRV,HRV_0079,2022-11-30 17:53:31
102,"[{'imgObject': {}, 'id': 'cantaloupe', 'src': '/static/foodstim60/cantaloupe.jpg', 'key': 'u', 'origWidth': 409, 'origHeight': 409, 'width': 409, 'height': 409, 'widthPercent': 0.45, 'rescaleHeight': False, 'trialN': 102, 'loaded': True, 'loadedTime': 6270.100000023842, 'positionName': 'LEFT', 'positionCoords': [246.68, 179.5], 'bid': 7.29}, {'imgObject': {}, 'id': 'veggieswithdip', 'src': '/static/foodstim60/veggieswithdip.jpg', 'key': 'i', 'origWidth': 409, 'origHeight': 409, 'width': 409, 'height': 409, 'widthPercent': 0.45, 'rescaleHeight': False, 'trialN': 102, 'loaded': True, 'loadedTime': 6322.700000047684, 'positionName': 'RIGHT', 'positionCoords': [710.32, 179.5], 'bid': 8.36}]",103947.70000004768,1669830754226,cantaloupe,veggieswithdip,7.29,8.36,1.0699999999999994,cantaloupe,310.5,312,311.1999999284744,True,u,104771.39999997616,823.6999999284744,1669830755050,824,HRV,HRV_0079,2022-11-30 17:53:31
103,"[{'imgObject': {}, 'id': 'rigatoni', 'src': '/static/foodstim60/rigatoni.jpg', 'key': 'u', 'origWidth': 411, 'origHeight': 411, 'width': 411, 'height': 411, 'widthPercent': 0.45, 'rescaleHeight': False, 'trialN': 103, 'loaded': True, 'loadedTime': 7052, 'positionName': 'LEFT', 'positionCoords': [244.68, 178.5], 'bid': 2.36}, {'imgObject': {}, 'id': 'froot loops w milk', 'src': '/static/foodstim60/froot loops w milk.jpg', 'key': 'i', 'origWidth': 410, 'origHeight': 410, 'width': 410, 'height': 410, 'widthPercent': 0.45, 'rescaleHeight': False, 'trialN': 103, 'loaded': True, 'loadedTime': 7147.700000047684, 'positionName': 'RIGHT', 'positionCoords': [710.32, 179], 'bid': 2.26}]",104772.0,1669830755051,rigatoni,froot loops w milk,2.36,2.26,-0.10000000000000009,rigatoni,303.60000002384186,508,508.39999997615814,True,u,105795.5,1023.5,1669830756074,1023,HRV,HRV_0079,2022-11-30 17:53:31
104,"[{'imgObject': {}, 'id': 'burger', 'src': '/static/foodstim60/burger.jpg', 'key': 'u', 'origWidth': 409, 'origHeight': 409, 'width': 409, 'height': 409, 'widthPercent': 0.45, 'rescaleHeight': False, 'trialN': 104, 'loaded': True, 'loadedTime': 7193.700000047684, 'positionName': 'LEFT', 'positionCoords': [246.68, 179.5], 'bid': 8.22}, {'imgObject': {}, 'id': 'Tribe humus pita', 'src': '/static/foodstim60/Tribe humus pita.jpg', 'key': 'i', 'origWidth': 411, 'origHeight': 411, 'width': 411, 'height': 411, 'widthPercent': 0.45, 'rescaleHeight': False, 'trialN': 104, 'loaded': True, 'loadedTime': 7117.800000071526, 'positionName': 'RIGHT', 'positionCoords': [710.32, 178.5], 'bid': 7.4}]",105795.89999997616,1669830756075,burger,Tribe humus pita,8.22,7.4,-0.8200000000000003,burger,135.70000004768372,475,475.10000002384186,True,u,106781.70000004768,985.8000000715256,1669830757060,985,HRV,HRV_0079,2022-11-30 17:53:31
105,"[{'imgObject': {}, 'id': 'chickenfingers', 'src': '/static/foodstim60/chickenfingers.jpg', 'key': 'u', 'origWidth': 410, 'origHeight': 410, 'width': 410, 'height': 410, 'widthPercent': 0.45, 'rescaleHeight': False, 'trialN': 105, 'loaded': True, 'loadedTime': 7240.399999976158, 'positionName': 'LEFT', 'positionCoords': [245.68, 179], 'bid': 0.02}, {'imgObject': {}, 'id': 'luckycharms', 'src': '/static/foodstim60/luckycharms.jpg', 'key': 'i', 'origWidth': 410, 'origHeight': 409, 'width': 410, 'height': 409, 'widthPercent': 0.45, 'rescaleHeight': False, 'trialN': 105, 'loaded': True, 'loadedTime': 6821.899999976158, 'positionName': 'RIGHT', 'positionCoords': [710.32, 179.5], 'bid': 3.0500000000000003}]",106782.20000004768,1669830757061,chickenfingers,luckycharms,0.02,3.0500000000000003,3.0300000000000002,luckycharms,119.79999995231628,120,120.39999997615814,True,i,107426.5,644.2999999523163,1669830757705,644,HRV,HRV_0079,2022-11-30 17:53:31
106,"[{'imgObject': {}, 'id': 'bagel and cc', 'src': '/static/foodstim60/bagel and cc.jpg', 'key': 'u', 'origWidth': 410, 'origHeight': 410, 'width': 410, 'height': 410, 'widthPercent': 0.45, 'rescaleHeight': False, 'trialN': 106, 'loaded': True, 'loadedTime': 6784, 'positionName': 'LEFT', 'positionCoords': [245.68, 179], 'bid': 7.15}, {'imgObject': {}, 'id': 'cheerios', 'src': '/static/foodstim60/cheerios.jpg', 'key': 'i', 'origWidth': 409, 'origHeight': 410, 'width': 409, 'height': 410, 'widthPercent': 0.45, 'rescaleHeight': False, 'trialN': 106, 'loaded': True, 'loadedTime': 6677.100000023842, 'positionName': 'RIGHT', 'positionCoords': [710.32, 179], 'bid': 5.9}]",107427.20000004768,1669830757706,bagel and cc,cheerios,7.15,5.9,-1.25,cheerios,147.5,150,150.29999995231628,True,i,108093.39999997616,666.1999999284744,1669830758372,666,HRV,HRV_0079,2022-11-30 17:53:31
107,"[{'imgObject': {}, 'id': 'fried eggs', 'src': '/static/foodstim60/fried eggs.jpg', 'key': 'u', 'origWidth': 410, 'origHeight': 410, 'width': 410, 'height': 410, 'widthPercent': 0.45, 'rescaleHeight': False, 'trialN': 107, 'loaded': True, 'loadedTime': 7123.200000047684, 'positionName': 'LEFT', 'positionCoords': [245.68, 179], 'bid': 5.65}, {'imgObject': {}, 'id': 'blueberries', 'src': '/static/foodstim60/blueberries.jpg', 'key': 'i', 'origWidth': 411, 'origHeight': 411, 'width': 411, 'height': 411, 'widthPercent': 0.45, 'rescaleHeight': False, 'trialN': 107, 'loaded': True, 'loadedTime': 6311.5, 'positionName': 'RIGHT', 'positionCoords': [710.32, 178.5], 'bid': 4.32}]",108093.70000004768,1669830758372,fried eggs,blueberries,5.65,4.32,-1.33,blueberries,111.29999995231628,229,228.5,True,i,108828.20000004768,734.5,1669830759107,735,HRV,HRV_0079,2022-11-30 17:53:31
108,"[{'imgObject': {}, 'id': 'olives', 'src': '/static/foodstim60/olives.jpg', 'key': 'u', 'origWidth': 410, 'origHeight': 410, 'width': 410, 'height': 410, 'widthPercent': 0.45, 'rescaleHeight': False, 'trialN': 108, 'loaded': True, 'loadedTime': 7150.5, 'positionName': 'LEFT', 'positionCoords': [245.68, 179], 'bid': 7.04}, {'imgObject': {}, 'id': 'burger', 'src': '/static/foodstim60/burger.jpg', 'key': 'i', 'origWidth': 409, 'origHeight': 409, 'width': 409, 'height': 409, 'widthPercent': 0.45, 'rescaleHeight': False, 'trialN': 108, 'loaded': True, 'loadedTime': 7190, 'positionName': 'RIGHT', 'positionCoords': [710.32, 179.5], 'bid': 8.22}]",108828.60000002384,1669830759107,olives,burger,7.04,8.22,1.1800000000000006,burger,28.799999952316284,30,29.700000047683716,True,i,109377.89999997616,549.2999999523163,1669830759657,550,HRV,HRV_0079,2022-11-30 17:53:31
