trialN,stimuli,trialStartTime,trialStartTime_UNIX,stimulus1,stimulus2,stimulus1Bid,stimulus2Bid,delta,selected,rt,rt_UNIX,rt_perfnow,receivedResponse,rsp,trialEndTime,trialDuration,trialEndTime_UNIX,trialDuration_UNIX,trialEvents,exp,subjectId,date
0,"[{'imgObject': {}, 'id': 'seaweed', 'src': '/static/foodstim60/seaweed.jpg', 'key': 'u', 'origWidth': 410, 'origHeight': 410, 'width': 410, 'height': 410, 'widthPercent': 0.45, 'rescaleHeight': False, 'trialN': 0, 'loaded': True, 'loadedTime': 4373.799999952316, 'positionName': 'LEFT', 'positionCoords': [204.4, 155], 'bid': 7.62}, {'imgObject': {}, 'id': 'mac & cheese', 'src': '/static/foodstim60/mac & cheese.jpg', 'key': 'i', 'origWidth': 410, 'origHeight': 410, 'width': 410, 'height': 410, 'widthPercent': 0.45, 'rescaleHeight': False, 'trialN': 0, 'loaded': True, 'loadedTime': 4411.400000095367, 'positionName': 'RIGHT', 'positionCoords': [665.6, 155], 'bid': 8.21}]",4557.600000143051,1669830312404,seaweed,mac & cheese,7.62,8.21,0.5900000000000007,seaweed,1098.3999998569489,1098,1098.6999998092651,True,u,6170.0,1612.3999998569489,1669830314016,1612,,HRV,HRV_0087,2022-11-30 17:49:30
1,"[{'imgObject': {}, 'id': 'eggs', 'src': '/static/foodstim60/eggs.jpg', 'key': 'u', 'origWidth': 409, 'origHeight': 409, 'width': 409, 'height': 409, 'widthPercent': 0.45, 'rescaleHeight': False, 'trialN': 1, 'loaded': True, 'loadedTime': 4422.900000095367, 'positionName': 'LEFT', 'positionCoords': [205.4, 155.5], 'bid': 6.42}, {'imgObject': {}, 'id': 'turkey sandwich', 'src': '/static/foodstim60/turkey sandwich.jpg', 'key': 'i', 'origWidth': 409, 'origHeight': 409, 'width': 409, 'height': 409, 'widthPercent': 0.45, 'rescaleHeight': False, 'trialN': 1, 'loaded': True, 'loadedTime': 4428.799999952316, 'positionName': 'RIGHT', 'positionCoords': [665.6, 155.5], 'bid': 7.18}]",6170.299999952316,1669830314016,eggs,turkey sandwich,6.42,7.18,0.7599999999999998,turkey sandwich,921.9000000953674,923,922.4000000953674,True,i,7614.799999952316,1444.5,1669830315461,1445,,HRV,HRV_0087,2022-11-30 17:49:30
2,"[{'imgObject': {}, 'id': 'mashed potato', 'src': '/static/foodstim60/mashed potato.jpg', 'key': 'u', 'origWidth': 409, 'origHeight': 409, 'width': 409, 'height': 409, 'widthPercent': 0.45, 'rescaleHeight': False, 'trialN': 2, 'loaded': True, 'loadedTime': 4429.900000095367, 'positionName': 'LEFT', 'positionCoords': [205.4, 155.5], 'bid': 3.82}, {'imgObject': {}, 'id': 'eggs', 'src': '/static/foodstim60/eggs.jpg', 'key': 'i', 'origWidth': 409, 'origHeight': 409, 'width': 409, 'height': 409, 'widthPercent': 0.45, 'rescaleHeight': False, 'trialN': 2, 'loaded': True, 'loadedTime': 4423.299999952316, 'positionName': 'RIGHT', 'positionCoords': [665.6, 155.5], 'bid': 6.42}]",7615.100000143051,1669830315461,mashed potato,eggs,3.82,6.42,2.6,eggs,912.5999999046326,913,913.0999999046326,True,i,9042.5,1427.3999998569489,1669830316888,1427,,HRV,HRV_0087,2022-11-30 17:49:30
3,"[{'imgObject': {}, 'id': 'cantaloupe', 'src': '/static/foodstim60/cantaloupe.jpg', 'key': 'u', 'origWidth': 409, 'origHeight': 409, 'width': 409, 'height': 409, 'widthPercent': 0.45, 'rescaleHeight': False, 'trialN': 3, 'loaded': True, 'loadedTime': 4433, 'positionName': 'LEFT', 'positionCoords': [205.4, 155.5], 'bid': 5.92}, {'imgObject': {}, 'id': 'chicken nuggets2', 'src': '/static/foodstim60/chicken nuggets2.jpg', 'key': 'i', 'origWidth': 410, 'origHeight': 409, 'width': 410, 'height': 409, 'widthPercent': 0.45, 'rescaleHeight': False, 'trialN': 3, 'loaded': True, 'loadedTime': 4407.100000143051, 'positionName': 'RIGHT', 'positionCoords': [665.6, 155.5], 'bid': 8.82}]",9042.700000047684,1669830316889,cantaloupe,chicken nuggets2,5.92,8.82,2.9000000000000004,chicken nuggets2,1056.2000000476837,1056,1056.7000000476837,True,i,10611.100000143051,1568.4000000953674,1669830318457,1568,,HRV,HRV_0087,2022-11-30 17:49:30
4,"[{'imgObject': {}, 'id': 'turkeysandwich', 'src': '/static/foodstim60/turkeysandwich.jpg', 'key': 'u', 'origWidth': 409, 'origHeight': 409, 'width': 409, 'height': 409, 'widthPercent': 0.45, 'rescaleHeight': False, 'trialN': 4, 'loaded': True, 'loadedTime': 4386.900000095367, 'positionName': 'LEFT', 'positionCoords': [205.4, 155.5], 'bid': 8.75}, {'imgObject': {}, 'id': 'salmon', 'src': '/static/foodstim60/salmon.jpg', 'key': 'i', 'origWidth': 410, 'origHeight': 409, 'width': 410, 'height': 409, 'widthPercent': 0.45, 'rescaleHeight': False, 'trialN': 4, 'loaded': True, 'loadedTime': 4442.400000095367, 'positionName': 'RIGHT', 'positionCoords': [665.6, 155.5], 'bid': 8.71}]",10611.400000095367,1669830318457,turkeysandwich,salmon,8.75,8.71,-0.03999999999999915,turkeysandwich,1477.5999999046326,1478,1478.0,True,u,12595.100000143051,1983.7000000476837,1669830320441,1984,,HRV,HRV_0087,2022-11-30 17:49:30
5,"[{'imgObject': {}, 'id': 'blackbeanswithrice', 'src': '/static/foodstim60/blackbeanswithrice.jpg', 'key': 'u', 'origWidth': 410, 'origHeight': 410, 'width': 410, 'height': 410, 'widthPercent': 0.45, 'rescaleHeight': False, 'trialN': 5, 'loaded': True, 'loadedTime': 4443.100000143051, 'positionName': 'LEFT', 'positionCoords': [204.4, 155], 'bid': 3.03}, {'imgObject': {}, 'id': 'raisin bran w milk', 'src': '/static/foodstim60/raisin bran w milk.jpg', 'key': 'i', 'origWidth': 411, 'origHeight': 411, 'width': 411, 'height': 411, 'widthPercent': 0.45, 'rescaleHeight': False, 'trialN': 5, 'loaded': True, 'loadedTime': 4460.600000143051, 'positionName': 'RIGHT', 'positionCoords': [665.6, 154.5], 'bid': 7.28}]",12595.299999952316,1669830320441,blackbeanswithrice,raisin bran w milk,3.03,7.28,4.25,raisin bran w milk,933.3000001907349,934,933.9000000953674,True,i,14038.400000095367,1443.1000001430511,1669830321884,1443,,HRV,HRV_0087,2022-11-30 17:49:30
6,"[{'imgObject': {}, 'id': 'edamame', 'src': '/static/foodstim60/edamame.jpg', 'key': 'u', 'origWidth': 409, 'origHeight': 410, 'width': 409, 'height': 410, 'widthPercent': 0.45, 'rescaleHeight': False, 'trialN': 6, 'loaded': True, 'loadedTime': 4460.600000143051, 'positionName': 'LEFT', 'positionCoords': [205.4, 155], 'bid': 0.96}, {'imgObject': {}, 'id': 'veggieswithdip', 'src': '/static/foodstim60/veggieswithdip.jpg', 'key': 'i', 'origWidth': 409, 'origHeight': 409, 'width': 409, 'height': 409, 'widthPercent': 0.45, 'rescaleHeight': False, 'trialN': 6, 'loaded': True, 'loadedTime': 4470.600000143051, 'positionName': 'RIGHT', 'positionCoords': [665.6, 155.5], 'bid': 3.12}]",14038.600000143051,1669830321885,edamame,veggieswithdip,0.96,3.12,2.16,edamame,857.6999998092651,858,858.0,True,u,15413.0,1374.3999998569489,1669830323259,1374,,HRV,HRV_0087,2022-11-30 17:49:30
7,"[{'imgObject': {}, 'id': 'cherry tomato', 'src': '/static/foodstim60/cherry tomato.jpg', 'key': 'u', 'origWidth': 410, 'origHeight': 410, 'width': 410, 'height': 410, 'widthPercent': 0.45, 'rescaleHeight': False, 'trialN': 7, 'loaded': True, 'loadedTime': 4474.400000095367, 'positionName': 'LEFT', 'positionCoords': [204.4, 155], 'bid': 4.14}, {'imgObject': {}, 'id': 'popsicles', 'src': '/static/foodstim60/popsicles.jpg', 'key': 'i', 'origWidth': 410, 'origHeight': 410, 'width': 410, 'height': 410, 'widthPercent': 0.45, 'rescaleHeight': False, 'trialN': 7, 'loaded': True, 'loadedTime': 4475.400000095367, 'positionName': 'RIGHT', 'positionCoords': [665.6, 155], 'bid': 3.45}]",15413.200000047684,1669830323259,cherry tomato,popsicles,4.14,3.45,-0.6899999999999995,cherry tomato,1156.9000000953674,1158,1157.4000000953674,True,u,17083.700000047684,1670.5,1669830324930,1671,,HRV,HRV_0087,2022-11-30 17:49:30
8,"[{'imgObject': {}, 'id': 'baked potato', 'src': '/static/foodstim60/baked potato.jpg', 'key': 'u', 'origWidth': 409, 'origHeight': 410, 'width': 409, 'height': 410, 'widthPercent': 0.45, 'rescaleHeight': False, 'trialN': 8, 'loaded': True, 'loadedTime': 4476, 'positionName': 'LEFT', 'positionCoords': [205.4, 155], 'bid': 5.57}, {'imgObject': {}, 'id': 'sweetpotato', 'src': '/static/foodstim60/sweetpotato.jpg', 'key': 'i', 'origWidth': 410, 'origHeight': 410, 'width': 410, 'height': 410, 'widthPercent': 0.45, 'rescaleHeight': False, 'trialN': 8, 'loaded': True, 'loadedTime': 4476.900000095367, 'positionName': 'RIGHT', 'positionCoords': [665.6, 155], 'bid': 5.46}]",17083.900000095367,1669830324930,baked potato,sweetpotato,5.57,5.46,-0.11000000000000032,sweetpotato,1078.3999998569489,1079,1078.8999998569489,True,i,18674.700000047684,1590.7999999523163,1669830326521,1591,,HRV,HRV_0087,2022-11-30 17:49:30
9,"[{'imgObject': {}, 'id': 'hotdog w must', 'src': '/static/foodstim60/hotdog w must.jpg', 'key': 'u', 'origWidth': 409, 'origHeight': 409, 'width': 409, 'height': 409, 'widthPercent': 0.45, 'rescaleHeight': False, 'trialN': 9, 'loaded': True, 'loadedTime': 4477.799999952316, 'positionName': 'LEFT', 'positionCoords': [205.4, 155.5], 'bid': 6.8500000000000005}, {'imgObject': {}, 'id': 'fruitsalad', 'src': '/static/foodstim60/fruitsalad.jpg', 'key': 'i', 'origWidth': 410, 'origHeight': 410, 'width': 410, 'height': 410, 'widthPercent': 0.45, 'rescaleHeight': False, 'trialN': 9, 'loaded': True, 'loadedTime': 4479.700000047684, 'positionName': 'RIGHT', 'positionCoords': [665.6, 155], 'bid': 6.71}]",18674.900000095367,1669830326521,hotdog w must,fruitsalad,6.8500000000000005,6.71,-0.14000000000000057,hotdog w must,1168.5999999046326,1169,1169.0,True,u,20362.60000014305,1687.7000000476837,1669830328209,1688,,HRV,HRV_0087,2022-11-30 17:49:30
10,"[{'imgObject': {}, 'id': 'mango', 'src': '/static/foodstim60/mango.jpg', 'key': 'u', 'origWidth': 411, 'origHeight': 411, 'width': 411, 'height': 411, 'widthPercent': 0.45, 'rescaleHeight': False, 'trialN': 10, 'loaded': True, 'loadedTime': 4480.100000143051, 'positionName': 'LEFT', 'positionCoords': [203.4, 154.5], 'bid': 7.53}, {'imgObject': {}, 'id': 'salad w chicken', 'src': '/static/foodstim60/salad w chicken.jpg', 'key': 'i', 'origWidth': 411, 'origHeight': 411, 'width': 411, 'height': 411, 'widthPercent': 0.45, 'rescaleHeight': False, 'trialN': 10, 'loaded': True, 'loadedTime': 4484.700000047684, 'positionName': 'RIGHT', 'positionCoords': [665.6, 154.5], 'bid': 6.5600000000000005}]",20362.799999952316,1669830328209,mango,salad w chicken,7.53,6.5600000000000005,-0.9699999999999998,salad w chicken,805.9000000953674,806,806.1000001430511,True,i,21674.5,1311.7000000476837,1669830329520,1311,,HRV,HRV_0087,2022-11-30 17:49:30
11,"[{'imgObject': {}, 'id': 'lox', 'src': '/static/foodstim60/lox.jpg', 'key': 'u', 'origWidth': 410, 'origHeight': 411, 'width': 410, 'height': 411, 'widthPercent': 0.45, 'rescaleHeight': False, 'trialN': 11, 'loaded': True, 'loadedTime': 4485.900000095367, 'positionName': 'LEFT', 'positionCoords': [204.4, 154.5], 'bid': 9.53}, {'imgObject': {}, 'id': 'kiwi', 'src': '/static/foodstim60/kiwi.jpg', 'key': 'i', 'origWidth': 410, 'origHeight': 410, 'width': 410, 'height': 410, 'widthPercent': 0.45, 'rescaleHeight': False, 'trialN': 11, 'loaded': True, 'loadedTime': 4487, 'positionName': 'RIGHT', 'positionCoords': [665.6, 155], 'bid': 6.43}]",21674.60000014305,1669830329521,lox,kiwi,9.53,6.43,-3.0999999999999996,lox,722.5999999046326,723,723.1999998092651,True,u,22916.60000014305,1242.0,1669830330763,1242,,HRV,HRV_0087,2022-11-30 17:49:30
12,"[{'imgObject': {}, 'id': 'cheerios', 'src': '/static/foodstim60/cheerios.jpg', 'key': 'u', 'origWidth': 409, 'origHeight': 410, 'width': 409, 'height': 410, 'widthPercent': 0.45, 'rescaleHeight': False, 'trialN': 12, 'loaded': True, 'loadedTime': 4487.700000047684, 'positionName': 'LEFT', 'positionCoords': [205.4, 155], 'bid': 2.96}, {'imgObject': {}, 'id': 'baked potato', 'src': '/static/foodstim60/baked potato.jpg', 'key': 'i', 'origWidth': 409, 'origHeight': 410, 'width': 409, 'height': 410, 'widthPercent': 0.45, 'rescaleHeight': False, 'trialN': 12, 'loaded': True, 'loadedTime': 4476.299999952316, 'positionName': 'RIGHT', 'positionCoords': [665.6, 155], 'bid': 5.57}]",22916.900000095367,1669830330763,cheerios,baked potato,2.96,5.57,2.6100000000000003,baked potato,1240.7999999523163,1241,1241.0999999046326,True,i,24660.200000047684,1743.2999999523163,1669830332506,1743,,HRV,HRV_0087,2022-11-30 17:49:30
13,"[{'imgObject': {}, 'id': 'bagel plain', 'src': '/static/foodstim60/bagel plain.jpg', 'key': 'u', 'origWidth': 410, 'origHeight': 410, 'width': 410, 'height': 410, 'widthPercent': 0.45, 'rescaleHeight': False, 'trialN': 13, 'loaded': True, 'loadedTime': 4488.5, 'positionName': 'LEFT', 'positionCoords': [204.4, 155], 'bid': 3.82}, {'imgObject': {}, 'id': 'luckycharms', 'src': '/static/foodstim60/luckycharms.jpg', 'key': 'i', 'origWidth': 410, 'origHeight': 409, 'width': 410, 'height': 409, 'widthPercent': 0.45, 'rescaleHeight': False, 'trialN': 13, 'loaded': True, 'loadedTime': 4489.5, 'positionName': 'RIGHT', 'positionCoords': [665.6, 155.5], 'bid': 2.7}]",24660.400000095367,1669830332506,bagel plain,luckycharms,3.82,2.7,-1.1199999999999997,bagel plain,1211.2999999523163,1212,1211.7000000476837,True,u,26384.200000047684,1723.7999999523163,1669830334230,1724,,HRV,HRV_0087,2022-11-30 17:49:30
14,"[{'imgObject': {}, 'id': 'chicken nuggets2', 'src': '/static/foodstim60/chicken nuggets2.jpg', 'key': 'u', 'origWidth': 410, 'origHeight': 409, 'width': 410, 'height': 409, 'widthPercent': 0.45, 'rescaleHeight': False, 'trialN': 14, 'loaded': True, 'loadedTime': 4408.400000095367, 'positionName': 'LEFT', 'positionCoords': [204.4, 155.5], 'bid': 8.82}, {'imgObject': {}, 'id': 'grilled chicken strips', 'src': '/static/foodstim60/grilled chicken strips.jpg', 'key': 'i', 'origWidth': 410, 'origHeight': 411, 'width': 410, 'height': 411, 'widthPercent': 0.45, 'rescaleHeight': False, 'trialN': 14, 'loaded': True, 'loadedTime': 4490.200000047684, 'positionName': 'RIGHT', 'positionCoords': [665.6, 154.5], 'bid': 8.98}]",26384.400000095367,1669830334230,chicken nuggets2,grilled chicken strips,8.82,8.98,0.16000000000000014,grilled chicken strips,1145.0999999046326,1146,1145.5,True,i,28043.299999952316,1658.8999998569489,1669830335889,1659,,HRV,HRV_0087,2022-11-30 17:49:30
15,"[{'imgObject': {}, 'id': 'avocado', 'src': '/static/foodstim60/avocado.jpg', 'key': 'u', 'origWidth': 409, 'origHeight': 409, 'width': 409, 'height': 409, 'widthPercent': 0.45, 'rescaleHeight': False, 'trialN': 15, 'loaded': True, 'loadedTime': 4491.100000143051, 'positionName': 'LEFT', 'positionCoords': [205.4, 155.5], 'bid': 9.06}, {'imgObject': {}, 'id': 'seaweed', 'src': '/static/foodstim60/seaweed.jpg', 'key': 'i', 'origWidth': 410, 'origHeight': 410, 'width': 410, 'height': 410, 'widthPercent': 0.45, 'rescaleHeight': False, 'trialN': 15, 'loaded': True, 'loadedTime': 4371.799999952316, 'positionName': 'RIGHT', 'positionCoords': [665.6, 155], 'bid': 7.62}]",28043.400000095367,1669830335889,avocado,seaweed,9.06,7.62,-1.4400000000000004,seaweed,993.8999998569489,994,994.2000000476837,True,i,29553.299999952316,1509.8999998569489,1669830337399,1510,,HRV,HRV_0087,2022-11-30 17:49:30
16,"[{'imgObject': {}, 'id': 'blackbeanswithrice', 'src': '/static/foodstim60/blackbeanswithrice.jpg', 'key': 'u', 'origWidth': 410, 'origHeight': 410, 'width': 410, 'height': 410, 'widthPercent': 0.45, 'rescaleHeight': False, 'trialN': 16, 'loaded': True, 'loadedTime': 4459, 'positionName': 'LEFT', 'positionCoords': [204.4, 155], 'bid': 3.03}, {'imgObject': {}, 'id': 'cheerios', 'src': '/static/foodstim60/cheerios.jpg', 'key': 'i', 'origWidth': 409, 'origHeight': 410, 'width': 409, 'height': 410, 'widthPercent': 0.45, 'rescaleHeight': False, 'trialN': 16, 'loaded': True, 'loadedTime': 4487.600000143051, 'positionName': 'RIGHT', 'positionCoords': [665.6, 155], 'bid': 2.96}]",29553.400000095367,1669830337399,blackbeanswithrice,cheerios,3.03,2.96,-0.06999999999999984,cheerios,1050.5999999046326,1051,1051.0999999046326,True,i,31119.0,1565.5999999046326,1669830338965,1566,,HRV,HRV_0087,2022-11-30 17:49:30
17,"[{'imgObject': {}, 'id': 'orange slices', 'src': '/static/foodstim60/orange slices.jpg', 'key': 'u', 'origWidth': 409, 'origHeight': 410, 'width': 409, 'height': 410, 'widthPercent': 0.45, 'rescaleHeight': False, 'trialN': 17, 'loaded': True, 'loadedTime': 4492, 'positionName': 'LEFT', 'positionCoords': [205.4, 155], 'bid': 8.06}, {'imgObject': {}, 'id': 'rigatoni and sauce', 'src': '/static/foodstim60/rigatoni and sauce.jpg', 'key': 'i', 'origWidth': 410, 'origHeight': 411, 'width': 410, 'height': 411, 'widthPercent': 0.45, 'rescaleHeight': False, 'trialN': 17, 'loaded': True, 'loadedTime': 4492.200000047684, 'positionName': 'RIGHT', 'positionCoords': [665.6, 154.5], 'bid': 7.37}]",31119.299999952316,1669830338965,orange slices,rigatoni and sauce,8.06,7.37,-0.6900000000000004,rigatoni and sauce,943.2000000476837,944,943.6000001430511,True,i,32580.5,1461.2000000476837,1669830340426,1461,,HRV,HRV_0087,2022-11-30 17:49:30
18,"[{'imgObject': {}, 'id': 'granola w milk', 'src': '/static/foodstim60/granola w milk.jpg', 'key': 'u', 'origWidth': 410, 'origHeight': 410, 'width': 410, 'height': 410, 'widthPercent': 0.45, 'rescaleHeight': False, 'trialN': 18, 'loaded': True, 'loadedTime': 4493.700000047684, 'positionName': 'LEFT', 'positionCoords': [204.4, 155], 'bid': 1.87}, {'imgObject': {}, 'id': 'popsicles', 'src': '/static/foodstim60/popsicles.jpg', 'key': 'i', 'origWidth': 410, 'origHeight': 410, 'width': 410, 'height': 410, 'widthPercent': 0.45, 'rescaleHeight': False, 'trialN': 18, 'loaded': True, 'loadedTime': 4475.200000047684, 'positionName': 'RIGHT', 'positionCoords': [665.6, 155], 'bid': 3.45}]",32580.799999952316,1669830340426,granola w milk,popsicles,1.87,3.45,1.58,granola w milk,1104,1105,1104.4000000953674,True,u,34194.90000009537,1614.1000001430511,1669830342041,1615,,HRV,HRV_0087,2022-11-30 17:49:30
19,"[{'imgObject': {}, 'id': 'salmon', 'src': '/static/foodstim60/salmon.jpg', 'key': 'u', 'origWidth': 410, 'origHeight': 409, 'width': 410, 'height': 409, 'widthPercent': 0.45, 'rescaleHeight': False, 'trialN': 19, 'loaded': True, 'loadedTime': 4442.299999952316, 'positionName': 'LEFT', 'positionCoords': [204.4, 155.5], 'bid': 8.71}, {'imgObject': {}, 'id': 'olives', 'src': '/static/foodstim60/olives.jpg', 'key': 'i', 'origWidth': 410, 'origHeight': 410, 'width': 410, 'height': 410, 'widthPercent': 0.45, 'rescaleHeight': False, 'trialN': 19, 'loaded': True, 'loadedTime': 4496.900000095367, 'positionName': 'RIGHT', 'positionCoords': [665.6, 155], 'bid': 5.71}]",34195.0,1669830342041,salmon,olives,8.71,5.71,-3.000000000000001,olives,786.5,787,787.0,True,i,35494.60000014305,1299.6000001430511,1669830343340,1299,,HRV,HRV_0087,2022-11-30 17:49:30
20,"[{'imgObject': {}, 'id': 'steak', 'src': '/static/foodstim60/steak.jpg', 'key': 'u', 'origWidth': 410, 'origHeight': 410, 'width': 410, 'height': 410, 'widthPercent': 0.45, 'rescaleHeight': False, 'trialN': 20, 'loaded': True, 'loadedTime': 4499, 'positionName': 'LEFT', 'positionCoords': [204.4, 155], 'bid': 9.25}, {'imgObject': {}, 'id': 'lox', 'src': '/static/foodstim60/lox.jpg', 'key': 'i', 'origWidth': 410, 'origHeight': 411, 'width': 410, 'height': 411, 'widthPercent': 0.45, 'rescaleHeight': False, 'trialN': 20, 'loaded': True, 'loadedTime': 4486, 'positionName': 'RIGHT', 'positionCoords': [665.6, 154.5], 'bid': 9.53}]",35494.799999952316,1669830343341,steak,lox,9.25,9.53,0.27999999999999936,lox,904.4000000953674,904,904.8000001907349,True,i,36903.40000009537,1408.6000001430511,1669830344749,1408,,HRV,HRV_0087,2022-11-30 17:49:30
21,"[{'imgObject': {}, 'id': 'Tribe humus pita', 'src': '/static/foodstim60/Tribe humus pita.jpg', 'key': 'u', 'origWidth': 411, 'origHeight': 411, 'width': 411, 'height': 411, 'widthPercent': 0.45, 'rescaleHeight': False, 'trialN': 21, 'loaded': True, 'loadedTime': 4500.100000143051, 'positionName': 'LEFT', 'positionCoords': [203.4, 154.5], 'bid': 3.89}, {'imgObject': {}, 'id': 'salad w chicken', 'src': '/static/foodstim60/salad w chicken.jpg', 'key': 'i', 'origWidth': 411, 'origHeight': 411, 'width': 411, 'height': 411, 'widthPercent': 0.45, 'rescaleHeight': False, 'trialN': 21, 'loaded': True, 'loadedTime': 4484.299999952316, 'positionName': 'RIGHT', 'positionCoords': [665.6, 154.5], 'bid': 6.5600000000000005}]",36903.60000014305,1669830344749,Tribe humus pita,salad w chicken,3.89,6.5600000000000005,2.6700000000000004,salad w chicken,1154.5999999046326,1155,1155.0,True,i,38575.10000014305,1671.5,1669830346421,1672,,HRV,HRV_0087,2022-11-30 17:49:30
22,"[{'imgObject': {}, 'id': 'Tribe humus pita', 'src': '/static/foodstim60/Tribe humus pita.jpg', 'key': 'u', 'origWidth': 411, 'origHeight': 411, 'width': 411, 'height': 411, 'widthPercent': 0.45, 'rescaleHeight': False, 'trialN': 22, 'loaded': True, 'loadedTime': 4500.200000047684, 'positionName': 'LEFT', 'positionCoords': [203.4, 154.5], 'bid': 3.89}, {'imgObject': {}, 'id': 'orange slices', 'src': '/static/foodstim60/orange slices.jpg', 'key': 'i', 'origWidth': 409, 'origHeight': 410, 'width': 409, 'height': 410, 'widthPercent': 0.45, 'rescaleHeight': False, 'trialN': 22, 'loaded': True, 'loadedTime': 4492.100000143051, 'positionName': 'RIGHT', 'positionCoords': [665.6, 155], 'bid': 8.06}]",38575.200000047684,1669830346421,Tribe humus pita,orange slices,3.89,8.06,4.17,orange slices,1094.2999999523163,1095,1094.5999999046326,True,i,40190.799999952316,1615.5999999046326,1669830348036,1615,,HRV,HRV_0087,2022-11-30 17:49:30
23,"[{'imgObject': {}, 'id': 'chickenfingers', 'src': '/static/foodstim60/chickenfingers.jpg', 'key': 'u', 'origWidth': 410, 'origHeight': 410, 'width': 410, 'height': 410, 'widthPercent': 0.45, 'rescaleHeight': False, 'trialN': 23, 'loaded': True, 'loadedTime': 4501.200000047684, 'positionName': 'LEFT', 'positionCoords': [204.4, 155], 'bid': 9.43}, {'imgObject': {}, 'id': 'burger', 'src': '/static/foodstim60/burger.jpg', 'key': 'i', 'origWidth': 409, 'origHeight': 409, 'width': 409, 'height': 409, 'widthPercent': 0.45, 'rescaleHeight': False, 'trialN': 23, 'loaded': True, 'loadedTime': 4503.600000143051, 'positionName': 'RIGHT', 'positionCoords': [665.6, 155.5], 'bid': 9.71}]",40190.90000009537,1669830348037,chickenfingers,burger,9.43,9.71,0.28000000000000114,chickenfingers,1405.5999999046326,1406,1406.0,True,u,42118.40000009537,1927.5,1669830349964,1927,,HRV,HRV_0087,2022-11-30 17:49:30
24,"[{'imgObject': {}, 'id': 'luckycharms', 'src': '/static/foodstim60/luckycharms.jpg', 'key': 'u', 'origWidth': 410, 'origHeight': 409, 'width': 410, 'height': 409, 'widthPercent': 0.45, 'rescaleHeight': False, 'trialN': 24, 'loaded': True, 'loadedTime': 4489.400000095367, 'positionName': 'LEFT', 'positionCoords': [204.4, 155.5], 'bid': 2.7}, {'imgObject': {}, 'id': 'turkey sandwich', 'src': '/static/foodstim60/turkey sandwich.jpg', 'key': 'i', 'origWidth': 409, 'origHeight': 409, 'width': 409, 'height': 409, 'widthPercent': 0.45, 'rescaleHeight': False, 'trialN': 24, 'loaded': True, 'loadedTime': 4426.400000095367, 'positionName': 'RIGHT', 'positionCoords': [665.6, 155.5], 'bid': 7.18}]",42118.60000014305,1669830349964,luckycharms,turkey sandwich,2.7,7.18,4.4799999999999995,turkey sandwich,893.8999998569489,895,894.3999998569489,True,i,43533.90000009537,1415.2999999523163,1669830351380,1416,,HRV,HRV_0087,2022-11-30 17:49:30
25,"[{'imgObject': {}, 'id': 'blueberries', 'src': '/static/foodstim60/blueberries.jpg', 'key': 'u', 'origWidth': 411, 'origHeight': 411, 'width': 411, 'height': 411, 'widthPercent': 0.45, 'rescaleHeight': False, 'trialN': 25, 'loaded': True, 'loadedTime': 4503.900000095367, 'positionName': 'LEFT', 'positionCoords': [203.4, 154.5], 'bid': 6.0600000000000005}, {'imgObject': {}, 'id': 'yogurt no spoon', 'src': '/static/foodstim60/yogurt no spoon.jpg', 'key': 'i', 'origWidth': 411, 'origHeight': 410, 'width': 411, 'height': 410, 'widthPercent': 0.45, 'rescaleHeight': False, 'trialN': 25, 'loaded': True, 'loadedTime': 4505.600000143051, 'positionName': 'RIGHT', 'positionCoords': [665.6, 155], 'bid': 5.82}]",43534.10000014305,1669830351380,blueberries,yogurt no spoon,6.0600000000000005,5.82,-0.2400000000000002,yogurt no spoon,773.1999998092651,773,773.6999998092651,True,i,44827.60000014305,1293.5,1669830352673,1293,,HRV,HRV_0087,2022-11-30 17:49:30
26,"[{'imgObject': {}, 'id': 'bagel plain', 'src': '/static/foodstim60/bagel plain.jpg', 'key': 'u', 'origWidth': 410, 'origHeight': 410, 'width': 410, 'height': 410, 'widthPercent': 0.45, 'rescaleHeight': False, 'trialN': 26, 'loaded': True, 'loadedTime': 4488.600000143051, 'positionName': 'LEFT', 'positionCoords': [204.4, 155], 'bid': 3.82}, {'imgObject': {}, 'id': 'baked potato', 'src': '/static/foodstim60/baked potato.jpg', 'key': 'i', 'origWidth': 409, 'origHeight': 410, 'width': 409, 'height': 410, 'widthPercent': 0.45, 'rescaleHeight': False, 'trialN': 26, 'loaded': True, 'loadedTime': 4475.400000095367, 'positionName': 'RIGHT', 'positionCoords': [665.6, 155], 'bid': 5.57}]",44827.799999952316,1669830352673,bagel plain,baked potato,3.82,5.57,1.7500000000000004,baked potato,985.3000001907349,986,985.8000001907349,True,i,46326.5,1498.7000000476837,1669830354172,1499,,HRV,HRV_0087,2022-11-30 17:49:30
27,"[{'imgObject': {}, 'id': 'raspberries', 'src': '/static/foodstim60/raspberries.jpg', 'key': 'u', 'origWidth': 411, 'origHeight': 411, 'width': 411, 'height': 411, 'widthPercent': 0.45, 'rescaleHeight': False, 'trialN': 27, 'loaded': True, 'loadedTime': 4505.700000047684, 'positionName': 'LEFT', 'positionCoords': [203.4, 154.5], 'bid': 6.07}, {'imgObject': {}, 'id': 'pear', 'src': '/static/foodstim60/pear.jpg', 'key': 'i', 'origWidth': 411, 'origHeight': 410, 'width': 411, 'height': 410, 'widthPercent': 0.45, 'rescaleHeight': False, 'trialN': 27, 'loaded': True, 'loadedTime': 4520.299999952316, 'positionName': 'RIGHT', 'positionCoords': [665.6, 155], 'bid': 3.51}]",46326.60000014305,1669830354172,raspberries,pear,6.07,3.51,-2.5600000000000005,raspberries,834.5,835,834.7999999523163,True,u,47669.5,1342.8999998569489,1669830355515,1343,,HRV,HRV_0087,2022-11-30 17:49:30
28,"[{'imgObject': {}, 'id': 'grilled chicken strips', 'src': '/static/foodstim60/grilled chicken strips.jpg', 'key': 'u', 'origWidth': 410, 'origHeight': 411, 'width': 410, 'height': 411, 'widthPercent': 0.45, 'rescaleHeight': False, 'trialN': 28, 'loaded': True, 'loadedTime': 4490.400000095367, 'positionName': 'LEFT', 'positionCoords': [204.4, 154.5], 'bid': 8.98}, {'imgObject': {}, 'id': 'avocado', 'src': '/static/foodstim60/avocado.jpg', 'key': 'i', 'origWidth': 409, 'origHeight': 409, 'width': 409, 'height': 409, 'widthPercent': 0.45, 'rescaleHeight': False, 'trialN': 28, 'loaded': True, 'loadedTime': 4491.100000143051, 'positionName': 'RIGHT', 'positionCoords': [665.6, 155.5], 'bid': 9.06}]",47669.60000014305,1669830355515,grilled chicken strips,avocado,8.98,9.06,0.08000000000000007,avocado,1561.7999999523163,1562,1561.8999998569489,True,i,49748.700000047684,2079.0999999046326,1669830357594,2079,,HRV,HRV_0087,2022-11-30 17:49:30
29,"[{'imgObject': {}, 'id': 'bagel plain', 'src': '/static/foodstim60/bagel plain.jpg', 'key': 'u', 'origWidth': 410, 'origHeight': 410, 'width': 410, 'height': 410, 'widthPercent': 0.45, 'rescaleHeight': False, 'trialN': 29, 'loaded': True, 'loadedTime': 4488.700000047684, 'positionName': 'LEFT', 'positionCoords': [204.4, 155], 'bid': 3.82}, {'imgObject': {}, 'id': 'kiwi', 'src': '/static/foodstim60/kiwi.jpg', 'key': 'i', 'origWidth': 410, 'origHeight': 410, 'width': 410, 'height': 410, 'widthPercent': 0.45, 'rescaleHeight': False, 'trialN': 29, 'loaded': True, 'loadedTime': 4487, 'positionName': 'RIGHT', 'positionCoords': [665.6, 155], 'bid': 6.43}]",49749.0,1669830357595,bagel plain,kiwi,3.82,6.43,2.61,kiwi,1337.2999999523163,1337,1337.7999999523163,True,i,51602.5,1853.5,1669830359448,1853,,HRV,HRV_0087,2022-11-30 17:49:30
30,"[{'imgObject': {}, 'id': 'rigatoni', 'src': '/static/foodstim60/rigatoni.jpg', 'key': 'u', 'origWidth': 411, 'origHeight': 411, 'width': 411, 'height': 411, 'widthPercent': 0.45, 'rescaleHeight': False, 'trialN': 30, 'loaded': True, 'loadedTime': 4521, 'positionName': 'LEFT', 'positionCoords': [203.4, 154.5], 'bid': 4.0600000000000005}, {'imgObject': {}, 'id': 'burrito', 'src': '/static/foodstim60/burrito.jpg', 'key': 'i', 'origWidth': 410, 'origHeight': 410, 'width': 410, 'height': 410, 'widthPercent': 0.45, 'rescaleHeight': False, 'trialN': 30, 'loaded': True, 'loadedTime': 4521.700000047684, 'positionName': 'RIGHT', 'positionCoords': [665.6, 155], 'bid': 8.120000000000001}]",51602.799999952316,1669830359448,rigatoni,burrito,4.0600000000000005,8.120000000000001,4.0600000000000005,burrito,808.2000000476837,809,808.6000001430511,True,i,52923.299999952316,1320.5,1669830360769,1321,,HRV,HRV_0087,2022-11-30 17:49:30
31,"[{'imgObject': {}, 'id': 'strawberries', 'src': '/static/foodstim60/strawberries.jpg', 'key': 'u', 'origWidth': 410, 'origHeight': 410, 'width': 410, 'height': 410, 'widthPercent': 0.45, 'rescaleHeight': False, 'trialN': 31, 'loaded': True, 'loadedTime': 4522.600000143051, 'positionName': 'LEFT', 'positionCoords': [204.4, 155], 'bid': 7.87}, {'imgObject': {}, 'id': 'banana', 'src': '/static/foodstim60/banana.jpg', 'key': 'i', 'origWidth': 410, 'origHeight': 410, 'width': 410, 'height': 410, 'widthPercent': 0.45, 'rescaleHeight': False, 'trialN': 31, 'loaded': True, 'loadedTime': 4532.400000095367, 'positionName': 'RIGHT', 'positionCoords': [665.6, 155], 'bid': 8}]",52923.5,1669830360769,strawberries,banana,7.87,8.0,0.1299999999999999,banana,751.6000001430511,752,752.0,True,i,54195.10000014305,1271.6000001430511,1669830362041,1272,,HRV,HRV_0087,2022-11-30 17:49:30
32,"[{'imgObject': {}, 'id': 'rigatoni', 'src': '/static/foodstim60/rigatoni.jpg', 'key': 'u', 'origWidth': 411, 'origHeight': 411, 'width': 411, 'height': 411, 'widthPercent': 0.45, 'rescaleHeight': False, 'trialN': 32, 'loaded': True, 'loadedTime': 4520.900000095367, 'positionName': 'LEFT', 'positionCoords': [203.4, 154.5], 'bid': 4.0600000000000005}, {'imgObject': {}, 'id': 'Tribe humus pita', 'src': '/static/foodstim60/Tribe humus pita.jpg', 'key': 'i', 'origWidth': 411, 'origHeight': 411, 'width': 411, 'height': 411, 'widthPercent': 0.45, 'rescaleHeight': False, 'trialN': 32, 'loaded': True, 'loadedTime': 4500.400000095367, 'positionName': 'RIGHT', 'positionCoords': [665.6, 154.5], 'bid': 3.89}]",54195.299999952316,1669830362041,rigatoni,Tribe humus pita,4.0600000000000005,3.89,-0.17000000000000037,Tribe humus pita,796.2000000476837,797,796.7000000476837,True,i,55505.0,1309.7000000476837,1669830363351,1310,,HRV,HRV_0087,2022-11-30 17:49:30
33,"[{'imgObject': {}, 'id': 'bagel plain', 'src': '/static/foodstim60/bagel plain.jpg', 'key': 'u', 'origWidth': 410, 'origHeight': 410, 'width': 410, 'height': 410, 'widthPercent': 0.45, 'rescaleHeight': False, 'trialN': 33, 'loaded': True, 'loadedTime': 4487.900000095367, 'positionName': 'LEFT', 'positionCoords': [204.4, 155], 'bid': 3.82}, {'imgObject': {}, 'id': 'mashed potato', 'src': '/static/foodstim60/mashed potato.jpg', 'key': 'i', 'origWidth': 409, 'origHeight': 409, 'width': 409, 'height': 409, 'widthPercent': 0.45, 'rescaleHeight': False, 'trialN': 33, 'loaded': True, 'loadedTime': 4431.299999952316, 'positionName': 'RIGHT', 'positionCoords': [665.6, 155.5], 'bid': 3.82}]",55505.10000014305,1669830363351,bagel plain,mashed potato,3.82,3.82,0.0,mashed potato,914.8999998569489,915,915.1999998092651,True,i,56933.200000047684,1428.0999999046326,1669830364779,1428,,HRV,HRV_0087,2022-11-30 17:49:30
34,"[{'imgObject': {}, 'id': 'corn cob', 'src': '/static/foodstim60/corn cob.jpg', 'key': 'u', 'origWidth': 411, 'origHeight': 411, 'width': 411, 'height': 411, 'widthPercent': 0.45, 'rescaleHeight': False, 'trialN': 34, 'loaded': True, 'loadedTime': 4537, 'positionName': 'LEFT', 'positionCoords': [203.4, 154.5], 'bid': 7.31}, {'imgObject': {}, 'id': 'strawberries', 'src': '/static/foodstim60/strawberries.jpg', 'key': 'i', 'origWidth': 410, 'origHeight': 410, 'width': 410, 'height': 410, 'widthPercent': 0.45, 'rescaleHeight': False, 'trialN': 34, 'loaded': True, 'loadedTime': 4522.600000143051, 'positionName': 'RIGHT', 'positionCoords': [665.6, 155], 'bid': 7.87}]",56933.5,1669830364779,corn cob,strawberries,7.31,7.87,0.5600000000000005,strawberries,761.7000000476837,762,762.2000000476837,True,i,58208.200000047684,1274.7000000476837,1669830366054,1275,,HRV,HRV_0087,2022-11-30 17:49:30
35,"[{'imgObject': {}, 'id': 'baked potato', 'src': '/static/foodstim60/baked potato.jpg', 'key': 'u', 'origWidth': 409, 'origHeight': 410, 'width': 409, 'height': 410, 'widthPercent': 0.45, 'rescaleHeight': False, 'trialN': 35, 'loaded': True, 'loadedTime': 4476, 'positionName': 'LEFT', 'positionCoords': [205.4, 155], 'bid': 5.57}, {'imgObject': {}, 'id': 'cherry tomato', 'src': '/static/foodstim60/cherry tomato.jpg', 'key': 'i', 'origWidth': 410, 'origHeight': 410, 'width': 410, 'height': 410, 'widthPercent': 0.45, 'rescaleHeight': False, 'trialN': 35, 'loaded': True, 'loadedTime': 4474.299999952316, 'positionName': 'RIGHT', 'positionCoords': [665.6, 155], 'bid': 4.14}]",58208.40000009537,1669830366054,baked potato,cherry tomato,5.57,4.14,-1.4300000000000006,baked potato,837.2999999523163,838,837.7000000476837,True,u,59555.299999952316,1346.8999998569489,1669830367401,1347,,HRV,HRV_0087,2022-11-30 17:49:30
36,"[{'imgObject': {}, 'id': 'blackbeanswithrice', 'src': '/static/foodstim60/blackbeanswithrice.jpg', 'key': 'u', 'origWidth': 410, 'origHeight': 410, 'width': 410, 'height': 410, 'widthPercent': 0.45, 'rescaleHeight': False, 'trialN': 36, 'loaded': True, 'loadedTime': 4459.400000095367, 'positionName': 'LEFT', 'positionCoords': [204.4, 155], 'bid': 3.03}, {'imgObject': {}, 'id': 'apple slices', 'src': '/static/foodstim60/apple slices.jpg', 'key': 'i', 'origWidth': 409, 'origHeight': 410, 'width': 409, 'height': 410, 'widthPercent': 0.45, 'rescaleHeight': False, 'trialN': 36, 'loaded': True, 'loadedTime': 4537.299999952316, 'positionName': 'RIGHT', 'positionCoords': [665.6, 155], 'bid': 3.78}]",59555.40000009537,1669830367401,blackbeanswithrice,apple slices,3.03,3.78,0.75,apple slices,809.0999999046326,810,809.5999999046326,True,i,60882.700000047684,1327.2999999523163,1669830368728,1327,,HRV,HRV_0087,2022-11-30 17:49:30
37,"[{'imgObject': {}, 'id': 'strawberries', 'src': '/static/foodstim60/strawberries.jpg', 'key': 'u', 'origWidth': 410, 'origHeight': 410, 'width': 410, 'height': 410, 'widthPercent': 0.45, 'rescaleHeight': False, 'trialN': 37, 'loaded': True, 'loadedTime': 4529.400000095367, 'positionName': 'LEFT', 'positionCoords': [204.4, 155], 'bid': 7.87}, {'imgObject': {}, 'id': 'seaweed', 'src': '/static/foodstim60/seaweed.jpg', 'key': 'i', 'origWidth': 410, 'origHeight': 410, 'width': 410, 'height': 410, 'widthPercent': 0.45, 'rescaleHeight': False, 'trialN': 37, 'loaded': True, 'loadedTime': 4373.5, 'positionName': 'RIGHT', 'positionCoords': [665.6, 155], 'bid': 7.62}]",60883.0,1669830368729,strawberries,seaweed,7.87,7.62,-0.25,seaweed,688.9000000953674,689,689.2999999523163,True,i,62081.299999952316,1198.2999999523163,1669830369927,1198,,HRV,HRV_0087,2022-11-30 17:49:30
38,"[{'imgObject': {}, 'id': 'chicken nuggets2', 'src': '/static/foodstim60/chicken nuggets2.jpg', 'key': 'u', 'origWidth': 410, 'origHeight': 409, 'width': 410, 'height': 409, 'widthPercent': 0.45, 'rescaleHeight': False, 'trialN': 38, 'loaded': True, 'loadedTime': 4408.600000143051, 'positionName': 'LEFT', 'positionCoords': [204.4, 155.5], 'bid': 8.82}, {'imgObject': {}, 'id': 'strawberries', 'src': '/static/foodstim60/strawberries.jpg', 'key': 'i', 'origWidth': 410, 'origHeight': 410, 'width': 410, 'height': 410, 'widthPercent': 0.45, 'rescaleHeight': False, 'trialN': 38, 'loaded': True, 'loadedTime': 4521.900000095367, 'positionName': 'RIGHT', 'positionCoords': [665.6, 155], 'bid': 7.87}]",62081.5,1669830369927,chicken nuggets2,strawberries,8.82,7.87,-0.9500000000000002,chicken nuggets2,889.2000000476837,890,889.5,True,u,63485.700000047684,1404.2000000476837,1669830371331,1404,,HRV,HRV_0087,2022-11-30 17:49:30
39,"[{'imgObject': {}, 'id': 'tacos', 'src': '/static/foodstim60/tacos.jpg', 'key': 'u', 'origWidth': 411, 'origHeight': 411, 'width': 411, 'height': 411, 'widthPercent': 0.45, 'rescaleHeight': False, 'trialN': 39, 'loaded': True, 'loadedTime': 4539, 'positionName': 'LEFT', 'positionCoords': [203.4, 154.5], 'bid': 8.51}, {'imgObject': {}, 'id': 'lox', 'src': '/static/foodstim60/lox.jpg', 'key': 'i', 'origWidth': 410, 'origHeight': 411, 'width': 410, 'height': 411, 'widthPercent': 0.45, 'rescaleHeight': False, 'trialN': 39, 'loaded': True, 'loadedTime': 4486, 'positionName': 'RIGHT', 'positionCoords': [665.6, 154.5], 'bid': 9.53}]",63485.799999952316,1669830371332,tacos,lox,8.51,9.53,1.0199999999999996,tacos,727.4000000953674,727,727.8000001907349,True,u,64722.700000047684,1236.9000000953674,1669830372568,1236,,HRV,HRV_0087,2022-11-30 17:49:30
40,"[{'imgObject': {}, 'id': 'cheerios', 'src': '/static/foodstim60/cheerios.jpg', 'key': 'u', 'origWidth': 409, 'origHeight': 410, 'width': 409, 'height': 410, 'widthPercent': 0.45, 'rescaleHeight': False, 'trialN': 40, 'loaded': True, 'loadedTime': 4487.700000047684, 'positionName': 'LEFT', 'positionCoords': [205.4, 155], 'bid': 2.96}, {'imgObject': {}, 'id': 'shreddedwheatwithmilk', 'src': '/static/foodstim60/shreddedwheatwithmilk.jpg', 'key': 'i', 'origWidth': 410, 'origHeight': 410, 'width': 410, 'height': 410, 'widthPercent': 0.45, 'rescaleHeight': False, 'trialN': 40, 'loaded': True, 'loadedTime': 4541.600000143051, 'positionName': 'RIGHT', 'positionCoords': [665.6, 155], 'bid': 3.5700000000000003}]",64723.0,1669830372569,cheerios,shreddedwheatwithmilk,2.96,3.5700000000000003,0.6100000000000003,shreddedwheatwithmilk,794.2999999523163,794,794.7000000476837,True,i,66030.0,1307.0,1669830373876,1307,,HRV,HRV_0087,2022-11-30 17:49:30
41,"[{'imgObject': {}, 'id': 'sushi w_condiments', 'src': '/static/foodstim60/sushi w_condiments.jpg', 'key': 'u', 'origWidth': 410, 'origHeight': 410, 'width': 410, 'height': 410, 'widthPercent': 0.45, 'rescaleHeight': False, 'trialN': 41, 'loaded': True, 'loadedTime': 4542.900000095367, 'positionName': 'LEFT', 'positionCoords': [204.4, 155], 'bid': 8.89}, {'imgObject': {}, 'id': 'chicken nuggets2', 'src': '/static/foodstim60/chicken nuggets2.jpg', 'key': 'i', 'origWidth': 410, 'origHeight': 409, 'width': 410, 'height': 409, 'widthPercent': 0.45, 'rescaleHeight': False, 'trialN': 41, 'loaded': True, 'loadedTime': 4408.5, 'positionName': 'RIGHT', 'positionCoords': [665.6, 155.5], 'bid': 8.82}]",66030.10000014305,1669830373876,sushi w_condiments,chicken nuggets2,8.89,8.82,-0.07000000000000028,chicken nuggets2,1073.7999999523163,1074,1074.2999999523163,True,i,67616.0,1585.8999998569489,1669830375462,1586,,HRV,HRV_0087,2022-11-30 17:49:30
42,"[{'imgObject': {}, 'id': 'ice cream sundae 002', 'src': '/static/foodstim60/ice cream sundae 002.jpg', 'key': 'u', 'origWidth': 409, 'origHeight': 409, 'width': 409, 'height': 409, 'widthPercent': 0.45, 'rescaleHeight': False, 'trialN': 42, 'loaded': True, 'loadedTime': 4543.700000047684, 'positionName': 'LEFT', 'positionCoords': [205.4, 155.5], 'bid': 8.700000000000001}, {'imgObject': {}, 'id': 'omelette', 'src': '/static/foodstim60/omelette.jpg', 'key': 'i', 'origWidth': 410, 'origHeight': 409, 'width': 410, 'height': 409, 'widthPercent': 0.45, 'rescaleHeight': False, 'trialN': 42, 'loaded': True, 'loadedTime': 4544.400000095367, 'positionName': 'RIGHT', 'positionCoords': [665.6, 155.5], 'bid': 7.2}]",67616.10000014305,1669830375462,ice cream sundae 002,omelette,8.700000000000001,7.2,-1.5000000000000009,omelette,857.1999998092651,857,857.6999998092651,True,i,68988.70000004768,1372.5999999046326,1669830376834,1372,,HRV,HRV_0087,2022-11-30 17:49:30
43,"[{'imgObject': {}, 'id': 'rigatoni and sauce', 'src': '/static/foodstim60/rigatoni and sauce.jpg', 'key': 'u', 'origWidth': 410, 'origHeight': 411, 'width': 410, 'height': 411, 'widthPercent': 0.45, 'rescaleHeight': False, 'trialN': 43, 'loaded': True, 'loadedTime': 4493, 'positionName': 'LEFT', 'positionCoords': [204.4, 154.5], 'bid': 7.37}, {'imgObject': {}, 'id': 'corn cob', 'src': '/static/foodstim60/corn cob.jpg', 'key': 'i', 'origWidth': 411, 'origHeight': 411, 'width': 411, 'height': 411, 'widthPercent': 0.45, 'rescaleHeight': False, 'trialN': 43, 'loaded': True, 'loadedTime': 4534.900000095367, 'positionName': 'RIGHT', 'positionCoords': [665.6, 154.5], 'bid': 7.31}]",68988.79999995232,1669830376835,rigatoni and sauce,corn cob,7.37,7.31,-0.0600000000000005,rigatoni and sauce,1232.9000000953674,1233,1233.6000001430511,True,u,70731.60000014305,1742.8000001907349,1669830378577,1742,,HRV,HRV_0087,2022-11-30 17:49:30
44,"[{'imgObject': {}, 'id': 'fried eggs', 'src': '/static/foodstim60/fried eggs.jpg', 'key': 'u', 'origWidth': 410, 'origHeight': 410, 'width': 410, 'height': 410, 'widthPercent': 0.45, 'rescaleHeight': False, 'trialN': 44, 'loaded': True, 'loadedTime': 4547, 'positionName': 'LEFT', 'positionCoords': [204.4, 155], 'bid': 6.25}, {'imgObject': {}, 'id': 'raspberries', 'src': '/static/foodstim60/raspberries.jpg', 'key': 'i', 'origWidth': 411, 'origHeight': 411, 'width': 411, 'height': 411, 'widthPercent': 0.45, 'rescaleHeight': False, 'trialN': 44, 'loaded': True, 'loadedTime': 4506.200000047684, 'positionName': 'RIGHT', 'positionCoords': [665.6, 154.5], 'bid': 6.07}]",70731.79999995232,1669830378577,fried eggs,raspberries,6.25,6.07,-0.17999999999999972,fried eggs,808.5,809,809.0,True,u,72056.20000004768,1324.4000000953674,1669830379902,1325,,HRV,HRV_0087,2022-11-30 17:49:30
45,"[{'imgObject': {}, 'id': 'Grapes', 'src': '/static/foodstim60/Grapes.jpg', 'key': 'u', 'origWidth': 411, 'origHeight': 411, 'width': 411, 'height': 411, 'widthPercent': 0.45, 'rescaleHeight': False, 'trialN': 45, 'loaded': True, 'loadedTime': 4547.799999952316, 'positionName': 'LEFT', 'positionCoords': [203.4, 154.5], 'bid': 6.3500000000000005}, {'imgObject': {}, 'id': 'corn cob', 'src': '/static/foodstim60/corn cob.jpg', 'key': 'i', 'origWidth': 411, 'origHeight': 411, 'width': 411, 'height': 411, 'widthPercent': 0.45, 'rescaleHeight': False, 'trialN': 45, 'loaded': True, 'loadedTime': 4537, 'positionName': 'RIGHT', 'positionCoords': [665.6, 154.5], 'bid': 7.31}]",72056.40000009537,1669830379902,Grapes,corn cob,6.3500000000000005,7.31,0.9599999999999991,corn cob,751.3999998569489,752,751.7999999523163,True,i,73321.20000004768,1264.7999999523163,1669830381167,1265,,HRV,HRV_0087,2022-11-30 17:49:30
46,"[{'imgObject': {}, 'id': 'omelette', 'src': '/static/foodstim60/omelette.jpg', 'key': 'u', 'origWidth': 410, 'origHeight': 409, 'width': 410, 'height': 409, 'widthPercent': 0.45, 'rescaleHeight': False, 'trialN': 46, 'loaded': True, 'loadedTime': 4544.5, 'positionName': 'LEFT', 'positionCoords': [204.4, 155.5], 'bid': 7.2}, {'imgObject': {}, 'id': 'eggsalad', 'src': '/static/foodstim60/eggsalad.jpg', 'key': 'i', 'origWidth': 410, 'origHeight': 409, 'width': 410, 'height': 409, 'widthPercent': 0.45, 'rescaleHeight': False, 'trialN': 46, 'loaded': True, 'loadedTime': 4548.600000143051, 'positionName': 'RIGHT', 'positionCoords': [665.6, 155.5], 'bid': 6.87}]",73321.40000009537,1669830381167,omelette,eggsalad,7.2,6.87,-0.33000000000000007,eggsalad,753.5999999046326,754,754.0,True,i,74592.79999995232,1271.3999998569489,1669830382439,1272,,HRV,HRV_0087,2022-11-30 17:49:30
47,"[{'imgObject': {}, 'id': 'banana', 'src': '/static/foodstim60/banana.jpg', 'key': 'u', 'origWidth': 410, 'origHeight': 410, 'width': 410, 'height': 410, 'widthPercent': 0.45, 'rescaleHeight': False, 'trialN': 47, 'loaded': True, 'loadedTime': 4531.5, 'positionName': 'LEFT', 'positionCoords': [204.4, 155], 'bid': 8}, {'imgObject': {}, 'id': 'roastedpotatoes', 'src': '/static/foodstim60/roastedpotatoes.jpg', 'key': 'i', 'origWidth': 409, 'origHeight': 410, 'width': 409, 'height': 410, 'widthPercent': 0.45, 'rescaleHeight': False, 'trialN': 47, 'loaded': True, 'loadedTime': 4550, 'positionName': 'RIGHT', 'positionCoords': [665.6, 155], 'bid': 7.81}]",74593.0,1669830382439,banana,roastedpotatoes,8.0,7.81,-0.1900000000000004,roastedpotatoes,1158.4000000953674,1158,1158.7000000476837,True,i,76256.10000014305,1663.1000001430511,1669830384102,1663,,HRV,HRV_0087,2022-11-30 17:49:30
48,"[{'imgObject': {}, 'id': 'chicken nuggets2', 'src': '/static/foodstim60/chicken nuggets2.jpg', 'key': 'u', 'origWidth': 410, 'origHeight': 409, 'width': 410, 'height': 409, 'widthPercent': 0.45, 'rescaleHeight': False, 'trialN': 48, 'loaded': True, 'loadedTime': 4408.600000143051, 'positionName': 'LEFT', 'positionCoords': [204.4, 155.5], 'bid': 8.82}, {'imgObject': {}, 'id': 'cherries', 'src': '/static/foodstim60/cherries.jpg', 'key': 'i', 'origWidth': 410, 'origHeight': 411, 'width': 410, 'height': 411, 'widthPercent': 0.45, 'rescaleHeight': False, 'trialN': 48, 'loaded': True, 'loadedTime': 4550, 'positionName': 'RIGHT', 'positionCoords': [665.6, 154.5], 'bid': 7.35}]",76256.40000009537,1669830384102,chicken nuggets2,cherries,8.82,7.35,-1.4700000000000006,chicken nuggets2,707.2999999523163,708,707.5,True,u,77474.0,1217.5999999046326,1669830385320,1218,,HRV,HRV_0087,2022-11-30 17:49:30
49,"[{'imgObject': {}, 'id': 'tacos', 'src': '/static/foodstim60/tacos.jpg', 'key': 'u', 'origWidth': 411, 'origHeight': 411, 'width': 411, 'height': 411, 'widthPercent': 0.45, 'rescaleHeight': False, 'trialN': 49, 'loaded': True, 'loadedTime': 4539.900000095367, 'positionName': 'LEFT', 'positionCoords': [203.4, 154.5], 'bid': 8.51}, {'imgObject': {}, 'id': 'sweetpotato', 'src': '/static/foodstim60/sweetpotato.jpg', 'key': 'i', 'origWidth': 410, 'origHeight': 410, 'width': 410, 'height': 410, 'widthPercent': 0.45, 'rescaleHeight': False, 'trialN': 49, 'loaded': True, 'loadedTime': 4476.900000095367, 'positionName': 'RIGHT', 'positionCoords': [665.6, 155], 'bid': 5.46}]",77474.20000004768,1669830385320,tacos,sweetpotato,8.51,5.46,-3.05,tacos,634.5,635,634.9000000953674,True,u,78622.60000014305,1148.4000000953674,1669830386468,1148,,HRV,HRV_0087,2022-11-30 17:49:30
50,"[{'imgObject': {}, 'id': 'bagel and cc', 'src': '/static/foodstim60/bagel and cc.jpg', 'key': 'u', 'origWidth': 410, 'origHeight': 410, 'width': 410, 'height': 410, 'widthPercent': 0.45, 'rescaleHeight': False, 'trialN': 50, 'loaded': True, 'loadedTime': 4551.700000047684, 'positionName': 'LEFT', 'positionCoords': [204.4, 155], 'bid': 4.0600000000000005}, {'imgObject': {}, 'id': 'cherry tomato', 'src': '/static/foodstim60/cherry tomato.jpg', 'key': 'i', 'origWidth': 410, 'origHeight': 410, 'width': 410, 'height': 410, 'widthPercent': 0.45, 'rescaleHeight': False, 'trialN': 50, 'loaded': True, 'loadedTime': 4474.299999952316, 'positionName': 'RIGHT', 'positionCoords': [665.6, 155], 'bid': 4.14}]",78622.90000009537,1669830386469,bagel and cc,cherry tomato,4.0600000000000005,4.14,0.07999999999999918,cherry tomato,752.7999999523163,753,753.2000000476837,True,i,79881.90000009537,1259.0,1669830387728,1259,,HRV,HRV_0087,2022-11-30 17:49:30
51,"[{'imgObject': {}, 'id': 'apple slices', 'src': '/static/foodstim60/apple slices.jpg', 'key': 'u', 'origWidth': 409, 'origHeight': 410, 'width': 409, 'height': 410, 'widthPercent': 0.45, 'rescaleHeight': False, 'trialN': 51, 'loaded': True, 'loadedTime': 4538.900000095367, 'positionName': 'LEFT', 'positionCoords': [205.4, 155], 'bid': 3.78}, {'imgObject': {}, 'id': 'granola w milk', 'src': '/static/foodstim60/granola w milk.jpg', 'key': 'i', 'origWidth': 410, 'origHeight': 410, 'width': 410, 'height': 410, 'widthPercent': 0.45, 'rescaleHeight': False, 'trialN': 51, 'loaded': True, 'loadedTime': 4494.299999952316, 'positionName': 'RIGHT', 'positionCoords': [665.6, 155], 'bid': 1.87}]",79882.20000004768,1669830387728,apple slices,granola w milk,3.78,1.87,-1.9099999999999997,apple slices,689.9000000953674,690,690.2000000476837,True,u,81080.70000004768,1198.5,1669830388926,1198,,HRV,HRV_0087,2022-11-30 17:49:30
52,"[{'imgObject': {}, 'id': 'mango', 'src': '/static/foodstim60/mango.jpg', 'key': 'u', 'origWidth': 411, 'origHeight': 411, 'width': 411, 'height': 411, 'widthPercent': 0.45, 'rescaleHeight': False, 'trialN': 52, 'loaded': True, 'loadedTime': 4482.299999952316, 'positionName': 'LEFT', 'positionCoords': [203.4, 154.5], 'bid': 7.53}, {'imgObject': {}, 'id': 'pear', 'src': '/static/foodstim60/pear.jpg', 'key': 'i', 'origWidth': 411, 'origHeight': 410, 'width': 411, 'height': 410, 'widthPercent': 0.45, 'rescaleHeight': False, 'trialN': 52, 'loaded': True, 'loadedTime': 4520.200000047684, 'positionName': 'RIGHT', 'positionCoords': [665.6, 155], 'bid': 3.51}]",81080.90000009537,1669830388927,mango,pear,7.53,3.51,-4.0200000000000005,mango,633.7999999523163,634,634.2999999523163,True,u,82221.29999995232,1140.3999998569489,1669830390067,1140,,HRV,HRV_0087,2022-11-30 17:49:30
53,"[{'imgObject': {}, 'id': 'cocktailshrimp', 'src': '/static/foodstim60/cocktailshrimp.jpg', 'key': 'u', 'origWidth': 410, 'origHeight': 410, 'width': 410, 'height': 410, 'widthPercent': 0.45, 'rescaleHeight': False, 'trialN': 53, 'loaded': True, 'loadedTime': 4554.299999952316, 'positionName': 'LEFT', 'positionCoords': [204.4, 155], 'bid': 8.25}, {'imgObject': {}, 'id': 'burrito', 'src': '/static/foodstim60/burrito.jpg', 'key': 'i', 'origWidth': 410, 'origHeight': 410, 'width': 410, 'height': 410, 'widthPercent': 0.45, 'rescaleHeight': False, 'trialN': 53, 'loaded': True, 'loadedTime': 4521.799999952316, 'positionName': 'RIGHT', 'positionCoords': [665.6, 155], 'bid': 8.120000000000001}]",82221.5,1669830390067,cocktailshrimp,burrito,8.25,8.120000000000001,-0.129999999999999,cocktailshrimp,973,974,973.5,True,u,83704.70000004768,1483.2000000476837,1669830391550,1483,,HRV,HRV_0087,2022-11-30 17:49:30
54,"[{'imgObject': {}, 'id': 'cantaloupe', 'src': '/static/foodstim60/cantaloupe.jpg', 'key': 'u', 'origWidth': 409, 'origHeight': 409, 'width': 409, 'height': 409, 'widthPercent': 0.45, 'rescaleHeight': False, 'trialN': 54, 'loaded': True, 'loadedTime': 4432, 'positionName': 'LEFT', 'positionCoords': [205.4, 155.5], 'bid': 5.92}, {'imgObject': {}, 'id': 'popsicles', 'src': '/static/foodstim60/popsicles.jpg', 'key': 'i', 'origWidth': 410, 'origHeight': 410, 'width': 410, 'height': 410, 'widthPercent': 0.45, 'rescaleHeight': False, 'trialN': 54, 'loaded': True, 'loadedTime': 4475.299999952316, 'positionName': 'RIGHT', 'positionCoords': [665.6, 155], 'bid': 3.45}]",83704.79999995232,1669830391551,cantaloupe,popsicles,5.92,3.45,-2.4699999999999998,cantaloupe,698.9000000953674,699,699.4000000953674,True,u,84913.20000004768,1208.4000000953674,1669830392759,1208,,HRV,HRV_0087,2022-11-30 17:49:30
55,"[{'imgObject': {}, 'id': 'banana', 'src': '/static/foodstim60/banana.jpg', 'key': 'u', 'origWidth': 410, 'origHeight': 410, 'width': 410, 'height': 410, 'widthPercent': 0.45, 'rescaleHeight': False, 'trialN': 55, 'loaded': True, 'loadedTime': 4532.200000047684, 'positionName': 'LEFT', 'positionCoords': [204.4, 155], 'bid': 8}, {'imgObject': {}, 'id': 'sushi w_condiments', 'src': '/static/foodstim60/sushi w_condiments.jpg', 'key': 'i', 'origWidth': 410, 'origHeight': 410, 'width': 410, 'height': 410, 'widthPercent': 0.45, 'rescaleHeight': False, 'trialN': 55, 'loaded': True, 'loadedTime': 4543, 'positionName': 'RIGHT', 'positionCoords': [665.6, 155], 'bid': 8.89}]",84913.5,1669830392759,banana,sushi w_condiments,8.0,8.89,0.8900000000000006,sushi w_condiments,855.7000000476837,856,856.2999999523163,True,i,86285.60000014305,1372.1000001430511,1669830394131,1372,,HRV,HRV_0087,2022-11-30 17:49:30
56,"[{'imgObject': {}, 'id': 'yogurt no spoon', 'src': '/static/foodstim60/yogurt no spoon.jpg', 'key': 'u', 'origWidth': 411, 'origHeight': 410, 'width': 411, 'height': 410, 'widthPercent': 0.45, 'rescaleHeight': False, 'trialN': 56, 'loaded': True, 'loadedTime': 4505.700000047684, 'positionName': 'LEFT', 'positionCoords': [203.4, 155], 'bid': 5.82}, {'imgObject': {}, 'id': 'turkeysandwich', 'src': '/static/foodstim60/turkeysandwich.jpg', 'key': 'i', 'origWidth': 409, 'origHeight': 409, 'width': 409, 'height': 409, 'widthPercent': 0.45, 'rescaleHeight': False, 'trialN': 56, 'loaded': True, 'loadedTime': 4401.400000095367, 'positionName': 'RIGHT', 'positionCoords': [665.6, 155.5], 'bid': 8.75}]",86285.79999995232,1669830394132,yogurt no spoon,turkeysandwich,5.82,8.75,2.9299999999999997,turkeysandwich,805.9000000953674,806,806.3000001907349,True,i,87607.20000004768,1321.4000000953674,1669830395453,1321,,HRV,HRV_0087,2022-11-30 17:49:30
57,"[{'imgObject': {}, 'id': 'chickenfingers', 'src': '/static/foodstim60/chickenfingers.jpg', 'key': 'u', 'origWidth': 410, 'origHeight': 410, 'width': 410, 'height': 410, 'widthPercent': 0.45, 'rescaleHeight': False, 'trialN': 57, 'loaded': True, 'loadedTime': 4501.200000047684, 'positionName': 'LEFT', 'positionCoords': [204.4, 155], 'bid': 9.43}, {'imgObject': {}, 'id': 'steak', 'src': '/static/foodstim60/steak.jpg', 'key': 'i', 'origWidth': 410, 'origHeight': 410, 'width': 410, 'height': 410, 'widthPercent': 0.45, 'rescaleHeight': False, 'trialN': 57, 'loaded': True, 'loadedTime': 4497, 'positionName': 'RIGHT', 'positionCoords': [665.6, 155], 'bid': 9.25}]",87607.40000009537,1669830395453,chickenfingers,steak,9.43,9.25,-0.17999999999999972,chickenfingers,1355.0999999046326,1356,1355.5,True,u,89465.29999995232,1857.8999998569489,1669830397311,1858,,HRV,HRV_0087,2022-11-30 17:49:30
58,"[{'imgObject': {}, 'id': 'hashbrowns', 'src': '/static/foodstim60/hashbrowns.jpg', 'key': 'u', 'origWidth': 411, 'origHeight': 410, 'width': 411, 'height': 410, 'widthPercent': 0.45, 'rescaleHeight': False, 'trialN': 58, 'loaded': True, 'loadedTime': 4556, 'positionName': 'LEFT', 'positionCoords': [203.4, 155], 'bid': 3.48}, {'imgObject': {}, 'id': 'sweetpotato', 'src': '/static/foodstim60/sweetpotato.jpg', 'key': 'i', 'origWidth': 410, 'origHeight': 410, 'width': 410, 'height': 410, 'widthPercent': 0.45, 'rescaleHeight': False, 'trialN': 58, 'loaded': True, 'loadedTime': 4476.799999952316, 'positionName': 'RIGHT', 'positionCoords': [665.6, 155], 'bid': 5.46}]",89465.5,1669830397311,hashbrowns,sweetpotato,3.48,5.46,1.98,sweetpotato,968.7999999523163,970,969.4000000953674,True,i,90939.79999995232,1474.2999999523163,1669830398786,1475,,HRV,HRV_0087,2022-11-30 17:49:30
59,"[{'imgObject': {}, 'id': 'olives', 'src': '/static/foodstim60/olives.jpg', 'key': 'u', 'origWidth': 410, 'origHeight': 410, 'width': 410, 'height': 410, 'widthPercent': 0.45, 'rescaleHeight': False, 'trialN': 59, 'loaded': True, 'loadedTime': 4495.900000095367, 'positionName': 'LEFT', 'positionCoords': [204.4, 155], 'bid': 5.71}, {'imgObject': {}, 'id': 'Tribe humus pita', 'src': '/static/foodstim60/Tribe humus pita.jpg', 'key': 'i', 'origWidth': 411, 'origHeight': 411, 'width': 411, 'height': 411, 'widthPercent': 0.45, 'rescaleHeight': False, 'trialN': 59, 'loaded': True, 'loadedTime': 4499.5, 'positionName': 'RIGHT', 'positionCoords': [665.6, 154.5], 'bid': 3.89}]",90940.0,1669830398786,olives,Tribe humus pita,5.71,3.89,-1.8199999999999998,olives,1042.2999999523163,1042,1042.6000001430511,True,u,92498.0,1558.0,1669830400344,1558,,HRV,HRV_0087,2022-11-30 17:49:30
60,"[{'imgObject': {}, 'id': 'fruitsalad', 'src': '/static/foodstim60/fruitsalad.jpg', 'key': 'u', 'origWidth': 410, 'origHeight': 410, 'width': 410, 'height': 410, 'widthPercent': 0.45, 'rescaleHeight': False, 'trialN': 60, 'loaded': True, 'loadedTime': 4478, 'positionName': 'LEFT', 'positionCoords': [204.4, 155], 'bid': 6.71}, {'imgObject': {}, 'id': 'raspberries', 'src': '/static/foodstim60/raspberries.jpg', 'key': 'i', 'origWidth': 411, 'origHeight': 411, 'width': 411, 'height': 411, 'widthPercent': 0.45, 'rescaleHeight': False, 'trialN': 60, 'loaded': True, 'loadedTime': 4506.299999952316, 'positionName': 'RIGHT', 'positionCoords': [665.6, 154.5], 'bid': 6.07}]",92498.10000014305,1669830400344,fruitsalad,raspberries,6.71,6.07,-0.6399999999999997,fruitsalad,668.2999999523163,669,668.7999999523163,True,u,93677.10000014305,1179.0,1669830401523,1179,,HRV,HRV_0087,2022-11-30 17:49:30
61,"[{'imgObject': {}, 'id': 'cocktailshrimp', 'src': '/static/foodstim60/cocktailshrimp.jpg', 'key': 'u', 'origWidth': 410, 'origHeight': 410, 'width': 410, 'height': 410, 'widthPercent': 0.45, 'rescaleHeight': False, 'trialN': 61, 'loaded': True, 'loadedTime': 4553.299999952316, 'positionName': 'LEFT', 'positionCoords': [204.4, 155], 'bid': 8.25}, {'imgObject': {}, 'id': 'chickenfingers', 'src': '/static/foodstim60/chickenfingers.jpg', 'key': 'i', 'origWidth': 410, 'origHeight': 410, 'width': 410, 'height': 410, 'widthPercent': 0.45, 'rescaleHeight': False, 'trialN': 61, 'loaded': True, 'loadedTime': 4501.299999952316, 'positionName': 'RIGHT', 'positionCoords': [665.6, 155], 'bid': 9.43}]",93677.29999995232,1669830401523,cocktailshrimp,chickenfingers,8.25,9.43,1.1799999999999997,chickenfingers,1110.4000000953674,1111,1110.8000001907349,True,i,95304.40000009537,1627.1000001430511,1669830403150,1627,,HRV,HRV_0087,2022-11-30 17:49:30
62,"[{'imgObject': {}, 'id': 'kiwi', 'src': '/static/foodstim60/kiwi.jpg', 'key': 'u', 'origWidth': 410, 'origHeight': 410, 'width': 410, 'height': 410, 'widthPercent': 0.45, 'rescaleHeight': False, 'trialN': 62, 'loaded': True, 'loadedTime': 4486.799999952316, 'positionName': 'LEFT', 'positionCoords': [204.4, 155], 'bid': 6.43}, {'imgObject': {}, 'id': 'rigatoni and sauce', 'src': '/static/foodstim60/rigatoni and sauce.jpg', 'key': 'i', 'origWidth': 410, 'origHeight': 411, 'width': 410, 'height': 411, 'widthPercent': 0.45, 'rescaleHeight': False, 'trialN': 62, 'loaded': True, 'loadedTime': 4493, 'positionName': 'RIGHT', 'positionCoords': [665.6, 154.5], 'bid': 7.37}]",95304.60000014305,1669830403150,kiwi,rigatoni and sauce,6.43,7.37,0.9400000000000004,rigatoni and sauce,918.8999998569489,920,919.5,True,i,96733.60000014305,1429.0,1669830404579,1429,,HRV,HRV_0087,2022-11-30 17:49:30
63,"[{'imgObject': {}, 'id': 'hotdog w must', 'src': '/static/foodstim60/hotdog w must.jpg', 'key': 'u', 'origWidth': 409, 'origHeight': 409, 'width': 409, 'height': 409, 'widthPercent': 0.45, 'rescaleHeight': False, 'trialN': 63, 'loaded': True, 'loadedTime': 4477.700000047684, 'positionName': 'LEFT', 'positionCoords': [205.4, 155.5], 'bid': 6.8500000000000005}, {'imgObject': {}, 'id': 'mac & cheese', 'src': '/static/foodstim60/mac & cheese.jpg', 'key': 'i', 'origWidth': 410, 'origHeight': 410, 'width': 410, 'height': 410, 'widthPercent': 0.45, 'rescaleHeight': False, 'trialN': 63, 'loaded': True, 'loadedTime': 4410.200000047684, 'positionName': 'RIGHT', 'positionCoords': [665.6, 155], 'bid': 8.21}]",96733.79999995232,1669830404580,hotdog w must,mac & cheese,6.8500000000000005,8.21,1.3600000000000003,hotdog w must,992.6000001430511,993,993.1000001430511,True,u,98240.10000014305,1506.3000001907349,1669830406086,1506,,HRV,HRV_0087,2022-11-30 17:49:30
64,"[{'imgObject': {}, 'id': 'eggsalad', 'src': '/static/foodstim60/eggsalad.jpg', 'key': 'u', 'origWidth': 410, 'origHeight': 409, 'width': 410, 'height': 409, 'widthPercent': 0.45, 'rescaleHeight': False, 'trialN': 64, 'loaded': True, 'loadedTime': 4548.600000143051, 'positionName': 'LEFT', 'positionCoords': [204.4, 155.5], 'bid': 6.87}, {'imgObject': {}, 'id': 'froot loops w milk', 'src': '/static/foodstim60/froot loops w milk.jpg', 'key': 'i', 'origWidth': 410, 'origHeight': 410, 'width': 410, 'height': 410, 'widthPercent': 0.45, 'rescaleHeight': False, 'trialN': 64, 'loaded': True, 'loadedTime': 4556.900000095367, 'positionName': 'RIGHT', 'positionCoords': [665.6, 155], 'bid': 2.09}]",98240.29999995232,1669830406086,eggsalad,froot loops w milk,6.87,2.09,-4.78,eggsalad,747,748,747.6000001430511,True,u,99506.29999995232,1266.0,1669830407352,1266,,HRV,HRV_0087,2022-11-30 17:49:30
65,"[{'imgObject': {}, 'id': 'burger', 'src': '/static/foodstim60/burger.jpg', 'key': 'u', 'origWidth': 409, 'origHeight': 409, 'width': 409, 'height': 409, 'widthPercent': 0.45, 'rescaleHeight': False, 'trialN': 65, 'loaded': True, 'loadedTime': 4501.900000095367, 'positionName': 'LEFT', 'positionCoords': [205.4, 155.5], 'bid': 9.71}, {'imgObject': {}, 'id': 'salad w chicken', 'src': '/static/foodstim60/salad w chicken.jpg', 'key': 'i', 'origWidth': 411, 'origHeight': 411, 'width': 411, 'height': 411, 'widthPercent': 0.45, 'rescaleHeight': False, 'trialN': 65, 'loaded': True, 'loadedTime': 4484.799999952316, 'positionName': 'RIGHT', 'positionCoords': [665.6, 154.5], 'bid': 6.5600000000000005}]",99506.5,1669830407352,burger,salad w chicken,9.71,6.5600000000000005,-3.1500000000000004,burger,982.2999999523163,983,982.7000000476837,True,u,100995.70000004768,1489.2000000476837,1669830408841,1489,,HRV,HRV_0087,2022-11-30 17:49:30
66,"[{'imgObject': {}, 'id': 'strawberries', 'src': '/static/foodstim60/strawberries.jpg', 'key': 'u', 'origWidth': 410, 'origHeight': 410, 'width': 410, 'height': 410, 'widthPercent': 0.45, 'rescaleHeight': False, 'trialN': 66, 'loaded': True, 'loadedTime': 4522.5, 'positionName': 'LEFT', 'positionCoords': [204.4, 155], 'bid': 7.87}, {'imgObject': {}, 'id': 'mashed potato', 'src': '/static/foodstim60/mashed potato.jpg', 'key': 'i', 'origWidth': 409, 'origHeight': 409, 'width': 409, 'height': 409, 'widthPercent': 0.45, 'rescaleHeight': False, 'trialN': 66, 'loaded': True, 'loadedTime': 4431.400000095367, 'positionName': 'RIGHT', 'positionCoords': [665.6, 155.5], 'bid': 3.82}]",100995.90000009537,1669830408842,strawberries,mashed potato,7.87,3.82,-4.050000000000001,strawberries,908.2999999523163,908,908.7000000476837,True,u,102414.0,1418.0999999046326,1669830410260,1418,,HRV,HRV_0087,2022-11-30 17:49:30
67,"[{'imgObject': {}, 'id': 'raisin bran w milk', 'src': '/static/foodstim60/raisin bran w milk.jpg', 'key': 'u', 'origWidth': 411, 'origHeight': 411, 'width': 411, 'height': 411, 'widthPercent': 0.45, 'rescaleHeight': False, 'trialN': 67, 'loaded': True, 'loadedTime': 4460.200000047684, 'positionName': 'LEFT', 'positionCoords': [203.4, 154.5], 'bid': 7.28}, {'imgObject': {}, 'id': 'turkey sandwich', 'src': '/static/foodstim60/turkey sandwich.jpg', 'key': 'i', 'origWidth': 409, 'origHeight': 409, 'width': 409, 'height': 409, 'widthPercent': 0.45, 'rescaleHeight': False, 'trialN': 67, 'loaded': True, 'loadedTime': 4427.700000047684, 'positionName': 'RIGHT', 'positionCoords': [665.6, 155.5], 'bid': 7.18}]",102414.29999995232,1669830410260,raisin bran w milk,turkey sandwich,7.28,7.18,-0.10000000000000053,turkey sandwich,844.8000001907349,845,845.2000000476837,True,i,103776.0,1361.7000000476837,1669830411622,1362,,HRV,HRV_0087,2022-11-30 17:49:30
68,"[{'imgObject': {}, 'id': 'tacos', 'src': '/static/foodstim60/tacos.jpg', 'key': 'u', 'origWidth': 411, 'origHeight': 411, 'width': 411, 'height': 411, 'widthPercent': 0.45, 'rescaleHeight': False, 'trialN': 68, 'loaded': True, 'loadedTime': 4539.799999952316, 'positionName': 'LEFT', 'positionCoords': [203.4, 154.5], 'bid': 8.51}, {'imgObject': {}, 'id': 'grilled chicken strips', 'src': '/static/foodstim60/grilled chicken strips.jpg', 'key': 'i', 'origWidth': 410, 'origHeight': 411, 'width': 410, 'height': 411, 'widthPercent': 0.45, 'rescaleHeight': False, 'trialN': 68, 'loaded': True, 'loadedTime': 4490.299999952316, 'positionName': 'RIGHT', 'positionCoords': [665.6, 154.5], 'bid': 8.98}]",103776.10000014305,1669830411622,tacos,grilled chicken strips,8.51,8.98,0.47000000000000064,grilled chicken strips,700.1999998092651,701,700.5999999046326,True,i,104991.40000009537,1215.2999999523163,1669830412837,1215,,HRV,HRV_0087,2022-11-30 17:49:30
69,"[{'imgObject': {}, 'id': 'ice cream sundae 002', 'src': '/static/foodstim60/ice cream sundae 002.jpg', 'key': 'u', 'origWidth': 409, 'origHeight': 409, 'width': 409, 'height': 409, 'widthPercent': 0.45, 'rescaleHeight': False, 'trialN': 69, 'loaded': True, 'loadedTime': 4543.900000095367, 'positionName': 'LEFT', 'positionCoords': [205.4, 155.5], 'bid': 8.700000000000001}, {'imgObject': {}, 'id': 'avocado', 'src': '/static/foodstim60/avocado.jpg', 'key': 'i', 'origWidth': 409, 'origHeight': 409, 'width': 409, 'height': 409, 'widthPercent': 0.45, 'rescaleHeight': False, 'trialN': 69, 'loaded': True, 'loadedTime': 4490.900000095367, 'positionName': 'RIGHT', 'positionCoords': [665.6, 155.5], 'bid': 9.06}]",104991.60000014305,1669830412837,ice cream sundae 002,avocado,8.700000000000001,9.06,0.35999999999999943,avocado,1190.2999999523163,1191,1190.7999999523163,True,i,106702.29999995232,1710.6999998092651,1669830414548,1711,,HRV,HRV_0087,2022-11-30 17:49:30
70,"[{'imgObject': {}, 'id': 'edamame', 'src': '/static/foodstim60/edamame.jpg', 'key': 'u', 'origWidth': 409, 'origHeight': 410, 'width': 409, 'height': 410, 'widthPercent': 0.45, 'rescaleHeight': False, 'trialN': 70, 'loaded': True, 'loadedTime': 4463.5, 'positionName': 'LEFT', 'positionCoords': [205.4, 155], 'bid': 0.96}, {'imgObject': {}, 'id': 'rigatoni', 'src': '/static/foodstim60/rigatoni.jpg', 'key': 'i', 'origWidth': 411, 'origHeight': 411, 'width': 411, 'height': 411, 'widthPercent': 0.45, 'rescaleHeight': False, 'trialN': 70, 'loaded': True, 'loadedTime': 4521.100000143051, 'positionName': 'RIGHT', 'positionCoords': [665.6, 154.5], 'bid': 4.0600000000000005}]",106702.5,1669830414548,edamame,rigatoni,0.96,4.0600000000000005,3.1000000000000005,rigatoni,900.9000000953674,901,901.1000001430511,True,i,108122.40000009537,1419.9000000953674,1669830415968,1420,,HRV,HRV_0087,2022-11-30 17:49:30
71,"[{'imgObject': {}, 'id': 'eggsalad', 'src': '/static/foodstim60/eggsalad.jpg', 'key': 'u', 'origWidth': 410, 'origHeight': 409, 'width': 410, 'height': 409, 'widthPercent': 0.45, 'rescaleHeight': False, 'trialN': 71, 'loaded': True, 'loadedTime': 4548, 'positionName': 'LEFT', 'positionCoords': [204.4, 155.5], 'bid': 6.87}, {'imgObject': {}, 'id': 'Grapes', 'src': '/static/foodstim60/Grapes.jpg', 'key': 'i', 'origWidth': 411, 'origHeight': 411, 'width': 411, 'height': 411, 'widthPercent': 0.45, 'rescaleHeight': False, 'trialN': 71, 'loaded': True, 'loadedTime': 4547.799999952316, 'positionName': 'RIGHT', 'positionCoords': [665.6, 154.5], 'bid': 6.3500000000000005}]",108122.60000014305,1669830415968,eggsalad,Grapes,6.87,6.3500000000000005,-0.5199999999999996,eggsalad,754.5,755,754.8999998569489,True,u,109389.5,1266.8999998569489,1669830417235,1267,,HRV,HRV_0087,2022-11-30 17:49:30
72,"[{'imgObject': {}, 'id': 'raspberries', 'src': '/static/foodstim60/raspberries.jpg', 'key': 'u', 'origWidth': 411, 'origHeight': 411, 'width': 411, 'height': 411, 'widthPercent': 0.45, 'rescaleHeight': False, 'trialN': 72, 'loaded': True, 'loadedTime': 4519.100000143051, 'positionName': 'LEFT', 'positionCoords': [203.4, 154.5], 'bid': 6.07}, {'imgObject': {}, 'id': 'omelette', 'src': '/static/foodstim60/omelette.jpg', 'key': 'i', 'origWidth': 410, 'origHeight': 409, 'width': 410, 'height': 409, 'widthPercent': 0.45, 'rescaleHeight': False, 'trialN': 72, 'loaded': True, 'loadedTime': 4543.900000095367, 'positionName': 'RIGHT', 'positionCoords': [665.6, 155.5], 'bid': 7.2}]",109389.79999995232,1669830417236,raspberries,omelette,6.07,7.2,1.13,raspberries,744.9000000953674,745,745.4000000953674,True,u,110647.5,1257.7000000476837,1669830418493,1257,,HRV,HRV_0087,2022-11-30 17:49:30
73,"[{'imgObject': {}, 'id': 'Grapes', 'src': '/static/foodstim60/Grapes.jpg', 'key': 'u', 'origWidth': 411, 'origHeight': 411, 'width': 411, 'height': 411, 'widthPercent': 0.45, 'rescaleHeight': False, 'trialN': 73, 'loaded': True, 'loadedTime': 4548, 'positionName': 'LEFT', 'positionCoords': [203.4, 154.5], 'bid': 6.3500000000000005}, {'imgObject': {}, 'id': 'raspberries', 'src': '/static/foodstim60/raspberries.jpg', 'key': 'i', 'origWidth': 411, 'origHeight': 411, 'width': 411, 'height': 411, 'widthPercent': 0.45, 'rescaleHeight': False, 'trialN': 73, 'loaded': True, 'loadedTime': 4506.299999952316, 'positionName': 'RIGHT', 'positionCoords': [665.6, 154.5], 'bid': 6.07}]",110647.70000004768,1669830418494,Grapes,raspberries,6.3500000000000005,6.07,-0.28000000000000025,raspberries,932.0999999046326,932,932.5999999046326,True,i,112088.0,1440.2999999523163,1669830419934,1440,,HRV,HRV_0087,2022-11-30 17:49:30
74,"[{'imgObject': {}, 'id': 'rigatoni and sauce', 'src': '/static/foodstim60/rigatoni and sauce.jpg', 'key': 'u', 'origWidth': 410, 'origHeight': 411, 'width': 410, 'height': 411, 'widthPercent': 0.45, 'rescaleHeight': False, 'trialN': 74, 'loaded': True, 'loadedTime': 4493, 'positionName': 'LEFT', 'positionCoords': [204.4, 154.5], 'bid': 7.37}, {'imgObject': {}, 'id': 'hashbrowns', 'src': '/static/foodstim60/hashbrowns.jpg', 'key': 'i', 'origWidth': 411, 'origHeight': 410, 'width': 411, 'height': 410, 'widthPercent': 0.45, 'rescaleHeight': False, 'trialN': 74, 'loaded': True, 'loadedTime': 4556, 'positionName': 'RIGHT', 'positionCoords': [665.6, 155], 'bid': 3.48}]",112088.29999995232,1669830419934,rigatoni and sauce,hashbrowns,7.37,3.48,-3.89,rigatoni and sauce,743.8000001907349,744,744.2000000476837,True,u,113337.10000014305,1248.8000001907349,1669830421183,1249,,HRV,HRV_0087,2022-11-30 17:49:30
75,"[{'imgObject': {}, 'id': 'kiwi', 'src': '/static/foodstim60/kiwi.jpg', 'key': 'u', 'origWidth': 410, 'origHeight': 410, 'width': 410, 'height': 410, 'widthPercent': 0.45, 'rescaleHeight': False, 'trialN': 75, 'loaded': True, 'loadedTime': 4486.799999952316, 'positionName': 'LEFT', 'positionCoords': [204.4, 155], 'bid': 6.43}, {'imgObject': {}, 'id': 'salad w chicken', 'src': '/static/foodstim60/salad w chicken.jpg', 'key': 'i', 'origWidth': 411, 'origHeight': 411, 'width': 411, 'height': 411, 'widthPercent': 0.45, 'rescaleHeight': False, 'trialN': 75, 'loaded': True, 'loadedTime': 4482.600000143051, 'positionName': 'RIGHT', 'positionCoords': [665.6, 154.5], 'bid': 6.5600000000000005}]",113337.40000009537,1669830421183,kiwi,salad w chicken,6.43,6.5600000000000005,0.13000000000000078,kiwi,874.2000000476837,875,874.5999999046326,True,u,114731.29999995232,1393.8999998569489,1669830422577,1394,,HRV,HRV_0087,2022-11-30 17:49:30
76,"[{'imgObject': {}, 'id': 'shreddedwheatwithmilk', 'src': '/static/foodstim60/shreddedwheatwithmilk.jpg', 'key': 'u', 'origWidth': 410, 'origHeight': 410, 'width': 410, 'height': 410, 'widthPercent': 0.45, 'rescaleHeight': False, 'trialN': 76, 'loaded': True, 'loadedTime': 4541.299999952316, 'positionName': 'LEFT', 'positionCoords': [204.4, 155], 'bid': 3.5700000000000003}, {'imgObject': {}, 'id': 'fried eggs', 'src': '/static/foodstim60/fried eggs.jpg', 'key': 'i', 'origWidth': 410, 'origHeight': 410, 'width': 410, 'height': 410, 'widthPercent': 0.45, 'rescaleHeight': False, 'trialN': 76, 'loaded': True, 'loadedTime': 4547, 'positionName': 'RIGHT', 'positionCoords': [665.6, 155], 'bid': 6.25}]",114731.5,1669830422577,shreddedwheatwithmilk,fried eggs,3.5700000000000003,6.25,2.6799999999999997,fried eggs,755.2999999523163,756,755.7000000476837,True,i,115997.90000009537,1266.4000000953674,1669830423844,1267,,HRV,HRV_0087,2022-11-30 17:49:30
77,"[{'imgObject': {}, 'id': 'ice cream sundae 002', 'src': '/static/foodstim60/ice cream sundae 002.jpg', 'key': 'u', 'origWidth': 409, 'origHeight': 409, 'width': 409, 'height': 409, 'widthPercent': 0.45, 'rescaleHeight': False, 'trialN': 77, 'loaded': True, 'loadedTime': 4543.5, 'positionName': 'LEFT', 'positionCoords': [205.4, 155.5], 'bid': 8.700000000000001}, {'imgObject': {}, 'id': 'baked potato', 'src': '/static/foodstim60/baked potato.jpg', 'key': 'i', 'origWidth': 409, 'origHeight': 410, 'width': 409, 'height': 410, 'widthPercent': 0.45, 'rescaleHeight': False, 'trialN': 77, 'loaded': True, 'loadedTime': 4476.200000047684, 'positionName': 'RIGHT', 'positionCoords': [665.6, 155], 'bid': 5.57}]",115998.10000014305,1669830423844,ice cream sundae 002,baked potato,8.700000000000001,5.57,-3.130000000000001,ice cream sundae 002,724.3999998569489,725,724.5999999046326,True,u,117225.70000004768,1227.5999999046326,1669830425071,1227,,HRV,HRV_0087,2022-11-30 17:49:30
78,"[{'imgObject': {}, 'id': 'cherries', 'src': '/static/foodstim60/cherries.jpg', 'key': 'u', 'origWidth': 410, 'origHeight': 411, 'width': 410, 'height': 411, 'widthPercent': 0.45, 'rescaleHeight': False, 'trialN': 78, 'loaded': True, 'loadedTime': 4548.700000047684, 'positionName': 'LEFT', 'positionCoords': [204.4, 154.5], 'bid': 7.35}, {'imgObject': {}, 'id': 'popsicles', 'src': '/static/foodstim60/popsicles.jpg', 'key': 'i', 'origWidth': 410, 'origHeight': 410, 'width': 410, 'height': 410, 'widthPercent': 0.45, 'rescaleHeight': False, 'trialN': 78, 'loaded': True, 'loadedTime': 4474.5, 'positionName': 'RIGHT', 'positionCoords': [665.6, 155], 'bid': 3.45}]",117225.79999995232,1669830425072,cherries,popsicles,7.35,3.45,-3.8999999999999995,cherries,902.1000001430511,902,902.5,True,u,118640.40000009537,1414.6000001430511,1669830426486,1414,,HRV,HRV_0087,2022-11-30 17:49:30
79,"[{'imgObject': {}, 'id': 'salmon', 'src': '/static/foodstim60/salmon.jpg', 'key': 'u', 'origWidth': 410, 'origHeight': 409, 'width': 410, 'height': 409, 'widthPercent': 0.45, 'rescaleHeight': False, 'trialN': 79, 'loaded': True, 'loadedTime': 4442.200000047684, 'positionName': 'LEFT', 'positionCoords': [204.4, 155.5], 'bid': 8.71}, {'imgObject': {}, 'id': 'raisin bran w milk', 'src': '/static/foodstim60/raisin bran w milk.jpg', 'key': 'i', 'origWidth': 411, 'origHeight': 411, 'width': 411, 'height': 411, 'widthPercent': 0.45, 'rescaleHeight': False, 'trialN': 79, 'loaded': True, 'loadedTime': 4460.600000143051, 'positionName': 'RIGHT', 'positionCoords': [665.6, 154.5], 'bid': 7.28}]",118640.60000014305,1669830426486,salmon,raisin bran w milk,8.71,7.28,-1.4300000000000006,salmon,606.6999998092651,607,607.0999999046326,True,u,119769.60000014305,1129.0,1669830427615,1129,,HRV,HRV_0087,2022-11-30 17:49:30
80,"[{'imgObject': {}, 'id': 'steak', 'src': '/static/foodstim60/steak.jpg', 'key': 'u', 'origWidth': 410, 'origHeight': 410, 'width': 410, 'height': 410, 'widthPercent': 0.45, 'rescaleHeight': False, 'trialN': 80, 'loaded': True, 'loadedTime': 4499.200000047684, 'positionName': 'LEFT', 'positionCoords': [204.4, 155], 'bid': 9.25}, {'imgObject': {}, 'id': 'roastedpotatoes', 'src': '/static/foodstim60/roastedpotatoes.jpg', 'key': 'i', 'origWidth': 409, 'origHeight': 410, 'width': 409, 'height': 410, 'widthPercent': 0.45, 'rescaleHeight': False, 'trialN': 80, 'loaded': True, 'loadedTime': 4551, 'positionName': 'RIGHT', 'positionCoords': [665.6, 155], 'bid': 7.81}]",119769.79999995232,1669830427616,steak,roastedpotatoes,9.25,7.81,-1.4400000000000004,steak,713.6000001430511,714,714.1000001430511,True,u,120993.20000004768,1223.4000000953674,1669830428839,1223,,HRV,HRV_0087,2022-11-30 17:49:30
81,"[{'imgObject': {}, 'id': 'olives', 'src': '/static/foodstim60/olives.jpg', 'key': 'u', 'origWidth': 410, 'origHeight': 410, 'width': 410, 'height': 410, 'widthPercent': 0.45, 'rescaleHeight': False, 'trialN': 81, 'loaded': True, 'loadedTime': 4496.900000095367, 'positionName': 'LEFT', 'positionCoords': [204.4, 155], 'bid': 5.71}, {'imgObject': {}, 'id': 'fruitsalad', 'src': '/static/foodstim60/fruitsalad.jpg', 'key': 'i', 'origWidth': 410, 'origHeight': 410, 'width': 410, 'height': 410, 'widthPercent': 0.45, 'rescaleHeight': False, 'trialN': 81, 'loaded': True, 'loadedTime': 4479.5, 'positionName': 'RIGHT', 'positionCoords': [665.6, 155], 'bid': 6.71}]",120993.5,1669830428839,olives,fruitsalad,5.71,6.71,1.0,fruitsalad,849.9000000953674,851,850.2000000476837,True,i,122355.70000004768,1362.2000000476837,1669830430202,1363,,HRV,HRV_0087,2022-11-30 17:49:30
82,"[{'imgObject': {}, 'id': 'salad w chicken', 'src': '/static/foodstim60/salad w chicken.jpg', 'key': 'u', 'origWidth': 411, 'origHeight': 411, 'width': 411, 'height': 411, 'widthPercent': 0.45, 'rescaleHeight': False, 'trialN': 82, 'loaded': True, 'loadedTime': 4483.900000095367, 'positionName': 'LEFT', 'positionCoords': [203.4, 154.5], 'bid': 6.5600000000000005}, {'imgObject': {}, 'id': 'hotdog w must', 'src': '/static/foodstim60/hotdog w must.jpg', 'key': 'i', 'origWidth': 409, 'origHeight': 409, 'width': 409, 'height': 409, 'widthPercent': 0.45, 'rescaleHeight': False, 'trialN': 82, 'loaded': True, 'loadedTime': 4477.100000143051, 'positionName': 'RIGHT', 'positionCoords': [665.6, 155.5], 'bid': 6.8500000000000005}]",122355.90000009537,1669830430202,salad w chicken,hotdog w must,6.5600000000000005,6.8500000000000005,0.29000000000000004,hotdog w must,716.8999998569489,717,717.3999998569489,True,i,123586.60000014305,1230.7000000476837,1669830431432,1230,,HRV,HRV_0087,2022-11-30 17:49:30
83,"[{'imgObject': {}, 'id': 'fried eggs', 'src': '/static/foodstim60/fried eggs.jpg', 'key': 'u', 'origWidth': 410, 'origHeight': 410, 'width': 410, 'height': 410, 'widthPercent': 0.45, 'rescaleHeight': False, 'trialN': 83, 'loaded': True, 'loadedTime': 4547.100000143051, 'positionName': 'LEFT', 'positionCoords': [204.4, 155], 'bid': 6.25}, {'imgObject': {}, 'id': 'eggs', 'src': '/static/foodstim60/eggs.jpg', 'key': 'i', 'origWidth': 409, 'origHeight': 409, 'width': 409, 'height': 409, 'widthPercent': 0.45, 'rescaleHeight': False, 'trialN': 83, 'loaded': True, 'loadedTime': 4423.200000047684, 'positionName': 'RIGHT', 'positionCoords': [665.6, 155.5], 'bid': 6.42}]",123586.79999995232,1669830431433,fried eggs,eggs,6.25,6.42,0.16999999999999993,fried eggs,630.3000001907349,630,630.7000000476837,True,u,124723.79999995232,1137.0,1669830432570,1137,,HRV,HRV_0087,2022-11-30 17:49:30
84,"[{'imgObject': {}, 'id': 'edamame', 'src': '/static/foodstim60/edamame.jpg', 'key': 'u', 'origWidth': 409, 'origHeight': 410, 'width': 409, 'height': 410, 'widthPercent': 0.45, 'rescaleHeight': False, 'trialN': 84, 'loaded': True, 'loadedTime': 4468.700000047684, 'positionName': 'LEFT', 'positionCoords': [205.4, 155], 'bid': 0.96}, {'imgObject': {}, 'id': 'granola w milk', 'src': '/static/foodstim60/granola w milk.jpg', 'key': 'i', 'origWidth': 410, 'origHeight': 410, 'width': 410, 'height': 410, 'widthPercent': 0.45, 'rescaleHeight': False, 'trialN': 84, 'loaded': True, 'loadedTime': 4494, 'positionName': 'RIGHT', 'positionCoords': [665.6, 155], 'bid': 1.87}]",124724.0,1669830432570,edamame,granola w milk,0.96,1.87,0.9100000000000001,granola w milk,734.5,735,734.9000000953674,True,i,125960.29999995232,1236.2999999523163,1669830433806,1236,,HRV,HRV_0087,2022-11-30 17:49:30
85,"[{'imgObject': {}, 'id': 'fried eggs', 'src': '/static/foodstim60/fried eggs.jpg', 'key': 'u', 'origWidth': 410, 'origHeight': 410, 'width': 410, 'height': 410, 'widthPercent': 0.45, 'rescaleHeight': False, 'trialN': 85, 'loaded': True, 'loadedTime': 4547, 'positionName': 'LEFT', 'positionCoords': [204.4, 155], 'bid': 6.25}, {'imgObject': {}, 'id': 'avocado', 'src': '/static/foodstim60/avocado.jpg', 'key': 'i', 'origWidth': 409, 'origHeight': 409, 'width': 409, 'height': 409, 'widthPercent': 0.45, 'rescaleHeight': False, 'trialN': 85, 'loaded': True, 'loadedTime': 4491.100000143051, 'positionName': 'RIGHT', 'positionCoords': [665.6, 155.5], 'bid': 9.06}]",125960.5,1669830433806,fried eggs,avocado,6.25,9.06,2.8100000000000005,fried eggs,722,723,722.6000001430511,True,u,127186.10000014305,1225.6000001430511,1669830435032,1226,,HRV,HRV_0087,2022-11-30 17:49:30
86,"[{'imgObject': {}, 'id': 'apple slices', 'src': '/static/foodstim60/apple slices.jpg', 'key': 'u', 'origWidth': 409, 'origHeight': 410, 'width': 409, 'height': 410, 'widthPercent': 0.45, 'rescaleHeight': False, 'trialN': 86, 'loaded': True, 'loadedTime': 4538.100000143051, 'positionName': 'LEFT', 'positionCoords': [205.4, 155], 'bid': 3.78}, {'imgObject': {}, 'id': 'roastedpotatoes', 'src': '/static/foodstim60/roastedpotatoes.jpg', 'key': 'i', 'origWidth': 409, 'origHeight': 410, 'width': 409, 'height': 410, 'widthPercent': 0.45, 'rescaleHeight': False, 'trialN': 86, 'loaded': True, 'loadedTime': 4551.200000047684, 'positionName': 'RIGHT', 'positionCoords': [665.6, 155], 'bid': 7.81}]",127186.29999995232,1669830435032,apple slices,roastedpotatoes,3.78,7.81,4.029999999999999,apple slices,938.4000000953674,939,938.9000000953674,True,u,128647.29999995232,1461.0,1669830436493,1461,,HRV,HRV_0087,2022-11-30 17:49:30
87,"[{'imgObject': {}, 'id': 'veggieswithdip', 'src': '/static/foodstim60/veggieswithdip.jpg', 'key': 'u', 'origWidth': 409, 'origHeight': 409, 'width': 409, 'height': 409, 'widthPercent': 0.45, 'rescaleHeight': False, 'trialN': 87, 'loaded': True, 'loadedTime': 4469.200000047684, 'positionName': 'LEFT', 'positionCoords': [205.4, 155.5], 'bid': 3.12}, {'imgObject': {}, 'id': 'bagel and cc', 'src': '/static/foodstim60/bagel and cc.jpg', 'key': 'i', 'origWidth': 410, 'origHeight': 410, 'width': 410, 'height': 410, 'widthPercent': 0.45, 'rescaleHeight': False, 'trialN': 87, 'loaded': True, 'loadedTime': 4553, 'positionName': 'RIGHT', 'positionCoords': [665.6, 155], 'bid': 4.0600000000000005}]",128647.40000009537,1669830436493,veggieswithdip,bagel and cc,3.12,4.0600000000000005,0.9400000000000004,bagel and cc,706.5999999046326,707,707.0,True,i,129861.70000004768,1214.2999999523163,1669830437707,1214,,HRV,HRV_0087,2022-11-30 17:49:30
88,"[{'imgObject': {}, 'id': 'baked potato', 'src': '/static/foodstim60/baked potato.jpg', 'key': 'u', 'origWidth': 409, 'origHeight': 410, 'width': 409, 'height': 410, 'widthPercent': 0.45, 'rescaleHeight': False, 'trialN': 88, 'loaded': True, 'loadedTime': 4476.100000143051, 'positionName': 'LEFT', 'positionCoords': [205.4, 155], 'bid': 5.57}, {'imgObject': {}, 'id': 'pear', 'src': '/static/foodstim60/pear.jpg', 'key': 'i', 'origWidth': 411, 'origHeight': 410, 'width': 411, 'height': 410, 'widthPercent': 0.45, 'rescaleHeight': False, 'trialN': 88, 'loaded': True, 'loadedTime': 4520.200000047684, 'positionName': 'RIGHT', 'positionCoords': [665.6, 155], 'bid': 3.51}]",129861.79999995232,1669830437708,baked potato,pear,5.57,3.51,-2.0600000000000005,pear,878.1000001430511,878,878.4000000953674,True,i,131260.60000014305,1398.8000001907349,1669830439106,1398,,HRV,HRV_0087,2022-11-30 17:49:30
89,"[{'imgObject': {}, 'id': 'blueberries', 'src': '/static/foodstim60/blueberries.jpg', 'key': 'u', 'origWidth': 411, 'origHeight': 411, 'width': 411, 'height': 411, 'widthPercent': 0.45, 'rescaleHeight': False, 'trialN': 89, 'loaded': True, 'loadedTime': 4504.799999952316, 'positionName': 'LEFT', 'positionCoords': [203.4, 154.5], 'bid': 6.0600000000000005}, {'imgObject': {}, 'id': 'sushi w_condiments', 'src': '/static/foodstim60/sushi w_condiments.jpg', 'key': 'i', 'origWidth': 410, 'origHeight': 410, 'width': 410, 'height': 410, 'widthPercent': 0.45, 'rescaleHeight': False, 'trialN': 89, 'loaded': True, 'loadedTime': 4542.799999952316, 'positionName': 'RIGHT', 'positionCoords': [665.6, 155], 'bid': 8.89}]",131260.90000009537,1669830439107,blueberries,sushi w_condiments,6.0600000000000005,8.89,2.83,sushi w_condiments,718.5,719,719.0,True,i,132489.20000004768,1228.2999999523163,1669830440335,1228,,HRV,HRV_0087,2022-11-30 17:49:30
90,"[{'imgObject': {}, 'id': 'raspberries', 'src': '/static/foodstim60/raspberries.jpg', 'key': 'u', 'origWidth': 411, 'origHeight': 411, 'width': 411, 'height': 411, 'widthPercent': 0.45, 'rescaleHeight': False, 'trialN': 90, 'loaded': True, 'loadedTime': 4518.799999952316, 'positionName': 'LEFT', 'positionCoords': [203.4, 154.5], 'bid': 6.07}, {'imgObject': {}, 'id': 'grilled chicken strips', 'src': '/static/foodstim60/grilled chicken strips.jpg', 'key': 'i', 'origWidth': 410, 'origHeight': 411, 'width': 410, 'height': 411, 'widthPercent': 0.45, 'rescaleHeight': False, 'trialN': 90, 'loaded': True, 'loadedTime': 4489.5, 'positionName': 'RIGHT', 'positionCoords': [665.6, 154.5], 'bid': 8.98}]",137301.10000014305,1669830445147,raspberries,grilled chicken strips,6.07,8.98,2.91,grilled chicken strips,826.7999999523163,827,827.1999998092651,True,i,138640.90000009537,1339.7999999523163,1669830446487,1340,,HRV,HRV_0087,2022-11-30 17:49:30
91,"[{'imgObject': {}, 'id': 'cocktailshrimp', 'src': '/static/foodstim60/cocktailshrimp.jpg', 'key': 'u', 'origWidth': 410, 'origHeight': 410, 'width': 410, 'height': 410, 'widthPercent': 0.45, 'rescaleHeight': False, 'trialN': 91, 'loaded': True, 'loadedTime': 4554.299999952316, 'positionName': 'LEFT', 'positionCoords': [204.4, 155], 'bid': 8.25}, {'imgObject': {}, 'id': 'roastedpotatoes', 'src': '/static/foodstim60/roastedpotatoes.jpg', 'key': 'i', 'origWidth': 409, 'origHeight': 410, 'width': 409, 'height': 410, 'widthPercent': 0.45, 'rescaleHeight': False, 'trialN': 91, 'loaded': True, 'loadedTime': 4551.5, 'positionName': 'RIGHT', 'positionCoords': [665.6, 155], 'bid': 7.81}]",138641.10000014305,1669830446487,cocktailshrimp,roastedpotatoes,8.25,7.81,-0.4400000000000004,cocktailshrimp,1176,1176,1176.3999998569489,True,u,140332.29999995232,1691.1999998092651,1669830448178,1691,,HRV,HRV_0087,2022-11-30 17:49:30
92,"[{'imgObject': {}, 'id': 'burger', 'src': '/static/foodstim60/burger.jpg', 'key': 'u', 'origWidth': 409, 'origHeight': 409, 'width': 409, 'height': 409, 'widthPercent': 0.45, 'rescaleHeight': False, 'trialN': 92, 'loaded': True, 'loadedTime': 4503.799999952316, 'positionName': 'LEFT', 'positionCoords': [205.4, 155.5], 'bid': 9.71}, {'imgObject': {}, 'id': 'orange slices', 'src': '/static/foodstim60/orange slices.jpg', 'key': 'i', 'origWidth': 409, 'origHeight': 410, 'width': 409, 'height': 410, 'widthPercent': 0.45, 'rescaleHeight': False, 'trialN': 92, 'loaded': True, 'loadedTime': 4491.900000095367, 'positionName': 'RIGHT', 'positionCoords': [665.6, 155], 'bid': 8.06}]",140332.5,1669830448178,burger,orange slices,9.71,8.06,-1.6500000000000004,burger,712.9000000953674,714,713.2999999523163,True,u,141574.60000014305,1242.1000001430511,1669830449420,1242,,HRV,HRV_0087,2022-11-30 17:49:30
93,"[{'imgObject': {}, 'id': 'eggsalad', 'src': '/static/foodstim60/eggsalad.jpg', 'key': 'u', 'origWidth': 410, 'origHeight': 409, 'width': 410, 'height': 409, 'widthPercent': 0.45, 'rescaleHeight': False, 'trialN': 93, 'loaded': True, 'loadedTime': 4548.5, 'positionName': 'LEFT', 'positionCoords': [204.4, 155.5], 'bid': 6.87}, {'imgObject': {}, 'id': 'turkey sandwich', 'src': '/static/foodstim60/turkey sandwich.jpg', 'key': 'i', 'origWidth': 409, 'origHeight': 409, 'width': 409, 'height': 409, 'widthPercent': 0.45, 'rescaleHeight': False, 'trialN': 93, 'loaded': True, 'loadedTime': 4428.600000143051, 'positionName': 'RIGHT', 'positionCoords': [665.6, 155.5], 'bid': 7.18}]",141574.90000009537,1669830449421,eggsalad,turkey sandwich,6.87,7.18,0.3099999999999996,turkey sandwich,804.2000000476837,804,804.5999999046326,True,i,142899.29999995232,1324.3999998569489,1669830450745,1324,,HRV,HRV_0087,2022-11-30 17:49:30
94,"[{'imgObject': {}, 'id': 'cocktailshrimp', 'src': '/static/foodstim60/cocktailshrimp.jpg', 'key': 'u', 'origWidth': 410, 'origHeight': 410, 'width': 410, 'height': 410, 'widthPercent': 0.45, 'rescaleHeight': False, 'trialN': 94, 'loaded': True, 'loadedTime': 4554.5, 'positionName': 'LEFT', 'positionCoords': [204.4, 155], 'bid': 8.25}, {'imgObject': {}, 'id': 'eggsalad', 'src': '/static/foodstim60/eggsalad.jpg', 'key': 'i', 'origWidth': 410, 'origHeight': 409, 'width': 410, 'height': 409, 'widthPercent': 0.45, 'rescaleHeight': False, 'trialN': 94, 'loaded': True, 'loadedTime': 4548.600000143051, 'positionName': 'RIGHT', 'positionCoords': [665.6, 155.5], 'bid': 6.87}]",142899.5,1669830450745,cocktailshrimp,eggsalad,8.25,6.87,-1.38,cocktailshrimp,1487.6000001430511,1488,1487.9000000953674,True,u,144896.40000009537,1996.9000000953674,1669830452742,1997,,HRV,HRV_0087,2022-11-30 17:49:30
95,"[{'imgObject': {}, 'id': 'omelette', 'src': '/static/foodstim60/omelette.jpg', 'key': 'u', 'origWidth': 410, 'origHeight': 409, 'width': 410, 'height': 409, 'widthPercent': 0.45, 'rescaleHeight': False, 'trialN': 95, 'loaded': True, 'loadedTime': 4544.5, 'positionName': 'LEFT', 'positionCoords': [204.4, 155.5], 'bid': 7.2}, {'imgObject': {}, 'id': 'cheerios', 'src': '/static/foodstim60/cheerios.jpg', 'key': 'i', 'origWidth': 409, 'origHeight': 410, 'width': 409, 'height': 410, 'widthPercent': 0.45, 'rescaleHeight': False, 'trialN': 95, 'loaded': True, 'loadedTime': 4487.799999952316, 'positionName': 'RIGHT', 'positionCoords': [665.6, 155], 'bid': 2.96}]",144896.60000014305,1669830452742,omelette,cheerios,7.2,2.96,-4.24,omelette,774.5,775,774.7999999523163,True,u,146187.20000004768,1290.5999999046326,1669830454033,1291,,HRV,HRV_0087,2022-11-30 17:49:30
96,"[{'imgObject': {}, 'id': 'froot loops w milk', 'src': '/static/foodstim60/froot loops w milk.jpg', 'key': 'u', 'origWidth': 410, 'origHeight': 410, 'width': 410, 'height': 410, 'widthPercent': 0.45, 'rescaleHeight': False, 'trialN': 96, 'loaded': True, 'loadedTime': 4556.900000095367, 'positionName': 'LEFT', 'positionCoords': [204.4, 155], 'bid': 2.09}, {'imgObject': {}, 'id': 'cherry tomato', 'src': '/static/foodstim60/cherry tomato.jpg', 'key': 'i', 'origWidth': 410, 'origHeight': 410, 'width': 410, 'height': 410, 'widthPercent': 0.45, 'rescaleHeight': False, 'trialN': 96, 'loaded': True, 'loadedTime': 4474.5, 'positionName': 'RIGHT', 'positionCoords': [665.6, 155], 'bid': 4.14}]",146187.5,1669830454033,froot loops w milk,cherry tomato,2.09,4.14,2.05,cherry tomato,741.6000001430511,741,742.0,True,i,147435.79999995232,1248.2999999523163,1669830455281,1248,,HRV,HRV_0087,2022-11-30 17:49:30
97,"[{'imgObject': {}, 'id': 'seaweed', 'src': '/static/foodstim60/seaweed.jpg', 'key': 'u', 'origWidth': 410, 'origHeight': 410, 'width': 410, 'height': 410, 'widthPercent': 0.45, 'rescaleHeight': False, 'trialN': 97, 'loaded': True, 'loadedTime': 4373.799999952316, 'positionName': 'LEFT', 'positionCoords': [204.4, 155], 'bid': 7.62}, {'imgObject': {}, 'id': 'roastedpotatoes', 'src': '/static/foodstim60/roastedpotatoes.jpg', 'key': 'i', 'origWidth': 409, 'origHeight': 410, 'width': 409, 'height': 410, 'widthPercent': 0.45, 'rescaleHeight': False, 'trialN': 97, 'loaded': True, 'loadedTime': 4551.299999952316, 'positionName': 'RIGHT', 'positionCoords': [665.6, 155], 'bid': 7.81}]",147436.10000014305,1669830455281,seaweed,roastedpotatoes,7.62,7.81,0.1899999999999995,seaweed,1171.0999999046326,1171,1171.5,True,u,149122.10000014305,1686.0,1669830456967,1686,,HRV,HRV_0087,2022-11-30 17:49:30
98,"[{'imgObject': {}, 'id': 'orange slices', 'src': '/static/foodstim60/orange slices.jpg', 'key': 'u', 'origWidth': 409, 'origHeight': 410, 'width': 409, 'height': 410, 'widthPercent': 0.45, 'rescaleHeight': False, 'trialN': 98, 'loaded': True, 'loadedTime': 4491.200000047684, 'positionName': 'LEFT', 'positionCoords': [205.4, 155], 'bid': 8.06}, {'imgObject': {}, 'id': 'burrito', 'src': '/static/foodstim60/burrito.jpg', 'key': 'i', 'origWidth': 410, 'origHeight': 410, 'width': 410, 'height': 410, 'widthPercent': 0.45, 'rescaleHeight': False, 'trialN': 98, 'loaded': True, 'loadedTime': 4521.600000143051, 'positionName': 'RIGHT', 'positionCoords': [665.6, 155], 'bid': 8.120000000000001}]",149122.20000004768,1669830456967,orange slices,burrito,8.06,8.120000000000001,0.0600000000000005,burrito,851,851,851.5,True,i,150484.79999995232,1362.5999999046326,1669830458329,1362,,HRV,HRV_0087,2022-11-30 17:49:30
99,"[{'imgObject': {}, 'id': 'steak', 'src': '/static/foodstim60/steak.jpg', 'key': 'u', 'origWidth': 410, 'origHeight': 410, 'width': 410, 'height': 410, 'widthPercent': 0.45, 'rescaleHeight': False, 'trialN': 99, 'loaded': True, 'loadedTime': 4498.600000143051, 'positionName': 'LEFT', 'positionCoords': [204.4, 155], 'bid': 9.25}, {'imgObject': {}, 'id': 'mac & cheese', 'src': '/static/foodstim60/mac & cheese.jpg', 'key': 'i', 'origWidth': 410, 'origHeight': 410, 'width': 410, 'height': 410, 'widthPercent': 0.45, 'rescaleHeight': False, 'trialN': 99, 'loaded': True, 'loadedTime': 4413.799999952316, 'positionName': 'RIGHT', 'positionCoords': [665.6, 155], 'bid': 8.21}]",150485.0,1669830458330,steak,mac & cheese,9.25,8.21,-1.0399999999999991,steak,749.2999999523163,749,749.7000000476837,True,u,151737.10000014305,1252.1000001430511,1669830459582,1252,,HRV,HRV_0087,2022-11-30 17:49:30
100,"[{'imgObject': {}, 'id': 'bagel plain', 'src': '/static/foodstim60/bagel plain.jpg', 'key': 'u', 'origWidth': 410, 'origHeight': 410, 'width': 410, 'height': 410, 'widthPercent': 0.45, 'rescaleHeight': False, 'trialN': 100, 'loaded': True, 'loadedTime': 4488.5, 'positionName': 'LEFT', 'positionCoords': [204.4, 155], 'bid': 3.82}, {'imgObject': {}, 'id': 'rigatoni', 'src': '/static/foodstim60/rigatoni.jpg', 'key': 'i', 'origWidth': 411, 'origHeight': 411, 'width': 411, 'height': 411, 'widthPercent': 0.45, 'rescaleHeight': False, 'trialN': 100, 'loaded': True, 'loadedTime': 4520.299999952316, 'positionName': 'RIGHT', 'positionCoords': [665.6, 154.5], 'bid': 4.0600000000000005}]",151737.20000004768,1669830459582,bagel plain,rigatoni,3.82,4.0600000000000005,0.24000000000000066,bagel plain,979.2000000476837,979,979.5,True,u,153228.29999995232,1491.0999999046326,1669830461073,1491,,HRV,HRV_0087,2022-11-30 17:49:30
101,"[{'imgObject': {}, 'id': 'apple slices', 'src': '/static/foodstim60/apple slices.jpg', 'key': 'u', 'origWidth': 409, 'origHeight': 410, 'width': 409, 'height': 410, 'widthPercent': 0.45, 'rescaleHeight': False, 'trialN': 101, 'loaded': True, 'loadedTime': 4538.600000143051, 'positionName': 'LEFT', 'positionCoords': [205.4, 155], 'bid': 3.78}, {'imgObject': {}, 'id': 'shreddedwheatwithmilk', 'src': '/static/foodstim60/shreddedwheatwithmilk.jpg', 'key': 'i', 'origWidth': 410, 'origHeight': 410, 'width': 410, 'height': 410, 'widthPercent': 0.45, 'rescaleHeight': False, 'trialN': 101, 'loaded': True, 'loadedTime': 4542.100000143051, 'positionName': 'RIGHT', 'positionCoords': [665.6, 155], 'bid': 3.5700000000000003}]",153228.60000014305,1669830461073,apple slices,shreddedwheatwithmilk,3.78,3.5700000000000003,-0.20999999999999952,apple slices,865.6999998092651,866,866.1999998092651,True,u,154602.90000009537,1374.2999999523163,1669830462448,1375,,HRV,HRV_0087,2022-11-30 17:49:30
102,"[{'imgObject': {}, 'id': 'bagel and cc', 'src': '/static/foodstim60/bagel and cc.jpg', 'key': 'u', 'origWidth': 410, 'origHeight': 410, 'width': 410, 'height': 410, 'widthPercent': 0.45, 'rescaleHeight': False, 'trialN': 102, 'loaded': True, 'loadedTime': 4552.900000095367, 'positionName': 'LEFT', 'positionCoords': [204.4, 155], 'bid': 4.0600000000000005}, {'imgObject': {}, 'id': 'sweetpotato', 'src': '/static/foodstim60/sweetpotato.jpg', 'key': 'i', 'origWidth': 410, 'origHeight': 410, 'width': 410, 'height': 410, 'widthPercent': 0.45, 'rescaleHeight': False, 'trialN': 102, 'loaded': True, 'loadedTime': 4477.100000143051, 'positionName': 'RIGHT', 'positionCoords': [665.6, 155], 'bid': 5.46}]",154603.0,1669830462448,bagel and cc,sweetpotato,4.0600000000000005,5.46,1.3999999999999995,sweetpotato,1083.7999999523163,1084,1084.2999999523163,True,i,156206.5,1603.5,1669830464051,1603,,HRV,HRV_0087,2022-11-30 17:49:30
103,"[{'imgObject': {}, 'id': 'olives', 'src': '/static/foodstim60/olives.jpg', 'key': 'u', 'origWidth': 410, 'origHeight': 410, 'width': 410, 'height': 410, 'widthPercent': 0.45, 'rescaleHeight': False, 'trialN': 103, 'loaded': True, 'loadedTime': 4496.5, 'positionName': 'LEFT', 'positionCoords': [204.4, 155], 'bid': 5.71}, {'imgObject': {}, 'id': 'cantaloupe', 'src': '/static/foodstim60/cantaloupe.jpg', 'key': 'i', 'origWidth': 409, 'origHeight': 409, 'width': 409, 'height': 409, 'widthPercent': 0.45, 'rescaleHeight': False, 'trialN': 103, 'loaded': True, 'loadedTime': 4433.100000143051, 'positionName': 'RIGHT', 'positionCoords': [665.6, 155.5], 'bid': 5.92}]",156206.79999995232,1669830464051,olives,cantaloupe,5.71,5.92,0.20999999999999996,olives,1043.3000001907349,1044,1043.8000001907349,True,u,157770.90000009537,1564.1000001430511,1669830465616,1565,,HRV,HRV_0087,2022-11-30 17:49:30
104,"[{'imgObject': {}, 'id': 'mashed potato', 'src': '/static/foodstim60/mashed potato.jpg', 'key': 'u', 'origWidth': 409, 'origHeight': 409, 'width': 409, 'height': 409, 'widthPercent': 0.45, 'rescaleHeight': False, 'trialN': 104, 'loaded': True, 'loadedTime': 4431.799999952316, 'positionName': 'LEFT', 'positionCoords': [205.4, 155.5], 'bid': 3.82}, {'imgObject': {}, 'id': 'sweetpotato', 'src': '/static/foodstim60/sweetpotato.jpg', 'key': 'i', 'origWidth': 410, 'origHeight': 410, 'width': 410, 'height': 410, 'widthPercent': 0.45, 'rescaleHeight': False, 'trialN': 104, 'loaded': True, 'loadedTime': 4477, 'positionName': 'RIGHT', 'positionCoords': [665.6, 155], 'bid': 5.46}]",157771.20000004768,1669830465616,mashed potato,sweetpotato,3.82,5.46,1.6400000000000001,mashed potato,1044.2999999523163,1045,1044.9000000953674,True,u,159321.90000009537,1550.7000000476837,1669830467167,1551,,HRV,HRV_0087,2022-11-30 17:49:30
105,"[{'imgObject': {}, 'id': 'tacos', 'src': '/static/foodstim60/tacos.jpg', 'key': 'u', 'origWidth': 411, 'origHeight': 411, 'width': 411, 'height': 411, 'widthPercent': 0.45, 'rescaleHeight': False, 'trialN': 105, 'loaded': True, 'loadedTime': 4539.900000095367, 'positionName': 'LEFT', 'positionCoords': [203.4, 154.5], 'bid': 8.51}, {'imgObject': {}, 'id': 'turkey sandwich', 'src': '/static/foodstim60/turkey sandwich.jpg', 'key': 'i', 'origWidth': 409, 'origHeight': 409, 'width': 409, 'height': 409, 'widthPercent': 0.45, 'rescaleHeight': False, 'trialN': 105, 'loaded': True, 'loadedTime': 4423.799999952316, 'positionName': 'RIGHT', 'positionCoords': [665.6, 155.5], 'bid': 7.18}]",159322.20000004768,1669830467167,tacos,turkey sandwich,8.51,7.18,-1.33,tacos,611.9000000953674,612,612.2999999523163,True,u,160446.90000009537,1124.7000000476837,1669830468292,1125,,HRV,HRV_0087,2022-11-30 17:49:30
106,"[{'imgObject': {}, 'id': 'edamame', 'src': '/static/foodstim60/edamame.jpg', 'key': 'u', 'origWidth': 409, 'origHeight': 410, 'width': 409, 'height': 410, 'widthPercent': 0.45, 'rescaleHeight': False, 'trialN': 106, 'loaded': True, 'loadedTime': 4461.799999952316, 'positionName': 'LEFT', 'positionCoords': [205.4, 155], 'bid': 0.96}, {'imgObject': {}, 'id': 'fruitsalad', 'src': '/static/foodstim60/fruitsalad.jpg', 'key': 'i', 'origWidth': 410, 'origHeight': 410, 'width': 410, 'height': 410, 'widthPercent': 0.45, 'rescaleHeight': False, 'trialN': 106, 'loaded': True, 'loadedTime': 4478.799999952316, 'positionName': 'RIGHT', 'positionCoords': [665.6, 155], 'bid': 6.71}]",160447.10000014305,1669830468292,edamame,fruitsalad,0.96,6.71,5.75,fruitsalad,919.1999998092651,919,919.5999999046326,True,i,161878.20000004768,1431.0999999046326,1669830469723,1431,,HRV,HRV_0087,2022-11-30 17:49:30
107,"[{'imgObject': {}, 'id': 'blueberries', 'src': '/static/foodstim60/blueberries.jpg', 'key': 'u', 'origWidth': 411, 'origHeight': 411, 'width': 411, 'height': 411, 'widthPercent': 0.45, 'rescaleHeight': False, 'trialN': 107, 'loaded': True, 'loadedTime': 4504.700000047684, 'positionName': 'LEFT', 'positionCoords': [203.4, 154.5], 'bid': 6.0600000000000005}, {'imgObject': {}, 'id': 'cherry tomato', 'src': '/static/foodstim60/cherry tomato.jpg', 'key': 'i', 'origWidth': 410, 'origHeight': 410, 'width': 410, 'height': 410, 'widthPercent': 0.45, 'rescaleHeight': False, 'trialN': 107, 'loaded': True, 'loadedTime': 4474.200000047684, 'positionName': 'RIGHT', 'positionCoords': [665.6, 155], 'bid': 4.14}]",161878.29999995232,1669830469723,blueberries,cherry tomato,6.0600000000000005,4.14,-1.9200000000000008,blueberries,738.9000000953674,739,739.4000000953674,True,u,163127.0,1248.7000000476837,1669830470972,1249,,HRV,HRV_0087,2022-11-30 17:49:30
