success,trial_type,trial_index,time_elapsed,internal_node_id,Block,TrialNumber,TrialTime,trialTimeDiff,FPS_avg,FPS_med,FPS_mode,TrialDur,winResizeTime,rt,block,button_pressed,MotCoh,MotDir,ColCoh,Color,ChoiceKey,Choice,Accuracy,RT,nFrames,FPS,PPD,missTrial,missTrialMsg,onsetDelay,fullScreenExitTime,canvCenter,TrialType,Score,BlockTrial,stimulus,button_labels,exp,subjectId,date
True,fullscreen,0,3001,0.0-0.0,0.0,1.0,,,,,,,,,,,,,,,,,,,,,,,,,,,,,,,,HRV,HRV_0087,2022-11-30 17:58:12
,wl-check-fps,1,7991,0.0-1.0,0.0,2.0,"[3449.9, 3452.7, 3469.7, 3486.2, 3502.7, 3519.5, 3536, 3555.2, 3572.5, 3589.8, 3602.9, 3619.4, 3638.7, 3656.6, 3669.6, 3686.3, 3703.1, 3719.7, 3736.2, 3752.9, 3769.7, 3786.2, 3803, 3819.2, 3836.4, 3853, 3869.3, 3886.1, 3902.7, 3919.4, 3936.2, 3952.8, 3969.5, 3986.1, 4002.7, 4019.9, 4035.8, 4052.6, 4069.4, 4085.7, 4103.9, 4119.2, 4136.7, 4152.9, 4169.5, 4186, 4202.8, 4218.9, 4236.5, 4252, 4268.7, 4285.7, 4302.4, 4319.2, 4335.6, 4352.4, 4369.1, 4385.6, 4402.2, 4418.9, 4435.9, 4452.4, 4469.2, 4485.9, 4502.2, 4519, 4535.6, 4552.2, 4568.6, 4585.6, 4602.1, 4618.9, 4635.4, 4652.2, 4669, 4685.3, 4702.4, 4719.1, 4734.9, 4752.9, 4768.8, 4785.2, 4802.1, 4818.7, 4835.9, 4852.1, 4868.6, 4886.2, 4901.7, 4918.5, 4935.3, 4951.6, 4968.3, 4984.9, 5001.6, 5018.6, 5035, 5051.6, 5068.1, 5085.2, 5101.6, 5118.4, 5135.2, 5152, 5168.3, 5185.2, 5201.9, 5218.9, 5235.1, 5251.5, 5268.2, 5285.1, 5301.8, 5318.3, 5335.2, 5351.7, 5368.2, 5384.9, 5401.5, 5418.2, 5434.9, 5451.6, 5468.2, 5485.3, 5501.2, 5518.1, 5534.7, 5551.2, 5568.2, 5584.8, 5601.5, 5618.1, 5634.6, 5651.7, 5668.1, 5684.9, 5701.1, 5718.2, 5734.7, 5751.4, 5768, 5784.5, 5801.2, 5817.9, 5834.5, 5851.1, 5867.7, 5884.4, 5900.9, 5917.8, 5934.4, 5951.3, 5968, 5984.8, 6001.2, 6017.9, 6034.2, 6051.1, 6067, 6084, 6101, 6117.5, 6134.1, 6150.9, 6167.2, 6183.8, 6200.5, 6217.7, 6234.2, 6250.6, 6267.3, 6284.1, 6300.7, 6317.2, 6334.3, 6350.9, 6367.5, 6383.8, 6400.9, 6417.4, 6434, 6450.5, 6467.2, 6483.8, 6500.7, 6517.4, 6533.7, 6550.5, 6567, 6583.9, 6600.6, 6617.1, 6633.8, 6650.5, 6667.3, 6683.6, 6700.3, 6716.8, 6733.5, 6750.6, 6767, 6783.6, 6800.4, 6817.3, 6833.5, 6850.4, 6867, 6883.6, 6900.4, 6917, 6933.4, 6950.3, 6966.8, 6983.4, 7000.3, 7016.7, 7033.4, 7050.2, 7066.5, 7085.2, 7100, 7116.8, 7135.8, 7153, 7169.6, 7183.3, 7200, 7219.4, 7235.8, 7253.1, 7269.2, 7285.9, 7303.2, 7319.9, 7335.9, 7352.4, 7369.6, 7385.4, 7402, 7418.4, 7435.6, 7449.5, 7466.6, 7486, 7502.7, 7519, 7535.9, 7552.8, 7568.8, 7585.5, 7602.5, 7619.4, 7635.7, 7652.3, 7669, 7682.7, 7699.7, 7719.3, 7735.9, 7752.4, 7769.3, 7786.1, 7799.6, 7816, 7832.8, 7849.3, 7866.3, 7882.9, 7899.7, 7916.2, 7932.6, 7949.5, 7966.3, 7982.8, 7999.4, 8016.2, 8032.9, 8049.4, 8065.9, 8082.5, 8099.2, 8115.9, 8132.5, 8149.3, 8165.8, 8182.8, 8199.2, 8215.5, 8232.7, 8249, 8266, 8282.6, 8298.9, 8316, 8332.4, 8349.2, 8365.5, 8382.6, 8398.9, 8415.5]","[2.8, 2.8, 17, 16.5, 16.5, 16.8, 16.5, 19.2, 17.3, 17.3, 13.1, 16.5, 19.3, 17.9, 13, 16.7, 16.8, 16.6, 16.5, 16.7, 16.8, 16.5, 16.8, 16.2, 17.2, 16.6, 16.3, 16.8, 16.6, 16.7, 16.8, 16.6, 16.7, 16.6, 16.6, 17.2, 15.9, 16.8, 16.8, 16.3, 18.2, 15.3, 17.5, 16.2, 16.6, 16.5, 16.8, 16.1, 17.6, 15.5, 16.7, 17, 16.7, 16.8, 16.4, 16.8, 16.7, 16.5, 16.6, 16.7, 17, 16.5, 16.8, 16.7, 16.3, 16.8, 16.6, 16.6, 16.4, 17, 16.5, 16.8, 16.5, 16.8, 16.8, 16.3, 17.1, 16.7, 15.8, 18, 15.9, 16.4, 16.9, 16.6, 17.2, 16.2, 16.5, 17.6, 15.5, 16.8, 16.8, 16.3, 16.7, 16.6, 16.7, 17, 16.4, 16.6, 16.5, 17.1, 16.4, 16.8, 16.8, 16.8, 16.3, 16.9, 16.7, 17, 16.2, 16.4, 16.7, 16.9, 16.7, 16.5, 16.9, 16.5, 16.5, 16.7, 16.6, 16.7, 16.7, 16.7, 16.6, 17.1, 15.9, 16.9, 16.6, 16.5, 17, 16.6, 16.7, 16.6, 16.5, 17.1, 16.4, 16.8, 16.2, 17.1, 16.5, 16.7, 16.6, 16.5, 16.7, 16.7, 16.6, 16.6, 16.6, 16.7, 16.5, 16.9, 16.6, 16.9, 16.7, 16.8, 16.4, 16.7, 16.3, 16.9, 15.9, 17, 17, 16.5, 16.6, 16.8, 16.3, 16.6, 16.7, 17.2, 16.5, 16.4, 16.7, 16.8, 16.6, 16.5, 17.1, 16.6, 16.6, 16.3, 17.1, 16.5, 16.6, 16.5, 16.7, 16.6, 16.9, 16.7, 16.3, 16.8, 16.5, 16.9, 16.7, 16.5, 16.7, 16.7, 16.8, 16.3, 16.7, 16.5, 16.7, 17.1, 16.4, 16.6, 16.8, 16.9, 16.2, 16.9, 16.6, 16.6, 16.8, 16.6, 16.4, 16.9, 16.5, 16.6, 16.9, 16.4, 16.7, 16.8, 16.3, 18.7, 14.8, 16.8, 19, 17.2, 16.6, 13.7, 16.7, 19.4, 16.4, 17.3, 16.1, 16.7, 17.3, 16.7, 16, 16.5, 17.2, 15.8, 16.6, 16.4, 17.2, 13.9, 17.1, 19.4, 16.7, 16.3, 16.9, 16.9, 16, 16.7, 17, 16.9, 16.3, 16.6, 16.7, 13.7, 17, 19.6, 16.6, 16.5, 16.9, 16.8, 13.5, 16.4, 16.8, 16.5, 17, 16.6, 16.8, 16.5, 16.4, 16.9, 16.8, 16.5, 16.6, 16.8, 16.7, 16.5, 16.5, 16.6, 16.7, 16.7, 16.6, 16.8, 16.5, 17, 16.4, 16.3, 17.2, 16.3, 17, 16.6, 16.3, 17.1, 16.4, 16.8, 16.3, 17.1, 16.3, 16.6]",60.0,60.0,60.0,4985.5,[],,,,,,,,,,,,,,,,,,,,,,,,,HRV,HRV_0087,2022-11-30 17:58:12
,wl-html-keyboard-response,2,24828,0.0-2.0-0.0,0.0,3.0,,,,,,,,14816.400000095367,0.0,0,,,,,,,,,,,,,,,,,,,,,,HRV,HRV_0087,2022-11-30 17:58:12
,wl-rdm,3,36848,0.0-3.0-0.0,0.0,4.0,,,,,,,[],,,,0.0,0.0,87.9,0.0,u,0.0,True,2033.8999998569489,123.0,60.0,40.0,False,too_early ,3000.0,[],"[640, 360]",ColorTask_Demo,,,,,HRV,HRV_0087,2022-11-30 17:58:12
,wl-rdm,4,41661,0.0-3.0-1.0,0.0,5.0,,,,,,,[],,,,0.0,0.0,87.9,1.0,i,1.0,True,726.1999998092651,44.0,60.0,40.0,False,,2000.0,[],"[640, 360]",ColorTask_Demo,,,,,HRV,HRV_0087,2022-11-30 17:58:12
,wl-html-keyboard-response,5,48818,0.0-3.0-2.0,0.0,6.0,,,,,,,,5148.399999856949,0.0,1,,,,,,,,,,,,,,,,,,,,,,HRV,HRV_0087,2022-11-30 17:58:12
,wl-html-keyboard-response,6,56354,0.0-4.0-0.0,0.0,7.0,,,,,,,,5524.799999952316,0.0,0,,,,,,,,,,,,,,,,,,,,,,HRV,HRV_0087,2022-11-30 17:58:12
,wl-html-keyboard-response,7,65889,0.0-5.0-0.0,0.0,8.0,,,,,,,,7527.900000095367,0.0,0,,,,,,,,,,,,,,,,,,,,,,HRV,HRV_0087,2022-11-30 17:58:12
,wl-rdm,8,68555,0.0-6.0-0.0,0.0,9.0,,,,,,,[],,,,,,53.2,1.0,u,0.0,False,1241.2000002861023,75.0,60.0,40.0,False,,337.88253246122053,[],"[640, 360]",ColorTask,-1.0,1.0,,,HRV,HRV_0087,2022-11-30 17:58:12
,wl-rdm,9,70869,0.0-6.1-0.1,0.0,10.0,,,,,,,[],,,,,,62.5,1.0,i,1.0,True,875.1999998092651,53.0,60.0,40.0,False,,354.3214707033786,[],"[640, 360]",ColorTask,0.0,2.0,,,HRV,HRV_0087,2022-11-30 17:58:12
,wl-rdm,10,73151,0.0-6.2-0.2,0.0,11.0,,,,,,,[],,,,,,53.2,0.0,i,1.0,False,837.8999998569489,51.0,60.0,40.0,False,,358.9623826471802,[],"[640, 360]",ColorTask,-1.0,3.0,,,HRV,HRV_0087,2022-11-30 17:58:12
,wl-rdm,11,75299,0.0-6.3-0.3,0.0,12.0,,,,,,,[],,,,,,87.9,0.0,u,0.0,True,783.5999999046326,48.0,60.0,40.0,False,,278.3648575449141,[],"[640, 360]",ColorTask,0.0,4.0,,,HRV,HRV_0087,2022-11-30 17:58:12
,wl-rdm,12,77413,0.0-6.4-0.4,0.0,13.0,,,,,,,[],,,,,,73.6,0.0,u,0.0,True,746.0999999046326,45.0,60.0,40.0,False,,294.31133669804603,[],"[640, 360]",ColorTask,1.0,5.0,,,HRV,HRV_0087,2022-11-30 17:58:12
,wl-rdm,13,79795,0.0-6.5-0.5,0.0,14.0,,,,,,,[],,,,,,50.0,0.0,i,1.0,False,1034.0,63.0,60.0,40.0,False,,257.94745552740324,[],"[640, 360]",ColorTask,0.0,6.0,,,HRV,HRV_0087,2022-11-30 17:58:12
,wl-rdm,14,81910,0.0-6.6-0.6,0.0,15.0,,,,,,,[],,,,,,53.2,0.0,u,0.0,True,731.9000000953674,44.0,60.0,40.0,False,,313.5370982328802,[],"[640, 360]",ColorTask,1.0,7.0,,,HRV,HRV_0087,2022-11-30 17:58:12
,wl-rdm,15,83958,0.0-6.7-0.7,0.0,16.0,,,,,,,[],,,,,,50.0,0.0,u,0.0,True,699.3999998569489,42.0,60.0,40.0,False,,274.08986536153157,[],"[640, 360]",ColorTask,2.0,8.0,,,HRV,HRV_0087,2022-11-30 17:58:12
,wl-rdm,16,86057,0.0-6.8-0.8,0.0,17.0,,,,,,,[],,,,,,73.6,0.0,u,0.0,True,763.4000000953674,46.0,60.0,40.0,False,,264.70164748870894,[],"[640, 360]",ColorTask,3.0,9.0,,,HRV,HRV_0087,2022-11-30 17:58:12
,wl-rdm,17,88188,0.0-6.9-0.9,0.0,18.0,,,,,,,[],,,,,,87.9,0.0,u,0.0,True,707.5999999046326,43.0,60.0,40.0,False,,342.6001051752701,[],"[640, 360]",ColorTask,4.0,10.0,,,HRV,HRV_0087,2022-11-30 17:58:12
,wl-rdm,18,90320,0.0-6.10-0.10,0.0,19.0,,,,,,,[],,,,,,73.6,0.0,u,0.0,True,727.5999999046326,44.0,60.0,40.0,False,,317.99062713665387,[],"[640, 360]",ColorTask,5.0,11.0,,,HRV,HRV_0087,2022-11-30 17:58:12
,wl-rdm,19,92468,0.0-6.11-0.11,0.0,20.0,,,,,,,[],,,,,,50.0,0.0,i,1.0,False,844.5999999046326,51.0,60.0,40.0,False,,229.50200974658722,[],"[640, 360]",ColorTask,4.0,12.0,,,HRV,HRV_0087,2022-11-30 17:58:12
,wl-rdm,20,94699,0.0-6.12-0.12,0.0,21.0,,,,,,,[],,,,,,62.5,1.0,i,1.0,True,928.8999998569489,56.0,60.0,40.0,False,,231.88063680942844,[],"[640, 360]",ColorTask,5.0,13.0,,,HRV,HRV_0087,2022-11-30 17:58:12
,wl-rdm,21,96848,0.0-6.13-0.13,0.0,22.0,,,,,,,[],,,,,,73.6,0.0,u,0.0,True,752.0,46.0,60.0,40.0,False,,310.2971302731611,[],"[640, 360]",ColorTask,6.0,14.0,,,HRV,HRV_0087,2022-11-30 17:58:12
,wl-rdm,22,99096,0.0-6.14-0.14,0.0,23.0,,,,,,,[],,,,,,73.6,1.0,i,1.0,True,766.7000000476837,47.0,60.0,40.0,False,,386.23814398184595,[],"[640, 360]",ColorTask,7.0,15.0,,,HRV,HRV_0087,2022-11-30 17:58:12
,wl-rdm,23,101194,0.0-6.15-0.15,0.0,24.0,,,,,,,[],,,,,,62.5,1.0,i,1.0,True,687.0,42.0,60.0,40.0,False,,329.6490559545166,[],"[640, 360]",ColorTask,8.0,16.0,,,HRV,HRV_0087,2022-11-30 17:58:12
,wl-rdm,24,103225,0.0-6.16-0.16,0.0,25.0,,,,,,,[],,,,,,53.2,0.0,i,1.0,False,721.0000002384186,44.0,60.0,40.0,False,,222.79457943866728,[],"[640, 360]",ColorTask,7.0,17.0,,,HRV,HRV_0087,2022-11-30 17:58:12
,wl-rdm,25,105266,0.0-6.17-0.17,0.0,26.0,,,,,,,[],,,,,,56.4,0.0,u,0.0,True,693.7000000476837,42.0,60.0,40.0,False,,263.72337193726656,[],"[640, 360]",ColorTask,8.0,18.0,,,HRV,HRV_0087,2022-11-30 17:58:12
,wl-rdm,26,107322,0.0-6.18-0.18,0.0,27.0,,,,,,,[],,,,,,73.6,1.0,i,1.0,True,762.0,46.0,60.0,40.0,False,,224.64601348987966,[],"[640, 360]",ColorTask,9.0,19.0,,,HRV,HRV_0087,2022-11-30 17:58:12
,wl-rdm,27,109304,0.0-6.19-0.19,0.0,28.0,,,,,,,[],,,,,,53.2,1.0,u,0.0,False,649.6000001430511,39.0,60.0,40.0,False,,253.32456715039223,[],"[640, 360]",ColorTask,8.0,20.0,,,HRV,HRV_0087,2022-11-30 17:58:12
,wl-rdm,28,111336,0.0-6.20-0.20,0.0,29.0,,,,,,,[],,,,,,50.0,1.0,i,1.0,True,688.7999999523163,42.0,60.0,40.0,False,,261.61677487960515,[],"[640, 360]",ColorTask,9.0,21.0,,,HRV,HRV_0087,2022-11-30 17:58:12
,wl-rdm,29,113451,0.0-6.21-0.21,0.0,30.0,,,,,,,[],,,,,,62.5,1.0,i,1.0,True,647.0999999046326,39.0,60.0,40.0,False,,392.8307230880149,[],"[640, 360]",ColorTask,10.0,22.0,,,HRV,HRV_0087,2022-11-30 17:58:12
,wl-rdm,30,115649,0.0-6.22-0.22,0.0,31.0,,,,,,,[],,,,,,62.5,0.0,u,0.0,True,866.5999999046326,53.0,60.0,40.0,False,,236.04643421252163,[],"[640, 360]",ColorTask,11.0,23.0,,,HRV,HRV_0087,2022-11-30 17:58:12
,wl-rdm,31,117581,0.0-6.23-0.23,0.0,32.0,,,,,,,[],,,,,,87.9,1.0,i,1.0,True,601.9999997615814,37.0,60.0,40.0,False,,236.67367193736038,[],"[640, 360]",ColorTask,12.0,24.0,,,HRV,HRV_0087,2022-11-30 17:58:12
,wl-rdm,32,119712,0.0-6.24-0.24,0.0,33.0,,,,,,,[],,,,,,56.4,1.0,i,1.0,True,838.0,51.0,60.0,40.0,False,,215.47989313443847,[],"[640, 360]",ColorTask,13.0,25.0,,,HRV,HRV_0087,2022-11-30 17:58:12
,wl-rdm,33,121811,0.0-6.25-0.25,0.0,34.0,,,,,,,[],,,,,,53.2,0.0,u,0.0,True,767.0999999046326,47.0,60.0,40.0,False,,242.00522042387973,[],"[640, 360]",ColorTask,14.0,26.0,,,HRV,HRV_0087,2022-11-30 17:58:12
,wl-rdm,34,123826,0.0-6.26-0.26,0.0,35.0,,,,,,,[],,,,,,56.4,0.0,u,0.0,True,707.5999999046326,43.0,60.0,40.0,False,,218.2985670951993,[],"[640, 360]",ColorTask,15.0,27.0,,,HRV,HRV_0087,2022-11-30 17:58:12
,wl-rdm,35,125858,0.0-6.27-0.27,0.0,36.0,,,,,,,[],,,,,,87.9,1.0,i,1.0,True,658.2999999523163,40.0,60.0,40.0,False,,293.5392971654408,[],"[640, 360]",ColorTask,16.0,28.0,,,HRV,HRV_0087,2022-11-30 17:58:12
,wl-rdm,36,127906,0.0-6.28-0.28,0.0,37.0,,,,,,,[],,,,,,73.6,0.0,u,0.0,True,648.5,39.0,60.0,40.0,False,,323.27754658355025,[],"[640, 360]",ColorTask,17.0,29.0,,,HRV,HRV_0087,2022-11-30 17:58:12
,wl-rdm,37,129938,0.0-6.29-0.29,0.0,38.0,,,,,,,[],,,,,,50.0,1.0,u,0.0,False,739.1999998092651,45.0,60.0,40.0,False,,200.76798905862466,[],"[640, 360]",ColorTask,16.0,30.0,,,HRV,HRV_0087,2022-11-30 17:58:12
,wl-rdm,38,132019,0.0-6.30-0.30,0.0,39.0,,,,,,,[],,,,,,50.0,0.0,u,0.0,True,758.0,46.0,60.0,40.0,False,,236.1455590770297,[],"[640, 360]",ColorTask,17.0,31.0,,,HRV,HRV_0087,2022-11-30 17:58:12
,wl-rdm,39,134001,0.0-6.31-0.31,0.0,40.0,,,,,,,[],,,,,,50.0,0.0,u,0.0,True,665.1999998092651,40.0,60.0,40.0,False,,235.1918394942839,[],"[640, 360]",ColorTask,18.0,32.0,,,HRV,HRV_0087,2022-11-30 17:58:12
,wl-rdm,40,136100,0.0-6.32-0.32,0.0,41.0,,,,,,,[],,,,,,62.5,0.0,u,0.0,True,691.4000000953674,42.0,60.0,40.0,False,,319.73726612827966,[],"[640, 360]",ColorTask,19.0,33.0,,,HRV,HRV_0087,2022-11-30 17:58:12
,wl-rdm,41,138231,0.0-6.33-0.33,0.0,42.0,,,,,,,[],,,,,,73.6,1.0,i,1.0,True,730.1000001430511,44.0,60.0,40.0,False,,328.7853455141976,[],"[640, 360]",ColorTask,20.0,34.0,,,HRV,HRV_0087,2022-11-30 17:58:12
,wl-rdm,42,140196,0.0-6.34-0.34,0.0,43.0,,,,,,,[],,,,,,62.5,0.0,u,0.0,True,623.8999998569489,38.0,60.0,40.0,False,,255.49713546356477,[],"[640, 360]",ColorTask,21.0,35.0,,,HRV,HRV_0087,2022-11-30 17:58:12
,wl-rdm,43,142128,0.0-6.35-0.35,0.0,44.0,,,,,,,[],,,,,,73.6,1.0,i,1.0,True,525.6000001430511,32.0,60.0,40.0,False,,323.85959470291124,[],"[640, 360]",ColorTask,22.0,36.0,,,HRV,HRV_0087,2022-11-30 17:58:12
,wl-rdm,44,144126,0.0-6.36-0.36,0.0,45.0,,,,,,,[],,,,,,87.9,1.0,i,1.0,True,518.8000001907349,32.0,60.0,40.0,False,,387.0490049584803,[],"[640, 360]",ColorTask,23.0,37.0,,,HRV,HRV_0087,2022-11-30 17:58:12
,wl-rdm,45,146191,0.0-6.37-0.37,0.0,46.0,,,,,,,[],,,,,,56.4,0.0,u,0.0,True,782.5,47.0,60.0,40.0,False,,201.78969770991785,[],"[640, 360]",ColorTask,24.0,38.0,,,HRV,HRV_0087,2022-11-30 17:58:12
,wl-rdm,46,148273,0.0-6.38-0.38,0.0,47.0,,,,,,,[],,,,,,50.0,0.0,u,0.0,True,717.4000000953674,44.0,60.0,40.0,False,,280.7597640818212,[],"[640, 360]",ColorTask,25.0,39.0,,,HRV,HRV_0087,2022-11-30 17:58:12
,wl-rdm,47,150371,0.0-6.39-0.39,0.0,48.0,,,,,,,[],,,,,,53.2,1.0,u,0.0,False,735.0999999046326,45.0,60.0,40.0,False,,283.3103213983359,[],"[640, 360]",ColorTask,24.0,40.0,,,HRV,HRV_0087,2022-11-30 17:58:12
,wl-rdm,48,152453,0.0-6.40-0.40,0.0,49.0,,,,,,,[],,,,,,50.0,1.0,i,1.0,True,729.1000001430511,44.0,60.0,40.0,False,,281.2419223229666,[],"[640, 360]",ColorTask,25.0,41.0,,,HRV,HRV_0087,2022-11-30 17:58:12
,wl-rdm,49,154501,0.0-6.41-0.41,0.0,50.0,,,,,,,[],,,,,,50.0,1.0,i,1.0,True,737.1000001430511,45.0,60.0,40.0,False,,225.920437266942,[],"[640, 360]",ColorTask,26.0,42.0,,,HRV,HRV_0087,2022-11-30 17:58:12
,wl-rdm,50,156583,0.0-6.42-0.42,0.0,51.0,,,,,,,[],,,,,,56.4,1.0,i,1.0,True,704.8000001907349,43.0,60.0,40.0,False,,290.8879079242873,[],"[640, 360]",ColorTask,27.0,43.0,,,HRV,HRV_0087,2022-11-30 17:58:12
,wl-rdm,51,158714,0.0-6.43-0.43,0.0,52.0,,,,,,,[],,,,,,62.5,1.0,i,1.0,True,781.8999998569489,47.0,60.0,40.0,False,,269.3366985401431,[],"[640, 360]",ColorTask,28.0,44.0,,,HRV,HRV_0087,2022-11-30 17:58:12
,wl-rdm,52,160762,0.0-6.44-0.44,0.0,53.0,,,,,,,[],,,,,,87.9,0.0,u,0.0,True,672.7000000476837,41.0,60.0,40.0,False,,298.46717080280735,[],"[640, 360]",ColorTask,29.0,45.0,,,HRV,HRV_0087,2022-11-30 17:58:12
,wl-rdm,53,162861,0.0-6.45-0.45,0.0,54.0,,,,,,,[],,,,,,53.2,1.0,i,1.0,True,617.8999998569489,38.0,60.0,40.0,False,,384.2690021785853,[],"[640, 360]",ColorTask,30.0,46.0,,,HRV,HRV_0087,2022-11-30 17:58:12
,wl-rdm,54,164892,0.0-6.46-0.46,0.0,55.0,,,,,,,[],,,,,,62.5,1.0,i,1.0,True,612.9000000953674,37.0,60.0,40.0,False,,337.7894901289758,[],"[640, 360]",ColorTask,31.0,47.0,,,HRV,HRV_0087,2022-11-30 17:58:12
,wl-rdm,55,166941,0.0-6.47-0.47,0.0,56.0,,,,,,,[],,,,,,53.2,1.0,i,1.0,True,751.6999998092651,46.0,60.0,40.0,False,,203.51939826731265,[],"[640, 360]",ColorTask,32.0,48.0,,,HRV,HRV_0087,2022-11-30 17:58:12
,wl-rdm,56,168939,0.0-6.48-0.48,0.0,57.0,,,,,,,[],,,,,,53.2,1.0,i,1.0,True,587.2999999523163,36.0,60.0,40.0,False,,323.4431084571571,[],"[640, 360]",ColorTask,33.0,49.0,,,HRV,HRV_0087,2022-11-30 17:58:12
,wl-rdm,57,170938,0.0-6.49-0.49,0.0,58.0,,,,,,,[],,,,,,56.4,0.0,i,1.0,False,714.5999999046326,43.0,60.0,40.0,False,,206.4271485413556,[],"[640, 360]",ColorTask,32.0,50.0,,,HRV,HRV_0087,2022-11-30 17:58:12
,wl-rdm,58,173019,0.0-6.50-0.50,0.0,59.0,,,,,,,[],,,,,,62.5,0.0,u,0.0,True,771.0,47.0,60.0,40.0,False,,231.70134376598028,[],"[640, 360]",ColorTask,33.0,51.0,,,HRV,HRV_0087,2022-11-30 17:58:12
,wl-rdm,59,175101,0.0-6.51-0.51,0.0,60.0,,,,,,,[],,,,,,50.0,0.0,u,0.0,True,660.5999999046326,40.0,60.0,40.0,False,,333.9632585989971,[],"[640, 360]",ColorTask,34.0,52.0,,,HRV,HRV_0087,2022-11-30 17:58:12
,wl-rdm,60,177149,0.0-6.52-0.52,0.0,61.0,,,,,,,[],,,,,,87.9,0.0,u,0.0,True,617.7999999523163,38.0,60.0,40.0,False,,345.7272861922169,[],"[640, 360]",ColorTask,35.0,53.0,,,HRV,HRV_0087,2022-11-30 17:58:12
,wl-rdm,61,179248,0.0-6.53-0.53,0.0,62.0,,,,,,,[],,,,,,62.5,0.0,u,0.0,True,722.2999999523163,44.0,60.0,40.0,False,,292.3027420793318,[],"[640, 360]",ColorTask,36.0,54.0,,,HRV,HRV_0087,2022-11-30 17:58:12
,wl-rdm,62,181196,0.0-6.54-0.54,0.0,63.0,,,,,,,[],,,,,,53.2,0.0,u,0.0,True,664.5999999046326,40.0,60.0,40.0,False,,202.07718822141527,[],"[640, 360]",ColorTask,37.0,55.0,,,HRV,HRV_0087,2022-11-30 17:58:12
,wl-rdm,63,183161,0.0-6.55-0.55,0.0,64.0,,,,,,,[],,,,,,56.4,0.0,u,0.0,True,647.8000001907349,39.0,60.0,40.0,False,,244.02092566247666,[],"[640, 360]",ColorTask,38.0,56.0,,,HRV,HRV_0087,2022-11-30 17:58:12
,wl-rdm,64,185142,0.0-6.56-0.56,0.0,65.0,,,,,,,[],,,,,,62.5,1.0,u,0.0,False,685.7000000476837,42.0,60.0,40.0,False,,201.50527992018036,[],"[640, 360]",ColorTask,37.0,57.0,,,HRV,HRV_0087,2022-11-30 17:58:12
,wl-rdm,65,187274,0.0-6.57-0.57,0.0,66.0,,,,,,,[],,,,,,56.4,0.0,u,0.0,True,684.6999998092651,42.0,60.0,40.0,False,,366.0416832929994,[],"[640, 360]",ColorTask,38.0,58.0,,,HRV,HRV_0087,2022-11-30 17:58:12
,wl-rdm,66,189139,0.0-6.58-0.58,0.0,67.0,,,,,,,[],,,,,,87.9,0.0,u,0.0,True,578.6000001430511,35.0,60.0,40.0,False,,213.14753541320482,[],"[640, 360]",ColorTask,39.0,59.0,,,HRV,HRV_0087,2022-11-30 17:58:12
,wl-rdm,67,191121,0.0-6.59-0.59,0.0,68.0,,,,,,,[],,,,,,73.6,0.0,u,0.0,True,683.8999998569489,42.0,60.0,40.0,False,,214.48079038479378,[],"[640, 360]",ColorTask,40.0,60.0,,,HRV,HRV_0087,2022-11-30 17:58:12
,wl-rdm,68,193269,0.0-6.60-0.60,0.0,69.0,,,,,,,[],,,,,,53.2,0.0,u,0.0,True,812.2000000476837,49.0,60.0,40.0,False,,262.8950463709348,[],"[640, 360]",ColorTask,41.0,61.0,,,HRV,HRV_0087,2022-11-30 17:58:12
,wl-rdm,69,195334,0.0-6.61-0.61,0.0,70.0,,,,,,,[],,,,,,53.2,0.0,u,0.0,True,751.2000000476837,46.0,60.0,40.0,False,,223.71092242527808,[],"[640, 360]",ColorTask,42.0,62.0,,,HRV,HRV_0087,2022-11-30 17:58:12
,wl-rdm,70,197233,0.0-6.62-0.62,0.0,71.0,,,,,,,[],,,,,,62.5,0.0,u,0.0,True,590.7000000476837,36.0,60.0,40.0,False,,246.95720984706566,[],"[640, 360]",ColorTask,43.0,63.0,,,HRV,HRV_0087,2022-11-30 17:58:12
,wl-rdm,71,199331,0.0-6.63-0.63,0.0,72.0,,,,,,,[],,,,,,53.2,1.0,i,1.0,True,783.6999998092651,48.0,60.0,40.0,False,,228.337510880026,[],"[640, 360]",ColorTask,44.0,64.0,,,HRV,HRV_0087,2022-11-30 17:58:12
,wl-rdm,72,201395,0.0-6.64-0.64,0.0,73.0,,,,,,,[],,,,,,87.9,0.0,u,0.0,True,651.5999999046326,40.0,60.0,40.0,False,,322.6440420679647,[],"[640, 360]",ColorTask,45.0,65.0,,,HRV,HRV_0087,2022-11-30 17:58:12
,wl-rdm,73,203494,0.0-6.65-0.65,0.0,74.0,,,,,,,[],,,,,,73.6,1.0,i,1.0,True,774.2999999523163,47.0,60.0,40.0,False,,238.84897997497217,[],"[640, 360]",ColorTask,46.0,66.0,,,HRV,HRV_0087,2022-11-30 17:58:12
,wl-rdm,74,205392,0.0-6.66-0.66,0.0,75.0,,,,,,,[],,,,,,73.6,1.0,i,1.0,True,559.2000002861023,34.0,60.0,40.0,False,,252.63403064674156,[],"[640, 360]",ColorTask,47.0,67.0,,,HRV,HRV_0087,2022-11-30 17:58:12
,wl-rdm,75,207491,0.0-6.67-0.67,0.0,76.0,,,,,,,[],,,,,,62.5,0.0,u,0.0,True,700.7999999523163,43.0,60.0,40.0,False,,304.4096578105522,[],"[640, 360]",ColorTask,48.0,68.0,,,HRV,HRV_0087,2022-11-30 17:58:12
,wl-rdm,76,209605,0.0-6.68-0.68,0.0,77.0,,,,,,,[],,,,,,50.0,1.0,u,0.0,False,678.0,41.0,60.0,40.0,False,,357.65912325867123,[],"[640, 360]",ColorTask,47.0,69.0,,,HRV,HRV_0087,2022-11-30 17:58:12
,wl-rdm,77,211604,0.0-6.69-0.69,0.0,78.0,,,,,,,[],,,,,,87.9,1.0,i,1.0,True,667.3000001907349,41.0,60.0,40.0,False,,235.55344449285354,[],"[640, 360]",ColorTask,48.0,70.0,,,HRV,HRV_0087,2022-11-30 17:58:12
,wl-rdm,78,213519,0.0-6.70-0.70,0.0,79.0,,,,,,,[],,,,,,73.6,0.0,u,0.0,True,560.6000001430511,34.0,60.0,40.0,False,,273.341562173809,[],"[640, 360]",ColorTask,49.0,71.0,,,HRV,HRV_0087,2022-11-30 17:58:12
,wl-rdm,79,215501,0.0-6.71-0.71,0.0,80.0,,,,,,,[],,,,,,87.9,1.0,i,1.0,True,603.9000000953674,37.0,60.0,40.0,False,,285.23434687352443,[],"[640, 360]",ColorTask,50.0,72.0,,,HRV,HRV_0087,2022-11-30 17:58:12
,wl-rdm,80,217449,0.0-6.72-0.72,0.0,81.0,,,,,,,[],,,,,,87.9,0.0,u,0.0,True,633.7999999523163,39.0,60.0,40.0,False,,217.13760852605841,[],"[640, 360]",ColorTask,51.0,73.0,,,HRV,HRV_0087,2022-11-30 17:58:12
,wl-rdm,81,219664,0.0-6.73-0.73,0.0,82.0,,,,,,,[],,,,,,62.5,1.0,i,1.0,True,832.1000001430511,50.0,60.0,40.0,False,,304.6842029933878,[],"[640, 360]",ColorTask,52.0,74.0,,,HRV,HRV_0087,2022-11-30 17:58:12
,wl-rdm,82,221779,0.0-6.74-0.74,0.0,83.0,,,,,,,[],,,,,,50.0,1.0,i,1.0,True,684.7999999523163,42.0,60.0,40.0,False,,340.5052496332238,[],"[640, 360]",ColorTask,53.0,75.0,,,HRV,HRV_0087,2022-11-30 17:58:12
,wl-rdm,83,224027,0.0-6.75-0.75,0.0,84.0,,,,,,,[],,,,,,73.6,1.0,i,1.0,True,825.6999998092651,50.0,60.0,40.0,False,,338.4300950913563,[],"[640, 360]",ColorTask,54.0,76.0,,,HRV,HRV_0087,2022-11-30 17:58:12
,wl-rdm,84,225992,0.0-6.76-0.76,0.0,85.0,,,,,,,[],,,,,,87.9,0.0,u,0.0,True,658.5999999046326,40.0,60.0,40.0,False,,230.48343930993337,[],"[640, 360]",ColorTask,55.0,77.0,,,HRV,HRV_0087,2022-11-30 17:58:12
,wl-rdm,85,228107,0.0-6.77-0.77,0.0,86.0,,,,,,,[],,,,,,50.0,1.0,u,0.0,False,773.7999999523163,47.0,60.0,40.0,False,,254.94125203174298,[],"[640, 360]",ColorTask,54.0,78.0,,,HRV,HRV_0087,2022-11-30 17:58:12
,wl-rdm,86,230022,0.0-6.78-0.78,0.0,87.0,,,,,,,[],,,,,,50.0,1.0,i,1.0,True,585.5999999046326,36.0,60.0,40.0,False,,239.43783299195573,[],"[640, 360]",ColorTask,55.0,79.0,,,HRV,HRV_0087,2022-11-30 17:58:12
,wl-rdm,87,232104,0.0-6.79-0.79,0.0,88.0,,,,,,,[],,,,,,53.2,1.0,i,1.0,True,674.4000000953674,41.0,60.0,40.0,False,,326.66828240006686,[],"[640, 360]",ColorTask,56.0,80.0,,,HRV,HRV_0087,2022-11-30 17:58:12
,wl-rdm,88,234152,0.0-6.80-0.80,0.0,89.0,,,,,,,[],,,,,,56.4,1.0,u,0.0,False,574.5,35.0,60.0,40.0,False,,385.953535483735,[],"[640, 360]",ColorTask,55.0,81.0,,,HRV,HRV_0087,2022-11-30 17:58:12
,wl-rdm,89,236117,0.0-6.81-0.81,0.0,90.0,,,,,,,[],,,,,,50.0,1.0,i,1.0,True,588.2999999523163,36.0,60.0,40.0,False,,298.79302460583926,[],"[640, 360]",ColorTask,56.0,82.0,,,HRV,HRV_0087,2022-11-30 17:58:12
,wl-rdm,90,237999,0.0-6.82-0.82,0.0,91.0,,,,,,,[],,,,,,73.6,0.0,u,0.0,True,565.5,34.0,60.0,40.0,False,,242.0563388589802,[],"[640, 360]",ColorTask,57.0,83.0,,,HRV,HRV_0087,2022-11-30 17:58:12
,wl-rdm,91,239847,0.0-6.83-0.83,0.0,92.0,,,,,,,[],,,,,,87.9,1.0,i,1.0,True,562.2000000476837,34.0,60.0,40.0,False,,211.43144023949517,[],"[640, 360]",ColorTask,58.0,84.0,,,HRV,HRV_0087,2022-11-30 17:58:12
,wl-rdm,92,241763,0.0-6.84-0.84,0.0,93.0,,,,,,,[],,,,,,87.9,0.0,u,0.0,True,600.4000000953674,37.0,60.0,40.0,False,,229.7255446233511,[],"[640, 360]",ColorTask,59.0,85.0,,,HRV,HRV_0087,2022-11-30 17:58:12
,wl-rdm,93,243778,0.0-6.85-0.85,0.0,94.0,,,,,,,[],,,,,,62.5,1.0,i,1.0,True,584.8999998569489,36.0,60.0,40.0,False,,345.42707934924806,[],"[640, 360]",ColorTask,60.0,86.0,,,HRV,HRV_0087,2022-11-30 17:58:12
,wl-rdm,94,245793,0.0-6.86-0.86,0.0,95.0,,,,,,,[],,,,,,56.4,1.0,i,1.0,True,615.0,37.0,60.0,40.0,False,,342.9577606647167,[],"[640, 360]",ColorTask,61.0,87.0,,,HRV,HRV_0087,2022-11-30 17:58:12
,wl-rdm,95,247858,0.0-6.87-0.87,0.0,96.0,,,,,,,[],,,,,,73.6,0.0,u,0.0,True,709.7999999523163,43.0,60.0,40.0,False,,270.9984487507432,[],"[640, 360]",ColorTask,62.0,88.0,,,HRV,HRV_0087,2022-11-30 17:58:12
,wl-rdm,96,249873,0.0-6.88-0.88,0.0,97.0,,,,,,,[],,,,,,56.4,1.0,u,0.0,False,705.2000000476837,43.0,60.0,40.0,False,,232.78507777818606,[],"[640, 360]",ColorTask,61.0,89.0,,,HRV,HRV_0087,2022-11-30 17:58:12
,wl-rdm,97,251871,0.0-6.89-0.89,0.0,98.0,,,,,,,[],,,,,,62.5,0.0,u,0.0,True,625.7000000476837,38.0,60.0,40.0,False,,293.38962837711557,[],"[640, 360]",ColorTask,62.0,90.0,,,HRV,HRV_0087,2022-11-30 17:58:12
,wl-rdm,98,253836,0.0-6.90-0.90,0.0,99.0,,,,,,,[],,,,,,73.6,1.0,i,1.0,True,638.2000000476837,39.0,60.0,40.0,False,,243.41074593097096,[],"[640, 360]",ColorTask,63.0,91.0,,,HRV,HRV_0087,2022-11-30 17:58:12
,wl-rdm,99,255768,0.0-6.91-0.91,0.0,100.0,,,,,,,[],,,,,,87.9,1.0,i,1.0,True,570.9000000953674,35.0,60.0,40.0,False,,278.83466878209964,[],"[640, 360]",ColorTask,64.0,92.0,,,HRV,HRV_0087,2022-11-30 17:58:12
,wl-rdm,100,257683,0.0-6.92-0.92,0.0,101.0,,,,,,,[],,,,,,56.4,1.0,i,1.0,True,648.6000001430511,39.0,60.0,40.0,False,,208.07605075837782,[],"[640, 360]",ColorTask,65.0,93.0,,,HRV,HRV_0087,2022-11-30 17:58:12
,wl-rdm,101,259748,0.0-6.93-0.93,0.0,102.0,,,,,,,[],,,,,,53.2,0.0,i,1.0,False,635.1000001430511,39.0,60.0,40.0,False,,342.96624889846504,[],"[640, 360]",ColorTask,64.0,94.0,,,HRV,HRV_0087,2022-11-30 17:58:12
,wl-rdm,102,261646,0.0-6.94-0.94,0.0,103.0,,,,,,,[],,,,,,56.4,1.0,i,1.0,True,559.0,34.0,60.0,40.0,False,,257.8077324497865,[],"[640, 360]",ColorTask,65.0,95.0,,,HRV,HRV_0087,2022-11-30 17:58:12
,wl-rdm,103,263511,0.0-6.95-0.95,0.0,104.0,,,,,,,[],,,,,,56.4,1.0,u,0.0,False,528.4000000953674,32.0,60.0,40.0,False,,261.5476050088204,[],"[640, 360]",ColorTask,64.0,96.0,,,HRV,HRV_0087,2022-11-30 17:58:12
,wl-rdm,104,265543,0.0-6.96-0.96,0.0,105.0,,,,,,,[],,,,,,53.2,0.0,u,0.0,True,691.7000000476837,42.0,60.0,40.0,False,,252.95104904191442,[],"[640, 360]",ColorTask,65.0,97.0,,,HRV,HRV_0087,2022-11-30 17:58:12
,wl-rdm,105,267491,0.0-6.97-0.97,0.0,106.0,,,,,,,[],,,,,,56.4,0.0,u,0.0,True,589.4000000953674,36.0,60.0,40.0,False,,269.15946360136667,[],"[640, 360]",ColorTask,66.0,98.0,,,HRV,HRV_0087,2022-11-30 17:58:12
,wl-rdm,106,269640,0.0-6.98-0.98,0.0,107.0,,,,,,,[],,,,,,56.4,0.0,u,0.0,True,672.4000000953674,41.0,60.0,40.0,False,,391.1743716354229,[],"[640, 360]",ColorTask,67.0,99.0,,,HRV,HRV_0087,2022-11-30 17:58:12
,wl-rdm,107,271705,0.0-6.99-0.99,0.0,108.0,,,,,,,[],,,,,,87.9,1.0,i,1.0,True,634.0,39.0,60.0,40.0,False,,337.5335061113195,[],"[640, 360]",ColorTask,68.0,100.0,,,HRV,HRV_0087,2022-11-30 17:58:12
,wl-rdm,108,273569,0.0-6.100-0.100,0.0,109.0,,,,,,,[],,,,,,56.4,0.0,i,1.0,False,548.7999997138977,33.0,60.0,40.0,False,,242.57396690816032,[],"[640, 360]",ColorTask,67.0,101.0,,,HRV,HRV_0087,2022-11-30 17:58:12
,wl-rdm,109,275601,0.0-6.101-0.101,0.0,110.0,,,,,,,[],,,,,,50.0,0.0,u,0.0,True,680.6999998092651,41.0,60.0,40.0,False,,271.6770457941558,[],"[640, 360]",ColorTask,68.0,102.0,,,HRV,HRV_0087,2022-11-30 17:58:12
,wl-rdm,110,277666,0.0-6.102-0.102,0.0,111.0,,,,,,,[],,,,,,87.9,1.0,i,1.0,True,597.4000000953674,36.0,60.0,40.0,False,,398.1435309960077,[],"[640, 360]",ColorTask,69.0,103.0,,,HRV,HRV_0087,2022-11-30 17:58:12
,wl-rdm,111,279848,0.0-6.103-0.103,0.0,112.0,,,,,,,[],,,,,,53.2,1.0,u,0.0,False,783.7999999523163,48.0,60.0,40.0,False,,311.6188002399925,[],"[640, 360]",ColorTask,68.0,104.0,,,HRV,HRV_0087,2022-11-30 17:58:12
,wl-rdm,112,281830,0.0-6.104-0.104,0.0,113.0,,,,,,,[],,,,,,56.4,1.0,i,1.0,True,643.5999999046326,39.0,60.0,40.0,False,,257.5121692681959,[],"[640, 360]",ColorTask,69.0,105.0,,,HRV,HRV_0087,2022-11-30 17:58:12
,wl-rdm,113,283795,0.0-6.105-0.105,0.0,114.0,,,,,,,[],,,,,,50.0,0.0,i,1.0,False,639.3000001907349,39.0,60.0,40.0,False,,239.30429595769573,[],"[640, 360]",ColorTask,68.0,106.0,,,HRV,HRV_0087,2022-11-30 17:58:12
,wl-rdm,114,285793,0.0-6.106-0.106,0.0,115.0,,,,,,,[],,,,,,73.6,1.0,u,0.0,False,550.5999999046326,34.0,60.0,40.0,False,,352.5320359186953,[],"[640, 360]",ColorTask,67.0,107.0,,,HRV,HRV_0087,2022-11-30 17:58:12
,wl-rdm,115,287775,0.0-6.107-0.107,0.0,116.0,,,,,,,[],,,,,,62.5,0.0,u,0.0,True,547.1000001430511,33.0,60.0,40.0,False,,361.51396397546574,[],"[640, 360]",ColorTask,68.0,108.0,,,HRV,HRV_0087,2022-11-30 17:58:12
,wl-html-keyboard-response,116,295306,0.0-7.0-0.0,1.0,117.0,,,,,,,,5521.700000047684,1.0,0,,,,,,,,,,,,,,,,,,,,,,HRV,HRV_0087,2022-11-30 17:58:12
,wl-rdm,117,297300,0.0-8.0-0.0,1.0,118.0,,,,,,,[],,,,,,62.5,0.0,u,0.0,True,693.4000000953674,42.0,60.0,40.0,False,,221.66157654750407,[],"[640, 360]",ColorTask,69.0,1.0,,,HRV,HRV_0087,2022-11-30 17:58:12
,wl-rdm,118,299382,0.0-8.1-0.1,1.0,119.0,,,,,,,[],,,,,,87.9,0.0,i,1.0,False,722.2999999523163,44.0,60.0,40.0,False,,270.57690296678857,[],"[640, 360]",ColorTask,68.0,2.0,,,HRV,HRV_0087,2022-11-30 17:58:12
,wl-rdm,119,301430,0.0-8.2-0.2,1.0,120.0,,,,,,,[],,,,,,62.5,0.0,u,0.0,True,736.0999999046326,45.0,60.0,40.0,False,,229.5963810481547,[],"[640, 360]",ColorTask,69.0,3.0,,,HRV,HRV_0087,2022-11-30 17:58:12
,wl-rdm,120,303345,0.0-8.3-0.3,1.0,121.0,,,,,,,[],,,,,,73.6,1.0,i,1.0,True,625.1999998092651,38.0,60.0,40.0,False,,203.47286218310927,[],"[640, 360]",ColorTask,70.0,4.0,,,HRV,HRV_0087,2022-11-30 17:58:12
,wl-rdm,121,305576,0.0-8.4-0.4,1.0,122.0,,,,,,,[],,,,,,50.0,0.0,u,0.0,True,931.6000001430511,56.0,60.0,40.0,False,,219.8028814186387,[],"[640, 360]",ColorTask,71.0,5.0,,,HRV,HRV_0087,2022-11-30 17:58:12
,wl-rdm,122,307541,0.0-8.5-0.5,1.0,123.0,,,,,,,[],,,,,,50.0,1.0,u,0.0,False,663.7000000476837,40.0,60.0,40.0,False,,218.94211620870806,[],"[640, 360]",ColorTask,70.0,6.0,,,HRV,HRV_0087,2022-11-30 17:58:12
,wl-rdm,123,309656,0.0-8.6-0.6,1.0,124.0,,,,,,,[],,,,,,62.5,0.0,i,1.0,False,707.8999998569489,43.0,60.0,40.0,False,,323.90985169820135,[],"[640, 360]",ColorTask,69.0,7.0,,,HRV,HRV_0087,2022-11-30 17:58:12
,wl-rdm,124,311738,0.0-8.7-0.7,1.0,125.0,,,,,,,[],,,,,,50.0,0.0,i,1.0,False,723.0,44.0,60.0,40.0,False,,279.65917153608757,[],"[640, 360]",ColorTask,68.0,8.0,,,HRV,HRV_0087,2022-11-30 17:58:12
,wl-rdm,125,313770,0.0-8.8-0.8,1.0,126.0,,,,,,,[],,,,,,53.2,1.0,u,0.0,False,742.3000001907349,45.0,60.0,40.0,False,,206.6875495482028,[],"[640, 360]",ColorTask,67.0,9.0,,,HRV,HRV_0087,2022-11-30 17:58:12
,wl-rdm,126,315834,0.0-8.9-0.9,1.0,127.0,,,,,,,[],,,,,,87.9,1.0,u,0.0,False,668.3000001907349,41.0,60.0,40.0,False,,313.71880775090494,[],"[640, 360]",ColorTask,66.0,10.0,,,HRV,HRV_0087,2022-11-30 17:58:12
,wl-rdm,127,317933,0.0-8.10-0.10,1.0,128.0,,,,,,,[],,,,,,62.5,1.0,i,1.0,True,695.0000002384186,42.0,60.0,40.0,False,,326.86759206292487,[],"[640, 360]",ColorTask,67.0,11.0,,,HRV,HRV_0087,2022-11-30 17:58:12
,wl-rdm,128,319815,0.0-8.11-0.11,1.0,129.0,,,,,,,[],,,,,,62.5,0.0,i,1.0,False,531.3999998569489,32.0,60.0,40.0,False,,281.7492562203476,[],"[640, 360]",ColorTask,66.0,12.0,,,HRV,HRV_0087,2022-11-30 17:58:12
,wl-rdm,129,321846,0.0-8.12-0.12,1.0,130.0,,,,,,,[],,,,,,56.4,1.0,u,0.0,False,654.0,40.0,60.0,40.0,False,,298.35879133152827,[],"[640, 360]",ColorTask,65.0,13.0,,,HRV,HRV_0087,2022-11-30 17:58:12
,wl-rdm,130,323811,0.0-8.13-0.13,1.0,131.0,,,,,,,[],,,,,,62.5,0.0,u,0.0,True,677.4000000953674,41.0,60.0,40.0,False,,208.2197674662259,[],"[640, 360]",ColorTask,66.0,14.0,,,HRV,HRV_0087,2022-11-30 17:58:12
,wl-rdm,131,325859,0.0-8.14-0.14,1.0,132.0,,,,,,,[],,,,,,62.5,1.0,u,0.0,False,634.4000000953674,39.0,60.0,40.0,False,,325.64405916316383,[],"[640, 360]",ColorTask,65.0,15.0,,,HRV,HRV_0087,2022-11-30 17:58:12
,wl-rdm,132,328024,0.0-8.15-0.15,1.0,133.0,,,,,,,[],,,,,,56.4,0.0,u,0.0,True,798.2000000476837,48.0,60.0,40.0,False,,289.2197474261667,[],"[640, 360]",ColorTask,66.0,16.0,,,HRV,HRV_0087,2022-11-30 17:58:12
,wl-rdm,133,330139,0.0-8.16-0.16,1.0,134.0,,,,,,,[],,,,,,87.9,1.0,i,1.0,True,648.3999998569489,39.0,60.0,40.0,False,,393.0509621903865,[],"[640, 360]",ColorTask,67.0,17.0,,,HRV,HRV_0087,2022-11-30 17:58:12
,wl-rdm,134,332121,0.0-8.17-0.17,1.0,135.0,,,,,,,[],,,,,,62.5,1.0,i,1.0,True,656.0000002384186,40.0,60.0,40.0,False,,234.8502214259247,[],"[640, 360]",ColorTask,68.0,18.0,,,HRV,HRV_0087,2022-11-30 17:58:12
,wl-rdm,135,334219,0.0-8.18-0.18,1.0,136.0,,,,,,,[],,,,,,53.2,0.0,u,0.0,True,773.2000000476837,47.0,60.0,40.0,False,,233.7841516523023,[],"[640, 360]",ColorTask,69.0,19.0,,,HRV,HRV_0087,2022-11-30 17:58:12
,wl-rdm,136,336301,0.0-8.19-0.19,1.0,137.0,,,,,,,[],,,,,,53.2,1.0,u,0.0,False,600.5999999046326,37.0,60.0,40.0,False,,398.850942646646,[],"[640, 360]",ColorTask,68.0,20.0,,,HRV,HRV_0087,2022-11-30 17:58:12
,wl-rdm,137,338532,0.0-8.20-0.20,1.0,138.0,,,,,,,[],,,,,,62.5,1.0,i,1.0,True,781.3000001907349,47.0,60.0,40.0,False,,380.09506995924175,[],"[640, 360]",ColorTask,69.0,21.0,,,HRV,HRV_0087,2022-11-30 17:58:12
,wl-rdm,138,340514,0.0-8.21-0.21,1.0,139.0,,,,,,,[],,,,,,62.5,1.0,u,0.0,False,644.2000000476837,39.0,60.0,40.0,False,,261.96085438216596,[],"[640, 360]",ColorTask,68.0,22.0,,,HRV,HRV_0087,2022-11-30 17:58:12
,wl-rdm,139,342529,0.0-8.22-0.22,1.0,140.0,,,,,,,[],,,,,,73.6,1.0,i,1.0,True,650.5999999046326,40.0,60.0,40.0,False,,267.7074419357608,[],"[640, 360]",ColorTask,69.0,23.0,,,HRV,HRV_0087,2022-11-30 17:58:12
,wl-rdm,140,344594,0.0-8.23-0.23,1.0,141.0,,,,,,,[],,,,,,62.5,0.0,u,0.0,True,751.5,46.0,60.0,40.0,False,,220.92850102167085,[],"[640, 360]",ColorTask,70.0,24.0,,,HRV,HRV_0087,2022-11-30 17:58:12
,wl-rdm,141,346792,0.0-8.24-0.24,1.0,142.0,,,,,,,[],,,,,,53.2,1.0,u,0.0,False,760.0999999046326,46.0,60.0,40.0,False,,354.08025576016905,[],"[640, 360]",ColorTask,69.0,25.0,,,HRV,HRV_0087,2022-11-30 17:58:12
,wl-rdm,142,348757,0.0-8.25-0.25,1.0,143.0,,,,,,,[],,,,,,56.4,0.0,i,1.0,False,621.0,38.0,60.0,40.0,False,,256.5256890673193,[],"[640, 360]",ColorTask,68.0,26.0,,,HRV,HRV_0087,2022-11-30 17:58:12
,wl-rdm,143,350639,0.0-8.26-0.26,1.0,144.0,,,,,,,[],,,,,,73.6,1.0,i,1.0,True,593.7000000476837,36.0,60.0,40.0,False,,208.395925782251,[],"[640, 360]",ColorTask,69.0,27.0,,,HRV,HRV_0087,2022-11-30 17:58:12
,wl-rdm,144,352654,0.0-8.27-0.27,1.0,145.0,,,,,,,[],,,,,,53.2,0.0,i,1.0,False,687.0999999046326,42.0,60.0,40.0,False,,247.6712738752526,[],"[640, 360]",ColorTask,68.0,28.0,,,HRV,HRV_0087,2022-11-30 17:58:12
,wl-rdm,145,354519,0.0-8.28-0.28,1.0,146.0,,,,,,,[],,,,,,56.4,1.0,u,0.0,False,578.9000000953674,35.0,60.0,40.0,False,,203.2109095516804,[],"[640, 360]",ColorTask,67.0,29.0,,,HRV,HRV_0087,2022-11-30 17:58:12
,wl-rdm,146,356501,0.0-8.29-0.29,1.0,147.0,,,,,,,[],,,,,,53.2,1.0,i,1.0,True,669.2000000476837,41.0,60.0,40.0,False,,220.44144685889725,[],"[640, 360]",ColorTask,68.0,30.0,,,HRV,HRV_0087,2022-11-30 17:58:12
,wl-rdm,147,358516,0.0-8.30-0.30,1.0,148.0,,,,,,,[],,,,,,87.9,0.0,i,1.0,False,551.0,34.0,60.0,40.0,False,,366.77198876209366,[],"[640, 360]",ColorTask,67.0,31.0,,,HRV,HRV_0087,2022-11-30 17:58:12
,wl-rdm,148,360564,0.0-8.31-0.31,1.0,149.0,,,,,,,[],,,,,,53.2,0.0,i,1.0,False,705.3999998569489,43.0,60.0,40.0,False,,262.93823101022764,[],"[640, 360]",ColorTask,66.0,32.0,,,HRV,HRV_0087,2022-11-30 17:58:12
,wl-rdm,149,362646,0.0-8.32-0.32,1.0,150.0,,,,,,,[],,,,,,50.0,0.0,i,1.0,False,777.7999999523163,47.0,60.0,40.0,False,,222.34801613106532,[],"[640, 360]",ColorTask,65.0,33.0,,,HRV,HRV_0087,2022-11-30 17:58:12
,wl-rdm,150,364628,0.0-8.33-0.33,1.0,151.0,,,,,,,[],,,,,,50.0,1.0,i,1.0,True,641.1000001430511,39.0,60.0,40.0,False,,256.29591694124815,[],"[640, 360]",ColorTask,66.0,34.0,,,HRV,HRV_0087,2022-11-30 17:58:12
,wl-rdm,151,366593,0.0-8.34-0.34,1.0,152.0,,,,,,,[],,,,,,53.2,1.0,u,0.0,False,669.5,41.0,60.0,40.0,False,,209.16905985355817,[],"[640, 360]",ColorTask,65.0,35.0,,,HRV,HRV_0087,2022-11-30 17:58:12
,wl-rdm,152,368558,0.0-8.35-0.35,1.0,153.0,,,,,,,[],,,,,,50.0,0.0,i,1.0,False,654.7000002861023,40.0,60.0,40.0,False,,218.01369883089376,[],"[640, 360]",ColorTask,64.0,36.0,,,HRV,HRV_0087,2022-11-30 17:58:12
,wl-rdm,153,370573,0.0-8.36-0.36,1.0,154.0,,,,,,,[],,,,,,87.9,1.0,i,1.0,True,667.7999999523163,41.0,60.0,40.0,False,,255.28200155559142,[],"[640, 360]",ColorTask,65.0,37.0,,,HRV,HRV_0087,2022-11-30 17:58:12
,wl-rdm,154,372671,0.0-8.37-0.37,1.0,155.0,,,,,,,[],,,,,,87.9,1.0,i,1.0,True,661.7000000476837,40.0,60.0,40.0,False,,361.3796868069319,[],"[640, 360]",ColorTask,66.0,38.0,,,HRV,HRV_0087,2022-11-30 17:58:12
,wl-rdm,155,374686,0.0-8.38-0.38,1.0,156.0,,,,,,,[],,,,,,56.4,1.0,i,1.0,True,713.5999999046326,43.0,60.0,40.0,False,,232.82189799106172,[],"[640, 360]",ColorTask,67.0,39.0,,,HRV,HRV_0087,2022-11-30 17:58:12
,wl-rdm,156,376768,0.0-8.39-0.39,1.0,157.0,,,,,,,[],,,,,,56.4,0.0,i,1.0,False,662.7999999523163,40.0,60.0,40.0,False,,345.3572327985935,[],"[640, 360]",ColorTask,66.0,40.0,,,HRV,HRV_0087,2022-11-30 17:58:12
,wl-rdm,157,378716,0.0-8.40-0.40,1.0,158.0,,,,,,,[],,,,,,87.9,0.0,u,0.0,True,575.6000001430511,35.0,60.0,40.0,False,,296.466901429569,[],"[640, 360]",ColorTask,67.0,41.0,,,HRV,HRV_0087,2022-11-30 17:58:12
,wl-rdm,158,381131,0.0-8.41-0.41,1.0,159.0,,,,,,,[],,,,,,73.6,1.0,i,1.0,True,987.6999998092651,60.0,60.0,40.0,False,,344.36913597183195,[],"[640, 360]",ColorTask,68.0,42.0,,,HRV,HRV_0087,2022-11-30 17:58:12
,wl-rdm,159,383196,0.0-8.42-0.42,1.0,160.0,,,,,,,[],,,,,,50.0,0.0,i,1.0,False,740.1000001430511,45.0,60.0,40.0,False,,237.78514861963603,[],"[640, 360]",ColorTask,67.0,43.0,,,HRV,HRV_0087,2022-11-30 17:58:12
,wl-rdm,160,385244,0.0-8.43-0.43,1.0,161.0,,,,,,,[],,,,,,87.9,0.0,u,0.0,True,630.0,38.0,60.0,40.0,False,,347.95534304712487,[],"[640, 360]",ColorTask,68.0,44.0,,,HRV,HRV_0087,2022-11-30 17:58:12
,wl-rdm,161,387259,0.0-8.44-0.44,1.0,162.0,,,,,,,[],,,,,,56.4,0.0,i,1.0,False,712.5,43.0,60.0,40.0,False,,230.08775043351073,[],"[640, 360]",ColorTask,67.0,45.0,,,HRV,HRV_0087,2022-11-30 17:58:12
,wl-rdm,162,389274,0.0-8.45-0.45,1.0,163.0,,,,,,,[],,,,,,73.6,0.0,u,0.0,True,607.5999999046326,37.0,60.0,40.0,False,,329.1931701353011,[],"[640, 360]",ColorTask,68.0,46.0,,,HRV,HRV_0087,2022-11-30 17:58:12
,wl-rdm,163,391322,0.0-8.46-0.46,1.0,164.0,,,,,,,[],,,,,,53.2,1.0,u,0.0,False,633.8999998569489,39.0,60.0,40.0,False,,320.2721908606649,[],"[640, 360]",ColorTask,67.0,47.0,,,HRV,HRV_0087,2022-11-30 17:58:12
,wl-rdm,164,393271,0.0-8.47-0.47,1.0,165.0,,,,,,,[],,,,,,87.9,1.0,i,1.0,True,617.4999997615814,38.0,60.0,40.0,False,,247.2926482037289,[],"[640, 360]",ColorTask,68.0,48.0,,,HRV,HRV_0087,2022-11-30 17:58:12
,wl-rdm,165,395336,0.0-8.48-0.48,1.0,166.0,,,,,,,[],,,,,,73.6,0.0,i,1.0,False,662.2000000476837,40.0,60.0,40.0,False,,330.84991193552736,[],"[640, 360]",ColorTask,67.0,49.0,,,HRV,HRV_0087,2022-11-30 17:58:12
,wl-rdm,166,397351,0.0-8.49-0.49,1.0,167.0,,,,,,,[],,,,,,53.2,0.0,u,0.0,True,636.2999999523163,39.0,60.0,40.0,False,,289.51101296590423,[],"[640, 360]",ColorTask,68.0,50.0,,,HRV,HRV_0087,2022-11-30 17:58:12
,wl-rdm,167,399233,0.0-8.50-0.50,1.0,168.0,,,,,,,[],,,,,,87.9,0.0,u,0.0,True,578.0000002384186,35.0,60.0,40.0,False,,229.513423996367,[],"[640, 360]",ColorTask,69.0,51.0,,,HRV,HRV_0087,2022-11-30 17:58:12
,wl-rdm,168,401148,0.0-8.51-0.51,1.0,169.0,,,,,,,[],,,,,,56.4,1.0,i,1.0,True,561.7999999523163,34.0,60.0,40.0,False,,271.44885880634786,[],"[640, 360]",ColorTask,70.0,52.0,,,HRV,HRV_0087,2022-11-30 17:58:12
,wl-rdm,169,403229,0.0-8.52-0.52,1.0,170.0,,,,,,,[],,,,,,62.5,1.0,i,1.0,True,638.7999999523163,39.0,60.0,40.0,False,,363.31440168507345,[],"[640, 360]",ColorTask,71.0,53.0,,,HRV,HRV_0087,2022-11-30 17:58:12
,wl-rdm,170,405078,0.0-8.53-0.53,1.0,171.0,,,,,,,[],,,,,,87.9,1.0,i,1.0,True,500.2999999523163,31.0,60.0,40.0,False,,253.7167893336694,[],"[640, 360]",ColorTask,72.0,54.0,,,HRV,HRV_0087,2022-11-30 17:58:12
,wl-rdm,171,406976,0.0-8.54-0.54,1.0,172.0,,,,,,,[],,,,,,62.5,1.0,i,1.0,True,588.2999999523163,36.0,60.0,40.0,False,,225.3162411122075,[],"[640, 360]",ColorTask,73.0,55.0,,,HRV,HRV_0087,2022-11-30 17:58:12
,wl-rdm,172,408942,0.0-8.55-0.55,1.0,173.0,,,,,,,[],,,,,,56.4,0.0,u,0.0,True,595.0,36.0,60.0,40.0,False,,293.9333177026674,[],"[640, 360]",ColorTask,74.0,56.0,,,HRV,HRV_0087,2022-11-30 17:58:12
,wl-rdm,173,411023,0.0-8.56-0.56,1.0,174.0,,,,,,,[],,,,,,53.2,0.0,u,0.0,True,642.5,39.0,60.0,40.0,False,,358.1670655165598,[],"[640, 360]",ColorTask,75.0,57.0,,,HRV,HRV_0087,2022-11-30 17:58:12
,wl-rdm,174,412988,0.0-8.57-0.57,1.0,175.0,,,,,,,[],,,,,,87.9,1.0,i,1.0,True,619.3999998569489,38.0,60.0,40.0,False,,265.77478878130125,[],"[640, 360]",ColorTask,76.0,58.0,,,HRV,HRV_0087,2022-11-30 17:58:12
,wl-rdm,175,415120,0.0-8.58-0.58,1.0,176.0,,,,,,,[],,,,,,73.6,0.0,u,0.0,True,754.9999997615814,46.0,60.0,40.0,False,,296.4754970120583,[],"[640, 360]",ColorTask,77.0,59.0,,,HRV,HRV_0087,2022-11-30 17:58:12
,wl-rdm,176,417118,0.0-8.59-0.59,1.0,177.0,,,,,,,[],,,,,,62.5,0.0,u,0.0,True,651.7000002861023,40.0,60.0,40.0,False,,265.57809807399826,[],"[640, 360]",ColorTask,78.0,60.0,,,HRV,HRV_0087,2022-11-30 17:58:12
,wl-rdm,177,419116,0.0-8.60-0.60,1.0,178.0,,,,,,,[],,,,,,53.2,1.0,u,0.0,False,705.7000000476837,43.0,60.0,40.0,False,,213.40808633858114,[],"[640, 360]",ColorTask,77.0,61.0,,,HRV,HRV_0087,2022-11-30 17:58:12
,wl-rdm,178,421065,0.0-8.61-0.61,1.0,179.0,,,,,,,[],,,,,,87.9,0.0,u,0.0,True,629.7000000476837,38.0,60.0,40.0,False,,239.96861044105844,[],"[640, 360]",ColorTask,78.0,62.0,,,HRV,HRV_0087,2022-11-30 17:58:12
,wl-rdm,179,423080,0.0-8.62-0.62,1.0,180.0,,,,,,,[],,,,,,87.9,0.0,u,0.0,True,643.3999998569489,39.0,60.0,40.0,False,,292.31965807536574,[],"[640, 360]",ColorTask,79.0,63.0,,,HRV,HRV_0087,2022-11-30 17:58:12
,wl-rdm,180,424929,0.0-8.63-0.63,1.0,181.0,,,,,,,[],,,,,,87.9,1.0,i,1.0,True,480.2999999523163,29.0,60.0,40.0,False,,290.75884884192374,[],"[640, 360]",ColorTask,80.0,64.0,,,HRV,HRV_0087,2022-11-30 17:58:12
,wl-rdm,181,427077,0.0-8.64-0.64,1.0,182.0,,,,,,,[],,,,,,53.2,1.0,u,0.0,False,782.0000002384186,47.0,60.0,40.0,False,,298.3502247195806,[],"[640, 360]",ColorTask,79.0,65.0,,,HRV,HRV_0087,2022-11-30 17:58:12
,wl-rdm,182,429009,0.0-8.65-0.65,1.0,183.0,,,,,,,[],,,,,,53.2,1.0,i,1.0,True,568.3000001907349,35.0,60.0,40.0,False,,269.023399949367,[],"[640, 360]",ColorTask,80.0,66.0,,,HRV,HRV_0087,2022-11-30 17:58:12
,wl-rdm,183,431024,0.0-8.66-0.66,1.0,184.0,,,,,,,[],,,,,,73.6,0.0,u,0.0,True,688.8999998569489,42.0,60.0,40.0,False,,240.16059702547238,[],"[640, 360]",ColorTask,81.0,67.0,,,HRV,HRV_0087,2022-11-30 17:58:12
,wl-rdm,184,433055,0.0-8.67-0.67,1.0,185.0,,,,,,,[],,,,,,50.0,1.0,u,0.0,False,708.4000000953674,43.0,60.0,40.0,False,,245.6404381695359,[],"[640, 360]",ColorTask,80.0,68.0,,,HRV,HRV_0087,2022-11-30 17:58:12
,wl-rdm,185,434937,0.0-8.68-0.68,1.0,186.0,,,,,,,[],,,,,,73.6,0.0,i,1.0,False,538.0,33.0,60.0,40.0,False,,258.4743706422826,[],"[640, 360]",ColorTask,79.0,69.0,,,HRV,HRV_0087,2022-11-30 17:58:12
,wl-rdm,186,437035,0.0-8.69-0.69,1.0,187.0,,,,,,,[],,,,,,50.0,1.0,u,0.0,False,773.7999997138977,47.0,60.0,40.0,False,,239.35956981210512,[],"[640, 360]",ColorTask,78.0,70.0,,,HRV,HRV_0087,2022-11-30 17:58:12
,wl-rdm,187,439050,0.0-8.70-0.70,1.0,188.0,,,,,,,[],,,,,,56.4,0.0,u,0.0,True,722.9000000953674,44.0,60.0,40.0,False,,209.62043164665073,[],"[640, 360]",ColorTask,79.0,71.0,,,HRV,HRV_0087,2022-11-30 17:58:12
,wl-rdm,188,441065,0.0-8.71-0.71,1.0,189.0,,,,,,,[],,,,,,73.6,1.0,i,1.0,True,600.5000002384186,37.0,60.0,40.0,False,,330.73413904490053,[],"[640, 360]",ColorTask,80.0,72.0,,,HRV,HRV_0087,2022-11-30 17:58:12
,wl-rdm,189,443164,0.0-8.72-0.72,1.0,190.0,,,,,,,[],,,,,,73.6,0.0,u,0.0,True,723.4000000953674,44.0,60.0,40.0,False,,287.3658084829938,[],"[640, 360]",ColorTask,81.0,73.0,,,HRV,HRV_0087,2022-11-30 17:58:12
,wl-rdm,190,445178,0.0-8.73-0.73,1.0,191.0,,,,,,,[],,,,,,56.4,1.0,i,1.0,True,629.6000001430511,38.0,60.0,40.0,False,,303.93278064928506,[],"[640, 360]",ColorTask,82.0,74.0,,,HRV,HRV_0087,2022-11-30 17:58:12
,wl-rdm,191,447460,0.0-8.74-0.74,1.0,192.0,,,,,,,[],,,,,,56.4,1.0,i,1.0,True,784.0,48.0,60.0,40.0,False,,399.94019435148294,[],"[640, 360]",ColorTask,83.0,75.0,,,HRV,HRV_0087,2022-11-30 17:58:12
,wl-rdm,192,449559,0.0-8.75-0.75,1.0,193.0,,,,,,,[],,,,,,62.5,1.0,i,1.0,True,725.7999999523163,44.0,60.0,40.0,False,,284.33122076540644,[],"[640, 360]",ColorTask,84.0,76.0,,,HRV,HRV_0087,2022-11-30 17:58:12
,wl-rdm,193,451740,0.0-8.76-0.76,1.0,194.0,,,,,,,[],,,,,,50.0,1.0,u,0.0,False,768.5,47.0,60.0,40.0,False,,330.11829889495334,[],"[640, 360]",ColorTask,83.0,77.0,,,HRV,HRV_0087,2022-11-30 17:58:12
,wl-rdm,194,453539,0.0-8.77-0.77,1.0,195.0,,,,,,,[],,,,,,56.4,0.0,i,1.0,False,478.0000002384186,29.0,60.0,40.0,False,,250.33116117340924,[],"[640, 360]",ColorTask,82.0,78.0,,,HRV,HRV_0087,2022-11-30 17:58:12
,wl-rdm,195,455454,0.0-8.78-0.78,1.0,196.0,,,,,,,[],,,,,,87.9,0.0,u,0.0,True,608.5,37.0,60.0,40.0,False,,223.80867411090048,[],"[640, 360]",ColorTask,83.0,79.0,,,HRV,HRV_0087,2022-11-30 17:58:12
,wl-rdm,196,457568,0.0-8.79-0.79,1.0,197.0,,,,,,,[],,,,,,56.4,0.0,u,0.0,True,662.8000001907349,40.0,60.0,40.0,False,,366.5096840213709,[],"[640, 360]",ColorTask,84.0,80.0,,,HRV,HRV_0087,2022-11-30 17:58:12
,wl-rdm,197,459500,0.0-8.80-0.80,1.0,198.0,,,,,,,[],,,,,,62.5,1.0,i,1.0,True,617.2000000476837,38.0,60.0,40.0,False,,232.59213477141935,[],"[640, 360]",ColorTask,85.0,81.0,,,HRV,HRV_0087,2022-11-30 17:58:12
,wl-rdm,198,461532,0.0-8.81-0.81,1.0,199.0,,,,,,,[],,,,,,50.0,1.0,i,1.0,True,688.3999998569489,42.0,60.0,40.0,False,,252.2821032449305,[],"[640, 360]",ColorTask,86.0,82.0,,,HRV,HRV_0087,2022-11-30 17:58:12
,wl-rdm,199,463397,0.0-8.82-0.82,1.0,200.0,,,,,,,[],,,,,,53.2,0.0,i,1.0,False,570.0,35.0,60.0,40.0,False,,207.0252666352051,[],"[640, 360]",ColorTask,85.0,83.0,,,HRV,HRV_0087,2022-11-30 17:58:12
,wl-rdm,200,465295,0.0-8.83-0.83,1.0,201.0,,,,,,,[],,,,,,73.6,0.0,u,0.0,True,615.4000000953674,37.0,60.0,40.0,False,,212.88225700039348,[],"[640, 360]",ColorTask,86.0,84.0,,,HRV,HRV_0087,2022-11-30 17:58:12
,wl-rdm,201,467294,0.0-8.84-0.84,1.0,202.0,,,,,,,[],,,,,,50.0,0.0,u,0.0,True,593.9000000953674,36.0,60.0,40.0,False,,331.30878603372486,[],"[640, 360]",ColorTask,87.0,85.0,,,HRV,HRV_0087,2022-11-30 17:58:12
,wl-rdm,202,469226,0.0-8.85-0.85,1.0,203.0,,,,,,,[],,,,,,87.9,0.0,u,0.0,True,643.0,39.0,60.0,40.0,False,,205.41570053023682,[],"[640, 360]",ColorTask,88.0,86.0,,,HRV,HRV_0087,2022-11-30 17:58:12
,wl-rdm,203,471274,0.0-8.86-0.86,1.0,204.0,,,,,,,[],,,,,,73.6,0.0,u,0.0,True,711.0999999046326,43.0,60.0,40.0,False,,262.6805993179034,[],"[640, 360]",ColorTask,89.0,87.0,,,HRV,HRV_0087,2022-11-30 17:58:12
,wl-rdm,204,473239,0.0-8.87-0.87,1.0,205.0,,,,,,,[],,,,,,50.0,1.0,u,0.0,False,633.4000000953674,39.0,60.0,40.0,False,,244.63844724187499,[],"[640, 360]",ColorTask,88.0,88.0,,,HRV,HRV_0087,2022-11-30 17:58:12
,wl-rdm,205,475087,0.0-8.88-0.88,1.0,206.0,,,,,,,[],,,,,,56.4,1.0,i,1.0,True,545.4999997615814,33.0,60.0,40.0,False,,227.5927380436493,[],"[640, 360]",ColorTask,89.0,89.0,,,HRV,HRV_0087,2022-11-30 17:58:12
,wl-rdm,206,477002,0.0-8.89-0.89,1.0,207.0,,,,,,,[],,,,,,73.6,0.0,u,0.0,True,551.0,34.0,60.0,40.0,False,,270.0581137534648,[],"[640, 360]",ColorTask,90.0,90.0,,,HRV,HRV_0087,2022-11-30 17:58:12
,wl-rdm,207,478951,0.0-8.90-0.90,1.0,208.0,,,,,,,[],,,,,,53.2,0.0,u,0.0,True,633.4000000953674,39.0,60.0,40.0,False,,220.65491282482438,[],"[640, 360]",ColorTask,91.0,91.0,,,HRV,HRV_0087,2022-11-30 17:58:12
,wl-rdm,208,480966,0.0-8.91-0.91,1.0,209.0,,,,,,,[],,,,,,50.0,0.0,i,1.0,False,593.2000000476837,36.0,60.0,40.0,False,,348.445122398964,[],"[640, 360]",ColorTask,90.0,92.0,,,HRV,HRV_0087,2022-11-30 17:58:12
,wl-rdm,209,483031,0.0-8.92-0.92,1.0,210.0,,,,,,,[],,,,,,50.0,0.0,i,1.0,False,617.2999999523163,38.0,60.0,40.0,False,,353.88425525017425,[],"[640, 360]",ColorTask,89.0,93.0,,,HRV,HRV_0087,2022-11-30 17:58:12
,wl-rdm,210,484946,0.0-8.93-0.93,1.0,211.0,,,,,,,[],,,,,,56.4,0.0,u,0.0,True,547.5,33.0,60.0,40.0,False,,290.0269782404931,[],"[640, 360]",ColorTask,90.0,94.0,,,HRV,HRV_0087,2022-11-30 17:58:12
,wl-rdm,211,486811,0.0-8.94-0.94,1.0,212.0,,,,,,,[],,,,,,73.6,1.0,i,1.0,True,541.5,33.0,60.0,40.0,False,,247.1924689809135,[],"[640, 360]",ColorTask,91.0,95.0,,,HRV,HRV_0087,2022-11-30 17:58:12
,wl-rdm,212,488876,0.0-8.95-0.95,1.0,213.0,,,,,,,[],,,,,,87.9,1.0,i,1.0,True,717.3999998569489,44.0,60.0,40.0,False,,251.35199721250095,[],"[640, 360]",ColorTask,92.0,96.0,,,HRV,HRV_0087,2022-11-30 17:58:12
,wl-rdm,213,490858,0.0-8.96-0.96,1.0,214.0,,,,,,,[],,,,,,50.0,1.0,i,1.0,True,564.1999998092651,34.0,60.0,40.0,False,,334.36097914982554,[],"[640, 360]",ColorTask,93.0,97.0,,,HRV,HRV_0087,2022-11-30 17:58:12
,wl-rdm,214,492640,0.0-8.97-0.97,1.0,215.0,,,,,,,[],,,,,,56.4,1.0,i,1.0,True,481.2000000476837,29.0,60.0,40.0,False,,231.6861908541337,[],"[640, 360]",ColorTask,94.0,98.0,,,HRV,HRV_0087,2022-11-30 17:58:12
,wl-rdm,215,494754,0.0-8.98-0.98,1.0,216.0,,,,,,,[],,,,,,62.5,0.0,u,0.0,True,770.5999999046326,47.0,60.0,40.0,False,,252.33202216107574,[],"[640, 360]",ColorTask,95.0,99.0,,,HRV,HRV_0087,2022-11-30 17:58:12
,wl-rdm,216,496803,0.0-8.99-0.99,1.0,217.0,,,,,,,[],,,,,,56.4,1.0,u,0.0,False,611.3000001907349,37.0,60.0,40.0,False,,353.8074880563132,[],"[640, 360]",ColorTask,94.0,100.0,,,HRV,HRV_0087,2022-11-30 17:58:12
,wl-rdm,217,498635,0.0-8.100-0.100,1.0,218.0,,,,,,,[],,,,,,73.6,1.0,i,1.0,True,468.30000019073486,29.0,60.0,40.0,False,,274.18087873532994,[],"[640, 360]",ColorTask,95.0,101.0,,,HRV,HRV_0087,2022-11-30 17:58:12
,wl-rdm,218,500916,0.0-8.101-0.101,1.0,219.0,,,,,,,[],,,,,,53.2,0.0,u,0.0,True,983.3999998569489,60.0,60.0,40.0,False,,202.03974592529374,[],"[640, 360]",ColorTask,96.0,102.0,,,HRV,HRV_0087,2022-11-30 17:58:12
,wl-rdm,219,503031,0.0-8.102-0.102,1.0,220.0,,,,,,,[],,,,,,50.0,0.0,u,0.0,True,634.5,39.0,60.0,40.0,False,,396.47932504701197,[],"[640, 360]",ColorTask,97.0,103.0,,,HRV,HRV_0087,2022-11-30 17:58:12
,wl-rdm,220,504979,0.0-8.103-0.103,1.0,221.0,,,,,,,[],,,,,,62.5,0.0,u,0.0,True,610.5999999046326,37.0,60.0,40.0,False,,250.78606159566425,[],"[640, 360]",ColorTask,98.0,104.0,,,HRV,HRV_0087,2022-11-30 17:58:12
,wl-rdm,221,507111,0.0-8.104-0.104,1.0,222.0,,,,,,,[],,,,,,53.2,0.0,i,1.0,False,692.6999998092651,42.0,60.0,40.0,False,,355.9858081615657,[],"[640, 360]",ColorTask,97.0,105.0,,,HRV,HRV_0087,2022-11-30 17:58:12
,wl-rdm,222,509276,0.0-8.105-0.105,1.0,223.0,,,,,,,[],,,,,,73.6,1.0,u,0.0,False,736.2999997138977,45.0,60.0,40.0,False,,335.9172014933531,[],"[640, 360]",ColorTask,96.0,106.0,,,HRV,HRV_0087,2022-11-30 17:58:12
,wl-rdm,223,511258,0.0-8.106-0.106,1.0,224.0,,,,,,,[],,,,,,73.6,1.0,i,1.0,True,671.7000000476837,41.0,60.0,40.0,False,,229.10797770358357,[],"[640, 360]",ColorTask,97.0,107.0,,,HRV,HRV_0087,2022-11-30 17:58:12
,wl-rdm,224,513406,0.0-8.107-0.107,1.0,225.0,,,,,,,[],,,,,,50.0,1.0,i,1.0,True,717.0999999046326,44.0,60.0,40.0,False,,336.18200843689795,[],"[640, 360]",ColorTask,98.0,108.0,,,HRV,HRV_0087,2022-11-30 17:58:12
,wl-html-button-response,225,517022,0.0-9.0-0.0,,,,,,,,,,3611.2999999523163,,0,,,,,,,,,,,,,,,,,,,,<h3>End of this session. Thank you!</h3><br>,['Close window'],HRV,HRV_0087,2022-11-30 17:58:12
