success,trial_type,trial_index,time_elapsed,internal_node_id,Block,TrialNumber,TrialTime,trialTimeDiff,FPS_avg,FPS_med,FPS_mode,TrialDur,winResizeTime,rt,block,button_pressed,MotCoh,MotDir,ColCoh,Color,ChoiceKey,Choice,Accuracy,RT,nFrames,FPS,PPD,missTrial,missTrialMsg,onsetDelay,fullScreenExitTime,canvCenter,TrialType,Score,BlockTrial,stimulus,button_labels,exp,subjectId,date
True,fullscreen,0,5755,0.0-0.0,0.0,1.0,,,,,,,,,,,,,,,,,,,,,,,,,,,,,,,,HRV,HRV_0101,2022-11-30 18:10:40
,wl-check-fps,1,10706,0.0-1.0,0.0,2.0,"[6077, 6077.2, 6083.5, 6090, 6097.3, 6104.8, 6121.5, 6138.2, 6154.9, 6171.6, 6188.2, 6204.9, 6221.9, 6238.3, 6254.9, 6271.7, 6288.3, 6306.2, 6321.8, 6338.4, 6355.2, 6371.8, 6388.5, 6405.1, 6421.8, 6438.5, 6455.2, 6471.9, 6488.5, 6505.2, 6521.9, 6538.6, 6556.3, 6571.9, 6588.5, 6605, 6621.8, 6639.8, 6655.3, 6671.9, 6688.6, 6705.3, 6722, 6738.7, 6755.4, 6772.1, 6788.8, 6805.4, 6822.1, 6838.8, 6855.5, 6872.1, 6888.9, 6905.6, 6922.2, 6938.9, 6955.5, 6972.2, 6988.8, 7005.5, 7022.3, 7039, 7055.7, 7072.2, 7089, 7105.6, 7122.3, 7139, 7155.8, 7172.4, 7189, 7205.7, 7222.5, 7239.1, 7255.7, 7272.4, 7289.1, 7305.8, 7322.5, 7339.1, 7356, 7372.5, 7389.2, 7405.9, 7422.5, 7439.3, 7455.9, 7472.7, 7489.3, 7506, 7522.7, 7539.3, 7556, 7572.7, 7589.4, 7606, 7622.7, 7639.5, 7656.1, 7672.8, 7689.4, 7706.1, 7722.8, 7739.5, 7756.2, 7772.9, 7789.5, 7806.2, 7822.9, 7839.6, 7856.2, 7873.1, 7889.6, 7906.3, 7922.9, 7939.6, 7956.3, 7973.1, 7989.7, 8006.4, 8023, 8039.8, 8056.4, 8073.1, 8089.8, 8106.5, 8123.1, 8139.8, 8156.5, 8173.1, 8189.9, 8206.6, 8223.3, 8239.8, 8256.6, 8273.2, 8290, 8306.6, 8323.3, 8340.2, 8356.6, 8373.3, 8390.1, 8406.7, 8423.4, 8440.1, 8456.8, 8473.4, 8490.1, 8506.8, 8523.5, 8540.1, 8556.9, 8573.5, 8590.1, 8606.9, 8623.6, 8640.2, 8656.9, 8673.6, 8690.3, 8706.9, 8723.6, 8740.3, 8757, 8773.8, 8790.5, 8807.2, 8823.8, 8840.4, 8857.1, 8873.7, 8890.4, 8907.2, 8923.8, 8940.5, 8957.2, 8973.8, 8990.5, 9007.2, 9023.9, 9040.6, 9057.2, 9073.9, 9090.6, 9107.3, 9124.1, 9140.6, 9157.3, 9174.1, 9190.7, 9207.4, 9224.1, 9240.7, 9257.4, 9274.1, 9290.8, 9307.4, 9324.1, 9340.9, 9357.5, 9374.2, 9390.8, 9407.6, 9424.2, 9440.9, 9457.6, 9474.3, 9491, 9507.7, 9524.3, 9541, 9557.6, 9574.3, 9591.1, 9607.7, 9624.3, 9641.1, 9657.7, 9674.4, 9691.1, 9707.8, 9724.6, 9741.1, 9757.8, 9774.5, 9791.2, 9807.9, 9824.5, 9842.4, 9857.9, 9874.6, 9891.3, 9907.9, 9924.5, 9941.3, 9958, 9974.6, 9991.3, 10008.1, 10024.7, 10041.4, 10058, 10074.7, 10091.5, 10108.1, 10124.8, 10141.2, 10158.2, 10174.9, 10191.6, 10208.2, 10224.9, 10241.5, 10258.2, 10275, 10291.6, 10308.3, 10325, 10341.9, 10358.4, 10375.1, 10391.8, 10408.2, 10425.1, 10441.8, 10458.4, 10475.1, 10491.8, 10508.5, 10525.1, 10541.8, 10558.5, 10575.1, 10593.1, 10608.6, 10625.2, 10641.9, 10658.6, 10675.3, 10692, 10708.6, 10725.3, 10741.9, 10758.6, 10775.4, 10792, 10808.7, 10825.4, 10842.1, 10858.7, 10875.4, 10892.1, 10908.8, 10926.5, 10942.1, 10958.8, 10975.5, 10992.1, 11008.9]","[0.7, 0.2, 6.3, 6.5, 7.3, 7.5, 16.7, 16.7, 16.7, 16.7, 16.6, 16.7, 17, 16.4, 16.6, 16.8, 16.6, 17.9, 15.6, 16.6, 16.8, 16.6, 16.7, 16.6, 16.7, 16.7, 16.7, 16.7, 16.6, 16.7, 16.7, 16.7, 17.7, 15.6, 16.6, 16.5, 16.8, 18, 15.5, 16.6, 16.7, 16.7, 16.7, 16.7, 16.7, 16.7, 16.7, 16.6, 16.7, 16.7, 16.7, 16.6, 16.8, 16.7, 16.6, 16.7, 16.6, 16.7, 16.6, 16.7, 16.8, 16.7, 16.7, 16.5, 16.8, 16.6, 16.7, 16.7, 16.8, 16.6, 16.6, 16.7, 16.8, 16.6, 16.6, 16.7, 16.7, 16.7, 16.7, 16.6, 16.9, 16.5, 16.7, 16.7, 16.6, 16.8, 16.6, 16.8, 16.6, 16.7, 16.7, 16.6, 16.7, 16.7, 16.7, 16.6, 16.7, 16.8, 16.6, 16.7, 16.6, 16.7, 16.7, 16.7, 16.7, 16.7, 16.6, 16.7, 16.7, 16.7, 16.6, 16.9, 16.5, 16.7, 16.6, 16.7, 16.7, 16.8, 16.6, 16.7, 16.6, 16.8, 16.6, 16.7, 16.7, 16.7, 16.6, 16.7, 16.7, 16.6, 16.8, 16.7, 16.7, 16.5, 16.8, 16.6, 16.8, 16.6, 16.7, 16.9, 16.4, 16.7, 16.8, 16.6, 16.7, 16.7, 16.7, 16.6, 16.7, 16.7, 16.7, 16.6, 16.8, 16.6, 16.6, 16.8, 16.7, 16.6, 16.7, 16.7, 16.7, 16.6, 16.7, 16.7, 16.7, 16.8, 16.7, 16.7, 16.6, 16.6, 16.7, 16.6, 16.7, 16.8, 16.6, 16.7, 16.7, 16.6, 16.7, 16.7, 16.7, 16.7, 16.6, 16.7, 16.7, 16.7, 16.8, 16.5, 16.7, 16.8, 16.6, 16.7, 16.7, 16.6, 16.7, 16.7, 16.7, 16.6, 16.7, 16.8, 16.6, 16.7, 16.6, 16.8, 16.6, 16.7, 16.7, 16.7, 16.7, 16.7, 16.6, 16.7, 16.6, 16.7, 16.8, 16.6, 16.6, 16.8, 16.6, 16.7, 16.7, 16.7, 16.8, 16.5, 16.7, 16.7, 16.7, 16.7, 16.6, 17.9, 15.5, 16.7, 16.7, 16.6, 16.6, 16.8, 16.7, 16.6, 16.7, 16.8, 16.6, 16.7, 16.6, 16.7, 16.8, 16.6, 16.7, 16.4, 17, 16.7, 16.7, 16.6, 16.7, 16.6, 16.7, 16.8, 16.6, 16.7, 16.7, 16.9, 16.5, 16.7, 16.7, 16.4, 16.9, 16.7, 16.6, 16.7, 16.7, 16.7, 16.6, 16.7, 16.7, 16.6, 18, 15.5, 16.6, 16.7, 16.7, 16.7, 16.7, 16.6, 16.7, 16.6, 16.7, 16.8, 16.6, 16.7, 16.7, 16.7, 16.6, 16.7, 16.7, 16.7, 17.7, 15.6, 16.7, 16.7, 16.6, 16.8]",61.0,60.0,60.0,4949.2,[],,,,,,,,,,,,,,,,,,,,,,,,,HRV,HRV_0101,2022-11-30 18:10:40
,wl-html-keyboard-response,2,36499,0.0-2.0-0.0,0.0,3.0,,,,,,,,23789.099999999627,0.0,0,,,,,,,,,,,,,,,,,,,,,,HRV,HRV_0101,2022-11-30 18:10:40
,wl-rdm,3,43766,0.0-3.0-0.0,0.0,4.0,,,,,,,[],,,,0.0,0.0,87.9,0.0,u,0.0,True,1694.300000000745,102.0,60.0,40.0,False,,3000.0,[],"[1024, 576]",ColorTask_Demo,,,,,HRV,HRV_0101,2022-11-30 18:10:40
,wl-rdm,4,48686,0.0-3.0-1.0,0.0,5.0,,,,,,,[],,,,0.0,0.0,87.9,1.0,i,1.0,True,862.9000000003725,52.0,60.0,40.0,False,,2000.0,[],"[1024, 576]",ColorTask_Demo,,,,,HRV,HRV_0101,2022-11-30 18:10:40
,wl-html-keyboard-response,5,55371,0.0-3.0-2.0,0.0,6.0,,,,,,,,4680.5999999996275,0.0,1,,,,,,,,,,,,,,,,,,,,,,HRV,HRV_0101,2022-11-30 18:10:40
,wl-html-keyboard-response,6,66963,0.0-4.0-0.0,0.0,7.0,,,,,,,,9584.5,0.0,0,,,,,,,,,,,,,,,,,,,,,,HRV,HRV_0101,2022-11-30 18:10:40
,wl-html-keyboard-response,7,84051,0.0-5.0-0.0,0.0,8.0,,,,,,,,15082.900000000373,0.0,0,,,,,,,,,,,,,,,,,,,,,,HRV,HRV_0101,2022-11-30 18:10:40
,wl-rdm,8,87418,0.0-6.0-0.0,0.0,9.0,,,,,,,[],,,,,,50.0,0.0,i,1.0,False,1972.300000000745,119.0,60.0,40.0,False,,321.5899390838681,[],"[1024, 576]",ColorTask,-1.0,1.0,,,HRV,HRV_0101,2022-11-30 18:10:40
,wl-rdm,9,91722,0.0-6.1-0.1,0.0,9.0,,,,,,,[],,,,,,50.0,1.0,u,,,3125.0999999996275,179.0,60.0,40.0,True,RT_timeout ,221.52986014983807,[],"[1024, 576]",ColorTask,-2.0,2.0,,,HRV,HRV_0101,2022-11-30 18:10:40
,wl-rdm,10,94507,0.0-6.2-0.2,0.0,10.0,,,,,,,[],,,,,,53.2,0.0,u,0.0,True,1456.199999999255,88.0,60.0,40.0,False,,252.3955317905712,[],"[1024, 576]",ColorTask,-1.0,3.0,,,HRV,HRV_0101,2022-11-30 18:10:40
,wl-rdm,11,97042,0.0-6.3-0.3,0.0,11.0,,,,,,,[],,,,,,50.0,0.0,u,0.0,True,1135.8999999985099,69.0,60.0,40.0,False,,318.2364085274772,[],"[1024, 576]",ColorTask,0.0,4.0,,,HRV,HRV_0101,2022-11-30 18:10:40
,wl-rdm,12,99461,0.0-6.4-0.4,0.0,12.0,,,,,,,[],,,,,,73.6,0.0,u,0.0,True,1083.5999999996275,65.0,60.0,40.0,False,,273.8157672038383,[],"[1024, 576]",ColorTask,1.0,5.0,,,HRV,HRV_0101,2022-11-30 18:10:40
,wl-rdm,13,101847,0.0-6.5-0.5,0.0,13.0,,,,,,,[],,,,,,87.9,0.0,u,0.0,True,996.7999999988824,60.0,60.0,40.0,False,,321.6241140702791,[],"[1024, 576]",ColorTask,2.0,6.0,,,HRV,HRV_0101,2022-11-30 18:10:40
,wl-rdm,14,104282,0.0-6.6-0.6,0.0,14.0,,,,,,,[],,,,,,50.0,1.0,i,1.0,True,978.7999999988824,59.0,60.0,40.0,False,,397.591216850268,[],"[1024, 576]",ColorTask,3.0,7.0,,,HRV,HRV_0101,2022-11-30 18:10:40
,wl-rdm,15,107234,0.0-6.7-0.7,0.0,15.0,,,,,,,[],,,,,,50.0,0.0,i,1.0,False,1552.2000000011176,94.0,60.0,40.0,False,,324.27598932065865,[],"[1024, 576]",ColorTask,2.0,8.0,,,HRV,HRV_0101,2022-11-30 18:10:40
,wl-rdm,16,109703,0.0-6.8-0.8,0.0,16.0,,,,,,,[],,,,,,73.6,1.0,i,1.0,True,1104.300000000745,67.0,60.0,40.0,False,,288.6480045602613,[],"[1024, 576]",ColorTask,3.0,9.0,,,HRV,HRV_0101,2022-11-30 18:10:40
,wl-rdm,17,112472,0.0-6.9-0.9,0.0,17.0,,,,,,,[],,,,,,50.0,1.0,i,1.0,True,1388.7000000011176,84.0,60.0,40.0,False,,301.3240402969879,[],"[1024, 576]",ColorTask,4.0,10.0,,,HRV,HRV_0101,2022-11-30 18:10:40
,wl-rdm,18,114540,0.0-6.10-0.10,0.0,18.0,,,,,,,[],,,,,,87.9,0.0,u,0.0,True,711.5999999996275,43.0,60.0,40.0,False,,288.77424980896444,[],"[1024, 576]",ColorTask,5.0,11.0,,,HRV,HRV_0101,2022-11-30 18:10:40
,wl-rdm,19,116775,0.0-6.11-0.11,0.0,19.0,,,,,,,[],,,,,,62.5,1.0,i,1.0,True,881.4000000003725,53.0,60.0,40.0,False,,299.7343474132242,[],"[1024, 576]",ColorTask,6.0,12.0,,,HRV,HRV_0101,2022-11-30 18:10:40
,wl-rdm,20,119361,0.0-6.12-0.12,0.0,20.0,,,,,,,[],,,,,,56.4,1.0,i,1.0,True,1193.0,72.0,60.0,40.0,False,,327.0541561249199,[],"[1024, 576]",ColorTask,7.0,13.0,,,HRV,HRV_0101,2022-11-30 18:10:40
,wl-rdm,21,121729,0.0-6.13-0.13,0.0,21.0,,,,,,,[],,,,,,56.4,0.0,u,0.0,True,949.0,57.0,60.0,40.0,False,,355.8449892061304,[],"[1024, 576]",ColorTask,8.0,14.0,,,HRV,HRV_0101,2022-11-30 18:10:40
,wl-rdm,22,124398,0.0-6.14-0.14,0.0,22.0,,,,,,,[],,,,,,56.4,0.0,u,0.0,True,1241.5,75.0,60.0,40.0,False,,363.6432724299474,[],"[1024, 576]",ColorTask,9.0,15.0,,,HRV,HRV_0101,2022-11-30 18:10:40
,wl-rdm,23,126317,0.0-6.15-0.15,0.0,23.0,,,,,,,[],,,,,,87.9,1.0,i,1.0,True,632.1999999992549,38.0,60.0,40.0,False,,221.13321473183916,[],"[1024, 576]",ColorTask,10.0,16.0,,,HRV,HRV_0101,2022-11-30 18:10:40
,wl-rdm,24,128735,0.0-6.16-0.16,0.0,24.0,,,,,,,[],,,,,,53.2,0.0,i,1.0,False,1126.0,68.0,60.0,40.0,False,,249.50028306903158,[],"[1024, 576]",ColorTask,9.0,17.0,,,HRV,HRV_0101,2022-11-30 18:10:40
,wl-rdm,25,131387,0.0-6.17-0.17,0.0,25.0,,,,,,,[],,,,,,62.5,1.0,i,1.0,True,1360.5999999996275,82.0,60.0,40.0,False,,218.33540775439246,[],"[1024, 576]",ColorTask,10.0,18.0,,,HRV,HRV_0101,2022-11-30 18:10:40
,wl-rdm,26,133589,0.0-6.18-0.18,0.0,26.0,,,,,,,[],,,,,,73.6,1.0,i,1.0,True,809.0,49.0,60.0,40.0,False,,325.77380210039274,[],"[1024, 576]",ColorTask,11.0,19.0,,,HRV,HRV_0101,2022-11-30 18:10:40
,wl-rdm,27,135976,0.0-6.19-0.19,0.0,27.0,,,,,,,[],,,,,,50.0,1.0,u,0.0,False,1061.0999999996275,64.0,60.0,40.0,False,,265.0800584561191,[],"[1024, 576]",ColorTask,10.0,20.0,,,HRV,HRV_0101,2022-11-30 18:10:40
,wl-rdm,28,138026,0.0-6.20-0.20,0.0,28.0,,,,,,,[],,,,,,87.9,1.0,i,1.0,True,708.0,43.0,60.0,40.0,False,,270.97833871911655,[],"[1024, 576]",ColorTask,11.0,21.0,,,HRV,HRV_0101,2022-11-30 18:10:40
,wl-rdm,29,140395,0.0-6.21-0.21,0.0,29.0,,,,,,,[],,,,,,53.2,1.0,i,1.0,True,1028.3999999985099,62.0,60.0,40.0,False,,269.17952020097084,[],"[1024, 576]",ColorTask,12.0,22.0,,,HRV,HRV_0101,2022-11-30 18:10:40
,wl-rdm,30,142797,0.0-6.22-0.22,0.0,30.0,,,,,,,[],,,,,,53.2,1.0,u,0.0,False,1052.0000000018626,64.0,60.0,40.0,False,,278.41710538663096,[],"[1024, 576]",ColorTask,11.0,23.0,,,HRV,HRV_0101,2022-11-30 18:10:40
,wl-rdm,31,144965,0.0-6.23-0.23,0.0,31.0,,,,,,,[],,,,,,73.6,1.0,i,1.0,True,739.5999999996275,45.0,60.0,40.0,False,,357.32342561547875,[],"[1024, 576]",ColorTask,12.0,24.0,,,HRV,HRV_0101,2022-11-30 18:10:40
,wl-rdm,32,147534,0.0-6.24-0.24,0.0,32.0,,,,,,,[],,,,,,53.2,0.0,i,1.0,False,1278.5999999996275,77.0,60.0,40.0,False,,232.19524646987384,[],"[1024, 576]",ColorTask,11.0,25.0,,,HRV,HRV_0101,2022-11-30 18:10:40
,wl-rdm,33,150019,0.0-6.25-0.25,0.0,33.0,,,,,,,[],,,,,,50.0,1.0,u,0.0,False,1159.300000000745,70.0,60.0,40.0,False,,261.88660301918856,[],"[1024, 576]",ColorTask,10.0,26.0,,,HRV,HRV_0101,2022-11-30 18:10:40
,wl-rdm,34,152805,0.0-6.26-0.26,0.0,34.0,,,,,,,[],,,,,,56.4,0.0,u,0.0,True,1416.300000000745,85.0,60.0,40.0,False,,308.88439138878357,[],"[1024, 576]",ColorTask,11.0,27.0,,,HRV,HRV_0101,2022-11-30 18:10:40
,wl-rdm,35,155090,0.0-6.27-0.27,0.0,35.0,,,,,,,[],,,,,,62.5,0.0,u,0.0,True,989.0,60.0,60.0,40.0,False,,216.94169715863947,[],"[1024, 576]",ColorTask,12.0,28.0,,,HRV,HRV_0101,2022-11-30 18:10:40
,wl-rdm,36,157359,0.0-6.28-0.28,0.0,36.0,,,,,,,[],,,,,,73.6,0.0,u,0.0,True,946.4000000003725,57.0,60.0,40.0,False,,263.065499893868,[],"[1024, 576]",ColorTask,13.0,29.0,,,HRV,HRV_0101,2022-11-30 18:10:40
,wl-rdm,37,159460,0.0-6.29-0.29,0.0,37.0,,,,,,,[],,,,,,87.9,0.0,u,0.0,True,807.1999999992549,49.0,60.0,40.0,False,,218.27578045216092,[],"[1024, 576]",ColorTask,14.0,30.0,,,HRV,HRV_0101,2022-11-30 18:10:40
,wl-rdm,38,161779,0.0-6.30-0.30,0.0,38.0,,,,,,,[],,,,,,73.6,0.0,u,0.0,True,987.2999999988824,60.0,60.0,40.0,False,,252.10767061461382,[],"[1024, 576]",ColorTask,15.0,31.0,,,HRV,HRV_0101,2022-11-30 18:10:40
,wl-rdm,39,164448,0.0-6.31-0.31,0.0,39.0,,,,,,,[],,,,,,53.2,0.0,i,1.0,False,1389.5999999996275,84.0,60.0,40.0,False,,230.94632553570875,[],"[1024, 576]",ColorTask,14.0,32.0,,,HRV,HRV_0101,2022-11-30 18:10:40
,wl-rdm,40,167033,0.0-6.32-0.32,0.0,40.0,,,,,,,[],,,,,,50.0,0.0,i,1.0,False,1144.0999999996275,69.0,60.0,40.0,False,,375.652987559857,[],"[1024, 576]",ColorTask,13.0,33.0,,,HRV,HRV_0101,2022-11-30 18:10:40
,wl-rdm,41,169135,0.0-6.33-0.33,0.0,41.0,,,,,,,[],,,,,,87.9,1.0,i,1.0,True,754.8000000007451,46.0,60.0,40.0,False,,277.63829200802513,[],"[1024, 576]",ColorTask,14.0,34.0,,,HRV,HRV_0101,2022-11-30 18:10:40
,wl-rdm,42,171887,0.0-6.34-0.34,0.0,42.0,,,,,,,[],,,,,,62.5,1.0,i,1.0,True,1360.5999999996275,82.0,60.0,40.0,False,,308.70268566864945,[],"[1024, 576]",ColorTask,15.0,35.0,,,HRV,HRV_0101,2022-11-30 18:10:40
,wl-rdm,43,174373,0.0-6.35-0.35,0.0,43.0,,,,,,,[],,,,,,56.4,1.0,u,0.0,False,1075.0999999996275,65.0,60.0,40.0,False,,344.36172371394673,[],"[1024, 576]",ColorTask,14.0,36.0,,,HRV,HRV_0101,2022-11-30 18:10:40
,wl-rdm,44,176491,0.0-6.36-0.36,0.0,44.0,,,,,,,[],,,,,,87.9,0.0,u,0.0,True,665.8000000007451,40.0,60.0,40.0,False,,390.9565794453266,[],"[1024, 576]",ColorTask,15.0,37.0,,,HRV,HRV_0101,2022-11-30 18:10:40
,wl-rdm,45,178960,0.0-6.37-0.37,0.0,45.0,,,,,,,[],,,,,,50.0,0.0,u,0.0,True,1145.5999999996275,69.0,60.0,40.0,False,,258.77028003951506,[],"[1024, 576]",ColorTask,16.0,38.0,,,HRV,HRV_0101,2022-11-30 18:10:40
,wl-rdm,46,181962,0.0-6.38-0.38,0.0,46.0,,,,,,,[],,,,,,50.0,1.0,i,1.0,True,1553.0,94.0,60.0,40.0,False,,357.66155819843834,[],"[1024, 576]",ColorTask,17.0,39.0,,,HRV,HRV_0101,2022-11-30 18:10:40
,wl-rdm,47,184264,0.0-6.39-0.39,0.0,47.0,,,,,,,[],,,,,,62.5,0.0,u,0.0,True,872.5,53.0,60.0,40.0,False,,366.79827514195244,[],"[1024, 576]",ColorTask,18.0,40.0,,,HRV,HRV_0101,2022-11-30 18:10:40
,wl-rdm,48,187001,0.0-6.40-0.40,0.0,48.0,,,,,,,[],,,,,,53.2,0.0,u,0.0,True,1403.9000000003725,85.0,60.0,40.0,False,,253.43982699473037,[],"[1024, 576]",ColorTask,19.0,41.0,,,HRV,HRV_0101,2022-11-30 18:10:40
,wl-rdm,49,189151,0.0-6.41-0.41,0.0,49.0,,,,,,,[],,,,,,73.6,0.0,u,0.0,True,841.1000000014901,51.0,60.0,40.0,False,,233.6234303904755,[],"[1024, 576]",ColorTask,20.0,42.0,,,HRV,HRV_0101,2022-11-30 18:10:40
,wl-rdm,50,191470,0.0-6.42-0.42,0.0,50.0,,,,,,,[],,,,,,73.6,0.0,u,0.0,True,908.0999999996275,55.0,60.0,40.0,False,,333.85226605986634,[],"[1024, 576]",ColorTask,21.0,43.0,,,HRV,HRV_0101,2022-11-30 18:10:40
,wl-rdm,51,194272,0.0-6.43-0.43,0.0,51.0,,,,,,,[],,,,,,53.2,0.0,i,1.0,False,1506.4000000003725,91.0,60.0,40.0,False,,218.813810826936,[],"[1024, 576]",ColorTask,20.0,44.0,,,HRV,HRV_0101,2022-11-30 18:10:40
,wl-rdm,52,196457,0.0-6.44-0.44,0.0,52.0,,,,,,,[],,,,,,87.9,0.0,u,0.0,True,722.4000000003725,44.0,60.0,40.0,False,,399.5457239575306,[],"[1024, 576]",ColorTask,21.0,45.0,,,HRV,HRV_0101,2022-11-30 18:10:40
,wl-rdm,53,198542,0.0-6.45-0.45,0.0,53.0,,,,,,,[],,,,,,87.9,1.0,i,1.0,True,666.7999999988824,40.0,60.0,40.0,False,,356.7878021013478,[],"[1024, 576]",ColorTask,22.0,46.0,,,HRV,HRV_0101,2022-11-30 18:10:40
,wl-rdm,54,201445,0.0-6.46-0.46,0.0,54.0,,,,,,,[],,,,,,56.4,1.0,i,1.0,True,1597.2999999988824,96.0,60.0,40.0,False,,242.05352395670258,[],"[1024, 576]",ColorTask,23.0,47.0,,,HRV,HRV_0101,2022-11-30 18:10:40
,wl-rdm,55,203563,0.0-6.47-0.47,0.0,55.0,,,,,,,[],,,,,,56.4,0.0,u,0.0,True,829.6999999992549,50.0,60.0,40.0,False,,249.4478895061674,[],"[1024, 576]",ColorTask,24.0,48.0,,,HRV,HRV_0101,2022-11-30 18:10:40
,wl-rdm,56,205582,0.0-6.48-0.48,0.0,56.0,,,,,,,[],,,,,,87.9,0.0,u,0.0,True,680.2999999988824,41.0,60.0,40.0,False,,271.15046011858914,[],"[1024, 576]",ColorTask,25.0,49.0,,,HRV,HRV_0101,2022-11-30 18:10:40
,wl-rdm,57,207717,0.0-6.49-0.49,0.0,57.0,,,,,,,[],,,,,,87.9,0.0,u,0.0,True,682.0999999996275,41.0,60.0,40.0,False,,393.35757174274505,[],"[1024, 576]",ColorTask,26.0,50.0,,,HRV,HRV_0101,2022-11-30 18:10:40
,wl-rdm,58,209752,0.0-6.50-0.50,0.0,58.0,,,,,,,[],,,,,,87.9,1.0,i,1.0,True,625.4000000003725,38.0,60.0,40.0,False,,341.51363367832585,[],"[1024, 576]",ColorTask,27.0,51.0,,,HRV,HRV_0101,2022-11-30 18:10:40
,wl-rdm,59,212087,0.0-6.51-0.51,0.0,59.0,,,,,,,[],,,,,,56.4,0.0,i,1.0,False,1053.8000000026077,64.0,60.0,40.0,False,,200.6426648309614,[],"[1024, 576]",ColorTask,26.0,52.0,,,HRV,HRV_0101,2022-11-30 18:10:40
,wl-rdm,60,214305,0.0-6.52-0.52,0.0,60.0,,,,,,,[],,,,,,53.2,1.0,u,0.0,False,931.7000000011176,56.0,60.0,40.0,False,,225.39642105691505,[],"[1024, 576]",ColorTask,25.0,53.0,,,HRV,HRV_0101,2022-11-30 18:10:40
,wl-rdm,61,216908,0.0-6.53-0.53,0.0,61.0,,,,,,,[],,,,,,50.0,0.0,i,1.0,False,1252.2000000011176,76.0,60.0,40.0,False,,291.7561101525657,[],"[1024, 576]",ColorTask,24.0,54.0,,,HRV,HRV_0101,2022-11-30 18:10:40
,wl-rdm,62,218926,0.0-6.54-0.54,0.0,62.0,,,,,,,[],,,,,,73.6,0.0,u,0.0,True,720.2000000011176,44.0,60.0,40.0,False,,224.82321457467523,[],"[1024, 576]",ColorTask,25.0,55.0,,,HRV,HRV_0101,2022-11-30 18:10:40
,wl-rdm,63,221078,0.0-6.55-0.55,0.0,63.0,,,,,,,[],,,,,,62.5,1.0,i,1.0,True,861.0,52.0,60.0,40.0,False,,217.51281143136458,[],"[1024, 576]",ColorTask,26.0,56.0,,,HRV,HRV_0101,2022-11-30 18:10:40
,wl-rdm,64,223013,0.0-6.56-0.56,0.0,64.0,,,,,,,[],,,,,,87.9,1.0,i,1.0,True,652.0,40.0,60.0,40.0,False,,203.86496936965187,[],"[1024, 576]",ColorTask,27.0,57.0,,,HRV,HRV_0101,2022-11-30 18:10:40
,wl-rdm,65,225264,0.0-6.57-0.57,0.0,65.0,,,,,,,[],,,,,,56.4,1.0,i,1.0,True,930.9000000003725,56.0,60.0,40.0,False,,258.15421607059477,[],"[1024, 576]",ColorTask,28.0,58.0,,,HRV,HRV_0101,2022-11-30 18:10:40
,wl-rdm,66,227967,0.0-6.58-0.58,0.0,66.0,,,,,,,[],,,,,,53.2,0.0,u,0.0,True,1426.199999999255,86.0,60.0,40.0,False,,211.3562898346658,[],"[1024, 576]",ColorTask,29.0,59.0,,,HRV,HRV_0101,2022-11-30 18:10:40
,wl-rdm,67,230318,0.0-6.59-0.59,0.0,67.0,,,,,,,[],,,,,,50.0,0.0,i,1.0,False,940.5999999996275,57.0,60.0,40.0,False,,348.8356551020066,[],"[1024, 576]",ColorTask,28.0,60.0,,,HRV,HRV_0101,2022-11-30 18:10:40
,wl-rdm,68,232470,0.0-6.60-0.60,0.0,68.0,,,,,,,[],,,,,,73.6,1.0,i,1.0,True,818.1999999992549,50.0,60.0,40.0,False,,258.49627439675476,[],"[1024, 576]",ColorTask,29.0,61.0,,,HRV,HRV_0101,2022-11-30 18:10:40
,wl-rdm,69,234756,0.0-6.61-0.61,0.0,69.0,,,,,,,[],,,,,,56.4,0.0,u,0.0,True,911.1999999992549,55.0,60.0,40.0,False,,307.1522898508464,[],"[1024, 576]",ColorTask,30.0,62.0,,,HRV,HRV_0101,2022-11-30 18:10:40
,wl-rdm,70,236757,0.0-6.62-0.62,0.0,70.0,,,,,,,[],,,,,,73.6,0.0,u,0.0,True,677.2000000011176,41.0,60.0,40.0,False,,264.15387408452597,[],"[1024, 576]",ColorTask,31.0,63.0,,,HRV,HRV_0101,2022-11-30 18:10:40
,wl-rdm,71,239393,0.0-6.63-0.63,0.0,71.0,,,,,,,[],,,,,,56.4,1.0,u,0.0,False,1292.699999999255,78.0,60.0,40.0,False,,271.26687147165427,[],"[1024, 576]",ColorTask,30.0,64.0,,,HRV,HRV_0101,2022-11-30 18:10:40
,wl-rdm,72,241961,0.0-6.64-0.64,0.0,72.0,,,,,,,[],,,,,,53.2,0.0,u,0.0,True,1231.3999999985099,74.0,60.0,40.0,False,,268.1111679053686,[],"[1024, 576]",ColorTask,31.0,65.0,,,HRV,HRV_0101,2022-11-30 18:10:40
,wl-rdm,73,243996,0.0-6.65-0.65,0.0,73.0,,,,,,,[],,,,,,87.9,1.0,i,1.0,True,698.8000000007451,42.0,60.0,40.0,False,,279.5690623044304,[],"[1024, 576]",ColorTask,32.0,66.0,,,HRV,HRV_0101,2022-11-30 18:10:40
,wl-rdm,74,246065,0.0-6.66-0.66,0.0,74.0,,,,,,,[],,,,,,62.5,0.0,u,0.0,True,780.6999999992549,47.0,60.0,40.0,False,,220.98726276693893,[],"[1024, 576]",ColorTask,33.0,67.0,,,HRV,HRV_0101,2022-11-30 18:10:40
,wl-rdm,75,248734,0.0-6.67-0.67,0.0,75.0,,,,,,,[],,,,,,62.5,1.0,i,1.0,True,1261.6000000014901,76.0,60.0,40.0,False,,342.76560976205997,[],"[1024, 576]",ColorTask,34.0,68.0,,,HRV,HRV_0101,2022-11-30 18:10:40
,wl-rdm,76,251052,0.0-6.68-0.68,0.0,76.0,,,,,,,[],,,,,,62.5,1.0,u,0.0,False,1009.9000000003725,61.0,60.0,40.0,False,,244.2054795794907,[],"[1024, 576]",ColorTask,33.0,69.0,,,HRV,HRV_0101,2022-11-30 18:10:40
,wl-rdm,77,253439,0.0-6.69-0.69,0.0,77.0,,,,,,,[],,,,,,53.2,1.0,u,0.0,False,1026.2000000011176,62.0,60.0,40.0,False,,294.0381327848338,[],"[1024, 576]",ColorTask,32.0,70.0,,,HRV,HRV_0101,2022-11-30 18:10:40
,wl-rdm,78,255589,0.0-6.70-0.70,0.0,78.0,,,,,,,[],,,,,,62.5,0.0,u,0.0,True,880.6999999992549,53.0,60.0,40.0,False,,206.38773844744415,[],"[1024, 576]",ColorTask,33.0,71.0,,,HRV,HRV_0101,2022-11-30 18:10:40
,wl-rdm,79,258442,0.0-6.71-0.71,0.0,79.0,,,,,,,[],,,,,,56.4,1.0,i,1.0,True,1483.5999999996275,89.0,60.0,40.0,False,,301.1344542438345,[],"[1024, 576]",ColorTask,34.0,72.0,,,HRV,HRV_0101,2022-11-30 18:10:40
,wl-rdm,80,260643,0.0-6.72-0.72,0.0,80.0,,,,,,,[],,,,,,50.0,1.0,u,0.0,False,887.0,54.0,60.0,40.0,False,,246.46797576041928,[],"[1024, 576]",ColorTask,33.0,73.0,,,HRV,HRV_0101,2022-11-30 18:10:40
,wl-rdm,81,263129,0.0-6.73-0.73,0.0,81.0,,,,,,,[],,,,,,50.0,1.0,u,0.0,False,1092.800000000745,66.0,60.0,40.0,False,,329.24029136897536,[],"[1024, 576]",ColorTask,32.0,74.0,,,HRV,HRV_0101,2022-11-30 18:10:40
,wl-rdm,82,265781,0.0-6.74-0.74,0.0,82.0,,,,,,,[],,,,,,53.2,1.0,i,1.0,True,1225.0999999996275,74.0,60.0,40.0,False,,357.9942219070249,[],"[1024, 576]",ColorTask,33.0,75.0,,,HRV,HRV_0101,2022-11-30 18:10:40
,wl-rdm,83,267966,0.0-6.75-0.75,0.0,83.0,,,,,,,[],,,,,,73.6,1.0,i,1.0,True,796.5,48.0,60.0,40.0,False,,319.8338614557057,[],"[1024, 576]",ColorTask,34.0,76.0,,,HRV,HRV_0101,2022-11-30 18:10:40
,wl-rdm,84,270752,0.0-6.76-0.76,0.0,84.0,,,,,,,[],,,,,,50.0,0.0,u,0.0,True,1435.5,87.0,60.0,40.0,False,,274.0148210159912,[],"[1024, 576]",ColorTask,35.0,77.0,,,HRV,HRV_0101,2022-11-30 18:10:40
,wl-rdm,85,272753,0.0-6.77-0.77,0.0,85.0,,,,,,,[],,,,,,87.9,1.0,i,1.0,True,732.6999999992549,44.0,60.0,40.0,False,,207.5527652202605,[],"[1024, 576]",ColorTask,36.0,78.0,,,HRV,HRV_0101,2022-11-30 18:10:40
,wl-rdm,86,274905,0.0-6.78-0.78,0.0,86.0,,,,,,,[],,,,,,73.6,0.0,u,0.0,True,858.8999999985099,52.0,60.0,40.0,False,,200.87544173830705,[],"[1024, 576]",ColorTask,37.0,79.0,,,HRV,HRV_0101,2022-11-30 18:10:40
,wl-rdm,87,277707,0.0-6.79-0.79,0.0,87.0,,,,,,,[],,,,,,56.4,0.0,u,0.0,True,1397.7000000011176,84.0,60.0,40.0,False,,346.0695470495539,[],"[1024, 576]",ColorTask,38.0,80.0,,,HRV,HRV_0101,2022-11-30 18:10:40
,wl-rdm,88,279843,0.0-6.80-0.80,0.0,88.0,,,,,,,[],,,,,,62.5,1.0,i,1.0,True,802.3999999985099,49.0,60.0,40.0,False,,233.33117180613047,[],"[1024, 576]",ColorTask,39.0,81.0,,,HRV,HRV_0101,2022-11-30 18:10:40
,wl-rdm,89,281861,0.0-6.81-0.81,0.0,89.0,,,,,,,[],,,,,,73.6,1.0,i,1.0,True,709.4999999981374,43.0,60.0,40.0,False,,246.72270543860117,[],"[1024, 576]",ColorTask,40.0,82.0,,,HRV,HRV_0101,2022-11-30 18:10:40
,wl-rdm,90,284847,0.0-6.82-0.82,0.0,90.0,,,,,,,[],,,,,,53.2,0.0,i,1.0,False,1704.3999999985099,103.0,60.0,40.0,False,,205.5311014315522,[],"[1024, 576]",ColorTask,39.0,83.0,,,HRV,HRV_0101,2022-11-30 18:10:40
,wl-rdm,91,287232,0.0-6.83-0.83,0.0,91.0,,,,,,,[],,,,,,56.4,1.0,i,1.0,True,1090.0999999996275,66.0,60.0,40.0,False,,233.5897367089879,[],"[1024, 576]",ColorTask,40.0,84.0,,,HRV,HRV_0101,2022-11-30 18:10:40
,wl-rdm,92,289600,0.0-6.84-0.84,0.0,92.0,,,,,,,[],,,,,,62.5,0.0,u,0.0,True,1073.0,65.0,60.0,40.0,False,,231.3735967475254,[],"[1024, 576]",ColorTask,41.0,85.0,,,HRV,HRV_0101,2022-11-30 18:10:40
,wl-rdm,93,292169,0.0-6.85-0.85,0.0,93.0,,,,,,,[],,,,,,53.2,1.0,u,0.0,False,1238.9000000003725,75.0,60.0,40.0,False,,256.07053432609473,[],"[1024, 576]",ColorTask,40.0,86.0,,,HRV,HRV_0101,2022-11-30 18:10:40
,wl-rdm,94,294438,0.0-6.86-0.86,0.0,94.0,,,,,,,[],,,,,,62.5,0.0,u,0.0,True,845.1999999992549,51.0,60.0,40.0,False,,360.1203331685349,[],"[1024, 576]",ColorTask,41.0,87.0,,,HRV,HRV_0101,2022-11-30 18:10:40
,wl-rdm,95,296756,0.0-6.87-0.87,0.0,95.0,,,,,,,[],,,,,,50.0,1.0,u,0.0,False,957.3000000007451,58.0,60.0,40.0,False,,286.61437645582214,[],"[1024, 576]",ColorTask,40.0,88.0,,,HRV,HRV_0101,2022-11-30 18:10:40
,wl-rdm,96,298791,0.0-6.88-0.88,0.0,96.0,,,,,,,[],,,,,,73.6,0.0,u,0.0,True,697.5,42.0,60.0,40.0,False,,269.40863367427266,[],"[1024, 576]",ColorTask,41.0,89.0,,,HRV,HRV_0101,2022-11-30 18:10:40
,wl-rdm,97,302211,0.0-6.89-0.89,0.0,97.0,,,,,,,[],,,,,,53.2,1.0,i,1.0,True,2117.699999999255,127.0,60.0,40.0,False,,223.4399947093355,[],"[1024, 576]",ColorTask,42.0,90.0,,,HRV,HRV_0101,2022-11-30 18:10:40
,wl-rdm,98,304730,0.0-6.90-0.90,0.0,98.0,,,,,,,[],,,,,,62.5,1.0,i,1.0,True,1231.199999999255,74.0,60.0,40.0,False,,229.77980851256672,[],"[1024, 576]",ColorTask,43.0,91.0,,,HRV,HRV_0101,2022-11-30 18:10:40
,wl-rdm,99,307382,0.0-6.91-0.91,0.0,99.0,,,,,,,[],,,,,,56.4,1.0,i,1.0,True,1240.5999999996275,75.0,60.0,40.0,False,,343.95508886994446,[],"[1024, 576]",ColorTask,44.0,92.0,,,HRV,HRV_0101,2022-11-30 18:10:40
,wl-rdm,100,309668,0.0-6.92-0.92,0.0,100.0,,,,,,,[],,,,,,73.6,1.0,i,1.0,True,952.8999999985099,58.0,60.0,40.0,False,,264.26083957740735,[],"[1024, 576]",ColorTask,45.0,93.0,,,HRV,HRV_0101,2022-11-30 18:10:40
,wl-rdm,101,312686,0.0-6.93-0.93,0.0,101.0,,,,,,,[],,,,,,53.2,1.0,i,1.0,True,1682.1000000014901,101.0,60.0,40.0,False,,268.6658951277144,[],"[1024, 576]",ColorTask,46.0,94.0,,,HRV,HRV_0101,2022-11-30 18:10:40
,wl-rdm,102,315789,0.0-6.94-0.94,0.0,102.0,,,,,,,[],,,,,,53.2,1.0,i,1.0,True,1741.199999999255,105.0,60.0,40.0,False,,284.02426315558176,[],"[1024, 576]",ColorTask,47.0,95.0,,,HRV,HRV_0101,2022-11-30 18:10:40
,wl-rdm,103,317924,0.0-6.95-0.95,0.0,103.0,,,,,,,[],,,,,,62.5,0.0,u,0.0,True,707.1000000014901,43.0,60.0,40.0,False,,361.85614388740333,[],"[1024, 576]",ColorTask,48.0,96.0,,,HRV,HRV_0101,2022-11-30 18:10:40
,wl-rdm,104,320409,0.0-6.96-0.96,0.0,104.0,,,,,,,[],,,,,,73.6,1.0,i,1.0,True,1203.1000000014901,73.0,60.0,40.0,False,,213.2566280854855,[],"[1024, 576]",ColorTask,49.0,97.0,,,HRV,HRV_0101,2022-11-30 18:10:40
,wl-rdm,105,322828,0.0-6.97-0.97,0.0,105.0,,,,,,,[],,,,,,50.0,1.0,u,0.0,False,996.8000000007451,60.0,60.0,40.0,False,,368.55151649330435,[],"[1024, 576]",ColorTask,48.0,98.0,,,HRV,HRV_0101,2022-11-30 18:10:40
,wl-rdm,106,324863,0.0-6.98-0.98,0.0,106.0,,,,,,,[],,,,,,62.5,0.0,u,0.0,True,724.7000000011176,44.0,60.0,40.0,False,,236.02799673666425,[],"[1024, 576]",ColorTask,49.0,99.0,,,HRV,HRV_0101,2022-11-30 18:10:40
,wl-rdm,107,326998,0.0-6.99-0.99,0.0,107.0,,,,,,,[],,,,,,73.6,1.0,i,1.0,True,788.5999999996275,48.0,60.0,40.0,False,,278.45071136587717,[],"[1024, 576]",ColorTask,50.0,100.0,,,HRV,HRV_0101,2022-11-30 18:10:40
,wl-rdm,108,329533,0.0-6.100-0.100,0.0,108.0,,,,,,,[],,,,,,50.0,0.0,u,0.0,True,1181.800000000745,71.0,60.0,40.0,False,,286.6996509613582,[],"[1024, 576]",ColorTask,51.0,101.0,,,HRV,HRV_0101,2022-11-30 18:10:40
,wl-rdm,109,331468,0.0-6.101-0.101,0.0,109.0,,,,,,,[],,,,,,87.9,0.0,u,0.0,True,653.6999999992549,40.0,60.0,40.0,False,,215.92997083223227,[],"[1024, 576]",ColorTask,52.0,102.0,,,HRV,HRV_0101,2022-11-30 18:10:40
,wl-rdm,110,333503,0.0-6.102-0.102,0.0,110.0,,,,,,,[],,,,,,62.5,0.0,u,0.0,True,746.3999999985099,45.0,60.0,40.0,False,,217.2121016777841,[],"[1024, 576]",ColorTask,53.0,103.0,,,HRV,HRV_0101,2022-11-30 18:10:40
,wl-rdm,111,335455,0.0-6.103-0.103,0.0,111.0,,,,,,,[],,,,,,87.9,0.0,u,0.0,True,582.6999999992549,35.0,60.0,40.0,False,,311.7715701435746,[],"[1024, 576]",ColorTask,54.0,104.0,,,HRV,HRV_0101,2022-11-30 18:10:40
,wl-rdm,112,337557,0.0-6.104-0.104,0.0,112.0,,,,,,,[],,,,,,87.9,1.0,i,1.0,True,645.7999999988824,39.0,60.0,40.0,False,,385.5602915791633,[],"[1024, 576]",ColorTask,55.0,105.0,,,HRV,HRV_0101,2022-11-30 18:10:40
,wl-rdm,113,340359,0.0-6.105-0.105,0.0,113.0,,,,,,,[],,,,,,56.4,0.0,u,0.0,True,1463.9000000003725,88.0,60.0,40.0,False,,293.4737387375958,[],"[1024, 576]",ColorTask,56.0,106.0,,,HRV,HRV_0101,2022-11-30 18:10:40
,wl-rdm,114,343044,0.0-6.106-0.106,0.0,114.0,,,,,,,[],,,,,,62.5,1.0,i,1.0,True,1301.3999999985099,78.0,60.0,40.0,False,,307.3012254747996,[],"[1024, 576]",ColorTask,57.0,107.0,,,HRV,HRV_0101,2022-11-30 18:10:40
,wl-rdm,115,345513,0.0-6.107-0.107,0.0,115.0,,,,,,,[],,,,,,56.4,1.0,u,0.0,False,1071.3000000026077,65.0,60.0,40.0,False,,331.9902939307972,[],"[1024, 576]",ColorTask,56.0,108.0,,,HRV,HRV_0101,2022-11-30 18:10:40
,wl-rdm,116,347665,0.0-6.108-0.108,0.0,116.0,,,,,,,[],,,,,,56.4,0.0,u,0.0,True,702.3999999985099,43.0,60.0,40.0,False,,368.63629687380126,[],"[1024, 576]",ColorTask,57.0,109.0,,,HRV,HRV_0101,2022-11-30 18:10:40
,wl-html-keyboard-response,117,367355,0.0-7.0-0.0,1.0,117.0,,,,,,,,17681.299999998882,1.0,0,,,,,,,,,,,,,,,,,,,,,,HRV,HRV_0101,2022-11-30 18:10:40
,wl-rdm,118,369416,0.0-8.0-0.0,1.0,118.0,,,,,,,[],,,,,,87.9,0.0,u,0.0,True,711.5,43.0,60.0,40.0,False,,287.17424005247625,[],"[1024, 576]",ColorTask,58.0,1.0,,,HRV,HRV_0101,2022-11-30 18:10:40
,wl-rdm,119,371451,0.0-8.1-0.1,1.0,119.0,,,,,,,[],,,,,,73.6,1.0,i,1.0,True,641.8000000007451,39.0,60.0,40.0,False,,329.5419492414943,[],"[1024, 576]",ColorTask,59.0,2.0,,,HRV,HRV_0101,2022-11-30 18:10:40
,wl-rdm,120,373770,0.0-8.2-0.2,1.0,120.0,,,,,,,[],,,,,,62.5,1.0,i,1.0,True,1026.0,62.0,60.0,40.0,False,,219.8645574817537,[],"[1024, 576]",ColorTask,60.0,3.0,,,HRV,HRV_0101,2022-11-30 18:10:40
,wl-rdm,121,375888,0.0-8.3-0.3,1.0,121.0,,,,,,,[],,,,,,53.2,1.0,i,1.0,True,812.9000000003725,49.0,60.0,40.0,False,,242.79456386073318,[],"[1024, 576]",ColorTask,61.0,4.0,,,HRV,HRV_0101,2022-11-30 18:10:40
,wl-rdm,122,378090,0.0-8.4-0.4,1.0,122.0,,,,,,,[],,,,,,53.2,1.0,u,0.0,False,892.0,54.0,60.0,40.0,False,,219.44999731249575,[],"[1024, 576]",ColorTask,60.0,5.0,,,HRV,HRV_0101,2022-11-30 18:10:40
,wl-rdm,123,380675,0.0-8.5-0.5,1.0,123.0,,,,,,,[],,,,,,62.5,1.0,u,0.0,False,1145.0999999996275,69.0,60.0,40.0,False,,372.34644223152657,[],"[1024, 576]",ColorTask,59.0,6.0,,,HRV,HRV_0101,2022-11-30 18:10:40
,wl-rdm,124,382660,0.0-8.6-0.6,1.0,124.0,,,,,,,[],,,,,,62.5,0.0,u,0.0,True,704.2999999988824,43.0,60.0,40.0,False,,204.6160181922981,[],"[1024, 576]",ColorTask,60.0,7.0,,,HRV,HRV_0101,2022-11-30 18:10:40
,wl-rdm,125,384745,0.0-8.7-0.7,1.0,125.0,,,,,,,[],,,,,,73.6,1.0,i,1.0,True,687.9000000003725,42.0,60.0,40.0,False,,320.26851781631865,[],"[1024, 576]",ColorTask,61.0,8.0,,,HRV,HRV_0101,2022-11-30 18:10:40
,wl-rdm,126,386747,0.0-8.8-0.8,1.0,126.0,,,,,,,[],,,,,,73.6,0.0,u,0.0,True,725.5999999996275,44.0,60.0,40.0,False,,214.91276132953803,[],"[1024, 576]",ColorTask,62.0,9.0,,,HRV,HRV_0101,2022-11-30 18:10:40
,wl-rdm,127,389232,0.0-8.9-0.9,1.0,127.0,,,,,,,[],,,,,,62.5,0.0,u,0.0,True,1169.6000000014901,71.0,60.0,40.0,False,,249.7263263576918,[],"[1024, 576]",ColorTask,63.0,10.0,,,HRV,HRV_0101,2022-11-30 18:10:40
,wl-rdm,128,391601,0.0-8.10-0.10,1.0,128.0,,,,,,,[],,,,,,50.0,0.0,u,0.0,True,1045.5,63.0,60.0,40.0,False,,263.50099549756044,[],"[1024, 576]",ColorTask,64.0,11.0,,,HRV,HRV_0101,2022-11-30 18:10:40
,wl-rdm,129,393936,0.0-8.11-0.11,1.0,129.0,,,,,,,[],,,,,,50.0,0.0,u,0.0,True,1037.2000000011176,63.0,60.0,40.0,False,,219.09792796369703,[],"[1024, 576]",ColorTask,65.0,12.0,,,HRV,HRV_0101,2022-11-30 18:10:40
,wl-rdm,130,396055,0.0-8.12-0.12,1.0,130.0,,,,,,,[],,,,,,73.6,1.0,i,1.0,True,808.5999999996275,49.0,60.0,40.0,False,,248.10874177865165,[],"[1024, 576]",ColorTask,66.0,13.0,,,HRV,HRV_0101,2022-11-30 18:10:40
,wl-rdm,131,398306,0.0-8.13-0.13,1.0,131.0,,,,,,,[],,,,,,50.0,0.0,u,0.0,True,938.1999999992549,57.0,60.0,40.0,False,,241.52749105735614,[],"[1024, 576]",ColorTask,67.0,14.0,,,HRV,HRV_0101,2022-11-30 18:10:40
,wl-rdm,132,400441,0.0-8.14-0.14,1.0,132.0,,,,,,,[],,,,,,50.0,0.0,u,0.0,True,773.2999999988824,47.0,60.0,40.0,False,,299.2803114028154,[],"[1024, 576]",ColorTask,68.0,15.0,,,HRV,HRV_0101,2022-11-30 18:10:40
,wl-rdm,133,402527,0.0-8.15-0.15,1.0,133.0,,,,,,,[],,,,,,73.6,1.0,i,1.0,True,733.6000000014901,45.0,60.0,40.0,False,,258.27900776994124,[],"[1024, 576]",ColorTask,69.0,16.0,,,HRV,HRV_0101,2022-11-30 18:10:40
,wl-rdm,134,404828,0.0-8.16-0.16,1.0,134.0,,,,,,,[],,,,,,53.2,0.0,u,0.0,True,955.8000000007451,58.0,60.0,40.0,False,,269.4952318663317,[],"[1024, 576]",ColorTask,70.0,17.0,,,HRV,HRV_0101,2022-11-30 18:10:40
,wl-rdm,135,407948,0.0-8.17-0.17,1.0,135.0,,,,,,,[],,,,,,53.2,1.0,i,1.0,True,1802.5000000018626,109.0,60.0,40.0,False,,241.17927392269326,[],"[1024, 576]",ColorTask,71.0,18.0,,,HRV,HRV_0101,2022-11-30 18:10:40
,wl-rdm,136,410033,0.0-8.18-0.18,1.0,136.0,,,,,,,[],,,,,,87.9,1.0,i,1.0,True,655.5,40.0,60.0,40.0,False,,366.0747063376713,[],"[1024, 576]",ColorTask,72.0,19.0,,,HRV,HRV_0101,2022-11-30 18:10:40
,wl-rdm,137,412268,0.0-8.19-0.19,1.0,137.0,,,,,,,[],,,,,,56.4,0.0,u,0.0,True,794.7999999988824,48.0,60.0,40.0,False,,374.68167352107963,[],"[1024, 576]",ColorTask,73.0,20.0,,,HRV,HRV_0101,2022-11-30 18:10:40
,wl-rdm,138,414853,0.0-8.20-0.20,1.0,138.0,,,,,,,[],,,,,,53.2,0.0,u,0.0,True,1170.8999999985099,71.0,60.0,40.0,False,,352.9483976784297,[],"[1024, 576]",ColorTask,74.0,21.0,,,HRV,HRV_0101,2022-11-30 18:10:40
,wl-rdm,139,417055,0.0-8.21-0.21,1.0,139.0,,,,,,,[],,,,,,56.4,1.0,i,1.0,True,933.9000000003725,56.0,60.0,40.0,False,,207.57834635304508,[],"[1024, 576]",ColorTask,75.0,22.0,,,HRV,HRV_0101,2022-11-30 18:10:40
,wl-rdm,140,419308,0.0-8.22-0.22,1.0,140.0,,,,,,,[],,,,,,62.5,1.0,i,1.0,True,847.8000000007451,51.0,60.0,40.0,False,,364.52570456421535,[],"[1024, 576]",ColorTask,76.0,23.0,,,HRV,HRV_0101,2022-11-30 18:10:40
,wl-rdm,141,421993,0.0-8.23-0.23,1.0,141.0,,,,,,,[],,,,,,50.0,1.0,u,0.0,False,1373.199999999255,83.0,60.0,40.0,False,,236.3979560518757,[],"[1024, 576]",ColorTask,75.0,24.0,,,HRV,HRV_0101,2022-11-30 18:10:40
,wl-rdm,142,425095,0.0-8.24-0.24,1.0,142.0,,,,,,,[],,,,,,50.0,1.0,i,1.0,True,1671.7000000011176,101.0,60.0,40.0,False,,359.22354281385685,[],"[1024, 576]",ColorTask,76.0,25.0,,,HRV,HRV_0101,2022-11-30 18:10:40
,wl-rdm,143,427297,0.0-8.25-0.25,1.0,143.0,,,,,,,[],,,,,,56.4,0.0,u,0.0,True,809.5,49.0,60.0,40.0,False,,319.6184474726422,[],"[1024, 576]",ColorTask,77.0,26.0,,,HRV,HRV_0101,2022-11-30 18:10:40
,wl-rdm,144,429415,0.0-8.26-0.26,1.0,144.0,,,,,,,[],,,,,,50.0,1.0,u,0.0,False,745.4000000003725,45.0,60.0,40.0,False,,311.0275985011597,[],"[1024, 576]",ColorTask,76.0,27.0,,,HRV,HRV_0101,2022-11-30 18:10:40
,wl-rdm,145,432484,0.0-8.27-0.27,1.0,145.0,,,,,,,[],,,,,,53.2,0.0,u,0.0,True,1692.2999999988824,102.0,60.0,40.0,False,,305.527240534445,[],"[1024, 576]",ColorTask,77.0,28.0,,,HRV,HRV_0101,2022-11-30 18:10:40
,wl-rdm,146,434519,0.0-8.28-0.28,1.0,146.0,,,,,,,[],,,,,,73.6,0.0,u,0.0,True,664.1000000014901,40.0,60.0,40.0,False,,316.3544097544532,[],"[1024, 576]",ColorTask,78.0,29.0,,,HRV,HRV_0101,2022-11-30 18:10:40
,wl-rdm,147,437839,0.0-8.29-0.29,1.0,147.0,,,,,,,[],,,,,,53.2,1.0,u,0.0,False,1857.4000000003725,112.0,60.0,40.0,False,,395.4120359989905,[],"[1024, 576]",ColorTask,77.0,30.0,,,HRV,HRV_0101,2022-11-30 18:10:40
,wl-rdm,148,440291,0.0-8.30-0.30,1.0,148.0,,,,,,,[],,,,,,62.5,0.0,u,0.0,True,1081.699999999255,65.0,60.0,40.0,False,,306.8480902327194,[],"[1024, 576]",ColorTask,78.0,31.0,,,HRV,HRV_0101,2022-11-30 18:10:40
,wl-rdm,149,443477,0.0-8.31-0.31,1.0,149.0,,,,,,,[],,,,,,56.4,0.0,u,0.0,True,1818.6000000014901,110.0,60.0,40.0,False,,299.12198119221006,[],"[1024, 576]",ColorTask,79.0,32.0,,,HRV,HRV_0101,2022-11-30 18:10:40
,wl-rdm,150,445428,0.0-8.32-0.32,1.0,150.0,,,,,,,[],,,,,,87.9,1.0,i,1.0,True,665.0999999996275,40.0,60.0,40.0,False,,223.6948455951991,[],"[1024, 576]",ColorTask,80.0,33.0,,,HRV,HRV_0101,2022-11-30 18:10:40
,wl-rdm,151,447597,0.0-8.33-0.33,1.0,151.0,,,,,,,[],,,,,,73.6,0.0,u,0.0,True,810.0,49.0,60.0,40.0,False,,295.1208190905213,[],"[1024, 576]",ColorTask,81.0,34.0,,,HRV,HRV_0101,2022-11-30 18:10:40
,wl-rdm,152,449815,0.0-8.34-0.34,1.0,152.0,,,,,,,[],,,,,,73.6,1.0,i,1.0,True,911.5,55.0,60.0,40.0,False,,233.7308484729006,[],"[1024, 576]",ColorTask,82.0,35.0,,,HRV,HRV_0101,2022-11-30 18:10:40
,wl-rdm,153,452618,0.0-8.35-0.35,1.0,153.0,,,,,,,[],,,,,,50.0,1.0,i,1.0,True,1463.699999999255,88.0,60.0,40.0,False,,273.78166603997863,[],"[1024, 576]",ColorTask,83.0,36.0,,,HRV,HRV_0101,2022-11-30 18:10:40
,wl-rdm,154,455120,0.0-8.36-0.36,1.0,154.0,,,,,,,[],,,,,,62.5,1.0,i,1.0,True,1149.9000000003725,69.0,60.0,40.0,False,,290.6164639370396,[],"[1024, 576]",ColorTask,84.0,37.0,,,HRV,HRV_0101,2022-11-30 18:10:40
,wl-rdm,155,457038,0.0-8.37-0.37,1.0,155.0,,,,,,,[],,,,,,73.6,1.0,i,1.0,True,532.4000000003725,32.0,60.0,40.0,False,,332.0993643450998,[],"[1024, 576]",ColorTask,85.0,38.0,,,HRV,HRV_0101,2022-11-30 18:10:40
,wl-rdm,156,459373,0.0-8.38-0.38,1.0,156.0,,,,,,,[],,,,,,62.5,0.0,u,0.0,True,867.2000000011176,53.0,60.0,40.0,False,,393.95726711516824,[],"[1024, 576]",ColorTask,86.0,39.0,,,HRV,HRV_0101,2022-11-30 18:10:40
,wl-rdm,157,461275,0.0-8.39-0.39,1.0,157.0,,,,,,,[],,,,,,87.9,0.0,u,0.0,True,560.0,34.0,60.0,40.0,False,,267.4552417511768,[],"[1024, 576]",ColorTask,87.0,40.0,,,HRV,HRV_0101,2022-11-30 18:10:40
,wl-rdm,158,463343,0.0-8.40-0.40,1.0,158.0,,,,,,,[],,,,,,87.9,1.0,i,1.0,True,646.0999999996275,39.0,60.0,40.0,False,,359.0011575462735,[],"[1024, 576]",ColorTask,88.0,41.0,,,HRV,HRV_0101,2022-11-30 18:10:40
,wl-rdm,159,465395,0.0-8.41-0.41,1.0,159.0,,,,,,,[],,,,,,53.2,0.0,u,0.0,True,672.8000000007451,41.0,60.0,40.0,False,,300.8447578041364,[],"[1024, 576]",ColorTask,89.0,42.0,,,HRV,HRV_0101,2022-11-30 18:10:40
,wl-rdm,160,467548,0.0-8.42-0.42,1.0,160.0,,,,,,,[],,,,,,56.4,1.0,i,1.0,True,838.8000000007451,51.0,60.0,40.0,False,,237.9184329430437,[],"[1024, 576]",ColorTask,90.0,43.0,,,HRV,HRV_0101,2022-11-30 18:10:40
,wl-rdm,161,469498,0.0-8.43-0.43,1.0,161.0,,,,,,,[],,,,,,62.5,0.0,u,0.0,True,650.6999999992549,39.0,60.0,40.0,False,,218.4887891082327,[],"[1024, 576]",ColorTask,91.0,44.0,,,HRV,HRV_0101,2022-11-30 18:10:40
,wl-rdm,162,471867,0.0-8.44-0.44,1.0,162.0,,,,,,,[],,,,,,50.0,1.0,u,0.0,False,986.8000000007451,60.0,60.0,40.0,False,,310.01080453340626,[],"[1024, 576]",ColorTask,90.0,45.0,,,HRV,HRV_0101,2022-11-30 18:10:40
,wl-rdm,163,474936,0.0-8.45-0.45,1.0,163.0,,,,,,,[],,,,,,53.2,0.0,u,0.0,True,1793.199999999255,108.0,60.0,40.0,False,,206.69150384471746,[],"[1024, 576]",ColorTask,91.0,46.0,,,HRV,HRV_0101,2022-11-30 18:10:40
,wl-rdm,164,476921,0.0-8.46-0.46,1.0,164.0,,,,,,,[],,,,,,87.9,0.0,u,0.0,True,620.7999999988824,38.0,60.0,40.0,False,,284.0840171381564,[],"[1024, 576]",ColorTask,92.0,47.0,,,HRV,HRV_0101,2022-11-30 18:10:40
,wl-rdm,165,478873,0.0-8.47-0.47,1.0,165.0,,,,,,,[],,,,,,73.6,0.0,u,0.0,True,672.2999999988824,41.0,60.0,40.0,False,,214.28006306055443,[],"[1024, 576]",ColorTask,93.0,48.0,,,HRV,HRV_0101,2022-11-30 18:10:40
,wl-rdm,166,480841,0.0-8.48-0.48,1.0,166.0,,,,,,,[],,,,,,87.9,0.0,u,0.0,True,625.9000000003725,38.0,60.0,40.0,False,,270.88696965605106,[],"[1024, 576]",ColorTask,94.0,49.0,,,HRV,HRV_0101,2022-11-30 18:10:40
,wl-rdm,167,483360,0.0-8.49-0.49,1.0,167.0,,,,,,,[],,,,,,56.4,1.0,i,1.0,True,1237.5,75.0,60.0,40.0,False,,205.97078417195976,[],"[1024, 576]",ColorTask,95.0,50.0,,,HRV,HRV_0101,2022-11-30 18:10:40
,wl-rdm,168,485211,0.0-8.50-0.50,1.0,168.0,,,,,,,[],,,,,,87.9,0.0,i,1.0,False,570.6999999992549,35.0,60.0,40.0,False,,213.26836003930947,[],"[1024, 576]",ColorTask,94.0,51.0,,,HRV,HRV_0101,2022-11-30 18:10:40
,wl-rdm,169,487630,0.0-8.51-0.51,1.0,169.0,,,,,,,[],,,,,,56.4,0.0,u,0.0,True,1141.300000000745,69.0,60.0,40.0,False,,205.73040719344516,[],"[1024, 576]",ColorTask,95.0,52.0,,,HRV,HRV_0101,2022-11-30 18:10:40
,wl-rdm,170,489681,0.0-8.52-0.52,1.0,170.0,,,,,,,[],,,,,,87.9,1.0,i,1.0,True,648.9000000003725,39.0,60.0,40.0,False,,331.7207636593436,[],"[1024, 576]",ColorTask,96.0,53.0,,,HRV,HRV_0101,2022-11-30 18:10:40
,wl-rdm,171,493701,0.0-8.53-0.53,1.0,171.0,,,,,,,[],,,,,,53.2,0.0,i,1.0,False,2623.3000000026077,158.0,60.0,40.0,False,,319.0601177903262,[],"[1024, 576]",ColorTask,95.0,54.0,,,HRV,HRV_0101,2022-11-30 18:10:40
,wl-rdm,172,495771,0.0-8.54-0.54,1.0,172.0,,,,,,,[],,,,,,50.0,1.0,i,1.0,True,736.9000000003725,45.0,60.0,40.0,False,,251.4348508063591,[],"[1024, 576]",ColorTask,96.0,55.0,,,HRV,HRV_0101,2022-11-30 18:10:40
,wl-rdm,173,500157,0.0-8.55-0.55,1.0,172.0,,,,,,,[],,,,,,53.2,1.0,,,,,179.0,60.0,40.0,True,RT_timeout ,301.76565267036324,[],"[1024, 576]",ColorTask,95.0,56.0,,,HRV,HRV_0101,2022-11-30 18:10:40
,wl-rdm,174,501224,0.0-8.56-0.56,1.0,172.0,,,,,,,[],,,,,,56.4,1.0,i,,,196.09999999962747,0.0,60.0,40.0,True,too_early ,299.89170374875926,[],"[1024, 576]",ColorTask,94.0,57.0,,,HRV,HRV_0101,2022-11-30 18:10:40
,wl-rdm,175,503459,0.0-8.57-0.57,1.0,173.0,,,,,,,[],,,,,,50.0,0.0,i,1.0,False,898.5999999996275,54.0,60.0,40.0,False,,269.1928319733868,[],"[1024, 576]",ColorTask,93.0,58.0,,,HRV,HRV_0101,2022-11-30 18:10:40
,wl-rdm,176,505511,0.0-8.58-0.58,1.0,174.0,,,,,,,[],,,,,,73.6,0.0,u,0.0,True,596.6999999992549,36.0,60.0,40.0,False,,384.31240484977405,[],"[1024, 576]",ColorTask,94.0,59.0,,,HRV,HRV_0101,2022-11-30 18:10:40
,wl-rdm,177,507630,0.0-8.59-0.59,1.0,175.0,,,,,,,[],,,,,,62.5,1.0,i,1.0,True,792.5,48.0,60.0,40.0,False,,265.4286589224182,[],"[1024, 576]",ColorTask,95.0,60.0,,,HRV,HRV_0101,2022-11-30 18:10:40
,wl-rdm,178,509716,0.0-8.60-0.60,1.0,176.0,,,,,,,[],,,,,,62.5,1.0,i,1.0,True,784.3000000007451,48.0,60.0,40.0,False,,224.6079186220163,[],"[1024, 576]",ColorTask,96.0,61.0,,,HRV,HRV_0101,2022-11-30 18:10:40
,wl-rdm,179,511816,0.0-8.61-0.61,1.0,177.0,,,,,,,[],,,,,,73.6,0.0,u,0.0,True,799.0,48.0,60.0,40.0,False,,244.71709913161126,[],"[1024, 576]",ColorTask,97.0,62.0,,,HRV,HRV_0101,2022-11-30 18:10:40
,wl-rdm,180,514352,0.0-8.62-0.62,1.0,178.0,,,,,,,[],,,,,,53.2,0.0,u,0.0,True,1069.9000000003725,65.0,60.0,40.0,False,,384.9163134818702,[],"[1024, 576]",ColorTask,98.0,63.0,,,HRV,HRV_0101,2022-11-30 18:10:40
,wl-rdm,181,516670,0.0-8.63-0.63,1.0,179.0,,,,,,,[],,,,,,56.4,1.0,u,0.0,False,990.0,60.0,60.0,40.0,False,,265.56098558108226,[],"[1024, 576]",ColorTask,97.0,64.0,,,HRV,HRV_0101,2022-11-30 18:10:40
,wl-rdm,182,518538,0.0-8.64-0.64,1.0,180.0,,,,,,,[],,,,,,87.9,1.0,i,1.0,True,573.7999999988824,35.0,60.0,40.0,False,,220.72698193623629,[],"[1024, 576]",ColorTask,98.0,65.0,,,HRV,HRV_0101,2022-11-30 18:10:40
,wl-rdm,183,521040,0.0-8.65-0.65,1.0,181.0,,,,,,,[],,,,,,53.2,1.0,i,1.0,True,1210.300000000745,73.0,60.0,40.0,False,,221.02261287722774,[],"[1024, 576]",ColorTask,99.0,66.0,,,HRV,HRV_0101,2022-11-30 18:10:40
,wl-rdm,184,523327,0.0-8.66-0.66,1.0,182.0,,,,,,,[],,,,,,56.4,1.0,u,0.0,False,926.0,56.0,60.0,40.0,False,,288.2802973008095,[],"[1024, 576]",ColorTask,98.0,67.0,,,HRV,HRV_0101,2022-11-30 18:10:40
,wl-rdm,185,525728,0.0-8.67-0.67,1.0,183.0,,,,,,,[],,,,,,50.0,1.0,u,0.0,False,1053.4000000003725,64.0,60.0,40.0,False,,274.8505870708334,[],"[1024, 576]",ColorTask,97.0,68.0,,,HRV,HRV_0101,2022-11-30 18:10:40
,wl-rdm,186,528330,0.0-8.68-0.68,1.0,184.0,,,,,,,[],,,,,,53.2,1.0,u,0.0,False,1216.5999999996275,73.0,60.0,40.0,False,,317.01728125048896,[],"[1024, 576]",ColorTask,96.0,69.0,,,HRV,HRV_0101,2022-11-30 18:10:40
,wl-rdm,187,530532,0.0-8.69-0.69,1.0,185.0,,,,,,,[],,,,,,62.5,1.0,i,1.0,True,903.5,55.0,60.0,40.0,False,,219.43272771039835,[],"[1024, 576]",ColorTask,97.0,70.0,,,HRV,HRV_0101,2022-11-30 18:10:40
,wl-rdm,188,532633,0.0-8.70-0.70,1.0,186.0,,,,,,,[],,,,,,87.9,0.0,u,0.0,True,670.2000000011176,41.0,60.0,40.0,False,,362.74145872558074,[],"[1024, 576]",ColorTask,98.0,71.0,,,HRV,HRV_0101,2022-11-30 18:10:40
,wl-rdm,189,534919,0.0-8.71-0.71,1.0,187.0,,,,,,,[],,,,,,56.4,1.0,i,1.0,True,846.0,51.0,60.0,40.0,False,,367.1047767784107,[],"[1024, 576]",ColorTask,99.0,72.0,,,HRV,HRV_0101,2022-11-30 18:10:40
,wl-rdm,190,537237,0.0-8.72-0.72,1.0,188.0,,,,,,,[],,,,,,53.2,0.0,u,0.0,True,920.6999999992549,56.0,60.0,40.0,False,,322.74890493056694,[],"[1024, 576]",ColorTask,100.0,73.0,,,HRV,HRV_0101,2022-11-30 18:10:40
,wl-rdm,191,539906,0.0-8.73-0.73,1.0,189.0,,,,,,,[],,,,,,53.2,1.0,i,1.0,True,1257.699999999255,76.0,60.0,40.0,False,,338.1994611276036,[],"[1024, 576]",ColorTask,101.0,74.0,,,HRV,HRV_0101,2022-11-30 18:10:40
,wl-rdm,192,542291,0.0-8.74-0.74,1.0,190.0,,,,,,,[],,,,,,56.4,1.0,i,1.0,True,1100.5,66.0,60.0,40.0,False,,221.48592154610526,[],"[1024, 576]",ColorTask,102.0,75.0,,,HRV,HRV_0101,2022-11-30 18:10:40
,wl-rdm,193,544243,0.0-8.75-0.75,1.0,191.0,,,,,,,[],,,,,,87.9,1.0,i,1.0,True,650.5,39.0,60.0,40.0,False,,244.21213910046612,[],"[1024, 576]",ColorTask,103.0,76.0,,,HRV,HRV_0101,2022-11-30 18:10:40
,wl-rdm,194,546111,0.0-8.76-0.76,1.0,192.0,,,,,,,[],,,,,,87.9,1.0,i,1.0,True,589.3999999985099,36.0,60.0,40.0,False,,209.89107223220984,[],"[1024, 576]",ColorTask,104.0,77.0,,,HRV,HRV_0101,2022-11-30 18:10:40
,wl-rdm,195,548246,0.0-8.77-0.77,1.0,193.0,,,,,,,[],,,,,,73.6,0.0,u,0.0,True,692.8000000007451,42.0,60.0,40.0,False,,358.9136801048621,[],"[1024, 576]",ColorTask,105.0,78.0,,,HRV,HRV_0101,2022-11-30 18:10:40
,wl-rdm,196,550031,0.0-8.78-0.78,1.0,194.0,,,,,,,[],,,,,,87.9,0.0,u,0.0,True,483.5,29.0,60.0,40.0,False,,237.34175901208278,[],"[1024, 576]",ColorTask,106.0,79.0,,,HRV,HRV_0101,2022-11-30 18:10:40
,wl-rdm,197,552633,0.0-8.79-0.79,1.0,195.0,,,,,,,[],,,,,,62.5,0.0,u,0.0,True,1224.2999999988824,74.0,60.0,40.0,False,,315.0034142099529,[],"[1024, 576]",ColorTask,107.0,80.0,,,HRV,HRV_0101,2022-11-30 18:10:40
,wl-rdm,198,554701,0.0-8.80-0.80,1.0,196.0,,,,,,,[],,,,,,73.6,1.0,i,1.0,True,633.5,38.0,60.0,40.0,False,,373.1996409527543,[],"[1024, 576]",ColorTask,108.0,81.0,,,HRV,HRV_0101,2022-11-30 18:10:40
,wl-rdm,199,556987,0.0-8.81-0.81,1.0,197.0,,,,,,,[],,,,,,56.4,0.0,u,0.0,True,962.9000000003725,58.0,60.0,40.0,False,,250.99353877050137,[],"[1024, 576]",ColorTask,109.0,82.0,,,HRV,HRV_0101,2022-11-30 18:10:40
,wl-rdm,200,559239,0.0-8.82-0.82,1.0,198.0,,,,,,,[],,,,,,73.6,1.0,i,1.0,True,941.3000000007451,57.0,60.0,40.0,False,,245.60408828529268,[],"[1024, 576]",ColorTask,110.0,83.0,,,HRV,HRV_0101,2022-11-30 18:10:40
,wl-rdm,201,561190,0.0-8.83-0.83,1.0,199.0,,,,,,,[],,,,,,62.5,1.0,i,1.0,True,650.4000000003725,39.0,60.0,40.0,False,,248.77915147134246,[],"[1024, 576]",ColorTask,111.0,84.0,,,HRV,HRV_0101,2022-11-30 18:10:40
,wl-rdm,202,563275,0.0-8.84-0.84,1.0,200.0,,,,,,,[],,,,,,87.9,1.0,i,1.0,True,676.5,41.0,60.0,40.0,False,,317.9312557593405,[],"[1024, 576]",ColorTask,112.0,85.0,,,HRV,HRV_0101,2022-11-30 18:10:40
,wl-rdm,203,565427,0.0-8.85-0.85,1.0,201.0,,,,,,,[],,,,,,73.6,1.0,i,1.0,True,711.5999999996275,43.0,60.0,40.0,False,,377.74024265225637,[],"[1024, 576]",ColorTask,113.0,86.0,,,HRV,HRV_0101,2022-11-30 18:10:40
,wl-rdm,204,567595,0.0-8.86-0.86,1.0,202.0,,,,,,,[],,,,,,50.0,1.0,i,1.0,True,776.0,47.0,60.0,40.0,False,,333.2994009710899,[],"[1024, 576]",ColorTask,114.0,87.0,,,HRV,HRV_0101,2022-11-30 18:10:40
,wl-rdm,205,569480,0.0-8.87-0.87,1.0,203.0,,,,,,,[],,,,,,87.9,1.0,i,1.0,True,561.0999999996275,34.0,60.0,40.0,False,,266.4479336233153,[],"[1024, 576]",ColorTask,115.0,88.0,,,HRV,HRV_0101,2022-11-30 18:10:40
,wl-rdm,206,571932,0.0-8.88-0.88,1.0,204.0,,,,,,,[],,,,,,50.0,1.0,i,1.0,True,1198.0,72.0,60.0,40.0,False,,213.02268365258567,[],"[1024, 576]",ColorTask,116.0,89.0,,,HRV,HRV_0101,2022-11-30 18:10:40
,wl-rdm,207,574918,0.0-8.89-0.89,1.0,205.0,,,,,,,[],,,,,,50.0,0.0,i,1.0,False,1614.2999999988824,97.0,60.0,40.0,False,,307.7038579670051,[],"[1024, 576]",ColorTask,115.0,90.0,,,HRV,HRV_0101,2022-11-30 18:10:40
,wl-rdm,208,577036,0.0-8.90-0.90,1.0,206.0,,,,,,,[],,,,,,62.5,0.0,u,0.0,True,822.0,50.0,60.0,40.0,False,,218.46770123029333,[],"[1024, 576]",ColorTask,116.0,91.0,,,HRV,HRV_0101,2022-11-30 18:10:40
,wl-rdm,209,579772,0.0-8.91-0.91,1.0,207.0,,,,,,,[],,,,,,56.4,0.0,i,1.0,False,1388.5999999996275,84.0,60.0,40.0,False,,280.84828934809485,[],"[1024, 576]",ColorTask,115.0,92.0,,,HRV,HRV_0101,2022-11-30 18:10:40
,wl-rdm,210,581857,0.0-8.92-0.92,1.0,208.0,,,,,,,[],,,,,,62.5,0.0,u,0.0,True,716.6999999992549,43.0,60.0,40.0,False,,308.7872492268772,[],"[1024, 576]",ColorTask,116.0,93.0,,,HRV,HRV_0101,2022-11-30 18:10:40
,wl-rdm,211,584844,0.0-8.93-0.93,1.0,209.0,,,,,,,[],,,,,,56.4,1.0,i,1.0,True,1680.199999999255,101.0,60.0,40.0,False,,240.19337658863435,[],"[1024, 576]",ColorTask,117.0,94.0,,,HRV,HRV_0101,2022-11-30 18:10:40
,wl-rdm,212,587228,0.0-8.94-0.94,1.0,210.0,,,,,,,[],,,,,,56.4,0.0,u,0.0,True,1004.7999999988824,61.0,60.0,40.0,False,,307.89595071360316,[],"[1024, 576]",ColorTask,118.0,95.0,,,HRV,HRV_0101,2022-11-30 18:10:40
,wl-rdm,213,589980,0.0-8.95-0.95,1.0,211.0,,,,,,,[],,,,,,53.2,1.0,i,1.0,True,1411.800000000745,85.0,60.0,40.0,False,,267.4213194620847,[],"[1024, 576]",ColorTask,119.0,96.0,,,HRV,HRV_0101,2022-11-30 18:10:40
,wl-rdm,214,592366,0.0-8.96-0.96,1.0,212.0,,,,,,,[],,,,,,62.5,1.0,i,1.0,True,1102.5,67.0,60.0,40.0,False,,205.64265740685855,[],"[1024, 576]",ColorTask,120.0,97.0,,,HRV,HRV_0101,2022-11-30 18:10:40
,wl-rdm,215,594784,0.0-8.97-0.97,1.0,213.0,,,,,,,[],,,,,,50.0,0.0,i,1.0,False,975.4000000022352,59.0,60.0,40.0,False,,367.7557603295362,[],"[1024, 576]",ColorTask,119.0,98.0,,,HRV,HRV_0101,2022-11-30 18:10:40
,wl-rdm,216,597470,0.0-8.98-0.98,1.0,214.0,,,,,,,[],,,,,,53.2,1.0,i,1.0,True,1225.0999999996275,74.0,60.0,40.0,False,,389.33037645940743,[],"[1024, 576]",ColorTask,120.0,99.0,,,HRV,HRV_0101,2022-11-30 18:10:40
,wl-rdm,217,599705,0.0-8.99-0.99,1.0,215.0,,,,,,,[],,,,,,62.5,0.0,u,0.0,True,790.4000000003725,48.0,60.0,40.0,False,,382.2300444378768,[],"[1024, 576]",ColorTask,121.0,100.0,,,HRV,HRV_0101,2022-11-30 18:10:40
,wl-rdm,218,602107,0.0-8.100-0.100,1.0,216.0,,,,,,,[],,,,,,50.0,0.0,u,0.0,True,1094.7999999988824,66.0,60.0,40.0,False,,237.68363534368007,[],"[1024, 576]",ColorTask,122.0,101.0,,,HRV,HRV_0101,2022-11-30 18:10:40
,wl-rdm,219,604292,0.0-8.101-0.101,1.0,217.0,,,,,,,[],,,,,,87.9,0.0,u,0.0,True,718.5,44.0,60.0,40.0,False,,399.35205324562304,[],"[1024, 576]",ColorTask,123.0,102.0,,,HRV,HRV_0101,2022-11-30 18:10:40
,wl-rdm,220,606294,0.0-8.102-0.102,1.0,218.0,,,,,,,[],,,,,,73.6,0.0,u,0.0,True,713.2999999988824,43.0,60.0,40.0,False,,225.76535862152835,[],"[1024, 576]",ColorTask,124.0,103.0,,,HRV,HRV_0101,2022-11-30 18:10:40
,wl-rdm,221,608746,0.0-8.103-0.103,1.0,219.0,,,,,,,[],,,,,,56.4,0.0,i,1.0,False,1176.4000000003725,71.0,60.0,40.0,False,,201.75021896749735,[],"[1024, 576]",ColorTask,123.0,104.0,,,HRV,HRV_0101,2022-11-30 18:10:40
,wl-rdm,222,611181,0.0-8.104-0.104,1.0,220.0,,,,,,,[],,,,,,50.0,0.0,i,1.0,False,1134.0,68.0,60.0,40.0,False,,248.85098370182274,[],"[1024, 576]",ColorTask,122.0,105.0,,,HRV,HRV_0101,2022-11-30 18:10:40
,wl-rdm,223,614134,0.0-8.105-0.105,1.0,221.0,,,,,,,[],,,,,,56.4,1.0,i,1.0,True,1658.4000000003725,100.0,60.0,40.0,False,,218.31973701971054,[],"[1024, 576]",ColorTask,123.0,106.0,,,HRV,HRV_0101,2022-11-30 18:10:40
,wl-rdm,224,616552,0.0-8.106-0.106,1.0,222.0,,,,,,,[],,,,,,56.4,0.0,u,0.0,True,1082.0,65.0,60.0,40.0,False,,276.3981657501083,[],"[1024, 576]",ColorTask,124.0,107.0,,,HRV,HRV_0101,2022-11-30 18:10:40
,wl-rdm,225,618537,0.0-8.107-0.107,1.0,223.0,,,,,,,[],,,,,,73.6,0.0,u,0.0,True,675.7000000011176,41.0,60.0,40.0,False,,238.60501325453365,[],"[1024, 576]",ColorTask,125.0,108.0,,,HRV,HRV_0101,2022-11-30 18:10:40
,wl-rdm,226,620355,0.0-8.108-0.108,1.0,224.0,,,,,,,[],,,,,,87.9,0.0,u,0.0,True,511.69999999925494,31.0,60.0,40.0,False,,237.8935620441137,[],"[1024, 576]",ColorTask,126.0,109.0,,,HRV,HRV_0101,2022-11-30 18:10:40
,wl-rdm,227,623108,0.0-8.109-0.109,1.0,225.0,,,,,,,[],,,,,,53.2,0.0,u,0.0,True,1347.5,81.0,60.0,40.0,False,,337.63568304073794,[],"[1024, 576]",ColorTask,127.0,110.0,,,HRV,HRV_0101,2022-11-30 18:10:40
,wl-html-button-response,228,626231,0.0-9.0-0.0,,,,,,,,,,3122.0999999996275,,0,,,,,,,,,,,,,,,,,,,,<h3>End of this session. Thank you!</h3><br>,['Close window'],HRV,HRV_0101,2022-11-30 18:10:40
