trialN,stimuli,question,trialStartTime,trialStartTime_UNIX,stimulus1,rt,receivedResponse,rating,trialEndTime,trialDuration,stimulus1Loaded,exp,subjectId,date
0,"[{'imgObject': {}, 'id': 'edamame', 'src': '/static/foodstim60/edamame.jpg', 'key': 'NaN', 'origWidth': 409, 'origHeight': 410, 'width': 409, 'height': 410, 'widthPercent': 0.8, 'rescaleHeight': True, 'trialN': 0, 'loaded': True, 'loadedTime': 2270.60000000149, 'positionName': 'CENTER', 'positionCoords': [819.5, 371]}]",Rate how much you want to eat this food from 0 (least) to 10 (most).,2339.7000000011176,1669830655748,edamame,3227.0999999996275,True,0.54,5566.800000000745,3227.0999999996275,True,HRV,HRV_0101,2022-11-30 17:53:08
1,"[{'imgObject': {}, 'id': 'sweetpotato', 'src': '/static/foodstim60/sweetpotato.jpg', 'key': 'NaN', 'origWidth': 410, 'origHeight': 410, 'width': 410, 'height': 410, 'widthPercent': 0.8, 'rescaleHeight': True, 'trialN': 1, 'loaded': True, 'loadedTime': 2272.800000000745, 'positionName': 'CENTER', 'positionCoords': [819, 371]}]",Rate how much you want to eat this food from 0 (least) to 10 (most).,5569.10000000149,1669830658978,sweetpotato,1892.699999999255,True,2.91,7461.800000000745,1892.699999999255,True,HRV,HRV_0101,2022-11-30 17:53:08
2,"[{'imgObject': {}, 'id': 'strawberries', 'src': '/static/foodstim60/strawberries.jpg', 'key': 'NaN', 'origWidth': 410, 'origHeight': 410, 'width': 410, 'height': 410, 'widthPercent': 0.8, 'rescaleHeight': True, 'trialN': 2, 'loaded': True, 'loadedTime': 2273.7000000011176, 'positionName': 'CENTER', 'positionCoords': [819, 371]}]",Rate how much you want to eat this food from 0 (least) to 10 (most).,7463.0,1669830660872,strawberries,1951.800000000745,True,4.42,9414.800000000745,1951.800000000745,True,HRV,HRV_0101,2022-11-30 17:53:08
3,"[{'imgObject': {}, 'id': 'luckycharms', 'src': '/static/foodstim60/luckycharms.jpg', 'key': 'NaN', 'origWidth': 410, 'origHeight': 409, 'width': 410, 'height': 409, 'widthPercent': 0.8, 'rescaleHeight': True, 'trialN': 3, 'loaded': True, 'loadedTime': 2274.4000000003725, 'positionName': 'CENTER', 'positionCoords': [819, 371.5]}]",Rate how much you want to eat this food from 0 (least) to 10 (most).,9416.200000001118,1669830662825,luckycharms,2271.5999999996275,True,6.890000000000001,11687.800000000745,2271.5999999996275,True,HRV,HRV_0101,2022-11-30 17:53:08
4,"[{'imgObject': {}, 'id': 'chickenfingers', 'src': '/static/foodstim60/chickenfingers.jpg', 'key': 'NaN', 'origWidth': 410, 'origHeight': 410, 'width': 410, 'height': 410, 'widthPercent': 0.8, 'rescaleHeight': True, 'trialN': 4, 'loaded': True, 'loadedTime': 2278.5, 'positionName': 'CENTER', 'positionCoords': [819, 371]}]",Rate how much you want to eat this food from 0 (least) to 10 (most).,11688.900000000373,1669830665098,chickenfingers,1731.9000000003725,True,8.43,13420.800000000745,1731.9000000003725,True,HRV,HRV_0101,2022-11-30 17:53:08
5,"[{'imgObject': {}, 'id': 'pear', 'src': '/static/foodstim60/pear.jpg', 'key': 'NaN', 'origWidth': 411, 'origHeight': 410, 'width': 411, 'height': 410, 'widthPercent': 0.8, 'rescaleHeight': True, 'trialN': 5, 'loaded': True, 'loadedTime': 2279.2000000011176, 'positionName': 'CENTER', 'positionCoords': [818.5, 371]}]",Rate how much you want to eat this food from 0 (least) to 10 (most).,13421.900000000373,1669830666831,pear,2269.9000000003725,True,4.46,15691.800000000745,2269.9000000003725,True,HRV,HRV_0101,2022-11-30 17:53:08
6,"[{'imgObject': {}, 'id': 'burrito', 'src': '/static/foodstim60/burrito.jpg', 'key': 'NaN', 'origWidth': 410, 'origHeight': 410, 'width': 410, 'height': 410, 'widthPercent': 0.8, 'rescaleHeight': True, 'trialN': 6, 'loaded': True, 'loadedTime': 2279.9000000003725, 'positionName': 'CENTER', 'positionCoords': [819, 371]}]",Rate how much you want to eat this food from 0 (least) to 10 (most).,15693.0,1669830669102,burrito,2204.800000000745,True,8.05,17897.800000000745,2204.800000000745,True,HRV,HRV_0101,2022-11-30 17:53:08
7,"[{'imgObject': {}, 'id': 'froot loops w milk', 'src': '/static/foodstim60/froot loops w milk.jpg', 'key': 'NaN', 'origWidth': 410, 'origHeight': 410, 'width': 410, 'height': 410, 'widthPercent': 0.8, 'rescaleHeight': True, 'trialN': 7, 'loaded': True, 'loadedTime': 2282.5, 'positionName': 'CENTER', 'positionCoords': [819, 371]}]",Rate how much you want to eat this food from 0 (least) to 10 (most).,17899.200000001118,1669830671308,froot loops w milk,1776.5999999996275,True,6.2,19675.800000000745,1776.5999999996275,True,HRV,HRV_0101,2022-11-30 17:53:08
8,"[{'imgObject': {}, 'id': 'orange slices', 'src': '/static/foodstim60/orange slices.jpg', 'key': 'NaN', 'origWidth': 409, 'origHeight': 410, 'width': 409, 'height': 410, 'widthPercent': 0.8, 'rescaleHeight': True, 'trialN': 8, 'loaded': True, 'loadedTime': 2283, 'positionName': 'CENTER', 'positionCoords': [819.5, 371]}]",Rate how much you want to eat this food from 0 (least) to 10 (most).,19677.300000000745,1669830673086,orange slices,1934.5,True,3.37,21611.800000000745,1934.5,True,HRV,HRV_0101,2022-11-30 17:53:08
9,"[{'imgObject': {}, 'id': 'popsicles', 'src': '/static/foodstim60/popsicles.jpg', 'key': 'NaN', 'origWidth': 410, 'origHeight': 410, 'width': 410, 'height': 410, 'widthPercent': 0.8, 'rescaleHeight': True, 'trialN': 9, 'loaded': True, 'loadedTime': 2283.60000000149, 'positionName': 'CENTER', 'positionCoords': [819, 371]}]",Rate how much you want to eat this food from 0 (least) to 10 (most).,21613.200000001118,1669830675022,popsicles,1925.5999999996275,True,1.2,23538.800000000745,1925.5999999996275,True,HRV,HRV_0101,2022-11-30 17:53:08
10,"[{'imgObject': {}, 'id': 'cherry tomato', 'src': '/static/foodstim60/cherry tomato.jpg', 'key': 'NaN', 'origWidth': 410, 'origHeight': 410, 'width': 410, 'height': 410, 'widthPercent': 0.8, 'rescaleHeight': True, 'trialN': 10, 'loaded': True, 'loadedTime': 2286.60000000149, 'positionName': 'CENTER', 'positionCoords': [819, 371]}]",Rate how much you want to eat this food from 0 (least) to 10 (most).,23540.10000000149,1669830676949,cherry tomato,2913.699999999255,True,1.49,26453.800000000745,2913.699999999255,True,HRV,HRV_0101,2022-11-30 17:53:08
11,"[{'imgObject': {}, 'id': 'turkey sandwich', 'src': '/static/foodstim60/turkey sandwich.jpg', 'key': 'NaN', 'origWidth': 409, 'origHeight': 409, 'width': 409, 'height': 409, 'widthPercent': 0.8, 'rescaleHeight': True, 'trialN': 11, 'loaded': True, 'loadedTime': 2287.2000000011176, 'positionName': 'CENTER', 'positionCoords': [819.5, 371.5]}]",Rate how much you want to eat this food from 0 (least) to 10 (most).,26455.0,1669830679864,turkey sandwich,2165.800000000745,True,4.2700000000000005,28620.800000000745,2165.800000000745,True,HRV,HRV_0101,2022-11-30 17:53:08
12,"[{'imgObject': {}, 'id': 'hotdog w must', 'src': '/static/foodstim60/hotdog w must.jpg', 'key': 'NaN', 'origWidth': 409, 'origHeight': 409, 'width': 409, 'height': 409, 'widthPercent': 0.8, 'rescaleHeight': True, 'trialN': 12, 'loaded': True, 'loadedTime': 2288.4000000003725, 'positionName': 'CENTER', 'positionCoords': [819.5, 371.5]}]",Rate how much you want to eat this food from 0 (least) to 10 (most).,28622.400000000373,1669830682031,hotdog w must,2133.4000000003725,True,7.22,30755.800000000745,2133.4000000003725,True,HRV,HRV_0101,2022-11-30 17:53:08
13,"[{'imgObject': {}, 'id': 'salad w chicken', 'src': '/static/foodstim60/salad w chicken.jpg', 'key': 'NaN', 'origWidth': 411, 'origHeight': 411, 'width': 411, 'height': 411, 'widthPercent': 0.8, 'rescaleHeight': True, 'trialN': 13, 'loaded': True, 'loadedTime': 2294.5, 'positionName': 'CENTER', 'positionCoords': [818.5, 370.5]}]",Rate how much you want to eat this food from 0 (least) to 10 (most).,30757.400000000373,1669830684166,salad w chicken,2220.4000000003725,True,3.44,32977.800000000745,2220.4000000003725,True,HRV,HRV_0101,2022-11-30 17:53:08
14,"[{'imgObject': {}, 'id': 'mashed potato', 'src': '/static/foodstim60/mashed potato.jpg', 'key': 'NaN', 'origWidth': 409, 'origHeight': 409, 'width': 409, 'height': 409, 'widthPercent': 0.8, 'rescaleHeight': True, 'trialN': 14, 'loaded': True, 'loadedTime': 2295.2000000011176, 'positionName': 'CENTER', 'positionCoords': [819.5, 371.5]}]",Rate how much you want to eat this food from 0 (least) to 10 (most).,32979.300000000745,1669830686388,mashed potato,1833.5,True,5.8500000000000005,34812.800000000745,1833.5,True,HRV,HRV_0101,2022-11-30 17:53:08
15,"[{'imgObject': {}, 'id': 'Tribe humus pita', 'src': '/static/foodstim60/Tribe humus pita.jpg', 'key': 'NaN', 'origWidth': 411, 'origHeight': 411, 'width': 411, 'height': 411, 'widthPercent': 0.8, 'rescaleHeight': True, 'trialN': 15, 'loaded': True, 'loadedTime': 2296, 'positionName': 'CENTER', 'positionCoords': [818.5, 370.5]}]",Rate how much you want to eat this food from 0 (least) to 10 (most).,34814.20000000112,1669830688223,Tribe humus pita,2614.5999999996275,True,5.63,37428.800000000745,2614.5999999996275,True,HRV,HRV_0101,2022-11-30 17:53:08
16,"[{'imgObject': {}, 'id': 'blackbeanswithrice', 'src': '/static/foodstim60/blackbeanswithrice.jpg', 'key': 'NaN', 'origWidth': 410, 'origHeight': 410, 'width': 410, 'height': 410, 'widthPercent': 0.8, 'rescaleHeight': True, 'trialN': 16, 'loaded': True, 'loadedTime': 2299, 'positionName': 'CENTER', 'positionCoords': [819, 371]}]",Rate how much you want to eat this food from 0 (least) to 10 (most).,37430.40000000037,1669830690839,blackbeanswithrice,2372.4000000003725,True,3.31,39802.800000000745,2372.4000000003725,True,HRV,HRV_0101,2022-11-30 17:53:08
17,"[{'imgObject': {}, 'id': 'shreddedwheatwithmilk', 'src': '/static/foodstim60/shreddedwheatwithmilk.jpg', 'key': 'NaN', 'origWidth': 410, 'origHeight': 410, 'width': 410, 'height': 410, 'widthPercent': 0.8, 'rescaleHeight': True, 'trialN': 17, 'loaded': True, 'loadedTime': 2300.9000000003725, 'positionName': 'CENTER', 'positionCoords': [819, 371]}]",Rate how much you want to eat this food from 0 (least) to 10 (most).,39804.20000000112,1669830693213,shreddedwheatwithmilk,1803.5999999996275,True,7.4,41607.800000000745,1803.5999999996275,True,HRV,HRV_0101,2022-11-30 17:53:08
18,"[{'imgObject': {}, 'id': 'roastedpotatoes', 'src': '/static/foodstim60/roastedpotatoes.jpg', 'key': 'NaN', 'origWidth': 409, 'origHeight': 410, 'width': 409, 'height': 410, 'widthPercent': 0.8, 'rescaleHeight': True, 'trialN': 18, 'loaded': True, 'loadedTime': 2301.300000000745, 'positionName': 'CENTER', 'positionCoords': [819.5, 371]}]",Rate how much you want to eat this food from 0 (least) to 10 (most).,41608.60000000149,1669830695017,roastedpotatoes,2800.199999999255,True,7.03,44408.800000000745,2800.199999999255,True,HRV,HRV_0101,2022-11-30 17:53:08
19,"[{'imgObject': {}, 'id': 'kiwi', 'src': '/static/foodstim60/kiwi.jpg', 'key': 'NaN', 'origWidth': 410, 'origHeight': 410, 'width': 410, 'height': 410, 'widthPercent': 0.8, 'rescaleHeight': True, 'trialN': 19, 'loaded': True, 'loadedTime': 2303.9000000003725, 'positionName': 'CENTER', 'positionCoords': [819, 371]}]",Rate how much you want to eat this food from 0 (least) to 10 (most).,44410.40000000037,1669830697819,kiwi,1836.4000000003725,True,2.65,46246.800000000745,1836.4000000003725,True,HRV,HRV_0101,2022-11-30 17:53:08
20,"[{'imgObject': {}, 'id': 'cheerios', 'src': '/static/foodstim60/cheerios.jpg', 'key': 'NaN', 'origWidth': 409, 'origHeight': 410, 'width': 409, 'height': 410, 'widthPercent': 0.8, 'rescaleHeight': True, 'trialN': 20, 'loaded': True, 'loadedTime': 2304.4000000003725, 'positionName': 'CENTER', 'positionCoords': [819.5, 371]}]",Rate how much you want to eat this food from 0 (least) to 10 (most).,46248.40000000037,1669830699657,cheerios,2715.4000000003725,True,7.46,48963.800000000745,2715.4000000003725,True,HRV,HRV_0101,2022-11-30 17:53:08
21,"[{'imgObject': {}, 'id': 'salmon', 'src': '/static/foodstim60/salmon.jpg', 'key': 'NaN', 'origWidth': 410, 'origHeight': 409, 'width': 410, 'height': 409, 'widthPercent': 0.8, 'rescaleHeight': True, 'trialN': 21, 'loaded': True, 'loadedTime': 2304.800000000745, 'positionName': 'CENTER', 'positionCoords': [819, 371.5]}]",Rate how much you want to eat this food from 0 (least) to 10 (most).,48965.70000000112,1669830702374,salmon,2209.0999999996275,True,7.73,51174.800000000745,2209.0999999996275,True,HRV,HRV_0101,2022-11-30 17:53:08
22,"[{'imgObject': {}, 'id': 'yogurt no spoon', 'src': '/static/foodstim60/yogurt no spoon.jpg', 'key': 'NaN', 'origWidth': 411, 'origHeight': 410, 'width': 411, 'height': 410, 'widthPercent': 0.8, 'rescaleHeight': True, 'trialN': 22, 'loaded': True, 'loadedTime': 2306.9000000003725, 'positionName': 'CENTER', 'positionCoords': [818.5, 371]}]",Rate how much you want to eat this food from 0 (least) to 10 (most).,51176.5,1669830704585,yogurt no spoon,2504.300000000745,True,4.29,53680.800000000745,2504.300000000745,True,HRV,HRV_0101,2022-11-30 17:53:08
23,"[{'imgObject': {}, 'id': 'Grapes', 'src': '/static/foodstim60/Grapes.jpg', 'key': 'NaN', 'origWidth': 411, 'origHeight': 411, 'width': 411, 'height': 411, 'widthPercent': 0.8, 'rescaleHeight': True, 'trialN': 23, 'loaded': True, 'loadedTime': 2307.60000000149, 'positionName': 'CENTER', 'positionCoords': [818.5, 370.5]}]",Rate how much you want to eat this food from 0 (least) to 10 (most).,53681.90000000037,1669830707091,Grapes,1851.9000000003725,True,3.93,55533.800000000745,1851.9000000003725,True,HRV,HRV_0101,2022-11-30 17:53:08
24,"[{'imgObject': {}, 'id': 'mac & cheese', 'src': '/static/foodstim60/mac & cheese.jpg', 'key': 'NaN', 'origWidth': 410, 'origHeight': 410, 'width': 410, 'height': 410, 'widthPercent': 0.8, 'rescaleHeight': True, 'trialN': 24, 'loaded': True, 'loadedTime': 2307.9000000003725, 'positionName': 'CENTER', 'positionCoords': [819, 371]}]",Rate how much you want to eat this food from 0 (least) to 10 (most).,55534.60000000149,1669830708943,mac & cheese,2216.199999999255,True,8.03,57750.800000000745,2216.199999999255,True,HRV,HRV_0101,2022-11-30 17:53:08
25,"[{'imgObject': {}, 'id': 'sushi w_condiments', 'src': '/static/foodstim60/sushi w_condiments.jpg', 'key': 'NaN', 'origWidth': 410, 'origHeight': 410, 'width': 410, 'height': 410, 'widthPercent': 0.8, 'rescaleHeight': True, 'trialN': 25, 'loaded': True, 'loadedTime': 2310.4000000003725, 'positionName': 'CENTER', 'positionCoords': [819, 371]}]",Rate how much you want to eat this food from 0 (least) to 10 (most).,57751.40000000037,1669830711160,sushi w_condiments,1777.4000000003725,True,2.24,59528.800000000745,1777.4000000003725,True,HRV,HRV_0101,2022-11-30 17:53:08
26,"[{'imgObject': {}, 'id': 'rigatoni', 'src': '/static/foodstim60/rigatoni.jpg', 'key': 'NaN', 'origWidth': 411, 'origHeight': 411, 'width': 411, 'height': 411, 'widthPercent': 0.8, 'rescaleHeight': True, 'trialN': 26, 'loaded': True, 'loadedTime': 2311, 'positionName': 'CENTER', 'positionCoords': [818.5, 370.5]}]",Rate how much you want to eat this food from 0 (least) to 10 (most).,59529.70000000112,1669830712938,rigatoni,2866.0999999996275,True,4.92,62395.800000000745,2866.0999999996275,True,HRV,HRV_0101,2022-11-30 17:53:08
27,"[{'imgObject': {}, 'id': 'lox', 'src': '/static/foodstim60/lox.jpg', 'key': 'NaN', 'origWidth': 410, 'origHeight': 411, 'width': 410, 'height': 411, 'widthPercent': 0.8, 'rescaleHeight': True, 'trialN': 27, 'loaded': True, 'loadedTime': 2311.4000000003725, 'positionName': 'CENTER', 'positionCoords': [819, 370.5]}]",Rate how much you want to eat this food from 0 (least) to 10 (most).,62396.90000000037,1669830715806,lox,1882.9000000003725,True,2.65,64279.800000000745,1882.9000000003725,True,HRV,HRV_0101,2022-11-30 17:53:08
28,"[{'imgObject': {}, 'id': 'olives', 'src': '/static/foodstim60/olives.jpg', 'key': 'NaN', 'origWidth': 410, 'origHeight': 410, 'width': 410, 'height': 410, 'widthPercent': 0.8, 'rescaleHeight': True, 'trialN': 28, 'loaded': True, 'loadedTime': 2313.300000000745, 'positionName': 'CENTER', 'positionCoords': [819, 371]}]",Rate how much you want to eat this food from 0 (least) to 10 (most).,64280.70000000112,1669830717689,olives,1974.0999999996275,True,0.15,66254.80000000075,1974.0999999996275,True,HRV,HRV_0101,2022-11-30 17:53:08
29,"[{'imgObject': {}, 'id': 'cantaloupe', 'src': '/static/foodstim60/cantaloupe.jpg', 'key': 'NaN', 'origWidth': 409, 'origHeight': 409, 'width': 409, 'height': 409, 'widthPercent': 0.8, 'rescaleHeight': True, 'trialN': 29, 'loaded': True, 'loadedTime': 2313.800000000745, 'positionName': 'CENTER', 'positionCoords': [819.5, 371.5]}]",Rate how much you want to eat this food from 0 (least) to 10 (most).,66256.0,1669830719665,cantaloupe,1609.800000000745,True,1.79,67865.80000000075,1609.800000000745,True,HRV,HRV_0101,2022-11-30 17:53:08
30,"[{'imgObject': {}, 'id': 'seaweed', 'src': '/static/foodstim60/seaweed.jpg', 'key': 'NaN', 'origWidth': 410, 'origHeight': 410, 'width': 410, 'height': 410, 'widthPercent': 0.8, 'rescaleHeight': True, 'trialN': 30, 'loaded': True, 'loadedTime': 2314.9000000003725, 'positionName': 'CENTER', 'positionCoords': [819, 371]}]",Rate how much you want to eat this food from 0 (least) to 10 (most).,67866.70000000112,1669830721276,seaweed,1948.0999999996275,True,0.15,69814.80000000075,1948.0999999996275,True,HRV,HRV_0101,2022-11-30 17:53:08
31,"[{'imgObject': {}, 'id': 'turkeysandwich', 'src': '/static/foodstim60/turkeysandwich.jpg', 'key': 'NaN', 'origWidth': 409, 'origHeight': 409, 'width': 409, 'height': 409, 'widthPercent': 0.8, 'rescaleHeight': True, 'trialN': 31, 'loaded': True, 'loadedTime': 2318, 'positionName': 'CENTER', 'positionCoords': [819.5, 371.5]}]",Rate how much you want to eat this food from 0 (least) to 10 (most).,69816.0,1669830723225,turkeysandwich,3500.800000000745,True,4.54,73316.80000000075,3500.800000000745,True,HRV,HRV_0101,2022-11-30 17:53:08
32,"[{'imgObject': {}, 'id': 'eggs', 'src': '/static/foodstim60/eggs.jpg', 'key': 'NaN', 'origWidth': 409, 'origHeight': 409, 'width': 409, 'height': 409, 'widthPercent': 0.8, 'rescaleHeight': True, 'trialN': 32, 'loaded': True, 'loadedTime': 2319.10000000149, 'positionName': 'CENTER', 'positionCoords': [819.5, 371.5]}]",Rate how much you want to eat this food from 0 (least) to 10 (most).,73317.90000000037,1669830726727,eggs,1429.9000000003725,True,5.03,74747.80000000075,1429.9000000003725,True,HRV,HRV_0101,2022-11-30 17:53:08
33,"[{'imgObject': {}, 'id': 'rigatoni and sauce', 'src': '/static/foodstim60/rigatoni and sauce.jpg', 'key': 'NaN', 'origWidth': 410, 'origHeight': 411, 'width': 410, 'height': 411, 'widthPercent': 0.8, 'rescaleHeight': True, 'trialN': 33, 'loaded': True, 'loadedTime': 2319.4000000003725, 'positionName': 'CENTER', 'positionCoords': [819, 370.5]}]",Rate how much you want to eat this food from 0 (least) to 10 (most).,74748.70000000112,1669830728157,rigatoni and sauce,2297.0999999996275,True,6.43,77045.80000000075,2297.0999999996275,True,HRV,HRV_0101,2022-11-30 17:53:08
34,"[{'imgObject': {}, 'id': 'eggsalad', 'src': '/static/foodstim60/eggsalad.jpg', 'key': 'NaN', 'origWidth': 410, 'origHeight': 409, 'width': 410, 'height': 409, 'widthPercent': 0.8, 'rescaleHeight': True, 'trialN': 34, 'loaded': True, 'loadedTime': 2321.5, 'positionName': 'CENTER', 'positionCoords': [819, 371.5]}]",Rate how much you want to eat this food from 0 (least) to 10 (most).,77046.60000000149,1669830730455,eggsalad,3076.199999999255,True,1.6400000000000001,80122.80000000075,3076.199999999255,True,HRV,HRV_0101,2022-11-30 17:53:08
35,"[{'imgObject': {}, 'id': 'ice cream sundae 002', 'src': '/static/foodstim60/ice cream sundae 002.jpg', 'key': 'NaN', 'origWidth': 409, 'origHeight': 409, 'width': 409, 'height': 409, 'widthPercent': 0.8, 'rescaleHeight': True, 'trialN': 35, 'loaded': True, 'loadedTime': 2322.10000000149, 'positionName': 'CENTER', 'positionCoords': [819.5, 371.5]}]",Rate how much you want to eat this food from 0 (least) to 10 (most).,80123.90000000037,1669830733533,ice cream sundae 002,2723.9000000003725,True,4.48,82847.80000000075,2723.9000000003725,True,HRV,HRV_0101,2022-11-30 17:53:08
36,"[{'imgObject': {}, 'id': 'fried eggs', 'src': '/static/foodstim60/fried eggs.jpg', 'key': 'NaN', 'origWidth': 410, 'origHeight': 410, 'width': 410, 'height': 410, 'widthPercent': 0.8, 'rescaleHeight': True, 'trialN': 36, 'loaded': True, 'loadedTime': 2322.4000000003725, 'positionName': 'CENTER', 'positionCoords': [819, 371]}]",Rate how much you want to eat this food from 0 (least) to 10 (most).,82848.90000000037,1669830736258,fried eggs,1951.9000000003725,True,5.12,84800.80000000075,1951.9000000003725,True,HRV,HRV_0101,2022-11-30 17:53:08
37,"[{'imgObject': {}, 'id': 'tacos', 'src': '/static/foodstim60/tacos.jpg', 'key': 'NaN', 'origWidth': 411, 'origHeight': 411, 'width': 411, 'height': 411, 'widthPercent': 0.8, 'rescaleHeight': True, 'trialN': 37, 'loaded': True, 'loadedTime': 2325.5, 'positionName': 'CENTER', 'positionCoords': [818.5, 370.5]}]",Rate how much you want to eat this food from 0 (least) to 10 (most).,84801.90000000037,1669830738211,tacos,2475.9000000003725,True,5.28,87277.80000000075,2475.9000000003725,True,HRV,HRV_0101,2022-11-30 17:53:08
38,"[{'imgObject': {}, 'id': 'chicken nuggets2', 'src': '/static/foodstim60/chicken nuggets2.jpg', 'key': 'NaN', 'origWidth': 410, 'origHeight': 409, 'width': 410, 'height': 409, 'widthPercent': 0.8, 'rescaleHeight': True, 'trialN': 38, 'loaded': True, 'loadedTime': 2325.9000000003725, 'positionName': 'CENTER', 'positionCoords': [819, 371.5]}]",Rate how much you want to eat this food from 0 (least) to 10 (most).,87279.0,1669830740688,chicken nuggets2,2193.800000000745,True,7.08,89472.80000000075,2193.800000000745,True,HRV,HRV_0101,2022-11-30 17:53:08
39,"[{'imgObject': {}, 'id': 'bagel and cc', 'src': '/static/foodstim60/bagel and cc.jpg', 'key': 'NaN', 'origWidth': 410, 'origHeight': 410, 'width': 410, 'height': 410, 'widthPercent': 0.8, 'rescaleHeight': True, 'trialN': 39, 'loaded': True, 'loadedTime': 2326.4000000003725, 'positionName': 'CENTER', 'positionCoords': [819, 371]}]",Rate how much you want to eat this food from 0 (least) to 10 (most).,89474.0,1669830742883,bagel and cc,1689.800000000745,True,5.62,91163.80000000075,1689.800000000745,True,HRV,HRV_0101,2022-11-30 17:53:08
40,"[{'imgObject': {}, 'id': 'cherries', 'src': '/static/foodstim60/cherries.jpg', 'key': 'NaN', 'origWidth': 410, 'origHeight': 411, 'width': 410, 'height': 411, 'widthPercent': 0.8, 'rescaleHeight': True, 'trialN': 40, 'loaded': True, 'loadedTime': 2328.300000000745, 'positionName': 'CENTER', 'positionCoords': [819, 370.5]}]",Rate how much you want to eat this food from 0 (least) to 10 (most).,91165.10000000149,1669830744574,cherries,1892.699999999255,True,3.42,93057.80000000075,1892.699999999255,True,HRV,HRV_0101,2022-11-30 17:53:08
41,"[{'imgObject': {}, 'id': 'burger', 'src': '/static/foodstim60/burger.jpg', 'key': 'NaN', 'origWidth': 409, 'origHeight': 409, 'width': 409, 'height': 409, 'widthPercent': 0.8, 'rescaleHeight': True, 'trialN': 41, 'loaded': True, 'loadedTime': 2328.7000000011176, 'positionName': 'CENTER', 'positionCoords': [819.5, 371.5]}]",Rate how much you want to eat this food from 0 (least) to 10 (most).,93059.40000000037,1669830746468,burger,2384.4000000003725,True,5.23,95443.80000000075,2384.4000000003725,True,HRV,HRV_0101,2022-11-30 17:53:08
42,"[{'imgObject': {}, 'id': 'avocado', 'src': '/static/foodstim60/avocado.jpg', 'key': 'NaN', 'origWidth': 409, 'origHeight': 409, 'width': 409, 'height': 409, 'widthPercent': 0.8, 'rescaleHeight': True, 'trialN': 42, 'loaded': True, 'loadedTime': 2329.10000000149, 'positionName': 'CENTER', 'positionCoords': [819.5, 371.5]}]",Rate how much you want to eat this food from 0 (least) to 10 (most).,95445.20000000112,1669830748854,avocado,1973.5999999996275,True,0.09,97418.80000000075,1973.5999999996275,True,HRV,HRV_0101,2022-11-30 17:53:08
43,"[{'imgObject': {}, 'id': 'baked potato', 'src': '/static/foodstim60/baked potato.jpg', 'key': 'NaN', 'origWidth': 409, 'origHeight': 410, 'width': 409, 'height': 410, 'widthPercent': 0.8, 'rescaleHeight': True, 'trialN': 43, 'loaded': True, 'loadedTime': 2329.60000000149, 'positionName': 'CENTER', 'positionCoords': [819.5, 371]}]",Rate how much you want to eat this food from 0 (least) to 10 (most).,97420.20000000112,1669830750829,baked potato,2516.5999999996275,True,5.17,99936.80000000075,2516.5999999996275,True,HRV,HRV_0101,2022-11-30 17:53:08
44,"[{'imgObject': {}, 'id': 'banana', 'src': '/static/foodstim60/banana.jpg', 'key': 'NaN', 'origWidth': 410, 'origHeight': 410, 'width': 410, 'height': 410, 'widthPercent': 0.8, 'rescaleHeight': True, 'trialN': 44, 'loaded': True, 'loadedTime': 2330, 'positionName': 'CENTER', 'positionCoords': [819, 371]}]",Rate how much you want to eat this food from 0 (least) to 10 (most).,99938.30000000075,1669830753347,banana,2078.5,True,3.3200000000000003,102016.80000000075,2078.5,True,HRV,HRV_0101,2022-11-30 17:53:08
45,"[{'imgObject': {}, 'id': 'grilled chicken strips', 'src': '/static/foodstim60/grilled chicken strips.jpg', 'key': 'NaN', 'origWidth': 410, 'origHeight': 411, 'width': 410, 'height': 411, 'widthPercent': 0.8, 'rescaleHeight': True, 'trialN': 45, 'loaded': True, 'loadedTime': 2330.5, 'positionName': 'CENTER', 'positionCoords': [819, 370.5]}]",Rate how much you want to eat this food from 0 (least) to 10 (most).,102018.40000000037,1669830755427,grilled chicken strips,2345.4000000003725,True,8.22,104363.80000000075,2345.4000000003725,True,HRV,HRV_0101,2022-11-30 17:53:08
46,"[{'imgObject': {}, 'id': 'apple slices', 'src': '/static/foodstim60/apple slices.jpg', 'key': 'NaN', 'origWidth': 409, 'origHeight': 410, 'width': 409, 'height': 410, 'widthPercent': 0.8, 'rescaleHeight': True, 'trialN': 46, 'loaded': True, 'loadedTime': 2330.9000000003725, 'positionName': 'CENTER', 'positionCoords': [819.5, 371]}]",Rate how much you want to eat this food from 0 (least) to 10 (most).,104365.40000000037,1669830757774,apple slices,2313.4000000003725,True,4.61,106678.80000000075,2313.4000000003725,True,HRV,HRV_0101,2022-11-30 17:53:08
47,"[{'imgObject': {}, 'id': 'mango', 'src': '/static/foodstim60/mango.jpg', 'key': 'NaN', 'origWidth': 411, 'origHeight': 411, 'width': 411, 'height': 411, 'widthPercent': 0.8, 'rescaleHeight': True, 'trialN': 47, 'loaded': True, 'loadedTime': 2331.300000000745, 'positionName': 'CENTER', 'positionCoords': [818.5, 370.5]}]",Rate how much you want to eat this food from 0 (least) to 10 (most).,106680.40000000037,1669830760089,mango,1867.4000000003725,True,1.8900000000000001,108547.80000000075,1867.4000000003725,True,HRV,HRV_0101,2022-11-30 17:53:08
48,"[{'imgObject': {}, 'id': 'hashbrowns', 'src': '/static/foodstim60/hashbrowns.jpg', 'key': 'NaN', 'origWidth': 411, 'origHeight': 410, 'width': 411, 'height': 410, 'widthPercent': 0.8, 'rescaleHeight': True, 'trialN': 48, 'loaded': True, 'loadedTime': 2331.7000000011176, 'positionName': 'CENTER', 'positionCoords': [818.5, 371]}]",Rate how much you want to eat this food from 0 (least) to 10 (most).,108549.5,1669830761958,hashbrowns,2857.300000000745,True,1.32,111406.80000000075,2857.300000000745,True,HRV,HRV_0101,2022-11-30 17:53:08
49,"[{'imgObject': {}, 'id': 'veggieswithdip', 'src': '/static/foodstim60/veggieswithdip.jpg', 'key': 'NaN', 'origWidth': 409, 'origHeight': 409, 'width': 409, 'height': 409, 'widthPercent': 0.8, 'rescaleHeight': True, 'trialN': 49, 'loaded': True, 'loadedTime': 2332.10000000149, 'positionName': 'CENTER', 'positionCoords': [819.5, 371.5]}]",Rate how much you want to eat this food from 0 (least) to 10 (most).,111408.40000000037,1669830764817,veggieswithdip,1694.4000000003725,True,1.1300000000000001,113102.80000000075,1694.4000000003725,True,HRV,HRV_0101,2022-11-30 17:53:08
50,"[{'imgObject': {}, 'id': 'raspberries', 'src': '/static/foodstim60/raspberries.jpg', 'key': 'NaN', 'origWidth': 411, 'origHeight': 411, 'width': 411, 'height': 411, 'widthPercent': 0.8, 'rescaleHeight': True, 'trialN': 50, 'loaded': True, 'loadedTime': 2332.4000000003725, 'positionName': 'CENTER', 'positionCoords': [818.5, 370.5]}]",Rate how much you want to eat this food from 0 (least) to 10 (most).,113104.40000000037,1669830766513,raspberries,2674.4000000003725,True,3.91,115778.80000000075,2674.4000000003725,True,HRV,HRV_0101,2022-11-30 17:53:08
51,"[{'imgObject': {}, 'id': 'fruitsalad', 'src': '/static/foodstim60/fruitsalad.jpg', 'key': 'NaN', 'origWidth': 410, 'origHeight': 410, 'width': 410, 'height': 410, 'widthPercent': 0.8, 'rescaleHeight': True, 'trialN': 51, 'loaded': True, 'loadedTime': 2332.800000000745, 'positionName': 'CENTER', 'positionCoords': [819, 371]}]",Rate how much you want to eat this food from 0 (least) to 10 (most).,115780.10000000149,1669830769189,fruitsalad,1462.699999999255,True,2.61,117242.80000000075,1462.699999999255,True,HRV,HRV_0101,2022-11-30 17:53:08
52,"[{'imgObject': {}, 'id': 'bagel plain', 'src': '/static/foodstim60/bagel plain.jpg', 'key': 'NaN', 'origWidth': 410, 'origHeight': 410, 'width': 410, 'height': 410, 'widthPercent': 0.8, 'rescaleHeight': True, 'trialN': 52, 'loaded': True, 'loadedTime': 2333.2000000011176, 'positionName': 'CENTER', 'positionCoords': [819, 371]}]",Rate how much you want to eat this food from 0 (least) to 10 (most).,117244.20000000112,1669830770653,bagel plain,1627.5999999996275,True,4.54,118871.80000000075,1627.5999999996275,True,HRV,HRV_0101,2022-11-30 17:53:08
53,"[{'imgObject': {}, 'id': 'omelette', 'src': '/static/foodstim60/omelette.jpg', 'key': 'NaN', 'origWidth': 410, 'origHeight': 409, 'width': 410, 'height': 409, 'widthPercent': 0.8, 'rescaleHeight': True, 'trialN': 53, 'loaded': True, 'loadedTime': 2334.10000000149, 'positionName': 'CENTER', 'positionCoords': [819, 371.5]}]",Rate how much you want to eat this food from 0 (least) to 10 (most).,118873.40000000037,1669830772282,omelette,3434.4000000003725,True,4.75,122307.80000000075,3434.4000000003725,True,HRV,HRV_0101,2022-11-30 17:53:08
54,"[{'imgObject': {}, 'id': 'blueberries', 'src': '/static/foodstim60/blueberries.jpg', 'key': 'NaN', 'origWidth': 411, 'origHeight': 411, 'width': 411, 'height': 411, 'widthPercent': 0.8, 'rescaleHeight': True, 'trialN': 54, 'loaded': True, 'loadedTime': 2334.4000000003725, 'positionName': 'CENTER', 'positionCoords': [818.5, 370.5]}]",Rate how much you want to eat this food from 0 (least) to 10 (most).,122309.60000000149,1669830775718,blueberries,1488.199999999255,True,2.81,123797.80000000075,1488.199999999255,True,HRV,HRV_0101,2022-11-30 17:53:08
55,"[{'imgObject': {}, 'id': 'granola w milk', 'src': '/static/foodstim60/granola w milk.jpg', 'key': 'NaN', 'origWidth': 410, 'origHeight': 410, 'width': 410, 'height': 410, 'widthPercent': 0.8, 'rescaleHeight': True, 'trialN': 55, 'loaded': True, 'loadedTime': 2334.800000000745, 'positionName': 'CENTER', 'positionCoords': [819, 371]}]",Rate how much you want to eat this food from 0 (least) to 10 (most).,123799.60000000149,1669830777208,granola w milk,1764.199999999255,True,5.18,125563.80000000075,1764.199999999255,True,HRV,HRV_0101,2022-11-30 17:53:08
56,"[{'imgObject': {}, 'id': 'steak', 'src': '/static/foodstim60/steak.jpg', 'key': 'NaN', 'origWidth': 410, 'origHeight': 410, 'width': 410, 'height': 410, 'widthPercent': 0.8, 'rescaleHeight': True, 'trialN': 56, 'loaded': True, 'loadedTime': 2336.800000000745, 'positionName': 'CENTER', 'positionCoords': [819, 371]}]",Rate how much you want to eat this food from 0 (least) to 10 (most).,125565.70000000112,1669830778974,steak,2878.0999999996275,True,7.07,128443.80000000075,2878.0999999996275,True,HRV,HRV_0101,2022-11-30 17:53:08
57,"[{'imgObject': {}, 'id': 'cocktailshrimp', 'src': '/static/foodstim60/cocktailshrimp.jpg', 'key': 'NaN', 'origWidth': 410, 'origHeight': 410, 'width': 410, 'height': 410, 'widthPercent': 0.8, 'rescaleHeight': True, 'trialN': 57, 'loaded': True, 'loadedTime': 2337.2000000011176, 'positionName': 'CENTER', 'positionCoords': [819, 371]}]",Rate how much you want to eat this food from 0 (least) to 10 (most).,128444.5,1669830781853,cocktailshrimp,1735.300000000745,True,1.9000000000000001,130179.80000000075,1735.300000000745,True,HRV,HRV_0101,2022-11-30 17:53:08
58,"[{'imgObject': {}, 'id': 'raisin bran w milk', 'src': '/static/foodstim60/raisin bran w milk.jpg', 'key': 'NaN', 'origWidth': 411, 'origHeight': 411, 'width': 411, 'height': 411, 'widthPercent': 0.8, 'rescaleHeight': True, 'trialN': 58, 'loaded': True, 'loadedTime': 2337.5, 'positionName': 'CENTER', 'positionCoords': [818.5, 370.5]}]",Rate how much you want to eat this food from 0 (least) to 10 (most).,130180.80000000075,1669830783590,raisin bran w milk,2624.0,True,5.16,132804.80000000075,2624.0,True,HRV,HRV_0101,2022-11-30 17:53:08
59,"[{'imgObject': {}, 'id': 'corn cob', 'src': '/static/foodstim60/corn cob.jpg', 'key': 'NaN', 'origWidth': 411, 'origHeight': 411, 'width': 411, 'height': 411, 'widthPercent': 0.8, 'rescaleHeight': True, 'trialN': 59, 'loaded': True, 'loadedTime': 2339.5, 'positionName': 'CENTER', 'positionCoords': [818.5, 370.5]}]",Rate how much you want to eat this food from 0 (least) to 10 (most).,132805.70000000112,1669830786215,corn cob,1822.0999999996275,True,4.15,134627.80000000075,1822.0999999996275,True,HRV,HRV_0101,2022-11-30 17:53:08
