trialN,stimuli,trialStartTime,trialStartTime_UNIX,stimulus1,stimulus2,stimulus1Bid,stimulus2Bid,delta,selected,rsp,rt,rt_UNIX,receivedResponse,trialEndTime,trialDuration,trialEndTime_UNIX,trialDuration_UNIX,rt_perfnow,exp,subjectId,date
0,"[{'imgObject': {}, 'id': 'burger', 'src': '/static/foodstim60/burger.jpg', 'key': 'u', 'origWidth': 409, 'origHeight': 409, 'width': 409, 'height': 409, 'widthPercent': 0.45, 'rescaleHeight': False, 'trialN': 0, 'loaded': True, 'loadedTime': 5525.5, 'positionName': 'LEFT', 'positionCoords': [205.4, 155.5], 'bid': 9.65}, {'imgObject': {}, 'id': 'veggieswithdip', 'src': '/static/foodstim60/veggieswithdip.jpg', 'key': 'i', 'origWidth': 409, 'origHeight': 409, 'width': 409, 'height': 409, 'widthPercent': 0.45, 'rescaleHeight': False, 'trialN': 0, 'loaded': True, 'loadedTime': 5670.599999964237, 'positionName': 'RIGHT', 'positionCoords': [665.6, 155.5], 'bid': 9.71}]",7229.5,1669829779539,burger,veggieswithdip,9.65,9.71,0.0600000000000005,NaN,NaN,NaN,NaN,False,11251.5,4022.0,1669829783561,4022,,HRV,HRV_0088,2022-11-30 17:42:13
1,"[{'imgObject': {}, 'id': 'fried eggs', 'src': '/static/foodstim60/fried eggs.jpg', 'key': 'u', 'origWidth': 410, 'origHeight': 410, 'width': 410, 'height': 410, 'widthPercent': 0.45, 'rescaleHeight': False, 'trialN': 1, 'loaded': True, 'loadedTime': 5689.899999976158, 'positionName': 'LEFT', 'positionCoords': [204.4, 155], 'bid': 1.5}, {'imgObject': {}, 'id': 'froot loops w milk', 'src': '/static/foodstim60/froot loops w milk.jpg', 'key': 'i', 'origWidth': 410, 'origHeight': 410, 'width': 410, 'height': 410, 'widthPercent': 0.45, 'rescaleHeight': False, 'trialN': 1, 'loaded': True, 'loadedTime': 5820.899999976158, 'positionName': 'RIGHT', 'positionCoords': [665.6, 155], 'bid': 0.42}]",11252.399999976158,1669829783562,fried eggs,froot loops w milk,1.5,0.42,-1.08,froot loops w milk,i,1236,1236,True,13001.299999952316,1748.8999999761581,1669829785311,1749,1236.6000000238419,HRV,HRV_0088,2022-11-30 17:42:13
2,"[{'imgObject': {}, 'id': 'corn cob', 'src': '/static/foodstim60/corn cob.jpg', 'key': 'u', 'origWidth': 411, 'origHeight': 411, 'width': 411, 'height': 411, 'widthPercent': 0.45, 'rescaleHeight': False, 'trialN': 2, 'loaded': True, 'loadedTime': 5964.899999976158, 'positionName': 'LEFT', 'positionCoords': [203.4, 154.5], 'bid': 9.53}, {'imgObject': {}, 'id': 'raspberries', 'src': '/static/foodstim60/raspberries.jpg', 'key': 'i', 'origWidth': 411, 'origHeight': 411, 'width': 411, 'height': 411, 'widthPercent': 0.45, 'rescaleHeight': False, 'trialN': 2, 'loaded': True, 'loadedTime': 5967.5, 'positionName': 'RIGHT', 'positionCoords': [665.6, 154.5], 'bid': 9.85}]",13001.799999952316,1669829785311,corn cob,raspberries,9.53,9.85,0.3200000000000003,raspberries,i,2997.800000011921,2998,True,16514.899999976158,3513.100000023842,1669829788824,3513,2998.5,HRV,HRV_0088,2022-11-30 17:42:13
3,"[{'imgObject': {}, 'id': 'bagel and cc', 'src': '/static/foodstim60/bagel and cc.jpg', 'key': 'u', 'origWidth': 410, 'origHeight': 410, 'width': 410, 'height': 410, 'widthPercent': 0.45, 'rescaleHeight': False, 'trialN': 3, 'loaded': True, 'loadedTime': 6017.699999988079, 'positionName': 'LEFT', 'positionCoords': [204.4, 155], 'bid': 10}, {'imgObject': {}, 'id': 'burrito', 'src': '/static/foodstim60/burrito.jpg', 'key': 'i', 'origWidth': 410, 'origHeight': 410, 'width': 410, 'height': 410, 'widthPercent': 0.45, 'rescaleHeight': False, 'trialN': 3, 'loaded': True, 'loadedTime': 6096.399999976158, 'positionName': 'RIGHT', 'positionCoords': [665.6, 155], 'bid': 7.51}]",16516.19999998808,1669829788825,bagel and cc,burrito,10.0,7.51,-2.49,bagel and cc,u,1477,1478,True,18502.0,1985.800000011921,1669829790811,1986,1477.800000011921,HRV,HRV_0088,2022-11-30 17:42:13
4,"[{'imgObject': {}, 'id': 'salmon', 'src': '/static/foodstim60/salmon.jpg', 'key': 'u', 'origWidth': 410, 'origHeight': 409, 'width': 410, 'height': 409, 'widthPercent': 0.45, 'rescaleHeight': False, 'trialN': 4, 'loaded': True, 'loadedTime': 6139.5, 'positionName': 'LEFT', 'positionCoords': [204.4, 155.5], 'bid': 9.9}, {'imgObject': {}, 'id': 'bagel and cc', 'src': '/static/foodstim60/bagel and cc.jpg', 'key': 'i', 'origWidth': 410, 'origHeight': 410, 'width': 410, 'height': 410, 'widthPercent': 0.45, 'rescaleHeight': False, 'trialN': 4, 'loaded': True, 'loadedTime': 6017.199999988079, 'positionName': 'RIGHT', 'positionCoords': [665.6, 155], 'bid': 10}]",18502.399999976158,1669829790812,salmon,bagel and cc,9.9,10.0,0.09999999999999964,salmon,u,1012.8999999761581,1013,True,20035.0,1532.6000000238419,1669829792344,1532,1013.5,HRV,HRV_0088,2022-11-30 17:42:13
5,"[{'imgObject': {}, 'id': 'salad w chicken', 'src': '/static/foodstim60/salad w chicken.jpg', 'key': 'u', 'origWidth': 411, 'origHeight': 411, 'width': 411, 'height': 411, 'widthPercent': 0.45, 'rescaleHeight': False, 'trialN': 5, 'loaded': True, 'loadedTime': 6146.599999964237, 'positionName': 'LEFT', 'positionCoords': [203.4, 154.5], 'bid': 5.59}, {'imgObject': {}, 'id': 'cheerios', 'src': '/static/foodstim60/cheerios.jpg', 'key': 'i', 'origWidth': 409, 'origHeight': 410, 'width': 409, 'height': 410, 'widthPercent': 0.45, 'rescaleHeight': False, 'trialN': 5, 'loaded': True, 'loadedTime': 6240.399999976158, 'positionName': 'RIGHT', 'positionCoords': [665.6, 155], 'bid': 1.12}]",20035.69999998808,1669829792345,salad w chicken,cheerios,5.59,1.12,-4.47,salad w chicken,u,1195,1196,True,21735.19999998808,1699.5,1669829794045,1700,1195.699999988079,HRV,HRV_0088,2022-11-30 17:42:13
6,"[{'imgObject': {}, 'id': 'blueberries', 'src': '/static/foodstim60/blueberries.jpg', 'key': 'u', 'origWidth': 411, 'origHeight': 411, 'width': 411, 'height': 411, 'widthPercent': 0.45, 'rescaleHeight': False, 'trialN': 6, 'loaded': True, 'loadedTime': 6246.5, 'positionName': 'LEFT', 'positionCoords': [203.4, 154.5], 'bid': 8.34}, {'imgObject': {}, 'id': 'turkey sandwich', 'src': '/static/foodstim60/turkey sandwich.jpg', 'key': 'i', 'origWidth': 409, 'origHeight': 409, 'width': 409, 'height': 409, 'widthPercent': 0.45, 'rescaleHeight': False, 'trialN': 6, 'loaded': True, 'loadedTime': 6305.5, 'positionName': 'RIGHT', 'positionCoords': [665.6, 155.5], 'bid': 9.89}]",21736.099999964237,1669829794046,blueberries,turkey sandwich,8.34,9.89,1.5500000000000007,turkey sandwich,i,939.1000000238419,939,True,23192.69999998808,1456.6000000238419,1669829795502,1456,940.0,HRV,HRV_0088,2022-11-30 17:42:13
7,"[{'imgObject': {}, 'id': 'orange slices', 'src': '/static/foodstim60/orange slices.jpg', 'key': 'u', 'origWidth': 409, 'origHeight': 410, 'width': 409, 'height': 410, 'widthPercent': 0.45, 'rescaleHeight': False, 'trialN': 7, 'loaded': True, 'loadedTime': 6396, 'positionName': 'LEFT', 'positionCoords': [205.4, 155], 'bid': 3.93}, {'imgObject': {}, 'id': 'Grapes', 'src': '/static/foodstim60/Grapes.jpg', 'key': 'i', 'origWidth': 411, 'origHeight': 411, 'width': 411, 'height': 411, 'widthPercent': 0.45, 'rescaleHeight': False, 'trialN': 7, 'loaded': True, 'loadedTime': 6403.599999964237, 'positionName': 'RIGHT', 'positionCoords': [665.6, 154.5], 'bid': 3.62}]",23193.399999976158,1669829795503,orange slices,Grapes,3.93,3.62,-0.31000000000000005,Grapes,i,1373.199999988079,1374,True,25078.799999952316,1885.3999999761581,1669829797388,1885,1374.1000000238419,HRV,HRV_0088,2022-11-30 17:42:13
8,"[{'imgObject': {}, 'id': 'eggs', 'src': '/static/foodstim60/eggs.jpg', 'key': 'u', 'origWidth': 409, 'origHeight': 409, 'width': 409, 'height': 409, 'widthPercent': 0.45, 'rescaleHeight': False, 'trialN': 8, 'loaded': True, 'loadedTime': 6465, 'positionName': 'LEFT', 'positionCoords': [205.4, 155.5], 'bid': 6.73}, {'imgObject': {}, 'id': 'roastedpotatoes', 'src': '/static/foodstim60/roastedpotatoes.jpg', 'key': 'i', 'origWidth': 409, 'origHeight': 410, 'width': 409, 'height': 410, 'widthPercent': 0.45, 'rescaleHeight': False, 'trialN': 8, 'loaded': True, 'loadedTime': 6471.899999976158, 'positionName': 'RIGHT', 'positionCoords': [665.6, 155], 'bid': 6.21}]",25079.799999952316,1669829797389,eggs,roastedpotatoes,6.73,6.21,-0.5200000000000005,eggs,u,2134.300000011921,2135,True,27718.5,2638.7000000476837,1669829800028,2639,2134.900000035763,HRV,HRV_0088,2022-11-30 17:42:13
9,"[{'imgObject': {}, 'id': 'seaweed', 'src': '/static/foodstim60/seaweed.jpg', 'key': 'u', 'origWidth': 410, 'origHeight': 410, 'width': 410, 'height': 410, 'widthPercent': 0.45, 'rescaleHeight': False, 'trialN': 9, 'loaded': True, 'loadedTime': 6532.599999964237, 'positionName': 'LEFT', 'positionCoords': [204.4, 155], 'bid': 0}, {'imgObject': {}, 'id': 'pear', 'src': '/static/foodstim60/pear.jpg', 'key': 'i', 'origWidth': 411, 'origHeight': 410, 'width': 411, 'height': 410, 'widthPercent': 0.45, 'rescaleHeight': False, 'trialN': 9, 'loaded': True, 'loadedTime': 6611.699999988079, 'positionName': 'RIGHT', 'positionCoords': [665.6, 155], 'bid': 0.1}]",27719.299999952316,1669829800029,seaweed,pear,0.0,0.1,0.1,pear,i,2357,2357,True,30591.599999964237,2872.300000011921,1669829802901,2872,2357.600000023842,HRV,HRV_0088,2022-11-30 17:42:13
10,"[{'imgObject': {}, 'id': 'raisin bran w milk', 'src': '/static/foodstim60/raisin bran w milk.jpg', 'key': 'u', 'origWidth': 411, 'origHeight': 411, 'width': 411, 'height': 411, 'widthPercent': 0.45, 'rescaleHeight': False, 'trialN': 10, 'loaded': True, 'loadedTime': 6612.5, 'positionName': 'LEFT', 'positionCoords': [203.4, 154.5], 'bid': 0.75}, {'imgObject': {}, 'id': 'hashbrowns', 'src': '/static/foodstim60/hashbrowns.jpg', 'key': 'i', 'origWidth': 411, 'origHeight': 410, 'width': 411, 'height': 410, 'widthPercent': 0.45, 'rescaleHeight': False, 'trialN': 10, 'loaded': True, 'loadedTime': 6691.099999964237, 'positionName': 'RIGHT', 'positionCoords': [665.6, 155], 'bid': 0.89}]",30592.599999964237,1669829802902,raisin bran w milk,hashbrowns,0.75,0.89,0.14,raisin bran w milk,u,1173.9000000357628,1175,True,32285.0,1692.4000000357628,1669829804594,1692,1174.5,HRV,HRV_0088,2022-11-30 17:42:13
11,"[{'imgObject': {}, 'id': 'olives', 'src': '/static/foodstim60/olives.jpg', 'key': 'u', 'origWidth': 410, 'origHeight': 410, 'width': 410, 'height': 410, 'widthPercent': 0.45, 'rescaleHeight': False, 'trialN': 11, 'loaded': True, 'loadedTime': 6694.199999988079, 'positionName': 'LEFT', 'positionCoords': [204.4, 155], 'bid': 9.65}, {'imgObject': {}, 'id': 'turkey sandwich', 'src': '/static/foodstim60/turkey sandwich.jpg', 'key': 'i', 'origWidth': 409, 'origHeight': 409, 'width': 409, 'height': 409, 'widthPercent': 0.45, 'rescaleHeight': False, 'trialN': 11, 'loaded': True, 'loadedTime': 6304.599999964237, 'positionName': 'RIGHT', 'positionCoords': [665.6, 155.5], 'bid': 9.89}]",32285.69999998808,1669829804595,olives,turkey sandwich,9.65,9.89,0.2400000000000002,turkey sandwich,i,2032.300000011921,2033,True,34832.69999998808,2547.0,1669829807142,2547,2033.199999988079,HRV,HRV_0088,2022-11-30 17:42:13
12,"[{'imgObject': {}, 'id': 'luckycharms', 'src': '/static/foodstim60/luckycharms.jpg', 'key': 'u', 'origWidth': 410, 'origHeight': 409, 'width': 410, 'height': 409, 'widthPercent': 0.45, 'rescaleHeight': False, 'trialN': 12, 'loaded': True, 'loadedTime': 6704, 'positionName': 'LEFT', 'positionCoords': [204.4, 155.5], 'bid': 0.29}, {'imgObject': {}, 'id': 'blackbeanswithrice', 'src': '/static/foodstim60/blackbeanswithrice.jpg', 'key': 'i', 'origWidth': 410, 'origHeight': 410, 'width': 410, 'height': 410, 'widthPercent': 0.45, 'rescaleHeight': False, 'trialN': 12, 'loaded': True, 'loadedTime': 6760.299999952316, 'positionName': 'RIGHT', 'positionCoords': [665.6, 155], 'bid': 4}]",34833.39999997616,1669829807143,luckycharms,blackbeanswithrice,0.29,4.0,3.71,blackbeanswithrice,i,1012.3000000119209,1013,True,36366.5,1533.1000000238419,1669829808676,1533,1012.8999999761581,HRV,HRV_0088,2022-11-30 17:42:13
13,"[{'imgObject': {}, 'id': 'cocktailshrimp', 'src': '/static/foodstim60/cocktailshrimp.jpg', 'key': 'u', 'origWidth': 410, 'origHeight': 410, 'width': 410, 'height': 410, 'widthPercent': 0.45, 'rescaleHeight': False, 'trialN': 13, 'loaded': True, 'loadedTime': 6765.399999976158, 'positionName': 'LEFT', 'positionCoords': [204.4, 155], 'bid': 9.93}, {'imgObject': {}, 'id': 'salmon', 'src': '/static/foodstim60/salmon.jpg', 'key': 'i', 'origWidth': 410, 'origHeight': 409, 'width': 410, 'height': 409, 'widthPercent': 0.45, 'rescaleHeight': False, 'trialN': 13, 'loaded': True, 'loadedTime': 6137.199999988079, 'positionName': 'RIGHT', 'positionCoords': [665.6, 155.5], 'bid': 9.9}]",36367.299999952316,1669829808677,cocktailshrimp,salmon,9.93,9.9,-0.02999999999999936,cocktailshrimp,u,2759.7000000476837,2760,True,39632.89999997616,3265.600000023842,1669829811942,3265,2760.7000000476837,HRV,HRV_0088,2022-11-30 17:42:13
14,"[{'imgObject': {}, 'id': 'raspberries', 'src': '/static/foodstim60/raspberries.jpg', 'key': 'u', 'origWidth': 411, 'origHeight': 411, 'width': 411, 'height': 411, 'widthPercent': 0.45, 'rescaleHeight': False, 'trialN': 14, 'loaded': True, 'loadedTime': 5971.199999988079, 'positionName': 'LEFT', 'positionCoords': [203.4, 154.5], 'bid': 9.85}, {'imgObject': {}, 'id': 'chickenfingers', 'src': '/static/foodstim60/chickenfingers.jpg', 'key': 'i', 'origWidth': 410, 'origHeight': 410, 'width': 410, 'height': 410, 'widthPercent': 0.45, 'rescaleHeight': False, 'trialN': 14, 'loaded': True, 'loadedTime': 6766.699999988079, 'positionName': 'RIGHT', 'positionCoords': [665.6, 155], 'bid': 9.95}]",39633.5,1669829811943,raspberries,chickenfingers,9.85,9.95,0.09999999999999964,chickenfingers,i,1875.7999999523163,1876,True,42027.299999952316,2393.7999999523163,1669829814337,2394,1876.3999999761581,HRV,HRV_0088,2022-11-30 17:42:13
15,"[{'imgObject': {}, 'id': 'granola w milk', 'src': '/static/foodstim60/granola w milk.jpg', 'key': 'u', 'origWidth': 410, 'origHeight': 410, 'width': 410, 'height': 410, 'widthPercent': 0.45, 'rescaleHeight': False, 'trialN': 15, 'loaded': True, 'loadedTime': 6831, 'positionName': 'LEFT', 'positionCoords': [204.4, 155], 'bid': 2.12}, {'imgObject': {}, 'id': 'kiwi', 'src': '/static/foodstim60/kiwi.jpg', 'key': 'i', 'origWidth': 410, 'origHeight': 410, 'width': 410, 'height': 410, 'widthPercent': 0.45, 'rescaleHeight': False, 'trialN': 15, 'loaded': True, 'loadedTime': 6843.199999988079, 'positionName': 'RIGHT', 'positionCoords': [665.6, 155], 'bid': 0.43}]",42027.69999998808,1669829814337,granola w milk,kiwi,2.12,0.43,-1.6900000000000002,granola w milk,u,1173.0999999642372,1174,True,43718.0,1690.300000011921,1669829816027,1690,1173.800000011921,HRV,HRV_0088,2022-11-30 17:42:13
16,"[{'imgObject': {}, 'id': 'burger', 'src': '/static/foodstim60/burger.jpg', 'key': 'u', 'origWidth': 409, 'origHeight': 409, 'width': 409, 'height': 409, 'widthPercent': 0.45, 'rescaleHeight': False, 'trialN': 16, 'loaded': True, 'loadedTime': 5526, 'positionName': 'LEFT', 'positionCoords': [205.4, 155.5], 'bid': 9.65}, {'imgObject': {}, 'id': 'sweetpotato', 'src': '/static/foodstim60/sweetpotato.jpg', 'key': 'i', 'origWidth': 410, 'origHeight': 410, 'width': 410, 'height': 410, 'widthPercent': 0.45, 'rescaleHeight': False, 'trialN': 16, 'loaded': True, 'loadedTime': 6850.5, 'positionName': 'RIGHT', 'positionCoords': [665.6, 155], 'bid': 9.81}]",43718.799999952316,1669829816028,burger,sweetpotato,9.65,9.81,0.16000000000000014,burger,u,2170.7000000476837,2172,True,46397.799999952316,2679.0,1669829818707,2679,2171.7000000476837,HRV,HRV_0088,2022-11-30 17:42:13
17,"[{'imgObject': {}, 'id': 'edamame', 'src': '/static/foodstim60/edamame.jpg', 'key': 'u', 'origWidth': 409, 'origHeight': 410, 'width': 409, 'height': 410, 'widthPercent': 0.45, 'rescaleHeight': False, 'trialN': 17, 'loaded': True, 'loadedTime': 6861, 'positionName': 'LEFT', 'positionCoords': [205.4, 155], 'bid': 0.17}, {'imgObject': {}, 'id': 'rigatoni', 'src': '/static/foodstim60/rigatoni.jpg', 'key': 'i', 'origWidth': 411, 'origHeight': 411, 'width': 411, 'height': 411, 'widthPercent': 0.45, 'rescaleHeight': False, 'trialN': 17, 'loaded': True, 'loadedTime': 6941.5, 'positionName': 'RIGHT', 'positionCoords': [665.6, 154.5], 'bid': 0.96}]",46398.39999997616,1669829818708,edamame,rigatoni,0.17,0.96,0.7899999999999999,rigatoni,i,1037.8999999761581,1039,True,47951.0,1552.6000000238419,1669829820260,1552,1038.800000011921,HRV,HRV_0088,2022-11-30 17:42:13
18,"[{'imgObject': {}, 'id': 'avocado', 'src': '/static/foodstim60/avocado.jpg', 'key': 'u', 'origWidth': 409, 'origHeight': 409, 'width': 409, 'height': 409, 'widthPercent': 0.45, 'rescaleHeight': False, 'trialN': 18, 'loaded': True, 'loadedTime': 6946.199999988079, 'positionName': 'LEFT', 'positionCoords': [205.4, 155.5], 'bid': 9.84}, {'imgObject': {}, 'id': 'raspberries', 'src': '/static/foodstim60/raspberries.jpg', 'key': 'i', 'origWidth': 411, 'origHeight': 411, 'width': 411, 'height': 411, 'widthPercent': 0.45, 'rescaleHeight': False, 'trialN': 18, 'loaded': True, 'loadedTime': 5971.899999976158, 'positionName': 'RIGHT', 'positionCoords': [665.6, 154.5], 'bid': 9.85}]",47951.59999996424,1669829820261,avocado,raspberries,9.84,9.85,0.009999999999999787,raspberries,i,2083,2084,True,50551.89999997616,2600.300000011921,1669829822861,2600,2083.800000011921,HRV,HRV_0088,2022-11-30 17:42:13
19,"[{'imgObject': {}, 'id': 'popsicles', 'src': '/static/foodstim60/popsicles.jpg', 'key': 'u', 'origWidth': 410, 'origHeight': 410, 'width': 410, 'height': 410, 'widthPercent': 0.45, 'rescaleHeight': False, 'trialN': 19, 'loaded': True, 'loadedTime': 7222.599999964237, 'positionName': 'LEFT', 'positionCoords': [204.4, 155], 'bid': 0.14}, {'imgObject': {}, 'id': 'seaweed', 'src': '/static/foodstim60/seaweed.jpg', 'key': 'i', 'origWidth': 410, 'origHeight': 410, 'width': 410, 'height': 410, 'widthPercent': 0.45, 'rescaleHeight': False, 'trialN': 19, 'loaded': True, 'loadedTime': 6472.799999952316, 'positionName': 'RIGHT', 'positionCoords': [665.6, 155], 'bid': 0}]",50552.39999997616,1669829822862,popsicles,seaweed,0.14,0.0,-0.14,popsicles,u,985.5,986,True,52055.299999952316,1502.8999999761581,1669829824365,1503,986.1000000238419,HRV,HRV_0088,2022-11-30 17:42:13
20,"[{'imgObject': {}, 'id': 'steak', 'src': '/static/foodstim60/steak.jpg', 'key': 'u', 'origWidth': 410, 'origHeight': 410, 'width': 410, 'height': 410, 'widthPercent': 0.45, 'rescaleHeight': False, 'trialN': 20, 'loaded': True, 'loadedTime': 6957.299999952316, 'positionName': 'LEFT', 'positionCoords': [204.4, 155], 'bid': 9.84}, {'imgObject': {}, 'id': 'orange slices', 'src': '/static/foodstim60/orange slices.jpg', 'key': 'i', 'origWidth': 409, 'origHeight': 410, 'width': 409, 'height': 410, 'widthPercent': 0.45, 'rescaleHeight': False, 'trialN': 20, 'loaded': True, 'loadedTime': 6389.599999964237, 'positionName': 'RIGHT', 'positionCoords': [665.6, 155], 'bid': 3.93}]",52055.89999997616,1669829824365,steak,orange slices,9.84,3.93,-5.91,steak,u,925.8999999761581,927,True,53490.5,1434.6000000238419,1669829825800,1435,926.8000000119209,HRV,HRV_0088,2022-11-30 17:42:13
21,"[{'imgObject': {}, 'id': 'pear', 'src': '/static/foodstim60/pear.jpg', 'key': 'u', 'origWidth': 411, 'origHeight': 410, 'width': 411, 'height': 410, 'widthPercent': 0.45, 'rescaleHeight': False, 'trialN': 21, 'loaded': True, 'loadedTime': 6611.099999964237, 'positionName': 'LEFT', 'positionCoords': [203.4, 155], 'bid': 0.1}, {'imgObject': {}, 'id': 'cherry tomato', 'src': '/static/foodstim60/cherry tomato.jpg', 'key': 'i', 'origWidth': 410, 'origHeight': 410, 'width': 410, 'height': 410, 'widthPercent': 0.45, 'rescaleHeight': False, 'trialN': 21, 'loaded': True, 'loadedTime': 6961.199999988079, 'positionName': 'RIGHT', 'positionCoords': [665.6, 155], 'bid': 0.15}]",53491.0,1669829825800,pear,cherry tomato,0.1,0.15,0.04999999999999999,pear,u,1662.3999999761581,1663,True,55668.0,2177.0,1669829827977,2177,1663.0999999642372,HRV,HRV_0088,2022-11-30 17:42:13
22,"[{'imgObject': {}, 'id': 'luckycharms', 'src': '/static/foodstim60/luckycharms.jpg', 'key': 'u', 'origWidth': 410, 'origHeight': 409, 'width': 410, 'height': 409, 'widthPercent': 0.45, 'rescaleHeight': False, 'trialN': 22, 'loaded': True, 'loadedTime': 6699.599999964237, 'positionName': 'LEFT', 'positionCoords': [204.4, 155.5], 'bid': 0.29}, {'imgObject': {}, 'id': 'cheerios', 'src': '/static/foodstim60/cheerios.jpg', 'key': 'i', 'origWidth': 409, 'origHeight': 410, 'width': 409, 'height': 410, 'widthPercent': 0.45, 'rescaleHeight': False, 'trialN': 22, 'loaded': True, 'loadedTime': 6236.299999952316, 'positionName': 'RIGHT', 'positionCoords': [665.6, 155], 'bid': 1.12}]",55668.5,1669829827978,luckycharms,cheerios,0.29,1.12,0.8300000000000001,cheerios,i,2255.099999964237,2256,True,58443.89999997616,2775.399999976158,1669829830753,2775,2255.899999976158,HRV,HRV_0088,2022-11-30 17:42:13
23,"[{'imgObject': {}, 'id': 'veggieswithdip', 'src': '/static/foodstim60/veggieswithdip.jpg', 'key': 'u', 'origWidth': 409, 'origHeight': 409, 'width': 409, 'height': 409, 'widthPercent': 0.45, 'rescaleHeight': False, 'trialN': 23, 'loaded': True, 'loadedTime': 5662.5, 'positionName': 'LEFT', 'positionCoords': [205.4, 155.5], 'bid': 9.71}, {'imgObject': {}, 'id': 'hashbrowns', 'src': '/static/foodstim60/hashbrowns.jpg', 'key': 'i', 'origWidth': 411, 'origHeight': 410, 'width': 411, 'height': 410, 'widthPercent': 0.45, 'rescaleHeight': False, 'trialN': 23, 'loaded': True, 'loadedTime': 6693.399999976158, 'positionName': 'RIGHT', 'positionCoords': [665.6, 155], 'bid': 0.89}]",58444.69999998808,1669829830754,veggieswithdip,hashbrowns,9.71,0.89,-8.82,veggieswithdip,u,1432.5999999642372,1434,True,60397.299999952316,1952.5999999642372,1669829832707,1953,1433.5,HRV,HRV_0088,2022-11-30 17:42:13
24,"[{'imgObject': {}, 'id': 'mashed potato', 'src': '/static/foodstim60/mashed potato.jpg', 'key': 'u', 'origWidth': 409, 'origHeight': 409, 'width': 409, 'height': 409, 'widthPercent': 0.45, 'rescaleHeight': False, 'trialN': 24, 'loaded': True, 'loadedTime': 7014.399999976158, 'positionName': 'LEFT', 'positionCoords': [205.4, 155.5], 'bid': 0.62}, {'imgObject': {}, 'id': 'luckycharms', 'src': '/static/foodstim60/luckycharms.jpg', 'key': 'i', 'origWidth': 410, 'origHeight': 409, 'width': 410, 'height': 409, 'widthPercent': 0.45, 'rescaleHeight': False, 'trialN': 24, 'loaded': True, 'loadedTime': 6706, 'positionName': 'RIGHT', 'positionCoords': [665.6, 155.5], 'bid': 0.29}]",60397.5,1669829832707,mashed potato,luckycharms,0.62,0.29,-0.33,mashed potato,u,1748.7999999523163,1749,True,62664.69999998808,2267.199999988079,1669829834974,2267,1749.5,HRV,HRV_0088,2022-11-30 17:42:13
25,"[{'imgObject': {}, 'id': 'fried eggs', 'src': '/static/foodstim60/fried eggs.jpg', 'key': 'u', 'origWidth': 410, 'origHeight': 410, 'width': 410, 'height': 410, 'widthPercent': 0.45, 'rescaleHeight': False, 'trialN': 25, 'loaded': True, 'loadedTime': 5679.699999988079, 'positionName': 'LEFT', 'positionCoords': [204.4, 155], 'bid': 1.5}, {'imgObject': {}, 'id': 'pear', 'src': '/static/foodstim60/pear.jpg', 'key': 'i', 'origWidth': 411, 'origHeight': 410, 'width': 411, 'height': 410, 'widthPercent': 0.45, 'rescaleHeight': False, 'trialN': 25, 'loaded': True, 'loadedTime': 6612.099999964237, 'positionName': 'RIGHT', 'positionCoords': [665.6, 155], 'bid': 0.1}]",62665.799999952316,1669829834975,fried eggs,pear,1.5,0.1,-1.4,pear,i,2142.100000023842,2143,True,65320.89999997616,2655.100000023842,1669829837630,2655,2143.100000023842,HRV,HRV_0088,2022-11-30 17:42:13
26,"[{'imgObject': {}, 'id': 'banana', 'src': '/static/foodstim60/banana.jpg', 'key': 'u', 'origWidth': 410, 'origHeight': 410, 'width': 410, 'height': 410, 'widthPercent': 0.45, 'rescaleHeight': False, 'trialN': 26, 'loaded': True, 'loadedTime': 7019.099999964237, 'positionName': 'LEFT', 'positionCoords': [204.4, 155], 'bid': 5.98}, {'imgObject': {}, 'id': 'grilled chicken strips', 'src': '/static/foodstim60/grilled chicken strips.jpg', 'key': 'i', 'origWidth': 410, 'origHeight': 411, 'width': 410, 'height': 411, 'widthPercent': 0.45, 'rescaleHeight': False, 'trialN': 26, 'loaded': True, 'loadedTime': 7025.099999964237, 'positionName': 'RIGHT', 'positionCoords': [665.6, 154.5], 'bid': 8.040000000000001}]",65321.59999996424,1669829837631,banana,grilled chicken strips,5.98,8.040000000000001,2.0600000000000005,grilled chicken strips,i,991,991,True,66816.19999998808,1494.6000000238419,1669829839126,1495,991.5,HRV,HRV_0088,2022-11-30 17:42:13
27,"[{'imgObject': {}, 'id': 'cherry tomato', 'src': '/static/foodstim60/cherry tomato.jpg', 'key': 'u', 'origWidth': 410, 'origHeight': 410, 'width': 410, 'height': 410, 'widthPercent': 0.45, 'rescaleHeight': False, 'trialN': 27, 'loaded': True, 'loadedTime': 6962.399999976158, 'positionName': 'LEFT', 'positionCoords': [204.4, 155], 'bid': 0.15}, {'imgObject': {}, 'id': 'hashbrowns', 'src': '/static/foodstim60/hashbrowns.jpg', 'key': 'i', 'origWidth': 411, 'origHeight': 410, 'width': 411, 'height': 410, 'widthPercent': 0.45, 'rescaleHeight': False, 'trialN': 27, 'loaded': True, 'loadedTime': 6620.099999964237, 'positionName': 'RIGHT', 'positionCoords': [665.6, 155], 'bid': 0.89}]",66816.5,1669829839126,cherry tomato,hashbrowns,0.15,0.89,0.74,cherry tomato,u,873.6999999880791,874,True,68199.39999997616,1382.8999999761581,1669829840509,1383,874.3999999761581,HRV,HRV_0088,2022-11-30 17:42:13
28,"[{'imgObject': {}, 'id': 'fried eggs', 'src': '/static/foodstim60/fried eggs.jpg', 'key': 'u', 'origWidth': 410, 'origHeight': 410, 'width': 410, 'height': 410, 'widthPercent': 0.45, 'rescaleHeight': False, 'trialN': 28, 'loaded': True, 'loadedTime': 5693.299999952316, 'positionName': 'LEFT', 'positionCoords': [204.4, 155], 'bid': 1.5}, {'imgObject': {}, 'id': 'shreddedwheatwithmilk', 'src': '/static/foodstim60/shreddedwheatwithmilk.jpg', 'key': 'i', 'origWidth': 410, 'origHeight': 410, 'width': 410, 'height': 410, 'widthPercent': 0.45, 'rescaleHeight': False, 'trialN': 28, 'loaded': True, 'loadedTime': 7086.299999952316, 'positionName': 'RIGHT', 'positionCoords': [665.6, 155], 'bid': 5.78}]",68200.19999998808,1669829840510,fried eggs,shreddedwheatwithmilk,1.5,5.78,4.28,shreddedwheatwithmilk,i,1293.5,1294,True,70013.0,1812.800000011921,1669829842322,1812,1294.199999988079,HRV,HRV_0088,2022-11-30 17:42:13
29,"[{'imgObject': {}, 'id': 'mashed potato', 'src': '/static/foodstim60/mashed potato.jpg', 'key': 'u', 'origWidth': 409, 'origHeight': 409, 'width': 409, 'height': 409, 'widthPercent': 0.45, 'rescaleHeight': False, 'trialN': 29, 'loaded': True, 'loadedTime': 7013.199999988079, 'positionName': 'LEFT', 'positionCoords': [205.4, 155.5], 'bid': 0.62}, {'imgObject': {}, 'id': 'eggsalad', 'src': '/static/foodstim60/eggsalad.jpg', 'key': 'i', 'origWidth': 410, 'origHeight': 409, 'width': 410, 'height': 409, 'widthPercent': 0.45, 'rescaleHeight': False, 'trialN': 29, 'loaded': True, 'loadedTime': 7087.699999988079, 'positionName': 'RIGHT', 'positionCoords': [665.6, 155.5], 'bid': 0.62}]",70013.69999998808,1669829842323,mashed potato,eggsalad,0.62,0.62,0.0,eggsalad,i,1707.5999999642372,1708,True,72230.89999997616,2217.199999988079,1669829844540,2217,1708.300000011921,HRV,HRV_0088,2022-11-30 17:42:13
30,"[{'imgObject': {}, 'id': 'bagel plain', 'src': '/static/foodstim60/bagel plain.jpg', 'key': 'u', 'origWidth': 410, 'origHeight': 410, 'width': 410, 'height': 410, 'widthPercent': 0.45, 'rescaleHeight': False, 'trialN': 30, 'loaded': True, 'loadedTime': 7096.399999976158, 'positionName': 'LEFT', 'positionCoords': [204.4, 155], 'bid': 7.5}, {'imgObject': {}, 'id': 'Tribe humus pita', 'src': '/static/foodstim60/Tribe humus pita.jpg', 'key': 'i', 'origWidth': 411, 'origHeight': 411, 'width': 411, 'height': 411, 'widthPercent': 0.45, 'rescaleHeight': False, 'trialN': 30, 'loaded': True, 'loadedTime': 7101.799999952316, 'positionName': 'RIGHT', 'positionCoords': [665.6, 154.5], 'bid': 7.56}]",72231.69999998808,1669829844541,bagel plain,Tribe humus pita,7.5,7.56,0.05999999999999961,Tribe humus pita,i,1738.8999999761581,1740,True,74481.59999996424,2249.899999976158,1669829846791,2250,1739.5999999642372,HRV,HRV_0088,2022-11-30 17:42:13
31,"[{'imgObject': {}, 'id': 'burger', 'src': '/static/foodstim60/burger.jpg', 'key': 'u', 'origWidth': 409, 'origHeight': 409, 'width': 409, 'height': 409, 'widthPercent': 0.45, 'rescaleHeight': False, 'trialN': 31, 'loaded': True, 'loadedTime': 5526.399999976158, 'positionName': 'LEFT', 'positionCoords': [205.4, 155.5], 'bid': 9.65}, {'imgObject': {}, 'id': 'mashed potato', 'src': '/static/foodstim60/mashed potato.jpg', 'key': 'i', 'origWidth': 409, 'origHeight': 409, 'width': 409, 'height': 409, 'widthPercent': 0.45, 'rescaleHeight': False, 'trialN': 31, 'loaded': True, 'loadedTime': 7013.699999988079, 'positionName': 'RIGHT', 'positionCoords': [665.6, 155.5], 'bid': 0.62}]",74482.39999997616,1669829846792,burger,mashed potato,9.65,0.62,-9.030000000000001,burger,u,1564.6000000238419,1565,True,76565.0,2082.600000023842,1669829848874,2082,1565.1000000238419,HRV,HRV_0088,2022-11-30 17:42:13
32,"[{'imgObject': {}, 'id': 'Grapes', 'src': '/static/foodstim60/Grapes.jpg', 'key': 'u', 'origWidth': 411, 'origHeight': 411, 'width': 411, 'height': 411, 'widthPercent': 0.45, 'rescaleHeight': False, 'trialN': 32, 'loaded': True, 'loadedTime': 6404, 'positionName': 'LEFT', 'positionCoords': [203.4, 154.5], 'bid': 3.62}, {'imgObject': {}, 'id': 'raisin bran w milk', 'src': '/static/foodstim60/raisin bran w milk.jpg', 'key': 'i', 'origWidth': 411, 'origHeight': 411, 'width': 411, 'height': 411, 'widthPercent': 0.45, 'rescaleHeight': False, 'trialN': 32, 'loaded': True, 'loadedTime': 6619, 'positionName': 'RIGHT', 'positionCoords': [665.6, 154.5], 'bid': 0.75}]",76565.79999995232,1669829848875,Grapes,raisin bran w milk,3.62,0.75,-2.87,raisin bran w milk,i,1879.300000011921,1880,True,78964.5,2398.7000000476837,1669829851273,2398,1879.9000000357628,HRV,HRV_0088,2022-11-30 17:42:13
33,"[{'imgObject': {}, 'id': 'hashbrowns', 'src': '/static/foodstim60/hashbrowns.jpg', 'key': 'u', 'origWidth': 411, 'origHeight': 410, 'width': 411, 'height': 410, 'widthPercent': 0.45, 'rescaleHeight': False, 'trialN': 33, 'loaded': True, 'loadedTime': 6692.399999976158, 'positionName': 'LEFT', 'positionCoords': [203.4, 155], 'bid': 0.89}, {'imgObject': {}, 'id': 'bagel plain', 'src': '/static/foodstim60/bagel plain.jpg', 'key': 'i', 'origWidth': 410, 'origHeight': 410, 'width': 410, 'height': 410, 'widthPercent': 0.45, 'rescaleHeight': False, 'trialN': 33, 'loaded': True, 'loadedTime': 7097.199999988079, 'positionName': 'RIGHT', 'positionCoords': [665.6, 155], 'bid': 7.5}]",78965.0,1669829851274,hashbrowns,bagel plain,0.89,7.5,6.61,bagel plain,i,1034,1034,True,80517.19999998808,1552.199999988079,1669829852826,1552,1034.5999999642372,HRV,HRV_0088,2022-11-30 17:42:13
34,"[{'imgObject': {}, 'id': 'ice cream sundae 002', 'src': '/static/foodstim60/ice cream sundae 002.jpg', 'key': 'u', 'origWidth': 409, 'origHeight': 409, 'width': 409, 'height': 409, 'widthPercent': 0.45, 'rescaleHeight': False, 'trialN': 34, 'loaded': True, 'loadedTime': 7107.399999976158, 'positionName': 'LEFT', 'positionCoords': [205.4, 155.5], 'bid': 9.07}, {'imgObject': {}, 'id': 'yogurt no spoon', 'src': '/static/foodstim60/yogurt no spoon.jpg', 'key': 'i', 'origWidth': 411, 'origHeight': 410, 'width': 411, 'height': 410, 'widthPercent': 0.45, 'rescaleHeight': False, 'trialN': 34, 'loaded': True, 'loadedTime': 7128.599999964237, 'positionName': 'RIGHT', 'positionCoords': [665.6, 155], 'bid': 0.56}]",80517.69999998808,1669829852826,ice cream sundae 002,yogurt no spoon,9.07,0.56,-8.51,ice cream sundae 002,u,1085.3999999761581,1086,True,82123.29999995232,1605.5999999642372,1669829854432,1606,1085.8999999761581,HRV,HRV_0088,2022-11-30 17:42:13
35,"[{'imgObject': {}, 'id': 'seaweed', 'src': '/static/foodstim60/seaweed.jpg', 'key': 'u', 'origWidth': 410, 'origHeight': 410, 'width': 410, 'height': 410, 'widthPercent': 0.45, 'rescaleHeight': False, 'trialN': 35, 'loaded': True, 'loadedTime': 6533.199999988079, 'positionName': 'LEFT', 'positionCoords': [204.4, 155], 'bid': 0}, {'imgObject': {}, 'id': 'froot loops w milk', 'src': '/static/foodstim60/froot loops w milk.jpg', 'key': 'i', 'origWidth': 410, 'origHeight': 410, 'width': 410, 'height': 410, 'widthPercent': 0.45, 'rescaleHeight': False, 'trialN': 35, 'loaded': True, 'loadedTime': 5810.899999976158, 'positionName': 'RIGHT', 'positionCoords': [665.6, 155], 'bid': 0.42}]",82124.09999996424,1669829854433,seaweed,froot loops w milk,0.0,0.42,0.42,froot loops w milk,i,1064.6000000238419,1065,True,83702.29999995232,1578.199999988079,1669829856011,1578,1065.4000000357628,HRV,HRV_0088,2022-11-30 17:42:13
36,"[{'imgObject': {}, 'id': 'steak', 'src': '/static/foodstim60/steak.jpg', 'key': 'u', 'origWidth': 410, 'origHeight': 410, 'width': 410, 'height': 410, 'widthPercent': 0.45, 'rescaleHeight': False, 'trialN': 36, 'loaded': True, 'loadedTime': 6956.099999964237, 'positionName': 'LEFT', 'positionCoords': [204.4, 155], 'bid': 9.84}, {'imgObject': {}, 'id': 'sushi w_condiments', 'src': '/static/foodstim60/sushi w_condiments.jpg', 'key': 'i', 'origWidth': 410, 'origHeight': 410, 'width': 410, 'height': 410, 'widthPercent': 0.45, 'rescaleHeight': False, 'trialN': 36, 'loaded': True, 'loadedTime': 7135.199999988079, 'positionName': 'RIGHT', 'positionCoords': [665.6, 155], 'bid': 9.87}]",83702.79999995232,1669829856011,steak,sushi w_condiments,9.84,9.87,0.02999999999999936,steak,u,960,962,True,85176.59999996424,1473.800000011921,1669829857485,1474,961.4000000357628,HRV,HRV_0088,2022-11-30 17:42:13
37,"[{'imgObject': {}, 'id': 'popsicles', 'src': '/static/foodstim60/popsicles.jpg', 'key': 'u', 'origWidth': 410, 'origHeight': 410, 'width': 410, 'height': 410, 'widthPercent': 0.45, 'rescaleHeight': False, 'trialN': 37, 'loaded': True, 'loadedTime': 7218.699999988079, 'positionName': 'LEFT', 'positionCoords': [204.4, 155], 'bid': 0.14}, {'imgObject': {}, 'id': 'apple slices', 'src': '/static/foodstim60/apple slices.jpg', 'key': 'i', 'origWidth': 409, 'origHeight': 410, 'width': 409, 'height': 410, 'widthPercent': 0.45, 'rescaleHeight': False, 'trialN': 37, 'loaded': True, 'loadedTime': 7142.599999964237, 'positionName': 'RIGHT', 'positionCoords': [665.6, 155], 'bid': 0.46}]",85177.29999995232,1669829857486,popsicles,apple slices,0.14,0.46,0.32,apple slices,i,1814,1815,True,87498.69999998808,2321.400000035763,1669829859807,2321,1814.7000000476837,HRV,HRV_0088,2022-11-30 17:42:13
38,"[{'imgObject': {}, 'id': 'fried eggs', 'src': '/static/foodstim60/fried eggs.jpg', 'key': 'u', 'origWidth': 410, 'origHeight': 410, 'width': 410, 'height': 410, 'widthPercent': 0.45, 'rescaleHeight': False, 'trialN': 38, 'loaded': True, 'loadedTime': 5691.699999988079, 'positionName': 'LEFT', 'positionCoords': [204.4, 155], 'bid': 1.5}, {'imgObject': {}, 'id': 'tacos', 'src': '/static/foodstim60/tacos.jpg', 'key': 'i', 'origWidth': 411, 'origHeight': 411, 'width': 411, 'height': 411, 'widthPercent': 0.45, 'rescaleHeight': False, 'trialN': 38, 'loaded': True, 'loadedTime': 7151.599999964237, 'positionName': 'RIGHT', 'positionCoords': [665.6, 154.5], 'bid': 9.81}]",87499.39999997616,1669829859808,fried eggs,tacos,1.5,9.81,8.31,tacos,i,956.1999999880791,957,True,88964.69999998808,1465.300000011921,1669829861273,1465,957.0,HRV,HRV_0088,2022-11-30 17:42:13
39,"[{'imgObject': {}, 'id': 'apple slices', 'src': '/static/foodstim60/apple slices.jpg', 'key': 'u', 'origWidth': 409, 'origHeight': 410, 'width': 409, 'height': 410, 'widthPercent': 0.45, 'rescaleHeight': False, 'trialN': 39, 'loaded': True, 'loadedTime': 7140.699999988079, 'positionName': 'LEFT', 'positionCoords': [205.4, 155], 'bid': 0.46}, {'imgObject': {}, 'id': 'eggsalad', 'src': '/static/foodstim60/eggsalad.jpg', 'key': 'i', 'origWidth': 410, 'origHeight': 409, 'width': 410, 'height': 409, 'widthPercent': 0.45, 'rescaleHeight': False, 'trialN': 39, 'loaded': True, 'loadedTime': 7091.799999952316, 'positionName': 'RIGHT', 'positionCoords': [665.6, 155.5], 'bid': 0.62}]",88965.5,1669829861274,apple slices,eggsalad,0.46,0.62,0.15999999999999998,eggsalad,i,2503,2504,True,91972.5,3007.0,1669829864281,3007,2503.599999964237,HRV,HRV_0088,2022-11-30 17:42:13
40,"[{'imgObject': {}, 'id': 'apple slices', 'src': '/static/foodstim60/apple slices.jpg', 'key': 'u', 'origWidth': 409, 'origHeight': 410, 'width': 409, 'height': 410, 'widthPercent': 0.45, 'rescaleHeight': False, 'trialN': 40, 'loaded': True, 'loadedTime': 7136.299999952316, 'positionName': 'LEFT', 'positionCoords': [205.4, 155], 'bid': 0.46}, {'imgObject': {}, 'id': 'yogurt no spoon', 'src': '/static/foodstim60/yogurt no spoon.jpg', 'key': 'i', 'origWidth': 411, 'origHeight': 410, 'width': 411, 'height': 410, 'widthPercent': 0.45, 'rescaleHeight': False, 'trialN': 40, 'loaded': True, 'loadedTime': 7124.799999952316, 'positionName': 'RIGHT', 'positionCoords': [665.6, 155], 'bid': 0.56}]",91973.0,1669829864282,apple slices,yogurt no spoon,0.46,0.56,0.10000000000000003,apple slices,u,1451.199999988079,1452,True,93950.19999998808,1977.199999988079,1669829866259,1977,1452.199999988079,HRV,HRV_0088,2022-11-30 17:42:13
41,"[{'imgObject': {}, 'id': 'sushi w_condiments', 'src': '/static/foodstim60/sushi w_condiments.jpg', 'key': 'u', 'origWidth': 410, 'origHeight': 410, 'width': 410, 'height': 410, 'widthPercent': 0.45, 'rescaleHeight': False, 'trialN': 41, 'loaded': True, 'loadedTime': 7133.599999964237, 'positionName': 'LEFT', 'positionCoords': [204.4, 155], 'bid': 9.87}, {'imgObject': {}, 'id': 'burger', 'src': '/static/foodstim60/burger.jpg', 'key': 'i', 'origWidth': 409, 'origHeight': 409, 'width': 409, 'height': 409, 'widthPercent': 0.45, 'rescaleHeight': False, 'trialN': 41, 'loaded': True, 'loadedTime': 5524.899999976158, 'positionName': 'RIGHT', 'positionCoords': [665.6, 155.5], 'bid': 9.65}]",93952.39999997616,1669829866261,sushi w_condiments,burger,9.87,9.65,-0.21999999999999886,sushi w_condiments,u,971.3000000119209,972,True,95438.89999997616,1486.5,1669829867747,1486,971.8000000119209,HRV,HRV_0088,2022-11-30 17:42:13
42,"[{'imgObject': {}, 'id': 'salad w chicken', 'src': '/static/foodstim60/salad w chicken.jpg', 'key': 'u', 'origWidth': 411, 'origHeight': 411, 'width': 411, 'height': 411, 'widthPercent': 0.45, 'rescaleHeight': False, 'trialN': 42, 'loaded': True, 'loadedTime': 6139.799999952316, 'positionName': 'LEFT', 'positionCoords': [203.4, 154.5], 'bid': 5.59}, {'imgObject': {}, 'id': 'froot loops w milk', 'src': '/static/foodstim60/froot loops w milk.jpg', 'key': 'i', 'origWidth': 410, 'origHeight': 410, 'width': 410, 'height': 410, 'widthPercent': 0.45, 'rescaleHeight': False, 'trialN': 42, 'loaded': True, 'loadedTime': 5817.699999988079, 'positionName': 'RIGHT', 'positionCoords': [665.6, 155], 'bid': 0.42}]",95439.29999995232,1669829867748,salad w chicken,froot loops w milk,5.59,0.42,-5.17,salad w chicken,u,950.6000000238419,951,True,96904.09999996424,1464.800000011921,1669829869213,1465,951.3000000119209,HRV,HRV_0088,2022-11-30 17:42:13
43,"[{'imgObject': {}, 'id': 'rigatoni and sauce', 'src': '/static/foodstim60/rigatoni and sauce.jpg', 'key': 'u', 'origWidth': 410, 'origHeight': 411, 'width': 410, 'height': 411, 'widthPercent': 0.45, 'rescaleHeight': False, 'trialN': 43, 'loaded': True, 'loadedTime': 7157, 'positionName': 'LEFT', 'positionCoords': [204.4, 154.5], 'bid': 7.84}, {'imgObject': {}, 'id': 'shreddedwheatwithmilk', 'src': '/static/foodstim60/shreddedwheatwithmilk.jpg', 'key': 'i', 'origWidth': 410, 'origHeight': 410, 'width': 410, 'height': 410, 'widthPercent': 0.45, 'rescaleHeight': False, 'trialN': 43, 'loaded': True, 'loadedTime': 7032.099999964237, 'positionName': 'RIGHT', 'positionCoords': [665.6, 155], 'bid': 5.78}]",96904.69999998808,1669829869213,rigatoni and sauce,shreddedwheatwithmilk,7.84,5.78,-2.0599999999999996,rigatoni and sauce,u,2476.099999964237,2477,True,99892.69999998808,2988.0,1669829872201,2988,2476.800000011921,HRV,HRV_0088,2022-11-30 17:42:13
44,"[{'imgObject': {}, 'id': 'granola w milk', 'src': '/static/foodstim60/granola w milk.jpg', 'key': 'u', 'origWidth': 410, 'origHeight': 410, 'width': 410, 'height': 410, 'widthPercent': 0.45, 'rescaleHeight': False, 'trialN': 44, 'loaded': True, 'loadedTime': 6831.899999976158, 'positionName': 'LEFT', 'positionCoords': [204.4, 155], 'bid': 2.12}, {'imgObject': {}, 'id': 'popsicles', 'src': '/static/foodstim60/popsicles.jpg', 'key': 'i', 'origWidth': 410, 'origHeight': 410, 'width': 410, 'height': 410, 'widthPercent': 0.45, 'rescaleHeight': False, 'trialN': 44, 'loaded': True, 'loadedTime': 7222.299999952316, 'positionName': 'RIGHT', 'positionCoords': [665.6, 155], 'bid': 0.14}]",99893.39999997616,1669829872202,granola w milk,popsicles,2.12,0.14,-1.98,granola w milk,u,1790.8999999761581,1792,True,102195.69999998808,2302.300000011921,1669829874504,2302,1791.699999988079,HRV,HRV_0088,2022-11-30 17:42:13
45,"[{'imgObject': {}, 'id': 'eggsalad', 'src': '/static/foodstim60/eggsalad.jpg', 'key': 'u', 'origWidth': 410, 'origHeight': 409, 'width': 410, 'height': 409, 'widthPercent': 0.45, 'rescaleHeight': False, 'trialN': 45, 'loaded': True, 'loadedTime': 7091.199999988079, 'positionName': 'LEFT', 'positionCoords': [204.4, 155.5], 'bid': 0.62}, {'imgObject': {}, 'id': 'corn cob', 'src': '/static/foodstim60/corn cob.jpg', 'key': 'i', 'origWidth': 411, 'origHeight': 411, 'width': 411, 'height': 411, 'widthPercent': 0.45, 'rescaleHeight': False, 'trialN': 45, 'loaded': True, 'loadedTime': 5962.399999976158, 'positionName': 'RIGHT', 'positionCoords': [665.6, 154.5], 'bid': 9.53}]",102196.09999996424,1669829874505,eggsalad,corn cob,0.62,9.53,8.91,corn cob,i,998.8000000119209,999,True,103706.0,1509.9000000357628,1669829876015,1510,999.5,HRV,HRV_0088,2022-11-30 17:42:13
46,"[{'imgObject': {}, 'id': 'banana', 'src': '/static/foodstim60/banana.jpg', 'key': 'u', 'origWidth': 410, 'origHeight': 410, 'width': 410, 'height': 410, 'widthPercent': 0.45, 'rescaleHeight': False, 'trialN': 46, 'loaded': True, 'loadedTime': 7017.699999988079, 'positionName': 'LEFT', 'positionCoords': [204.4, 155], 'bid': 5.98}, {'imgObject': {}, 'id': 'apple slices', 'src': '/static/foodstim60/apple slices.jpg', 'key': 'i', 'origWidth': 409, 'origHeight': 410, 'width': 409, 'height': 410, 'widthPercent': 0.45, 'rescaleHeight': False, 'trialN': 46, 'loaded': True, 'loadedTime': 7141.699999988079, 'positionName': 'RIGHT', 'positionCoords': [665.6, 155], 'bid': 0.46}]",103706.39999997616,1669829876015,banana,apple slices,5.98,0.46,-5.5200000000000005,banana,u,1135.8999999761581,1137,True,105355.89999997616,1649.5,1669829877664,1649,1136.699999988079,HRV,HRV_0088,2022-11-30 17:42:13
47,"[{'imgObject': {}, 'id': 'strawberries', 'src': '/static/foodstim60/strawberries.jpg', 'key': 'u', 'origWidth': 410, 'origHeight': 410, 'width': 410, 'height': 410, 'widthPercent': 0.45, 'rescaleHeight': False, 'trialN': 47, 'loaded': True, 'loadedTime': 7216, 'positionName': 'LEFT', 'positionCoords': [204.4, 155], 'bid': 9.73}, {'imgObject': {}, 'id': 'tacos', 'src': '/static/foodstim60/tacos.jpg', 'key': 'i', 'origWidth': 411, 'origHeight': 411, 'width': 411, 'height': 411, 'widthPercent': 0.45, 'rescaleHeight': False, 'trialN': 47, 'loaded': True, 'loadedTime': 7148.599999964237, 'positionName': 'RIGHT', 'positionCoords': [665.6, 154.5], 'bid': 9.81}]",105356.69999998808,1669829877665,strawberries,tacos,9.73,9.81,0.08000000000000007,tacos,i,775.8000000119209,777,True,106646.59999996424,1289.8999999761581,1669829878955,1290,776.5,HRV,HRV_0088,2022-11-30 17:42:13
48,"[{'imgObject': {}, 'id': 'turkeysandwich', 'src': '/static/foodstim60/turkeysandwich.jpg', 'key': 'u', 'origWidth': 409, 'origHeight': 409, 'width': 409, 'height': 409, 'widthPercent': 0.45, 'rescaleHeight': False, 'trialN': 48, 'loaded': True, 'loadedTime': 5612.699999988079, 'positionName': 'LEFT', 'positionCoords': [205.4, 155.5], 'bid': 9.93}, {'imgObject': {}, 'id': 'avocado', 'src': '/static/foodstim60/avocado.jpg', 'key': 'i', 'origWidth': 409, 'origHeight': 409, 'width': 409, 'height': 409, 'widthPercent': 0.45, 'rescaleHeight': False, 'trialN': 48, 'loaded': True, 'loadedTime': 6947.599999964237, 'positionName': 'RIGHT', 'positionCoords': [665.6, 155.5], 'bid': 9.84}]",106647.19999998808,1669829878956,turkeysandwich,avocado,9.93,9.84,-0.08999999999999986,turkeysandwich,u,1078.3999999761581,1079,True,108233.19999998808,1586.0,1669829880542,1586,1079.199999988079,HRV,HRV_0088,2022-11-30 17:42:13
49,"[{'imgObject': {}, 'id': 'chickenfingers', 'src': '/static/foodstim60/chickenfingers.jpg', 'key': 'u', 'origWidth': 410, 'origHeight': 410, 'width': 410, 'height': 410, 'widthPercent': 0.45, 'rescaleHeight': False, 'trialN': 49, 'loaded': True, 'loadedTime': 6771.099999964237, 'positionName': 'LEFT', 'positionCoords': [204.4, 155], 'bid': 9.95}, {'imgObject': {}, 'id': 'lox', 'src': '/static/foodstim60/lox.jpg', 'key': 'i', 'origWidth': 410, 'origHeight': 411, 'width': 410, 'height': 411, 'widthPercent': 0.45, 'rescaleHeight': False, 'trialN': 49, 'loaded': True, 'loadedTime': 5829.899999976158, 'positionName': 'RIGHT', 'positionCoords': [665.6, 154.5], 'bid': 9.98}]",108233.89999997616,1669829880542,chickenfingers,lox,9.95,9.98,0.030000000000001137,NaN,NaN,NaN,NaN,False,112268.5,4034.600000023842,1669829884577,4035,,HRV,HRV_0088,2022-11-30 17:42:13
50,"[{'imgObject': {}, 'id': 'granola w milk', 'src': '/static/foodstim60/granola w milk.jpg', 'key': 'u', 'origWidth': 410, 'origHeight': 410, 'width': 410, 'height': 410, 'widthPercent': 0.45, 'rescaleHeight': False, 'trialN': 50, 'loaded': True, 'loadedTime': 6775.799999952316, 'positionName': 'LEFT', 'positionCoords': [204.4, 155], 'bid': 2.12}, {'imgObject': {}, 'id': 'sweetpotato', 'src': '/static/foodstim60/sweetpotato.jpg', 'key': 'i', 'origWidth': 410, 'origHeight': 410, 'width': 410, 'height': 410, 'widthPercent': 0.45, 'rescaleHeight': False, 'trialN': 50, 'loaded': True, 'loadedTime': 6848.5, 'positionName': 'RIGHT', 'positionCoords': [665.6, 155], 'bid': 9.81}]",112268.89999997616,1669829884577,granola w milk,sweetpotato,2.12,9.81,7.69,granola w milk,u,1934.6000000238419,1936,True,114711.59999996424,2442.699999988079,1669829887020,2443,1935.3999999761581,HRV,HRV_0088,2022-11-30 17:42:13
51,"[{'imgObject': {}, 'id': 'fried eggs', 'src': '/static/foodstim60/fried eggs.jpg', 'key': 'u', 'origWidth': 410, 'origHeight': 410, 'width': 410, 'height': 410, 'widthPercent': 0.45, 'rescaleHeight': False, 'trialN': 51, 'loaded': True, 'loadedTime': 5688.399999976158, 'positionName': 'LEFT', 'positionCoords': [204.4, 155], 'bid': 1.5}, {'imgObject': {}, 'id': 'Grapes', 'src': '/static/foodstim60/Grapes.jpg', 'key': 'i', 'origWidth': 411, 'origHeight': 411, 'width': 411, 'height': 411, 'widthPercent': 0.45, 'rescaleHeight': False, 'trialN': 51, 'loaded': True, 'loadedTime': 6408.299999952316, 'positionName': 'RIGHT', 'positionCoords': [665.6, 154.5], 'bid': 3.62}]",114712.19999998808,1669829887021,fried eggs,Grapes,1.5,3.62,2.12,Grapes,i,1632.0999999642372,1632,True,116852.19999998808,2140.0,1669829889161,2140,1632.5999999642372,HRV,HRV_0088,2022-11-30 17:42:13
52,"[{'imgObject': {}, 'id': 'cherry tomato', 'src': '/static/foodstim60/cherry tomato.jpg', 'key': 'u', 'origWidth': 410, 'origHeight': 410, 'width': 410, 'height': 410, 'widthPercent': 0.45, 'rescaleHeight': False, 'trialN': 52, 'loaded': True, 'loadedTime': 6963.699999988079, 'positionName': 'LEFT', 'positionCoords': [204.4, 155], 'bid': 0.15}, {'imgObject': {}, 'id': 'popsicles', 'src': '/static/foodstim60/popsicles.jpg', 'key': 'i', 'origWidth': 410, 'origHeight': 410, 'width': 410, 'height': 410, 'widthPercent': 0.45, 'rescaleHeight': False, 'trialN': 52, 'loaded': True, 'loadedTime': 7223.5, 'positionName': 'RIGHT', 'positionCoords': [665.6, 155], 'bid': 0.14}]",116853.09999996424,1669829889162,cherry tomato,popsicles,0.15,0.14,-0.009999999999999981,cherry tomato,u,1004.3000000119209,1005,True,118367.09999996424,1514.0,1669829890676,1514,1005.1999999880791,HRV,HRV_0088,2022-11-30 17:42:13
53,"[{'imgObject': {}, 'id': 'banana', 'src': '/static/foodstim60/banana.jpg', 'key': 'u', 'origWidth': 410, 'origHeight': 410, 'width': 410, 'height': 410, 'widthPercent': 0.45, 'rescaleHeight': False, 'trialN': 53, 'loaded': True, 'loadedTime': 7018.399999976158, 'positionName': 'LEFT', 'positionCoords': [204.4, 155], 'bid': 5.98}, {'imgObject': {}, 'id': 'salmon', 'src': '/static/foodstim60/salmon.jpg', 'key': 'i', 'origWidth': 410, 'origHeight': 409, 'width': 410, 'height': 409, 'widthPercent': 0.45, 'rescaleHeight': False, 'trialN': 53, 'loaded': True, 'loadedTime': 6132.099999964237, 'positionName': 'RIGHT', 'positionCoords': [665.6, 155.5], 'bid': 9.9}]",118367.59999996424,1669829890676,banana,salmon,5.98,9.9,3.92,salmon,i,769.5,770,True,119641.19999998808,1273.6000000238419,1669829891950,1274,770.1000000238419,HRV,HRV_0088,2022-11-30 17:42:13
54,"[{'imgObject': {}, 'id': 'lox', 'src': '/static/foodstim60/lox.jpg', 'key': 'u', 'origWidth': 410, 'origHeight': 411, 'width': 410, 'height': 411, 'widthPercent': 0.45, 'rescaleHeight': False, 'trialN': 54, 'loaded': True, 'loadedTime': 5830.799999952316, 'positionName': 'LEFT', 'positionCoords': [204.4, 154.5], 'bid': 9.98}, {'imgObject': {}, 'id': 'olives', 'src': '/static/foodstim60/olives.jpg', 'key': 'i', 'origWidth': 410, 'origHeight': 410, 'width': 410, 'height': 410, 'widthPercent': 0.45, 'rescaleHeight': False, 'trialN': 54, 'loaded': True, 'loadedTime': 6698, 'positionName': 'RIGHT', 'positionCoords': [665.6, 155], 'bid': 9.65}]",119641.79999995232,1669829891950,lox,olives,9.98,9.65,-0.33000000000000007,lox,u,971.4000000357628,973,True,121125.79999995232,1484.0,1669829893434,1484,972.3000000119209,HRV,HRV_0088,2022-11-30 17:42:13
55,"[{'imgObject': {}, 'id': 'edamame', 'src': '/static/foodstim60/edamame.jpg', 'key': 'u', 'origWidth': 409, 'origHeight': 410, 'width': 409, 'height': 410, 'widthPercent': 0.45, 'rescaleHeight': False, 'trialN': 55, 'loaded': True, 'loadedTime': 6852.599999964237, 'positionName': 'LEFT', 'positionCoords': [205.4, 155], 'bid': 0.17}, {'imgObject': {}, 'id': 'froot loops w milk', 'src': '/static/foodstim60/froot loops w milk.jpg', 'key': 'i', 'origWidth': 410, 'origHeight': 410, 'width': 410, 'height': 410, 'widthPercent': 0.45, 'rescaleHeight': False, 'trialN': 55, 'loaded': True, 'loadedTime': 5819.199999988079, 'positionName': 'RIGHT', 'positionCoords': [665.6, 155], 'bid': 0.42}]",121126.09999996424,1669829893435,edamame,froot loops w milk,0.17,0.42,0.24999999999999997,froot loops w milk,i,1181.9000000357628,1182,True,122816.79999995232,1690.699999988079,1669829895125,1690,1182.6000000238419,HRV,HRV_0088,2022-11-30 17:42:13
56,"[{'imgObject': {}, 'id': 'hotdog w must', 'src': '/static/foodstim60/hotdog w must.jpg', 'key': 'u', 'origWidth': 409, 'origHeight': 409, 'width': 409, 'height': 409, 'widthPercent': 0.45, 'rescaleHeight': False, 'trialN': 56, 'loaded': True, 'loadedTime': 5738.5, 'positionName': 'LEFT', 'positionCoords': [205.4, 155.5], 'bid': 8.31}, {'imgObject': {}, 'id': 'chicken nuggets2', 'src': '/static/foodstim60/chicken nuggets2.jpg', 'key': 'i', 'origWidth': 410, 'origHeight': 409, 'width': 410, 'height': 409, 'widthPercent': 0.45, 'rescaleHeight': False, 'trialN': 56, 'loaded': True, 'loadedTime': 5736.599999964237, 'positionName': 'RIGHT', 'positionCoords': [665.6, 155.5], 'bid': 6.8500000000000005}]",122817.39999997616,1669829895126,hotdog w must,chicken nuggets2,8.31,6.8500000000000005,-1.46,hotdog w must,u,1408.699999988079,1409,True,124736.5,1919.1000000238419,1669829897045,1919,1409.3999999761581,HRV,HRV_0088,2022-11-30 17:42:13
57,"[{'imgObject': {}, 'id': 'omelette', 'src': '/static/foodstim60/omelette.jpg', 'key': 'u', 'origWidth': 410, 'origHeight': 409, 'width': 410, 'height': 409, 'widthPercent': 0.45, 'rescaleHeight': False, 'trialN': 57, 'loaded': True, 'loadedTime': 5875.399999976158, 'positionName': 'LEFT', 'positionCoords': [204.4, 155.5], 'bid': 8.09}, {'imgObject': {}, 'id': 'roastedpotatoes', 'src': '/static/foodstim60/roastedpotatoes.jpg', 'key': 'i', 'origWidth': 409, 'origHeight': 410, 'width': 409, 'height': 410, 'widthPercent': 0.45, 'rescaleHeight': False, 'trialN': 57, 'loaded': True, 'loadedTime': 6470.5, 'positionName': 'RIGHT', 'positionCoords': [665.6, 155], 'bid': 6.21}]",124737.09999996424,1669829897046,omelette,roastedpotatoes,8.09,6.21,-1.88,omelette,u,1597.199999988079,1597,True,126878.0,2140.900000035763,1669829899187,2141,1597.699999988079,HRV,HRV_0088,2022-11-30 17:42:13
58,"[{'imgObject': {}, 'id': 'shreddedwheatwithmilk', 'src': '/static/foodstim60/shreddedwheatwithmilk.jpg', 'key': 'u', 'origWidth': 410, 'origHeight': 410, 'width': 410, 'height': 410, 'widthPercent': 0.45, 'rescaleHeight': False, 'trialN': 58, 'loaded': True, 'loadedTime': 7087.399999976158, 'positionName': 'LEFT', 'positionCoords': [204.4, 155], 'bid': 5.78}, {'imgObject': {}, 'id': 'banana', 'src': '/static/foodstim60/banana.jpg', 'key': 'i', 'origWidth': 410, 'origHeight': 410, 'width': 410, 'height': 410, 'widthPercent': 0.45, 'rescaleHeight': False, 'trialN': 58, 'loaded': True, 'loadedTime': 7018.599999964237, 'positionName': 'RIGHT', 'positionCoords': [665.6, 155], 'bid': 5.98}]",126879.19999998808,1669829899188,shreddedwheatwithmilk,banana,5.78,5.98,0.20000000000000018,shreddedwheatwithmilk,u,1210.5,1211,True,128610.39999997616,1731.199999988079,1669829900919,1731,1211.0,HRV,HRV_0088,2022-11-30 17:42:13
59,"[{'imgObject': {}, 'id': 'orange slices', 'src': '/static/foodstim60/orange slices.jpg', 'key': 'u', 'origWidth': 409, 'origHeight': 410, 'width': 409, 'height': 410, 'widthPercent': 0.45, 'rescaleHeight': False, 'trialN': 59, 'loaded': True, 'loadedTime': 6394.199999988079, 'positionName': 'LEFT', 'positionCoords': [205.4, 155], 'bid': 3.93}, {'imgObject': {}, 'id': 'edamame', 'src': '/static/foodstim60/edamame.jpg', 'key': 'i', 'origWidth': 409, 'origHeight': 410, 'width': 409, 'height': 410, 'widthPercent': 0.45, 'rescaleHeight': False, 'trialN': 59, 'loaded': True, 'loadedTime': 6859.899999976158, 'positionName': 'RIGHT', 'positionCoords': [665.6, 155], 'bid': 0.17}]",128611.0,1669829900920,orange slices,edamame,3.93,0.17,-3.7600000000000002,edamame,i,1746.0999999642372,1747,True,130863.29999995232,2252.2999999523163,1669829903172,2252,1746.8999999761581,HRV,HRV_0088,2022-11-30 17:42:13
60,"[{'imgObject': {}, 'id': 'seaweed', 'src': '/static/foodstim60/seaweed.jpg', 'key': 'u', 'origWidth': 410, 'origHeight': 410, 'width': 410, 'height': 410, 'widthPercent': 0.45, 'rescaleHeight': False, 'trialN': 60, 'loaded': True, 'loadedTime': 6531.299999952316, 'positionName': 'LEFT', 'positionCoords': [204.4, 155], 'bid': 0}, {'imgObject': {}, 'id': 'eggsalad', 'src': '/static/foodstim60/eggsalad.jpg', 'key': 'i', 'origWidth': 410, 'origHeight': 409, 'width': 410, 'height': 409, 'widthPercent': 0.45, 'rescaleHeight': False, 'trialN': 60, 'loaded': True, 'loadedTime': 7092.299999952316, 'positionName': 'RIGHT', 'positionCoords': [665.6, 155.5], 'bid': 0.62}]",130864.19999998808,1669829903173,seaweed,eggsalad,0.0,0.62,0.62,eggsalad,i,991.6999999880791,992,True,132364.39999997616,1500.199999988079,1669829904673,1500,992.3999999761581,HRV,HRV_0088,2022-11-30 17:42:13
61,"[{'imgObject': {}, 'id': 'pear', 'src': '/static/foodstim60/pear.jpg', 'key': 'u', 'origWidth': 411, 'origHeight': 410, 'width': 411, 'height': 410, 'widthPercent': 0.45, 'rescaleHeight': False, 'trialN': 61, 'loaded': True, 'loadedTime': 6608.699999988079, 'positionName': 'LEFT', 'positionCoords': [203.4, 155], 'bid': 0.1}, {'imgObject': {}, 'id': 'mashed potato', 'src': '/static/foodstim60/mashed potato.jpg', 'key': 'i', 'origWidth': 409, 'origHeight': 409, 'width': 409, 'height': 409, 'widthPercent': 0.45, 'rescaleHeight': False, 'trialN': 61, 'loaded': True, 'loadedTime': 7014.099999964237, 'positionName': 'RIGHT', 'positionCoords': [665.6, 155.5], 'bid': 0.62}]",132365.09999996424,1669829904674,pear,mashed potato,0.1,0.62,0.52,mashed potato,i,1408.800000011921,1409,True,134297.0,1931.9000000357628,1669829906606,1932,1409.300000011921,HRV,HRV_0088,2022-11-30 17:42:13
62,"[{'imgObject': {}, 'id': 'cantaloupe', 'src': '/static/foodstim60/cantaloupe.jpg', 'key': 'u', 'origWidth': 409, 'origHeight': 409, 'width': 409, 'height': 409, 'widthPercent': 0.45, 'rescaleHeight': False, 'trialN': 62, 'loaded': True, 'loadedTime': 5955, 'positionName': 'LEFT', 'positionCoords': [205.4, 155.5], 'bid': 7.59}, {'imgObject': {}, 'id': 'eggs', 'src': '/static/foodstim60/eggs.jpg', 'key': 'i', 'origWidth': 409, 'origHeight': 409, 'width': 409, 'height': 409, 'widthPercent': 0.45, 'rescaleHeight': False, 'trialN': 62, 'loaded': True, 'loadedTime': 6462.599999964237, 'positionName': 'RIGHT', 'positionCoords': [665.6, 155.5], 'bid': 6.73}]",134297.5,1669829906606,cantaloupe,eggs,7.59,6.73,-0.8599999999999994,eggs,i,1570.8999999761581,1571,True,136378.79999995232,2081.2999999523163,1669829908687,2081,1571.3999999761581,HRV,HRV_0088,2022-11-30 17:42:13
63,"[{'imgObject': {}, 'id': 'yogurt no spoon', 'src': '/static/foodstim60/yogurt no spoon.jpg', 'key': 'u', 'origWidth': 411, 'origHeight': 410, 'width': 411, 'height': 410, 'widthPercent': 0.45, 'rescaleHeight': False, 'trialN': 63, 'loaded': True, 'loadedTime': 7128.199999988079, 'positionName': 'LEFT', 'positionCoords': [203.4, 155], 'bid': 0.56}, {'imgObject': {}, 'id': 'orange slices', 'src': '/static/foodstim60/orange slices.jpg', 'key': 'i', 'origWidth': 409, 'origHeight': 410, 'width': 409, 'height': 410, 'widthPercent': 0.45, 'rescaleHeight': False, 'trialN': 63, 'loaded': True, 'loadedTime': 6396.699999988079, 'positionName': 'RIGHT', 'positionCoords': [665.6, 155], 'bid': 3.93}]",136379.5,1669829908688,yogurt no spoon,orange slices,0.56,3.93,3.37,yogurt no spoon,u,1073.5999999642372,1074,True,137964.29999995232,1584.7999999523163,1669829910273,1585,1074.2999999523163,HRV,HRV_0088,2022-11-30 17:42:13
64,"[{'imgObject': {}, 'id': 'bagel and cc', 'src': '/static/foodstim60/bagel and cc.jpg', 'key': 'u', 'origWidth': 410, 'origHeight': 410, 'width': 410, 'height': 410, 'widthPercent': 0.45, 'rescaleHeight': False, 'trialN': 64, 'loaded': True, 'loadedTime': 6016.599999964237, 'positionName': 'LEFT', 'positionCoords': [204.4, 155], 'bid': 10}, {'imgObject': {}, 'id': 'steak', 'src': '/static/foodstim60/steak.jpg', 'key': 'i', 'origWidth': 410, 'origHeight': 410, 'width': 410, 'height': 410, 'widthPercent': 0.45, 'rescaleHeight': False, 'trialN': 64, 'loaded': True, 'loadedTime': 6955.799999952316, 'positionName': 'RIGHT', 'positionCoords': [665.6, 155], 'bid': 9.84}]",137964.89999997616,1669829910274,bagel and cc,steak,10.0,9.84,-0.16000000000000014,steak,i,1009.8999999761581,1008,True,139484.09999996424,1519.199999988079,1669829911791,1517,1010.8999999761581,HRV,HRV_0088,2022-11-30 17:42:13
65,"[{'imgObject': {}, 'id': 'turkeysandwich', 'src': '/static/foodstim60/turkeysandwich.jpg', 'key': 'u', 'origWidth': 409, 'origHeight': 409, 'width': 409, 'height': 409, 'widthPercent': 0.45, 'rescaleHeight': False, 'trialN': 65, 'loaded': True, 'loadedTime': 5607.299999952316, 'positionName': 'LEFT', 'positionCoords': [205.4, 155.5], 'bid': 9.93}, {'imgObject': {}, 'id': 'roastedpotatoes', 'src': '/static/foodstim60/roastedpotatoes.jpg', 'key': 'i', 'origWidth': 409, 'origHeight': 410, 'width': 409, 'height': 410, 'widthPercent': 0.45, 'rescaleHeight': False, 'trialN': 65, 'loaded': True, 'loadedTime': 6471.599999964237, 'positionName': 'RIGHT', 'positionCoords': [665.6, 155], 'bid': 6.21}]",139484.5,1669829911791,turkeysandwich,roastedpotatoes,9.93,6.21,-3.7199999999999998,turkeysandwich,u,1046.0999999642372,1047,True,141052.79999995232,1568.2999999523163,1669829913359,1568,1046.5999999642372,HRV,HRV_0088,2022-11-30 17:42:13
66,"[{'imgObject': {}, 'id': 'sweetpotato', 'src': '/static/foodstim60/sweetpotato.jpg', 'key': 'u', 'origWidth': 410, 'origHeight': 410, 'width': 410, 'height': 410, 'widthPercent': 0.45, 'rescaleHeight': False, 'trialN': 66, 'loaded': True, 'loadedTime': 6845, 'positionName': 'LEFT', 'positionCoords': [204.4, 155], 'bid': 9.81}, {'imgObject': {}, 'id': 'mango', 'src': '/static/foodstim60/mango.jpg', 'key': 'i', 'origWidth': 411, 'origHeight': 411, 'width': 411, 'height': 411, 'widthPercent': 0.45, 'rescaleHeight': False, 'trialN': 66, 'loaded': True, 'loadedTime': 6095.199999988079, 'positionName': 'RIGHT', 'positionCoords': [665.6, 154.5], 'bid': 9.75}]",141053.29999995232,1669829913360,sweetpotato,mango,9.81,9.75,-0.0600000000000005,sweetpotato,u,1010.5,1011,True,142572.69999998808,1519.4000000357628,1669829914879,1519,1011.2000000476837,HRV,HRV_0088,2022-11-30 17:42:13
67,"[{'imgObject': {}, 'id': 'cheerios', 'src': '/static/foodstim60/cheerios.jpg', 'key': 'u', 'origWidth': 409, 'origHeight': 410, 'width': 409, 'height': 410, 'widthPercent': 0.45, 'rescaleHeight': False, 'trialN': 67, 'loaded': True, 'loadedTime': 6238.199999988079, 'positionName': 'LEFT', 'positionCoords': [205.4, 155], 'bid': 1.12}, {'imgObject': {}, 'id': 'seaweed', 'src': '/static/foodstim60/seaweed.jpg', 'key': 'i', 'origWidth': 410, 'origHeight': 410, 'width': 410, 'height': 410, 'widthPercent': 0.45, 'rescaleHeight': False, 'trialN': 67, 'loaded': True, 'loadedTime': 6533.5, 'positionName': 'RIGHT', 'positionCoords': [665.6, 155], 'bid': 0}]",142573.59999996424,1669829914880,cheerios,seaweed,1.12,0.0,-1.12,cheerios,u,1244,1245,True,144333.5,1759.9000000357628,1669829916640,1760,1244.699999988079,HRV,HRV_0088,2022-11-30 17:42:13
68,"[{'imgObject': {}, 'id': 'mango', 'src': '/static/foodstim60/mango.jpg', 'key': 'u', 'origWidth': 411, 'origHeight': 411, 'width': 411, 'height': 411, 'widthPercent': 0.45, 'rescaleHeight': False, 'trialN': 68, 'loaded': True, 'loadedTime': 6092.299999952316, 'positionName': 'LEFT', 'positionCoords': [203.4, 154.5], 'bid': 9.75}, {'imgObject': {}, 'id': 'cheerios', 'src': '/static/foodstim60/cheerios.jpg', 'key': 'i', 'origWidth': 409, 'origHeight': 410, 'width': 409, 'height': 410, 'widthPercent': 0.45, 'rescaleHeight': False, 'trialN': 68, 'loaded': True, 'loadedTime': 6235.799999952316, 'positionName': 'RIGHT', 'positionCoords': [665.6, 155], 'bid': 1.12}]",144334.0,1669829916640,mango,cheerios,9.75,1.12,-8.629999999999999,mango,u,1469.2999999523163,1471,True,146306.19999998808,1972.199999988079,1669829918613,1973,1470.0999999642372,HRV,HRV_0088,2022-11-30 17:42:13
69,"[{'imgObject': {}, 'id': 'hotdog w must', 'src': '/static/foodstim60/hotdog w must.jpg', 'key': 'u', 'origWidth': 409, 'origHeight': 409, 'width': 409, 'height': 409, 'widthPercent': 0.45, 'rescaleHeight': False, 'trialN': 69, 'loaded': True, 'loadedTime': 5809.099999964237, 'positionName': 'LEFT', 'positionCoords': [205.4, 155.5], 'bid': 8.31}, {'imgObject': {}, 'id': 'froot loops w milk', 'src': '/static/foodstim60/froot loops w milk.jpg', 'key': 'i', 'origWidth': 410, 'origHeight': 410, 'width': 410, 'height': 410, 'widthPercent': 0.45, 'rescaleHeight': False, 'trialN': 69, 'loaded': True, 'loadedTime': 5821.299999952316, 'positionName': 'RIGHT', 'positionCoords': [665.6, 155], 'bid': 0.42}]",146307.39999997616,1669829918614,hotdog w must,froot loops w milk,8.31,0.42,-7.890000000000001,hotdog w must,u,1194.300000011921,1195,True,148016.19999998808,1708.800000011921,1669829920323,1709,1195.0,HRV,HRV_0088,2022-11-30 17:42:13
70,"[{'imgObject': {}, 'id': 'kiwi', 'src': '/static/foodstim60/kiwi.jpg', 'key': 'u', 'origWidth': 410, 'origHeight': 410, 'width': 410, 'height': 410, 'widthPercent': 0.45, 'rescaleHeight': False, 'trialN': 70, 'loaded': True, 'loadedTime': 6842.399999976158, 'positionName': 'LEFT', 'positionCoords': [204.4, 155], 'bid': 0.43}, {'imgObject': {}, 'id': 'shreddedwheatwithmilk', 'src': '/static/foodstim60/shreddedwheatwithmilk.jpg', 'key': 'i', 'origWidth': 410, 'origHeight': 410, 'width': 410, 'height': 410, 'widthPercent': 0.45, 'rescaleHeight': False, 'trialN': 70, 'loaded': True, 'loadedTime': 7027.899999976158, 'positionName': 'RIGHT', 'positionCoords': [665.6, 155], 'bid': 5.78}]",148016.89999997616,1669829920323,kiwi,shreddedwheatwithmilk,0.43,5.78,5.3500000000000005,shreddedwheatwithmilk,i,1124.800000011921,1126,True,149656.19999998808,1639.300000011921,1669829921963,1640,1125.6000000238419,HRV,HRV_0088,2022-11-30 17:42:13
71,"[{'imgObject': {}, 'id': 'rigatoni and sauce', 'src': '/static/foodstim60/rigatoni and sauce.jpg', 'key': 'u', 'origWidth': 410, 'origHeight': 411, 'width': 410, 'height': 411, 'widthPercent': 0.45, 'rescaleHeight': False, 'trialN': 71, 'loaded': True, 'loadedTime': 7157.399999976158, 'positionName': 'LEFT', 'positionCoords': [204.4, 154.5], 'bid': 7.84}, {'imgObject': {}, 'id': 'sweetpotato', 'src': '/static/foodstim60/sweetpotato.jpg', 'key': 'i', 'origWidth': 410, 'origHeight': 410, 'width': 410, 'height': 410, 'widthPercent': 0.45, 'rescaleHeight': False, 'trialN': 71, 'loaded': True, 'loadedTime': 6851, 'positionName': 'RIGHT', 'positionCoords': [665.6, 155], 'bid': 9.81}]",149656.79999995232,1669829921963,rigatoni and sauce,sweetpotato,7.84,9.81,1.9700000000000006,rigatoni and sauce,u,1461.4000000357628,1462,True,151630.19999998808,1973.4000000357628,1669829923937,1974,1462.2000000476837,HRV,HRV_0088,2022-11-30 17:42:13
72,"[{'imgObject': {}, 'id': 'luckycharms', 'src': '/static/foodstim60/luckycharms.jpg', 'key': 'u', 'origWidth': 410, 'origHeight': 409, 'width': 410, 'height': 409, 'widthPercent': 0.45, 'rescaleHeight': False, 'trialN': 72, 'loaded': True, 'loadedTime': 6703.299999952316, 'positionName': 'LEFT', 'positionCoords': [204.4, 155.5], 'bid': 0.29}, {'imgObject': {}, 'id': 'kiwi', 'src': '/static/foodstim60/kiwi.jpg', 'key': 'i', 'origWidth': 410, 'origHeight': 410, 'width': 410, 'height': 410, 'widthPercent': 0.45, 'rescaleHeight': False, 'trialN': 72, 'loaded': True, 'loadedTime': 6843.699999988079, 'positionName': 'RIGHT', 'positionCoords': [665.6, 155], 'bid': 0.43}]",151630.69999998808,1669829923937,luckycharms,kiwi,0.29,0.43,0.14,luckycharms,u,1296.5,1297,True,153441.29999995232,1810.5999999642372,1669829925748,1811,1297.0999999642372,HRV,HRV_0088,2022-11-30 17:42:13
73,"[{'imgObject': {}, 'id': 'rigatoni', 'src': '/static/foodstim60/rigatoni.jpg', 'key': 'u', 'origWidth': 411, 'origHeight': 411, 'width': 411, 'height': 411, 'widthPercent': 0.45, 'rescaleHeight': False, 'trialN': 73, 'loaded': True, 'loadedTime': 6942.5, 'positionName': 'LEFT', 'positionCoords': [203.4, 154.5], 'bid': 0.96}, {'imgObject': {}, 'id': 'blackbeanswithrice', 'src': '/static/foodstim60/blackbeanswithrice.jpg', 'key': 'i', 'origWidth': 410, 'origHeight': 410, 'width': 410, 'height': 410, 'widthPercent': 0.45, 'rescaleHeight': False, 'trialN': 73, 'loaded': True, 'loadedTime': 6759.599999964237, 'positionName': 'RIGHT', 'positionCoords': [665.6, 155], 'bid': 4}]",153441.89999997616,1669829925748,rigatoni,blackbeanswithrice,0.96,4.0,3.04,blackbeanswithrice,i,1593.300000011921,1594,True,155547.69999998808,2105.800000011921,1669829927854,2106,1594.0,HRV,HRV_0088,2022-11-30 17:42:13
74,"[{'imgObject': {}, 'id': 'strawberries', 'src': '/static/foodstim60/strawberries.jpg', 'key': 'u', 'origWidth': 410, 'origHeight': 410, 'width': 410, 'height': 410, 'widthPercent': 0.45, 'rescaleHeight': False, 'trialN': 74, 'loaded': True, 'loadedTime': 7216.599999964237, 'positionName': 'LEFT', 'positionCoords': [204.4, 155], 'bid': 9.73}, {'imgObject': {}, 'id': 'bagel and cc', 'src': '/static/foodstim60/bagel and cc.jpg', 'key': 'i', 'origWidth': 410, 'origHeight': 410, 'width': 410, 'height': 410, 'widthPercent': 0.45, 'rescaleHeight': False, 'trialN': 74, 'loaded': True, 'loadedTime': 6016, 'positionName': 'RIGHT', 'positionCoords': [665.6, 155], 'bid': 10}]",155548.09999996424,1669829927855,strawberries,bagel and cc,9.73,10.0,0.2699999999999996,bagel and cc,i,1450.5,1451,True,157508.19999998808,1960.1000000238419,1669829929815,1960,1451.1000000238419,HRV,HRV_0088,2022-11-30 17:42:13
75,"[{'imgObject': {}, 'id': 'granola w milk', 'src': '/static/foodstim60/granola w milk.jpg', 'key': 'u', 'origWidth': 410, 'origHeight': 410, 'width': 410, 'height': 410, 'widthPercent': 0.45, 'rescaleHeight': False, 'trialN': 75, 'loaded': True, 'loadedTime': 6832.899999976158, 'positionName': 'LEFT', 'positionCoords': [204.4, 155], 'bid': 2.12}, {'imgObject': {}, 'id': 'fried eggs', 'src': '/static/foodstim60/fried eggs.jpg', 'key': 'i', 'origWidth': 410, 'origHeight': 410, 'width': 410, 'height': 410, 'widthPercent': 0.45, 'rescaleHeight': False, 'trialN': 75, 'loaded': True, 'loadedTime': 5673.699999988079, 'positionName': 'RIGHT', 'positionCoords': [665.6, 155], 'bid': 1.5}]",157508.5,1669829929815,granola w milk,fried eggs,2.12,1.5,-0.6200000000000001,granola w milk,u,1121.5999999642372,1122,True,159134.29999995232,1625.7999999523163,1669829931441,1626,1122.199999988079,HRV,HRV_0088,2022-11-30 17:42:13
76,"[{'imgObject': {}, 'id': 'blackbeanswithrice', 'src': '/static/foodstim60/blackbeanswithrice.jpg', 'key': 'u', 'origWidth': 410, 'origHeight': 410, 'width': 410, 'height': 410, 'widthPercent': 0.45, 'rescaleHeight': False, 'trialN': 76, 'loaded': True, 'loadedTime': 6755.5, 'positionName': 'LEFT', 'positionCoords': [204.4, 155], 'bid': 4}, {'imgObject': {}, 'id': 'raspberries', 'src': '/static/foodstim60/raspberries.jpg', 'key': 'i', 'origWidth': 411, 'origHeight': 411, 'width': 411, 'height': 411, 'widthPercent': 0.45, 'rescaleHeight': False, 'trialN': 76, 'loaded': True, 'loadedTime': 6011.799999952316, 'positionName': 'RIGHT', 'positionCoords': [665.6, 154.5], 'bid': 9.85}]",159135.19999998808,1669829931442,blackbeanswithrice,raspberries,4.0,9.85,5.85,raspberries,i,1546.800000011921,1547,True,161193.39999997616,2058.199999988079,1669829933500,2058,1547.3999999761581,HRV,HRV_0088,2022-11-30 17:42:13
77,"[{'imgObject': {}, 'id': 'seaweed', 'src': '/static/foodstim60/seaweed.jpg', 'key': 'u', 'origWidth': 410, 'origHeight': 410, 'width': 410, 'height': 410, 'widthPercent': 0.45, 'rescaleHeight': False, 'trialN': 77, 'loaded': True, 'loadedTime': 6532, 'positionName': 'LEFT', 'positionCoords': [204.4, 155], 'bid': 0}, {'imgObject': {}, 'id': 'Tribe humus pita', 'src': '/static/foodstim60/Tribe humus pita.jpg', 'key': 'i', 'origWidth': 411, 'origHeight': 411, 'width': 411, 'height': 411, 'widthPercent': 0.45, 'rescaleHeight': False, 'trialN': 77, 'loaded': True, 'loadedTime': 7102.099999964237, 'positionName': 'RIGHT', 'positionCoords': [665.6, 154.5], 'bid': 7.56}]",161194.19999998808,1669829933501,seaweed,Tribe humus pita,0.0,7.56,7.56,Tribe humus pita,i,1041.199999988079,1042,True,162743.89999997616,1549.699999988079,1669829935050,1549,1042.0,HRV,HRV_0088,2022-11-30 17:42:13
78,"[{'imgObject': {}, 'id': 'blueberries', 'src': '/static/foodstim60/blueberries.jpg', 'key': 'u', 'origWidth': 411, 'origHeight': 411, 'width': 411, 'height': 411, 'widthPercent': 0.45, 'rescaleHeight': False, 'trialN': 78, 'loaded': True, 'loadedTime': 6247.799999952316, 'positionName': 'LEFT', 'positionCoords': [203.4, 154.5], 'bid': 8.34}, {'imgObject': {}, 'id': 'fruitsalad', 'src': '/static/foodstim60/fruitsalad.jpg', 'key': 'i', 'origWidth': 410, 'origHeight': 410, 'width': 410, 'height': 410, 'widthPercent': 0.45, 'rescaleHeight': False, 'trialN': 78, 'loaded': True, 'loadedTime': 6308.299999952316, 'positionName': 'RIGHT', 'positionCoords': [665.6, 155], 'bid': 7.18}]",162744.69999998808,1669829935051,blueberries,fruitsalad,8.34,7.18,-1.1600000000000001,fruitsalad,i,1441,1442,True,164698.59999996424,1953.8999999761581,1669829937005,1954,1441.699999988079,HRV,HRV_0088,2022-11-30 17:42:13
79,"[{'imgObject': {}, 'id': 'baked potato', 'src': '/static/foodstim60/baked potato.jpg', 'key': 'u', 'origWidth': 409, 'origHeight': 410, 'width': 409, 'height': 410, 'widthPercent': 0.45, 'rescaleHeight': False, 'trialN': 79, 'loaded': True, 'loadedTime': 6299.199999988079, 'positionName': 'LEFT', 'positionCoords': [205.4, 155], 'bid': 8.42}, {'imgObject': {}, 'id': 'ice cream sundae 002', 'src': '/static/foodstim60/ice cream sundae 002.jpg', 'key': 'i', 'origWidth': 409, 'origHeight': 409, 'width': 409, 'height': 409, 'widthPercent': 0.45, 'rescaleHeight': False, 'trialN': 79, 'loaded': True, 'loadedTime': 7108.699999988079, 'positionName': 'RIGHT', 'positionCoords': [665.6, 155.5], 'bid': 9.07}]",164699.39999997616,1669829937006,baked potato,ice cream sundae 002,8.42,9.07,0.6500000000000004,ice cream sundae 002,i,1032.1000000238419,1032,True,166251.39999997616,1552.0,1669829938558,1552,1032.6000000238419,HRV,HRV_0088,2022-11-30 17:42:13
80,"[{'imgObject': {}, 'id': 'bagel plain', 'src': '/static/foodstim60/bagel plain.jpg', 'key': 'u', 'origWidth': 410, 'origHeight': 410, 'width': 410, 'height': 410, 'widthPercent': 0.45, 'rescaleHeight': False, 'trialN': 80, 'loaded': True, 'loadedTime': 7097, 'positionName': 'LEFT', 'positionCoords': [204.4, 155], 'bid': 7.5}, {'imgObject': {}, 'id': 'burrito', 'src': '/static/foodstim60/burrito.jpg', 'key': 'i', 'origWidth': 410, 'origHeight': 410, 'width': 410, 'height': 410, 'widthPercent': 0.45, 'rescaleHeight': False, 'trialN': 80, 'loaded': True, 'loadedTime': 6130.799999952316, 'positionName': 'RIGHT', 'positionCoords': [665.6, 155], 'bid': 7.51}]",166251.89999997616,1669829938558,bagel plain,burrito,7.5,7.51,0.009999999999999787,bagel plain,u,1174.699999988079,1176,True,167945.5,1693.6000000238419,1669829940252,1694,1175.5,HRV,HRV_0088,2022-11-30 17:42:13
81,"[{'imgObject': {}, 'id': 'turkeysandwich', 'src': '/static/foodstim60/turkeysandwich.jpg', 'key': 'u', 'origWidth': 409, 'origHeight': 409, 'width': 409, 'height': 409, 'widthPercent': 0.45, 'rescaleHeight': False, 'trialN': 81, 'loaded': True, 'loadedTime': 5612.099999964237, 'positionName': 'LEFT', 'positionCoords': [205.4, 155.5], 'bid': 9.93}, {'imgObject': {}, 'id': 'ice cream sundae 002', 'src': '/static/foodstim60/ice cream sundae 002.jpg', 'key': 'i', 'origWidth': 409, 'origHeight': 409, 'width': 409, 'height': 409, 'widthPercent': 0.45, 'rescaleHeight': False, 'trialN': 81, 'loaded': True, 'loadedTime': 7104, 'positionName': 'RIGHT', 'positionCoords': [665.6, 155.5], 'bid': 9.07}]",167946.09999996424,1669829940253,turkeysandwich,ice cream sundae 002,9.93,9.07,-0.8599999999999994,turkeysandwich,u,1294.300000011921,1294,True,169743.0,1796.9000000357628,1669829942049,1796,1294.800000011921,HRV,HRV_0088,2022-11-30 17:42:13
82,"[{'imgObject': {}, 'id': 'tacos', 'src': '/static/foodstim60/tacos.jpg', 'key': 'u', 'origWidth': 411, 'origHeight': 411, 'width': 411, 'height': 411, 'widthPercent': 0.45, 'rescaleHeight': False, 'trialN': 82, 'loaded': True, 'loadedTime': 7149.5, 'positionName': 'LEFT', 'positionCoords': [203.4, 154.5], 'bid': 9.81}, {'imgObject': {}, 'id': 'cantaloupe', 'src': '/static/foodstim60/cantaloupe.jpg', 'key': 'i', 'origWidth': 409, 'origHeight': 409, 'width': 409, 'height': 409, 'widthPercent': 0.45, 'rescaleHeight': False, 'trialN': 82, 'loaded': True, 'loadedTime': 5952.599999964237, 'positionName': 'RIGHT', 'positionCoords': [665.6, 155.5], 'bid': 7.59}]",169743.59999996424,1669829942050,tacos,cantaloupe,9.81,7.59,-2.2200000000000006,tacos,u,756.4000000357628,757,True,171036.59999996424,1293.0,1669829943343,1293,757.1000000238419,HRV,HRV_0088,2022-11-30 17:42:13
83,"[{'imgObject': {}, 'id': 'eggs', 'src': '/static/foodstim60/eggs.jpg', 'key': 'u', 'origWidth': 409, 'origHeight': 409, 'width': 409, 'height': 409, 'widthPercent': 0.45, 'rescaleHeight': False, 'trialN': 83, 'loaded': True, 'loadedTime': 6457.199999988079, 'positionName': 'LEFT', 'positionCoords': [205.4, 155.5], 'bid': 6.73}, {'imgObject': {}, 'id': 'eggsalad', 'src': '/static/foodstim60/eggsalad.jpg', 'key': 'i', 'origWidth': 410, 'origHeight': 409, 'width': 410, 'height': 409, 'widthPercent': 0.45, 'rescaleHeight': False, 'trialN': 83, 'loaded': True, 'loadedTime': 7091.5, 'positionName': 'RIGHT', 'positionCoords': [665.6, 155.5], 'bid': 0.62}]",171037.0,1669829943343,eggs,eggsalad,6.73,0.62,-6.11,eggs,u,1576.3999999761581,1578,True,173128.19999998808,2091.199999988079,1669829945435,2092,1577.0999999642372,HRV,HRV_0088,2022-11-30 17:42:13
84,"[{'imgObject': {}, 'id': 'turkey sandwich', 'src': '/static/foodstim60/turkey sandwich.jpg', 'key': 'u', 'origWidth': 409, 'origHeight': 409, 'width': 409, 'height': 409, 'widthPercent': 0.45, 'rescaleHeight': False, 'trialN': 84, 'loaded': True, 'loadedTime': 6306.099999964237, 'positionName': 'LEFT', 'positionCoords': [205.4, 155.5], 'bid': 9.89}, {'imgObject': {}, 'id': 'salmon', 'src': '/static/foodstim60/salmon.jpg', 'key': 'i', 'origWidth': 410, 'origHeight': 409, 'width': 410, 'height': 409, 'widthPercent': 0.45, 'rescaleHeight': False, 'trialN': 84, 'loaded': True, 'loadedTime': 6138.5, 'positionName': 'RIGHT', 'positionCoords': [665.6, 155.5], 'bid': 9.9}]",173128.79999995232,1669829945435,turkey sandwich,salmon,9.89,9.9,0.009999999999999787,turkey sandwich,u,2017.2000000476837,2018,True,175655.39999997616,2526.600000023842,1669829947962,2527,2017.7000000476837,HRV,HRV_0088,2022-11-30 17:42:13
85,"[{'imgObject': {}, 'id': 'avocado', 'src': '/static/foodstim60/avocado.jpg', 'key': 'u', 'origWidth': 409, 'origHeight': 409, 'width': 409, 'height': 409, 'widthPercent': 0.45, 'rescaleHeight': False, 'trialN': 85, 'loaded': True, 'loadedTime': 6948.199999988079, 'positionName': 'LEFT', 'positionCoords': [205.4, 155.5], 'bid': 9.84}, {'imgObject': {}, 'id': 'steak', 'src': '/static/foodstim60/steak.jpg', 'key': 'i', 'origWidth': 410, 'origHeight': 410, 'width': 410, 'height': 410, 'widthPercent': 0.45, 'rescaleHeight': False, 'trialN': 85, 'loaded': True, 'loadedTime': 6956.799999952316, 'positionName': 'RIGHT', 'positionCoords': [665.6, 155], 'bid': 9.84}]",175656.0,1669829947962,avocado,steak,9.84,9.84,0.0,steak,i,796.8999999761581,798,True,176966.29999995232,1310.2999999523163,1669829949273,1311,798.0,HRV,HRV_0088,2022-11-30 17:42:13
86,"[{'imgObject': {}, 'id': 'avocado', 'src': '/static/foodstim60/avocado.jpg', 'key': 'u', 'origWidth': 409, 'origHeight': 409, 'width': 409, 'height': 409, 'widthPercent': 0.45, 'rescaleHeight': False, 'trialN': 86, 'loaded': True, 'loadedTime': 6947.799999952316, 'positionName': 'LEFT', 'positionCoords': [205.4, 155.5], 'bid': 9.84}, {'imgObject': {}, 'id': 'Grapes', 'src': '/static/foodstim60/Grapes.jpg', 'key': 'i', 'origWidth': 411, 'origHeight': 411, 'width': 411, 'height': 411, 'widthPercent': 0.45, 'rescaleHeight': False, 'trialN': 86, 'loaded': True, 'loadedTime': 6408.5, 'positionName': 'RIGHT', 'positionCoords': [665.6, 154.5], 'bid': 3.62}]",176966.79999995232,1669829949273,avocado,Grapes,9.84,3.62,-6.22,avocado,u,1122.800000011921,1124,True,178614.0,1647.2000000476837,1669829950920,1647,1123.4000000357628,HRV,HRV_0088,2022-11-30 17:42:13
87,"[{'imgObject': {}, 'id': 'bagel plain', 'src': '/static/foodstim60/bagel plain.jpg', 'key': 'u', 'origWidth': 410, 'origHeight': 410, 'width': 410, 'height': 410, 'widthPercent': 0.45, 'rescaleHeight': False, 'trialN': 87, 'loaded': True, 'loadedTime': 7096.099999964237, 'positionName': 'LEFT', 'positionCoords': [204.4, 155], 'bid': 7.5}, {'imgObject': {}, 'id': 'cherries', 'src': '/static/foodstim60/cherries.jpg', 'key': 'i', 'origWidth': 410, 'origHeight': 411, 'width': 410, 'height': 411, 'widthPercent': 0.45, 'rescaleHeight': False, 'trialN': 87, 'loaded': True, 'loadedTime': 6533.799999952316, 'positionName': 'RIGHT', 'positionCoords': [665.6, 154.5], 'bid': 9.98}]",178614.69999998808,1669829950921,bagel plain,cherries,7.5,9.98,2.4800000000000004,cherries,i,1149,1150,True,180280.59999996424,1665.8999999761581,1669829952587,1666,1149.5,HRV,HRV_0088,2022-11-30 17:42:13
88,"[{'imgObject': {}, 'id': 'grilled chicken strips', 'src': '/static/foodstim60/grilled chicken strips.jpg', 'key': 'u', 'origWidth': 410, 'origHeight': 411, 'width': 410, 'height': 411, 'widthPercent': 0.45, 'rescaleHeight': False, 'trialN': 88, 'loaded': True, 'loadedTime': 7026.199999988079, 'positionName': 'LEFT', 'positionCoords': [204.4, 154.5], 'bid': 8.040000000000001}, {'imgObject': {}, 'id': 'mac & cheese', 'src': '/static/foodstim60/mac & cheese.jpg', 'key': 'i', 'origWidth': 410, 'origHeight': 410, 'width': 410, 'height': 410, 'widthPercent': 0.45, 'rescaleHeight': False, 'trialN': 88, 'loaded': True, 'loadedTime': 6706.599999964237, 'positionName': 'RIGHT', 'positionCoords': [665.6, 155], 'bid': 8.18}]",180281.0,1669829952587,grilled chicken strips,mac & cheese,8.040000000000001,8.18,0.1399999999999988,grilled chicken strips,u,1186.7999999523163,1188,True,181976.0,1695.0,1669829954282,1695,1187.3999999761581,HRV,HRV_0088,2022-11-30 17:42:13
89,"[{'imgObject': {}, 'id': 'blueberries', 'src': '/static/foodstim60/blueberries.jpg', 'key': 'u', 'origWidth': 411, 'origHeight': 411, 'width': 411, 'height': 411, 'widthPercent': 0.45, 'rescaleHeight': False, 'trialN': 89, 'loaded': True, 'loadedTime': 6250.099999964237, 'positionName': 'LEFT', 'positionCoords': [203.4, 154.5], 'bid': 8.34}, {'imgObject': {}, 'id': 'ice cream sundae 002', 'src': '/static/foodstim60/ice cream sundae 002.jpg', 'key': 'i', 'origWidth': 409, 'origHeight': 409, 'width': 409, 'height': 409, 'widthPercent': 0.45, 'rescaleHeight': False, 'trialN': 89, 'loaded': True, 'loadedTime': 7109.599999964237, 'positionName': 'RIGHT', 'positionCoords': [665.6, 155.5], 'bid': 9.07}]",181976.59999996424,1669829954283,blueberries,ice cream sundae 002,8.34,9.07,0.7300000000000004,ice cream sundae 002,i,1029.1000000238419,1030,True,183518.79999995232,1542.199999988079,1669829955825,1542,1029.6000000238419,HRV,HRV_0088,2022-11-30 17:42:13
90,"[{'imgObject': {}, 'id': 'eggs', 'src': '/static/foodstim60/eggs.jpg', 'key': 'u', 'origWidth': 409, 'origHeight': 409, 'width': 409, 'height': 409, 'widthPercent': 0.45, 'rescaleHeight': False, 'trialN': 90, 'loaded': True, 'loadedTime': 6464.399999976158, 'positionName': 'LEFT', 'positionCoords': [205.4, 155.5], 'bid': 6.73}, {'imgObject': {}, 'id': 'cocktailshrimp', 'src': '/static/foodstim60/cocktailshrimp.jpg', 'key': 'i', 'origWidth': 410, 'origHeight': 410, 'width': 410, 'height': 410, 'widthPercent': 0.45, 'rescaleHeight': False, 'trialN': 90, 'loaded': True, 'loadedTime': 6766, 'positionName': 'RIGHT', 'positionCoords': [665.6, 155], 'bid': 9.93}]",191520.69999998808,1669829963827,eggs,cocktailshrimp,6.73,9.93,3.1999999999999993,eggs,u,2818.099999964237,2819,True,194846.09999996424,3325.399999976158,1669829967153,3326,2818.800000011921,HRV,HRV_0088,2022-11-30 17:42:13
91,"[{'imgObject': {}, 'id': 'salad w chicken', 'src': '/static/foodstim60/salad w chicken.jpg', 'key': 'u', 'origWidth': 411, 'origHeight': 411, 'width': 411, 'height': 411, 'widthPercent': 0.45, 'rescaleHeight': False, 'trialN': 91, 'loaded': True, 'loadedTime': 6201.599999964237, 'positionName': 'LEFT', 'positionCoords': [203.4, 154.5], 'bid': 5.59}, {'imgObject': {}, 'id': 'sushi w_condiments', 'src': '/static/foodstim60/sushi w_condiments.jpg', 'key': 'i', 'origWidth': 410, 'origHeight': 410, 'width': 410, 'height': 410, 'widthPercent': 0.45, 'rescaleHeight': False, 'trialN': 91, 'loaded': True, 'loadedTime': 7134, 'positionName': 'RIGHT', 'positionCoords': [665.6, 155], 'bid': 9.87}]",194846.89999997616,1669829967153,salad w chicken,sushi w_condiments,5.59,9.87,4.279999999999999,sushi w_condiments,i,1048.8999999761581,1050,True,196413.5,1566.6000000238419,1669829968720,1567,1050.1000000238419,HRV,HRV_0088,2022-11-30 17:42:13
92,"[{'imgObject': {}, 'id': 'blackbeanswithrice', 'src': '/static/foodstim60/blackbeanswithrice.jpg', 'key': 'u', 'origWidth': 410, 'origHeight': 410, 'width': 410, 'height': 410, 'widthPercent': 0.45, 'rescaleHeight': False, 'trialN': 92, 'loaded': True, 'loadedTime': 6760.599999964237, 'positionName': 'LEFT', 'positionCoords': [204.4, 155], 'bid': 4}, {'imgObject': {}, 'id': 'shreddedwheatwithmilk', 'src': '/static/foodstim60/shreddedwheatwithmilk.jpg', 'key': 'i', 'origWidth': 410, 'origHeight': 410, 'width': 410, 'height': 410, 'widthPercent': 0.45, 'rescaleHeight': False, 'trialN': 92, 'loaded': True, 'loadedTime': 7031.5, 'positionName': 'RIGHT', 'positionCoords': [665.6, 155], 'bid': 5.78}]",196414.09999996424,1669829968721,blackbeanswithrice,shreddedwheatwithmilk,4.0,5.78,1.7800000000000002,shreddedwheatwithmilk,i,1828.800000011921,1829,True,198750.79999995232,2336.699999988079,1669829971057,2336,1829.5,HRV,HRV_0088,2022-11-30 17:42:13
93,"[{'imgObject': {}, 'id': 'rigatoni', 'src': '/static/foodstim60/rigatoni.jpg', 'key': 'u', 'origWidth': 411, 'origHeight': 411, 'width': 411, 'height': 411, 'widthPercent': 0.45, 'rescaleHeight': False, 'trialN': 93, 'loaded': True, 'loadedTime': 6942.799999952316, 'positionName': 'LEFT', 'positionCoords': [203.4, 154.5], 'bid': 0.96}, {'imgObject': {}, 'id': 'raisin bran w milk', 'src': '/static/foodstim60/raisin bran w milk.jpg', 'key': 'i', 'origWidth': 411, 'origHeight': 411, 'width': 411, 'height': 411, 'widthPercent': 0.45, 'rescaleHeight': False, 'trialN': 93, 'loaded': True, 'loadedTime': 6616.899999976158, 'positionName': 'RIGHT', 'positionCoords': [665.6, 154.5], 'bid': 0.75}]",198751.39999997616,1669829971058,rigatoni,raisin bran w milk,0.96,0.75,-0.20999999999999996,raisin bran w milk,i,1479.1000000238419,1472,True,200738.09999996424,1986.699999988079,1669829973037,1979,1479.699999988079,HRV,HRV_0088,2022-11-30 17:42:13
94,"[{'imgObject': {}, 'id': 'cherry tomato', 'src': '/static/foodstim60/cherry tomato.jpg', 'key': 'u', 'origWidth': 410, 'origHeight': 410, 'width': 410, 'height': 410, 'widthPercent': 0.45, 'rescaleHeight': False, 'trialN': 94, 'loaded': True, 'loadedTime': 6957.699999988079, 'positionName': 'LEFT', 'positionCoords': [204.4, 155], 'bid': 0.15}, {'imgObject': {}, 'id': 'yogurt no spoon', 'src': '/static/foodstim60/yogurt no spoon.jpg', 'key': 'i', 'origWidth': 411, 'origHeight': 410, 'width': 411, 'height': 410, 'widthPercent': 0.45, 'rescaleHeight': False, 'trialN': 94, 'loaded': True, 'loadedTime': 7110.099999964237, 'positionName': 'RIGHT', 'positionCoords': [665.6, 155], 'bid': 0.56}]",200739.09999996424,1669829973038,cherry tomato,yogurt no spoon,0.15,0.56,0.41000000000000003,yogurt no spoon,i,2178.800000011921,2179,True,203422.59999996424,2683.5,1669829975721,2683,2179.5,HRV,HRV_0088,2022-11-30 17:42:13
95,"[{'imgObject': {}, 'id': 'cherries', 'src': '/static/foodstim60/cherries.jpg', 'key': 'u', 'origWidth': 410, 'origHeight': 411, 'width': 410, 'height': 411, 'widthPercent': 0.45, 'rescaleHeight': False, 'trialN': 95, 'loaded': True, 'loadedTime': 6538.899999976158, 'positionName': 'LEFT', 'positionCoords': [204.4, 154.5], 'bid': 9.98}, {'imgObject': {}, 'id': 'bagel and cc', 'src': '/static/foodstim60/bagel and cc.jpg', 'key': 'i', 'origWidth': 410, 'origHeight': 410, 'width': 410, 'height': 410, 'widthPercent': 0.45, 'rescaleHeight': False, 'trialN': 95, 'loaded': True, 'loadedTime': 6066.099999964237, 'positionName': 'RIGHT', 'positionCoords': [665.6, 155], 'bid': 10}]",203423.09999996424,1669829975722,cherries,bagel and cc,9.98,10.0,0.019999999999999574,bagel and cc,i,1033.9000000357628,1034,True,204958.89999997616,1535.800000011921,1669829977257,1535,1034.699999988079,HRV,HRV_0088,2022-11-30 17:42:13
96,"[{'imgObject': {}, 'id': 'edamame', 'src': '/static/foodstim60/edamame.jpg', 'key': 'u', 'origWidth': 409, 'origHeight': 410, 'width': 409, 'height': 410, 'widthPercent': 0.45, 'rescaleHeight': False, 'trialN': 96, 'loaded': True, 'loadedTime': 6858.899999976158, 'positionName': 'LEFT', 'positionCoords': [205.4, 155], 'bid': 0.17}, {'imgObject': {}, 'id': 'omelette', 'src': '/static/foodstim60/omelette.jpg', 'key': 'i', 'origWidth': 410, 'origHeight': 409, 'width': 410, 'height': 409, 'widthPercent': 0.45, 'rescaleHeight': False, 'trialN': 96, 'loaded': True, 'loadedTime': 5874.899999976158, 'positionName': 'RIGHT', 'positionCoords': [665.6, 155.5], 'bid': 8.09}]",204959.5,1669829977258,edamame,omelette,0.17,8.09,7.92,omelette,i,1113.699999988079,1114,True,206585.0,1625.5,1669829978883,1625,1114.3999999761581,HRV,HRV_0088,2022-11-30 17:42:13
97,"[{'imgObject': {}, 'id': 'sweetpotato', 'src': '/static/foodstim60/sweetpotato.jpg', 'key': 'u', 'origWidth': 410, 'origHeight': 410, 'width': 410, 'height': 410, 'widthPercent': 0.45, 'rescaleHeight': False, 'trialN': 97, 'loaded': True, 'loadedTime': 6850.199999988079, 'positionName': 'LEFT', 'positionCoords': [204.4, 155], 'bid': 9.81}, {'imgObject': {}, 'id': 'lox', 'src': '/static/foodstim60/lox.jpg', 'key': 'i', 'origWidth': 410, 'origHeight': 411, 'width': 410, 'height': 411, 'widthPercent': 0.45, 'rescaleHeight': False, 'trialN': 97, 'loaded': True, 'loadedTime': 5870.199999988079, 'positionName': 'RIGHT', 'positionCoords': [665.6, 154.5], 'bid': 9.98}]",206585.59999996424,1669829978884,sweetpotato,lox,9.81,9.98,0.16999999999999993,sweetpotato,u,1590.4000000357628,1591,True,208688.19999998808,2102.600000023842,1669829980987,2103,1590.9000000357628,HRV,HRV_0088,2022-11-30 17:42:13
98,"[{'imgObject': {}, 'id': 'kiwi', 'src': '/static/foodstim60/kiwi.jpg', 'key': 'u', 'origWidth': 410, 'origHeight': 410, 'width': 410, 'height': 410, 'widthPercent': 0.45, 'rescaleHeight': False, 'trialN': 98, 'loaded': True, 'loadedTime': 6833.199999988079, 'positionName': 'LEFT', 'positionCoords': [204.4, 155], 'bid': 0.43}, {'imgObject': {}, 'id': 'pear', 'src': '/static/foodstim60/pear.jpg', 'key': 'i', 'origWidth': 411, 'origHeight': 410, 'width': 411, 'height': 410, 'widthPercent': 0.45, 'rescaleHeight': False, 'trialN': 98, 'loaded': True, 'loadedTime': 6539.899999976158, 'positionName': 'RIGHT', 'positionCoords': [665.6, 155], 'bid': 0.1}]",208688.59999996424,1669829980987,kiwi,pear,0.43,0.1,-0.32999999999999996,pear,i,1741.5,1742,True,210942.09999996424,2253.5,1669829983241,2254,1742.0,HRV,HRV_0088,2022-11-30 17:42:13
99,"[{'imgObject': {}, 'id': 'chickenfingers', 'src': '/static/foodstim60/chickenfingers.jpg', 'key': 'u', 'origWidth': 410, 'origHeight': 410, 'width': 410, 'height': 410, 'widthPercent': 0.45, 'rescaleHeight': False, 'trialN': 99, 'loaded': True, 'loadedTime': 6770, 'positionName': 'LEFT', 'positionCoords': [204.4, 155], 'bid': 9.95}, {'imgObject': {}, 'id': 'tacos', 'src': '/static/foodstim60/tacos.jpg', 'key': 'i', 'origWidth': 411, 'origHeight': 411, 'width': 411, 'height': 411, 'widthPercent': 0.45, 'rescaleHeight': False, 'trialN': 99, 'loaded': True, 'loadedTime': 7150.899999976158, 'positionName': 'RIGHT', 'positionCoords': [665.6, 154.5], 'bid': 9.81}]",210943.0,1669829983241,chickenfingers,tacos,9.95,9.81,-0.1399999999999988,tacos,i,1500.7999999523163,1502,True,212951.39999997616,2008.3999999761581,1669829985250,2009,1501.699999988079,HRV,HRV_0088,2022-11-30 17:42:13
100,"[{'imgObject': {}, 'id': 'orange slices', 'src': '/static/foodstim60/orange slices.jpg', 'key': 'u', 'origWidth': 409, 'origHeight': 410, 'width': 409, 'height': 410, 'widthPercent': 0.45, 'rescaleHeight': False, 'trialN': 100, 'loaded': True, 'loadedTime': 6395.399999976158, 'positionName': 'LEFT', 'positionCoords': [205.4, 155], 'bid': 3.93}, {'imgObject': {}, 'id': 'granola w milk', 'src': '/static/foodstim60/granola w milk.jpg', 'key': 'i', 'origWidth': 410, 'origHeight': 410, 'width': 410, 'height': 410, 'widthPercent': 0.45, 'rescaleHeight': False, 'trialN': 100, 'loaded': True, 'loadedTime': 6830.299999952316, 'positionName': 'RIGHT', 'positionCoords': [665.6, 155], 'bid': 2.12}]",212952.09999996424,1669829985251,orange slices,granola w milk,3.93,2.12,-1.81,granola w milk,i,1138.300000011921,1139,True,214610.89999997616,1658.800000011921,1669829986909,1658,1139.300000011921,HRV,HRV_0088,2022-11-30 17:42:13
101,"[{'imgObject': {}, 'id': 'roastedpotatoes', 'src': '/static/foodstim60/roastedpotatoes.jpg', 'key': 'u', 'origWidth': 409, 'origHeight': 410, 'width': 409, 'height': 410, 'widthPercent': 0.45, 'rescaleHeight': False, 'trialN': 101, 'loaded': True, 'loadedTime': 6465.899999976158, 'positionName': 'LEFT', 'positionCoords': [205.4, 155], 'bid': 6.21}, {'imgObject': {}, 'id': 'chicken nuggets2', 'src': '/static/foodstim60/chicken nuggets2.jpg', 'key': 'i', 'origWidth': 410, 'origHeight': 409, 'width': 410, 'height': 409, 'widthPercent': 0.45, 'rescaleHeight': False, 'trialN': 101, 'loaded': True, 'loadedTime': 5737.099999964237, 'positionName': 'RIGHT', 'positionCoords': [665.6, 155.5], 'bid': 6.8500000000000005}]",214611.39999997616,1669829986910,roastedpotatoes,chicken nuggets2,6.21,6.8500000000000005,0.6400000000000006,roastedpotatoes,u,1541.8999999761581,1542,True,216677.69999998808,2066.300000011921,1669829988976,2066,1542.5,HRV,HRV_0088,2022-11-30 17:42:13
102,"[{'imgObject': {}, 'id': 'corn cob', 'src': '/static/foodstim60/corn cob.jpg', 'key': 'u', 'origWidth': 411, 'origHeight': 411, 'width': 411, 'height': 411, 'widthPercent': 0.45, 'rescaleHeight': False, 'trialN': 102, 'loaded': True, 'loadedTime': 5966.5, 'positionName': 'LEFT', 'positionCoords': [203.4, 154.5], 'bid': 9.53}, {'imgObject': {}, 'id': 'cocktailshrimp', 'src': '/static/foodstim60/cocktailshrimp.jpg', 'key': 'i', 'origWidth': 410, 'origHeight': 410, 'width': 410, 'height': 410, 'widthPercent': 0.45, 'rescaleHeight': False, 'trialN': 102, 'loaded': True, 'loadedTime': 6764.399999976158, 'positionName': 'RIGHT', 'positionCoords': [665.6, 155], 'bid': 9.93}]",216678.0,1669829988976,corn cob,cocktailshrimp,9.53,9.93,0.40000000000000036,cocktailshrimp,i,1196.2999999523163,1197,True,218394.19999998808,1716.199999988079,1669829990693,1717,1197.0,HRV,HRV_0088,2022-11-30 17:42:13
103,"[{'imgObject': {}, 'id': 'roastedpotatoes', 'src': '/static/foodstim60/roastedpotatoes.jpg', 'key': 'u', 'origWidth': 409, 'origHeight': 410, 'width': 409, 'height': 410, 'widthPercent': 0.45, 'rescaleHeight': False, 'trialN': 103, 'loaded': True, 'loadedTime': 6470.799999952316, 'positionName': 'LEFT', 'positionCoords': [205.4, 155], 'bid': 6.21}, {'imgObject': {}, 'id': 'Tribe humus pita', 'src': '/static/foodstim60/Tribe humus pita.jpg', 'key': 'i', 'origWidth': 411, 'origHeight': 411, 'width': 411, 'height': 411, 'widthPercent': 0.45, 'rescaleHeight': False, 'trialN': 103, 'loaded': True, 'loadedTime': 7103.599999964237, 'positionName': 'RIGHT', 'positionCoords': [665.6, 154.5], 'bid': 7.56}]",218394.89999997616,1669829990693,roastedpotatoes,Tribe humus pita,6.21,7.56,1.3499999999999996,Tribe humus pita,i,1195.5,1196,True,220102.39999997616,1707.5,1669829992401,1708,1196.0,HRV,HRV_0088,2022-11-30 17:42:13
104,"[{'imgObject': {}, 'id': 'chicken nuggets2', 'src': '/static/foodstim60/chicken nuggets2.jpg', 'key': 'u', 'origWidth': 410, 'origHeight': 409, 'width': 410, 'height': 409, 'widthPercent': 0.45, 'rescaleHeight': False, 'trialN': 104, 'loaded': True, 'loadedTime': 5738.099999964237, 'positionName': 'LEFT', 'positionCoords': [204.4, 155.5], 'bid': 6.8500000000000005}, {'imgObject': {}, 'id': 'mashed potato', 'src': '/static/foodstim60/mashed potato.jpg', 'key': 'i', 'origWidth': 409, 'origHeight': 409, 'width': 409, 'height': 409, 'widthPercent': 0.45, 'rescaleHeight': False, 'trialN': 104, 'loaded': True, 'loadedTime': 7012.699999988079, 'positionName': 'RIGHT', 'positionCoords': [665.6, 155.5], 'bid': 0.62}]",220102.69999998808,1669829992401,chicken nuggets2,mashed potato,6.8500000000000005,0.62,-6.23,mashed potato,i,1905.300000011921,1906,True,222510.89999997616,2408.199999988079,1669829994809,2408,1906.0,HRV,HRV_0088,2022-11-30 17:42:13
105,"[{'imgObject': {}, 'id': 'baked potato', 'src': '/static/foodstim60/baked potato.jpg', 'key': 'u', 'origWidth': 409, 'origHeight': 410, 'width': 409, 'height': 410, 'widthPercent': 0.45, 'rescaleHeight': False, 'trialN': 105, 'loaded': True, 'loadedTime': 6251.599999964237, 'positionName': 'LEFT', 'positionCoords': [205.4, 155], 'bid': 8.42}, {'imgObject': {}, 'id': 'salmon', 'src': '/static/foodstim60/salmon.jpg', 'key': 'i', 'origWidth': 410, 'origHeight': 409, 'width': 410, 'height': 409, 'widthPercent': 0.45, 'rescaleHeight': False, 'trialN': 105, 'loaded': True, 'loadedTime': 6136.399999976158, 'positionName': 'RIGHT', 'positionCoords': [665.6, 155.5], 'bid': 9.9}]",222511.79999995232,1669829994810,baked potato,salmon,8.42,9.9,1.4800000000000004,salmon,i,1450,1454,True,224470.69999998808,1958.9000000357628,1669829996769,1959,1453.4000000357628,HRV,HRV_0088,2022-11-30 17:42:13
106,"[{'imgObject': {}, 'id': 'burrito', 'src': '/static/foodstim60/burrito.jpg', 'key': 'u', 'origWidth': 410, 'origHeight': 410, 'width': 410, 'height': 410, 'widthPercent': 0.45, 'rescaleHeight': False, 'trialN': 106, 'loaded': True, 'loadedTime': 6131.599999964237, 'positionName': 'LEFT', 'positionCoords': [204.4, 155], 'bid': 7.51}, {'imgObject': {}, 'id': 'cantaloupe', 'src': '/static/foodstim60/cantaloupe.jpg', 'key': 'i', 'origWidth': 409, 'origHeight': 409, 'width': 409, 'height': 409, 'widthPercent': 0.45, 'rescaleHeight': False, 'trialN': 106, 'loaded': True, 'loadedTime': 5953.399999976158, 'positionName': 'RIGHT', 'positionCoords': [665.6, 155.5], 'bid': 7.59}]",224470.89999997616,1669829996769,burrito,cantaloupe,7.51,7.59,0.08000000000000007,cantaloupe,i,1698.699999988079,1700,True,226671.89999997616,2201.0,1669829998970,2201,1699.6000000238419,HRV,HRV_0088,2022-11-30 17:42:13
107,"[{'imgObject': {}, 'id': 'kiwi', 'src': '/static/foodstim60/kiwi.jpg', 'key': 'u', 'origWidth': 410, 'origHeight': 410, 'width': 410, 'height': 410, 'widthPercent': 0.45, 'rescaleHeight': False, 'trialN': 107, 'loaded': True, 'loadedTime': 6844, 'positionName': 'LEFT', 'positionCoords': [204.4, 155], 'bid': 0.43}, {'imgObject': {}, 'id': 'froot loops w milk', 'src': '/static/foodstim60/froot loops w milk.jpg', 'key': 'i', 'origWidth': 410, 'origHeight': 410, 'width': 410, 'height': 410, 'widthPercent': 0.45, 'rescaleHeight': False, 'trialN': 107, 'loaded': True, 'loadedTime': 5818.399999976158, 'positionName': 'RIGHT', 'positionCoords': [665.6, 155], 'bid': 0.42}]",226672.39999997616,1669829998971,kiwi,froot loops w milk,0.43,0.42,-0.010000000000000009,froot loops w milk,i,1898.8999999761581,1900,True,229089.79999995232,2417.399999976158,1669830001388,2417,1899.8999999761581,HRV,HRV_0088,2022-11-30 17:42:13
108,"[{'imgObject': {}, 'id': 'mango', 'src': '/static/foodstim60/mango.jpg', 'key': 'u', 'origWidth': 411, 'origHeight': 411, 'width': 411, 'height': 411, 'widthPercent': 0.45, 'rescaleHeight': False, 'trialN': 108, 'loaded': True, 'loadedTime': 6093.099999964237, 'positionName': 'LEFT', 'positionCoords': [203.4, 154.5], 'bid': 9.75}, {'imgObject': {}, 'id': 'strawberries', 'src': '/static/foodstim60/strawberries.jpg', 'key': 'i', 'origWidth': 410, 'origHeight': 410, 'width': 410, 'height': 410, 'widthPercent': 0.45, 'rescaleHeight': False, 'trialN': 108, 'loaded': True, 'loadedTime': 7211.099999964237, 'positionName': 'RIGHT', 'positionCoords': [665.6, 155], 'bid': 9.73}]",229090.5,1669830001389,mango,strawberries,9.75,9.73,-0.019999999999999574,strawberries,i,1740.5,1741,True,231340.69999998808,2250.199999988079,1669830003639,2250,1741.0999999642372,HRV,HRV_0088,2022-11-30 17:42:13
109,"[{'imgObject': {}, 'id': 'chickenfingers', 'src': '/static/foodstim60/chickenfingers.jpg', 'key': 'u', 'origWidth': 410, 'origHeight': 410, 'width': 410, 'height': 410, 'widthPercent': 0.45, 'rescaleHeight': False, 'trialN': 109, 'loaded': True, 'loadedTime': 6771.599999964237, 'positionName': 'LEFT', 'positionCoords': [204.4, 155], 'bid': 9.95}, {'imgObject': {}, 'id': 'cherries', 'src': '/static/foodstim60/cherries.jpg', 'key': 'i', 'origWidth': 410, 'origHeight': 411, 'width': 410, 'height': 411, 'widthPercent': 0.45, 'rescaleHeight': False, 'trialN': 109, 'loaded': True, 'loadedTime': 6538.399999976158, 'positionName': 'RIGHT', 'positionCoords': [665.6, 154.5], 'bid': 9.98}]",231341.09999996424,1669830003640,chickenfingers,cherries,9.95,9.98,0.030000000000001137,cherries,i,860.3000000119209,860,True,232711.0,1369.9000000357628,1669830005009,1369,860.9000000357628,HRV,HRV_0088,2022-11-30 17:42:13
