success,trial_type,trial_index,time_elapsed,internal_node_id,Block,TrialNumber,TrialTime,trialTimeDiff,FPS_avg,FPS_med,FPS_mode,TrialDur,winResizeTime,rt,block,button_pressed,MotCoh,MotDir,ColCoh,Color,ChoiceKey,Choice,Accuracy,RT,nFrames,FPS,PPD,missTrial,missTrialMsg,onsetDelay,fullScreenExitTime,canvCenter,TrialType,Score,BlockTrial,stimulus,button_labels,exp,subjectId,date
True,fullscreen,0,3682,0.0-0.0,0.0,1.0,,,,,,,,,,,,,,,,,,,,,,,,,,,,,,,,HRV,HRV_0088,2022-11-30 18:06:12
,wl-check-fps,1,8914,0.0-1.0,0.0,2.0,"[5683.5, 5685.2, 5707.4, 5715.5, 5737, 5750.1, 5771.2, 5785.8, 5803.8, 5824, 5839.4, 5856.8, 5875.5, 5889.5, 5906.6, 5923.6, 5940.9, 5958.8, 5976.2, 5993.7, 6011.2, 6028.4, 6046.5, 6067.5, 6090.8, 6098, 6115.6, 6133.5, 6152.7, 6168.4, 6185.4, 6203.3, 6220.5, 6238, 6255, 6273.5, 6290, 6307.3, 6324.9, 6342.1, 6359.9, 6377.6, 6394.7, 6412.3, 6429.7, 6448.1, 6464.6, 6482, 6499.4, 6516.8, 6534.6, 6552, 6569.2, 6586.9, 6605.3, 6621.7, 6639.1, 6657.7, 6674.6, 6693.3, 6710.7, 6727.1, 6744.3, 6764, 6779.1, 6797, 6813.9, 6834, 6849.2, 6866.8, 6884.1, 6902.5, 6922.5, 6936.4, 6955.5, 6971.1, 6990.3, 7005.8, 7023.2, 7040.6, 7057.8, 7075.4, 7098, 7117.7, 7128.9, 7162.8, 7164.9, 7183.5, 7197.8, 7215, 7233.2, 7250.2, 7267.6, 7285, 7302.7, 7319.3, 7337.7, 7354.7, 7372.1, 7390.1, 7407.2, 7424.3, 7442.4, 7459.3, 7478.2, 7494.7, 7513.4, 7529, 7547.5, 7564.2, 7584.8, 7598.8, 7616.6, 7633.8, 7653.3, 7668.9, 7689.2, 7704.5, 7723.4, 7739.7, 7757.4, 7784.2, 7812.3, 7814, 7828.7, 7843.6, 7863.6, 7879.6, 7895.9, 7916.2, 7932.2, 7948.8, 7967.9, 7985.6, 8003.4, 8018.8, 8039.1, 8056.5, 8073.3, 8088.8, 8107.4, 8125.4, 8142.2, 8158.2, 8175.5, 8193, 8210.2, 8230.7, 8245.4, 8265.9, 8282.5, 8298.5, 8315, 8333, 8352.7, 8366.8, 8385.8, 8402.7, 8427.2, 8443.8, 8470.5, 8472.8, 8488.9, 8507.4, 8524.7, 8543.8, 8559.4, 8577.1, 8594.3, 8612.6, 8629.1, 8646.6, 8664, 8682.2, 8699, 8717.4, 8733.8, 8752.5, 8769.1, 8786.1, 8804.7, 8821.9, 8838.2, 8857.4, 8873, 8893.5, 8909.6, 8926.9, 8944.5, 8963.5, 8978.5, 8995.3, 9012.9, 9030.2, 9052, 9066.5, 9083.7, 9100.1, 9118.7, 9134.8, 9153.5, 9169.8, 9187.9, 9205.2, 9225.3, 9240.1, 9257.1, 9276.3, 9293.3, 9310.2, 9331.1, 9346.3, 9366.7, 9384.6, 9401, 9418.9, 9435, 9453.7, 9469.5, 9487.1, 9506.2, 9524.2, 9539.8, 9559.8, 9577.7, 9593.3, 9609.9, 9627.3, 9646.1, 9664.5, 9680.4, 9696.7, 9715.8, 9732.9, 9748.1, 9766.9, 9785.3, 9803.8, 9819.4, 9836.6, 9879.4, 9880.9, 9889.3, 9907.3, 9926.1, 9941.5, 9960.7, 9975.7, 9994.4, 10014.2, 10029.2, 10043.8, 10065.3, 10077.3, 10097.1, 10113.4, 10132.1, 10147.1, 10165.8, 10182.9, 10199.4, 10218, 10235.2, 10255.9, 10269.3, 10288.2, 10308, 10324.9, 10340.4, 10357.6, 10375, 10394.2, 10412.7, 10428.6, 10445.7, 10461.7, 10480.3, 10496, 10517.1, 10533.4, 10547.9, 10565.6, 10582.9, 10602.9, 10618.7, 10638, 10655.7, 10673.6, 10688.2, 10706.4, 10723.7, 10740.6, 10759.9, 10779.3, 10798.2, 10816.7, 10828.2, 10845.4, 10863.8, 10882.9]","[8.6, 1.7, 22.2, 8.1, 21.5, 13.1, 21.1, 14.6, 18, 20.2, 15.4, 17.4, 18.7, 14, 17.1, 17, 17.3, 17.9, 17.4, 17.5, 17.5, 17.2, 18.1, 21, 23.3, 7.2, 17.6, 17.9, 19.2, 15.7, 17, 17.9, 17.2, 17.5, 17, 18.5, 16.5, 17.3, 17.6, 17.2, 17.8, 17.7, 17.1, 17.6, 17.4, 18.4, 16.5, 17.4, 17.4, 17.4, 17.8, 17.4, 17.2, 17.7, 18.4, 16.4, 17.4, 18.6, 16.9, 18.7, 17.4, 16.4, 17.2, 19.7, 15.1, 17.9, 16.9, 20.1, 15.2, 17.6, 17.3, 18.4, 20, 13.9, 19.1, 15.6, 19.2, 15.5, 17.4, 17.4, 17.2, 17.6, 22.6, 19.7, 11.2, 33.9, 2.1, 18.6, 14.3, 17.2, 18.2, 17, 17.4, 17.4, 17.7, 16.6, 18.4, 17, 17.4, 18, 17.1, 17.1, 18.1, 16.9, 18.9, 16.5, 18.7, 15.6, 18.5, 16.7, 20.6, 14, 17.8, 17.2, 19.5, 15.6, 20.3, 15.3, 18.9, 16.3, 17.7, 26.8, 28.1, 1.7, 14.7, 14.9, 20, 16, 16.3, 20.3, 16, 16.6, 19.1, 17.7, 17.8, 15.4, 20.3, 17.4, 16.8, 15.5, 18.6, 18, 16.8, 16, 17.3, 17.5, 17.2, 20.5, 14.7, 20.5, 16.6, 16, 16.5, 18, 19.7, 14.1, 19, 16.9, 24.5, 16.6, 26.7, 2.3, 16.1, 18.5, 17.3, 19.1, 15.6, 17.7, 17.2, 18.3, 16.5, 17.5, 17.4, 18.2, 16.8, 18.4, 16.4, 18.7, 16.6, 17, 18.6, 17.2, 16.3, 19.2, 15.6, 20.5, 16.1, 17.3, 17.6, 19, 15, 16.8, 17.6, 17.3, 21.8, 14.5, 17.2, 16.4, 18.6, 16.1, 18.7, 16.3, 18.1, 17.3, 20.1, 14.8, 17, 19.2, 17, 16.9, 20.9, 15.2, 20.4, 17.9, 16.4, 17.9, 16.1, 18.7, 15.8, 17.6, 19.1, 18, 15.6, 20, 17.9, 15.6, 16.6, 17.4, 18.8, 18.4, 15.9, 16.3, 19.1, 17.1, 15.2, 18.8, 18.4, 18.5, 15.6, 17.2, 42.8, 1.5, 8.4, 18, 18.8, 15.4, 19.2, 15, 18.7, 19.8, 15, 14.6, 21.5, 12, 19.8, 16.3, 18.7, 15, 18.7, 17.1, 16.5, 18.6, 17.2, 20.7, 13.4, 18.9, 19.8, 16.9, 15.5, 17.2, 17.4, 19.2, 18.5, 15.9, 17.1, 16, 18.6, 15.7, 21.1, 16.3, 14.5, 17.7, 17.3, 20, 15.8, 19.3, 17.7, 17.9, 14.6, 18.2, 17.3, 16.9, 19.3, 19.4, 18.9, 18.5, 11.5, 17.2, 18.4, 19.1]",58.0,54.0,57.0,5222.8,[],,,,,,,,,,,,,,,,,,,,,,,,,HRV,HRV_0088,2022-11-30 18:06:12
,wl-html-keyboard-response,2,23892,0.0-2.0-0.0,0.0,3.0,,,,,,,,12942.5,0.0,0,,,,,,,,,,,,,,,,,,,,,,HRV,HRV_0088,2022-11-30 18:06:12
,wl-rdm,3,31264,0.0-3.0-0.0,0.0,4.0,,,,,,,[],,,,0.0,0.0,87.9,0.0,u,0.0,True,1764.4000000357628,101.0,57.0,40.0,False,,3000.0,[],"[640, 360]",ColorTask_Demo,,,,,HRV,HRV_0088,2022-11-30 18:06:12
,wl-rdm,4,36184,0.0-3.0-1.0,0.0,5.0,,,,,,,[],,,,0.0,0.0,87.9,1.0,i,1.0,True,831.3000000119209,48.0,57.0,40.0,False,,2000.0,[],"[640, 360]",ColorTask_Demo,,,,,HRV,HRV_0088,2022-11-30 18:06:12
,wl-html-keyboard-response,5,43194,0.0-3.0-2.0,0.0,6.0,,,,,,,,5001.300000011921,0.0,1,,,,,,,,,,,,,,,,,,,,,,HRV,HRV_0088,2022-11-30 18:06:12
,wl-html-keyboard-response,6,52667,0.0-4.0-0.0,0.0,7.0,,,,,,,,7464.400000035763,0.0,0,,,,,,,,,,,,,,,,,,,,,,HRV,HRV_0088,2022-11-30 18:06:12
,wl-html-keyboard-response,7,60267,0.0-5.0-0.0,0.0,8.0,,,,,,,,5585.300000011921,0.0,0,,,,,,,,,,,,,,,,,,,,,,HRV,HRV_0088,2022-11-30 18:06:12
,wl-rdm,8,62394,0.0-6.0-0.0,0.0,9.0,,,,,,,[],,,,,,73.6,1.0,i,1.0,True,748.1999999880791,43.0,57.0,40.0,False,,298.131216075509,[],"[640, 360]",ColorTask,1.0,1.0,,,HRV,HRV_0088,2022-11-30 18:06:12
,wl-rdm,9,64382,0.0-6.1-0.1,0.0,10.0,,,,,,,[],,,,,,87.9,0.0,u,0.0,True,694.3000000119209,40.0,57.0,40.0,False,,215.725664191622,[],"[640, 360]",ColorTask,2.0,2.0,,,HRV,HRV_0088,2022-11-30 18:06:12
,wl-rdm,10,66634,0.0-6.2-0.2,0.0,11.0,,,,,,,[],,,,,,62.5,0.0,u,0.0,True,929.5,54.0,57.0,40.0,False,,244.10927947777338,[],"[640, 360]",ColorTask,3.0,3.0,,,HRV,HRV_0088,2022-11-30 18:06:12
,wl-rdm,11,68729,0.0-6.3-0.3,0.0,12.0,,,,,,,[],,,,,,87.9,0.0,u,0.0,True,677.3000000119209,39.0,57.0,40.0,False,,337.10321441236533,[],"[640, 360]",ColorTask,4.0,4.0,,,HRV,HRV_0088,2022-11-30 18:06:12
,wl-rdm,12,70892,0.0-6.4-0.4,0.0,13.0,,,,,,,[],,,,,,87.9,0.0,u,0.0,True,772.7999999523163,45.0,57.0,40.0,False,,298.04573102844785,[],"[640, 360]",ColorTask,5.0,5.0,,,HRV,HRV_0088,2022-11-30 18:06:12
,wl-rdm,13,72812,0.0-6.5-0.5,0.0,14.0,,,,,,,[],,,,,,50.0,0.0,i,1.0,False,608.5,35.0,57.0,40.0,False,,237.4981103872822,[],"[640, 360]",ColorTask,4.0,6.0,,,HRV,HRV_0088,2022-11-30 18:06:12
,wl-rdm,14,75011,0.0-6.6-0.6,0.0,15.0,,,,,,,[],,,,,,53.2,1.0,i,1.0,True,898.2999999523163,52.0,57.0,40.0,False,,220.9573785221641,[],"[640, 360]",ColorTask,5.0,7.0,,,HRV,HRV_0088,2022-11-30 18:06:12
,wl-rdm,15,77244,0.0-6.7-0.7,0.0,16.0,,,,,,,[],,,,,,53.2,0.0,i,1.0,False,817.7999999523163,47.0,57.0,40.0,False,,339.8914035675774,[],"[640, 360]",ColorTask,4.0,8.0,,,HRV,HRV_0088,2022-11-30 18:06:12
,wl-rdm,16,79530,0.0-6.8-0.8,0.0,17.0,,,,,,,[],,,,,,56.4,0.0,i,1.0,False,963.7000000476837,56.0,57.0,40.0,False,,227.1522879920117,[],"[640, 360]",ColorTask,3.0,9.0,,,HRV,HRV_0088,2022-11-30 18:06:12
,wl-rdm,17,81537,0.0-6.9-0.9,0.0,18.0,,,,,,,[],,,,,,50.0,0.0,u,0.0,True,729.1000000238419,42.0,57.0,40.0,False,,201.02075926390853,[],"[640, 360]",ColorTask,4.0,10.0,,,HRV,HRV_0088,2022-11-30 18:06:12
,wl-rdm,18,83876,0.0-6.10-0.10,0.0,19.0,,,,,,,[],,,,,,73.6,1.0,i,1.0,True,948.0,54.0,57.0,40.0,False,,309.61747645280025,[],"[640, 360]",ColorTask,5.0,11.0,,,HRV,HRV_0088,2022-11-30 18:06:12
,wl-rdm,19,85952,0.0-6.11-0.11,0.0,20.0,,,,,,,[],,,,,,62.5,1.0,i,1.0,True,721.8000000119209,42.0,57.0,40.0,False,,268.2940763765456,[],"[640, 360]",ColorTask,6.0,12.0,,,HRV,HRV_0088,2022-11-30 18:06:12
,wl-rdm,20,88045,0.0-6.12-0.12,0.0,21.0,,,,,,,[],,,,,,87.9,1.0,i,1.0,True,685.1999999880791,40.0,57.0,40.0,False,,319.48022506617326,[],"[640, 360]",ColorTask,7.0,13.0,,,HRV,HRV_0088,2022-11-30 18:06:12
,wl-rdm,21,90156,0.0-6.13-0.13,0.0,22.0,,,,,,,[],,,,,,62.5,0.0,u,0.0,True,813.1999999880791,47.0,57.0,40.0,False,,224.04174976509904,[],"[640, 360]",ColorTask,8.0,14.0,,,HRV,HRV_0088,2022-11-30 18:06:12
,wl-rdm,22,92340,0.0-6.14-0.14,0.0,23.0,,,,,,,[],,,,,,87.9,1.0,i,1.0,True,845.8999999761581,49.0,57.0,40.0,False,,252.68010501069335,[],"[640, 360]",ColorTask,9.0,15.0,,,HRV,HRV_0088,2022-11-30 18:06:12
,wl-rdm,23,94486,0.0-6.15-0.15,0.0,24.0,,,,,,,[],,,,,,53.2,0.0,u,0.0,True,740.7000000476837,43.0,57.0,40.0,False,,320.2038415172452,[],"[640, 360]",ColorTask,10.0,16.0,,,HRV,HRV_0088,2022-11-30 18:06:12
,wl-rdm,24,96753,0.0-6.16-0.16,0.0,25.0,,,,,,,[],,,,,,62.5,0.0,u,0.0,True,863.2000000476837,49.0,57.0,40.0,False,,319.7663233344463,[],"[640, 360]",ColorTask,11.0,17.0,,,HRV,HRV_0088,2022-11-30 18:06:12
,wl-rdm,25,99005,0.0-6.17-0.17,0.0,26.0,,,,,,,[],,,,,,50.0,0.0,u,0.0,True,911.3999999761581,53.0,57.0,40.0,False,,255.81474807034675,[],"[640, 360]",ColorTask,12.0,18.0,,,HRV,HRV_0088,2022-11-30 18:06:12
,wl-rdm,26,101326,0.0-6.18-0.18,0.0,27.0,,,,,,,[],,,,,,62.5,0.0,u,0.0,True,1011.8000000119209,58.0,57.0,40.0,False,,229.61879257195017,[],"[640, 360]",ColorTask,13.0,19.0,,,HRV,HRV_0088,2022-11-30 18:06:12
,wl-rdm,27,103403,0.0-6.19-0.19,0.0,28.0,,,,,,,[],,,,,,53.2,1.0,i,1.0,True,759.4000000357628,44.0,57.0,40.0,False,,239.3219378062978,[],"[640, 360]",ColorTask,14.0,20.0,,,HRV,HRV_0088,2022-11-30 18:06:12
,wl-rdm,28,105618,0.0-6.20-0.20,0.0,29.0,,,,,,,[],,,,,,56.4,1.0,i,1.0,True,793.4000000357628,46.0,57.0,40.0,False,,339.3980559672726,[],"[640, 360]",ColorTask,15.0,21.0,,,HRV,HRV_0088,2022-11-30 18:06:12
,wl-rdm,29,108026,0.0-6.21-0.21,0.0,30.0,,,,,,,[],,,,,,50.0,1.0,u,0.0,False,1017.0,58.0,57.0,40.0,False,,311.64762304629807,[],"[640, 360]",ColorTask,14.0,22.0,,,HRV,HRV_0088,2022-11-30 18:06:12
,wl-rdm,30,110155,0.0-6.22-0.22,0.0,31.0,,,,,,,[],,,,,,56.4,0.0,i,1.0,False,728.3000000119209,42.0,57.0,40.0,False,,327.49944870304427,[],"[640, 360]",ColorTask,13.0,23.0,,,HRV,HRV_0088,2022-11-30 18:06:12
,wl-rdm,31,112388,0.0-6.23-0.23,0.0,32.0,,,,,,,[],,,,,,62.5,0.0,u,0.0,True,833.6000000238419,48.0,57.0,40.0,False,,322.61827259695434,[],"[640, 360]",ColorTask,14.0,24.0,,,HRV,HRV_0088,2022-11-30 18:06:12
,wl-rdm,32,114412,0.0-6.24-0.24,0.0,33.0,,,,,,,[],,,,,,62.5,1.0,i,1.0,True,704.1000000834465,41.0,57.0,40.0,False,,244.12060574613545,[],"[640, 360]",ColorTask,15.0,25.0,,,HRV,HRV_0088,2022-11-30 18:06:12
,wl-rdm,33,116420,0.0-6.25-0.25,0.0,34.0,,,,,,,[],,,,,,56.4,0.0,i,1.0,False,674.1000000238419,38.0,57.0,40.0,False,,250.69012165707176,[],"[640, 360]",ColorTask,14.0,26.0,,,HRV,HRV_0088,2022-11-30 18:06:12
,wl-rdm,34,118688,0.0-6.26-0.26,0.0,35.0,,,,,,,[],,,,,,53.2,1.0,i,1.0,True,859.1999999880791,50.0,57.0,40.0,False,,323.42059928808027,[],"[640, 360]",ColorTask,15.0,27.0,,,HRV,HRV_0088,2022-11-30 18:06:12
,wl-rdm,35,120974,0.0-6.27-0.27,0.0,36.0,,,,,,,[],,,,,,62.5,1.0,i,1.0,True,882.5999999642372,51.0,57.0,40.0,False,,334.5598598991313,[],"[640, 360]",ColorTask,16.0,28.0,,,HRV,HRV_0088,2022-11-30 18:06:12
,wl-rdm,36,123330,0.0-6.28-0.28,0.0,37.0,,,,,,,[],,,,,,50.0,1.0,i,1.0,True,981.4000000357628,57.0,57.0,40.0,False,,267.9254899649501,[],"[640, 360]",ColorTask,17.0,29.0,,,HRV,HRV_0088,2022-11-30 18:06:12
,wl-rdm,37,125373,0.0-6.29-0.29,0.0,38.0,,,,,,,[],,,,,,73.6,1.0,i,1.0,True,615.5,36.0,57.0,40.0,False,,351.9764610024233,[],"[640, 360]",ColorTask,18.0,30.0,,,HRV,HRV_0088,2022-11-30 18:06:12
,wl-rdm,38,127292,0.0-6.30-0.30,0.0,39.0,,,,,,,[],,,,,,56.4,1.0,i,1.0,True,656.3000000119209,35.0,57.0,40.0,False,,208.09496443563302,[],"[640, 360]",ColorTask,19.0,31.0,,,HRV,HRV_0088,2022-11-30 18:06:12
,wl-rdm,39,129351,0.0-6.31-0.31,0.0,40.0,,,,,,,[],,,,,,50.0,0.0,i,1.0,False,696.8000000119209,40.0,57.0,40.0,False,,295.42049167927894,[],"[640, 360]",ColorTask,18.0,32.0,,,HRV,HRV_0088,2022-11-30 18:06:12
,wl-rdm,40,131445,0.0-6.32-0.32,0.0,41.0,,,,,,,[],,,,,,73.6,0.0,u,0.0,True,729.8999999761581,42.0,57.0,40.0,False,,292.2381800156989,[],"[640, 360]",ColorTask,19.0,33.0,,,HRV,HRV_0088,2022-11-30 18:06:12
,wl-rdm,41,133766,0.0-6.33-0.33,0.0,42.0,,,,,,,[],,,,,,62.5,0.0,u,0.0,True,983.9999999403954,57.0,57.0,40.0,False,,253.07714788212104,[],"[640, 360]",ColorTask,20.0,34.0,,,HRV,HRV_0088,2022-11-30 18:06:12
,wl-rdm,42,135966,0.0-6.34-0.34,0.0,43.0,,,,,,,[],,,,,,53.2,1.0,i,1.0,True,816.1000000238419,47.0,57.0,40.0,False,,304.2924559384975,[],"[640, 360]",ColorTask,21.0,35.0,,,HRV,HRV_0088,2022-11-30 18:06:12
,wl-rdm,43,138111,0.0-6.35-0.35,0.0,44.0,,,,,,,[],,,,,,87.9,0.0,u,0.0,True,796.7999999523163,46.0,57.0,40.0,False,,272.5873175588554,[],"[640, 360]",ColorTask,22.0,36.0,,,HRV,HRV_0088,2022-11-30 18:06:12
,wl-rdm,44,140310,0.0-6.36-0.36,0.0,45.0,,,,,,,[],,,,,,62.5,1.0,i,1.0,True,754.1999999284744,44.0,57.0,40.0,False,,366.51628536570786,[],"[640, 360]",ColorTask,23.0,37.0,,,HRV,HRV_0088,2022-11-30 18:06:12
,wl-rdm,45,142823,0.0-6.37-0.37,0.0,46.0,,,,,,,[],,,,,,56.4,0.0,i,1.0,False,1097.0,63.0,57.0,40.0,False,,346.8560546764544,[],"[640, 360]",ColorTask,22.0,38.0,,,HRV,HRV_0088,2022-11-30 18:06:12
,wl-rdm,46,144935,0.0-6.38-0.38,0.0,47.0,,,,,,,[],,,,,,62.5,1.0,i,1.0,True,806.3000000715256,47.0,57.0,40.0,False,,216.3129491180562,[],"[640, 360]",ColorTask,23.0,39.0,,,HRV,HRV_0088,2022-11-30 18:06:12
,wl-rdm,47,147325,0.0-6.39-0.39,0.0,48.0,,,,,,,[],,,,,,56.4,1.0,i,1.0,True,942.3999999761581,55.0,57.0,40.0,False,,369.7260900957813,[],"[640, 360]",ColorTask,24.0,40.0,,,HRV,HRV_0088,2022-11-30 18:06:12
,wl-rdm,48,149333,0.0-6.40-0.40,0.0,49.0,,,,,,,[],,,,,,87.9,0.0,u,0.0,True,675.3999999761581,39.0,57.0,40.0,False,,269.09100395147993,[],"[640, 360]",ColorTask,25.0,41.0,,,HRV,HRV_0088,2022-11-30 18:06:12
,wl-rdm,49,151534,0.0-6.41-0.41,0.0,50.0,,,,,,,[],,,,,,53.2,1.0,i,1.0,True,913.6000000238419,53.0,57.0,40.0,False,,205.8231297121202,[],"[640, 360]",ColorTask,26.0,42.0,,,HRV,HRV_0088,2022-11-30 18:06:12
,wl-rdm,50,153712,0.0-6.42-0.42,0.0,51.0,,,,,,,[],,,,,,73.6,0.0,u,0.0,True,790.7999999523163,46.0,57.0,40.0,False,,299.4097902627979,[],"[640, 360]",ColorTask,27.0,43.0,,,HRV,HRV_0088,2022-11-30 18:06:12
,wl-rdm,51,155980,0.0-6.43-0.43,0.0,52.0,,,,,,,[],,,,,,53.2,0.0,u,0.0,True,924.6000000238419,53.0,57.0,40.0,False,,273.80639606661134,[],"[640, 360]",ColorTask,28.0,44.0,,,HRV,HRV_0088,2022-11-30 18:06:12
,wl-rdm,52,158215,0.0-6.44-0.44,0.0,53.0,,,,,,,[],,,,,,53.2,0.0,u,0.0,True,896.4000000357628,52.0,57.0,40.0,False,,251.04644241947233,[],"[640, 360]",ColorTask,29.0,45.0,,,HRV,HRV_0088,2022-11-30 18:06:12
,wl-rdm,53,160308,0.0-6.45-0.45,0.0,54.0,,,,,,,[],,,,,,50.0,1.0,i,1.0,True,795.1000000238419,46.0,57.0,40.0,False,,216.07756271546629,[],"[640, 360]",ColorTask,30.0,46.0,,,HRV,HRV_0088,2022-11-30 18:06:12
,wl-rdm,54,162367,0.0-6.46-0.46,0.0,55.0,,,,,,,[],,,,,,56.4,1.0,i,1.0,True,702.2999999523163,41.0,57.0,40.0,False,,268.4087049426728,[],"[640, 360]",ColorTask,31.0,47.0,,,HRV,HRV_0088,2022-11-30 18:06:12
,wl-rdm,55,164322,0.0-6.47-0.47,0.0,56.0,,,,,,,[],,,,,,73.6,1.0,i,1.0,True,654.3000000119209,38.0,57.0,40.0,False,,220.6576413666693,[],"[640, 360]",ColorTask,32.0,48.0,,,HRV,HRV_0088,2022-11-30 18:06:12
,wl-rdm,56,166660,0.0-6.48-0.48,0.0,57.0,,,,,,,[],,,,,,53.2,1.0,i,1.0,True,1016.7999999523163,59.0,57.0,40.0,False,,232.34319215162856,[],"[640, 360]",ColorTask,33.0,49.0,,,HRV,HRV_0088,2022-11-30 18:06:12
,wl-rdm,57,168737,0.0-6.49-0.49,0.0,58.0,,,,,,,[],,,,,,73.6,1.0,i,1.0,True,757.8000000119209,44.0,57.0,40.0,False,,246.7621691900622,[],"[640, 360]",ColorTask,34.0,50.0,,,HRV,HRV_0088,2022-11-30 18:06:12
,wl-rdm,58,171005,0.0-6.50-0.50,0.0,59.0,,,,,,,[],,,,,,56.4,1.0,i,1.0,True,971.3999999761581,56.0,57.0,40.0,False,,228.16398290369227,[],"[640, 360]",ColorTask,35.0,51.0,,,HRV,HRV_0088,2022-11-30 18:06:12
,wl-rdm,59,173099,0.0-6.51-0.51,0.0,60.0,,,,,,,[],,,,,,73.6,0.0,u,0.0,True,794.2999999523163,46.0,57.0,40.0,False,,211.7278997177263,[],"[640, 360]",ColorTask,36.0,52.0,,,HRV,HRV_0088,2022-11-30 18:06:12
,wl-rdm,60,175385,0.0-6.52-0.52,0.0,61.0,,,,,,,[],,,,,,53.2,0.0,u,0.0,True,815.6000000834465,47.0,57.0,40.0,False,,386.81848427763055,[],"[640, 360]",ColorTask,37.0,53.0,,,HRV,HRV_0088,2022-11-30 18:06:12
,wl-rdm,61,177601,0.0-6.53-0.53,0.0,62.0,,,,,,,[],,,,,,53.2,0.0,u,0.0,True,826.5,48.0,57.0,40.0,False,,302.0636846591259,[],"[640, 360]",ColorTask,38.0,54.0,,,HRV,HRV_0088,2022-11-30 18:06:12
,wl-rdm,62,179887,0.0-6.54-0.54,0.0,63.0,,,,,,,[],,,,,,87.9,1.0,i,1.0,True,989.1999999880791,56.0,57.0,40.0,False,,212.91234116805157,[],"[640, 360]",ColorTask,39.0,55.0,,,HRV,HRV_0088,2022-11-30 18:06:12
,wl-rdm,63,182121,0.0-6.55-0.55,0.0,64.0,,,,,,,[],,,,,,56.4,1.0,i,1.0,True,808.8000000119209,47.0,57.0,40.0,False,,333.36563369631625,[],"[640, 360]",ColorTask,40.0,56.0,,,HRV,HRV_0088,2022-11-30 18:06:12
,wl-rdm,64,184250,0.0-6.56-0.56,0.0,65.0,,,,,,,[],,,,,,87.9,1.0,i,1.0,True,678.4999999403954,39.0,57.0,40.0,False,,369.56020599296994,[],"[640, 360]",ColorTask,41.0,57.0,,,HRV,HRV_0088,2022-11-30 18:06:12
,wl-rdm,65,186274,0.0-6.57-0.57,0.0,66.0,,,,,,,[],,,,,,50.0,0.0,u,0.0,True,704.3000000119209,41.0,57.0,40.0,False,,227.10722486657903,[],"[640, 360]",ColorTask,42.0,58.0,,,HRV,HRV_0088,2022-11-30 18:06:12
,wl-rdm,66,188613,0.0-6.58-0.58,0.0,67.0,,,,,,,[],,,,,,62.5,0.0,u,0.0,True,989.7000000476837,57.0,57.0,40.0,False,,267.5766104050847,[],"[640, 360]",ColorTask,43.0,59.0,,,HRV,HRV_0088,2022-11-30 18:06:12
,wl-rdm,67,190725,0.0-6.59-0.59,0.0,68.0,,,,,,,[],,,,,,87.9,0.0,u,0.0,True,736.3000000119209,43.0,57.0,40.0,False,,285.63557452966154,[],"[640, 360]",ColorTask,44.0,60.0,,,HRV,HRV_0088,2022-11-30 18:06:12
,wl-rdm,68,192731,0.0-6.60-0.60,0.0,69.0,,,,,,,[],,,,,,56.4,0.0,u,0.0,True,637.7999999523163,37.0,57.0,40.0,False,,309.49259816163317,[],"[640, 360]",ColorTask,45.0,61.0,,,HRV,HRV_0088,2022-11-30 18:06:12
,wl-rdm,69,195196,0.0-6.61-0.61,0.0,70.0,,,,,,,[],,,,,,50.0,0.0,u,0.0,True,1115.800000011921,64.0,57.0,40.0,False,,270.45473653873574,[],"[640, 360]",ColorTask,46.0,62.0,,,HRV,HRV_0088,2022-11-30 18:06:12
,wl-rdm,70,197285,0.0-6.62-0.62,0.0,71.0,,,,,,,[],,,,,,62.5,0.0,u,0.0,True,697.8999999761581,40.0,57.0,40.0,False,,322.3988514041995,[],"[640, 360]",ColorTask,47.0,63.0,,,HRV,HRV_0088,2022-11-30 18:06:12
,wl-rdm,71,199414,0.0-6.63-0.63,0.0,72.0,,,,,,,[],,,,,,62.5,1.0,i,1.0,True,776.1999999880791,45.0,57.0,40.0,False,,262.96044031045557,[],"[640, 360]",ColorTask,48.0,64.0,,,HRV,HRV_0088,2022-11-30 18:06:12
,wl-rdm,72,201491,0.0-6.64-0.64,0.0,73.0,,,,,,,[],,,,,,56.4,1.0,i,1.0,True,669.6999999880791,39.0,57.0,40.0,False,,332.33234937878456,[],"[640, 360]",ColorTask,49.0,65.0,,,HRV,HRV_0088,2022-11-30 18:06:12
,wl-rdm,73,203864,0.0-6.65-0.65,0.0,74.0,,,,,,,[],,,,,,56.4,0.0,u,0.0,True,1036.8999999761581,60.0,57.0,40.0,False,,245.71184256798094,[],"[640, 360]",ColorTask,50.0,66.0,,,HRV,HRV_0088,2022-11-30 18:06:12
,wl-rdm,74,206289,0.0-6.66-0.66,0.0,75.0,,,,,,,[],,,,,,50.0,0.0,i,1.0,False,1125.4000000357628,65.0,57.0,40.0,False,,221.27228507720585,[],"[640, 360]",ColorTask,49.0,67.0,,,HRV,HRV_0088,2022-11-30 18:06:12
,wl-rdm,75,208663,0.0-6.67-0.67,0.0,76.0,,,,,,,[],,,,,,73.6,1.0,i,1.0,True,1091.300000011921,63.0,57.0,40.0,False,,207.75909314172054,[],"[640, 360]",ColorTask,50.0,68.0,,,HRV,HRV_0088,2022-11-30 18:06:12
,wl-rdm,76,211088,0.0-6.68-0.68,0.0,77.0,,,,,,,[],,,,,,50.0,1.0,u,0.0,False,1059.3999999761581,60.0,57.0,40.0,False,,284.768103474443,[],"[640, 360]",ColorTask,49.0,69.0,,,HRV,HRV_0088,2022-11-30 18:06:12
,wl-rdm,77,213534,0.0-6.69-0.69,0.0,78.0,,,,,,,[],,,,,,73.6,0.0,u,0.0,True,1001.5000000596046,58.0,57.0,40.0,False,,355.49457282830497,[],"[640, 360]",ColorTask,50.0,70.0,,,HRV,HRV_0088,2022-11-30 18:06:12
,wl-rdm,78,215730,0.0-6.70-0.70,0.0,79.0,,,,,,,[],,,,,,62.5,1.0,i,1.0,True,867.0,49.0,57.0,40.0,False,,254.8190531222818,[],"[640, 360]",ColorTask,51.0,71.0,,,HRV,HRV_0088,2022-11-30 18:06:12
,wl-rdm,79,218103,0.0-6.71-0.71,0.0,80.0,,,,,,,[],,,,,,50.0,1.0,i,1.0,True,1052.5999999642372,61.0,57.0,40.0,False,,242.0065734809041,[],"[640, 360]",ColorTask,52.0,72.0,,,HRV,HRV_0088,2022-11-30 18:06:12
,wl-rdm,80,220355,0.0-6.72-0.72,0.0,81.0,,,,,,,[],,,,,,73.6,1.0,i,1.0,True,812.5,46.0,57.0,40.0,False,,360.2729663616144,[],"[640, 360]",ColorTask,53.0,73.0,,,HRV,HRV_0088,2022-11-30 18:06:12
,wl-rdm,81,222746,0.0-6.73-0.73,0.0,82.0,,,,,,,[],,,,,,53.2,1.0,u,0.0,False,1016.1999999880791,59.0,57.0,40.0,False,,287.79720223269555,[],"[640, 360]",ColorTask,52.0,74.0,,,HRV,HRV_0088,2022-11-30 18:06:12
,wl-rdm,82,225119,0.0-6.74-0.74,0.0,83.0,,,,,,,[],,,,,,53.2,1.0,u,0.0,False,1041.0,60.0,57.0,40.0,False,,279.32580863208636,[],"[640, 360]",ColorTask,51.0,75.0,,,HRV,HRV_0088,2022-11-30 18:06:12
,wl-rdm,83,227545,0.0-6.75-0.75,0.0,84.0,,,,,,,[],,,,,,73.6,0.0,u,0.0,True,1071.8999999761581,62.0,57.0,40.0,False,,286.7101302024698,[],"[640, 360]",ColorTask,52.0,76.0,,,HRV,HRV_0088,2022-11-30 18:06:12
,wl-rdm,84,229725,0.0-6.76-0.76,0.0,85.0,,,,,,,[],,,,,,87.9,1.0,i,1.0,True,886.0999999642372,51.0,57.0,40.0,False,,222.8642234814638,[],"[640, 360]",ColorTask,53.0,77.0,,,HRV,HRV_0088,2022-11-30 18:06:12
,wl-rdm,85,232013,0.0-6.77-0.77,0.0,86.0,,,,,,,[],,,,,,50.0,1.0,i,1.0,True,951.9999999403954,55.0,57.0,40.0,False,,223.14801949734093,[],"[640, 360]",ColorTask,54.0,78.0,,,HRV,HRV_0088,2022-11-30 18:06:12
,wl-rdm,86,234333,0.0-6.78-0.78,0.0,87.0,,,,,,,[],,,,,,53.2,1.0,u,0.0,False,889.2000000476837,51.0,57.0,40.0,False,,354.82654337559063,[],"[640, 360]",ColorTask,53.0,79.0,,,HRV,HRV_0088,2022-11-30 18:06:12
,wl-rdm,87,236479,0.0-6.79-0.79,0.0,88.0,,,,,,,[],,,,,,73.6,1.0,i,1.0,True,760.6000000238419,45.0,57.0,40.0,False,,304.58090839724423,[],"[640, 360]",ColorTask,54.0,80.0,,,HRV,HRV_0088,2022-11-30 18:06:12
,wl-rdm,88,238643,0.0-6.80-0.80,0.0,89.0,,,,,,,[],,,,,,73.6,0.0,u,0.0,True,882.4000000357628,51.0,57.0,40.0,False,,205.5341908450689,[],"[640, 360]",ColorTask,55.0,81.0,,,HRV,HRV_0088,2022-11-30 18:06:12
,wl-rdm,89,240911,0.0-6.81-0.81,0.0,90.0,,,,,,,[],,,,,,87.9,1.0,i,1.0,True,829.4999999403954,47.0,57.0,40.0,False,,375.41774586127815,[],"[640, 360]",ColorTask,56.0,82.0,,,HRV,HRV_0088,2022-11-30 18:06:12
,wl-rdm,90,243407,0.0-6.82-0.82,0.0,91.0,,,,,,,[],,,,,,50.0,1.0,u,0.0,False,1159.0,67.0,57.0,40.0,False,,251.44516204344197,[],"[640, 360]",ColorTask,55.0,83.0,,,HRV,HRV_0088,2022-11-30 18:06:12
,wl-rdm,91,245797,0.0-6.83-0.83,0.0,92.0,,,,,,,[],,,,,,53.2,0.0,u,0.0,True,999.5999999642372,58.0,57.0,40.0,False,,310.87936569252685,[],"[640, 360]",ColorTask,56.0,84.0,,,HRV,HRV_0088,2022-11-30 18:06:12
,wl-rdm,92,248188,0.0-6.84-0.84,0.0,93.0,,,,,,,[],,,,,,53.2,0.0,u,0.0,True,946.5999999642372,55.0,57.0,40.0,False,,360.69693542014625,[],"[640, 360]",ColorTask,57.0,85.0,,,HRV,HRV_0088,2022-11-30 18:06:12
,wl-rdm,93,250171,0.0-6.85-0.85,0.0,94.0,,,,,,,[],,,,,,87.9,0.0,u,0.0,True,645.5000000596046,37.0,57.0,40.0,False,,234.3120705623635,[],"[640, 360]",ColorTask,58.0,86.0,,,HRV,HRV_0088,2022-11-30 18:06:12
,wl-rdm,94,252307,0.0-6.86-0.86,0.0,95.0,,,,,,,[],,,,,,87.9,0.0,u,0.0,True,777.1999999880791,45.0,57.0,40.0,False,,284.8490232239718,[],"[640, 360]",ColorTask,59.0,87.0,,,HRV,HRV_0088,2022-11-30 18:06:12
,wl-rdm,95,255029,0.0-6.87-0.87,0.0,96.0,,,,,,,[],,,,,,62.5,1.0,i,1.0,True,1347.0,78.0,57.0,40.0,False,,308.44639860608106,[],"[640, 360]",ColorTask,60.0,88.0,,,HRV,HRV_0088,2022-11-30 18:06:12
,wl-rdm,96,257298,0.0-6.88-0.88,0.0,97.0,,,,,,,[],,,,,,56.4,0.0,u,0.0,True,806.9999999403954,47.0,57.0,40.0,False,,391.42875093897186,[],"[640, 360]",ColorTask,61.0,89.0,,,HRV,HRV_0088,2022-11-30 18:06:12
,wl-rdm,97,259620,0.0-6.89-0.89,0.0,98.0,,,,,,,[],,,,,,53.2,0.0,u,0.0,True,1052.6000000238419,60.0,57.0,40.0,False,,202.73842237802953,[],"[640, 360]",ColorTask,62.0,90.0,,,HRV,HRV_0088,2022-11-30 18:06:12
,wl-rdm,98,261766,0.0-6.90-0.90,0.0,99.0,,,,,,,[],,,,,,73.6,1.0,i,1.0,True,835.4999999403954,48.0,57.0,40.0,False,,234.33503317438635,[],"[640, 360]",ColorTask,63.0,91.0,,,HRV,HRV_0088,2022-11-30 18:06:12
,wl-rdm,99,264155,0.0-6.91-0.91,0.0,100.0,,,,,,,[],,,,,,62.5,0.0,u,0.0,True,1076.5000000596046,62.0,57.0,40.0,False,,237.19577931833305,[],"[640, 360]",ColorTask,64.0,92.0,,,HRV,HRV_0088,2022-11-30 18:06:12
,wl-rdm,100,266166,0.0-6.92-0.92,0.0,101.0,,,,,,,[],,,,,,87.9,1.0,i,1.0,True,729.9000000357628,42.0,57.0,40.0,False,,201.52799103072377,[],"[640, 360]",ColorTask,65.0,93.0,,,HRV,HRV_0088,2022-11-30 18:06:12
,wl-rdm,101,268658,0.0-6.93-0.93,0.0,102.0,,,,,,,[],,,,,,56.4,0.0,i,1.0,False,1094.8999999761581,63.0,57.0,40.0,False,,321.60750142055326,[],"[640, 360]",ColorTask,64.0,94.0,,,HRV,HRV_0088,2022-11-30 18:06:12
,wl-rdm,102,271066,0.0-6.94-0.94,0.0,103.0,,,,,,,[],,,,,,56.4,1.0,i,1.0,True,931.6999999284744,54.0,57.0,40.0,False,,397.481749645623,[],"[640, 360]",ColorTask,65.0,95.0,,,HRV,HRV_0088,2022-11-30 18:06:12
,wl-rdm,103,273806,0.0-6.95-0.95,0.0,104.0,,,,,,,[],,,,,,62.5,1.0,u,0.0,False,1273.8999999761581,73.0,57.0,40.0,False,,389.4021155917037,[],"[640, 360]",ColorTask,64.0,96.0,,,HRV,HRV_0088,2022-11-30 18:06:12
,wl-rdm,104,276214,0.0-6.96-0.96,0.0,105.0,,,,,,,[],,,,,,56.4,1.0,u,0.0,False,1035.6000000238419,60.0,57.0,40.0,False,,310.48296490074824,[],"[640, 360]",ColorTask,63.0,97.0,,,HRV,HRV_0088,2022-11-30 18:06:12
,wl-rdm,105,278361,0.0-6.97-0.97,0.0,106.0,,,,,,,[],,,,,,87.9,1.0,i,1.0,True,692.0,40.0,57.0,40.0,False,,394.62651001181064,[],"[640, 360]",ColorTask,64.0,98.0,,,HRV,HRV_0088,2022-11-30 18:06:12
,wl-rdm,106,280472,0.0-6.98-0.98,0.0,107.0,,,,,,,[],,,,,,87.9,0.0,u,0.0,True,765.6000000238419,44.0,57.0,40.0,False,,214.72836570066158,[],"[640, 360]",ColorTask,65.0,99.0,,,HRV,HRV_0088,2022-11-30 18:06:12
,wl-rdm,107,283246,0.0-6.99-0.99,0.0,108.0,,,,,,,[],,,,,,50.0,0.0,u,0.0,True,1481.0,85.0,57.0,40.0,False,,225.7915894900286,[],"[640, 360]",ColorTask,66.0,100.0,,,HRV,HRV_0088,2022-11-30 18:06:12
,wl-rdm,108,285568,0.0-6.100-0.100,0.0,109.0,,,,,,,[],,,,,,50.0,1.0,i,1.0,True,928.7999999523163,54.0,57.0,40.0,False,,304.71724086929794,[],"[640, 360]",ColorTask,67.0,101.0,,,HRV,HRV_0088,2022-11-30 18:06:12
,wl-rdm,109,287645,0.0-6.101-0.101,0.0,110.0,,,,,,,[],,,,,,73.6,0.0,u,0.0,True,782.0000000596046,45.0,57.0,40.0,False,,219.66901843825826,[],"[640, 360]",ColorTask,68.0,102.0,,,HRV,HRV_0088,2022-11-30 18:06:12
,wl-rdm,110,289895,0.0-6.102-0.102,0.0,111.0,,,,,,,[],,,,,,50.0,1.0,i,1.0,True,946.1999999880791,54.0,57.0,40.0,False,,210.67034471915736,[],"[640, 360]",ColorTask,69.0,103.0,,,HRV,HRV_0088,2022-11-30 18:06:12
,wl-rdm,111,291971,0.0-6.103-0.103,0.0,112.0,,,,,,,[],,,,,,56.4,0.0,i,1.0,False,783.3000000119209,45.0,57.0,40.0,False,,216.90026929305395,[],"[640, 360]",ColorTask,68.0,104.0,,,HRV,HRV_0088,2022-11-30 18:06:12
,wl-rdm,112,294257,0.0-6.104-0.104,0.0,113.0,,,,,,,[],,,,,,73.6,0.0,u,0.0,True,951.0999999642372,55.0,57.0,40.0,False,,255.98956409226042,[],"[640, 360]",ColorTask,69.0,105.0,,,HRV,HRV_0088,2022-11-30 18:06:12
,wl-rdm,113,296561,0.0-6.105-0.105,0.0,114.0,,,,,,,[],,,,,,73.6,0.0,u,0.0,True,850.1000000238419,49.0,57.0,40.0,False,,380.53954444707324,[],"[640, 360]",ColorTask,70.0,106.0,,,HRV,HRV_0088,2022-11-30 18:06:12
,wl-rdm,114,298620,0.0-6.106-0.106,0.0,115.0,,,,,,,[],,,,,,50.0,0.0,u,0.0,True,650.6000000238419,38.0,57.0,40.0,False,,321.33801430003365,[],"[640, 360]",ColorTask,71.0,107.0,,,HRV,HRV_0088,2022-11-30 18:06:12
,wl-rdm,115,300697,0.0-6.107-0.107,0.0,116.0,,,,,,,[],,,,,,87.9,1.0,i,1.0,True,758.3000000119209,44.0,57.0,40.0,False,,229.26400781064092,[],"[640, 360]",ColorTask,72.0,108.0,,,HRV,HRV_0088,2022-11-30 18:06:12
,wl-html-keyboard-response,116,312744,0.0-7.0-0.0,1.0,117.0,,,,,,,,10005.400000035763,1.0,0,,,,,,,,,,,,,,,,,,,,,,HRV,HRV_0088,2022-11-30 18:06:12
,wl-rdm,117,314832,0.0-8.0-0.0,1.0,118.0,,,,,,,[],,,,,,87.9,0.0,u,0.0,True,785.1999999880791,45.0,57.0,40.0,False,,236.4513375678808,[],"[640, 360]",ColorTask,73.0,1.0,,,HRV,HRV_0088,2022-11-30 18:06:12
,wl-rdm,118,316838,0.0-8.1-0.1,1.0,119.0,,,,,,,[],,,,,,50.0,1.0,i,1.0,True,649.9000000357628,38.0,57.0,40.0,False,,275.0747280214095,[],"[640, 360]",ColorTask,74.0,2.0,,,HRV,HRV_0088,2022-11-30 18:06:12
,wl-rdm,119,319438,0.0-8.2-0.2,1.0,120.0,,,,,,,[],,,,,,53.2,1.0,i,1.0,True,1254.0999999642372,70.0,57.0,40.0,False,,271.3201342481924,[],"[640, 360]",ColorTask,75.0,3.0,,,HRV,HRV_0088,2022-11-30 18:06:12
,wl-rdm,120,322056,0.0-8.3-0.3,1.0,121.0,,,,,,,[],,,,,,50.0,0.0,i,1.0,False,1200.300000011921,69.0,57.0,40.0,False,,342.2554132706415,[],"[640, 360]",ColorTask,74.0,4.0,,,HRV,HRV_0088,2022-11-30 18:06:12
,wl-rdm,121,324307,0.0-8.4-0.4,1.0,122.0,,,,,,,[],,,,,,62.5,1.0,i,1.0,True,952.8000000119209,55.0,57.0,40.0,False,,223.80268158962988,[],"[640, 360]",ColorTask,75.0,5.0,,,HRV,HRV_0088,2022-11-30 18:06:12
,wl-rdm,122,326279,0.0-8.5-0.5,1.0,123.0,,,,,,,[],,,,,,87.9,1.0,i,1.0,True,609.3000000119209,35.0,57.0,40.0,False,,297.8082705705174,[],"[640, 360]",ColorTask,76.0,6.0,,,HRV,HRV_0088,2022-11-30 18:06:12
,wl-rdm,123,328251,0.0-8.6-0.6,1.0,124.0,,,,,,,[],,,,,,73.6,0.0,u,0.0,True,698.1000000238419,40.0,57.0,40.0,False,,213.54506009110565,[],"[640, 360]",ColorTask,77.0,7.0,,,HRV,HRV_0088,2022-11-30 18:06:12
,wl-rdm,124,330275,0.0-8.7-0.7,1.0,125.0,,,,,,,[],,,,,,73.6,1.0,i,1.0,True,692.1999999880791,40.0,57.0,40.0,False,,230.74274685902662,[],"[640, 360]",ColorTask,78.0,8.0,,,HRV,HRV_0088,2022-11-30 18:06:12
,wl-rdm,125,332369,0.0-8.8-0.8,1.0,126.0,,,,,,,[],,,,,,73.6,0.0,u,0.0,True,703.1999999880791,41.0,57.0,40.0,False,,296.9008121492604,[],"[640, 360]",ColorTask,79.0,9.0,,,HRV,HRV_0088,2022-11-30 18:06:12
,wl-rdm,126,334777,0.0-8.9-0.9,1.0,127.0,,,,,,,[],,,,,,56.4,1.0,i,1.0,True,1033.800000011921,60.0,57.0,40.0,False,,295.1097813059661,[],"[640, 360]",ColorTask,80.0,10.0,,,HRV,HRV_0088,2022-11-30 18:06:12
,wl-rdm,127,336906,0.0-8.10-0.10,1.0,128.0,,,,,,,[],,,,,,73.6,0.0,u,0.0,True,676.8000000119209,39.0,57.0,40.0,False,,379.034947014832,[],"[640, 360]",ColorTask,81.0,11.0,,,HRV,HRV_0088,2022-11-30 18:06:12
,wl-rdm,128,339192,0.0-8.11-0.11,1.0,129.0,,,,,,,[],,,,,,56.4,1.0,i,1.0,True,999.2999999523163,58.0,57.0,40.0,False,,202.95231275315012,[],"[640, 360]",ColorTask,82.0,12.0,,,HRV,HRV_0088,2022-11-30 18:06:12
,wl-rdm,129,341199,0.0-8.12-0.12,1.0,130.0,,,,,,,[],,,,,,87.9,1.0,i,1.0,True,634.0,37.0,57.0,40.0,False,,285.3285915351978,[],"[640, 360]",ColorTask,83.0,13.0,,,HRV,HRV_0088,2022-11-30 18:06:12
,wl-rdm,130,343049,0.0-8.13-0.13,1.0,131.0,,,,,,,[],,,,,,87.9,1.0,i,1.0,True,574.4000000357628,33.0,57.0,40.0,False,,205.35698492139846,[],"[640, 360]",ColorTask,84.0,14.0,,,HRV,HRV_0088,2022-11-30 18:06:12
,wl-rdm,131,345265,0.0-8.14-0.14,1.0,132.0,,,,,,,[],,,,,,87.9,0.0,u,0.0,True,866.1999999880791,50.0,57.0,40.0,False,,265.193192784829,[],"[640, 360]",ColorTask,85.0,15.0,,,HRV,HRV_0088,2022-11-30 18:06:12
,wl-rdm,132,347481,0.0-8.15-0.15,1.0,133.0,,,,,,,[],,,,,,62.5,1.0,i,1.0,True,847.8000000119209,49.0,57.0,40.0,False,,287.9458860528413,[],"[640, 360]",ColorTask,86.0,16.0,,,HRV,HRV_0088,2022-11-30 18:06:12
,wl-rdm,133,349575,0.0-8.16-0.16,1.0,134.0,,,,,,,[],,,,,,53.2,0.0,i,1.0,False,664.1999999880791,39.0,57.0,40.0,False,,351.04604632188784,[],"[640, 360]",ColorTask,85.0,17.0,,,HRV,HRV_0088,2022-11-30 18:06:12
,wl-rdm,134,351844,0.0-8.17-0.17,1.0,135.0,,,,,,,[],,,,,,50.0,0.0,i,1.0,False,896.3000000119209,52.0,57.0,40.0,False,,292.2155315410145,[],"[640, 360]",ColorTask,84.0,18.0,,,HRV,HRV_0088,2022-11-30 18:06:12
,wl-rdm,135,354007,0.0-8.18-0.18,1.0,136.0,,,,,,,[],,,,,,62.5,1.0,i,1.0,True,872.6000000238419,49.0,57.0,40.0,False,,221.91830188833956,[],"[640, 360]",ColorTask,85.0,19.0,,,HRV,HRV_0088,2022-11-30 18:06:12
,wl-rdm,136,356521,0.0-8.19-0.19,1.0,137.0,,,,,,,[],,,,,,50.0,1.0,i,1.0,True,1212.8999999761581,69.0,57.0,40.0,False,,210.93178465838295,[],"[640, 360]",ColorTask,86.0,20.0,,,HRV,HRV_0088,2022-11-30 18:06:12
,wl-rdm,137,358876,0.0-8.20-0.20,1.0,138.0,,,,,,,[],,,,,,73.6,0.0,u,0.0,True,1052.5999999642372,61.0,57.0,40.0,False,,209.24006809366028,[],"[640, 360]",ColorTask,87.0,21.0,,,HRV,HRV_0088,2022-11-30 18:06:12
,wl-rdm,138,360936,0.0-8.21-0.21,1.0,139.0,,,,,,,[],,,,,,73.6,1.0,i,1.0,True,691.0999999642372,40.0,57.0,40.0,False,,295.3668401688044,[],"[640, 360]",ColorTask,88.0,22.0,,,HRV,HRV_0088,2022-11-30 18:06:12
,wl-rdm,139,362960,0.0-8.22-0.22,1.0,140.0,,,,,,,[],,,,,,87.9,1.0,i,1.0,True,668.1999999880791,39.0,57.0,40.0,False,,268.5442733154481,[],"[640, 360]",ColorTask,89.0,23.0,,,HRV,HRV_0088,2022-11-30 18:06:12
,wl-rdm,140,365560,0.0-8.23-0.23,1.0,141.0,,,,,,,[],,,,,,53.2,1.0,i,1.0,True,1338.7999999523163,76.0,57.0,40.0,False,,203.9812724513382,[],"[640, 360]",ColorTask,90.0,24.0,,,HRV,HRV_0088,2022-11-30 18:06:12
,wl-rdm,141,367654,0.0-8.24-0.24,1.0,142.0,,,,,,,[],,,,,,87.9,0.0,u,0.0,True,748.3999999761581,43.0,57.0,40.0,False,,274.80033696105755,[],"[640, 360]",ColorTask,91.0,25.0,,,HRV,HRV_0088,2022-11-30 18:06:12
,wl-rdm,142,369887,0.0-8.25-0.25,1.0,143.0,,,,,,,[],,,,,,53.2,1.0,u,0.0,False,835.8000000715256,48.0,57.0,40.0,False,,325.0364008175881,[],"[640, 360]",ColorTask,90.0,26.0,,,HRV,HRV_0088,2022-11-30 18:06:12
,wl-rdm,143,371877,0.0-8.26-0.26,1.0,144.0,,,,,,,[],,,,,,73.6,1.0,i,1.0,True,625.8999999761581,36.0,57.0,40.0,False,,283.3008455944532,[],"[640, 360]",ColorTask,91.0,27.0,,,HRV,HRV_0088,2022-11-30 18:06:12
,wl-rdm,144,373970,0.0-8.27-0.27,1.0,145.0,,,,,,,[],,,,,,53.2,0.0,u,0.0,True,731.3999999761581,42.0,57.0,40.0,False,,281.9462339847575,[],"[640, 360]",ColorTask,92.0,28.0,,,HRV,HRV_0088,2022-11-30 18:06:12
,wl-rdm,145,376082,0.0-8.28-0.28,1.0,146.0,,,,,,,[],,,,,,73.6,1.0,i,1.0,True,700.8000000119209,42.0,57.0,40.0,False,,299.159653850767,[],"[640, 360]",ColorTask,93.0,29.0,,,HRV,HRV_0088,2022-11-30 18:06:12
,wl-rdm,146,378455,0.0-8.29-0.29,1.0,147.0,,,,,,,[],,,,,,73.6,0.0,u,0.0,True,976.0999999642372,56.0,57.0,40.0,False,,334.6681364030859,[],"[640, 360]",ColorTask,94.0,30.0,,,HRV,HRV_0088,2022-11-30 18:06:12
,wl-rdm,147,381282,0.0-8.30-0.30,1.0,148.0,,,,,,,[],,,,,,53.2,0.0,u,0.0,True,1487.5999999642372,86.0,57.0,40.0,False,,273.64387164858493,[],"[640, 360]",ColorTask,95.0,31.0,,,HRV,HRV_0088,2022-11-30 18:06:12
,wl-rdm,148,383987,0.0-8.31-0.31,1.0,149.0,,,,,,,[],,,,,,62.5,1.0,i,1.0,True,1409.800000011921,80.0,57.0,40.0,False,,238.13057718136315,[],"[640, 360]",ColorTask,96.0,32.0,,,HRV,HRV_0088,2022-11-30 18:06:12
,wl-rdm,149,386552,0.0-8.32-0.32,1.0,150.0,,,,,,,[],,,,,,50.0,0.0,u,0.0,True,1138.199999988079,66.0,57.0,40.0,False,,344.85017122966724,[],"[640, 360]",ColorTask,97.0,33.0,,,HRV,HRV_0088,2022-11-30 18:06:12
,wl-rdm,150,389908,0.0-8.33-0.33,1.0,151.0,,,,,,,[],,,,,,53.2,0.0,u,0.0,True,2064.300000011921,118.0,57.0,40.0,False,,222.9203585177986,[],"[640, 360]",ColorTask,98.0,34.0,,,HRV,HRV_0088,2022-11-30 18:06:12
,wl-rdm,151,392086,0.0-8.34-0.34,1.0,152.0,,,,,,,[],,,,,,87.9,0.0,u,0.0,True,773.5999999642372,45.0,57.0,40.0,False,,320.445455347686,[],"[640, 360]",ColorTask,99.0,35.0,,,HRV,HRV_0088,2022-11-30 18:06:12
,wl-rdm,152,394947,0.0-8.35-0.35,1.0,153.0,,,,,,,[],,,,,,56.4,0.0,u,0.0,True,1451.8999999761581,83.0,57.0,40.0,False,,308.82309159678584,[],"[640, 360]",ColorTask,100.0,36.0,,,HRV,HRV_0088,2022-11-30 18:06:12
,wl-rdm,153,397756,0.0-8.36-0.36,1.0,154.0,,,,,,,[],,,,,,50.0,0.0,u,0.0,True,1334.800000011921,77.0,57.0,40.0,False,,386.42808540248774,[],"[640, 360]",ColorTask,101.0,37.0,,,HRV,HRV_0088,2022-11-30 18:06:12
,wl-rdm,154,399955,0.0-8.37-0.37,1.0,155.0,,,,,,,[],,,,,,62.5,0.0,u,0.0,True,794.9000000357628,46.0,57.0,40.0,False,,328.7146218654136,[],"[640, 360]",ColorTask,102.0,38.0,,,HRV,HRV_0088,2022-11-30 18:06:12
,wl-rdm,155,402101,0.0-8.38-0.38,1.0,156.0,,,,,,,[],,,,,,56.4,0.0,u,0.0,True,772.1000000238419,45.0,57.0,40.0,False,,293.0734786647537,[],"[640, 360]",ColorTask,103.0,39.0,,,HRV,HRV_0088,2022-11-30 18:06:12
,wl-rdm,156,404718,0.0-8.39-0.39,1.0,157.0,,,,,,,[],,,,,,73.6,0.0,u,0.0,True,1307.0,74.0,57.0,40.0,False,,227.65606005216847,[],"[640, 360]",ColorTask,104.0,40.0,,,HRV,HRV_0088,2022-11-30 18:06:12
,wl-rdm,157,407353,0.0-8.40-0.40,1.0,158.0,,,,,,,[],,,,,,56.4,1.0,i,1.0,True,1209.0999999642372,69.0,57.0,40.0,False,,334.85053387214145,[],"[640, 360]",ColorTask,105.0,41.0,,,HRV,HRV_0088,2022-11-30 18:06:12
,wl-rdm,158,409431,0.0-8.41-0.41,1.0,159.0,,,,,,,[],,,,,,56.4,1.0,i,1.0,True,792.2000000476837,46.0,57.0,40.0,False,,225.69153203368091,[],"[640, 360]",ColorTask,106.0,42.0,,,HRV,HRV_0088,2022-11-30 18:06:12
,wl-rdm,159,411698,0.0-8.42-0.42,1.0,160.0,,,,,,,[],,,,,,50.0,1.0,i,1.0,True,930.1999999284744,54.0,57.0,40.0,False,,272.0891619513761,[],"[640, 360]",ColorTask,107.0,43.0,,,HRV,HRV_0088,2022-11-30 18:06:12
,wl-rdm,160,413827,0.0-8.43-0.43,1.0,161.0,,,,,,,[],,,,,,53.2,1.0,i,1.0,True,776.6999999880791,45.0,57.0,40.0,False,,287.6246878716248,[],"[640, 360]",ColorTask,108.0,44.0,,,HRV,HRV_0088,2022-11-30 18:06:12
,wl-rdm,161,416078,0.0-8.44-0.44,1.0,162.0,,,,,,,[],,,,,,56.4,0.0,i,1.0,False,825.8000000119209,48.0,57.0,40.0,False,,340.74603756032053,[],"[640, 360]",ColorTask,107.0,45.0,,,HRV,HRV_0088,2022-11-30 18:06:12
,wl-rdm,162,418295,0.0-8.45-0.45,1.0,163.0,,,,,,,[],,,,,,56.4,0.0,u,0.0,True,853.6999999880791,49.0,57.0,40.0,False,,304.02913471510016,[],"[640, 360]",ColorTask,108.0,46.0,,,HRV,HRV_0088,2022-11-30 18:06:12
,wl-rdm,163,420423,0.0-8.46-0.46,1.0,164.0,,,,,,,[],,,,,,62.5,0.0,u,0.0,True,826.5,48.0,57.0,40.0,False,,214.9841113583495,[],"[640, 360]",ColorTask,109.0,47.0,,,HRV,HRV_0088,2022-11-30 18:06:12
,wl-rdm,164,423059,0.0-8.47-0.47,1.0,165.0,,,,,,,[],,,,,,56.4,1.0,i,1.0,True,1252.800000011921,72.0,57.0,40.0,False,,307.78973714606246,[],"[640, 360]",ColorTask,110.0,48.0,,,HRV,HRV_0088,2022-11-30 18:06:12
,wl-rdm,165,425066,0.0-8.48-0.48,1.0,166.0,,,,,,,[],,,,,,87.9,0.0,u,0.0,True,728.0,42.0,57.0,40.0,False,,209.39924006033718,[],"[640, 360]",ColorTask,111.0,49.0,,,HRV,HRV_0088,2022-11-30 18:06:12
,wl-rdm,166,427230,0.0-8.49-0.49,1.0,167.0,,,,,,,[],,,,,,53.2,0.0,i,1.0,False,826.6999999880791,48.0,57.0,40.0,False,,273.3031420246798,[],"[640, 360]",ColorTask,110.0,50.0,,,HRV,HRV_0088,2022-11-30 18:06:12
,wl-rdm,167,429551,0.0-8.50-0.50,1.0,168.0,,,,,,,[],,,,,,73.6,0.0,u,0.0,True,934.6000000238419,54.0,57.0,40.0,False,,321.3408728041444,[],"[640, 360]",ColorTask,111.0,51.0,,,HRV,HRV_0088,2022-11-30 18:06:12
,wl-rdm,168,431715,0.0-8.51-0.51,1.0,169.0,,,,,,,[],,,,,,53.2,1.0,i,1.0,True,743.1000000238419,42.0,57.0,40.0,False,,354.5206856881266,[],"[640, 360]",ColorTask,112.0,52.0,,,HRV,HRV_0088,2022-11-30 18:06:12
,wl-rdm,169,434158,0.0-8.52-0.52,1.0,170.0,,,,,,,[],,,,,,53.2,0.0,i,1.0,False,1089.0,63.0,57.0,40.0,False,,272.3514063107252,[],"[640, 360]",ColorTask,111.0,53.0,,,HRV,HRV_0088,2022-11-30 18:06:12
,wl-rdm,170,436950,0.0-8.53-0.53,1.0,171.0,,,,,,,[],,,,,,56.4,0.0,u,0.0,True,1486.5999999642372,86.0,57.0,40.0,False,,210.32743115081465,[],"[640, 360]",ColorTask,112.0,54.0,,,HRV,HRV_0088,2022-11-30 18:06:12
,wl-rdm,171,439166,0.0-8.54-0.54,1.0,172.0,,,,,,,[],,,,,,62.5,0.0,u,0.0,True,843.5,49.0,57.0,40.0,False,,285.48989200361154,[],"[640, 360]",ColorTask,113.0,55.0,,,HRV,HRV_0088,2022-11-30 18:06:12
,wl-rdm,172,441365,0.0-8.55-0.55,1.0,173.0,,,,,,,[],,,,,,62.5,1.0,i,1.0,True,906.9999999403954,52.0,57.0,40.0,False,,223.4746504334572,[],"[640, 360]",ColorTask,114.0,56.0,,,HRV,HRV_0088,2022-11-30 18:06:12
,wl-rdm,173,443624,0.0-8.56-0.56,1.0,174.0,,,,,,,[],,,,,,73.6,0.0,u,0.0,True,903.8000000119209,52.0,57.0,40.0,False,,266.278460316278,[],"[640, 360]",ColorTask,115.0,57.0,,,HRV,HRV_0088,2022-11-30 18:06:12
,wl-rdm,174,445797,0.0-8.57-0.57,1.0,175.0,,,,,,,[],,,,,,62.5,0.0,u,0.0,True,810.3000000119209,47.0,57.0,40.0,False,,293.073193453631,[],"[640, 360]",ColorTask,116.0,58.0,,,HRV,HRV_0088,2022-11-30 18:06:12
,wl-rdm,175,448170,0.0-8.58-0.58,1.0,176.0,,,,,,,[],,,,,,50.0,1.0,u,0.0,False,911.1999999880791,53.0,57.0,40.0,False,,373.35121995327086,[],"[640, 360]",ColorTask,115.0,59.0,,,HRV,HRV_0088,2022-11-30 18:06:12
,wl-rdm,176,450335,0.0-8.59-0.59,1.0,177.0,,,,,,,[],,,,,,50.0,1.0,i,1.0,True,877.1999999880791,51.0,57.0,40.0,False,,218.8094694574662,[],"[640, 360]",ColorTask,116.0,60.0,,,HRV,HRV_0088,2022-11-30 18:06:12
,wl-rdm,177,453039,0.0-8.60-0.60,1.0,178.0,,,,,,,[],,,,,,56.4,0.0,u,0.0,True,1349.3999999761581,78.0,57.0,40.0,False,,261.29488362426025,[],"[640, 360]",ColorTask,117.0,61.0,,,HRV,HRV_0088,2022-11-30 18:06:12
,wl-rdm,178,455134,0.0-8.61-0.61,1.0,179.0,,,,,,,[],,,,,,56.4,1.0,u,0.0,False,827.5999999642372,48.0,57.0,40.0,False,,201.80953053891935,[],"[640, 360]",ColorTask,116.0,62.0,,,HRV,HRV_0088,2022-11-30 18:06:12
,wl-rdm,179,457611,0.0-8.62-0.62,1.0,180.0,,,,,,,[],,,,,,50.0,0.0,u,0.0,True,1193.0,69.0,57.0,40.0,False,,208.9980028313149,[],"[640, 360]",ColorTask,117.0,63.0,,,HRV,HRV_0088,2022-11-30 18:06:12
,wl-rdm,180,459932,0.0-8.63-0.63,1.0,181.0,,,,,,,[],,,,,,62.5,1.0,i,1.0,True,937.1999999880791,54.0,57.0,40.0,False,,301.63065775500684,[],"[640, 360]",ColorTask,118.0,64.0,,,HRV,HRV_0088,2022-11-30 18:06:12
,wl-rdm,181,462550,0.0-8.64-0.64,1.0,182.0,,,,,,,[],,,,,,53.2,1.0,i,1.0,True,1312.7999999523163,76.0,57.0,40.0,False,,223.62376768509048,[],"[640, 360]",ColorTask,119.0,65.0,,,HRV,HRV_0088,2022-11-30 18:06:12
,wl-rdm,182,464647,0.0-8.65-0.65,1.0,183.0,,,,,,,[],,,,,,53.2,1.0,i,1.0,True,830.9999999403954,48.0,57.0,40.0,False,,203.464455121131,[],"[640, 360]",ColorTask,120.0,66.0,,,HRV,HRV_0088,2022-11-30 18:06:12
,wl-rdm,183,467104,0.0-8.66-0.66,1.0,184.0,,,,,,,[],,,,,,62.5,0.0,u,0.0,True,1158.5999999642372,67.0,57.0,40.0,False,,221.68974527631022,[],"[640, 360]",ColorTask,121.0,67.0,,,HRV,HRV_0088,2022-11-30 18:06:12
,wl-rdm,184,469356,0.0-8.67-0.67,1.0,185.0,,,,,,,[],,,,,,56.4,1.0,i,1.0,True,937.1999999284744,54.0,57.0,40.0,False,,255.66671947530892,[],"[640, 360]",ColorTask,122.0,68.0,,,HRV,HRV_0088,2022-11-30 18:06:12
,wl-rdm,185,471467,0.0-8.68-0.68,1.0,186.0,,,,,,,[],,,,,,50.0,0.0,i,1.0,False,773.1999999284744,44.0,57.0,40.0,False,,264.29757774915845,[],"[640, 360]",ColorTask,121.0,69.0,,,HRV,HRV_0088,2022-11-30 18:06:12
,wl-rdm,186,473788,0.0-8.69-0.69,1.0,187.0,,,,,,,[],,,,,,62.5,0.0,u,0.0,True,849.7999999523163,49.0,57.0,40.0,False,,398.03416351266867,[],"[640, 360]",ColorTask,122.0,70.0,,,HRV,HRV_0088,2022-11-30 18:06:12
,wl-rdm,187,475830,0.0-8.70-0.70,1.0,188.0,,,,,,,[],,,,,,87.9,1.0,i,1.0,True,730.0,42.0,57.0,40.0,False,,232.78186354616776,[],"[640, 360]",ColorTask,123.0,71.0,,,HRV,HRV_0088,2022-11-30 18:06:12
,wl-rdm,188,478203,0.0-8.71-0.71,1.0,189.0,,,,,,,[],,,,,,53.2,0.0,u,0.0,True,947.5,55.0,57.0,40.0,False,,338.8862053979553,[],"[640, 360]",ColorTask,124.0,72.0,,,HRV,HRV_0088,2022-11-30 18:06:12
,wl-rdm,189,480541,0.0-8.72-0.72,1.0,190.0,,,,,,,[],,,,,,62.5,1.0,u,0.0,False,1052.1999999284744,60.0,57.0,40.0,False,,206.42075210546756,[],"[640, 360]",ColorTask,123.0,73.0,,,HRV,HRV_0088,2022-11-30 18:06:12
,wl-rdm,190,482757,0.0-8.73-0.73,1.0,191.0,,,,,,,[],,,,,,53.2,0.0,i,1.0,False,816.1999999880791,47.0,57.0,40.0,False,,329.2989462631016,[],"[640, 360]",ColorTask,122.0,74.0,,,HRV,HRV_0088,2022-11-30 18:06:12
,wl-rdm,191,484746,0.0-8.74-0.74,1.0,192.0,,,,,,,[],,,,,,87.9,0.0,u,0.0,True,702.6999999880791,41.0,57.0,40.0,False,,204.26611973071297,[],"[640, 360]",ColorTask,123.0,75.0,,,HRV,HRV_0088,2022-11-30 18:06:12
,wl-rdm,192,486875,0.0-8.75-0.75,1.0,193.0,,,,,,,[],,,,,,73.6,1.0,i,1.0,True,813.4000000357628,47.0,57.0,40.0,False,,233.1355418252175,[],"[640, 360]",ColorTask,124.0,76.0,,,HRV,HRV_0088,2022-11-30 18:06:12
,wl-rdm,193,489179,0.0-8.76-0.76,1.0,194.0,,,,,,,[],,,,,,50.0,1.0,i,1.0,True,842.8000000715256,49.0,57.0,40.0,False,,381.07997467714364,[],"[640, 360]",ColorTask,125.0,77.0,,,HRV,HRV_0088,2022-11-30 18:06:12
,wl-rdm,194,491290,0.0-8.77-0.77,1.0,195.0,,,,,,,[],,,,,,62.5,1.0,i,1.0,True,692.8999999761581,40.0,57.0,40.0,False,,335.129513225648,[],"[640, 360]",ColorTask,126.0,78.0,,,HRV,HRV_0088,2022-11-30 18:06:12
,wl-rdm,195,493454,0.0-8.78-0.78,1.0,196.0,,,,,,,[],,,,,,56.4,1.0,u,0.0,False,789.6999999880791,46.0,57.0,40.0,False,,304.76302550029726,[],"[640, 360]",ColorTask,125.0,79.0,,,HRV,HRV_0088,2022-11-30 18:06:12
,wl-rdm,196,495548,0.0-8.79-0.79,1.0,197.0,,,,,,,[],,,,,,62.5,1.0,i,1.0,True,687.7999999523163,40.0,57.0,40.0,False,,335.8274470345463,[],"[640, 360]",ColorTask,126.0,80.0,,,HRV,HRV_0088,2022-11-30 18:06:12
,wl-rdm,197,497661,0.0-8.80-0.80,1.0,198.0,,,,,,,[],,,,,,73.6,0.0,u,0.0,True,692.6999999880791,40.0,57.0,40.0,False,,357.09937004142205,[],"[640, 360]",ColorTask,127.0,81.0,,,HRV,HRV_0088,2022-11-30 18:06:12
,wl-rdm,198,499632,0.0-8.81-0.81,1.0,199.0,,,,,,,[],,,,,,87.9,1.0,i,1.0,True,625.0999999642372,36.0,57.0,40.0,False,,262.2199666474193,[],"[640, 360]",ColorTask,128.0,82.0,,,HRV,HRV_0088,2022-11-30 18:06:12
,wl-rdm,199,502581,0.0-8.82-0.82,1.0,200.0,,,,,,,[],,,,,,53.2,1.0,i,1.0,True,1598.3000000715256,92.0,57.0,40.0,False,,265.07965600586573,[],"[640, 360]",ColorTask,129.0,83.0,,,HRV,HRV_0088,2022-11-30 18:06:12
,wl-rdm,200,504763,0.0-8.83-0.83,1.0,201.0,,,,,,,[],,,,,,87.9,1.0,i,1.0,True,701.8000000119209,41.0,57.0,40.0,False,,391.9226707528354,[],"[640, 360]",ColorTask,130.0,84.0,,,HRV,HRV_0088,2022-11-30 18:06:12
,wl-rdm,201,507292,0.0-8.84-0.84,1.0,202.0,,,,,,,[],,,,,,50.0,1.0,i,1.0,True,1155.5,66.0,57.0,40.0,False,,291.44306076468047,[],"[640, 360]",ColorTask,131.0,85.0,,,HRV,HRV_0088,2022-11-30 18:06:12
,wl-rdm,202,509246,0.0-8.85-0.85,1.0,203.0,,,,,,,[],,,,,,87.9,0.0,u,0.0,True,651.8000000119209,38.0,57.0,40.0,False,,221.6393731788607,[],"[640, 360]",ColorTask,132.0,86.0,,,HRV,HRV_0088,2022-11-30 18:06:12
,wl-rdm,203,511445,0.0-8.86-0.86,1.0,204.0,,,,,,,[],,,,,,56.4,0.0,u,0.0,True,788.9000000357628,46.0,57.0,40.0,False,,335.2591120016415,[],"[640, 360]",ColorTask,133.0,87.0,,,HRV,HRV_0088,2022-11-30 18:06:12
,wl-rdm,204,513574,0.0-8.87-0.87,1.0,205.0,,,,,,,[],,,,,,56.4,1.0,i,1.0,True,824.3000000119209,48.0,57.0,40.0,False,,238.20955156630575,[],"[640, 360]",ColorTask,134.0,88.0,,,HRV,HRV_0088,2022-11-30 18:06:12
,wl-rdm,205,515721,0.0-8.88-0.88,1.0,206.0,,,,,,,[],,,,,,87.9,0.0,u,0.0,True,696.3999999761581,40.0,57.0,40.0,False,,394.54066578723933,[],"[640, 360]",ColorTask,135.0,89.0,,,HRV,HRV_0088,2022-11-30 18:06:12
,wl-rdm,206,518182,0.0-8.89-0.89,1.0,207.0,,,,,,,[],,,,,,50.0,0.0,i,1.0,False,1142.0000000596046,66.0,57.0,40.0,False,,204.2806431315879,[],"[640, 360]",ColorTask,134.0,90.0,,,HRV,HRV_0088,2022-11-30 18:06:12
,wl-rdm,207,520345,0.0-8.90-0.90,1.0,208.0,,,,,,,[],,,,,,87.9,1.0,i,1.0,True,733.4000000357628,42.0,57.0,40.0,False,,351.48382295926865,[],"[640, 360]",ColorTask,135.0,91.0,,,HRV,HRV_0088,2022-11-30 18:06:12
,wl-rdm,208,522283,0.0-8.91-0.91,1.0,209.0,,,,,,,[],,,,,,73.6,1.0,i,1.0,True,615.0,36.0,57.0,40.0,False,,233.9173716031009,[],"[640, 360]",ColorTask,136.0,92.0,,,HRV,HRV_0088,2022-11-30 18:06:12
,wl-rdm,209,524446,0.0-8.92-0.92,1.0,210.0,,,,,,,[],,,,,,50.0,1.0,i,1.0,True,776.5,44.0,57.0,40.0,False,,312.5134075772104,[],"[640, 360]",ColorTask,137.0,93.0,,,HRV,HRV_0088,2022-11-30 18:06:12
,wl-rdm,210,526802,0.0-8.93-0.93,1.0,211.0,,,,,,,[],,,,,,62.5,0.0,u,0.0,True,912.1999999880791,53.0,57.0,40.0,False,,366.322882111637,[],"[640, 360]",ColorTask,138.0,94.0,,,HRV,HRV_0088,2022-11-30 18:06:12
,wl-rdm,211,529018,0.0-8.94-0.94,1.0,212.0,,,,,,,[],,,,,,56.4,0.0,u,0.0,True,764.9000000357628,44.0,57.0,40.0,False,,376.4319810931996,[],"[640, 360]",ColorTask,139.0,95.0,,,HRV,HRV_0088,2022-11-30 18:06:12
,wl-rdm,212,530920,0.0-8.95-0.95,1.0,213.0,,,,,,,[],,,,,,62.5,0.0,u,0.0,True,572.9000000357628,33.0,57.0,40.0,False,,244.43903304509826,[],"[640, 360]",ColorTask,140.0,96.0,,,HRV,HRV_0088,2022-11-30 18:06:12
,wl-rdm,213,533154,0.0-8.96-0.96,1.0,214.0,,,,,,,[],,,,,,53.2,1.0,i,1.0,True,920.5000000596046,53.0,57.0,40.0,False,,242.64429893160857,[],"[640, 360]",ColorTask,141.0,97.0,,,HRV,HRV_0088,2022-11-30 18:06:12
,wl-rdm,214,535265,0.0-8.97-0.97,1.0,215.0,,,,,,,[],,,,,,73.6,1.0,i,1.0,True,679.6000000238419,39.0,57.0,40.0,False,,366.40479854171144,[],"[640, 360]",ColorTask,142.0,98.0,,,HRV,HRV_0088,2022-11-30 18:06:12
,wl-rdm,215,537220,0.0-8.98-0.98,1.0,216.0,,,,,,,[],,,,,,73.6,1.0,i,1.0,True,658.9000000357628,38.0,57.0,40.0,False,,233.6551436713049,[],"[640, 360]",ColorTask,143.0,99.0,,,HRV,HRV_0088,2022-11-30 18:06:12
,wl-rdm,216,539942,0.0-8.99-0.99,1.0,217.0,,,,,,,[],,,,,,53.2,0.0,u,0.0,True,1347.8999999761581,78.0,57.0,40.0,False,,299.5186534794509,[],"[640, 360]",ColorTask,144.0,100.0,,,HRV,HRV_0088,2022-11-30 18:06:12
,wl-rdm,217,542961,0.0-8.100-0.100,1.0,218.0,,,,,,,[],,,,,,56.4,0.0,u,0.0,True,1645.199999988079,93.0,57.0,40.0,False,,311.5497705496898,[],"[640, 360]",ColorTask,145.0,101.0,,,HRV,HRV_0088,2022-11-30 18:06:12
,wl-rdm,218,545020,0.0-8.101-0.101,1.0,219.0,,,,,,,[],,,,,,73.6,1.0,i,1.0,True,756.4000000357628,44.0,57.0,40.0,False,,219.61854821300287,[],"[640, 360]",ColorTask,146.0,102.0,,,HRV,HRV_0088,2022-11-30 18:06:12
,wl-rdm,219,547063,0.0-8.102-0.102,1.0,220.0,,,,,,,[],,,,,,87.9,0.0,u,0.0,True,705.4000000357628,41.0,57.0,40.0,False,,259.42012017278546,[],"[640, 360]",ColorTask,147.0,103.0,,,HRV,HRV_0088,2022-11-30 18:06:12
,wl-rdm,220,549263,0.0-8.103-0.103,1.0,221.0,,,,,,,[],,,,,,50.0,1.0,i,1.0,True,847.7999999523163,49.0,57.0,40.0,False,,266.6025575946472,[],"[640, 360]",ColorTask,148.0,104.0,,,HRV,HRV_0088,2022-11-30 18:06:12
,wl-rdm,221,551808,0.0-8.104-0.104,1.0,222.0,,,,,,,[],,,,,,62.5,0.0,u,0.0,True,1172.5999999642372,67.0,57.0,40.0,False,,282.91982697596677,[],"[640, 360]",ColorTask,149.0,105.0,,,HRV,HRV_0088,2022-11-30 18:06:12
,wl-rdm,222,554077,0.0-8.105-0.105,1.0,223.0,,,,,,,[],,,,,,50.0,0.0,u,0.0,True,789.5999999642372,46.0,57.0,40.0,False,,384.91525835136616,[],"[640, 360]",ColorTask,150.0,106.0,,,HRV,HRV_0088,2022-11-30 18:06:12
,wl-rdm,223,556083,0.0-8.106-0.106,1.0,224.0,,,,,,,[],,,,,,87.9,1.0,i,1.0,True,708.5000000596046,41.0,57.0,40.0,False,,214.10268064533437,[],"[640, 360]",ColorTask,151.0,107.0,,,HRV,HRV_0088,2022-11-30 18:06:12
,wl-rdm,224,558875,0.0-8.107-0.107,1.0,225.0,,,,,,,[],,,,,,50.0,0.0,i,1.0,False,1442.300000011921,83.0,57.0,40.0,False,,279.3689814513259,[],"[640, 360]",ColorTask,150.0,108.0,,,HRV,HRV_0088,2022-11-30 18:06:12
,wl-html-button-response,225,561612,0.0-9.0-0.0,,,,,,,,,,2727.399999976158,,0,,,,,,,,,,,,,,,,,,,,<h3>End of this session. Thank you!</h3><br>,['Close window'],HRV,HRV_0088,2022-11-30 18:06:12
