trialN,stimuli,question,trialStartTime,trialStartTime_UNIX,stimulus1,rt,receivedResponse,rating,trialEndTime,trialDuration,stimulus1Loaded,exp,subjectId,date
0,"[{'imgObject': {}, 'id': 'strawberries', 'src': '/static/foodstim60/strawberries.jpg', 'key': 'NaN', 'origWidth': 410, 'origHeight': 410, 'width': 410, 'height': 410, 'widthPercent': 0.8, 'rescaleHeight': True, 'trialN': 0, 'loaded': True, 'loadedTime': 2693.600000023842, 'positionName': 'CENTER', 'positionCoords': [635, 303.5]}]",Rate how much you want to eat this food from 0 (least) to 10 (most).,2816.900000035763,1669848307150,strawberries,3740.699999988079,True,7.2,6557.600000023842,3740.699999988079,True,HRV,HRV_0287,2022-11-30 22:46:28
1,"[{'imgObject': {}, 'id': 'baked potato', 'src': '/static/foodstim60/baked potato.jpg', 'key': 'NaN', 'origWidth': 409, 'origHeight': 410, 'width': 409, 'height': 410, 'widthPercent': 0.8, 'rescaleHeight': True, 'trialN': 1, 'loaded': True, 'loadedTime': 6600.400000035763, 'positionName': 'CENTER', 'positionCoords': [635.5, 320]}]",Rate how much you want to eat this food from 0 (least) to 10 (most).,6579.300000011921,1669848310912,baked potato,1116.0,True,7.21,7695.300000011921,1116.0,True,HRV,HRV_0287,2022-11-30 22:46:28
2,"[{'imgObject': {}, 'id': 'cantaloupe', 'src': '/static/foodstim60/cantaloupe.jpg', 'key': 'NaN', 'origWidth': 409, 'origHeight': 409, 'width': 409, 'height': 409, 'widthPercent': 0.8, 'rescaleHeight': True, 'trialN': 2, 'loaded': True, 'loadedTime': 7717.5, 'positionName': 'CENTER', 'positionCoords': [635.5, 320.5]}]",Rate how much you want to eat this food from 0 (least) to 10 (most).,7710.600000023842,1669848312043,cantaloupe,974.8999999761581,True,7.17,8685.5,974.8999999761581,True,HRV,HRV_0287,2022-11-30 22:46:28
3,"[{'imgObject': {}, 'id': 'turkeysandwich', 'src': '/static/foodstim60/turkeysandwich.jpg', 'key': 'NaN', 'origWidth': 409, 'origHeight': 409, 'width': 409, 'height': 409, 'widthPercent': 0.8, 'rescaleHeight': True, 'trialN': 3, 'loaded': True, 'loadedTime': 8719.199999988079, 'positionName': 'CENTER', 'positionCoords': [635.5, 320.5]}]",Rate how much you want to eat this food from 0 (least) to 10 (most).,8711.199999988079,1669848313044,turkeysandwich,883.1000000238419,True,7.16,9594.300000011921,883.1000000238419,True,HRV,HRV_0287,2022-11-30 22:46:28
4,"[{'imgObject': {}, 'id': 'cocktailshrimp', 'src': '/static/foodstim60/cocktailshrimp.jpg', 'key': 'NaN', 'origWidth': 410, 'origHeight': 410, 'width': 410, 'height': 410, 'widthPercent': 0.8, 'rescaleHeight': True, 'trialN': 4, 'loaded': True, 'loadedTime': 9616.900000035763, 'positionName': 'CENTER', 'positionCoords': [635, 320]}]",Rate how much you want to eat this food from 0 (least) to 10 (most).,9610.100000023842,1669848313943,cocktailshrimp,1146.800000011921,True,5.26,10756.900000035763,1146.800000011921,True,HRV,HRV_0287,2022-11-30 22:46:28
5,"[{'imgObject': {}, 'id': 'edamame', 'src': '/static/foodstim60/edamame.jpg', 'key': 'NaN', 'origWidth': 409, 'origHeight': 410, 'width': 409, 'height': 410, 'widthPercent': 0.8, 'rescaleHeight': True, 'trialN': 5, 'loaded': True, 'loadedTime': 10783.400000035763, 'positionName': 'CENTER', 'positionCoords': [635.5, 320]}]",Rate how much you want to eat this food from 0 (least) to 10 (most).,10776.699999988079,1669848315110,edamame,1633.7000000476837,True,2.96,12410.400000035763,1633.7000000476837,True,HRV,HRV_0287,2022-11-30 22:46:28
6,"[{'imgObject': {}, 'id': 'mac & cheese', 'src': '/static/foodstim60/mac & cheese.jpg', 'key': 'NaN', 'origWidth': 410, 'origHeight': 410, 'width': 410, 'height': 410, 'widthPercent': 0.8, 'rescaleHeight': True, 'trialN': 6, 'loaded': True, 'loadedTime': 12435.600000023842, 'positionName': 'CENTER', 'positionCoords': [635, 320]}]",Rate how much you want to eat this food from 0 (least) to 10 (most).,12429.199999988079,1669848316762,mac & cheese,1037.300000011921,True,5.98,13466.5,1037.300000011921,True,HRV,HRV_0287,2022-11-30 22:46:28
7,"[{'imgObject': {}, 'id': 'blueberries', 'src': '/static/foodstim60/blueberries.jpg', 'key': 'NaN', 'origWidth': 411, 'origHeight': 411, 'width': 411, 'height': 411, 'widthPercent': 0.8, 'rescaleHeight': True, 'trialN': 7, 'loaded': True, 'loadedTime': 13491.5, 'positionName': 'CENTER', 'positionCoords': [634.5, 319.5]}]",Rate how much you want to eat this food from 0 (least) to 10 (most).,13484.400000035763,1669848317817,blueberries,791.8999999761581,True,6.92,14276.300000011921,791.8999999761581,True,HRV,HRV_0287,2022-11-30 22:46:28
8,"[{'imgObject': {}, 'id': 'roastedpotatoes', 'src': '/static/foodstim60/roastedpotatoes.jpg', 'key': 'NaN', 'origWidth': 409, 'origHeight': 410, 'width': 409, 'height': 410, 'widthPercent': 0.8, 'rescaleHeight': True, 'trialN': 8, 'loaded': True, 'loadedTime': 14295.699999988079, 'positionName': 'CENTER', 'positionCoords': [635.5, 320]}]",Rate how much you want to eat this food from 0 (least) to 10 (most).,14289.300000011921,1669848318622,roastedpotatoes,887.6000000238419,True,6.61,15176.900000035763,887.6000000238419,True,HRV,HRV_0287,2022-11-30 22:46:28
9,"[{'imgObject': {}, 'id': 'fruitsalad', 'src': '/static/foodstim60/fruitsalad.jpg', 'key': 'NaN', 'origWidth': 410, 'origHeight': 410, 'width': 410, 'height': 410, 'widthPercent': 0.8, 'rescaleHeight': True, 'trialN': 9, 'loaded': True, 'loadedTime': 15206.100000023842, 'positionName': 'CENTER', 'positionCoords': [635, 320]}]",Rate how much you want to eat this food from 0 (least) to 10 (most).,15198.600000023842,1669848319532,fruitsalad,1664.5,True,5.08,16863.100000023842,1664.5,True,HRV,HRV_0287,2022-11-30 22:46:28
10,"[{'imgObject': {}, 'id': 'luckycharms', 'src': '/static/foodstim60/luckycharms.jpg', 'key': 'NaN', 'origWidth': 410, 'origHeight': 409, 'width': 410, 'height': 409, 'widthPercent': 0.8, 'rescaleHeight': True, 'trialN': 10, 'loaded': True, 'loadedTime': 16879.69999998808, 'positionName': 'CENTER', 'positionCoords': [635, 320.5]}]",Rate how much you want to eat this food from 0 (least) to 10 (most).,16873.30000001192,1669848321206,luckycharms,857.6999999880791,True,5.05,17731.0,857.6999999880791,True,HRV,HRV_0287,2022-11-30 22:46:28
11,"[{'imgObject': {}, 'id': 'salad w chicken', 'src': '/static/foodstim60/salad w chicken.jpg', 'key': 'NaN', 'origWidth': 411, 'origHeight': 411, 'width': 411, 'height': 411, 'widthPercent': 0.8, 'rescaleHeight': True, 'trialN': 11, 'loaded': True, 'loadedTime': 17756.600000023842, 'positionName': 'CENTER', 'positionCoords': [634.5, 319.5]}]",Rate how much you want to eat this food from 0 (least) to 10 (most).,17749.5,1669848322083,salad w chicken,1184.9000000357628,True,7.73,18934.400000035763,1184.9000000357628,True,HRV,HRV_0287,2022-11-30 22:46:28
12,"[{'imgObject': {}, 'id': 'banana', 'src': '/static/foodstim60/banana.jpg', 'key': 'NaN', 'origWidth': 410, 'origHeight': 410, 'width': 410, 'height': 410, 'widthPercent': 0.8, 'rescaleHeight': True, 'trialN': 12, 'loaded': True, 'loadedTime': 19004, 'positionName': 'CENTER', 'positionCoords': [635, 320]}]",Rate how much you want to eat this food from 0 (least) to 10 (most).,18996.30000001192,1669848323329,banana,1403.1000000238419,True,4.98,20399.400000035763,1403.1000000238419,True,HRV,HRV_0287,2022-11-30 22:46:28
13,"[{'imgObject': {}, 'id': 'bagel plain', 'src': '/static/foodstim60/bagel plain.jpg', 'key': 'NaN', 'origWidth': 410, 'origHeight': 410, 'width': 410, 'height': 410, 'widthPercent': 0.8, 'rescaleHeight': True, 'trialN': 13, 'loaded': True, 'loadedTime': 20417, 'positionName': 'CENTER', 'positionCoords': [635, 320]}]",Rate how much you want to eat this food from 0 (least) to 10 (most).,20410.5,1669848324744,bagel plain,1871.199999988079,True,7.63,22281.69999998808,1871.199999988079,True,HRV,HRV_0287,2022-11-30 22:46:28
14,"[{'imgObject': {}, 'id': 'froot loops w milk', 'src': '/static/foodstim60/froot loops w milk.jpg', 'key': 'NaN', 'origWidth': 410, 'origHeight': 410, 'width': 410, 'height': 410, 'widthPercent': 0.8, 'rescaleHeight': True, 'trialN': 14, 'loaded': True, 'loadedTime': 22303.69999998808, 'positionName': 'CENTER', 'positionCoords': [635, 320]}]",Rate how much you want to eat this food from 0 (least) to 10 (most).,22296.600000023842,1669848326630,froot loops w milk,1253.5999999642372,True,5.04,23550.19999998808,1253.5999999642372,True,HRV,HRV_0287,2022-11-30 22:46:28
15,"[{'imgObject': {}, 'id': 'apple slices', 'src': '/static/foodstim60/apple slices.jpg', 'key': 'NaN', 'origWidth': 409, 'origHeight': 410, 'width': 409, 'height': 410, 'widthPercent': 0.8, 'rescaleHeight': True, 'trialN': 15, 'loaded': True, 'loadedTime': 23580.400000035763, 'positionName': 'CENTER', 'positionCoords': [635.5, 320]}]",Rate how much you want to eat this food from 0 (least) to 10 (most).,23572.600000023842,1669848327906,apple slices,1205.300000011921,True,6.8,24777.900000035763,1205.300000011921,True,HRV,HRV_0287,2022-11-30 22:46:28
16,"[{'imgObject': {}, 'id': 'grilled chicken strips', 'src': '/static/foodstim60/grilled chicken strips.jpg', 'key': 'NaN', 'origWidth': 410, 'origHeight': 411, 'width': 410, 'height': 411, 'widthPercent': 0.8, 'rescaleHeight': True, 'trialN': 16, 'loaded': True, 'loadedTime': 24800.69999998808, 'positionName': 'CENTER', 'positionCoords': [635, 319.5]}]",Rate how much you want to eat this food from 0 (least) to 10 (most).,24793.100000023842,1669848329126,grilled chicken strips,1335.5,True,5.08,26128.600000023842,1335.5,True,HRV,HRV_0287,2022-11-30 22:46:28
17,"[{'imgObject': {}, 'id': 'raisin bran w milk', 'src': '/static/foodstim60/raisin bran w milk.jpg', 'key': 'NaN', 'origWidth': 411, 'origHeight': 411, 'width': 411, 'height': 411, 'widthPercent': 0.8, 'rescaleHeight': True, 'trialN': 17, 'loaded': True, 'loadedTime': 26159.100000023842, 'positionName': 'CENTER', 'positionCoords': [634.5, 319.5]}]",Rate how much you want to eat this food from 0 (least) to 10 (most).,26151.80000001192,1669848330485,raisin bran w milk,934.3000000119209,True,5.08,27086.100000023842,934.3000000119209,True,HRV,HRV_0287,2022-11-30 22:46:28
18,"[{'imgObject': {}, 'id': 'burger', 'src': '/static/foodstim60/burger.jpg', 'key': 'NaN', 'origWidth': 409, 'origHeight': 409, 'width': 409, 'height': 409, 'widthPercent': 0.8, 'rescaleHeight': True, 'trialN': 18, 'loaded': True, 'loadedTime': 27107.69999998808, 'positionName': 'CENTER', 'positionCoords': [635.5, 320.5]}]",Rate how much you want to eat this food from 0 (least) to 10 (most).,27100.5,1669848331434,burger,1436.4000000357628,True,7.41,28536.900000035763,1436.4000000357628,True,HRV,HRV_0287,2022-11-30 22:46:28
19,"[{'imgObject': {}, 'id': 'chicken nuggets2', 'src': '/static/foodstim60/chicken nuggets2.jpg', 'key': 'NaN', 'origWidth': 410, 'origHeight': 409, 'width': 410, 'height': 409, 'widthPercent': 0.8, 'rescaleHeight': True, 'trialN': 19, 'loaded': True, 'loadedTime': 28570.400000035763, 'positionName': 'CENTER', 'positionCoords': [635, 320.5]}]",Rate how much you want to eat this food from 0 (least) to 10 (most).,28563.30000001192,1669848332896,chicken nuggets2,1338.3999999761581,True,8.27,29901.69999998808,1338.3999999761581,True,HRV,HRV_0287,2022-11-30 22:46:28
20,"[{'imgObject': {}, 'id': 'veggieswithdip', 'src': '/static/foodstim60/veggieswithdip.jpg', 'key': 'NaN', 'origWidth': 409, 'origHeight': 409, 'width': 409, 'height': 409, 'widthPercent': 0.8, 'rescaleHeight': True, 'trialN': 20, 'loaded': True, 'loadedTime': 29925.900000035763, 'positionName': 'CENTER', 'positionCoords': [635.5, 320.5]}]",Rate how much you want to eat this food from 0 (least) to 10 (most).,29917.69999998808,1669848334251,veggieswithdip,1639.300000011921,True,1.03,31557.0,1639.300000011921,True,HRV,HRV_0287,2022-11-30 22:46:28
21,"[{'imgObject': {}, 'id': 'yogurt no spoon', 'src': '/static/foodstim60/yogurt no spoon.jpg', 'key': 'NaN', 'origWidth': 411, 'origHeight': 410, 'width': 411, 'height': 410, 'widthPercent': 0.8, 'rescaleHeight': True, 'trialN': 21, 'loaded': True, 'loadedTime': 31586.600000023842, 'positionName': 'CENTER', 'positionCoords': [634.5, 320]}]",Rate how much you want to eat this food from 0 (least) to 10 (most).,31580.0,1669848335913,yogurt no spoon,1391.199999988079,True,4.98,32971.19999998808,1391.199999988079,True,HRV,HRV_0287,2022-11-30 22:46:28
22,"[{'imgObject': {}, 'id': 'mango', 'src': '/static/foodstim60/mango.jpg', 'key': 'NaN', 'origWidth': 411, 'origHeight': 411, 'width': 411, 'height': 411, 'widthPercent': 0.8, 'rescaleHeight': True, 'trialN': 22, 'loaded': True, 'loadedTime': 32998.30000001192, 'positionName': 'CENTER', 'positionCoords': [634.5, 319.5]}]",Rate how much you want to eat this food from 0 (least) to 10 (most).,32992.19999998808,1669848337325,mango,1135.0,True,7.11,34127.19999998808,1135.0,True,HRV,HRV_0287,2022-11-30 22:46:28
23,"[{'imgObject': {}, 'id': 'orange slices', 'src': '/static/foodstim60/orange slices.jpg', 'key': 'NaN', 'origWidth': 409, 'origHeight': 410, 'width': 409, 'height': 410, 'widthPercent': 0.8, 'rescaleHeight': True, 'trialN': 23, 'loaded': True, 'loadedTime': 34158.10000002384, 'positionName': 'CENTER', 'positionCoords': [635.5, 320]}]",Rate how much you want to eat this food from 0 (least) to 10 (most).,34151.19999998808,1669848338485,orange slices,1496.5,True,4.9,35647.69999998808,1496.5,True,HRV,HRV_0287,2022-11-30 22:46:28
24,"[{'imgObject': {}, 'id': 'rigatoni and sauce', 'src': '/static/foodstim60/rigatoni and sauce.jpg', 'key': 'NaN', 'origWidth': 410, 'origHeight': 411, 'width': 410, 'height': 411, 'widthPercent': 0.8, 'rescaleHeight': True, 'trialN': 24, 'loaded': True, 'loadedTime': 35668, 'positionName': 'CENTER', 'positionCoords': [635, 319.5]}]",Rate how much you want to eat this food from 0 (least) to 10 (most).,35662.0,1669848339995,rigatoni and sauce,1205.0,True,8.46,36867.0,1205.0,True,HRV,HRV_0287,2022-11-30 22:46:28
25,"[{'imgObject': {}, 'id': 'burrito', 'src': '/static/foodstim60/burrito.jpg', 'key': 'NaN', 'origWidth': 410, 'origHeight': 410, 'width': 410, 'height': 410, 'widthPercent': 0.8, 'rescaleHeight': True, 'trialN': 25, 'loaded': True, 'loadedTime': 36894, 'positionName': 'CENTER', 'positionCoords': [635, 320]}]",Rate how much you want to eat this food from 0 (least) to 10 (most).,36886.19999998808,1669848341220,burrito,2051.800000011921,True,5.0,38938.0,2051.800000011921,True,HRV,HRV_0287,2022-11-30 22:46:28
26,"[{'imgObject': {}, 'id': 'steak', 'src': '/static/foodstim60/steak.jpg', 'key': 'NaN', 'origWidth': 410, 'origHeight': 410, 'width': 410, 'height': 410, 'widthPercent': 0.8, 'rescaleHeight': True, 'trialN': 26, 'loaded': True, 'loadedTime': 38998.90000003576, 'positionName': 'CENTER', 'positionCoords': [635, 320]}]",Rate how much you want to eat this food from 0 (least) to 10 (most).,38992.90000003576,1669848343326,steak,1590.199999988079,True,0.5,40583.10000002384,1590.199999988079,True,HRV,HRV_0287,2022-11-30 22:46:28
27,"[{'imgObject': {}, 'id': 'shreddedwheatwithmilk', 'src': '/static/foodstim60/shreddedwheatwithmilk.jpg', 'key': 'NaN', 'origWidth': 410, 'origHeight': 410, 'width': 410, 'height': 410, 'widthPercent': 0.8, 'rescaleHeight': True, 'trialN': 27, 'loaded': True, 'loadedTime': 40608.19999998808, 'positionName': 'CENTER', 'positionCoords': [635, 320]}]",Rate how much you want to eat this food from 0 (least) to 10 (most).,40601.60000002384,1669848344935,shreddedwheatwithmilk,1324.0999999642372,True,5.36,41925.69999998808,1324.0999999642372,True,HRV,HRV_0287,2022-11-30 22:46:28
28,"[{'imgObject': {}, 'id': 'eggs', 'src': '/static/foodstim60/eggs.jpg', 'key': 'NaN', 'origWidth': 409, 'origHeight': 409, 'width': 409, 'height': 409, 'widthPercent': 0.8, 'rescaleHeight': True, 'trialN': 28, 'loaded': True, 'loadedTime': 41954.5, 'positionName': 'CENTER', 'positionCoords': [635.5, 320.5]}]",Rate how much you want to eat this food from 0 (least) to 10 (most).,41942.30000001192,1669848346276,eggs,1038.800000011921,True,5.0200000000000005,42981.10000002384,1038.800000011921,True,HRV,HRV_0287,2022-11-30 22:46:28
29,"[{'imgObject': {}, 'id': 'bagel and cc', 'src': '/static/foodstim60/bagel and cc.jpg', 'key': 'NaN', 'origWidth': 410, 'origHeight': 410, 'width': 410, 'height': 410, 'widthPercent': 0.8, 'rescaleHeight': True, 'trialN': 29, 'loaded': True, 'loadedTime': 43006.40000003576, 'positionName': 'CENTER', 'positionCoords': [635, 320]}]",Rate how much you want to eat this food from 0 (least) to 10 (most).,42998.90000003576,1669848347332,bagel and cc,1275.199999988079,True,7.19,44274.10000002384,1275.199999988079,True,HRV,HRV_0287,2022-11-30 22:46:28
30,"[{'imgObject': {}, 'id': 'sushi w_condiments', 'src': '/static/foodstim60/sushi w_condiments.jpg', 'key': 'NaN', 'origWidth': 410, 'origHeight': 410, 'width': 410, 'height': 410, 'widthPercent': 0.8, 'rescaleHeight': True, 'trialN': 30, 'loaded': True, 'loadedTime': 44306.40000003576, 'positionName': 'CENTER', 'positionCoords': [635, 320]}]",Rate how much you want to eat this food from 0 (least) to 10 (most).,44298.69999998808,1669848348632,sushi w_condiments,2046.4000000357628,True,5.01,46345.10000002384,2046.4000000357628,True,HRV,HRV_0287,2022-11-30 22:46:28
31,"[{'imgObject': {}, 'id': 'pear', 'src': '/static/foodstim60/pear.jpg', 'key': 'NaN', 'origWidth': 411, 'origHeight': 410, 'width': 411, 'height': 410, 'widthPercent': 0.8, 'rescaleHeight': True, 'trialN': 31, 'loaded': True, 'loadedTime': 46361.5, 'positionName': 'CENTER', 'positionCoords': [634.5, 320]}]",Rate how much you want to eat this food from 0 (least) to 10 (most).,46355.69999998808,1669848350689,pear,1438.0,True,6.76,47793.69999998808,1438.0,True,HRV,HRV_0287,2022-11-30 22:46:28
32,"[{'imgObject': {}, 'id': 'fried eggs', 'src': '/static/foodstim60/fried eggs.jpg', 'key': 'NaN', 'origWidth': 410, 'origHeight': 410, 'width': 410, 'height': 410, 'widthPercent': 0.8, 'rescaleHeight': True, 'trialN': 32, 'loaded': True, 'loadedTime': 47813.90000003576, 'positionName': 'CENTER', 'positionCoords': [635, 320]}]",Rate how much you want to eat this food from 0 (least) to 10 (most).,47807.19999998808,1669848352141,fried eggs,1157.300000011921,True,4.96,48964.5,1157.300000011921,True,HRV,HRV_0287,2022-11-30 22:46:28
33,"[{'imgObject': {}, 'id': 'hashbrowns', 'src': '/static/foodstim60/hashbrowns.jpg', 'key': 'NaN', 'origWidth': 411, 'origHeight': 410, 'width': 411, 'height': 410, 'widthPercent': 0.8, 'rescaleHeight': True, 'trialN': 33, 'loaded': True, 'loadedTime': 48999.5, 'positionName': 'CENTER', 'positionCoords': [634.5, 320]}]",Rate how much you want to eat this food from 0 (least) to 10 (most).,48993.19999998808,1669848353327,hashbrowns,1305.6000000238419,True,7.53,50298.80000001192,1305.6000000238419,True,HRV,HRV_0287,2022-11-30 22:46:28
34,"[{'imgObject': {}, 'id': 'mashed potato', 'src': '/static/foodstim60/mashed potato.jpg', 'key': 'NaN', 'origWidth': 409, 'origHeight': 409, 'width': 409, 'height': 409, 'widthPercent': 0.8, 'rescaleHeight': True, 'trialN': 34, 'loaded': True, 'loadedTime': 50316.90000003576, 'positionName': 'CENTER', 'positionCoords': [635.5, 320.5]}]",Rate how much you want to eat this food from 0 (least) to 10 (most).,50310.19999998808,1669848354644,mashed potato,1668.4000000357628,True,9.65,51978.60000002384,1668.4000000357628,True,HRV,HRV_0287,2022-11-30 22:46:28
35,"[{'imgObject': {}, 'id': 'ice cream sundae 002', 'src': '/static/foodstim60/ice cream sundae 002.jpg', 'key': 'NaN', 'origWidth': 409, 'origHeight': 409, 'width': 409, 'height': 409, 'widthPercent': 0.8, 'rescaleHeight': True, 'trialN': 35, 'loaded': True, 'loadedTime': 52011.80000001192, 'positionName': 'CENTER', 'positionCoords': [635.5, 320.5]}]",Rate how much you want to eat this food from 0 (least) to 10 (most).,52004.90000003576,1669848356339,ice cream sundae 002,1175.199999988079,True,5.95,53180.10000002384,1175.199999988079,True,HRV,HRV_0287,2022-11-30 22:46:28
36,"[{'imgObject': {}, 'id': 'cheerios', 'src': '/static/foodstim60/cheerios.jpg', 'key': 'NaN', 'origWidth': 409, 'origHeight': 410, 'width': 409, 'height': 410, 'widthPercent': 0.8, 'rescaleHeight': True, 'trialN': 36, 'loaded': True, 'loadedTime': 53205, 'positionName': 'CENTER', 'positionCoords': [635.5, 320]}]",Rate how much you want to eat this food from 0 (least) to 10 (most).,53199.0,1669848357533,cheerios,1143.199999988079,True,5.14,54342.19999998808,1143.199999988079,True,HRV,HRV_0287,2022-11-30 22:46:28
37,"[{'imgObject': {}, 'id': 'rigatoni', 'src': '/static/foodstim60/rigatoni.jpg', 'key': 'NaN', 'origWidth': 411, 'origHeight': 411, 'width': 411, 'height': 411, 'widthPercent': 0.8, 'rescaleHeight': True, 'trialN': 37, 'loaded': True, 'loadedTime': 54373.30000001192, 'positionName': 'CENTER', 'positionCoords': [634.5, 319.5]}]",Rate how much you want to eat this food from 0 (least) to 10 (most).,54366.30000001192,1669848358700,rigatoni,933.8999999761581,True,5.0,55300.19999998808,933.8999999761581,True,HRV,HRV_0287,2022-11-30 22:46:28
38,"[{'imgObject': {}, 'id': 'granola w milk', 'src': '/static/foodstim60/granola w milk.jpg', 'key': 'NaN', 'origWidth': 410, 'origHeight': 410, 'width': 410, 'height': 410, 'widthPercent': 0.8, 'rescaleHeight': True, 'trialN': 38, 'loaded': True, 'loadedTime': 55335, 'positionName': 'CENTER', 'positionCoords': [635, 320]}]",Rate how much you want to eat this food from 0 (least) to 10 (most).,55329.10000002384,1669848359663,granola w milk,1182.5,True,5.01,56511.60000002384,1182.5,True,HRV,HRV_0287,2022-11-30 22:46:28
39,"[{'imgObject': {}, 'id': 'avocado', 'src': '/static/foodstim60/avocado.jpg', 'key': 'NaN', 'origWidth': 409, 'origHeight': 409, 'width': 409, 'height': 409, 'widthPercent': 0.8, 'rescaleHeight': True, 'trialN': 39, 'loaded': True, 'loadedTime': 56531.90000003576, 'positionName': 'CENTER', 'positionCoords': [635.5, 320.5]}]",Rate how much you want to eat this food from 0 (least) to 10 (most).,56525.90000003576,1669848360860,avocado,1608.5,True,1.47,58134.40000003576,1608.5,True,HRV,HRV_0287,2022-11-30 22:46:28
40,"[{'imgObject': {}, 'id': 'omelette', 'src': '/static/foodstim60/omelette.jpg', 'key': 'NaN', 'origWidth': 410, 'origHeight': 409, 'width': 410, 'height': 409, 'widthPercent': 0.8, 'rescaleHeight': True, 'trialN': 40, 'loaded': True, 'loadedTime': 58166.90000003576, 'positionName': 'CENTER', 'positionCoords': [635, 320.5]}]",Rate how much you want to eat this food from 0 (least) to 10 (most).,58159.69999998808,1669848362493,omelette,1192.5,True,5.07,59352.19999998808,1192.5,True,HRV,HRV_0287,2022-11-30 22:46:28
41,"[{'imgObject': {}, 'id': 'olives', 'src': '/static/foodstim60/olives.jpg', 'key': 'NaN', 'origWidth': 410, 'origHeight': 410, 'width': 410, 'height': 410, 'widthPercent': 0.8, 'rescaleHeight': True, 'trialN': 41, 'loaded': True, 'loadedTime': 59382.60000002384, 'positionName': 'CENTER', 'positionCoords': [635, 320]}]",Rate how much you want to eat this food from 0 (least) to 10 (most).,59376.40000003576,1669848363710,olives,1334.2999999523163,True,2.35,60710.69999998808,1334.2999999523163,True,HRV,HRV_0287,2022-11-30 22:46:28
42,"[{'imgObject': {}, 'id': 'hotdog w must', 'src': '/static/foodstim60/hotdog w must.jpg', 'key': 'NaN', 'origWidth': 409, 'origHeight': 409, 'width': 409, 'height': 409, 'widthPercent': 0.8, 'rescaleHeight': True, 'trialN': 42, 'loaded': True, 'loadedTime': 60731.5, 'positionName': 'CENTER', 'positionCoords': [635.5, 320.5]}]",Rate how much you want to eat this food from 0 (least) to 10 (most).,60725.19999998808,1669848365059,hotdog w must,1114.7000000476837,True,5.14,61839.90000003576,1114.7000000476837,True,HRV,HRV_0287,2022-11-30 22:46:28
43,"[{'imgObject': {}, 'id': 'popsicles', 'src': '/static/foodstim60/popsicles.jpg', 'key': 'NaN', 'origWidth': 410, 'origHeight': 410, 'width': 410, 'height': 410, 'widthPercent': 0.8, 'rescaleHeight': True, 'trialN': 43, 'loaded': True, 'loadedTime': 61874, 'positionName': 'CENTER', 'positionCoords': [635, 320]}]",Rate how much you want to eat this food from 0 (least) to 10 (most).,61863.19999998808,1669848366197,popsicles,1951.1000000238419,True,5.23,63814.30000001192,1951.1000000238419,True,HRV,HRV_0287,2022-11-30 22:46:28
44,"[{'imgObject': {}, 'id': 'kiwi', 'src': '/static/foodstim60/kiwi.jpg', 'key': 'NaN', 'origWidth': 410, 'origHeight': 410, 'width': 410, 'height': 410, 'widthPercent': 0.8, 'rescaleHeight': True, 'trialN': 44, 'loaded': True, 'loadedTime': 63835.80000001192, 'positionName': 'CENTER', 'positionCoords': [635, 320]}]",Rate how much you want to eat this food from 0 (least) to 10 (most).,63828.90000003576,1669848368163,kiwi,1506.5,True,0.58,65335.40000003576,1506.5,True,HRV,HRV_0287,2022-11-30 22:46:28
45,"[{'imgObject': {}, 'id': 'Tribe humus pita', 'src': '/static/foodstim60/Tribe humus pita.jpg', 'key': 'NaN', 'origWidth': 411, 'origHeight': 411, 'width': 411, 'height': 411, 'widthPercent': 0.8, 'rescaleHeight': True, 'trialN': 45, 'loaded': True, 'loadedTime': 65351.69999998808, 'positionName': 'CENTER', 'positionCoords': [634.5, 319.5]}]",Rate how much you want to eat this food from 0 (least) to 10 (most).,65345.90000003576,1669848369680,Tribe humus pita,1110.699999988079,True,7.38,66456.60000002384,1110.699999988079,True,HRV,HRV_0287,2022-11-30 22:46:28
46,"[{'imgObject': {}, 'id': 'cherries', 'src': '/static/foodstim60/cherries.jpg', 'key': 'NaN', 'origWidth': 410, 'origHeight': 411, 'width': 410, 'height': 411, 'widthPercent': 0.8, 'rescaleHeight': True, 'trialN': 46, 'loaded': True, 'loadedTime': 66486.19999998808, 'positionName': 'CENTER', 'positionCoords': [635, 319.5]}]",Rate how much you want to eat this food from 0 (least) to 10 (most).,66479.80000001192,1669848370814,cherries,1221.0,True,6.54,67700.80000001192,1221.0,True,HRV,HRV_0287,2022-11-30 22:46:28
47,"[{'imgObject': {}, 'id': 'corn cob', 'src': '/static/foodstim60/corn cob.jpg', 'key': 'NaN', 'origWidth': 411, 'origHeight': 411, 'width': 411, 'height': 411, 'widthPercent': 0.8, 'rescaleHeight': True, 'trialN': 47, 'loaded': True, 'loadedTime': 67726.19999998808, 'positionName': 'CENTER', 'positionCoords': [634.5, 319.5]}]",Rate how much you want to eat this food from 0 (least) to 10 (most).,67718.90000003576,1669848372053,corn cob,1012.7999999523163,True,4.96,68731.69999998808,1012.7999999523163,True,HRV,HRV_0287,2022-11-30 22:46:28
48,"[{'imgObject': {}, 'id': 'raspberries', 'src': '/static/foodstim60/raspberries.jpg', 'key': 'NaN', 'origWidth': 411, 'origHeight': 411, 'width': 411, 'height': 411, 'widthPercent': 0.8, 'rescaleHeight': True, 'trialN': 48, 'loaded': True, 'loadedTime': 68762.30000001192, 'positionName': 'CENTER', 'positionCoords': [634.5, 319.5]}]",Rate how much you want to eat this food from 0 (least) to 10 (most).,68756.10000002384,1669848373090,raspberries,1244.0999999642372,True,6.94,70000.19999998808,1244.0999999642372,True,HRV,HRV_0287,2022-11-30 22:46:28
49,"[{'imgObject': {}, 'id': 'turkey sandwich', 'src': '/static/foodstim60/turkey sandwich.jpg', 'key': 'NaN', 'origWidth': 409, 'origHeight': 409, 'width': 409, 'height': 409, 'widthPercent': 0.8, 'rescaleHeight': True, 'trialN': 49, 'loaded': True, 'loadedTime': 70022.69999998808, 'positionName': 'CENTER', 'positionCoords': [635.5, 320.5]}]",Rate how much you want to eat this food from 0 (least) to 10 (most).,70016.5,1669848374350,turkey sandwich,1154.4000000357628,True,7.11,71170.90000003576,1154.4000000357628,True,HRV,HRV_0287,2022-11-30 22:46:28
50,"[{'imgObject': {}, 'id': 'seaweed', 'src': '/static/foodstim60/seaweed.jpg', 'key': 'NaN', 'origWidth': 410, 'origHeight': 410, 'width': 410, 'height': 410, 'widthPercent': 0.8, 'rescaleHeight': True, 'trialN': 50, 'loaded': True, 'loadedTime': 71191, 'positionName': 'CENTER', 'positionCoords': [635, 320]}]",Rate how much you want to eat this food from 0 (least) to 10 (most).,71183.90000003576,1669848375518,seaweed,1099.8999999761581,True,4.78,72283.80000001192,1099.8999999761581,True,HRV,HRV_0287,2022-11-30 22:46:28
51,"[{'imgObject': {}, 'id': 'tacos', 'src': '/static/foodstim60/tacos.jpg', 'key': 'NaN', 'origWidth': 411, 'origHeight': 411, 'width': 411, 'height': 411, 'widthPercent': 0.8, 'rescaleHeight': True, 'trialN': 51, 'loaded': True, 'loadedTime': 72314.10000002384, 'positionName': 'CENTER', 'positionCoords': [634.5, 319.5]}]",Rate how much you want to eat this food from 0 (least) to 10 (most).,72306.90000003576,1669848376641,tacos,917.8999999761581,True,5.16,73224.80000001192,917.8999999761581,True,HRV,HRV_0287,2022-11-30 22:46:28
52,"[{'imgObject': {}, 'id': 'blackbeanswithrice', 'src': '/static/foodstim60/blackbeanswithrice.jpg', 'key': 'NaN', 'origWidth': 410, 'origHeight': 410, 'width': 410, 'height': 410, 'widthPercent': 0.8, 'rescaleHeight': True, 'trialN': 52, 'loaded': True, 'loadedTime': 73256.80000001192, 'positionName': 'CENTER', 'positionCoords': [635, 320]}]",Rate how much you want to eat this food from 0 (least) to 10 (most).,73250.19999998808,1669848377584,blackbeanswithrice,1260.1000000238419,True,4.71,74510.30000001192,1260.1000000238419,True,HRV,HRV_0287,2022-11-30 22:46:28
53,"[{'imgObject': {}, 'id': 'sweetpotato', 'src': '/static/foodstim60/sweetpotato.jpg', 'key': 'NaN', 'origWidth': 410, 'origHeight': 410, 'width': 410, 'height': 410, 'widthPercent': 0.8, 'rescaleHeight': True, 'trialN': 53, 'loaded': True, 'loadedTime': 74529.30000001192, 'positionName': 'CENTER', 'positionCoords': [635, 320]}]",Rate how much you want to eat this food from 0 (least) to 10 (most).,74523.40000003576,1669848378857,sweetpotato,1124.8999999761581,True,4.91,75648.30000001192,1124.8999999761581,True,HRV,HRV_0287,2022-11-30 22:46:28
54,"[{'imgObject': {}, 'id': 'salmon', 'src': '/static/foodstim60/salmon.jpg', 'key': 'NaN', 'origWidth': 410, 'origHeight': 409, 'width': 410, 'height': 409, 'widthPercent': 0.8, 'rescaleHeight': True, 'trialN': 54, 'loaded': True, 'loadedTime': 75684.19999998808, 'positionName': 'CENTER', 'positionCoords': [635, 320.5]}]",Rate how much you want to eat this food from 0 (least) to 10 (most).,75672.80000001192,1669848380007,salmon,1154.300000011921,True,2.79,76827.10000002384,1154.300000011921,True,HRV,HRV_0287,2022-11-30 22:46:28
55,"[{'imgObject': {}, 'id': 'eggsalad', 'src': '/static/foodstim60/eggsalad.jpg', 'key': 'NaN', 'origWidth': 410, 'origHeight': 409, 'width': 410, 'height': 409, 'widthPercent': 0.8, 'rescaleHeight': True, 'trialN': 55, 'loaded': True, 'loadedTime': 76866.40000003576, 'positionName': 'CENTER', 'positionCoords': [635, 320.5]}]",Rate how much you want to eat this food from 0 (least) to 10 (most).,76859.69999998808,1669848381194,eggsalad,1088.4000000357628,True,4.98,77948.10000002384,1088.4000000357628,True,HRV,HRV_0287,2022-11-30 22:46:28
56,"[{'imgObject': {}, 'id': 'chickenfingers', 'src': '/static/foodstim60/chickenfingers.jpg', 'key': 'NaN', 'origWidth': 410, 'origHeight': 410, 'width': 410, 'height': 410, 'widthPercent': 0.8, 'rescaleHeight': True, 'trialN': 56, 'loaded': True, 'loadedTime': 78051.40000003576, 'positionName': 'CENTER', 'positionCoords': [635, 320]}]",Rate how much you want to eat this food from 0 (least) to 10 (most).,77965.10000002384,1669848382299,chickenfingers,1153.5,True,7.19,79118.60000002384,1153.5,True,HRV,HRV_0287,2022-11-30 22:46:28
57,"[{'imgObject': {}, 'id': 'Grapes', 'src': '/static/foodstim60/Grapes.jpg', 'key': 'NaN', 'origWidth': 411, 'origHeight': 411, 'width': 411, 'height': 411, 'widthPercent': 0.8, 'rescaleHeight': True, 'trialN': 57, 'loaded': True, 'loadedTime': 79153.60000002384, 'positionName': 'CENTER', 'positionCoords': [634.5, 319.5]}]",Rate how much you want to eat this food from 0 (least) to 10 (most).,79146.60000002384,1669848383481,Grapes,1388.0999999642372,True,5.21,80534.69999998808,1388.0999999642372,True,HRV,HRV_0287,2022-11-30 22:46:28
58,"[{'imgObject': {}, 'id': 'lox', 'src': '/static/foodstim60/lox.jpg', 'key': 'NaN', 'origWidth': 410, 'origHeight': 411, 'width': 410, 'height': 411, 'widthPercent': 0.8, 'rescaleHeight': True, 'trialN': 58, 'loaded': True, 'loadedTime': 80560.10000002384, 'positionName': 'CENTER', 'positionCoords': [635, 319.5]}]",Rate how much you want to eat this food from 0 (least) to 10 (most).,80552.30000001192,1669848384886,lox,1423.0,True,2.84,81975.30000001192,1423.0,True,HRV,HRV_0287,2022-11-30 22:46:28
59,"[{'imgObject': {}, 'id': 'cherry tomato', 'src': '/static/foodstim60/cherry tomato.jpg', 'key': 'NaN', 'origWidth': 410, 'origHeight': 410, 'width': 410, 'height': 410, 'widthPercent': 0.8, 'rescaleHeight': True, 'trialN': 59, 'loaded': True, 'loadedTime': 82003.40000003576, 'positionName': 'CENTER', 'positionCoords': [635, 320]}]",Rate how much you want to eat this food from 0 (least) to 10 (most).,81996.60000002384,1669848386331,cherry tomato,1877.3999999761581,True,9.51,83874.0,1877.3999999761581,True,HRV,HRV_0287,2022-11-30 22:46:28
