trialN,stimuli,trialStartTime,trialStartTime_UNIX,stimulus1,stimulus2,stimulus1Bid,stimulus2Bid,delta,selected,rt,rt_UNIX,rt_perfnow,receivedResponse,rsp,trialEndTime,trialDuration,trialEndTime_UNIX,trialDuration_UNIX,exp,subjectId,date
0,"[{'imgObject': {}, 'id': 'apple slices', 'src': '/static/foodstim60/apple slices.jpg', 'key': 'u', 'origWidth': 409, 'origHeight': 410, 'width': 409, 'height': 410, 'widthPercent': 0.45, 'rescaleHeight': False, 'trialN': 0, 'loaded': True, 'loadedTime': 4033.2000000476837, 'positionName': 'LEFT', 'positionCoords': [397.4, 320], 'bid': 6.8}, {'imgObject': {}, 'id': 'baked potato', 'src': '/static/foodstim60/baked potato.jpg', 'key': 'i', 'origWidth': 409, 'origHeight': 410, 'width': 409, 'height': 410, 'widthPercent': 0.45, 'rescaleHeight': False, 'trialN': 0, 'loaded': True, 'loadedTime': 4033.5, 'positionName': 'RIGHT', 'positionCoords': [873.6, 320], 'bid': 7.21}]",3857.2000000476837,1669848427666,apple slices,baked potato,6.8,7.21,0.41000000000000014,baked potato,1626.0999999642372,1659,1659.199999988079,True,i,6016.900000035763,2159.699999988079,1669848429826,2160,HRV,HRV_0287,2022-11-30 22:51:10
1,"[{'imgObject': {}, 'id': 'kiwi', 'src': '/static/foodstim60/kiwi.jpg', 'key': 'u', 'origWidth': 410, 'origHeight': 410, 'width': 410, 'height': 410, 'widthPercent': 0.45, 'rescaleHeight': False, 'trialN': 1, 'loaded': True, 'loadedTime': 6023.200000047684, 'positionName': 'LEFT', 'positionCoords': [396.4, 320], 'bid': 0.58}, {'imgObject': {}, 'id': 'avocado', 'src': '/static/foodstim60/avocado.jpg', 'key': 'i', 'origWidth': 409, 'origHeight': 409, 'width': 409, 'height': 409, 'widthPercent': 0.45, 'rescaleHeight': False, 'trialN': 1, 'loaded': True, 'loadedTime': 6023.5, 'positionName': 'RIGHT', 'positionCoords': [873.6, 320.5], 'bid': 1.47}]",6017.600000023842,1669848429827,kiwi,avocado,0.58,1.47,0.89,kiwi,585.6000000238419,590,590.5,True,u,7109.200000047684,1091.6000000238419,1669848430918,1091,HRV,HRV_0287,2022-11-30 22:51:10
2,"[{'imgObject': {}, 'id': 'seaweed', 'src': '/static/foodstim60/seaweed.jpg', 'key': 'u', 'origWidth': 410, 'origHeight': 410, 'width': 410, 'height': 410, 'widthPercent': 0.45, 'rescaleHeight': False, 'trialN': 2, 'loaded': True, 'loadedTime': 7115.100000023842, 'positionName': 'LEFT', 'positionCoords': [396.4, 320], 'bid': 4.78}, {'imgObject': {}, 'id': 'avocado', 'src': '/static/foodstim60/avocado.jpg', 'key': 'i', 'origWidth': 409, 'origHeight': 409, 'width': 409, 'height': 409, 'widthPercent': 0.45, 'rescaleHeight': False, 'trialN': 2, 'loaded': True, 'loadedTime': 7115.600000023842, 'positionName': 'RIGHT', 'positionCoords': [873.6, 320.5], 'bid': 1.47}]",7109.800000011921,1669848430919,seaweed,avocado,4.78,1.47,-3.3100000000000005,seaweed,665.4000000357628,671,671.1999999880791,True,u,8281.400000035763,1171.6000000238419,1669848432090,1171,HRV,HRV_0287,2022-11-30 22:51:10
3,"[{'imgObject': {}, 'id': 'rigatoni', 'src': '/static/foodstim60/rigatoni.jpg', 'key': 'u', 'origWidth': 411, 'origHeight': 411, 'width': 411, 'height': 411, 'widthPercent': 0.45, 'rescaleHeight': False, 'trialN': 3, 'loaded': True, 'loadedTime': 8283.800000011921, 'positionName': 'LEFT', 'positionCoords': [395.4, 319.5], 'bid': 5}, {'imgObject': {}, 'id': 'luckycharms', 'src': '/static/foodstim60/luckycharms.jpg', 'key': 'i', 'origWidth': 410, 'origHeight': 409, 'width': 410, 'height': 409, 'widthPercent': 0.45, 'rescaleHeight': False, 'trialN': 3, 'loaded': True, 'loadedTime': 8284, 'positionName': 'RIGHT', 'positionCoords': [873.6, 320.5], 'bid': 5.05}]",8281.800000011921,1669848432091,rigatoni,luckycharms,5.0,5.05,0.04999999999999982,rigatoni,560.6000000238419,566,566.1999999880791,True,u,9349.0,1067.199999988079,1669848433158,1067,HRV,HRV_0287,2022-11-30 22:51:10
4,"[{'imgObject': {}, 'id': 'omelette', 'src': '/static/foodstim60/omelette.jpg', 'key': 'u', 'origWidth': 410, 'origHeight': 409, 'width': 410, 'height': 409, 'widthPercent': 0.45, 'rescaleHeight': False, 'trialN': 4, 'loaded': True, 'loadedTime': 9351.300000011921, 'positionName': 'LEFT', 'positionCoords': [396.4, 320.5], 'bid': 5.07}, {'imgObject': {}, 'id': 'raisin bran w milk', 'src': '/static/foodstim60/raisin bran w milk.jpg', 'key': 'i', 'origWidth': 411, 'origHeight': 411, 'width': 411, 'height': 411, 'widthPercent': 0.45, 'rescaleHeight': False, 'trialN': 4, 'loaded': True, 'loadedTime': 9351.5, 'positionName': 'RIGHT', 'positionCoords': [873.6, 319.5], 'bid': 5.08}]",9349.400000035763,1669848433158,omelette,raisin bran w milk,5.07,5.08,0.009999999999999787,omelette,719.6999999880791,725,724.5,True,u,10582.100000023842,1232.699999988079,1669848434391,1233,HRV,HRV_0287,2022-11-30 22:51:10
5,"[{'imgObject': {}, 'id': 'hotdog w must', 'src': '/static/foodstim60/hotdog w must.jpg', 'key': 'u', 'origWidth': 409, 'origHeight': 409, 'width': 409, 'height': 409, 'widthPercent': 0.45, 'rescaleHeight': False, 'trialN': 5, 'loaded': True, 'loadedTime': 10585.400000035763, 'positionName': 'LEFT', 'positionCoords': [397.4, 320.5], 'bid': 5.14}, {'imgObject': {}, 'id': 'pear', 'src': '/static/foodstim60/pear.jpg', 'key': 'i', 'origWidth': 411, 'origHeight': 410, 'width': 411, 'height': 410, 'widthPercent': 0.45, 'rescaleHeight': False, 'trialN': 5, 'loaded': True, 'loadedTime': 10585.700000047684, 'positionName': 'RIGHT', 'positionCoords': [873.6, 320], 'bid': 6.76}]",10583.0,1669848434392,hotdog w must,pear,5.14,6.76,1.62,hotdog w must,642.2000000476837,648,647.8000000119209,True,u,11732.200000047684,1149.2000000476837,1669848435541,1149,HRV,HRV_0287,2022-11-30 22:51:10
6,"[{'imgObject': {}, 'id': 'shreddedwheatwithmilk', 'src': '/static/foodstim60/shreddedwheatwithmilk.jpg', 'key': 'u', 'origWidth': 410, 'origHeight': 410, 'width': 410, 'height': 410, 'widthPercent': 0.45, 'rescaleHeight': False, 'trialN': 6, 'loaded': True, 'loadedTime': 11734.5, 'positionName': 'LEFT', 'positionCoords': [396.4, 320], 'bid': 5.36}, {'imgObject': {}, 'id': 'strawberries', 'src': '/static/foodstim60/strawberries.jpg', 'key': 'i', 'origWidth': 410, 'origHeight': 410, 'width': 410, 'height': 410, 'widthPercent': 0.45, 'rescaleHeight': False, 'trialN': 6, 'loaded': True, 'loadedTime': 11734.900000035763, 'positionName': 'RIGHT', 'positionCoords': [873.6, 320], 'bid': 7.2}]",11732.5,1669848435542,shreddedwheatwithmilk,strawberries,5.36,7.2,1.8399999999999999,shreddedwheatwithmilk,891.5,896,896.6000000238419,True,u,13129.800000011921,1397.300000011921,1669848436939,1397,HRV,HRV_0287,2022-11-30 22:51:10
7,"[{'imgObject': {}, 'id': 'rigatoni and sauce', 'src': '/static/foodstim60/rigatoni and sauce.jpg', 'key': 'u', 'origWidth': 410, 'origHeight': 411, 'width': 410, 'height': 411, 'widthPercent': 0.45, 'rescaleHeight': False, 'trialN': 7, 'loaded': True, 'loadedTime': 13132.100000023842, 'positionName': 'LEFT', 'positionCoords': [396.4, 319.5], 'bid': 8.46}, {'imgObject': {}, 'id': 'raspberries', 'src': '/static/foodstim60/raspberries.jpg', 'key': 'i', 'origWidth': 411, 'origHeight': 411, 'width': 411, 'height': 411, 'widthPercent': 0.45, 'rescaleHeight': False, 'trialN': 7, 'loaded': True, 'loadedTime': 13132.200000047684, 'positionName': 'RIGHT', 'positionCoords': [873.6, 319.5], 'bid': 6.94}]",13130.100000023842,1669848436939,rigatoni and sauce,raspberries,8.46,6.94,-1.5200000000000005,rigatoni and sauce,922.1000000238419,928,927.6999999880791,True,u,14558.800000011921,1428.699999988079,1669848438368,1429,HRV,HRV_0287,2022-11-30 22:51:10
8,"[{'imgObject': {}, 'id': 'fried eggs', 'src': '/static/foodstim60/fried eggs.jpg', 'key': 'u', 'origWidth': 410, 'origHeight': 410, 'width': 410, 'height': 410, 'widthPercent': 0.45, 'rescaleHeight': False, 'trialN': 8, 'loaded': True, 'loadedTime': 14561, 'positionName': 'LEFT', 'positionCoords': [396.4, 320], 'bid': 4.96}, {'imgObject': {}, 'id': 'banana', 'src': '/static/foodstim60/banana.jpg', 'key': 'i', 'origWidth': 410, 'origHeight': 410, 'width': 410, 'height': 410, 'widthPercent': 0.45, 'rescaleHeight': False, 'trialN': 8, 'loaded': True, 'loadedTime': 14561.200000047684, 'positionName': 'RIGHT', 'positionCoords': [873.6, 320], 'bid': 4.98}]",14559.100000023842,1669848438368,fried eggs,banana,4.96,4.98,0.020000000000000462,fried eggs,799.8000000119209,805,805.1000000238419,True,u,15864.600000023842,1305.5,1669848439674,1306,HRV,HRV_0287,2022-11-30 22:51:10
9,"[{'imgObject': {}, 'id': 'popsicles', 'src': '/static/foodstim60/popsicles.jpg', 'key': 'u', 'origWidth': 410, 'origHeight': 410, 'width': 410, 'height': 410, 'widthPercent': 0.45, 'rescaleHeight': False, 'trialN': 9, 'loaded': True, 'loadedTime': 15867, 'positionName': 'LEFT', 'positionCoords': [396.4, 320], 'bid': 5.23}, {'imgObject': {}, 'id': 'froot loops w milk', 'src': '/static/foodstim60/froot loops w milk.jpg', 'key': 'i', 'origWidth': 410, 'origHeight': 410, 'width': 410, 'height': 410, 'widthPercent': 0.45, 'rescaleHeight': False, 'trialN': 9, 'loaded': True, 'loadedTime': 15867.200000047684, 'positionName': 'RIGHT', 'positionCoords': [873.6, 320], 'bid': 5.04}]",15865.100000023842,1669848439674,popsicles,froot loops w milk,5.23,5.04,-0.1900000000000004,froot loops w milk,831.6999999880791,837,836.8000000119209,True,i,17202.30000001192,1337.199999988079,1669848441011,1337,HRV,HRV_0287,2022-11-30 22:51:10
10,"[{'imgObject': {}, 'id': 'salmon', 'src': '/static/foodstim60/salmon.jpg', 'key': 'u', 'origWidth': 410, 'origHeight': 409, 'width': 410, 'height': 409, 'widthPercent': 0.45, 'rescaleHeight': False, 'trialN': 10, 'loaded': True, 'loadedTime': 17204.700000047684, 'positionName': 'LEFT', 'positionCoords': [396.4, 320.5], 'bid': 2.79}, {'imgObject': {}, 'id': 'olives', 'src': '/static/foodstim60/olives.jpg', 'key': 'i', 'origWidth': 410, 'origHeight': 410, 'width': 410, 'height': 410, 'widthPercent': 0.45, 'rescaleHeight': False, 'trialN': 10, 'loaded': True, 'loadedTime': 17205, 'positionName': 'RIGHT', 'positionCoords': [873.6, 320], 'bid': 2.35}]",17202.700000047684,1669848441012,salmon,olives,2.79,2.35,-0.43999999999999995,salmon,976.0,981,981.3999999761581,True,u,18684.30000001192,1481.5999999642372,1669848442493,1481,HRV,HRV_0287,2022-11-30 22:51:10
11,"[{'imgObject': {}, 'id': 'raspberries', 'src': '/static/foodstim60/raspberries.jpg', 'key': 'u', 'origWidth': 411, 'origHeight': 411, 'width': 411, 'height': 411, 'widthPercent': 0.45, 'rescaleHeight': False, 'trialN': 11, 'loaded': True, 'loadedTime': 18686.700000047684, 'positionName': 'LEFT', 'positionCoords': [395.4, 319.5], 'bid': 6.94}, {'imgObject': {}, 'id': 'mac & cheese', 'src': '/static/foodstim60/mac & cheese.jpg', 'key': 'i', 'origWidth': 410, 'origHeight': 410, 'width': 410, 'height': 410, 'widthPercent': 0.45, 'rescaleHeight': False, 'trialN': 11, 'loaded': True, 'loadedTime': 18686.900000035763, 'positionName': 'RIGHT', 'positionCoords': [873.6, 320], 'bid': 5.98}]",18684.80000001192,1669848442494,raspberries,mac & cheese,6.94,5.98,-0.96,mac & cheese,665.9000000357628,671,671.3000000119209,True,i,19857.0,1172.199999988079,1669848443666,1172,HRV,HRV_0287,2022-11-30 22:51:10
12,"[{'imgObject': {}, 'id': 'grilled chicken strips', 'src': '/static/foodstim60/grilled chicken strips.jpg', 'key': 'u', 'origWidth': 410, 'origHeight': 411, 'width': 410, 'height': 411, 'widthPercent': 0.45, 'rescaleHeight': False, 'trialN': 12, 'loaded': True, 'loadedTime': 19859.5, 'positionName': 'LEFT', 'positionCoords': [396.4, 319.5], 'bid': 5.08}, {'imgObject': {}, 'id': 'sweetpotato', 'src': '/static/foodstim60/sweetpotato.jpg', 'key': 'i', 'origWidth': 410, 'origHeight': 410, 'width': 410, 'height': 410, 'widthPercent': 0.45, 'rescaleHeight': False, 'trialN': 12, 'loaded': True, 'loadedTime': 19859.700000047684, 'positionName': 'RIGHT', 'positionCoords': [873.6, 320], 'bid': 4.91}]",19857.400000035763,1669848443667,grilled chicken strips,sweetpotato,5.08,4.91,-0.16999999999999993,sweetpotato,850.3000000119209,855,855.3999999761581,True,i,21213.0,1355.5999999642372,1669848445022,1355,HRV,HRV_0287,2022-11-30 22:51:10
13,"[{'imgObject': {}, 'id': 'strawberries', 'src': '/static/foodstim60/strawberries.jpg', 'key': 'u', 'origWidth': 410, 'origHeight': 410, 'width': 410, 'height': 410, 'widthPercent': 0.45, 'rescaleHeight': False, 'trialN': 13, 'loaded': True, 'loadedTime': 21215.600000023842, 'positionName': 'LEFT', 'positionCoords': [396.4, 320], 'bid': 7.2}, {'imgObject': {}, 'id': 'mashed potato', 'src': '/static/foodstim60/mashed potato.jpg', 'key': 'i', 'origWidth': 409, 'origHeight': 409, 'width': 409, 'height': 409, 'widthPercent': 0.45, 'rescaleHeight': False, 'trialN': 13, 'loaded': True, 'loadedTime': 21215.700000047684, 'positionName': 'RIGHT', 'positionCoords': [873.6, 320.5], 'bid': 9.65}]",21213.400000035763,1669848445023,strawberries,mashed potato,7.2,9.65,2.45,mashed potato,563.3000000119209,569,568.8999999761581,True,i,22282.600000023842,1069.199999988079,1669848446092,1069,HRV,HRV_0287,2022-11-30 22:51:10
14,"[{'imgObject': {}, 'id': 'fried eggs', 'src': '/static/foodstim60/fried eggs.jpg', 'key': 'u', 'origWidth': 410, 'origHeight': 410, 'width': 410, 'height': 410, 'widthPercent': 0.45, 'rescaleHeight': False, 'trialN': 14, 'loaded': True, 'loadedTime': 22285.200000047684, 'positionName': 'LEFT', 'positionCoords': [396.4, 320], 'bid': 4.96}, {'imgObject': {}, 'id': 'veggieswithdip', 'src': '/static/foodstim60/veggieswithdip.jpg', 'key': 'i', 'origWidth': 409, 'origHeight': 409, 'width': 409, 'height': 409, 'widthPercent': 0.45, 'rescaleHeight': False, 'trialN': 14, 'loaded': True, 'loadedTime': 22285.5, 'positionName': 'RIGHT', 'positionCoords': [873.6, 320.5], 'bid': 1.03}]",22283.100000023842,1669848446092,fried eggs,veggieswithdip,4.96,1.03,-3.9299999999999997,fried eggs,662.3999999761581,668,668.1999999880791,True,u,23452.600000023842,1169.5,1669848447262,1170,HRV,HRV_0287,2022-11-30 22:51:10
15,"[{'imgObject': {}, 'id': 'avocado', 'src': '/static/foodstim60/avocado.jpg', 'key': 'u', 'origWidth': 409, 'origHeight': 409, 'width': 409, 'height': 409, 'widthPercent': 0.45, 'rescaleHeight': False, 'trialN': 15, 'loaded': True, 'loadedTime': 23454.900000035763, 'positionName': 'LEFT', 'positionCoords': [397.4, 320.5], 'bid': 1.47}, {'imgObject': {}, 'id': 'veggieswithdip', 'src': '/static/foodstim60/veggieswithdip.jpg', 'key': 'i', 'origWidth': 409, 'origHeight': 409, 'width': 409, 'height': 409, 'widthPercent': 0.45, 'rescaleHeight': False, 'trialN': 15, 'loaded': True, 'loadedTime': 23455.200000047684, 'positionName': 'RIGHT', 'positionCoords': [873.6, 320.5], 'bid': 1.03}]",23452.900000035763,1669848447262,avocado,veggieswithdip,1.47,1.03,-0.43999999999999995,veggieswithdip,590.6999999880791,596,595.8000000119209,True,i,24549.600000023842,1096.699999988079,1669848448359,1097,HRV,HRV_0287,2022-11-30 22:51:10
16,"[{'imgObject': {}, 'id': 'steak', 'src': '/static/foodstim60/steak.jpg', 'key': 'u', 'origWidth': 410, 'origHeight': 410, 'width': 410, 'height': 410, 'widthPercent': 0.45, 'rescaleHeight': False, 'trialN': 16, 'loaded': True, 'loadedTime': 24552, 'positionName': 'LEFT', 'positionCoords': [396.4, 320], 'bid': 0.5}, {'imgObject': {}, 'id': 'eggsalad', 'src': '/static/foodstim60/eggsalad.jpg', 'key': 'i', 'origWidth': 410, 'origHeight': 409, 'width': 410, 'height': 409, 'widthPercent': 0.45, 'rescaleHeight': False, 'trialN': 16, 'loaded': True, 'loadedTime': 24552.200000047684, 'positionName': 'RIGHT', 'positionCoords': [873.6, 320.5], 'bid': 4.98}]",24550.0,1669848448359,steak,eggsalad,0.5,4.98,4.48,eggsalad,598.8000000119209,604,603.6000000238419,True,i,25653.900000035763,1103.9000000357628,1669848449463,1104,HRV,HRV_0287,2022-11-30 22:51:10
17,"[{'imgObject': {}, 'id': 'olives', 'src': '/static/foodstim60/olives.jpg', 'key': 'u', 'origWidth': 410, 'origHeight': 410, 'width': 410, 'height': 410, 'widthPercent': 0.45, 'rescaleHeight': False, 'trialN': 17, 'loaded': True, 'loadedTime': 25656, 'positionName': 'LEFT', 'positionCoords': [396.4, 320], 'bid': 2.35}, {'imgObject': {}, 'id': 'orange slices', 'src': '/static/foodstim60/orange slices.jpg', 'key': 'i', 'origWidth': 409, 'origHeight': 410, 'width': 409, 'height': 410, 'widthPercent': 0.45, 'rescaleHeight': False, 'trialN': 17, 'loaded': True, 'loadedTime': 25656.200000047684, 'positionName': 'RIGHT', 'positionCoords': [873.6, 320], 'bid': 4.9}]",25654.200000047684,1669848449463,olives,orange slices,2.35,4.9,2.5500000000000003,olives,601.1999999880791,608,607.1999999880791,True,u,26761.600000023842,1107.3999999761581,1669848450571,1108,HRV,HRV_0287,2022-11-30 22:51:10
18,"[{'imgObject': {}, 'id': 'turkeysandwich', 'src': '/static/foodstim60/turkeysandwich.jpg', 'key': 'u', 'origWidth': 409, 'origHeight': 409, 'width': 409, 'height': 409, 'widthPercent': 0.45, 'rescaleHeight': False, 'trialN': 18, 'loaded': True, 'loadedTime': 26763.80000001192, 'positionName': 'LEFT', 'positionCoords': [397.4, 320.5], 'bid': 7.16}, {'imgObject': {}, 'id': 'chickenfingers', 'src': '/static/foodstim60/chickenfingers.jpg', 'key': 'i', 'origWidth': 410, 'origHeight': 410, 'width': 410, 'height': 410, 'widthPercent': 0.45, 'rescaleHeight': False, 'trialN': 18, 'loaded': True, 'loadedTime': 26764.30000001192, 'positionName': 'RIGHT', 'positionCoords': [873.6, 320], 'bid': 7.19}]",26762.0,1669848450571,turkeysandwich,chickenfingers,7.16,7.19,0.03000000000000025,turkeysandwich,1192.4000000357628,1198,1197.5,True,u,28461.100000023842,1699.1000000238419,1669848452270,1699,HRV,HRV_0287,2022-11-30 22:51:10
19,"[{'imgObject': {}, 'id': 'mac & cheese', 'src': '/static/foodstim60/mac & cheese.jpg', 'key': 'u', 'origWidth': 410, 'origHeight': 410, 'width': 410, 'height': 410, 'widthPercent': 0.45, 'rescaleHeight': False, 'trialN': 19, 'loaded': True, 'loadedTime': 28463, 'positionName': 'LEFT', 'positionCoords': [396.4, 320], 'bid': 5.98}, {'imgObject': {}, 'id': 'roastedpotatoes', 'src': '/static/foodstim60/roastedpotatoes.jpg', 'key': 'i', 'origWidth': 409, 'origHeight': 410, 'width': 409, 'height': 410, 'widthPercent': 0.45, 'rescaleHeight': False, 'trialN': 19, 'loaded': True, 'loadedTime': 28463.100000023842, 'positionName': 'RIGHT', 'positionCoords': [873.6, 320], 'bid': 6.61}]",28461.600000023842,1669848452271,mac & cheese,roastedpotatoes,5.98,6.61,0.6299999999999999,mac & cheese,617.6000000238419,622,622.3999999761581,True,u,29584.30000001192,1122.699999988079,1669848453394,1123,HRV,HRV_0287,2022-11-30 22:51:10
20,"[{'imgObject': {}, 'id': 'chicken nuggets2', 'src': '/static/foodstim60/chicken nuggets2.jpg', 'key': 'u', 'origWidth': 410, 'origHeight': 409, 'width': 410, 'height': 409, 'widthPercent': 0.45, 'rescaleHeight': False, 'trialN': 20, 'loaded': True, 'loadedTime': 29586.400000035763, 'positionName': 'LEFT', 'positionCoords': [396.4, 320.5], 'bid': 8.27}, {'imgObject': {}, 'id': 'rigatoni and sauce', 'src': '/static/foodstim60/rigatoni and sauce.jpg', 'key': 'i', 'origWidth': 410, 'origHeight': 411, 'width': 410, 'height': 411, 'widthPercent': 0.45, 'rescaleHeight': False, 'trialN': 20, 'loaded': True, 'loadedTime': 29587, 'positionName': 'RIGHT', 'positionCoords': [873.6, 319.5], 'bid': 8.46}]",29584.700000047684,1669848453394,chicken nuggets2,rigatoni and sauce,8.27,8.46,0.19000000000000128,chicken nuggets2,900.5,906,905.5999999642372,True,u,30991.200000047684,1406.5,1669848454801,1407,HRV,HRV_0287,2022-11-30 22:51:10
21,"[{'imgObject': {}, 'id': 'chicken nuggets2', 'src': '/static/foodstim60/chicken nuggets2.jpg', 'key': 'u', 'origWidth': 410, 'origHeight': 409, 'width': 410, 'height': 409, 'widthPercent': 0.45, 'rescaleHeight': False, 'trialN': 21, 'loaded': True, 'loadedTime': 30993.900000035763, 'positionName': 'LEFT', 'positionCoords': [396.4, 320.5], 'bid': 8.27}, {'imgObject': {}, 'id': 'blueberries', 'src': '/static/foodstim60/blueberries.jpg', 'key': 'i', 'origWidth': 411, 'origHeight': 411, 'width': 411, 'height': 411, 'widthPercent': 0.45, 'rescaleHeight': False, 'trialN': 21, 'loaded': True, 'loadedTime': 30994.100000023842, 'positionName': 'RIGHT', 'positionCoords': [873.6, 319.5], 'bid': 6.92}]",30991.600000023842,1669848454801,chicken nuggets2,blueberries,8.27,6.92,-1.3499999999999996,chicken nuggets2,498.60000002384186,525,525.0,True,u,32017.5,1025.8999999761581,1669848455827,1026,HRV,HRV_0287,2022-11-30 22:51:10
22,"[{'imgObject': {}, 'id': 'eggsalad', 'src': '/static/foodstim60/eggsalad.jpg', 'key': 'u', 'origWidth': 410, 'origHeight': 409, 'width': 410, 'height': 409, 'widthPercent': 0.45, 'rescaleHeight': False, 'trialN': 22, 'loaded': True, 'loadedTime': 32020, 'positionName': 'LEFT', 'positionCoords': [396.4, 320.5], 'bid': 4.98}, {'imgObject': {}, 'id': 'eggs', 'src': '/static/foodstim60/eggs.jpg', 'key': 'i', 'origWidth': 409, 'origHeight': 409, 'width': 409, 'height': 409, 'widthPercent': 0.45, 'rescaleHeight': False, 'trialN': 22, 'loaded': True, 'loadedTime': 32020.30000001192, 'positionName': 'RIGHT', 'positionCoords': [873.6, 320.5], 'bid': 5.0200000000000005}]",32017.900000035763,1669848455827,eggsalad,eggs,4.98,5.0200000000000005,0.040000000000000036,eggsalad,764.1999999880791,770,769.8999999761581,True,u,33289.0,1271.0999999642372,1669848457098,1271,HRV,HRV_0287,2022-11-30 22:51:10
23,"[{'imgObject': {}, 'id': 'hashbrowns', 'src': '/static/foodstim60/hashbrowns.jpg', 'key': 'u', 'origWidth': 411, 'origHeight': 410, 'width': 411, 'height': 410, 'widthPercent': 0.45, 'rescaleHeight': False, 'trialN': 23, 'loaded': True, 'loadedTime': 33291.40000003576, 'positionName': 'LEFT', 'positionCoords': [395.4, 320], 'bid': 7.53}, {'imgObject': {}, 'id': 'salad w chicken', 'src': '/static/foodstim60/salad w chicken.jpg', 'key': 'i', 'origWidth': 411, 'origHeight': 411, 'width': 411, 'height': 411, 'widthPercent': 0.45, 'rescaleHeight': False, 'trialN': 23, 'loaded': True, 'loadedTime': 33291.60000002384, 'positionName': 'RIGHT', 'positionCoords': [873.6, 319.5], 'bid': 7.73}]",33289.40000003576,1669848457099,hashbrowns,salad w chicken,7.53,7.73,0.20000000000000018,salad w chicken,775.6999999880791,781,781.0,True,i,34571.90000003576,1282.5,1669848458381,1282,HRV,HRV_0287,2022-11-30 22:51:10
24,"[{'imgObject': {}, 'id': 'omelette', 'src': '/static/foodstim60/omelette.jpg', 'key': 'u', 'origWidth': 410, 'origHeight': 409, 'width': 410, 'height': 409, 'widthPercent': 0.45, 'rescaleHeight': False, 'trialN': 24, 'loaded': True, 'loadedTime': 34574.30000001192, 'positionName': 'LEFT', 'positionCoords': [396.4, 320.5], 'bid': 5.07}, {'imgObject': {}, 'id': 'shreddedwheatwithmilk', 'src': '/static/foodstim60/shreddedwheatwithmilk.jpg', 'key': 'i', 'origWidth': 410, 'origHeight': 410, 'width': 410, 'height': 410, 'widthPercent': 0.45, 'rescaleHeight': False, 'trialN': 24, 'loaded': True, 'loadedTime': 34574.60000002384, 'positionName': 'RIGHT', 'positionCoords': [873.6, 320], 'bid': 5.36}]",34572.30000001192,1669848458382,omelette,shreddedwheatwithmilk,5.07,5.36,0.29000000000000004,omelette,749.8000000119209,755,755.4000000357628,True,u,35831.10000002384,1258.800000011921,1669848459640,1258,HRV,HRV_0287,2022-11-30 22:51:10
25,"[{'imgObject': {}, 'id': 'luckycharms', 'src': '/static/foodstim60/luckycharms.jpg', 'key': 'u', 'origWidth': 410, 'origHeight': 409, 'width': 410, 'height': 409, 'widthPercent': 0.45, 'rescaleHeight': False, 'trialN': 25, 'loaded': True, 'loadedTime': 35835.5, 'positionName': 'LEFT', 'positionCoords': [396.4, 320.5], 'bid': 5.05}, {'imgObject': {}, 'id': 'eggs', 'src': '/static/foodstim60/eggs.jpg', 'key': 'i', 'origWidth': 409, 'origHeight': 409, 'width': 409, 'height': 409, 'widthPercent': 0.45, 'rescaleHeight': False, 'trialN': 25, 'loaded': True, 'loadedTime': 35835.80000001192, 'positionName': 'RIGHT', 'positionCoords': [873.6, 320.5], 'bid': 5.0200000000000005}]",35833.40000003576,1669848459643,luckycharms,eggs,5.05,5.0200000000000005,-0.02999999999999936,eggs,704.5999999642372,710,710.3000000119209,True,i,37044.10000002384,1210.699999988079,1669848460854,1211,HRV,HRV_0287,2022-11-30 22:51:10
26,"[{'imgObject': {}, 'id': 'raspberries', 'src': '/static/foodstim60/raspberries.jpg', 'key': 'u', 'origWidth': 411, 'origHeight': 411, 'width': 411, 'height': 411, 'widthPercent': 0.45, 'rescaleHeight': False, 'trialN': 26, 'loaded': True, 'loadedTime': 37046.80000001192, 'positionName': 'LEFT', 'positionCoords': [395.4, 319.5], 'bid': 6.94}, {'imgObject': {}, 'id': 'fried eggs', 'src': '/static/foodstim60/fried eggs.jpg', 'key': 'i', 'origWidth': 410, 'origHeight': 410, 'width': 410, 'height': 410, 'widthPercent': 0.45, 'rescaleHeight': False, 'trialN': 26, 'loaded': True, 'loadedTime': 37047, 'positionName': 'RIGHT', 'positionCoords': [873.6, 320], 'bid': 4.96}]",37044.40000003576,1669848460854,raspberries,fried eggs,6.94,4.96,-1.9800000000000004,fried eggs,861.5999999642372,867,866.8999999761581,True,i,38411.90000003576,1367.5,1669848462221,1367,HRV,HRV_0287,2022-11-30 22:51:10
27,"[{'imgObject': {}, 'id': 'orange slices', 'src': '/static/foodstim60/orange slices.jpg', 'key': 'u', 'origWidth': 409, 'origHeight': 410, 'width': 409, 'height': 410, 'widthPercent': 0.45, 'rescaleHeight': False, 'trialN': 27, 'loaded': True, 'loadedTime': 38414.200000047684, 'positionName': 'LEFT', 'positionCoords': [397.4, 320], 'bid': 4.9}, {'imgObject': {}, 'id': 'blackbeanswithrice', 'src': '/static/foodstim60/blackbeanswithrice.jpg', 'key': 'i', 'origWidth': 410, 'origHeight': 410, 'width': 410, 'height': 410, 'widthPercent': 0.45, 'rescaleHeight': False, 'trialN': 27, 'loaded': True, 'loadedTime': 38414.40000003576, 'positionName': 'RIGHT', 'positionCoords': [873.6, 320], 'bid': 4.71}]",38412.40000003576,1669848462222,orange slices,blackbeanswithrice,4.9,4.71,-0.1900000000000004,blackbeanswithrice,663.3999999761581,669,668.6999999880791,True,i,39581.5,1169.0999999642372,1669848463391,1169,HRV,HRV_0287,2022-11-30 22:51:10
28,"[{'imgObject': {}, 'id': 'blackbeanswithrice', 'src': '/static/foodstim60/blackbeanswithrice.jpg', 'key': 'u', 'origWidth': 410, 'origHeight': 410, 'width': 410, 'height': 410, 'widthPercent': 0.45, 'rescaleHeight': False, 'trialN': 28, 'loaded': True, 'loadedTime': 39583.80000001192, 'positionName': 'LEFT', 'positionCoords': [396.4, 320], 'bid': 4.71}, {'imgObject': {}, 'id': 'roastedpotatoes', 'src': '/static/foodstim60/roastedpotatoes.jpg', 'key': 'i', 'origWidth': 409, 'origHeight': 410, 'width': 409, 'height': 410, 'widthPercent': 0.45, 'rescaleHeight': False, 'trialN': 28, 'loaded': True, 'loadedTime': 39584.200000047684, 'positionName': 'RIGHT', 'positionCoords': [873.6, 320], 'bid': 6.61}]",39581.90000003576,1669848463391,blackbeanswithrice,roastedpotatoes,4.71,6.61,1.9000000000000004,roastedpotatoes,697.8999999761581,703,703.0999999642372,True,i,40785.10000002384,1203.199999988079,1669848464595,1204,HRV,HRV_0287,2022-11-30 22:51:10
29,"[{'imgObject': {}, 'id': 'blackbeanswithrice', 'src': '/static/foodstim60/blackbeanswithrice.jpg', 'key': 'u', 'origWidth': 410, 'origHeight': 410, 'width': 410, 'height': 410, 'widthPercent': 0.45, 'rescaleHeight': False, 'trialN': 29, 'loaded': True, 'loadedTime': 40787.80000001192, 'positionName': 'LEFT', 'positionCoords': [396.4, 320], 'bid': 4.71}, {'imgObject': {}, 'id': 'luckycharms', 'src': '/static/foodstim60/luckycharms.jpg', 'key': 'i', 'origWidth': 410, 'origHeight': 409, 'width': 410, 'height': 409, 'widthPercent': 0.45, 'rescaleHeight': False, 'trialN': 29, 'loaded': True, 'loadedTime': 40788.10000002384, 'positionName': 'RIGHT', 'positionCoords': [873.6, 320.5], 'bid': 5.05}]",40785.60000002384,1669848464595,blackbeanswithrice,luckycharms,4.71,5.05,0.33999999999999986,blackbeanswithrice,1362.199999988079,1367,1367.0,True,u,42652.90000003576,1867.300000011921,1669848466462,1867,HRV,HRV_0287,2022-11-30 22:51:10
30,"[{'imgObject': {}, 'id': 'grilled chicken strips', 'src': '/static/foodstim60/grilled chicken strips.jpg', 'key': 'u', 'origWidth': 410, 'origHeight': 411, 'width': 410, 'height': 411, 'widthPercent': 0.45, 'rescaleHeight': False, 'trialN': 30, 'loaded': True, 'loadedTime': 42655.10000002384, 'positionName': 'LEFT', 'positionCoords': [396.4, 319.5], 'bid': 5.08}, {'imgObject': {}, 'id': 'fruitsalad', 'src': '/static/foodstim60/fruitsalad.jpg', 'key': 'i', 'origWidth': 410, 'origHeight': 410, 'width': 410, 'height': 410, 'widthPercent': 0.45, 'rescaleHeight': False, 'trialN': 30, 'loaded': True, 'loadedTime': 42655.30000001192, 'positionName': 'RIGHT', 'positionCoords': [873.6, 320], 'bid': 5.08}]",42653.30000001192,1669848466463,grilled chicken strips,fruitsalad,5.08,5.08,0.0,fruitsalad,1401.6000000238419,1407,1407.1000000238419,True,i,44561.0,1907.699999988079,1669848468371,1908,HRV,HRV_0287,2022-11-30 22:51:10
31,"[{'imgObject': {}, 'id': 'tacos', 'src': '/static/foodstim60/tacos.jpg', 'key': 'u', 'origWidth': 411, 'origHeight': 411, 'width': 411, 'height': 411, 'widthPercent': 0.45, 'rescaleHeight': False, 'trialN': 31, 'loaded': True, 'loadedTime': 44563.90000003576, 'positionName': 'LEFT', 'positionCoords': [395.4, 319.5], 'bid': 5.16}, {'imgObject': {}, 'id': 'granola w milk', 'src': '/static/foodstim60/granola w milk.jpg', 'key': 'i', 'origWidth': 410, 'origHeight': 410, 'width': 410, 'height': 410, 'widthPercent': 0.45, 'rescaleHeight': False, 'trialN': 31, 'loaded': True, 'loadedTime': 44564.10000002384, 'positionName': 'RIGHT', 'positionCoords': [873.6, 320], 'bid': 5.01}]",44561.5,1669848468371,tacos,granola w milk,5.16,5.01,-0.15000000000000036,tacos,1120.1000000238419,1126,1125.4000000357628,True,u,46187.200000047684,1625.7000000476837,1669848469997,1626,HRV,HRV_0287,2022-11-30 22:51:10
32,"[{'imgObject': {}, 'id': 'ice cream sundae 002', 'src': '/static/foodstim60/ice cream sundae 002.jpg', 'key': 'u', 'origWidth': 409, 'origHeight': 409, 'width': 409, 'height': 409, 'widthPercent': 0.45, 'rescaleHeight': False, 'trialN': 32, 'loaded': True, 'loadedTime': 46189.5, 'positionName': 'LEFT', 'positionCoords': [397.4, 320.5], 'bid': 5.95}, {'imgObject': {}, 'id': 'baked potato', 'src': '/static/foodstim60/baked potato.jpg', 'key': 'i', 'origWidth': 409, 'origHeight': 410, 'width': 409, 'height': 410, 'widthPercent': 0.45, 'rescaleHeight': False, 'trialN': 32, 'loaded': True, 'loadedTime': 46189.80000001192, 'positionName': 'RIGHT', 'positionCoords': [873.6, 320], 'bid': 7.21}]",46187.60000002384,1669848469997,ice cream sundae 002,baked potato,5.95,7.21,1.2599999999999998,baked potato,929.0,934,934.0,True,i,47621.90000003576,1434.300000011921,1669848471431,1434,HRV,HRV_0287,2022-11-30 22:51:10
33,"[{'imgObject': {}, 'id': 'seaweed', 'src': '/static/foodstim60/seaweed.jpg', 'key': 'u', 'origWidth': 410, 'origHeight': 410, 'width': 410, 'height': 410, 'widthPercent': 0.45, 'rescaleHeight': False, 'trialN': 33, 'loaded': True, 'loadedTime': 47624, 'positionName': 'LEFT', 'positionCoords': [396.4, 320], 'bid': 4.78}, {'imgObject': {}, 'id': 'omelette', 'src': '/static/foodstim60/omelette.jpg', 'key': 'i', 'origWidth': 410, 'origHeight': 409, 'width': 410, 'height': 409, 'widthPercent': 0.45, 'rescaleHeight': False, 'trialN': 33, 'loaded': True, 'loadedTime': 47624.200000047684, 'positionName': 'RIGHT', 'positionCoords': [873.6, 320.5], 'bid': 5.07}]",47622.200000047684,1669848471432,seaweed,omelette,4.78,5.07,0.29000000000000004,seaweed,603.2999999523163,608,608.5,True,u,48732.0,1109.7999999523163,1669848472542,1110,HRV,HRV_0287,2022-11-30 22:51:10
34,"[{'imgObject': {}, 'id': 'mac & cheese', 'src': '/static/foodstim60/mac & cheese.jpg', 'key': 'u', 'origWidth': 410, 'origHeight': 410, 'width': 410, 'height': 410, 'widthPercent': 0.45, 'rescaleHeight': False, 'trialN': 34, 'loaded': True, 'loadedTime': 48734.30000001192, 'positionName': 'LEFT', 'positionCoords': [396.4, 320], 'bid': 5.98}, {'imgObject': {}, 'id': 'grilled chicken strips', 'src': '/static/foodstim60/grilled chicken strips.jpg', 'key': 'i', 'origWidth': 410, 'origHeight': 411, 'width': 410, 'height': 411, 'widthPercent': 0.45, 'rescaleHeight': False, 'trialN': 34, 'loaded': True, 'loadedTime': 48734.700000047684, 'positionName': 'RIGHT', 'positionCoords': [873.6, 319.5], 'bid': 5.08}]",48732.40000003576,1669848472542,mac & cheese,grilled chicken strips,5.98,5.08,-0.9000000000000004,mac & cheese,723.8999999761581,729,728.8000000119209,True,u,49962.10000002384,1229.699999988079,1669848473772,1230,HRV,HRV_0287,2022-11-30 22:51:10
35,"[{'imgObject': {}, 'id': 'yogurt no spoon', 'src': '/static/foodstim60/yogurt no spoon.jpg', 'key': 'u', 'origWidth': 411, 'origHeight': 410, 'width': 411, 'height': 410, 'widthPercent': 0.45, 'rescaleHeight': False, 'trialN': 35, 'loaded': True, 'loadedTime': 49964.40000003576, 'positionName': 'LEFT', 'positionCoords': [395.4, 320], 'bid': 4.98}, {'imgObject': {}, 'id': 'froot loops w milk', 'src': '/static/foodstim60/froot loops w milk.jpg', 'key': 'i', 'origWidth': 410, 'origHeight': 410, 'width': 410, 'height': 410, 'widthPercent': 0.45, 'rescaleHeight': False, 'trialN': 35, 'loaded': True, 'loadedTime': 49964.60000002384, 'positionName': 'RIGHT', 'positionCoords': [873.6, 320], 'bid': 5.04}]",49962.5,1669848473772,yogurt no spoon,froot loops w milk,4.98,5.04,0.05999999999999961,yogurt no spoon,1479.9000000357628,1488,1488.300000011921,True,u,51952.0,1989.5,1669848475762,1990,HRV,HRV_0287,2022-11-30 22:51:10
36,"[{'imgObject': {}, 'id': 'corn cob', 'src': '/static/foodstim60/corn cob.jpg', 'key': 'u', 'origWidth': 411, 'origHeight': 411, 'width': 411, 'height': 411, 'widthPercent': 0.45, 'rescaleHeight': False, 'trialN': 36, 'loaded': True, 'loadedTime': 51954.30000001192, 'positionName': 'LEFT', 'positionCoords': [395.4, 319.5], 'bid': 4.96}, {'imgObject': {}, 'id': 'eggsalad', 'src': '/static/foodstim60/eggsalad.jpg', 'key': 'i', 'origWidth': 410, 'origHeight': 409, 'width': 410, 'height': 409, 'widthPercent': 0.45, 'rescaleHeight': False, 'trialN': 36, 'loaded': True, 'loadedTime': 51954.5, 'positionName': 'RIGHT', 'positionCoords': [873.6, 320.5], 'bid': 4.98}]",51952.30000001192,1669848475762,corn cob,eggsalad,4.96,4.98,0.020000000000000462,eggsalad,787.9000000357628,793,792.8000000119209,True,i,53245.40000003576,1293.1000000238419,1669848477055,1293,HRV,HRV_0287,2022-11-30 22:51:10
37,"[{'imgObject': {}, 'id': 'apple slices', 'src': '/static/foodstim60/apple slices.jpg', 'key': 'u', 'origWidth': 409, 'origHeight': 410, 'width': 409, 'height': 410, 'widthPercent': 0.45, 'rescaleHeight': False, 'trialN': 37, 'loaded': True, 'loadedTime': 53247.90000003576, 'positionName': 'LEFT', 'positionCoords': [397.4, 320], 'bid': 6.8}, {'imgObject': {}, 'id': 'orange slices', 'src': '/static/foodstim60/orange slices.jpg', 'key': 'i', 'origWidth': 409, 'origHeight': 410, 'width': 409, 'height': 410, 'widthPercent': 0.45, 'rescaleHeight': False, 'trialN': 37, 'loaded': True, 'loadedTime': 53248.200000047684, 'positionName': 'RIGHT', 'positionCoords': [873.6, 320], 'bid': 4.9}]",53245.90000003576,1669848477056,apple slices,orange slices,6.8,4.9,-1.8999999999999995,apple slices,766.5,771,771.5,True,u,54518.700000047684,1272.800000011921,1669848478328,1272,HRV,HRV_0287,2022-11-30 22:51:10
38,"[{'imgObject': {}, 'id': 'cheerios', 'src': '/static/foodstim60/cheerios.jpg', 'key': 'u', 'origWidth': 409, 'origHeight': 410, 'width': 409, 'height': 410, 'widthPercent': 0.45, 'rescaleHeight': False, 'trialN': 38, 'loaded': True, 'loadedTime': 54521.10000002384, 'positionName': 'LEFT', 'positionCoords': [397.4, 320], 'bid': 5.14}, {'imgObject': {}, 'id': 'cherry tomato', 'src': '/static/foodstim60/cherry tomato.jpg', 'key': 'i', 'origWidth': 410, 'origHeight': 410, 'width': 410, 'height': 410, 'widthPercent': 0.45, 'rescaleHeight': False, 'trialN': 38, 'loaded': True, 'loadedTime': 54521.40000003576, 'positionName': 'RIGHT', 'positionCoords': [873.6, 320], 'bid': 9.51}]",54519.200000047684,1669848478329,cheerios,cherry tomato,5.14,9.51,4.37,cheerios,615.2999999523163,621,620.6999999880791,True,u,55641.0,1121.7999999523163,1669848479451,1122,HRV,HRV_0287,2022-11-30 22:51:10
39,"[{'imgObject': {}, 'id': 'mac & cheese', 'src': '/static/foodstim60/mac & cheese.jpg', 'key': 'u', 'origWidth': 410, 'origHeight': 410, 'width': 410, 'height': 410, 'widthPercent': 0.45, 'rescaleHeight': False, 'trialN': 39, 'loaded': True, 'loadedTime': 55643.30000001192, 'positionName': 'LEFT', 'positionCoords': [396.4, 320], 'bid': 5.98}, {'imgObject': {}, 'id': 'Tribe humus pita', 'src': '/static/foodstim60/Tribe humus pita.jpg', 'key': 'i', 'origWidth': 411, 'origHeight': 411, 'width': 411, 'height': 411, 'widthPercent': 0.45, 'rescaleHeight': False, 'trialN': 39, 'loaded': True, 'loadedTime': 55643.5, 'positionName': 'RIGHT', 'positionCoords': [873.6, 319.5], 'bid': 7.38}]",55641.30000001192,1669848479451,mac & cheese,Tribe humus pita,5.98,7.38,1.3999999999999995,mac & cheese,1649.9000000357628,1656,1656.5,True,u,57798.700000047684,2157.400000035763,1669848481609,2158,HRV,HRV_0287,2022-11-30 22:51:10
40,"[{'imgObject': {}, 'id': 'hashbrowns', 'src': '/static/foodstim60/hashbrowns.jpg', 'key': 'u', 'origWidth': 411, 'origHeight': 410, 'width': 411, 'height': 410, 'widthPercent': 0.45, 'rescaleHeight': False, 'trialN': 40, 'loaded': True, 'loadedTime': 57801.10000002384, 'positionName': 'LEFT', 'positionCoords': [395.4, 320], 'bid': 7.53}, {'imgObject': {}, 'id': 'mashed potato', 'src': '/static/foodstim60/mashed potato.jpg', 'key': 'i', 'origWidth': 409, 'origHeight': 409, 'width': 409, 'height': 409, 'widthPercent': 0.45, 'rescaleHeight': False, 'trialN': 40, 'loaded': True, 'loadedTime': 57801.200000047684, 'positionName': 'RIGHT', 'positionCoords': [873.6, 320.5], 'bid': 9.65}]",57799.10000002384,1669848481609,hashbrowns,mashed potato,7.53,9.65,2.12,mashed potato,731.1000000238419,737,736.8000000119209,True,i,59036.0,1236.8999999761581,1669848482846,1237,HRV,HRV_0287,2022-11-30 22:51:10
41,"[{'imgObject': {}, 'id': 'turkey sandwich', 'src': '/static/foodstim60/turkey sandwich.jpg', 'key': 'u', 'origWidth': 409, 'origHeight': 409, 'width': 409, 'height': 409, 'widthPercent': 0.45, 'rescaleHeight': False, 'trialN': 41, 'loaded': True, 'loadedTime': 59038.60000002384, 'positionName': 'LEFT', 'positionCoords': [397.4, 320.5], 'bid': 7.11}, {'imgObject': {}, 'id': 'cherry tomato', 'src': '/static/foodstim60/cherry tomato.jpg', 'key': 'i', 'origWidth': 410, 'origHeight': 410, 'width': 410, 'height': 410, 'widthPercent': 0.45, 'rescaleHeight': False, 'trialN': 41, 'loaded': True, 'loadedTime': 59038.80000001192, 'positionName': 'RIGHT', 'positionCoords': [873.6, 320], 'bid': 9.51}]",59036.40000003576,1669848482846,turkey sandwich,cherry tomato,7.11,9.51,2.3999999999999995,turkey sandwich,646.5999999642372,652,651.8000000119209,True,u,60189.40000003576,1153.0,1669848483999,1153,HRV,HRV_0287,2022-11-30 22:51:10
42,"[{'imgObject': {}, 'id': 'salmon', 'src': '/static/foodstim60/salmon.jpg', 'key': 'u', 'origWidth': 410, 'origHeight': 409, 'width': 410, 'height': 409, 'widthPercent': 0.45, 'rescaleHeight': False, 'trialN': 42, 'loaded': True, 'loadedTime': 60191.90000003576, 'positionName': 'LEFT', 'positionCoords': [396.4, 320.5], 'bid': 2.79}, {'imgObject': {}, 'id': 'sweetpotato', 'src': '/static/foodstim60/sweetpotato.jpg', 'key': 'i', 'origWidth': 410, 'origHeight': 410, 'width': 410, 'height': 410, 'widthPercent': 0.45, 'rescaleHeight': False, 'trialN': 42, 'loaded': True, 'loadedTime': 60192.10000002384, 'positionName': 'RIGHT', 'positionCoords': [873.6, 320], 'bid': 4.91}]",60189.80000001192,1669848484000,salmon,sweetpotato,2.79,4.91,2.12,sweetpotato,724.1999999880791,729,729.8000000119209,True,i,61422.80000001192,1233.0,1669848485233,1233,HRV,HRV_0287,2022-11-30 22:51:10
43,"[{'imgObject': {}, 'id': 'mango', 'src': '/static/foodstim60/mango.jpg', 'key': 'u', 'origWidth': 411, 'origHeight': 411, 'width': 411, 'height': 411, 'widthPercent': 0.45, 'rescaleHeight': False, 'trialN': 43, 'loaded': True, 'loadedTime': 61426.5, 'positionName': 'LEFT', 'positionCoords': [395.4, 319.5], 'bid': 7.11}, {'imgObject': {}, 'id': 'turkeysandwich', 'src': '/static/foodstim60/turkeysandwich.jpg', 'key': 'i', 'origWidth': 409, 'origHeight': 409, 'width': 409, 'height': 409, 'widthPercent': 0.45, 'rescaleHeight': False, 'trialN': 43, 'loaded': True, 'loadedTime': 61427.10000002384, 'positionName': 'RIGHT', 'positionCoords': [873.6, 320.5], 'bid': 7.16}]",61423.80000001192,1669848485234,mango,turkeysandwich,7.11,7.16,0.04999999999999982,turkeysandwich,725.1000000238419,730,730.1000000238419,True,i,62654.40000003576,1230.6000000238419,1669848486464,1230,HRV,HRV_0287,2022-11-30 22:51:10
44,"[{'imgObject': {}, 'id': 'veggieswithdip', 'src': '/static/foodstim60/veggieswithdip.jpg', 'key': 'u', 'origWidth': 409, 'origHeight': 409, 'width': 409, 'height': 409, 'widthPercent': 0.45, 'rescaleHeight': False, 'trialN': 44, 'loaded': True, 'loadedTime': 62656.80000001192, 'positionName': 'LEFT', 'positionCoords': [397.4, 320.5], 'bid': 1.03}, {'imgObject': {}, 'id': 'blackbeanswithrice', 'src': '/static/foodstim60/blackbeanswithrice.jpg', 'key': 'i', 'origWidth': 410, 'origHeight': 410, 'width': 410, 'height': 410, 'widthPercent': 0.45, 'rescaleHeight': False, 'trialN': 44, 'loaded': True, 'loadedTime': 62657.10000002384, 'positionName': 'RIGHT', 'positionCoords': [873.6, 320], 'bid': 4.71}]",62654.80000001192,1669848486465,veggieswithdip,blackbeanswithrice,1.03,4.71,3.6799999999999997,blackbeanswithrice,1053.1000000238419,1058,1058.4000000357628,True,i,64213.5,1558.699999988079,1669848488023,1558,HRV,HRV_0287,2022-11-30 22:51:10
45,"[{'imgObject': {}, 'id': 'cherry tomato', 'src': '/static/foodstim60/cherry tomato.jpg', 'key': 'u', 'origWidth': 410, 'origHeight': 410, 'width': 410, 'height': 410, 'widthPercent': 0.45, 'rescaleHeight': False, 'trialN': 45, 'loaded': True, 'loadedTime': 64216.60000002384, 'positionName': 'LEFT', 'positionCoords': [396.4, 320], 'bid': 9.51}, {'imgObject': {}, 'id': 'burger', 'src': '/static/foodstim60/burger.jpg', 'key': 'i', 'origWidth': 409, 'origHeight': 409, 'width': 409, 'height': 409, 'widthPercent': 0.45, 'rescaleHeight': False, 'trialN': 45, 'loaded': True, 'loadedTime': 64216.80000001192, 'positionName': 'RIGHT', 'positionCoords': [873.6, 320.5], 'bid': 7.41}]",64213.90000003576,1669848488024,cherry tomato,burger,9.51,7.41,-2.0999999999999996,cherry tomato,1041.8999999761581,1049,1048.8999999761581,True,u,65762.90000003576,1549.0,1669848489573,1549,HRV,HRV_0287,2022-11-30 22:51:10
46,"[{'imgObject': {}, 'id': 'omelette', 'src': '/static/foodstim60/omelette.jpg', 'key': 'u', 'origWidth': 410, 'origHeight': 409, 'width': 410, 'height': 409, 'widthPercent': 0.45, 'rescaleHeight': False, 'trialN': 46, 'loaded': True, 'loadedTime': 65765.30000001192, 'positionName': 'LEFT', 'positionCoords': [396.4, 320.5], 'bid': 5.07}, {'imgObject': {}, 'id': 'bagel plain', 'src': '/static/foodstim60/bagel plain.jpg', 'key': 'i', 'origWidth': 410, 'origHeight': 410, 'width': 410, 'height': 410, 'widthPercent': 0.45, 'rescaleHeight': False, 'trialN': 46, 'loaded': True, 'loadedTime': 65765.70000004768, 'positionName': 'RIGHT', 'positionCoords': [873.6, 320], 'bid': 7.63}]",65763.40000003576,1669848489573,omelette,bagel plain,5.07,7.63,2.5599999999999996,bagel plain,711.3000000119209,717,716.5999999642372,True,i,66980.80000001192,1217.3999999761581,1669848490791,1218,HRV,HRV_0287,2022-11-30 22:51:10
47,"[{'imgObject': {}, 'id': 'cantaloupe', 'src': '/static/foodstim60/cantaloupe.jpg', 'key': 'u', 'origWidth': 409, 'origHeight': 409, 'width': 409, 'height': 409, 'widthPercent': 0.45, 'rescaleHeight': False, 'trialN': 47, 'loaded': True, 'loadedTime': 66983, 'positionName': 'LEFT', 'positionCoords': [397.4, 320.5], 'bid': 7.17}, {'imgObject': {}, 'id': 'chickenfingers', 'src': '/static/foodstim60/chickenfingers.jpg', 'key': 'i', 'origWidth': 410, 'origHeight': 410, 'width': 410, 'height': 410, 'widthPercent': 0.45, 'rescaleHeight': False, 'trialN': 47, 'loaded': True, 'loadedTime': 66983.40000003576, 'positionName': 'RIGHT', 'positionCoords': [873.6, 320], 'bid': 7.19}]",66981.10000002384,1669848490791,cantaloupe,chickenfingers,7.17,7.19,0.020000000000000462,chickenfingers,701.6999999880791,707,706.8999999761581,True,i,68188.60000002384,1207.5,1669848491999,1208,HRV,HRV_0287,2022-11-30 22:51:10
48,"[{'imgObject': {}, 'id': 'corn cob', 'src': '/static/foodstim60/corn cob.jpg', 'key': 'u', 'origWidth': 411, 'origHeight': 411, 'width': 411, 'height': 411, 'widthPercent': 0.45, 'rescaleHeight': False, 'trialN': 48, 'loaded': True, 'loadedTime': 68191.10000002384, 'positionName': 'LEFT', 'positionCoords': [395.4, 319.5], 'bid': 4.96}, {'imgObject': {}, 'id': 'cheerios', 'src': '/static/foodstim60/cheerios.jpg', 'key': 'i', 'origWidth': 409, 'origHeight': 410, 'width': 409, 'height': 410, 'widthPercent': 0.45, 'rescaleHeight': False, 'trialN': 48, 'loaded': True, 'loadedTime': 68191.30000001192, 'positionName': 'RIGHT', 'positionCoords': [873.6, 320], 'bid': 5.14}]",68189.0,1669848491999,corn cob,cheerios,4.96,5.14,0.17999999999999972,cheerios,827.8000000119209,833,833.1000000238419,True,i,69522.30000001192,1333.300000011921,1669848493332,1333,HRV,HRV_0287,2022-11-30 22:51:10
49,"[{'imgObject': {}, 'id': 'Tribe humus pita', 'src': '/static/foodstim60/Tribe humus pita.jpg', 'key': 'u', 'origWidth': 411, 'origHeight': 411, 'width': 411, 'height': 411, 'widthPercent': 0.45, 'rescaleHeight': False, 'trialN': 49, 'loaded': True, 'loadedTime': 69524.70000004768, 'positionName': 'LEFT', 'positionCoords': [395.4, 319.5], 'bid': 7.38}, {'imgObject': {}, 'id': 'strawberries', 'src': '/static/foodstim60/strawberries.jpg', 'key': 'i', 'origWidth': 410, 'origHeight': 410, 'width': 410, 'height': 410, 'widthPercent': 0.45, 'rescaleHeight': False, 'trialN': 49, 'loaded': True, 'loadedTime': 69524.90000003576, 'positionName': 'RIGHT', 'positionCoords': [873.6, 320], 'bid': 7.2}]",69522.70000004768,1669848493333,Tribe humus pita,strawberries,7.38,7.2,-0.17999999999999972,Tribe humus pita,1309.8999999761581,1314,1314.699999988079,True,u,71337.60000002384,1814.8999999761581,1669848495148,1815,HRV,HRV_0287,2022-11-30 22:51:10
50,"[{'imgObject': {}, 'id': 'tacos', 'src': '/static/foodstim60/tacos.jpg', 'key': 'u', 'origWidth': 411, 'origHeight': 411, 'width': 411, 'height': 411, 'widthPercent': 0.45, 'rescaleHeight': False, 'trialN': 50, 'loaded': True, 'loadedTime': 71339.80000001192, 'positionName': 'LEFT', 'positionCoords': [395.4, 319.5], 'bid': 5.16}, {'imgObject': {}, 'id': 'Grapes', 'src': '/static/foodstim60/Grapes.jpg', 'key': 'i', 'origWidth': 411, 'origHeight': 411, 'width': 411, 'height': 411, 'widthPercent': 0.45, 'rescaleHeight': False, 'trialN': 50, 'loaded': True, 'loadedTime': 71340.10000002384, 'positionName': 'RIGHT', 'positionCoords': [873.6, 319.5], 'bid': 5.21}]",71337.90000003576,1669848495148,tacos,Grapes,5.16,5.21,0.04999999999999982,tacos,677.6999999880791,683,683.5,True,u,72521.60000002384,1183.699999988079,1669848496332,1184,HRV,HRV_0287,2022-11-30 22:51:10
51,"[{'imgObject': {}, 'id': 'burger', 'src': '/static/foodstim60/burger.jpg', 'key': 'u', 'origWidth': 409, 'origHeight': 409, 'width': 409, 'height': 409, 'widthPercent': 0.45, 'rescaleHeight': False, 'trialN': 51, 'loaded': True, 'loadedTime': 72523.70000004768, 'positionName': 'LEFT', 'positionCoords': [397.4, 320.5], 'bid': 7.41}, {'imgObject': {}, 'id': 'bagel plain', 'src': '/static/foodstim60/bagel plain.jpg', 'key': 'i', 'origWidth': 410, 'origHeight': 410, 'width': 410, 'height': 410, 'widthPercent': 0.45, 'rescaleHeight': False, 'trialN': 51, 'loaded': True, 'loadedTime': 72524, 'positionName': 'RIGHT', 'positionCoords': [873.6, 320], 'bid': 7.63}]",72522.0,1669848496332,burger,bagel plain,7.41,7.63,0.21999999999999975,burger,581.5,586,586.4000000357628,True,u,73609.30000001192,1087.300000011921,1669848497419,1087,HRV,HRV_0287,2022-11-30 22:51:10
52,"[{'imgObject': {}, 'id': 'olives', 'src': '/static/foodstim60/olives.jpg', 'key': 'u', 'origWidth': 410, 'origHeight': 410, 'width': 410, 'height': 410, 'widthPercent': 0.45, 'rescaleHeight': False, 'trialN': 52, 'loaded': True, 'loadedTime': 73611.5, 'positionName': 'LEFT', 'positionCoords': [396.4, 320], 'bid': 2.35}, {'imgObject': {}, 'id': 'shreddedwheatwithmilk', 'src': '/static/foodstim60/shreddedwheatwithmilk.jpg', 'key': 'i', 'origWidth': 410, 'origHeight': 410, 'width': 410, 'height': 410, 'widthPercent': 0.45, 'rescaleHeight': False, 'trialN': 52, 'loaded': True, 'loadedTime': 73611.90000003576, 'positionName': 'RIGHT', 'positionCoords': [873.6, 320], 'bid': 5.36}]",73609.70000004768,1669848497420,olives,shreddedwheatwithmilk,2.35,5.36,3.0100000000000002,shreddedwheatwithmilk,1134.8999999761581,1140,1140.199999988079,True,i,75252.0,1642.2999999523163,1669848499062,1642,HRV,HRV_0287,2022-11-30 22:51:10
53,"[{'imgObject': {}, 'id': 'popsicles', 'src': '/static/foodstim60/popsicles.jpg', 'key': 'u', 'origWidth': 410, 'origHeight': 410, 'width': 410, 'height': 410, 'widthPercent': 0.45, 'rescaleHeight': False, 'trialN': 53, 'loaded': True, 'loadedTime': 75254.40000003576, 'positionName': 'LEFT', 'positionCoords': [396.4, 320], 'bid': 5.23}, {'imgObject': {}, 'id': 'veggieswithdip', 'src': '/static/foodstim60/veggieswithdip.jpg', 'key': 'i', 'origWidth': 409, 'origHeight': 409, 'width': 409, 'height': 409, 'widthPercent': 0.45, 'rescaleHeight': False, 'trialN': 53, 'loaded': True, 'loadedTime': 75254.60000002384, 'positionName': 'RIGHT', 'positionCoords': [873.6, 320.5], 'bid': 1.03}]",75252.30000001192,1669848499062,popsicles,veggieswithdip,5.23,1.03,-4.2,popsicles,875.0,881,880.3000000119209,True,u,76632.70000004768,1380.4000000357628,1669848500443,1381,HRV,HRV_0287,2022-11-30 22:51:10
54,"[{'imgObject': {}, 'id': 'sushi w_condiments', 'src': '/static/foodstim60/sushi w_condiments.jpg', 'key': 'u', 'origWidth': 410, 'origHeight': 410, 'width': 410, 'height': 410, 'widthPercent': 0.45, 'rescaleHeight': False, 'trialN': 54, 'loaded': True, 'loadedTime': 76634.90000003576, 'positionName': 'LEFT', 'positionCoords': [396.4, 320], 'bid': 5.01}, {'imgObject': {}, 'id': 'seaweed', 'src': '/static/foodstim60/seaweed.jpg', 'key': 'i', 'origWidth': 410, 'origHeight': 410, 'width': 410, 'height': 410, 'widthPercent': 0.45, 'rescaleHeight': False, 'trialN': 54, 'loaded': True, 'loadedTime': 76635.20000004768, 'positionName': 'RIGHT', 'positionCoords': [873.6, 320], 'bid': 4.78}]",76633.10000002384,1669848500443,sushi w_condiments,seaweed,5.01,4.78,-0.22999999999999954,seaweed,929.3000000119209,935,935.1000000238419,True,i,78068.30000001192,1435.199999988079,1669848501878,1435,HRV,HRV_0287,2022-11-30 22:51:10
55,"[{'imgObject': {}, 'id': 'omelette', 'src': '/static/foodstim60/omelette.jpg', 'key': 'u', 'origWidth': 410, 'origHeight': 409, 'width': 410, 'height': 409, 'widthPercent': 0.45, 'rescaleHeight': False, 'trialN': 55, 'loaded': True, 'loadedTime': 78070.90000003576, 'positionName': 'LEFT', 'positionCoords': [396.4, 320.5], 'bid': 5.07}, {'imgObject': {}, 'id': 'grilled chicken strips', 'src': '/static/foodstim60/grilled chicken strips.jpg', 'key': 'i', 'origWidth': 410, 'origHeight': 411, 'width': 410, 'height': 411, 'widthPercent': 0.45, 'rescaleHeight': False, 'trialN': 55, 'loaded': True, 'loadedTime': 78071.20000004768, 'positionName': 'RIGHT', 'positionCoords': [873.6, 319.5], 'bid': 5.08}]",78068.70000004768,1669848501879,omelette,grilled chicken strips,5.07,5.08,0.009999999999999787,omelette,812.5999999642372,817,817.5999999642372,True,u,79386.80000001192,1318.0999999642372,1669848503197,1318,HRV,HRV_0287,2022-11-30 22:51:10
56,"[{'imgObject': {}, 'id': 'edamame', 'src': '/static/foodstim60/edamame.jpg', 'key': 'u', 'origWidth': 409, 'origHeight': 410, 'width': 409, 'height': 410, 'widthPercent': 0.45, 'rescaleHeight': False, 'trialN': 56, 'loaded': True, 'loadedTime': 79389.10000002384, 'positionName': 'LEFT', 'positionCoords': [397.4, 320], 'bid': 2.96}, {'imgObject': {}, 'id': 'froot loops w milk', 'src': '/static/foodstim60/froot loops w milk.jpg', 'key': 'i', 'origWidth': 410, 'origHeight': 410, 'width': 410, 'height': 410, 'widthPercent': 0.45, 'rescaleHeight': False, 'trialN': 56, 'loaded': True, 'loadedTime': 79389.40000003576, 'positionName': 'RIGHT', 'positionCoords': [873.6, 320], 'bid': 5.04}]",79387.20000004768,1669848503197,edamame,froot loops w milk,2.96,5.04,2.08,froot loops w milk,721.7999999523163,727,726.8999999761581,True,i,80614.40000003576,1227.199999988079,1669848504425,1228,HRV,HRV_0287,2022-11-30 22:51:10
57,"[{'imgObject': {}, 'id': 'granola w milk', 'src': '/static/foodstim60/granola w milk.jpg', 'key': 'u', 'origWidth': 410, 'origHeight': 410, 'width': 410, 'height': 410, 'widthPercent': 0.45, 'rescaleHeight': False, 'trialN': 57, 'loaded': True, 'loadedTime': 80616.70000004768, 'positionName': 'LEFT', 'positionCoords': [396.4, 320], 'bid': 5.01}, {'imgObject': {}, 'id': 'froot loops w milk', 'src': '/static/foodstim60/froot loops w milk.jpg', 'key': 'i', 'origWidth': 410, 'origHeight': 410, 'width': 410, 'height': 410, 'widthPercent': 0.45, 'rescaleHeight': False, 'trialN': 57, 'loaded': True, 'loadedTime': 80617, 'positionName': 'RIGHT', 'positionCoords': [873.6, 320], 'bid': 5.04}]",80614.80000001192,1669848504425,granola w milk,froot loops w milk,5.01,5.04,0.03000000000000025,froot loops w milk,1042.300000011921,1048,1048.1000000238419,True,i,82162.90000003576,1548.1000000238419,1669848505973,1548,HRV,HRV_0287,2022-11-30 22:51:10
58,"[{'imgObject': {}, 'id': 'rigatoni', 'src': '/static/foodstim60/rigatoni.jpg', 'key': 'u', 'origWidth': 411, 'origHeight': 411, 'width': 411, 'height': 411, 'widthPercent': 0.45, 'rescaleHeight': False, 'trialN': 58, 'loaded': True, 'loadedTime': 82165.30000001192, 'positionName': 'LEFT', 'positionCoords': [395.4, 319.5], 'bid': 5}, {'imgObject': {}, 'id': 'veggieswithdip', 'src': '/static/foodstim60/veggieswithdip.jpg', 'key': 'i', 'origWidth': 409, 'origHeight': 409, 'width': 409, 'height': 409, 'widthPercent': 0.45, 'rescaleHeight': False, 'trialN': 58, 'loaded': True, 'loadedTime': 82165.5, 'positionName': 'RIGHT', 'positionCoords': [873.6, 320.5], 'bid': 1.03}]",82163.30000001192,1669848505973,rigatoni,veggieswithdip,5.0,1.03,-3.9699999999999998,rigatoni,769.6999999880791,776,775.4000000357628,True,u,83439.0,1275.699999988079,1669848507249,1276,HRV,HRV_0287,2022-11-30 22:51:10
59,"[{'imgObject': {}, 'id': 'mango', 'src': '/static/foodstim60/mango.jpg', 'key': 'u', 'origWidth': 411, 'origHeight': 411, 'width': 411, 'height': 411, 'widthPercent': 0.45, 'rescaleHeight': False, 'trialN': 59, 'loaded': True, 'loadedTime': 83441.10000002384, 'positionName': 'LEFT', 'positionCoords': [395.4, 319.5], 'bid': 7.11}, {'imgObject': {}, 'id': 'cantaloupe', 'src': '/static/foodstim60/cantaloupe.jpg', 'key': 'i', 'origWidth': 409, 'origHeight': 409, 'width': 409, 'height': 409, 'widthPercent': 0.45, 'rescaleHeight': False, 'trialN': 59, 'loaded': True, 'loadedTime': 83441.40000003576, 'positionName': 'RIGHT', 'positionCoords': [873.6, 320.5], 'bid': 7.17}]",83439.40000003576,1669848507250,mango,cantaloupe,7.11,7.17,0.05999999999999961,cantaloupe,689.5999999642372,694,694.5999999642372,True,i,84634.10000002384,1194.699999988079,1669848508444,1194,HRV,HRV_0287,2022-11-30 22:51:10
60,"[{'imgObject': {}, 'id': 'grilled chicken strips', 'src': '/static/foodstim60/grilled chicken strips.jpg', 'key': 'u', 'origWidth': 410, 'origHeight': 411, 'width': 410, 'height': 411, 'widthPercent': 0.45, 'rescaleHeight': False, 'trialN': 60, 'loaded': True, 'loadedTime': 84636.40000003576, 'positionName': 'LEFT', 'positionCoords': [396.4, 319.5], 'bid': 5.08}, {'imgObject': {}, 'id': 'popsicles', 'src': '/static/foodstim60/popsicles.jpg', 'key': 'i', 'origWidth': 410, 'origHeight': 410, 'width': 410, 'height': 410, 'widthPercent': 0.45, 'rescaleHeight': False, 'trialN': 60, 'loaded': True, 'loadedTime': 84636.60000002384, 'positionName': 'RIGHT', 'positionCoords': [873.6, 320], 'bid': 5.23}]",84634.5,1669848508445,grilled chicken strips,popsicles,5.08,5.23,0.15000000000000036,grilled chicken strips,634.5,640,640.0,True,u,85774.90000003576,1140.4000000357628,1669848509585,1140,HRV,HRV_0287,2022-11-30 22:51:10
61,"[{'imgObject': {}, 'id': 'burrito', 'src': '/static/foodstim60/burrito.jpg', 'key': 'u', 'origWidth': 410, 'origHeight': 410, 'width': 410, 'height': 410, 'widthPercent': 0.45, 'rescaleHeight': False, 'trialN': 61, 'loaded': True, 'loadedTime': 85777.40000003576, 'positionName': 'LEFT', 'positionCoords': [396.4, 320], 'bid': 5}, {'imgObject': {}, 'id': 'blackbeanswithrice', 'src': '/static/foodstim60/blackbeanswithrice.jpg', 'key': 'i', 'origWidth': 410, 'origHeight': 410, 'width': 410, 'height': 410, 'widthPercent': 0.45, 'rescaleHeight': False, 'trialN': 61, 'loaded': True, 'loadedTime': 85777.70000004768, 'positionName': 'RIGHT', 'positionCoords': [873.6, 320], 'bid': 4.71}]",85775.30000001192,1669848509586,burrito,blackbeanswithrice,5.0,4.71,-0.29000000000000004,burrito,901.6000000238419,907,907.0,True,u,87183.10000002384,1407.800000011921,1669848510993,1407,HRV,HRV_0287,2022-11-30 22:51:10
62,"[{'imgObject': {}, 'id': 'fruitsalad', 'src': '/static/foodstim60/fruitsalad.jpg', 'key': 'u', 'origWidth': 410, 'origHeight': 410, 'width': 410, 'height': 410, 'widthPercent': 0.45, 'rescaleHeight': False, 'trialN': 62, 'loaded': True, 'loadedTime': 87186.70000004768, 'positionName': 'LEFT', 'positionCoords': [396.4, 320], 'bid': 5.08}, {'imgObject': {}, 'id': 'cherries', 'src': '/static/foodstim60/cherries.jpg', 'key': 'i', 'origWidth': 410, 'origHeight': 411, 'width': 410, 'height': 411, 'widthPercent': 0.45, 'rescaleHeight': False, 'trialN': 62, 'loaded': True, 'loadedTime': 87187, 'positionName': 'RIGHT', 'positionCoords': [873.6, 319.5], 'bid': 6.54}]",87184.10000002384,1669848510994,fruitsalad,cherries,5.08,6.54,1.46,cherries,712.6999999880791,719,718.5,True,i,88402.80000001192,1218.699999988079,1669848512213,1219,HRV,HRV_0287,2022-11-30 22:51:10
63,"[{'imgObject': {}, 'id': 'mango', 'src': '/static/foodstim60/mango.jpg', 'key': 'u', 'origWidth': 411, 'origHeight': 411, 'width': 411, 'height': 411, 'widthPercent': 0.45, 'rescaleHeight': False, 'trialN': 63, 'loaded': True, 'loadedTime': 88405.10000002384, 'positionName': 'LEFT', 'positionCoords': [395.4, 319.5], 'bid': 7.11}, {'imgObject': {}, 'id': 'mashed potato', 'src': '/static/foodstim60/mashed potato.jpg', 'key': 'i', 'origWidth': 409, 'origHeight': 409, 'width': 409, 'height': 409, 'widthPercent': 0.45, 'rescaleHeight': False, 'trialN': 63, 'loaded': True, 'loadedTime': 88405.30000001192, 'positionName': 'RIGHT', 'positionCoords': [873.6, 320.5], 'bid': 9.65}]",88403.20000004768,1669848512213,mango,mashed potato,7.11,9.65,2.54,mashed potato,1137.5999999642372,1144,1143.699999988079,True,i,90047.20000004768,1644.0,1669848513857,1644,HRV,HRV_0287,2022-11-30 22:51:10
64,"[{'imgObject': {}, 'id': 'Tribe humus pita', 'src': '/static/foodstim60/Tribe humus pita.jpg', 'key': 'u', 'origWidth': 411, 'origHeight': 411, 'width': 411, 'height': 411, 'widthPercent': 0.45, 'rescaleHeight': False, 'trialN': 64, 'loaded': True, 'loadedTime': 90049.5, 'positionName': 'LEFT', 'positionCoords': [395.4, 319.5], 'bid': 7.38}, {'imgObject': {}, 'id': 'rigatoni and sauce', 'src': '/static/foodstim60/rigatoni and sauce.jpg', 'key': 'i', 'origWidth': 410, 'origHeight': 411, 'width': 410, 'height': 411, 'widthPercent': 0.45, 'rescaleHeight': False, 'trialN': 64, 'loaded': True, 'loadedTime': 90049.80000001192, 'positionName': 'RIGHT', 'positionCoords': [873.6, 319.5], 'bid': 8.46}]",90047.60000002384,1669848513858,Tribe humus pita,rigatoni and sauce,7.38,8.46,1.080000000000001,rigatoni and sauce,704.3000000119209,709,709.5,True,i,91257.40000003576,1209.800000011921,1669848515068,1210,HRV,HRV_0287,2022-11-30 22:51:10
65,"[{'imgObject': {}, 'id': 'rigatoni', 'src': '/static/foodstim60/rigatoni.jpg', 'key': 'u', 'origWidth': 411, 'origHeight': 411, 'width': 411, 'height': 411, 'widthPercent': 0.45, 'rescaleHeight': False, 'trialN': 65, 'loaded': True, 'loadedTime': 91260, 'positionName': 'LEFT', 'positionCoords': [395.4, 319.5], 'bid': 5}, {'imgObject': {}, 'id': 'sushi w_condiments', 'src': '/static/foodstim60/sushi w_condiments.jpg', 'key': 'i', 'origWidth': 410, 'origHeight': 410, 'width': 410, 'height': 410, 'widthPercent': 0.45, 'rescaleHeight': False, 'trialN': 65, 'loaded': True, 'loadedTime': 91260.30000001192, 'positionName': 'RIGHT', 'positionCoords': [873.6, 320], 'bid': 5.01}]",91257.80000001192,1669848515068,rigatoni,sushi w_condiments,5.0,5.01,0.009999999999999787,rigatoni,721.9000000357628,727,726.9000000357628,True,u,92485.40000003576,1227.6000000238419,1669848516296,1228,HRV,HRV_0287,2022-11-30 22:51:10
66,"[{'imgObject': {}, 'id': 'popsicles', 'src': '/static/foodstim60/popsicles.jpg', 'key': 'u', 'origWidth': 410, 'origHeight': 410, 'width': 410, 'height': 410, 'widthPercent': 0.45, 'rescaleHeight': False, 'trialN': 66, 'loaded': True, 'loadedTime': 92487.80000001192, 'positionName': 'LEFT', 'positionCoords': [396.4, 320], 'bid': 5.23}, {'imgObject': {}, 'id': 'shreddedwheatwithmilk', 'src': '/static/foodstim60/shreddedwheatwithmilk.jpg', 'key': 'i', 'origWidth': 410, 'origHeight': 410, 'width': 410, 'height': 410, 'widthPercent': 0.45, 'rescaleHeight': False, 'trialN': 66, 'loaded': True, 'loadedTime': 92488, 'positionName': 'RIGHT', 'positionCoords': [873.6, 320], 'bid': 5.36}]",92485.70000004768,1669848516296,popsicles,shreddedwheatwithmilk,5.23,5.36,0.1299999999999999,shreddedwheatwithmilk,675.8999999761581,682,682.1999999880791,True,i,93668.90000003576,1183.199999988079,1669848517479,1183,HRV,HRV_0287,2022-11-30 22:51:10
67,"[{'imgObject': {}, 'id': 'rigatoni and sauce', 'src': '/static/foodstim60/rigatoni and sauce.jpg', 'key': 'u', 'origWidth': 410, 'origHeight': 411, 'width': 410, 'height': 411, 'widthPercent': 0.45, 'rescaleHeight': False, 'trialN': 67, 'loaded': True, 'loadedTime': 93671.40000003576, 'positionName': 'LEFT', 'positionCoords': [396.4, 319.5], 'bid': 8.46}, {'imgObject': {}, 'id': 'fruitsalad', 'src': '/static/foodstim60/fruitsalad.jpg', 'key': 'i', 'origWidth': 410, 'origHeight': 410, 'width': 410, 'height': 410, 'widthPercent': 0.45, 'rescaleHeight': False, 'trialN': 67, 'loaded': True, 'loadedTime': 93671.60000002384, 'positionName': 'RIGHT', 'positionCoords': [873.6, 320], 'bid': 5.08}]",93669.30000001192,1669848517480,rigatoni and sauce,fruitsalad,8.46,5.08,-3.380000000000001,rigatoni and sauce,665.3000000119209,670,670.6999999880791,True,u,94841.30000001192,1172.0,1669848518652,1172,HRV,HRV_0287,2022-11-30 22:51:10
68,"[{'imgObject': {}, 'id': 'baked potato', 'src': '/static/foodstim60/baked potato.jpg', 'key': 'u', 'origWidth': 409, 'origHeight': 410, 'width': 409, 'height': 410, 'widthPercent': 0.45, 'rescaleHeight': False, 'trialN': 68, 'loaded': True, 'loadedTime': 94843.70000004768, 'positionName': 'LEFT', 'positionCoords': [397.4, 320], 'bid': 7.21}, {'imgObject': {}, 'id': 'chicken nuggets2', 'src': '/static/foodstim60/chicken nuggets2.jpg', 'key': 'i', 'origWidth': 410, 'origHeight': 409, 'width': 410, 'height': 409, 'widthPercent': 0.45, 'rescaleHeight': False, 'trialN': 68, 'loaded': True, 'loadedTime': 94843.90000003576, 'positionName': 'RIGHT', 'positionCoords': [873.6, 320.5], 'bid': 8.27}]",94841.70000004768,1669848518652,baked potato,chicken nuggets2,7.21,8.27,1.0599999999999996,baked potato,1116.8999999761581,1122,1121.8999999761581,True,u,96463.90000003576,1622.199999988079,1669848520274,1622,HRV,HRV_0287,2022-11-30 22:51:10
69,"[{'imgObject': {}, 'id': 'ice cream sundae 002', 'src': '/static/foodstim60/ice cream sundae 002.jpg', 'key': 'u', 'origWidth': 409, 'origHeight': 409, 'width': 409, 'height': 409, 'widthPercent': 0.45, 'rescaleHeight': False, 'trialN': 69, 'loaded': True, 'loadedTime': 96466, 'positionName': 'LEFT', 'positionCoords': [397.4, 320.5], 'bid': 5.95}, {'imgObject': {}, 'id': 'raisin bran w milk', 'src': '/static/foodstim60/raisin bran w milk.jpg', 'key': 'i', 'origWidth': 411, 'origHeight': 411, 'width': 411, 'height': 411, 'widthPercent': 0.45, 'rescaleHeight': False, 'trialN': 69, 'loaded': True, 'loadedTime': 96466.20000004768, 'positionName': 'RIGHT', 'positionCoords': [873.6, 319.5], 'bid': 5.08}]",96464.30000001192,1669848520275,ice cream sundae 002,raisin bran w milk,5.95,5.08,-0.8700000000000001,raisin bran w milk,785.1999999880791,790,790.8000000119209,True,i,97755.90000003576,1291.6000000238419,1669848521566,1291,HRV,HRV_0287,2022-11-30 22:51:10
70,"[{'imgObject': {}, 'id': 'yogurt no spoon', 'src': '/static/foodstim60/yogurt no spoon.jpg', 'key': 'u', 'origWidth': 411, 'origHeight': 410, 'width': 411, 'height': 410, 'widthPercent': 0.45, 'rescaleHeight': False, 'trialN': 70, 'loaded': True, 'loadedTime': 97758.30000001192, 'positionName': 'LEFT', 'positionCoords': [395.4, 320], 'bid': 4.98}, {'imgObject': {}, 'id': 'kiwi', 'src': '/static/foodstim60/kiwi.jpg', 'key': 'i', 'origWidth': 410, 'origHeight': 410, 'width': 410, 'height': 410, 'widthPercent': 0.45, 'rescaleHeight': False, 'trialN': 70, 'loaded': True, 'loadedTime': 97758.70000004768, 'positionName': 'RIGHT', 'positionCoords': [873.6, 320], 'bid': 0.58}]",97756.30000001192,1669848521567,yogurt no spoon,kiwi,4.98,0.58,-4.4,yogurt no spoon,899.3000000119209,904,904.6000000238419,True,u,99161.30000001192,1405.0,1669848522972,1405,HRV,HRV_0287,2022-11-30 22:51:10
71,"[{'imgObject': {}, 'id': 'sweetpotato', 'src': '/static/foodstim60/sweetpotato.jpg', 'key': 'u', 'origWidth': 410, 'origHeight': 410, 'width': 410, 'height': 410, 'widthPercent': 0.45, 'rescaleHeight': False, 'trialN': 71, 'loaded': True, 'loadedTime': 99163.70000004768, 'positionName': 'LEFT', 'positionCoords': [396.4, 320], 'bid': 4.91}, {'imgObject': {}, 'id': 'kiwi', 'src': '/static/foodstim60/kiwi.jpg', 'key': 'i', 'origWidth': 410, 'origHeight': 410, 'width': 410, 'height': 410, 'widthPercent': 0.45, 'rescaleHeight': False, 'trialN': 71, 'loaded': True, 'loadedTime': 99164, 'positionName': 'RIGHT', 'positionCoords': [873.6, 320], 'bid': 0.58}]",99161.70000004768,1669848522972,sweetpotato,kiwi,4.91,0.58,-4.33,sweetpotato,742.5,748,748.0999999642372,True,u,100409.90000003576,1248.199999988079,1669848524220,1248,HRV,HRV_0287,2022-11-30 22:51:10
72,"[{'imgObject': {}, 'id': 'chicken nuggets2', 'src': '/static/foodstim60/chicken nuggets2.jpg', 'key': 'u', 'origWidth': 410, 'origHeight': 409, 'width': 410, 'height': 409, 'widthPercent': 0.45, 'rescaleHeight': False, 'trialN': 72, 'loaded': True, 'loadedTime': 100412.10000002384, 'positionName': 'LEFT', 'positionCoords': [396.4, 320.5], 'bid': 8.27}, {'imgObject': {}, 'id': 'cantaloupe', 'src': '/static/foodstim60/cantaloupe.jpg', 'key': 'i', 'origWidth': 409, 'origHeight': 409, 'width': 409, 'height': 409, 'widthPercent': 0.45, 'rescaleHeight': False, 'trialN': 72, 'loaded': True, 'loadedTime': 100412.30000001192, 'positionName': 'RIGHT', 'positionCoords': [873.6, 320.5], 'bid': 7.17}]",100410.30000001192,1669848524221,chicken nuggets2,cantaloupe,8.27,7.17,-1.0999999999999996,chicken nuggets2,654.0,659,659.6000000238419,True,u,101570.10000002384,1159.800000011921,1669848525381,1160,HRV,HRV_0287,2022-11-30 22:51:10
73,"[{'imgObject': {}, 'id': 'ice cream sundae 002', 'src': '/static/foodstim60/ice cream sundae 002.jpg', 'key': 'u', 'origWidth': 409, 'origHeight': 409, 'width': 409, 'height': 409, 'widthPercent': 0.45, 'rescaleHeight': False, 'trialN': 73, 'loaded': True, 'loadedTime': 101572.20000004768, 'positionName': 'LEFT', 'positionCoords': [397.4, 320.5], 'bid': 5.95}, {'imgObject': {}, 'id': 'cocktailshrimp', 'src': '/static/foodstim60/cocktailshrimp.jpg', 'key': 'i', 'origWidth': 410, 'origHeight': 410, 'width': 410, 'height': 410, 'widthPercent': 0.45, 'rescaleHeight': False, 'trialN': 73, 'loaded': True, 'loadedTime': 101572.40000003576, 'positionName': 'RIGHT', 'positionCoords': [873.6, 320], 'bid': 5.26}]",101570.5,1669848525381,ice cream sundae 002,cocktailshrimp,5.95,5.26,-0.6900000000000004,ice cream sundae 002,841.6000000238419,848,847.5,True,u,102918.70000004768,1348.2000000476837,1669848526729,1348,HRV,HRV_0287,2022-11-30 22:51:10
74,"[{'imgObject': {}, 'id': 'froot loops w milk', 'src': '/static/foodstim60/froot loops w milk.jpg', 'key': 'u', 'origWidth': 410, 'origHeight': 410, 'width': 410, 'height': 410, 'widthPercent': 0.45, 'rescaleHeight': False, 'trialN': 74, 'loaded': True, 'loadedTime': 102928.30000001192, 'positionName': 'LEFT', 'positionCoords': [396.4, 320], 'bid': 5.04}, {'imgObject': {}, 'id': 'burger', 'src': '/static/foodstim60/burger.jpg', 'key': 'i', 'origWidth': 409, 'origHeight': 409, 'width': 409, 'height': 409, 'widthPercent': 0.45, 'rescaleHeight': False, 'trialN': 74, 'loaded': True, 'loadedTime': 102930, 'positionName': 'RIGHT', 'positionCoords': [873.6, 320.5], 'bid': 7.41}]",102918.80000001192,1669848526729,froot loops w milk,burger,5.04,7.41,2.37,burger,664.3000000119209,670,669.4000000357628,True,i,104088.70000004768,1169.9000000357628,1669848527899,1170,HRV,HRV_0287,2022-11-30 22:51:10
75,"[{'imgObject': {}, 'id': 'salad w chicken', 'src': '/static/foodstim60/salad w chicken.jpg', 'key': 'u', 'origWidth': 411, 'origHeight': 411, 'width': 411, 'height': 411, 'widthPercent': 0.45, 'rescaleHeight': False, 'trialN': 75, 'loaded': True, 'loadedTime': 104112, 'positionName': 'LEFT', 'positionCoords': [395.4, 319.5], 'bid': 7.73}, {'imgObject': {}, 'id': 'raisin bran w milk', 'src': '/static/foodstim60/raisin bran w milk.jpg', 'key': 'i', 'origWidth': 411, 'origHeight': 411, 'width': 411, 'height': 411, 'widthPercent': 0.45, 'rescaleHeight': False, 'trialN': 75, 'loaded': True, 'loadedTime': 104113.5, 'positionName': 'RIGHT', 'positionCoords': [873.6, 319.5], 'bid': 5.08}]",104088.90000003576,1669848527899,salad w chicken,raisin bran w milk,7.73,5.08,-2.6500000000000004,raisin bran w milk,790.1999999880791,796,795.1999999880791,True,i,105384.40000003576,1295.5,1669848529195,1296,HRV,HRV_0287,2022-11-30 22:51:10
76,"[{'imgObject': {}, 'id': 'luckycharms', 'src': '/static/foodstim60/luckycharms.jpg', 'key': 'u', 'origWidth': 410, 'origHeight': 409, 'width': 410, 'height': 409, 'widthPercent': 0.45, 'rescaleHeight': False, 'trialN': 76, 'loaded': True, 'loadedTime': 105394.60000002384, 'positionName': 'LEFT', 'positionCoords': [396.4, 320.5], 'bid': 5.05}, {'imgObject': {}, 'id': 'hashbrowns', 'src': '/static/foodstim60/hashbrowns.jpg', 'key': 'i', 'origWidth': 411, 'origHeight': 410, 'width': 411, 'height': 410, 'widthPercent': 0.45, 'rescaleHeight': False, 'trialN': 76, 'loaded': True, 'loadedTime': 105393.40000003576, 'positionName': 'RIGHT', 'positionCoords': [873.6, 320], 'bid': 7.53}]",105384.5,1669848529195,luckycharms,hashbrowns,5.05,7.53,2.4800000000000004,hashbrowns,1530.6000000238419,1536,1536.1000000238419,True,i,107422.70000004768,2038.2000000476837,1669848531233,2038,HRV,HRV_0287,2022-11-30 22:51:10
77,"[{'imgObject': {}, 'id': 'bagel plain', 'src': '/static/foodstim60/bagel plain.jpg', 'key': 'u', 'origWidth': 410, 'origHeight': 410, 'width': 410, 'height': 410, 'widthPercent': 0.45, 'rescaleHeight': False, 'trialN': 77, 'loaded': True, 'loadedTime': 107432.30000001192, 'positionName': 'LEFT', 'positionCoords': [396.4, 320], 'bid': 7.63}, {'imgObject': {}, 'id': 'bagel and cc', 'src': '/static/foodstim60/bagel and cc.jpg', 'key': 'i', 'origWidth': 410, 'origHeight': 410, 'width': 410, 'height': 410, 'widthPercent': 0.45, 'rescaleHeight': False, 'trialN': 77, 'loaded': True, 'loadedTime': 107433.5, 'positionName': 'RIGHT', 'positionCoords': [873.6, 320], 'bid': 7.19}]",107422.80000001192,1669848531233,bagel plain,bagel and cc,7.63,7.19,-0.4399999999999995,bagel and cc,765.1999999880791,771,771.1000000238419,True,i,108694.10000002384,1271.300000011921,1669848532505,1272,HRV,HRV_0287,2022-11-30 22:51:10
78,"[{'imgObject': {}, 'id': 'cherry tomato', 'src': '/static/foodstim60/cherry tomato.jpg', 'key': 'u', 'origWidth': 410, 'origHeight': 410, 'width': 410, 'height': 410, 'widthPercent': 0.45, 'rescaleHeight': False, 'trialN': 78, 'loaded': True, 'loadedTime': 108703, 'positionName': 'LEFT', 'positionCoords': [396.4, 320], 'bid': 9.51}, {'imgObject': {}, 'id': 'bagel and cc', 'src': '/static/foodstim60/bagel and cc.jpg', 'key': 'i', 'origWidth': 410, 'origHeight': 410, 'width': 410, 'height': 410, 'widthPercent': 0.45, 'rescaleHeight': False, 'trialN': 78, 'loaded': True, 'loadedTime': 108697, 'positionName': 'RIGHT', 'positionCoords': [873.6, 320], 'bid': 7.19}]",108694.40000003576,1669848532505,cherry tomato,bagel and cc,9.51,7.19,-2.3199999999999994,bagel and cc,1274.3999999761581,1279,1279.3999999761581,True,i,110473.90000003576,1779.5,1669848534285,1780,HRV,HRV_0287,2022-11-30 22:51:10
79,"[{'imgObject': {}, 'id': 'salad w chicken', 'src': '/static/foodstim60/salad w chicken.jpg', 'key': 'u', 'origWidth': 411, 'origHeight': 411, 'width': 411, 'height': 411, 'widthPercent': 0.45, 'rescaleHeight': False, 'trialN': 79, 'loaded': True, 'loadedTime': 110476.30000001192, 'positionName': 'LEFT', 'positionCoords': [395.4, 319.5], 'bid': 7.73}, {'imgObject': {}, 'id': 'bagel plain', 'src': '/static/foodstim60/bagel plain.jpg', 'key': 'i', 'origWidth': 410, 'origHeight': 410, 'width': 410, 'height': 410, 'widthPercent': 0.45, 'rescaleHeight': False, 'trialN': 79, 'loaded': True, 'loadedTime': 110476.60000002384, 'positionName': 'RIGHT', 'positionCoords': [873.6, 320], 'bid': 7.63}]",110474.30000001192,1669848534285,salad w chicken,bagel plain,7.73,7.63,-0.10000000000000053,salad w chicken,837.5,844,843.6999999880791,True,u,111818.30000001192,1344.0,1669848535629,1344,HRV,HRV_0287,2022-11-30 22:51:10
80,"[{'imgObject': {}, 'id': 'chickenfingers', 'src': '/static/foodstim60/chickenfingers.jpg', 'key': 'u', 'origWidth': 410, 'origHeight': 410, 'width': 410, 'height': 410, 'widthPercent': 0.45, 'rescaleHeight': False, 'trialN': 80, 'loaded': True, 'loadedTime': 111828.20000004768, 'positionName': 'LEFT', 'positionCoords': [396.4, 320], 'bid': 7.19}, {'imgObject': {}, 'id': 'popsicles', 'src': '/static/foodstim60/popsicles.jpg', 'key': 'i', 'origWidth': 410, 'origHeight': 410, 'width': 410, 'height': 410, 'widthPercent': 0.45, 'rescaleHeight': False, 'trialN': 80, 'loaded': True, 'loadedTime': 111829.60000002384, 'positionName': 'RIGHT', 'positionCoords': [873.6, 320], 'bid': 5.23}]",111818.40000003576,1669848535629,chickenfingers,popsicles,7.19,5.23,-1.96,chickenfingers,584.5999999642372,590,589.5999999642372,True,u,112908.60000002384,1090.199999988079,1669848536719,1090,HRV,HRV_0287,2022-11-30 22:51:10
81,"[{'imgObject': {}, 'id': 'edamame', 'src': '/static/foodstim60/edamame.jpg', 'key': 'u', 'origWidth': 409, 'origHeight': 410, 'width': 409, 'height': 410, 'widthPercent': 0.45, 'rescaleHeight': False, 'trialN': 81, 'loaded': True, 'loadedTime': 112917.90000003576, 'positionName': 'LEFT', 'positionCoords': [397.4, 320], 'bid': 2.96}, {'imgObject': {}, 'id': 'salmon', 'src': '/static/foodstim60/salmon.jpg', 'key': 'i', 'origWidth': 410, 'origHeight': 409, 'width': 410, 'height': 409, 'widthPercent': 0.45, 'rescaleHeight': False, 'trialN': 81, 'loaded': True, 'loadedTime': 112919.10000002384, 'positionName': 'RIGHT', 'positionCoords': [873.6, 320.5], 'bid': 2.79}]",112908.70000004768,1669848536719,edamame,salmon,2.96,2.79,-0.16999999999999993,edamame,990.0999999642372,1003,1002.5999999642372,True,u,114411.90000003576,1503.199999988079,1669848538223,1504,HRV,HRV_0287,2022-11-30 22:51:10
82,"[{'imgObject': {}, 'id': 'orange slices', 'src': '/static/foodstim60/orange slices.jpg', 'key': 'u', 'origWidth': 409, 'origHeight': 410, 'width': 409, 'height': 410, 'widthPercent': 0.45, 'rescaleHeight': False, 'trialN': 82, 'loaded': True, 'loadedTime': 114421.40000003576, 'positionName': 'LEFT', 'positionCoords': [397.4, 320], 'bid': 4.9}, {'imgObject': {}, 'id': 'steak', 'src': '/static/foodstim60/steak.jpg', 'key': 'i', 'origWidth': 410, 'origHeight': 410, 'width': 410, 'height': 410, 'widthPercent': 0.45, 'rescaleHeight': False, 'trialN': 82, 'loaded': True, 'loadedTime': 114422.60000002384, 'positionName': 'RIGHT', 'positionCoords': [873.6, 320], 'bid': 0.5}]",114412.10000002384,1669848538223,orange slices,steak,4.9,0.5,-4.4,orange slices,1232.6000000238419,1248,1248.1000000238419,True,u,116160.70000004768,1748.6000000238419,1669848539971,1748,HRV,HRV_0287,2022-11-30 22:51:10
83,"[{'imgObject': {}, 'id': 'eggs', 'src': '/static/foodstim60/eggs.jpg', 'key': 'u', 'origWidth': 409, 'origHeight': 409, 'width': 409, 'height': 409, 'widthPercent': 0.45, 'rescaleHeight': False, 'trialN': 83, 'loaded': True, 'loadedTime': 116170, 'positionName': 'LEFT', 'positionCoords': [397.4, 320.5], 'bid': 5.0200000000000005}, {'imgObject': {}, 'id': 'granola w milk', 'src': '/static/foodstim60/granola w milk.jpg', 'key': 'i', 'origWidth': 410, 'origHeight': 410, 'width': 410, 'height': 410, 'widthPercent': 0.45, 'rescaleHeight': False, 'trialN': 83, 'loaded': True, 'loadedTime': 116171.70000004768, 'positionName': 'RIGHT', 'positionCoords': [873.6, 320], 'bid': 5.01}]",116160.90000003576,1669848539972,eggs,granola w milk,5.0200000000000005,5.01,-0.010000000000000675,granola w milk,712.6999999880791,719,718.8999999761581,True,i,117380.70000004768,1219.800000011921,1669848541191,1219,HRV,HRV_0287,2022-11-30 22:51:10
84,"[{'imgObject': {}, 'id': 'mac & cheese', 'src': '/static/foodstim60/mac & cheese.jpg', 'key': 'u', 'origWidth': 410, 'origHeight': 410, 'width': 410, 'height': 410, 'widthPercent': 0.45, 'rescaleHeight': False, 'trialN': 84, 'loaded': True, 'loadedTime': 117396.5, 'positionName': 'LEFT', 'positionCoords': [396.4, 320], 'bid': 5.98}, {'imgObject': {}, 'id': 'cherries', 'src': '/static/foodstim60/cherries.jpg', 'key': 'i', 'origWidth': 410, 'origHeight': 411, 'width': 410, 'height': 411, 'widthPercent': 0.45, 'rescaleHeight': False, 'trialN': 84, 'loaded': True, 'loadedTime': 117398.30000001192, 'positionName': 'RIGHT', 'positionCoords': [873.6, 319.5], 'bid': 6.54}]",117380.80000001192,1669848541192,mac & cheese,cherries,5.98,6.54,0.5599999999999996,mac & cheese,543.6999999880791,548,548.8000000119209,True,u,118430.90000003576,1050.1000000238419,1669848542242,1050,HRV,HRV_0287,2022-11-30 22:51:10
85,"[{'imgObject': {}, 'id': 'mashed potato', 'src': '/static/foodstim60/mashed potato.jpg', 'key': 'u', 'origWidth': 409, 'origHeight': 409, 'width': 409, 'height': 409, 'widthPercent': 0.45, 'rescaleHeight': False, 'trialN': 85, 'loaded': True, 'loadedTime': 118439.30000001192, 'positionName': 'LEFT', 'positionCoords': [397.4, 320.5], 'bid': 9.65}, {'imgObject': {}, 'id': 'cherry tomato', 'src': '/static/foodstim60/cherry tomato.jpg', 'key': 'i', 'origWidth': 410, 'origHeight': 410, 'width': 410, 'height': 410, 'widthPercent': 0.45, 'rescaleHeight': False, 'trialN': 85, 'loaded': True, 'loadedTime': 118433.5, 'positionName': 'RIGHT', 'positionCoords': [873.6, 320], 'bid': 9.51}]",118431.20000004768,1669848542242,mashed potato,cherry tomato,9.65,9.51,-0.14000000000000057,mashed potato,683.1999999880791,688,688.5,True,u,119620.0,1188.7999999523163,1669848543431,1189,HRV,HRV_0287,2022-11-30 22:51:10
86,"[{'imgObject': {}, 'id': 'avocado', 'src': '/static/foodstim60/avocado.jpg', 'key': 'u', 'origWidth': 409, 'origHeight': 409, 'width': 409, 'height': 409, 'widthPercent': 0.45, 'rescaleHeight': False, 'trialN': 86, 'loaded': True, 'loadedTime': 119629.10000002384, 'positionName': 'LEFT', 'positionCoords': [397.4, 320.5], 'bid': 1.47}, {'imgObject': {}, 'id': 'burrito', 'src': '/static/foodstim60/burrito.jpg', 'key': 'i', 'origWidth': 410, 'origHeight': 410, 'width': 410, 'height': 410, 'widthPercent': 0.45, 'rescaleHeight': False, 'trialN': 86, 'loaded': True, 'loadedTime': 119630.80000001192, 'positionName': 'RIGHT', 'positionCoords': [873.6, 320], 'bid': 5}]",119620.20000004768,1669848543431,avocado,burrito,1.47,5.0,3.5300000000000002,burrito,596.3999999761581,602,601.5,True,i,120722.0,1101.7999999523163,1669848544533,1102,HRV,HRV_0287,2022-11-30 22:51:10
87,"[{'imgObject': {}, 'id': 'pear', 'src': '/static/foodstim60/pear.jpg', 'key': 'u', 'origWidth': 411, 'origHeight': 410, 'width': 411, 'height': 410, 'widthPercent': 0.45, 'rescaleHeight': False, 'trialN': 87, 'loaded': True, 'loadedTime': 120730.60000002384, 'positionName': 'LEFT', 'positionCoords': [395.4, 320], 'bid': 6.76}, {'imgObject': {}, 'id': 'bagel plain', 'src': '/static/foodstim60/bagel plain.jpg', 'key': 'i', 'origWidth': 410, 'origHeight': 410, 'width': 410, 'height': 410, 'widthPercent': 0.45, 'rescaleHeight': False, 'trialN': 87, 'loaded': True, 'loadedTime': 120724.40000003576, 'positionName': 'RIGHT', 'positionCoords': [873.6, 320], 'bid': 7.63}]",120722.30000001192,1669848544533,pear,bagel plain,6.76,7.63,0.8700000000000001,bagel plain,619.3000000119209,625,624.9000000357628,True,i,121847.40000003576,1125.1000000238419,1669848545658,1125,HRV,HRV_0287,2022-11-30 22:51:10
88,"[{'imgObject': {}, 'id': 'yogurt no spoon', 'src': '/static/foodstim60/yogurt no spoon.jpg', 'key': 'u', 'origWidth': 411, 'origHeight': 410, 'width': 411, 'height': 410, 'widthPercent': 0.45, 'rescaleHeight': False, 'trialN': 88, 'loaded': True, 'loadedTime': 121856.5, 'positionName': 'LEFT', 'positionCoords': [395.4, 320], 'bid': 4.98}, {'imgObject': {}, 'id': 'cantaloupe', 'src': '/static/foodstim60/cantaloupe.jpg', 'key': 'i', 'origWidth': 409, 'origHeight': 409, 'width': 409, 'height': 409, 'widthPercent': 0.45, 'rescaleHeight': False, 'trialN': 88, 'loaded': True, 'loadedTime': 121858, 'positionName': 'RIGHT', 'positionCoords': [873.6, 320.5], 'bid': 7.17}]",121847.60000002384,1669848545658,yogurt no spoon,cantaloupe,4.98,7.17,2.1899999999999995,yogurt no spoon,611.8999999761581,618,617.1000000238419,True,u,122965.5,1117.8999999761581,1669848546776,1118,HRV,HRV_0287,2022-11-30 22:51:10
89,"[{'imgObject': {}, 'id': 'edamame', 'src': '/static/foodstim60/edamame.jpg', 'key': 'u', 'origWidth': 409, 'origHeight': 410, 'width': 409, 'height': 410, 'widthPercent': 0.45, 'rescaleHeight': False, 'trialN': 89, 'loaded': True, 'loadedTime': 122968, 'positionName': 'LEFT', 'positionCoords': [397.4, 320], 'bid': 2.96}, {'imgObject': {}, 'id': 'cherries', 'src': '/static/foodstim60/cherries.jpg', 'key': 'i', 'origWidth': 410, 'origHeight': 411, 'width': 410, 'height': 411, 'widthPercent': 0.45, 'rescaleHeight': False, 'trialN': 89, 'loaded': True, 'loadedTime': 122968.20000004768, 'positionName': 'RIGHT', 'positionCoords': [873.6, 319.5], 'bid': 6.54}]",122965.90000003576,1669848546777,edamame,cherries,2.96,6.54,3.58,edamame,530.3999999761581,549,549.1999999880791,True,u,124015.5,1049.5999999642372,1669848547826,1049,HRV,HRV_0287,2022-11-30 22:51:10
90,"[{'imgObject': {}, 'id': 'orange slices', 'src': '/static/foodstim60/orange slices.jpg', 'key': 'u', 'origWidth': 409, 'origHeight': 410, 'width': 409, 'height': 410, 'widthPercent': 0.45, 'rescaleHeight': False, 'trialN': 90, 'loaded': True, 'loadedTime': 125838.10000002384, 'positionName': 'LEFT', 'positionCoords': [397.4, 320], 'bid': 4.9}, {'imgObject': {}, 'id': 'raisin bran w milk', 'src': '/static/foodstim60/raisin bran w milk.jpg', 'key': 'i', 'origWidth': 411, 'origHeight': 411, 'width': 411, 'height': 411, 'widthPercent': 0.45, 'rescaleHeight': False, 'trialN': 90, 'loaded': True, 'loadedTime': 125838.40000003576, 'positionName': 'RIGHT', 'positionCoords': [873.6, 319.5], 'bid': 5.08}]",125836.30000001192,1669848549647,orange slices,raisin bran w milk,4.9,5.08,0.17999999999999972,raisin bran w milk,924.0,932,932.1000000238419,True,i,127269.60000002384,1433.300000011921,1669848551081,1434,HRV,HRV_0287,2022-11-30 22:51:10
91,"[{'imgObject': {}, 'id': 'salmon', 'src': '/static/foodstim60/salmon.jpg', 'key': 'u', 'origWidth': 410, 'origHeight': 409, 'width': 410, 'height': 409, 'widthPercent': 0.45, 'rescaleHeight': False, 'trialN': 91, 'loaded': True, 'loadedTime': 127273.40000003576, 'positionName': 'LEFT', 'positionCoords': [396.4, 320.5], 'bid': 2.79}, {'imgObject': {}, 'id': 'eggsalad', 'src': '/static/foodstim60/eggsalad.jpg', 'key': 'i', 'origWidth': 410, 'origHeight': 409, 'width': 410, 'height': 409, 'widthPercent': 0.45, 'rescaleHeight': False, 'trialN': 91, 'loaded': True, 'loadedTime': 127290.20000004768, 'positionName': 'RIGHT', 'positionCoords': [873.6, 320.5], 'bid': 4.98}]",127270.0,1669848551081,salmon,eggsalad,2.79,4.98,2.1900000000000004,eggsalad,662.2000000476837,668,667.7000000476837,True,i,128438.40000003576,1168.4000000357628,1669848552249,1168,HRV,HRV_0287,2022-11-30 22:51:10
92,"[{'imgObject': {}, 'id': 'froot loops w milk', 'src': '/static/foodstim60/froot loops w milk.jpg', 'key': 'u', 'origWidth': 410, 'origHeight': 410, 'width': 410, 'height': 410, 'widthPercent': 0.45, 'rescaleHeight': False, 'trialN': 92, 'loaded': True, 'loadedTime': 128440.5, 'positionName': 'LEFT', 'positionCoords': [396.4, 320], 'bid': 5.04}, {'imgObject': {}, 'id': 'luckycharms', 'src': '/static/foodstim60/luckycharms.jpg', 'key': 'i', 'origWidth': 410, 'origHeight': 409, 'width': 410, 'height': 409, 'widthPercent': 0.45, 'rescaleHeight': False, 'trialN': 92, 'loaded': True, 'loadedTime': 128440.90000003576, 'positionName': 'RIGHT', 'positionCoords': [873.6, 320.5], 'bid': 5.05}]",128438.80000001192,1669848552250,froot loops w milk,luckycharms,5.04,5.05,0.009999999999999787,froot loops w milk,724.4000000357628,729,729.6999999880791,True,u,129668.80000001192,1230.0,1669848553479,1229,HRV,HRV_0287,2022-11-30 22:51:10
93,"[{'imgObject': {}, 'id': 'raspberries', 'src': '/static/foodstim60/raspberries.jpg', 'key': 'u', 'origWidth': 411, 'origHeight': 411, 'width': 411, 'height': 411, 'widthPercent': 0.45, 'rescaleHeight': False, 'trialN': 93, 'loaded': True, 'loadedTime': 129679.5, 'positionName': 'LEFT', 'positionCoords': [395.4, 319.5], 'bid': 6.94}, {'imgObject': {}, 'id': 'apple slices', 'src': '/static/foodstim60/apple slices.jpg', 'key': 'i', 'origWidth': 409, 'origHeight': 410, 'width': 409, 'height': 410, 'widthPercent': 0.45, 'rescaleHeight': False, 'trialN': 93, 'loaded': True, 'loadedTime': 129677.90000003576, 'positionName': 'RIGHT', 'positionCoords': [873.6, 320], 'bid': 6.8}]",129668.90000003576,1669848553479,raspberries,apple slices,6.94,6.8,-0.14000000000000057,raspberries,1311.300000011921,1317,1316.300000011921,True,u,131485.40000003576,1816.5,1669848555296,1817,HRV,HRV_0287,2022-11-30 22:51:10
94,"[{'imgObject': {}, 'id': 'banana', 'src': '/static/foodstim60/banana.jpg', 'key': 'u', 'origWidth': 410, 'origHeight': 410, 'width': 410, 'height': 410, 'widthPercent': 0.45, 'rescaleHeight': False, 'trialN': 94, 'loaded': True, 'loadedTime': 131494.80000001192, 'positionName': 'LEFT', 'positionCoords': [396.4, 320], 'bid': 4.98}, {'imgObject': {}, 'id': 'olives', 'src': '/static/foodstim60/olives.jpg', 'key': 'i', 'origWidth': 410, 'origHeight': 410, 'width': 410, 'height': 410, 'widthPercent': 0.45, 'rescaleHeight': False, 'trialN': 94, 'loaded': True, 'loadedTime': 131493.60000002384, 'positionName': 'RIGHT', 'positionCoords': [873.6, 320], 'bid': 2.35}]",131485.60000002384,1669848555296,banana,olives,4.98,2.35,-2.6300000000000003,banana,766.5,772,772.5,True,u,132758.30000001192,1272.699999988079,1669848556568,1272,HRV,HRV_0287,2022-11-30 22:51:10
95,"[{'imgObject': {}, 'id': 'orange slices', 'src': '/static/foodstim60/orange slices.jpg', 'key': 'u', 'origWidth': 409, 'origHeight': 410, 'width': 409, 'height': 410, 'widthPercent': 0.45, 'rescaleHeight': False, 'trialN': 95, 'loaded': True, 'loadedTime': 132760.90000003576, 'positionName': 'LEFT', 'positionCoords': [397.4, 320], 'bid': 4.9}, {'imgObject': {}, 'id': 'sweetpotato', 'src': '/static/foodstim60/sweetpotato.jpg', 'key': 'i', 'origWidth': 410, 'origHeight': 410, 'width': 410, 'height': 410, 'widthPercent': 0.45, 'rescaleHeight': False, 'trialN': 95, 'loaded': True, 'loadedTime': 132767.30000001192, 'positionName': 'RIGHT', 'positionCoords': [873.6, 320], 'bid': 4.91}]",132758.70000004768,1669848556569,orange slices,sweetpotato,4.9,4.91,0.009999999999999787,sweetpotato,817.1999999880791,880,880.3999999761581,True,i,134140.20000004768,1381.5,1669848557950,1381,HRV,HRV_0287,2022-11-30 22:51:10
96,"[{'imgObject': {}, 'id': 'baked potato', 'src': '/static/foodstim60/baked potato.jpg', 'key': 'u', 'origWidth': 409, 'origHeight': 410, 'width': 409, 'height': 410, 'widthPercent': 0.45, 'rescaleHeight': False, 'trialN': 96, 'loaded': True, 'loadedTime': 134150.10000002384, 'positionName': 'LEFT', 'positionCoords': [397.4, 320], 'bid': 7.21}, {'imgObject': {}, 'id': 'Tribe humus pita', 'src': '/static/foodstim60/Tribe humus pita.jpg', 'key': 'i', 'origWidth': 411, 'origHeight': 411, 'width': 411, 'height': 411, 'widthPercent': 0.45, 'rescaleHeight': False, 'trialN': 96, 'loaded': True, 'loadedTime': 134148.90000003576, 'positionName': 'RIGHT', 'positionCoords': [873.6, 319.5], 'bid': 7.38}]",134140.30000001192,1669848557950,baked potato,Tribe humus pita,7.21,7.38,0.16999999999999993,Tribe humus pita,653.6999999880791,659,659.1000000238419,True,i,135299.60000002384,1159.300000011921,1669848559109,1159,HRV,HRV_0287,2022-11-30 22:51:10
97,"[{'imgObject': {}, 'id': 'bagel and cc', 'src': '/static/foodstim60/bagel and cc.jpg', 'key': 'u', 'origWidth': 410, 'origHeight': 410, 'width': 410, 'height': 410, 'widthPercent': 0.45, 'rescaleHeight': False, 'trialN': 97, 'loaded': True, 'loadedTime': 135302, 'positionName': 'LEFT', 'positionCoords': [396.4, 320], 'bid': 7.19}, {'imgObject': {}, 'id': 'strawberries', 'src': '/static/foodstim60/strawberries.jpg', 'key': 'i', 'origWidth': 410, 'origHeight': 410, 'width': 410, 'height': 410, 'widthPercent': 0.45, 'rescaleHeight': False, 'trialN': 97, 'loaded': True, 'loadedTime': 135307.5, 'positionName': 'RIGHT', 'positionCoords': [873.6, 320], 'bid': 7.2}]",135300.0,1669848559110,bagel and cc,strawberries,7.19,7.2,0.009999999999999787,bagel and cc,752.7000000476837,758,758.0,True,u,136558.80000001192,1258.800000011921,1669848560368,1258,HRV,HRV_0287,2022-11-30 22:51:10
98,"[{'imgObject': {}, 'id': 'hotdog w must', 'src': '/static/foodstim60/hotdog w must.jpg', 'key': 'u', 'origWidth': 409, 'origHeight': 409, 'width': 409, 'height': 409, 'widthPercent': 0.45, 'rescaleHeight': False, 'trialN': 98, 'loaded': True, 'loadedTime': 136567.90000003576, 'positionName': 'LEFT', 'positionCoords': [397.4, 320.5], 'bid': 5.14}, {'imgObject': {}, 'id': 'banana', 'src': '/static/foodstim60/banana.jpg', 'key': 'i', 'origWidth': 410, 'origHeight': 410, 'width': 410, 'height': 410, 'widthPercent': 0.45, 'rescaleHeight': False, 'trialN': 98, 'loaded': True, 'loadedTime': 136561.60000002384, 'positionName': 'RIGHT', 'positionCoords': [873.6, 320], 'bid': 4.98}]",136559.20000004768,1669848560369,hotdog w must,banana,5.14,4.98,-0.15999999999999925,hotdog w must,664.6999999880791,670,670.1999999880791,True,u,137729.70000004768,1170.5,1669848561539,1170,HRV,HRV_0287,2022-11-30 22:51:10
99,"[{'imgObject': {}, 'id': 'steak', 'src': '/static/foodstim60/steak.jpg', 'key': 'u', 'origWidth': 410, 'origHeight': 410, 'width': 410, 'height': 410, 'widthPercent': 0.45, 'rescaleHeight': False, 'trialN': 99, 'loaded': True, 'loadedTime': 137732.30000001192, 'positionName': 'LEFT', 'positionCoords': [396.4, 320], 'bid': 0.5}, {'imgObject': {}, 'id': 'lox', 'src': '/static/foodstim60/lox.jpg', 'key': 'i', 'origWidth': 410, 'origHeight': 411, 'width': 410, 'height': 411, 'widthPercent': 0.45, 'rescaleHeight': False, 'trialN': 99, 'loaded': True, 'loadedTime': 137738.60000002384, 'positionName': 'RIGHT', 'positionCoords': [873.6, 319.5], 'bid': 2.84}]",137730.0,1669848561539,steak,lox,0.5,2.84,2.34,lox,687.8000000119209,696,695.2000000476837,True,i,138953.40000003576,1223.4000000357628,1669848562763,1224,HRV,HRV_0287,2022-11-30 22:51:10
100,"[{'imgObject': {}, 'id': 'hotdog w must', 'src': '/static/foodstim60/hotdog w must.jpg', 'key': 'u', 'origWidth': 409, 'origHeight': 409, 'width': 409, 'height': 409, 'widthPercent': 0.45, 'rescaleHeight': False, 'trialN': 100, 'loaded': True, 'loadedTime': 138956.20000004768, 'positionName': 'LEFT', 'positionCoords': [397.4, 320.5], 'bid': 5.14}, {'imgObject': {}, 'id': 'mashed potato', 'src': '/static/foodstim60/mashed potato.jpg', 'key': 'i', 'origWidth': 409, 'origHeight': 409, 'width': 409, 'height': 409, 'widthPercent': 0.45, 'rescaleHeight': False, 'trialN': 100, 'loaded': True, 'loadedTime': 138956.5, 'positionName': 'RIGHT', 'positionCoords': [873.6, 320.5], 'bid': 9.65}]",138954.0,1669848562763,hotdog w must,mashed potato,5.14,9.65,4.510000000000001,hotdog w must,712.6000000238419,719,718.7000000476837,True,u,140172.90000003576,1218.9000000357628,1669848563982,1219,HRV,HRV_0287,2022-11-30 22:51:10
101,"[{'imgObject': {}, 'id': 'cocktailshrimp', 'src': '/static/foodstim60/cocktailshrimp.jpg', 'key': 'u', 'origWidth': 410, 'origHeight': 410, 'width': 410, 'height': 410, 'widthPercent': 0.45, 'rescaleHeight': False, 'trialN': 101, 'loaded': True, 'loadedTime': 140181.70000004768, 'positionName': 'LEFT', 'positionCoords': [396.4, 320], 'bid': 5.26}, {'imgObject': {}, 'id': 'fruitsalad', 'src': '/static/foodstim60/fruitsalad.jpg', 'key': 'i', 'origWidth': 410, 'origHeight': 410, 'width': 410, 'height': 410, 'widthPercent': 0.45, 'rescaleHeight': False, 'trialN': 101, 'loaded': True, 'loadedTime': 140183, 'positionName': 'RIGHT', 'positionCoords': [873.6, 320], 'bid': 5.08}]",140173.0,1669848563982,cocktailshrimp,fruitsalad,5.26,5.08,-0.17999999999999972,fruitsalad,716.7000000476837,722,721.8000000119209,True,i,141395.0,1222.0,1669848565204,1222,HRV,HRV_0287,2022-11-30 22:51:10
102,"[{'imgObject': {}, 'id': 'raisin bran w milk', 'src': '/static/foodstim60/raisin bran w milk.jpg', 'key': 'u', 'origWidth': 411, 'origHeight': 411, 'width': 411, 'height': 411, 'widthPercent': 0.45, 'rescaleHeight': False, 'trialN': 102, 'loaded': True, 'loadedTime': 141397.5, 'positionName': 'LEFT', 'positionCoords': [395.4, 319.5], 'bid': 5.08}, {'imgObject': {}, 'id': 'Grapes', 'src': '/static/foodstim60/Grapes.jpg', 'key': 'i', 'origWidth': 411, 'origHeight': 411, 'width': 411, 'height': 411, 'widthPercent': 0.45, 'rescaleHeight': False, 'trialN': 102, 'loaded': True, 'loadedTime': 141402.60000002384, 'positionName': 'RIGHT', 'positionCoords': [873.6, 319.5], 'bid': 5.21}]",141395.30000001192,1669848565204,raisin bran w milk,Grapes,5.08,5.21,0.1299999999999999,Grapes,1576.4000000357628,1582,1581.6000000238419,True,i,143477.10000002384,2081.800000011921,1669848567286,2082,HRV,HRV_0287,2022-11-30 22:51:10
103,"[{'imgObject': {}, 'id': 'yogurt no spoon', 'src': '/static/foodstim60/yogurt no spoon.jpg', 'key': 'u', 'origWidth': 411, 'origHeight': 410, 'width': 411, 'height': 410, 'widthPercent': 0.45, 'rescaleHeight': False, 'trialN': 103, 'loaded': True, 'loadedTime': 143479.40000003576, 'positionName': 'LEFT', 'positionCoords': [395.4, 320], 'bid': 4.98}, {'imgObject': {}, 'id': 'burrito', 'src': '/static/foodstim60/burrito.jpg', 'key': 'i', 'origWidth': 410, 'origHeight': 410, 'width': 410, 'height': 410, 'widthPercent': 0.45, 'rescaleHeight': False, 'trialN': 103, 'loaded': True, 'loadedTime': 143479.80000001192, 'positionName': 'RIGHT', 'positionCoords': [873.6, 320], 'bid': 5}]",143477.5,1669848567286,yogurt no spoon,burrito,4.98,5.0,0.019999999999999574,burrito,755.2000000476837,761,760.3000000119209,True,i,144738.70000004768,1261.2000000476837,1669848568548,1262,HRV,HRV_0287,2022-11-30 22:51:10
104,"[{'imgObject': {}, 'id': 'baked potato', 'src': '/static/foodstim60/baked potato.jpg', 'key': 'u', 'origWidth': 409, 'origHeight': 410, 'width': 409, 'height': 410, 'widthPercent': 0.45, 'rescaleHeight': False, 'trialN': 104, 'loaded': True, 'loadedTime': 144740.80000001192, 'positionName': 'LEFT', 'positionCoords': [397.4, 320], 'bid': 7.21}, {'imgObject': {}, 'id': 'granola w milk', 'src': '/static/foodstim60/granola w milk.jpg', 'key': 'i', 'origWidth': 410, 'origHeight': 410, 'width': 410, 'height': 410, 'widthPercent': 0.45, 'rescaleHeight': False, 'trialN': 104, 'loaded': True, 'loadedTime': 144741.10000002384, 'positionName': 'RIGHT', 'positionCoords': [873.6, 320], 'bid': 5.01}]",144739.10000002384,1669848568548,baked potato,granola w milk,7.21,5.01,-2.2,baked potato,788.3999999761581,793,793.3999999761581,True,u,146032.70000004768,1293.6000000238419,1669848569842,1294,HRV,HRV_0287,2022-11-30 22:51:10
105,"[{'imgObject': {}, 'id': 'bagel and cc', 'src': '/static/foodstim60/bagel and cc.jpg', 'key': 'u', 'origWidth': 410, 'origHeight': 410, 'width': 410, 'height': 410, 'widthPercent': 0.45, 'rescaleHeight': False, 'trialN': 105, 'loaded': True, 'loadedTime': 146035.30000001192, 'positionName': 'LEFT', 'positionCoords': [396.4, 320], 'bid': 7.19}, {'imgObject': {}, 'id': 'baked potato', 'src': '/static/foodstim60/baked potato.jpg', 'key': 'i', 'origWidth': 409, 'origHeight': 410, 'width': 409, 'height': 410, 'widthPercent': 0.45, 'rescaleHeight': False, 'trialN': 105, 'loaded': True, 'loadedTime': 146035.60000002384, 'positionName': 'RIGHT', 'positionCoords': [873.6, 320], 'bid': 7.21}]",146033.20000004768,1669848569842,bagel and cc,baked potato,7.19,7.21,0.019999999999999574,bagel and cc,838.0999999642372,843,843.1999999880791,True,u,147376.90000003576,1343.699999988079,1669848571186,1344,HRV,HRV_0287,2022-11-30 22:51:10
106,"[{'imgObject': {}, 'id': 'shreddedwheatwithmilk', 'src': '/static/foodstim60/shreddedwheatwithmilk.jpg', 'key': 'u', 'origWidth': 410, 'origHeight': 410, 'width': 410, 'height': 410, 'widthPercent': 0.45, 'rescaleHeight': False, 'trialN': 106, 'loaded': True, 'loadedTime': 147385.40000003576, 'positionName': 'LEFT', 'positionCoords': [396.4, 320], 'bid': 5.36}, {'imgObject': {}, 'id': 'cheerios', 'src': '/static/foodstim60/cheerios.jpg', 'key': 'i', 'origWidth': 409, 'origHeight': 410, 'width': 409, 'height': 410, 'widthPercent': 0.45, 'rescaleHeight': False, 'trialN': 106, 'loaded': True, 'loadedTime': 147386.5, 'positionName': 'RIGHT', 'positionCoords': [873.6, 320], 'bid': 5.14}]",147377.0,1669848571186,shreddedwheatwithmilk,cheerios,5.36,5.14,-0.22000000000000064,cheerios,1848.4000000357628,1860,1860.5,True,i,149738.40000003576,2361.400000035763,1669848573547,2361,HRV,HRV_0287,2022-11-30 22:51:10
107,"[{'imgObject': {}, 'id': 'chicken nuggets2', 'src': '/static/foodstim60/chicken nuggets2.jpg', 'key': 'u', 'origWidth': 410, 'origHeight': 409, 'width': 410, 'height': 409, 'widthPercent': 0.45, 'rescaleHeight': False, 'trialN': 107, 'loaded': True, 'loadedTime': 149746.60000002384, 'positionName': 'LEFT', 'positionCoords': [396.4, 320.5], 'bid': 8.27}, {'imgObject': {}, 'id': 'cherry tomato', 'src': '/static/foodstim60/cherry tomato.jpg', 'key': 'i', 'origWidth': 410, 'origHeight': 410, 'width': 410, 'height': 410, 'widthPercent': 0.45, 'rescaleHeight': False, 'trialN': 107, 'loaded': True, 'loadedTime': 149740.80000001192, 'positionName': 'RIGHT', 'positionCoords': [873.6, 320], 'bid': 9.51}]",149738.60000002384,1669848573547,chicken nuggets2,cherry tomato,8.27,9.51,1.2400000000000002,chicken nuggets2,774.8999999761581,783,783.1000000238419,True,u,151021.90000003576,1283.300000011921,1669848574831,1284,HRV,HRV_0287,2022-11-30 22:51:10
108,"[{'imgObject': {}, 'id': 'turkeysandwich', 'src': '/static/foodstim60/turkeysandwich.jpg', 'key': 'u', 'origWidth': 409, 'origHeight': 409, 'width': 409, 'height': 409, 'widthPercent': 0.45, 'rescaleHeight': False, 'trialN': 108, 'loaded': True, 'loadedTime': 151065.40000003576, 'positionName': 'LEFT', 'positionCoords': [397.4, 320.5], 'bid': 7.16}, {'imgObject': {}, 'id': 'tacos', 'src': '/static/foodstim60/tacos.jpg', 'key': 'i', 'origWidth': 411, 'origHeight': 411, 'width': 411, 'height': 411, 'widthPercent': 0.45, 'rescaleHeight': False, 'trialN': 108, 'loaded': True, 'loadedTime': 151063.90000003576, 'positionName': 'RIGHT', 'positionCoords': [873.6, 319.5], 'bid': 5.16}]",151022.10000002384,1669848574831,turkeysandwich,tacos,7.16,5.16,-2.0,turkeysandwich,1244.0,1249,1249.800000011921,True,u,152772.40000003576,1750.300000011921,1669848576581,1750,HRV,HRV_0287,2022-11-30 22:51:10
