success,trial_type,trial_index,time_elapsed,internal_node_id,Block,TrialNumber,TrialTime,trialTimeDiff,FPS_avg,FPS_med,FPS_mode,TrialDur,winResizeTime,rt,block,button_pressed,MotCoh,MotDir,ColCoh,Color,ChoiceKey,Choice,Accuracy,RT,nFrames,FPS,PPD,missTrial,missTrialMsg,onsetDelay,fullScreenExitTime,canvCenter,TrialType,Score,BlockTrial,stimulus,button_labels,exp,subjectId,date
True,fullscreen,0,1725,0.0-0.0,0.0,1.0,,,,,,,,,,,,,,,,,,,,,,,,,,,,,,,,HRV,HRV_0287,2022-11-30 23:00:27
,wl-check-fps,1,6795,0.0-1.0,0.0,2.0,"[3166.2, 3166.9, 3179, 3196.4, 3212.5, 3229.4, 3245.9, 3263.5, 3292.2, 3339, 3346.3, 3374.8, 3379, 3395.8, 3412.9, 3429.8, 3445.9, 3465.4, 3479.2, 3497.5, 3576.3, 3579, 3595.7, 3631.1, 3637.9, 3646.1, 3672.5, 3682.6, 3695.4, 3714.1, 3729.4, 3745.9, 3774.9, 3792.7, 3796.6, 3813.2, 3830.1, 3845.8, 3862.2, 3879.4, 3895.7, 3912.9, 3929.1, 3946.6, 3963.3, 3978.8, 3995.3, 4011.8, 4028.4, 4045.4, 4062.7, 4079.1, 4095.5, 4112.4, 4129.3, 4145.5, 4162, 4179.4, 4195.4, 4212.3, 4228.5, 4245.5, 4262.3, 4279, 4295.8, 4311.9, 4328.7, 4345.7, 4363, 4378.7, 4395.7, 4412, 4428.4, 4445.4, 4462.2, 4478.9, 4495.7, 4512.3, 4529.5, 4545.8, 4562.5, 4579.7, 4595.8, 4612.2, 4628.9, 4645.3, 4662.2, 4678.5, 4696, 4712.7, 4728.7, 4745.3, 4762.4, 4778.8, 4795.5, 4812.3, 4829.3, 4845.7, 4862.4, 4879, 4895.6, 4912.1, 4930, 4945.5, 4962.3, 4978.6, 4996, 5012.6, 5029.5, 5045.6, 5062.8, 5079.6, 5095.4, 5112.4, 5129.4, 5145.3, 5162.6, 5178.8, 5195.2, 5212.1, 5229, 5245.5, 5262.4, 5279.4, 5295.4, 5311.8, 5329.2, 5345.4, 5362.1, 5378.8, 5395.5, 5412.1, 5429.3, 5445.5, 5462.1, 5479.6, 5495.5, 5512.5, 5528.7, 5545.6, 5562.1, 5578.5, 5595.3, 5612.8, 5628.6, 5645.5, 5662.8, 5678.8, 5695.2, 5712.3, 5729.5, 5745.8, 5761.9, 5779.8, 5795.5, 5812.2, 5828.7, 5845.7, 5862.1, 5879.5, 5895.7, 5912.8, 5928.7, 5945.8, 5962.3, 5979.6, 5996.1, 6012.5, 6029.4, 6045.8, 6062, 6078.7, 6095.9, 6112.5, 6128.6, 6150.3, 6162.3, 6179.4, 6195.7, 6212.2, 6228.8, 6245.4, 6262.9, 6278.3, 6295.6, 6311.9, 6328.3, 6345.4, 6361.7, 6379, 6395.6, 6412.6, 6429.6, 6445.6, 6462, 6478.7, 6495.6, 6512.5, 6528.4, 6545.4, 6562.1, 6578.9, 6595.4, 6612, 6628.6, 6645.5, 6662.3, 6679.3, 6695.3, 6712.4, 6728.4, 6745.5, 6762.3, 6779.1, 6795.6, 6812.1, 6829.2, 6845.4, 6861.7, 6879.5, 6895.4, 6912.3, 6928.5, 6945.6, 6962, 6979.2, 6995.6, 7012.3, 7029.3, 7045.4, 7062.1, 7078.4, 7095.6, 7112.4, 7128.5, 7145.9, 7162.1, 7178.5, 7195.7, 7212.2, 7229.3, 7245.4, 7261.9, 7278.2, 7295.4, 7311.7, 7328.6, 7345.3, 7361.8, 7378.8, 7395.2, 7412.5, 7428.2, 7445.3, 7461.6, 7478.5, 7495.3, 7512.5, 7529.6, 7545.7, 7562.2, 7579.1, 7595.3, 7611.7, 7629, 7645.1, 7661.7, 7679.3, 7695.8, 7712.2, 7728.7, 7745.7, 7761.8, 7778.4, 7795.7, 7812.3, 7828.8, 7844.9, 7862.4, 7878.6, 7895.7, 7912.1, 7928.8, 7945.6, 7962.3, 7979.3, 7995, 8012.3, 8028.9, 8045.7, 8062.2, 8079, 8096, 8112.4, 8129, 8145.7, 8162.5, 8179.2, 8195.8, 8212.6]","[4.8, 0.7, 12.1, 17.4, 16.1, 16.9, 16.5, 17.6, 28.7, 46.8, 7.3, 28.5, 4.2, 16.8, 17.1, 16.9, 16.1, 19.5, 13.8, 18.3, 78.8, 2.7, 16.7, 35.4, 6.8, 8.2, 26.4, 10.1, 12.8, 18.7, 15.3, 16.5, 29, 17.8, 3.9, 16.6, 16.9, 15.7, 16.4, 17.2, 16.3, 17.2, 16.2, 17.5, 16.7, 15.5, 16.5, 16.5, 16.6, 17, 17.3, 16.4, 16.4, 16.9, 16.9, 16.2, 16.5, 17.4, 16, 16.9, 16.2, 17, 16.8, 16.7, 16.8, 16.1, 16.8, 17, 17.3, 15.7, 17, 16.3, 16.4, 17, 16.8, 16.7, 16.8, 16.6, 17.2, 16.3, 16.7, 17.2, 16.1, 16.4, 16.7, 16.4, 16.9, 16.3, 17.5, 16.7, 16, 16.6, 17.1, 16.4, 16.7, 16.8, 17, 16.4, 16.7, 16.6, 16.6, 16.5, 17.9, 15.5, 16.8, 16.3, 17.4, 16.6, 16.9, 16.1, 17.2, 16.8, 15.8, 17, 17, 15.9, 17.3, 16.2, 16.4, 16.9, 16.9, 16.5, 16.9, 17, 16, 16.4, 17.4, 16.2, 16.7, 16.7, 16.7, 16.6, 17.2, 16.2, 16.6, 17.5, 15.9, 17, 16.2, 16.9, 16.5, 16.4, 16.8, 17.5, 15.8, 16.9, 17.3, 16, 16.4, 17.1, 17.2, 16.3, 16.1, 17.9, 15.7, 16.7, 16.5, 17, 16.4, 17.4, 16.2, 17.1, 15.9, 17.1, 16.5, 17.3, 16.5, 16.4, 16.9, 16.4, 16.2, 16.7, 17.2, 16.6, 16.1, 21.7, 12, 17.1, 16.3, 16.5, 16.6, 16.6, 17.5, 15.4, 17.3, 16.3, 16.4, 17.1, 16.3, 17.3, 16.6, 17, 17, 16, 16.4, 16.7, 16.9, 16.9, 15.9, 17, 16.7, 16.8, 16.5, 16.6, 16.6, 16.9, 16.8, 17, 16, 17.1, 16, 17.1, 16.8, 16.8, 16.5, 16.5, 17.1, 16.2, 16.3, 17.8, 15.9, 16.9, 16.2, 17.1, 16.4, 17.2, 16.4, 16.7, 17, 16.1, 16.7, 16.3, 17.2, 16.8, 16.1, 17.4, 16.2, 16.4, 17.2, 16.5, 17.1, 16.1, 16.5, 16.3, 17.2, 16.3, 16.9, 16.7, 16.5, 17, 16.4, 17.3, 15.7, 17.1, 16.3, 16.9, 16.8, 17.2, 17.1, 16.1, 16.5, 16.9, 16.2, 16.4, 17.3, 16.1, 16.6, 17.6, 16.5, 16.4, 16.5, 17, 16.1, 16.6, 17.3, 16.6, 16.5, 16.1, 17.5, 16.2, 17.1, 16.4, 16.7, 16.8, 16.7, 17, 15.7, 17.3, 16.6, 16.8, 16.5, 16.8, 17, 16.4, 16.6, 16.7, 16.8, 16.7, 16.6, 16.8]",59.0,58.0,61.0,5067.2,[],,,,,,,,,,,,,,,,,,,,,,,,,HRV,HRV_0287,2022-11-30 23:00:27
,wl-html-keyboard-response,2,15393,0.0-2.0-0.0,0.0,3.0,,,,,,,,6595.100000023842,0.0,0,,,,,,,,,,,,,,,,,,,,,,HRV,HRV_0287,2022-11-30 23:00:27
,wl-rdm,3,21831,0.0-3.0-0.0,0.0,4.0,,,,,,,[],,,,0.0,0.0,87.9,0.0,u,0.0,True,844.7000000476837,51.0,61.0,40.0,False,,3000.0,[],"[840, 525]",ColorTask_Demo,,,,,HRV,HRV_0287,2022-11-30 23:00:27
,wl-rdm,4,26597,0.0-3.0-1.0,0.0,5.0,,,,,,,[],,,,0.0,0.0,87.9,1.0,i,1.0,True,692.5,42.0,61.0,40.0,False,,2000.0,[],"[840, 525]",ColorTask_Demo,,,,,HRV,HRV_0287,2022-11-30 23:00:27
,wl-html-keyboard-response,5,35211,0.0-3.0-2.0,0.0,6.0,,,,,,,,6611.5,0.0,1,,,,,,,,,,,,,,,,,,,,,,HRV,HRV_0287,2022-11-30 23:00:27
,wl-html-keyboard-response,6,42745,0.0-4.0-0.0,0.0,7.0,,,,,,,,5532.400000035763,0.0,0,,,,,,,,,,,,,,,,,,,,,,HRV,HRV_0287,2022-11-30 23:00:27
,wl-html-keyboard-response,7,50122,0.0-5.0-0.0,0.0,8.0,,,,,,,,5374.199999988079,0.0,0,,,,,,,,,,,,,,,,,,,,,,HRV,HRV_0287,2022-11-30 23:00:27
,wl-rdm,8,52221,0.0-6.0-0.0,0.0,9.0,,,,,,,[],,,,,,50.0,1.0,i,1.0,True,790.5999999642372,48.0,61.0,40.0,False,,207.09104065296646,[],"[840, 525]",ColorTask,1.0,1.0,,,HRV,HRV_0287,2022-11-30 23:00:27
,wl-rdm,9,54170,0.0-6.1-0.1,0.0,10.0,,,,,,,[],,,,,,50.0,0.0,i,1.0,False,587.5,36.0,61.0,40.0,False,,279.452271359376,[],"[840, 525]",ColorTask,0.0,2.0,,,HRV,HRV_0287,2022-11-30 23:00:27
,wl-rdm,10,56204,0.0-6.2-0.2,0.0,11.0,,,,,,,[],,,,,,50.0,1.0,i,1.0,True,552.8000000119209,34.0,61.0,40.0,False,,396.4484916123828,[],"[840, 525]",ColorTask,1.0,3.0,,,HRV,HRV_0287,2022-11-30 23:00:27
,wl-rdm,11,58054,0.0-6.3-0.3,0.0,12.0,,,,,,,[],,,,,,87.9,1.0,i,1.0,True,489.9000000357628,30.0,61.0,40.0,False,,283.6299834835131,[],"[840, 525]",ColorTask,2.0,4.0,,,HRV,HRV_0287,2022-11-30 23:00:27
,wl-rdm,12,59853,0.0-6.4-0.4,0.0,13.0,,,,,,,[],,,,,,87.9,0.0,u,0.0,True,497.60000002384186,30.0,61.0,40.0,False,,219.6505237166122,[],"[840, 525]",ColorTask,3.0,5.0,,,HRV,HRV_0287,2022-11-30 23:00:27
,wl-rdm,13,61820,0.0-6.5-0.5,0.0,14.0,,,,,,,[],,,,,,87.9,0.0,u,0.0,True,510.5999999642372,31.0,61.0,40.0,False,,366.7258338260068,[],"[840, 525]",ColorTask,4.0,6.0,,,HRV,HRV_0287,2022-11-30 23:00:27
,wl-rdm,14,63903,0.0-6.6-0.6,0.0,15.0,,,,,,,[],,,,,,73.6,1.0,u,0.0,False,775.8999999165535,47.0,61.0,40.0,False,,218.21844418230467,[],"[840, 525]",ColorTask,3.0,7.0,,,HRV,HRV_0287,2022-11-30 23:00:27
,wl-rdm,15,65888,0.0-6.7-0.7,0.0,16.0,,,,,,,[],,,,,,73.6,0.0,u,0.0,True,606.8999999761581,37.0,61.0,40.0,False,,294.0235266590834,[],"[840, 525]",ColorTask,4.0,8.0,,,HRV,HRV_0287,2022-11-30 23:00:27
,wl-rdm,16,67854,0.0-6.8-0.8,0.0,17.0,,,,,,,[],,,,,,62.5,1.0,u,0.0,False,492.69999998807907,30.0,61.0,40.0,False,,397.0651084953898,[],"[840, 525]",ColorTask,3.0,9.0,,,HRV,HRV_0287,2022-11-30 23:00:27
,wl-rdm,17,69904,0.0-6.9-0.9,0.0,18.0,,,,,,,[],,,,,,73.6,0.0,u,0.0,True,755.8999999761581,46.0,61.0,40.0,False,,206.4650459771097,[],"[840, 525]",ColorTask,4.0,10.0,,,HRV,HRV_0287,2022-11-30 23:00:27
,wl-rdm,18,71937,0.0-6.10-0.10,0.0,19.0,,,,,,,[],,,,,,62.5,1.0,i,1.0,True,579.9999999403954,35.0,61.0,40.0,False,,390.13375962010076,[],"[840, 525]",ColorTask,5.0,11.0,,,HRV,HRV_0287,2022-11-30 23:00:27
,wl-rdm,19,74088,0.0-6.11-0.11,0.0,20.0,,,,,,,[],,,,,,73.6,0.0,u,0.0,True,690.1999999880791,42.0,61.0,40.0,False,,374.3338960549469,[],"[840, 525]",ColorTask,6.0,12.0,,,HRV,HRV_0287,2022-11-30 23:00:27
,wl-rdm,20,75920,0.0-6.12-0.12,0.0,21.0,,,,,,,[],,,,,,53.2,0.0,u,0.0,True,479.69999998807907,29.0,61.0,40.0,False,,280.45715707505366,[],"[840, 525]",ColorTask,7.0,13.0,,,HRV,HRV_0287,2022-11-30 23:00:27
,wl-rdm,21,78004,0.0-6.13-0.13,0.0,22.0,,,,,,,[],,,,,,87.9,0.0,u,0.0,True,710.6000000238419,43.0,61.0,40.0,False,,284.133368539584,[],"[840, 525]",ColorTask,8.0,14.0,,,HRV,HRV_0287,2022-11-30 23:00:27
,wl-rdm,22,79803,0.0-6.14-0.14,0.0,23.0,,,,,,,[],,,,,,87.9,1.0,i,1.0,True,496.80000001192093,30.0,61.0,40.0,False,,215.43289912780097,[],"[840, 525]",ColorTask,9.0,15.0,,,HRV,HRV_0287,2022-11-30 23:00:27
,wl-rdm,23,81586,0.0-6.15-0.15,0.0,24.0,,,,,,,[],,,,,,50.0,1.0,i,1.0,True,505.7000000476837,31.0,61.0,40.0,False,,213.9552978229029,[],"[840, 525]",ColorTask,10.0,16.0,,,HRV,HRV_0287,2022-11-30 23:00:27
,wl-rdm,24,83520,0.0-6.16-0.16,0.0,25.0,,,,,,,[],,,,,,62.5,0.0,u,0.0,True,523.9000000357628,32.0,61.0,40.0,False,,332.0316876999206,[],"[840, 525]",ColorTask,11.0,17.0,,,HRV,HRV_0287,2022-11-30 23:00:27
,wl-rdm,25,85504,0.0-6.17-0.17,0.0,26.0,,,,,,,[],,,,,,73.6,0.0,u,0.0,True,657.5,40.0,61.0,40.0,False,,244.60074993872541,[],"[840, 525]",ColorTask,12.0,18.0,,,HRV,HRV_0287,2022-11-30 23:00:27
,wl-rdm,26,87471,0.0-6.18-0.18,0.0,27.0,,,,,,,[],,,,,,50.0,1.0,i,1.0,True,640.8999999761581,39.0,61.0,40.0,False,,260.87856801885084,[],"[840, 525]",ColorTask,13.0,19.0,,,HRV,HRV_0287,2022-11-30 23:00:27
,wl-rdm,27,89491,0.0-6.19-0.19,0.0,28.0,,,,,,,[],,,,,,53.2,0.0,i,1.0,False,639.2000000476837,39.0,61.0,40.0,False,,298.55887035187556,[],"[840, 525]",ColorTask,12.0,20.0,,,HRV,HRV_0287,2022-11-30 23:00:27
,wl-rdm,28,91321,0.0-6.20-0.20,0.0,29.0,,,,,,,[],,,,,,56.4,0.0,u,0.0,True,553.0,33.0,61.0,40.0,False,,202.18297180083832,[],"[840, 525]",ColorTask,13.0,21.0,,,HRV,HRV_0287,2022-11-30 23:00:27
,wl-rdm,29,93237,0.0-6.21-0.21,0.0,30.0,,,,,,,[],,,,,,62.5,0.0,u,0.0,True,445.30000001192093,27.0,61.0,40.0,False,,387.6722620994463,[],"[840, 525]",ColorTask,14.0,22.0,,,HRV,HRV_0287,2022-11-30 23:00:27
,wl-rdm,30,95271,0.0-6.22-0.22,0.0,31.0,,,,,,,[],,,,,,56.4,1.0,i,1.0,True,613.6999999880791,37.0,61.0,40.0,False,,359.54145077778264,[],"[840, 525]",ColorTask,15.0,23.0,,,HRV,HRV_0287,2022-11-30 23:00:27
,wl-rdm,31,97303,0.0-6.23-0.23,0.0,32.0,,,,,,,[],,,,,,56.4,0.0,i,1.0,False,671.7000000476837,40.0,61.0,40.0,False,,291.0984779043582,[],"[840, 525]",ColorTask,14.0,24.0,,,HRV,HRV_0287,2022-11-30 23:00:27
,wl-rdm,32,99222,0.0-6.24-0.24,0.0,33.0,,,,,,,[],,,,,,73.6,0.0,u,0.0,True,576.6000000238419,35.0,61.0,40.0,False,,274.95790180119076,[],"[840, 525]",ColorTask,15.0,25.0,,,HRV,HRV_0287,2022-11-30 23:00:27
,wl-rdm,33,101221,0.0-6.25-0.25,0.0,34.0,,,,,,,[],,,,,,50.0,0.0,u,0.0,True,712.7000000476837,43.0,61.0,40.0,False,,204.97289296124836,[],"[840, 525]",ColorTask,16.0,26.0,,,HRV,HRV_0287,2022-11-30 23:00:27
,wl-rdm,34,103071,0.0-6.26-0.26,0.0,35.0,,,,,,,[],,,,,,73.6,1.0,i,1.0,True,553.8999999761581,34.0,61.0,40.0,False,,209.0790074497027,[],"[840, 525]",ColorTask,17.0,27.0,,,HRV,HRV_0287,2022-11-30 23:00:27
,wl-rdm,35,104788,0.0-6.27-0.27,0.0,36.0,,,,,,,[],,,,,,56.4,0.0,u,0.0,True,426.9000000357628,26.0,61.0,40.0,False,,225.73967101786323,[],"[840, 525]",ColorTask,18.0,28.0,,,HRV,HRV_0287,2022-11-30 23:00:27
,wl-rdm,36,106653,0.0-6.28-0.28,0.0,37.0,,,,,,,[],,,,,,53.2,1.0,u,0.0,False,474.80000001192093,29.0,61.0,40.0,False,,308.07170301146436,[],"[840, 525]",ColorTask,17.0,29.0,,,HRV,HRV_0287,2022-11-30 23:00:27
,wl-rdm,37,108436,0.0-6.29-0.29,0.0,38.0,,,,,,,[],,,,,,62.5,0.0,i,1.0,False,348.89999997615814,21.0,61.0,40.0,False,,362.7421011272376,[],"[840, 525]",ColorTask,16.0,30.0,,,HRV,HRV_0287,2022-11-30 23:00:27
,wl-rdm,38,110204,0.0-6.30-0.30,0.0,39.0,,,,,,,[],,,,,,50.0,1.0,u,0.0,False,338.4000000357628,21.0,61.0,40.0,False,,334.44114535581457,[],"[840, 525]",ColorTask,15.0,31.0,,,HRV,HRV_0287,2022-11-30 23:00:27
,wl-rdm,39,111937,0.0-6.31-0.31,0.0,40.0,,,,,,,[],,,,,,73.6,1.0,u,0.0,False,358.19999998807907,22.0,61.0,40.0,False,,300.231812602076,[],"[840, 525]",ColorTask,14.0,32.0,,,HRV,HRV_0287,2022-11-30 23:00:27
,wl-rdm,40,113804,0.0-6.32-0.32,0.0,41.0,,,,,,,[],,,,,,53.2,0.0,i,1.0,False,502.5,31.0,61.0,40.0,False,,284.07856178348595,[],"[840, 525]",ColorTask,13.0,33.0,,,HRV,HRV_0287,2022-11-30 23:00:27
,wl-rdm,41,115737,0.0-6.33-0.33,0.0,42.0,,,,,,,[],,,,,,53.2,0.0,u,0.0,True,505.10000002384186,31.0,61.0,40.0,False,,355.2566518300079,[],"[840, 525]",ColorTask,14.0,34.0,,,HRV,HRV_0287,2022-11-30 23:00:27
,wl-rdm,42,117837,0.0-6.34-0.34,0.0,43.0,,,,,,,[],,,,,,56.4,0.0,i,1.0,False,756.3999999761581,46.0,61.0,40.0,False,,267.6752864552475,[],"[840, 525]",ColorTask,13.0,35.0,,,HRV,HRV_0287,2022-11-30 23:00:27
,wl-rdm,43,119637,0.0-6.35-0.35,0.0,44.0,,,,,,,[],,,,,,50.0,1.0,u,0.0,False,439.19999998807907,27.0,61.0,40.0,False,,268.0741263367155,[],"[840, 525]",ColorTask,12.0,36.0,,,HRV,HRV_0287,2022-11-30 23:00:27
,wl-rdm,44,121504,0.0-6.36-0.36,0.0,45.0,,,,,,,[],,,,,,53.2,0.0,u,0.0,True,499.2000000476837,30.0,61.0,40.0,False,,291.6858454190897,[],"[840, 525]",ColorTask,13.0,37.0,,,HRV,HRV_0287,2022-11-30 23:00:27
,wl-rdm,45,123470,0.0-6.37-0.37,0.0,46.0,,,,,,,[],,,,,,87.9,1.0,i,1.0,True,612.5,37.0,61.0,40.0,False,,279.9413147181801,[],"[840, 525]",ColorTask,14.0,38.0,,,HRV,HRV_0287,2022-11-30 23:00:27
,wl-rdm,46,125420,0.0-6.38-0.38,0.0,47.0,,,,,,,[],,,,,,87.9,0.0,u,0.0,True,557.3999999761581,34.0,61.0,40.0,False,,299.9967796305709,[],"[840, 525]",ColorTask,15.0,39.0,,,HRV,HRV_0287,2022-11-30 23:00:27
,wl-rdm,47,127553,0.0-6.39-0.39,0.0,48.0,,,,,,,[],,,,,,62.5,0.0,i,1.0,False,737.6000000238419,45.0,61.0,40.0,False,,328.02330568939465,[],"[840, 525]",ColorTask,14.0,40.0,,,HRV,HRV_0287,2022-11-30 23:00:27
,wl-rdm,48,129404,0.0-6.40-0.40,0.0,49.0,,,,,,,[],,,,,,50.0,0.0,u,0.0,True,506.60000002384186,31.0,61.0,40.0,False,,263.4979189697458,[],"[840, 525]",ColorTask,15.0,41.0,,,HRV,HRV_0287,2022-11-30 23:00:27
,wl-rdm,49,131271,0.0-6.41-0.41,0.0,50.0,,,,,,,[],,,,,,50.0,0.0,i,1.0,False,539.7999999523163,33.0,61.0,40.0,False,,244.95603696568446,[],"[840, 525]",ColorTask,14.0,42.0,,,HRV,HRV_0287,2022-11-30 23:00:27
,wl-rdm,50,133154,0.0-6.42-0.42,0.0,51.0,,,,,,,[],,,,,,56.4,1.0,u,0.0,False,614.3000000119209,37.0,61.0,40.0,False,,214.23995117727114,[],"[840, 525]",ColorTask,13.0,43.0,,,HRV,HRV_0287,2022-11-30 23:00:27
,wl-rdm,51,135054,0.0-6.43-0.43,0.0,52.0,,,,,,,[],,,,,,53.2,1.0,i,1.0,True,521.3000000119209,32.0,61.0,40.0,False,,315.49828527093894,[],"[840, 525]",ColorTask,14.0,44.0,,,HRV,HRV_0287,2022-11-30 23:00:27
,wl-rdm,52,137137,0.0-6.44-0.44,0.0,53.0,,,,,,,[],,,,,,73.6,1.0,i,1.0,True,711.6999999880791,43.0,61.0,40.0,False,,310.6369973820009,[],"[840, 525]",ColorTask,15.0,45.0,,,HRV,HRV_0287,2022-11-30 23:00:27
,wl-rdm,53,139154,0.0-6.45-0.45,0.0,54.0,,,,,,,[],,,,,,56.4,0.0,i,1.0,False,573.0,35.0,61.0,40.0,False,,374.9449923689526,[],"[840, 525]",ColorTask,14.0,46.0,,,HRV,HRV_0287,2022-11-30 23:00:27
,wl-rdm,54,141137,0.0-6.46-0.46,0.0,55.0,,,,,,,[],,,,,,53.2,1.0,u,0.0,False,679.5,41.0,61.0,40.0,False,,229.6872725453276,[],"[840, 525]",ColorTask,13.0,47.0,,,HRV,HRV_0287,2022-11-30 23:00:27
,wl-rdm,55,143004,0.0-6.47-0.47,0.0,56.0,,,,,,,[],,,,,,53.2,1.0,u,0.0,False,490.60000002384186,30.0,61.0,40.0,False,,296.08177052082914,[],"[840, 525]",ColorTask,12.0,48.0,,,HRV,HRV_0287,2022-11-30 23:00:27
,wl-rdm,56,144854,0.0-6.48-0.48,0.0,57.0,,,,,,,[],,,,,,73.6,0.0,i,1.0,False,470.5999999642372,29.0,61.0,40.0,False,,315.6467765354411,[],"[840, 525]",ColorTask,11.0,49.0,,,HRV,HRV_0287,2022-11-30 23:00:27
,wl-rdm,57,146687,0.0-6.49-0.49,0.0,58.0,,,,,,,[],,,,,,62.5,0.0,u,0.0,True,537.1000000238419,33.0,61.0,40.0,False,,208.78931118039534,[],"[840, 525]",ColorTask,12.0,50.0,,,HRV,HRV_0287,2022-11-30 23:00:27
,wl-rdm,58,148470,0.0-6.50-0.50,0.0,59.0,,,,,,,[],,,,,,73.6,1.0,u,0.0,False,463.10000002384186,28.0,61.0,40.0,False,,251.33601949316034,[],"[840, 525]",ColorTask,11.0,51.0,,,HRV,HRV_0287,2022-11-30 23:00:27
,wl-rdm,59,150337,0.0-6.51-0.51,0.0,60.0,,,,,,,[],,,,,,87.9,0.0,u,0.0,True,571.1000000238419,35.0,61.0,40.0,False,,230.97481660255445,[],"[840, 525]",ColorTask,12.0,52.0,,,HRV,HRV_0287,2022-11-30 23:00:27
,wl-rdm,60,152355,0.0-6.52-0.52,0.0,61.0,,,,,,,[],,,,,,56.4,1.0,i,1.0,True,626.1999999880791,38.0,61.0,40.0,False,,317.2310761785638,[],"[840, 525]",ColorTask,13.0,53.0,,,HRV,HRV_0287,2022-11-30 23:00:27
,wl-rdm,61,154187,0.0-6.53-0.53,0.0,62.0,,,,,,,[],,,,,,56.4,0.0,u,0.0,True,507.80000001192093,31.0,61.0,40.0,False,,264.0628249595299,[],"[840, 525]",ColorTask,14.0,54.0,,,HRV,HRV_0287,2022-11-30 23:00:27
,wl-rdm,62,155971,0.0-6.54-0.54,0.0,63.0,,,,,,,[],,,,,,87.9,0.0,u,0.0,True,481.60000002384186,29.0,61.0,40.0,False,,244.53650032935,[],"[840, 525]",ColorTask,15.0,55.0,,,HRV,HRV_0287,2022-11-30 23:00:27
,wl-rdm,63,157837,0.0-6.55-0.55,0.0,64.0,,,,,,,[],,,,,,50.0,1.0,i,1.0,True,472.2000000476837,29.0,61.0,40.0,False,,322.34718706223293,[],"[840, 525]",ColorTask,16.0,56.0,,,HRV,HRV_0287,2022-11-30 23:00:27
,wl-rdm,64,159554,0.0-6.56-0.56,0.0,65.0,,,,,,,[],,,,,,53.2,0.0,u,0.0,True,429.10000002384186,26.0,61.0,40.0,False,,228.77264644213392,[],"[840, 525]",ColorTask,17.0,57.0,,,HRV,HRV_0287,2022-11-30 23:00:27
,wl-rdm,65,161304,0.0-6.57-0.57,0.0,66.0,,,,,,,[],,,,,,62.5,1.0,u,0.0,False,439.39999997615814,27.0,61.0,40.0,False,,257.4744699720992,[],"[840, 525]",ColorTask,16.0,58.0,,,HRV,HRV_0287,2022-11-30 23:00:27
,wl-rdm,66,163087,0.0-6.58-0.58,0.0,67.0,,,,,,,[],,,,,,87.9,0.0,u,0.0,True,483.19999998807907,29.0,61.0,40.0,False,,227.87174704345034,[],"[840, 525]",ColorTask,17.0,59.0,,,HRV,HRV_0287,2022-11-30 23:00:27
,wl-rdm,67,164803,0.0-6.59-0.59,0.0,68.0,,,,,,,[],,,,,,73.6,0.0,i,1.0,False,408.80000001192093,25.0,61.0,40.0,False,,226.5416984347517,[],"[840, 525]",ColorTask,16.0,60.0,,,HRV,HRV_0287,2022-11-30 23:00:27
,wl-rdm,68,166487,0.0-6.60-0.60,0.0,69.0,,,,,,,[],,,,,,53.2,0.0,u,0.0,True,371.19999998807907,23.0,61.0,40.0,False,,229.05263361347485,[],"[840, 525]",ColorTask,17.0,61.0,,,HRV,HRV_0287,2022-11-30 23:00:27
,wl-rdm,69,168271,0.0-6.61-0.61,0.0,70.0,,,,,,,[],,,,,,87.9,1.0,u,0.0,False,456.10000002384186,28.0,61.0,40.0,False,,248.90987876680046,[],"[840, 525]",ColorTask,16.0,62.0,,,HRV,HRV_0287,2022-11-30 23:00:27
,wl-rdm,70,170070,0.0-6.62-0.62,0.0,71.0,,,,,,,[],,,,,,87.9,0.0,u,0.0,True,488.9000000357628,30.0,61.0,40.0,False,,218.83882258668984,[],"[840, 525]",ColorTask,17.0,63.0,,,HRV,HRV_0287,2022-11-30 23:00:27
,wl-rdm,71,171854,0.0-6.63-0.63,0.0,72.0,,,,,,,[],,,,,,50.0,1.0,u,0.0,False,469.49999994039536,29.0,61.0,40.0,False,,237.82703515902654,[],"[840, 525]",ColorTask,16.0,64.0,,,HRV,HRV_0287,2022-11-30 23:00:27
,wl-rdm,72,173753,0.0-6.64-0.64,0.0,73.0,,,,,,,[],,,,,,62.5,1.0,u,0.0,False,519.1999999880791,32.0,61.0,40.0,False,,314.6530818280198,[],"[840, 525]",ColorTask,15.0,65.0,,,HRV,HRV_0287,2022-11-30 23:00:27
,wl-rdm,73,175587,0.0-6.65-0.65,0.0,74.0,,,,,,,[],,,,,,50.0,0.0,i,1.0,False,374.0,23.0,61.0,40.0,False,,387.82707582289186,[],"[840, 525]",ColorTask,14.0,66.0,,,HRV,HRV_0287,2022-11-30 23:00:27
,wl-rdm,74,177320,0.0-6.66-0.66,0.0,75.0,,,,,,,[],,,,,,87.9,1.0,u,0.0,False,396.2000000476837,24.0,61.0,40.0,False,,260.78207440595605,[],"[840, 525]",ColorTask,13.0,67.0,,,HRV,HRV_0287,2022-11-30 23:00:27
,wl-rdm,75,179038,0.0-6.67-0.67,0.0,76.0,,,,,,,[],,,,,,50.0,0.0,i,1.0,False,432.60000002384186,26.0,61.0,40.0,False,,218.10630474414032,[],"[840, 525]",ColorTask,12.0,68.0,,,HRV,HRV_0287,2022-11-30 23:00:27
,wl-rdm,76,180837,0.0-6.68-0.68,0.0,77.0,,,,,,,[],,,,,,56.4,0.0,u,0.0,True,504.50000005960464,31.0,61.0,40.0,False,,203.68113750756294,[],"[840, 525]",ColorTask,13.0,69.0,,,HRV,HRV_0287,2022-11-30 23:00:27
,wl-rdm,77,183003,0.0-6.69-0.69,0.0,78.0,,,,,,,[],,,,,,53.2,1.0,u,0.0,False,692.0000000596046,42.0,61.0,40.0,False,,388.20743029267067,[],"[840, 525]",ColorTask,12.0,70.0,,,HRV,HRV_0287,2022-11-30 23:00:27
,wl-rdm,78,184720,0.0-6.70-0.70,0.0,79.0,,,,,,,[],,,,,,50.0,1.0,i,1.0,True,446.30000001192093,27.0,61.0,40.0,False,,201.31870051818078,[],"[840, 525]",ColorTask,13.0,71.0,,,HRV,HRV_0287,2022-11-30 23:00:27
,wl-rdm,79,186704,0.0-6.71-0.71,0.0,80.0,,,,,,,[],,,,,,62.5,0.0,u,0.0,True,687.1999999880791,42.0,61.0,40.0,False,,220.8454208125166,[],"[840, 525]",ColorTask,14.0,72.0,,,HRV,HRV_0287,2022-11-30 23:00:27
,wl-rdm,80,188821,0.0-6.72-0.72,0.0,81.0,,,,,,,[],,,,,,53.2,1.0,i,1.0,True,785.5,48.0,61.0,40.0,False,,236.92733454301145,[],"[840, 525]",ColorTask,15.0,73.0,,,HRV,HRV_0287,2022-11-30 23:00:27
,wl-rdm,81,190787,0.0-6.73-0.73,0.0,82.0,,,,,,,[],,,,,,62.5,1.0,i,1.0,True,605.6999999880791,37.0,61.0,40.0,False,,298.0820196020535,[],"[840, 525]",ColorTask,16.0,74.0,,,HRV,HRV_0287,2022-11-30 23:00:27
,wl-rdm,82,192538,0.0-6.74-0.74,0.0,83.0,,,,,,,[],,,,,,56.4,1.0,i,1.0,True,341.5999999642372,21.0,61.0,40.0,False,,340.2043551269053,[],"[840, 525]",ColorTask,17.0,75.0,,,HRV,HRV_0287,2022-11-30 23:00:27
,wl-rdm,83,194287,0.0-6.75-0.75,0.0,84.0,,,,,,,[],,,,,,56.4,1.0,i,1.0,True,402.99999994039536,25.0,61.0,40.0,False,,250.18572402206283,[],"[840, 525]",ColorTask,18.0,76.0,,,HRV,HRV_0287,2022-11-30 23:00:27
,wl-rdm,84,196304,0.0-6.76-0.76,0.0,85.0,,,,,,,[],,,,,,73.6,1.0,i,1.0,True,578.5999999642372,35.0,61.0,40.0,False,,351.3885629047687,[],"[840, 525]",ColorTask,19.0,77.0,,,HRV,HRV_0287,2022-11-30 23:00:27
,wl-rdm,85,198137,0.0-6.77-0.77,0.0,86.0,,,,,,,[],,,,,,56.4,1.0,i,1.0,True,498.30000001192093,30.0,61.0,40.0,False,,275.4343095803617,[],"[840, 525]",ColorTask,20.0,78.0,,,HRV,HRV_0287,2022-11-30 23:00:27
,wl-rdm,86,199971,0.0-6.78-0.78,0.0,87.0,,,,,,,[],,,,,,50.0,0.0,i,1.0,False,468.0,29.0,61.0,40.0,False,,291.51134117835045,[],"[840, 525]",ColorTask,19.0,79.0,,,HRV,HRV_0287,2022-11-30 23:00:27
,wl-rdm,87,201772,0.0-6.79-0.79,0.0,88.0,,,,,,,[],,,,,,56.4,1.0,i,1.0,True,456.9000000357628,28.0,61.0,40.0,False,,278.2431339141389,[],"[840, 525]",ColorTask,20.0,80.0,,,HRV,HRV_0287,2022-11-30 23:00:27
,wl-rdm,88,203553,0.0-6.80-0.80,0.0,89.0,,,,,,,[],,,,,,73.6,0.0,u,0.0,True,448.7999999523163,27.0,61.0,40.0,False,,255.46376926945237,[],"[840, 525]",ColorTask,21.0,81.0,,,HRV,HRV_0287,2022-11-30 23:00:27
,wl-rdm,89,205321,0.0-6.81-0.81,0.0,90.0,,,,,,,[],,,,,,56.4,1.0,i,1.0,True,462.60000002384186,28.0,61.0,40.0,False,,252.03321090968382,[],"[840, 525]",ColorTask,22.0,82.0,,,HRV,HRV_0287,2022-11-30 23:00:27
,wl-rdm,90,207171,0.0-6.82-0.82,0.0,91.0,,,,,,,[],,,,,,62.5,0.0,i,1.0,False,540.3000000119209,33.0,61.0,40.0,False,,239.51916348281742,[],"[840, 525]",ColorTask,21.0,83.0,,,HRV,HRV_0287,2022-11-30 23:00:27
,wl-rdm,91,208988,0.0-6.83-0.83,0.0,92.0,,,,,,,[],,,,,,73.6,1.0,u,0.0,False,414.4000000357628,25.0,61.0,40.0,False,,337.1469338702045,[],"[840, 525]",ColorTask,20.0,84.0,,,HRV,HRV_0287,2022-11-30 23:00:27
,wl-rdm,92,210820,0.0-6.84-0.84,0.0,93.0,,,,,,,[],,,,,,73.6,1.0,u,0.0,False,527.7999999523163,32.0,61.0,40.0,False,,241.43458402341224,[],"[840, 525]",ColorTask,19.0,85.0,,,HRV,HRV_0287,2022-11-30 23:00:27
,wl-rdm,93,212720,0.0-6.85-0.85,0.0,94.0,,,,,,,[],,,,,,87.9,1.0,u,0.0,False,503.80000001192093,31.0,61.0,40.0,False,,312.39654787167785,[],"[840, 525]",ColorTask,18.0,86.0,,,HRV,HRV_0287,2022-11-30 23:00:27
,wl-rdm,94,214571,0.0-6.86-0.86,0.0,95.0,,,,,,,[],,,,,,62.5,1.0,u,0.0,False,490.9000000357628,30.0,61.0,40.0,False,,284.5583955034706,[],"[840, 525]",ColorTask,17.0,87.0,,,HRV,HRV_0287,2022-11-30 23:00:27
,wl-rdm,95,216420,0.0-6.87-0.87,0.0,96.0,,,,,,,[],,,,,,50.0,0.0,i,1.0,False,557.5,34.0,61.0,40.0,False,,213.67542383137732,[],"[840, 525]",ColorTask,16.0,88.0,,,HRV,HRV_0287,2022-11-30 23:00:27
,wl-rdm,96,218487,0.0-6.88-0.88,0.0,97.0,,,,,,,[],,,,,,53.2,1.0,i,1.0,True,621.2000000476837,38.0,61.0,40.0,False,,361.18363733716217,[],"[840, 525]",ColorTask,17.0,89.0,,,HRV,HRV_0287,2022-11-30 23:00:27
,wl-rdm,97,220370,0.0-6.89-0.89,0.0,98.0,,,,,,,[],,,,,,62.5,1.0,i,1.0,True,564.5,34.0,61.0,40.0,False,,247.86314670839965,[],"[840, 525]",ColorTask,18.0,90.0,,,HRV,HRV_0287,2022-11-30 23:00:27
,wl-rdm,98,222387,0.0-6.90-0.90,0.0,99.0,,,,,,,[],,,,,,62.5,1.0,u,0.0,False,599.1999999880791,36.0,61.0,40.0,False,,354.02701769462664,[],"[840, 525]",ColorTask,17.0,91.0,,,HRV,HRV_0287,2022-11-30 23:00:27
,wl-rdm,99,224371,0.0-6.91-0.91,0.0,100.0,,,,,,,[],,,,,,56.4,1.0,u,0.0,False,593.1999999880791,36.0,61.0,40.0,False,,304.66535921746015,[],"[840, 525]",ColorTask,16.0,92.0,,,HRV,HRV_0287,2022-11-30 23:00:27
,wl-rdm,100,226137,0.0-6.92-0.92,0.0,101.0,,,,,,,[],,,,,,53.2,0.0,i,1.0,False,400.2999999523163,24.0,61.0,40.0,False,,287.5377348662612,[],"[840, 525]",ColorTask,15.0,93.0,,,HRV,HRV_0287,2022-11-30 23:00:27
,wl-rdm,101,228204,0.0-6.93-0.93,0.0,102.0,,,,,,,[],,,,,,73.6,1.0,i,1.0,True,697.6999999880791,42.0,61.0,40.0,False,,311.3253138948745,[],"[840, 525]",ColorTask,16.0,94.0,,,HRV,HRV_0287,2022-11-30 23:00:27
,wl-rdm,102,230138,0.0-6.94-0.94,0.0,103.0,,,,,,,[],,,,,,73.6,0.0,i,1.0,False,626.3999999761581,38.0,61.0,40.0,False,,241.46622717021006,[],"[840, 525]",ColorTask,15.0,95.0,,,HRV,HRV_0287,2022-11-30 23:00:27
,wl-rdm,103,232038,0.0-6.95-0.95,0.0,104.0,,,,,,,[],,,,,,56.4,0.0,i,1.0,False,520.8000000119209,32.0,61.0,40.0,False,,307.24939155923283,[],"[840, 525]",ColorTask,14.0,96.0,,,HRV,HRV_0287,2022-11-30 23:00:27
,wl-rdm,104,234170,0.0-6.96-0.96,0.0,105.0,,,,,,,[],,,,,,53.2,1.0,i,1.0,True,660.8000000119209,40.0,61.0,40.0,False,,385.2672061534917,[],"[840, 525]",ColorTask,15.0,97.0,,,HRV,HRV_0287,2022-11-30 23:00:27
,wl-rdm,105,236337,0.0-6.97-0.97,0.0,106.0,,,,,,,[],,,,,,50.0,0.0,i,1.0,False,699.3000000119209,42.0,61.0,40.0,False,,399.7171435095782,[],"[840, 525]",ColorTask,14.0,98.0,,,HRV,HRV_0287,2022-11-30 23:00:27
,wl-rdm,106,238253,0.0-6.98-0.98,0.0,107.0,,,,,,,[],,,,,,62.5,0.0,i,1.0,False,571.4999999403954,35.0,61.0,40.0,False,,275.3870153050092,[],"[840, 525]",ColorTask,13.0,99.0,,,HRV,HRV_0287,2022-11-30 23:00:27
,wl-rdm,107,240420,0.0-6.99-0.99,0.0,108.0,,,,,,,[],,,,,,53.2,1.0,i,1.0,True,837.5,51.0,61.0,40.0,False,,246.50861986923942,[],"[840, 525]",ColorTask,14.0,100.0,,,HRV,HRV_0287,2022-11-30 23:00:27
,wl-rdm,108,242387,0.0-6.100-0.100,0.0,109.0,,,,,,,[],,,,,,87.9,1.0,i,1.0,True,570.9000000357628,35.0,61.0,40.0,False,,304.1403822827932,[],"[840, 525]",ColorTask,15.0,101.0,,,HRV,HRV_0287,2022-11-30 23:00:27
,wl-rdm,109,244287,0.0-6.101-0.101,0.0,110.0,,,,,,,[],,,,,,62.5,0.0,u,0.0,True,567.7000000476837,35.0,61.0,40.0,False,,259.1194370999924,[],"[840, 525]",ColorTask,16.0,102.0,,,HRV,HRV_0287,2022-11-30 23:00:27
,wl-rdm,110,246270,0.0-6.102-0.102,0.0,111.0,,,,,,,[],,,,,,53.2,0.0,i,1.0,False,696.5,42.0,61.0,40.0,False,,206.14125594316266,[],"[840, 525]",ColorTask,15.0,103.0,,,HRV,HRV_0287,2022-11-30 23:00:27
,wl-rdm,111,248204,0.0-6.103-0.103,0.0,112.0,,,,,,,[],,,,,,87.9,1.0,i,1.0,True,572.1999999880791,35.0,61.0,40.0,False,,268.23532594606206,[],"[840, 525]",ColorTask,16.0,104.0,,,HRV,HRV_0287,2022-11-30 23:00:27
,wl-rdm,112,250120,0.0-6.104-0.104,0.0,113.0,,,,,,,[],,,,,,87.9,1.0,i,1.0,True,532.8000000119209,32.0,61.0,40.0,False,,322.2519280934922,[],"[840, 525]",ColorTask,17.0,105.0,,,HRV,HRV_0287,2022-11-30 23:00:27
,wl-rdm,113,252054,0.0-6.105-0.105,0.0,114.0,,,,,,,[],,,,,,56.4,0.0,i,1.0,False,556.3999999761581,34.0,61.0,40.0,False,,292.84389014926967,[],"[840, 525]",ColorTask,16.0,106.0,,,HRV,HRV_0287,2022-11-30 23:00:27
,wl-rdm,114,253970,0.0-6.106-0.106,0.0,115.0,,,,,,,[],,,,,,62.5,1.0,i,1.0,True,557.6999999880791,34.0,61.0,40.0,False,,290.1011803533337,[],"[840, 525]",ColorTask,17.0,107.0,,,HRV,HRV_0287,2022-11-30 23:00:27
,wl-rdm,115,255887,0.0-6.107-0.107,0.0,116.0,,,,,,,[],,,,,,87.9,0.0,u,0.0,True,572.3000000119209,35.0,61.0,40.0,False,,277.8936736567945,[],"[840, 525]",ColorTask,18.0,108.0,,,HRV,HRV_0287,2022-11-30 23:00:27
,wl-html-keyboard-response,116,263454,0.0-7.0-0.0,1.0,117.0,,,,,,,,5562.900000035763,1.0,0,,,,,,,,,,,,,,,,,,,,,,HRV,HRV_0287,2022-11-30 23:00:27
,wl-rdm,117,265268,0.0-8.0-0.0,1.0,118.0,,,,,,,[],,,,,,56.4,1.0,i,1.0,True,513.5999999642372,32.0,61.0,40.0,False,,201.07950155889787,[],"[840, 525]",ColorTask,19.0,1.0,,,HRV,HRV_0287,2022-11-30 23:00:27
,wl-rdm,118,267184,0.0-8.1-0.1,1.0,119.0,,,,,,,[],,,,,,50.0,1.0,i,1.0,True,474.4000000357628,29.0,61.0,40.0,False,,356.84117570815965,[],"[840, 525]",ColorTask,20.0,2.0,,,HRV,HRV_0287,2022-11-30 23:00:27
,wl-rdm,119,268967,0.0-8.2-0.2,1.0,120.0,,,,,,,[],,,,,,56.4,1.0,i,1.0,True,438.60000002384186,27.0,61.0,40.0,False,,258.0746363591107,[],"[840, 525]",ColorTask,21.0,3.0,,,HRV,HRV_0287,2022-11-30 23:00:27
,wl-rdm,120,270850,0.0-8.3-0.3,1.0,121.0,,,,,,,[],,,,,,50.0,0.0,i,1.0,False,591.0,36.0,61.0,40.0,False,,220.96985462427415,[],"[840, 525]",ColorTask,20.0,4.0,,,HRV,HRV_0287,2022-11-30 23:00:27
,wl-rdm,121,272684,0.0-8.4-0.4,1.0,122.0,,,,,,,[],,,,,,50.0,0.0,i,1.0,False,424.49999994039536,26.0,61.0,40.0,False,,325.48445539697525,[],"[840, 525]",ColorTask,19.0,5.0,,,HRV,HRV_0287,2022-11-30 23:00:27
,wl-rdm,122,274600,0.0-8.5-0.5,1.0,123.0,,,,,,,[],,,,,,56.4,0.0,i,1.0,False,481.0,29.0,61.0,40.0,False,,350.0669118488679,[],"[840, 525]",ColorTask,18.0,6.0,,,HRV,HRV_0287,2022-11-30 23:00:27
,wl-rdm,123,276484,0.0-8.6-0.6,1.0,124.0,,,,,,,[],,,,,,87.9,1.0,i,1.0,True,528.1999999880791,32.0,61.0,40.0,False,,281.20531311619845,[],"[840, 525]",ColorTask,19.0,7.0,,,HRV,HRV_0287,2022-11-30 23:00:27
,wl-rdm,124,278300,0.0-8.7-0.7,1.0,125.0,,,,,,,[],,,,,,73.6,0.0,i,1.0,False,486.9000000357628,30.0,61.0,40.0,False,,237.61707803025914,[],"[840, 525]",ColorTask,18.0,8.0,,,HRV,HRV_0287,2022-11-30 23:00:27
,wl-rdm,125,280282,0.0-8.8-0.8,1.0,126.0,,,,,,,[],,,,,,62.5,0.0,u,0.0,True,516.8999999761581,31.0,61.0,40.0,False,,398.3475798579433,[],"[840, 525]",ColorTask,19.0,9.0,,,HRV,HRV_0287,2022-11-30 23:00:27
,wl-rdm,126,282034,0.0-8.9-0.9,1.0,127.0,,,,,,,[],,,,,,53.2,0.0,i,1.0,False,430.9000000357628,26.0,61.0,40.0,False,,248.91813401419677,[],"[840, 525]",ColorTask,18.0,10.0,,,HRV,HRV_0287,2022-11-30 23:00:27
,wl-rdm,127,283900,0.0-8.10-0.10,1.0,128.0,,,,,,,[],,,,,,62.5,0.0,u,0.0,True,420.0999999642372,26.0,61.0,40.0,False,,375.29229238008134,[],"[840, 525]",ColorTask,19.0,11.0,,,HRV,HRV_0287,2022-11-30 23:00:27
,wl-rdm,128,285741,0.0-8.11-0.11,1.0,129.0,,,,,,,[],,,,,,53.2,0.0,u,0.0,True,528.2000000476837,32.0,61.0,40.0,False,,248.63649912654125,[],"[840, 525]",ColorTask,20.0,12.0,,,HRV,HRV_0287,2022-11-30 23:00:27
,wl-rdm,129,287575,0.0-8.12-0.12,1.0,130.0,,,,,,,[],,,,,,53.2,1.0,i,1.0,True,439.4000000357628,27.0,61.0,40.0,False,,300.8281851500358,[],"[840, 525]",ColorTask,21.0,13.0,,,HRV,HRV_0287,2022-11-30 23:00:27
,wl-rdm,130,289558,0.0-8.13-0.13,1.0,131.0,,,,,,,[],,,,,,87.9,0.0,u,0.0,True,576.6999999880791,35.0,61.0,40.0,False,,345.9536905964132,[],"[840, 525]",ColorTask,22.0,14.0,,,HRV,HRV_0287,2022-11-30 23:00:27
,wl-rdm,131,291474,0.0-8.14-0.14,1.0,132.0,,,,,,,[],,,,,,62.5,0.0,i,1.0,False,509.30000001192093,31.0,61.0,40.0,False,,328.2638575195409,[],"[840, 525]",ColorTask,21.0,15.0,,,HRV,HRV_0287,2022-11-30 23:00:27
,wl-rdm,132,293358,0.0-8.15-0.15,1.0,133.0,,,,,,,[],,,,,,53.2,1.0,i,1.0,True,611.7000000476837,37.0,61.0,40.0,False,,208.55686193772564,[],"[840, 525]",ColorTask,22.0,16.0,,,HRV,HRV_0287,2022-11-30 23:00:27
,wl-rdm,133,295208,0.0-8.16-0.16,1.0,134.0,,,,,,,[],,,,,,50.0,1.0,u,0.0,False,525.3000000119209,32.0,61.0,40.0,False,,236.16189754412235,[],"[840, 525]",ColorTask,21.0,17.0,,,HRV,HRV_0287,2022-11-30 23:00:27
,wl-rdm,134,296992,0.0-8.17-0.17,1.0,135.0,,,,,,,[],,,,,,73.6,1.0,i,1.0,True,398.30000001192093,24.0,61.0,40.0,False,,325.00791045578603,[],"[840, 525]",ColorTask,22.0,18.0,,,HRV,HRV_0287,2022-11-30 23:00:27
,wl-rdm,135,298875,0.0-8.18-0.18,1.0,136.0,,,,,,,[],,,,,,50.0,0.0,u,0.0,True,573.3000000119209,35.0,61.0,40.0,False,,249.01065095728123,[],"[840, 525]",ColorTask,23.0,19.0,,,HRV,HRV_0287,2022-11-30 23:00:27
,wl-rdm,136,300658,0.0-8.19-0.19,1.0,137.0,,,,,,,[],,,,,,56.4,1.0,u,0.0,False,410.80000001192093,25.0,61.0,40.0,False,,305.27786564393773,[],"[840, 525]",ColorTask,22.0,20.0,,,HRV,HRV_0287,2022-11-30 23:00:27
,wl-rdm,137,302741,0.0-8.20-0.20,1.0,138.0,,,,,,,[],,,,,,50.0,1.0,i,1.0,True,777.0,47.0,61.0,40.0,False,,202.24007894086077,[],"[840, 525]",ColorTask,23.0,21.0,,,HRV,HRV_0287,2022-11-30 23:00:27
,wl-rdm,138,304542,0.0-8.21-0.21,1.0,139.0,,,,,,,[],,,,,,50.0,0.0,u,0.0,True,522.7999999523163,32.0,61.0,40.0,False,,215.77727567456583,[],"[840, 525]",ColorTask,24.0,22.0,,,HRV,HRV_0287,2022-11-30 23:00:27
,wl-rdm,139,306376,0.0-8.22-0.22,1.0,140.0,,,,,,,[],,,,,,73.6,1.0,u,0.0,False,548.9999999403954,33.0,61.0,40.0,False,,218.23397675024802,[],"[840, 525]",ColorTask,23.0,23.0,,,HRV,HRV_0287,2022-11-30 23:00:27
,wl-rdm,140,308208,0.0-8.23-0.23,1.0,141.0,,,,,,,[],,,,,,62.5,1.0,i,1.0,True,397.4000000357628,24.0,61.0,40.0,False,,375.7294961232493,[],"[840, 525]",ColorTask,24.0,24.0,,,HRV,HRV_0287,2022-11-30 23:00:27
,wl-rdm,141,310141,0.0-8.24-0.24,1.0,142.0,,,,,,,[],,,,,,56.4,0.0,i,1.0,False,637.7000000476837,39.0,61.0,40.0,False,,230.7711050036073,[],"[840, 525]",ColorTask,23.0,25.0,,,HRV,HRV_0287,2022-11-30 23:00:27
,wl-rdm,142,311908,0.0-8.25-0.25,1.0,143.0,,,,,,,[],,,,,,73.6,1.0,u,0.0,False,388.80000001192093,24.0,61.0,40.0,False,,285.41123149109484,[],"[840, 525]",ColorTask,22.0,26.0,,,HRV,HRV_0287,2022-11-30 23:00:27
,wl-rdm,143,313508,0.0-8.26-0.26,1.0,144.0,,,,,,,[],,,,,,56.4,0.0,i,1.0,False,329.30000001192093,20.0,61.0,40.0,False,,204.62836328372623,[],"[840, 525]",ColorTask,21.0,27.0,,,HRV,HRV_0287,2022-11-30 23:00:27
,wl-rdm,144,315391,0.0-8.27-0.27,1.0,145.0,,,,,,,[],,,,,,73.6,0.0,u,0.0,True,590.3000000119209,36.0,61.0,40.0,False,,213.70525168549804,[],"[840, 525]",ColorTask,22.0,28.0,,,HRV,HRV_0287,2022-11-30 23:00:27
,wl-rdm,145,317458,0.0-8.28-0.28,1.0,146.0,,,,,,,[],,,,,,62.5,0.0,u,0.0,True,728.4000000357628,44.0,61.0,40.0,False,,273.31495198196046,[],"[840, 525]",ColorTask,23.0,29.0,,,HRV,HRV_0287,2022-11-30 23:00:27
,wl-rdm,146,319258,0.0-8.29-0.29,1.0,147.0,,,,,,,[],,,,,,87.9,0.0,u,0.0,True,423.4000000357628,26.0,61.0,40.0,False,,299.09646974148177,[],"[840, 525]",ColorTask,24.0,30.0,,,HRV,HRV_0287,2022-11-30 23:00:27
,wl-rdm,147,321075,0.0-8.30-0.30,1.0,148.0,,,,,,,[],,,,,,53.2,1.0,u,0.0,False,494.80000001192093,30.0,61.0,40.0,False,,249.8664037834988,[],"[840, 525]",ColorTask,23.0,31.0,,,HRV,HRV_0287,2022-11-30 23:00:27
,wl-rdm,148,322991,0.0-8.31-0.31,1.0,149.0,,,,,,,[],,,,,,62.5,1.0,i,1.0,True,494.7999999523163,30.0,61.0,40.0,False,,349.1093435975377,[],"[840, 525]",ColorTask,24.0,32.0,,,HRV,HRV_0287,2022-11-30 23:00:27
,wl-rdm,149,324808,0.0-8.32-0.32,1.0,150.0,,,,,,,[],,,,,,87.9,1.0,i,1.0,True,462.9000000357628,28.0,61.0,40.0,False,,272.9540070646282,[],"[840, 525]",ColorTask,25.0,33.0,,,HRV,HRV_0287,2022-11-30 23:00:27
,wl-rdm,150,326675,0.0-8.33-0.33,1.0,151.0,,,,,,,[],,,,,,56.4,1.0,i,1.0,True,451.2999999523163,28.0,61.0,40.0,False,,319.15693701258124,[],"[840, 525]",ColorTask,26.0,34.0,,,HRV,HRV_0287,2022-11-30 23:00:27
,wl-rdm,151,328458,0.0-8.34-0.34,1.0,152.0,,,,,,,[],,,,,,56.4,0.0,u,0.0,True,503.3000000715256,31.0,61.0,40.0,False,,209.762529709523,[],"[840, 525]",ColorTask,27.0,35.0,,,HRV,HRV_0287,2022-11-30 23:00:27
,wl-rdm,152,330342,0.0-8.35-0.35,1.0,153.0,,,,,,,[],,,,,,73.6,1.0,i,1.0,True,569.0999999642372,35.0,61.0,40.0,False,,233.24170598921728,[],"[840, 525]",ColorTask,28.0,36.0,,,HRV,HRV_0287,2022-11-30 23:00:27
,wl-rdm,153,332343,0.0-8.36-0.36,1.0,154.0,,,,,,,[],,,,,,62.5,1.0,i,1.0,True,680.3000000119209,41.0,61.0,40.0,False,,266.10116812098283,[],"[840, 525]",ColorTask,29.0,37.0,,,HRV,HRV_0287,2022-11-30 23:00:27
,wl-rdm,154,334208,0.0-8.37-0.37,1.0,155.0,,,,,,,[],,,,,,62.5,1.0,i,1.0,True,492.7000000476837,30.0,61.0,40.0,False,,294.6429741300857,[],"[840, 525]",ColorTask,30.0,38.0,,,HRV,HRV_0287,2022-11-30 23:00:27
,wl-rdm,155,336475,0.0-8.38-0.38,1.0,156.0,,,,,,,[],,,,,,53.2,1.0,i,1.0,True,784.0999999642372,48.0,61.0,40.0,False,,392.8691378977345,[],"[840, 525]",ColorTask,31.0,39.0,,,HRV,HRV_0287,2022-11-30 23:00:27
,wl-rdm,156,338558,0.0-8.39-0.39,1.0,157.0,,,,,,,[],,,,,,56.4,0.0,u,0.0,True,678.0999999642372,41.0,61.0,40.0,False,,332.98928632570323,[],"[840, 525]",ColorTask,32.0,40.0,,,HRV,HRV_0287,2022-11-30 23:00:27
,wl-rdm,157,340507,0.0-8.40-0.40,1.0,158.0,,,,,,,[],,,,,,56.4,1.0,i,1.0,True,479.10000002384186,29.0,61.0,40.0,False,,385.0097851591745,[],"[840, 525]",ColorTask,33.0,41.0,,,HRV,HRV_0287,2022-11-30 23:00:27
,wl-rdm,158,342359,0.0-8.41-0.41,1.0,159.0,,,,,,,[],,,,,,87.9,0.0,u,0.0,True,579.5999999642372,35.0,61.0,40.0,False,,216.58992428653917,[],"[840, 525]",ColorTask,34.0,42.0,,,HRV,HRV_0287,2022-11-30 23:00:27
,wl-rdm,159,344191,0.0-8.42-0.42,1.0,160.0,,,,,,,[],,,,,,50.0,1.0,u,0.0,False,545.1999999880791,33.0,61.0,40.0,False,,232.41886819487763,[],"[840, 525]",ColorTask,33.0,43.0,,,HRV,HRV_0287,2022-11-30 23:00:27
,wl-rdm,160,346176,0.0-8.43-0.43,1.0,161.0,,,,,,,[],,,,,,56.4,1.0,i,1.0,True,538.5000000596046,33.0,61.0,40.0,False,,369.64983004886557,[],"[840, 525]",ColorTask,34.0,44.0,,,HRV,HRV_0287,2022-11-30 23:00:27
,wl-rdm,161,348025,0.0-8.44-0.44,1.0,162.0,,,,,,,[],,,,,,62.5,0.0,i,1.0,False,528.4000000357628,32.0,61.0,40.0,False,,247.24308095982593,[],"[840, 525]",ColorTask,33.0,45.0,,,HRV,HRV_0287,2022-11-30 23:00:27
,wl-rdm,162,349675,0.0-8.45-0.45,1.0,163.0,,,,,,,[],,,,,,53.2,0.0,u,0.0,True,305.7999999523163,19.0,61.0,40.0,False,,282.6725194241614,[],"[840, 525]",ColorTask,34.0,46.0,,,HRV,HRV_0287,2022-11-30 23:00:27
,wl-rdm,163,351625,0.0-8.46-0.46,1.0,164.0,,,,,,,[],,,,,,73.6,1.0,i,1.0,True,666.0,40.0,61.0,40.0,False,,218.81668465505612,[],"[840, 525]",ColorTask,35.0,47.0,,,HRV,HRV_0287,2022-11-30 23:00:27
,wl-rdm,164,353558,0.0-8.47-0.47,1.0,165.0,,,,,,,[],,,,,,87.9,0.0,i,1.0,False,585.0,36.0,61.0,40.0,False,,272.3908181855228,[],"[840, 525]",ColorTask,34.0,48.0,,,HRV,HRV_0287,2022-11-30 23:00:27
,wl-rdm,165,354625,0.0-8.48-0.48,1.0,165.0,,,,,,,[],,,,,,87.9,0.0,u,,,5.099999964237213,0.0,61.0,40.0,True,too_early ,383.18622495824354,[],"[840, 525]",ColorTask,33.0,49.0,,,HRV,HRV_0287,2022-11-30 23:00:27
,wl-rdm,166,356492,0.0-8.49-0.49,1.0,166.0,,,,,,,[],,,,,,50.0,0.0,u,0.0,True,449.4000000357628,27.0,61.0,40.0,False,,344.8701573951756,[],"[840, 525]",ColorTask,34.0,50.0,,,HRV,HRV_0287,2022-11-30 23:00:27
,wl-rdm,167,358525,0.0-8.50-0.50,1.0,167.0,,,,,,,[],,,,,,53.2,0.0,i,1.0,False,599.1000000238419,36.0,61.0,40.0,False,,360.01558924082303,[],"[840, 525]",ColorTask,33.0,51.0,,,HRV,HRV_0287,2022-11-30 23:00:27
,wl-rdm,168,360375,0.0-8.51-0.51,1.0,168.0,,,,,,,[],,,,,,56.4,0.0,u,0.0,True,475.19999998807907,29.0,61.0,40.0,False,,297.03980740999816,[],"[840, 525]",ColorTask,34.0,52.0,,,HRV,HRV_0287,2022-11-30 23:00:27
,wl-rdm,169,362425,0.0-8.52-0.52,1.0,169.0,,,,,,,[],,,,,,73.6,1.0,i,1.0,True,698.3000000119209,42.0,61.0,40.0,False,,293.6573590655638,[],"[840, 525]",ColorTask,35.0,53.0,,,HRV,HRV_0287,2022-11-30 23:00:27
,wl-rdm,170,364375,0.0-8.53-0.53,1.0,170.0,,,,,,,[],,,,,,50.0,1.0,u,0.0,False,621.3999999761581,38.0,61.0,40.0,False,,244.4006525964693,[],"[840, 525]",ColorTask,34.0,54.0,,,HRV,HRV_0287,2022-11-30 23:00:27
,wl-rdm,171,366258,0.0-8.54-0.54,1.0,171.0,,,,,,,[],,,,,,53.2,0.0,i,1.0,False,547.4000000357628,33.0,61.0,40.0,False,,257.3914314838941,[],"[840, 525]",ColorTask,33.0,55.0,,,HRV,HRV_0287,2022-11-30 23:00:27
,wl-rdm,172,368109,0.0-8.55-0.55,1.0,172.0,,,,,,,[],,,,,,50.0,0.0,u,0.0,True,565.8000000715256,34.0,61.0,40.0,False,,227.74436528121086,[],"[840, 525]",ColorTask,34.0,56.0,,,HRV,HRV_0287,2022-11-30 23:00:27
,wl-rdm,173,370325,0.0-8.56-0.56,1.0,173.0,,,,,,,[],,,,,,62.5,1.0,u,0.0,False,772.6000000238419,47.0,61.0,40.0,False,,352.3033545464559,[],"[840, 525]",ColorTask,33.0,57.0,,,HRV,HRV_0287,2022-11-30 23:00:27
,wl-rdm,174,372408,0.0-8.57-0.57,1.0,174.0,,,,,,,[],,,,,,62.5,1.0,u,0.0,False,620.9999999403954,38.0,61.0,40.0,False,,371.9426657836375,[],"[840, 525]",ColorTask,32.0,58.0,,,HRV,HRV_0287,2022-11-30 23:00:27
,wl-rdm,175,374359,0.0-8.58-0.58,1.0,175.0,,,,,,,[],,,,,,62.5,0.0,u,0.0,True,597.5,36.0,61.0,40.0,False,,276.18392935289984,[],"[840, 525]",ColorTask,33.0,59.0,,,HRV,HRV_0287,2022-11-30 23:00:27
,wl-rdm,176,376391,0.0-8.59-0.59,1.0,176.0,,,,,,,[],,,,,,56.4,1.0,i,1.0,True,572.5,35.0,61.0,40.0,False,,369.9678790058306,[],"[840, 525]",ColorTask,34.0,60.0,,,HRV,HRV_0287,2022-11-30 23:00:27
,wl-rdm,177,378258,0.0-8.60-0.60,1.0,177.0,,,,,,,[],,,,,,87.9,1.0,i,1.0,True,593.6000000238419,36.0,61.0,40.0,False,,214.7645929974606,[],"[840, 525]",ColorTask,35.0,61.0,,,HRV,HRV_0287,2022-11-30 23:00:27
,wl-rdm,178,380092,0.0-8.61-0.61,1.0,178.0,,,,,,,[],,,,,,50.0,0.0,u,0.0,True,497.0999999642372,30.0,61.0,40.0,False,,263.56252220049714,[],"[840, 525]",ColorTask,36.0,62.0,,,HRV,HRV_0287,2022-11-30 23:00:27
,wl-rdm,179,382025,0.0-8.62-0.62,1.0,179.0,,,,,,,[],,,,,,53.2,1.0,u,0.0,False,505.9000000357628,31.0,61.0,40.0,False,,341.4394730696703,[],"[840, 525]",ColorTask,35.0,63.0,,,HRV,HRV_0287,2022-11-30 23:00:27
,wl-rdm,180,383808,0.0-8.63-0.63,1.0,180.0,,,,,,,[],,,,,,53.2,0.0,i,1.0,False,468.7999999523163,29.0,61.0,40.0,False,,248.74092525985594,[],"[840, 525]",ColorTask,34.0,64.0,,,HRV,HRV_0287,2022-11-30 23:00:27
,wl-rdm,181,385959,0.0-8.64-0.64,1.0,181.0,,,,,,,[],,,,,,50.0,0.0,i,1.0,False,668.8999999165535,41.0,61.0,40.0,False,,399.38316865404715,[],"[840, 525]",ColorTask,33.0,65.0,,,HRV,HRV_0287,2022-11-30 23:00:27
,wl-rdm,182,387892,0.0-8.65-0.65,1.0,182.0,,,,,,,[],,,,,,53.2,0.0,i,1.0,False,557.5,34.0,61.0,40.0,False,,297.87196104785244,[],"[840, 525]",ColorTask,32.0,66.0,,,HRV,HRV_0287,2022-11-30 23:00:27
,wl-rdm,183,389758,0.0-8.66-0.66,1.0,183.0,,,,,,,[],,,,,,87.9,0.0,u,0.0,True,419.5,26.0,61.0,40.0,False,,352.5546740188703,[],"[840, 525]",ColorTask,33.0,67.0,,,HRV,HRV_0287,2022-11-30 23:00:27
,wl-rdm,184,391710,0.0-8.67-0.67,1.0,184.0,,,,,,,[],,,,,,73.6,1.0,i,1.0,True,556.4000000357628,34.0,61.0,40.0,False,,319.51494807043406,[],"[840, 525]",ColorTask,34.0,68.0,,,HRV,HRV_0287,2022-11-30 23:00:27
,wl-rdm,185,393626,0.0-8.68-0.68,1.0,185.0,,,,,,,[],,,,,,62.5,1.0,u,0.0,False,588.0999999642372,36.0,61.0,40.0,False,,255.08238032334128,[],"[840, 525]",ColorTask,33.0,69.0,,,HRV,HRV_0287,2022-11-30 23:00:27
,wl-rdm,186,395658,0.0-8.69-0.69,1.0,186.0,,,,,,,[],,,,,,53.2,1.0,i,1.0,True,656.8999999761581,37.0,61.0,40.0,False,,287.84126608448406,[],"[840, 525]",ColorTask,34.0,70.0,,,HRV,HRV_0287,2022-11-30 23:00:27
,wl-rdm,187,397393,0.0-8.70-0.70,1.0,187.0,,,,,,,[],,,,,,87.9,1.0,i,1.0,True,443.89999997615814,27.0,61.0,40.0,False,,222.59769908839283,[],"[840, 525]",ColorTask,35.0,71.0,,,HRV,HRV_0287,2022-11-30 23:00:27
,wl-rdm,188,399191,0.0-8.71-0.71,1.0,188.0,,,,,,,[],,,,,,50.0,1.0,i,1.0,True,445.19999998807907,27.0,61.0,40.0,False,,289.37551758741984,[],"[840, 525]",ColorTask,36.0,72.0,,,HRV,HRV_0287,2022-11-30 23:00:27
,wl-rdm,189,401158,0.0-8.72-0.72,1.0,189.0,,,,,,,[],,,,,,73.6,0.0,u,0.0,True,520.3999999761581,31.0,61.0,40.0,False,,378.1801701973826,[],"[840, 525]",ColorTask,37.0,73.0,,,HRV,HRV_0287,2022-11-30 23:00:27
,wl-rdm,190,402958,0.0-8.73-0.73,1.0,190.0,,,,,,,[],,,,,,73.6,1.0,u,0.0,False,524.6000000238419,32.0,61.0,40.0,False,,205.1362037006303,[],"[840, 525]",ColorTask,36.0,74.0,,,HRV,HRV_0287,2022-11-30 23:00:27
,wl-rdm,191,404976,0.0-8.74-0.74,1.0,191.0,,,,,,,[],,,,,,53.2,1.0,u,0.0,False,696.3000000119209,41.0,61.0,40.0,False,,259.8767394789653,[],"[840, 525]",ColorTask,35.0,75.0,,,HRV,HRV_0287,2022-11-30 23:00:27
,wl-rdm,192,406776,0.0-8.75-0.75,1.0,192.0,,,,,,,[],,,,,,56.4,0.0,i,1.0,False,512.0,31.0,61.0,40.0,False,,212.59994826510749,[],"[840, 525]",ColorTask,34.0,76.0,,,HRV,HRV_0287,2022-11-30 23:00:27
,wl-rdm,193,409125,0.0-8.76-0.76,1.0,193.0,,,,,,,[],,,,,,53.2,0.0,i,1.0,False,942.1000000238419,57.0,61.0,40.0,False,,341.32162408396186,[],"[840, 525]",ColorTask,33.0,77.0,,,HRV,HRV_0287,2022-11-30 23:00:27
,wl-rdm,194,411042,0.0-8.77-0.77,1.0,194.0,,,,,,,[],,,,,,50.0,1.0,u,0.0,False,608.2000000476837,37.0,61.0,40.0,False,,242.37418779293688,[],"[840, 525]",ColorTask,32.0,78.0,,,HRV,HRV_0287,2022-11-30 23:00:27
,wl-rdm,195,412893,0.0-8.78-0.78,1.0,195.0,,,,,,,[],,,,,,53.2,0.0,i,1.0,False,550.0999999642372,33.0,61.0,40.0,False,,221.50392630943875,[],"[840, 525]",ColorTask,31.0,79.0,,,HRV,HRV_0287,2022-11-30 23:00:27
,wl-rdm,196,414808,0.0-8.79-0.79,1.0,196.0,,,,,,,[],,,,,,62.5,1.0,u,0.0,False,544.3999999165535,33.0,61.0,40.0,False,,308.57875574834804,[],"[840, 525]",ColorTask,30.0,80.0,,,HRV,HRV_0287,2022-11-30 23:00:27
,wl-rdm,197,416708,0.0-8.80-0.80,1.0,197.0,,,,,,,[],,,,,,50.0,1.0,i,1.0,True,613.9000000357628,37.0,61.0,40.0,False,,215.2183473348822,[],"[840, 525]",ColorTask,31.0,81.0,,,HRV,HRV_0287,2022-11-30 23:00:27
,wl-rdm,198,418642,0.0-8.81-0.81,1.0,198.0,,,,,,,[],,,,,,62.5,0.0,i,1.0,False,621.1999999880791,38.0,61.0,40.0,False,,235.85161531399885,[],"[840, 525]",ColorTask,30.0,82.0,,,HRV,HRV_0287,2022-11-30 23:00:27
,wl-rdm,199,420491,0.0-8.82-0.82,1.0,199.0,,,,,,,[],,,,,,56.4,0.0,u,0.0,True,482.80000001192093,30.0,61.0,40.0,False,,283.47098405169595,[],"[840, 525]",ColorTask,31.0,83.0,,,HRV,HRV_0287,2022-11-30 23:00:27
,wl-rdm,200,422475,0.0-8.83-0.83,1.0,200.0,,,,,,,[],,,,,,50.0,0.0,u,0.0,True,589.8000000119209,36.0,61.0,40.0,False,,302.38207431908484,[],"[840, 525]",ColorTask,32.0,84.0,,,HRV,HRV_0287,2022-11-30 23:00:27
,wl-rdm,201,424409,0.0-8.84-0.84,1.0,201.0,,,,,,,[],,,,,,87.9,1.0,i,1.0,True,624.2999999523163,38.0,61.0,40.0,False,,233.14618029100765,[],"[840, 525]",ColorTask,33.0,85.0,,,HRV,HRV_0287,2022-11-30 23:00:27
,wl-rdm,202,426442,0.0-8.85-0.85,1.0,202.0,,,,,,,[],,,,,,62.5,1.0,i,1.0,True,588.6999999880791,36.0,61.0,40.0,False,,370.4540210054131,[],"[840, 525]",ColorTask,34.0,86.0,,,HRV,HRV_0287,2022-11-30 23:00:27
,wl-rdm,203,428358,0.0-8.86-0.86,1.0,203.0,,,,,,,[],,,,,,73.6,0.0,u,0.0,True,568.5,35.0,61.0,40.0,False,,249.82269979700504,[],"[840, 525]",ColorTask,35.0,87.0,,,HRV,HRV_0287,2022-11-30 23:00:27
,wl-rdm,204,430192,0.0-8.87-0.87,1.0,204.0,,,,,,,[],,,,,,53.2,1.0,i,1.0,True,439.9000000357628,27.0,61.0,40.0,False,,321.72747963859825,[],"[840, 525]",ColorTask,36.0,88.0,,,HRV,HRV_0287,2022-11-30 23:00:27
,wl-rdm,205,432258,0.0-8.88-0.88,1.0,205.0,,,,,,,[],,,,,,73.6,0.0,i,1.0,False,602.8000000119209,37.0,61.0,40.0,False,,374.2506668195821,[],"[840, 525]",ColorTask,35.0,89.0,,,HRV,HRV_0287,2022-11-30 23:00:27
,wl-rdm,206,434175,0.0-8.89-0.89,1.0,206.0,,,,,,,[],,,,,,87.9,1.0,i,1.0,True,493.89999997615814,30.0,61.0,40.0,False,,333.0572433175285,[],"[840, 525]",ColorTask,36.0,90.0,,,HRV,HRV_0287,2022-11-30 23:00:27
,wl-rdm,207,436142,0.0-8.90-0.90,1.0,207.0,,,,,,,[],,,,,,87.9,0.0,i,1.0,False,616.7000000476837,37.0,61.0,40.0,False,,279.07176342073114,[],"[840, 525]",ColorTask,35.0,91.0,,,HRV,HRV_0287,2022-11-30 23:00:27
,wl-rdm,208,438109,0.0-8.91-0.91,1.0,208.0,,,,,,,[],,,,,,62.5,0.0,u,0.0,True,528.8999999761581,32.0,61.0,40.0,False,,356.095873910286,[],"[840, 525]",ColorTask,36.0,92.0,,,HRV,HRV_0287,2022-11-30 23:00:27
,wl-rdm,209,440192,0.0-8.92-0.92,1.0,209.0,,,,,,,[],,,,,,56.4,1.0,i,1.0,True,756.1999999880791,46.0,61.0,40.0,False,,244.0339485628831,[],"[840, 525]",ColorTask,37.0,93.0,,,HRV,HRV_0287,2022-11-30 23:00:27
,wl-rdm,210,442108,0.0-8.93-0.93,1.0,210.0,,,,,,,[],,,,,,73.6,0.0,u,0.0,True,646.5,39.0,61.0,40.0,False,,211.08079190439406,[],"[840, 525]",ColorTask,38.0,94.0,,,HRV,HRV_0287,2022-11-30 23:00:27
,wl-rdm,211,444091,0.0-8.94-0.94,1.0,211.0,,,,,,,[],,,,,,73.6,1.0,i,1.0,True,589.2000000476837,36.0,61.0,40.0,False,,327.7412562090362,[],"[840, 525]",ColorTask,39.0,95.0,,,HRV,HRV_0287,2022-11-30 23:00:27
,wl-rdm,212,446192,0.0-8.95-0.95,1.0,212.0,,,,,,,[],,,,,,73.6,0.0,u,0.0,True,756.1999999880791,46.0,61.0,40.0,False,,260.41429655616207,[],"[840, 525]",ColorTask,40.0,96.0,,,HRV,HRV_0287,2022-11-30 23:00:27
,wl-rdm,213,447993,0.0-8.96-0.96,1.0,213.0,,,,,,,[],,,,,,87.9,0.0,u,0.0,True,453.5999999642372,28.0,61.0,40.0,False,,272.2295309173953,[],"[840, 525]",ColorTask,41.0,97.0,,,HRV,HRV_0287,2022-11-30 23:00:27
,wl-rdm,214,449909,0.0-8.97-0.97,1.0,214.0,,,,,,,[],,,,,,56.4,1.0,i,1.0,True,630.3000000119209,38.0,61.0,40.0,False,,214.46144078937297,[],"[840, 525]",ColorTask,42.0,98.0,,,HRV,HRV_0287,2022-11-30 23:00:27
,wl-rdm,215,451808,0.0-8.98-0.98,1.0,215.0,,,,,,,[],,,,,,73.6,0.0,u,0.0,True,605.1999999880791,33.0,61.0,40.0,False,,232.52160157716142,[],"[840, 525]",ColorTask,43.0,99.0,,,HRV,HRV_0287,2022-11-30 23:00:27
,wl-rdm,216,453692,0.0-8.99-0.99,1.0,216.0,,,,,,,[],,,,,,87.9,1.0,i,1.0,True,481.89999997615814,29.0,61.0,40.0,False,,321.2692565852258,[],"[840, 525]",ColorTask,44.0,100.0,,,HRV,HRV_0287,2022-11-30 23:00:27
,wl-rdm,217,455526,0.0-8.100-0.100,1.0,217.0,,,,,,,[],,,,,,87.9,0.0,u,0.0,True,493.89999997615814,30.0,61.0,40.0,False,,259.36996765330366,[],"[840, 525]",ColorTask,45.0,101.0,,,HRV,HRV_0287,2022-11-30 23:00:27
,wl-rdm,218,457408,0.0-8.101-0.101,1.0,218.0,,,,,,,[],,,,,,87.9,1.0,i,1.0,True,554.5,34.0,61.0,40.0,False,,254.8799705131911,[],"[840, 525]",ColorTask,46.0,102.0,,,HRV,HRV_0287,2022-11-30 23:00:27
,wl-rdm,219,459242,0.0-8.102-0.102,1.0,219.0,,,,,,,[],,,,,,50.0,1.0,u,0.0,False,526.3000000119209,32.0,61.0,40.0,False,,248.21422781084908,[],"[840, 525]",ColorTask,45.0,103.0,,,HRV,HRV_0287,2022-11-30 23:00:27
,wl-rdm,220,461029,0.0-8.103-0.103,1.0,220.0,,,,,,,[],,,,,,53.2,1.0,i,1.0,True,510.0,30.0,61.0,40.0,False,,216.39295938613625,[],"[840, 525]",ColorTask,46.0,104.0,,,HRV,HRV_0287,2022-11-30 23:00:27
,wl-rdm,221,462842,0.0-8.104-0.104,1.0,221.0,,,,,,,[],,,,,,87.9,0.0,u,0.0,True,456.89999997615814,28.0,61.0,40.0,False,,282.86377761451104,[],"[840, 525]",ColorTask,47.0,105.0,,,HRV,HRV_0287,2022-11-30 23:00:27
,wl-rdm,222,464808,0.0-8.105-0.105,1.0,222.0,,,,,,,[],,,,,,62.5,0.0,u,0.0,True,609.5999999642372,37.0,61.0,40.0,False,,294.10671785316237,[],"[840, 525]",ColorTask,48.0,106.0,,,HRV,HRV_0287,2022-11-30 23:00:27
,wl-rdm,223,466809,0.0-8.106-0.106,1.0,223.0,,,,,,,[],,,,,,73.6,0.0,u,0.0,True,590.1000000238419,36.0,61.0,40.0,False,,320.88486324885776,[],"[840, 525]",ColorTask,49.0,107.0,,,HRV,HRV_0287,2022-11-30 23:00:27
,wl-rdm,224,468643,0.0-8.107-0.107,1.0,224.0,,,,,,,[],,,,,,56.4,0.0,i,1.0,False,489.69999998807907,30.0,61.0,40.0,False,,250.5820642965658,[],"[840, 525]",ColorTask,48.0,108.0,,,HRV,HRV_0287,2022-11-30 23:00:27
,wl-rdm,225,470459,0.0-8.108-0.108,1.0,225.0,,,,,,,[],,,,,,87.9,1.0,i,1.0,True,521.8000000119209,32.0,61.0,40.0,False,,205.8173628976294,[],"[840, 525]",ColorTask,49.0,109.0,,,HRV,HRV_0287,2022-11-30 23:00:27
,wl-html-button-response,226,472150,0.0-9.0-0.0,,,,,,,,,,1688.4000000357628,,0,,,,,,,,,,,,,,,,,,,,<h3>End of this session. Thank you!</h3><br>,['Close window'],HRV,HRV_0287,2022-11-30 23:00:27
