success,trial_type,trial_index,time_elapsed,internal_node_id,Block,TrialNumber,TrialTime,trialTimeDiff,FPS_avg,FPS_med,FPS_mode,TrialDur,winResizeTime,rt,block,button_pressed,MotCoh,MotDir,ColCoh,Color,ChoiceKey,Choice,Accuracy,RT,nFrames,FPS,PPD,missTrial,missTrialMsg,onsetDelay,fullScreenExitTime,canvCenter,TrialType,Score,BlockTrial,stimulus,button_labels,exp,subjectId,date
True,fullscreen,0,1740,0.0-0.0,0.0,1.0,,,,,,,,,,,,,,,,,,,,,,,,,,,,,,,,HRV,HRV_0256,2022-11-30 20:09:33
,wl-check-fps,1,6803,0.0-1.0,0.0,2.0,"[2181.9, 2188.4, 2205.2, 2222.6, 2238.8, 2255.5, 2272.1, 2288.6, 2308.2, 2358.4, 2389.3, 2422.3, 2438.8, 2455.4, 2472.2, 2489, 2505.4, 2522.2, 2538.9, 2555.5, 2572.3, 2589, 2605.6, 2622.5, 2638.8, 2655.7, 2672.2, 2689.1, 2705.7, 2722.4, 2739, 2755.6, 2772.1, 2788.9, 2805.6, 2822.2, 2839.1, 2855.6, 2872.6, 2889, 2905.8, 2922.4, 2939, 2955.8, 2972.5, 2988.8, 3005.9, 3022.4, 3039.1, 3055.8, 3072.5, 3089.1, 3105.6, 3122.4, 3139, 3155.8, 3172.5, 3189.2, 3205.7, 3222.4, 3239.1, 3255.9, 3272.6, 3289.3, 3306, 3322.7, 3339.2, 3356, 3372.6, 3389.3, 3405.8, 3422.5, 3439.2, 3456, 3472.5, 3489.4, 3506, 3522.6, 3539.6, 3555.8, 3572.7, 3589.2, 3605.8, 3622.3, 3639.4, 3655.9, 3672.3, 3689.6, 3705.9, 3722.7, 3739.3, 3755.9, 3772.7, 3789.3, 3806, 3823, 3839.7, 3856, 3872.8, 3889.2, 3906.1, 3922.7, 3939.5, 3956.1, 3972.7, 3989.4, 4006, 4022.8, 4039.4, 4056.2, 4072.8, 4089.5, 4106.1, 4123, 4139.5, 4156, 4172.8, 4189.4, 4206, 4223.9, 4239.9, 4256.8, 4273, 4289.6, 4306.1, 4323, 4339.5, 4356.3, 4372.8, 4389.7, 4406.3, 4423, 4439.4, 4456.2, 4473, 4489.6, 4506.4, 4523, 4539.7, 4556.5, 4572.9, 4589.7, 4606.4, 4623.1, 4639.9, 4656.4, 4673.2, 4689.8, 4706.3, 4723, 4739.8, 4756.4, 4773.2, 4789.9, 4806.6, 4823.1, 4839.8, 4856.4, 4873.2, 4889.7, 4906.4, 4923.1, 4939.8, 4956.7, 4973.2, 4991.6, 5006.5, 5023.2, 5039.9, 5056.5, 5073.2, 5089.8, 5106.5, 5123.3, 5140, 5156.5, 5173.1, 5189.9, 5206.7, 5223.2, 5239.9, 5256.7, 5273.4, 5290, 5306.5, 5323.3, 5340.2, 5356.6, 5373.1, 5389.9, 5406.7, 5423.4, 5439.9, 5456.6, 5473.4, 5490, 5506.7, 5523.3, 5540.1, 5556.6, 5573.4, 5590.1, 5606.6, 5623, 5640.2, 5656.7, 5673.5, 5690, 5706.7, 5723.4, 5740.1, 5756.8, 5773.5, 5790.2, 5806.8, 5823.9, 5840.8, 5857.2, 5873.5, 5890.2, 5907.1, 5923.8, 5940.4, 5957, 5974, 5990.4, 6007.4, 6023.7, 6040.6, 6057.3, 6074, 6090.3, 6107, 6124, 6140.8, 6157.4, 6173.9, 6190.5, 6207.4, 6223.8, 6240.5, 6257.2, 6273.7, 6290.4, 6307.1, 6324.1, 6340.7, 6357.9, 6373.9, 6390.5, 6407.2, 6423.8, 6440.7, 6457.4, 6474.2, 6490.6, 6507.5, 6523.8, 6541, 6557.1, 6573.7, 6590.4, 6607.1, 6623.7, 6640.8, 6657, 6674, 6690.5, 6707, 6723.8, 6740.4, 6757.1, 6773.6, 6790.4, 6806.9, 6823.8, 6840.3, 6857.3, 6873.9, 6890.6, 6907.3, 6923.8, 6940.5, 6957.3, 6973.9, 6990.6, 7007.1, 7023.9, 7040.7, 7057.3, 7074, 7090.7, 7107.4, 7123.9, 7140.6, 7157.3, 7173.9, 7190.7, 7207.2, 7224]","[1.1, 6.5, 16.8, 17.4, 16.2, 16.7, 16.6, 16.5, 19.6, 50.2, 30.9, 33, 16.5, 16.6, 16.8, 16.8, 16.4, 16.8, 16.7, 16.6, 16.8, 16.7, 16.6, 16.9, 16.3, 16.9, 16.5, 16.9, 16.6, 16.7, 16.6, 16.6, 16.5, 16.8, 16.7, 16.6, 16.9, 16.5, 17, 16.4, 16.8, 16.6, 16.6, 16.8, 16.7, 16.3, 17.1, 16.5, 16.7, 16.7, 16.7, 16.6, 16.5, 16.8, 16.6, 16.8, 16.7, 16.7, 16.5, 16.7, 16.7, 16.8, 16.7, 16.7, 16.7, 16.7, 16.5, 16.8, 16.6, 16.7, 16.5, 16.7, 16.7, 16.8, 16.5, 16.9, 16.6, 16.6, 17, 16.2, 16.9, 16.5, 16.6, 16.5, 17.1, 16.5, 16.4, 17.3, 16.3, 16.8, 16.6, 16.6, 16.8, 16.6, 16.7, 17, 16.7, 16.3, 16.8, 16.4, 16.9, 16.6, 16.8, 16.6, 16.6, 16.7, 16.6, 16.8, 16.6, 16.8, 16.6, 16.7, 16.6, 16.9, 16.5, 16.5, 16.8, 16.6, 16.6, 17.9, 16, 16.9, 16.2, 16.6, 16.5, 16.9, 16.5, 16.8, 16.5, 16.9, 16.6, 16.7, 16.4, 16.8, 16.8, 16.6, 16.8, 16.6, 16.7, 16.8, 16.4, 16.8, 16.7, 16.7, 16.8, 16.5, 16.8, 16.6, 16.5, 16.7, 16.8, 16.6, 16.8, 16.7, 16.7, 16.5, 16.7, 16.6, 16.8, 16.5, 16.7, 16.7, 16.7, 16.9, 16.5, 18.4, 14.9, 16.7, 16.7, 16.6, 16.7, 16.6, 16.7, 16.8, 16.7, 16.5, 16.6, 16.8, 16.8, 16.5, 16.7, 16.8, 16.7, 16.6, 16.5, 16.8, 16.9, 16.4, 16.5, 16.8, 16.8, 16.7, 16.5, 16.7, 16.8, 16.6, 16.7, 16.6, 16.8, 16.5, 16.8, 16.7, 16.5, 16.4, 17.2, 16.5, 16.8, 16.5, 16.7, 16.7, 16.7, 16.7, 16.7, 16.7, 16.6, 17.1, 16.9, 16.4, 16.3, 16.7, 16.9, 16.7, 16.6, 16.6, 17, 16.4, 17, 16.3, 16.9, 16.7, 16.7, 16.3, 16.7, 17, 16.8, 16.6, 16.5, 16.6, 16.9, 16.4, 16.7, 16.7, 16.5, 16.7, 16.7, 17, 16.6, 17.2, 16, 16.6, 16.7, 16.6, 16.9, 16.7, 16.8, 16.4, 16.9, 16.3, 17.2, 16.1, 16.6, 16.7, 16.7, 16.6, 17.1, 16.2, 17, 16.5, 16.5, 16.8, 16.6, 16.7, 16.5, 16.8, 16.5, 16.9, 16.5, 17, 16.6, 16.7, 16.7, 16.5, 16.7, 16.8, 16.6, 16.7, 16.5, 16.8, 16.8, 16.6, 16.7, 16.7, 16.7, 16.5, 16.7, 16.7, 16.6, 16.8, 16.5, 16.8]",59.0,60.0,60.0,5059.8,[],,,,,,,,,,,,,,,,,,,,,,,,,HRV,HRV_0256,2022-11-30 20:09:33
,wl-html-keyboard-response,2,19228,0.0-2.0-0.0,0.0,3.0,,,,,,,,10414.89999999851,0.0,0,,,,,,,,,,,,,,,,,,,,,,HRV,HRV_0256,2022-11-30 20:09:33
,wl-rdm,3,26543,0.0-3.0-0.0,0.0,4.0,,,,,,,[],,,,0.0,0.0,87.9,0.0,u,0.0,True,1766.6999999955297,106.0,60.0,40.0,False,,3000.0,[],"[768, 432]",ColorTask_Demo,,,,,HRV,HRV_0256,2022-11-30 20:09:33
,wl-rdm,4,38030,0.0-3.0-1.0,0.0,5.0,,,,,,,[],,,,0.0,0.0,87.9,1.0,i,1.0,True,2728.4000000059605,164.0,60.0,40.0,False,too_early ,2000.0,[],"[768, 432]",ColorTask_Demo,,,,,HRV,HRV_0256,2022-11-30 20:09:33
,wl-html-keyboard-response,5,44788,0.0-3.0-2.0,0.0,6.0,,,,,,,,4754.80000000447,0.0,1,,,,,,,,,,,,,,,,,,,,,,HRV,HRV_0256,2022-11-30 20:09:33
,wl-html-keyboard-response,6,52700,0.0-4.0-0.0,0.0,7.0,,,,,,,,5910.0999999940395,0.0,0,,,,,,,,,,,,,,,,,,,,,,HRV,HRV_0256,2022-11-30 20:09:33
,wl-html-keyboard-response,7,61148,0.0-5.0-0.0,0.0,8.0,,,,,,,,6445.60000000149,0.0,0,,,,,,,,,,,,,,,,,,,,,,HRV,HRV_0256,2022-11-30 20:09:33
,wl-rdm,8,65441,0.0-6.0-0.0,0.0,8.0,,,,,,,[],,,,,,87.9,0.0,u,,,3369.89999999851,179.0,60.0,40.0,True,RT_timeout ,230.13598449258342,[],"[768, 432]",ColorTask,-1.0,1.0,,,HRV,HRV_0256,2022-11-30 20:09:33
,wl-rdm,9,67858,0.0-6.1-0.1,0.0,9.0,,,,,,,[],,,,,,53.2,0.0,u,0.0,True,1123.2999999970198,68.0,60.0,40.0,False,,221.33967102687564,[],"[768, 432]",ColorTask,0.0,2.0,,,HRV,HRV_0256,2022-11-30 20:09:33
,wl-rdm,10,70143,0.0-6.2-0.2,0.0,10.0,,,,,,,[],,,,,,87.9,0.0,u,0.0,True,843.8999999985099,51.0,60.0,40.0,False,,378.44868975498844,[],"[768, 432]",ColorTask,1.0,3.0,,,HRV,HRV_0256,2022-11-30 20:09:33
,wl-rdm,11,72410,0.0-6.3-0.3,0.0,11.0,,,,,,,[],,,,,,56.4,0.0,u,0.0,True,914.6000000014901,55.0,60.0,40.0,False,,292.99640733047227,[],"[768, 432]",ColorTask,2.0,4.0,,,HRV,HRV_0256,2022-11-30 20:09:33
,wl-rdm,12,74411,0.0-6.4-0.4,0.0,12.0,,,,,,,[],,,,,,73.6,0.0,u,0.0,True,687.8999999985099,42.0,60.0,40.0,False,,244.5432567785393,[],"[768, 432]",ColorTask,3.0,5.0,,,HRV,HRV_0256,2022-11-30 20:09:33
,wl-rdm,13,76228,0.0-6.5-0.5,0.0,13.0,,,,,,,[],,,,,,53.2,1.0,u,0.0,False,522.2999999970198,32.0,60.0,40.0,False,,231.34671436381984,[],"[768, 432]",ColorTask,2.0,6.0,,,HRV,HRV_0256,2022-11-30 20:09:33
,wl-rdm,14,78679,0.0-6.6-0.6,0.0,14.0,,,,,,,[],,,,,,50.0,1.0,i,1.0,True,1168.8999999985099,71.0,60.0,40.0,False,,214.49921518851025,[],"[768, 432]",ColorTask,3.0,7.0,,,HRV,HRV_0256,2022-11-30 20:09:33
,wl-rdm,15,80763,0.0-6.7-0.7,0.0,15.0,,,,,,,[],,,,,,62.5,1.0,i,1.0,True,772.2000000029802,47.0,60.0,40.0,False,,243.04818200576958,[],"[768, 432]",ColorTask,4.0,8.0,,,HRV,HRV_0256,2022-11-30 20:09:33
,wl-rdm,16,82898,0.0-6.8-0.8,0.0,16.0,,,,,,,[],,,,,,62.5,0.0,i,1.0,False,682.2000000029802,41.0,60.0,40.0,False,,392.27605277772784,[],"[768, 432]",ColorTask,3.0,9.0,,,HRV,HRV_0256,2022-11-30 20:09:33
,wl-rdm,17,84749,0.0-6.9-0.9,0.0,17.0,,,,,,,[],,,,,,87.9,0.0,u,0.0,True,554.2999999970198,34.0,60.0,40.0,False,,230.26958192895825,[],"[768, 432]",ColorTask,4.0,10.0,,,HRV,HRV_0256,2022-11-30 20:09:33
,wl-rdm,18,86733,0.0-6.10-0.10,0.0,18.0,,,,,,,[],,,,,,73.6,0.0,u,0.0,True,529.2000000029802,32.0,60.0,40.0,False,,386.55516061821993,[],"[768, 432]",ColorTask,5.0,11.0,,,HRV,HRV_0256,2022-11-30 20:09:33
,wl-rdm,19,89033,0.0-6.11-0.11,0.0,19.0,,,,,,,[],,,,,,56.4,1.0,i,1.0,True,1018.3999999985099,62.0,60.0,40.0,False,,211.04697610382198,[],"[768, 432]",ColorTask,6.0,12.0,,,HRV,HRV_0256,2022-11-30 20:09:33
,wl-rdm,20,90968,0.0-6.12-0.12,0.0,20.0,,,,,,,[],,,,,,50.0,1.0,u,0.0,False,587.2000000029802,36.0,60.0,40.0,False,,257.33295382179654,[],"[768, 432]",ColorTask,5.0,13.0,,,HRV,HRV_0256,2022-11-30 20:09:33
,wl-rdm,21,93535,0.0-6.13-0.13,0.0,21.0,,,,,,,[],,,,,,53.2,1.0,i,1.0,True,1170.4000000059605,71.0,60.0,40.0,False,,322.279890941271,[],"[768, 432]",ColorTask,6.0,14.0,,,HRV,HRV_0256,2022-11-30 20:09:33
,wl-rdm,22,95736,0.0-6.14-0.14,0.0,22.0,,,,,,,[],,,,,,53.2,0.0,u,0.0,True,809.6000000014901,49.0,60.0,40.0,False,,326.19006479567327,[],"[768, 432]",ColorTask,7.0,15.0,,,HRV,HRV_0256,2022-11-30 20:09:33
,wl-rdm,23,98187,0.0-6.15-0.15,0.0,23.0,,,,,,,[],,,,,,50.0,0.0,u,0.0,True,973.3000000044703,59.0,60.0,40.0,False,,393.33998745855064,[],"[768, 432]",ColorTask,8.0,16.0,,,HRV,HRV_0256,2022-11-30 20:09:33
,wl-rdm,24,100371,0.0-6.16-0.16,0.0,24.0,,,,,,,[],,,,,,62.5,1.0,u,0.0,False,781.1000000089407,47.0,60.0,40.0,False,,346.9290022973629,[],"[768, 432]",ColorTask,7.0,17.0,,,HRV,HRV_0256,2022-11-30 20:09:33
,wl-rdm,25,102522,0.0-6.17-0.17,0.0,25.0,,,,,,,[],,,,,,53.2,0.0,u,0.0,True,833.6000000014901,50.0,60.0,40.0,False,,237.0497018040553,[],"[768, 432]",ColorTask,8.0,18.0,,,HRV,HRV_0256,2022-11-30 20:09:33
,wl-rdm,26,104690,0.0-6.18-0.18,0.0,26.0,,,,,,,[],,,,,,53.2,1.0,u,0.0,False,891.9999999925494,54.0,60.0,40.0,False,,214.02137345042232,[],"[768, 432]",ColorTask,7.0,19.0,,,HRV,HRV_0256,2022-11-30 20:09:33
,wl-rdm,27,107741,0.0-6.19-0.19,0.0,27.0,,,,,,,[],,,,,,62.5,0.0,u,0.0,True,1705.7000000029802,103.0,60.0,40.0,False,,268.58014097268295,[],"[768, 432]",ColorTask,8.0,20.0,,,HRV,HRV_0256,2022-11-30 20:09:33
,wl-rdm,28,109825,0.0-6.20-0.20,0.0,28.0,,,,,,,[],,,,,,50.0,0.0,i,1.0,False,802.1000000014901,49.0,60.0,40.0,False,,214.35945284394865,[],"[768, 432]",ColorTask,7.0,21.0,,,HRV,HRV_0256,2022-11-30 20:09:33
,wl-rdm,29,111892,0.0-6.21-0.21,0.0,29.0,,,,,,,[],,,,,,73.6,1.0,i,1.0,True,787.1999999955297,48.0,60.0,40.0,False,,208.7716169622563,[],"[768, 432]",ColorTask,8.0,22.0,,,HRV,HRV_0256,2022-11-30 20:09:33
,wl-rdm,30,113810,0.0-6.22-0.22,0.0,30.0,,,,,,,[],,,,,,73.6,1.0,i,1.0,True,468.20000000298023,29.0,60.0,40.0,False,,374.709192095401,[],"[768, 432]",ColorTask,9.0,23.0,,,HRV,HRV_0256,2022-11-30 20:09:33
,wl-rdm,31,115977,0.0-6.23-0.23,0.0,31.0,,,,,,,[],,,,,,53.2,0.0,i,1.0,False,833.0000000074506,50.0,60.0,40.0,False,,280.1312359620589,[],"[768, 432]",ColorTask,8.0,24.0,,,HRV,HRV_0256,2022-11-30 20:09:33
,wl-rdm,32,118111,0.0-6.24-0.24,0.0,32.0,,,,,,,[],,,,,,87.9,1.0,i,1.0,True,736.8999999985099,45.0,60.0,40.0,False,,305.1510311093695,[],"[768, 432]",ColorTask,9.0,25.0,,,HRV,HRV_0256,2022-11-30 20:09:33
,wl-rdm,33,120029,0.0-6.25-0.25,0.0,33.0,,,,,,,[],,,,,,73.6,0.0,u,0.0,True,638.2999999970198,39.0,60.0,40.0,False,,203.08749093041206,[],"[768, 432]",ColorTask,10.0,26.0,,,HRV,HRV_0256,2022-11-30 20:09:33
,wl-rdm,34,121946,0.0-6.26-0.26,0.0,34.0,,,,,,,[],,,,,,87.9,0.0,u,0.0,True,523.0,32.0,60.0,40.0,False,,332.25191876862533,[],"[768, 432]",ColorTask,11.0,27.0,,,HRV,HRV_0256,2022-11-30 20:09:33
,wl-rdm,35,124014,0.0-6.27-0.27,0.0,35.0,,,,,,,[],,,,,,62.5,0.0,i,1.0,False,712.1999999955297,43.0,60.0,40.0,False,,288.901882459387,[],"[768, 432]",ColorTask,10.0,28.0,,,HRV,HRV_0256,2022-11-30 20:09:33
,wl-rdm,36,126365,0.0-6.28-0.28,0.0,36.0,,,,,,,[],,,,,,53.2,1.0,i,1.0,True,946.3999999985099,57.0,60.0,40.0,False,,343.7747575987726,[],"[768, 432]",ColorTask,11.0,29.0,,,HRV,HRV_0256,2022-11-30 20:09:33
,wl-rdm,37,128549,0.0-6.29-0.29,0.0,37.0,,,,,,,[],,,,,,50.0,1.0,i,1.0,True,762.7000000029802,46.0,60.0,40.0,False,,360.1763633917283,[],"[768, 432]",ColorTask,12.0,30.0,,,HRV,HRV_0256,2022-11-30 20:09:33
,wl-rdm,38,130750,0.0-6.30-0.30,0.0,38.0,,,,,,,[],,,,,,53.2,1.0,i,1.0,True,911.8999999985099,55.0,60.0,40.0,False,,233.17905791965183,[],"[768, 432]",ColorTask,13.0,31.0,,,HRV,HRV_0256,2022-11-30 20:09:33
,wl-rdm,39,132667,0.0-6.31-0.31,0.0,39.0,,,,,,,[],,,,,,53.2,1.0,i,1.0,True,481.1000000014901,29.0,60.0,40.0,False,,382.4523645424196,[],"[768, 432]",ColorTask,14.0,32.0,,,HRV,HRV_0256,2022-11-30 20:09:33
,wl-rdm,40,134684,0.0-6.32-0.32,0.0,40.0,,,,,,,[],,,,,,87.9,0.0,u,0.0,True,713.8999999985099,43.0,60.0,40.0,False,,235.19945587869503,[],"[768, 432]",ColorTask,15.0,33.0,,,HRV,HRV_0256,2022-11-30 20:09:33
,wl-rdm,41,137018,0.0-6.33-0.33,0.0,41.0,,,,,,,[],,,,,,73.6,0.0,u,0.0,True,1056.6999999955297,64.0,60.0,40.0,False,,212.8788000888095,[],"[768, 432]",ColorTask,16.0,34.0,,,HRV,HRV_0256,2022-11-30 20:09:33
,wl-rdm,42,139370,0.0-6.34-0.34,0.0,42.0,,,,,,,[],,,,,,50.0,0.0,i,1.0,False,1074.7000000029802,65.0,60.0,40.0,False,,214.88223967177615,[],"[768, 432]",ColorTask,15.0,35.0,,,HRV,HRV_0256,2022-11-30 20:09:33
,wl-rdm,43,141387,0.0-6.35-0.35,0.0,43.0,,,,,,,[],,,,,,56.4,1.0,i,1.0,True,705.8999999985099,43.0,60.0,40.0,False,,244.61863341575412,[],"[768, 432]",ColorTask,16.0,36.0,,,HRV,HRV_0256,2022-11-30 20:09:33
,wl-rdm,44,143437,0.0-6.36-0.36,0.0,44.0,,,,,,,[],,,,,,53.2,1.0,i,1.0,True,687.8999999985099,42.0,60.0,40.0,False,,294.4793152032079,[],"[768, 432]",ColorTask,17.0,37.0,,,HRV,HRV_0256,2022-11-30 20:09:33
,wl-rdm,45,145572,0.0-6.37-0.37,0.0,45.0,,,,,,,[],,,,,,50.0,1.0,i,1.0,True,788.6000000014901,48.0,60.0,40.0,False,,280.4127776993133,[],"[768, 432]",ColorTask,18.0,38.0,,,HRV,HRV_0256,2022-11-30 20:09:33
,wl-rdm,46,147772,0.0-6.38-0.38,0.0,46.0,,,,,,,[],,,,,,53.2,0.0,i,1.0,False,779.3999999985099,47.0,60.0,40.0,False,,362.03958682447876,[],"[768, 432]",ColorTask,17.0,39.0,,,HRV,HRV_0256,2022-11-30 20:09:33
,wl-rdm,47,150040,0.0-6.39-0.39,0.0,47.0,,,,,,,[],,,,,,56.4,1.0,i,1.0,True,852.1000000014901,52.0,60.0,40.0,False,,342.3351699837749,[],"[768, 432]",ColorTask,18.0,40.0,,,HRV,HRV_0256,2022-11-30 20:09:33
,wl-rdm,48,152307,0.0-6.40-0.40,0.0,48.0,,,,,,,[],,,,,,73.6,0.0,u,0.0,True,913.6000000014901,55.0,60.0,40.0,False,,284.23854875665984,[],"[768, 432]",ColorTask,19.0,41.0,,,HRV,HRV_0256,2022-11-30 20:09:33
,wl-rdm,49,154675,0.0-6.41-0.41,0.0,49.0,,,,,,,[],,,,,,56.4,0.0,i,1.0,False,1072.6999999955297,65.0,60.0,40.0,False,,229.14138824845713,[],"[768, 432]",ColorTask,18.0,42.0,,,HRV,HRV_0256,2022-11-30 20:09:33
,wl-rdm,50,156976,0.0-6.42-0.42,0.0,50.0,,,,,,,[],,,,,,50.0,1.0,i,1.0,True,876.7999999970198,53.0,60.0,40.0,False,,357.9892993319806,[],"[768, 432]",ColorTask,19.0,43.0,,,HRV,HRV_0256,2022-11-30 20:09:33
,wl-rdm,51,159527,0.0-6.43-0.43,0.0,51.0,,,,,,,[],,,,,,50.0,1.0,i,1.0,True,1277.5,77.0,60.0,40.0,False,,209.47484480076457,[],"[768, 432]",ColorTask,20.0,44.0,,,HRV,HRV_0256,2022-11-30 20:09:33
,wl-rdm,52,162528,0.0-6.44-0.44,0.0,52.0,,,,,,,[],,,,,,53.2,1.0,u,0.0,False,1719.2000000029802,104.0,60.0,40.0,False,,205.8906412282998,[],"[768, 432]",ColorTask,19.0,45.0,,,HRV,HRV_0256,2022-11-30 20:09:33
,wl-rdm,53,164762,0.0-6.45-0.45,0.0,53.0,,,,,,,[],,,,,,62.5,0.0,u,0.0,True,906.7999999970198,55.0,60.0,40.0,False,,256.9746193933776,[],"[768, 432]",ColorTask,20.0,46.0,,,HRV,HRV_0256,2022-11-30 20:09:33
,wl-rdm,54,167030,0.0-6.46-0.46,0.0,54.0,,,,,,,[],,,,,,53.2,1.0,i,1.0,True,811.4000000059605,49.0,60.0,40.0,False,,393.6726389651054,[],"[768, 432]",ColorTask,21.0,47.0,,,HRV,HRV_0256,2022-11-30 20:09:33
,wl-rdm,55,169165,0.0-6.47-0.47,0.0,55.0,,,,,,,[],,,,,,87.9,1.0,i,1.0,True,863.3000000044703,52.0,60.0,40.0,False,,205.84012235452468,[],"[768, 432]",ColorTask,22.0,48.0,,,HRV,HRV_0256,2022-11-30 20:09:33
,wl-rdm,56,171615,0.0-6.48-0.48,0.0,56.0,,,,,,,[],,,,,,50.0,1.0,i,1.0,True,1143.8000000044703,69.0,60.0,40.0,False,,240.99257348047934,[],"[768, 432]",ColorTask,23.0,49.0,,,HRV,HRV_0256,2022-11-30 20:09:33
,wl-rdm,57,174066,0.0-6.49-0.49,0.0,57.0,,,,,,,[],,,,,,73.6,0.0,u,0.0,True,1090.1000000014901,66.0,60.0,40.0,False,,284.7402991219666,[],"[768, 432]",ColorTask,24.0,50.0,,,HRV,HRV_0256,2022-11-30 20:09:33
,wl-rdm,58,176567,0.0-6.50-0.50,0.0,58.0,,,,,,,[],,,,,,62.5,1.0,i,1.0,True,1060.7000000029802,64.0,60.0,40.0,False,,379.6132791279074,[],"[768, 432]",ColorTask,25.0,51.0,,,HRV,HRV_0256,2022-11-30 20:09:33
,wl-rdm,59,178951,0.0-6.51-0.51,0.0,59.0,,,,,,,[],,,,,,62.5,0.0,u,0.0,True,1042.3999999985099,63.0,60.0,40.0,False,,276.14933888719486,[],"[768, 432]",ColorTask,26.0,52.0,,,HRV,HRV_0256,2022-11-30 20:09:33
,wl-rdm,60,181702,0.0-6.52-0.52,0.0,60.0,,,,,,,[],,,,,,62.5,1.0,u,0.0,False,1395.6999999955297,84.0,60.0,40.0,False,,280.1850481410328,[],"[768, 432]",ColorTask,25.0,53.0,,,HRV,HRV_0256,2022-11-30 20:09:33
,wl-rdm,61,184703,0.0-6.53-0.53,0.0,61.0,,,,,,,[],,,,,,50.0,0.0,i,1.0,False,1636.2000000029802,99.0,60.0,40.0,False,,288.29269712493056,[],"[768, 432]",ColorTask,24.0,54.0,,,HRV,HRV_0256,2022-11-30 20:09:33
,wl-rdm,62,186804,0.0-6.54-0.54,0.0,62.0,,,,,,,[],,,,,,56.4,0.0,u,0.0,True,806.1000000014901,49.0,60.0,40.0,False,,218.02429952821012,[],"[768, 432]",ColorTask,25.0,55.0,,,HRV,HRV_0256,2022-11-30 20:09:33
,wl-rdm,63,188688,0.0-6.55-0.55,0.0,63.0,,,,,,,[],,,,,,87.9,0.0,u,0.0,True,607.8000000044703,37.0,60.0,40.0,False,,216.1409420390019,[],"[768, 432]",ColorTask,26.0,56.0,,,HRV,HRV_0256,2022-11-30 20:09:33
,wl-rdm,64,190672,0.0-6.56-0.56,0.0,64.0,,,,,,,[],,,,,,56.4,0.0,u,0.0,True,658.5,40.0,60.0,40.0,False,,255.42694338136073,[],"[768, 432]",ColorTask,27.0,57.0,,,HRV,HRV_0256,2022-11-30 20:09:33
,wl-rdm,65,192907,0.0-6.57-0.57,0.0,65.0,,,,,,,[],,,,,,56.4,0.0,u,0.0,True,757.7000000029802,46.0,60.0,40.0,False,,396.2054452421645,[],"[768, 432]",ColorTask,28.0,58.0,,,HRV,HRV_0256,2022-11-30 20:09:33
,wl-rdm,66,194940,0.0-6.58-0.58,0.0,66.0,,,,,,,[],,,,,,62.5,0.0,u,0.0,True,637.7000000029802,39.0,60.0,40.0,False,,325.4976446156517,[],"[768, 432]",ColorTask,29.0,59.0,,,HRV,HRV_0256,2022-11-30 20:09:33
,wl-rdm,67,197024,0.0-6.59-0.59,0.0,67.0,,,,,,,[],,,,,,56.4,1.0,u,0.0,False,801.2999999970198,49.0,60.0,40.0,False,,201.78748039472566,[],"[768, 432]",ColorTask,28.0,60.0,,,HRV,HRV_0256,2022-11-30 20:09:33
,wl-rdm,68,199226,0.0-6.60-0.60,0.0,68.0,,,,,,,[],,,,,,62.5,1.0,u,0.0,False,891.0999999940395,54.0,60.0,40.0,False,,228.3747927491713,[],"[768, 432]",ColorTask,27.0,61.0,,,HRV,HRV_0256,2022-11-30 20:09:33
,wl-rdm,69,201610,0.0-6.61-0.61,0.0,69.0,,,,,,,[],,,,,,53.2,0.0,u,0.0,True,965.6000000014901,58.0,60.0,40.0,False,,357.21241749844296,[],"[768, 432]",ColorTask,28.0,62.0,,,HRV,HRV_0256,2022-11-30 20:09:33
,wl-rdm,70,203793,0.0-6.62-0.62,0.0,70.0,,,,,,,[],,,,,,62.5,1.0,i,1.0,True,840.7000000029802,51.0,60.0,40.0,False,,276.56733526148037,[],"[768, 432]",ColorTask,29.0,63.0,,,HRV,HRV_0256,2022-11-30 20:09:33
,wl-rdm,71,205944,0.0-6.63-0.63,0.0,71.0,,,,,,,[],,,,,,53.2,0.0,u,0.0,True,868.3000000044703,53.0,60.0,40.0,False,,209.0790286058337,[],"[768, 432]",ColorTask,30.0,64.0,,,HRV,HRV_0256,2022-11-30 20:09:33
,wl-rdm,72,208045,0.0-6.64-0.64,0.0,72.0,,,,,,,[],,,,,,73.6,1.0,i,1.0,True,793.6000000014901,48.0,60.0,40.0,False,,239.4050560487173,[],"[768, 432]",ColorTask,31.0,65.0,,,HRV,HRV_0256,2022-11-30 20:09:33
,wl-rdm,73,210613,0.0-6.65-0.65,0.0,73.0,,,,,,,[],,,,,,62.5,1.0,i,1.0,True,1195.6000000014901,72.0,60.0,40.0,False,,306.8218297847122,[],"[768, 432]",ColorTask,32.0,66.0,,,HRV,HRV_0256,2022-11-30 20:09:33
,wl-rdm,74,212847,0.0-6.66-0.66,0.0,74.0,,,,,,,[],,,,,,53.2,0.0,u,0.0,True,859.8999999985099,52.0,60.0,40.0,False,,308.7553237917992,[],"[768, 432]",ColorTask,33.0,67.0,,,HRV,HRV_0256,2022-11-30 20:09:33
,wl-rdm,75,215198,0.0-6.67-0.67,0.0,75.0,,,,,,,[],,,,,,56.4,1.0,u,0.0,False,977.8000000044703,59.0,60.0,40.0,False,,305.3100339028157,[],"[768, 432]",ColorTask,32.0,68.0,,,HRV,HRV_0256,2022-11-30 20:09:33
,wl-rdm,76,217215,0.0-6.68-0.68,0.0,76.0,,,,,,,[],,,,,,73.6,1.0,i,1.0,True,719.7999999970198,44.0,60.0,40.0,False,,214.98248626996713,[],"[768, 432]",ColorTask,33.0,69.0,,,HRV,HRV_0256,2022-11-30 20:09:33
,wl-rdm,77,219383,0.0-6.69-0.69,0.0,77.0,,,,,,,[],,,,,,62.5,0.0,u,0.0,True,894.5,54.0,60.0,40.0,False,,200.2319082526391,[],"[768, 432]",ColorTask,34.0,70.0,,,HRV,HRV_0256,2022-11-30 20:09:33
,wl-rdm,78,221217,0.0-6.70-0.70,0.0,78.0,,,,,,,[],,,,,,87.9,0.0,i,1.0,False,541.6999999880791,33.0,60.0,40.0,False,,211.79665564265304,[],"[768, 432]",ColorTask,33.0,71.0,,,HRV,HRV_0256,2022-11-30 20:09:33
,wl-rdm,79,223251,0.0-6.71-0.71,0.0,79.0,,,,,,,[],,,,,,87.9,0.0,u,0.0,True,714.2999999970198,43.0,60.0,40.0,False,,250.4908448943653,[],"[768, 432]",ColorTask,34.0,72.0,,,HRV,HRV_0256,2022-11-30 20:09:33
,wl-rdm,80,225452,0.0-6.72-0.72,0.0,80.0,,,,,,,[],,,,,,87.9,1.0,i,1.0,True,755.2999999970198,46.0,60.0,40.0,False,,379.7592420995282,[],"[768, 432]",ColorTask,35.0,73.0,,,HRV,HRV_0256,2022-11-30 20:09:33
,wl-rdm,81,227703,0.0-6.73-0.73,0.0,81.0,,,,,,,[],,,,,,50.0,0.0,u,0.0,True,858.8999999985099,52.0,60.0,40.0,False,,329.6762140740278,[],"[768, 432]",ColorTask,36.0,74.0,,,HRV,HRV_0256,2022-11-30 20:09:33
,wl-rdm,82,229837,0.0-6.74-0.74,0.0,82.0,,,,,,,[],,,,,,73.6,0.0,u,0.0,True,704.0,43.0,60.0,40.0,False,,364.3193271802144,[],"[768, 432]",ColorTask,37.0,75.0,,,HRV,HRV_0256,2022-11-30 20:09:33
,wl-rdm,83,232154,0.0-6.75-0.75,0.0,83.0,,,,,,,[],,,,,,62.5,0.0,u,0.0,True,864.3999999985099,52.0,60.0,40.0,False,,397.3681680336012,[],"[768, 432]",ColorTask,38.0,76.0,,,HRV,HRV_0256,2022-11-30 20:09:33
,wl-rdm,84,234572,0.0-6.76-0.76,0.0,84.0,,,,,,,[],,,,,,56.4,1.0,i,1.0,True,1046.6000000014901,63.0,60.0,40.0,False,,314.1242735978003,[],"[768, 432]",ColorTask,39.0,77.0,,,HRV,HRV_0256,2022-11-30 20:09:33
,wl-rdm,85,236739,0.0-6.77-0.77,0.0,85.0,,,,,,,[],,,,,,73.6,0.0,u,0.0,True,871.7000000029802,53.0,60.0,40.0,False,,220.5206807300206,[],"[768, 432]",ColorTask,40.0,78.0,,,HRV,HRV_0256,2022-11-30 20:09:33
,wl-rdm,86,239190,0.0-6.78-0.78,0.0,86.0,,,,,,,[],,,,,,73.6,1.0,i,1.0,True,992.6000000014901,60.0,60.0,40.0,False,,385.45237620733593,[],"[768, 432]",ColorTask,41.0,79.0,,,HRV,HRV_0256,2022-11-30 20:09:33
,wl-rdm,87,241358,0.0-6.79-0.79,0.0,87.0,,,,,,,[],,,,,,87.9,1.0,i,1.0,True,760.8000000044703,46.0,60.0,40.0,False,,349.27216674453064,[],"[768, 432]",ColorTask,42.0,80.0,,,HRV,HRV_0256,2022-11-30 20:09:33
,wl-rdm,88,243342,0.0-6.80-0.80,0.0,88.0,,,,,,,[],,,,,,73.6,1.0,i,1.0,True,660.8999999985099,40.0,60.0,40.0,False,,251.51591471283473,[],"[768, 432]",ColorTask,43.0,81.0,,,HRV,HRV_0256,2022-11-30 20:09:33
,wl-rdm,89,245776,0.0-6.81-0.81,0.0,89.0,,,,,,,[],,,,,,50.0,0.0,u,0.0,True,985.2000000029802,60.0,60.0,40.0,False,,372.06913718332055,[],"[768, 432]",ColorTask,44.0,82.0,,,HRV,HRV_0256,2022-11-30 20:09:33
,wl-rdm,90,248227,0.0-6.82-0.82,0.0,90.0,,,,,,,[],,,,,,56.4,1.0,u,0.0,False,1139.2000000029802,69.0,60.0,40.0,False,,221.22446468282317,[],"[768, 432]",ColorTask,43.0,83.0,,,HRV,HRV_0256,2022-11-30 20:09:33
,wl-rdm,91,250028,0.0-6.83-0.83,0.0,91.0,,,,,,,[],,,,,,62.5,1.0,i,1.0,True,429.5,26.0,60.0,40.0,False,,312.75964903388575,[],"[768, 432]",ColorTask,44.0,84.0,,,HRV,HRV_0256,2022-11-30 20:09:33
,wl-rdm,92,252095,0.0-6.84-0.84,0.0,92.0,,,,,,,[],,,,,,56.4,0.0,u,0.0,True,743.0,45.0,60.0,40.0,False,,253.51464602754203,[],"[768, 432]",ColorTask,45.0,85.0,,,HRV,HRV_0256,2022-11-30 20:09:33
,wl-rdm,93,253979,0.0-6.85-0.85,0.0,93.0,,,,,,,[],,,,,,53.2,0.0,i,1.0,False,596.6999999955297,36.0,60.0,40.0,False,,218.60866794351745,[],"[768, 432]",ColorTask,44.0,86.0,,,HRV,HRV_0256,2022-11-30 20:09:33
,wl-rdm,94,256363,0.0-6.86-0.86,0.0,94.0,,,,,,,[],,,,,,87.9,1.0,u,0.0,False,988.6000000014901,60.0,60.0,40.0,False,,319.08874442698516,[],"[768, 432]",ColorTask,43.0,87.0,,,HRV,HRV_0256,2022-11-30 20:09:33
,wl-rdm,95,258681,0.0-6.87-0.87,0.0,95.0,,,,,,,[],,,,,,50.0,0.0,i,1.0,False,1024.1000000014901,62.0,60.0,40.0,False,,227.97300948986745,[],"[768, 432]",ColorTask,42.0,88.0,,,HRV,HRV_0256,2022-11-30 20:09:33
,wl-rdm,96,261248,0.0-6.88-0.88,0.0,96.0,,,,,,,[],,,,,,73.6,1.0,i,1.0,True,1290.3999999985099,78.0,60.0,40.0,False,,207.5370829817659,[],"[768, 432]",ColorTask,43.0,89.0,,,HRV,HRV_0256,2022-11-30 20:09:33
,wl-rdm,97,264067,0.0-6.89-0.89,0.0,97.0,,,,,,,[],,,,,,56.4,1.0,i,1.0,True,1406.1000000014901,85.0,60.0,40.0,False,,339.2270375992522,[],"[768, 432]",ColorTask,44.0,90.0,,,HRV,HRV_0256,2022-11-30 20:09:33
,wl-rdm,98,266134,0.0-6.90-0.90,0.0,98.0,,,,,,,[],,,,,,50.0,0.0,i,1.0,False,786.7999999895692,48.0,60.0,40.0,False,,209.05567499536244,[],"[768, 432]",ColorTask,43.0,91.0,,,HRV,HRV_0256,2022-11-30 20:09:33
,wl-rdm,99,268068,0.0-6.91-0.91,0.0,99.0,,,,,,,[],,,,,,87.9,1.0,i,1.0,True,579.5,35.0,60.0,40.0,False,,291.4122511128133,[],"[768, 432]",ColorTask,44.0,92.0,,,HRV,HRV_0256,2022-11-30 20:09:33
,wl-rdm,100,270536,0.0-6.92-0.92,0.0,100.0,,,,,,,[],,,,,,62.5,1.0,i,1.0,True,1132.9000000059605,68.0,60.0,40.0,False,,270.0715212170439,[],"[768, 432]",ColorTask,45.0,93.0,,,HRV,HRV_0256,2022-11-30 20:09:33
,wl-rdm,101,272887,0.0-6.93-0.93,0.0,101.0,,,,,,,[],,,,,,73.6,1.0,i,1.0,True,1068.8000000044703,65.0,60.0,40.0,False,,201.8695414151793,[],"[768, 432]",ColorTask,46.0,94.0,,,HRV,HRV_0256,2022-11-30 20:09:33
,wl-rdm,102,276221,0.0-6.94-0.94,0.0,102.0,,,,,,,[],,,,,,56.4,1.0,i,1.0,True,2021.6999999955297,122.0,60.0,40.0,False,,241.047706729264,[],"[768, 432]",ColorTask,47.0,95.0,,,HRV,HRV_0256,2022-11-30 20:09:33
,wl-rdm,103,278272,0.0-6.95-0.95,0.0,103.0,,,,,,,[],,,,,,87.9,0.0,u,0.0,True,635.6999999955297,39.0,60.0,40.0,False,,333.6062498452926,[],"[768, 432]",ColorTask,48.0,96.0,,,HRV,HRV_0256,2022-11-30 20:09:33
,wl-rdm,104,280206,0.0-6.96-0.96,0.0,104.0,,,,,,,[],,,,,,87.9,1.0,i,1.0,True,487.90000000596046,30.0,60.0,40.0,False,,379.8641470359558,[],"[768, 432]",ColorTask,49.0,97.0,,,HRV,HRV_0256,2022-11-30 20:09:33
,wl-rdm,105,282240,0.0-6.97-0.97,0.0,105.0,,,,,,,[],,,,,,73.6,1.0,i,1.0,True,775.0999999940395,47.0,60.0,40.0,False,,200.22732039962227,[],"[768, 432]",ColorTask,50.0,98.0,,,HRV,HRV_0256,2022-11-30 20:09:33
,wl-rdm,106,284691,0.0-6.98-0.98,0.0,106.0,,,,,,,[],,,,,,50.0,0.0,i,1.0,False,1096.7000000029802,66.0,60.0,40.0,False,,292.4947132648487,[],"[768, 432]",ColorTask,49.0,99.0,,,HRV,HRV_0256,2022-11-30 20:09:33
,wl-rdm,107,286675,0.0-6.99-0.99,0.0,107.0,,,,,,,[],,,,,,87.9,0.0,i,1.0,False,689.0,42.0,60.0,40.0,False,,218.98198558255652,[],"[768, 432]",ColorTask,48.0,100.0,,,HRV,HRV_0256,2022-11-30 20:09:33
,wl-rdm,108,288493,0.0-6.100-0.100,0.0,108.0,,,,,,,[],,,,,,87.9,1.0,i,1.0,True,505.70000000298023,31.0,60.0,40.0,False,,242.85325835874025,[],"[768, 432]",ColorTask,49.0,101.0,,,HRV,HRV_0256,2022-11-30 20:09:33
,wl-rdm,109,290477,0.0-6.101-0.101,0.0,109.0,,,,,,,[],,,,,,50.0,1.0,u,0.0,False,528.8999999985099,32.0,60.0,40.0,False,,384.5500668479755,[],"[768, 432]",ColorTask,48.0,102.0,,,HRV,HRV_0256,2022-11-30 20:09:33
,wl-rdm,110,292811,0.0-6.102-0.102,0.0,110.0,,,,,,,[],,,,,,73.6,0.0,u,0.0,True,1022.2999999970198,62.0,60.0,40.0,False,,240.71504443354598,[],"[768, 432]",ColorTask,49.0,103.0,,,HRV,HRV_0256,2022-11-30 20:09:33
,wl-rdm,111,295478,0.0-6.103-0.103,0.0,111.0,,,,,,,[],,,,,,56.4,0.0,i,1.0,False,1361.1000000014901,82.0,60.0,40.0,False,,247.81079580785496,[],"[768, 432]",ColorTask,48.0,104.0,,,HRV,HRV_0256,2022-11-30 20:09:33
,wl-rdm,112,297946,0.0-6.104-0.104,0.0,112.0,,,,,,,[],,,,,,56.4,0.0,u,0.0,True,1148.7000000029802,69.0,60.0,40.0,False,,262.7253009313655,[],"[768, 432]",ColorTask,49.0,105.0,,,HRV,HRV_0256,2022-11-30 20:09:33
,wl-rdm,113,300330,0.0-6.105-0.105,0.0,113.0,,,,,,,[],,,,,,62.5,0.0,u,0.0,True,1081.1999999955297,65.0,60.0,40.0,False,,247.80588972188067,[],"[768, 432]",ColorTask,50.0,106.0,,,HRV,HRV_0256,2022-11-30 20:09:33
,wl-rdm,114,302848,0.0-6.106-0.106,0.0,114.0,,,,,,,[],,,,,,87.9,1.0,i,1.0,True,1242.0999999940395,75.0,60.0,40.0,False,,200.53989817526778,[],"[768, 432]",ColorTask,51.0,107.0,,,HRV,HRV_0256,2022-11-30 20:09:33
,wl-rdm,115,305616,0.0-6.107-0.107,0.0,115.0,,,,,,,[],,,,,,50.0,1.0,i,1.0,True,1336.3000000044703,81.0,60.0,40.0,False,,351.88525015190135,[],"[768, 432]",ColorTask,52.0,108.0,,,HRV,HRV_0256,2022-11-30 20:09:33
,wl-rdm,116,307967,0.0-6.108-0.108,0.0,116.0,,,,,,,[],,,,,,56.4,0.0,i,1.0,False,1021.2999999970198,62.0,60.0,40.0,False,,238.22384867141022,[],"[768, 432]",ColorTask,51.0,109.0,,,HRV,HRV_0256,2022-11-30 20:09:33
,wl-html-keyboard-response,117,323445,0.0-7.0-0.0,1.0,117.0,,,,,,,,13473.20000000298,1.0,0,,,,,,,,,,,,,,,,,,,,,,HRV,HRV_0256,2022-11-30 20:09:33
,wl-rdm,118,325791,0.0-8.0-0.0,1.0,118.0,,,,,,,[],,,,,,53.2,0.0,i,1.0,False,1019.8999999985099,62.0,60.0,40.0,False,,250.05649776292398,[],"[768, 432]",ColorTask,50.0,1.0,,,HRV,HRV_0256,2022-11-30 20:09:33
,wl-rdm,119,327774,0.0-8.1-0.1,1.0,119.0,,,,,,,[],,,,,,62.5,1.0,i,1.0,True,587.3999999985099,36.0,60.0,40.0,False,,319.864996409291,[],"[768, 432]",ColorTask,51.0,2.0,,,HRV,HRV_0256,2022-11-30 20:09:33
,wl-rdm,120,329775,0.0-8.2-0.2,1.0,120.0,,,,,,,[],,,,,,53.2,1.0,i,1.0,True,594.5,36.0,60.0,40.0,False,,334.2771848614918,[],"[768, 432]",ColorTask,52.0,3.0,,,HRV,HRV_0256,2022-11-30 20:09:33
,wl-rdm,121,331776,0.0-8.3-0.3,1.0,121.0,,,,,,,[],,,,,,87.9,1.0,i,1.0,True,558.3000000044703,34.0,60.0,40.0,False,,374.02614901006183,[],"[768, 432]",ColorTask,53.0,4.0,,,HRV,HRV_0256,2022-11-30 20:09:33
,wl-rdm,122,334044,0.0-8.4-0.4,1.0,122.0,,,,,,,[],,,,,,50.0,1.0,u,0.0,False,872.8999999985099,53.0,60.0,40.0,False,,325.16668343235324,[],"[768, 432]",ColorTask,52.0,5.0,,,HRV,HRV_0256,2022-11-30 20:09:33
,wl-rdm,123,336194,0.0-8.5-0.5,1.0,123.0,,,,,,,[],,,,,,50.0,1.0,i,1.0,True,714.7999999970198,43.0,60.0,40.0,False,,370.5988163027879,[],"[768, 432]",ColorTask,53.0,6.0,,,HRV,HRV_0256,2022-11-30 20:09:33
,wl-rdm,124,338445,0.0-8.6-0.6,1.0,124.0,,,,,,,[],,,,,,87.9,0.0,u,0.0,True,920.6999999955297,56.0,60.0,40.0,False,,259.2487389135205,[],"[768, 432]",ColorTask,54.0,7.0,,,HRV,HRV_0256,2022-11-30 20:09:33
,wl-rdm,125,340546,0.0-8.7-0.7,1.0,125.0,,,,,,,[],,,,,,53.2,0.0,i,1.0,False,784.5999999940395,48.0,60.0,40.0,False,,224.11974961075978,[],"[768, 432]",ColorTask,53.0,8.0,,,HRV,HRV_0256,2022-11-30 20:09:33
,wl-rdm,126,342564,0.0-8.8-0.8,1.0,126.0,,,,,,,[],,,,,,56.4,0.0,i,1.0,False,605.3999999985099,37.0,60.0,40.0,False,,338.80067630548103,[],"[768, 432]",ColorTask,52.0,9.0,,,HRV,HRV_0256,2022-11-30 20:09:33
,wl-rdm,127,344547,0.0-8.9-0.9,1.0,127.0,,,,,,,[],,,,,,87.9,0.0,u,0.0,True,696.5,42.0,60.0,40.0,False,,228.66079548911233,[],"[768, 432]",ColorTask,53.0,10.0,,,HRV,HRV_0256,2022-11-30 20:09:33
,wl-rdm,128,347065,0.0-8.10-0.10,1.0,128.0,,,,,,,[],,,,,,53.2,1.0,i,1.0,True,1190.0,72.0,60.0,40.0,False,,257.9687442680448,[],"[768, 432]",ColorTask,54.0,11.0,,,HRV,HRV_0256,2022-11-30 20:09:33
,wl-rdm,129,349066,0.0-8.11-0.11,1.0,129.0,,,,,,,[],,,,,,53.2,1.0,i,1.0,True,681.5,41.0,60.0,40.0,False,,263.61409643348406,[],"[768, 432]",ColorTask,55.0,12.0,,,HRV,HRV_0256,2022-11-30 20:09:33
,wl-rdm,130,351233,0.0-8.12-0.12,1.0,130.0,,,,,,,[],,,,,,50.0,1.0,i,1.0,True,716.8999999985099,43.0,60.0,40.0,False,,370.97481813115894,[],"[768, 432]",ColorTask,56.0,13.0,,,HRV,HRV_0256,2022-11-30 20:09:33
,wl-rdm,131,353118,0.0-8.13-0.13,1.0,131.0,,,,,,,[],,,,,,53.2,1.0,i,1.0,True,595.9000000059605,36.0,60.0,40.0,False,,221.38342122739522,[],"[768, 432]",ColorTask,57.0,14.0,,,HRV,HRV_0256,2022-11-30 20:09:33
,wl-rdm,132,355668,0.0-8.14-0.14,1.0,132.0,,,,,,,[],,,,,,62.5,0.0,i,1.0,False,1205.7000000029802,73.0,60.0,40.0,False,,272.7614761370894,[],"[768, 432]",ColorTask,56.0,15.0,,,HRV,HRV_0256,2022-11-30 20:09:33
,wl-rdm,133,358069,0.0-8.15-0.15,1.0,133.0,,,,,,,[],,,,,,62.5,0.0,u,0.0,True,1128.5,68.0,60.0,40.0,False,,213.05280712542498,[],"[768, 432]",ColorTask,57.0,16.0,,,HRV,HRV_0256,2022-11-30 20:09:33
,wl-rdm,134,360654,0.0-8.16-0.16,1.0,134.0,,,,,,,[],,,,,,50.0,0.0,i,1.0,False,1178.5,71.0,60.0,40.0,False,,346.12358586839264,[],"[768, 432]",ColorTask,56.0,17.0,,,HRV,HRV_0256,2022-11-30 20:09:33
,wl-rdm,135,362672,0.0-8.17-0.17,1.0,135.0,,,,,,,[],,,,,,87.9,1.0,i,1.0,True,621.3999999985099,38.0,60.0,40.0,False,,315.336961168824,[],"[768, 432]",ColorTask,57.0,18.0,,,HRV,HRV_0256,2022-11-30 20:09:33
,wl-rdm,136,365055,0.0-8.18-0.18,1.0,136.0,,,,,,,[],,,,,,56.4,1.0,i,1.0,True,1009.3999999985099,61.0,60.0,40.0,False,,305.5977960920046,[],"[768, 432]",ColorTask,58.0,19.0,,,HRV,HRV_0256,2022-11-30 20:09:33
,wl-rdm,137,367373,0.0-8.19-0.19,1.0,137.0,,,,,,,[],,,,,,73.6,1.0,i,1.0,True,1038.1999999955297,63.0,60.0,40.0,False,,213.8950415267678,[],"[768, 432]",ColorTask,59.0,20.0,,,HRV,HRV_0256,2022-11-30 20:09:33
,wl-rdm,138,369774,0.0-8.20-0.20,1.0,138.0,,,,,,,[],,,,,,50.0,1.0,i,1.0,True,1061.3999999985099,64.0,60.0,40.0,False,,270.327340360148,[],"[768, 432]",ColorTask,60.0,21.0,,,HRV,HRV_0256,2022-11-30 20:09:33
,wl-rdm,139,372675,0.0-8.21-0.21,1.0,139.0,,,,,,,[],,,,,,56.4,0.0,u,0.0,True,1631.1000000014901,98.0,60.0,40.0,False,,211.22393207885398,[],"[768, 432]",ColorTask,61.0,22.0,,,HRV,HRV_0256,2022-11-30 20:09:33
,wl-rdm,140,374726,0.0-8.22-0.22,1.0,140.0,,,,,,,[],,,,,,87.9,1.0,i,1.0,True,776.6999999955297,47.0,60.0,40.0,False,,210.45691668107807,[],"[768, 432]",ColorTask,62.0,23.0,,,HRV,HRV_0256,2022-11-30 20:09:33
,wl-rdm,141,376860,0.0-8.23-0.23,1.0,141.0,,,,,,,[],,,,,,62.5,0.0,u,0.0,True,804.8999999985099,49.0,60.0,40.0,False,,257.38961988494196,[],"[768, 432]",ColorTask,63.0,24.0,,,HRV,HRV_0256,2022-11-30 20:09:33
,wl-rdm,142,379561,0.0-8.24-0.24,1.0,142.0,,,,,,,[],,,,,,50.0,0.0,i,1.0,False,1241.5,75.0,60.0,40.0,False,,390.31495770311955,[],"[768, 432]",ColorTask,62.0,25.0,,,HRV,HRV_0256,2022-11-30 20:09:33
,wl-rdm,143,382345,0.0-8.25-0.25,1.0,143.0,,,,,,,[],,,,,,56.4,0.0,u,0.0,True,1399.7999999970198,84.0,60.0,40.0,False,,326.80527168079533,[],"[768, 432]",ColorTask,63.0,26.0,,,HRV,HRV_0256,2022-11-30 20:09:33
,wl-rdm,144,384645,0.0-8.26-0.26,1.0,144.0,,,,,,,[],,,,,,62.5,0.0,u,0.0,True,987.5,60.0,60.0,40.0,False,,238.86238846474117,[],"[768, 432]",ColorTask,64.0,27.0,,,HRV,HRV_0256,2022-11-30 20:09:33
,wl-rdm,145,386630,0.0-8.27-0.27,1.0,145.0,,,,,,,[],,,,,,87.9,0.0,u,0.0,True,593.0,36.0,60.0,40.0,False,,317.6914378467427,[],"[768, 432]",ColorTask,65.0,28.0,,,HRV,HRV_0256,2022-11-30 20:09:33
,wl-rdm,146,388764,0.0-8.28-0.28,1.0,146.0,,,,,,,[],,,,,,73.6,1.0,i,1.0,True,779.2000000029802,47.0,60.0,40.0,False,,290.57041617558934,[],"[768, 432]",ColorTask,66.0,29.0,,,HRV,HRV_0256,2022-11-30 20:09:33
,wl-rdm,147,391248,0.0-8.29-0.29,1.0,147.0,,,,,,,[],,,,,,53.2,0.0,i,1.0,False,1099.3999999985099,66.0,60.0,40.0,False,,324.8302215701806,[],"[768, 432]",ColorTask,65.0,30.0,,,HRV,HRV_0256,2022-11-30 20:09:33
,wl-rdm,148,393532,0.0-8.30-0.30,1.0,148.0,,,,,,,[],,,,,,53.2,1.0,i,1.0,True,887.2999999970198,54.0,60.0,40.0,False,,330.9466418036344,[],"[768, 432]",ColorTask,66.0,31.0,,,HRV,HRV_0256,2022-11-30 20:09:33
,wl-rdm,149,395617,0.0-8.31-0.31,1.0,149.0,,,,,,,[],,,,,,73.6,1.0,i,1.0,True,708.6000000014901,43.0,60.0,40.0,False,,315.29527454990995,[],"[768, 432]",ColorTask,67.0,32.0,,,HRV,HRV_0256,2022-11-30 20:09:33
,wl-rdm,150,397884,0.0-8.32-0.32,1.0,150.0,,,,,,,[],,,,,,50.0,0.0,u,0.0,True,938.2000000029802,57.0,60.0,40.0,False,,266.671379660346,[],"[768, 432]",ColorTask,68.0,33.0,,,HRV,HRV_0256,2022-11-30 20:09:33
,wl-rdm,151,399835,0.0-8.33-0.33,1.0,151.0,,,,,,,[],,,,,,87.9,0.0,u,0.0,True,631.0,38.0,60.0,40.0,False,,262.1230454146907,[],"[768, 432]",ColorTask,69.0,34.0,,,HRV,HRV_0256,2022-11-30 20:09:33
,wl-rdm,152,401836,0.0-8.34-0.34,1.0,152.0,,,,,,,[],,,,,,73.6,0.0,u,0.0,True,655.1999999955297,40.0,60.0,40.0,False,,275.5310290083016,[],"[768, 432]",ColorTask,70.0,35.0,,,HRV,HRV_0256,2022-11-30 20:09:33
,wl-rdm,153,403786,0.0-8.35-0.35,1.0,153.0,,,,,,,[],,,,,,73.6,0.0,u,0.0,True,672.2000000029802,41.0,60.0,40.0,False,,210.89743752233832,[],"[768, 432]",ColorTask,71.0,36.0,,,HRV,HRV_0256,2022-11-30 20:09:33
,wl-rdm,154,405720,0.0-8.36-0.36,1.0,154.0,,,,,,,[],,,,,,87.9,0.0,u,0.0,True,549.6000000014901,33.0,60.0,40.0,False,,320.03844569592,[],"[768, 432]",ColorTask,72.0,37.0,,,HRV,HRV_0256,2022-11-30 20:09:33
,wl-rdm,155,408121,0.0-8.37-0.37,1.0,155.0,,,,,,,[],,,,,,73.6,0.0,i,1.0,False,1048.5,63.0,60.0,40.0,False,,298.9079015187725,[],"[768, 432]",ColorTask,71.0,38.0,,,HRV,HRV_0256,2022-11-30 20:09:33
,wl-rdm,156,410055,0.0-8.38-0.38,1.0,156.0,,,,,,,[],,,,,,73.6,1.0,i,1.0,True,652.2000000029802,40.0,60.0,40.0,False,,205.33653318432917,[],"[768, 432]",ColorTask,72.0,39.0,,,HRV,HRV_0256,2022-11-30 20:09:33
,wl-rdm,157,412289,0.0-8.39-0.39,1.0,157.0,,,,,,,[],,,,,,62.5,0.0,u,0.0,True,825.2000000029802,50.0,60.0,40.0,False,,344.1781805733571,[],"[768, 432]",ColorTask,73.0,40.0,,,HRV,HRV_0256,2022-11-30 20:09:33
,wl-rdm,158,414857,0.0-8.40-0.40,1.0,158.0,,,,,,,[],,,,,,62.5,0.0,u,0.0,True,1198.6000000014901,72.0,60.0,40.0,False,,311.7066655427433,[],"[768, 432]",ColorTask,74.0,41.0,,,HRV,HRV_0256,2022-11-30 20:09:33
,wl-rdm,159,417025,0.0-8.41-0.41,1.0,159.0,,,,,,,[],,,,,,62.5,0.0,i,1.0,False,865.8999999985099,52.0,60.0,40.0,False,,241.69575527853317,[],"[768, 432]",ColorTask,73.0,42.0,,,HRV,HRV_0256,2022-11-30 20:09:33
,wl-rdm,160,419309,0.0-8.42-0.42,1.0,160.0,,,,,,,[],,,,,,87.9,0.0,u,0.0,True,870.2000000029802,53.0,60.0,40.0,False,,346.7951123564226,[],"[768, 432]",ColorTask,74.0,43.0,,,HRV,HRV_0256,2022-11-30 20:09:33
,wl-rdm,161,421377,0.0-8.43-0.43,1.0,161.0,,,,,,,[],,,,,,56.4,1.0,i,1.0,True,685.6000000014901,42.0,60.0,40.0,False,,284.2404100620875,[],"[768, 432]",ColorTask,75.0,44.0,,,HRV,HRV_0256,2022-11-30 20:09:33
,wl-rdm,162,424327,0.0-8.44-0.44,1.0,162.0,,,,,,,[],,,,,,53.2,0.0,u,0.0,True,1635.0,99.0,60.0,40.0,False,,246.40033789440537,[],"[768, 432]",ColorTask,76.0,45.0,,,HRV,HRV_0256,2022-11-30 20:09:33
,wl-rdm,163,426412,0.0-8.45-0.45,1.0,163.0,,,,,,,[],,,,,,87.9,1.0,i,1.0,True,655.3000000044703,40.0,60.0,40.0,False,,345.0257353686467,[],"[768, 432]",ColorTask,77.0,46.0,,,HRV,HRV_0256,2022-11-30 20:09:33
,wl-rdm,164,428996,0.0-8.46-0.46,1.0,164.0,,,,,,,[],,,,,,53.2,1.0,u,0.0,False,1221.0,74.0,60.0,40.0,False,,298.63140977513575,[],"[768, 432]",ColorTask,76.0,47.0,,,HRV,HRV_0256,2022-11-30 20:09:33
,wl-rdm,165,431080,0.0-8.47-0.47,1.0,165.0,,,,,,,[],,,,,,56.4,0.0,i,1.0,False,790.7999999970198,48.0,60.0,40.0,False,,226.22638253620048,[],"[768, 432]",ColorTask,75.0,48.0,,,HRV,HRV_0256,2022-11-30 20:09:33
,wl-rdm,166,433614,0.0-8.48-0.48,1.0,166.0,,,,,,,[],,,,,,50.0,0.0,i,1.0,False,1210.2000000029802,73.0,60.0,40.0,False,,262.0099808023363,[],"[768, 432]",ColorTask,74.0,49.0,,,HRV,HRV_0256,2022-11-30 20:09:33
,wl-rdm,167,436365,0.0-8.49-0.49,1.0,167.0,,,,,,,[],,,,,,73.6,1.0,i,1.0,True,1388.0,84.0,60.0,40.0,False,,286.31253178605317,[],"[768, 432]",ColorTask,75.0,50.0,,,HRV,HRV_0256,2022-11-30 20:09:33
,wl-rdm,168,438516,0.0-8.50-0.50,1.0,168.0,,,,,,,[],,,,,,56.4,0.0,u,0.0,True,854.2000000029802,52.0,60.0,40.0,False,,232.66670500832421,[],"[768, 432]",ColorTask,76.0,51.0,,,HRV,HRV_0256,2022-11-30 20:09:33
,wl-rdm,169,440434,0.0-8.51-0.51,1.0,169.0,,,,,,,[],,,,,,73.6,1.0,i,1.0,True,640.5000000074506,39.0,60.0,40.0,False,,202.17206067454137,[],"[768, 432]",ColorTask,77.0,52.0,,,HRV,HRV_0256,2022-11-30 20:09:33
,wl-rdm,170,443818,0.0-8.52-0.52,1.0,170.0,,,,,,,[],,,,,,53.2,0.0,u,0.0,True,1931.0999999940395,116.0,60.0,40.0,False,,383.94115590192587,[],"[768, 432]",ColorTask,78.0,53.0,,,HRV,HRV_0256,2022-11-30 20:09:33
,wl-rdm,171,446736,0.0-8.53-0.53,1.0,171.0,,,,,,,[],,,,,,56.4,0.0,u,0.0,True,1536.0,93.0,60.0,40.0,False,,300.3411779730769,[],"[768, 432]",ColorTask,79.0,54.0,,,HRV,HRV_0256,2022-11-30 20:09:33
,wl-rdm,172,449087,0.0-8.54-0.54,1.0,172.0,,,,,,,[],,,,,,56.4,1.0,i,1.0,True,1026.5,62.0,60.0,40.0,False,,250.88093591724152,[],"[768, 432]",ColorTask,80.0,55.0,,,HRV,HRV_0256,2022-11-30 20:09:33
,wl-rdm,173,451405,0.0-8.55-0.55,1.0,173.0,,,,,,,[],,,,,,50.0,1.0,i,1.0,True,1004.6000000014901,61.0,60.0,40.0,False,,223.5171673826004,[],"[768, 432]",ColorTask,81.0,56.0,,,HRV,HRV_0256,2022-11-30 20:09:33
,wl-rdm,174,453372,0.0-8.56-0.56,1.0,174.0,,,,,,,[],,,,,,53.2,0.0,i,1.0,False,662.0999999940395,40.0,60.0,40.0,False,,237.76937659798264,[],"[768, 432]",ColorTask,80.0,57.0,,,HRV,HRV_0256,2022-11-30 20:09:33
,wl-rdm,175,455640,0.0-8.57-0.57,1.0,175.0,,,,,,,[],,,,,,50.0,0.0,i,1.0,False,909.3999999985099,55.0,60.0,40.0,False,,285.55543437263657,[],"[768, 432]",ColorTask,79.0,58.0,,,HRV,HRV_0256,2022-11-30 20:09:33
,wl-rdm,176,458691,0.0-8.58-0.58,1.0,176.0,,,,,,,[],,,,,,62.5,1.0,i,1.0,True,1772.0999999940395,107.0,60.0,40.0,False,,202.55935956409743,[],"[768, 432]",ColorTask,80.0,59.0,,,HRV,HRV_0256,2022-11-30 20:09:33
,wl-rdm,177,460708,0.0-8.59-0.59,1.0,177.0,,,,,,,[],,,,,,62.5,1.0,i,1.0,True,695.6000000014901,42.0,60.0,40.0,False,,255.09426855386178,[],"[768, 432]",ColorTask,81.0,60.0,,,HRV,HRV_0256,2022-11-30 20:09:33
,wl-rdm,178,462742,0.0-8.60-0.60,1.0,178.0,,,,,,,[],,,,,,56.4,1.0,i,1.0,True,726.5,44.0,60.0,40.0,False,,249.65545118419487,[],"[768, 432]",ColorTask,82.0,61.0,,,HRV,HRV_0256,2022-11-30 20:09:33
,wl-rdm,179,464860,0.0-8.61-0.61,1.0,179.0,,,,,,,[],,,,,,73.6,0.0,u,0.0,True,720.8999999985099,44.0,60.0,40.0,False,,325.17971054711245,[],"[768, 432]",ColorTask,83.0,62.0,,,HRV,HRV_0256,2022-11-30 20:09:33
,wl-rdm,180,467277,0.0-8.62-0.62,1.0,180.0,,,,,,,[],,,,,,73.6,0.0,u,0.0,True,1062.0,64.0,60.0,40.0,False,,292.07193654900567,[],"[768, 432]",ColorTask,84.0,63.0,,,HRV,HRV_0256,2022-11-30 20:09:33
,wl-rdm,181,469578,0.0-8.63-0.63,1.0,181.0,,,,,,,[],,,,,,50.0,1.0,i,1.0,True,1014.2999999970198,61.0,60.0,40.0,False,,226.0575654591946,[],"[768, 432]",ColorTask,85.0,64.0,,,HRV,HRV_0256,2022-11-30 20:09:33
,wl-rdm,182,472063,0.0-8.64-0.64,1.0,182.0,,,,,,,[],,,,,,73.6,0.0,u,0.0,True,1209.8999999985099,73.0,60.0,40.0,False,,214.6850905916575,[],"[768, 432]",ColorTask,86.0,65.0,,,HRV,HRV_0256,2022-11-30 20:09:33
,wl-rdm,183,475164,0.0-8.65-0.65,1.0,183.0,,,,,,,[],,,,,,50.0,0.0,i,1.0,False,1812.6999999955297,109.0,60.0,40.0,False,,221.99222564593387,[],"[768, 432]",ColorTask,85.0,66.0,,,HRV,HRV_0256,2022-11-30 20:09:33
,wl-rdm,184,477448,0.0-8.66-0.66,1.0,184.0,,,,,,,[],,,,,,87.9,1.0,i,1.0,True,1001.7999999970198,61.0,60.0,40.0,False,,204.48960036881618,[],"[768, 432]",ColorTask,86.0,67.0,,,HRV,HRV_0256,2022-11-30 20:09:33
,wl-rdm,185,479415,0.0-8.67-0.67,1.0,185.0,,,,,,,[],,,,,,87.9,1.0,i,1.0,True,616.5999999940395,37.0,60.0,40.0,False,,285.6604891513452,[],"[768, 432]",ColorTask,87.0,68.0,,,HRV,HRV_0256,2022-11-30 20:09:33
,wl-rdm,186,481850,0.0-8.68-0.68,1.0,186.0,,,,,,,[],,,,,,53.2,0.0,u,0.0,True,1141.4999999925494,69.0,60.0,40.0,False,,206.4182335494508,[],"[768, 432]",ColorTask,88.0,69.0,,,HRV,HRV_0256,2022-11-30 20:09:33
,wl-rdm,187,484401,0.0-8.69-0.69,1.0,187.0,,,,,,,[],,,,,,62.5,1.0,u,0.0,False,1208.2000000029802,73.0,60.0,40.0,False,,270.23949890065614,[],"[768, 432]",ColorTask,87.0,70.0,,,HRV,HRV_0256,2022-11-30 20:09:33
,wl-rdm,188,486535,0.0-8.70-0.70,1.0,188.0,,,,,,,[],,,,,,50.0,1.0,i,1.0,True,769.0,47.0,60.0,40.0,False,,294.93732633516754,[],"[768, 432]",ColorTask,88.0,71.0,,,HRV,HRV_0256,2022-11-30 20:09:33
,wl-rdm,189,488436,0.0-8.71-0.71,1.0,189.0,,,,,,,[],,,,,,73.6,1.0,i,1.0,True,463.20000000298023,28.0,60.0,40.0,False,,381.12233929959615,[],"[768, 432]",ColorTask,89.0,72.0,,,HRV,HRV_0256,2022-11-30 20:09:33
,wl-rdm,190,490470,0.0-8.72-0.72,1.0,190.0,,,,,,,[],,,,,,62.5,1.0,i,1.0,True,727.6000000014901,44.0,60.0,40.0,False,,235.4117936451328,[],"[768, 432]",ColorTask,90.0,73.0,,,HRV,HRV_0256,2022-11-30 20:09:33
,wl-rdm,191,492470,0.0-8.73-0.73,1.0,191.0,,,,,,,[],,,,,,53.2,1.0,i,1.0,True,586.3999999985099,36.0,60.0,40.0,False,,338.92781625699297,[],"[768, 432]",ColorTask,91.0,74.0,,,HRV,HRV_0256,2022-11-30 20:09:33
,wl-rdm,192,494738,0.0-8.74-0.74,1.0,192.0,,,,,,,[],,,,,,53.2,0.0,u,0.0,True,905.8999999985099,55.0,60.0,40.0,False,,288.4315735820129,[],"[768, 432]",ColorTask,92.0,75.0,,,HRV,HRV_0256,2022-11-30 20:09:33
,wl-rdm,193,496638,0.0-8.75-0.75,1.0,193.0,,,,,,,[],,,,,,56.4,1.0,i,1.0,True,619.1000000014901,38.0,60.0,40.0,False,,213.68382972236552,[],"[768, 432]",ColorTask,93.0,76.0,,,HRV,HRV_0256,2022-11-30 20:09:33
,wl-rdm,194,499606,0.0-8.76-0.76,1.0,194.0,,,,,,,[],,,,,,62.5,0.0,u,0.0,True,1510.3000000044703,91.0,60.0,40.0,False,,379.80096213012314,[],"[768, 432]",ColorTask,94.0,77.0,,,HRV,HRV_0256,2022-11-30 20:09:33
,wl-rdm,195,501841,0.0-8.77-0.77,1.0,195.0,,,,,,,[],,,,,,87.9,1.0,i,1.0,True,775.0999999940395,47.0,60.0,40.0,False,,383.9660149128503,[],"[768, 432]",ColorTask,95.0,78.0,,,HRV,HRV_0256,2022-11-30 20:09:33
,wl-rdm,196,504358,0.0-8.78-0.78,1.0,196.0,,,,,,,[],,,,,,62.5,1.0,i,1.0,True,1154.2000000029802,70.0,60.0,40.0,False,,284.6179787148939,[],"[768, 432]",ColorTask,96.0,79.0,,,HRV,HRV_0256,2022-11-30 20:09:33
,wl-rdm,197,507159,0.0-8.79-0.79,1.0,197.0,,,,,,,[],,,,,,56.4,0.0,i,1.0,False,1426.0999999940395,86.0,60.0,40.0,False,,307.53996170034577,[],"[768, 432]",ColorTask,95.0,80.0,,,HRV,HRV_0256,2022-11-30 20:09:33
,wl-rdm,198,509677,0.0-8.80-0.80,1.0,198.0,,,,,,,[],,,,,,62.5,0.0,u,0.0,True,1196.6999999955297,72.0,60.0,40.0,False,,252.29071303957656,[],"[768, 432]",ColorTask,96.0,81.0,,,HRV,HRV_0256,2022-11-30 20:09:33
,wl-rdm,199,511911,0.0-8.81-0.81,1.0,199.0,,,,,,,[],,,,,,73.6,0.0,u,0.0,True,853.1999999955297,52.0,60.0,40.0,False,,292.51121811676774,[],"[768, 432]",ColorTask,97.0,82.0,,,HRV,HRV_0256,2022-11-30 20:09:33
,wl-rdm,200,513829,0.0-8.82-0.82,1.0,200.0,,,,,,,[],,,,,,87.9,0.0,u,0.0,True,511.70000000298023,31.0,60.0,40.0,False,,336.14733443450496,[],"[768, 432]",ColorTask,98.0,83.0,,,HRV,HRV_0256,2022-11-30 20:09:33
,wl-rdm,201,515846,0.0-8.83-0.83,1.0,201.0,,,,,,,[],,,,,,53.2,1.0,i,1.0,True,710.2999999970198,43.0,60.0,40.0,False,,237.20023842039188,[],"[768, 432]",ColorTask,99.0,84.0,,,HRV,HRV_0256,2022-11-30 20:09:33
,wl-rdm,202,518030,0.0-8.84-0.84,1.0,202.0,,,,,,,[],,,,,,87.9,0.0,u,0.0,True,876.4000000059605,53.0,60.0,40.0,False,,235.23479765313832,[],"[768, 432]",ColorTask,100.0,85.0,,,HRV,HRV_0256,2022-11-30 20:09:33
,wl-rdm,203,520431,0.0-8.85-0.85,1.0,203.0,,,,,,,[],,,,,,50.0,0.0,i,1.0,False,1052.5999999940395,64.0,60.0,40.0,False,,269.9214104138721,[],"[768, 432]",ColorTask,99.0,86.0,,,HRV,HRV_0256,2022-11-30 20:09:33
,wl-rdm,204,522732,0.0-8.86-0.86,1.0,204.0,,,,,,,[],,,,,,53.2,0.0,i,1.0,False,1030.3999999985099,62.0,60.0,40.0,False,,204.3476518162972,[],"[768, 432]",ColorTask,98.0,87.0,,,HRV,HRV_0256,2022-11-30 20:09:33
,wl-rdm,205,524883,0.0-8.87-0.87,1.0,205.0,,,,,,,[],,,,,,73.6,1.0,u,0.0,False,788.4000000059605,48.0,60.0,40.0,False,,288.2821158147509,[],"[768, 432]",ColorTask,97.0,88.0,,,HRV,HRV_0256,2022-11-30 20:09:33
,wl-rdm,206,527000,0.0-8.88-0.88,1.0,206.0,,,,,,,[],,,,,,62.5,1.0,i,1.0,True,835.6999999955297,51.0,60.0,40.0,False,,200.11400379361922,[],"[768, 432]",ColorTask,98.0,89.0,,,HRV,HRV_0256,2022-11-30 20:09:33
,wl-rdm,207,529468,0.0-8.89-0.89,1.0,207.0,,,,,,,[],,,,,,56.4,0.0,u,0.0,True,1096.2999999970198,66.0,60.0,40.0,False,,303.87301352741395,[],"[768, 432]",ColorTask,99.0,90.0,,,HRV,HRV_0256,2022-11-30 20:09:33
,wl-rdm,208,531335,0.0-8.90-0.90,1.0,208.0,,,,,,,[],,,,,,87.9,0.0,u,0.0,True,585.8999999985099,36.0,60.0,40.0,False,,209.04731463716968,[],"[768, 432]",ColorTask,100.0,91.0,,,HRV,HRV_0256,2022-11-30 20:09:33
,wl-rdm,209,533486,0.0-8.91-0.91,1.0,209.0,,,,,,,[],,,,,,56.4,1.0,i,1.0,True,754.0,46.0,60.0,40.0,False,,318.0077061922633,[],"[768, 432]",ColorTask,101.0,92.0,,,HRV,HRV_0256,2022-11-30 20:09:33
,wl-rdm,210,535487,0.0-8.92-0.92,1.0,210.0,,,,,,,[],,,,,,73.6,1.0,i,1.0,True,609.6000000014901,37.0,60.0,40.0,False,,330.93445270873804,[],"[768, 432]",ColorTask,102.0,93.0,,,HRV,HRV_0256,2022-11-30 20:09:33
,wl-rdm,211,537637,0.0-8.93-0.93,1.0,211.0,,,,,,,[],,,,,,62.5,1.0,i,1.0,True,777.0,47.0,60.0,40.0,False,,313.2163816645274,[],"[768, 432]",ColorTask,103.0,94.0,,,HRV,HRV_0256,2022-11-30 20:09:33
,wl-rdm,212,539672,0.0-8.94-0.94,1.0,212.0,,,,,,,[],,,,,,73.6,0.0,u,0.0,True,725.1999999955297,44.0,60.0,40.0,False,,242.7286270892024,[],"[768, 432]",ColorTask,104.0,95.0,,,HRV,HRV_0256,2022-11-30 20:09:33
,wl-rdm,213,541756,0.0-8.95-0.95,1.0,213.0,,,,,,,[],,,,,,56.4,1.0,i,1.0,True,721.0,44.0,60.0,40.0,False,,298.56821320516485,[],"[768, 432]",ColorTask,105.0,96.0,,,HRV,HRV_0256,2022-11-30 20:09:33
,wl-rdm,214,543940,0.0-8.96-0.96,1.0,214.0,,,,,,,[],,,,,,56.4,0.0,u,0.0,True,737.7000000029802,45.0,60.0,40.0,False,,375.63417518170775,[],"[768, 432]",ColorTask,106.0,97.0,,,HRV,HRV_0256,2022-11-30 20:09:33
,wl-rdm,215,545957,0.0-8.97-0.97,1.0,215.0,,,,,,,[],,,,,,73.6,0.0,u,0.0,True,728.2000000029802,44.0,60.0,40.0,False,,221.65759107078424,[],"[768, 432]",ColorTask,107.0,98.0,,,HRV,HRV_0256,2022-11-30 20:09:33
,wl-rdm,216,548191,0.0-8.98-0.98,1.0,216.0,,,,,,,[],,,,,,50.0,1.0,i,1.0,True,885.2999999970198,54.0,60.0,40.0,False,,278.39266266221193,[],"[768, 432]",ColorTask,108.0,99.0,,,HRV,HRV_0256,2022-11-30 20:09:33
,wl-rdm,217,550426,0.0-8.99-0.99,1.0,217.0,,,,,,,[],,,,,,87.9,1.0,i,1.0,True,798.0,48.0,60.0,40.0,False,,369.63300013664417,[],"[768, 432]",ColorTask,109.0,100.0,,,HRV,HRV_0256,2022-11-30 20:09:33
,wl-rdm,218,552410,0.0-8.100-0.100,1.0,218.0,,,,,,,[],,,,,,87.9,1.0,i,1.0,True,647.6000000014901,39.0,60.0,40.0,False,,278.0884904582351,[],"[768, 432]",ColorTask,110.0,101.0,,,HRV,HRV_0256,2022-11-30 20:09:33
,wl-rdm,219,554260,0.0-8.101-0.101,1.0,219.0,,,,,,,[],,,,,,50.0,0.0,i,1.0,False,495.09999999403954,30.0,60.0,40.0,False,,299.50962335054567,[],"[768, 432]",ColorTask,109.0,102.0,,,HRV,HRV_0256,2022-11-30 20:09:33
,wl-rdm,220,556311,0.0-8.102-0.102,1.0,220.0,,,,,,,[],,,,,,56.4,1.0,i,1.0,True,602.0,37.0,60.0,40.0,False,,381.4878655017503,[],"[768, 432]",ColorTask,110.0,103.0,,,HRV,HRV_0256,2022-11-30 20:09:33
,wl-rdm,221,558245,0.0-8.103-0.103,1.0,221.0,,,,,,,[],,,,,,62.5,1.0,i,1.0,True,578.2999999970198,35.0,60.0,40.0,False,,284.2594868662926,[],"[768, 432]",ColorTask,111.0,104.0,,,HRV,HRV_0256,2022-11-30 20:09:33
,wl-rdm,222,560313,0.0-8.104-0.104,1.0,222.0,,,,,,,[],,,,,,50.0,0.0,u,0.0,True,658.1000000014901,40.0,60.0,40.0,False,,317.86411281526597,[],"[768, 432]",ColorTask,112.0,105.0,,,HRV,HRV_0256,2022-11-30 20:09:33
,wl-rdm,223,562997,0.0-8.105-0.105,1.0,223.0,,,,,,,[],,,,,,56.4,1.0,u,0.0,False,1270.7999999970198,77.0,60.0,40.0,False,,337.52906969172545,[],"[768, 432]",ColorTask,111.0,106.0,,,HRV,HRV_0256,2022-11-30 20:09:33
,wl-rdm,224,565031,0.0-8.106-0.106,1.0,224.0,,,,,,,[],,,,,,53.2,1.0,u,0.0,False,719.1000000014901,44.0,60.0,40.0,False,,241.9899476012938,[],"[768, 432]",ColorTask,110.0,107.0,,,HRV,HRV_0256,2022-11-30 20:09:33
,wl-rdm,225,567148,0.0-8.107-0.107,1.0,225.0,,,,,,,[],,,,,,50.0,1.0,u,0.0,False,812.2999999970198,49.0,60.0,40.0,False,,248.84272328061724,[],"[768, 432]",ColorTask,109.0,108.0,,,HRV,HRV_0256,2022-11-30 20:09:33
,wl-html-button-response,226,570410,0.0-9.0-0.0,,,,,,,,,,3258.1999999955297,,0,,,,,,,,,,,,,,,,,,,,<h3>End of this session. Thank you!</h3><br>,['Close window'],HRV,HRV_0256,2022-11-30 20:09:33
