trialN,stimuli,question,trialStartTime,trialStartTime_UNIX,stimulus1,rt,receivedResponse,rating,trialEndTime,trialDuration,stimulus1Loaded,exp,subjectId,date
0,"[{'imgObject': {}, 'id': 'avocado', 'src': '/static/foodstim60/avocado.jpg', 'key': 'NaN', 'origWidth': 409, 'origHeight': 409, 'width': 409, 'height': 409, 'widthPercent': 0.8, 'rescaleHeight': True, 'trialN': 0, 'loaded': True, 'loadedTime': 2602.60000000149, 'positionName': 'CENTER', 'positionCoords': [563.5, 227.5]}]",Rate how much you want to eat this food from 0 (least) to 10 (most).,2645.2000000029802,1669836457646,avocado,2595.7999999970198,True,0.05,5241.0,2595.7999999970198,True,HRV,HRV_0256,2022-11-30 19:30:24
1,"[{'imgObject': {}, 'id': 'apple slices', 'src': '/static/foodstim60/apple slices.jpg', 'key': 'NaN', 'origWidth': 409, 'origHeight': 410, 'width': 409, 'height': 410, 'widthPercent': 0.8, 'rescaleHeight': True, 'trialN': 1, 'loaded': True, 'loadedTime': 2602.9000000059605, 'positionName': 'CENTER', 'positionCoords': [563.5, 227]}]",Rate how much you want to eat this food from 0 (least) to 10 (most).,5242.60000000149,1669836460244,apple slices,2093.8000000044703,True,7.17,7336.4000000059605,2093.8000000044703,True,HRV,HRV_0256,2022-11-30 19:30:24
2,"[{'imgObject': {}, 'id': 'kiwi', 'src': '/static/foodstim60/kiwi.jpg', 'key': 'NaN', 'origWidth': 410, 'origHeight': 410, 'width': 410, 'height': 410, 'widthPercent': 0.8, 'rescaleHeight': True, 'trialN': 2, 'loaded': True, 'loadedTime': 2603, 'positionName': 'CENTER', 'positionCoords': [563, 227]}]",Rate how much you want to eat this food from 0 (least) to 10 (most).,7337.60000000149,1669836462339,kiwi,1198.2000000029802,True,6.51,8535.80000000447,1198.2000000029802,True,HRV,HRV_0256,2022-11-30 19:30:24
3,"[{'imgObject': {}, 'id': 'steak', 'src': '/static/foodstim60/steak.jpg', 'key': 'NaN', 'origWidth': 410, 'origHeight': 410, 'width': 410, 'height': 410, 'widthPercent': 0.8, 'rescaleHeight': True, 'trialN': 3, 'loaded': True, 'loadedTime': 2603.10000000149, 'positionName': 'CENTER', 'positionCoords': [563, 227]}]",Rate how much you want to eat this food from 0 (least) to 10 (most).,8537.10000000149,1669836463538,steak,6779.0,True,5.75,15316.10000000149,6779.0,True,HRV,HRV_0256,2022-11-30 19:30:24
4,"[{'imgObject': {}, 'id': 'yogurt no spoon', 'src': '/static/foodstim60/yogurt no spoon.jpg', 'key': 'NaN', 'origWidth': 411, 'origHeight': 410, 'width': 411, 'height': 410, 'widthPercent': 0.8, 'rescaleHeight': True, 'trialN': 4, 'loaded': True, 'loadedTime': 2603.8000000044703, 'positionName': 'CENTER', 'positionCoords': [562.5, 227]}]",Rate how much you want to eat this food from 0 (least) to 10 (most).,15317.70000000298,1669836470319,yogurt no spoon,1597.2000000029802,True,4.66,16914.90000000596,1597.2000000029802,True,HRV,HRV_0256,2022-11-30 19:30:24
5,"[{'imgObject': {}, 'id': 'sweetpotato', 'src': '/static/foodstim60/sweetpotato.jpg', 'key': 'NaN', 'origWidth': 410, 'origHeight': 410, 'width': 410, 'height': 410, 'widthPercent': 0.8, 'rescaleHeight': True, 'trialN': 5, 'loaded': True, 'loadedTime': 2604.7000000029802, 'positionName': 'CENTER', 'positionCoords': [563, 227]}]",Rate how much you want to eat this food from 0 (least) to 10 (most).,16916.30000000447,1669836471917,sweetpotato,1678.6000000014901,True,0.06,18594.90000000596,1678.6000000014901,True,HRV,HRV_0256,2022-11-30 19:30:24
6,"[{'imgObject': {}, 'id': 'fried eggs', 'src': '/static/foodstim60/fried eggs.jpg', 'key': 'NaN', 'origWidth': 410, 'origHeight': 410, 'width': 410, 'height': 410, 'widthPercent': 0.8, 'rescaleHeight': True, 'trialN': 6, 'loaded': True, 'loadedTime': 2605.4000000059605, 'positionName': 'CENTER', 'positionCoords': [563, 227]}]",Rate how much you want to eat this food from 0 (least) to 10 (most).,18596.30000000447,1669836473597,fried eggs,1293.1000000014901,True,5.72,19889.40000000596,1293.1000000014901,True,HRV,HRV_0256,2022-11-30 19:30:24
7,"[{'imgObject': {}, 'id': 'corn cob', 'src': '/static/foodstim60/corn cob.jpg', 'key': 'NaN', 'origWidth': 411, 'origHeight': 411, 'width': 411, 'height': 411, 'widthPercent': 0.8, 'rescaleHeight': True, 'trialN': 7, 'loaded': True, 'loadedTime': 2606, 'positionName': 'CENTER', 'positionCoords': [562.5, 226.5]}]",Rate how much you want to eat this food from 0 (least) to 10 (most).,19890.70000000298,1669836474892,corn cob,2846.0,True,0.0,22736.70000000298,2846.0,True,HRV,HRV_0256,2022-11-30 19:30:24
8,"[{'imgObject': {}, 'id': 'baked potato', 'src': '/static/foodstim60/baked potato.jpg', 'key': 'NaN', 'origWidth': 409, 'origHeight': 410, 'width': 409, 'height': 410, 'widthPercent': 0.8, 'rescaleHeight': True, 'trialN': 8, 'loaded': True, 'loadedTime': 2606.5, 'positionName': 'CENTER', 'positionCoords': [563.5, 227]}]",Rate how much you want to eat this food from 0 (least) to 10 (most).,22738.20000000298,1669836477739,baked potato,1500.5,True,0.03,24238.70000000298,1500.5,True,HRV,HRV_0256,2022-11-30 19:30:24
9,"[{'imgObject': {}, 'id': 'banana', 'src': '/static/foodstim60/banana.jpg', 'key': 'NaN', 'origWidth': 410, 'origHeight': 410, 'width': 410, 'height': 410, 'widthPercent': 0.8, 'rescaleHeight': True, 'trialN': 9, 'loaded': True, 'loadedTime': 2606.9000000059605, 'positionName': 'CENTER', 'positionCoords': [563, 227]}]",Rate how much you want to eat this food from 0 (least) to 10 (most).,24239.90000000596,1669836479241,banana,1165.8999999985099,True,6.19,25405.80000000447,1165.8999999985099,True,HRV,HRV_0256,2022-11-30 19:30:24
10,"[{'imgObject': {}, 'id': 'froot loops w milk', 'src': '/static/foodstim60/froot loops w milk.jpg', 'key': 'NaN', 'origWidth': 410, 'origHeight': 410, 'width': 410, 'height': 410, 'widthPercent': 0.8, 'rescaleHeight': True, 'trialN': 10, 'loaded': True, 'loadedTime': 2607.4000000059605, 'positionName': 'CENTER', 'positionCoords': [563, 227]}]",Rate how much you want to eat this food from 0 (least) to 10 (most).,25407.30000000447,1669836480408,froot loops w milk,2069.7999999970198,True,5.0,27477.10000000149,2069.7999999970198,True,HRV,HRV_0256,2022-11-30 19:30:24
11,"[{'imgObject': {}, 'id': 'ice cream sundae 002', 'src': '/static/foodstim60/ice cream sundae 002.jpg', 'key': 'NaN', 'origWidth': 409, 'origHeight': 409, 'width': 409, 'height': 409, 'widthPercent': 0.8, 'rescaleHeight': True, 'trialN': 11, 'loaded': True, 'loadedTime': 2607.9000000059605, 'positionName': 'CENTER', 'positionCoords': [563.5, 227.5]}]",Rate how much you want to eat this food from 0 (least) to 10 (most).,27478.60000000149,1669836482480,ice cream sundae 002,2133.0,True,5.09,29611.60000000149,2133.0,True,HRV,HRV_0256,2022-11-30 19:30:24
12,"[{'imgObject': {}, 'id': 'grilled chicken strips', 'src': '/static/foodstim60/grilled chicken strips.jpg', 'key': 'NaN', 'origWidth': 410, 'origHeight': 411, 'width': 410, 'height': 411, 'widthPercent': 0.8, 'rescaleHeight': True, 'trialN': 12, 'loaded': True, 'loadedTime': 2608.3000000044703, 'positionName': 'CENTER', 'positionCoords': [563, 226.5]}]",Rate how much you want to eat this food from 0 (least) to 10 (most).,29613.40000000596,1669836484614,grilled chicken strips,1077.2999999970198,True,5.79,30690.70000000298,1077.2999999970198,True,HRV,HRV_0256,2022-11-30 19:30:24
13,"[{'imgObject': {}, 'id': 'edamame', 'src': '/static/foodstim60/edamame.jpg', 'key': 'NaN', 'origWidth': 409, 'origHeight': 410, 'width': 409, 'height': 410, 'widthPercent': 0.8, 'rescaleHeight': True, 'trialN': 13, 'loaded': True, 'loadedTime': 2608.8000000044703, 'positionName': 'CENTER', 'positionCoords': [563.5, 227]}]",Rate how much you want to eat this food from 0 (least) to 10 (most).,30692.40000000596,1669836485693,edamame,2166.0999999940395,True,0.11,32858.5,2166.0999999940395,True,HRV,HRV_0256,2022-11-30 19:30:24
14,"[{'imgObject': {}, 'id': 'rigatoni', 'src': '/static/foodstim60/rigatoni.jpg', 'key': 'NaN', 'origWidth': 411, 'origHeight': 411, 'width': 411, 'height': 411, 'widthPercent': 0.8, 'rescaleHeight': True, 'trialN': 14, 'loaded': True, 'loadedTime': 2609.5, 'positionName': 'CENTER', 'positionCoords': [562.5, 226.5]}]",Rate how much you want to eat this food from 0 (least) to 10 (most).,32860.0,1669836487861,rigatoni,2453.60000000149,True,0.15,35313.60000000149,2453.60000000149,True,HRV,HRV_0256,2022-11-30 19:30:24
15,"[{'imgObject': {}, 'id': 'salad w chicken', 'src': '/static/foodstim60/salad w chicken.jpg', 'key': 'NaN', 'origWidth': 411, 'origHeight': 411, 'width': 411, 'height': 411, 'widthPercent': 0.8, 'rescaleHeight': True, 'trialN': 15, 'loaded': True, 'loadedTime': 2610.10000000149, 'positionName': 'CENTER', 'positionCoords': [562.5, 226.5]}]",Rate how much you want to eat this food from 0 (least) to 10 (most).,35314.80000000447,1669836490316,salad w chicken,1396.0,True,0.15,36710.80000000447,1396.0,True,HRV,HRV_0256,2022-11-30 19:30:24
16,"[{'imgObject': {}, 'id': 'hashbrowns', 'src': '/static/foodstim60/hashbrowns.jpg', 'key': 'NaN', 'origWidth': 411, 'origHeight': 410, 'width': 411, 'height': 410, 'widthPercent': 0.8, 'rescaleHeight': True, 'trialN': 16, 'loaded': True, 'loadedTime': 2610.5, 'positionName': 'CENTER', 'positionCoords': [562.5, 227]}]",Rate how much you want to eat this food from 0 (least) to 10 (most).,36712.5,1669836491713,hashbrowns,1318.1000000014901,True,0.22,38030.60000000149,1318.1000000014901,True,HRV,HRV_0256,2022-11-30 19:30:24
17,"[{'imgObject': {}, 'id': 'bagel plain', 'src': '/static/foodstim60/bagel plain.jpg', 'key': 'NaN', 'origWidth': 410, 'origHeight': 410, 'width': 410, 'height': 410, 'widthPercent': 0.8, 'rescaleHeight': True, 'trialN': 17, 'loaded': True, 'loadedTime': 2610.9000000059605, 'positionName': 'CENTER', 'positionCoords': [563, 227]}]",Rate how much you want to eat this food from 0 (least) to 10 (most).,38032.40000000596,1669836493033,bagel plain,2291.1999999955297,True,0.15,40323.60000000149,2291.1999999955297,True,HRV,HRV_0256,2022-11-30 19:30:24
18,"[{'imgObject': {}, 'id': 'burger', 'src': '/static/foodstim60/burger.jpg', 'key': 'NaN', 'origWidth': 409, 'origHeight': 409, 'width': 409, 'height': 409, 'widthPercent': 0.8, 'rescaleHeight': True, 'trialN': 18, 'loaded': True, 'loadedTime': 2611.4000000059605, 'positionName': 'CENTER', 'positionCoords': [563.5, 227.5]}]",Rate how much you want to eat this food from 0 (least) to 10 (most).,40325.30000000447,1669836495326,burger,4979.60000000149,True,5.93,45304.90000000596,4979.60000000149,True,HRV,HRV_0256,2022-11-30 19:30:24
19,"[{'imgObject': {}, 'id': 'blackbeanswithrice', 'src': '/static/foodstim60/blackbeanswithrice.jpg', 'key': 'NaN', 'origWidth': 410, 'origHeight': 410, 'width': 410, 'height': 410, 'widthPercent': 0.8, 'rescaleHeight': True, 'trialN': 19, 'loaded': True, 'loadedTime': 2611.8000000044703, 'positionName': 'CENTER', 'positionCoords': [563, 227]}]",Rate how much you want to eat this food from 0 (least) to 10 (most).,45306.20000000298,1669836500307,blackbeanswithrice,15301.70000000298,True,0.0,60607.90000000596,15301.70000000298,True,HRV,HRV_0256,2022-11-30 19:30:24
20,"[{'imgObject': {}, 'id': 'seaweed', 'src': '/static/foodstim60/seaweed.jpg', 'key': 'NaN', 'origWidth': 410, 'origHeight': 410, 'width': 410, 'height': 410, 'widthPercent': 0.8, 'rescaleHeight': True, 'trialN': 20, 'loaded': True, 'loadedTime': 2612.4000000059605, 'positionName': 'CENTER', 'positionCoords': [563, 227]}]",Rate how much you want to eat this food from 0 (least) to 10 (most).,60609.70000000298,1669836515611,seaweed,1460.1000000014901,True,0.1,62069.80000000447,1460.1000000014901,True,HRV,HRV_0256,2022-11-30 19:30:24
21,"[{'imgObject': {}, 'id': 'eggs', 'src': '/static/foodstim60/eggs.jpg', 'key': 'NaN', 'origWidth': 409, 'origHeight': 409, 'width': 409, 'height': 409, 'widthPercent': 0.8, 'rescaleHeight': True, 'trialN': 21, 'loaded': True, 'loadedTime': 2612.8000000044703, 'positionName': 'CENTER', 'positionCoords': [563.5, 227.5]}]",Rate how much you want to eat this food from 0 (least) to 10 (most).,62070.90000000596,1669836517072,eggs,1677.5,True,0.15,63748.40000000596,1677.5,True,HRV,HRV_0256,2022-11-30 19:30:24
22,"[{'imgObject': {}, 'id': 'rigatoni and sauce', 'src': '/static/foodstim60/rigatoni and sauce.jpg', 'key': 'NaN', 'origWidth': 410, 'origHeight': 411, 'width': 410, 'height': 411, 'widthPercent': 0.8, 'rescaleHeight': True, 'trialN': 22, 'loaded': True, 'loadedTime': 2613.2000000029802, 'positionName': 'CENTER', 'positionCoords': [563, 226.5]}]",Rate how much you want to eat this food from 0 (least) to 10 (most).,63749.90000000596,1669836518751,rigatoni and sauce,3971.5999999940395,True,5.98,67721.5,3971.5999999940395,True,HRV,HRV_0256,2022-11-30 19:30:24
23,"[{'imgObject': {}, 'id': 'hotdog w must', 'src': '/static/foodstim60/hotdog w must.jpg', 'key': 'NaN', 'origWidth': 409, 'origHeight': 409, 'width': 409, 'height': 409, 'widthPercent': 0.8, 'rescaleHeight': True, 'trialN': 23, 'loaded': True, 'loadedTime': 2613.7000000029802, 'positionName': 'CENTER', 'positionCoords': [563.5, 227.5]}]",Rate how much you want to eat this food from 0 (least) to 10 (most).,67723.10000000149,1669836522724,hotdog w must,7122.5,True,6.8,74845.60000000149,7122.5,True,HRV,HRV_0256,2022-11-30 19:30:24
24,"[{'imgObject': {}, 'id': 'chickenfingers', 'src': '/static/foodstim60/chickenfingers.jpg', 'key': 'NaN', 'origWidth': 410, 'origHeight': 410, 'width': 410, 'height': 410, 'widthPercent': 0.8, 'rescaleHeight': True, 'trialN': 24, 'loaded': True, 'loadedTime': 2614.10000000149, 'positionName': 'CENTER', 'positionCoords': [563, 227]}]",Rate how much you want to eat this food from 0 (least) to 10 (most).,74847.10000000149,1669836529848,chickenfingers,2173.39999999851,True,7.5200000000000005,77020.5,2173.39999999851,True,HRV,HRV_0256,2022-11-30 19:30:24
25,"[{'imgObject': {}, 'id': 'tacos', 'src': '/static/foodstim60/tacos.jpg', 'key': 'NaN', 'origWidth': 411, 'origHeight': 411, 'width': 411, 'height': 411, 'widthPercent': 0.8, 'rescaleHeight': True, 'trialN': 25, 'loaded': True, 'loadedTime': 2614.4000000059605, 'positionName': 'CENTER', 'positionCoords': [562.5, 226.5]}]",Rate how much you want to eat this food from 0 (least) to 10 (most).,77022.10000000149,1669836532023,tacos,6018.5,True,5.87,83040.60000000149,6018.5,True,HRV,HRV_0256,2022-11-30 19:30:24
26,"[{'imgObject': {}, 'id': 'olives', 'src': '/static/foodstim60/olives.jpg', 'key': 'NaN', 'origWidth': 410, 'origHeight': 410, 'width': 410, 'height': 410, 'widthPercent': 0.8, 'rescaleHeight': True, 'trialN': 26, 'loaded': True, 'loadedTime': 2615, 'positionName': 'CENTER', 'positionCoords': [563, 227]}]",Rate how much you want to eat this food from 0 (least) to 10 (most).,83042.20000000298,1669836538043,olives,2101.39999999851,True,0.09,85143.60000000149,2101.39999999851,True,HRV,HRV_0256,2022-11-30 19:30:24
27,"[{'imgObject': {}, 'id': 'granola w milk', 'src': '/static/foodstim60/granola w milk.jpg', 'key': 'NaN', 'origWidth': 410, 'origHeight': 410, 'width': 410, 'height': 410, 'widthPercent': 0.8, 'rescaleHeight': True, 'trialN': 27, 'loaded': True, 'loadedTime': 2615.4000000059605, 'positionName': 'CENTER', 'positionCoords': [563, 227]}]",Rate how much you want to eat this food from 0 (least) to 10 (most).,85145.30000000447,1669836540146,granola w milk,5004.0,True,0.03,90149.30000000447,5004.0,True,HRV,HRV_0256,2022-11-30 19:30:24
28,"[{'imgObject': {}, 'id': 'Tribe humus pita', 'src': '/static/foodstim60/Tribe humus pita.jpg', 'key': 'NaN', 'origWidth': 411, 'origHeight': 411, 'width': 411, 'height': 411, 'widthPercent': 0.8, 'rescaleHeight': True, 'trialN': 28, 'loaded': True, 'loadedTime': 2615.9000000059605, 'positionName': 'CENTER', 'positionCoords': [562.5, 226.5]}]",Rate how much you want to eat this food from 0 (least) to 10 (most).,90150.90000000596,1669836545152,Tribe humus pita,1277.2999999970198,True,0.0,91428.20000000298,1277.2999999970198,True,HRV,HRV_0256,2022-11-30 19:30:24
29,"[{'imgObject': {}, 'id': 'mashed potato', 'src': '/static/foodstim60/mashed potato.jpg', 'key': 'NaN', 'origWidth': 409, 'origHeight': 409, 'width': 409, 'height': 409, 'widthPercent': 0.8, 'rescaleHeight': True, 'trialN': 29, 'loaded': True, 'loadedTime': 2616.5, 'positionName': 'CENTER', 'positionCoords': [563.5, 227.5]}]",Rate how much you want to eat this food from 0 (least) to 10 (most).,91429.60000000149,1669836546431,mashed potato,1454.1000000014901,True,0.0,92883.70000000298,1454.1000000014901,True,HRV,HRV_0256,2022-11-30 19:30:24
30,"[{'imgObject': {}, 'id': 'popsicles', 'src': '/static/foodstim60/popsicles.jpg', 'key': 'NaN', 'origWidth': 410, 'origHeight': 410, 'width': 410, 'height': 410, 'widthPercent': 0.8, 'rescaleHeight': True, 'trialN': 30, 'loaded': True, 'loadedTime': 2617, 'positionName': 'CENTER', 'positionCoords': [563, 227]}]",Rate how much you want to eat this food from 0 (least) to 10 (most).,92885.40000000596,1669836547887,popsicles,1389.2999999970198,True,6.5200000000000005,94274.70000000298,1389.2999999970198,True,HRV,HRV_0256,2022-11-30 19:30:24
31,"[{'imgObject': {}, 'id': 'burrito', 'src': '/static/foodstim60/burrito.jpg', 'key': 'NaN', 'origWidth': 410, 'origHeight': 410, 'width': 410, 'height': 410, 'widthPercent': 0.8, 'rescaleHeight': True, 'trialN': 31, 'loaded': True, 'loadedTime': 2617.60000000149, 'positionName': 'CENTER', 'positionCoords': [563, 227]}]",Rate how much you want to eat this food from 0 (least) to 10 (most).,94276.70000000298,1669836549278,burrito,1380.8999999985099,True,1.35,95657.60000000149,1380.8999999985099,True,HRV,HRV_0256,2022-11-30 19:30:24
32,"[{'imgObject': {}, 'id': 'cherry tomato', 'src': '/static/foodstim60/cherry tomato.jpg', 'key': 'NaN', 'origWidth': 410, 'origHeight': 410, 'width': 410, 'height': 410, 'widthPercent': 0.8, 'rescaleHeight': True, 'trialN': 32, 'loaded': True, 'loadedTime': 2618.3000000044703, 'positionName': 'CENTER', 'positionCoords': [563, 227]}]",Rate how much you want to eat this food from 0 (least) to 10 (most).,95659.10000000149,1669836550660,cherry tomato,2606.8000000044703,True,0.01,98265.90000000596,2606.8000000044703,True,HRV,HRV_0256,2022-11-30 19:30:24
33,"[{'imgObject': {}, 'id': 'chicken nuggets2', 'src': '/static/foodstim60/chicken nuggets2.jpg', 'key': 'NaN', 'origWidth': 410, 'origHeight': 409, 'width': 410, 'height': 409, 'widthPercent': 0.8, 'rescaleHeight': True, 'trialN': 33, 'loaded': True, 'loadedTime': 2618.8000000044703, 'positionName': 'CENTER', 'positionCoords': [563, 227.5]}]",Rate how much you want to eat this food from 0 (least) to 10 (most).,98267.10000000149,1669836553268,chicken nuggets2,1988.7000000029802,True,7.4,100255.80000000447,1988.7000000029802,True,HRV,HRV_0256,2022-11-30 19:30:24
34,"[{'imgObject': {}, 'id': 'mango', 'src': '/static/foodstim60/mango.jpg', 'key': 'NaN', 'origWidth': 411, 'origHeight': 411, 'width': 411, 'height': 411, 'widthPercent': 0.8, 'rescaleHeight': True, 'trialN': 34, 'loaded': True, 'loadedTime': 2619.5, 'positionName': 'CENTER', 'positionCoords': [562.5, 226.5]}]",Rate how much you want to eat this food from 0 (least) to 10 (most).,100257.20000000298,1669836555258,mango,2596.7000000029802,True,9.92,102853.90000000596,2596.7000000029802,True,HRV,HRV_0256,2022-11-30 19:30:24
35,"[{'imgObject': {}, 'id': 'raisin bran w milk', 'src': '/static/foodstim60/raisin bran w milk.jpg', 'key': 'NaN', 'origWidth': 411, 'origHeight': 411, 'width': 411, 'height': 411, 'widthPercent': 0.8, 'rescaleHeight': True, 'trialN': 35, 'loaded': True, 'loadedTime': 2620.2000000029802, 'positionName': 'CENTER', 'positionCoords': [562.5, 226.5]}]",Rate how much you want to eat this food from 0 (least) to 10 (most).,102855.40000000596,1669836557856,raisin bran w milk,2524.5,True,0.1,105379.90000000596,2524.5,True,HRV,HRV_0256,2022-11-30 19:30:24
36,"[{'imgObject': {}, 'id': 'shreddedwheatwithmilk', 'src': '/static/foodstim60/shreddedwheatwithmilk.jpg', 'key': 'NaN', 'origWidth': 410, 'origHeight': 410, 'width': 410, 'height': 410, 'widthPercent': 0.8, 'rescaleHeight': True, 'trialN': 36, 'loaded': True, 'loadedTime': 2620.8000000044703, 'positionName': 'CENTER', 'positionCoords': [563, 227]}]",Rate how much you want to eat this food from 0 (least) to 10 (most).,105381.40000000596,1669836560382,shreddedwheatwithmilk,1542.0,True,0.0,106923.40000000596,1542.0,True,HRV,HRV_0256,2022-11-30 19:30:24
37,"[{'imgObject': {}, 'id': 'veggieswithdip', 'src': '/static/foodstim60/veggieswithdip.jpg', 'key': 'NaN', 'origWidth': 409, 'origHeight': 409, 'width': 409, 'height': 409, 'widthPercent': 0.8, 'rescaleHeight': True, 'trialN': 37, 'loaded': True, 'loadedTime': 2621.3000000044703, 'positionName': 'CENTER', 'positionCoords': [563.5, 227.5]}]",Rate how much you want to eat this food from 0 (least) to 10 (most).,106925.0,1669836561926,veggieswithdip,1221.4000000059605,True,0.05,108146.40000000596,1221.4000000059605,True,HRV,HRV_0256,2022-11-30 19:30:24
38,"[{'imgObject': {}, 'id': 'turkeysandwich', 'src': '/static/foodstim60/turkeysandwich.jpg', 'key': 'NaN', 'origWidth': 409, 'origHeight': 409, 'width': 409, 'height': 409, 'widthPercent': 0.8, 'rescaleHeight': True, 'trialN': 38, 'loaded': True, 'loadedTime': 2621.7000000029802, 'positionName': 'CENTER', 'positionCoords': [563.5, 227.5]}]",Rate how much you want to eat this food from 0 (least) to 10 (most).,108147.70000000298,1669836563149,turkeysandwich,2548.7999999970198,True,5.61,110696.5,2548.7999999970198,True,HRV,HRV_0256,2022-11-30 19:30:24
39,"[{'imgObject': {}, 'id': 'blueberries', 'src': '/static/foodstim60/blueberries.jpg', 'key': 'NaN', 'origWidth': 411, 'origHeight': 411, 'width': 411, 'height': 411, 'widthPercent': 0.8, 'rescaleHeight': True, 'trialN': 39, 'loaded': True, 'loadedTime': 2622.2000000029802, 'positionName': 'CENTER', 'positionCoords': [562.5, 226.5]}]",Rate how much you want to eat this food from 0 (least) to 10 (most).,110698.10000000149,1669836565699,blueberries,1325.1000000014901,True,9.06,112023.20000000298,1325.1000000014901,True,HRV,HRV_0256,2022-11-30 19:30:24
40,"[{'imgObject': {}, 'id': 'pear', 'src': '/static/foodstim60/pear.jpg', 'key': 'NaN', 'origWidth': 411, 'origHeight': 410, 'width': 411, 'height': 410, 'widthPercent': 0.8, 'rescaleHeight': True, 'trialN': 40, 'loaded': True, 'loadedTime': 2622.60000000149, 'positionName': 'CENTER', 'positionCoords': [562.5, 227]}]",Rate how much you want to eat this food from 0 (least) to 10 (most).,112024.40000000596,1669836567026,pear,1806.1999999955297,True,7.22,113830.60000000149,1806.1999999955297,True,HRV,HRV_0256,2022-11-30 19:30:24
41,"[{'imgObject': {}, 'id': 'fruitsalad', 'src': '/static/foodstim60/fruitsalad.jpg', 'key': 'NaN', 'origWidth': 410, 'origHeight': 410, 'width': 410, 'height': 410, 'widthPercent': 0.8, 'rescaleHeight': True, 'trialN': 41, 'loaded': True, 'loadedTime': 2623, 'positionName': 'CENTER', 'positionCoords': [563, 227]}]",Rate how much you want to eat this food from 0 (least) to 10 (most).,113832.0,1669836568833,fruitsalad,2038.2000000029802,True,10.0,115870.20000000298,2038.2000000029802,True,HRV,HRV_0256,2022-11-30 19:30:24
42,"[{'imgObject': {}, 'id': 'sushi w_condiments', 'src': '/static/foodstim60/sushi w_condiments.jpg', 'key': 'NaN', 'origWidth': 410, 'origHeight': 410, 'width': 410, 'height': 410, 'widthPercent': 0.8, 'rescaleHeight': True, 'trialN': 42, 'loaded': True, 'loadedTime': 2623.7000000029802, 'positionName': 'CENTER', 'positionCoords': [563, 227]}]",Rate how much you want to eat this food from 0 (least) to 10 (most).,115871.60000000149,1669836570873,sushi w_condiments,2955.8000000044703,True,0.31,118827.40000000596,2955.8000000044703,True,HRV,HRV_0256,2022-11-30 19:30:24
43,"[{'imgObject': {}, 'id': 'omelette', 'src': '/static/foodstim60/omelette.jpg', 'key': 'NaN', 'origWidth': 410, 'origHeight': 409, 'width': 410, 'height': 409, 'widthPercent': 0.8, 'rescaleHeight': True, 'trialN': 43, 'loaded': True, 'loadedTime': 2624.3000000044703, 'positionName': 'CENTER', 'positionCoords': [563, 227.5]}]",Rate how much you want to eat this food from 0 (least) to 10 (most).,118828.90000000596,1669836573830,omelette,1453.5,True,1.25,120282.40000000596,1453.5,True,HRV,HRV_0256,2022-11-30 19:30:24
44,"[{'imgObject': {}, 'id': 'strawberries', 'src': '/static/foodstim60/strawberries.jpg', 'key': 'NaN', 'origWidth': 410, 'origHeight': 410, 'width': 410, 'height': 410, 'widthPercent': 0.8, 'rescaleHeight': True, 'trialN': 44, 'loaded': True, 'loadedTime': 2624.8000000044703, 'positionName': 'CENTER', 'positionCoords': [563, 227]}]",Rate how much you want to eat this food from 0 (least) to 10 (most).,120284.10000000149,1669836575285,strawberries,1541.3000000044703,True,8.75,121825.40000000596,1541.3000000044703,True,HRV,HRV_0256,2022-11-30 19:30:24
45,"[{'imgObject': {}, 'id': 'cantaloupe', 'src': '/static/foodstim60/cantaloupe.jpg', 'key': 'NaN', 'origWidth': 409, 'origHeight': 409, 'width': 409, 'height': 409, 'widthPercent': 0.8, 'rescaleHeight': True, 'trialN': 45, 'loaded': True, 'loadedTime': 2625.3000000044703, 'positionName': 'CENTER', 'positionCoords': [563.5, 227.5]}]",Rate how much you want to eat this food from 0 (least) to 10 (most).,121826.80000000447,1669836576828,cantaloupe,1741.6999999955297,True,0.55,123568.5,1741.6999999955297,True,HRV,HRV_0256,2022-11-30 19:30:24
46,"[{'imgObject': {}, 'id': 'cocktailshrimp', 'src': '/static/foodstim60/cocktailshrimp.jpg', 'key': 'NaN', 'origWidth': 410, 'origHeight': 410, 'width': 410, 'height': 410, 'widthPercent': 0.8, 'rescaleHeight': True, 'trialN': 46, 'loaded': True, 'loadedTime': 2625.8000000044703, 'positionName': 'CENTER', 'positionCoords': [563, 227]}]",Rate how much you want to eat this food from 0 (least) to 10 (most).,123569.70000000298,1669836578571,cocktailshrimp,1996.7999999970198,True,0.15,125566.5,1996.7999999970198,True,HRV,HRV_0256,2022-11-30 19:30:24
47,"[{'imgObject': {}, 'id': 'luckycharms', 'src': '/static/foodstim60/luckycharms.jpg', 'key': 'NaN', 'origWidth': 410, 'origHeight': 409, 'width': 410, 'height': 409, 'widthPercent': 0.8, 'rescaleHeight': True, 'trialN': 47, 'loaded': True, 'loadedTime': 2626.2000000029802, 'positionName': 'CENTER', 'positionCoords': [563, 227.5]}]",Rate how much you want to eat this food from 0 (least) to 10 (most).,125568.0,1669836580569,luckycharms,2125.60000000149,True,5.7,127693.60000000149,2125.60000000149,True,HRV,HRV_0256,2022-11-30 19:30:24
48,"[{'imgObject': {}, 'id': 'cheerios', 'src': '/static/foodstim60/cheerios.jpg', 'key': 'NaN', 'origWidth': 409, 'origHeight': 410, 'width': 409, 'height': 410, 'widthPercent': 0.8, 'rescaleHeight': True, 'trialN': 48, 'loaded': True, 'loadedTime': 2626.7000000029802, 'positionName': 'CENTER', 'positionCoords': [563.5, 227]}]",Rate how much you want to eat this food from 0 (least) to 10 (most).,127695.0,1669836582696,cheerios,1789.4000000059605,True,0.71,129484.40000000596,1789.4000000059605,True,HRV,HRV_0256,2022-11-30 19:30:24
49,"[{'imgObject': {}, 'id': 'bagel and cc', 'src': '/static/foodstim60/bagel and cc.jpg', 'key': 'NaN', 'origWidth': 410, 'origHeight': 410, 'width': 410, 'height': 410, 'widthPercent': 0.8, 'rescaleHeight': True, 'trialN': 49, 'loaded': True, 'loadedTime': 2627.2000000029802, 'positionName': 'CENTER', 'positionCoords': [563, 227]}]",Rate how much you want to eat this food from 0 (least) to 10 (most).,129485.70000000298,1669836584487,bagel and cc,1517.8999999985099,True,0.0,131003.60000000149,1517.8999999985099,True,HRV,HRV_0256,2022-11-30 19:30:24
50,"[{'imgObject': {}, 'id': 'eggsalad', 'src': '/static/foodstim60/eggsalad.jpg', 'key': 'NaN', 'origWidth': 410, 'origHeight': 409, 'width': 410, 'height': 409, 'widthPercent': 0.8, 'rescaleHeight': True, 'trialN': 50, 'loaded': True, 'loadedTime': 2627.4000000059605, 'positionName': 'CENTER', 'positionCoords': [563, 227.5]}]",Rate how much you want to eat this food from 0 (least) to 10 (most).,131004.90000000596,1669836586006,eggsalad,1350.5,True,0.0,132355.40000000596,1350.5,True,HRV,HRV_0256,2022-11-30 19:30:24
51,"[{'imgObject': {}, 'id': 'roastedpotatoes', 'src': '/static/foodstim60/roastedpotatoes.jpg', 'key': 'NaN', 'origWidth': 409, 'origHeight': 410, 'width': 409, 'height': 410, 'widthPercent': 0.8, 'rescaleHeight': True, 'trialN': 51, 'loaded': True, 'loadedTime': 2627.7000000029802, 'positionName': 'CENTER', 'positionCoords': [563.5, 227]}]",Rate how much you want to eat this food from 0 (least) to 10 (most).,132357.1000000015,1669836587358,roastedpotatoes,1525.1000000014901,True,7.01,133882.20000000298,1525.1000000014901,True,HRV,HRV_0256,2022-11-30 19:30:24
52,"[{'imgObject': {}, 'id': 'raspberries', 'src': '/static/foodstim60/raspberries.jpg', 'key': 'NaN', 'origWidth': 411, 'origHeight': 411, 'width': 411, 'height': 411, 'widthPercent': 0.8, 'rescaleHeight': True, 'trialN': 52, 'loaded': True, 'loadedTime': 2627.7000000029802, 'positionName': 'CENTER', 'positionCoords': [562.5, 226.5]}]",Rate how much you want to eat this food from 0 (least) to 10 (most).,133883.0,1669836588884,raspberries,1566.6000000014901,True,9.63,135449.6000000015,1566.6000000014901,True,HRV,HRV_0256,2022-11-30 19:30:24
53,"[{'imgObject': {}, 'id': 'lox', 'src': '/static/foodstim60/lox.jpg', 'key': 'NaN', 'origWidth': 410, 'origHeight': 411, 'width': 410, 'height': 411, 'widthPercent': 0.8, 'rescaleHeight': True, 'trialN': 53, 'loaded': True, 'loadedTime': 2627.8000000044703, 'positionName': 'CENTER', 'positionCoords': [563, 226.5]}]",Rate how much you want to eat this food from 0 (least) to 10 (most).,135451.0,1669836590452,lox,3364.4000000059605,True,0.03,138815.40000000596,3364.4000000059605,True,HRV,HRV_0256,2022-11-30 19:30:24
54,"[{'imgObject': {}, 'id': 'cherries', 'src': '/static/foodstim60/cherries.jpg', 'key': 'NaN', 'origWidth': 410, 'origHeight': 411, 'width': 410, 'height': 411, 'widthPercent': 0.8, 'rescaleHeight': True, 'trialN': 54, 'loaded': True, 'loadedTime': 2628, 'positionName': 'CENTER', 'positionCoords': [563, 226.5]}]",Rate how much you want to eat this food from 0 (least) to 10 (most).,138817.1000000015,1669836593818,cherries,2772.7000000029802,True,8.8,141589.80000000447,2772.7000000029802,True,HRV,HRV_0256,2022-11-30 19:30:24
55,"[{'imgObject': {}, 'id': 'salmon', 'src': '/static/foodstim60/salmon.jpg', 'key': 'NaN', 'origWidth': 410, 'origHeight': 409, 'width': 410, 'height': 409, 'widthPercent': 0.8, 'rescaleHeight': True, 'trialN': 55, 'loaded': True, 'loadedTime': 2628.2000000029802, 'positionName': 'CENTER', 'positionCoords': [563, 227.5]}]",Rate how much you want to eat this food from 0 (least) to 10 (most).,141591.5,1669836596593,salmon,8130.5,True,5.66,149722.0,8130.5,True,HRV,HRV_0256,2022-11-30 19:30:24
56,"[{'imgObject': {}, 'id': 'turkey sandwich', 'src': '/static/foodstim60/turkey sandwich.jpg', 'key': 'NaN', 'origWidth': 409, 'origHeight': 409, 'width': 409, 'height': 409, 'widthPercent': 0.8, 'rescaleHeight': True, 'trialN': 56, 'loaded': True, 'loadedTime': 2628.3000000044703, 'positionName': 'CENTER', 'positionCoords': [563.5, 227.5]}]",Rate how much you want to eat this food from 0 (least) to 10 (most).,149723.20000000298,1669836604724,turkey sandwich,1069.1000000014901,True,6.01,150792.30000000447,1069.1000000014901,True,HRV,HRV_0256,2022-11-30 19:30:24
57,"[{'imgObject': {}, 'id': 'Grapes', 'src': '/static/foodstim60/Grapes.jpg', 'key': 'NaN', 'origWidth': 411, 'origHeight': 411, 'width': 411, 'height': 411, 'widthPercent': 0.8, 'rescaleHeight': True, 'trialN': 57, 'loaded': True, 'loadedTime': 2628.60000000149, 'positionName': 'CENTER', 'positionCoords': [562.5, 226.5]}]",Rate how much you want to eat this food from 0 (least) to 10 (most).,150793.5,1669836605795,Grapes,1925.8000000044703,True,8.85,152719.30000000447,1925.8000000044703,True,HRV,HRV_0256,2022-11-30 19:30:24
58,"[{'imgObject': {}, 'id': 'mac & cheese', 'src': '/static/foodstim60/mac & cheese.jpg', 'key': 'NaN', 'origWidth': 410, 'origHeight': 410, 'width': 410, 'height': 410, 'widthPercent': 0.8, 'rescaleHeight': True, 'trialN': 58, 'loaded': True, 'loadedTime': 2628.9000000059605, 'positionName': 'CENTER', 'positionCoords': [563, 227]}]",Rate how much you want to eat this food from 0 (least) to 10 (most).,152720.30000000447,1669836607722,mac & cheese,4117.79999999702,True,6.3,156838.1000000015,4117.79999999702,True,HRV,HRV_0256,2022-11-30 19:30:24
59,"[{'imgObject': {}, 'id': 'orange slices', 'src': '/static/foodstim60/orange slices.jpg', 'key': 'NaN', 'origWidth': 409, 'origHeight': 410, 'width': 409, 'height': 410, 'widthPercent': 0.8, 'rescaleHeight': True, 'trialN': 59, 'loaded': True, 'loadedTime': 2629.10000000149, 'positionName': 'CENTER', 'positionCoords': [563.5, 227]}]",Rate how much you want to eat this food from 0 (least) to 10 (most).,156839.40000000596,1669836611841,orange slices,1605.5,True,7.13,158444.90000000596,1605.5,True,HRV,HRV_0256,2022-11-30 19:30:24
