trialN,stimuli,trialStartTime,trialStartTime_UNIX,stimulus1,stimulus2,stimulus1Bid,stimulus2Bid,delta,selected,rt,rt_UNIX,rt_perfnow,receivedResponse,rsp,trialEndTime,trialDuration,trialEndTime_UNIX,trialDuration_UNIX,exp,subjectId,date
0,"[{'imgObject': {}, 'id': 'salmon', 'src': '/static/foodstim60/salmon.jpg', 'key': 'u', 'origWidth': 410, 'origHeight': 409, 'width': 410, 'height': 409, 'widthPercent': 0.45, 'rescaleHeight': False, 'trialN': 0, 'loaded': True, 'loadedTime': 23725.89999999851, 'positionName': 'LEFT', 'positionCoords': [327.28, 227.5], 'bid': 5.66}, {'imgObject': {}, 'id': 'shreddedwheatwithmilk', 'src': '/static/foodstim60/shreddedwheatwithmilk.jpg', 'key': 'i', 'origWidth': 410, 'origHeight': 410, 'width': 410, 'height': 410, 'widthPercent': 0.45, 'rescaleHeight': False, 'trialN': 0, 'loaded': True, 'loadedTime': 23759.60000000149, 'positionName': 'RIGHT', 'positionCoords': [798.72, 227], 'bid': 0}]",24194.80000000447,1669837163558,salmon,shreddedwheatwithmilk,5.66,0.0,-5.66,shreddedwheatwithmilk,2348.1999999955297,2348,2348.7999999970198,True,i,27045.39999999851,2850.5999999940395,1669837166408,2850,HRV,HRV_0256,2022-11-30 19:45:29
1,"[{'imgObject': {}, 'id': 'bagel and cc', 'src': '/static/foodstim60/bagel and cc.jpg', 'key': 'u', 'origWidth': 410, 'origHeight': 410, 'width': 410, 'height': 410, 'widthPercent': 0.45, 'rescaleHeight': False, 'trialN': 1, 'loaded': True, 'loadedTime': 23762.5, 'positionName': 'LEFT', 'positionCoords': [327.28, 227], 'bid': 0}, {'imgObject': {}, 'id': 'shreddedwheatwithmilk', 'src': '/static/foodstim60/shreddedwheatwithmilk.jpg', 'key': 'i', 'origWidth': 410, 'origHeight': 410, 'width': 410, 'height': 410, 'widthPercent': 0.45, 'rescaleHeight': False, 'trialN': 1, 'loaded': True, 'loadedTime': 23759.80000000447, 'positionName': 'RIGHT', 'positionCoords': [798.72, 227], 'bid': 0}]",27046.0,1669837166409,bagel and cc,shreddedwheatwithmilk,0.0,0.0,0.0,shreddedwheatwithmilk,920.3999999985099,921,920.8000000044703,True,i,28469.20000000298,1423.2000000029802,1669837167832,1423,HRV,HRV_0256,2022-11-30 19:45:29
2,"[{'imgObject': {}, 'id': 'sweetpotato', 'src': '/static/foodstim60/sweetpotato.jpg', 'key': 'u', 'origWidth': 410, 'origHeight': 410, 'width': 410, 'height': 410, 'widthPercent': 0.45, 'rescaleHeight': False, 'trialN': 2, 'loaded': True, 'loadedTime': 23766.39999999851, 'positionName': 'LEFT', 'positionCoords': [327.28, 227], 'bid': 0.06}, {'imgObject': {}, 'id': 'burrito', 'src': '/static/foodstim60/burrito.jpg', 'key': 'i', 'origWidth': 410, 'origHeight': 410, 'width': 410, 'height': 410, 'widthPercent': 0.45, 'rescaleHeight': False, 'trialN': 2, 'loaded': True, 'loadedTime': 23768.20000000298, 'positionName': 'RIGHT', 'positionCoords': [798.72, 227], 'bid': 1.35}]",28469.39999999851,1669837167832,sweetpotato,burrito,0.06,1.35,1.29,burrito,1993.2000000029802,1994,1993.5,True,i,30965.80000000447,2496.4000000059605,1669837170329,2497,HRV,HRV_0256,2022-11-30 19:45:29
3,"[{'imgObject': {}, 'id': 'tacos', 'src': '/static/foodstim60/tacos.jpg', 'key': 'u', 'origWidth': 411, 'origHeight': 411, 'width': 411, 'height': 411, 'widthPercent': 0.45, 'rescaleHeight': False, 'trialN': 3, 'loaded': True, 'loadedTime': 23769.80000000447, 'positionName': 'LEFT', 'positionCoords': [326.28, 226.5], 'bid': 5.87}, {'imgObject': {}, 'id': 'strawberries', 'src': '/static/foodstim60/strawberries.jpg', 'key': 'i', 'origWidth': 410, 'origHeight': 410, 'width': 410, 'height': 410, 'widthPercent': 0.45, 'rescaleHeight': False, 'trialN': 3, 'loaded': True, 'loadedTime': 23771.30000000447, 'positionName': 'RIGHT', 'positionCoords': [798.72, 227], 'bid': 8.75}]",30966.10000000149,1669837170329,tacos,strawberries,5.87,8.75,2.88,tacos,976.2000000029802,976,976.6000000014901,True,u,32445.60000000149,1479.5,1669837171808,1479,HRV,HRV_0256,2022-11-30 19:45:29
4,"[{'imgObject': {}, 'id': 'turkeysandwich', 'src': '/static/foodstim60/turkeysandwich.jpg', 'key': 'u', 'origWidth': 409, 'origHeight': 409, 'width': 409, 'height': 409, 'widthPercent': 0.45, 'rescaleHeight': False, 'trialN': 4, 'loaded': True, 'loadedTime': 23774.60000000149, 'positionName': 'LEFT', 'positionCoords': [328.28, 227.5], 'bid': 5.61}, {'imgObject': {}, 'id': 'roastedpotatoes', 'src': '/static/foodstim60/roastedpotatoes.jpg', 'key': 'i', 'origWidth': 409, 'origHeight': 410, 'width': 409, 'height': 410, 'widthPercent': 0.45, 'rescaleHeight': False, 'trialN': 4, 'loaded': True, 'loadedTime': 23774.89999999851, 'positionName': 'RIGHT', 'positionCoords': [798.72, 227], 'bid': 7.01}]",32445.89999999851,1669837171809,turkeysandwich,roastedpotatoes,5.61,7.01,1.3999999999999995,roastedpotatoes,1240.5,1241,1240.9000000059605,True,i,34189.10000000149,1743.2000000029802,1669837173552,1743,HRV,HRV_0256,2022-11-30 19:45:29
5,"[{'imgObject': {}, 'id': 'apple slices', 'src': '/static/foodstim60/apple slices.jpg', 'key': 'u', 'origWidth': 409, 'origHeight': 410, 'width': 409, 'height': 410, 'widthPercent': 0.45, 'rescaleHeight': False, 'trialN': 5, 'loaded': True, 'loadedTime': 23782, 'positionName': 'LEFT', 'positionCoords': [328.28, 227], 'bid': 7.17}, {'imgObject': {}, 'id': 'chicken nuggets2', 'src': '/static/foodstim60/chicken nuggets2.jpg', 'key': 'i', 'origWidth': 410, 'origHeight': 409, 'width': 410, 'height': 409, 'widthPercent': 0.45, 'rescaleHeight': False, 'trialN': 5, 'loaded': True, 'loadedTime': 23784.5, 'positionName': 'RIGHT', 'positionCoords': [798.72, 227.5], 'bid': 7.4}]",34189.39999999851,1669837173552,apple slices,chicken nuggets2,7.17,7.4,0.23000000000000043,apple slices,945,946,945.4000000059605,True,u,35636.70000000298,1447.3000000044703,1669837175000,1448,HRV,HRV_0256,2022-11-30 19:45:29
6,"[{'imgObject': {}, 'id': 'veggieswithdip', 'src': '/static/foodstim60/veggieswithdip.jpg', 'key': 'u', 'origWidth': 409, 'origHeight': 409, 'width': 409, 'height': 409, 'widthPercent': 0.45, 'rescaleHeight': False, 'trialN': 6, 'loaded': True, 'loadedTime': 23828.10000000149, 'positionName': 'LEFT', 'positionCoords': [328.28, 227.5], 'bid': 0.05}, {'imgObject': {}, 'id': 'turkey sandwich', 'src': '/static/foodstim60/turkey sandwich.jpg', 'key': 'i', 'origWidth': 409, 'origHeight': 409, 'width': 409, 'height': 409, 'widthPercent': 0.45, 'rescaleHeight': False, 'trialN': 6, 'loaded': True, 'loadedTime': 23903.60000000149, 'positionName': 'RIGHT', 'positionCoords': [798.72, 227.5], 'bid': 6.01}]",35636.89999999851,1669837175000,veggieswithdip,turkey sandwich,0.05,6.01,5.96,turkey sandwich,1282.1000000014901,1282,1282.3000000044703,True,i,37421.80000000447,1784.9000000059605,1669837176785,1785,HRV,HRV_0256,2022-11-30 19:45:29
7,"[{'imgObject': {}, 'id': 'edamame', 'src': '/static/foodstim60/edamame.jpg', 'key': 'u', 'origWidth': 409, 'origHeight': 410, 'width': 409, 'height': 410, 'widthPercent': 0.45, 'rescaleHeight': False, 'trialN': 7, 'loaded': True, 'loadedTime': 23907.30000000447, 'positionName': 'LEFT', 'positionCoords': [328.28, 227], 'bid': 0.11}, {'imgObject': {}, 'id': 'eggs', 'src': '/static/foodstim60/eggs.jpg', 'key': 'i', 'origWidth': 409, 'origHeight': 409, 'width': 409, 'height': 409, 'widthPercent': 0.45, 'rescaleHeight': False, 'trialN': 7, 'loaded': True, 'loadedTime': 23909, 'positionName': 'RIGHT', 'positionCoords': [798.72, 227.5], 'bid': 0.15}]",37422.10000000149,1669837176785,edamame,eggs,0.11,0.15,0.039999999999999994,edamame,1336.3999999985099,1337,1336.7999999970198,True,u,39261.20000000298,1839.1000000014901,1669837178624,1839,HRV,HRV_0256,2022-11-30 19:45:29
8,"[{'imgObject': {}, 'id': 'salad w chicken', 'src': '/static/foodstim60/salad w chicken.jpg', 'key': 'u', 'origWidth': 411, 'origHeight': 411, 'width': 411, 'height': 411, 'widthPercent': 0.45, 'rescaleHeight': False, 'trialN': 8, 'loaded': True, 'loadedTime': 23911.89999999851, 'positionName': 'LEFT', 'positionCoords': [326.28, 226.5], 'bid': 0.15}, {'imgObject': {}, 'id': 'blackbeanswithrice', 'src': '/static/foodstim60/blackbeanswithrice.jpg', 'key': 'i', 'origWidth': 410, 'origHeight': 410, 'width': 410, 'height': 410, 'widthPercent': 0.45, 'rescaleHeight': False, 'trialN': 8, 'loaded': True, 'loadedTime': 23916.80000000447, 'positionName': 'RIGHT', 'positionCoords': [798.72, 227], 'bid': 0}]",39261.5,1669837178624,salad w chicken,blackbeanswithrice,0.15,0.0,-0.15,salad w chicken,1865.2000000029802,1866,1865.6000000014901,True,u,41629.39999999851,2367.89999999851,1669837180992,2368,HRV,HRV_0256,2022-11-30 19:45:29
9,"[{'imgObject': {}, 'id': 'hashbrowns', 'src': '/static/foodstim60/hashbrowns.jpg', 'key': 'u', 'origWidth': 411, 'origHeight': 410, 'width': 411, 'height': 410, 'widthPercent': 0.45, 'rescaleHeight': False, 'trialN': 9, 'loaded': True, 'loadedTime': 23923, 'positionName': 'LEFT', 'positionCoords': [326.28, 227], 'bid': 0.22}, {'imgObject': {}, 'id': 'strawberries', 'src': '/static/foodstim60/strawberries.jpg', 'key': 'i', 'origWidth': 410, 'origHeight': 410, 'width': 410, 'height': 410, 'widthPercent': 0.45, 'rescaleHeight': False, 'trialN': 9, 'loaded': True, 'loadedTime': 23772.39999999851, 'positionName': 'RIGHT', 'positionCoords': [798.72, 227], 'bid': 8.75}]",41629.60000000149,1669837180992,hashbrowns,strawberries,0.22,8.75,8.53,strawberries,688.7000000029802,689,689.0,True,i,42821.39999999851,1191.7999999970198,1669837182184,1192,HRV,HRV_0256,2022-11-30 19:45:29
10,"[{'imgObject': {}, 'id': 'turkeysandwich', 'src': '/static/foodstim60/turkeysandwich.jpg', 'key': 'u', 'origWidth': 409, 'origHeight': 409, 'width': 409, 'height': 409, 'widthPercent': 0.45, 'rescaleHeight': False, 'trialN': 10, 'loaded': True, 'loadedTime': 23774.70000000298, 'positionName': 'LEFT', 'positionCoords': [328.28, 227.5], 'bid': 5.61}, {'imgObject': {}, 'id': 'cocktailshrimp', 'src': '/static/foodstim60/cocktailshrimp.jpg', 'key': 'i', 'origWidth': 410, 'origHeight': 410, 'width': 410, 'height': 410, 'widthPercent': 0.45, 'rescaleHeight': False, 'trialN': 10, 'loaded': True, 'loadedTime': 23749.10000000149, 'positionName': 'RIGHT', 'positionCoords': [798.72, 227], 'bid': 0.15}]",42821.70000000298,1669837182184,turkeysandwich,cocktailshrimp,5.61,0.15,-5.46,turkeysandwich,1664.6000000014901,1666,1665.0,True,u,44989.0,2167.2999999970198,1669837184352,2168,HRV,HRV_0256,2022-11-30 19:45:29
11,"[{'imgObject': {}, 'id': 'edamame', 'src': '/static/foodstim60/edamame.jpg', 'key': 'u', 'origWidth': 409, 'origHeight': 410, 'width': 409, 'height': 410, 'widthPercent': 0.45, 'rescaleHeight': False, 'trialN': 11, 'loaded': True, 'loadedTime': 23905.80000000447, 'positionName': 'LEFT', 'positionCoords': [328.28, 227], 'bid': 0.11}, {'imgObject': {}, 'id': 'hashbrowns', 'src': '/static/foodstim60/hashbrowns.jpg', 'key': 'i', 'origWidth': 411, 'origHeight': 410, 'width': 411, 'height': 410, 'widthPercent': 0.45, 'rescaleHeight': False, 'trialN': 11, 'loaded': True, 'loadedTime': 23923.10000000149, 'positionName': 'RIGHT', 'positionCoords': [798.72, 227], 'bid': 0.22}]",44989.20000000298,1669837184352,edamame,hashbrowns,0.11,0.22,0.11,hashbrowns,1505.1999999955297,1506,1505.5,True,i,46997.70000000298,2008.5,1669837186361,2009,HRV,HRV_0256,2022-11-30 19:45:29
12,"[{'imgObject': {}, 'id': 'cherries', 'src': '/static/foodstim60/cherries.jpg', 'key': 'u', 'origWidth': 410, 'origHeight': 411, 'width': 410, 'height': 411, 'widthPercent': 0.45, 'rescaleHeight': False, 'trialN': 12, 'loaded': True, 'loadedTime': 23753.60000000149, 'positionName': 'LEFT', 'positionCoords': [327.28, 226.5], 'bid': 8.8}, {'imgObject': {}, 'id': 'sushi w_condiments', 'src': '/static/foodstim60/sushi w_condiments.jpg', 'key': 'i', 'origWidth': 410, 'origHeight': 410, 'width': 410, 'height': 410, 'widthPercent': 0.45, 'rescaleHeight': False, 'trialN': 12, 'loaded': True, 'loadedTime': 23780.70000000298, 'positionName': 'RIGHT', 'positionCoords': [798.72, 227], 'bid': 0.31}]",46997.89999999851,1669837186361,cherries,sushi w_condiments,8.8,0.31,-8.49,cherries,1048.7000000029802,1049,1049.1000000014901,True,u,48549.20000000298,1551.3000000044703,1669837187912,1551,HRV,HRV_0256,2022-11-30 19:45:29
13,"[{'imgObject': {}, 'id': 'lox', 'src': '/static/foodstim60/lox.jpg', 'key': 'u', 'origWidth': 410, 'origHeight': 411, 'width': 410, 'height': 411, 'widthPercent': 0.45, 'rescaleHeight': False, 'trialN': 13, 'loaded': True, 'loadedTime': 23784, 'positionName': 'LEFT', 'positionCoords': [327.28, 226.5], 'bid': 0.03}, {'imgObject': {}, 'id': 'bagel plain', 'src': '/static/foodstim60/bagel plain.jpg', 'key': 'i', 'origWidth': 410, 'origHeight': 410, 'width': 410, 'height': 410, 'widthPercent': 0.45, 'rescaleHeight': False, 'trialN': 13, 'loaded': True, 'loadedTime': 23825.20000000298, 'positionName': 'RIGHT', 'positionCoords': [798.72, 227], 'bid': 0.15}]",48549.39999999851,1669837187913,lox,bagel plain,0.03,0.15,0.12,bagel plain,2049.3000000044703,2049,2049.60000000149,True,i,51101.5,2552.10000000149,1669837190465,2552,HRV,HRV_0256,2022-11-30 19:45:29
14,"[{'imgObject': {}, 'id': 'burger', 'src': '/static/foodstim60/burger.jpg', 'key': 'u', 'origWidth': 409, 'origHeight': 409, 'width': 409, 'height': 409, 'widthPercent': 0.45, 'rescaleHeight': False, 'trialN': 14, 'loaded': True, 'loadedTime': 23864.70000000298, 'positionName': 'LEFT', 'positionCoords': [328.28, 227.5], 'bid': 5.93}, {'imgObject': {}, 'id': 'popsicles', 'src': '/static/foodstim60/popsicles.jpg', 'key': 'i', 'origWidth': 410, 'origHeight': 410, 'width': 410, 'height': 410, 'widthPercent': 0.45, 'rescaleHeight': False, 'trialN': 14, 'loaded': True, 'loadedTime': 24194.20000000298, 'positionName': 'RIGHT', 'positionCoords': [798.72, 227], 'bid': 6.5200000000000005}]",51101.80000000447,1669837190465,burger,popsicles,5.93,6.5200000000000005,0.5900000000000007,popsicles,1521.1999999955297,1521,1521.5999999940395,True,i,53125.60000000149,2023.7999999970198,1669837192489,2024,HRV,HRV_0256,2022-11-30 19:45:29
15,"[{'imgObject': {}, 'id': 'pear', 'src': '/static/foodstim60/pear.jpg', 'key': 'u', 'origWidth': 411, 'origHeight': 410, 'width': 411, 'height': 410, 'widthPercent': 0.45, 'rescaleHeight': False, 'trialN': 15, 'loaded': True, 'loadedTime': 23924.89999999851, 'positionName': 'LEFT', 'positionCoords': [326.28, 227], 'bid': 7.22}, {'imgObject': {}, 'id': 'blueberries', 'src': '/static/foodstim60/blueberries.jpg', 'key': 'i', 'origWidth': 411, 'origHeight': 411, 'width': 411, 'height': 411, 'widthPercent': 0.45, 'rescaleHeight': False, 'trialN': 15, 'loaded': True, 'loadedTime': 23967.80000000447, 'positionName': 'RIGHT', 'positionCoords': [798.72, 226.5], 'bid': 9.06}]",53125.80000000447,1669837192489,pear,blueberries,7.22,9.06,1.8400000000000007,pear,864.8999999985099,865,865.2999999970198,True,u,54493.60000000149,1367.7999999970198,1669837193857,1368,HRV,HRV_0256,2022-11-30 19:45:29
16,"[{'imgObject': {}, 'id': 'ice cream sundae 002', 'src': '/static/foodstim60/ice cream sundae 002.jpg', 'key': 'u', 'origWidth': 409, 'origHeight': 409, 'width': 409, 'height': 409, 'widthPercent': 0.45, 'rescaleHeight': False, 'trialN': 16, 'loaded': True, 'loadedTime': 23969.70000000298, 'positionName': 'LEFT', 'positionCoords': [328.28, 227.5], 'bid': 5.09}, {'imgObject': {}, 'id': 'yogurt no spoon', 'src': '/static/foodstim60/yogurt no spoon.jpg', 'key': 'i', 'origWidth': 411, 'origHeight': 410, 'width': 411, 'height': 410, 'widthPercent': 0.45, 'rescaleHeight': False, 'trialN': 16, 'loaded': True, 'loadedTime': 24006.20000000298, 'positionName': 'RIGHT', 'positionCoords': [798.72, 227], 'bid': 4.66}]",54493.89999999851,1669837193857,ice cream sundae 002,yogurt no spoon,5.09,4.66,-0.4299999999999997,yogurt no spoon,1657.1000000014901,1657,1657.4000000059605,True,i,56653.5,2159.60000000149,1669837196017,2160,HRV,HRV_0256,2022-11-30 19:45:29
17,"[{'imgObject': {}, 'id': 'corn cob', 'src': '/static/foodstim60/corn cob.jpg', 'key': 'u', 'origWidth': 411, 'origHeight': 411, 'width': 411, 'height': 411, 'widthPercent': 0.45, 'rescaleHeight': False, 'trialN': 17, 'loaded': True, 'loadedTime': 24008.30000000447, 'positionName': 'LEFT', 'positionCoords': [326.28, 226.5], 'bid': 0}, {'imgObject': {}, 'id': 'granola w milk', 'src': '/static/foodstim60/granola w milk.jpg', 'key': 'i', 'origWidth': 410, 'origHeight': 410, 'width': 410, 'height': 410, 'widthPercent': 0.45, 'rescaleHeight': False, 'trialN': 17, 'loaded': True, 'loadedTime': 24013.89999999851, 'positionName': 'RIGHT', 'positionCoords': [798.72, 227], 'bid': 0.03}]",56653.70000000298,1669837196017,corn cob,granola w milk,0.0,0.03,0.03,granola w milk,2416.5,2417,2416.89999999851,True,i,59573.20000000298,2919.5,1669837198936,2919,HRV,HRV_0256,2022-11-30 19:45:29
18,"[{'imgObject': {}, 'id': 'yogurt no spoon', 'src': '/static/foodstim60/yogurt no spoon.jpg', 'key': 'u', 'origWidth': 411, 'origHeight': 410, 'width': 411, 'height': 410, 'widthPercent': 0.45, 'rescaleHeight': False, 'trialN': 18, 'loaded': True, 'loadedTime': 24006.30000000447, 'positionName': 'LEFT', 'positionCoords': [326.28, 227], 'bid': 4.66}, {'imgObject': {}, 'id': 'burrito', 'src': '/static/foodstim60/burrito.jpg', 'key': 'i', 'origWidth': 410, 'origHeight': 410, 'width': 410, 'height': 410, 'widthPercent': 0.45, 'rescaleHeight': False, 'trialN': 18, 'loaded': True, 'loadedTime': 23768.30000000447, 'positionName': 'RIGHT', 'positionCoords': [798.72, 227], 'bid': 1.35}]",59573.5,1669837198937,yogurt no spoon,burrito,4.66,1.35,-3.31,yogurt no spoon,743.6000000014901,744,744.0,True,u,60821.60000000149,1248.1000000014901,1669837200185,1248,HRV,HRV_0256,2022-11-30 19:45:29
19,"[{'imgObject': {}, 'id': 'mango', 'src': '/static/foodstim60/mango.jpg', 'key': 'u', 'origWidth': 411, 'origHeight': 411, 'width': 411, 'height': 411, 'widthPercent': 0.45, 'rescaleHeight': False, 'trialN': 19, 'loaded': True, 'loadedTime': 24018.39999999851, 'positionName': 'LEFT', 'positionCoords': [326.28, 226.5], 'bid': 9.92}, {'imgObject': {}, 'id': 'burrito', 'src': '/static/foodstim60/burrito.jpg', 'key': 'i', 'origWidth': 410, 'origHeight': 410, 'width': 410, 'height': 410, 'widthPercent': 0.45, 'rescaleHeight': False, 'trialN': 19, 'loaded': True, 'loadedTime': 23767.70000000298, 'positionName': 'RIGHT', 'positionCoords': [798.72, 227], 'bid': 1.35}]",60821.80000000447,1669837200185,mango,burrito,9.92,1.35,-8.57,mango,744.3999999985099,745,744.6999999955297,True,u,62069.30000000447,1247.5,1669837201432,1247,HRV,HRV_0256,2022-11-30 19:45:29
20,"[{'imgObject': {}, 'id': 'Tribe humus pita', 'src': '/static/foodstim60/Tribe humus pita.jpg', 'key': 'u', 'origWidth': 411, 'origHeight': 411, 'width': 411, 'height': 411, 'widthPercent': 0.45, 'rescaleHeight': False, 'trialN': 20, 'loaded': True, 'loadedTime': 24021.5, 'positionName': 'LEFT', 'positionCoords': [326.28, 226.5], 'bid': 0}, {'imgObject': {}, 'id': 'rigatoni', 'src': '/static/foodstim60/rigatoni.jpg', 'key': 'i', 'origWidth': 411, 'origHeight': 411, 'width': 411, 'height': 411, 'widthPercent': 0.45, 'rescaleHeight': False, 'trialN': 20, 'loaded': True, 'loadedTime': 24024.20000000298, 'positionName': 'RIGHT', 'positionCoords': [798.72, 226.5], 'bid': 0.15}]",62069.39999999851,1669837201432,Tribe humus pita,rigatoni,0.0,0.15,0.15,rigatoni,1665,1666,1665.4000000059605,True,i,64237.80000000447,2168.4000000059605,1669837203601,2169,HRV,HRV_0256,2022-11-30 19:45:29
21,"[{'imgObject': {}, 'id': 'omelette', 'src': '/static/foodstim60/omelette.jpg', 'key': 'u', 'origWidth': 410, 'origHeight': 409, 'width': 410, 'height': 409, 'widthPercent': 0.45, 'rescaleHeight': False, 'trialN': 21, 'loaded': True, 'loadedTime': 24030.89999999851, 'positionName': 'LEFT', 'positionCoords': [327.28, 227.5], 'bid': 1.25}, {'imgObject': {}, 'id': 'avocado', 'src': '/static/foodstim60/avocado.jpg', 'key': 'i', 'origWidth': 409, 'origHeight': 409, 'width': 409, 'height': 409, 'widthPercent': 0.45, 'rescaleHeight': False, 'trialN': 21, 'loaded': True, 'loadedTime': 24061.5, 'positionName': 'RIGHT', 'positionCoords': [798.72, 227.5], 'bid': 0.05}]",64238.0,1669837203601,omelette,avocado,1.25,0.05,-1.2,omelette,1176.8000000044703,1177,1177.3000000044703,True,u,65918.70000000298,1680.7000000029802,1669837205282,1681,HRV,HRV_0256,2022-11-30 19:45:29
22,"[{'imgObject': {}, 'id': 'roastedpotatoes', 'src': '/static/foodstim60/roastedpotatoes.jpg', 'key': 'u', 'origWidth': 409, 'origHeight': 410, 'width': 409, 'height': 410, 'widthPercent': 0.45, 'rescaleHeight': False, 'trialN': 22, 'loaded': True, 'loadedTime': 23776.60000000149, 'positionName': 'LEFT', 'positionCoords': [328.28, 227], 'bid': 7.01}, {'imgObject': {}, 'id': 'raspberries', 'src': '/static/foodstim60/raspberries.jpg', 'key': 'i', 'origWidth': 411, 'origHeight': 411, 'width': 411, 'height': 411, 'widthPercent': 0.45, 'rescaleHeight': False, 'trialN': 22, 'loaded': True, 'loadedTime': 24061.89999999851, 'positionName': 'RIGHT', 'positionCoords': [798.72, 226.5], 'bid': 9.63}]",65918.80000000447,1669837205282,roastedpotatoes,raspberries,7.01,9.63,2.620000000000001,roastedpotatoes,936.2999999970198,937,936.7999999970198,True,u,67357.30000000447,1438.5,1669837206720,1438,HRV,HRV_0256,2022-11-30 19:45:29
23,"[{'imgObject': {}, 'id': 'salad w chicken', 'src': '/static/foodstim60/salad w chicken.jpg', 'key': 'u', 'origWidth': 411, 'origHeight': 411, 'width': 411, 'height': 411, 'widthPercent': 0.45, 'rescaleHeight': False, 'trialN': 23, 'loaded': True, 'loadedTime': 23915.39999999851, 'positionName': 'LEFT', 'positionCoords': [326.28, 226.5], 'bid': 0.15}, {'imgObject': {}, 'id': 'ice cream sundae 002', 'src': '/static/foodstim60/ice cream sundae 002.jpg', 'key': 'i', 'origWidth': 409, 'origHeight': 409, 'width': 409, 'height': 409, 'widthPercent': 0.45, 'rescaleHeight': False, 'trialN': 23, 'loaded': True, 'loadedTime': 23997.70000000298, 'positionName': 'RIGHT', 'positionCoords': [798.72, 227.5], 'bid': 5.09}]",67357.5,1669837206721,salad w chicken,ice cream sundae 002,0.15,5.09,4.9399999999999995,ice cream sundae 002,912.8000000044703,913,913.1000000014901,True,i,68773.60000000149,1416.1000000014901,1669837208137,1416,HRV,HRV_0256,2022-11-30 19:45:29
24,"[{'imgObject': {}, 'id': 'salmon', 'src': '/static/foodstim60/salmon.jpg', 'key': 'u', 'origWidth': 410, 'origHeight': 409, 'width': 410, 'height': 409, 'widthPercent': 0.45, 'rescaleHeight': False, 'trialN': 24, 'loaded': True, 'loadedTime': 23696.89999999851, 'positionName': 'LEFT', 'positionCoords': [327.28, 227.5], 'bid': 5.66}, {'imgObject': {}, 'id': 'omelette', 'src': '/static/foodstim60/omelette.jpg', 'key': 'i', 'origWidth': 410, 'origHeight': 409, 'width': 410, 'height': 409, 'widthPercent': 0.45, 'rescaleHeight': False, 'trialN': 24, 'loaded': True, 'loadedTime': 24025.39999999851, 'positionName': 'RIGHT', 'positionCoords': [798.72, 227.5], 'bid': 1.25}]",68773.80000000447,1669837208137,salmon,omelette,5.66,1.25,-4.41,salmon,912.8999999985099,913,913.0999999940395,True,u,70190.20000000298,1416.3999999985099,1669837209553,1416,HRV,HRV_0256,2022-11-30 19:45:29
25,"[{'imgObject': {}, 'id': 'hotdog w must', 'src': '/static/foodstim60/hotdog w must.jpg', 'key': 'u', 'origWidth': 409, 'origHeight': 409, 'width': 409, 'height': 409, 'widthPercent': 0.45, 'rescaleHeight': False, 'trialN': 25, 'loaded': True, 'loadedTime': 24064.70000000298, 'positionName': 'LEFT', 'positionCoords': [328.28, 227.5], 'bid': 6.8}, {'imgObject': {}, 'id': 'roastedpotatoes', 'src': '/static/foodstim60/roastedpotatoes.jpg', 'key': 'i', 'origWidth': 409, 'origHeight': 410, 'width': 409, 'height': 410, 'widthPercent': 0.45, 'rescaleHeight': False, 'trialN': 25, 'loaded': True, 'loadedTime': 23776.30000000447, 'positionName': 'RIGHT', 'positionCoords': [798.72, 227], 'bid': 7.01}]",70190.60000000149,1669837209554,hotdog w must,roastedpotatoes,6.8,7.01,0.20999999999999996,hotdog w must,1248.2999999970198,1248,1248.7000000029802,True,u,71942.5,1751.8999999985099,1669837211306,1752,HRV,HRV_0256,2022-11-30 19:45:29
26,"[{'imgObject': {}, 'id': 'eggsalad', 'src': '/static/foodstim60/eggsalad.jpg', 'key': 'u', 'origWidth': 410, 'origHeight': 409, 'width': 410, 'height': 409, 'widthPercent': 0.45, 'rescaleHeight': False, 'trialN': 26, 'loaded': True, 'loadedTime': 24091.89999999851, 'positionName': 'LEFT', 'positionCoords': [327.28, 227.5], 'bid': 0}, {'imgObject': {}, 'id': 'ice cream sundae 002', 'src': '/static/foodstim60/ice cream sundae 002.jpg', 'key': 'i', 'origWidth': 409, 'origHeight': 409, 'width': 409, 'height': 409, 'widthPercent': 0.45, 'rescaleHeight': False, 'trialN': 26, 'loaded': True, 'loadedTime': 23997.89999999851, 'positionName': 'RIGHT', 'positionCoords': [798.72, 227.5], 'bid': 5.09}]",71942.70000000298,1669837211306,eggsalad,ice cream sundae 002,0.0,5.09,5.09,ice cream sundae 002,1664.2999999970198,1665,1664.7999999970198,True,i,74110.5,2167.7999999970198,1669837213474,2168,HRV,HRV_0256,2022-11-30 19:45:29
27,"[{'imgObject': {}, 'id': 'baked potato', 'src': '/static/foodstim60/baked potato.jpg', 'key': 'u', 'origWidth': 409, 'origHeight': 410, 'width': 409, 'height': 410, 'widthPercent': 0.45, 'rescaleHeight': False, 'trialN': 27, 'loaded': True, 'loadedTime': 24092.10000000149, 'positionName': 'LEFT', 'positionCoords': [328.28, 227], 'bid': 0.03}, {'imgObject': {}, 'id': 'burger', 'src': '/static/foodstim60/burger.jpg', 'key': 'i', 'origWidth': 409, 'origHeight': 409, 'width': 409, 'height': 409, 'widthPercent': 0.45, 'rescaleHeight': False, 'trialN': 27, 'loaded': True, 'loadedTime': 23864.89999999851, 'positionName': 'RIGHT', 'positionCoords': [798.72, 227.5], 'bid': 5.93}]",74110.70000000298,1669837213474,baked potato,burger,0.03,5.93,5.8999999999999995,burger,1048.2999999970198,1049,1048.7999999970198,True,i,75661.39999999851,1550.6999999955297,1669837215024,1550,HRV,HRV_0256,2022-11-30 19:45:29
28,"[{'imgObject': {}, 'id': 'granola w milk', 'src': '/static/foodstim60/granola w milk.jpg', 'key': 'u', 'origWidth': 410, 'origHeight': 410, 'width': 410, 'height': 410, 'widthPercent': 0.45, 'rescaleHeight': False, 'trialN': 28, 'loaded': True, 'loadedTime': 24014.60000000149, 'positionName': 'LEFT', 'positionCoords': [327.28, 227], 'bid': 0.03}, {'imgObject': {}, 'id': 'veggieswithdip', 'src': '/static/foodstim60/veggieswithdip.jpg', 'key': 'i', 'origWidth': 409, 'origHeight': 409, 'width': 409, 'height': 409, 'widthPercent': 0.45, 'rescaleHeight': False, 'trialN': 28, 'loaded': True, 'loadedTime': 23863.30000000447, 'positionName': 'RIGHT', 'positionCoords': [798.72, 227.5], 'bid': 0.05}]",75661.5,1669837215025,granola w milk,veggieswithdip,0.03,0.05,0.020000000000000004,granola w milk,1377.1000000014901,1377,1377.5,True,u,77540.80000000447,1879.3000000044703,1669837216904,1879,HRV,HRV_0256,2022-11-30 19:45:29
29,"[{'imgObject': {}, 'id': 'cheerios', 'src': '/static/foodstim60/cheerios.jpg', 'key': 'u', 'origWidth': 409, 'origHeight': 410, 'width': 409, 'height': 410, 'widthPercent': 0.45, 'rescaleHeight': False, 'trialN': 29, 'loaded': True, 'loadedTime': 24093.60000000149, 'positionName': 'LEFT', 'positionCoords': [328.28, 227], 'bid': 0.71}, {'imgObject': {}, 'id': 'steak', 'src': '/static/foodstim60/steak.jpg', 'key': 'i', 'origWidth': 410, 'origHeight': 410, 'width': 410, 'height': 410, 'widthPercent': 0.45, 'rescaleHeight': False, 'trialN': 29, 'loaded': True, 'loadedTime': 24120.10000000149, 'positionName': 'RIGHT', 'positionCoords': [798.72, 227], 'bid': 5.75}]",77541.0,1669837216904,cheerios,steak,0.71,5.75,5.04,steak,873.6000000014901,874,873.8999999985099,True,i,78917.60000000149,1376.6000000014901,1669837218281,1377,HRV,HRV_0256,2022-11-30 19:45:29
30,"[{'imgObject': {}, 'id': 'ice cream sundae 002', 'src': '/static/foodstim60/ice cream sundae 002.jpg', 'key': 'u', 'origWidth': 409, 'origHeight': 409, 'width': 409, 'height': 409, 'widthPercent': 0.45, 'rescaleHeight': False, 'trialN': 30, 'loaded': True, 'loadedTime': 23998.10000000149, 'positionName': 'LEFT', 'positionCoords': [328.28, 227.5], 'bid': 5.09}, {'imgObject': {}, 'id': 'cantaloupe', 'src': '/static/foodstim60/cantaloupe.jpg', 'key': 'i', 'origWidth': 409, 'origHeight': 409, 'width': 409, 'height': 409, 'widthPercent': 0.45, 'rescaleHeight': False, 'trialN': 30, 'loaded': True, 'loadedTime': 24121.70000000298, 'positionName': 'RIGHT', 'positionCoords': [798.72, 227.5], 'bid': 0.55}]",78917.80000000447,1669837218281,ice cream sundae 002,cantaloupe,5.09,0.55,-4.54,ice cream sundae 002,1072.8999999985099,1073,1073.2999999970198,True,u,80493.70000000298,1575.8999999985099,1669837219857,1576,HRV,HRV_0256,2022-11-30 19:45:29
31,"[{'imgObject': {}, 'id': 'rigatoni and sauce', 'src': '/static/foodstim60/rigatoni and sauce.jpg', 'key': 'u', 'origWidth': 410, 'origHeight': 411, 'width': 410, 'height': 411, 'widthPercent': 0.45, 'rescaleHeight': False, 'trialN': 31, 'loaded': True, 'loadedTime': 24150.20000000298, 'positionName': 'LEFT', 'positionCoords': [327.28, 226.5], 'bid': 5.98}, {'imgObject': {}, 'id': 'pear', 'src': '/static/foodstim60/pear.jpg', 'key': 'i', 'origWidth': 411, 'origHeight': 410, 'width': 411, 'height': 410, 'widthPercent': 0.45, 'rescaleHeight': False, 'trialN': 31, 'loaded': True, 'loadedTime': 23931.20000000298, 'positionName': 'RIGHT', 'positionCoords': [798.72, 227], 'bid': 7.22}]",80494.0,1669837219857,rigatoni and sauce,pear,5.98,7.22,1.2399999999999993,pear,1256.2000000029802,1257,1256.6000000014901,True,i,82253.39999999851,1759.3999999985099,1669837221616,1759,HRV,HRV_0256,2022-11-30 19:45:29
32,"[{'imgObject': {}, 'id': 'turkeysandwich', 'src': '/static/foodstim60/turkeysandwich.jpg', 'key': 'u', 'origWidth': 409, 'origHeight': 409, 'width': 409, 'height': 409, 'widthPercent': 0.45, 'rescaleHeight': False, 'trialN': 32, 'loaded': True, 'loadedTime': 23774.89999999851, 'positionName': 'LEFT', 'positionCoords': [328.28, 227.5], 'bid': 5.61}, {'imgObject': {}, 'id': 'bagel and cc', 'src': '/static/foodstim60/bagel and cc.jpg', 'key': 'i', 'origWidth': 410, 'origHeight': 410, 'width': 410, 'height': 410, 'widthPercent': 0.45, 'rescaleHeight': False, 'trialN': 32, 'loaded': True, 'loadedTime': 23760.30000000447, 'positionName': 'RIGHT', 'positionCoords': [798.72, 227], 'bid': 0}]",82253.5,1669837221617,turkeysandwich,bagel and cc,5.61,0.0,-5.61,turkeysandwich,1464.5,1464,1464.8999999985099,True,u,84221.89999999851,1968.3999999985099,1669837223585,1968,HRV,HRV_0256,2022-11-30 19:45:29
33,"[{'imgObject': {}, 'id': 'strawberries', 'src': '/static/foodstim60/strawberries.jpg', 'key': 'u', 'origWidth': 410, 'origHeight': 410, 'width': 410, 'height': 410, 'widthPercent': 0.45, 'rescaleHeight': False, 'trialN': 33, 'loaded': True, 'loadedTime': 23772.70000000298, 'positionName': 'LEFT', 'positionCoords': [327.28, 227], 'bid': 8.75}, {'imgObject': {}, 'id': 'mac & cheese', 'src': '/static/foodstim60/mac & cheese.jpg', 'key': 'i', 'origWidth': 410, 'origHeight': 410, 'width': 410, 'height': 410, 'widthPercent': 0.45, 'rescaleHeight': False, 'trialN': 33, 'loaded': True, 'loadedTime': 24151.80000000447, 'positionName': 'RIGHT', 'positionCoords': [798.72, 227], 'bid': 6.3}]",84222.0,1669837223585,strawberries,mac & cheese,8.75,6.3,-2.45,strawberries,744.6000000014901,745,744.8999999985099,True,u,85469.70000000298,1247.7000000029802,1669837224833,1248,HRV,HRV_0256,2022-11-30 19:45:29
34,"[{'imgObject': {}, 'id': 'lox', 'src': '/static/foodstim60/lox.jpg', 'key': 'u', 'origWidth': 410, 'origHeight': 411, 'width': 410, 'height': 411, 'widthPercent': 0.45, 'rescaleHeight': False, 'trialN': 34, 'loaded': True, 'loadedTime': 23784.20000000298, 'positionName': 'LEFT', 'positionCoords': [327.28, 226.5], 'bid': 0.03}, {'imgObject': {}, 'id': 'hashbrowns', 'src': '/static/foodstim60/hashbrowns.jpg', 'key': 'i', 'origWidth': 411, 'origHeight': 410, 'width': 411, 'height': 410, 'widthPercent': 0.45, 'rescaleHeight': False, 'trialN': 34, 'loaded': True, 'loadedTime': 23921.10000000149, 'positionName': 'RIGHT', 'positionCoords': [798.72, 227], 'bid': 0.22}]",85470.0,1669837224833,lox,hashbrowns,0.03,0.22,0.19,hashbrowns,1176.6000000014901,1177,1176.8999999985099,True,i,87149.60000000149,1679.6000000014901,1669837226513,1680,HRV,HRV_0256,2022-11-30 19:45:29
35,"[{'imgObject': {}, 'id': 'blueberries', 'src': '/static/foodstim60/blueberries.jpg', 'key': 'u', 'origWidth': 411, 'origHeight': 411, 'width': 411, 'height': 411, 'widthPercent': 0.45, 'rescaleHeight': False, 'trialN': 35, 'loaded': True, 'loadedTime': 23934.80000000447, 'positionName': 'LEFT', 'positionCoords': [326.28, 226.5], 'bid': 9.06}, {'imgObject': {}, 'id': 'mango', 'src': '/static/foodstim60/mango.jpg', 'key': 'i', 'origWidth': 411, 'origHeight': 411, 'width': 411, 'height': 411, 'widthPercent': 0.45, 'rescaleHeight': False, 'trialN': 35, 'loaded': True, 'loadedTime': 24018.60000000149, 'positionName': 'RIGHT', 'positionCoords': [798.72, 226.5], 'bid': 9.92}]",87149.80000000447,1669837226513,blueberries,mango,9.06,9.92,0.8599999999999994,mango,768.5999999940395,769,769.0,True,i,88420.80000000447,1271.0,1669837227784,1271,HRV,HRV_0256,2022-11-30 19:45:29
36,"[{'imgObject': {}, 'id': 'raisin bran w milk', 'src': '/static/foodstim60/raisin bran w milk.jpg', 'key': 'u', 'origWidth': 411, 'origHeight': 411, 'width': 411, 'height': 411, 'widthPercent': 0.45, 'rescaleHeight': False, 'trialN': 36, 'loaded': True, 'loadedTime': 24154.89999999851, 'positionName': 'LEFT', 'positionCoords': [326.28, 226.5], 'bid': 0.1}, {'imgObject': {}, 'id': 'mashed potato', 'src': '/static/foodstim60/mashed potato.jpg', 'key': 'i', 'origWidth': 409, 'origHeight': 409, 'width': 409, 'height': 409, 'widthPercent': 0.45, 'rescaleHeight': False, 'trialN': 36, 'loaded': True, 'loadedTime': 24155.60000000149, 'positionName': 'RIGHT', 'positionCoords': [798.72, 227.5], 'bid': 0}]",88421.10000000149,1669837227784,raisin bran w milk,mashed potato,0.1,0.0,-0.1,raisin bran w milk,2344.39999999851,2345,2344.7000000029802,True,u,91268.89999999851,2847.7999999970198,1669837230632,2848,HRV,HRV_0256,2022-11-30 19:45:29
37,"[{'imgObject': {}, 'id': 'baked potato', 'src': '/static/foodstim60/baked potato.jpg', 'key': 'u', 'origWidth': 409, 'origHeight': 410, 'width': 409, 'height': 410, 'widthPercent': 0.45, 'rescaleHeight': False, 'trialN': 37, 'loaded': True, 'loadedTime': 24093.39999999851, 'positionName': 'LEFT', 'positionCoords': [328.28, 227], 'bid': 0.03}, {'imgObject': {}, 'id': 'sushi w_condiments', 'src': '/static/foodstim60/sushi w_condiments.jpg', 'key': 'i', 'origWidth': 410, 'origHeight': 410, 'width': 410, 'height': 410, 'widthPercent': 0.45, 'rescaleHeight': False, 'trialN': 37, 'loaded': True, 'loadedTime': 23779.89999999851, 'positionName': 'RIGHT', 'positionCoords': [798.72, 227], 'bid': 0.31}]",91269.0,1669837230632,baked potato,sushi w_condiments,0.03,0.31,0.28,baked potato,1353.3999999985099,1354,1353.8000000044703,True,u,93126.0,1857.0,1669837232489,1857,HRV,HRV_0256,2022-11-30 19:45:29
38,"[{'imgObject': {}, 'id': 'kiwi', 'src': '/static/foodstim60/kiwi.jpg', 'key': 'u', 'origWidth': 410, 'origHeight': 410, 'width': 410, 'height': 410, 'widthPercent': 0.45, 'rescaleHeight': False, 'trialN': 38, 'loaded': True, 'loadedTime': 24161.39999999851, 'positionName': 'LEFT', 'positionCoords': [327.28, 227], 'bid': 6.51}, {'imgObject': {}, 'id': 'hotdog w must', 'src': '/static/foodstim60/hotdog w must.jpg', 'key': 'i', 'origWidth': 409, 'origHeight': 409, 'width': 409, 'height': 409, 'widthPercent': 0.45, 'rescaleHeight': False, 'trialN': 38, 'loaded': True, 'loadedTime': 24065.10000000149, 'positionName': 'RIGHT', 'positionCoords': [798.72, 227.5], 'bid': 6.8}]",93126.30000000447,1669837232489,kiwi,hotdog w must,6.51,6.8,0.29000000000000004,kiwi,1135.7999999970198,1137,1136.2999999970198,True,u,94765.60000000149,1639.2999999970198,1669837234129,1640,HRV,HRV_0256,2022-11-30 19:45:29
39,"[{'imgObject': {}, 'id': 'salad w chicken', 'src': '/static/foodstim60/salad w chicken.jpg', 'key': 'u', 'origWidth': 411, 'origHeight': 411, 'width': 411, 'height': 411, 'widthPercent': 0.45, 'rescaleHeight': False, 'trialN': 39, 'loaded': True, 'loadedTime': 23914.80000000447, 'positionName': 'LEFT', 'positionCoords': [326.28, 226.5], 'bid': 0.15}, {'imgObject': {}, 'id': 'rigatoni', 'src': '/static/foodstim60/rigatoni.jpg', 'key': 'i', 'origWidth': 411, 'origHeight': 411, 'width': 411, 'height': 411, 'widthPercent': 0.45, 'rescaleHeight': False, 'trialN': 39, 'loaded': True, 'loadedTime': 24025.30000000447, 'positionName': 'RIGHT', 'positionCoords': [798.72, 226.5], 'bid': 0.15}]",94765.80000000447,1669837234129,salad w chicken,rigatoni,0.15,0.15,0.0,rigatoni,2664.6999999955297,2665,2665.0999999940395,True,i,97933.39999999851,3167.5999999940395,1669837237296,3167,HRV,HRV_0256,2022-11-30 19:45:29
40,"[{'imgObject': {}, 'id': 'Tribe humus pita', 'src': '/static/foodstim60/Tribe humus pita.jpg', 'key': 'u', 'origWidth': 411, 'origHeight': 411, 'width': 411, 'height': 411, 'widthPercent': 0.45, 'rescaleHeight': False, 'trialN': 40, 'loaded': True, 'loadedTime': 24020.39999999851, 'positionName': 'LEFT', 'positionCoords': [326.28, 226.5], 'bid': 0}, {'imgObject': {}, 'id': 'raisin bran w milk', 'src': '/static/foodstim60/raisin bran w milk.jpg', 'key': 'i', 'origWidth': 411, 'origHeight': 411, 'width': 411, 'height': 411, 'widthPercent': 0.45, 'rescaleHeight': False, 'trialN': 40, 'loaded': True, 'loadedTime': 24154.10000000149, 'positionName': 'RIGHT', 'positionCoords': [798.72, 226.5], 'bid': 0.1}]",97933.5,1669837237297,Tribe humus pita,raisin bran w milk,0.0,0.1,0.1,raisin bran w milk,1305,1305,1305.5,True,i,99740.70000000298,1807.2000000029802,1669837239104,1807,HRV,HRV_0256,2022-11-30 19:45:29
41,"[{'imgObject': {}, 'id': 'veggieswithdip', 'src': '/static/foodstim60/veggieswithdip.jpg', 'key': 'u', 'origWidth': 409, 'origHeight': 409, 'width': 409, 'height': 409, 'widthPercent': 0.45, 'rescaleHeight': False, 'trialN': 41, 'loaded': True, 'loadedTime': 23825.80000000447, 'positionName': 'LEFT', 'positionCoords': [328.28, 227.5], 'bid': 0.05}, {'imgObject': {}, 'id': 'eggsalad', 'src': '/static/foodstim60/eggsalad.jpg', 'key': 'i', 'origWidth': 410, 'origHeight': 409, 'width': 410, 'height': 409, 'widthPercent': 0.45, 'rescaleHeight': False, 'trialN': 41, 'loaded': True, 'loadedTime': 24091.39999999851, 'positionName': 'RIGHT', 'positionCoords': [798.72, 227.5], 'bid': 0}]",99741.0,1669837239104,veggieswithdip,eggsalad,0.05,0.0,-0.05,eggsalad,2329.60000000149,2330,2330.0,True,i,102573.39999999851,2832.39999999851,1669837241936,2832,HRV,HRV_0256,2022-11-30 19:45:29
42,"[{'imgObject': {}, 'id': 'popsicles', 'src': '/static/foodstim60/popsicles.jpg', 'key': 'u', 'origWidth': 410, 'origHeight': 410, 'width': 410, 'height': 410, 'widthPercent': 0.45, 'rescaleHeight': False, 'trialN': 42, 'loaded': True, 'loadedTime': 24194, 'positionName': 'LEFT', 'positionCoords': [327.28, 227], 'bid': 6.5200000000000005}, {'imgObject': {}, 'id': 'kiwi', 'src': '/static/foodstim60/kiwi.jpg', 'key': 'i', 'origWidth': 410, 'origHeight': 410, 'width': 410, 'height': 410, 'widthPercent': 0.45, 'rescaleHeight': False, 'trialN': 42, 'loaded': True, 'loadedTime': 24160.80000000447, 'positionName': 'RIGHT', 'positionCoords': [798.72, 227], 'bid': 6.51}]",102573.60000000149,1669837241937,popsicles,kiwi,6.5200000000000005,6.51,-0.010000000000000675,kiwi,672.3999999985099,672,672.7999999970198,True,i,103748.89999999851,1175.2999999970198,1669837243112,1175,HRV,HRV_0256,2022-11-30 19:45:29
43,"[{'imgObject': {}, 'id': 'bagel plain', 'src': '/static/foodstim60/bagel plain.jpg', 'key': 'u', 'origWidth': 410, 'origHeight': 410, 'width': 410, 'height': 410, 'widthPercent': 0.45, 'rescaleHeight': False, 'trialN': 43, 'loaded': True, 'loadedTime': 23824.30000000447, 'positionName': 'LEFT', 'positionCoords': [327.28, 227], 'bid': 0.15}, {'imgObject': {}, 'id': 'eggs', 'src': '/static/foodstim60/eggs.jpg', 'key': 'i', 'origWidth': 409, 'origHeight': 409, 'width': 409, 'height': 409, 'widthPercent': 0.45, 'rescaleHeight': False, 'trialN': 43, 'loaded': True, 'loadedTime': 23911.80000000447, 'positionName': 'RIGHT', 'positionCoords': [798.72, 227.5], 'bid': 0.15}]",103749.20000000298,1669837243112,bagel plain,eggs,0.15,0.15,0.0,eggs,1017.7999999970198,1018,1018.0,True,i,105269.10000000149,1519.8999999985099,1669837244632,1520,HRV,HRV_0256,2022-11-30 19:45:29
44,"[{'imgObject': {}, 'id': 'hotdog w must', 'src': '/static/foodstim60/hotdog w must.jpg', 'key': 'u', 'origWidth': 409, 'origHeight': 409, 'width': 409, 'height': 409, 'widthPercent': 0.45, 'rescaleHeight': False, 'trialN': 44, 'loaded': True, 'loadedTime': 24090, 'positionName': 'LEFT', 'positionCoords': [328.28, 227.5], 'bid': 6.8}, {'imgObject': {}, 'id': 'rigatoni and sauce', 'src': '/static/foodstim60/rigatoni and sauce.jpg', 'key': 'i', 'origWidth': 410, 'origHeight': 411, 'width': 410, 'height': 411, 'widthPercent': 0.45, 'rescaleHeight': False, 'trialN': 44, 'loaded': True, 'loadedTime': 24123, 'positionName': 'RIGHT', 'positionCoords': [798.72, 226.5], 'bid': 5.98}]",105269.30000000447,1669837244632,hotdog w must,rigatoni and sauce,6.8,5.98,-0.8199999999999994,hotdog w must,1673,1674,1673.5,True,u,107445.0,2175.6999999955297,1669837246808,2176,HRV,HRV_0256,2022-11-30 19:45:29
45,"[{'imgObject': {}, 'id': 'salmon', 'src': '/static/foodstim60/salmon.jpg', 'key': 'u', 'origWidth': 410, 'origHeight': 409, 'width': 410, 'height': 409, 'widthPercent': 0.45, 'rescaleHeight': False, 'trialN': 45, 'loaded': True, 'loadedTime': 23694.39999999851, 'positionName': 'LEFT', 'positionCoords': [327.28, 227.5], 'bid': 5.66}, {'imgObject': {}, 'id': 'orange slices', 'src': '/static/foodstim60/orange slices.jpg', 'key': 'i', 'origWidth': 409, 'origHeight': 410, 'width': 409, 'height': 410, 'widthPercent': 0.45, 'rescaleHeight': False, 'trialN': 45, 'loaded': True, 'loadedTime': 24162.30000000447, 'positionName': 'RIGHT', 'positionCoords': [798.72, 227], 'bid': 7.13}]",107445.30000000447,1669837246808,salmon,orange slices,5.66,7.13,1.4699999999999998,orange slices,1137.7999999970198,1139,1138.1999999955297,True,i,109085.30000000447,1640.0,1669837248448,1640,HRV,HRV_0256,2022-11-30 19:45:29
46,"[{'imgObject': {}, 'id': 'popsicles', 'src': '/static/foodstim60/popsicles.jpg', 'key': 'u', 'origWidth': 410, 'origHeight': 410, 'width': 410, 'height': 410, 'widthPercent': 0.45, 'rescaleHeight': False, 'trialN': 46, 'loaded': True, 'loadedTime': 24194.10000000149, 'positionName': 'LEFT', 'positionCoords': [327.28, 227], 'bid': 6.5200000000000005}, {'imgObject': {}, 'id': 'raisin bran w milk', 'src': '/static/foodstim60/raisin bran w milk.jpg', 'key': 'i', 'origWidth': 411, 'origHeight': 411, 'width': 411, 'height': 411, 'widthPercent': 0.45, 'rescaleHeight': False, 'trialN': 46, 'loaded': True, 'loadedTime': 24154.20000000298, 'positionName': 'RIGHT', 'positionCoords': [798.72, 226.5], 'bid': 0.1}]",109085.39999999851,1669837248449,popsicles,raisin bran w milk,6.5200000000000005,0.1,-6.420000000000001,popsicles,554,554,554.3000000044703,True,u,110142.39999999851,1057.0,1669837249506,1057,HRV,HRV_0256,2022-11-30 19:45:29
47,"[{'imgObject': {}, 'id': 'sweetpotato', 'src': '/static/foodstim60/sweetpotato.jpg', 'key': 'u', 'origWidth': 410, 'origHeight': 410, 'width': 410, 'height': 410, 'widthPercent': 0.45, 'rescaleHeight': False, 'trialN': 47, 'loaded': True, 'loadedTime': 23765.70000000298, 'positionName': 'LEFT', 'positionCoords': [327.28, 227], 'bid': 0.06}, {'imgObject': {}, 'id': 'shreddedwheatwithmilk', 'src': '/static/foodstim60/shreddedwheatwithmilk.jpg', 'key': 'i', 'origWidth': 410, 'origHeight': 410, 'width': 410, 'height': 410, 'widthPercent': 0.45, 'rescaleHeight': False, 'trialN': 47, 'loaded': True, 'loadedTime': 23758, 'positionName': 'RIGHT', 'positionCoords': [798.72, 227], 'bid': 0}]",110142.80000000447,1669837249506,sweetpotato,shreddedwheatwithmilk,0.06,0.0,-0.06,shreddedwheatwithmilk,1023.2999999970198,1024,1023.6999999955297,True,i,111669.89999999851,1527.0999999940395,1669837251033,1527,HRV,HRV_0256,2022-11-30 19:45:29
48,"[{'imgObject': {}, 'id': 'avocado', 'src': '/static/foodstim60/avocado.jpg', 'key': 'u', 'origWidth': 409, 'origHeight': 409, 'width': 409, 'height': 409, 'widthPercent': 0.45, 'rescaleHeight': False, 'trialN': 48, 'loaded': True, 'loadedTime': 24031.70000000298, 'positionName': 'LEFT', 'positionCoords': [328.28, 227.5], 'bid': 0.05}, {'imgObject': {}, 'id': 'olives', 'src': '/static/foodstim60/olives.jpg', 'key': 'i', 'origWidth': 410, 'origHeight': 410, 'width': 410, 'height': 410, 'widthPercent': 0.45, 'rescaleHeight': False, 'trialN': 48, 'loaded': True, 'loadedTime': 24165.60000000149, 'positionName': 'RIGHT', 'positionCoords': [798.72, 227], 'bid': 0.09}]",111670.20000000298,1669837251033,avocado,olives,0.05,0.09,0.039999999999999994,avocado,1600.5,1601,1600.7999999970198,True,u,113773.70000000298,2103.5,1669837253137,2104,HRV,HRV_0256,2022-11-30 19:45:29
49,"[{'imgObject': {}, 'id': 'hotdog w must', 'src': '/static/foodstim60/hotdog w must.jpg', 'key': 'u', 'origWidth': 409, 'origHeight': 409, 'width': 409, 'height': 409, 'widthPercent': 0.45, 'rescaleHeight': False, 'trialN': 49, 'loaded': True, 'loadedTime': 24064.80000000447, 'positionName': 'LEFT', 'positionCoords': [328.28, 227.5], 'bid': 6.8}, {'imgObject': {}, 'id': 'seaweed', 'src': '/static/foodstim60/seaweed.jpg', 'key': 'i', 'origWidth': 410, 'origHeight': 410, 'width': 410, 'height': 410, 'widthPercent': 0.45, 'rescaleHeight': False, 'trialN': 49, 'loaded': True, 'loadedTime': 24168.30000000447, 'positionName': 'RIGHT', 'positionCoords': [798.72, 227], 'bid': 0.1}]",113774.0,1669837253137,hotdog w must,seaweed,6.8,0.1,-6.7,hotdog w must,2184.39999999851,2185,2184.7000000029802,True,u,116462.39999999851,2688.39999999851,1669837255826,2689,HRV,HRV_0256,2022-11-30 19:45:29
50,"[{'imgObject': {}, 'id': 'avocado', 'src': '/static/foodstim60/avocado.jpg', 'key': 'u', 'origWidth': 409, 'origHeight': 409, 'width': 409, 'height': 409, 'widthPercent': 0.45, 'rescaleHeight': False, 'trialN': 50, 'loaded': True, 'loadedTime': 24061.39999999851, 'positionName': 'LEFT', 'positionCoords': [328.28, 227.5], 'bid': 0.05}, {'imgObject': {}, 'id': 'bagel plain', 'src': '/static/foodstim60/bagel plain.jpg', 'key': 'i', 'origWidth': 410, 'origHeight': 410, 'width': 410, 'height': 410, 'widthPercent': 0.45, 'rescaleHeight': False, 'trialN': 50, 'loaded': True, 'loadedTime': 23825.5, 'positionName': 'RIGHT', 'positionCoords': [798.72, 227], 'bid': 0.15}]",116462.70000000298,1669837255826,avocado,bagel plain,0.05,0.15,0.09999999999999999,bagel plain,3247.5,3248,3247.7999999970198,True,i,120213.39999999851,3750.6999999955297,1669837259576,3750,HRV,HRV_0256,2022-11-30 19:45:29
51,"[{'imgObject': {}, 'id': 'seaweed', 'src': '/static/foodstim60/seaweed.jpg', 'key': 'u', 'origWidth': 410, 'origHeight': 410, 'width': 410, 'height': 410, 'widthPercent': 0.45, 'rescaleHeight': False, 'trialN': 51, 'loaded': True, 'loadedTime': 24166.30000000447, 'positionName': 'LEFT', 'positionCoords': [327.28, 227], 'bid': 0.1}, {'imgObject': {}, 'id': 'edamame', 'src': '/static/foodstim60/edamame.jpg', 'key': 'i', 'origWidth': 409, 'origHeight': 410, 'width': 409, 'height': 410, 'widthPercent': 0.45, 'rescaleHeight': False, 'trialN': 51, 'loaded': True, 'loadedTime': 23906.60000000149, 'positionName': 'RIGHT', 'positionCoords': [798.72, 227], 'bid': 0.11}]",120213.60000000149,1669837259577,seaweed,edamame,0.1,0.11,0.009999999999999995,edamame,2392.39999999851,2393,2392.7999999970198,True,i,123110.5,2896.89999999851,1669837262474,2897,HRV,HRV_0256,2022-11-30 19:45:29
52,"[{'imgObject': {}, 'id': 'strawberries', 'src': '/static/foodstim60/strawberries.jpg', 'key': 'u', 'origWidth': 410, 'origHeight': 410, 'width': 410, 'height': 410, 'widthPercent': 0.45, 'rescaleHeight': False, 'trialN': 52, 'loaded': True, 'loadedTime': 23772.80000000447, 'positionName': 'LEFT', 'positionCoords': [327.28, 227], 'bid': 8.75}, {'imgObject': {}, 'id': 'Grapes', 'src': '/static/foodstim60/Grapes.jpg', 'key': 'i', 'origWidth': 411, 'origHeight': 411, 'width': 411, 'height': 411, 'widthPercent': 0.45, 'rescaleHeight': False, 'trialN': 52, 'loaded': True, 'loadedTime': 24171.30000000447, 'positionName': 'RIGHT', 'positionCoords': [798.72, 226.5], 'bid': 8.85}]",123110.70000000298,1669837262474,strawberries,Grapes,8.75,8.85,0.09999999999999964,strawberries,2063.39999999851,2064,2063.7999999970198,True,u,125677.30000000447,2566.60000000149,1669837265040,2566,HRV,HRV_0256,2022-11-30 19:45:29
53,"[{'imgObject': {}, 'id': 'corn cob', 'src': '/static/foodstim60/corn cob.jpg', 'key': 'u', 'origWidth': 411, 'origHeight': 411, 'width': 411, 'height': 411, 'widthPercent': 0.45, 'rescaleHeight': False, 'trialN': 53, 'loaded': True, 'loadedTime': 24008.89999999851, 'positionName': 'LEFT', 'positionCoords': [326.28, 226.5], 'bid': 0}, {'imgObject': {}, 'id': 'luckycharms', 'src': '/static/foodstim60/luckycharms.jpg', 'key': 'i', 'origWidth': 410, 'origHeight': 409, 'width': 410, 'height': 409, 'widthPercent': 0.45, 'rescaleHeight': False, 'trialN': 53, 'loaded': True, 'loadedTime': 24172.70000000298, 'positionName': 'RIGHT', 'positionCoords': [798.72, 227.5], 'bid': 5.7}]",125677.39999999851,1669837265041,corn cob,luckycharms,0.0,5.7,5.7,luckycharms,1168.8000000044703,1169,1169.2000000029802,True,i,127348.89999999851,1671.5,1669837266712,1671,HRV,HRV_0256,2022-11-30 19:45:29
54,"[{'imgObject': {}, 'id': 'banana', 'src': '/static/foodstim60/banana.jpg', 'key': 'u', 'origWidth': 410, 'origHeight': 410, 'width': 410, 'height': 410, 'widthPercent': 0.45, 'rescaleHeight': False, 'trialN': 54, 'loaded': True, 'loadedTime': 24173.39999999851, 'positionName': 'LEFT', 'positionCoords': [327.28, 227], 'bid': 6.19}, {'imgObject': {}, 'id': 'mac & cheese', 'src': '/static/foodstim60/mac & cheese.jpg', 'key': 'i', 'origWidth': 410, 'origHeight': 410, 'width': 410, 'height': 410, 'widthPercent': 0.45, 'rescaleHeight': False, 'trialN': 54, 'loaded': True, 'loadedTime': 24152, 'positionName': 'RIGHT', 'positionCoords': [798.72, 227], 'bid': 6.3}]",127349.10000000149,1669837266712,banana,mac & cheese,6.19,6.3,0.10999999999999943,mac & cheese,1513.1000000014901,1514,1513.6000000014901,True,i,129364.70000000298,2015.6000000014901,1669837268728,2016,HRV,HRV_0256,2022-11-30 19:45:29
55,"[{'imgObject': {}, 'id': 'turkey sandwich', 'src': '/static/foodstim60/turkey sandwich.jpg', 'key': 'u', 'origWidth': 409, 'origHeight': 409, 'width': 409, 'height': 409, 'widthPercent': 0.45, 'rescaleHeight': False, 'trialN': 55, 'loaded': True, 'loadedTime': 23903.89999999851, 'positionName': 'LEFT', 'positionCoords': [328.28, 227.5], 'bid': 6.01}, {'imgObject': {}, 'id': 'blueberries', 'src': '/static/foodstim60/blueberries.jpg', 'key': 'i', 'origWidth': 411, 'origHeight': 411, 'width': 411, 'height': 411, 'widthPercent': 0.45, 'rescaleHeight': False, 'trialN': 55, 'loaded': True, 'loadedTime': 23934.5, 'positionName': 'RIGHT', 'positionCoords': [798.72, 226.5], 'bid': 9.06}]",129364.89999999851,1669837268728,turkey sandwich,blueberries,6.01,9.06,3.0500000000000007,blueberries,2618.8000000044703,2619,2619.10000000149,True,i,132484.8999999985,3120.0,1669837271848,3120,HRV,HRV_0256,2022-11-30 19:45:29
56,"[{'imgObject': {}, 'id': 'bagel and cc', 'src': '/static/foodstim60/bagel and cc.jpg', 'key': 'u', 'origWidth': 410, 'origHeight': 410, 'width': 410, 'height': 410, 'widthPercent': 0.45, 'rescaleHeight': False, 'trialN': 56, 'loaded': True, 'loadedTime': 23762.80000000447, 'positionName': 'LEFT', 'positionCoords': [327.28, 227], 'bid': 0}, {'imgObject': {}, 'id': 'mashed potato', 'src': '/static/foodstim60/mashed potato.jpg', 'key': 'i', 'origWidth': 409, 'origHeight': 409, 'width': 409, 'height': 409, 'widthPercent': 0.45, 'rescaleHeight': False, 'trialN': 56, 'loaded': True, 'loadedTime': 24158, 'positionName': 'RIGHT', 'positionCoords': [798.72, 227.5], 'bid': 0}]",132485.1000000015,1669837271848,bagel and cc,mashed potato,0.0,0.0,0.0,mashed potato,1225.6000000014901,1226,1226.0,True,i,134213.6000000015,1728.5,1669837273577,1729,HRV,HRV_0256,2022-11-30 19:45:29
57,"[{'imgObject': {}, 'id': 'kiwi', 'src': '/static/foodstim60/kiwi.jpg', 'key': 'u', 'origWidth': 410, 'origHeight': 410, 'width': 410, 'height': 410, 'widthPercent': 0.45, 'rescaleHeight': False, 'trialN': 57, 'loaded': True, 'loadedTime': 24161.60000000149, 'positionName': 'LEFT', 'positionCoords': [327.28, 227], 'bid': 6.51}, {'imgObject': {}, 'id': 'olives', 'src': '/static/foodstim60/olives.jpg', 'key': 'i', 'origWidth': 410, 'origHeight': 410, 'width': 410, 'height': 410, 'widthPercent': 0.45, 'rescaleHeight': False, 'trialN': 57, 'loaded': True, 'loadedTime': 24164.39999999851, 'positionName': 'RIGHT', 'positionCoords': [798.72, 227], 'bid': 0.09}]",134213.8999999985,1669837273577,kiwi,olives,6.51,0.09,-6.42,kiwi,689,689,689.5,True,u,135405.1000000015,1191.2000000029802,1669837274768,1191,HRV,HRV_0256,2022-11-30 19:45:29
58,"[{'imgObject': {}, 'id': 'tacos', 'src': '/static/foodstim60/tacos.jpg', 'key': 'u', 'origWidth': 411, 'origHeight': 411, 'width': 411, 'height': 411, 'widthPercent': 0.45, 'rescaleHeight': False, 'trialN': 58, 'loaded': True, 'loadedTime': 23768.5, 'positionName': 'LEFT', 'positionCoords': [326.28, 226.5], 'bid': 5.87}, {'imgObject': {}, 'id': 'lox', 'src': '/static/foodstim60/lox.jpg', 'key': 'i', 'origWidth': 410, 'origHeight': 411, 'width': 410, 'height': 411, 'widthPercent': 0.45, 'rescaleHeight': False, 'trialN': 58, 'loaded': True, 'loadedTime': 23784.30000000447, 'positionName': 'RIGHT', 'positionCoords': [798.72, 226.5], 'bid': 0.03}]",135405.3999999985,1669837274768,tacos,lox,5.87,0.03,-5.84,tacos,881.4000000059605,882,881.8000000044703,True,u,136789.20000000298,1383.8000000044703,1669837276152,1384,HRV,HRV_0256,2022-11-30 19:45:29
59,"[{'imgObject': {}, 'id': 'seaweed', 'src': '/static/foodstim60/seaweed.jpg', 'key': 'u', 'origWidth': 410, 'origHeight': 410, 'width': 410, 'height': 410, 'widthPercent': 0.45, 'rescaleHeight': False, 'trialN': 59, 'loaded': True, 'loadedTime': 24168.60000000149, 'positionName': 'LEFT', 'positionCoords': [327.28, 227], 'bid': 0.1}, {'imgObject': {}, 'id': 'eggsalad', 'src': '/static/foodstim60/eggsalad.jpg', 'key': 'i', 'origWidth': 410, 'origHeight': 409, 'width': 410, 'height': 409, 'widthPercent': 0.45, 'rescaleHeight': False, 'trialN': 59, 'loaded': True, 'loadedTime': 24091.70000000298, 'positionName': 'RIGHT', 'positionCoords': [798.72, 227.5], 'bid': 0}]",136789.30000000447,1669837276152,seaweed,eggsalad,0.1,0.0,-0.1,eggsalad,3305.39999999851,3306,3305.7999999970198,True,i,140597.1000000015,3807.7999999970198,1669837279960,3808,HRV,HRV_0256,2022-11-30 19:45:29
60,"[{'imgObject': {}, 'id': 'cantaloupe', 'src': '/static/foodstim60/cantaloupe.jpg', 'key': 'u', 'origWidth': 409, 'origHeight': 409, 'width': 409, 'height': 409, 'widthPercent': 0.45, 'rescaleHeight': False, 'trialN': 60, 'loaded': True, 'loadedTime': 24121.39999999851, 'positionName': 'LEFT', 'positionCoords': [328.28, 227.5], 'bid': 0.55}, {'imgObject': {}, 'id': 'fried eggs', 'src': '/static/foodstim60/fried eggs.jpg', 'key': 'i', 'origWidth': 410, 'origHeight': 410, 'width': 410, 'height': 410, 'widthPercent': 0.45, 'rescaleHeight': False, 'trialN': 60, 'loaded': True, 'loadedTime': 24176.10000000149, 'positionName': 'RIGHT', 'positionCoords': [798.72, 227], 'bid': 5.72}]",140597.30000000447,1669837279960,cantaloupe,fried eggs,0.55,5.72,5.17,fried eggs,1729.6999999955297,1731,1730.0999999940395,True,i,142828.80000000447,2231.5,1669837282192,2232,HRV,HRV_0256,2022-11-30 19:45:29
61,"[{'imgObject': {}, 'id': 'olives', 'src': '/static/foodstim60/olives.jpg', 'key': 'u', 'origWidth': 410, 'origHeight': 410, 'width': 410, 'height': 410, 'widthPercent': 0.45, 'rescaleHeight': False, 'trialN': 61, 'loaded': True, 'loadedTime': 24165.89999999851, 'positionName': 'LEFT', 'positionCoords': [327.28, 227], 'bid': 0.09}, {'imgObject': {}, 'id': 'corn cob', 'src': '/static/foodstim60/corn cob.jpg', 'key': 'i', 'origWidth': 411, 'origHeight': 411, 'width': 411, 'height': 411, 'widthPercent': 0.45, 'rescaleHeight': False, 'trialN': 61, 'loaded': True, 'loadedTime': 24009.80000000447, 'positionName': 'RIGHT', 'positionCoords': [798.72, 226.5], 'bid': 0}]",142829.1000000015,1669837282192,olives,corn cob,0.09,0.0,-0.09,corn cob,1088.7999999970198,1089,1089.1000000014901,True,i,144420.8999999985,1591.7999999970198,1669837283784,1592,HRV,HRV_0256,2022-11-30 19:45:29
62,"[{'imgObject': {}, 'id': 'apple slices', 'src': '/static/foodstim60/apple slices.jpg', 'key': 'u', 'origWidth': 409, 'origHeight': 410, 'width': 409, 'height': 410, 'widthPercent': 0.45, 'rescaleHeight': False, 'trialN': 62, 'loaded': True, 'loadedTime': 23782.30000000447, 'positionName': 'LEFT', 'positionCoords': [328.28, 227], 'bid': 7.17}, {'imgObject': {}, 'id': 'eggs', 'src': '/static/foodstim60/eggs.jpg', 'key': 'i', 'origWidth': 409, 'origHeight': 409, 'width': 409, 'height': 409, 'widthPercent': 0.45, 'rescaleHeight': False, 'trialN': 62, 'loaded': True, 'loadedTime': 23911.60000000149, 'positionName': 'RIGHT', 'positionCoords': [798.72, 227.5], 'bid': 0.15}]",144421.20000000298,1669837283784,apple slices,eggs,7.17,0.15,-7.02,apple slices,1120.6000000014901,1121,1120.8999999985099,True,u,146045.5,1624.2999999970198,1669837285409,1625,HRV,HRV_0256,2022-11-30 19:45:29
63,"[{'imgObject': {}, 'id': 'salmon', 'src': '/static/foodstim60/salmon.jpg', 'key': 'u', 'origWidth': 410, 'origHeight': 409, 'width': 410, 'height': 409, 'widthPercent': 0.45, 'rescaleHeight': False, 'trialN': 63, 'loaded': True, 'loadedTime': 23696.5, 'positionName': 'LEFT', 'positionCoords': [327.28, 227.5], 'bid': 5.66}, {'imgObject': {}, 'id': 'hashbrowns', 'src': '/static/foodstim60/hashbrowns.jpg', 'key': 'i', 'origWidth': 411, 'origHeight': 410, 'width': 411, 'height': 410, 'widthPercent': 0.45, 'rescaleHeight': False, 'trialN': 63, 'loaded': True, 'loadedTime': 23922.60000000149, 'positionName': 'RIGHT', 'positionCoords': [798.72, 227], 'bid': 0.22}]",146045.70000000298,1669837285409,salmon,hashbrowns,5.66,0.22,-5.44,salmon,2481,2481,2481.39999999851,True,u,149028.80000000447,2983.10000000149,1669837288392,2983,HRV,HRV_0256,2022-11-30 19:45:29
64,"[{'imgObject': {}, 'id': 'pear', 'src': '/static/foodstim60/pear.jpg', 'key': 'u', 'origWidth': 411, 'origHeight': 410, 'width': 411, 'height': 410, 'widthPercent': 0.45, 'rescaleHeight': False, 'trialN': 64, 'loaded': True, 'loadedTime': 23931.70000000298, 'positionName': 'LEFT', 'positionCoords': [326.28, 227], 'bid': 7.22}, {'imgObject': {}, 'id': 'fried eggs', 'src': '/static/foodstim60/fried eggs.jpg', 'key': 'i', 'origWidth': 410, 'origHeight': 410, 'width': 410, 'height': 410, 'widthPercent': 0.45, 'rescaleHeight': False, 'trialN': 64, 'loaded': True, 'loadedTime': 24176.20000000298, 'positionName': 'RIGHT', 'positionCoords': [798.72, 227], 'bid': 5.72}]",149029.0,1669837288392,pear,fried eggs,7.22,5.72,-1.5,fried eggs,3297,3298,3297.5,True,i,152830.20000000298,3801.2000000029802,1669837292193,3801,HRV,HRV_0256,2022-11-30 19:45:29
65,"[{'imgObject': {}, 'id': 'mac & cheese', 'src': '/static/foodstim60/mac & cheese.jpg', 'key': 'u', 'origWidth': 410, 'origHeight': 410, 'width': 410, 'height': 410, 'widthPercent': 0.45, 'rescaleHeight': False, 'trialN': 65, 'loaded': True, 'loadedTime': 24152.39999999851, 'positionName': 'LEFT', 'positionCoords': [327.28, 227], 'bid': 6.3}, {'imgObject': {}, 'id': 'grilled chicken strips', 'src': '/static/foodstim60/grilled chicken strips.jpg', 'key': 'i', 'origWidth': 410, 'origHeight': 411, 'width': 410, 'height': 411, 'widthPercent': 0.45, 'rescaleHeight': False, 'trialN': 65, 'loaded': True, 'loadedTime': 24183.20000000298, 'positionName': 'RIGHT', 'positionCoords': [798.72, 226.5], 'bid': 5.79}]",152830.5,1669837292194,mac & cheese,grilled chicken strips,6.3,5.79,-0.5099999999999998,mac & cheese,1111.7000000029802,1112,1112.3000000044703,True,u,154445.5,1615.0,1669837293809,1615,HRV,HRV_0256,2022-11-30 19:45:29
66,"[{'imgObject': {}, 'id': 'blackbeanswithrice', 'src': '/static/foodstim60/blackbeanswithrice.jpg', 'key': 'u', 'origWidth': 410, 'origHeight': 410, 'width': 410, 'height': 410, 'widthPercent': 0.45, 'rescaleHeight': False, 'trialN': 66, 'loaded': True, 'loadedTime': 23920.5, 'positionName': 'LEFT', 'positionCoords': [327.28, 227], 'bid': 0}, {'imgObject': {}, 'id': 'steak', 'src': '/static/foodstim60/steak.jpg', 'key': 'i', 'origWidth': 410, 'origHeight': 410, 'width': 410, 'height': 410, 'widthPercent': 0.45, 'rescaleHeight': False, 'trialN': 66, 'loaded': True, 'loadedTime': 24119.89999999851, 'positionName': 'RIGHT', 'positionCoords': [798.72, 227], 'bid': 5.75}]",154445.80000000447,1669837293809,blackbeanswithrice,steak,0.0,5.75,5.75,steak,2296.0999999940395,2296,2296.39999999851,True,i,157245.3999999985,2799.5999999940395,1669837296609,2800,HRV,HRV_0256,2022-11-30 19:45:29
67,"[{'imgObject': {}, 'id': 'mashed potato', 'src': '/static/foodstim60/mashed potato.jpg', 'key': 'u', 'origWidth': 409, 'origHeight': 409, 'width': 409, 'height': 409, 'widthPercent': 0.45, 'rescaleHeight': False, 'trialN': 67, 'loaded': True, 'loadedTime': 24157.10000000149, 'positionName': 'LEFT', 'positionCoords': [328.28, 227.5], 'bid': 0}, {'imgObject': {}, 'id': 'granola w milk', 'src': '/static/foodstim60/granola w milk.jpg', 'key': 'i', 'origWidth': 410, 'origHeight': 410, 'width': 410, 'height': 410, 'widthPercent': 0.45, 'rescaleHeight': False, 'trialN': 67, 'loaded': True, 'loadedTime': 24011.39999999851, 'positionName': 'RIGHT', 'positionCoords': [798.72, 227], 'bid': 0.03}]",157245.6000000015,1669837296609,mashed potato,granola w milk,0.0,0.03,0.03,mashed potato,1056.5,1057,1057.0,True,u,158805.3999999985,1559.7999999970198,1669837298169,1560,HRV,HRV_0256,2022-11-30 19:45:29
68,"[{'imgObject': {}, 'id': 'orange slices', 'src': '/static/foodstim60/orange slices.jpg', 'key': 'u', 'origWidth': 409, 'origHeight': 410, 'width': 409, 'height': 410, 'widthPercent': 0.45, 'rescaleHeight': False, 'trialN': 68, 'loaded': True, 'loadedTime': 24164.30000000447, 'positionName': 'LEFT', 'positionCoords': [328.28, 227], 'bid': 7.13}, {'imgObject': {}, 'id': 'bagel plain', 'src': '/static/foodstim60/bagel plain.jpg', 'key': 'i', 'origWidth': 410, 'origHeight': 410, 'width': 410, 'height': 410, 'widthPercent': 0.45, 'rescaleHeight': False, 'trialN': 68, 'loaded': True, 'loadedTime': 23792.5, 'positionName': 'RIGHT', 'positionCoords': [798.72, 227], 'bid': 0.15}]",158805.6000000015,1669837298169,orange slices,bagel plain,7.13,0.15,-6.9799999999999995,orange slices,1032.5,1033,1032.8999999985099,True,u,160342.20000000298,1536.6000000014901,1669837299705,1536,HRV,HRV_0256,2022-11-30 19:45:29
69,"[{'imgObject': {}, 'id': 'edamame', 'src': '/static/foodstim60/edamame.jpg', 'key': 'u', 'origWidth': 409, 'origHeight': 410, 'width': 409, 'height': 410, 'widthPercent': 0.45, 'rescaleHeight': False, 'trialN': 69, 'loaded': True, 'loadedTime': 23908.20000000298, 'positionName': 'LEFT', 'positionCoords': [328.28, 227], 'bid': 0.11}, {'imgObject': {}, 'id': 'bagel and cc', 'src': '/static/foodstim60/bagel and cc.jpg', 'key': 'i', 'origWidth': 410, 'origHeight': 410, 'width': 410, 'height': 410, 'widthPercent': 0.45, 'rescaleHeight': False, 'trialN': 69, 'loaded': True, 'loadedTime': 23763.39999999851, 'positionName': 'RIGHT', 'positionCoords': [798.72, 227], 'bid': 0}]",160342.5,1669837299706,edamame,bagel and cc,0.11,0.0,-0.11,NaN,NaN,NaN,,False,NaN,164349.20000000298,4006.7000000029802,1669837303712,4006,HRV,HRV_0256,2022-11-30 19:45:29
70,"[{'imgObject': {}, 'id': 'cantaloupe', 'src': '/static/foodstim60/cantaloupe.jpg', 'key': 'u', 'origWidth': 409, 'origHeight': 409, 'width': 409, 'height': 409, 'widthPercent': 0.45, 'rescaleHeight': False, 'trialN': 70, 'loaded': True, 'loadedTime': 24121.70000000298, 'positionName': 'LEFT', 'positionCoords': [328.28, 227.5], 'bid': 0.55}, {'imgObject': {}, 'id': 'Grapes', 'src': '/static/foodstim60/Grapes.jpg', 'key': 'i', 'origWidth': 411, 'origHeight': 411, 'width': 411, 'height': 411, 'widthPercent': 0.45, 'rescaleHeight': False, 'trialN': 70, 'loaded': True, 'loadedTime': 24170.20000000298, 'positionName': 'RIGHT', 'positionCoords': [798.72, 226.5], 'bid': 8.85}]",164349.3999999985,1669837303713,cantaloupe,Grapes,0.55,8.85,8.299999999999999,Grapes,945.5,945,945.9000000059605,True,i,165797.30000000447,1447.9000000059605,1669837305160,1447,HRV,HRV_0256,2022-11-30 19:45:29
71,"[{'imgObject': {}, 'id': 'chickenfingers', 'src': '/static/foodstim60/chickenfingers.jpg', 'key': 'u', 'origWidth': 410, 'origHeight': 410, 'width': 410, 'height': 410, 'widthPercent': 0.45, 'rescaleHeight': False, 'trialN': 71, 'loaded': True, 'loadedTime': 24183.89999999851, 'positionName': 'LEFT', 'positionCoords': [327.28, 227], 'bid': 7.52}, {'imgObject': {}, 'id': 'banana', 'src': '/static/foodstim60/banana.jpg', 'key': 'i', 'origWidth': 410, 'origHeight': 410, 'width': 410, 'height': 410, 'widthPercent': 0.45, 'rescaleHeight': False, 'trialN': 71, 'loaded': True, 'loadedTime': 24174.39999999851, 'positionName': 'RIGHT', 'positionCoords': [798.72, 227], 'bid': 6.19}]",165797.3999999985,1669837305161,chickenfingers,banana,7.52,6.19,-1.3299999999999992,chickenfingers,1192.8000000044703,1193,1193.2000000029802,True,u,167493.70000000298,1696.3000000044703,1669837306857,1696,HRV,HRV_0256,2022-11-30 19:45:29
72,"[{'imgObject': {}, 'id': 'luckycharms', 'src': '/static/foodstim60/luckycharms.jpg', 'key': 'u', 'origWidth': 410, 'origHeight': 409, 'width': 410, 'height': 409, 'widthPercent': 0.45, 'rescaleHeight': False, 'trialN': 72, 'loaded': True, 'loadedTime': 24172.89999999851, 'positionName': 'LEFT', 'positionCoords': [327.28, 227.5], 'bid': 5.7}, {'imgObject': {}, 'id': 'burrito', 'src': '/static/foodstim60/burrito.jpg', 'key': 'i', 'origWidth': 410, 'origHeight': 410, 'width': 410, 'height': 410, 'widthPercent': 0.45, 'rescaleHeight': False, 'trialN': 72, 'loaded': True, 'loadedTime': 23766.60000000149, 'positionName': 'RIGHT', 'positionCoords': [798.72, 227], 'bid': 1.35}]",167493.8999999985,1669837306857,luckycharms,burrito,5.7,1.35,-4.35,luckycharms,920.2000000029802,921,920.6000000014901,True,u,168917.20000000298,1423.3000000044703,1669837308280,1423,HRV,HRV_0256,2022-11-30 19:45:29
73,"[{'imgObject': {}, 'id': 'chicken nuggets2', 'src': '/static/foodstim60/chicken nuggets2.jpg', 'key': 'u', 'origWidth': 410, 'origHeight': 409, 'width': 410, 'height': 409, 'widthPercent': 0.45, 'rescaleHeight': False, 'trialN': 73, 'loaded': True, 'loadedTime': 23790.60000000149, 'positionName': 'LEFT', 'positionCoords': [327.28, 227.5], 'bid': 7.4}, {'imgObject': {}, 'id': 'pear', 'src': '/static/foodstim60/pear.jpg', 'key': 'i', 'origWidth': 411, 'origHeight': 410, 'width': 411, 'height': 410, 'widthPercent': 0.45, 'rescaleHeight': False, 'trialN': 73, 'loaded': True, 'loadedTime': 23924.70000000298, 'positionName': 'RIGHT', 'positionCoords': [798.72, 227], 'bid': 7.22}]",168917.30000000447,1669837308280,chicken nuggets2,pear,7.4,7.22,-0.1800000000000006,chicken nuggets2,641.2999999970198,642,641.5999999940395,True,u,170061.6000000015,1144.2999999970198,1669837309425,1145,HRV,HRV_0256,2022-11-30 19:45:29
74,"[{'imgObject': {}, 'id': 'cocktailshrimp', 'src': '/static/foodstim60/cocktailshrimp.jpg', 'key': 'u', 'origWidth': 410, 'origHeight': 410, 'width': 410, 'height': 410, 'widthPercent': 0.45, 'rescaleHeight': False, 'trialN': 74, 'loaded': True, 'loadedTime': 23750.70000000298, 'positionName': 'LEFT', 'positionCoords': [327.28, 227], 'bid': 0.15}, {'imgObject': {}, 'id': 'rigatoni', 'src': '/static/foodstim60/rigatoni.jpg', 'key': 'i', 'origWidth': 411, 'origHeight': 411, 'width': 411, 'height': 411, 'widthPercent': 0.45, 'rescaleHeight': False, 'trialN': 74, 'loaded': True, 'loadedTime': 24024.39999999851, 'positionName': 'RIGHT', 'positionCoords': [798.72, 226.5], 'bid': 0.15}]",170061.80000000447,1669837309425,cocktailshrimp,rigatoni,0.15,0.15,0.0,rigatoni,888,888,888.2999999970198,True,i,171453.8999999985,1392.0999999940395,1669837310817,1392,HRV,HRV_0256,2022-11-30 19:45:29
75,"[{'imgObject': {}, 'id': 'seaweed', 'src': '/static/foodstim60/seaweed.jpg', 'key': 'u', 'origWidth': 410, 'origHeight': 410, 'width': 410, 'height': 410, 'widthPercent': 0.45, 'rescaleHeight': False, 'trialN': 75, 'loaded': True, 'loadedTime': 24168.10000000149, 'positionName': 'LEFT', 'positionCoords': [327.28, 227], 'bid': 0.1}, {'imgObject': {}, 'id': 'bagel plain', 'src': '/static/foodstim60/bagel plain.jpg', 'key': 'i', 'origWidth': 410, 'origHeight': 410, 'width': 410, 'height': 410, 'widthPercent': 0.45, 'rescaleHeight': False, 'trialN': 75, 'loaded': True, 'loadedTime': 23791.30000000447, 'positionName': 'RIGHT', 'positionCoords': [798.72, 227], 'bid': 0.15}]",171454.20000000298,1669837310817,seaweed,bagel plain,0.1,0.15,0.04999999999999999,seaweed,1888,1889,1888.3999999985099,True,u,173845.70000000298,2391.5,1669837313209,2392,HRV,HRV_0256,2022-11-30 19:45:29
76,"[{'imgObject': {}, 'id': 'fried eggs', 'src': '/static/foodstim60/fried eggs.jpg', 'key': 'u', 'origWidth': 410, 'origHeight': 410, 'width': 410, 'height': 410, 'widthPercent': 0.45, 'rescaleHeight': False, 'trialN': 76, 'loaded': True, 'loadedTime': 24176.30000000447, 'positionName': 'LEFT', 'positionCoords': [327.28, 227], 'bid': 5.72}, {'imgObject': {}, 'id': 'luckycharms', 'src': '/static/foodstim60/luckycharms.jpg', 'key': 'i', 'origWidth': 410, 'origHeight': 409, 'width': 410, 'height': 409, 'widthPercent': 0.45, 'rescaleHeight': False, 'trialN': 76, 'loaded': True, 'loadedTime': 24173, 'positionName': 'RIGHT', 'positionCoords': [798.72, 227.5], 'bid': 5.7}]",173846.1000000015,1669837313209,fried eggs,luckycharms,5.72,5.7,-0.019999999999999574,luckycharms,624,625,624.5,True,i,174973.20000000298,1127.1000000014901,1669837314336,1127,HRV,HRV_0256,2022-11-30 19:45:29
77,"[{'imgObject': {}, 'id': 'chicken nuggets2', 'src': '/static/foodstim60/chicken nuggets2.jpg', 'key': 'u', 'origWidth': 410, 'origHeight': 409, 'width': 410, 'height': 409, 'widthPercent': 0.45, 'rescaleHeight': False, 'trialN': 77, 'loaded': True, 'loadedTime': 23791.10000000149, 'positionName': 'LEFT', 'positionCoords': [327.28, 227.5], 'bid': 7.4}, {'imgObject': {}, 'id': 'steak', 'src': '/static/foodstim60/steak.jpg', 'key': 'i', 'origWidth': 410, 'origHeight': 410, 'width': 410, 'height': 410, 'widthPercent': 0.45, 'rescaleHeight': False, 'trialN': 77, 'loaded': True, 'loadedTime': 24118.89999999851, 'positionName': 'RIGHT', 'positionCoords': [798.72, 227], 'bid': 5.75}]",174973.3999999985,1669837314337,chicken nuggets2,steak,7.4,5.75,-1.6500000000000004,steak,721,721,721.5,True,i,176197.3999999985,1224.0,1669837315560,1223,HRV,HRV_0256,2022-11-30 19:45:29
78,"[{'imgObject': {}, 'id': 'froot loops w milk', 'src': '/static/foodstim60/froot loops w milk.jpg', 'key': 'u', 'origWidth': 410, 'origHeight': 410, 'width': 410, 'height': 410, 'widthPercent': 0.45, 'rescaleHeight': False, 'trialN': 78, 'loaded': True, 'loadedTime': 24186.80000000447, 'positionName': 'LEFT', 'positionCoords': [327.28, 227], 'bid': 5}, {'imgObject': {}, 'id': 'ice cream sundae 002', 'src': '/static/foodstim60/ice cream sundae 002.jpg', 'key': 'i', 'origWidth': 409, 'origHeight': 409, 'width': 409, 'height': 409, 'widthPercent': 0.45, 'rescaleHeight': False, 'trialN': 78, 'loaded': True, 'loadedTime': 23971.39999999851, 'positionName': 'RIGHT', 'positionCoords': [798.72, 227.5], 'bid': 5.09}]",176197.5,1669837315561,froot loops w milk,ice cream sundae 002,5.0,5.09,0.08999999999999986,ice cream sundae 002,2648.8000000044703,2649,2649.0,True,i,179349.8999999985,3152.39999999851,1669837318713,3152,HRV,HRV_0256,2022-11-30 19:45:29
79,"[{'imgObject': {}, 'id': 'cherries', 'src': '/static/foodstim60/cherries.jpg', 'key': 'u', 'origWidth': 410, 'origHeight': 411, 'width': 410, 'height': 411, 'widthPercent': 0.45, 'rescaleHeight': False, 'trialN': 79, 'loaded': True, 'loadedTime': 23755.60000000149, 'positionName': 'LEFT', 'positionCoords': [327.28, 226.5], 'bid': 8.8}, {'imgObject': {}, 'id': 'chickenfingers', 'src': '/static/foodstim60/chickenfingers.jpg', 'key': 'i', 'origWidth': 410, 'origHeight': 410, 'width': 410, 'height': 410, 'widthPercent': 0.45, 'rescaleHeight': False, 'trialN': 79, 'loaded': True, 'loadedTime': 24185.20000000298, 'positionName': 'RIGHT', 'positionCoords': [798.72, 227], 'bid': 7.52}]",179350.1000000015,1669837318713,cherries,chickenfingers,8.8,7.52,-1.2800000000000011,chickenfingers,1336,1337,1336.3999999985099,True,i,181189.6000000015,1839.5,1669837320553,1840,HRV,HRV_0256,2022-11-30 19:45:29
80,"[{'imgObject': {}, 'id': 'rigatoni', 'src': '/static/foodstim60/rigatoni.jpg', 'key': 'u', 'origWidth': 411, 'origHeight': 411, 'width': 411, 'height': 411, 'widthPercent': 0.45, 'rescaleHeight': False, 'trialN': 80, 'loaded': True, 'loadedTime': 24022.20000000298, 'positionName': 'LEFT', 'positionCoords': [326.28, 226.5], 'bid': 0.15}, {'imgObject': {}, 'id': 'olives', 'src': '/static/foodstim60/olives.jpg', 'key': 'i', 'origWidth': 410, 'origHeight': 410, 'width': 410, 'height': 410, 'widthPercent': 0.45, 'rescaleHeight': False, 'trialN': 80, 'loaded': True, 'loadedTime': 24165.80000000447, 'positionName': 'RIGHT', 'positionCoords': [798.72, 227], 'bid': 0.09}]",181189.80000000447,1669837320553,rigatoni,olives,0.15,0.09,-0.06,rigatoni,888.0999999940395,888,888.2999999970198,True,u,182582.20000000298,1392.3999999985099,1669837321945,1392,HRV,HRV_0256,2022-11-30 19:45:29
81,"[{'imgObject': {}, 'id': 'froot loops w milk', 'src': '/static/foodstim60/froot loops w milk.jpg', 'key': 'u', 'origWidth': 410, 'origHeight': 410, 'width': 410, 'height': 410, 'widthPercent': 0.45, 'rescaleHeight': False, 'trialN': 81, 'loaded': True, 'loadedTime': 24186.5, 'positionName': 'LEFT', 'positionCoords': [327.28, 227], 'bid': 5}, {'imgObject': {}, 'id': 'rigatoni', 'src': '/static/foodstim60/rigatoni.jpg', 'key': 'i', 'origWidth': 411, 'origHeight': 411, 'width': 411, 'height': 411, 'widthPercent': 0.45, 'rescaleHeight': False, 'trialN': 81, 'loaded': True, 'loadedTime': 24024.60000000149, 'positionName': 'RIGHT', 'positionCoords': [798.72, 226.5], 'bid': 0.15}]",182582.3999999985,1669837321945,froot loops w milk,rigatoni,5.0,0.15,-4.85,froot loops w milk,959.6000000014901,960,959.8000000044703,True,u,184045.1000000015,1462.7000000029802,1669837323408,1463,HRV,HRV_0256,2022-11-30 19:45:29
82,"[{'imgObject': {}, 'id': 'steak', 'src': '/static/foodstim60/steak.jpg', 'key': 'u', 'origWidth': 410, 'origHeight': 410, 'width': 410, 'height': 410, 'widthPercent': 0.45, 'rescaleHeight': False, 'trialN': 82, 'loaded': True, 'loadedTime': 24120.10000000149, 'positionName': 'LEFT', 'positionCoords': [327.28, 227], 'bid': 5.75}, {'imgObject': {}, 'id': 'banana', 'src': '/static/foodstim60/banana.jpg', 'key': 'i', 'origWidth': 410, 'origHeight': 410, 'width': 410, 'height': 410, 'widthPercent': 0.45, 'rescaleHeight': False, 'trialN': 82, 'loaded': True, 'loadedTime': 24174.30000000447, 'positionName': 'RIGHT', 'positionCoords': [798.72, 227], 'bid': 6.19}]",184045.20000000298,1669837323408,steak,banana,5.75,6.19,0.4400000000000004,banana,897.6000000014901,898,897.7999999970198,True,i,185445.0,1399.7999999970198,1669837324808,1400,HRV,HRV_0256,2022-11-30 19:45:29
83,"[{'imgObject': {}, 'id': 'cheerios', 'src': '/static/foodstim60/cheerios.jpg', 'key': 'u', 'origWidth': 409, 'origHeight': 410, 'width': 409, 'height': 410, 'widthPercent': 0.45, 'rescaleHeight': False, 'trialN': 83, 'loaded': True, 'loadedTime': 24118.80000000447, 'positionName': 'LEFT', 'positionCoords': [328.28, 227], 'bid': 0.71}, {'imgObject': {}, 'id': 'omelette', 'src': '/static/foodstim60/omelette.jpg', 'key': 'i', 'origWidth': 410, 'origHeight': 409, 'width': 410, 'height': 409, 'widthPercent': 0.45, 'rescaleHeight': False, 'trialN': 83, 'loaded': True, 'loadedTime': 24031.39999999851, 'positionName': 'RIGHT', 'positionCoords': [798.72, 227.5], 'bid': 1.25}]",185445.20000000298,1669837324808,cheerios,omelette,0.71,1.25,0.54,omelette,1537.1000000014901,1538,1537.5,True,i,187485.70000000298,2040.5,1669837326849,2041,HRV,HRV_0256,2022-11-30 19:45:29
84,"[{'imgObject': {}, 'id': 'chickenfingers', 'src': '/static/foodstim60/chickenfingers.jpg', 'key': 'u', 'origWidth': 410, 'origHeight': 410, 'width': 410, 'height': 410, 'widthPercent': 0.45, 'rescaleHeight': False, 'trialN': 84, 'loaded': True, 'loadedTime': 24185.20000000298, 'positionName': 'LEFT', 'positionCoords': [327.28, 227], 'bid': 7.52}, {'imgObject': {}, 'id': 'cocktailshrimp', 'src': '/static/foodstim60/cocktailshrimp.jpg', 'key': 'i', 'origWidth': 410, 'origHeight': 410, 'width': 410, 'height': 410, 'widthPercent': 0.45, 'rescaleHeight': False, 'trialN': 84, 'loaded': True, 'loadedTime': 23750, 'positionName': 'RIGHT', 'positionCoords': [798.72, 227], 'bid': 0.15}]",187485.8999999985,1669837326849,chickenfingers,cocktailshrimp,7.52,0.15,-7.369999999999999,chickenfingers,720.5,721,721.0,True,u,188709.8999999985,1224.0,1669837328073,1224,HRV,HRV_0256,2022-11-30 19:45:29
85,"[{'imgObject': {}, 'id': 'Grapes', 'src': '/static/foodstim60/Grapes.jpg', 'key': 'u', 'origWidth': 411, 'origHeight': 411, 'width': 411, 'height': 411, 'widthPercent': 0.45, 'rescaleHeight': False, 'trialN': 85, 'loaded': True, 'loadedTime': 24171, 'positionName': 'LEFT', 'positionCoords': [326.28, 226.5], 'bid': 8.85}, {'imgObject': {}, 'id': 'apple slices', 'src': '/static/foodstim60/apple slices.jpg', 'key': 'i', 'origWidth': 409, 'origHeight': 410, 'width': 409, 'height': 410, 'widthPercent': 0.45, 'rescaleHeight': False, 'trialN': 85, 'loaded': True, 'loadedTime': 23782.39999999851, 'positionName': 'RIGHT', 'positionCoords': [798.72, 227], 'bid': 7.17}]",188710.1000000015,1669837328073,Grapes,apple slices,8.85,7.17,-1.6799999999999997,Grapes,1007.8999999985099,1008,1008.2000000029802,True,u,190221.8999999985,1511.7999999970198,1669837329585,1512,HRV,HRV_0256,2022-11-30 19:45:29
86,"[{'imgObject': {}, 'id': 'salad w chicken', 'src': '/static/foodstim60/salad w chicken.jpg', 'key': 'u', 'origWidth': 411, 'origHeight': 411, 'width': 411, 'height': 411, 'widthPercent': 0.45, 'rescaleHeight': False, 'trialN': 86, 'loaded': True, 'loadedTime': 23916, 'positionName': 'LEFT', 'positionCoords': [326.28, 226.5], 'bid': 0.15}, {'imgObject': {}, 'id': 'raisin bran w milk', 'src': '/static/foodstim60/raisin bran w milk.jpg', 'key': 'i', 'origWidth': 411, 'origHeight': 411, 'width': 411, 'height': 411, 'widthPercent': 0.45, 'rescaleHeight': False, 'trialN': 86, 'loaded': True, 'loadedTime': 24153.89999999851, 'positionName': 'RIGHT', 'positionCoords': [798.72, 226.5], 'bid': 0.1}]",190222.20000000298,1669837329585,salad w chicken,raisin bran w milk,0.15,0.1,-0.04999999999999999,raisin bran w milk,993.1000000014901,994,993.3999999985099,True,i,191717.30000000447,1495.1000000014901,1669837331080,1495,HRV,HRV_0256,2022-11-30 19:45:29
87,"[{'imgObject': {}, 'id': 'cheerios', 'src': '/static/foodstim60/cheerios.jpg', 'key': 'u', 'origWidth': 409, 'origHeight': 410, 'width': 409, 'height': 410, 'widthPercent': 0.45, 'rescaleHeight': False, 'trialN': 87, 'loaded': True, 'loadedTime': 24118.5, 'positionName': 'LEFT', 'positionCoords': [328.28, 227], 'bid': 0.71}, {'imgObject': {}, 'id': 'turkeysandwich', 'src': '/static/foodstim60/turkeysandwich.jpg', 'key': 'i', 'origWidth': 409, 'origHeight': 409, 'width': 409, 'height': 409, 'widthPercent': 0.45, 'rescaleHeight': False, 'trialN': 87, 'loaded': True, 'loadedTime': 23774.39999999851, 'positionName': 'RIGHT', 'positionCoords': [798.72, 227.5], 'bid': 5.61}]",191717.3999999985,1669837331081,cheerios,turkeysandwich,0.71,5.61,4.9,cheerios,2137.60000000149,2137,2138.0,True,u,194358.1000000015,2640.7000000029802,1669837333721,2640,HRV,HRV_0256,2022-11-30 19:45:29
88,"[{'imgObject': {}, 'id': 'mango', 'src': '/static/foodstim60/mango.jpg', 'key': 'u', 'origWidth': 411, 'origHeight': 411, 'width': 411, 'height': 411, 'widthPercent': 0.45, 'rescaleHeight': False, 'trialN': 88, 'loaded': True, 'loadedTime': 24017.30000000447, 'positionName': 'LEFT', 'positionCoords': [326.28, 226.5], 'bid': 9.92}, {'imgObject': {}, 'id': 'chickenfingers', 'src': '/static/foodstim60/chickenfingers.jpg', 'key': 'i', 'origWidth': 410, 'origHeight': 410, 'width': 410, 'height': 410, 'widthPercent': 0.45, 'rescaleHeight': False, 'trialN': 88, 'loaded': True, 'loadedTime': 24184.89999999851, 'positionName': 'RIGHT', 'positionCoords': [798.72, 227], 'bid': 7.52}]",194358.30000000447,1669837333721,mango,chickenfingers,9.92,7.52,-2.4000000000000004,chickenfingers,599.8999999985099,601,600.3999999985099,True,i,195460.8999999985,1102.5999999940395,1669837334824,1103,HRV,HRV_0256,2022-11-30 19:45:29
89,"[{'imgObject': {}, 'id': 'omelette', 'src': '/static/foodstim60/omelette.jpg', 'key': 'u', 'origWidth': 410, 'origHeight': 409, 'width': 410, 'height': 409, 'widthPercent': 0.45, 'rescaleHeight': False, 'trialN': 89, 'loaded': True, 'loadedTime': 24031.20000000298, 'positionName': 'LEFT', 'positionCoords': [327.28, 227.5], 'bid': 1.25}, {'imgObject': {}, 'id': 'cantaloupe', 'src': '/static/foodstim60/cantaloupe.jpg', 'key': 'i', 'origWidth': 409, 'origHeight': 409, 'width': 409, 'height': 409, 'widthPercent': 0.45, 'rescaleHeight': False, 'trialN': 89, 'loaded': True, 'loadedTime': 24121.5, 'positionName': 'RIGHT', 'positionCoords': [798.72, 227.5], 'bid': 0.55}]",195461.1000000015,1669837334824,omelette,cantaloupe,1.25,0.55,-0.7,omelette,1705.5,1706,1705.8999999985099,True,u,197669.20000000298,2208.10000000149,1669837337032,2208,HRV,HRV_0256,2022-11-30 19:45:29
90,"[{'imgObject': {}, 'id': 'raisin bran w milk', 'src': '/static/foodstim60/raisin bran w milk.jpg', 'key': 'u', 'origWidth': 411, 'origHeight': 411, 'width': 411, 'height': 411, 'widthPercent': 0.45, 'rescaleHeight': False, 'trialN': 90, 'loaded': True, 'loadedTime': 24152.70000000298, 'positionName': 'LEFT', 'positionCoords': [326.28, 226.5], 'bid': 0.1}, {'imgObject': {}, 'id': 'sweetpotato', 'src': '/static/foodstim60/sweetpotato.jpg', 'key': 'i', 'origWidth': 410, 'origHeight': 410, 'width': 410, 'height': 410, 'widthPercent': 0.45, 'rescaleHeight': False, 'trialN': 90, 'loaded': True, 'loadedTime': 23766.10000000149, 'positionName': 'RIGHT', 'positionCoords': [798.72, 227], 'bid': 0.06}]",223517.1000000015,1669837362880,raisin bran w milk,sweetpotato,0.1,0.06,-0.04000000000000001,raisin bran w milk,1753.6000000014901,1754,1753.8999999985099,True,u,225773.5,2256.39999999851,1669837365137,2257,HRV,HRV_0256,2022-11-30 19:45:29
91,"[{'imgObject': {}, 'id': 'chicken nuggets2', 'src': '/static/foodstim60/chicken nuggets2.jpg', 'key': 'u', 'origWidth': 410, 'origHeight': 409, 'width': 410, 'height': 409, 'widthPercent': 0.45, 'rescaleHeight': False, 'trialN': 91, 'loaded': True, 'loadedTime': 23790.89999999851, 'positionName': 'LEFT', 'positionCoords': [327.28, 227.5], 'bid': 7.4}, {'imgObject': {}, 'id': 'raspberries', 'src': '/static/foodstim60/raspberries.jpg', 'key': 'i', 'origWidth': 411, 'origHeight': 411, 'width': 411, 'height': 411, 'widthPercent': 0.45, 'rescaleHeight': False, 'trialN': 91, 'loaded': True, 'loadedTime': 24063, 'positionName': 'RIGHT', 'positionCoords': [798.72, 226.5], 'bid': 9.63}]",225773.6000000015,1669837365137,chicken nuggets2,raspberries,7.4,9.63,2.2300000000000004,chicken nuggets2,841.2999999970198,841,841.6000000014901,True,u,227117.20000000298,1343.6000000014901,1669837366480,1343,HRV,HRV_0256,2022-11-30 19:45:29
92,"[{'imgObject': {}, 'id': 'grilled chicken strips', 'src': '/static/foodstim60/grilled chicken strips.jpg', 'key': 'u', 'origWidth': 410, 'origHeight': 411, 'width': 410, 'height': 411, 'widthPercent': 0.45, 'rescaleHeight': False, 'trialN': 92, 'loaded': True, 'loadedTime': 24183.80000000447, 'positionName': 'LEFT', 'positionCoords': [327.28, 226.5], 'bid': 5.79}, {'imgObject': {}, 'id': 'steak', 'src': '/static/foodstim60/steak.jpg', 'key': 'i', 'origWidth': 410, 'origHeight': 410, 'width': 410, 'height': 410, 'widthPercent': 0.45, 'rescaleHeight': False, 'trialN': 92, 'loaded': True, 'loadedTime': 24120.30000000447, 'positionName': 'RIGHT', 'positionCoords': [798.72, 227], 'bid': 5.75}]",227117.3999999985,1669837366481,grilled chicken strips,steak,5.79,5.75,-0.040000000000000036,grilled chicken strips,1064.5,1064,1065.0,True,u,228685.3999999985,1568.0,1669837368048,1567,HRV,HRV_0256,2022-11-30 19:45:29
93,"[{'imgObject': {}, 'id': 'corn cob', 'src': '/static/foodstim60/corn cob.jpg', 'key': 'u', 'origWidth': 411, 'origHeight': 411, 'width': 411, 'height': 411, 'widthPercent': 0.45, 'rescaleHeight': False, 'trialN': 93, 'loaded': True, 'loadedTime': 24007, 'positionName': 'LEFT', 'positionCoords': [326.28, 226.5], 'bid': 0}, {'imgObject': {}, 'id': 'blackbeanswithrice', 'src': '/static/foodstim60/blackbeanswithrice.jpg', 'key': 'i', 'origWidth': 410, 'origHeight': 410, 'width': 410, 'height': 410, 'widthPercent': 0.45, 'rescaleHeight': False, 'trialN': 93, 'loaded': True, 'loadedTime': 23918.39999999851, 'positionName': 'RIGHT', 'positionCoords': [798.72, 227], 'bid': 0}]",228685.6000000015,1669837368049,corn cob,blackbeanswithrice,0.0,0.0,0.0,corn cob,1393.1000000014901,1393,1393.6000000014901,True,u,230582.1000000015,1896.5,1669837369945,1896,HRV,HRV_0256,2022-11-30 19:45:29
94,"[{'imgObject': {}, 'id': 'cherry tomato', 'src': '/static/foodstim60/cherry tomato.jpg', 'key': 'u', 'origWidth': 410, 'origHeight': 410, 'width': 410, 'height': 410, 'widthPercent': 0.45, 'rescaleHeight': False, 'trialN': 94, 'loaded': True, 'loadedTime': 24188.30000000447, 'positionName': 'LEFT', 'positionCoords': [327.28, 227], 'bid': 0.01}, {'imgObject': {}, 'id': 'grilled chicken strips', 'src': '/static/foodstim60/grilled chicken strips.jpg', 'key': 'i', 'origWidth': 410, 'origHeight': 411, 'width': 410, 'height': 411, 'widthPercent': 0.45, 'rescaleHeight': False, 'trialN': 94, 'loaded': True, 'loadedTime': 24176.89999999851, 'positionName': 'RIGHT', 'positionCoords': [798.72, 226.5], 'bid': 5.79}]",230582.3999999985,1669837369945,cherry tomato,grilled chicken strips,0.01,5.79,5.78,grilled chicken strips,1256.3000000044703,1257,1256.6000000014901,True,i,232341.80000000447,1759.4000000059605,1669837371705,1760,HRV,HRV_0256,2022-11-30 19:45:29
95,"[{'imgObject': {}, 'id': 'turkeysandwich', 'src': '/static/foodstim60/turkeysandwich.jpg', 'key': 'u', 'origWidth': 409, 'origHeight': 409, 'width': 409, 'height': 409, 'widthPercent': 0.45, 'rescaleHeight': False, 'trialN': 95, 'loaded': True, 'loadedTime': 23774.5, 'positionName': 'LEFT', 'positionCoords': [328.28, 227.5], 'bid': 5.61}, {'imgObject': {}, 'id': 'salmon', 'src': '/static/foodstim60/salmon.jpg', 'key': 'i', 'origWidth': 410, 'origHeight': 409, 'width': 410, 'height': 409, 'widthPercent': 0.45, 'rescaleHeight': False, 'trialN': 95, 'loaded': True, 'loadedTime': 23697.10000000149, 'positionName': 'RIGHT', 'positionCoords': [798.72, 227.5], 'bid': 5.66}]",232342.1000000015,1669837371705,turkeysandwich,salmon,5.61,5.66,0.04999999999999982,turkeysandwich,1224.5,1225,1224.8999999985099,True,u,234070.0,1727.8999999985099,1669837373433,1728,HRV,HRV_0256,2022-11-30 19:45:29
96,"[{'imgObject': {}, 'id': 'strawberries', 'src': '/static/foodstim60/strawberries.jpg', 'key': 'u', 'origWidth': 410, 'origHeight': 410, 'width': 410, 'height': 410, 'widthPercent': 0.45, 'rescaleHeight': False, 'trialN': 96, 'loaded': True, 'loadedTime': 23772.5, 'positionName': 'LEFT', 'positionCoords': [327.28, 227], 'bid': 8.75}, {'imgObject': {}, 'id': 'chickenfingers', 'src': '/static/foodstim60/chickenfingers.jpg', 'key': 'i', 'origWidth': 410, 'origHeight': 410, 'width': 410, 'height': 410, 'widthPercent': 0.45, 'rescaleHeight': False, 'trialN': 96, 'loaded': True, 'loadedTime': 24185.30000000447, 'positionName': 'RIGHT', 'positionCoords': [798.72, 227], 'bid': 7.52}]",234070.1000000015,1669837373433,strawberries,chickenfingers,8.75,7.52,-1.2300000000000004,chickenfingers,935.7999999970198,936,936.2000000029802,True,i,235509.80000000447,1439.7000000029802,1669837374873,1440,HRV,HRV_0256,2022-11-30 19:45:29
97,"[{'imgObject': {}, 'id': 'fruitsalad', 'src': '/static/foodstim60/fruitsalad.jpg', 'key': 'u', 'origWidth': 410, 'origHeight': 410, 'width': 410, 'height': 410, 'widthPercent': 0.45, 'rescaleHeight': False, 'trialN': 97, 'loaded': True, 'loadedTime': 24189.60000000149, 'positionName': 'LEFT', 'positionCoords': [327.28, 227], 'bid': 10}, {'imgObject': {}, 'id': 'strawberries', 'src': '/static/foodstim60/strawberries.jpg', 'key': 'i', 'origWidth': 410, 'origHeight': 410, 'width': 410, 'height': 410, 'widthPercent': 0.45, 'rescaleHeight': False, 'trialN': 97, 'loaded': True, 'loadedTime': 23773, 'positionName': 'RIGHT', 'positionCoords': [798.72, 227], 'bid': 8.75}]",235510.1000000015,1669837374873,fruitsalad,strawberries,10.0,8.75,-1.25,fruitsalad,2207.7000000029802,2208,2208.0,True,u,238222.1000000015,2712.0,1669837377585,2712,HRV,HRV_0256,2022-11-30 19:45:29
98,"[{'imgObject': {}, 'id': 'raspberries', 'src': '/static/foodstim60/raspberries.jpg', 'key': 'u', 'origWidth': 411, 'origHeight': 411, 'width': 411, 'height': 411, 'widthPercent': 0.45, 'rescaleHeight': False, 'trialN': 98, 'loaded': True, 'loadedTime': 24063.5, 'positionName': 'LEFT', 'positionCoords': [326.28, 226.5], 'bid': 9.63}, {'imgObject': {}, 'id': 'omelette', 'src': '/static/foodstim60/omelette.jpg', 'key': 'i', 'origWidth': 410, 'origHeight': 409, 'width': 410, 'height': 409, 'widthPercent': 0.45, 'rescaleHeight': False, 'trialN': 98, 'loaded': True, 'loadedTime': 24026.39999999851, 'positionName': 'RIGHT', 'positionCoords': [798.72, 227.5], 'bid': 1.25}]",238222.20000000298,1669837377585,raspberries,omelette,9.63,1.25,-8.38,raspberries,911.7999999970198,913,912.2999999970198,True,u,239637.1000000015,1414.8999999985099,1669837379000,1415,HRV,HRV_0256,2022-11-30 19:45:29
99,"[{'imgObject': {}, 'id': 'ice cream sundae 002', 'src': '/static/foodstim60/ice cream sundae 002.jpg', 'key': 'u', 'origWidth': 409, 'origHeight': 409, 'width': 409, 'height': 409, 'widthPercent': 0.45, 'rescaleHeight': False, 'trialN': 99, 'loaded': True, 'loadedTime': 23971.10000000149, 'positionName': 'LEFT', 'positionCoords': [328.28, 227.5], 'bid': 5.09}, {'imgObject': {}, 'id': 'hotdog w must', 'src': '/static/foodstim60/hotdog w must.jpg', 'key': 'i', 'origWidth': 409, 'origHeight': 409, 'width': 409, 'height': 409, 'widthPercent': 0.45, 'rescaleHeight': False, 'trialN': 99, 'loaded': True, 'loadedTime': 24089.70000000298, 'positionName': 'RIGHT', 'positionCoords': [798.72, 227.5], 'bid': 6.8}]",239637.30000000447,1669837379000,ice cream sundae 002,hotdog w must,5.09,6.8,1.71,ice cream sundae 002,832.1999999955297,833,832.5,True,u,240972.8999999985,1335.5999999940395,1669837380336,1336,HRV,HRV_0256,2022-11-30 19:45:29
100,"[{'imgObject': {}, 'id': 'sushi w_condiments', 'src': '/static/foodstim60/sushi w_condiments.jpg', 'key': 'u', 'origWidth': 410, 'origHeight': 410, 'width': 410, 'height': 410, 'widthPercent': 0.45, 'rescaleHeight': False, 'trialN': 100, 'loaded': True, 'loadedTime': 23780.30000000447, 'positionName': 'LEFT', 'positionCoords': [327.28, 227], 'bid': 0.31}, {'imgObject': {}, 'id': 'luckycharms', 'src': '/static/foodstim60/luckycharms.jpg', 'key': 'i', 'origWidth': 410, 'origHeight': 409, 'width': 410, 'height': 409, 'widthPercent': 0.45, 'rescaleHeight': False, 'trialN': 100, 'loaded': True, 'loadedTime': 24171.60000000149, 'positionName': 'RIGHT', 'positionCoords': [798.72, 227.5], 'bid': 5.7}]",240973.1000000015,1669837380336,sushi w_condiments,luckycharms,0.31,5.7,5.390000000000001,luckycharms,1033.2000000029802,1034,1033.6000000014901,True,i,242509.20000000298,1536.1000000014901,1669837381872,1536,HRV,HRV_0256,2022-11-30 19:45:29
101,"[{'imgObject': {}, 'id': 'pear', 'src': '/static/foodstim60/pear.jpg', 'key': 'u', 'origWidth': 411, 'origHeight': 410, 'width': 411, 'height': 410, 'widthPercent': 0.45, 'rescaleHeight': False, 'trialN': 101, 'loaded': True, 'loadedTime': 23923.20000000298, 'positionName': 'LEFT', 'positionCoords': [326.28, 227], 'bid': 7.22}, {'imgObject': {}, 'id': 'rigatoni', 'src': '/static/foodstim60/rigatoni.jpg', 'key': 'i', 'origWidth': 411, 'origHeight': 411, 'width': 411, 'height': 411, 'widthPercent': 0.45, 'rescaleHeight': False, 'trialN': 101, 'loaded': True, 'loadedTime': 24024.30000000447, 'positionName': 'RIGHT', 'positionCoords': [798.72, 226.5], 'bid': 0.15}]",242509.3999999985,1669837381872,pear,rigatoni,7.22,0.15,-7.069999999999999,pear,952.7000000029802,954,953.0,True,u,243965.3999999985,1456.0,1669837383329,1457,HRV,HRV_0256,2022-11-30 19:45:29
102,"[{'imgObject': {}, 'id': 'kiwi', 'src': '/static/foodstim60/kiwi.jpg', 'key': 'u', 'origWidth': 410, 'origHeight': 410, 'width': 410, 'height': 410, 'widthPercent': 0.45, 'rescaleHeight': False, 'trialN': 102, 'loaded': True, 'loadedTime': 24162.20000000298, 'positionName': 'LEFT', 'positionCoords': [327.28, 227], 'bid': 6.51}, {'imgObject': {}, 'id': 'cherries', 'src': '/static/foodstim60/cherries.jpg', 'key': 'i', 'origWidth': 410, 'origHeight': 411, 'width': 410, 'height': 411, 'widthPercent': 0.45, 'rescaleHeight': False, 'trialN': 102, 'loaded': True, 'loadedTime': 23751.70000000298, 'positionName': 'RIGHT', 'positionCoords': [798.72, 226.5], 'bid': 8.8}]",243965.6000000015,1669837383329,kiwi,cherries,6.51,8.8,2.290000000000001,kiwi,1008.7999999970198,1009,1009.2000000029802,True,u,245477.30000000447,1511.7000000029802,1669837384840,1511,HRV,HRV_0256,2022-11-30 19:45:29
103,"[{'imgObject': {}, 'id': 'cherries', 'src': '/static/foodstim60/cherries.jpg', 'key': 'u', 'origWidth': 410, 'origHeight': 411, 'width': 410, 'height': 411, 'widthPercent': 0.45, 'rescaleHeight': False, 'trialN': 103, 'loaded': True, 'loadedTime': 23754.10000000149, 'positionName': 'LEFT', 'positionCoords': [327.28, 226.5], 'bid': 8.8}, {'imgObject': {}, 'id': 'burger', 'src': '/static/foodstim60/burger.jpg', 'key': 'i', 'origWidth': 409, 'origHeight': 409, 'width': 409, 'height': 409, 'widthPercent': 0.45, 'rescaleHeight': False, 'trialN': 103, 'loaded': True, 'loadedTime': 23900.5, 'positionName': 'RIGHT', 'positionCoords': [798.72, 227.5], 'bid': 5.93}]",245477.5,1669837384841,cherries,burger,8.8,5.93,-2.870000000000001,cherries,2281.2000000029802,2281,2281.60000000149,True,u,248262.1000000015,2784.60000000149,1669837387625,2784,HRV,HRV_0256,2022-11-30 19:45:29
104,"[{'imgObject': {}, 'id': 'tacos', 'src': '/static/foodstim60/tacos.jpg', 'key': 'u', 'origWidth': 411, 'origHeight': 411, 'width': 411, 'height': 411, 'widthPercent': 0.45, 'rescaleHeight': False, 'trialN': 104, 'loaded': True, 'loadedTime': 23769.80000000447, 'positionName': 'LEFT', 'positionCoords': [326.28, 226.5], 'bid': 5.87}, {'imgObject': {}, 'id': 'steak', 'src': '/static/foodstim60/steak.jpg', 'key': 'i', 'origWidth': 410, 'origHeight': 410, 'width': 410, 'height': 410, 'widthPercent': 0.45, 'rescaleHeight': False, 'trialN': 104, 'loaded': True, 'loadedTime': 24120, 'positionName': 'RIGHT', 'positionCoords': [798.72, 227], 'bid': 5.75}]",248262.30000000447,1669837387625,tacos,steak,5.87,5.75,-0.1200000000000001,tacos,967.5,968,967.8999999985099,True,u,249733.1000000015,1470.7999999970198,1669837389096,1471,HRV,HRV_0256,2022-11-30 19:45:29
105,"[{'imgObject': {}, 'id': 'salmon', 'src': '/static/foodstim60/salmon.jpg', 'key': 'u', 'origWidth': 410, 'origHeight': 409, 'width': 410, 'height': 409, 'widthPercent': 0.45, 'rescaleHeight': False, 'trialN': 105, 'loaded': True, 'loadedTime': 23696.80000000447, 'positionName': 'LEFT', 'positionCoords': [327.28, 227.5], 'bid': 5.66}, {'imgObject': {}, 'id': 'fried eggs', 'src': '/static/foodstim60/fried eggs.jpg', 'key': 'i', 'origWidth': 410, 'origHeight': 410, 'width': 410, 'height': 410, 'widthPercent': 0.45, 'rescaleHeight': False, 'trialN': 105, 'loaded': True, 'loadedTime': 24176, 'positionName': 'RIGHT', 'positionCoords': [798.72, 227], 'bid': 5.72}]",249733.30000000447,1669837389096,salmon,fried eggs,5.66,5.72,0.05999999999999961,fried eggs,873.5999999940395,874,873.7999999970198,True,i,251110.20000000298,1376.8999999985099,1669837390473,1377,HRV,HRV_0256,2022-11-30 19:45:29
106,"[{'imgObject': {}, 'id': 'bagel and cc', 'src': '/static/foodstim60/bagel and cc.jpg', 'key': 'u', 'origWidth': 410, 'origHeight': 410, 'width': 410, 'height': 410, 'widthPercent': 0.45, 'rescaleHeight': False, 'trialN': 106, 'loaded': True, 'loadedTime': 23763.60000000149, 'positionName': 'LEFT', 'positionCoords': [327.28, 227], 'bid': 0}, {'imgObject': {}, 'id': 'lox', 'src': '/static/foodstim60/lox.jpg', 'key': 'i', 'origWidth': 410, 'origHeight': 411, 'width': 410, 'height': 411, 'widthPercent': 0.45, 'rescaleHeight': False, 'trialN': 106, 'loaded': True, 'loadedTime': 23783.89999999851, 'positionName': 'RIGHT', 'positionCoords': [798.72, 226.5], 'bid': 0.03}]",251110.3999999985,1669837390473,bagel and cc,lox,0.0,0.03,0.03,bagel and cc,1687.4000000059605,1688,1687.9000000059605,True,u,253301.70000000298,2191.3000000044703,1669837392665,2192,HRV,HRV_0256,2022-11-30 19:45:29
107,"[{'imgObject': {}, 'id': 'blackbeanswithrice', 'src': '/static/foodstim60/blackbeanswithrice.jpg', 'key': 'u', 'origWidth': 410, 'origHeight': 410, 'width': 410, 'height': 410, 'widthPercent': 0.45, 'rescaleHeight': False, 'trialN': 107, 'loaded': True, 'loadedTime': 23919, 'positionName': 'LEFT', 'positionCoords': [327.28, 227], 'bid': 0}, {'imgObject': {}, 'id': 'seaweed', 'src': '/static/foodstim60/seaweed.jpg', 'key': 'i', 'origWidth': 410, 'origHeight': 410, 'width': 410, 'height': 410, 'widthPercent': 0.45, 'rescaleHeight': False, 'trialN': 107, 'loaded': True, 'loadedTime': 24168.39999999851, 'positionName': 'RIGHT', 'positionCoords': [798.72, 227], 'bid': 0.1}]",253301.8999999985,1669837392665,blackbeanswithrice,seaweed,0.0,0.1,0.1,seaweed,1321.5,1322,1321.6000000014901,True,i,255125.30000000447,1823.4000000059605,1669837394488,1823,HRV,HRV_0256,2022-11-30 19:45:29
108,"[{'imgObject': {}, 'id': 'baked potato', 'src': '/static/foodstim60/baked potato.jpg', 'key': 'u', 'origWidth': 409, 'origHeight': 410, 'width': 409, 'height': 410, 'widthPercent': 0.45, 'rescaleHeight': False, 'trialN': 108, 'loaded': True, 'loadedTime': 24093.60000000149, 'positionName': 'LEFT', 'positionCoords': [328.28, 227], 'bid': 0.03}, {'imgObject': {}, 'id': 'shreddedwheatwithmilk', 'src': '/static/foodstim60/shreddedwheatwithmilk.jpg', 'key': 'i', 'origWidth': 410, 'origHeight': 410, 'width': 410, 'height': 410, 'widthPercent': 0.45, 'rescaleHeight': False, 'trialN': 108, 'loaded': True, 'loadedTime': 23758.5, 'positionName': 'RIGHT', 'positionCoords': [798.72, 227], 'bid': 0}]",255125.5,1669837394489,baked potato,shreddedwheatwithmilk,0.03,0.0,-0.03,shreddedwheatwithmilk,873.2000000029802,873,873.6000000014901,True,i,256502.1000000015,1376.6000000014901,1669837395865,1376,HRV,HRV_0256,2022-11-30 19:45:29
109,"[{'imgObject': {}, 'id': 'kiwi', 'src': '/static/foodstim60/kiwi.jpg', 'key': 'u', 'origWidth': 410, 'origHeight': 410, 'width': 410, 'height': 410, 'widthPercent': 0.45, 'rescaleHeight': False, 'trialN': 109, 'loaded': True, 'loadedTime': 24158.20000000298, 'positionName': 'LEFT', 'positionCoords': [327.28, 227], 'bid': 6.51}, {'imgObject': {}, 'id': 'tacos', 'src': '/static/foodstim60/tacos.jpg', 'key': 'i', 'origWidth': 411, 'origHeight': 411, 'width': 411, 'height': 411, 'widthPercent': 0.45, 'rescaleHeight': False, 'trialN': 109, 'loaded': True, 'loadedTime': 23770, 'positionName': 'RIGHT', 'positionCoords': [798.72, 226.5], 'bid': 5.87}]",256502.30000000447,1669837395865,kiwi,tacos,6.51,5.87,-0.6399999999999997,kiwi,872,873,872.2999999970198,True,u,257877.20000000298,1374.8999999985099,1669837397240,1375,HRV,HRV_0256,2022-11-30 19:45:29
