trialN,stimuli,trialStartTime,trialStartTime_UNIX,stimulus1,stimulus2,stimulus1Bid,stimulus2Bid,delta,selected,rt,rt_UNIX,rt_perfnow,receivedResponse,rsp,trialEndTime,trialDuration,trialEndTime_UNIX,trialDuration_UNIX,exp,subjectId,date
0,"[{'imgObject': {}, 'id': 'raspberries', 'src': '/static/foodstim60/raspberries.jpg', 'key': 'u', 'origWidth': 411, 'origHeight': 411, 'width': 411, 'height': 411, 'widthPercent': 0.45, 'rescaleHeight': False, 'trialN': 0, 'loaded': True, 'loadedTime': 1929.800000011921, 'positionName': 'LEFT', 'positionCoords': [510.6, 334.5], 'bid': 7}, {'imgObject': {}, 'id': 'orange slices', 'src': '/static/foodstim60/orange slices.jpg', 'key': 'i', 'origWidth': 409, 'origHeight': 410, 'width': 409, 'height': 410, 'widthPercent': 0.45, 'rescaleHeight': False, 'trialN': 0, 'loaded': True, 'loadedTime': 2022, 'positionName': 'RIGHT', 'positionCoords': [998.4, 335], 'bid': 7.59}]",2168.900000035763,1669831927469,raspberries,orange slices,7.0,7.59,0.5899999999999999,raspberries,2018.3999999761581,2019,2018.8999999761581,True,u,4700.300000011921,2531.399999976158,1669831930000,2531,HRV,HRV_0186,2022-11-30 18:17:27
1,"[{'imgObject': {}, 'id': 'froot loops w milk', 'src': '/static/foodstim60/froot loops w milk.jpg', 'key': 'u', 'origWidth': 410, 'origHeight': 410, 'width': 410, 'height': 410, 'widthPercent': 0.45, 'rescaleHeight': False, 'trialN': 1, 'loaded': True, 'loadedTime': 2026.800000011921, 'positionName': 'LEFT', 'positionCoords': [511.6, 335], 'bid': 2.38}, {'imgObject': {}, 'id': 'bagel and cc', 'src': '/static/foodstim60/bagel and cc.jpg', 'key': 'i', 'origWidth': 410, 'origHeight': 410, 'width': 410, 'height': 410, 'widthPercent': 0.45, 'rescaleHeight': False, 'trialN': 1, 'loaded': True, 'loadedTime': 2029.9000000357628, 'positionName': 'RIGHT', 'positionCoords': [998.4, 335], 'bid': 4.97}]",4700.400000035763,1669831930000,froot loops w milk,bagel and cc,2.38,4.97,2.59,bagel and cc,1069.8999999761581,1070,1070.199999988079,True,i,6281.900000035763,1581.5,1669831931582,1582,HRV,HRV_0186,2022-11-30 18:17:27
2,"[{'imgObject': {}, 'id': 'mango', 'src': '/static/foodstim60/mango.jpg', 'key': 'u', 'origWidth': 411, 'origHeight': 411, 'width': 411, 'height': 411, 'widthPercent': 0.45, 'rescaleHeight': False, 'trialN': 2, 'loaded': True, 'loadedTime': 2032.2000000476837, 'positionName': 'LEFT', 'positionCoords': [510.6, 334.5], 'bid': 8.35}, {'imgObject': {}, 'id': 'kiwi', 'src': '/static/foodstim60/kiwi.jpg', 'key': 'i', 'origWidth': 410, 'origHeight': 410, 'width': 410, 'height': 410, 'widthPercent': 0.45, 'rescaleHeight': False, 'trialN': 2, 'loaded': True, 'loadedTime': 2034.2000000476837, 'positionName': 'RIGHT', 'positionCoords': [998.4, 335], 'bid': 8.38}]",6282.100000023842,1669831931582,mango,kiwi,8.35,8.38,0.030000000000001137,mango,2008.1000000238419,2008,2008.300000011921,True,u,8811.700000047684,2529.600000023842,1669831934112,2530,HRV,HRV_0186,2022-11-30 18:17:27
3,"[{'imgObject': {}, 'id': 'strawberries', 'src': '/static/foodstim60/strawberries.jpg', 'key': 'u', 'origWidth': 410, 'origHeight': 410, 'width': 410, 'height': 410, 'widthPercent': 0.45, 'rescaleHeight': False, 'trialN': 3, 'loaded': True, 'loadedTime': 2036, 'positionName': 'LEFT', 'positionCoords': [511.6, 335], 'bid': 8.4}, {'imgObject': {}, 'id': 'hashbrowns', 'src': '/static/foodstim60/hashbrowns.jpg', 'key': 'i', 'origWidth': 411, 'origHeight': 410, 'width': 411, 'height': 410, 'widthPercent': 0.45, 'rescaleHeight': False, 'trialN': 3, 'loaded': True, 'loadedTime': 2039.4000000357628, 'positionName': 'RIGHT', 'positionCoords': [998.4, 335], 'bid': 4.98}]",8811.900000035763,1669831934112,strawberries,hashbrowns,8.4,4.98,-3.42,strawberries,862.3000000119209,862,862.5999999642372,True,u,10190.300000011921,1378.3999999761581,1669831935490,1378,HRV,HRV_0186,2022-11-30 18:17:27
4,"[{'imgObject': {}, 'id': 'mac & cheese', 'src': '/static/foodstim60/mac & cheese.jpg', 'key': 'u', 'origWidth': 410, 'origHeight': 410, 'width': 410, 'height': 410, 'widthPercent': 0.45, 'rescaleHeight': False, 'trialN': 4, 'loaded': True, 'loadedTime': 2056.900000035763, 'positionName': 'LEFT', 'positionCoords': [511.6, 335], 'bid': 5.59}, {'imgObject': {}, 'id': 'blackbeanswithrice', 'src': '/static/foodstim60/blackbeanswithrice.jpg', 'key': 'i', 'origWidth': 410, 'origHeight': 410, 'width': 410, 'height': 410, 'widthPercent': 0.45, 'rescaleHeight': False, 'trialN': 4, 'loaded': True, 'loadedTime': 2061.600000023842, 'positionName': 'RIGHT', 'positionCoords': [998.4, 335], 'bid': 5.58}]",10190.400000035763,1669831935490,mac & cheese,blackbeanswithrice,5.59,5.58,-0.009999999999999787,mac & cheese,1068.199999988079,1069,1068.5,True,u,11781.400000035763,1591.0,1669831937081,1591,HRV,HRV_0186,2022-11-30 18:17:27
5,"[{'imgObject': {}, 'id': 'avocado', 'src': '/static/foodstim60/avocado.jpg', 'key': 'u', 'origWidth': 409, 'origHeight': 409, 'width': 409, 'height': 409, 'widthPercent': 0.45, 'rescaleHeight': False, 'trialN': 5, 'loaded': True, 'loadedTime': 2064, 'positionName': 'LEFT', 'positionCoords': [512.6, 335.5], 'bid': 0.04}, {'imgObject': {}, 'id': 'froot loops w milk', 'src': '/static/foodstim60/froot loops w milk.jpg', 'key': 'i', 'origWidth': 410, 'origHeight': 410, 'width': 410, 'height': 410, 'widthPercent': 0.45, 'rescaleHeight': False, 'trialN': 5, 'loaded': True, 'loadedTime': 2026.300000011921, 'positionName': 'RIGHT', 'positionCoords': [998.4, 335], 'bid': 2.38}]",11781.800000011921,1669831937082,avocado,froot loops w milk,0.04,2.38,2.34,froot loops w milk,1172.699999988079,1173,1173.0,True,i,13474.900000035763,1693.1000000238419,1669831938775,1693,HRV,HRV_0186,2022-11-30 18:17:27
6,"[{'imgObject': {}, 'id': 'turkey sandwich', 'src': '/static/foodstim60/turkey sandwich.jpg', 'key': 'u', 'origWidth': 409, 'origHeight': 409, 'width': 409, 'height': 409, 'widthPercent': 0.45, 'rescaleHeight': False, 'trialN': 6, 'loaded': True, 'loadedTime': 2065.7000000476837, 'positionName': 'LEFT', 'positionCoords': [512.6, 335.5], 'bid': 4.92}, {'imgObject': {}, 'id': 'salad w chicken', 'src': '/static/foodstim60/salad w chicken.jpg', 'key': 'i', 'origWidth': 411, 'origHeight': 411, 'width': 411, 'height': 411, 'widthPercent': 0.45, 'rescaleHeight': False, 'trialN': 6, 'loaded': True, 'loadedTime': 2067.300000011921, 'positionName': 'RIGHT', 'positionCoords': [998.4, 334.5], 'bid': 5.55}]",13475.200000047684,1669831938775,turkey sandwich,salad w chicken,4.92,5.55,0.6299999999999999,salad w chicken,1303.0999999642372,1303,1303.2999999523163,True,i,15292.700000047684,1817.5,1669831940593,1818,HRV,HRV_0186,2022-11-30 18:17:27
7,"[{'imgObject': {}, 'id': 'granola w milk', 'src': '/static/foodstim60/granola w milk.jpg', 'key': 'u', 'origWidth': 410, 'origHeight': 410, 'width': 410, 'height': 410, 'widthPercent': 0.45, 'rescaleHeight': False, 'trialN': 7, 'loaded': True, 'loadedTime': 2069.100000023842, 'positionName': 'LEFT', 'positionCoords': [511.6, 335], 'bid': 4.95}, {'imgObject': {}, 'id': 'seaweed', 'src': '/static/foodstim60/seaweed.jpg', 'key': 'i', 'origWidth': 410, 'origHeight': 410, 'width': 410, 'height': 410, 'widthPercent': 0.45, 'rescaleHeight': False, 'trialN': 7, 'loaded': True, 'loadedTime': 2073.900000035763, 'positionName': 'RIGHT', 'positionCoords': [998.4, 335], 'bid': 2.57}]",15292.800000011921,1669831940593,granola w milk,seaweed,4.95,2.57,-2.3800000000000003,seaweed,1357.4000000357628,1357,1357.6000000238419,True,i,17169.600000023842,1876.800000011921,1669831942469,1876,HRV,HRV_0186,2022-11-30 18:17:27
8,"[{'imgObject': {}, 'id': 'Grapes', 'src': '/static/foodstim60/Grapes.jpg', 'key': 'u', 'origWidth': 411, 'origHeight': 411, 'width': 411, 'height': 411, 'widthPercent': 0.45, 'rescaleHeight': False, 'trialN': 8, 'loaded': True, 'loadedTime': 2075.400000035763, 'positionName': 'LEFT', 'positionCoords': [510.6, 334.5], 'bid': 7.62}, {'imgObject': {}, 'id': 'chicken nuggets2', 'src': '/static/foodstim60/chicken nuggets2.jpg', 'key': 'i', 'origWidth': 410, 'origHeight': 409, 'width': 410, 'height': 409, 'widthPercent': 0.45, 'rescaleHeight': False, 'trialN': 8, 'loaded': True, 'loadedTime': 2077.400000035763, 'positionName': 'RIGHT', 'positionCoords': [998.4, 335.5], 'bid': 7.59}]",17169.80000001192,1669831942470,Grapes,chicken nuggets2,7.62,7.59,-0.03000000000000025,Grapes,1192.9000000357628,1193,1193.1000000238419,True,u,18874.0,1704.199999988079,1669831944174,1704,HRV,HRV_0186,2022-11-30 18:17:27
9,"[{'imgObject': {}, 'id': 'luckycharms', 'src': '/static/foodstim60/luckycharms.jpg', 'key': 'u', 'origWidth': 410, 'origHeight': 409, 'width': 410, 'height': 409, 'widthPercent': 0.45, 'rescaleHeight': False, 'trialN': 9, 'loaded': True, 'loadedTime': 2094.800000011921, 'positionName': 'LEFT', 'positionCoords': [511.6, 335.5], 'bid': 2.45}, {'imgObject': {}, 'id': 'hashbrowns', 'src': '/static/foodstim60/hashbrowns.jpg', 'key': 'i', 'origWidth': 411, 'origHeight': 410, 'width': 411, 'height': 410, 'widthPercent': 0.45, 'rescaleHeight': False, 'trialN': 9, 'loaded': True, 'loadedTime': 2039.5, 'positionName': 'RIGHT', 'positionCoords': [998.4, 335], 'bid': 4.98}]",18874.200000047684,1669831944174,luckycharms,hashbrowns,2.45,4.98,2.5300000000000002,luckycharms,1424.2999999523163,1425,1424.5999999642372,True,u,20819.900000035763,1945.699999988079,1669831946120,1946,HRV,HRV_0186,2022-11-30 18:17:27
10,"[{'imgObject': {}, 'id': 'veggieswithdip', 'src': '/static/foodstim60/veggieswithdip.jpg', 'key': 'u', 'origWidth': 409, 'origHeight': 409, 'width': 409, 'height': 409, 'widthPercent': 0.45, 'rescaleHeight': False, 'trialN': 10, 'loaded': True, 'loadedTime': 1962.7000000476837, 'positionName': 'LEFT', 'positionCoords': [512.6, 335.5], 'bid': 3.93}, {'imgObject': {}, 'id': 'rigatoni', 'src': '/static/foodstim60/rigatoni.jpg', 'key': 'i', 'origWidth': 411, 'origHeight': 411, 'width': 411, 'height': 411, 'widthPercent': 0.45, 'rescaleHeight': False, 'trialN': 10, 'loaded': True, 'loadedTime': 1984.1000000238419, 'positionName': 'RIGHT', 'positionCoords': [998.4, 334.5], 'bid': 7.25}]",20820.100000023842,1669831946120,veggieswithdip,rigatoni,3.93,7.25,3.32,rigatoni,1638.5,1639,1638.699999988079,True,i,22977.900000035763,2157.800000011921,1669831948278,2158,HRV,HRV_0186,2022-11-30 18:17:27
11,"[{'imgObject': {}, 'id': 'apple slices', 'src': '/static/foodstim60/apple slices.jpg', 'key': 'u', 'origWidth': 409, 'origHeight': 410, 'width': 409, 'height': 410, 'widthPercent': 0.45, 'rescaleHeight': False, 'trialN': 11, 'loaded': True, 'loadedTime': 1987.4000000357628, 'positionName': 'LEFT', 'positionCoords': [512.6, 335], 'bid': 7.66}, {'imgObject': {}, 'id': 'yogurt no spoon', 'src': '/static/foodstim60/yogurt no spoon.jpg', 'key': 'i', 'origWidth': 411, 'origHeight': 410, 'width': 411, 'height': 410, 'widthPercent': 0.45, 'rescaleHeight': False, 'trialN': 11, 'loaded': True, 'loadedTime': 1987.7000000476837, 'positionName': 'RIGHT', 'positionCoords': [998.4, 335], 'bid': 5.9}]",22978.200000047684,1669831948278,apple slices,yogurt no spoon,7.66,5.9,-1.7599999999999998,yogurt no spoon,1256.2999999523163,1257,1256.5999999642372,True,i,24750.30000001192,1772.0999999642372,1669831950050,1772,HRV,HRV_0186,2022-11-30 18:17:27
12,"[{'imgObject': {}, 'id': 'veggieswithdip', 'src': '/static/foodstim60/veggieswithdip.jpg', 'key': 'u', 'origWidth': 409, 'origHeight': 409, 'width': 409, 'height': 409, 'widthPercent': 0.45, 'rescaleHeight': False, 'trialN': 12, 'loaded': True, 'loadedTime': 1962.9000000357628, 'positionName': 'LEFT', 'positionCoords': [512.6, 335.5], 'bid': 3.93}, {'imgObject': {}, 'id': 'turkeysandwich', 'src': '/static/foodstim60/turkeysandwich.jpg', 'key': 'i', 'origWidth': 409, 'origHeight': 409, 'width': 409, 'height': 409, 'widthPercent': 0.45, 'rescaleHeight': False, 'trialN': 12, 'loaded': True, 'loadedTime': 1991.300000011921, 'positionName': 'RIGHT', 'positionCoords': [998.4, 335.5], 'bid': 4.93}]",24750.400000035763,1669831950050,veggieswithdip,turkeysandwich,3.93,4.93,0.9999999999999996,veggieswithdip,1547.800000011921,1548,1548.0999999642372,True,u,26811.200000047684,2060.800000011921,1669831952111,2061,HRV,HRV_0186,2022-11-30 18:17:27
13,"[{'imgObject': {}, 'id': 'baked potato', 'src': '/static/foodstim60/baked potato.jpg', 'key': 'u', 'origWidth': 409, 'origHeight': 410, 'width': 409, 'height': 410, 'widthPercent': 0.45, 'rescaleHeight': False, 'trialN': 13, 'loaded': True, 'loadedTime': 1997.300000011921, 'positionName': 'LEFT', 'positionCoords': [512.6, 335], 'bid': 6.28}, {'imgObject': {}, 'id': 'strawberries', 'src': '/static/foodstim60/strawberries.jpg', 'key': 'i', 'origWidth': 410, 'origHeight': 410, 'width': 410, 'height': 410, 'widthPercent': 0.45, 'rescaleHeight': False, 'trialN': 13, 'loaded': True, 'loadedTime': 2035.4000000357628, 'positionName': 'RIGHT', 'positionCoords': [998.4, 335], 'bid': 8.4}]",26811.400000035763,1669831952111,baked potato,strawberries,6.28,8.4,2.12,strawberries,1735.0999999642372,1736,1735.300000011921,True,i,29061.700000047684,2250.300000011921,1669831954362,2251,HRV,HRV_0186,2022-11-30 18:17:27
14,"[{'imgObject': {}, 'id': 'mac & cheese', 'src': '/static/foodstim60/mac & cheese.jpg', 'key': 'u', 'origWidth': 410, 'origHeight': 410, 'width': 410, 'height': 410, 'widthPercent': 0.45, 'rescaleHeight': False, 'trialN': 14, 'loaded': True, 'loadedTime': 2040.300000011921, 'positionName': 'LEFT', 'positionCoords': [511.6, 335], 'bid': 5.59}, {'imgObject': {}, 'id': 'olives', 'src': '/static/foodstim60/olives.jpg', 'key': 'i', 'origWidth': 410, 'origHeight': 410, 'width': 410, 'height': 410, 'widthPercent': 0.45, 'rescaleHeight': False, 'trialN': 14, 'loaded': True, 'loadedTime': 2002.4000000357628, 'positionName': 'RIGHT', 'positionCoords': [998.4, 335], 'bid': 0.07}]",29061.80000001192,1669831954362,mac & cheese,olives,5.59,0.07,-5.52,mac & cheese,1060.699999988079,1061,1061.0,True,u,30643.200000047684,1581.4000000357628,1669831955943,1581,HRV,HRV_0186,2022-11-30 18:17:27
15,"[{'imgObject': {}, 'id': 'fruitsalad', 'src': '/static/foodstim60/fruitsalad.jpg', 'key': 'u', 'origWidth': 410, 'origHeight': 410, 'width': 410, 'height': 410, 'widthPercent': 0.45, 'rescaleHeight': False, 'trialN': 15, 'loaded': True, 'loadedTime': 2020.4000000357628, 'positionName': 'LEFT', 'positionCoords': [511.6, 335], 'bid': 8.41}, {'imgObject': {}, 'id': 'roastedpotatoes', 'src': '/static/foodstim60/roastedpotatoes.jpg', 'key': 'i', 'origWidth': 409, 'origHeight': 410, 'width': 409, 'height': 410, 'widthPercent': 0.45, 'rescaleHeight': False, 'trialN': 15, 'loaded': True, 'loadedTime': 2024.300000011921, 'positionName': 'RIGHT', 'positionCoords': [998.4, 335], 'bid': 8.870000000000001}]",30643.30000001192,1669831955943,fruitsalad,roastedpotatoes,8.41,8.870000000000001,0.46000000000000085,fruitsalad,1367.0,1367,1367.199999988079,True,u,32521.400000035763,1878.1000000238419,1669831957821,1878,HRV,HRV_0186,2022-11-30 18:17:27
16,"[{'imgObject': {}, 'id': 'orange slices', 'src': '/static/foodstim60/orange slices.jpg', 'key': 'u', 'origWidth': 409, 'origHeight': 410, 'width': 409, 'height': 410, 'widthPercent': 0.45, 'rescaleHeight': False, 'trialN': 16, 'loaded': True, 'loadedTime': 2022, 'positionName': 'LEFT', 'positionCoords': [512.6, 335], 'bid': 7.59}, {'imgObject': {}, 'id': 'salmon', 'src': '/static/foodstim60/salmon.jpg', 'key': 'i', 'origWidth': 410, 'origHeight': 409, 'width': 410, 'height': 409, 'widthPercent': 0.45, 'rescaleHeight': False, 'trialN': 16, 'loaded': True, 'loadedTime': 2027, 'positionName': 'RIGHT', 'positionCoords': [998.4, 335.5], 'bid': 7.54}]",32521.5,1669831957821,orange slices,salmon,7.59,7.54,-0.04999999999999982,salmon,1323.9000000357628,1324,1324.1000000238419,True,i,34352.80000001192,1831.300000011921,1669831959653,1832,HRV,HRV_0186,2022-11-30 18:17:27
17,"[{'imgObject': {}, 'id': 'hotdog w must', 'src': '/static/foodstim60/hotdog w must.jpg', 'key': 'u', 'origWidth': 409, 'origHeight': 409, 'width': 409, 'height': 409, 'widthPercent': 0.45, 'rescaleHeight': False, 'trialN': 17, 'loaded': True, 'loadedTime': 2071, 'positionName': 'LEFT', 'positionCoords': [512.6, 335.5], 'bid': 4.98}, {'imgObject': {}, 'id': 'Tribe humus pita', 'src': '/static/foodstim60/Tribe humus pita.jpg', 'key': 'i', 'origWidth': 411, 'origHeight': 411, 'width': 411, 'height': 411, 'widthPercent': 0.45, 'rescaleHeight': False, 'trialN': 17, 'loaded': True, 'loadedTime': 2080.600000023842, 'positionName': 'RIGHT', 'positionCoords': [998.4, 334.5], 'bid': 4.95}]",34353.0,1669831959653,hotdog w must,Tribe humus pita,4.98,4.95,-0.03000000000000025,Tribe humus pita,1129.2000000476837,1129,1129.4000000357628,True,i,35999.10000002384,1646.1000000238419,1669831961299,1646,HRV,HRV_0186,2022-11-30 18:17:27
18,"[{'imgObject': {}, 'id': 'chickenfingers', 'src': '/static/foodstim60/chickenfingers.jpg', 'key': 'u', 'origWidth': 410, 'origHeight': 410, 'width': 410, 'height': 410, 'widthPercent': 0.45, 'rescaleHeight': False, 'trialN': 18, 'loaded': True, 'loadedTime': 2098.400000035763, 'positionName': 'LEFT', 'positionCoords': [511.6, 335], 'bid': 8}, {'imgObject': {}, 'id': 'apple slices', 'src': '/static/foodstim60/apple slices.jpg', 'key': 'i', 'origWidth': 409, 'origHeight': 410, 'width': 409, 'height': 410, 'widthPercent': 0.45, 'rescaleHeight': False, 'trialN': 18, 'loaded': True, 'loadedTime': 1986.9000000357628, 'positionName': 'RIGHT', 'positionCoords': [998.4, 335], 'bid': 7.66}]",35999.200000047684,1669831961299,chickenfingers,apple slices,8.0,7.66,-0.33999999999999986,chickenfingers,1227.2999999523163,1228,1227.5,True,u,37740.0,1740.7999999523163,1669831963040,1741,HRV,HRV_0186,2022-11-30 18:17:27
19,"[{'imgObject': {}, 'id': 'corn cob', 'src': '/static/foodstim60/corn cob.jpg', 'key': 'u', 'origWidth': 411, 'origHeight': 411, 'width': 411, 'height': 411, 'widthPercent': 0.45, 'rescaleHeight': False, 'trialN': 19, 'loaded': True, 'loadedTime': 2101.800000011921, 'positionName': 'LEFT', 'positionCoords': [510.6, 334.5], 'bid': 9.98}, {'imgObject': {}, 'id': 'apple slices', 'src': '/static/foodstim60/apple slices.jpg', 'key': 'i', 'origWidth': 409, 'origHeight': 410, 'width': 409, 'height': 410, 'widthPercent': 0.45, 'rescaleHeight': False, 'trialN': 19, 'loaded': True, 'loadedTime': 1986.300000011921, 'positionName': 'RIGHT', 'positionCoords': [998.4, 335], 'bid': 7.66}]",37740.10000002384,1669831963040,corn cob,apple slices,9.98,7.66,-2.3200000000000003,corn cob,726.0,726,726.1000000238419,True,u,38983.90000003576,1243.800000011921,1669831964284,1244,HRV,HRV_0186,2022-11-30 18:17:27
20,"[{'imgObject': {}, 'id': 'mac & cheese', 'src': '/static/foodstim60/mac & cheese.jpg', 'key': 'u', 'origWidth': 410, 'origHeight': 410, 'width': 410, 'height': 410, 'widthPercent': 0.45, 'rescaleHeight': False, 'trialN': 20, 'loaded': True, 'loadedTime': 2057.300000011921, 'positionName': 'LEFT', 'positionCoords': [511.6, 335], 'bid': 5.59}, {'imgObject': {}, 'id': 'omelette', 'src': '/static/foodstim60/omelette.jpg', 'key': 'i', 'origWidth': 410, 'origHeight': 409, 'width': 410, 'height': 409, 'widthPercent': 0.45, 'rescaleHeight': False, 'trialN': 20, 'loaded': True, 'loadedTime': 2102.7000000476837, 'positionName': 'RIGHT', 'positionCoords': [998.4, 335.5], 'bid': 5.08}]",38984.0,1669831964284,mac & cheese,omelette,5.59,5.08,-0.5099999999999998,mac & cheese,1330.300000011921,1330,1330.6000000238419,True,u,40836.700000047684,1852.7000000476837,1669831966137,1853,HRV,HRV_0186,2022-11-30 18:17:27
21,"[{'imgObject': {}, 'id': 'blueberries', 'src': '/static/foodstim60/blueberries.jpg', 'key': 'u', 'origWidth': 411, 'origHeight': 411, 'width': 411, 'height': 411, 'widthPercent': 0.45, 'rescaleHeight': False, 'trialN': 21, 'loaded': True, 'loadedTime': 2106.2000000476837, 'positionName': 'LEFT', 'positionCoords': [510.6, 334.5], 'bid': 3.76}, {'imgObject': {}, 'id': 'burger', 'src': '/static/foodstim60/burger.jpg', 'key': 'i', 'origWidth': 409, 'origHeight': 409, 'width': 409, 'height': 409, 'widthPercent': 0.45, 'rescaleHeight': False, 'trialN': 21, 'loaded': True, 'loadedTime': 2108.5, 'positionName': 'RIGHT', 'positionCoords': [998.4, 335.5], 'bid': 5.28}]",40836.90000003576,1669831966137,blueberries,burger,3.76,5.28,1.5200000000000005,burger,1157.300000011921,1157,1157.5999999642372,True,i,42510.200000047684,1673.300000011921,1669831967810,1673,HRV,HRV_0186,2022-11-30 18:17:27
22,"[{'imgObject': {}, 'id': 'edamame', 'src': '/static/foodstim60/edamame.jpg', 'key': 'u', 'origWidth': 409, 'origHeight': 410, 'width': 409, 'height': 410, 'widthPercent': 0.45, 'rescaleHeight': False, 'trialN': 22, 'loaded': True, 'loadedTime': 2109.5, 'positionName': 'LEFT', 'positionCoords': [512.6, 335], 'bid': 9.9}, {'imgObject': {}, 'id': 'banana', 'src': '/static/foodstim60/banana.jpg', 'key': 'i', 'origWidth': 410, 'origHeight': 410, 'width': 410, 'height': 410, 'widthPercent': 0.45, 'rescaleHeight': False, 'trialN': 22, 'loaded': True, 'loadedTime': 2111.2000000476837, 'positionName': 'RIGHT', 'positionCoords': [998.4, 335], 'bid': 7.21}]",42510.30000001192,1669831967810,edamame,banana,9.9,7.21,-2.6900000000000004,edamame,996.0,996,996.1999999880791,True,u,44020.30000001192,1510.0,1669831969320,1510,HRV,HRV_0186,2022-11-30 18:17:27
23,"[{'imgObject': {}, 'id': 'rigatoni', 'src': '/static/foodstim60/rigatoni.jpg', 'key': 'u', 'origWidth': 411, 'origHeight': 411, 'width': 411, 'height': 411, 'widthPercent': 0.45, 'rescaleHeight': False, 'trialN': 23, 'loaded': True, 'loadedTime': 1984.6000000238419, 'positionName': 'LEFT', 'positionCoords': [510.6, 334.5], 'bid': 7.25}, {'imgObject': {}, 'id': 'banana', 'src': '/static/foodstim60/banana.jpg', 'key': 'i', 'origWidth': 410, 'origHeight': 410, 'width': 410, 'height': 410, 'widthPercent': 0.45, 'rescaleHeight': False, 'trialN': 23, 'loaded': True, 'loadedTime': 2112, 'positionName': 'RIGHT', 'positionCoords': [998.4, 335], 'bid': 7.21}]",44020.5,1669831969320,rigatoni,banana,7.25,7.21,-0.040000000000000036,rigatoni,1262.0,1263,1262.2000000476837,True,u,45797.700000047684,1777.2000000476837,1669831971098,1778,HRV,HRV_0186,2022-11-30 18:17:27
24,"[{'imgObject': {}, 'id': 'sushi w_condiments', 'src': '/static/foodstim60/sushi w_condiments.jpg', 'key': 'u', 'origWidth': 410, 'origHeight': 410, 'width': 410, 'height': 410, 'widthPercent': 0.45, 'rescaleHeight': False, 'trialN': 24, 'loaded': True, 'loadedTime': 2112.900000035763, 'positionName': 'LEFT', 'positionCoords': [511.6, 335], 'bid': 5.53}, {'imgObject': {}, 'id': 'blackbeanswithrice', 'src': '/static/foodstim60/blackbeanswithrice.jpg', 'key': 'i', 'origWidth': 410, 'origHeight': 410, 'width': 410, 'height': 410, 'widthPercent': 0.45, 'rescaleHeight': False, 'trialN': 24, 'loaded': True, 'loadedTime': 2062.800000011921, 'positionName': 'RIGHT', 'positionCoords': [998.4, 335], 'bid': 5.58}]",45797.80000001192,1669831971098,sushi w_condiments,blackbeanswithrice,5.53,5.58,0.04999999999999982,blackbeanswithrice,884.4000000357628,884,884.6000000238419,True,i,47205.200000047684,1407.4000000357628,1669831972505,1407,HRV,HRV_0186,2022-11-30 18:17:27
25,"[{'imgObject': {}, 'id': 'corn cob', 'src': '/static/foodstim60/corn cob.jpg', 'key': 'u', 'origWidth': 411, 'origHeight': 411, 'width': 411, 'height': 411, 'widthPercent': 0.45, 'rescaleHeight': False, 'trialN': 25, 'loaded': True, 'loadedTime': 2101.800000011921, 'positionName': 'LEFT', 'positionCoords': [510.6, 334.5], 'bid': 9.98}, {'imgObject': {}, 'id': 'strawberries', 'src': '/static/foodstim60/strawberries.jpg', 'key': 'i', 'origWidth': 410, 'origHeight': 410, 'width': 410, 'height': 410, 'widthPercent': 0.45, 'rescaleHeight': False, 'trialN': 25, 'loaded': True, 'loadedTime': 2036.4000000357628, 'positionName': 'RIGHT', 'positionCoords': [998.4, 335], 'bid': 8.4}]",47205.30000001192,1669831972505,corn cob,strawberries,9.98,8.4,-1.58,corn cob,828.8000000119209,829,829.1000000238419,True,u,48553.0,1347.699999988079,1669831973853,1348,HRV,HRV_0186,2022-11-30 18:17:27
26,"[{'imgObject': {}, 'id': 'roastedpotatoes', 'src': '/static/foodstim60/roastedpotatoes.jpg', 'key': 'u', 'origWidth': 409, 'origHeight': 410, 'width': 409, 'height': 410, 'widthPercent': 0.45, 'rescaleHeight': False, 'trialN': 26, 'loaded': True, 'loadedTime': 2024.300000011921, 'positionName': 'LEFT', 'positionCoords': [512.6, 335], 'bid': 8.870000000000001}, {'imgObject': {}, 'id': 'chickenfingers', 'src': '/static/foodstim60/chickenfingers.jpg', 'key': 'i', 'origWidth': 410, 'origHeight': 410, 'width': 410, 'height': 410, 'widthPercent': 0.45, 'rescaleHeight': False, 'trialN': 26, 'loaded': True, 'loadedTime': 2098.400000035763, 'positionName': 'RIGHT', 'positionCoords': [998.4, 335], 'bid': 8}]",48553.200000047684,1669831973853,roastedpotatoes,chickenfingers,8.870000000000001,8.0,-0.870000000000001,roastedpotatoes,1769.199999988079,1770,1769.5,True,u,50835.10000002384,2281.899999976158,1669831976136,2283,HRV,HRV_0186,2022-11-30 18:17:27
27,"[{'imgObject': {}, 'id': 'bagel plain', 'src': '/static/foodstim60/bagel plain.jpg', 'key': 'u', 'origWidth': 410, 'origHeight': 410, 'width': 410, 'height': 410, 'widthPercent': 0.45, 'rescaleHeight': False, 'trialN': 27, 'loaded': True, 'loadedTime': 2113.800000011921, 'positionName': 'LEFT', 'positionCoords': [511.6, 335], 'bid': 4.96}, {'imgObject': {}, 'id': 'mango', 'src': '/static/foodstim60/mango.jpg', 'key': 'i', 'origWidth': 411, 'origHeight': 411, 'width': 411, 'height': 411, 'widthPercent': 0.45, 'rescaleHeight': False, 'trialN': 27, 'loaded': True, 'loadedTime': 2031.2000000476837, 'positionName': 'RIGHT', 'positionCoords': [998.4, 334.5], 'bid': 8.35}]",50835.10000002384,1669831976136,bagel plain,mango,4.96,8.35,3.3899999999999997,mango,1527.0,1527,1527.300000011921,True,i,52879.0,2043.8999999761581,1669831978179,2043,HRV,HRV_0186,2022-11-30 18:17:27
28,"[{'imgObject': {}, 'id': 'froot loops w milk', 'src': '/static/foodstim60/froot loops w milk.jpg', 'key': 'u', 'origWidth': 410, 'origHeight': 410, 'width': 410, 'height': 410, 'widthPercent': 0.45, 'rescaleHeight': False, 'trialN': 28, 'loaded': True, 'loadedTime': 2024.9000000357628, 'positionName': 'LEFT', 'positionCoords': [511.6, 335], 'bid': 2.38}, {'imgObject': {}, 'id': 'shreddedwheatwithmilk', 'src': '/static/foodstim60/shreddedwheatwithmilk.jpg', 'key': 'i', 'origWidth': 410, 'origHeight': 410, 'width': 410, 'height': 410, 'widthPercent': 0.45, 'rescaleHeight': False, 'trialN': 28, 'loaded': True, 'loadedTime': 2114.900000035763, 'positionName': 'RIGHT', 'positionCoords': [998.4, 335], 'bid': 1.68}]",52879.200000047684,1669831978180,froot loops w milk,shreddedwheatwithmilk,2.38,1.68,-0.7,froot loops w milk,1483.0,1483,1483.199999988079,True,u,54883.90000003576,2004.699999988079,1669831980184,2004,HRV,HRV_0186,2022-11-30 18:17:27
29,"[{'imgObject': {}, 'id': 'tacos', 'src': '/static/foodstim60/tacos.jpg', 'key': 'u', 'origWidth': 411, 'origHeight': 411, 'width': 411, 'height': 411, 'widthPercent': 0.45, 'rescaleHeight': False, 'trialN': 29, 'loaded': True, 'loadedTime': 2116.5, 'positionName': 'LEFT', 'positionCoords': [510.6, 334.5], 'bid': 6.13}, {'imgObject': {}, 'id': 'mango', 'src': '/static/foodstim60/mango.jpg', 'key': 'i', 'origWidth': 411, 'origHeight': 411, 'width': 411, 'height': 411, 'widthPercent': 0.45, 'rescaleHeight': False, 'trialN': 29, 'loaded': True, 'loadedTime': 2032.6000000238419, 'positionName': 'RIGHT', 'positionCoords': [998.4, 334.5], 'bid': 8.35}]",54884.0,1669831980184,tacos,mango,6.13,8.35,2.2199999999999998,mango,910.6000000238419,911,910.8000000119209,True,i,56311.90000003576,1427.9000000357628,1669831981612,1428,HRV,HRV_0186,2022-11-30 18:17:27
30,"[{'imgObject': {}, 'id': 'cocktailshrimp', 'src': '/static/foodstim60/cocktailshrimp.jpg', 'key': 'u', 'origWidth': 410, 'origHeight': 410, 'width': 410, 'height': 410, 'widthPercent': 0.45, 'rescaleHeight': False, 'trialN': 30, 'loaded': True, 'loadedTime': 2117.400000035763, 'positionName': 'LEFT', 'positionCoords': [511.6, 335], 'bid': 5.91}, {'imgObject': {}, 'id': 'burrito', 'src': '/static/foodstim60/burrito.jpg', 'key': 'i', 'origWidth': 410, 'origHeight': 410, 'width': 410, 'height': 410, 'widthPercent': 0.45, 'rescaleHeight': False, 'trialN': 30, 'loaded': True, 'loadedTime': 2119, 'positionName': 'RIGHT', 'positionCoords': [998.4, 335], 'bid': 5.76}]",56312.0,1669831981613,cocktailshrimp,burrito,5.91,5.76,-0.15000000000000036,burrito,1466.2000000476837,1466,1466.4000000357628,True,i,58293.90000003576,1981.9000000357628,1669831983594,1981,HRV,HRV_0186,2022-11-30 18:17:27
31,"[{'imgObject': {}, 'id': 'fried eggs', 'src': '/static/foodstim60/fried eggs.jpg', 'key': 'u', 'origWidth': 410, 'origHeight': 410, 'width': 410, 'height': 410, 'widthPercent': 0.45, 'rescaleHeight': False, 'trialN': 31, 'loaded': True, 'loadedTime': 2120.100000023842, 'positionName': 'LEFT', 'positionCoords': [511.6, 335], 'bid': 3.36}, {'imgObject': {}, 'id': 'seaweed', 'src': '/static/foodstim60/seaweed.jpg', 'key': 'i', 'origWidth': 410, 'origHeight': 410, 'width': 410, 'height': 410, 'widthPercent': 0.45, 'rescaleHeight': False, 'trialN': 31, 'loaded': True, 'loadedTime': 2074, 'positionName': 'RIGHT', 'positionCoords': [998.4, 335], 'bid': 2.57}]",58294.10000002384,1669831983595,fried eggs,seaweed,3.36,2.57,-0.79,fried eggs,1228.0,1228,1228.199999988079,True,u,60036.80000001192,1742.699999988079,1669831985337,1742,HRV,HRV_0186,2022-11-30 18:17:27
32,"[{'imgObject': {}, 'id': 'edamame', 'src': '/static/foodstim60/edamame.jpg', 'key': 'u', 'origWidth': 409, 'origHeight': 410, 'width': 409, 'height': 410, 'widthPercent': 0.45, 'rescaleHeight': False, 'trialN': 32, 'loaded': True, 'loadedTime': 2110.2000000476837, 'positionName': 'LEFT', 'positionCoords': [512.6, 335], 'bid': 9.9}, {'imgObject': {}, 'id': 'cantaloupe', 'src': '/static/foodstim60/cantaloupe.jpg', 'key': 'i', 'origWidth': 409, 'origHeight': 409, 'width': 409, 'height': 409, 'widthPercent': 0.45, 'rescaleHeight': False, 'trialN': 32, 'loaded': True, 'loadedTime': 2120.7000000476837, 'positionName': 'RIGHT', 'positionCoords': [998.4, 335.5], 'bid': 9.2}]",60036.90000003576,1669831985337,edamame,cantaloupe,9.9,9.2,-0.7000000000000011,edamame,949.3999999761581,950,949.6999999880791,True,u,61508.5,1471.5999999642372,1669831986809,1472,HRV,HRV_0186,2022-11-30 18:17:27
33,"[{'imgObject': {}, 'id': 'hotdog w must', 'src': '/static/foodstim60/hotdog w must.jpg', 'key': 'u', 'origWidth': 409, 'origHeight': 409, 'width': 409, 'height': 409, 'widthPercent': 0.45, 'rescaleHeight': False, 'trialN': 33, 'loaded': True, 'loadedTime': 2072, 'positionName': 'LEFT', 'positionCoords': [512.6, 335.5], 'bid': 4.98}, {'imgObject': {}, 'id': 'seaweed', 'src': '/static/foodstim60/seaweed.jpg', 'key': 'i', 'origWidth': 410, 'origHeight': 410, 'width': 410, 'height': 410, 'widthPercent': 0.45, 'rescaleHeight': False, 'trialN': 33, 'loaded': True, 'loadedTime': 2073.900000035763, 'positionName': 'RIGHT', 'positionCoords': [998.4, 335], 'bid': 2.57}]",61508.60000002384,1669831986809,hotdog w must,seaweed,4.98,2.57,-2.4100000000000006,hotdog w must,1493.6000000238419,1494,1493.699999988079,True,u,63513.0,2004.3999999761581,1669831988814,2005,HRV,HRV_0186,2022-11-30 18:17:27
34,"[{'imgObject': {}, 'id': 'blueberries', 'src': '/static/foodstim60/blueberries.jpg', 'key': 'u', 'origWidth': 411, 'origHeight': 411, 'width': 411, 'height': 411, 'widthPercent': 0.45, 'rescaleHeight': False, 'trialN': 34, 'loaded': True, 'loadedTime': 2107.100000023842, 'positionName': 'LEFT', 'positionCoords': [510.6, 334.5], 'bid': 3.76}, {'imgObject': {}, 'id': 'banana', 'src': '/static/foodstim60/banana.jpg', 'key': 'i', 'origWidth': 410, 'origHeight': 410, 'width': 410, 'height': 410, 'widthPercent': 0.45, 'rescaleHeight': False, 'trialN': 34, 'loaded': True, 'loadedTime': 2112, 'positionName': 'RIGHT', 'positionCoords': [998.4, 335], 'bid': 7.21}]",63513.10000002384,1669831988814,blueberries,banana,3.76,7.21,3.45,banana,825.1999999880791,825,825.3999999761581,True,i,64849.30000001192,1336.199999988079,1669831990150,1336,HRV,HRV_0186,2022-11-30 18:17:27
35,"[{'imgObject': {}, 'id': 'blueberries', 'src': '/static/foodstim60/blueberries.jpg', 'key': 'u', 'origWidth': 411, 'origHeight': 411, 'width': 411, 'height': 411, 'widthPercent': 0.45, 'rescaleHeight': False, 'trialN': 35, 'loaded': True, 'loadedTime': 2107, 'positionName': 'LEFT', 'positionCoords': [510.6, 334.5], 'bid': 3.76}, {'imgObject': {}, 'id': 'turkey sandwich', 'src': '/static/foodstim60/turkey sandwich.jpg', 'key': 'i', 'origWidth': 409, 'origHeight': 409, 'width': 409, 'height': 409, 'widthPercent': 0.45, 'rescaleHeight': False, 'trialN': 35, 'loaded': True, 'loadedTime': 2067, 'positionName': 'RIGHT', 'positionCoords': [998.4, 335.5], 'bid': 4.92}]",64849.40000003576,1669831990150,blueberries,turkey sandwich,3.76,4.92,1.1600000000000001,turkey sandwich,1225.5999999642372,1226,1225.800000011921,True,i,66586.30000001192,1736.8999999761581,1669831991887,1737,HRV,HRV_0186,2022-11-30 18:17:27
36,"[{'imgObject': {}, 'id': 'kiwi', 'src': '/static/foodstim60/kiwi.jpg', 'key': 'u', 'origWidth': 410, 'origHeight': 410, 'width': 410, 'height': 410, 'widthPercent': 0.45, 'rescaleHeight': False, 'trialN': 36, 'loaded': True, 'loadedTime': 2034.7000000476837, 'positionName': 'LEFT', 'positionCoords': [511.6, 335], 'bid': 8.38}, {'imgObject': {}, 'id': 'rigatoni and sauce', 'src': '/static/foodstim60/rigatoni and sauce.jpg', 'key': 'i', 'origWidth': 410, 'origHeight': 411, 'width': 410, 'height': 411, 'widthPercent': 0.45, 'rescaleHeight': False, 'trialN': 36, 'loaded': True, 'loadedTime': 2123.400000035763, 'positionName': 'RIGHT', 'positionCoords': [998.4, 334.5], 'bid': 7.19}]",66586.5,1669831991887,kiwi,rigatoni and sauce,8.38,7.19,-1.1900000000000004,kiwi,1087.4000000357628,1088,1087.7000000476837,True,u,68184.30000001192,1597.800000011921,1669831993485,1598,HRV,HRV_0186,2022-11-30 18:17:27
37,"[{'imgObject': {}, 'id': 'eggsalad', 'src': '/static/foodstim60/eggsalad.jpg', 'key': 'u', 'origWidth': 410, 'origHeight': 409, 'width': 410, 'height': 409, 'widthPercent': 0.45, 'rescaleHeight': False, 'trialN': 37, 'loaded': True, 'loadedTime': 2124.300000011921, 'positionName': 'LEFT', 'positionCoords': [511.6, 335.5], 'bid': 3.5500000000000003}, {'imgObject': {}, 'id': 'mashed potato', 'src': '/static/foodstim60/mashed potato.jpg', 'key': 'i', 'origWidth': 409, 'origHeight': 409, 'width': 409, 'height': 409, 'widthPercent': 0.45, 'rescaleHeight': False, 'trialN': 37, 'loaded': True, 'loadedTime': 2140.7000000476837, 'positionName': 'RIGHT', 'positionCoords': [998.4, 335.5], 'bid': 5.28}]",68184.5,1669831993485,eggsalad,mashed potato,3.5500000000000003,5.28,1.73,mashed potato,1513.7000000476837,1514,1513.9000000357628,True,i,70216.30000001192,2031.800000011921,1669831995517,2032,HRV,HRV_0186,2022-11-30 18:17:27
38,"[{'imgObject': {}, 'id': 'salad w chicken', 'src': '/static/foodstim60/salad w chicken.jpg', 'key': 'u', 'origWidth': 411, 'origHeight': 411, 'width': 411, 'height': 411, 'widthPercent': 0.45, 'rescaleHeight': False, 'trialN': 38, 'loaded': True, 'loadedTime': 2068.600000023842, 'positionName': 'LEFT', 'positionCoords': [510.6, 334.5], 'bid': 5.55}, {'imgObject': {}, 'id': 'tacos', 'src': '/static/foodstim60/tacos.jpg', 'key': 'i', 'origWidth': 411, 'origHeight': 411, 'width': 411, 'height': 411, 'widthPercent': 0.45, 'rescaleHeight': False, 'trialN': 38, 'loaded': True, 'loadedTime': 2116.800000011921, 'positionName': 'RIGHT', 'positionCoords': [998.4, 334.5], 'bid': 6.13}]",70216.40000003576,1669831995517,salad w chicken,tacos,5.55,6.13,0.5800000000000001,salad w chicken,898.0,898,898.1999999880791,True,u,71625.30000001192,1408.8999999761581,1669831996926,1409,HRV,HRV_0186,2022-11-30 18:17:27
39,"[{'imgObject': {}, 'id': 'froot loops w milk', 'src': '/static/foodstim60/froot loops w milk.jpg', 'key': 'u', 'origWidth': 410, 'origHeight': 410, 'width': 410, 'height': 410, 'widthPercent': 0.45, 'rescaleHeight': False, 'trialN': 39, 'loaded': True, 'loadedTime': 2026.5, 'positionName': 'LEFT', 'positionCoords': [511.6, 335], 'bid': 2.38}, {'imgObject': {}, 'id': 'raisin bran w milk', 'src': '/static/foodstim60/raisin bran w milk.jpg', 'key': 'i', 'origWidth': 411, 'origHeight': 411, 'width': 411, 'height': 411, 'widthPercent': 0.45, 'rescaleHeight': False, 'trialN': 39, 'loaded': True, 'loadedTime': 2141.800000011921, 'positionName': 'RIGHT', 'positionCoords': [998.4, 334.5], 'bid': 4.94}]",71625.30000001192,1669831996926,froot loops w milk,raisin bran w milk,2.38,4.94,2.5600000000000005,froot loops w milk,1177.199999988079,1177,1177.5,True,u,73313.30000001192,1688.0,1669831998614,1688,HRV,HRV_0186,2022-11-30 18:17:27
40,"[{'imgObject': {}, 'id': 'cocktailshrimp', 'src': '/static/foodstim60/cocktailshrimp.jpg', 'key': 'u', 'origWidth': 410, 'origHeight': 410, 'width': 410, 'height': 410, 'widthPercent': 0.45, 'rescaleHeight': False, 'trialN': 40, 'loaded': True, 'loadedTime': 2116.900000035763, 'positionName': 'LEFT', 'positionCoords': [511.6, 335], 'bid': 5.91}, {'imgObject': {}, 'id': 'chickenfingers', 'src': '/static/foodstim60/chickenfingers.jpg', 'key': 'i', 'origWidth': 410, 'origHeight': 410, 'width': 410, 'height': 410, 'widthPercent': 0.45, 'rescaleHeight': False, 'trialN': 40, 'loaded': True, 'loadedTime': 2097.300000011921, 'positionName': 'RIGHT', 'positionCoords': [998.4, 335], 'bid': 8}]",73313.70000004768,1669831998614,cocktailshrimp,chickenfingers,5.91,8.0,2.09,chickenfingers,1056.5,1057,1056.699999988079,True,i,74881.10000002384,1567.3999999761581,1669832000182,1568,HRV,HRV_0186,2022-11-30 18:17:27
41,"[{'imgObject': {}, 'id': 'yogurt no spoon', 'src': '/static/foodstim60/yogurt no spoon.jpg', 'key': 'u', 'origWidth': 411, 'origHeight': 410, 'width': 411, 'height': 410, 'widthPercent': 0.45, 'rescaleHeight': False, 'trialN': 41, 'loaded': True, 'loadedTime': 1989.1000000238419, 'positionName': 'LEFT', 'positionCoords': [510.6, 335], 'bid': 5.9}, {'imgObject': {}, 'id': 'cherry tomato', 'src': '/static/foodstim60/cherry tomato.jpg', 'key': 'i', 'origWidth': 410, 'origHeight': 410, 'width': 410, 'height': 410, 'widthPercent': 0.45, 'rescaleHeight': False, 'trialN': 41, 'loaded': True, 'loadedTime': 2142.7000000476837, 'positionName': 'RIGHT', 'positionCoords': [998.4, 335], 'bid': 0.15}]",74881.30000001192,1669832000182,yogurt no spoon,cherry tomato,5.9,0.15,-5.75,yogurt no spoon,945.0,945,945.1999999880791,True,u,76343.5,1462.199999988079,1669832001644,1462,HRV,HRV_0186,2022-11-30 18:17:27
42,"[{'imgObject': {}, 'id': 'avocado', 'src': '/static/foodstim60/avocado.jpg', 'key': 'u', 'origWidth': 409, 'origHeight': 409, 'width': 409, 'height': 409, 'widthPercent': 0.45, 'rescaleHeight': False, 'trialN': 42, 'loaded': True, 'loadedTime': 2064.100000023842, 'positionName': 'LEFT', 'positionCoords': [512.6, 335.5], 'bid': 0.04}, {'imgObject': {}, 'id': 'fried eggs', 'src': '/static/foodstim60/fried eggs.jpg', 'key': 'i', 'origWidth': 410, 'origHeight': 410, 'width': 410, 'height': 410, 'widthPercent': 0.45, 'rescaleHeight': False, 'trialN': 42, 'loaded': True, 'loadedTime': 2120, 'positionName': 'RIGHT', 'positionCoords': [998.4, 335], 'bid': 3.36}]",76343.70000004768,1669832001644,avocado,fried eggs,0.04,3.36,3.32,fried eggs,818.8999999761581,819,819.0999999642372,True,i,77679.20000004768,1335.5,1669832002980,1336,HRV,HRV_0186,2022-11-30 18:17:27
43,"[{'imgObject': {}, 'id': 'bagel plain', 'src': '/static/foodstim60/bagel plain.jpg', 'key': 'u', 'origWidth': 410, 'origHeight': 410, 'width': 410, 'height': 410, 'widthPercent': 0.45, 'rescaleHeight': False, 'trialN': 43, 'loaded': True, 'loadedTime': 2113.300000011921, 'positionName': 'LEFT', 'positionCoords': [511.6, 335], 'bid': 4.96}, {'imgObject': {}, 'id': 'turkey sandwich', 'src': '/static/foodstim60/turkey sandwich.jpg', 'key': 'i', 'origWidth': 409, 'origHeight': 409, 'width': 409, 'height': 409, 'widthPercent': 0.45, 'rescaleHeight': False, 'trialN': 43, 'loaded': True, 'loadedTime': 2066.400000035763, 'positionName': 'RIGHT', 'positionCoords': [998.4, 335.5], 'bid': 4.92}]",77679.40000003576,1669832002980,bagel plain,turkey sandwich,4.96,4.92,-0.040000000000000036,bagel plain,1170.8999999761581,1171,1171.0999999642372,True,u,79371.10000002384,1691.699999988079,1669832004672,1692,HRV,HRV_0186,2022-11-30 18:17:27
44,"[{'imgObject': {}, 'id': 'veggieswithdip', 'src': '/static/foodstim60/veggieswithdip.jpg', 'key': 'u', 'origWidth': 409, 'origHeight': 409, 'width': 409, 'height': 409, 'widthPercent': 0.45, 'rescaleHeight': False, 'trialN': 44, 'loaded': True, 'loadedTime': 1982.1000000238419, 'positionName': 'LEFT', 'positionCoords': [512.6, 335.5], 'bid': 3.93}, {'imgObject': {}, 'id': 'cherry tomato', 'src': '/static/foodstim60/cherry tomato.jpg', 'key': 'i', 'origWidth': 410, 'origHeight': 410, 'width': 410, 'height': 410, 'widthPercent': 0.45, 'rescaleHeight': False, 'trialN': 44, 'loaded': True, 'loadedTime': 2143.100000023842, 'positionName': 'RIGHT', 'positionCoords': [998.4, 335], 'bid': 0.15}]",79371.20000004768,1669832004672,veggieswithdip,cherry tomato,3.93,0.15,-3.7800000000000002,veggieswithdip,927.0999999642372,927,927.2999999523163,True,u,80817.70000004768,1446.5,1669832006118,1446,HRV,HRV_0186,2022-11-30 18:17:27
45,"[{'imgObject': {}, 'id': 'cheerios', 'src': '/static/foodstim60/cheerios.jpg', 'key': 'u', 'origWidth': 409, 'origHeight': 410, 'width': 409, 'height': 410, 'widthPercent': 0.45, 'rescaleHeight': False, 'trialN': 45, 'loaded': True, 'loadedTime': 2143.900000035763, 'positionName': 'LEFT', 'positionCoords': [512.6, 335], 'bid': 4.98}, {'imgObject': {}, 'id': 'lox', 'src': '/static/foodstim60/lox.jpg', 'key': 'i', 'origWidth': 410, 'origHeight': 411, 'width': 410, 'height': 411, 'widthPercent': 0.45, 'rescaleHeight': False, 'trialN': 45, 'loaded': True, 'loadedTime': 2146.7000000476837, 'positionName': 'RIGHT', 'positionCoords': [998.4, 334.5], 'bid': 2.63}]",80817.90000003576,1669832006118,cheerios,lox,4.98,2.63,-2.3500000000000005,cheerios,1224.3999999761581,1225,1224.800000011921,True,u,82553.90000003576,1736.0,1669832007854,1736,HRV,HRV_0186,2022-11-30 18:17:27
46,"[{'imgObject': {}, 'id': 'corn cob', 'src': '/static/foodstim60/corn cob.jpg', 'key': 'u', 'origWidth': 411, 'origHeight': 411, 'width': 411, 'height': 411, 'widthPercent': 0.45, 'rescaleHeight': False, 'trialN': 46, 'loaded': True, 'loadedTime': 2101.7000000476837, 'positionName': 'LEFT', 'positionCoords': [510.6, 334.5], 'bid': 9.98}, {'imgObject': {}, 'id': 'rigatoni', 'src': '/static/foodstim60/rigatoni.jpg', 'key': 'i', 'origWidth': 411, 'origHeight': 411, 'width': 411, 'height': 411, 'widthPercent': 0.45, 'rescaleHeight': False, 'trialN': 46, 'loaded': True, 'loadedTime': 1984.300000011921, 'positionName': 'RIGHT', 'positionCoords': [998.4, 334.5], 'bid': 7.25}]",82554.0,1669832007855,corn cob,rigatoni,9.98,7.25,-2.7300000000000004,corn cob,808.2000000476837,808,808.5,True,u,83883.40000003576,1329.4000000357628,1669832009184,1329,HRV,HRV_0186,2022-11-30 18:17:27
47,"[{'imgObject': {}, 'id': 'cheerios', 'src': '/static/foodstim60/cheerios.jpg', 'key': 'u', 'origWidth': 409, 'origHeight': 410, 'width': 409, 'height': 410, 'widthPercent': 0.45, 'rescaleHeight': False, 'trialN': 47, 'loaded': True, 'loadedTime': 2143.100000023842, 'positionName': 'LEFT', 'positionCoords': [512.6, 335], 'bid': 4.98}, {'imgObject': {}, 'id': 'blackbeanswithrice', 'src': '/static/foodstim60/blackbeanswithrice.jpg', 'key': 'i', 'origWidth': 410, 'origHeight': 410, 'width': 410, 'height': 410, 'widthPercent': 0.45, 'rescaleHeight': False, 'trialN': 47, 'loaded': True, 'loadedTime': 2062.100000023842, 'positionName': 'RIGHT', 'positionCoords': [998.4, 335], 'bid': 5.58}]",83883.5,1669832009184,cheerios,blackbeanswithrice,4.98,5.58,0.5999999999999996,blackbeanswithrice,1662.800000011921,1663,1663.0,True,i,86055.70000004768,2172.2000000476837,1669832011356,2172,HRV,HRV_0186,2022-11-30 18:17:27
48,"[{'imgObject': {}, 'id': 'avocado', 'src': '/static/foodstim60/avocado.jpg', 'key': 'u', 'origWidth': 409, 'origHeight': 409, 'width': 409, 'height': 409, 'widthPercent': 0.45, 'rescaleHeight': False, 'trialN': 48, 'loaded': True, 'loadedTime': 2065.400000035763, 'positionName': 'LEFT', 'positionCoords': [512.6, 335.5], 'bid': 0.04}, {'imgObject': {}, 'id': 'pear', 'src': '/static/foodstim60/pear.jpg', 'key': 'i', 'origWidth': 411, 'origHeight': 410, 'width': 411, 'height': 410, 'widthPercent': 0.45, 'rescaleHeight': False, 'trialN': 48, 'loaded': True, 'loadedTime': 2147.300000011921, 'positionName': 'RIGHT', 'positionCoords': [998.4, 335], 'bid': 0.13}]",86055.90000003576,1669832011356,avocado,pear,0.04,0.13,0.09,pear,738.3000000119209,739,738.5999999642372,True,i,87310.30000001192,1254.3999999761581,1669832012611,1255,HRV,HRV_0186,2022-11-30 18:17:27
49,"[{'imgObject': {}, 'id': 'corn cob', 'src': '/static/foodstim60/corn cob.jpg', 'key': 'u', 'origWidth': 411, 'origHeight': 411, 'width': 411, 'height': 411, 'widthPercent': 0.45, 'rescaleHeight': False, 'trialN': 49, 'loaded': True, 'loadedTime': 2098.600000023842, 'positionName': 'LEFT', 'positionCoords': [510.6, 334.5], 'bid': 9.98}, {'imgObject': {}, 'id': 'sushi w_condiments', 'src': '/static/foodstim60/sushi w_condiments.jpg', 'key': 'i', 'origWidth': 410, 'origHeight': 410, 'width': 410, 'height': 410, 'widthPercent': 0.45, 'rescaleHeight': False, 'trialN': 49, 'loaded': True, 'loadedTime': 2113, 'positionName': 'RIGHT', 'positionCoords': [998.4, 335], 'bid': 5.53}]",87310.70000004768,1669832012611,corn cob,sushi w_condiments,9.98,5.53,-4.45,corn cob,916.2999999523163,917,916.3999999761581,True,u,88737.5,1426.7999999523163,1669832014038,1427,HRV,HRV_0186,2022-11-30 18:17:27
50,"[{'imgObject': {}, 'id': 'veggieswithdip', 'src': '/static/foodstim60/veggieswithdip.jpg', 'key': 'u', 'origWidth': 409, 'origHeight': 409, 'width': 409, 'height': 409, 'widthPercent': 0.45, 'rescaleHeight': False, 'trialN': 50, 'loaded': True, 'loadedTime': 1977.9000000357628, 'positionName': 'LEFT', 'positionCoords': [512.6, 335.5], 'bid': 3.93}, {'imgObject': {}, 'id': 'ice cream sundae 002', 'src': '/static/foodstim60/ice cream sundae 002.jpg', 'key': 'i', 'origWidth': 409, 'origHeight': 409, 'width': 409, 'height': 409, 'widthPercent': 0.45, 'rescaleHeight': False, 'trialN': 50, 'loaded': True, 'loadedTime': 2148.100000023842, 'positionName': 'RIGHT', 'positionCoords': [998.4, 335.5], 'bid': 4.96}]",88737.60000002384,1669832014038,veggieswithdip,ice cream sundae 002,3.93,4.96,1.0299999999999998,ice cream sundae 002,1800.699999988079,1801,1800.8999999761581,True,i,91048.20000004768,2310.600000023842,1669832016349,2311,HRV,HRV_0186,2022-11-30 18:17:27
51,"[{'imgObject': {}, 'id': 'luckycharms', 'src': '/static/foodstim60/luckycharms.jpg', 'key': 'u', 'origWidth': 410, 'origHeight': 409, 'width': 410, 'height': 409, 'widthPercent': 0.45, 'rescaleHeight': False, 'trialN': 51, 'loaded': True, 'loadedTime': 2094.5, 'positionName': 'LEFT', 'positionCoords': [511.6, 335.5], 'bid': 2.45}, {'imgObject': {}, 'id': 'olives', 'src': '/static/foodstim60/olives.jpg', 'key': 'i', 'origWidth': 410, 'origHeight': 410, 'width': 410, 'height': 410, 'widthPercent': 0.45, 'rescaleHeight': False, 'trialN': 51, 'loaded': True, 'loadedTime': 2004.6000000238419, 'positionName': 'RIGHT', 'positionCoords': [998.4, 335], 'bid': 0.07}]",91048.30000001192,1669832016349,luckycharms,olives,2.45,0.07,-2.3800000000000003,luckycharms,785.9000000357628,786,786.1999999880791,True,u,92348.90000003576,1300.6000000238419,1669832017649,1300,HRV,HRV_0186,2022-11-30 18:17:27
52,"[{'imgObject': {}, 'id': 'sweetpotato', 'src': '/static/foodstim60/sweetpotato.jpg', 'key': 'u', 'origWidth': 410, 'origHeight': 410, 'width': 410, 'height': 410, 'widthPercent': 0.45, 'rescaleHeight': False, 'trialN': 52, 'loaded': True, 'loadedTime': 2148.600000023842, 'positionName': 'LEFT', 'positionCoords': [511.6, 335], 'bid': 6.71}, {'imgObject': {}, 'id': 'salad w chicken', 'src': '/static/foodstim60/salad w chicken.jpg', 'key': 'i', 'origWidth': 411, 'origHeight': 411, 'width': 411, 'height': 411, 'widthPercent': 0.45, 'rescaleHeight': False, 'trialN': 52, 'loaded': True, 'loadedTime': 2068.300000011921, 'positionName': 'RIGHT', 'positionCoords': [998.4, 334.5], 'bid': 5.55}]",92349.20000004768,1669832017650,sweetpotato,salad w chicken,6.71,5.55,-1.1600000000000001,salad w chicken,1797.0999999642372,1797,1797.2999999523163,True,i,94660.60000002384,2311.399999976158,1669832019961,2311,HRV,HRV_0186,2022-11-30 18:17:27
53,"[{'imgObject': {}, 'id': 'eggs', 'src': '/static/foodstim60/eggs.jpg', 'key': 'u', 'origWidth': 409, 'origHeight': 409, 'width': 409, 'height': 409, 'widthPercent': 0.45, 'rescaleHeight': False, 'trialN': 53, 'loaded': True, 'loadedTime': 2164.100000023842, 'positionName': 'LEFT', 'positionCoords': [512.6, 335.5], 'bid': 1.88}, {'imgObject': {}, 'id': 'luckycharms', 'src': '/static/foodstim60/luckycharms.jpg', 'key': 'i', 'origWidth': 410, 'origHeight': 409, 'width': 410, 'height': 409, 'widthPercent': 0.45, 'rescaleHeight': False, 'trialN': 53, 'loaded': True, 'loadedTime': 2093, 'positionName': 'RIGHT', 'positionCoords': [998.4, 335.5], 'bid': 2.45}]",94660.70000004768,1669832019961,eggs,luckycharms,1.88,2.45,0.5700000000000003,luckycharms,1861.5999999642372,1862,1861.8999999761581,True,i,97035.80000001192,2375.099999964237,1669832022336,2375,HRV,HRV_0186,2022-11-30 18:17:27
54,"[{'imgObject': {}, 'id': 'salmon', 'src': '/static/foodstim60/salmon.jpg', 'key': 'u', 'origWidth': 410, 'origHeight': 409, 'width': 410, 'height': 409, 'widthPercent': 0.45, 'rescaleHeight': False, 'trialN': 54, 'loaded': True, 'loadedTime': 2028.5, 'positionName': 'LEFT', 'positionCoords': [511.6, 335.5], 'bid': 7.54}, {'imgObject': {}, 'id': 'cherries', 'src': '/static/foodstim60/cherries.jpg', 'key': 'i', 'origWidth': 410, 'origHeight': 411, 'width': 410, 'height': 411, 'widthPercent': 0.45, 'rescaleHeight': False, 'trialN': 54, 'loaded': True, 'loadedTime': 2164.900000035763, 'positionName': 'RIGHT', 'positionCoords': [998.4, 334.5], 'bid': 10}]",97036.0,1669832022337,salmon,cherries,7.54,10.0,2.46,cherries,734.3000000119209,734,734.5,True,i,98290.80000001192,1254.800000011921,1669832023591,1254,HRV,HRV_0186,2022-11-30 18:17:27
55,"[{'imgObject': {}, 'id': 'fruitsalad', 'src': '/static/foodstim60/fruitsalad.jpg', 'key': 'u', 'origWidth': 410, 'origHeight': 410, 'width': 410, 'height': 410, 'widthPercent': 0.45, 'rescaleHeight': False, 'trialN': 55, 'loaded': True, 'loadedTime': 2020.7000000476837, 'positionName': 'LEFT', 'positionCoords': [511.6, 335], 'bid': 8.41}, {'imgObject': {}, 'id': 'hotdog w must', 'src': '/static/foodstim60/hotdog w must.jpg', 'key': 'i', 'origWidth': 409, 'origHeight': 409, 'width': 409, 'height': 409, 'widthPercent': 0.45, 'rescaleHeight': False, 'trialN': 55, 'loaded': True, 'loadedTime': 2072.2000000476837, 'positionName': 'RIGHT', 'positionCoords': [998.4, 335.5], 'bid': 4.98}]",98291.0,1669832023592,fruitsalad,hotdog w must,8.41,4.98,-3.4299999999999997,fruitsalad,815.6000000238419,815,815.8000000119209,True,u,99626.0,1335.0,1669832024927,1335,HRV,HRV_0186,2022-11-30 18:17:27
56,"[{'imgObject': {}, 'id': 'banana', 'src': '/static/foodstim60/banana.jpg', 'key': 'u', 'origWidth': 410, 'origHeight': 410, 'width': 410, 'height': 410, 'widthPercent': 0.45, 'rescaleHeight': False, 'trialN': 56, 'loaded': True, 'loadedTime': 2111.7000000476837, 'positionName': 'LEFT', 'positionCoords': [511.6, 335], 'bid': 7.21}, {'imgObject': {}, 'id': 'grilled chicken strips', 'src': '/static/foodstim60/grilled chicken strips.jpg', 'key': 'i', 'origWidth': 410, 'origHeight': 411, 'width': 410, 'height': 411, 'widthPercent': 0.45, 'rescaleHeight': False, 'trialN': 56, 'loaded': True, 'loadedTime': 2165.800000011921, 'positionName': 'RIGHT', 'positionCoords': [998.4, 334.5], 'bid': 6.19}]",99626.20000004768,1669832024927,banana,grilled chicken strips,7.21,6.19,-1.0199999999999996,grilled chicken strips,1200.0999999642372,1200,1200.2999999523163,True,i,101343.90000003576,1717.699999988079,1669832026644,1717,HRV,HRV_0186,2022-11-30 18:17:27
57,"[{'imgObject': {}, 'id': 'fruitsalad', 'src': '/static/foodstim60/fruitsalad.jpg', 'key': 'u', 'origWidth': 410, 'origHeight': 410, 'width': 410, 'height': 410, 'widthPercent': 0.45, 'rescaleHeight': False, 'trialN': 57, 'loaded': True, 'loadedTime': 2018.1000000238419, 'positionName': 'LEFT', 'positionCoords': [511.6, 335], 'bid': 8.41}, {'imgObject': {}, 'id': 'cherries', 'src': '/static/foodstim60/cherries.jpg', 'key': 'i', 'origWidth': 410, 'origHeight': 411, 'width': 410, 'height': 411, 'widthPercent': 0.45, 'rescaleHeight': False, 'trialN': 57, 'loaded': True, 'loadedTime': 2165, 'positionName': 'RIGHT', 'positionCoords': [998.4, 334.5], 'bid': 10}]",101343.90000003576,1669832026644,fruitsalad,cherries,8.41,10.0,1.5899999999999999,cherries,714.3999999761581,715,714.5,True,i,102569.70000004768,1225.800000011921,1669832027870,1226,HRV,HRV_0186,2022-11-30 18:17:27
58,"[{'imgObject': {}, 'id': 'grilled chicken strips', 'src': '/static/foodstim60/grilled chicken strips.jpg', 'key': 'u', 'origWidth': 410, 'origHeight': 411, 'width': 410, 'height': 411, 'widthPercent': 0.45, 'rescaleHeight': False, 'trialN': 58, 'loaded': True, 'loadedTime': 2165.7000000476837, 'positionName': 'LEFT', 'positionCoords': [511.6, 334.5], 'bid': 6.19}, {'imgObject': {}, 'id': 'kiwi', 'src': '/static/foodstim60/kiwi.jpg', 'key': 'i', 'origWidth': 410, 'origHeight': 410, 'width': 410, 'height': 410, 'widthPercent': 0.45, 'rescaleHeight': False, 'trialN': 58, 'loaded': True, 'loadedTime': 2032.800000011921, 'positionName': 'RIGHT', 'positionCoords': [998.4, 335], 'bid': 8.38}]",102570.0,1669832027870,grilled chicken strips,kiwi,6.19,8.38,2.1900000000000004,kiwi,984.2000000476837,985,984.5,True,i,104070.60000002384,1500.6000000238419,1669832029371,1501,HRV,HRV_0186,2022-11-30 18:17:27
59,"[{'imgObject': {}, 'id': 'chickenfingers', 'src': '/static/foodstim60/chickenfingers.jpg', 'key': 'u', 'origWidth': 410, 'origHeight': 410, 'width': 410, 'height': 410, 'widthPercent': 0.45, 'rescaleHeight': False, 'trialN': 59, 'loaded': True, 'loadedTime': 2096.7000000476837, 'positionName': 'LEFT', 'positionCoords': [511.6, 335], 'bid': 8}, {'imgObject': {}, 'id': 'cherries', 'src': '/static/foodstim60/cherries.jpg', 'key': 'i', 'origWidth': 410, 'origHeight': 411, 'width': 410, 'height': 411, 'widthPercent': 0.45, 'rescaleHeight': False, 'trialN': 59, 'loaded': True, 'loadedTime': 2164.300000011921, 'positionName': 'RIGHT', 'positionCoords': [998.4, 334.5], 'bid': 10}]",104070.60000002384,1669832029371,chickenfingers,cherries,8.0,10.0,2.0,cherries,771.8000000119209,772,772.1000000238419,True,i,105366.10000002384,1295.5,1669832030667,1296,HRV,HRV_0186,2022-11-30 18:17:27
60,"[{'imgObject': {}, 'id': 'pear', 'src': '/static/foodstim60/pear.jpg', 'key': 'u', 'origWidth': 411, 'origHeight': 410, 'width': 411, 'height': 410, 'widthPercent': 0.45, 'rescaleHeight': False, 'trialN': 60, 'loaded': True, 'loadedTime': 2146.7000000476837, 'positionName': 'LEFT', 'positionCoords': [510.6, 335], 'bid': 0.13}, {'imgObject': {}, 'id': 'burrito', 'src': '/static/foodstim60/burrito.jpg', 'key': 'i', 'origWidth': 410, 'origHeight': 410, 'width': 410, 'height': 410, 'widthPercent': 0.45, 'rescaleHeight': False, 'trialN': 60, 'loaded': True, 'loadedTime': 2119, 'positionName': 'RIGHT', 'positionCoords': [998.4, 335], 'bid': 5.76}]",105366.30000001192,1669832030667,pear,burrito,0.13,5.76,5.63,burrito,1236.0,1236,1236.300000011921,True,i,107119.90000003576,1753.6000000238419,1669832032420,1753,HRV,HRV_0186,2022-11-30 18:17:27
61,"[{'imgObject': {}, 'id': 'sweetpotato', 'src': '/static/foodstim60/sweetpotato.jpg', 'key': 'u', 'origWidth': 410, 'origHeight': 410, 'width': 410, 'height': 410, 'widthPercent': 0.45, 'rescaleHeight': False, 'trialN': 61, 'loaded': True, 'loadedTime': 2148.900000035763, 'positionName': 'LEFT', 'positionCoords': [511.6, 335], 'bid': 6.71}, {'imgObject': {}, 'id': 'popsicles', 'src': '/static/foodstim60/popsicles.jpg', 'key': 'i', 'origWidth': 410, 'origHeight': 410, 'width': 410, 'height': 410, 'widthPercent': 0.45, 'rescaleHeight': False, 'trialN': 61, 'loaded': True, 'loadedTime': 2166.600000023842, 'positionName': 'RIGHT', 'positionCoords': [998.4, 335], 'bid': 6.7}]",107120.10000002384,1669832032420,sweetpotato,popsicles,6.71,6.7,-0.009999999999999787,sweetpotato,986.1999999880791,987,986.3999999761581,True,u,108621.80000001192,1501.699999988079,1669832033922,1502,HRV,HRV_0186,2022-11-30 18:17:27
62,"[{'imgObject': {}, 'id': 'cheerios', 'src': '/static/foodstim60/cheerios.jpg', 'key': 'u', 'origWidth': 409, 'origHeight': 410, 'width': 409, 'height': 410, 'widthPercent': 0.45, 'rescaleHeight': False, 'trialN': 62, 'loaded': True, 'loadedTime': 2143.7000000476837, 'positionName': 'LEFT', 'positionCoords': [512.6, 335], 'bid': 4.98}, {'imgObject': {}, 'id': 'steak', 'src': '/static/foodstim60/steak.jpg', 'key': 'i', 'origWidth': 410, 'origHeight': 410, 'width': 410, 'height': 410, 'widthPercent': 0.45, 'rescaleHeight': False, 'trialN': 62, 'loaded': True, 'loadedTime': 2167.2000000476837, 'positionName': 'RIGHT', 'positionCoords': [998.4, 335], 'bid': 8.69}]",108621.90000003576,1669832033922,cheerios,steak,4.98,8.69,3.709999999999999,steak,820.8999999761581,821,821.0999999642372,True,i,109955.60000002384,1333.699999988079,1669832035256,1334,HRV,HRV_0186,2022-11-30 18:17:27
63,"[{'imgObject': {}, 'id': 'ice cream sundae 002', 'src': '/static/foodstim60/ice cream sundae 002.jpg', 'key': 'u', 'origWidth': 409, 'origHeight': 409, 'width': 409, 'height': 409, 'widthPercent': 0.45, 'rescaleHeight': False, 'trialN': 63, 'loaded': True, 'loadedTime': 2148.100000023842, 'positionName': 'LEFT', 'positionCoords': [512.6, 335.5], 'bid': 4.96}, {'imgObject': {}, 'id': 'chickenfingers', 'src': '/static/foodstim60/chickenfingers.jpg', 'key': 'i', 'origWidth': 410, 'origHeight': 410, 'width': 410, 'height': 410, 'widthPercent': 0.45, 'rescaleHeight': False, 'trialN': 63, 'loaded': True, 'loadedTime': 2094.800000011921, 'positionName': 'RIGHT', 'positionCoords': [998.4, 335], 'bid': 8}]",109955.70000004768,1669832035256,ice cream sundae 002,chickenfingers,4.96,8.0,3.04,ice cream sundae 002,1774.699999988079,1775,1774.8999999761581,True,u,112250.0,2294.2999999523163,1669832037550,2294,HRV,HRV_0186,2022-11-30 18:17:27
64,"[{'imgObject': {}, 'id': 'pear', 'src': '/static/foodstim60/pear.jpg', 'key': 'u', 'origWidth': 411, 'origHeight': 410, 'width': 411, 'height': 410, 'widthPercent': 0.45, 'rescaleHeight': False, 'trialN': 64, 'loaded': True, 'loadedTime': 2147.400000035763, 'positionName': 'LEFT', 'positionCoords': [510.6, 335], 'bid': 0.13}, {'imgObject': {}, 'id': 'seaweed', 'src': '/static/foodstim60/seaweed.jpg', 'key': 'i', 'origWidth': 410, 'origHeight': 410, 'width': 410, 'height': 410, 'widthPercent': 0.45, 'rescaleHeight': False, 'trialN': 64, 'loaded': True, 'loadedTime': 2073.5, 'positionName': 'RIGHT', 'positionCoords': [998.4, 335], 'bid': 2.57}]",112250.20000004768,1669832037550,pear,seaweed,0.13,2.57,2.44,pear,1216.3999999761581,1217,1216.5999999642372,True,u,113987.10000002384,1736.8999999761581,1669832039287,1737,HRV,HRV_0186,2022-11-30 18:17:27
65,"[{'imgObject': {}, 'id': 'cantaloupe', 'src': '/static/foodstim60/cantaloupe.jpg', 'key': 'u', 'origWidth': 409, 'origHeight': 409, 'width': 409, 'height': 409, 'widthPercent': 0.45, 'rescaleHeight': False, 'trialN': 65, 'loaded': True, 'loadedTime': 2120.7000000476837, 'positionName': 'LEFT', 'positionCoords': [512.6, 335.5], 'bid': 9.2}, {'imgObject': {}, 'id': 'orange slices', 'src': '/static/foodstim60/orange slices.jpg', 'key': 'i', 'origWidth': 409, 'origHeight': 410, 'width': 409, 'height': 410, 'widthPercent': 0.45, 'rescaleHeight': False, 'trialN': 65, 'loaded': True, 'loadedTime': 2021, 'positionName': 'RIGHT', 'positionCoords': [998.4, 335], 'bid': 7.59}]",113987.20000004768,1669832039287,cantaloupe,orange slices,9.2,7.59,-1.6099999999999994,cantaloupe,1319.199999988079,1320,1319.2999999523163,True,u,115819.10000002384,1831.8999999761581,1669832041119,1832,HRV,HRV_0186,2022-11-30 18:17:27
66,"[{'imgObject': {}, 'id': 'cheerios', 'src': '/static/foodstim60/cheerios.jpg', 'key': 'u', 'origWidth': 409, 'origHeight': 410, 'width': 409, 'height': 410, 'widthPercent': 0.45, 'rescaleHeight': False, 'trialN': 66, 'loaded': True, 'loadedTime': 2143.600000023842, 'positionName': 'LEFT', 'positionCoords': [512.6, 335], 'bid': 4.98}, {'imgObject': {}, 'id': 'cocktailshrimp', 'src': '/static/foodstim60/cocktailshrimp.jpg', 'key': 'i', 'origWidth': 410, 'origHeight': 410, 'width': 410, 'height': 410, 'widthPercent': 0.45, 'rescaleHeight': False, 'trialN': 66, 'loaded': True, 'loadedTime': 2117.7000000476837, 'positionName': 'RIGHT', 'positionCoords': [998.4, 335], 'bid': 5.91}]",115819.30000001192,1669832041120,cheerios,cocktailshrimp,4.98,5.91,0.9299999999999997,cocktailshrimp,1487.0,1487,1487.1000000238419,True,i,117818.0,1998.699999988079,1669832043118,1998,HRV,HRV_0186,2022-11-30 18:17:27
67,"[{'imgObject': {}, 'id': 'lox', 'src': '/static/foodstim60/lox.jpg', 'key': 'u', 'origWidth': 410, 'origHeight': 411, 'width': 410, 'height': 411, 'widthPercent': 0.45, 'rescaleHeight': False, 'trialN': 67, 'loaded': True, 'loadedTime': 2146.400000035763, 'positionName': 'LEFT', 'positionCoords': [511.6, 334.5], 'bid': 2.63}, {'imgObject': {}, 'id': 'eggsalad', 'src': '/static/foodstim60/eggsalad.jpg', 'key': 'i', 'origWidth': 410, 'origHeight': 409, 'width': 410, 'height': 409, 'widthPercent': 0.45, 'rescaleHeight': False, 'trialN': 67, 'loaded': True, 'loadedTime': 2124.400000035763, 'positionName': 'RIGHT', 'positionCoords': [998.4, 335.5], 'bid': 3.5500000000000003}]",117818.20000004768,1669832043118,lox,eggsalad,2.63,3.5500000000000003,0.9200000000000004,eggsalad,960.0999999642372,961,960.1999999880791,True,i,119293.30000001192,1475.0999999642372,1669832044593,1475,HRV,HRV_0186,2022-11-30 18:17:27
68,"[{'imgObject': {}, 'id': 'fruitsalad', 'src': '/static/foodstim60/fruitsalad.jpg', 'key': 'u', 'origWidth': 410, 'origHeight': 410, 'width': 410, 'height': 410, 'widthPercent': 0.45, 'rescaleHeight': False, 'trialN': 68, 'loaded': True, 'loadedTime': 2018.1000000238419, 'positionName': 'LEFT', 'positionCoords': [511.6, 335], 'bid': 8.41}, {'imgObject': {}, 'id': 'rigatoni', 'src': '/static/foodstim60/rigatoni.jpg', 'key': 'i', 'origWidth': 411, 'origHeight': 411, 'width': 411, 'height': 411, 'widthPercent': 0.45, 'rescaleHeight': False, 'trialN': 68, 'loaded': True, 'loadedTime': 1982.5, 'positionName': 'RIGHT', 'positionCoords': [998.4, 334.5], 'bid': 7.25}]",119293.40000003576,1669832044594,fruitsalad,rigatoni,8.41,7.25,-1.1600000000000001,fruitsalad,989.1999999880791,989,989.3999999761581,True,u,120793.5,1500.0999999642372,1669832046094,1500,HRV,HRV_0186,2022-11-30 18:17:27
69,"[{'imgObject': {}, 'id': 'rigatoni and sauce', 'src': '/static/foodstim60/rigatoni and sauce.jpg', 'key': 'u', 'origWidth': 410, 'origHeight': 411, 'width': 410, 'height': 411, 'widthPercent': 0.45, 'rescaleHeight': False, 'trialN': 69, 'loaded': True, 'loadedTime': 2123.5, 'positionName': 'LEFT', 'positionCoords': [511.6, 334.5], 'bid': 7.19}, {'imgObject': {}, 'id': 'Grapes', 'src': '/static/foodstim60/Grapes.jpg', 'key': 'i', 'origWidth': 411, 'origHeight': 411, 'width': 411, 'height': 411, 'widthPercent': 0.45, 'rescaleHeight': False, 'trialN': 69, 'loaded': True, 'loadedTime': 2075.7000000476837, 'positionName': 'RIGHT', 'positionCoords': [998.4, 334.5], 'bid': 7.62}]",120793.70000004768,1669832046094,rigatoni and sauce,Grapes,7.19,7.62,0.4299999999999997,Grapes,1168.3999999761581,1168,1168.5999999642372,True,i,122475.20000004768,1681.5,1669832047775,1681,HRV,HRV_0186,2022-11-30 18:17:27
70,"[{'imgObject': {}, 'id': 'Tribe humus pita', 'src': '/static/foodstim60/Tribe humus pita.jpg', 'key': 'u', 'origWidth': 411, 'origHeight': 411, 'width': 411, 'height': 411, 'widthPercent': 0.45, 'rescaleHeight': False, 'trialN': 70, 'loaded': True, 'loadedTime': 2080.7000000476837, 'positionName': 'LEFT', 'positionCoords': [510.6, 334.5], 'bid': 4.95}, {'imgObject': {}, 'id': 'raisin bran w milk', 'src': '/static/foodstim60/raisin bran w milk.jpg', 'key': 'i', 'origWidth': 411, 'origHeight': 411, 'width': 411, 'height': 411, 'widthPercent': 0.45, 'rescaleHeight': False, 'trialN': 70, 'loaded': True, 'loadedTime': 2141.2000000476837, 'positionName': 'RIGHT', 'positionCoords': [998.4, 334.5], 'bid': 4.94}]",122475.30000001192,1669832047775,Tribe humus pita,raisin bran w milk,4.95,4.94,-0.009999999999999787,Tribe humus pita,1463.0,1464,1463.1000000238419,True,u,124461.30000001192,1986.0,1669832049761,1986,HRV,HRV_0186,2022-11-30 18:17:27
71,"[{'imgObject': {}, 'id': 'turkeysandwich', 'src': '/static/foodstim60/turkeysandwich.jpg', 'key': 'u', 'origWidth': 409, 'origHeight': 409, 'width': 409, 'height': 409, 'widthPercent': 0.45, 'rescaleHeight': False, 'trialN': 71, 'loaded': True, 'loadedTime': 1990.6000000238419, 'positionName': 'LEFT', 'positionCoords': [512.6, 335.5], 'bid': 4.93}, {'imgObject': {}, 'id': 'chicken nuggets2', 'src': '/static/foodstim60/chicken nuggets2.jpg', 'key': 'i', 'origWidth': 410, 'origHeight': 409, 'width': 410, 'height': 409, 'widthPercent': 0.45, 'rescaleHeight': False, 'trialN': 71, 'loaded': True, 'loadedTime': 2076.5, 'positionName': 'RIGHT', 'positionCoords': [998.4, 335.5], 'bid': 7.59}]",124461.40000003576,1669832049762,turkeysandwich,chicken nuggets2,4.93,7.59,2.66,chicken nuggets2,1293.0,1293,1293.0999999642372,True,i,126273.10000002384,1811.699999988079,1669832051573,1811,HRV,HRV_0186,2022-11-30 18:17:27
72,"[{'imgObject': {}, 'id': 'sweetpotato', 'src': '/static/foodstim60/sweetpotato.jpg', 'key': 'u', 'origWidth': 410, 'origHeight': 410, 'width': 410, 'height': 410, 'widthPercent': 0.45, 'rescaleHeight': False, 'trialN': 72, 'loaded': True, 'loadedTime': 2148.800000011921, 'positionName': 'LEFT', 'positionCoords': [511.6, 335], 'bid': 6.71}, {'imgObject': {}, 'id': 'steak', 'src': '/static/foodstim60/steak.jpg', 'key': 'i', 'origWidth': 410, 'origHeight': 410, 'width': 410, 'height': 410, 'widthPercent': 0.45, 'rescaleHeight': False, 'trialN': 72, 'loaded': True, 'loadedTime': 2167.400000035763, 'positionName': 'RIGHT', 'positionCoords': [998.4, 335], 'bid': 8.69}]",126273.20000004768,1669832051573,sweetpotato,steak,6.71,8.69,1.9799999999999995,steak,761.0999999642372,762,761.3999999761581,True,i,127547.30000001192,1274.0999999642372,1669832052847,1274,HRV,HRV_0186,2022-11-30 18:17:27
73,"[{'imgObject': {}, 'id': 'fried eggs', 'src': '/static/foodstim60/fried eggs.jpg', 'key': 'u', 'origWidth': 410, 'origHeight': 410, 'width': 410, 'height': 410, 'widthPercent': 0.45, 'rescaleHeight': False, 'trialN': 73, 'loaded': True, 'loadedTime': 2119.300000011921, 'positionName': 'LEFT', 'positionCoords': [511.6, 335], 'bid': 3.36}, {'imgObject': {}, 'id': 'raspberries', 'src': '/static/foodstim60/raspberries.jpg', 'key': 'i', 'origWidth': 411, 'origHeight': 411, 'width': 411, 'height': 411, 'widthPercent': 0.45, 'rescaleHeight': False, 'trialN': 73, 'loaded': True, 'loadedTime': 1944.6000000238419, 'positionName': 'RIGHT', 'positionCoords': [998.4, 334.5], 'bid': 7}]",127547.60000002384,1669832052848,fried eggs,raspberries,3.36,7.0,3.64,raspberries,1190.6000000238419,1191,1190.8999999761581,True,i,129250.5,1702.8999999761581,1669832054551,1703,HRV,HRV_0186,2022-11-30 18:17:27
74,"[{'imgObject': {}, 'id': 'chicken nuggets2', 'src': '/static/foodstim60/chicken nuggets2.jpg', 'key': 'u', 'origWidth': 410, 'origHeight': 409, 'width': 410, 'height': 409, 'widthPercent': 0.45, 'rescaleHeight': False, 'trialN': 74, 'loaded': True, 'loadedTime': 2077.400000035763, 'positionName': 'LEFT', 'positionCoords': [511.6, 335.5], 'bid': 7.59}, {'imgObject': {}, 'id': 'sweetpotato', 'src': '/static/foodstim60/sweetpotato.jpg', 'key': 'i', 'origWidth': 410, 'origHeight': 410, 'width': 410, 'height': 410, 'widthPercent': 0.45, 'rescaleHeight': False, 'trialN': 74, 'loaded': True, 'loadedTime': 2148.7000000476837, 'positionName': 'RIGHT', 'positionCoords': [998.4, 335], 'bid': 6.71}]",129250.60000002384,1669832054551,chicken nuggets2,sweetpotato,7.59,6.71,-0.8799999999999999,sweetpotato,1272.0,1272,1272.199999988079,True,i,131041.70000004768,1791.1000000238419,1669832056342,1791,HRV,HRV_0186,2022-11-30 18:17:27
75,"[{'imgObject': {}, 'id': 'eggs', 'src': '/static/foodstim60/eggs.jpg', 'key': 'u', 'origWidth': 409, 'origHeight': 409, 'width': 409, 'height': 409, 'widthPercent': 0.45, 'rescaleHeight': False, 'trialN': 75, 'loaded': True, 'loadedTime': 2164.100000023842, 'positionName': 'LEFT', 'positionCoords': [512.6, 335.5], 'bid': 1.88}, {'imgObject': {}, 'id': 'bagel plain', 'src': '/static/foodstim60/bagel plain.jpg', 'key': 'i', 'origWidth': 410, 'origHeight': 410, 'width': 410, 'height': 410, 'widthPercent': 0.45, 'rescaleHeight': False, 'trialN': 75, 'loaded': True, 'loadedTime': 2113.900000035763, 'positionName': 'RIGHT', 'positionCoords': [998.4, 335], 'bid': 4.96}]",131041.80000001192,1669832056342,eggs,bagel plain,1.88,4.96,3.08,bagel plain,1096.4000000357628,1097,1096.699999988079,True,i,132654.80000001192,1613.0,1669832057955,1613,HRV,HRV_0186,2022-11-30 18:17:27
76,"[{'imgObject': {}, 'id': 'chicken nuggets2', 'src': '/static/foodstim60/chicken nuggets2.jpg', 'key': 'u', 'origWidth': 410, 'origHeight': 409, 'width': 410, 'height': 409, 'widthPercent': 0.45, 'rescaleHeight': False, 'trialN': 76, 'loaded': True, 'loadedTime': 2077.300000011921, 'positionName': 'LEFT', 'positionCoords': [511.6, 335.5], 'bid': 7.59}, {'imgObject': {}, 'id': 'salmon', 'src': '/static/foodstim60/salmon.jpg', 'key': 'i', 'origWidth': 410, 'origHeight': 409, 'width': 410, 'height': 409, 'widthPercent': 0.45, 'rescaleHeight': False, 'trialN': 76, 'loaded': True, 'loadedTime': 2027.5, 'positionName': 'RIGHT', 'positionCoords': [998.4, 335.5], 'bid': 7.54}]",132655.0,1669832057955,chicken nuggets2,salmon,7.59,7.54,-0.04999999999999982,salmon,1677.1000000238419,1678,1677.300000011921,True,i,134840.5,2185.5,1669832060141,2186,HRV,HRV_0186,2022-11-30 18:17:27
77,"[{'imgObject': {}, 'id': 'baked potato', 'src': '/static/foodstim60/baked potato.jpg', 'key': 'u', 'origWidth': 409, 'origHeight': 410, 'width': 409, 'height': 410, 'widthPercent': 0.45, 'rescaleHeight': False, 'trialN': 77, 'loaded': True, 'loadedTime': 2001.1000000238419, 'positionName': 'LEFT', 'positionCoords': [512.6, 335], 'bid': 6.28}, {'imgObject': {}, 'id': 'burger', 'src': '/static/foodstim60/burger.jpg', 'key': 'i', 'origWidth': 409, 'origHeight': 409, 'width': 409, 'height': 409, 'widthPercent': 0.45, 'rescaleHeight': False, 'trialN': 77, 'loaded': True, 'loadedTime': 2109.100000023842, 'positionName': 'RIGHT', 'positionCoords': [998.4, 335.5], 'bid': 5.28}]",134840.70000004768,1669832060141,baked potato,burger,6.28,5.28,-1.0,burger,1593.5999999642372,1594,1593.8999999761581,True,i,136957.0,2116.2999999523163,1669832062257,2116,HRV,HRV_0186,2022-11-30 18:17:27
78,"[{'imgObject': {}, 'id': 'cocktailshrimp', 'src': '/static/foodstim60/cocktailshrimp.jpg', 'key': 'u', 'origWidth': 410, 'origHeight': 410, 'width': 410, 'height': 410, 'widthPercent': 0.45, 'rescaleHeight': False, 'trialN': 78, 'loaded': True, 'loadedTime': 2118.100000023842, 'positionName': 'LEFT', 'positionCoords': [511.6, 335], 'bid': 5.91}, {'imgObject': {}, 'id': 'shreddedwheatwithmilk', 'src': '/static/foodstim60/shreddedwheatwithmilk.jpg', 'key': 'i', 'origWidth': 410, 'origHeight': 410, 'width': 410, 'height': 410, 'widthPercent': 0.45, 'rescaleHeight': False, 'trialN': 78, 'loaded': True, 'loadedTime': 2115.5, 'positionName': 'RIGHT', 'positionCoords': [998.4, 335], 'bid': 1.68}]",136957.10000002384,1669832062257,cocktailshrimp,shreddedwheatwithmilk,5.91,1.68,-4.23,cocktailshrimp,1005.1999999880791,1006,1005.5,True,u,138478.40000003576,1521.300000011921,1669832063779,1522,HRV,HRV_0186,2022-11-30 18:17:27
79,"[{'imgObject': {}, 'id': 'grilled chicken strips', 'src': '/static/foodstim60/grilled chicken strips.jpg', 'key': 'u', 'origWidth': 410, 'origHeight': 411, 'width': 410, 'height': 411, 'widthPercent': 0.45, 'rescaleHeight': False, 'trialN': 79, 'loaded': True, 'loadedTime': 2165.800000011921, 'positionName': 'LEFT', 'positionCoords': [511.6, 334.5], 'bid': 6.19}, {'imgObject': {}, 'id': 'froot loops w milk', 'src': '/static/foodstim60/froot loops w milk.jpg', 'key': 'i', 'origWidth': 410, 'origHeight': 410, 'width': 410, 'height': 410, 'widthPercent': 0.45, 'rescaleHeight': False, 'trialN': 79, 'loaded': True, 'loadedTime': 2025.7000000476837, 'positionName': 'RIGHT', 'positionCoords': [998.4, 335], 'bid': 2.38}]",138478.70000004768,1669832063779,grilled chicken strips,froot loops w milk,6.19,2.38,-3.8100000000000005,grilled chicken strips,1291.699999988079,1292,1291.8999999761581,True,u,140281.30000001192,1802.5999999642372,1669832065582,1803,HRV,HRV_0186,2022-11-30 18:17:27
80,"[{'imgObject': {}, 'id': 'turkey sandwich', 'src': '/static/foodstim60/turkey sandwich.jpg', 'key': 'u', 'origWidth': 409, 'origHeight': 409, 'width': 409, 'height': 409, 'widthPercent': 0.45, 'rescaleHeight': False, 'trialN': 80, 'loaded': True, 'loadedTime': 2067, 'positionName': 'LEFT', 'positionCoords': [512.6, 335.5], 'bid': 4.92}, {'imgObject': {}, 'id': 'turkeysandwich', 'src': '/static/foodstim60/turkeysandwich.jpg', 'key': 'i', 'origWidth': 409, 'origHeight': 409, 'width': 409, 'height': 409, 'widthPercent': 0.45, 'rescaleHeight': False, 'trialN': 80, 'loaded': True, 'loadedTime': 1989.6000000238419, 'positionName': 'RIGHT', 'positionCoords': [998.4, 335.5], 'bid': 4.93}]",140281.5,1669832065582,turkey sandwich,turkeysandwich,4.92,4.93,0.009999999999999787,turkey sandwich,1337.2000000476837,1337,1337.300000011921,True,u,142131.30000001192,1849.800000011921,1669832067431,1849,HRV,HRV_0186,2022-11-30 18:17:27
81,"[{'imgObject': {}, 'id': 'cheerios', 'src': '/static/foodstim60/cheerios.jpg', 'key': 'u', 'origWidth': 409, 'origHeight': 410, 'width': 409, 'height': 410, 'widthPercent': 0.45, 'rescaleHeight': False, 'trialN': 81, 'loaded': True, 'loadedTime': 2143.7000000476837, 'positionName': 'LEFT', 'positionCoords': [512.6, 335], 'bid': 4.98}, {'imgObject': {}, 'id': 'mashed potato', 'src': '/static/foodstim60/mashed potato.jpg', 'key': 'i', 'origWidth': 409, 'origHeight': 409, 'width': 409, 'height': 409, 'widthPercent': 0.45, 'rescaleHeight': False, 'trialN': 81, 'loaded': True, 'loadedTime': 2140.800000011921, 'positionName': 'RIGHT', 'positionCoords': [998.4, 335.5], 'bid': 5.28}]",142131.5,1669832067432,cheerios,mashed potato,4.98,5.28,0.2999999999999998,cheerios,1614.7000000476837,1615,1614.9000000357628,True,u,144255.90000003576,2124.400000035763,1669832069556,2124,HRV,HRV_0186,2022-11-30 18:17:27
82,"[{'imgObject': {}, 'id': 'luckycharms', 'src': '/static/foodstim60/luckycharms.jpg', 'key': 'u', 'origWidth': 410, 'origHeight': 409, 'width': 410, 'height': 409, 'widthPercent': 0.45, 'rescaleHeight': False, 'trialN': 82, 'loaded': True, 'loadedTime': 2093.900000035763, 'positionName': 'LEFT', 'positionCoords': [511.6, 335.5], 'bid': 2.45}, {'imgObject': {}, 'id': 'baked potato', 'src': '/static/foodstim60/baked potato.jpg', 'key': 'i', 'origWidth': 409, 'origHeight': 410, 'width': 409, 'height': 410, 'widthPercent': 0.45, 'rescaleHeight': False, 'trialN': 82, 'loaded': True, 'loadedTime': 2000.7000000476837, 'positionName': 'RIGHT', 'positionCoords': [998.4, 335], 'bid': 6.28}]",144255.90000003576,1669832069556,luckycharms,baked potato,2.45,6.28,3.83,baked potato,1106.300000011921,1107,1106.5,True,i,145878.60000002384,1622.699999988079,1669832071179,1623,HRV,HRV_0186,2022-11-30 18:17:27
83,"[{'imgObject': {}, 'id': 'fried eggs', 'src': '/static/foodstim60/fried eggs.jpg', 'key': 'u', 'origWidth': 410, 'origHeight': 410, 'width': 410, 'height': 410, 'widthPercent': 0.45, 'rescaleHeight': False, 'trialN': 83, 'loaded': True, 'loadedTime': 2120.100000023842, 'positionName': 'LEFT', 'positionCoords': [511.6, 335], 'bid': 3.36}, {'imgObject': {}, 'id': 'omelette', 'src': '/static/foodstim60/omelette.jpg', 'key': 'i', 'origWidth': 410, 'origHeight': 409, 'width': 410, 'height': 409, 'widthPercent': 0.45, 'rescaleHeight': False, 'trialN': 83, 'loaded': True, 'loadedTime': 2101.900000035763, 'positionName': 'RIGHT', 'positionCoords': [998.4, 335.5], 'bid': 5.08}]",145878.70000004768,1669832071179,fried eggs,omelette,3.36,5.08,1.7200000000000002,omelette,1499.5999999642372,1500,1499.7999999523163,True,i,147891.60000002384,2012.8999999761581,1669832073192,2013,HRV,HRV_0186,2022-11-30 18:17:27
84,"[{'imgObject': {}, 'id': 'cheerios', 'src': '/static/foodstim60/cheerios.jpg', 'key': 'u', 'origWidth': 409, 'origHeight': 410, 'width': 409, 'height': 410, 'widthPercent': 0.45, 'rescaleHeight': False, 'trialN': 84, 'loaded': True, 'loadedTime': 2143.600000023842, 'positionName': 'LEFT', 'positionCoords': [512.6, 335], 'bid': 4.98}, {'imgObject': {}, 'id': 'omelette', 'src': '/static/foodstim60/omelette.jpg', 'key': 'i', 'origWidth': 410, 'origHeight': 409, 'width': 410, 'height': 409, 'widthPercent': 0.45, 'rescaleHeight': False, 'trialN': 84, 'loaded': True, 'loadedTime': 2105.7000000476837, 'positionName': 'RIGHT', 'positionCoords': [998.4, 335.5], 'bid': 5.08}]",147891.80000001192,1669832073192,cheerios,omelette,4.98,5.08,0.09999999999999964,omelette,1238.4000000357628,1239,1238.6000000238419,True,i,149647.20000004768,1755.4000000357628,1669832074947,1755,HRV,HRV_0186,2022-11-30 18:17:27
85,"[{'imgObject': {}, 'id': 'cherry tomato', 'src': '/static/foodstim60/cherry tomato.jpg', 'key': 'u', 'origWidth': 410, 'origHeight': 410, 'width': 410, 'height': 410, 'widthPercent': 0.45, 'rescaleHeight': False, 'trialN': 85, 'loaded': True, 'loadedTime': 2142.600000023842, 'positionName': 'LEFT', 'positionCoords': [511.6, 335], 'bid': 0.15}, {'imgObject': {}, 'id': 'granola w milk', 'src': '/static/foodstim60/granola w milk.jpg', 'key': 'i', 'origWidth': 410, 'origHeight': 410, 'width': 410, 'height': 410, 'widthPercent': 0.45, 'rescaleHeight': False, 'trialN': 85, 'loaded': True, 'loadedTime': 2070.400000035763, 'positionName': 'RIGHT', 'positionCoords': [998.4, 335], 'bid': 4.95}]",149647.40000003576,1669832074948,cherry tomato,granola w milk,0.15,4.95,4.8,granola w milk,746.8999999761581,747,747.0999999642372,True,i,150917.20000004768,1269.800000011921,1669832076217,1269,HRV,HRV_0186,2022-11-30 18:17:27
86,"[{'imgObject': {}, 'id': 'eggsalad', 'src': '/static/foodstim60/eggsalad.jpg', 'key': 'u', 'origWidth': 410, 'origHeight': 409, 'width': 410, 'height': 409, 'widthPercent': 0.45, 'rescaleHeight': False, 'trialN': 86, 'loaded': True, 'loadedTime': 2139.600000023842, 'positionName': 'LEFT', 'positionCoords': [511.6, 335.5], 'bid': 3.5500000000000003}, {'imgObject': {}, 'id': 'eggs', 'src': '/static/foodstim60/eggs.jpg', 'key': 'i', 'origWidth': 409, 'origHeight': 409, 'width': 409, 'height': 409, 'widthPercent': 0.45, 'rescaleHeight': False, 'trialN': 86, 'loaded': True, 'loadedTime': 2163.900000035763, 'positionName': 'RIGHT', 'positionCoords': [998.4, 335.5], 'bid': 1.88}]",150917.40000003576,1669832076218,eggsalad,eggs,3.5500000000000003,1.88,-1.6700000000000004,eggs,1453.199999988079,1453,1453.5,True,i,152892.70000004768,1975.300000011921,1669832078193,1975,HRV,HRV_0186,2022-11-30 18:17:27
87,"[{'imgObject': {}, 'id': 'cantaloupe', 'src': '/static/foodstim60/cantaloupe.jpg', 'key': 'u', 'origWidth': 409, 'origHeight': 409, 'width': 409, 'height': 409, 'widthPercent': 0.45, 'rescaleHeight': False, 'trialN': 87, 'loaded': True, 'loadedTime': 2120.600000023842, 'positionName': 'LEFT', 'positionCoords': [512.6, 335.5], 'bid': 9.2}, {'imgObject': {}, 'id': 'rigatoni and sauce', 'src': '/static/foodstim60/rigatoni and sauce.jpg', 'key': 'i', 'origWidth': 410, 'origHeight': 411, 'width': 410, 'height': 411, 'widthPercent': 0.45, 'rescaleHeight': False, 'trialN': 87, 'loaded': True, 'loadedTime': 2123.5, 'positionName': 'RIGHT', 'positionCoords': [998.4, 334.5], 'bid': 7.19}]",152892.80000001192,1669832078193,cantaloupe,rigatoni and sauce,9.2,7.19,-2.009999999999999,cantaloupe,1053.5,1054,1053.699999988079,True,u,154456.5,1563.699999988079,1669832079757,1564,HRV,HRV_0186,2022-11-30 18:17:27
88,"[{'imgObject': {}, 'id': 'roastedpotatoes', 'src': '/static/foodstim60/roastedpotatoes.jpg', 'key': 'u', 'origWidth': 409, 'origHeight': 410, 'width': 409, 'height': 410, 'widthPercent': 0.45, 'rescaleHeight': False, 'trialN': 88, 'loaded': True, 'loadedTime': 2024.7000000476837, 'positionName': 'LEFT', 'positionCoords': [512.6, 335], 'bid': 8.870000000000001}, {'imgObject': {}, 'id': 'steak', 'src': '/static/foodstim60/steak.jpg', 'key': 'i', 'origWidth': 410, 'origHeight': 410, 'width': 410, 'height': 410, 'widthPercent': 0.45, 'rescaleHeight': False, 'trialN': 88, 'loaded': True, 'loadedTime': 2166.600000023842, 'positionName': 'RIGHT', 'positionCoords': [998.4, 335], 'bid': 8.69}]",154456.5,1669832079757,roastedpotatoes,steak,8.870000000000001,8.69,-0.1800000000000015,steak,721.6000000238419,722,721.8000000119209,True,i,155696.60000002384,1240.1000000238419,1669832080997,1240,HRV,HRV_0186,2022-11-30 18:17:27
89,"[{'imgObject': {}, 'id': 'burrito', 'src': '/static/foodstim60/burrito.jpg', 'key': 'u', 'origWidth': 410, 'origHeight': 410, 'width': 410, 'height': 410, 'widthPercent': 0.45, 'rescaleHeight': False, 'trialN': 89, 'loaded': True, 'loadedTime': 2118.2000000476837, 'positionName': 'LEFT', 'positionCoords': [511.6, 335], 'bid': 5.76}, {'imgObject': {}, 'id': 'mashed potato', 'src': '/static/foodstim60/mashed potato.jpg', 'key': 'i', 'origWidth': 409, 'origHeight': 409, 'width': 409, 'height': 409, 'widthPercent': 0.45, 'rescaleHeight': False, 'trialN': 89, 'loaded': True, 'loadedTime': 2141, 'positionName': 'RIGHT', 'positionCoords': [998.4, 335.5], 'bid': 5.28}]",155696.70000004768,1669832080997,burrito,mashed potato,5.76,5.28,-0.47999999999999954,burrito,1265.5,1266,1265.699999988079,True,u,157476.5,1779.7999999523163,1669832082777,1780,HRV,HRV_0186,2022-11-30 18:17:27
90,"[{'imgObject': {}, 'id': 'granola w milk', 'src': '/static/foodstim60/granola w milk.jpg', 'key': 'u', 'origWidth': 410, 'origHeight': 410, 'width': 410, 'height': 410, 'widthPercent': 0.45, 'rescaleHeight': False, 'trialN': 90, 'loaded': True, 'loadedTime': 2070.7000000476837, 'positionName': 'LEFT', 'positionCoords': [511.6, 335], 'bid': 4.95}, {'imgObject': {}, 'id': 'ice cream sundae 002', 'src': '/static/foodstim60/ice cream sundae 002.jpg', 'key': 'i', 'origWidth': 409, 'origHeight': 409, 'width': 409, 'height': 409, 'widthPercent': 0.45, 'rescaleHeight': False, 'trialN': 90, 'loaded': True, 'loadedTime': 2148.100000023842, 'positionName': 'RIGHT', 'positionCoords': [998.4, 335.5], 'bid': 4.96}]",160522.90000003576,1669832085823,granola w milk,ice cream sundae 002,4.95,4.96,0.009999999999999787,ice cream sundae 002,1623.3999999761581,1624,1623.5999999642372,True,i,162660.0,2137.099999964237,1669832087960,2137,HRV,HRV_0186,2022-11-30 18:17:27
91,"[{'imgObject': {}, 'id': 'baked potato', 'src': '/static/foodstim60/baked potato.jpg', 'key': 'u', 'origWidth': 409, 'origHeight': 410, 'width': 409, 'height': 410, 'widthPercent': 0.45, 'rescaleHeight': False, 'trialN': 91, 'loaded': True, 'loadedTime': 1997.2000000476837, 'positionName': 'LEFT', 'positionCoords': [512.6, 335], 'bid': 6.28}, {'imgObject': {}, 'id': 'sweetpotato', 'src': '/static/foodstim60/sweetpotato.jpg', 'key': 'i', 'origWidth': 410, 'origHeight': 410, 'width': 410, 'height': 410, 'widthPercent': 0.45, 'rescaleHeight': False, 'trialN': 91, 'loaded': True, 'loadedTime': 2148.7000000476837, 'positionName': 'RIGHT', 'positionCoords': [998.4, 335], 'bid': 6.71}]",162660.20000004768,1669832087960,baked potato,sweetpotato,6.28,6.71,0.4299999999999997,sweetpotato,1494.3999999761581,1495,1494.699999988079,True,i,164669.80000001192,2009.5999999642372,1669832089970,2010,HRV,HRV_0186,2022-11-30 18:17:27
92,"[{'imgObject': {}, 'id': 'tacos', 'src': '/static/foodstim60/tacos.jpg', 'key': 'u', 'origWidth': 411, 'origHeight': 411, 'width': 411, 'height': 411, 'widthPercent': 0.45, 'rescaleHeight': False, 'trialN': 92, 'loaded': True, 'loadedTime': 2116.300000011921, 'positionName': 'LEFT', 'positionCoords': [510.6, 334.5], 'bid': 6.13}, {'imgObject': {}, 'id': 'eggs', 'src': '/static/foodstim60/eggs.jpg', 'key': 'i', 'origWidth': 409, 'origHeight': 409, 'width': 409, 'height': 409, 'widthPercent': 0.45, 'rescaleHeight': False, 'trialN': 92, 'loaded': True, 'loadedTime': 2164.100000023842, 'positionName': 'RIGHT', 'positionCoords': [998.4, 335.5], 'bid': 1.88}]",164669.80000001192,1669832089970,tacos,eggs,6.13,1.88,-4.25,tacos,1748.5,1749,1748.800000011921,True,u,166939.30000001192,2269.5,1669832092239,2269,HRV,HRV_0186,2022-11-30 18:17:27
93,"[{'imgObject': {}, 'id': 'turkey sandwich', 'src': '/static/foodstim60/turkey sandwich.jpg', 'key': 'u', 'origWidth': 409, 'origHeight': 409, 'width': 409, 'height': 409, 'widthPercent': 0.45, 'rescaleHeight': False, 'trialN': 93, 'loaded': True, 'loadedTime': 2066.7000000476837, 'positionName': 'LEFT', 'positionCoords': [512.6, 335.5], 'bid': 4.92}, {'imgObject': {}, 'id': 'shreddedwheatwithmilk', 'src': '/static/foodstim60/shreddedwheatwithmilk.jpg', 'key': 'i', 'origWidth': 410, 'origHeight': 410, 'width': 410, 'height': 410, 'widthPercent': 0.45, 'rescaleHeight': False, 'trialN': 93, 'loaded': True, 'loadedTime': 2115, 'positionName': 'RIGHT', 'positionCoords': [998.4, 335], 'bid': 1.68}]",166939.60000002384,1669832092240,turkey sandwich,shreddedwheatwithmilk,4.92,1.68,-3.24,turkey sandwich,1038.699999988079,1039,1038.800000011921,True,u,168493.80000001192,1554.199999988079,1669832093794,1554,HRV,HRV_0186,2022-11-30 18:17:27
94,"[{'imgObject': {}, 'id': 'mango', 'src': '/static/foodstim60/mango.jpg', 'key': 'u', 'origWidth': 411, 'origHeight': 411, 'width': 411, 'height': 411, 'widthPercent': 0.45, 'rescaleHeight': False, 'trialN': 94, 'loaded': True, 'loadedTime': 2032.5, 'positionName': 'LEFT', 'positionCoords': [510.6, 334.5], 'bid': 8.35}, {'imgObject': {}, 'id': 'apple slices', 'src': '/static/foodstim60/apple slices.jpg', 'key': 'i', 'origWidth': 409, 'origHeight': 410, 'width': 409, 'height': 410, 'widthPercent': 0.45, 'rescaleHeight': False, 'trialN': 94, 'loaded': True, 'loadedTime': 1986.6000000238419, 'positionName': 'RIGHT', 'positionCoords': [998.4, 335], 'bid': 7.66}]",168494.0,1669832093794,mango,apple slices,8.35,7.66,-0.6899999999999995,mango,1308.2000000476837,1309,1308.4000000357628,True,u,170325.30000001192,1831.300000011921,1669832095625,1831,HRV,HRV_0186,2022-11-30 18:17:27
95,"[{'imgObject': {}, 'id': 'cantaloupe', 'src': '/static/foodstim60/cantaloupe.jpg', 'key': 'u', 'origWidth': 409, 'origHeight': 409, 'width': 409, 'height': 409, 'widthPercent': 0.45, 'rescaleHeight': False, 'trialN': 95, 'loaded': True, 'loadedTime': 2120.7000000476837, 'positionName': 'LEFT', 'positionCoords': [512.6, 335.5], 'bid': 9.2}, {'imgObject': {}, 'id': 'corn cob', 'src': '/static/foodstim60/corn cob.jpg', 'key': 'i', 'origWidth': 411, 'origHeight': 411, 'width': 411, 'height': 411, 'widthPercent': 0.45, 'rescaleHeight': False, 'trialN': 95, 'loaded': True, 'loadedTime': 2099.7000000476837, 'positionName': 'RIGHT', 'positionCoords': [998.4, 334.5], 'bid': 9.98}]",170325.5,1669832095626,cantaloupe,corn cob,9.2,9.98,0.7800000000000011,corn cob,886.2000000476837,886,886.4000000357628,True,i,171720.20000004768,1394.7000000476837,1669832097020,1394,HRV,HRV_0186,2022-11-30 18:17:27
96,"[{'imgObject': {}, 'id': 'Grapes', 'src': '/static/foodstim60/Grapes.jpg', 'key': 'u', 'origWidth': 411, 'origHeight': 411, 'width': 411, 'height': 411, 'widthPercent': 0.45, 'rescaleHeight': False, 'trialN': 96, 'loaded': True, 'loadedTime': 2075.600000023842, 'positionName': 'LEFT', 'positionCoords': [510.6, 334.5], 'bid': 7.62}, {'imgObject': {}, 'id': 'orange slices', 'src': '/static/foodstim60/orange slices.jpg', 'key': 'i', 'origWidth': 409, 'origHeight': 410, 'width': 409, 'height': 410, 'widthPercent': 0.45, 'rescaleHeight': False, 'trialN': 96, 'loaded': True, 'loadedTime': 2022.5, 'positionName': 'RIGHT', 'positionCoords': [998.4, 335], 'bid': 7.59}]",171720.40000003576,1669832097021,Grapes,orange slices,7.62,7.59,-0.03000000000000025,Grapes,1201.8999999761581,1202,1202.0999999642372,True,u,173442.90000003576,1722.5,1669832098743,1722,HRV,HRV_0186,2022-11-30 18:17:27
97,"[{'imgObject': {}, 'id': 'mac & cheese', 'src': '/static/foodstim60/mac & cheese.jpg', 'key': 'u', 'origWidth': 410, 'origHeight': 410, 'width': 410, 'height': 410, 'widthPercent': 0.45, 'rescaleHeight': False, 'trialN': 97, 'loaded': True, 'loadedTime': 2057.300000011921, 'positionName': 'LEFT', 'positionCoords': [511.6, 335], 'bid': 5.59}, {'imgObject': {}, 'id': 'orange slices', 'src': '/static/foodstim60/orange slices.jpg', 'key': 'i', 'origWidth': 409, 'origHeight': 410, 'width': 409, 'height': 410, 'widthPercent': 0.45, 'rescaleHeight': False, 'trialN': 97, 'loaded': True, 'loadedTime': 2023, 'positionName': 'RIGHT', 'positionCoords': [998.4, 335], 'bid': 7.59}]",173443.20000004768,1669832098744,mac & cheese,orange slices,5.59,7.59,2.0,mac & cheese,887.3999999761581,887,887.5999999642372,True,u,174846.0,1402.7999999523163,1669832100146,1402,HRV,HRV_0186,2022-11-30 18:17:27
98,"[{'imgObject': {}, 'id': 'strawberries', 'src': '/static/foodstim60/strawberries.jpg', 'key': 'u', 'origWidth': 410, 'origHeight': 410, 'width': 410, 'height': 410, 'widthPercent': 0.45, 'rescaleHeight': False, 'trialN': 98, 'loaded': True, 'loadedTime': 2036.5, 'positionName': 'LEFT', 'positionCoords': [511.6, 335], 'bid': 8.4}, {'imgObject': {}, 'id': 'steak', 'src': '/static/foodstim60/steak.jpg', 'key': 'i', 'origWidth': 410, 'origHeight': 410, 'width': 410, 'height': 410, 'widthPercent': 0.45, 'rescaleHeight': False, 'trialN': 98, 'loaded': True, 'loadedTime': 2167.400000035763, 'positionName': 'RIGHT', 'positionCoords': [998.4, 335], 'bid': 8.69}]",174846.10000002384,1669832100147,strawberries,steak,8.4,8.69,0.28999999999999915,steak,692.1999999880791,692,692.3999999761581,True,i,176053.5,1207.3999999761581,1669832101354,1207,HRV,HRV_0186,2022-11-30 18:17:27
99,"[{'imgObject': {}, 'id': 'roastedpotatoes', 'src': '/static/foodstim60/roastedpotatoes.jpg', 'key': 'u', 'origWidth': 409, 'origHeight': 410, 'width': 409, 'height': 410, 'widthPercent': 0.45, 'rescaleHeight': False, 'trialN': 99, 'loaded': True, 'loadedTime': 2024.5, 'positionName': 'LEFT', 'positionCoords': [512.6, 335], 'bid': 8.870000000000001}, {'imgObject': {}, 'id': 'chicken nuggets2', 'src': '/static/foodstim60/chicken nuggets2.jpg', 'key': 'i', 'origWidth': 410, 'origHeight': 409, 'width': 410, 'height': 409, 'widthPercent': 0.45, 'rescaleHeight': False, 'trialN': 99, 'loaded': True, 'loadedTime': 2077.2000000476837, 'positionName': 'RIGHT', 'positionCoords': [998.4, 335.5], 'bid': 7.59}]",176053.60000002384,1669832101354,roastedpotatoes,chicken nuggets2,8.870000000000001,7.59,-1.2800000000000011,roastedpotatoes,1052.6000000238419,1053,1052.800000011921,True,u,177616.5,1562.8999999761581,1669832102917,1563,HRV,HRV_0186,2022-11-30 18:17:27
100,"[{'imgObject': {}, 'id': 'salad w chicken', 'src': '/static/foodstim60/salad w chicken.jpg', 'key': 'u', 'origWidth': 411, 'origHeight': 411, 'width': 411, 'height': 411, 'widthPercent': 0.45, 'rescaleHeight': False, 'trialN': 100, 'loaded': True, 'loadedTime': 2068, 'positionName': 'LEFT', 'positionCoords': [510.6, 334.5], 'bid': 5.55}, {'imgObject': {}, 'id': 'cherries', 'src': '/static/foodstim60/cherries.jpg', 'key': 'i', 'origWidth': 410, 'origHeight': 411, 'width': 410, 'height': 411, 'widthPercent': 0.45, 'rescaleHeight': False, 'trialN': 100, 'loaded': True, 'loadedTime': 2164.900000035763, 'positionName': 'RIGHT', 'positionCoords': [998.4, 334.5], 'bid': 10}]",177616.70000004768,1669832102917,salad w chicken,cherries,5.55,10.0,4.45,cherries,681.7999999523163,682,682.0,True,i,178811.70000004768,1195.0,1669832104112,1195,HRV,HRV_0186,2022-11-30 18:17:27
101,"[{'imgObject': {}, 'id': 'tacos', 'src': '/static/foodstim60/tacos.jpg', 'key': 'u', 'origWidth': 411, 'origHeight': 411, 'width': 411, 'height': 411, 'widthPercent': 0.45, 'rescaleHeight': False, 'trialN': 101, 'loaded': True, 'loadedTime': 2115.600000023842, 'positionName': 'LEFT', 'positionCoords': [510.6, 334.5], 'bid': 6.13}, {'imgObject': {}, 'id': 'yogurt no spoon', 'src': '/static/foodstim60/yogurt no spoon.jpg', 'key': 'i', 'origWidth': 411, 'origHeight': 410, 'width': 411, 'height': 410, 'widthPercent': 0.45, 'rescaleHeight': False, 'trialN': 101, 'loaded': True, 'loadedTime': 1988.9000000357628, 'positionName': 'RIGHT', 'positionCoords': [998.4, 335], 'bid': 5.9}]",178811.80000001192,1669832104112,tacos,yogurt no spoon,6.13,5.9,-0.22999999999999954,yogurt no spoon,1134.6000000238419,1135,1134.699999988079,True,i,180468.10000002384,1656.300000011921,1669832105769,1657,HRV,HRV_0186,2022-11-30 18:17:27
102,"[{'imgObject': {}, 'id': 'steak', 'src': '/static/foodstim60/steak.jpg', 'key': 'u', 'origWidth': 410, 'origHeight': 410, 'width': 410, 'height': 410, 'widthPercent': 0.45, 'rescaleHeight': False, 'trialN': 102, 'loaded': True, 'loadedTime': 2167.5, 'positionName': 'LEFT', 'positionCoords': [511.6, 335], 'bid': 8.69}, {'imgObject': {}, 'id': 'apple slices', 'src': '/static/foodstim60/apple slices.jpg', 'key': 'i', 'origWidth': 409, 'origHeight': 410, 'width': 409, 'height': 410, 'widthPercent': 0.45, 'rescaleHeight': False, 'trialN': 102, 'loaded': True, 'loadedTime': 1986.1000000238419, 'positionName': 'RIGHT', 'positionCoords': [998.4, 335], 'bid': 7.66}]",180468.20000004768,1669832105769,steak,apple slices,8.69,7.66,-1.0299999999999994,steak,1150.0,1150,1150.199999988079,True,u,182138.90000003576,1670.699999988079,1669832107439,1670,HRV,HRV_0186,2022-11-30 18:17:27
103,"[{'imgObject': {}, 'id': 'seaweed', 'src': '/static/foodstim60/seaweed.jpg', 'key': 'u', 'origWidth': 410, 'origHeight': 410, 'width': 410, 'height': 410, 'widthPercent': 0.45, 'rescaleHeight': False, 'trialN': 103, 'loaded': True, 'loadedTime': 2072.600000023842, 'positionName': 'LEFT', 'positionCoords': [511.6, 335], 'bid': 2.57}, {'imgObject': {}, 'id': 'popsicles', 'src': '/static/foodstim60/popsicles.jpg', 'key': 'i', 'origWidth': 410, 'origHeight': 410, 'width': 410, 'height': 410, 'widthPercent': 0.45, 'rescaleHeight': False, 'trialN': 103, 'loaded': True, 'loadedTime': 2165.900000035763, 'positionName': 'RIGHT', 'positionCoords': [998.4, 335], 'bid': 6.7}]",182139.0,1669832107439,seaweed,popsicles,2.57,6.7,4.130000000000001,popsicles,1215.4000000357628,1216,1215.6000000238419,True,i,183874.5,1735.5,1669832109175,1736,HRV,HRV_0186,2022-11-30 18:17:27
104,"[{'imgObject': {}, 'id': 'lox', 'src': '/static/foodstim60/lox.jpg', 'key': 'u', 'origWidth': 410, 'origHeight': 411, 'width': 410, 'height': 411, 'widthPercent': 0.45, 'rescaleHeight': False, 'trialN': 104, 'loaded': True, 'loadedTime': 2146.600000023842, 'positionName': 'LEFT', 'positionCoords': [511.6, 334.5], 'bid': 2.63}, {'imgObject': {}, 'id': 'cherry tomato', 'src': '/static/foodstim60/cherry tomato.jpg', 'key': 'i', 'origWidth': 410, 'origHeight': 410, 'width': 410, 'height': 410, 'widthPercent': 0.45, 'rescaleHeight': False, 'trialN': 104, 'loaded': True, 'loadedTime': 2142.7000000476837, 'positionName': 'RIGHT', 'positionCoords': [998.4, 335], 'bid': 0.15}]",183874.60000002384,1669832109175,lox,cherry tomato,2.63,0.15,-2.48,lox,1840.0,1840,1840.199999988079,True,u,186232.20000004768,2357.600000023842,1669832111533,2358,HRV,HRV_0186,2022-11-30 18:17:27
105,"[{'imgObject': {}, 'id': 'cantaloupe', 'src': '/static/foodstim60/cantaloupe.jpg', 'key': 'u', 'origWidth': 409, 'origHeight': 409, 'width': 409, 'height': 409, 'widthPercent': 0.45, 'rescaleHeight': False, 'trialN': 105, 'loaded': True, 'loadedTime': 2120.800000011921, 'positionName': 'LEFT', 'positionCoords': [512.6, 335.5], 'bid': 9.2}, {'imgObject': {}, 'id': 'mashed potato', 'src': '/static/foodstim60/mashed potato.jpg', 'key': 'i', 'origWidth': 409, 'origHeight': 409, 'width': 409, 'height': 409, 'widthPercent': 0.45, 'rescaleHeight': False, 'trialN': 105, 'loaded': True, 'loadedTime': 2141.100000023842, 'positionName': 'RIGHT', 'positionCoords': [998.4, 335.5], 'bid': 5.28}]",186232.40000003576,1669832111533,cantaloupe,mashed potato,9.2,5.28,-3.919999999999999,cantaloupe,1089.8999999761581,1090,1090.199999988079,True,u,187832.20000004768,1599.800000011921,1669832113133,1600,HRV,HRV_0186,2022-11-30 18:17:27
106,"[{'imgObject': {}, 'id': 'mashed potato', 'src': '/static/foodstim60/mashed potato.jpg', 'key': 'u', 'origWidth': 409, 'origHeight': 409, 'width': 409, 'height': 409, 'widthPercent': 0.45, 'rescaleHeight': False, 'trialN': 106, 'loaded': True, 'loadedTime': 2141.100000023842, 'positionName': 'LEFT', 'positionCoords': [512.6, 335.5], 'bid': 5.28}, {'imgObject': {}, 'id': 'burger', 'src': '/static/foodstim60/burger.jpg', 'key': 'i', 'origWidth': 409, 'origHeight': 409, 'width': 409, 'height': 409, 'widthPercent': 0.45, 'rescaleHeight': False, 'trialN': 106, 'loaded': True, 'loadedTime': 2109.100000023842, 'positionName': 'RIGHT', 'positionCoords': [998.4, 335.5], 'bid': 5.28}]",187832.30000001192,1669832113133,mashed potato,burger,5.28,5.28,0.0,burger,1626.1000000238419,1626,1626.300000011921,True,i,189975.40000003576,2143.100000023842,1669832115276,2143,HRV,HRV_0186,2022-11-30 18:17:27
107,"[{'imgObject': {}, 'id': 'olives', 'src': '/static/foodstim60/olives.jpg', 'key': 'u', 'origWidth': 410, 'origHeight': 410, 'width': 410, 'height': 410, 'widthPercent': 0.45, 'rescaleHeight': False, 'trialN': 107, 'loaded': True, 'loadedTime': 2003.800000011921, 'positionName': 'LEFT', 'positionCoords': [511.6, 335], 'bid': 0.07}, {'imgObject': {}, 'id': 'raisin bran w milk', 'src': '/static/foodstim60/raisin bran w milk.jpg', 'key': 'i', 'origWidth': 411, 'origHeight': 411, 'width': 411, 'height': 411, 'widthPercent': 0.45, 'rescaleHeight': False, 'trialN': 107, 'loaded': True, 'loadedTime': 2141.800000011921, 'positionName': 'RIGHT', 'positionCoords': [998.4, 334.5], 'bid': 4.94}]",189975.70000004768,1669832115276,olives,raisin bran w milk,0.07,4.94,4.87,raisin bran w milk,1154.5999999642372,1155,1154.8999999761581,True,i,191650.30000001192,1674.5999999642372,1669832116951,1675,HRV,HRV_0186,2022-11-30 18:17:27
108,"[{'imgObject': {}, 'id': 'banana', 'src': '/static/foodstim60/banana.jpg', 'key': 'u', 'origWidth': 410, 'origHeight': 410, 'width': 410, 'height': 410, 'widthPercent': 0.45, 'rescaleHeight': False, 'trialN': 108, 'loaded': True, 'loadedTime': 2111.600000023842, 'positionName': 'LEFT', 'positionCoords': [511.6, 335], 'bid': 7.21}, {'imgObject': {}, 'id': 'strawberries', 'src': '/static/foodstim60/strawberries.jpg', 'key': 'i', 'origWidth': 410, 'origHeight': 410, 'width': 410, 'height': 410, 'widthPercent': 0.45, 'rescaleHeight': False, 'trialN': 108, 'loaded': True, 'loadedTime': 2036.300000011921, 'positionName': 'RIGHT', 'positionCoords': [998.4, 335], 'bid': 8.4}]",191650.40000003576,1669832116951,banana,strawberries,7.21,8.4,1.1900000000000004,strawberries,1343.800000011921,1344,1344.0999999642372,True,i,193513.10000002384,1862.699999988079,1669832118814,1863,HRV,HRV_0186,2022-11-30 18:17:27
