success,trial_type,trial_index,time_elapsed,internal_node_id,Block,TrialNumber,TrialTime,trialTimeDiff,FPS_avg,FPS_med,FPS_mode,TrialDur,winResizeTime,rt,block,button_pressed,MotCoh,MotDir,ColCoh,Color,ChoiceKey,Choice,Accuracy,RT,nFrames,FPS,PPD,missTrial,missTrialMsg,onsetDelay,fullScreenExitTime,canvCenter,TrialType,Score,BlockTrial,stimulus,button_labels,exp,subjectId,date
True,fullscreen,0,1458,0.0-0.0,0.0,1.0,,,,,,,,,,,,,,,,,,,,,,,,,,,,,,,,HRV,HRV_0186,2022-11-30 18:39:51
,wl-check-fps,1,6496,0.0-1.0,0.0,2.0,"[2221.7, 2237.9, 2254.5, 2271.4, 2288.1, 2304.7, 2321.1, 2337.9, 2355.3, 2387.9, 2388.5, 2413.7, 2438, 2462.5, 2486.8, 2488.5, 2512.6, 2543.7, 2555.1, 2583.7, 2598.5, 2604.6, 2621.3, 2638, 2654.6, 2671.2, 2687.8, 2704.4, 2721.2, 2738, 2754.6, 2772.2, 2787.9, 2804.9, 2821.2, 2838.1, 2854.6, 2871.3, 2888, 2904.7, 2921.2, 2938, 2954.6, 2971.3, 2988, 3004.5, 3021.3, 3038, 3054.9, 3071.2, 3088, 3104.6, 3122.1, 3138, 3154.6, 3171.2, 3187.9, 3204.5, 3221.2, 3237.9, 3254.7, 3271.2, 3288, 3304.6, 3321.3, 3338.3, 3354.8, 3371.3, 3388, 3404.7, 3421.2, 3438.1, 3454.5, 3471.5, 3488, 3504.8, 3521.2, 3538, 3554.5, 3571.3, 3588.1, 3604.8, 3621.2, 3638, 3654.7, 3671.2, 3688.1, 3704.6, 3721.2, 3738.1, 3754.8, 3771.8, 3788.1, 3804.5, 3821.3, 3838, 3854.7, 3871.2, 3887.8, 3904.6, 3921.2, 3937.9, 3954.5, 3971.2, 3987.9, 4004.4, 4021.2, 4038, 4054.5, 4071.2, 4087.9, 4104.8, 4121.3, 4138, 4154.6, 4171.3, 4188.1, 4204.7, 4221.4, 4238.1, 4254.8, 4271.3, 4288.1, 4304.7, 4321.4, 4338, 4354.8, 4371.3, 4388.1, 4404.6, 4421.4, 4438.1, 4454.7, 4471.3, 4487.9, 4504.7, 4521.5, 4538, 4554.6, 4571.2, 4588, 4604.6, 4621.4, 4638.1, 4654.6, 4671.7, 4688, 4704.9, 4721.3, 4738.2, 4754.6, 4771.8, 4787.9, 4804.7, 4821.1, 4837.9, 4854.6, 4871.4, 4888.1, 4904.7, 4921.4, 4938, 4954.6, 4971.3, 4987.9, 5004.6, 5021.2, 5037.9, 5054.5, 5071.2, 5087.9, 5104.6, 5121.1, 5137.9, 5154.6, 5171.3, 5187.9, 5204.6, 5221.3, 5237.9, 5254.5, 5271.2, 5288, 5304.7, 5321.2, 5337.9, 5354.7, 5371.4, 5388, 5404.6, 5421.2, 5437.9, 5454.6, 5471.3, 5487.9, 5504.7, 5521.2, 5537.8, 5554.6, 5571.1, 5587.9, 5604.7, 5621.2, 5638, 5654.6, 5671.4, 5688, 5704.5, 5721.3, 5738, 5754.7, 5771.2, 5787.9, 5804.7, 5821.3, 5837.9, 5854.7, 5871.4, 5888, 5904.9, 5921.4, 5938.1, 5954.6, 5971.3, 5987.9, 6004.6, 6021.4, 6037.9, 6054.6, 6071.3, 6088, 6104.7, 6121.4, 6137.9, 6154.6, 6171.3, 6188, 6204.7, 6221.3, 6237.9, 6254.6, 6271.3, 6288, 6304.5, 6321.3, 6337.9, 6354.6, 6371.2, 6388, 6404.7, 6421.4, 6438, 6454.7, 6471.3, 6488, 6504.5, 6521.2, 6538, 6554.6, 6571.2, 6588, 6604.6, 6621.2, 6638.1, 6654.6, 6671.3, 6688, 6704.5, 6721.2, 6738, 6754.6, 6771.2, 6788, 6804.6, 6821.2, 6837.8, 6854.6, 6871.2, 6887.9, 6904.6, 6921.4, 6938, 6954.8, 6971.3, 6988, 7004.7, 7021.3, 7038, 7054.5, 7071.3, 7087.9, 7104.5, 7121.3, 7137.9, 7154.6, 7171.3, 7187.9, 7204.6, 7221.3, 7237.9]","[3.4, 16.2, 16.6, 16.9, 16.7, 16.6, 16.4, 16.8, 17.4, 32.6, 0.6, 25.2, 24.3, 24.5, 24.3, 1.7, 24.1, 31.1, 11.4, 28.6, 14.8, 6.1, 16.7, 16.7, 16.6, 16.6, 16.6, 16.6, 16.8, 16.8, 16.6, 17.6, 15.7, 17, 16.3, 16.9, 16.5, 16.7, 16.7, 16.7, 16.5, 16.8, 16.6, 16.7, 16.7, 16.5, 16.8, 16.7, 16.9, 16.3, 16.8, 16.6, 17.5, 15.9, 16.6, 16.6, 16.7, 16.6, 16.7, 16.7, 16.8, 16.5, 16.8, 16.6, 16.7, 17, 16.5, 16.5, 16.7, 16.7, 16.5, 16.9, 16.4, 17, 16.5, 16.8, 16.4, 16.8, 16.5, 16.8, 16.8, 16.7, 16.4, 16.8, 16.7, 16.5, 16.9, 16.5, 16.6, 16.9, 16.7, 17, 16.3, 16.4, 16.8, 16.7, 16.7, 16.5, 16.6, 16.8, 16.6, 16.7, 16.6, 16.7, 16.7, 16.5, 16.8, 16.8, 16.5, 16.7, 16.7, 16.9, 16.5, 16.7, 16.6, 16.7, 16.8, 16.6, 16.7, 16.7, 16.7, 16.5, 16.8, 16.6, 16.7, 16.6, 16.8, 16.5, 16.8, 16.5, 16.8, 16.7, 16.6, 16.6, 16.6, 16.8, 16.8, 16.5, 16.6, 16.6, 16.8, 16.6, 16.8, 16.7, 16.5, 17.1, 16.3, 16.9, 16.4, 16.9, 16.4, 17.2, 16.1, 16.8, 16.4, 16.8, 16.7, 16.8, 16.7, 16.6, 16.7, 16.6, 16.6, 16.7, 16.6, 16.7, 16.6, 16.7, 16.6, 16.7, 16.7, 16.7, 16.5, 16.8, 16.7, 16.7, 16.6, 16.7, 16.7, 16.6, 16.6, 16.7, 16.8, 16.7, 16.5, 16.7, 16.8, 16.7, 16.6, 16.6, 16.6, 16.7, 16.7, 16.7, 16.6, 16.8, 16.5, 16.6, 16.8, 16.5, 16.8, 16.8, 16.5, 16.8, 16.6, 16.8, 16.6, 16.5, 16.8, 16.7, 16.7, 16.5, 16.7, 16.8, 16.6, 16.6, 16.8, 16.7, 16.6, 16.9, 16.5, 16.7, 16.5, 16.7, 16.6, 16.7, 16.8, 16.5, 16.7, 16.7, 16.7, 16.7, 16.7, 16.5, 16.7, 16.7, 16.7, 16.7, 16.6, 16.6, 16.7, 16.7, 16.7, 16.5, 16.8, 16.6, 16.7, 16.6, 16.8, 16.7, 16.7, 16.6, 16.7, 16.6, 16.7, 16.5, 16.7, 16.8, 16.6, 16.6, 16.8, 16.6, 16.6, 16.9, 16.5, 16.7, 16.7, 16.5, 16.7, 16.8, 16.6, 16.6, 16.8, 16.6, 16.6, 16.6, 16.8, 16.6, 16.7, 16.7, 16.8, 16.6, 16.8, 16.5, 16.7, 16.7, 16.6, 16.7, 16.5, 16.8, 16.6, 16.6, 16.8, 16.6, 16.7, 16.7, 16.6, 16.7, 16.7, 16.6]",60.0,60.0,60.0,5036.3,[],,,,,,,,,,,,,,,,,,,,,,,,,HRV,HRV_0186,2022-11-30 18:39:51
,wl-html-keyboard-response,2,16397,0.0-2.0-0.0,0.0,3.0,,,,,,,,7881.699999988079,0.0,0,,,,,,,,,,,,,,,,,,,,,,HRV,HRV_0186,2022-11-30 18:39:51
,wl-rdm,3,23413,0.0-3.0-0.0,0.0,4.0,,,,,,,[],,,,0.0,0.0,87.9,0.0,u,0.0,True,1449.5999999642372,87.0,60.0,40.0,False,,3000.0,[],"[960, 540]",ColorTask_Demo,,,,,HRV,HRV_0186,2022-11-30 18:39:51
,wl-rdm,4,28880,0.0-3.0-1.0,0.0,5.0,,,,,,,[],,,,0.0,0.0,87.9,1.0,i,1.0,True,1376.1000000238419,83.0,60.0,40.0,False,,2000.0,[],"[960, 540]",ColorTask_Demo,,,,,HRV,HRV_0186,2022-11-30 18:39:51
,wl-html-keyboard-response,5,34368,0.0-3.0-2.0,0.0,6.0,,,,,,,,3481.900000035763,0.0,1,,,,,,,,,,,,,,,,,,,,,,HRV,HRV_0186,2022-11-30 18:39:51
,wl-html-keyboard-response,6,41631,0.0-4.0-0.0,0.0,7.0,,,,,,,,5258.199999988079,0.0,0,,,,,,,,,,,,,,,,,,,,,,HRV,HRV_0186,2022-11-30 18:39:51
,wl-html-keyboard-response,7,51615,0.0-5.0-0.0,0.0,8.0,,,,,,,,7978.5,0.0,0,,,,,,,,,,,,,,,,,,,,,,HRV,HRV_0186,2022-11-30 18:39:51
,wl-rdm,8,54114,0.0-6.0-0.0,0.0,9.0,,,,,,,[],,,,,,73.6,0.0,u,0.0,True,1057.300000011921,64.0,60.0,40.0,False,,362.79152701196165,[],"[960, 540]",ColorTask,1.0,1.0,,,HRV,HRV_0186,2022-11-30 18:39:51
,wl-rdm,9,56497,0.0-6.1-0.1,0.0,10.0,,,,,,,[],,,,,,73.6,1.0,i,1.0,True,998.0999999642372,60.0,60.0,40.0,False,,332.5889256177636,[],"[960, 540]",ColorTask,2.0,2.0,,,HRV,HRV_0186,2022-11-30 18:39:51
,wl-rdm,10,58647,0.0-6.2-0.2,0.0,11.0,,,,,,,[],,,,,,87.9,1.0,i,1.0,True,725.6000000238419,44.0,60.0,40.0,False,,350.3563653098566,[],"[960, 540]",ColorTask,3.0,3.0,,,HRV,HRV_0186,2022-11-30 18:39:51
,wl-rdm,11,60864,0.0-6.3-0.3,0.0,12.0,,,,,,,[],,,,,,73.6,1.0,i,1.0,True,917.5,56.0,60.0,40.0,False,,210.18497043869348,[],"[960, 540]",ColorTask,4.0,4.0,,,HRV,HRV_0186,2022-11-30 18:39:51
,wl-rdm,12,62898,0.0-6.4-0.4,0.0,13.0,,,,,,,[],,,,,,73.6,1.0,i,1.0,True,657.5999999642372,40.0,60.0,40.0,False,,286.09041151387584,[],"[960, 540]",ColorTask,5.0,5.0,,,HRV,HRV_0186,2022-11-30 18:39:51
,wl-rdm,13,65164,0.0-6.5-0.5,0.0,14.0,,,,,,,[],,,,,,73.6,1.0,i,1.0,True,896.5,54.0,60.0,40.0,False,,293.5753082172398,[],"[960, 540]",ColorTask,6.0,6.0,,,HRV,HRV_0186,2022-11-30 18:39:51
,wl-rdm,14,67314,0.0-6.6-0.6,0.0,15.0,,,,,,,[],,,,,,87.9,0.0,u,0.0,True,698.1000000834465,42.0,60.0,40.0,False,,380.2262407606735,[],"[960, 540]",ColorTask,7.0,7.0,,,HRV,HRV_0186,2022-11-30 18:39:51
,wl-rdm,15,69364,0.0-6.7-0.7,0.0,16.0,,,,,,,[],,,,,,87.9,1.0,i,1.0,True,662.0999999642372,40.0,60.0,40.0,False,,321.39631354226435,[],"[960, 540]",ColorTask,8.0,8.0,,,HRV,HRV_0186,2022-11-30 18:39:51
,wl-rdm,16,71564,0.0-6.8-0.8,0.0,17.0,,,,,,,[],,,,,,73.6,0.0,u,0.0,True,771.3999999761581,47.0,60.0,40.0,False,,338.23035516896095,[],"[960, 540]",ColorTask,9.0,9.0,,,HRV,HRV_0186,2022-11-30 18:39:51
,wl-rdm,17,73848,0.0-6.9-0.9,0.0,18.0,,,,,,,[],,,,,,50.0,1.0,u,0.0,False,959.2999999523163,58.0,60.0,40.0,False,,249.16759562330478,[],"[960, 540]",ColorTask,8.0,10.0,,,HRV,HRV_0186,2022-11-30 18:39:51
,wl-rdm,18,76465,0.0-6.10-0.10,0.0,19.0,,,,,,,[],,,,,,50.0,0.0,i,1.0,False,1199.5,72.0,60.0,40.0,False,,364.23242460601045,[],"[960, 540]",ColorTask,7.0,11.0,,,HRV,HRV_0186,2022-11-30 18:39:51
,wl-rdm,19,78565,0.0-6.11-0.11,0.0,20.0,,,,,,,[],,,,,,53.2,1.0,i,1.0,True,679.0,41.0,60.0,40.0,False,,347.543108445728,[],"[960, 540]",ColorTask,8.0,12.0,,,HRV,HRV_0186,2022-11-30 18:39:51
,wl-rdm,20,80898,0.0-6.12-0.12,0.0,21.0,,,,,,,[],,,,,,62.5,1.0,u,0.0,False,1014.4999999403954,61.0,60.0,40.0,False,,266.52198187156773,[],"[960, 540]",ColorTask,7.0,13.0,,,HRV,HRV_0186,2022-11-30 18:39:51
,wl-rdm,21,83048,0.0-6.13-0.13,0.0,22.0,,,,,,,[],,,,,,87.9,1.0,i,1.0,True,825.5,50.0,60.0,40.0,False,,243.92328799604218,[],"[960, 540]",ColorTask,8.0,14.0,,,HRV,HRV_0186,2022-11-30 18:39:51
,wl-rdm,22,85131,0.0-6.14-0.14,0.0,23.0,,,,,,,[],,,,,,87.9,0.0,u,0.0,True,638.1999999880791,39.0,60.0,40.0,False,,381.5992541161834,[],"[960, 540]",ColorTask,9.0,15.0,,,HRV,HRV_0186,2022-11-30 18:39:51
,wl-rdm,23,87265,0.0-6.15-0.15,0.0,24.0,,,,,,,[],,,,,,56.4,1.0,i,1.0,True,841.2999999523163,51.0,60.0,40.0,False,,222.32341010806547,[],"[960, 540]",ColorTask,10.0,16.0,,,HRV,HRV_0186,2022-11-30 18:39:51
,wl-rdm,24,89648,0.0-6.16-0.16,0.0,25.0,,,,,,,[],,,,,,53.2,0.0,i,1.0,False,933.1999999880791,56.0,60.0,40.0,False,,379.0778908231372,[],"[960, 540]",ColorTask,9.0,17.0,,,HRV,HRV_0186,2022-11-30 18:39:51
,wl-rdm,25,91915,0.0-6.17-0.17,0.0,26.0,,,,,,,[],,,,,,50.0,1.0,i,1.0,True,996.5999999642372,60.0,60.0,40.0,False,,215.60242378291986,[],"[960, 540]",ColorTask,10.0,18.0,,,HRV,HRV_0186,2022-11-30 18:39:51
,wl-rdm,26,94348,0.0-6.18-0.18,0.0,27.0,,,,,,,[],,,,,,53.2,1.0,i,1.0,True,962.6999999880791,58.0,60.0,40.0,False,,390.1609892146113,[],"[960, 540]",ColorTask,11.0,19.0,,,HRV,HRV_0186,2022-11-30 18:39:51
,wl-rdm,27,96315,0.0-6.19-0.19,0.0,28.0,,,,,,,[],,,,,,73.6,1.0,i,1.0,True,639.3000000119209,39.0,60.0,40.0,False,,238.95237579812925,[],"[960, 540]",ColorTask,12.0,20.0,,,HRV,HRV_0186,2022-11-30 18:39:51
,wl-rdm,28,98548,0.0-6.20-0.20,0.0,29.0,,,,,,,[],,,,,,53.2,0.0,i,1.0,False,929.3000000119209,56.0,60.0,40.0,False,,226.04852863590884,[],"[960, 540]",ColorTask,11.0,21.0,,,HRV,HRV_0186,2022-11-30 18:39:51
,wl-rdm,29,100898,0.0-6.21-0.21,0.0,30.0,,,,,,,[],,,,,,53.2,1.0,i,1.0,True,889.8999999761581,54.0,60.0,40.0,False,,371.7255251887094,[],"[960, 540]",ColorTask,12.0,22.0,,,HRV,HRV_0186,2022-11-30 18:39:51
,wl-rdm,30,102882,0.0-6.22-0.22,0.0,31.0,,,,,,,[],,,,,,87.9,1.0,i,1.0,True,665.0999999642372,40.0,60.0,40.0,False,,246.6818008292987,[],"[960, 540]",ColorTask,13.0,23.0,,,HRV,HRV_0186,2022-11-30 18:39:51
,wl-rdm,31,105415,0.0-6.23-0.23,0.0,32.0,,,,,,,[],,,,,,50.0,1.0,u,0.0,False,1159.800000011921,70.0,60.0,40.0,False,,288.6729719947626,[],"[960, 540]",ColorTask,12.0,24.0,,,HRV,HRV_0186,2022-11-30 18:39:51
,wl-rdm,32,107465,0.0-6.24-0.24,0.0,33.0,,,,,,,[],,,,,,53.2,0.0,i,1.0,False,624.3000000119209,38.0,60.0,40.0,False,,335.1598822491542,[],"[960, 540]",ColorTask,11.0,25.0,,,HRV,HRV_0186,2022-11-30 18:39:51
,wl-rdm,33,109449,0.0-6.25-0.25,0.0,34.0,,,,,,,[],,,,,,87.9,0.0,u,0.0,True,665.8000000119209,40.0,60.0,40.0,False,,254.95047750009564,[],"[960, 540]",ColorTask,12.0,26.0,,,HRV,HRV_0186,2022-11-30 18:39:51
,wl-rdm,34,111649,0.0-6.26-0.26,0.0,35.0,,,,,,,[],,,,,,62.5,1.0,i,1.0,True,816.6000000238419,49.0,60.0,40.0,False,,306.716680704948,[],"[960, 540]",ColorTask,13.0,27.0,,,HRV,HRV_0186,2022-11-30 18:39:51
,wl-rdm,35,113715,0.0-6.27-0.27,0.0,36.0,,,,,,,[],,,,,,87.9,0.0,u,0.0,True,705.1999999880791,43.0,60.0,40.0,False,,267.4623528587672,[],"[960, 540]",ColorTask,14.0,28.0,,,HRV,HRV_0186,2022-11-30 18:39:51
,wl-rdm,36,115749,0.0-6.28-0.28,0.0,37.0,,,,,,,[],,,,,,73.6,0.0,u,0.0,True,727.8000000119209,44.0,60.0,40.0,False,,239.66713946992112,[],"[960, 540]",ColorTask,15.0,29.0,,,HRV,HRV_0186,2022-11-30 18:39:51
,wl-rdm,37,117932,0.0-6.29-0.29,0.0,38.0,,,,,,,[],,,,,,56.4,0.0,u,0.0,True,821.3000000119209,50.0,60.0,40.0,False,,278.17157107513395,[],"[960, 540]",ColorTask,16.0,30.0,,,HRV,HRV_0186,2022-11-30 18:39:51
,wl-rdm,38,120015,0.0-6.30-0.30,0.0,39.0,,,,,,,[],,,,,,56.4,1.0,i,1.0,True,701.8000000119209,43.0,60.0,40.0,False,,287.9250668494495,[],"[960, 540]",ColorTask,17.0,31.0,,,HRV,HRV_0186,2022-11-30 18:39:51
,wl-rdm,39,122382,0.0-6.31-0.31,0.0,40.0,,,,,,,[],,,,,,62.5,1.0,i,1.0,True,1043.699999988079,63.0,60.0,40.0,False,,238.60422319100383,[],"[960, 540]",ColorTask,18.0,32.0,,,HRV,HRV_0186,2022-11-30 18:39:51
,wl-rdm,40,124416,0.0-6.32-0.32,0.0,41.0,,,,,,,[],,,,,,62.5,1.0,i,1.0,True,584.5,36.0,60.0,40.0,False,,356.4637989533285,[],"[960, 540]",ColorTask,19.0,33.0,,,HRV,HRV_0186,2022-11-30 18:39:51
,wl-rdm,41,126632,0.0-6.33-0.33,0.0,42.0,,,,,,,[],,,,,,56.4,1.0,i,1.0,True,874.4000000357628,53.0,60.0,40.0,False,,282.49701081459057,[],"[960, 540]",ColorTask,20.0,34.0,,,HRV,HRV_0186,2022-11-30 18:39:51
,wl-rdm,42,128616,0.0-6.34-0.34,0.0,43.0,,,,,,,[],,,,,,53.2,0.0,i,1.0,False,675.8999999165535,41.0,60.0,40.0,False,,220.6060178280215,[],"[960, 540]",ColorTask,19.0,35.0,,,HRV,HRV_0186,2022-11-30 18:39:51
,wl-rdm,43,130582,0.0-6.35-0.35,0.0,44.0,,,,,,,[],,,,,,53.2,0.0,i,1.0,False,693.3000000119209,42.0,60.0,40.0,False,,205.5640483259439,[],"[960, 540]",ColorTask,18.0,36.0,,,HRV,HRV_0186,2022-11-30 18:39:51
,wl-rdm,44,132749,0.0-6.36-0.36,0.0,45.0,,,,,,,[],,,,,,73.6,1.0,i,1.0,True,728.0999999642372,44.0,60.0,40.0,False,,352.2316948803109,[],"[960, 540]",ColorTask,19.0,37.0,,,HRV,HRV_0186,2022-11-30 18:39:51
,wl-rdm,45,134749,0.0-6.37-0.37,0.0,46.0,,,,,,,[],,,,,,56.4,0.0,u,0.0,True,678.1000000238419,41.0,60.0,40.0,False,,240.6556696861952,[],"[960, 540]",ColorTask,20.0,38.0,,,HRV,HRV_0186,2022-11-30 18:39:51
,wl-rdm,46,136883,0.0-6.38-0.38,0.0,47.0,,,,,,,[],,,,,,56.4,0.0,u,0.0,True,796.7999999523163,48.0,60.0,40.0,False,,275.12358070024356,[],"[960, 540]",ColorTask,21.0,39.0,,,HRV,HRV_0186,2022-11-30 18:39:51
,wl-rdm,47,139349,0.0-6.39-0.39,0.0,48.0,,,,,,,[],,,,,,53.2,1.0,u,0.0,False,1111.300000011921,67.0,60.0,40.0,False,,272.2144386212601,[],"[960, 540]",ColorTask,20.0,40.0,,,HRV,HRV_0186,2022-11-30 18:39:51
,wl-rdm,48,141266,0.0-6.40-0.40,0.0,49.0,,,,,,,[],,,,,,53.2,0.0,u,0.0,True,623.8000000119209,38.0,60.0,40.0,False,,202.33365714289042,[],"[960, 540]",ColorTask,21.0,41.0,,,HRV,HRV_0186,2022-11-30 18:39:51
,wl-rdm,49,143150,0.0-6.41-0.41,0.0,50.0,,,,,,,[],,,,,,87.9,1.0,i,1.0,True,544.5,33.0,60.0,40.0,False,,255.31892718679325,[],"[960, 540]",ColorTask,22.0,42.0,,,HRV,HRV_0186,2022-11-30 18:39:51
,wl-rdm,50,145066,0.0-6.42-0.42,0.0,51.0,,,,,,,[],,,,,,73.6,0.0,u,0.0,True,547.6999999880791,33.0,60.0,40.0,False,,290.79035376465197,[],"[960, 540]",ColorTask,23.0,43.0,,,HRV,HRV_0186,2022-11-30 18:39:51
,wl-rdm,51,147000,0.0-6.43-0.43,0.0,52.0,,,,,,,[],,,,,,62.5,0.0,u,0.0,True,566.5,34.0,60.0,40.0,False,,315.6215520560256,[],"[960, 540]",ColorTask,24.0,44.0,,,HRV,HRV_0186,2022-11-30 18:39:51
,wl-rdm,52,149216,0.0-6.44-0.44,0.0,53.0,,,,,,,[],,,,,,73.6,0.0,u,0.0,True,775.3000000119209,47.0,60.0,40.0,False,,361.0069208934616,[],"[960, 540]",ColorTask,25.0,45.0,,,HRV,HRV_0186,2022-11-30 18:39:51
,wl-rdm,53,151266,0.0-6.45-0.45,0.0,54.0,,,,,,,[],,,,,,87.9,1.0,i,1.0,True,597.5999999642372,36.0,60.0,40.0,False,,376.4792034558866,[],"[960, 540]",ColorTask,26.0,46.0,,,HRV,HRV_0186,2022-11-30 18:39:51
,wl-rdm,54,153350,0.0-6.46-0.46,0.0,55.0,,,,,,,[],,,,,,50.0,1.0,u,0.0,False,703.3000000119209,43.0,60.0,40.0,False,,290.074907666732,[],"[960, 540]",ColorTask,25.0,47.0,,,HRV,HRV_0186,2022-11-30 18:39:51
,wl-rdm,55,155800,0.0-6.47-0.47,0.0,56.0,,,,,,,[],,,,,,62.5,0.0,u,0.0,True,1134.4999999403954,69.0,60.0,40.0,False,,220.56230826999547,[],"[960, 540]",ColorTask,26.0,48.0,,,HRV,HRV_0186,2022-11-30 18:39:51
,wl-rdm,56,157867,0.0-6.48-0.48,0.0,57.0,,,,,,,[],,,,,,87.9,0.0,u,0.0,True,680.0999999642372,41.0,60.0,40.0,False,,327.47161777257264,[],"[960, 540]",ColorTask,27.0,49.0,,,HRV,HRV_0186,2022-11-30 18:39:51
,wl-rdm,57,159817,0.0-6.49-0.49,0.0,58.0,,,,,,,[],,,,,,62.5,1.0,i,1.0,True,658.1000000238419,40.0,60.0,40.0,False,,209.5810527766407,[],"[960, 540]",ColorTask,28.0,50.0,,,HRV,HRV_0186,2022-11-30 18:39:51
,wl-rdm,58,161967,0.0-6.50-0.50,0.0,59.0,,,,,,,[],,,,,,50.0,0.0,u,0.0,True,843.5999999642372,51.0,60.0,40.0,False,,218.79797641673593,[],"[960, 540]",ColorTask,29.0,51.0,,,HRV,HRV_0186,2022-11-30 18:39:51
,wl-rdm,59,163983,0.0-6.51-0.51,0.0,60.0,,,,,,,[],,,,,,73.6,0.0,u,0.0,True,692.3999999761581,42.0,60.0,40.0,False,,257.6935048180175,[],"[960, 540]",ColorTask,30.0,52.0,,,HRV,HRV_0186,2022-11-30 18:39:51
,wl-rdm,60,165933,0.0-6.52-0.52,0.0,61.0,,,,,,,[],,,,,,56.4,1.0,i,1.0,True,661.1999999880791,40.0,60.0,40.0,False,,214.92642491003653,[],"[960, 540]",ColorTask,31.0,53.0,,,HRV,HRV_0186,2022-11-30 18:39:51
,wl-rdm,61,167934,0.0-6.53-0.53,0.0,62.0,,,,,,,[],,,,,,50.0,0.0,i,1.0,False,577.4000000357628,35.0,60.0,40.0,False,,355.17618348678144,[],"[960, 540]",ColorTask,30.0,54.0,,,HRV,HRV_0186,2022-11-30 18:39:51
,wl-rdm,62,170450,0.0-6.54-0.54,0.0,63.0,,,,,,,[],,,,,,62.5,0.0,u,0.0,True,1231.300000011921,74.0,60.0,40.0,False,,215.8136991886099,[],"[960, 540]",ColorTask,31.0,55.0,,,HRV,HRV_0186,2022-11-30 18:39:51
,wl-rdm,63,172550,0.0-6.55-0.55,0.0,64.0,,,,,,,[],,,,,,56.4,0.0,u,0.0,True,727.0999999642372,44.0,60.0,40.0,False,,296.4768550281538,[],"[960, 540]",ColorTask,32.0,56.0,,,HRV,HRV_0186,2022-11-30 18:39:51
,wl-rdm,64,174900,0.0-6.56-0.56,0.0,65.0,,,,,,,[],,,,,,53.2,1.0,u,0.0,False,1020.8999999761581,62.0,60.0,40.0,False,,253.15903198917346,[],"[960, 540]",ColorTask,31.0,57.0,,,HRV,HRV_0186,2022-11-30 18:39:51
,wl-rdm,65,177034,0.0-6.57-0.57,0.0,66.0,,,,,,,[],,,,,,53.2,1.0,u,0.0,False,814.5,49.0,60.0,40.0,False,,257.1160022013993,[],"[960, 540]",ColorTask,30.0,58.0,,,HRV,HRV_0186,2022-11-30 18:39:51
,wl-rdm,66,178984,0.0-6.58-0.58,0.0,67.0,,,,,,,[],,,,,,62.5,1.0,i,1.0,True,499.80000001192093,30.0,60.0,40.0,False,,394.2195943132923,[],"[960, 540]",ColorTask,31.0,59.0,,,HRV,HRV_0186,2022-11-30 18:39:51
,wl-rdm,67,180950,0.0-6.59-0.59,0.0,68.0,,,,,,,[],,,,,,50.0,0.0,i,1.0,False,560.3999999761581,34.0,60.0,40.0,False,,322.68660790720554,[],"[960, 540]",ColorTask,30.0,60.0,,,HRV,HRV_0186,2022-11-30 18:39:51
,wl-rdm,68,183067,0.0-6.60-0.60,0.0,69.0,,,,,,,[],,,,,,62.5,1.0,i,1.0,True,754.9000000357628,46.0,60.0,40.0,False,,286.147237905537,[],"[960, 540]",ColorTask,31.0,61.0,,,HRV,HRV_0186,2022-11-30 18:39:51
,wl-rdm,69,185517,0.0-6.61-0.61,0.0,70.0,,,,,,,[],,,,,,62.5,0.0,u,0.0,True,1037.1000000238419,63.0,60.0,40.0,False,,319.5940702307489,[],"[960, 540]",ColorTask,32.0,62.0,,,HRV,HRV_0186,2022-11-30 18:39:51
,wl-rdm,70,187651,0.0-6.62-0.62,0.0,71.0,,,,,,,[],,,,,,62.5,0.0,u,0.0,True,814.1000000238419,49.0,60.0,40.0,False,,239.96728300774097,[],"[960, 540]",ColorTask,33.0,63.0,,,HRV,HRV_0186,2022-11-30 18:39:51
,wl-rdm,71,189967,0.0-6.63-0.63,0.0,72.0,,,,,,,[],,,,,,56.4,0.0,u,0.0,True,992.8000000119209,60.0,60.0,40.0,False,,238.44594598013057,[],"[960, 540]",ColorTask,34.0,64.0,,,HRV,HRV_0186,2022-11-30 18:39:51
,wl-rdm,72,192117,0.0-6.64-0.64,0.0,73.0,,,,,,,[],,,,,,87.9,1.0,i,1.0,True,703.3000000119209,43.0,60.0,40.0,False,,360.13232928202314,[],"[960, 540]",ColorTask,35.0,65.0,,,HRV,HRV_0186,2022-11-30 18:39:51
,wl-rdm,73,194184,0.0-6.65-0.65,0.0,74.0,,,,,,,[],,,,,,62.5,0.0,u,0.0,True,766.6999999880791,46.0,60.0,40.0,False,,225.17360511552405,[],"[960, 540]",ColorTask,36.0,66.0,,,HRV,HRV_0186,2022-11-30 18:39:51
,wl-rdm,74,196284,0.0-6.66-0.66,0.0,75.0,,,,,,,[],,,,,,73.6,0.0,u,0.0,True,738.1999999880791,45.0,60.0,40.0,False,,281.19982755229614,[],"[960, 540]",ColorTask,37.0,67.0,,,HRV,HRV_0186,2022-11-30 18:39:51
,wl-rdm,75,198468,0.0-6.67-0.67,0.0,76.0,,,,,,,[],,,,,,87.9,0.0,u,0.0,True,772.1000000238419,47.0,60.0,40.0,False,,322.21388778245534,[],"[960, 540]",ColorTask,38.0,68.0,,,HRV,HRV_0186,2022-11-30 18:39:51
,wl-rdm,76,200634,0.0-6.68-0.68,0.0,77.0,,,,,,,[],,,,,,56.4,1.0,i,1.0,True,831.1999999880791,50.0,60.0,40.0,False,,253.05064521442074,[],"[960, 540]",ColorTask,39.0,69.0,,,HRV,HRV_0186,2022-11-30 18:39:51
,wl-rdm,77,202668,0.0-6.69-0.69,0.0,78.0,,,,,,,[],,,,,,53.2,0.0,u,0.0,True,762.5,46.0,60.0,40.0,False,,200.7169936618323,[],"[960, 540]",ColorTask,40.0,70.0,,,HRV,HRV_0186,2022-11-30 18:39:51
,wl-rdm,78,204768,0.0-6.70-0.70,0.0,79.0,,,,,,,[],,,,,,73.6,0.0,u,0.0,True,650.5,40.0,60.0,40.0,False,,374.52244100204723,[],"[960, 540]",ColorTask,41.0,71.0,,,HRV,HRV_0186,2022-11-30 18:39:51
,wl-rdm,79,207385,0.0-6.71-0.71,0.0,80.0,,,,,,,[],,,,,,50.0,1.0,i,1.0,True,1233.9999999403954,75.0,60.0,40.0,False,,301.83561137055574,[],"[960, 540]",ColorTask,42.0,72.0,,,HRV,HRV_0186,2022-11-30 18:39:51
,wl-rdm,80,209801,0.0-6.72-0.72,0.0,81.0,,,,,,,[],,,,,,50.0,0.0,u,0.0,True,1082.0999999642372,65.0,60.0,40.0,False,,263.6809200603093,[],"[960, 540]",ColorTask,43.0,73.0,,,HRV,HRV_0186,2022-11-30 18:39:51
,wl-rdm,81,211701,0.0-6.73-0.73,0.0,82.0,,,,,,,[],,,,,,87.9,0.0,u,0.0,True,511.6999999284744,31.0,60.0,40.0,False,,306.50256983374317,[],"[960, 540]",ColorTask,44.0,74.0,,,HRV,HRV_0186,2022-11-30 18:39:51
,wl-rdm,82,213585,0.0-6.74-0.74,0.0,83.0,,,,,,,[],,,,,,50.0,0.0,u,0.0,True,532.8000000119209,32.0,60.0,40.0,False,,276.97846754462563,[],"[960, 540]",ColorTask,45.0,75.0,,,HRV,HRV_0186,2022-11-30 18:39:51
,wl-rdm,83,215768,0.0-6.75-0.75,0.0,84.0,,,,,,,[],,,,,,62.5,0.0,u,0.0,True,825.6000000834465,50.0,60.0,40.0,False,,277.879883069568,[],"[960, 540]",ColorTask,46.0,76.0,,,HRV,HRV_0186,2022-11-30 18:39:51
,wl-rdm,84,217885,0.0-6.76-0.76,0.0,85.0,,,,,,,[],,,,,,56.4,1.0,i,1.0,True,779.0,47.0,60.0,40.0,False,,253.16384501514943,[],"[960, 540]",ColorTask,47.0,77.0,,,HRV,HRV_0186,2022-11-30 18:39:51
,wl-rdm,85,220118,0.0-6.77-0.77,0.0,86.0,,,,,,,[],,,,,,53.2,0.0,u,0.0,True,852.6999999880791,52.0,60.0,40.0,False,,298.2744739067213,[],"[960, 540]",ColorTask,48.0,78.0,,,HRV,HRV_0186,2022-11-30 18:39:51
,wl-rdm,86,222185,0.0-6.78-0.78,0.0,87.0,,,,,,,[],,,,,,73.6,1.0,i,1.0,True,741.1999999880791,45.0,60.0,40.0,False,,234.04580098202456,[],"[960, 540]",ColorTask,49.0,79.0,,,HRV,HRV_0186,2022-11-30 18:39:51
,wl-rdm,87,224252,0.0-6.79-0.79,0.0,88.0,,,,,,,[],,,,,,56.4,0.0,i,1.0,False,745.8000000119209,45.0,60.0,40.0,False,,266.06464490159993,[],"[960, 540]",ColorTask,48.0,80.0,,,HRV,HRV_0186,2022-11-30 18:39:51
,wl-rdm,88,226402,0.0-6.80-0.80,0.0,89.0,,,,,,,[],,,,,,53.2,1.0,i,1.0,True,856.6000000238419,52.0,60.0,40.0,False,,219.5506873449459,[],"[960, 540]",ColorTask,49.0,81.0,,,HRV,HRV_0186,2022-11-30 18:39:51
,wl-rdm,89,228685,0.0-6.81-0.81,0.0,90.0,,,,,,,[],,,,,,56.4,1.0,i,1.0,True,820.9000000357628,50.0,60.0,40.0,False,,367.9433030017113,[],"[960, 540]",ColorTask,50.0,82.0,,,HRV,HRV_0186,2022-11-30 18:39:51
,wl-rdm,90,230719,0.0-6.82-0.82,0.0,91.0,,,,,,,[],,,,,,73.6,1.0,i,1.0,True,710.9000000357628,43.0,60.0,40.0,False,,246.78149335459403,[],"[960, 540]",ColorTask,51.0,83.0,,,HRV,HRV_0186,2022-11-30 18:39:51
,wl-rdm,91,232952,0.0-6.83-0.83,0.0,92.0,,,,,,,[],,,,,,50.0,1.0,u,0.0,False,783.6999999880791,48.0,60.0,40.0,False,,370.55514794303895,[],"[960, 540]",ColorTask,50.0,84.0,,,HRV,HRV_0186,2022-11-30 18:39:51
,wl-rdm,92,234919,0.0-6.84-0.84,0.0,93.0,,,,,,,[],,,,,,73.6,0.0,u,0.0,True,668.6999999880791,41.0,60.0,40.0,False,,214.26224907682916,[],"[960, 540]",ColorTask,51.0,85.0,,,HRV,HRV_0186,2022-11-30 18:39:51
,wl-rdm,93,236819,0.0-6.85-0.85,0.0,94.0,,,,,,,[],,,,,,87.9,0.0,u,0.0,True,555.4000000357628,34.0,60.0,40.0,False,,271.8576842947471,[],"[960, 540]",ColorTask,52.0,86.0,,,HRV,HRV_0186,2022-11-30 18:39:51
,wl-rdm,94,238752,0.0-6.86-0.86,0.0,95.0,,,,,,,[],,,,,,56.4,0.0,i,1.0,False,599.9000000357628,36.0,60.0,40.0,False,,277.70244462083326,[],"[960, 540]",ColorTask,51.0,87.0,,,HRV,HRV_0186,2022-11-30 18:39:51
,wl-rdm,95,240986,0.0-6.87-0.87,0.0,96.0,,,,,,,[],,,,,,56.4,1.0,i,1.0,True,773.3999999761581,47.0,60.0,40.0,False,,389.67678383039595,[],"[960, 540]",ColorTask,52.0,88.0,,,HRV,HRV_0186,2022-11-30 18:39:51
,wl-rdm,96,243202,0.0-6.88-0.88,0.0,97.0,,,,,,,[],,,,,,53.2,1.0,i,1.0,True,831.3999999761581,50.0,60.0,40.0,False,,304.9173818764269,[],"[960, 540]",ColorTask,53.0,89.0,,,HRV,HRV_0186,2022-11-30 18:39:51
,wl-rdm,97,245486,0.0-6.89-0.89,0.0,98.0,,,,,,,[],,,,,,62.5,1.0,u,0.0,False,977.8000000119209,59.0,60.0,40.0,False,,222.4536798846797,[],"[960, 540]",ColorTask,52.0,90.0,,,HRV,HRV_0186,2022-11-30 18:39:51
,wl-rdm,98,247602,0.0-6.90-0.90,0.0,99.0,,,,,,,[],,,,,,53.2,0.0,i,1.0,False,656.3999999761581,40.0,60.0,40.0,False,,382.8562700586808,[],"[960, 540]",ColorTask,51.0,91.0,,,HRV,HRV_0186,2022-11-30 18:39:51
,wl-rdm,99,249952,0.0-6.91-0.91,0.0,100.0,,,,,,,[],,,,,,56.4,0.0,u,0.0,True,1000.3000000119209,61.0,60.0,40.0,False,,270.454888667964,[],"[960, 540]",ColorTask,52.0,92.0,,,HRV,HRV_0186,2022-11-30 18:39:51
,wl-rdm,100,251969,0.0-6.92-0.92,0.0,101.0,,,,,,,[],,,,,,87.9,0.0,u,0.0,True,649.1000000238419,39.0,60.0,40.0,False,,283.5859904607622,[],"[960, 540]",ColorTask,53.0,93.0,,,HRV,HRV_0186,2022-11-30 18:39:51
,wl-rdm,101,254419,0.0-6.93-0.93,0.0,102.0,,,,,,,[],,,,,,62.5,1.0,i,1.0,True,1105.800000011921,67.0,60.0,40.0,False,,254.60757962177757,[],"[960, 540]",ColorTask,54.0,94.0,,,HRV,HRV_0186,2022-11-30 18:39:51
,wl-rdm,102,256919,0.0-6.94-0.94,0.0,103.0,,,,,,,[],,,,,,50.0,0.0,i,1.0,False,1193.0999999642372,72.0,60.0,40.0,False,,229.1109147454388,[],"[960, 540]",ColorTask,53.0,95.0,,,HRV,HRV_0186,2022-11-30 18:39:51
,wl-rdm,103,259736,0.0-6.95-0.95,0.0,104.0,,,,,,,[],,,,,,50.0,0.0,i,1.0,False,1350.6000000238419,82.0,60.0,40.0,False,,383.57412945744545,[],"[960, 540]",ColorTask,52.0,96.0,,,HRV,HRV_0186,2022-11-30 18:39:51
,wl-rdm,104,262052,0.0-6.96-0.96,0.0,105.0,,,,,,,[],,,,,,50.0,1.0,u,0.0,False,871.2000000476837,53.0,60.0,40.0,False,,364.52690572377105,[],"[960, 540]",ColorTask,51.0,97.0,,,HRV,HRV_0186,2022-11-30 18:39:51
,wl-rdm,105,264069,0.0-6.97-0.97,0.0,106.0,,,,,,,[],,,,,,73.6,1.0,i,1.0,True,686.6999999880791,42.0,60.0,40.0,False,,242.12814418131921,[],"[960, 540]",ColorTask,52.0,98.0,,,HRV,HRV_0186,2022-11-30 18:39:51
,wl-rdm,106,266002,0.0-6.98-0.98,0.0,107.0,,,,,,,[],,,,,,62.5,0.0,u,0.0,True,574.1000000238419,35.0,60.0,40.0,False,,279.95289428323065,[],"[960, 540]",ColorTask,53.0,99.0,,,HRV,HRV_0186,2022-11-30 18:39:51
,wl-rdm,107,268119,0.0-6.99-0.99,0.0,108.0,,,,,,,[],,,,,,50.0,1.0,u,0.0,False,784.5999999642372,48.0,60.0,40.0,False,,240.29568846966063,[],"[960, 540]",ColorTask,52.0,100.0,,,HRV,HRV_0186,2022-11-30 18:39:51
,wl-rdm,108,270586,0.0-6.100-0.100,0.0,109.0,,,,,,,[],,,,,,53.2,1.0,i,1.0,True,1030.6000000238419,62.0,60.0,40.0,False,,370.7859101209764,[],"[960, 540]",ColorTask,53.0,101.0,,,HRV,HRV_0186,2022-11-30 18:39:51
,wl-rdm,109,272653,0.0-6.101-0.101,0.0,110.0,,,,,,,[],,,,,,87.9,1.0,i,1.0,True,637.3999999761581,39.0,60.0,40.0,False,,339.3310863455784,[],"[960, 540]",ColorTask,54.0,102.0,,,HRV,HRV_0186,2022-11-30 18:39:51
,wl-rdm,110,274719,0.0-6.102-0.102,0.0,111.0,,,,,,,[],,,,,,62.5,0.0,u,0.0,True,717.5999999642372,44.0,60.0,40.0,False,,272.6486793365272,[],"[960, 540]",ColorTask,55.0,103.0,,,HRV,HRV_0186,2022-11-30 18:39:51
,wl-rdm,111,276869,0.0-6.103-0.103,0.0,112.0,,,,,,,[],,,,,,56.4,0.0,i,1.0,False,795.5,48.0,60.0,40.0,False,,279.0037047538839,[],"[960, 540]",ColorTask,54.0,104.0,,,HRV,HRV_0186,2022-11-30 18:39:51
,wl-rdm,112,278753,0.0-6.104-0.104,0.0,113.0,,,,,,,[],,,,,,87.9,1.0,i,1.0,True,565.7999999523163,34.0,60.0,40.0,False,,233.5045638060854,[],"[960, 540]",ColorTask,55.0,105.0,,,HRV,HRV_0186,2022-11-30 18:39:51
,wl-rdm,113,281403,0.0-6.105-0.105,0.0,114.0,,,,,,,[],,,,,,50.0,0.0,u,0.0,True,1230.300000011921,74.0,60.0,40.0,False,,343.0675825071247,[],"[960, 540]",ColorTask,56.0,106.0,,,HRV,HRV_0186,2022-11-30 18:39:51
,wl-rdm,114,283586,0.0-6.106-0.106,0.0,115.0,,,,,,,[],,,,,,56.4,1.0,u,0.0,False,798.0,48.0,60.0,40.0,False,,305.1150805816312,[],"[960, 540]",ColorTask,55.0,107.0,,,HRV,HRV_0186,2022-11-30 18:39:51
,wl-rdm,115,286153,0.0-6.107-0.107,0.0,116.0,,,,,,,[],,,,,,50.0,1.0,i,1.0,True,1265.5,76.0,60.0,40.0,False,,217.79520378687766,[],"[960, 540]",ColorTask,56.0,108.0,,,HRV,HRV_0186,2022-11-30 18:39:51
,wl-html-keyboard-response,116,298165,0.0-7.0-0.0,1.0,116.0,,,,,,,,10000.199999988079,1.0,0,,,,,,,,,,,,True,undefinedblurEvent ,,,,,,,,,HRV,HRV_0186,2022-11-30 18:39:51
,wl-rdm,117,300053,0.0-8.0-0.0,1.0,117.0,,,,,,,[],,,,,,87.9,1.0,i,1.0,True,612.3999999761581,37.0,60.0,40.0,False,,217.85400854002515,[],"[960, 540]",ColorTask,57.0,1.0,,,HRV,HRV_0186,2022-11-30 18:39:51
,wl-rdm,118,302303,0.0-8.1-0.1,1.0,118.0,,,,,,,[],,,,,,62.5,1.0,i,1.0,True,858.9000000357628,52.0,60.0,40.0,False,,312.57245365063136,[],"[960, 540]",ColorTask,58.0,2.0,,,HRV,HRV_0186,2022-11-30 18:39:51
,wl-rdm,119,304353,0.0-8.2-0.2,1.0,119.0,,,,,,,[],,,,,,73.6,1.0,i,1.0,True,658.8000000119209,40.0,60.0,40.0,False,,311.47428391180426,[],"[960, 540]",ColorTask,59.0,3.0,,,HRV,HRV_0186,2022-11-30 18:39:51
,wl-rdm,120,306220,0.0-8.3-0.3,1.0,120.0,,,,,,,[],,,,,,73.6,1.0,i,1.0,True,495.80000001192093,30.0,60.0,40.0,False,,290.17339554667313,[],"[960, 540]",ColorTask,60.0,4.0,,,HRV,HRV_0186,2022-11-30 18:39:51
,wl-rdm,121,308420,0.0-8.4-0.4,1.0,121.0,,,,,,,[],,,,,,62.5,1.0,u,0.0,False,721.3000000119209,44.0,60.0,40.0,False,,386.483561216809,[],"[960, 540]",ColorTask,59.0,5.0,,,HRV,HRV_0186,2022-11-30 18:39:51
,wl-rdm,122,310687,0.0-8.5-0.5,1.0,122.0,,,,,,,[],,,,,,50.0,0.0,u,0.0,True,935.4000000357628,57.0,60.0,40.0,False,,236.39699291901778,[],"[960, 540]",ColorTask,60.0,6.0,,,HRV,HRV_0186,2022-11-30 18:39:51
,wl-rdm,123,312887,0.0-8.6-0.6,1.0,123.0,,,,,,,[],,,,,,53.2,1.0,u,0.0,False,785.0,48.0,60.0,40.0,False,,327.80421966095207,[],"[960, 540]",ColorTask,59.0,7.0,,,HRV,HRV_0186,2022-11-30 18:39:51
,wl-rdm,124,315120,0.0-8.7-0.7,1.0,124.0,,,,,,,[],,,,,,73.6,0.0,u,0.0,True,874.1000000238419,53.0,60.0,40.0,False,,291.4013252017379,[],"[960, 540]",ColorTask,60.0,8.0,,,HRV,HRV_0186,2022-11-30 18:39:51
,wl-rdm,125,316937,0.0-8.8-0.8,1.0,125.0,,,,,,,[],,,,,,73.6,0.0,u,0.0,True,532.0999999642372,32.0,60.0,40.0,False,,204.89707134439968,[],"[960, 540]",ColorTask,61.0,9.0,,,HRV,HRV_0186,2022-11-30 18:39:51
,wl-rdm,126,318787,0.0-8.9-0.9,1.0,126.0,,,,,,,[],,,,,,56.4,0.0,u,0.0,True,547.0,33.0,60.0,40.0,False,,231.4722969771934,[],"[960, 540]",ColorTask,62.0,10.0,,,HRV,HRV_0186,2022-11-30 18:39:51
,wl-rdm,127,321304,0.0-8.10-0.10,1.0,127.0,,,,,,,[],,,,,,53.2,1.0,u,0.0,False,1082.6000000238419,65.0,60.0,40.0,False,,379.32901111044384,[],"[960, 540]",ColorTask,61.0,11.0,,,HRV,HRV_0186,2022-11-30 18:39:51
,wl-rdm,128,323421,0.0-8.11-0.11,1.0,128.0,,,,,,,[],,,,,,56.4,0.0,u,0.0,True,787.3000000119209,48.0,60.0,40.0,False,,235.56068169207512,[],"[960, 540]",ColorTask,62.0,12.0,,,HRV,HRV_0186,2022-11-30 18:39:51
,wl-rdm,129,326004,0.0-8.12-0.12,1.0,129.0,,,,,,,[],,,,,,50.0,0.0,i,1.0,False,1162.5,70.0,60.0,40.0,False,,353.60329038119505,[],"[960, 540]",ColorTask,61.0,13.0,,,HRV,HRV_0186,2022-11-30 18:39:51
,wl-rdm,130,328271,0.0-8.13-0.13,1.0,130.0,,,,,,,[],,,,,,53.2,0.0,u,0.0,True,801.8000000119209,49.0,60.0,40.0,False,,374.9099829141818,[],"[960, 540]",ColorTask,62.0,14.0,,,HRV,HRV_0186,2022-11-30 18:39:51
,wl-rdm,131,330255,0.0-8.14-0.14,1.0,131.0,,,,,,,[],,,,,,73.6,0.0,u,0.0,True,619.8000000119209,38.0,60.0,40.0,False,,281.0706367964541,[],"[960, 540]",ColorTask,63.0,15.0,,,HRV,HRV_0186,2022-11-30 18:39:51
,wl-rdm,132,332171,0.0-8.15-0.15,1.0,132.0,,,,,,,[],,,,,,62.5,0.0,u,0.0,True,613.0,37.0,60.0,40.0,False,,237.5115382874066,[],"[960, 540]",ColorTask,64.0,16.0,,,HRV,HRV_0186,2022-11-30 18:39:51
,wl-rdm,133,334238,0.0-8.16-0.16,1.0,133.0,,,,,,,[],,,,,,50.0,1.0,u,0.0,False,685.4000000357628,42.0,60.0,40.0,False,,316.5071199835817,[],"[960, 540]",ColorTask,63.0,17.0,,,HRV,HRV_0186,2022-11-30 18:39:51
,wl-rdm,134,336438,0.0-8.17-0.17,1.0,134.0,,,,,,,[],,,,,,53.2,1.0,u,0.0,False,819.6000000238419,50.0,60.0,40.0,False,,298.29334855600473,[],"[960, 540]",ColorTask,62.0,18.0,,,HRV,HRV_0186,2022-11-30 18:39:51
,wl-rdm,135,338438,0.0-8.18-0.18,1.0,135.0,,,,,,,[],,,,,,87.9,1.0,i,1.0,True,686.1999999880791,42.0,60.0,40.0,False,,230.76531554319973,[],"[960, 540]",ColorTask,63.0,19.0,,,HRV,HRV_0186,2022-11-30 18:39:51
,wl-rdm,136,340588,0.0-8.19-0.19,1.0,136.0,,,,,,,[],,,,,,87.9,0.0,u,0.0,True,721.8000000119209,44.0,60.0,40.0,False,,345.17591058162725,[],"[960, 540]",ColorTask,64.0,20.0,,,HRV,HRV_0186,2022-11-30 18:39:51
,wl-rdm,137,343288,0.0-8.20-0.20,1.0,137.0,,,,,,,[],,,,,,50.0,0.0,u,0.0,True,1217.5999999642372,74.0,60.0,40.0,False,,393.1587053935926,[],"[960, 540]",ColorTask,65.0,21.0,,,HRV,HRV_0186,2022-11-30 18:39:51
,wl-rdm,138,345588,0.0-8.21-0.21,1.0,138.0,,,,,,,[],,,,,,50.0,1.0,u,0.0,False,895.8999999761581,54.0,60.0,40.0,False,,328.39425160553805,[],"[960, 540]",ColorTask,64.0,22.0,,,HRV,HRV_0186,2022-11-30 18:39:51
,wl-rdm,139,347722,0.0-8.22-0.22,1.0,139.0,,,,,,,[],,,,,,62.5,1.0,i,1.0,True,764.6000000238419,46.0,60.0,40.0,False,,315.1216891805884,[],"[960, 540]",ColorTask,65.0,23.0,,,HRV,HRV_0186,2022-11-30 18:39:51
,wl-rdm,140,349722,0.0-8.23-0.23,1.0,140.0,,,,,,,[],,,,,,73.6,0.0,u,0.0,True,715.1000000238419,43.0,60.0,40.0,False,,212.10997918737104,[],"[960, 540]",ColorTask,66.0,24.0,,,HRV,HRV_0186,2022-11-30 18:39:51
,wl-rdm,141,352172,0.0-8.24-0.24,1.0,141.0,,,,,,,[],,,,,,50.0,0.0,u,0.0,True,1098.5999999642372,66.0,60.0,40.0,False,,276.25582175809257,[],"[960, 540]",ColorTask,67.0,25.0,,,HRV,HRV_0186,2022-11-30 18:39:51
,wl-rdm,142,354222,0.0-8.25-0.25,1.0,142.0,,,,,,,[],,,,,,73.6,0.0,u,0.0,True,619.1000000238419,38.0,60.0,40.0,False,,353.92434747613504,[],"[960, 540]",ColorTask,68.0,26.0,,,HRV,HRV_0186,2022-11-30 18:39:51
,wl-rdm,143,356322,0.0-8.26-0.26,1.0,143.0,,,,,,,[],,,,,,53.2,0.0,u,0.0,True,731.1999999880791,44.0,60.0,40.0,False,,313.5677935024546,[],"[960, 540]",ColorTask,69.0,27.0,,,HRV,HRV_0186,2022-11-30 18:39:51
,wl-rdm,144,358755,0.0-8.27-0.27,1.0,144.0,,,,,,,[],,,,,,56.4,0.0,u,0.0,True,996.9000000357628,60.0,60.0,40.0,False,,366.695401921805,[],"[960, 540]",ColorTask,70.0,28.0,,,HRV,HRV_0186,2022-11-30 18:39:51
,wl-rdm,145,360705,0.0-8.28-0.28,1.0,145.0,,,,,,,[],,,,,,53.2,0.0,u,0.0,True,531.3000000119209,32.0,60.0,40.0,False,,353.0535936005505,[],"[960, 540]",ColorTask,71.0,29.0,,,HRV,HRV_0186,2022-11-30 18:39:51
,wl-rdm,146,362789,0.0-8.29-0.29,1.0,146.0,,,,,,,[],,,,,,62.5,0.0,u,0.0,True,612.6999999880791,37.0,60.0,40.0,False,,390.75387998300675,[],"[960, 540]",ColorTask,72.0,30.0,,,HRV,HRV_0186,2022-11-30 18:39:51
,wl-rdm,147,364739,0.0-8.30-0.30,1.0,147.0,,,,,,,[],,,,,,73.6,1.0,i,1.0,True,622.8000000119209,38.0,60.0,40.0,False,,245.38917542051055,[],"[960, 540]",ColorTask,73.0,31.0,,,HRV,HRV_0186,2022-11-30 18:39:51
,wl-rdm,148,367072,0.0-8.31-0.31,1.0,148.0,,,,,,,[],,,,,,50.0,1.0,i,1.0,True,1000.5,61.0,60.0,40.0,False,,254.68723917090227,[],"[960, 540]",ColorTask,74.0,32.0,,,HRV,HRV_0186,2022-11-30 18:39:51
,wl-rdm,149,369072,0.0-8.32-0.32,1.0,149.0,,,,,,,[],,,,,,87.9,0.0,u,0.0,True,582.7999999523163,35.0,60.0,40.0,False,,355.0814757882942,[],"[960, 540]",ColorTask,75.0,33.0,,,HRV,HRV_0186,2022-11-30 18:39:51
,wl-rdm,150,371706,0.0-8.33-0.33,1.0,150.0,,,,,,,[],,,,,,53.2,0.0,i,1.0,False,1224.2000000476837,74.0,60.0,40.0,False,,328.913022762801,[],"[960, 540]",ColorTask,74.0,34.0,,,HRV,HRV_0186,2022-11-30 18:39:51
,wl-rdm,151,373589,0.0-8.34-0.34,1.0,151.0,,,,,,,[],,,,,,87.9,1.0,i,1.0,True,545.0,33.0,60.0,40.0,False,,269.94783926817405,[],"[960, 540]",ColorTask,75.0,35.0,,,HRV,HRV_0186,2022-11-30 18:39:51
,wl-rdm,152,375589,0.0-8.35-0.35,1.0,152.0,,,,,,,[],,,,,,56.4,1.0,i,1.0,True,719.8999999761581,44.0,60.0,40.0,False,,206.0170707614964,[],"[960, 540]",ColorTask,76.0,36.0,,,HRV,HRV_0186,2022-11-30 18:39:51
,wl-rdm,153,377722,0.0-8.36-0.36,1.0,153.0,,,,,,,[],,,,,,62.5,1.0,i,1.0,True,822.4000000357628,50.0,60.0,40.0,False,,241.59440415357645,[],"[960, 540]",ColorTask,77.0,37.0,,,HRV,HRV_0186,2022-11-30 18:39:51
,wl-rdm,154,379706,0.0-8.37-0.37,1.0,154.0,,,,,,,[],,,,,,62.5,1.0,i,1.0,True,681.6999999880791,41.0,60.0,40.0,False,,223.7281524885361,[],"[960, 540]",ColorTask,78.0,38.0,,,HRV,HRV_0186,2022-11-30 18:39:51
,wl-rdm,155,381822,0.0-8.38-0.38,1.0,155.0,,,,,,,[],,,,,,73.6,1.0,i,1.0,True,793.3000000119209,48.0,60.0,40.0,False,,260.7073049915028,[],"[960, 540]",ColorTask,79.0,39.0,,,HRV,HRV_0186,2022-11-30 18:39:51
,wl-rdm,156,383905,0.0-8.39-0.39,1.0,156.0,,,,,,,[],,,,,,50.0,0.0,u,0.0,True,764.8000000119209,46.0,60.0,40.0,False,,257.9793894790872,[],"[960, 540]",ColorTask,80.0,40.0,,,HRV,HRV_0186,2022-11-30 18:39:51
,wl-rdm,157,385739,0.0-8.40-0.40,1.0,157.0,,,,,,,[],,,,,,62.5,0.0,u,0.0,True,539.0,33.0,60.0,40.0,False,,203.6706889398625,[],"[960, 540]",ColorTask,81.0,41.0,,,HRV,HRV_0186,2022-11-30 18:39:51
,wl-rdm,158,387772,0.0-8.41-0.41,1.0,158.0,,,,,,,[],,,,,,73.6,1.0,i,1.0,True,728.1999999880791,44.0,60.0,40.0,False,,233.91012191393693,[],"[960, 540]",ColorTask,82.0,42.0,,,HRV,HRV_0186,2022-11-30 18:39:51
,wl-rdm,159,390439,0.0-8.42-0.42,1.0,159.0,,,,,,,[],,,,,,53.2,0.0,u,0.0,True,1292.8999999761581,78.0,60.0,40.0,False,,285.4787598428747,[],"[960, 540]",ColorTask,83.0,43.0,,,HRV,HRV_0186,2022-11-30 18:39:51
,wl-rdm,160,392589,0.0-8.43-0.43,1.0,160.0,,,,,,,[],,,,,,56.4,0.0,u,0.0,True,827.5,50.0,60.0,40.0,False,,257.44523421954153,[],"[960, 540]",ColorTask,84.0,44.0,,,HRV,HRV_0186,2022-11-30 18:39:51
,wl-rdm,161,394739,0.0-8.44-0.44,1.0,161.0,,,,,,,[],,,,,,56.4,0.0,u,0.0,True,747.1000000238419,45.0,60.0,40.0,False,,331.4748702363056,[],"[960, 540]",ColorTask,85.0,45.0,,,HRV,HRV_0186,2022-11-30 18:39:51
,wl-rdm,162,396772,0.0-8.45-0.45,1.0,162.0,,,,,,,[],,,,,,53.2,0.0,u,0.0,True,653.3000000119209,40.0,60.0,40.0,False,,311.92564148377596,[],"[960, 540]",ColorTask,86.0,46.0,,,HRV,HRV_0186,2022-11-30 18:39:51
,wl-rdm,163,398822,0.0-8.46-0.46,1.0,163.0,,,,,,,[],,,,,,50.0,1.0,u,0.0,False,609.3000000119209,37.0,60.0,40.0,False,,367.11169341036333,[],"[960, 540]",ColorTask,85.0,47.0,,,HRV,HRV_0186,2022-11-30 18:39:51
,wl-rdm,164,401089,0.0-8.47-0.47,1.0,164.0,,,,,,,[],,,,,,50.0,0.0,u,0.0,True,973.6999999880791,59.0,60.0,40.0,False,,216.40293603780324,[],"[960, 540]",ColorTask,86.0,48.0,,,HRV,HRV_0186,2022-11-30 18:39:51
,wl-rdm,165,403106,0.0-8.48-0.48,1.0,165.0,,,,,,,[],,,,,,56.4,1.0,i,1.0,True,723.1999999880791,44.0,60.0,40.0,False,,214.17076543860404,[],"[960, 540]",ColorTask,87.0,49.0,,,HRV,HRV_0186,2022-11-30 18:39:51
,wl-rdm,166,405123,0.0-8.49-0.49,1.0,166.0,,,,,,,[],,,,,,73.6,0.0,i,1.0,False,664.1000000238419,40.0,60.0,40.0,False,,276.92378262281886,[],"[960, 540]",ColorTask,86.0,50.0,,,HRV,HRV_0186,2022-11-30 18:39:51
,wl-rdm,167,407223,0.0-8.50-0.50,1.0,167.0,,,,,,,[],,,,,,53.2,0.0,u,0.0,True,751.5999999642372,46.0,60.0,40.0,False,,252.0853509511826,[],"[960, 540]",ColorTask,87.0,51.0,,,HRV,HRV_0186,2022-11-30 18:39:51
,wl-rdm,168,409206,0.0-8.51-0.51,1.0,168.0,,,,,,,[],,,,,,87.9,0.0,u,0.0,True,635.3999999761581,39.0,60.0,40.0,False,,253.7385509087915,[],"[960, 540]",ColorTask,88.0,52.0,,,HRV,HRV_0186,2022-11-30 18:39:51
,wl-rdm,169,411039,0.0-8.52-0.52,1.0,169.0,,,,,,,[],,,,,,87.9,0.0,u,0.0,True,524.9000000357628,32.0,60.0,40.0,False,,243.1713819448045,[],"[960, 540]",ColorTask,89.0,53.0,,,HRV,HRV_0186,2022-11-30 18:39:51
,wl-rdm,170,413056,0.0-8.53-0.53,1.0,170.0,,,,,,,[],,,,,,56.4,0.0,u,0.0,True,624.6999999880791,38.0,60.0,40.0,False,,332.91991844059413,[],"[960, 540]",ColorTask,90.0,54.0,,,HRV,HRV_0186,2022-11-30 18:39:51
,wl-rdm,171,415306,0.0-8.54-0.54,1.0,171.0,,,,,,,[],,,,,,56.4,0.0,u,0.0,True,930.5999999642372,56.0,60.0,40.0,False,,252.1978905424209,[],"[960, 540]",ColorTask,91.0,55.0,,,HRV,HRV_0186,2022-11-30 18:39:51
,wl-rdm,172,417556,0.0-8.55-0.55,1.0,172.0,,,,,,,[],,,,,,53.2,1.0,u,0.0,False,953.4000000357628,58.0,60.0,40.0,False,,218.00242876211234,[],"[960, 540]",ColorTask,90.0,56.0,,,HRV,HRV_0186,2022-11-30 18:39:51
,wl-rdm,173,419540,0.0-8.56-0.56,1.0,173.0,,,,,,,[],,,,,,56.4,1.0,i,1.0,True,662.6999999880791,40.0,60.0,40.0,False,,240.7413062665639,[],"[960, 540]",ColorTask,91.0,57.0,,,HRV,HRV_0186,2022-11-30 18:39:51
,wl-rdm,174,422123,0.0-8.57-0.57,1.0,174.0,,,,,,,[],,,,,,50.0,1.0,i,1.0,True,1279.3999999761581,77.0,60.0,40.0,False,,238.0387729221149,[],"[960, 540]",ColorTask,92.0,58.0,,,HRV,HRV_0186,2022-11-30 18:39:51
,wl-rdm,175,424406,0.0-8.58-0.58,1.0,175.0,,,,,,,[],,,,,,56.4,0.0,u,0.0,True,1001.8000000119209,61.0,60.0,40.0,False,,200.09433523712605,[],"[960, 540]",ColorTask,93.0,59.0,,,HRV,HRV_0186,2022-11-30 18:39:51
,wl-rdm,176,426857,0.0-8.59-0.59,1.0,176.0,,,,,,,[],,,,,,50.0,1.0,i,1.0,True,1008.3000000119209,61.0,60.0,40.0,False,,352.14711812583084,[],"[960, 540]",ColorTask,94.0,60.0,,,HRV,HRV_0186,2022-11-30 18:39:51
,wl-rdm,177,428856,0.0-8.60-0.60,1.0,177.0,,,,,,,[],,,,,,87.9,1.0,i,1.0,True,657.8999999761581,40.0,60.0,40.0,False,,258.1668890670971,[],"[960, 540]",ColorTask,95.0,61.0,,,HRV,HRV_0186,2022-11-30 18:39:51
,wl-rdm,178,430857,0.0-8.61-0.61,1.0,178.0,,,,,,,[],,,,,,87.9,1.0,i,1.0,True,641.1000000238419,39.0,60.0,40.0,False,,269.94439120571997,[],"[960, 540]",ColorTask,96.0,62.0,,,HRV,HRV_0186,2022-11-30 18:39:51
,wl-rdm,179,433173,0.0-8.62-0.62,1.0,179.0,,,,,,,[],,,,,,53.2,1.0,i,1.0,True,969.1000000238419,59.0,60.0,40.0,False,,273.81691085401326,[],"[960, 540]",ColorTask,97.0,63.0,,,HRV,HRV_0186,2022-11-30 18:39:51
,wl-rdm,180,435207,0.0-8.63-0.63,1.0,180.0,,,,,,,[],,,,,,62.5,1.0,i,1.0,True,659.8999999761581,40.0,60.0,40.0,False,,287.47143729108836,[],"[960, 540]",ColorTask,98.0,64.0,,,HRV,HRV_0186,2022-11-30 18:39:51
,wl-rdm,181,437190,0.0-8.64-0.64,1.0,181.0,,,,,,,[],,,,,,87.9,0.0,u,0.0,True,559.8000000119209,34.0,60.0,40.0,False,,359.05030982339673,[],"[960, 540]",ColorTask,99.0,65.0,,,HRV,HRV_0186,2022-11-30 18:39:51
,wl-rdm,182,439090,0.0-8.65-0.65,1.0,182.0,,,,,,,[],,,,,,87.9,0.0,u,0.0,True,547.5,33.0,60.0,40.0,False,,269.49909149572073,[],"[960, 540]",ColorTask,100.0,66.0,,,HRV,HRV_0186,2022-11-30 18:39:51
,wl-rdm,183,440891,0.0-8.66-0.66,1.0,183.0,,,,,,,[],,,,,,87.9,0.0,u,0.0,True,530.3000000119209,32.0,60.0,40.0,False,,208.2764804497337,[],"[960, 540]",ColorTask,101.0,67.0,,,HRV,HRV_0186,2022-11-30 18:39:51
,wl-rdm,184,443341,0.0-8.67-0.67,1.0,184.0,,,,,,,[],,,,,,53.2,1.0,i,1.0,True,1087.4000000357628,66.0,60.0,40.0,False,,267.88846191230436,[],"[960, 540]",ColorTask,102.0,68.0,,,HRV,HRV_0186,2022-11-30 18:39:51
,wl-rdm,185,445458,0.0-8.68-0.68,1.0,185.0,,,,,,,[],,,,,,62.5,0.0,u,0.0,True,674.1999999880791,41.0,60.0,40.0,False,,362.69747083814553,[],"[960, 540]",ColorTask,103.0,69.0,,,HRV,HRV_0186,2022-11-30 18:39:51
,wl-rdm,186,447441,0.0-8.69-0.69,1.0,186.0,,,,,,,[],,,,,,73.6,0.0,u,0.0,True,615.7000000476837,37.0,60.0,40.0,False,,315.79437635741135,[],"[960, 540]",ColorTask,104.0,70.0,,,HRV,HRV_0186,2022-11-30 18:39:51
,wl-rdm,187,449874,0.0-8.70-0.70,1.0,187.0,,,,,,,[],,,,,,73.6,1.0,i,1.0,True,1006.6999999880791,61.0,60.0,40.0,False,,346.4584035316519,[],"[960, 540]",ColorTask,105.0,71.0,,,HRV,HRV_0186,2022-11-30 18:39:51
,wl-rdm,188,452025,0.0-8.71-0.71,1.0,188.0,,,,,,,[],,,,,,56.4,1.0,i,1.0,True,782.5999999642372,47.0,60.0,40.0,False,,305.4441840358206,[],"[960, 540]",ColorTask,106.0,72.0,,,HRV,HRV_0186,2022-11-30 18:39:51
,wl-rdm,189,454508,0.0-8.72-0.72,1.0,189.0,,,,,,,[],,,,,,62.5,0.0,u,0.0,True,1046.3999999761581,63.0,60.0,40.0,False,,353.15568117838814,[],"[960, 540]",ColorTask,107.0,73.0,,,HRV,HRV_0186,2022-11-30 18:39:51
,wl-rdm,190,456508,0.0-8.73-0.73,1.0,190.0,,,,,,,[],,,,,,62.5,0.0,u,0.0,True,629.1000000238419,38.0,60.0,40.0,False,,303.30417339188176,[],"[960, 540]",ColorTask,108.0,74.0,,,HRV,HRV_0186,2022-11-30 18:39:51
,wl-rdm,191,458508,0.0-8.74-0.74,1.0,191.0,,,,,,,[],,,,,,73.6,1.0,i,1.0,True,696.8000000119209,42.0,60.0,40.0,False,,231.64263160571636,[],"[960, 540]",ColorTask,109.0,75.0,,,HRV,HRV_0186,2022-11-30 18:39:51
,wl-rdm,192,460658,0.0-8.75-0.75,1.0,192.0,,,,,,,[],,,,,,56.4,1.0,i,1.0,True,797.6000000238419,48.0,60.0,40.0,False,,296.14094460387327,[],"[960, 540]",ColorTask,110.0,76.0,,,HRV,HRV_0186,2022-11-30 18:39:51
,wl-rdm,193,463275,0.0-8.76-0.76,1.0,193.0,,,,,,,[],,,,,,50.0,0.0,u,0.0,True,1239.699999988079,75.0,60.0,40.0,False,,287.9002681264723,[],"[960, 540]",ColorTask,111.0,77.0,,,HRV,HRV_0186,2022-11-30 18:39:51
,wl-rdm,194,465192,0.0-8.77-0.77,1.0,194.0,,,,,,,[],,,,,,87.9,1.0,i,1.0,True,585.1999999880791,36.0,60.0,40.0,False,,244.06397511945954,[],"[960, 540]",ColorTask,112.0,78.0,,,HRV,HRV_0186,2022-11-30 18:39:51
,wl-rdm,195,467092,0.0-8.78-0.78,1.0,195.0,,,,,,,[],,,,,,62.5,1.0,i,1.0,True,546.3000000119209,33.0,60.0,40.0,False,,286.0348450870795,[],"[960, 540]",ColorTask,113.0,79.0,,,HRV,HRV_0186,2022-11-30 18:39:51
,wl-rdm,196,469142,0.0-8.79-0.79,1.0,196.0,,,,,,,[],,,,,,73.6,1.0,i,1.0,True,595.1000000238419,36.0,60.0,40.0,False,,379.37639178450974,[],"[960, 540]",ColorTask,114.0,80.0,,,HRV,HRV_0186,2022-11-30 18:39:51
,wl-rdm,197,471242,0.0-8.80-0.80,1.0,197.0,,,,,,,[],,,,,,73.6,0.0,u,0.0,True,698.0,42.0,60.0,40.0,False,,321.43280742385195,[],"[960, 540]",ColorTask,115.0,81.0,,,HRV,HRV_0186,2022-11-30 18:39:51
,wl-rdm,198,473508,0.0-8.81-0.81,1.0,198.0,,,,,,,[],,,,,,53.2,1.0,i,1.0,True,861.9000000357628,52.0,60.0,40.0,False,,338.0993531199207,[],"[960, 540]",ColorTask,116.0,82.0,,,HRV,HRV_0186,2022-11-30 18:39:51
,wl-rdm,199,475375,0.0-8.82-0.82,1.0,199.0,,,,,,,[],,,,,,87.9,1.0,i,1.0,True,584.8000000119209,36.0,60.0,40.0,False,,206.07329051006616,[],"[960, 540]",ColorTask,117.0,83.0,,,HRV,HRV_0186,2022-11-30 18:39:51
,wl-rdm,200,477342,0.0-8.83-0.83,1.0,200.0,,,,,,,[],,,,,,62.5,0.0,i,1.0,False,685.8999999761581,42.0,60.0,40.0,False,,213.74998487397528,[],"[960, 540]",ColorTask,116.0,84.0,,,HRV,HRV_0186,2022-11-30 18:39:51
,wl-rdm,201,479725,0.0-8.84-0.84,1.0,201.0,,,,,,,[],,,,,,50.0,1.0,u,0.0,False,1036.800000011921,63.0,60.0,40.0,False,,274.13626105163615,[],"[960, 540]",ColorTask,115.0,85.0,,,HRV,HRV_0186,2022-11-30 18:39:51
,wl-rdm,202,481892,0.0-8.85-0.85,1.0,202.0,,,,,,,[],,,,,,53.2,0.0,u,0.0,True,855.1999999880791,52.0,60.0,40.0,False,,219.30872294805977,[],"[960, 540]",ColorTask,116.0,86.0,,,HRV,HRV_0186,2022-11-30 18:39:51
,wl-rdm,203,483925,0.0-8.86-0.86,1.0,203.0,,,,,,,[],,,,,,87.9,0.0,u,0.0,True,628.4000000357628,38.0,60.0,40.0,False,,320.49921008746753,[],"[960, 540]",ColorTask,117.0,87.0,,,HRV,HRV_0186,2022-11-30 18:39:51
,wl-rdm,204,486092,0.0-8.87-0.87,1.0,204.0,,,,,,,[],,,,,,62.5,1.0,i,1.0,True,855.1000000238419,52.0,60.0,40.0,False,,223.72028246748184,[],"[960, 540]",ColorTask,118.0,88.0,,,HRV,HRV_0186,2022-11-30 18:39:51
,wl-rdm,205,488359,0.0-8.88-0.88,1.0,205.0,,,,,,,[],,,,,,62.5,0.0,u,0.0,True,902.1999999880791,55.0,60.0,40.0,False,,267.27369701302416,[],"[960, 540]",ColorTask,119.0,89.0,,,HRV,HRV_0186,2022-11-30 18:39:51
,wl-rdm,206,491159,0.0-8.89-0.89,1.0,206.0,,,,,,,[],,,,,,53.2,0.0,i,1.0,False,1452.3999999761581,88.0,60.0,40.0,False,,260.5755171309446,[],"[960, 540]",ColorTask,118.0,90.0,,,HRV,HRV_0186,2022-11-30 18:39:51
,wl-rdm,207,493192,0.0-8.90-0.90,1.0,207.0,,,,,,,[],,,,,,62.5,1.0,i,1.0,True,734.4000000357628,45.0,60.0,40.0,False,,210.77391090134964,[],"[960, 540]",ColorTask,119.0,91.0,,,HRV,HRV_0186,2022-11-30 18:39:51
,wl-rdm,208,495092,0.0-8.91-0.91,1.0,208.0,,,,,,,[],,,,,,87.9,1.0,i,1.0,True,612.8999999761581,37.0,60.0,40.0,False,,214.9315444624756,[],"[960, 540]",ColorTask,120.0,92.0,,,HRV,HRV_0186,2022-11-30 18:39:51
,wl-rdm,209,497026,0.0-8.92-0.92,1.0,209.0,,,,,,,[],,,,,,73.6,1.0,i,1.0,True,573.5,35.0,60.0,40.0,False,,297.14499002587223,[],"[960, 540]",ColorTask,121.0,93.0,,,HRV,HRV_0186,2022-11-30 18:39:51
,wl-rdm,210,499192,0.0-8.93-0.93,1.0,210.0,,,,,,,[],,,,,,50.0,1.0,u,0.0,False,750.9000000357628,46.0,60.0,40.0,False,,318.0421585420601,[],"[960, 540]",ColorTask,120.0,94.0,,,HRV,HRV_0186,2022-11-30 18:39:51
,wl-rdm,211,501175,0.0-8.94-0.94,1.0,211.0,,,,,,,[],,,,,,50.0,0.0,i,1.0,False,692.5,42.0,60.0,40.0,False,,230.63354896481565,[],"[960, 540]",ColorTask,119.0,95.0,,,HRV,HRV_0186,2022-11-30 18:39:51
,wl-rdm,212,503275,0.0-8.95-0.95,1.0,212.0,,,,,,,[],,,,,,56.4,0.0,i,1.0,False,771.9000000357628,47.0,60.0,40.0,False,,237.7026324627964,[],"[960, 540]",ColorTask,118.0,96.0,,,HRV,HRV_0186,2022-11-30 18:39:51
,wl-rdm,213,505292,0.0-8.96-0.96,1.0,213.0,,,,,,,[],,,,,,73.6,0.0,u,0.0,True,687.9000000357628,42.0,60.0,40.0,False,,238.14586906939255,[],"[960, 540]",ColorTask,119.0,97.0,,,HRV,HRV_0186,2022-11-30 18:39:51
,wl-rdm,214,507542,0.0-8.97-0.97,1.0,214.0,,,,,,,[],,,,,,56.4,1.0,u,0.0,False,860.5,52.0,60.0,40.0,False,,306.2207777723437,[],"[960, 540]",ColorTask,118.0,98.0,,,HRV,HRV_0186,2022-11-30 18:39:51
,wl-rdm,215,509542,0.0-8.98-0.98,1.0,215.0,,,,,,,[],,,,,,87.9,1.0,i,1.0,True,601.8999999761581,37.0,60.0,40.0,False,,326.94217100771067,[],"[960, 540]",ColorTask,119.0,99.0,,,HRV,HRV_0186,2022-11-30 18:39:51
,wl-rdm,216,511542,0.0-8.99-0.99,1.0,216.0,,,,,,,[],,,,,,87.9,0.0,u,0.0,True,660.0999999642372,40.0,60.0,40.0,False,,278.78177573407424,[],"[960, 540]",ColorTask,120.0,100.0,,,HRV,HRV_0186,2022-11-30 18:39:51
,wl-rdm,217,513742,0.0-8.100-0.100,1.0,217.0,,,,,,,[],,,,,,50.0,0.0,u,0.0,True,785.5,48.0,60.0,40.0,False,,320.4081227705357,[],"[960, 540]",ColorTask,121.0,101.0,,,HRV,HRV_0186,2022-11-30 18:39:51
,wl-rdm,218,516076,0.0-8.101-0.101,1.0,218.0,,,,,,,[],,,,,,53.2,1.0,u,0.0,False,954.8999999761581,58.0,60.0,40.0,False,,288.1699976065248,[],"[960, 540]",ColorTask,120.0,102.0,,,HRV,HRV_0186,2022-11-30 18:39:51
,wl-rdm,219,518426,0.0-8.102-0.102,1.0,219.0,,,,,,,[],,,,,,56.4,1.0,i,1.0,True,1014.4000000357628,61.0,60.0,40.0,False,,269.651041508005,[],"[960, 540]",ColorTask,121.0,103.0,,,HRV,HRV_0186,2022-11-30 18:39:51
,wl-rdm,220,520909,0.0-8.103-0.103,1.0,220.0,,,,,,,[],,,,,,53.2,1.0,i,1.0,True,1161.300000011921,70.0,60.0,40.0,False,,245.36459343028213,[],"[960, 540]",ColorTask,122.0,104.0,,,HRV,HRV_0186,2022-11-30 18:39:51
,wl-rdm,221,523126,0.0-8.104-0.104,1.0,221.0,,,,,,,[],,,,,,50.0,1.0,u,0.0,False,744.2000000476837,45.0,60.0,40.0,False,,390.9566861930918,[],"[960, 540]",ColorTask,121.0,105.0,,,HRV,HRV_0186,2022-11-30 18:39:51
,wl-rdm,222,525342,0.0-8.105-0.105,1.0,222.0,,,,,,,[],,,,,,56.4,1.0,i,1.0,True,884.9000000357628,54.0,60.0,40.0,False,,240.49760948320233,[],"[960, 540]",ColorTask,122.0,106.0,,,HRV,HRV_0186,2022-11-30 18:39:51
,wl-rdm,223,527443,0.0-8.106-0.106,1.0,223.0,,,,,,,[],,,,,,62.5,0.0,u,0.0,True,806.0,49.0,60.0,40.0,False,,212.63163010274397,[],"[960, 540]",ColorTask,123.0,107.0,,,HRV,HRV_0186,2022-11-30 18:39:51
,wl-rdm,224,529859,0.0-8.107-0.107,1.0,224.0,,,,,,,[],,,,,,56.4,1.0,i,1.0,True,938.4000000357628,57.0,60.0,40.0,False,,398.24081429605917,[],"[960, 540]",ColorTask,124.0,108.0,,,HRV,HRV_0186,2022-11-30 18:39:51
,wl-html-button-response,225,532234,0.0-9.0-0.0,,,,,,,,,,2372.399999976158,,0,,,,,,,,,,,,,,,,,,,,<h3>End of this session. Thank you!</h3><br>,['Close window'],HRV,HRV_0186,2022-11-30 18:39:51
