trialN,stimuli,trialStartTime,trialStartTime_UNIX,stimulus1,stimulus2,stimulus1Bid,stimulus2Bid,delta,selected,rt,rt_UNIX,rt_perfnow,receivedResponse,rsp,trialEndTime,trialDuration,trialEndTime_UNIX,trialDuration_UNIX,exp,subjectId,date
0,"[{'imgObject': {}, 'id': 'mango', 'src': '/static/foodstim60/mango.jpg', 'key': 'u', 'origWidth': 411, 'origHeight': 411, 'width': 411, 'height': 411, 'widthPercent': 0.45, 'rescaleHeight': False, 'trialN': 0, 'loaded': True, 'loadedTime': 2346.3000000715256, 'positionName': 'LEFT', 'positionCoords': [317.16, 221], 'bid': 5.42}, {'imgObject': {}, 'id': 'chickenfingers', 'src': '/static/foodstim60/chickenfingers.jpg', 'key': 'i', 'origWidth': 410, 'origHeight': 410, 'width': 410, 'height': 410, 'widthPercent': 0.45, 'rescaleHeight': False, 'trialN': 0, 'loaded': True, 'loadedTime': 2830.2000000476837, 'positionName': 'RIGHT', 'positionCoords': [788.84, 221.5], 'bid': 6.47}]",3379.100000023842,1669840664243,mango,chickenfingers,5.42,6.47,1.0499999999999998,chickenfingers,1293.0,1294,1293.6000000238419,True,i,5182.300000071526,1803.2000000476837,1669840666046,1803,HRV,HRV_0117,2022-11-30 19:51:44
1,"[{'imgObject': {}, 'id': 'chickenfingers', 'src': '/static/foodstim60/chickenfingers.jpg', 'key': 'u', 'origWidth': 410, 'origHeight': 410, 'width': 410, 'height': 410, 'widthPercent': 0.45, 'rescaleHeight': False, 'trialN': 1, 'loaded': True, 'loadedTime': 2836.2000000476837, 'positionName': 'LEFT', 'positionCoords': [318.16, 221.5], 'bid': 6.47}, {'imgObject': {}, 'id': 'grilled chicken strips', 'src': '/static/foodstim60/grilled chicken strips.jpg', 'key': 'i', 'origWidth': 410, 'origHeight': 411, 'width': 410, 'height': 411, 'widthPercent': 0.45, 'rescaleHeight': False, 'trialN': 1, 'loaded': True, 'loadedTime': 2903.7000000476837, 'positionName': 'RIGHT', 'positionCoords': [788.84, 221], 'bid': 7.7}]",5182.600000023842,1669840666047,chickenfingers,grilled chicken strips,6.47,7.7,1.2300000000000004,grilled chicken strips,1290.0,1290,1290.3000000715256,True,i,6981.900000095367,1799.3000000715256,1669840667846,1799,HRV,HRV_0117,2022-11-30 19:51:44
2,"[{'imgObject': {}, 'id': 'turkeysandwich', 'src': '/static/foodstim60/turkeysandwich.jpg', 'key': 'u', 'origWidth': 409, 'origHeight': 409, 'width': 409, 'height': 409, 'widthPercent': 0.45, 'rescaleHeight': False, 'trialN': 2, 'loaded': True, 'loadedTime': 2982.9000000953674, 'positionName': 'LEFT', 'positionCoords': [319.16, 222], 'bid': 6.07}, {'imgObject': {}, 'id': 'cantaloupe', 'src': '/static/foodstim60/cantaloupe.jpg', 'key': 'i', 'origWidth': 409, 'origHeight': 409, 'width': 409, 'height': 409, 'widthPercent': 0.45, 'rescaleHeight': False, 'trialN': 2, 'loaded': True, 'loadedTime': 2992.600000023842, 'positionName': 'RIGHT', 'positionCoords': [788.84, 222], 'bid': 5.96}]",6982.200000047684,1669840667846,turkeysandwich,cantaloupe,6.07,5.96,-0.11000000000000032,turkeysandwich,1050.7000000476837,1051,1051.0,True,u,8535.700000047684,1553.5,1669840669400,1554,HRV,HRV_0117,2022-11-30 19:51:44
3,"[{'imgObject': {}, 'id': 'burrito', 'src': '/static/foodstim60/burrito.jpg', 'key': 'u', 'origWidth': 410, 'origHeight': 410, 'width': 410, 'height': 410, 'widthPercent': 0.45, 'rescaleHeight': False, 'trialN': 3, 'loaded': True, 'loadedTime': 3006.600000023842, 'positionName': 'LEFT', 'positionCoords': [318.16, 221.5], 'bid': 5.71}, {'imgObject': {}, 'id': 'tacos', 'src': '/static/foodstim60/tacos.jpg', 'key': 'i', 'origWidth': 411, 'origHeight': 411, 'width': 411, 'height': 411, 'widthPercent': 0.45, 'rescaleHeight': False, 'trialN': 3, 'loaded': True, 'loadedTime': 3033.8000000715256, 'positionName': 'RIGHT', 'positionCoords': [788.84, 221], 'bid': 5.74}]",8536.0,1669840669400,burrito,tacos,5.71,5.74,0.03000000000000025,tacos,1112.2000000476837,1113,1112.5,True,i,10156.100000023842,1620.1000000238419,1669840671020,1620,HRV,HRV_0117,2022-11-30 19:51:44
4,"[{'imgObject': {}, 'id': 'steak', 'src': '/static/foodstim60/steak.jpg', 'key': 'u', 'origWidth': 410, 'origHeight': 410, 'width': 410, 'height': 410, 'widthPercent': 0.45, 'rescaleHeight': False, 'trialN': 4, 'loaded': True, 'loadedTime': 3075.3000000715256, 'positionName': 'LEFT', 'positionCoords': [318.16, 221.5], 'bid': 9.7}, {'imgObject': {}, 'id': 'baked potato', 'src': '/static/foodstim60/baked potato.jpg', 'key': 'i', 'origWidth': 409, 'origHeight': 410, 'width': 409, 'height': 410, 'widthPercent': 0.45, 'rescaleHeight': False, 'trialN': 4, 'loaded': True, 'loadedTime': 3081, 'positionName': 'RIGHT', 'positionCoords': [788.84, 221.5], 'bid': 7.88}]",10156.600000023842,1669840671021,steak,baked potato,9.7,7.88,-1.8199999999999994,steak,894.7000000476837,895,895.1000000238419,True,u,11566.700000047684,1410.1000000238419,1669840672431,1410,HRV,HRV_0117,2022-11-30 19:51:44
5,"[{'imgObject': {}, 'id': 'ice cream sundae 002', 'src': '/static/foodstim60/ice cream sundae 002.jpg', 'key': 'u', 'origWidth': 409, 'origHeight': 409, 'width': 409, 'height': 409, 'widthPercent': 0.45, 'rescaleHeight': False, 'trialN': 5, 'loaded': True, 'loadedTime': 3116.2000000476837, 'positionName': 'LEFT', 'positionCoords': [319.16, 222], 'bid': 6.94}, {'imgObject': {}, 'id': 'grilled chicken strips', 'src': '/static/foodstim60/grilled chicken strips.jpg', 'key': 'i', 'origWidth': 410, 'origHeight': 411, 'width': 410, 'height': 411, 'widthPercent': 0.45, 'rescaleHeight': False, 'trialN': 5, 'loaded': True, 'loadedTime': 2897.4000000953674, 'positionName': 'RIGHT', 'positionCoords': [788.84, 221], 'bid': 7.7}]",11567.100000023842,1669840672431,ice cream sundae 002,grilled chicken strips,6.94,7.7,0.7599999999999998,grilled chicken strips,949.5,950,949.8999999761581,True,i,13030.0,1462.8999999761581,1669840673894,1463,HRV,HRV_0117,2022-11-30 19:51:44
6,"[{'imgObject': {}, 'id': 'fried eggs', 'src': '/static/foodstim60/fried eggs.jpg', 'key': 'u', 'origWidth': 410, 'origHeight': 410, 'width': 410, 'height': 410, 'widthPercent': 0.45, 'rescaleHeight': False, 'trialN': 6, 'loaded': True, 'loadedTime': 3116.5, 'positionName': 'LEFT', 'positionCoords': [318.16, 221.5], 'bid': 6.0200000000000005}, {'imgObject': {}, 'id': 'orange slices', 'src': '/static/foodstim60/orange slices.jpg', 'key': 'i', 'origWidth': 409, 'origHeight': 410, 'width': 409, 'height': 410, 'widthPercent': 0.45, 'rescaleHeight': False, 'trialN': 6, 'loaded': True, 'loadedTime': 3159, 'positionName': 'RIGHT', 'positionCoords': [788.84, 221.5], 'bid': 5.91}]",13030.300000071526,1669840673894,fried eggs,orange slices,6.0200000000000005,5.91,-0.11000000000000032,orange slices,1111.6000000238419,1112,1112.0,True,i,14658.200000047684,1627.8999999761581,1669840675522,1628,HRV,HRV_0117,2022-11-30 19:51:44
7,"[{'imgObject': {}, 'id': 'salad w chicken', 'src': '/static/foodstim60/salad w chicken.jpg', 'key': 'u', 'origWidth': 411, 'origHeight': 411, 'width': 411, 'height': 411, 'widthPercent': 0.45, 'rescaleHeight': False, 'trialN': 7, 'loaded': True, 'loadedTime': 3179.2000000476837, 'positionName': 'LEFT', 'positionCoords': [317.16, 221], 'bid': 0.77}, {'imgObject': {}, 'id': 'edamame', 'src': '/static/foodstim60/edamame.jpg', 'key': 'i', 'origWidth': 409, 'origHeight': 410, 'width': 409, 'height': 410, 'widthPercent': 0.45, 'rescaleHeight': False, 'trialN': 7, 'loaded': True, 'loadedTime': 3226.9000000953674, 'positionName': 'RIGHT', 'positionCoords': [788.84, 221.5], 'bid': 0.31}]",14658.600000023842,1669840675523,salad w chicken,edamame,0.77,0.31,-0.46,salad w chicken,1885.5,1886,1886.0,True,u,17060.900000095367,2402.3000000715256,1669840677925,2402,HRV,HRV_0117,2022-11-30 19:51:44
8,"[{'imgObject': {}, 'id': 'burrito', 'src': '/static/foodstim60/burrito.jpg', 'key': 'u', 'origWidth': 410, 'origHeight': 410, 'width': 410, 'height': 410, 'widthPercent': 0.45, 'rescaleHeight': False, 'trialN': 8, 'loaded': True, 'loadedTime': 3001, 'positionName': 'LEFT', 'positionCoords': [318.16, 221.5], 'bid': 5.71}, {'imgObject': {}, 'id': 'eggs', 'src': '/static/foodstim60/eggs.jpg', 'key': 'i', 'origWidth': 409, 'origHeight': 409, 'width': 409, 'height': 409, 'widthPercent': 0.45, 'rescaleHeight': False, 'trialN': 8, 'loaded': True, 'loadedTime': 3227.3000000715256, 'positionName': 'RIGHT', 'positionCoords': [788.84, 222], 'bid': 4.7}]",17061.300000071526,1669840677925,burrito,eggs,5.71,4.7,-1.0099999999999998,burrito,1803.5,1804,1803.8999999761581,True,u,19368.600000023842,2307.2999999523163,1669840680233,2308,HRV,HRV_0117,2022-11-30 19:51:44
9,"[{'imgObject': {}, 'id': 'popsicles', 'src': '/static/foodstim60/popsicles.jpg', 'key': 'u', 'origWidth': 410, 'origHeight': 410, 'width': 410, 'height': 410, 'widthPercent': 0.45, 'rescaleHeight': False, 'trialN': 9, 'loaded': True, 'loadedTime': 3367.8000000715256, 'positionName': 'LEFT', 'positionCoords': [318.16, 221.5], 'bid': 6.6000000000000005}, {'imgObject': {}, 'id': 'shreddedwheatwithmilk', 'src': '/static/foodstim60/shreddedwheatwithmilk.jpg', 'key': 'i', 'origWidth': 410, 'origHeight': 410, 'width': 410, 'height': 410, 'widthPercent': 0.45, 'rescaleHeight': False, 'trialN': 9, 'loaded': True, 'loadedTime': 2385.9000000953674, 'positionName': 'RIGHT', 'positionCoords': [788.84, 221.5], 'bid': 6.43}]",19368.900000095367,1669840680233,popsicles,shreddedwheatwithmilk,6.6000000000000005,6.43,-0.17000000000000082,popsicles,1445.5999999046326,1446,1446.0,True,u,21325.800000071526,1956.8999999761581,1669840682190,1957,HRV,HRV_0117,2022-11-30 19:51:44
10,"[{'imgObject': {}, 'id': 'blackbeanswithrice', 'src': '/static/foodstim60/blackbeanswithrice.jpg', 'key': 'u', 'origWidth': 410, 'origHeight': 410, 'width': 410, 'height': 410, 'widthPercent': 0.45, 'rescaleHeight': False, 'trialN': 10, 'loaded': True, 'loadedTime': 2400.3000000715256, 'positionName': 'LEFT', 'positionCoords': [318.16, 221.5], 'bid': 1.46}, {'imgObject': {}, 'id': 'lox', 'src': '/static/foodstim60/lox.jpg', 'key': 'i', 'origWidth': 410, 'origHeight': 411, 'width': 410, 'height': 411, 'widthPercent': 0.45, 'rescaleHeight': False, 'trialN': 10, 'loaded': True, 'loadedTime': 2437.7000000476837, 'positionName': 'RIGHT', 'positionCoords': [788.84, 221], 'bid': 0.95}]",21326.200000047684,1669840682190,blackbeanswithrice,lox,1.46,0.95,-0.51,blackbeanswithrice,1941.8999999761581,1942,1942.2999999523163,True,u,23786.0,2459.7999999523163,1669840684650,2460,HRV,HRV_0117,2022-11-30 19:51:44
11,"[{'imgObject': {}, 'id': 'hotdog w must', 'src': '/static/foodstim60/hotdog w must.jpg', 'key': 'u', 'origWidth': 409, 'origHeight': 409, 'width': 409, 'height': 409, 'widthPercent': 0.45, 'rescaleHeight': False, 'trialN': 11, 'loaded': True, 'loadedTime': 2465.7000000476837, 'positionName': 'LEFT', 'positionCoords': [319.16, 222], 'bid': 6.37}, {'imgObject': {}, 'id': 'chickenfingers', 'src': '/static/foodstim60/chickenfingers.jpg', 'key': 'i', 'origWidth': 410, 'origHeight': 410, 'width': 410, 'height': 410, 'widthPercent': 0.45, 'rescaleHeight': False, 'trialN': 11, 'loaded': True, 'loadedTime': 2831.7000000476837, 'positionName': 'RIGHT', 'positionCoords': [788.84, 221.5], 'bid': 6.47}]",23786.300000071526,1669840684650,hotdog w must,chickenfingers,6.37,6.47,0.09999999999999964,chickenfingers,1091.2999999523163,1092,1091.6000000238419,True,i,25388.100000023842,1601.7999999523163,1669840686252,1602,HRV,HRV_0117,2022-11-30 19:51:44
12,"[{'imgObject': {}, 'id': 'cherries', 'src': '/static/foodstim60/cherries.jpg', 'key': 'u', 'origWidth': 410, 'origHeight': 411, 'width': 410, 'height': 411, 'widthPercent': 0.45, 'rescaleHeight': False, 'trialN': 12, 'loaded': True, 'loadedTime': 2494.8000000715256, 'positionName': 'LEFT', 'positionCoords': [318.16, 221], 'bid': 7.47}, {'imgObject': {}, 'id': 'fried eggs', 'src': '/static/foodstim60/fried eggs.jpg', 'key': 'i', 'origWidth': 410, 'origHeight': 410, 'width': 410, 'height': 410, 'widthPercent': 0.45, 'rescaleHeight': False, 'trialN': 12, 'loaded': True, 'loadedTime': 3137.7000000476837, 'positionName': 'RIGHT', 'positionCoords': [788.84, 221.5], 'bid': 6.0200000000000005}]",25388.5,1669840686252,cherries,fried eggs,7.47,6.0200000000000005,-1.4499999999999993,cherries,1666.2000000476837,1667,1666.6000000238419,True,u,27565.200000047684,2176.7000000476837,1669840688429,2177,HRV,HRV_0117,2022-11-30 19:51:44
13,"[{'imgObject': {}, 'id': 'blackbeanswithrice', 'src': '/static/foodstim60/blackbeanswithrice.jpg', 'key': 'u', 'origWidth': 410, 'origHeight': 410, 'width': 410, 'height': 410, 'widthPercent': 0.45, 'rescaleHeight': False, 'trialN': 13, 'loaded': True, 'loadedTime': 2416.3000000715256, 'positionName': 'LEFT', 'positionCoords': [318.16, 221.5], 'bid': 1.46}, {'imgObject': {}, 'id': 'cantaloupe', 'src': '/static/foodstim60/cantaloupe.jpg', 'key': 'i', 'origWidth': 409, 'origHeight': 409, 'width': 409, 'height': 409, 'widthPercent': 0.45, 'rescaleHeight': False, 'trialN': 13, 'loaded': True, 'loadedTime': 2992.5, 'positionName': 'RIGHT', 'positionCoords': [788.84, 222], 'bid': 5.96}]",27565.5,1669840688429,blackbeanswithrice,cantaloupe,1.46,5.96,4.5,cantaloupe,2918.2000000476837,2919,2918.600000023842,True,i,31004.5,3439.0,1669840691869,3440,HRV,HRV_0117,2022-11-30 19:51:44
14,"[{'imgObject': {}, 'id': 'burrito', 'src': '/static/foodstim60/burrito.jpg', 'key': 'u', 'origWidth': 410, 'origHeight': 410, 'width': 410, 'height': 410, 'widthPercent': 0.45, 'rescaleHeight': False, 'trialN': 14, 'loaded': True, 'loadedTime': 3018.4000000953674, 'positionName': 'LEFT', 'positionCoords': [318.16, 221.5], 'bid': 5.71}, {'imgObject': {}, 'id': 'edamame', 'src': '/static/foodstim60/edamame.jpg', 'key': 'i', 'origWidth': 409, 'origHeight': 410, 'width': 409, 'height': 410, 'widthPercent': 0.45, 'rescaleHeight': False, 'trialN': 14, 'loaded': True, 'loadedTime': 3226.600000023842, 'positionName': 'RIGHT', 'positionCoords': [788.84, 221.5], 'bid': 0.31}]",31004.700000047684,1669840691869,burrito,edamame,5.71,0.31,-5.4,burrito,1376.2999999523163,1377,1376.7000000476837,True,u,32898.10000002384,1893.3999999761581,1669840693763,1894,HRV,HRV_0117,2022-11-30 19:51:44
15,"[{'imgObject': {}, 'id': 'salad w chicken', 'src': '/static/foodstim60/salad w chicken.jpg', 'key': 'u', 'origWidth': 411, 'origHeight': 411, 'width': 411, 'height': 411, 'widthPercent': 0.45, 'rescaleHeight': False, 'trialN': 15, 'loaded': True, 'loadedTime': 3200.4000000953674, 'positionName': 'LEFT', 'positionCoords': [317.16, 221], 'bid': 0.77}, {'imgObject': {}, 'id': 'mashed potato', 'src': '/static/foodstim60/mashed potato.jpg', 'key': 'i', 'origWidth': 409, 'origHeight': 409, 'width': 409, 'height': 409, 'widthPercent': 0.45, 'rescaleHeight': False, 'trialN': 15, 'loaded': True, 'loadedTime': 2534.5, 'positionName': 'RIGHT', 'positionCoords': [788.84, 222], 'bid': 4.03}]",32898.5,1669840693763,salad w chicken,mashed potato,0.77,4.03,3.2600000000000002,mashed potato,1160.8000000715256,1161,1161.2000000476837,True,i,34578.10000002384,1679.6000000238419,1669840695443,1680,HRV,HRV_0117,2022-11-30 19:51:44
16,"[{'imgObject': {}, 'id': 'turkeysandwich', 'src': '/static/foodstim60/turkeysandwich.jpg', 'key': 'u', 'origWidth': 409, 'origHeight': 409, 'width': 409, 'height': 409, 'widthPercent': 0.45, 'rescaleHeight': False, 'trialN': 16, 'loaded': True, 'loadedTime': 2982.7000000476837, 'positionName': 'LEFT', 'positionCoords': [319.16, 222], 'bid': 6.07}, {'imgObject': {}, 'id': 'shreddedwheatwithmilk', 'src': '/static/foodstim60/shreddedwheatwithmilk.jpg', 'key': 'i', 'origWidth': 410, 'origHeight': 410, 'width': 410, 'height': 410, 'widthPercent': 0.45, 'rescaleHeight': False, 'trialN': 16, 'loaded': True, 'loadedTime': 2394.7000000476837, 'positionName': 'RIGHT', 'positionCoords': [788.84, 221.5], 'bid': 6.43}]",34578.40000009537,1669840695443,turkeysandwich,shreddedwheatwithmilk,6.07,6.43,0.35999999999999943,turkeysandwich,843.3999999761581,844,843.7999999523163,True,u,35929.40000009537,1351.0,1669840696794,1351,HRV,HRV_0117,2022-11-30 19:51:44
17,"[{'imgObject': {}, 'id': 'luckycharms', 'src': '/static/foodstim60/luckycharms.jpg', 'key': 'u', 'origWidth': 410, 'origHeight': 409, 'width': 410, 'height': 409, 'widthPercent': 0.45, 'rescaleHeight': False, 'trialN': 17, 'loaded': True, 'loadedTime': 2538.7000000476837, 'positionName': 'LEFT', 'positionCoords': [318.16, 222], 'bid': 2.69}, {'imgObject': {}, 'id': 'raisin bran w milk', 'src': '/static/foodstim60/raisin bran w milk.jpg', 'key': 'i', 'origWidth': 411, 'origHeight': 411, 'width': 411, 'height': 411, 'widthPercent': 0.45, 'rescaleHeight': False, 'trialN': 17, 'loaded': True, 'loadedTime': 2573, 'positionName': 'RIGHT', 'positionCoords': [788.84, 221], 'bid': 6.28}]",35929.700000047684,1669840696794,luckycharms,raisin bran w milk,2.69,6.28,3.5900000000000003,raisin bran w milk,1056.8999999761581,1058,1057.3999999761581,True,i,37497.700000047684,1568.0,1669840698362,1568,HRV,HRV_0117,2022-11-30 19:51:44
18,"[{'imgObject': {}, 'id': 'raisin bran w milk', 'src': '/static/foodstim60/raisin bran w milk.jpg', 'key': 'u', 'origWidth': 411, 'origHeight': 411, 'width': 411, 'height': 411, 'widthPercent': 0.45, 'rescaleHeight': False, 'trialN': 18, 'loaded': True, 'loadedTime': 2581.2000000476837, 'positionName': 'LEFT', 'positionCoords': [317.16, 221], 'bid': 6.28}, {'imgObject': {}, 'id': 'froot loops w milk', 'src': '/static/foodstim60/froot loops w milk.jpg', 'key': 'i', 'origWidth': 410, 'origHeight': 410, 'width': 410, 'height': 410, 'widthPercent': 0.45, 'rescaleHeight': False, 'trialN': 18, 'loaded': True, 'loadedTime': 2591.3000000715256, 'positionName': 'RIGHT', 'positionCoords': [788.84, 221.5], 'bid': 6.28}]",37498.10000002384,1669840698363,raisin bran w milk,froot loops w milk,6.28,6.28,0.0,raisin bran w milk,657.5,658,657.8999999761581,True,u,38675.60000002384,1177.5,1669840699540,1177,HRV,HRV_0117,2022-11-30 19:51:44
19,"[{'imgObject': {}, 'id': 'avocado', 'src': '/static/foodstim60/avocado.jpg', 'key': 'u', 'origWidth': 409, 'origHeight': 409, 'width': 409, 'height': 409, 'widthPercent': 0.45, 'rescaleHeight': False, 'trialN': 19, 'loaded': True, 'loadedTime': 2638.5, 'positionName': 'LEFT', 'positionCoords': [319.16, 222], 'bid': 4.5}, {'imgObject': {}, 'id': 'lox', 'src': '/static/foodstim60/lox.jpg', 'key': 'i', 'origWidth': 410, 'origHeight': 411, 'width': 410, 'height': 411, 'widthPercent': 0.45, 'rescaleHeight': False, 'trialN': 19, 'loaded': True, 'loadedTime': 2437.9000000953674, 'positionName': 'RIGHT', 'positionCoords': [788.84, 221], 'bid': 0.95}]",38675.90000009537,1669840699541,avocado,lox,4.5,0.95,-3.55,avocado,1219.5999999046326,1220,1220.0,True,u,40400.5,1724.5999999046326,1669840701265,1724,HRV,HRV_0117,2022-11-30 19:51:44
20,"[{'imgObject': {}, 'id': 'bagel plain', 'src': '/static/foodstim60/bagel plain.jpg', 'key': 'u', 'origWidth': 410, 'origHeight': 410, 'width': 410, 'height': 410, 'widthPercent': 0.45, 'rescaleHeight': False, 'trialN': 20, 'loaded': True, 'loadedTime': 2644, 'positionName': 'LEFT', 'positionCoords': [318.16, 221.5], 'bid': 0.88}, {'imgObject': {}, 'id': 'sushi w_condiments', 'src': '/static/foodstim60/sushi w_condiments.jpg', 'key': 'i', 'origWidth': 410, 'origHeight': 410, 'width': 410, 'height': 410, 'widthPercent': 0.45, 'rescaleHeight': False, 'trialN': 20, 'loaded': True, 'loadedTime': 2671.9000000953674, 'positionName': 'RIGHT', 'positionCoords': [788.84, 221.5], 'bid': 3.58}]",40400.700000047684,1669840701265,bagel plain,sushi w_condiments,0.88,3.58,2.7,bagel plain,1393.2000000476837,1394,1393.5,True,u,42296.40000009537,1895.7000000476837,1669840703161,1896,HRV,HRV_0117,2022-11-30 19:51:44
21,"[{'imgObject': {}, 'id': 'turkey sandwich', 'src': '/static/foodstim60/turkey sandwich.jpg', 'key': 'u', 'origWidth': 409, 'origHeight': 409, 'width': 409, 'height': 409, 'widthPercent': 0.45, 'rescaleHeight': False, 'trialN': 21, 'loaded': True, 'loadedTime': 2692.600000023842, 'positionName': 'LEFT', 'positionCoords': [319.16, 222], 'bid': 6.2}, {'imgObject': {}, 'id': 'chicken nuggets2', 'src': '/static/foodstim60/chicken nuggets2.jpg', 'key': 'i', 'origWidth': 410, 'origHeight': 409, 'width': 410, 'height': 409, 'widthPercent': 0.45, 'rescaleHeight': False, 'trialN': 21, 'loaded': True, 'loadedTime': 2720.600000023842, 'positionName': 'RIGHT', 'positionCoords': [788.84, 222], 'bid': 7.61}]",42296.700000047684,1669840703161,turkey sandwich,chicken nuggets2,6.2,7.61,1.4100000000000001,chicken nuggets2,1350.2000000476837,1351,1350.7000000476837,True,i,44163.10000002384,1866.3999999761581,1669840705028,1867,HRV,HRV_0117,2022-11-30 19:51:44
22,"[{'imgObject': {}, 'id': 'roastedpotatoes', 'src': '/static/foodstim60/roastedpotatoes.jpg', 'key': 'u', 'origWidth': 409, 'origHeight': 410, 'width': 409, 'height': 410, 'widthPercent': 0.45, 'rescaleHeight': False, 'trialN': 22, 'loaded': True, 'loadedTime': 2741.5, 'positionName': 'LEFT', 'positionCoords': [319.16, 221.5], 'bid': 5.03}, {'imgObject': {}, 'id': 'eggsalad', 'src': '/static/foodstim60/eggsalad.jpg', 'key': 'i', 'origWidth': 410, 'origHeight': 409, 'width': 410, 'height': 409, 'widthPercent': 0.45, 'rescaleHeight': False, 'trialN': 22, 'loaded': True, 'loadedTime': 2772, 'positionName': 'RIGHT', 'positionCoords': [788.84, 222], 'bid': 5.73}]",44163.40000009537,1669840705028,roastedpotatoes,eggsalad,5.03,5.73,0.7000000000000002,roastedpotatoes,931.3999999761581,932,931.7999999523163,True,u,45610.5,1447.0999999046326,1669840706475,1447,HRV,HRV_0117,2022-11-30 19:51:44
23,"[{'imgObject': {}, 'id': 'cocktailshrimp', 'src': '/static/foodstim60/cocktailshrimp.jpg', 'key': 'u', 'origWidth': 410, 'origHeight': 410, 'width': 410, 'height': 410, 'widthPercent': 0.45, 'rescaleHeight': False, 'trialN': 23, 'loaded': True, 'loadedTime': 2796.9000000953674, 'positionName': 'LEFT', 'positionCoords': [318.16, 221.5], 'bid': 4.09}, {'imgObject': {}, 'id': 'olives', 'src': '/static/foodstim60/olives.jpg', 'key': 'i', 'origWidth': 410, 'origHeight': 410, 'width': 410, 'height': 410, 'widthPercent': 0.45, 'rescaleHeight': False, 'trialN': 23, 'loaded': True, 'loadedTime': 2829.7000000476837, 'positionName': 'RIGHT', 'positionCoords': [788.84, 221.5], 'bid': 2.84}]",45610.800000071526,1669840706476,cocktailshrimp,olives,4.09,2.84,-1.25,cocktailshrimp,1365.1999999284744,1365,1365.5,True,u,47481.40000009537,1870.6000000238419,1669840708346,1870,HRV,HRV_0117,2022-11-30 19:51:44
24,"[{'imgObject': {}, 'id': 'steak', 'src': '/static/foodstim60/steak.jpg', 'key': 'u', 'origWidth': 410, 'origHeight': 410, 'width': 410, 'height': 410, 'widthPercent': 0.45, 'rescaleHeight': False, 'trialN': 24, 'loaded': True, 'loadedTime': 3080.100000023842, 'positionName': 'LEFT', 'positionCoords': [318.16, 221.5], 'bid': 9.7}, {'imgObject': {}, 'id': 'Grapes', 'src': '/static/foodstim60/Grapes.jpg', 'key': 'i', 'origWidth': 411, 'origHeight': 411, 'width': 411, 'height': 411, 'widthPercent': 0.45, 'rescaleHeight': False, 'trialN': 24, 'loaded': True, 'loadedTime': 2851, 'positionName': 'RIGHT', 'positionCoords': [788.84, 221], 'bid': 6.93}]",47481.60000002384,1669840708346,steak,Grapes,9.7,6.93,-2.7699999999999996,steak,709.6000000238419,710,710.0,True,u,48695.90000009537,1214.3000000715256,1669840709561,1215,HRV,HRV_0117,2022-11-30 19:51:44
25,"[{'imgObject': {}, 'id': 'steak', 'src': '/static/foodstim60/steak.jpg', 'key': 'u', 'origWidth': 410, 'origHeight': 410, 'width': 410, 'height': 410, 'widthPercent': 0.45, 'rescaleHeight': False, 'trialN': 25, 'loaded': True, 'loadedTime': 3080.4000000953674, 'positionName': 'LEFT', 'positionCoords': [318.16, 221.5], 'bid': 9.7}, {'imgObject': {}, 'id': 'hotdog w must', 'src': '/static/foodstim60/hotdog w must.jpg', 'key': 'i', 'origWidth': 409, 'origHeight': 409, 'width': 409, 'height': 409, 'widthPercent': 0.45, 'rescaleHeight': False, 'trialN': 25, 'loaded': True, 'loadedTime': 2461.5, 'positionName': 'RIGHT', 'positionCoords': [788.84, 222], 'bid': 6.37}]",48696.300000071526,1669840709561,steak,hotdog w must,9.7,6.37,-3.329999999999999,steak,1022.0,1022,1022.3999999761581,True,u,50237.200000047684,1540.8999999761581,1669840711102,1541,HRV,HRV_0117,2022-11-30 19:51:44
26,"[{'imgObject': {}, 'id': 'burger', 'src': '/static/foodstim60/burger.jpg', 'key': 'u', 'origWidth': 409, 'origHeight': 409, 'width': 409, 'height': 409, 'widthPercent': 0.45, 'rescaleHeight': False, 'trialN': 26, 'loaded': True, 'loadedTime': 2884.600000023842, 'positionName': 'LEFT', 'positionCoords': [319.16, 222], 'bid': 9.26}, {'imgObject': {}, 'id': 'grilled chicken strips', 'src': '/static/foodstim60/grilled chicken strips.jpg', 'key': 'i', 'origWidth': 410, 'origHeight': 411, 'width': 410, 'height': 411, 'widthPercent': 0.45, 'rescaleHeight': False, 'trialN': 26, 'loaded': True, 'loadedTime': 2912.7000000476837, 'positionName': 'RIGHT', 'positionCoords': [788.84, 221], 'bid': 7.7}]",50237.5,1669840711102,burger,grilled chicken strips,9.26,7.7,-1.5599999999999996,burger,1737.0,1738,1737.3000000715256,True,u,52494.0,2256.5,1669840713359,2257,HRV,HRV_0117,2022-11-30 19:51:44
27,"[{'imgObject': {}, 'id': 'froot loops w milk', 'src': '/static/foodstim60/froot loops w milk.jpg', 'key': 'u', 'origWidth': 410, 'origHeight': 410, 'width': 410, 'height': 410, 'widthPercent': 0.45, 'rescaleHeight': False, 'trialN': 27, 'loaded': True, 'loadedTime': 2593.100000023842, 'positionName': 'LEFT', 'positionCoords': [318.16, 221.5], 'bid': 6.28}, {'imgObject': {}, 'id': 'burger', 'src': '/static/foodstim60/burger.jpg', 'key': 'i', 'origWidth': 409, 'origHeight': 409, 'width': 409, 'height': 409, 'widthPercent': 0.45, 'rescaleHeight': False, 'trialN': 27, 'loaded': True, 'loadedTime': 2884.2000000476837, 'positionName': 'RIGHT', 'positionCoords': [788.84, 222], 'bid': 9.26}]",52494.300000071526,1669840713359,froot loops w milk,burger,6.28,9.26,2.9799999999999995,burger,837.2999999523163,838,837.6999999284744,True,i,53850.700000047684,1356.3999999761581,1669840714715,1356,HRV,HRV_0117,2022-11-30 19:51:44
28,"[{'imgObject': {}, 'id': 'orange slices', 'src': '/static/foodstim60/orange slices.jpg', 'key': 'u', 'origWidth': 409, 'origHeight': 410, 'width': 409, 'height': 410, 'widthPercent': 0.45, 'rescaleHeight': False, 'trialN': 28, 'loaded': True, 'loadedTime': 3158.8000000715256, 'positionName': 'LEFT', 'positionCoords': [319.16, 221.5], 'bid': 5.91}, {'imgObject': {}, 'id': 'cantaloupe', 'src': '/static/foodstim60/cantaloupe.jpg', 'key': 'i', 'origWidth': 409, 'origHeight': 409, 'width': 409, 'height': 409, 'widthPercent': 0.45, 'rescaleHeight': False, 'trialN': 28, 'loaded': True, 'loadedTime': 2992.9000000953674, 'positionName': 'RIGHT', 'positionCoords': [788.84, 222], 'bid': 5.96}]",53851.0,1669840714716,orange slices,cantaloupe,5.91,5.96,0.04999999999999982,cantaloupe,1217.9000000953674,1218,1218.4000000953674,True,i,55579.0,1728.0,1669840716444,1728,HRV,HRV_0117,2022-11-30 19:51:44
29,"[{'imgObject': {}, 'id': 'rigatoni and sauce', 'src': '/static/foodstim60/rigatoni and sauce.jpg', 'key': 'u', 'origWidth': 410, 'origHeight': 411, 'width': 410, 'height': 411, 'widthPercent': 0.45, 'rescaleHeight': False, 'trialN': 29, 'loaded': True, 'loadedTime': 2917.4000000953674, 'positionName': 'LEFT', 'positionCoords': [318.16, 221], 'bid': 2.38}, {'imgObject': {}, 'id': 'granola w milk', 'src': '/static/foodstim60/granola w milk.jpg', 'key': 'i', 'origWidth': 410, 'origHeight': 410, 'width': 410, 'height': 410, 'widthPercent': 0.45, 'rescaleHeight': False, 'trialN': 29, 'loaded': True, 'loadedTime': 2954.4000000953674, 'positionName': 'RIGHT', 'positionCoords': [788.84, 221.5], 'bid': 6.2700000000000005}]",55579.5,1669840716444,rigatoni and sauce,granola w milk,2.38,6.2700000000000005,3.8900000000000006,granola w milk,1209.3000000715256,1210,1209.6000000238419,True,i,57299.60000002384,1720.1000000238419,1669840718164,1720,HRV,HRV_0117,2022-11-30 19:51:44
30,"[{'imgObject': {}, 'id': 'omelette', 'src': '/static/foodstim60/omelette.jpg', 'key': 'u', 'origWidth': 410, 'origHeight': 409, 'width': 410, 'height': 409, 'widthPercent': 0.45, 'rescaleHeight': False, 'trialN': 30, 'loaded': True, 'loadedTime': 3051.100000023842, 'positionName': 'LEFT', 'positionCoords': [318.16, 222], 'bid': 4.72}, {'imgObject': {}, 'id': 'eggsalad', 'src': '/static/foodstim60/eggsalad.jpg', 'key': 'i', 'origWidth': 410, 'origHeight': 409, 'width': 410, 'height': 409, 'widthPercent': 0.45, 'rescaleHeight': False, 'trialN': 30, 'loaded': True, 'loadedTime': 2762.100000023842, 'positionName': 'RIGHT', 'positionCoords': [788.84, 222], 'bid': 5.73}]",57299.800000071526,1669840718165,omelette,eggsalad,4.72,5.73,1.0100000000000007,omelette,1448.7999999523163,1449,1449.1000000238419,True,u,59263.40000009537,1963.6000000238419,1669840720128,1963,HRV,HRV_0117,2022-11-30 19:51:44
31,"[{'imgObject': {}, 'id': 'fried eggs', 'src': '/static/foodstim60/fried eggs.jpg', 'key': 'u', 'origWidth': 410, 'origHeight': 410, 'width': 410, 'height': 410, 'widthPercent': 0.45, 'rescaleHeight': False, 'trialN': 31, 'loaded': True, 'loadedTime': 3133.600000023842, 'positionName': 'LEFT', 'positionCoords': [318.16, 221.5], 'bid': 6.0200000000000005}, {'imgObject': {}, 'id': 'cherry tomato', 'src': '/static/foodstim60/cherry tomato.jpg', 'key': 'i', 'origWidth': 410, 'origHeight': 410, 'width': 410, 'height': 410, 'widthPercent': 0.45, 'rescaleHeight': False, 'trialN': 31, 'loaded': True, 'loadedTime': 3138.3000000715256, 'positionName': 'RIGHT', 'positionCoords': [788.84, 221.5], 'bid': 1.48}]",59263.60000002384,1669840720128,fried eggs,cherry tomato,6.0200000000000005,1.48,-4.540000000000001,fried eggs,1566.3999999761581,1567,1566.8000000715256,True,u,61336.40000009537,2072.8000000715256,1669840722201,2073,HRV,HRV_0117,2022-11-30 19:51:44
32,"[{'imgObject': {}, 'id': 'raspberries', 'src': '/static/foodstim60/raspberries.jpg', 'key': 'u', 'origWidth': 411, 'origHeight': 411, 'width': 411, 'height': 411, 'widthPercent': 0.45, 'rescaleHeight': False, 'trialN': 32, 'loaded': True, 'loadedTime': 3170.4000000953674, 'positionName': 'LEFT', 'positionCoords': [317.16, 221], 'bid': 7.55}, {'imgObject': {}, 'id': 'turkeysandwich', 'src': '/static/foodstim60/turkeysandwich.jpg', 'key': 'i', 'origWidth': 409, 'origHeight': 409, 'width': 409, 'height': 409, 'widthPercent': 0.45, 'rescaleHeight': False, 'trialN': 32, 'loaded': True, 'loadedTime': 2954.7000000476837, 'positionName': 'RIGHT', 'positionCoords': [788.84, 222], 'bid': 6.07}]",61336.800000071526,1669840722201,raspberries,turkeysandwich,7.55,6.07,-1.4799999999999995,raspberries,2250.399999976158,2251,2250.6999999284744,True,u,64103.700000047684,2766.899999976158,1669840724968,2767,HRV,HRV_0117,2022-11-30 19:51:44
33,"[{'imgObject': {}, 'id': 'eggs', 'src': '/static/foodstim60/eggs.jpg', 'key': 'u', 'origWidth': 409, 'origHeight': 409, 'width': 409, 'height': 409, 'widthPercent': 0.45, 'rescaleHeight': False, 'trialN': 33, 'loaded': True, 'loadedTime': 3237.2000000476837, 'positionName': 'LEFT', 'positionCoords': [319.16, 222], 'bid': 4.7}, {'imgObject': {}, 'id': 'blackbeanswithrice', 'src': '/static/foodstim60/blackbeanswithrice.jpg', 'key': 'i', 'origWidth': 410, 'origHeight': 410, 'width': 410, 'height': 410, 'widthPercent': 0.45, 'rescaleHeight': False, 'trialN': 33, 'loaded': True, 'loadedTime': 2425.8000000715256, 'positionName': 'RIGHT', 'positionCoords': [788.84, 221.5], 'bid': 1.46}]",64104.0,1669840724969,eggs,blackbeanswithrice,4.7,1.46,-3.24,eggs,2026.4000000953674,2027,2026.8000000715256,True,u,66642.30000007153,2538.3000000715256,1669840727507,2538,HRV,HRV_0117,2022-11-30 19:51:44
34,"[{'imgObject': {}, 'id': 'cherries', 'src': '/static/foodstim60/cherries.jpg', 'key': 'u', 'origWidth': 410, 'origHeight': 411, 'width': 410, 'height': 411, 'widthPercent': 0.45, 'rescaleHeight': False, 'trialN': 34, 'loaded': True, 'loadedTime': 2483.600000023842, 'positionName': 'LEFT', 'positionCoords': [318.16, 221], 'bid': 7.47}, {'imgObject': {}, 'id': 'chicken nuggets2', 'src': '/static/foodstim60/chicken nuggets2.jpg', 'key': 'i', 'origWidth': 410, 'origHeight': 409, 'width': 410, 'height': 409, 'widthPercent': 0.45, 'rescaleHeight': False, 'trialN': 34, 'loaded': True, 'loadedTime': 2720.2000000476837, 'positionName': 'RIGHT', 'positionCoords': [788.84, 222], 'bid': 7.61}]",66642.60000002384,1669840727507,cherries,chicken nuggets2,7.47,7.61,0.14000000000000057,cherries,782.0,783,782.3000000715256,True,u,67932.30000007153,1289.7000000476837,1669840728797,1290,HRV,HRV_0117,2022-11-30 19:51:44
35,"[{'imgObject': {}, 'id': 'granola w milk', 'src': '/static/foodstim60/granola w milk.jpg', 'key': 'u', 'origWidth': 410, 'origHeight': 410, 'width': 410, 'height': 410, 'widthPercent': 0.45, 'rescaleHeight': False, 'trialN': 35, 'loaded': True, 'loadedTime': 2949.7000000476837, 'positionName': 'LEFT', 'positionCoords': [318.16, 221.5], 'bid': 6.2700000000000005}, {'imgObject': {}, 'id': 'froot loops w milk', 'src': '/static/foodstim60/froot loops w milk.jpg', 'key': 'i', 'origWidth': 410, 'origHeight': 410, 'width': 410, 'height': 410, 'widthPercent': 0.45, 'rescaleHeight': False, 'trialN': 35, 'loaded': True, 'loadedTime': 2597.3000000715256, 'positionName': 'RIGHT', 'positionCoords': [788.84, 221.5], 'bid': 6.28}]",67932.40000009537,1669840728797,granola w milk,froot loops w milk,6.2700000000000005,6.28,0.009999999999999787,granola w milk,1179.2999999523163,1180,1179.6999999284744,True,u,69630.5,1698.0999999046326,1669840730495,1698,HRV,HRV_0117,2022-11-30 19:51:44
36,"[{'imgObject': {}, 'id': 'salmon', 'src': '/static/foodstim60/salmon.jpg', 'key': 'u', 'origWidth': 410, 'origHeight': 409, 'width': 410, 'height': 409, 'widthPercent': 0.45, 'rescaleHeight': False, 'trialN': 36, 'loaded': True, 'loadedTime': 3203.2000000476837, 'positionName': 'LEFT', 'positionCoords': [318.16, 222], 'bid': 4.32}, {'imgObject': {}, 'id': 'eggs', 'src': '/static/foodstim60/eggs.jpg', 'key': 'i', 'origWidth': 409, 'origHeight': 409, 'width': 409, 'height': 409, 'widthPercent': 0.45, 'rescaleHeight': False, 'trialN': 36, 'loaded': True, 'loadedTime': 3237, 'positionName': 'RIGHT', 'positionCoords': [788.84, 222], 'bid': 4.7}]",69630.90000009537,1669840730496,salmon,eggs,4.32,4.7,0.3799999999999999,salmon,1856.3999999761581,1856,1856.6999999284744,True,u,72004.90000009537,2374.0,1669840732870,2374,HRV,HRV_0117,2022-11-30 19:51:44
37,"[{'imgObject': {}, 'id': 'eggs', 'src': '/static/foodstim60/eggs.jpg', 'key': 'u', 'origWidth': 409, 'origHeight': 409, 'width': 409, 'height': 409, 'widthPercent': 0.45, 'rescaleHeight': False, 'trialN': 37, 'loaded': True, 'loadedTime': 3228.7000000476837, 'positionName': 'LEFT', 'positionCoords': [319.16, 222], 'bid': 4.7}, {'imgObject': {}, 'id': 'sweetpotato', 'src': '/static/foodstim60/sweetpotato.jpg', 'key': 'i', 'origWidth': 410, 'origHeight': 410, 'width': 410, 'height': 410, 'widthPercent': 0.45, 'rescaleHeight': False, 'trialN': 37, 'loaded': True, 'loadedTime': 3247.4000000953674, 'positionName': 'RIGHT', 'positionCoords': [788.84, 221.5], 'bid': 3.6}]",72005.40000009537,1669840732870,eggs,sweetpotato,4.7,3.6,-1.1,eggs,2466.899999976158,2467,2467.2999999523163,True,u,74977.70000004768,2972.2999999523163,1669840735842,2972,HRV,HRV_0117,2022-11-30 19:51:44
38,"[{'imgObject': {}, 'id': 'blueberries', 'src': '/static/foodstim60/blueberries.jpg', 'key': 'u', 'origWidth': 411, 'origHeight': 411, 'width': 411, 'height': 411, 'widthPercent': 0.45, 'rescaleHeight': False, 'trialN': 38, 'loaded': True, 'loadedTime': 3250.100000023842, 'positionName': 'LEFT', 'positionCoords': [317.16, 221], 'bid': 7.2}, {'imgObject': {}, 'id': 'raisin bran w milk', 'src': '/static/foodstim60/raisin bran w milk.jpg', 'key': 'i', 'origWidth': 411, 'origHeight': 411, 'width': 411, 'height': 411, 'widthPercent': 0.45, 'rescaleHeight': False, 'trialN': 38, 'loaded': True, 'loadedTime': 2573.3000000715256, 'positionName': 'RIGHT', 'positionCoords': [788.84, 221], 'bid': 6.28}]",74977.90000009537,1669840735843,blueberries,raisin bran w milk,7.2,6.28,-0.9199999999999999,raisin bran w milk,1000.1999999284744,1000,1000.5999999046326,True,i,76500.20000004768,1522.2999999523163,1669840737365,1522,HRV,HRV_0117,2022-11-30 19:51:44
39,"[{'imgObject': {}, 'id': 'turkey sandwich', 'src': '/static/foodstim60/turkey sandwich.jpg', 'key': 'u', 'origWidth': 409, 'origHeight': 409, 'width': 409, 'height': 409, 'widthPercent': 0.45, 'rescaleHeight': False, 'trialN': 39, 'loaded': True, 'loadedTime': 2698.9000000953674, 'positionName': 'LEFT', 'positionCoords': [319.16, 222], 'bid': 6.2}, {'imgObject': {}, 'id': 'chickenfingers', 'src': '/static/foodstim60/chickenfingers.jpg', 'key': 'i', 'origWidth': 410, 'origHeight': 410, 'width': 410, 'height': 410, 'widthPercent': 0.45, 'rescaleHeight': False, 'trialN': 39, 'loaded': True, 'loadedTime': 2840.5, 'positionName': 'RIGHT', 'positionCoords': [788.84, 221.5], 'bid': 6.47}]",76500.30000007153,1669840737365,turkey sandwich,chickenfingers,6.2,6.47,0.2699999999999996,chickenfingers,1395.7999999523163,1396,1396.1000000238419,True,i,78410.10000002384,1909.7999999523163,1669840739275,1910,HRV,HRV_0117,2022-11-30 19:51:44
40,"[{'imgObject': {}, 'id': 'popsicles', 'src': '/static/foodstim60/popsicles.jpg', 'key': 'u', 'origWidth': 410, 'origHeight': 410, 'width': 410, 'height': 410, 'widthPercent': 0.45, 'rescaleHeight': False, 'trialN': 40, 'loaded': True, 'loadedTime': 3367.2000000476837, 'positionName': 'LEFT', 'positionCoords': [318.16, 221.5], 'bid': 6.6000000000000005}, {'imgObject': {}, 'id': 'baked potato', 'src': '/static/foodstim60/baked potato.jpg', 'key': 'i', 'origWidth': 409, 'origHeight': 410, 'width': 409, 'height': 410, 'widthPercent': 0.45, 'rescaleHeight': False, 'trialN': 40, 'loaded': True, 'loadedTime': 3087.4000000953674, 'positionName': 'RIGHT', 'positionCoords': [788.84, 221.5], 'bid': 7.88}]",78410.40000009537,1669840739275,popsicles,baked potato,6.6000000000000005,7.88,1.2799999999999994,baked potato,1236.0,1237,1236.5,True,i,80161.20000004768,1750.7999999523163,1669840741026,1751,HRV,HRV_0117,2022-11-30 19:51:44
41,"[{'imgObject': {}, 'id': 'omelette', 'src': '/static/foodstim60/omelette.jpg', 'key': 'u', 'origWidth': 410, 'origHeight': 409, 'width': 410, 'height': 409, 'widthPercent': 0.45, 'rescaleHeight': False, 'trialN': 41, 'loaded': True, 'loadedTime': 3052.600000023842, 'positionName': 'LEFT', 'positionCoords': [318.16, 222], 'bid': 4.72}, {'imgObject': {}, 'id': 'bagel and cc', 'src': '/static/foodstim60/bagel and cc.jpg', 'key': 'i', 'origWidth': 410, 'origHeight': 410, 'width': 410, 'height': 410, 'widthPercent': 0.45, 'rescaleHeight': False, 'trialN': 41, 'loaded': True, 'loadedTime': 3252.2000000476837, 'positionName': 'RIGHT', 'positionCoords': [788.84, 221.5], 'bid': 3.66}]",80161.40000009537,1669840741026,omelette,bagel and cc,4.72,3.66,-1.0599999999999996,omelette,1548.7999999523163,1549,1549.2999999523163,True,u,82227.40000009537,2066.0,1669840743092,2066,HRV,HRV_0117,2022-11-30 19:51:44
42,"[{'imgObject': {}, 'id': 'cherries', 'src': '/static/foodstim60/cherries.jpg', 'key': 'u', 'origWidth': 410, 'origHeight': 411, 'width': 410, 'height': 411, 'widthPercent': 0.45, 'rescaleHeight': False, 'trialN': 42, 'loaded': True, 'loadedTime': 2489.5, 'positionName': 'LEFT', 'positionCoords': [318.16, 221], 'bid': 7.47}, {'imgObject': {}, 'id': 'blueberries', 'src': '/static/foodstim60/blueberries.jpg', 'key': 'i', 'origWidth': 411, 'origHeight': 411, 'width': 411, 'height': 411, 'widthPercent': 0.45, 'rescaleHeight': False, 'trialN': 42, 'loaded': True, 'loadedTime': 3249.8000000715256, 'positionName': 'RIGHT', 'positionCoords': [788.84, 221], 'bid': 7.2}]",82227.70000004768,1669840743092,cherries,blueberries,7.47,7.2,-0.2699999999999996,cherries,1172.3999999761581,1173,1172.7000000476837,True,u,83904.40000009537,1676.7000000476837,1669840744769,1677,HRV,HRV_0117,2022-11-30 19:51:44
43,"[{'imgObject': {}, 'id': 'cantaloupe', 'src': '/static/foodstim60/cantaloupe.jpg', 'key': 'u', 'origWidth': 409, 'origHeight': 409, 'width': 409, 'height': 409, 'widthPercent': 0.45, 'rescaleHeight': False, 'trialN': 43, 'loaded': True, 'loadedTime': 2991, 'positionName': 'LEFT', 'positionCoords': [319.16, 222], 'bid': 5.96}, {'imgObject': {}, 'id': 'froot loops w milk', 'src': '/static/foodstim60/froot loops w milk.jpg', 'key': 'i', 'origWidth': 410, 'origHeight': 410, 'width': 410, 'height': 410, 'widthPercent': 0.45, 'rescaleHeight': False, 'trialN': 43, 'loaded': True, 'loadedTime': 2605.5, 'positionName': 'RIGHT', 'positionCoords': [788.84, 221.5], 'bid': 6.28}]",83904.60000002384,1669840744769,cantaloupe,froot loops w milk,5.96,6.28,0.3200000000000003,cantaloupe,772.8000000715256,773,773.2000000476837,True,u,85198.0,1293.3999999761581,1669840746063,1294,HRV,HRV_0117,2022-11-30 19:51:44
44,"[{'imgObject': {}, 'id': 'fruitsalad', 'src': '/static/foodstim60/fruitsalad.jpg', 'key': 'u', 'origWidth': 410, 'origHeight': 410, 'width': 410, 'height': 410, 'widthPercent': 0.45, 'rescaleHeight': False, 'trialN': 44, 'loaded': True, 'loadedTime': 3258.9000000953674, 'positionName': 'LEFT', 'positionCoords': [318.16, 221.5], 'bid': 7.15}, {'imgObject': {}, 'id': 'avocado', 'src': '/static/foodstim60/avocado.jpg', 'key': 'i', 'origWidth': 409, 'origHeight': 409, 'width': 409, 'height': 409, 'widthPercent': 0.45, 'rescaleHeight': False, 'trialN': 44, 'loaded': True, 'loadedTime': 2624.9000000953674, 'positionName': 'RIGHT', 'positionCoords': [788.84, 222], 'bid': 4.5}]",85198.40000009537,1669840746063,fruitsalad,avocado,7.15,4.5,-2.6500000000000004,fruitsalad,1305.1999999284744,1306,1305.5999999046326,True,u,87020.70000004768,1822.2999999523163,1669840747885,1822,HRV,HRV_0117,2022-11-30 19:51:44
45,"[{'imgObject': {}, 'id': 'olives', 'src': '/static/foodstim60/olives.jpg', 'key': 'u', 'origWidth': 410, 'origHeight': 410, 'width': 410, 'height': 410, 'widthPercent': 0.45, 'rescaleHeight': False, 'trialN': 45, 'loaded': True, 'loadedTime': 2810.3000000715256, 'positionName': 'LEFT', 'positionCoords': [318.16, 221.5], 'bid': 2.84}, {'imgObject': {}, 'id': 'Tribe humus pita', 'src': '/static/foodstim60/Tribe humus pita.jpg', 'key': 'i', 'origWidth': 411, 'origHeight': 411, 'width': 411, 'height': 411, 'widthPercent': 0.45, 'rescaleHeight': False, 'trialN': 45, 'loaded': True, 'loadedTime': 3269.7000000476837, 'positionName': 'RIGHT', 'positionCoords': [788.84, 221], 'bid': 5.08}]",87020.90000009537,1669840747886,olives,Tribe humus pita,2.84,5.08,2.24,Tribe humus pita,1382.2999999523163,1382,1382.5999999046326,True,i,88911.0,1890.0999999046326,1669840749776,1890,HRV,HRV_0117,2022-11-30 19:51:44
46,"[{'imgObject': {}, 'id': 'chicken nuggets2', 'src': '/static/foodstim60/chicken nuggets2.jpg', 'key': 'u', 'origWidth': 410, 'origHeight': 409, 'width': 410, 'height': 409, 'widthPercent': 0.45, 'rescaleHeight': False, 'trialN': 46, 'loaded': True, 'loadedTime': 2715, 'positionName': 'LEFT', 'positionCoords': [318.16, 222], 'bid': 7.61}, {'imgObject': {}, 'id': 'raspberries', 'src': '/static/foodstim60/raspberries.jpg', 'key': 'i', 'origWidth': 411, 'origHeight': 411, 'width': 411, 'height': 411, 'widthPercent': 0.45, 'rescaleHeight': False, 'trialN': 46, 'loaded': True, 'loadedTime': 3164.100000023842, 'positionName': 'RIGHT', 'positionCoords': [788.84, 221], 'bid': 7.55}]",88911.30000007153,1669840749776,chicken nuggets2,raspberries,7.61,7.55,-0.0600000000000005,chicken nuggets2,691.1000000238419,691,691.3999999761581,True,u,90113.0,1201.6999999284744,1669840750978,1202,HRV,HRV_0117,2022-11-30 19:51:44
47,"[{'imgObject': {}, 'id': 'eggsalad', 'src': '/static/foodstim60/eggsalad.jpg', 'key': 'u', 'origWidth': 410, 'origHeight': 409, 'width': 410, 'height': 409, 'widthPercent': 0.45, 'rescaleHeight': False, 'trialN': 47, 'loaded': True, 'loadedTime': 2772.4000000953674, 'positionName': 'LEFT', 'positionCoords': [318.16, 222], 'bid': 5.73}, {'imgObject': {}, 'id': 'burrito', 'src': '/static/foodstim60/burrito.jpg', 'key': 'i', 'origWidth': 410, 'origHeight': 410, 'width': 410, 'height': 410, 'widthPercent': 0.45, 'rescaleHeight': False, 'trialN': 47, 'loaded': True, 'loadedTime': 3014.3000000715256, 'positionName': 'RIGHT', 'positionCoords': [788.84, 221.5], 'bid': 5.71}]",90113.10000002384,1669840750978,eggsalad,burrito,5.73,5.71,-0.020000000000000462,burrito,1259.2000000476837,1259,1259.6000000238419,True,i,91885.30000007153,1772.2000000476837,1669840752749,1771,HRV,HRV_0117,2022-11-30 19:51:44
48,"[{'imgObject': {}, 'id': 'banana', 'src': '/static/foodstim60/banana.jpg', 'key': 'u', 'origWidth': 410, 'origHeight': 410, 'width': 410, 'height': 410, 'widthPercent': 0.45, 'rescaleHeight': False, 'trialN': 48, 'loaded': True, 'loadedTime': 3286.600000023842, 'positionName': 'LEFT', 'positionCoords': [318.16, 221.5], 'bid': 5.09}, {'imgObject': {}, 'id': 'steak', 'src': '/static/foodstim60/steak.jpg', 'key': 'i', 'origWidth': 410, 'origHeight': 410, 'width': 410, 'height': 410, 'widthPercent': 0.45, 'rescaleHeight': False, 'trialN': 48, 'loaded': True, 'loadedTime': 3065.9000000953674, 'positionName': 'RIGHT', 'positionCoords': [788.84, 221.5], 'bid': 9.7}]",91885.5,1669840752750,banana,steak,5.09,9.7,4.609999999999999,steak,676.4000000953674,676,677.0,True,i,93077.0,1191.5,1669840753941,1191,HRV,HRV_0117,2022-11-30 19:51:44
49,"[{'imgObject': {}, 'id': 'froot loops w milk', 'src': '/static/foodstim60/froot loops w milk.jpg', 'key': 'u', 'origWidth': 410, 'origHeight': 410, 'width': 410, 'height': 410, 'widthPercent': 0.45, 'rescaleHeight': False, 'trialN': 49, 'loaded': True, 'loadedTime': 2601.600000023842, 'positionName': 'LEFT', 'positionCoords': [318.16, 221.5], 'bid': 6.28}, {'imgObject': {}, 'id': 'olives', 'src': '/static/foodstim60/olives.jpg', 'key': 'i', 'origWidth': 410, 'origHeight': 410, 'width': 410, 'height': 410, 'widthPercent': 0.45, 'rescaleHeight': False, 'trialN': 49, 'loaded': True, 'loadedTime': 2824.5, 'positionName': 'RIGHT', 'positionCoords': [788.84, 221.5], 'bid': 2.84}]",93077.20000004768,1669840753941,froot loops w milk,olives,6.28,2.84,-3.4400000000000004,olives,1818.2000000476837,1819,1818.6000000238419,True,i,95400.20000004768,2323.0,1669840756264,2323,HRV,HRV_0117,2022-11-30 19:51:44
50,"[{'imgObject': {}, 'id': 'fried eggs', 'src': '/static/foodstim60/fried eggs.jpg', 'key': 'u', 'origWidth': 410, 'origHeight': 410, 'width': 410, 'height': 410, 'widthPercent': 0.45, 'rescaleHeight': False, 'trialN': 50, 'loaded': True, 'loadedTime': 3137.9000000953674, 'positionName': 'LEFT', 'positionCoords': [318.16, 221.5], 'bid': 6.0200000000000005}, {'imgObject': {}, 'id': 'turkeysandwich', 'src': '/static/foodstim60/turkeysandwich.jpg', 'key': 'i', 'origWidth': 409, 'origHeight': 409, 'width': 409, 'height': 409, 'widthPercent': 0.45, 'rescaleHeight': False, 'trialN': 50, 'loaded': True, 'loadedTime': 2986.8000000715256, 'positionName': 'RIGHT', 'positionCoords': [788.84, 222], 'bid': 6.07}]",95400.40000009537,1669840756264,fried eggs,turkeysandwich,6.0200000000000005,6.07,0.04999999999999982,turkeysandwich,1283.7999999523163,1285,1284.2999999523163,True,i,97199.90000009537,1799.5,1669840758064,1800,HRV,HRV_0117,2022-11-30 19:51:44
51,"[{'imgObject': {}, 'id': 'popsicles', 'src': '/static/foodstim60/popsicles.jpg', 'key': 'u', 'origWidth': 410, 'origHeight': 410, 'width': 410, 'height': 410, 'widthPercent': 0.45, 'rescaleHeight': False, 'trialN': 51, 'loaded': True, 'loadedTime': 3365.600000023842, 'positionName': 'LEFT', 'positionCoords': [318.16, 221.5], 'bid': 6.6000000000000005}, {'imgObject': {}, 'id': 'chickenfingers', 'src': '/static/foodstim60/chickenfingers.jpg', 'key': 'i', 'origWidth': 410, 'origHeight': 410, 'width': 410, 'height': 410, 'widthPercent': 0.45, 'rescaleHeight': False, 'trialN': 51, 'loaded': True, 'loadedTime': 2840.8000000715256, 'positionName': 'RIGHT', 'positionCoords': [788.84, 221.5], 'bid': 6.47}]",97200.30000007153,1669840758064,popsicles,chickenfingers,6.6000000000000005,6.47,-0.13000000000000078,popsicles,1586.3999999761581,1587,1586.8999999761581,True,u,99304.60000002384,2104.2999999523163,1669840760169,2105,HRV,HRV_0117,2022-11-30 19:51:44
52,"[{'imgObject': {}, 'id': 'ice cream sundae 002', 'src': '/static/foodstim60/ice cream sundae 002.jpg', 'key': 'u', 'origWidth': 409, 'origHeight': 409, 'width': 409, 'height': 409, 'widthPercent': 0.45, 'rescaleHeight': False, 'trialN': 52, 'loaded': True, 'loadedTime': 3093.600000023842, 'positionName': 'LEFT', 'positionCoords': [319.16, 222], 'bid': 6.94}, {'imgObject': {}, 'id': 'salmon', 'src': '/static/foodstim60/salmon.jpg', 'key': 'i', 'origWidth': 410, 'origHeight': 409, 'width': 410, 'height': 409, 'widthPercent': 0.45, 'rescaleHeight': False, 'trialN': 52, 'loaded': True, 'loadedTime': 3212, 'positionName': 'RIGHT', 'positionCoords': [788.84, 222], 'bid': 4.32}]",99304.70000004768,1669840760169,ice cream sundae 002,salmon,6.94,4.32,-2.62,salmon,878.0,878,878.3999999761581,True,i,100687.60000002384,1382.8999999761581,1669840761552,1383,HRV,HRV_0117,2022-11-30 19:51:44
53,"[{'imgObject': {}, 'id': 'sweetpotato', 'src': '/static/foodstim60/sweetpotato.jpg', 'key': 'u', 'origWidth': 410, 'origHeight': 410, 'width': 410, 'height': 410, 'widthPercent': 0.45, 'rescaleHeight': False, 'trialN': 53, 'loaded': True, 'loadedTime': 3238.7000000476837, 'positionName': 'LEFT', 'positionCoords': [318.16, 221.5], 'bid': 3.6}, {'imgObject': {}, 'id': 'bagel and cc', 'src': '/static/foodstim60/bagel and cc.jpg', 'key': 'i', 'origWidth': 410, 'origHeight': 410, 'width': 410, 'height': 410, 'widthPercent': 0.45, 'rescaleHeight': False, 'trialN': 53, 'loaded': True, 'loadedTime': 3250.5, 'positionName': 'RIGHT', 'positionCoords': [788.84, 221.5], 'bid': 3.66}]",100687.90000009537,1669840761552,sweetpotato,bagel and cc,3.6,3.66,0.06000000000000005,sweetpotato,1504.0,1504,1504.5,True,u,102696.0,2008.0999999046326,1669840763560,2008,HRV,HRV_0117,2022-11-30 19:51:44
54,"[{'imgObject': {}, 'id': 'luckycharms', 'src': '/static/foodstim60/luckycharms.jpg', 'key': 'u', 'origWidth': 410, 'origHeight': 409, 'width': 410, 'height': 409, 'widthPercent': 0.45, 'rescaleHeight': False, 'trialN': 54, 'loaded': True, 'loadedTime': 2555.600000023842, 'positionName': 'LEFT', 'positionCoords': [318.16, 222], 'bid': 2.69}, {'imgObject': {}, 'id': 'apple slices', 'src': '/static/foodstim60/apple slices.jpg', 'key': 'i', 'origWidth': 409, 'origHeight': 410, 'width': 409, 'height': 410, 'widthPercent': 0.45, 'rescaleHeight': False, 'trialN': 54, 'loaded': True, 'loadedTime': 3288.600000023842, 'positionName': 'RIGHT', 'positionCoords': [788.84, 221.5], 'bid': 3.56}]",102696.20000004768,1669840763560,luckycharms,apple slices,2.69,3.56,0.8700000000000001,apple slices,996.6000000238419,997,996.8999999761581,True,i,104202.90000009537,1506.7000000476837,1669840765067,1507,HRV,HRV_0117,2022-11-30 19:51:44
55,"[{'imgObject': {}, 'id': 'rigatoni and sauce', 'src': '/static/foodstim60/rigatoni and sauce.jpg', 'key': 'u', 'origWidth': 410, 'origHeight': 411, 'width': 410, 'height': 411, 'widthPercent': 0.45, 'rescaleHeight': False, 'trialN': 55, 'loaded': True, 'loadedTime': 2933.5, 'positionName': 'LEFT', 'positionCoords': [318.16, 221], 'bid': 2.38}, {'imgObject': {}, 'id': 'corn cob', 'src': '/static/foodstim60/corn cob.jpg', 'key': 'i', 'origWidth': 411, 'origHeight': 411, 'width': 411, 'height': 411, 'widthPercent': 0.45, 'rescaleHeight': False, 'trialN': 55, 'loaded': True, 'loadedTime': 3295.8000000715256, 'positionName': 'RIGHT', 'positionCoords': [788.84, 221], 'bid': 2.07}]",104203.10000002384,1669840765067,rigatoni and sauce,corn cob,2.38,2.07,-0.31000000000000005,rigatoni and sauce,1783.1000000238419,1784,1783.5,True,u,106504.90000009537,2301.8000000715256,1669840767369,2302,HRV,HRV_0117,2022-11-30 19:51:44
56,"[{'imgObject': {}, 'id': 'cheerios', 'src': '/static/foodstim60/cheerios.jpg', 'key': 'u', 'origWidth': 409, 'origHeight': 410, 'width': 409, 'height': 410, 'widthPercent': 0.45, 'rescaleHeight': False, 'trialN': 56, 'loaded': True, 'loadedTime': 3307.2000000476837, 'positionName': 'LEFT', 'positionCoords': [319.16, 221.5], 'bid': 5.83}, {'imgObject': {}, 'id': 'eggsalad', 'src': '/static/foodstim60/eggsalad.jpg', 'key': 'i', 'origWidth': 410, 'origHeight': 409, 'width': 410, 'height': 409, 'widthPercent': 0.45, 'rescaleHeight': False, 'trialN': 56, 'loaded': True, 'loadedTime': 2776.600000023842, 'positionName': 'RIGHT', 'positionCoords': [788.84, 222], 'bid': 5.73}]",106505.20000004768,1669840767369,cheerios,eggsalad,5.83,5.73,-0.09999999999999964,cheerios,2529.0,2530,2529.399999976158,True,u,109554.0,3048.7999999523163,1669840770418,3049,HRV,HRV_0117,2022-11-30 19:51:44
57,"[{'imgObject': {}, 'id': 'strawberries', 'src': '/static/foodstim60/strawberries.jpg', 'key': 'u', 'origWidth': 410, 'origHeight': 410, 'width': 410, 'height': 410, 'widthPercent': 0.45, 'rescaleHeight': False, 'trialN': 57, 'loaded': True, 'loadedTime': 3307.7000000476837, 'positionName': 'LEFT', 'positionCoords': [318.16, 221.5], 'bid': 6.78}, {'imgObject': {}, 'id': 'burger', 'src': '/static/foodstim60/burger.jpg', 'key': 'i', 'origWidth': 409, 'origHeight': 409, 'width': 409, 'height': 409, 'widthPercent': 0.45, 'rescaleHeight': False, 'trialN': 57, 'loaded': True, 'loadedTime': 2875.4000000953674, 'positionName': 'RIGHT', 'positionCoords': [788.84, 222], 'bid': 9.26}]",109554.30000007153,1669840770418,strawberries,burger,6.78,9.26,2.4799999999999995,burger,1147.3999999761581,1148,1147.6999999284744,True,i,111215.40000009537,1661.1000000238419,1669840772080,1662,HRV,HRV_0117,2022-11-30 19:51:44
58,"[{'imgObject': {}, 'id': 'turkeysandwich', 'src': '/static/foodstim60/turkeysandwich.jpg', 'key': 'u', 'origWidth': 409, 'origHeight': 409, 'width': 409, 'height': 409, 'widthPercent': 0.45, 'rescaleHeight': False, 'trialN': 58, 'loaded': True, 'loadedTime': 2978.3000000715256, 'positionName': 'LEFT', 'positionCoords': [319.16, 222], 'bid': 6.07}, {'imgObject': {}, 'id': 'corn cob', 'src': '/static/foodstim60/corn cob.jpg', 'key': 'i', 'origWidth': 411, 'origHeight': 411, 'width': 411, 'height': 411, 'widthPercent': 0.45, 'rescaleHeight': False, 'trialN': 58, 'loaded': True, 'loadedTime': 3293.8000000715256, 'positionName': 'RIGHT', 'positionCoords': [788.84, 221], 'bid': 2.07}]",111215.60000002384,1669840772080,turkeysandwich,corn cob,6.07,2.07,-4.0,turkeysandwich,1312.3999999761581,1312,1312.7000000476837,True,u,113037.5,1821.8999999761581,1669840773902,1822,HRV,HRV_0117,2022-11-30 19:51:44
59,"[{'imgObject': {}, 'id': 'cantaloupe', 'src': '/static/foodstim60/cantaloupe.jpg', 'key': 'u', 'origWidth': 409, 'origHeight': 409, 'width': 409, 'height': 409, 'widthPercent': 0.45, 'rescaleHeight': False, 'trialN': 59, 'loaded': True, 'loadedTime': 2996.9000000953674, 'positionName': 'LEFT', 'positionCoords': [319.16, 222], 'bid': 5.96}, {'imgObject': {}, 'id': 'blueberries', 'src': '/static/foodstim60/blueberries.jpg', 'key': 'i', 'origWidth': 411, 'origHeight': 411, 'width': 411, 'height': 411, 'widthPercent': 0.45, 'rescaleHeight': False, 'trialN': 59, 'loaded': True, 'loadedTime': 3249.5, 'positionName': 'RIGHT', 'positionCoords': [788.84, 221], 'bid': 7.2}]",113037.60000002384,1669840773902,cantaloupe,blueberries,5.96,7.2,1.2400000000000002,cantaloupe,968.0,968,968.3999999761581,True,u,114517.90000009537,1480.3000000715256,1669840775382,1480,HRV,HRV_0117,2022-11-30 19:51:44
60,"[{'imgObject': {}, 'id': 'avocado', 'src': '/static/foodstim60/avocado.jpg', 'key': 'u', 'origWidth': 409, 'origHeight': 409, 'width': 409, 'height': 409, 'widthPercent': 0.45, 'rescaleHeight': False, 'trialN': 60, 'loaded': True, 'loadedTime': 2634.100000023842, 'positionName': 'LEFT', 'positionCoords': [319.16, 222], 'bid': 4.5}, {'imgObject': {}, 'id': 'mango', 'src': '/static/foodstim60/mango.jpg', 'key': 'i', 'origWidth': 411, 'origHeight': 411, 'width': 411, 'height': 411, 'widthPercent': 0.45, 'rescaleHeight': False, 'trialN': 60, 'loaded': True, 'loadedTime': 2355, 'positionName': 'RIGHT', 'positionCoords': [788.84, 221], 'bid': 5.42}]",114517.90000009537,1669840775382,avocado,mango,4.5,5.42,0.9199999999999999,mango,1527.8999999761581,1528,1528.3999999761581,True,i,116553.70000004768,2035.7999999523163,1669840777418,2036,HRV,HRV_0117,2022-11-30 19:51:44
61,"[{'imgObject': {}, 'id': 'veggieswithdip', 'src': '/static/foodstim60/veggieswithdip.jpg', 'key': 'u', 'origWidth': 409, 'origHeight': 409, 'width': 409, 'height': 409, 'widthPercent': 0.45, 'rescaleHeight': False, 'trialN': 61, 'loaded': True, 'loadedTime': 3310.3000000715256, 'positionName': 'LEFT', 'positionCoords': [319.16, 222], 'bid': 0.19}, {'imgObject': {}, 'id': 'edamame', 'src': '/static/foodstim60/edamame.jpg', 'key': 'i', 'origWidth': 409, 'origHeight': 410, 'width': 409, 'height': 410, 'widthPercent': 0.45, 'rescaleHeight': False, 'trialN': 61, 'loaded': True, 'loadedTime': 3222.4000000953674, 'positionName': 'RIGHT', 'positionCoords': [788.84, 221.5], 'bid': 0.31}]",116554.0,1669840777418,veggieswithdip,edamame,0.19,0.31,0.12,edamame,2313.5,2314,2313.9000000953674,True,i,119385.60000002384,2831.600000023842,1669840780250,2832,HRV,HRV_0117,2022-11-30 19:51:44
62,"[{'imgObject': {}, 'id': 'rigatoni and sauce', 'src': '/static/foodstim60/rigatoni and sauce.jpg', 'key': 'u', 'origWidth': 410, 'origHeight': 411, 'width': 410, 'height': 411, 'widthPercent': 0.45, 'rescaleHeight': False, 'trialN': 62, 'loaded': True, 'loadedTime': 2928.4000000953674, 'positionName': 'LEFT', 'positionCoords': [318.16, 221], 'bid': 2.38}, {'imgObject': {}, 'id': 'kiwi', 'src': '/static/foodstim60/kiwi.jpg', 'key': 'i', 'origWidth': 410, 'origHeight': 410, 'width': 410, 'height': 410, 'widthPercent': 0.45, 'rescaleHeight': False, 'trialN': 62, 'loaded': True, 'loadedTime': 3325.5, 'positionName': 'RIGHT', 'positionCoords': [788.84, 221.5], 'bid': 2.31}]",119385.90000009537,1669840780250,rigatoni and sauce,kiwi,2.38,2.31,-0.06999999999999984,kiwi,1187.2999999523163,1188,1187.5999999046326,True,i,121088.0,1702.0999999046326,1669840781952,1702,HRV,HRV_0117,2022-11-30 19:51:44
63,"[{'imgObject': {}, 'id': 'Grapes', 'src': '/static/foodstim60/Grapes.jpg', 'key': 'u', 'origWidth': 411, 'origHeight': 411, 'width': 411, 'height': 411, 'widthPercent': 0.45, 'rescaleHeight': False, 'trialN': 63, 'loaded': True, 'loadedTime': 2846.600000023842, 'positionName': 'LEFT', 'positionCoords': [317.16, 221], 'bid': 6.93}, {'imgObject': {}, 'id': 'tacos', 'src': '/static/foodstim60/tacos.jpg', 'key': 'i', 'origWidth': 411, 'origHeight': 411, 'width': 411, 'height': 411, 'widthPercent': 0.45, 'rescaleHeight': False, 'trialN': 63, 'loaded': True, 'loadedTime': 3033.5, 'positionName': 'RIGHT', 'positionCoords': [788.84, 221], 'bid': 5.74}]",121090.20000004768,1669840781954,Grapes,tacos,6.93,5.74,-1.1899999999999995,tacos,1263.7999999523163,1264,1264.1000000238419,True,i,122863.60000002384,1773.3999999761581,1669840783728,1774,HRV,HRV_0117,2022-11-30 19:51:44
64,"[{'imgObject': {}, 'id': 'pear', 'src': '/static/foodstim60/pear.jpg', 'key': 'u', 'origWidth': 411, 'origHeight': 410, 'width': 411, 'height': 410, 'widthPercent': 0.45, 'rescaleHeight': False, 'trialN': 64, 'loaded': True, 'loadedTime': 3336.4000000953674, 'positionName': 'LEFT', 'positionCoords': [317.16, 221.5], 'bid': 5.21}, {'imgObject': {}, 'id': 'veggieswithdip', 'src': '/static/foodstim60/veggieswithdip.jpg', 'key': 'i', 'origWidth': 409, 'origHeight': 409, 'width': 409, 'height': 409, 'widthPercent': 0.45, 'rescaleHeight': False, 'trialN': 64, 'loaded': True, 'loadedTime': 3312, 'positionName': 'RIGHT', 'positionCoords': [788.84, 222], 'bid': 0.19}]",122864.0,1669840783728,pear,veggieswithdip,5.21,0.19,-5.02,pear,843.9000000953674,845,844.4000000953674,True,u,124217.90000009537,1353.9000000953674,1669840785082,1354,HRV,HRV_0117,2022-11-30 19:51:44
65,"[{'imgObject': {}, 'id': 'raisin bran w milk', 'src': '/static/foodstim60/raisin bran w milk.jpg', 'key': 'u', 'origWidth': 411, 'origHeight': 411, 'width': 411, 'height': 411, 'widthPercent': 0.45, 'rescaleHeight': False, 'trialN': 65, 'loaded': True, 'loadedTime': 2567.600000023842, 'positionName': 'LEFT', 'positionCoords': [317.16, 221], 'bid': 6.28}, {'imgObject': {}, 'id': 'turkey sandwich', 'src': '/static/foodstim60/turkey sandwich.jpg', 'key': 'i', 'origWidth': 409, 'origHeight': 409, 'width': 409, 'height': 409, 'widthPercent': 0.45, 'rescaleHeight': False, 'trialN': 65, 'loaded': True, 'loadedTime': 2706.5, 'positionName': 'RIGHT', 'positionCoords': [788.84, 222], 'bid': 6.2}]",124218.20000004768,1669840785082,raisin bran w milk,turkey sandwich,6.28,6.2,-0.08000000000000007,raisin bran w milk,750.2000000476837,751,750.6000000238419,True,u,125474.0,1255.7999999523163,1669840786338,1256,HRV,HRV_0117,2022-11-30 19:51:44
66,"[{'imgObject': {}, 'id': 'seaweed', 'src': '/static/foodstim60/seaweed.jpg', 'key': 'u', 'origWidth': 410, 'origHeight': 410, 'width': 410, 'height': 410, 'widthPercent': 0.45, 'rescaleHeight': False, 'trialN': 66, 'loaded': True, 'loadedTime': 3343.2000000476837, 'positionName': 'LEFT', 'positionCoords': [318.16, 221.5], 'bid': 0.84}, {'imgObject': {}, 'id': 'tacos', 'src': '/static/foodstim60/tacos.jpg', 'key': 'i', 'origWidth': 411, 'origHeight': 411, 'width': 411, 'height': 411, 'widthPercent': 0.45, 'rescaleHeight': False, 'trialN': 66, 'loaded': True, 'loadedTime': 3034, 'positionName': 'RIGHT', 'positionCoords': [788.84, 221], 'bid': 5.74}]",125474.20000004768,1669840786338,seaweed,tacos,0.84,5.74,4.9,tacos,1267.5,1268,1268.0,True,i,127261.20000004768,1787.0,1669840788125,1787,HRV,HRV_0117,2022-11-30 19:51:44
67,"[{'imgObject': {}, 'id': 'bagel plain', 'src': '/static/foodstim60/bagel plain.jpg', 'key': 'u', 'origWidth': 410, 'origHeight': 410, 'width': 410, 'height': 410, 'widthPercent': 0.45, 'rescaleHeight': False, 'trialN': 67, 'loaded': True, 'loadedTime': 2660.4000000953674, 'positionName': 'LEFT', 'positionCoords': [318.16, 221.5], 'bid': 0.88}, {'imgObject': {}, 'id': 'rigatoni and sauce', 'src': '/static/foodstim60/rigatoni and sauce.jpg', 'key': 'i', 'origWidth': 410, 'origHeight': 411, 'width': 410, 'height': 411, 'widthPercent': 0.45, 'rescaleHeight': False, 'trialN': 67, 'loaded': True, 'loadedTime': 2933, 'positionName': 'RIGHT', 'positionCoords': [788.84, 221], 'bid': 2.38}]",127261.30000007153,1669840788125,bagel plain,rigatoni and sauce,0.88,2.38,1.5,rigatoni and sauce,1374.0,1375,1374.2999999523163,True,i,129148.40000009537,1887.1000000238419,1669840790012,1887,HRV,HRV_0117,2022-11-30 19:51:44
68,"[{'imgObject': {}, 'id': 'lox', 'src': '/static/foodstim60/lox.jpg', 'key': 'u', 'origWidth': 410, 'origHeight': 411, 'width': 410, 'height': 411, 'widthPercent': 0.45, 'rescaleHeight': False, 'trialN': 68, 'loaded': True, 'loadedTime': 2442.4000000953674, 'positionName': 'LEFT', 'positionCoords': [318.16, 221], 'bid': 0.95}, {'imgObject': {}, 'id': 'veggieswithdip', 'src': '/static/foodstim60/veggieswithdip.jpg', 'key': 'i', 'origWidth': 409, 'origHeight': 409, 'width': 409, 'height': 409, 'widthPercent': 0.45, 'rescaleHeight': False, 'trialN': 68, 'loaded': True, 'loadedTime': 3325.2000000476837, 'positionName': 'RIGHT', 'positionCoords': [788.84, 222], 'bid': 0.19}]",129148.70000004768,1669840790013,lox,veggieswithdip,0.95,0.19,-0.76,veggieswithdip,3188.2000000476837,3188,3188.600000023842,True,i,132844.70000004768,3696.0,1669840793709,3696,HRV,HRV_0117,2022-11-30 19:51:44
69,"[{'imgObject': {}, 'id': 'chickenfingers', 'src': '/static/foodstim60/chickenfingers.jpg', 'key': 'u', 'origWidth': 410, 'origHeight': 410, 'width': 410, 'height': 410, 'widthPercent': 0.45, 'rescaleHeight': False, 'trialN': 69, 'loaded': True, 'loadedTime': 2831.9000000953674, 'positionName': 'LEFT', 'positionCoords': [318.16, 221.5], 'bid': 6.47}, {'imgObject': {}, 'id': 'sweetpotato', 'src': '/static/foodstim60/sweetpotato.jpg', 'key': 'i', 'origWidth': 410, 'origHeight': 410, 'width': 410, 'height': 410, 'widthPercent': 0.45, 'rescaleHeight': False, 'trialN': 69, 'loaded': True, 'loadedTime': 3247.100000023842, 'positionName': 'RIGHT', 'positionCoords': [788.84, 221.5], 'bid': 3.6}]",132844.80000007153,1669840793709,chickenfingers,sweetpotato,6.47,3.6,-2.8699999999999997,chickenfingers,1124.0,1124,1124.3999999761581,True,u,134480.70000004768,1635.8999999761581,1669840795345,1636,HRV,HRV_0117,2022-11-30 19:51:44
70,"[{'imgObject': {}, 'id': 'banana', 'src': '/static/foodstim60/banana.jpg', 'key': 'u', 'origWidth': 410, 'origHeight': 410, 'width': 410, 'height': 410, 'widthPercent': 0.45, 'rescaleHeight': False, 'trialN': 70, 'loaded': True, 'loadedTime': 3270.2000000476837, 'positionName': 'LEFT', 'positionCoords': [318.16, 221.5], 'bid': 5.09}, {'imgObject': {}, 'id': 'turkeysandwich', 'src': '/static/foodstim60/turkeysandwich.jpg', 'key': 'i', 'origWidth': 409, 'origHeight': 409, 'width': 409, 'height': 409, 'widthPercent': 0.45, 'rescaleHeight': False, 'trialN': 70, 'loaded': True, 'loadedTime': 2961.2000000476837, 'positionName': 'RIGHT', 'positionCoords': [788.84, 222], 'bid': 6.07}]",134481.0,1669840795345,banana,turkeysandwich,5.09,6.07,0.9800000000000004,turkeysandwich,946.1000000238419,947,946.5,True,i,135949.10000002384,1468.1000000238419,1669840796813,1468,HRV,HRV_0117,2022-11-30 19:51:44
71,"[{'imgObject': {}, 'id': 'bagel and cc', 'src': '/static/foodstim60/bagel and cc.jpg', 'key': 'u', 'origWidth': 410, 'origHeight': 410, 'width': 410, 'height': 410, 'widthPercent': 0.45, 'rescaleHeight': False, 'trialN': 71, 'loaded': True, 'loadedTime': 3252.4000000953674, 'positionName': 'LEFT', 'positionCoords': [318.16, 221.5], 'bid': 3.66}, {'imgObject': {}, 'id': 'popsicles', 'src': '/static/foodstim60/popsicles.jpg', 'key': 'i', 'origWidth': 410, 'origHeight': 410, 'width': 410, 'height': 410, 'widthPercent': 0.45, 'rescaleHeight': False, 'trialN': 71, 'loaded': True, 'loadedTime': 3367.5, 'positionName': 'RIGHT', 'positionCoords': [788.84, 221.5], 'bid': 6.6000000000000005}]",135949.5,1669840796814,bagel and cc,popsicles,3.66,6.6000000000000005,2.9400000000000004,popsicles,811.4000000953674,811,811.8000000715256,True,i,137270.10000002384,1320.6000000238419,1669840798134,1320,HRV,HRV_0117,2022-11-30 19:51:44
72,"[{'imgObject': {}, 'id': 'shreddedwheatwithmilk', 'src': '/static/foodstim60/shreddedwheatwithmilk.jpg', 'key': 'u', 'origWidth': 410, 'origHeight': 410, 'width': 410, 'height': 410, 'widthPercent': 0.45, 'rescaleHeight': False, 'trialN': 72, 'loaded': True, 'loadedTime': 2377.3000000715256, 'positionName': 'LEFT', 'positionCoords': [318.16, 221.5], 'bid': 6.43}, {'imgObject': {}, 'id': 'chicken nuggets2', 'src': '/static/foodstim60/chicken nuggets2.jpg', 'key': 'i', 'origWidth': 410, 'origHeight': 409, 'width': 410, 'height': 409, 'widthPercent': 0.45, 'rescaleHeight': False, 'trialN': 72, 'loaded': True, 'loadedTime': 2720.4000000953674, 'positionName': 'RIGHT', 'positionCoords': [788.84, 222], 'bid': 7.61}]",137270.30000007153,1669840798134,shreddedwheatwithmilk,chicken nuggets2,6.43,7.61,1.1800000000000006,chicken nuggets2,1511.5,1512,1512.0,True,i,139291.20000004768,2020.8999999761581,1669840800155,2021,HRV,HRV_0117,2022-11-30 19:51:44
73,"[{'imgObject': {}, 'id': 'hashbrowns', 'src': '/static/foodstim60/hashbrowns.jpg', 'key': 'u', 'origWidth': 411, 'origHeight': 410, 'width': 411, 'height': 410, 'widthPercent': 0.45, 'rescaleHeight': False, 'trialN': 73, 'loaded': True, 'loadedTime': 3346.600000023842, 'positionName': 'LEFT', 'positionCoords': [317.16, 221.5], 'bid': 4.91}, {'imgObject': {}, 'id': 'tacos', 'src': '/static/foodstim60/tacos.jpg', 'key': 'i', 'origWidth': 411, 'origHeight': 411, 'width': 411, 'height': 411, 'widthPercent': 0.45, 'rescaleHeight': False, 'trialN': 73, 'loaded': True, 'loadedTime': 3023.100000023842, 'positionName': 'RIGHT', 'positionCoords': [788.84, 221], 'bid': 5.74}]",139291.60000002384,1669840800156,hashbrowns,tacos,4.91,5.74,0.8300000000000001,hashbrowns,891.3999999761581,892,891.8000000715256,True,u,140688.40000009537,1396.8000000715256,1669840801552,1396,HRV,HRV_0117,2022-11-30 19:51:44
74,"[{'imgObject': {}, 'id': 'blueberries', 'src': '/static/foodstim60/blueberries.jpg', 'key': 'u', 'origWidth': 411, 'origHeight': 411, 'width': 411, 'height': 411, 'widthPercent': 0.45, 'rescaleHeight': False, 'trialN': 74, 'loaded': True, 'loadedTime': 3250.3000000715256, 'positionName': 'LEFT', 'positionCoords': [317.16, 221], 'bid': 7.2}, {'imgObject': {}, 'id': 'raspberries', 'src': '/static/foodstim60/raspberries.jpg', 'key': 'i', 'origWidth': 411, 'origHeight': 411, 'width': 411, 'height': 411, 'widthPercent': 0.45, 'rescaleHeight': False, 'trialN': 74, 'loaded': True, 'loadedTime': 3170.7000000476837, 'positionName': 'RIGHT', 'positionCoords': [788.84, 221], 'bid': 7.55}]",140688.70000004768,1669840801553,blueberries,raspberries,7.2,7.55,0.34999999999999964,raspberries,973.2000000476837,973,973.6000000238419,True,i,142169.5,1480.7999999523163,1669840803034,1481,HRV,HRV_0117,2022-11-30 19:51:44
75,"[{'imgObject': {}, 'id': 'rigatoni and sauce', 'src': '/static/foodstim60/rigatoni and sauce.jpg', 'key': 'u', 'origWidth': 410, 'origHeight': 411, 'width': 410, 'height': 411, 'widthPercent': 0.45, 'rescaleHeight': False, 'trialN': 75, 'loaded': True, 'loadedTime': 2923.7000000476837, 'positionName': 'LEFT', 'positionCoords': [318.16, 221], 'bid': 2.38}, {'imgObject': {}, 'id': 'mac & cheese', 'src': '/static/foodstim60/mac & cheese.jpg', 'key': 'i', 'origWidth': 410, 'origHeight': 410, 'width': 410, 'height': 410, 'widthPercent': 0.45, 'rescaleHeight': False, 'trialN': 75, 'loaded': True, 'loadedTime': 3359.100000023842, 'positionName': 'RIGHT', 'positionCoords': [788.84, 221.5], 'bid': 4.99}]",142169.80000007153,1669840803034,rigatoni and sauce,mac & cheese,2.38,4.99,2.6100000000000003,rigatoni and sauce,1462.0,1462,1462.2999999523163,True,u,144135.60000002384,1965.7999999523163,1669840805000,1966,HRV,HRV_0117,2022-11-30 19:51:44
76,"[{'imgObject': {}, 'id': 'grilled chicken strips', 'src': '/static/foodstim60/grilled chicken strips.jpg', 'key': 'u', 'origWidth': 410, 'origHeight': 411, 'width': 410, 'height': 411, 'widthPercent': 0.45, 'rescaleHeight': False, 'trialN': 76, 'loaded': True, 'loadedTime': 2908.2000000476837, 'positionName': 'LEFT', 'positionCoords': [318.16, 221], 'bid': 7.7}, {'imgObject': {}, 'id': 'granola w milk', 'src': '/static/foodstim60/granola w milk.jpg', 'key': 'i', 'origWidth': 410, 'origHeight': 410, 'width': 410, 'height': 410, 'widthPercent': 0.45, 'rescaleHeight': False, 'trialN': 76, 'loaded': True, 'loadedTime': 2950, 'positionName': 'RIGHT', 'positionCoords': [788.84, 221.5], 'bid': 6.2700000000000005}]",144135.80000007153,1669840805000,grilled chicken strips,granola w milk,7.7,6.2700000000000005,-1.4299999999999997,grilled chicken strips,749.6000000238419,750,750.0,True,u,145393.80000007153,1258.0,1669840806258,1258,HRV,HRV_0117,2022-11-30 19:51:44
77,"[{'imgObject': {}, 'id': 'omelette', 'src': '/static/foodstim60/omelette.jpg', 'key': 'u', 'origWidth': 410, 'origHeight': 409, 'width': 410, 'height': 409, 'widthPercent': 0.45, 'rescaleHeight': False, 'trialN': 77, 'loaded': True, 'loadedTime': 3061.8000000715256, 'positionName': 'LEFT', 'positionCoords': [318.16, 222], 'bid': 4.72}, {'imgObject': {}, 'id': 'cherry tomato', 'src': '/static/foodstim60/cherry tomato.jpg', 'key': 'i', 'origWidth': 410, 'origHeight': 410, 'width': 410, 'height': 410, 'widthPercent': 0.45, 'rescaleHeight': False, 'trialN': 77, 'loaded': True, 'loadedTime': 3139.9000000953674, 'positionName': 'RIGHT', 'positionCoords': [788.84, 221.5], 'bid': 1.48}]",145394.0,1669840806258,omelette,cherry tomato,4.72,1.48,-3.2399999999999998,omelette,1145.8000000715256,1146,1146.1000000238419,True,u,147058.40000009537,1664.4000000953674,1669840807922,1664,HRV,HRV_0117,2022-11-30 19:51:44
78,"[{'imgObject': {}, 'id': 'omelette', 'src': '/static/foodstim60/omelette.jpg', 'key': 'u', 'origWidth': 410, 'origHeight': 409, 'width': 410, 'height': 409, 'widthPercent': 0.45, 'rescaleHeight': False, 'trialN': 78, 'loaded': True, 'loadedTime': 3057.5, 'positionName': 'LEFT', 'positionCoords': [318.16, 222], 'bid': 4.72}, {'imgObject': {}, 'id': 'eggs', 'src': '/static/foodstim60/eggs.jpg', 'key': 'i', 'origWidth': 409, 'origHeight': 409, 'width': 409, 'height': 409, 'widthPercent': 0.45, 'rescaleHeight': False, 'trialN': 78, 'loaded': True, 'loadedTime': 3232.7000000476837, 'positionName': 'RIGHT', 'positionCoords': [788.84, 222], 'bid': 4.7}]",147058.80000007153,1669840807923,omelette,eggs,4.72,4.7,-0.019999999999999574,omelette,1333.2999999523163,1333,1333.6000000238419,True,u,148898.40000009537,1839.6000000238419,1669840809762,1839,HRV,HRV_0117,2022-11-30 19:51:44
79,"[{'imgObject': {}, 'id': 'salad w chicken', 'src': '/static/foodstim60/salad w chicken.jpg', 'key': 'u', 'origWidth': 411, 'origHeight': 411, 'width': 411, 'height': 411, 'widthPercent': 0.45, 'rescaleHeight': False, 'trialN': 79, 'loaded': True, 'loadedTime': 3189.3000000715256, 'positionName': 'LEFT', 'positionCoords': [317.16, 221], 'bid': 0.77}, {'imgObject': {}, 'id': 'corn cob', 'src': '/static/foodstim60/corn cob.jpg', 'key': 'i', 'origWidth': 411, 'origHeight': 411, 'width': 411, 'height': 411, 'widthPercent': 0.45, 'rescaleHeight': False, 'trialN': 79, 'loaded': True, 'loadedTime': 3300.7000000476837, 'positionName': 'RIGHT', 'positionCoords': [788.84, 221], 'bid': 2.07}]",148898.5,1669840809763,salad w chicken,corn cob,0.77,2.07,1.2999999999999998,corn cob,1216.1000000238419,1216,1216.5,True,i,150632.0,1733.5,1669840811496,1733,HRV,HRV_0117,2022-11-30 19:51:44
80,"[{'imgObject': {}, 'id': 'orange slices', 'src': '/static/foodstim60/orange slices.jpg', 'key': 'u', 'origWidth': 409, 'origHeight': 410, 'width': 409, 'height': 410, 'widthPercent': 0.45, 'rescaleHeight': False, 'trialN': 80, 'loaded': True, 'loadedTime': 3163.8000000715256, 'positionName': 'LEFT', 'positionCoords': [319.16, 221.5], 'bid': 5.91}, {'imgObject': {}, 'id': 'lox', 'src': '/static/foodstim60/lox.jpg', 'key': 'i', 'origWidth': 410, 'origHeight': 411, 'width': 410, 'height': 411, 'widthPercent': 0.45, 'rescaleHeight': False, 'trialN': 80, 'loaded': True, 'loadedTime': 2446.9000000953674, 'positionName': 'RIGHT', 'positionCoords': [788.84, 221], 'bid': 0.95}]",150632.20000004768,1669840811496,orange slices,lox,5.91,0.95,-4.96,orange slices,784.2000000476837,786,784.6000000238419,True,u,151922.40000009537,1290.2000000476837,1669840812787,1291,HRV,HRV_0117,2022-11-30 19:51:44
81,"[{'imgObject': {}, 'id': 'banana', 'src': '/static/foodstim60/banana.jpg', 'key': 'u', 'origWidth': 410, 'origHeight': 410, 'width': 410, 'height': 410, 'widthPercent': 0.45, 'rescaleHeight': False, 'trialN': 81, 'loaded': True, 'loadedTime': 3281.8000000715256, 'positionName': 'LEFT', 'positionCoords': [318.16, 221.5], 'bid': 5.09}, {'imgObject': {}, 'id': 'mango', 'src': '/static/foodstim60/mango.jpg', 'key': 'i', 'origWidth': 411, 'origHeight': 411, 'width': 411, 'height': 411, 'widthPercent': 0.45, 'rescaleHeight': False, 'trialN': 81, 'loaded': True, 'loadedTime': 2350.9000000953674, 'positionName': 'RIGHT', 'positionCoords': [788.84, 221], 'bid': 5.42}]",151922.70000004768,1669840812788,banana,mango,5.09,5.42,0.33000000000000007,mango,1480.5,1481,1481.1000000238419,True,i,153910.80000007153,1988.1000000238419,1669840814776,1988,HRV,HRV_0117,2022-11-30 19:51:44
82,"[{'imgObject': {}, 'id': 'olives', 'src': '/static/foodstim60/olives.jpg', 'key': 'u', 'origWidth': 410, 'origHeight': 410, 'width': 410, 'height': 410, 'widthPercent': 0.45, 'rescaleHeight': False, 'trialN': 82, 'loaded': True, 'loadedTime': 2829.4000000953674, 'positionName': 'LEFT', 'positionCoords': [318.16, 221.5], 'bid': 2.84}, {'imgObject': {}, 'id': 'sushi w_condiments', 'src': '/static/foodstim60/sushi w_condiments.jpg', 'key': 'i', 'origWidth': 410, 'origHeight': 410, 'width': 410, 'height': 410, 'widthPercent': 0.45, 'rescaleHeight': False, 'trialN': 82, 'loaded': True, 'loadedTime': 2664.9000000953674, 'positionName': 'RIGHT', 'positionCoords': [788.84, 221.5], 'bid': 3.58}]",153911.30000007153,1669840814776,olives,sushi w_condiments,2.84,3.58,0.7400000000000002,olives,900.1999999284744,901,900.6000000238419,True,u,155326.60000002384,1415.2999999523163,1669840816191,1415,HRV,HRV_0117,2022-11-30 19:51:44
83,"[{'imgObject': {}, 'id': 'eggsalad', 'src': '/static/foodstim60/eggsalad.jpg', 'key': 'u', 'origWidth': 410, 'origHeight': 409, 'width': 410, 'height': 409, 'widthPercent': 0.45, 'rescaleHeight': False, 'trialN': 83, 'loaded': True, 'loadedTime': 2780.9000000953674, 'positionName': 'LEFT', 'positionCoords': [318.16, 222], 'bid': 5.73}, {'imgObject': {}, 'id': 'salad w chicken', 'src': '/static/foodstim60/salad w chicken.jpg', 'key': 'i', 'origWidth': 411, 'origHeight': 411, 'width': 411, 'height': 411, 'widthPercent': 0.45, 'rescaleHeight': False, 'trialN': 83, 'loaded': True, 'loadedTime': 3200.9000000953674, 'positionName': 'RIGHT', 'positionCoords': [788.84, 221], 'bid': 0.77}]",155326.90000009537,1669840816192,eggsalad,salad w chicken,5.73,0.77,-4.960000000000001,salad w chicken,1178.0999999046326,1178,1178.5,True,i,157022.0,1695.0999999046326,1669840817887,1695,HRV,HRV_0117,2022-11-30 19:51:44
84,"[{'imgObject': {}, 'id': 'blackbeanswithrice', 'src': '/static/foodstim60/blackbeanswithrice.jpg', 'key': 'u', 'origWidth': 410, 'origHeight': 410, 'width': 410, 'height': 410, 'widthPercent': 0.45, 'rescaleHeight': False, 'trialN': 84, 'loaded': True, 'loadedTime': 2406.8000000715256, 'positionName': 'LEFT', 'positionCoords': [318.16, 221.5], 'bid': 1.46}, {'imgObject': {}, 'id': 'rigatoni', 'src': '/static/foodstim60/rigatoni.jpg', 'key': 'i', 'origWidth': 411, 'origHeight': 411, 'width': 411, 'height': 411, 'widthPercent': 0.45, 'rescaleHeight': False, 'trialN': 84, 'loaded': True, 'loadedTime': 3361.600000023842, 'positionName': 'RIGHT', 'positionCoords': [788.84, 221], 'bid': 0.2}]",157022.20000004768,1669840817887,blackbeanswithrice,rigatoni,1.46,0.2,-1.26,rigatoni,947.5,948,947.8999999761581,True,i,158476.30000007153,1454.1000000238419,1669840819341,1454,HRV,HRV_0117,2022-11-30 19:51:44
85,"[{'imgObject': {}, 'id': 'olives', 'src': '/static/foodstim60/olives.jpg', 'key': 'u', 'origWidth': 410, 'origHeight': 410, 'width': 410, 'height': 410, 'widthPercent': 0.45, 'rescaleHeight': False, 'trialN': 85, 'loaded': True, 'loadedTime': 2829.9000000953674, 'positionName': 'LEFT', 'positionCoords': [318.16, 221.5], 'bid': 2.84}, {'imgObject': {}, 'id': 'luckycharms', 'src': '/static/foodstim60/luckycharms.jpg', 'key': 'i', 'origWidth': 410, 'origHeight': 409, 'width': 410, 'height': 409, 'widthPercent': 0.45, 'rescaleHeight': False, 'trialN': 85, 'loaded': True, 'loadedTime': 2563.8000000715256, 'positionName': 'RIGHT', 'positionCoords': [788.84, 222], 'bid': 2.69}]",158476.70000004768,1669840819341,olives,luckycharms,2.84,2.69,-0.1499999999999999,olives,1498.2999999523163,1499,1498.7000000476837,True,u,160492.80000007153,2016.1000000238419,1669840821358,2017,HRV,HRV_0117,2022-11-30 19:51:44
86,"[{'imgObject': {}, 'id': 'sushi w_condiments', 'src': '/static/foodstim60/sushi w_condiments.jpg', 'key': 'u', 'origWidth': 410, 'origHeight': 410, 'width': 410, 'height': 410, 'widthPercent': 0.45, 'rescaleHeight': False, 'trialN': 86, 'loaded': True, 'loadedTime': 2681.7000000476837, 'positionName': 'LEFT', 'positionCoords': [318.16, 221.5], 'bid': 3.58}, {'imgObject': {}, 'id': 'apple slices', 'src': '/static/foodstim60/apple slices.jpg', 'key': 'i', 'origWidth': 409, 'origHeight': 410, 'width': 409, 'height': 410, 'widthPercent': 0.45, 'rescaleHeight': False, 'trialN': 86, 'loaded': True, 'loadedTime': 3287, 'positionName': 'RIGHT', 'positionCoords': [788.84, 221.5], 'bid': 3.56}]",160493.0,1669840821358,sushi w_condiments,apple slices,3.58,3.56,-0.020000000000000018,apple slices,1834.9000000953674,1835,1835.4000000953674,True,i,162840.40000009537,2347.4000000953674,1669840823705,2347,HRV,HRV_0117,2022-11-30 19:51:44
87,"[{'imgObject': {}, 'id': 'mango', 'src': '/static/foodstim60/mango.jpg', 'key': 'u', 'origWidth': 411, 'origHeight': 411, 'width': 411, 'height': 411, 'widthPercent': 0.45, 'rescaleHeight': False, 'trialN': 87, 'loaded': True, 'loadedTime': 2304.100000023842, 'positionName': 'LEFT', 'positionCoords': [317.16, 221], 'bid': 5.42}, {'imgObject': {}, 'id': 'yogurt no spoon', 'src': '/static/foodstim60/yogurt no spoon.jpg', 'key': 'i', 'origWidth': 411, 'origHeight': 410, 'width': 411, 'height': 410, 'widthPercent': 0.45, 'rescaleHeight': False, 'trialN': 87, 'loaded': True, 'loadedTime': 3363.8000000715256, 'positionName': 'RIGHT', 'positionCoords': [788.84, 221.5], 'bid': 4.96}]",162840.80000007153,1669840823706,mango,yogurt no spoon,5.42,4.96,-0.45999999999999996,yogurt no spoon,2489.100000023842,2489,2489.399999976158,True,i,165835.20000004768,2994.399999976158,1669840826700,2994,HRV,HRV_0117,2022-11-30 19:51:44
88,"[{'imgObject': {}, 'id': 'hotdog w must', 'src': '/static/foodstim60/hotdog w must.jpg', 'key': 'u', 'origWidth': 409, 'origHeight': 409, 'width': 409, 'height': 409, 'widthPercent': 0.45, 'rescaleHeight': False, 'trialN': 88, 'loaded': True, 'loadedTime': 2455.5, 'positionName': 'LEFT', 'positionCoords': [319.16, 222], 'bid': 6.37}, {'imgObject': {}, 'id': 'fried eggs', 'src': '/static/foodstim60/fried eggs.jpg', 'key': 'i', 'origWidth': 410, 'origHeight': 410, 'width': 410, 'height': 410, 'widthPercent': 0.45, 'rescaleHeight': False, 'trialN': 88, 'loaded': True, 'loadedTime': 3138.2000000476837, 'positionName': 'RIGHT', 'positionCoords': [788.84, 221.5], 'bid': 6.0200000000000005}]",165835.40000009537,1669840826700,hotdog w must,fried eggs,6.37,6.0200000000000005,-0.34999999999999964,fried eggs,2611.0,2612,2611.399999976158,True,i,168953.10000002384,3117.6999999284744,1669840829818,3118,HRV,HRV_0117,2022-11-30 19:51:44
89,"[{'imgObject': {}, 'id': 'hotdog w must', 'src': '/static/foodstim60/hotdog w must.jpg', 'key': 'u', 'origWidth': 409, 'origHeight': 409, 'width': 409, 'height': 409, 'widthPercent': 0.45, 'rescaleHeight': False, 'trialN': 89, 'loaded': True, 'loadedTime': 2469.9000000953674, 'positionName': 'LEFT', 'positionCoords': [319.16, 222], 'bid': 6.37}, {'imgObject': {}, 'id': 'raspberries', 'src': '/static/foodstim60/raspberries.jpg', 'key': 'i', 'origWidth': 411, 'origHeight': 411, 'width': 411, 'height': 411, 'widthPercent': 0.45, 'rescaleHeight': False, 'trialN': 89, 'loaded': True, 'loadedTime': 3166, 'positionName': 'RIGHT', 'positionCoords': [788.84, 221], 'bid': 7.55}]",168953.40000009537,1669840829818,hotdog w must,raspberries,6.37,7.55,1.1799999999999997,raspberries,1653.0,1654,1653.2999999523163,True,i,171113.20000004768,2159.7999999523163,1669840831978,2160,HRV,HRV_0117,2022-11-30 19:51:44
90,"[{'imgObject': {}, 'id': 'bagel plain', 'src': '/static/foodstim60/bagel plain.jpg', 'key': 'u', 'origWidth': 410, 'origHeight': 410, 'width': 410, 'height': 410, 'widthPercent': 0.45, 'rescaleHeight': False, 'trialN': 90, 'loaded': True, 'loadedTime': 2652.4000000953674, 'positionName': 'LEFT', 'positionCoords': [318.16, 221.5], 'bid': 0.88}, {'imgObject': {}, 'id': 'cheerios', 'src': '/static/foodstim60/cheerios.jpg', 'key': 'i', 'origWidth': 409, 'origHeight': 410, 'width': 409, 'height': 410, 'widthPercent': 0.45, 'rescaleHeight': False, 'trialN': 90, 'loaded': True, 'loadedTime': 3302.600000023842, 'positionName': 'RIGHT', 'positionCoords': [788.84, 221.5], 'bid': 5.83}]",656077.1000000238,1669841316941,bagel plain,cheerios,0.88,5.83,4.95,bagel plain,802.8000000715256,804,803.1000000238419,True,u,657391.3000000715,1314.2000000476837,1669841318256,1315,HRV,HRV_0117,2022-11-30 19:51:44
91,"[{'imgObject': {}, 'id': 'salmon', 'src': '/static/foodstim60/salmon.jpg', 'key': 'u', 'origWidth': 410, 'origHeight': 409, 'width': 410, 'height': 409, 'widthPercent': 0.45, 'rescaleHeight': False, 'trialN': 91, 'loaded': True, 'loadedTime': 3212.2000000476837, 'positionName': 'LEFT', 'positionCoords': [318.16, 222], 'bid': 4.32}, {'imgObject': {}, 'id': 'apple slices', 'src': '/static/foodstim60/apple slices.jpg', 'key': 'i', 'origWidth': 409, 'origHeight': 410, 'width': 409, 'height': 410, 'widthPercent': 0.45, 'rescaleHeight': False, 'trialN': 91, 'loaded': True, 'loadedTime': 3289, 'positionName': 'RIGHT', 'positionCoords': [788.84, 221.5], 'bid': 3.56}]",657391.6000000238,1669841318256,salmon,apple slices,4.32,3.56,-0.7600000000000002,salmon,1234.7000000476837,1235,1235.1000000238419,True,u,659143.5,1751.8999999761581,1669841320008,1752,HRV,HRV_0117,2022-11-30 19:51:44
92,"[{'imgObject': {}, 'id': 'granola w milk', 'src': '/static/foodstim60/granola w milk.jpg', 'key': 'u', 'origWidth': 410, 'origHeight': 410, 'width': 410, 'height': 410, 'widthPercent': 0.45, 'rescaleHeight': False, 'trialN': 92, 'loaded': True, 'loadedTime': 2942.8000000715256, 'positionName': 'LEFT', 'positionCoords': [318.16, 221.5], 'bid': 6.2700000000000005}, {'imgObject': {}, 'id': 'turkey sandwich', 'src': '/static/foodstim60/turkey sandwich.jpg', 'key': 'i', 'origWidth': 409, 'origHeight': 409, 'width': 409, 'height': 409, 'widthPercent': 0.45, 'rescaleHeight': False, 'trialN': 92, 'loaded': True, 'loadedTime': 2702.7000000476837, 'positionName': 'RIGHT', 'positionCoords': [788.84, 222], 'bid': 6.2}]",659144.4000000954,1669841320009,granola w milk,turkey sandwich,6.2700000000000005,6.2,-0.07000000000000028,turkey sandwich,1558.0,1558,1558.2999999523163,True,i,661221.3000000715,2076.899999976158,1669841322086,2077,HRV,HRV_0117,2022-11-30 19:51:44
93,"[{'imgObject': {}, 'id': 'cherries', 'src': '/static/foodstim60/cherries.jpg', 'key': 'u', 'origWidth': 410, 'origHeight': 411, 'width': 410, 'height': 411, 'widthPercent': 0.45, 'rescaleHeight': False, 'trialN': 93, 'loaded': True, 'loadedTime': 2503.100000023842, 'positionName': 'LEFT', 'positionCoords': [318.16, 221], 'bid': 7.47}, {'imgObject': {}, 'id': 'steak', 'src': '/static/foodstim60/steak.jpg', 'key': 'i', 'origWidth': 410, 'origHeight': 410, 'width': 410, 'height': 410, 'widthPercent': 0.45, 'rescaleHeight': False, 'trialN': 93, 'loaded': True, 'loadedTime': 3080.600000023842, 'positionName': 'RIGHT', 'positionCoords': [788.84, 221.5], 'bid': 9.7}]",661221.6000000238,1669841322086,cherries,steak,7.47,9.7,2.2299999999999995,steak,676.8000000715256,677,677.1000000238419,True,i,662415.2000000477,1193.6000000238419,1669841323280,1194,HRV,HRV_0117,2022-11-30 19:51:44
94,"[{'imgObject': {}, 'id': 'cheerios', 'src': '/static/foodstim60/cheerios.jpg', 'key': 'u', 'origWidth': 409, 'origHeight': 410, 'width': 409, 'height': 410, 'widthPercent': 0.45, 'rescaleHeight': False, 'trialN': 94, 'loaded': True, 'loadedTime': 3300.8000000715256, 'positionName': 'LEFT', 'positionCoords': [319.16, 221.5], 'bid': 5.83}, {'imgObject': {}, 'id': 'tacos', 'src': '/static/foodstim60/tacos.jpg', 'key': 'i', 'origWidth': 411, 'origHeight': 411, 'width': 411, 'height': 411, 'widthPercent': 0.45, 'rescaleHeight': False, 'trialN': 94, 'loaded': True, 'loadedTime': 3029.4000000953674, 'positionName': 'RIGHT', 'positionCoords': [788.84, 221], 'bid': 5.74}]",662415.3000000715,1669841323280,cheerios,tacos,5.83,5.74,-0.08999999999999986,tacos,1008.8999999761581,1009,1009.2999999523163,True,i,663934.4000000954,1519.1000000238419,1669841324799,1519,HRV,HRV_0117,2022-11-30 19:51:44
95,"[{'imgObject': {}, 'id': 'mango', 'src': '/static/foodstim60/mango.jpg', 'key': 'u', 'origWidth': 411, 'origHeight': 411, 'width': 411, 'height': 411, 'widthPercent': 0.45, 'rescaleHeight': False, 'trialN': 95, 'loaded': True, 'loadedTime': 2337.9000000953674, 'positionName': 'LEFT', 'positionCoords': [317.16, 221], 'bid': 5.42}, {'imgObject': {}, 'id': 'rigatoni', 'src': '/static/foodstim60/rigatoni.jpg', 'key': 'i', 'origWidth': 411, 'origHeight': 411, 'width': 411, 'height': 411, 'widthPercent': 0.45, 'rescaleHeight': False, 'trialN': 95, 'loaded': True, 'loadedTime': 3361.8000000715256, 'positionName': 'RIGHT', 'positionCoords': [788.84, 221], 'bid': 0.2}]",663934.5,1669841324799,mango,rigatoni,5.42,0.2,-5.22,mango,1432.9000000953674,1433,1433.2000000476837,True,u,665885.1000000238,1950.6000000238419,1669841326749,1950,HRV,HRV_0117,2022-11-30 19:51:44
96,"[{'imgObject': {}, 'id': 'corn cob', 'src': '/static/foodstim60/corn cob.jpg', 'key': 'u', 'origWidth': 411, 'origHeight': 411, 'width': 411, 'height': 411, 'widthPercent': 0.45, 'rescaleHeight': False, 'trialN': 96, 'loaded': True, 'loadedTime': 3296.3000000715256, 'positionName': 'LEFT', 'positionCoords': [317.16, 221], 'bid': 2.07}, {'imgObject': {}, 'id': 'hashbrowns', 'src': '/static/foodstim60/hashbrowns.jpg', 'key': 'i', 'origWidth': 411, 'origHeight': 410, 'width': 411, 'height': 410, 'widthPercent': 0.45, 'rescaleHeight': False, 'trialN': 96, 'loaded': True, 'loadedTime': 3356.9000000953674, 'positionName': 'RIGHT', 'positionCoords': [788.84, 221.5], 'bid': 4.91}]",665885.4000000954,1669841326750,corn cob,hashbrowns,2.07,4.91,2.8400000000000003,hashbrowns,1405.7999999523163,1406,1406.0999999046326,True,i,667812.6000000238,1927.1999999284744,1669841328677,1927,HRV,HRV_0117,2022-11-30 19:51:44
97,"[{'imgObject': {}, 'id': 'shreddedwheatwithmilk', 'src': '/static/foodstim60/shreddedwheatwithmilk.jpg', 'key': 'u', 'origWidth': 410, 'origHeight': 410, 'width': 410, 'height': 410, 'widthPercent': 0.45, 'rescaleHeight': False, 'trialN': 97, 'loaded': True, 'loadedTime': 2390.2000000476837, 'positionName': 'LEFT', 'positionCoords': [318.16, 221.5], 'bid': 6.43}, {'imgObject': {}, 'id': 'hotdog w must', 'src': '/static/foodstim60/hotdog w must.jpg', 'key': 'i', 'origWidth': 409, 'origHeight': 409, 'width': 409, 'height': 409, 'widthPercent': 0.45, 'rescaleHeight': False, 'trialN': 97, 'loaded': True, 'loadedTime': 2461.100000023842, 'positionName': 'RIGHT', 'positionCoords': [788.84, 222], 'bid': 6.37}]",667812.9000000954,1669841328677,shreddedwheatwithmilk,hotdog w must,6.43,6.37,-0.05999999999999961,hotdog w must,1231.1999999284744,1232,1231.5,True,i,669557.7000000477,1744.7999999523163,1669841330422,1745,HRV,HRV_0117,2022-11-30 19:51:44
98,"[{'imgObject': {}, 'id': 'roastedpotatoes', 'src': '/static/foodstim60/roastedpotatoes.jpg', 'key': 'u', 'origWidth': 409, 'origHeight': 410, 'width': 409, 'height': 410, 'widthPercent': 0.45, 'rescaleHeight': False, 'trialN': 98, 'loaded': True, 'loadedTime': 2741.100000023842, 'positionName': 'LEFT', 'positionCoords': [319.16, 221.5], 'bid': 5.03}, {'imgObject': {}, 'id': 'luckycharms', 'src': '/static/foodstim60/luckycharms.jpg', 'key': 'i', 'origWidth': 410, 'origHeight': 409, 'width': 410, 'height': 409, 'widthPercent': 0.45, 'rescaleHeight': False, 'trialN': 98, 'loaded': True, 'loadedTime': 2551.4000000953674, 'positionName': 'RIGHT', 'positionCoords': [788.84, 222], 'bid': 2.69}]",669557.9000000954,1669841330422,roastedpotatoes,luckycharms,5.03,2.69,-2.3400000000000003,roastedpotatoes,1290.0,1291,1290.2999999523163,True,u,671355.4000000954,1797.5,1669841332220,1798,HRV,HRV_0117,2022-11-30 19:51:44
99,"[{'imgObject': {}, 'id': 'cocktailshrimp', 'src': '/static/foodstim60/cocktailshrimp.jpg', 'key': 'u', 'origWidth': 410, 'origHeight': 410, 'width': 410, 'height': 410, 'widthPercent': 0.45, 'rescaleHeight': False, 'trialN': 99, 'loaded': True, 'loadedTime': 2801.5, 'positionName': 'LEFT', 'positionCoords': [318.16, 221.5], 'bid': 4.09}, {'imgObject': {}, 'id': 'bagel and cc', 'src': '/static/foodstim60/bagel and cc.jpg', 'key': 'i', 'origWidth': 410, 'origHeight': 410, 'width': 410, 'height': 410, 'widthPercent': 0.45, 'rescaleHeight': False, 'trialN': 99, 'loaded': True, 'loadedTime': 3256.600000023842, 'positionName': 'RIGHT', 'positionCoords': [788.84, 221.5], 'bid': 3.66}]",671355.6000000238,1669841332220,cocktailshrimp,bagel and cc,4.09,3.66,-0.4299999999999997,cocktailshrimp,1269.2000000476837,1269,1269.3999999761581,True,u,673133.8000000715,1778.2000000476837,1669841333998,1778,HRV,HRV_0117,2022-11-30 19:51:44
100,"[{'imgObject': {}, 'id': 'sweetpotato', 'src': '/static/foodstim60/sweetpotato.jpg', 'key': 'u', 'origWidth': 410, 'origHeight': 410, 'width': 410, 'height': 410, 'widthPercent': 0.45, 'rescaleHeight': False, 'trialN': 100, 'loaded': True, 'loadedTime': 3243.100000023842, 'positionName': 'LEFT', 'positionCoords': [318.16, 221.5], 'bid': 3.6}, {'imgObject': {}, 'id': 'rigatoni', 'src': '/static/foodstim60/rigatoni.jpg', 'key': 'i', 'origWidth': 411, 'origHeight': 411, 'width': 411, 'height': 411, 'widthPercent': 0.45, 'rescaleHeight': False, 'trialN': 100, 'loaded': True, 'loadedTime': 3362, 'positionName': 'RIGHT', 'positionCoords': [788.84, 221], 'bid': 0.2}]",673134.0,1669841333998,sweetpotato,rigatoni,3.6,0.2,-3.4,sweetpotato,1131.8000000715256,1133,1132.2000000476837,True,u,674777.3000000715,1643.3000000715256,1669841335642,1644,HRV,HRV_0117,2022-11-30 19:51:44
101,"[{'imgObject': {}, 'id': 'orange slices', 'src': '/static/foodstim60/orange slices.jpg', 'key': 'u', 'origWidth': 409, 'origHeight': 410, 'width': 409, 'height': 410, 'widthPercent': 0.45, 'rescaleHeight': False, 'trialN': 101, 'loaded': True, 'loadedTime': 3153.100000023842, 'positionName': 'LEFT', 'positionCoords': [319.16, 221.5], 'bid': 5.91}, {'imgObject': {}, 'id': 'mac & cheese', 'src': '/static/foodstim60/mac & cheese.jpg', 'key': 'i', 'origWidth': 410, 'origHeight': 410, 'width': 410, 'height': 410, 'widthPercent': 0.45, 'rescaleHeight': False, 'trialN': 101, 'loaded': True, 'loadedTime': 3358.9000000953674, 'positionName': 'RIGHT', 'positionCoords': [788.84, 221.5], 'bid': 4.99}]",674777.6000000238,1669841335642,orange slices,mac & cheese,5.91,4.99,-0.9199999999999999,orange slices,774.1000000238419,774,774.3999999761581,True,u,676066.7000000477,1289.1000000238419,1669841336931,1289,HRV,HRV_0117,2022-11-30 19:51:44
102,"[{'imgObject': {}, 'id': 'hashbrowns', 'src': '/static/foodstim60/hashbrowns.jpg', 'key': 'u', 'origWidth': 411, 'origHeight': 410, 'width': 411, 'height': 410, 'widthPercent': 0.45, 'rescaleHeight': False, 'trialN': 102, 'loaded': True, 'loadedTime': 3352.7000000476837, 'positionName': 'LEFT', 'positionCoords': [317.16, 221.5], 'bid': 4.91}, {'imgObject': {}, 'id': 'mac & cheese', 'src': '/static/foodstim60/mac & cheese.jpg', 'key': 'i', 'origWidth': 410, 'origHeight': 410, 'width': 410, 'height': 410, 'widthPercent': 0.45, 'rescaleHeight': False, 'trialN': 102, 'loaded': True, 'loadedTime': 3357.100000023842, 'positionName': 'RIGHT', 'positionCoords': [788.84, 221.5], 'bid': 4.99}]",676066.9000000954,1669841336931,hashbrowns,mac & cheese,4.91,4.99,0.08000000000000007,mac & cheese,1220.2999999523163,1221,1220.6999999284744,True,i,677799.1000000238,1732.1999999284744,1669841338663,1732,HRV,HRV_0117,2022-11-30 19:51:44
103,"[{'imgObject': {}, 'id': 'baked potato', 'src': '/static/foodstim60/baked potato.jpg', 'key': 'u', 'origWidth': 409, 'origHeight': 410, 'width': 409, 'height': 410, 'widthPercent': 0.45, 'rescaleHeight': False, 'trialN': 103, 'loaded': True, 'loadedTime': 3093.100000023842, 'positionName': 'LEFT', 'positionCoords': [319.16, 221.5], 'bid': 7.88}, {'imgObject': {}, 'id': 'roastedpotatoes', 'src': '/static/foodstim60/roastedpotatoes.jpg', 'key': 'i', 'origWidth': 409, 'origHeight': 410, 'width': 409, 'height': 410, 'widthPercent': 0.45, 'rescaleHeight': False, 'trialN': 103, 'loaded': True, 'loadedTime': 2730.600000023842, 'positionName': 'RIGHT', 'positionCoords': [788.84, 221.5], 'bid': 5.03}]",677799.4000000954,1669841338664,baked potato,roastedpotatoes,7.88,5.03,-2.8499999999999996,baked potato,1372.6999999284744,1373,1373.0,True,u,679686.4000000954,1887.0,1669841340551,1887,HRV,HRV_0117,2022-11-30 19:51:44
104,"[{'imgObject': {}, 'id': 'salad w chicken', 'src': '/static/foodstim60/salad w chicken.jpg', 'key': 'u', 'origWidth': 411, 'origHeight': 411, 'width': 411, 'height': 411, 'widthPercent': 0.45, 'rescaleHeight': False, 'trialN': 104, 'loaded': True, 'loadedTime': 3201.2000000476837, 'positionName': 'LEFT', 'positionCoords': [317.16, 221], 'bid': 0.77}, {'imgObject': {}, 'id': 'olives', 'src': '/static/foodstim60/olives.jpg', 'key': 'i', 'origWidth': 410, 'origHeight': 410, 'width': 410, 'height': 410, 'widthPercent': 0.45, 'rescaleHeight': False, 'trialN': 104, 'loaded': True, 'loadedTime': 2825, 'positionName': 'RIGHT', 'positionCoords': [788.84, 221.5], 'bid': 2.84}]",679686.5,1669841340551,salad w chicken,olives,0.77,2.84,2.07,olives,1761.4000000953674,1762,1761.7000000476837,True,i,681951.5,2265.0,1669841342816,2265,HRV,HRV_0117,2022-11-30 19:51:44
105,"[{'imgObject': {}, 'id': 'pear', 'src': '/static/foodstim60/pear.jpg', 'key': 'u', 'origWidth': 411, 'origHeight': 410, 'width': 411, 'height': 410, 'widthPercent': 0.45, 'rescaleHeight': False, 'trialN': 105, 'loaded': True, 'loadedTime': 3338.100000023842, 'positionName': 'LEFT', 'positionCoords': [317.16, 221.5], 'bid': 5.21}, {'imgObject': {}, 'id': 'shreddedwheatwithmilk', 'src': '/static/foodstim60/shreddedwheatwithmilk.jpg', 'key': 'i', 'origWidth': 410, 'origHeight': 410, 'width': 410, 'height': 410, 'widthPercent': 0.45, 'rescaleHeight': False, 'trialN': 105, 'loaded': True, 'loadedTime': 2381.8000000715256, 'positionName': 'RIGHT', 'positionCoords': [788.84, 221.5], 'bid': 6.43}]",681951.9000000954,1669841342816,pear,shreddedwheatwithmilk,5.21,6.43,1.2199999999999998,pear,806.2999999523163,807,806.6999999284744,True,u,683266.3000000715,1314.3999999761581,1669841344131,1315,HRV,HRV_0117,2022-11-30 19:51:44
106,"[{'imgObject': {}, 'id': 'Grapes', 'src': '/static/foodstim60/Grapes.jpg', 'key': 'u', 'origWidth': 411, 'origHeight': 411, 'width': 411, 'height': 411, 'widthPercent': 0.45, 'rescaleHeight': False, 'trialN': 106, 'loaded': True, 'loadedTime': 2860.3000000715256, 'positionName': 'LEFT', 'positionCoords': [317.16, 221], 'bid': 6.93}, {'imgObject': {}, 'id': 'strawberries', 'src': '/static/foodstim60/strawberries.jpg', 'key': 'i', 'origWidth': 410, 'origHeight': 410, 'width': 410, 'height': 410, 'widthPercent': 0.45, 'rescaleHeight': False, 'trialN': 106, 'loaded': True, 'loadedTime': 3309.3000000715256, 'positionName': 'RIGHT', 'positionCoords': [788.84, 221.5], 'bid': 6.78}]",683266.6000000238,1669841344131,Grapes,strawberries,6.93,6.78,-0.14999999999999947,strawberries,1550.8000000715256,1551,1551.2000000476837,True,i,685328.2000000477,2061.600000023842,1669841346193,2062,HRV,HRV_0117,2022-11-30 19:51:44
107,"[{'imgObject': {}, 'id': 'corn cob', 'src': '/static/foodstim60/corn cob.jpg', 'key': 'u', 'origWidth': 411, 'origHeight': 411, 'width': 411, 'height': 411, 'widthPercent': 0.45, 'rescaleHeight': False, 'trialN': 107, 'loaded': True, 'loadedTime': 3300.4000000953674, 'positionName': 'LEFT', 'positionCoords': [317.16, 221], 'bid': 2.07}, {'imgObject': {}, 'id': 'cocktailshrimp', 'src': '/static/foodstim60/cocktailshrimp.jpg', 'key': 'i', 'origWidth': 410, 'origHeight': 410, 'width': 410, 'height': 410, 'widthPercent': 0.45, 'rescaleHeight': False, 'trialN': 107, 'loaded': True, 'loadedTime': 2786.3000000715256, 'positionName': 'RIGHT', 'positionCoords': [788.84, 221.5], 'bid': 4.09}]",685328.6000000238,1669841346193,corn cob,cocktailshrimp,2.07,4.09,2.02,cocktailshrimp,1573.3000000715256,1574,1573.7000000476837,True,i,687421.0,2092.399999976158,1669841348285,2092,HRV,HRV_0117,2022-11-30 19:51:44
