trialN,stimuli,question,trialStartTime,trialStartTime_UNIX,stimulus1,rt,receivedResponse,rating,trialEndTime,trialDuration,stimulus1Loaded,exp,subjectId,date
0,"[{'imgObject': {}, 'id': 'seaweed', 'src': '/static/foodstim60/seaweed.jpg', 'key': 'NaN', 'origWidth': 410, 'origHeight': 410, 'width': 410, 'height': 410, 'widthPercent': 0.8, 'rescaleHeight': True, 'trialN': 0, 'loaded': True, 'loadedTime': 2682.2000000476837, 'positionName': 'CENTER', 'positionCoords': [553.5, 221.5]}]",Rate how much you want to eat this food from 0 (least) to 10 (most).,3098.8000000715256,1669840490113,seaweed,1519.0999999046326,True,0.84,4617.899999976158,1519.0999999046326,True,HRV,HRV_0117,2022-11-30 19:36:57
1,"[{'imgObject': {}, 'id': 'salmon', 'src': '/static/foodstim60/salmon.jpg', 'key': 'NaN', 'origWidth': 410, 'origHeight': 409, 'width': 410, 'height': 409, 'widthPercent': 0.8, 'rescaleHeight': True, 'trialN': 1, 'loaded': True, 'loadedTime': 2735.399999976158, 'positionName': 'CENTER', 'positionCoords': [553.5, 222]}]",Rate how much you want to eat this food from 0 (least) to 10 (most).,4619.600000023842,1669840491634,salmon,1496.3999999761581,True,4.32,6116.0,1496.3999999761581,True,HRV,HRV_0117,2022-11-30 19:36:57
2,"[{'imgObject': {}, 'id': 'blueberries', 'src': '/static/foodstim60/blueberries.jpg', 'key': 'NaN', 'origWidth': 411, 'origHeight': 411, 'width': 411, 'height': 411, 'widthPercent': 0.8, 'rescaleHeight': True, 'trialN': 2, 'loaded': True, 'loadedTime': 2740.899999976158, 'positionName': 'CENTER', 'positionCoords': [553, 221]}]",Rate how much you want to eat this food from 0 (least) to 10 (most).,6116.800000071526,1669840493131,blueberries,1505.0999999046326,True,7.2,7621.899999976158,1505.0999999046326,True,HRV,HRV_0117,2022-11-30 19:36:57
3,"[{'imgObject': {}, 'id': 'chicken nuggets2', 'src': '/static/foodstim60/chicken nuggets2.jpg', 'key': 'NaN', 'origWidth': 410, 'origHeight': 409, 'width': 410, 'height': 409, 'widthPercent': 0.8, 'rescaleHeight': True, 'trialN': 3, 'loaded': True, 'loadedTime': 2746.399999976158, 'positionName': 'CENTER', 'positionCoords': [553.5, 222]}]",Rate how much you want to eat this food from 0 (least) to 10 (most).,7623.100000023842,1669840494637,chicken nuggets2,1136.8999999761581,True,7.61,8760.0,1136.8999999761581,True,HRV,HRV_0117,2022-11-30 19:36:57
4,"[{'imgObject': {}, 'id': 'bagel and cc', 'src': '/static/foodstim60/bagel and cc.jpg', 'key': 'NaN', 'origWidth': 410, 'origHeight': 410, 'width': 410, 'height': 410, 'widthPercent': 0.8, 'rescaleHeight': True, 'trialN': 4, 'loaded': True, 'loadedTime': 2753.100000023842, 'positionName': 'CENTER', 'positionCoords': [553.5, 221.5]}]",Rate how much you want to eat this food from 0 (least) to 10 (most).,8761.200000047684,1669840495775,bagel and cc,1410.8999999761581,True,3.66,10172.100000023842,1410.8999999761581,True,HRV,HRV_0117,2022-11-30 19:36:57
5,"[{'imgObject': {}, 'id': 'mashed potato', 'src': '/static/foodstim60/mashed potato.jpg', 'key': 'NaN', 'origWidth': 409, 'origHeight': 409, 'width': 409, 'height': 409, 'widthPercent': 0.8, 'rescaleHeight': True, 'trialN': 5, 'loaded': True, 'loadedTime': 2765.7000000476837, 'positionName': 'CENTER', 'positionCoords': [554, 222]}]",Rate how much you want to eat this food from 0 (least) to 10 (most).,10173.5,1669840497188,mashed potato,3018.3000000715256,True,4.03,13191.800000071526,3018.3000000715256,True,HRV,HRV_0117,2022-11-30 19:36:57
6,"[{'imgObject': {}, 'id': 'kiwi', 'src': '/static/foodstim60/kiwi.jpg', 'key': 'NaN', 'origWidth': 410, 'origHeight': 410, 'width': 410, 'height': 410, 'widthPercent': 0.8, 'rescaleHeight': True, 'trialN': 6, 'loaded': True, 'loadedTime': 2790, 'positionName': 'CENTER', 'positionCoords': [553.5, 221.5]}]",Rate how much you want to eat this food from 0 (least) to 10 (most).,13192.899999976158,1669840500207,kiwi,949.2000000476837,True,2.31,14142.100000023842,949.2000000476837,True,HRV,HRV_0117,2022-11-30 19:36:57
7,"[{'imgObject': {}, 'id': 'popsicles', 'src': '/static/foodstim60/popsicles.jpg', 'key': 'NaN', 'origWidth': 410, 'origHeight': 410, 'width': 410, 'height': 410, 'widthPercent': 0.8, 'rescaleHeight': True, 'trialN': 7, 'loaded': True, 'loadedTime': 3089.899999976158, 'positionName': 'CENTER', 'positionCoords': [553.5, 221.5]}]",Rate how much you want to eat this food from 0 (least) to 10 (most).,14143.100000023842,1669840501157,popsicles,1142.8999999761581,True,6.6000000000000005,15286.0,1142.8999999761581,True,HRV,HRV_0117,2022-11-30 19:36:57
8,"[{'imgObject': {}, 'id': 'hashbrowns', 'src': '/static/foodstim60/hashbrowns.jpg', 'key': 'NaN', 'origWidth': 411, 'origHeight': 410, 'width': 411, 'height': 410, 'widthPercent': 0.8, 'rescaleHeight': True, 'trialN': 8, 'loaded': True, 'loadedTime': 2809.100000023842, 'positionName': 'CENTER', 'positionCoords': [553, 221.5]}]",Rate how much you want to eat this food from 0 (least) to 10 (most).,15287.200000047684,1669840502301,hashbrowns,2926.899999976158,True,4.91,18214.100000023842,2926.899999976158,True,HRV,HRV_0117,2022-11-30 19:36:57
9,"[{'imgObject': {}, 'id': 'veggieswithdip', 'src': '/static/foodstim60/veggieswithdip.jpg', 'key': 'NaN', 'origWidth': 409, 'origHeight': 409, 'width': 409, 'height': 409, 'widthPercent': 0.8, 'rescaleHeight': True, 'trialN': 9, 'loaded': True, 'loadedTime': 2815.2000000476837, 'positionName': 'CENTER', 'positionCoords': [554, 222]}]",Rate how much you want to eat this food from 0 (least) to 10 (most).,18215.399999976158,1669840505230,veggieswithdip,1636.5,True,0.19,19851.899999976158,1636.5,True,HRV,HRV_0117,2022-11-30 19:36:57
10,"[{'imgObject': {}, 'id': 'rigatoni', 'src': '/static/foodstim60/rigatoni.jpg', 'key': 'NaN', 'origWidth': 411, 'origHeight': 411, 'width': 411, 'height': 411, 'widthPercent': 0.8, 'rescaleHeight': True, 'trialN': 10, 'loaded': True, 'loadedTime': 2821.2000000476837, 'positionName': 'CENTER', 'positionCoords': [553, 221]}]",Rate how much you want to eat this food from 0 (least) to 10 (most).,19853.399999976158,1669840506868,rigatoni,828.6000000238419,True,0.2,20682.0,828.6000000238419,True,HRV,HRV_0117,2022-11-30 19:36:57
11,"[{'imgObject': {}, 'id': 'yogurt no spoon', 'src': '/static/foodstim60/yogurt no spoon.jpg', 'key': 'NaN', 'origWidth': 411, 'origHeight': 410, 'width': 411, 'height': 410, 'widthPercent': 0.8, 'rescaleHeight': True, 'trialN': 11, 'loaded': True, 'loadedTime': 2827.399999976158, 'positionName': 'CENTER', 'positionCoords': [553, 221.5]}]",Rate how much you want to eat this food from 0 (least) to 10 (most).,20683.300000071526,1669840507698,yogurt no spoon,3792.5,True,4.96,24475.800000071526,3792.5,True,HRV,HRV_0117,2022-11-30 19:36:57
12,"[{'imgObject': {}, 'id': 'olives', 'src': '/static/foodstim60/olives.jpg', 'key': 'NaN', 'origWidth': 410, 'origHeight': 410, 'width': 410, 'height': 410, 'widthPercent': 0.8, 'rescaleHeight': True, 'trialN': 12, 'loaded': True, 'loadedTime': 2833.600000023842, 'positionName': 'CENTER', 'positionCoords': [553.5, 221.5]}]",Rate how much you want to eat this food from 0 (least) to 10 (most).,24477.399999976158,1669840511491,olives,1178.4000000953674,True,2.84,25655.800000071526,1178.4000000953674,True,HRV,HRV_0117,2022-11-30 19:36:57
13,"[{'imgObject': {}, 'id': 'avocado', 'src': '/static/foodstim60/avocado.jpg', 'key': 'NaN', 'origWidth': 409, 'origHeight': 409, 'width': 409, 'height': 409, 'widthPercent': 0.8, 'rescaleHeight': True, 'trialN': 13, 'loaded': True, 'loadedTime': 2839.8000000715256, 'positionName': 'CENTER', 'positionCoords': [554, 222]}]",Rate how much you want to eat this food from 0 (least) to 10 (most).,25657.200000047684,1669840512671,avocado,1282.6000000238419,True,4.5,26939.800000071526,1282.6000000238419,True,HRV,HRV_0117,2022-11-30 19:36:57
14,"[{'imgObject': {}, 'id': 'luckycharms', 'src': '/static/foodstim60/luckycharms.jpg', 'key': 'NaN', 'origWidth': 410, 'origHeight': 409, 'width': 410, 'height': 409, 'widthPercent': 0.8, 'rescaleHeight': True, 'trialN': 14, 'loaded': True, 'loadedTime': 2846.399999976158, 'positionName': 'CENTER', 'positionCoords': [553.5, 222]}]",Rate how much you want to eat this food from 0 (least) to 10 (most).,26941.200000047684,1669840513955,luckycharms,6156.799999952316,True,2.69,33098.0,6156.799999952316,True,HRV,HRV_0117,2022-11-30 19:36:57
15,"[{'imgObject': {}, 'id': 'tacos', 'src': '/static/foodstim60/tacos.jpg', 'key': 'NaN', 'origWidth': 411, 'origHeight': 411, 'width': 411, 'height': 411, 'widthPercent': 0.8, 'rescaleHeight': True, 'trialN': 15, 'loaded': True, 'loadedTime': 2852.600000023842, 'positionName': 'CENTER', 'positionCoords': [553, 221]}]",Rate how much you want to eat this food from 0 (least) to 10 (most).,33099.5,1669840520113,tacos,3128.5,True,5.74,36228.0,3128.5,True,HRV,HRV_0117,2022-11-30 19:36:57
16,"[{'imgObject': {}, 'id': 'sweetpotato', 'src': '/static/foodstim60/sweetpotato.jpg', 'key': 'NaN', 'origWidth': 410, 'origHeight': 410, 'width': 410, 'height': 410, 'widthPercent': 0.8, 'rescaleHeight': True, 'trialN': 16, 'loaded': True, 'loadedTime': 2872.899999976158, 'positionName': 'CENTER', 'positionCoords': [553.5, 221.5]}]",Rate how much you want to eat this food from 0 (least) to 10 (most).,36229.39999997616,1669840523243,sweetpotato,2900.600000023842,True,3.6,39130.0,2900.600000023842,True,HRV,HRV_0117,2022-11-30 19:36:57
17,"[{'imgObject': {}, 'id': 'turkeysandwich', 'src': '/static/foodstim60/turkeysandwich.jpg', 'key': 'NaN', 'origWidth': 409, 'origHeight': 409, 'width': 409, 'height': 409, 'widthPercent': 0.8, 'rescaleHeight': True, 'trialN': 17, 'loaded': True, 'loadedTime': 2881.100000023842, 'positionName': 'CENTER', 'positionCoords': [554, 222]}]",Rate how much you want to eat this food from 0 (least) to 10 (most).,39131.39999997616,1669840526145,turkeysandwich,2006.4000000953674,True,6.07,41137.800000071526,2006.4000000953674,True,HRV,HRV_0117,2022-11-30 19:36:57
18,"[{'imgObject': {}, 'id': 'corn cob', 'src': '/static/foodstim60/corn cob.jpg', 'key': 'NaN', 'origWidth': 411, 'origHeight': 411, 'width': 411, 'height': 411, 'widthPercent': 0.8, 'rescaleHeight': True, 'trialN': 18, 'loaded': True, 'loadedTime': 2887.399999976158, 'positionName': 'CENTER', 'positionCoords': [553, 221]}]",Rate how much you want to eat this food from 0 (least) to 10 (most).,41139.5,1669840528153,corn cob,3212.5,True,2.07,44352.0,3212.5,True,HRV,HRV_0117,2022-11-30 19:36:57
19,"[{'imgObject': {}, 'id': 'strawberries', 'src': '/static/foodstim60/strawberries.jpg', 'key': 'NaN', 'origWidth': 410, 'origHeight': 410, 'width': 410, 'height': 410, 'widthPercent': 0.8, 'rescaleHeight': True, 'trialN': 19, 'loaded': True, 'loadedTime': 2906, 'positionName': 'CENTER', 'positionCoords': [553.5, 221.5]}]",Rate how much you want to eat this food from 0 (least) to 10 (most).,44353.5,1669840531367,strawberries,1362.3000000715256,True,6.78,45715.800000071526,1362.3000000715256,True,HRV,HRV_0117,2022-11-30 19:36:57
20,"[{'imgObject': {}, 'id': 'eggsalad', 'src': '/static/foodstim60/eggsalad.jpg', 'key': 'NaN', 'origWidth': 410, 'origHeight': 409, 'width': 410, 'height': 409, 'widthPercent': 0.8, 'rescaleHeight': True, 'trialN': 20, 'loaded': True, 'loadedTime': 2938, 'positionName': 'CENTER', 'positionCoords': [553.5, 222]}]",Rate how much you want to eat this food from 0 (least) to 10 (most).,45717.300000071526,1669840532731,eggsalad,2762.6999999284744,True,5.73,48480.0,2762.6999999284744,True,HRV,HRV_0117,2022-11-30 19:36:57
21,"[{'imgObject': {}, 'id': 'burger', 'src': '/static/foodstim60/burger.jpg', 'key': 'NaN', 'origWidth': 409, 'origHeight': 409, 'width': 409, 'height': 409, 'widthPercent': 0.8, 'rescaleHeight': True, 'trialN': 21, 'loaded': True, 'loadedTime': 2945.7000000476837, 'positionName': 'CENTER', 'positionCoords': [554, 222]}]",Rate how much you want to eat this food from 0 (least) to 10 (most).,48481.60000002384,1669840535496,burger,2030.3999999761581,True,9.26,50512.0,2030.3999999761581,True,HRV,HRV_0117,2022-11-30 19:36:57
22,"[{'imgObject': {}, 'id': 'baked potato', 'src': '/static/foodstim60/baked potato.jpg', 'key': 'NaN', 'origWidth': 409, 'origHeight': 410, 'width': 409, 'height': 410, 'widthPercent': 0.8, 'rescaleHeight': True, 'trialN': 22, 'loaded': True, 'loadedTime': 2953.100000023842, 'positionName': 'CENTER', 'positionCoords': [554, 221.5]}]",Rate how much you want to eat this food from 0 (least) to 10 (most).,50513.700000047684,1669840537528,baked potato,1212.2999999523163,True,7.88,51726.0,1212.2999999523163,True,HRV,HRV_0117,2022-11-30 19:36:57
23,"[{'imgObject': {}, 'id': 'cherry tomato', 'src': '/static/foodstim60/cherry tomato.jpg', 'key': 'NaN', 'origWidth': 410, 'origHeight': 410, 'width': 410, 'height': 410, 'widthPercent': 0.8, 'rescaleHeight': True, 'trialN': 23, 'loaded': True, 'loadedTime': 2966.100000023842, 'positionName': 'CENTER', 'positionCoords': [553.5, 221.5]}]",Rate how much you want to eat this food from 0 (least) to 10 (most).,51727.700000047684,1669840538742,cherry tomato,4894.299999952316,True,1.48,56622.0,4894.299999952316,True,HRV,HRV_0117,2022-11-30 19:36:57
24,"[{'imgObject': {}, 'id': 'rigatoni and sauce', 'src': '/static/foodstim60/rigatoni and sauce.jpg', 'key': 'NaN', 'origWidth': 410, 'origHeight': 411, 'width': 410, 'height': 411, 'widthPercent': 0.8, 'rescaleHeight': True, 'trialN': 24, 'loaded': True, 'loadedTime': 2972.8000000715256, 'positionName': 'CENTER', 'positionCoords': [553.5, 221]}]",Rate how much you want to eat this food from 0 (least) to 10 (most).,56623.10000002384,1669840543637,rigatoni and sauce,1520.6000000238419,True,2.38,58143.700000047684,1520.6000000238419,True,HRV,HRV_0117,2022-11-30 19:36:57
25,"[{'imgObject': {}, 'id': 'granola w milk', 'src': '/static/foodstim60/granola w milk.jpg', 'key': 'NaN', 'origWidth': 410, 'origHeight': 410, 'width': 410, 'height': 410, 'widthPercent': 0.8, 'rescaleHeight': True, 'trialN': 25, 'loaded': True, 'loadedTime': 2978.899999976158, 'positionName': 'CENTER', 'positionCoords': [553.5, 221.5]}]",Rate how much you want to eat this food from 0 (least) to 10 (most).,58144.60000002384,1669840545159,granola w milk,2041.2000000476837,True,6.2700000000000005,60185.800000071526,2041.2000000476837,True,HRV,HRV_0117,2022-11-30 19:36:57
26,"[{'imgObject': {}, 'id': 'froot loops w milk', 'src': '/static/foodstim60/froot loops w milk.jpg', 'key': 'NaN', 'origWidth': 410, 'origHeight': 410, 'width': 410, 'height': 410, 'widthPercent': 0.8, 'rescaleHeight': True, 'trialN': 26, 'loaded': True, 'loadedTime': 2985.399999976158, 'positionName': 'CENTER', 'positionCoords': [553.5, 221.5]}]",Rate how much you want to eat this food from 0 (least) to 10 (most).,60186.60000002384,1669840547200,froot loops w milk,243.29999995231628,True,6.28,60429.89999997616,243.29999995231628,True,HRV,HRV_0117,2022-11-30 19:36:57
27,"[{'imgObject': {}, 'id': 'cheerios', 'src': '/static/foodstim60/cheerios.jpg', 'key': 'NaN', 'origWidth': 409, 'origHeight': 410, 'width': 409, 'height': 410, 'widthPercent': 0.8, 'rescaleHeight': True, 'trialN': 27, 'loaded': True, 'loadedTime': 2991.899999976158, 'positionName': 'CENTER', 'positionCoords': [554, 221.5]}]",Rate how much you want to eat this food from 0 (least) to 10 (most).,60431.10000002384,1669840547445,cheerios,1442.7000000476837,True,5.83,61873.800000071526,1442.7000000476837,True,HRV,HRV_0117,2022-11-30 19:36:57
28,"[{'imgObject': {}, 'id': 'cherries', 'src': '/static/foodstim60/cherries.jpg', 'key': 'NaN', 'origWidth': 410, 'origHeight': 411, 'width': 410, 'height': 411, 'widthPercent': 0.8, 'rescaleHeight': True, 'trialN': 28, 'loaded': True, 'loadedTime': 2997.899999976158, 'positionName': 'CENTER', 'positionCoords': [553.5, 221]}]",Rate how much you want to eat this food from 0 (least) to 10 (most).,61874.89999997616,1669840548889,cherries,1181.1000000238419,True,7.47,63056.0,1181.1000000238419,True,HRV,HRV_0117,2022-11-30 19:36:57
29,"[{'imgObject': {}, 'id': 'salad w chicken', 'src': '/static/foodstim60/salad w chicken.jpg', 'key': 'NaN', 'origWidth': 411, 'origHeight': 411, 'width': 411, 'height': 411, 'widthPercent': 0.8, 'rescaleHeight': True, 'trialN': 29, 'loaded': True, 'loadedTime': 3003.8000000715256, 'positionName': 'CENTER', 'positionCoords': [553, 221]}]",Rate how much you want to eat this food from 0 (least) to 10 (most).,63057.10000002384,1669840550071,salad w chicken,1786.6000000238419,True,0.77,64843.700000047684,1786.6000000238419,True,HRV,HRV_0117,2022-11-30 19:36:57
30,"[{'imgObject': {}, 'id': 'Grapes', 'src': '/static/foodstim60/Grapes.jpg', 'key': 'NaN', 'origWidth': 411, 'origHeight': 411, 'width': 411, 'height': 411, 'widthPercent': 0.8, 'rescaleHeight': True, 'trialN': 30, 'loaded': True, 'loadedTime': 3010.2000000476837, 'positionName': 'CENTER', 'positionCoords': [553, 221]}]",Rate how much you want to eat this food from 0 (least) to 10 (most).,64845.200000047684,1669840551859,Grapes,1348.7999999523163,True,6.93,66194.0,1348.7999999523163,True,HRV,HRV_0117,2022-11-30 19:36:57
31,"[{'imgObject': {}, 'id': 'cantaloupe', 'src': '/static/foodstim60/cantaloupe.jpg', 'key': 'NaN', 'origWidth': 409, 'origHeight': 409, 'width': 409, 'height': 409, 'widthPercent': 0.8, 'rescaleHeight': True, 'trialN': 31, 'loaded': True, 'loadedTime': 3015.8000000715256, 'positionName': 'CENTER', 'positionCoords': [554, 222]}]",Rate how much you want to eat this food from 0 (least) to 10 (most).,66195.39999997616,1669840553209,cantaloupe,1194.6000000238419,True,5.96,67390.0,1194.6000000238419,True,HRV,HRV_0117,2022-11-30 19:36:57
32,"[{'imgObject': {}, 'id': 'pear', 'src': '/static/foodstim60/pear.jpg', 'key': 'NaN', 'origWidth': 411, 'origHeight': 410, 'width': 411, 'height': 410, 'widthPercent': 0.8, 'rescaleHeight': True, 'trialN': 32, 'loaded': True, 'loadedTime': 3021.399999976158, 'positionName': 'CENTER', 'positionCoords': [553, 221.5]}]",Rate how much you want to eat this food from 0 (least) to 10 (most).,67391.20000004768,1669840554405,pear,904.7999999523163,True,5.21,68296.0,904.7999999523163,True,HRV,HRV_0117,2022-11-30 19:36:57
33,"[{'imgObject': {}, 'id': 'omelette', 'src': '/static/foodstim60/omelette.jpg', 'key': 'NaN', 'origWidth': 410, 'origHeight': 409, 'width': 410, 'height': 409, 'widthPercent': 0.8, 'rescaleHeight': True, 'trialN': 33, 'loaded': True, 'loadedTime': 3027.3000000715256, 'positionName': 'CENTER', 'positionCoords': [553.5, 222]}]",Rate how much you want to eat this food from 0 (least) to 10 (most).,68297.20000004768,1669840555311,omelette,1606.7999999523163,True,4.72,69904.0,1606.7999999523163,True,HRV,HRV_0117,2022-11-30 19:36:57
34,"[{'imgObject': {}, 'id': 'sushi w_condiments', 'src': '/static/foodstim60/sushi w_condiments.jpg', 'key': 'NaN', 'origWidth': 410, 'origHeight': 410, 'width': 410, 'height': 410, 'widthPercent': 0.8, 'rescaleHeight': True, 'trialN': 34, 'loaded': True, 'loadedTime': 3053.399999976158, 'positionName': 'CENTER', 'positionCoords': [553.5, 221.5]}]",Rate how much you want to eat this food from 0 (least) to 10 (most).,69905.70000004768,1669840556920,sushi w_condiments,1144.3999999761581,True,3.58,71050.10000002384,1144.3999999761581,True,HRV,HRV_0117,2022-11-30 19:36:57
35,"[{'imgObject': {}, 'id': 'burrito', 'src': '/static/foodstim60/burrito.jpg', 'key': 'NaN', 'origWidth': 410, 'origHeight': 410, 'width': 410, 'height': 410, 'widthPercent': 0.8, 'rescaleHeight': True, 'trialN': 35, 'loaded': True, 'loadedTime': 3072, 'positionName': 'CENTER', 'positionCoords': [553.5, 221.5]}]",Rate how much you want to eat this food from 0 (least) to 10 (most).,71051.39999997616,1669840558065,burrito,1524.6000000238419,True,5.71,72576.0,1524.6000000238419,True,HRV,HRV_0117,2022-11-30 19:36:57
36,"[{'imgObject': {}, 'id': 'turkey sandwich', 'src': '/static/foodstim60/turkey sandwich.jpg', 'key': 'NaN', 'origWidth': 409, 'origHeight': 409, 'width': 409, 'height': 409, 'widthPercent': 0.8, 'rescaleHeight': True, 'trialN': 36, 'loaded': True, 'loadedTime': 2702.2000000476837, 'positionName': 'CENTER', 'positionCoords': [554, 222]}]",Rate how much you want to eat this food from 0 (least) to 10 (most).,72577.20000004768,1669840559591,turkey sandwich,3246.7999999523163,True,6.2,75824.0,3246.7999999523163,True,HRV,HRV_0117,2022-11-30 19:36:57
37,"[{'imgObject': {}, 'id': 'edamame', 'src': '/static/foodstim60/edamame.jpg', 'key': 'NaN', 'origWidth': 409, 'origHeight': 410, 'width': 409, 'height': 410, 'widthPercent': 0.8, 'rescaleHeight': True, 'trialN': 37, 'loaded': True, 'loadedTime': 2707.8000000715256, 'positionName': 'CENTER', 'positionCoords': [554, 221.5]}]",Rate how much you want to eat this food from 0 (least) to 10 (most).,75825.39999997616,1669840562839,edamame,2050.600000023842,True,0.31,77876.0,2050.600000023842,True,HRV,HRV_0117,2022-11-30 19:36:57
38,"[{'imgObject': {}, 'id': 'cocktailshrimp', 'src': '/static/foodstim60/cocktailshrimp.jpg', 'key': 'NaN', 'origWidth': 410, 'origHeight': 410, 'width': 410, 'height': 410, 'widthPercent': 0.8, 'rescaleHeight': True, 'trialN': 38, 'loaded': True, 'loadedTime': 2713.100000023842, 'positionName': 'CENTER', 'positionCoords': [553.5, 221.5]}]",Rate how much you want to eat this food from 0 (least) to 10 (most).,77877.30000007153,1669840564891,cocktailshrimp,1712.6999999284744,True,4.09,79590.0,1712.6999999284744,True,HRV,HRV_0117,2022-11-30 19:36:57
39,"[{'imgObject': {}, 'id': 'steak', 'src': '/static/foodstim60/steak.jpg', 'key': 'NaN', 'origWidth': 410, 'origHeight': 410, 'width': 410, 'height': 410, 'widthPercent': 0.8, 'rescaleHeight': True, 'trialN': 39, 'loaded': True, 'loadedTime': 2718.399999976158, 'positionName': 'CENTER', 'positionCoords': [553.5, 221.5]}]",Rate how much you want to eat this food from 0 (least) to 10 (most).,79591.5,1669840566605,steak,1890.5,True,9.700000000000001,81482.0,1890.5,True,HRV,HRV_0117,2022-11-30 19:36:57
40,"[{'imgObject': {}, 'id': 'fried eggs', 'src': '/static/foodstim60/fried eggs.jpg', 'key': 'NaN', 'origWidth': 410, 'origHeight': 410, 'width': 410, 'height': 410, 'widthPercent': 0.8, 'rescaleHeight': True, 'trialN': 40, 'loaded': True, 'loadedTime': 2724.100000023842, 'positionName': 'CENTER', 'positionCoords': [553.5, 221.5]}]",Rate how much you want to eat this food from 0 (least) to 10 (most).,81483.60000002384,1669840568498,fried eggs,1640.3999999761581,True,6.0200000000000005,83124.0,1640.3999999761581,True,HRV,HRV_0117,2022-11-30 19:36:57
41,"[{'imgObject': {}, 'id': 'blackbeanswithrice', 'src': '/static/foodstim60/blackbeanswithrice.jpg', 'key': 'NaN', 'origWidth': 410, 'origHeight': 410, 'width': 410, 'height': 410, 'widthPercent': 0.8, 'rescaleHeight': True, 'trialN': 41, 'loaded': True, 'loadedTime': 2729.3000000715256, 'positionName': 'CENTER', 'positionCoords': [553.5, 221.5]}]",Rate how much you want to eat this food from 0 (least) to 10 (most).,83125.5,1669840570139,blackbeanswithrice,1414.6000000238419,True,1.46,84540.10000002384,1414.6000000238419,True,HRV,HRV_0117,2022-11-30 19:36:57
42,"[{'imgObject': {}, 'id': 'bagel plain', 'src': '/static/foodstim60/bagel plain.jpg', 'key': 'NaN', 'origWidth': 410, 'origHeight': 410, 'width': 410, 'height': 410, 'widthPercent': 0.8, 'rescaleHeight': True, 'trialN': 42, 'loaded': True, 'loadedTime': 2759.8000000715256, 'positionName': 'CENTER', 'positionCoords': [553.5, 221.5]}]",Rate how much you want to eat this food from 0 (least) to 10 (most).,84541.0,1669840571555,bagel plain,1237.1000000238419,True,0.88,85778.10000002384,1237.1000000238419,True,HRV,HRV_0117,2022-11-30 19:36:57
43,"[{'imgObject': {}, 'id': 'lox', 'src': '/static/foodstim60/lox.jpg', 'key': 'NaN', 'origWidth': 410, 'origHeight': 411, 'width': 410, 'height': 411, 'widthPercent': 0.8, 'rescaleHeight': True, 'trialN': 43, 'loaded': True, 'loadedTime': 2772, 'positionName': 'CENTER', 'positionCoords': [553.5, 221]}]",Rate how much you want to eat this food from 0 (least) to 10 (most).,85779.10000002384,1669840572793,lox,3468.899999976158,True,0.9500000000000001,89248.0,3468.899999976158,True,HRV,HRV_0117,2022-11-30 19:36:57
44,"[{'imgObject': {}, 'id': 'apple slices', 'src': '/static/foodstim60/apple slices.jpg', 'key': 'NaN', 'origWidth': 409, 'origHeight': 410, 'width': 409, 'height': 410, 'widthPercent': 0.8, 'rescaleHeight': True, 'trialN': 44, 'loaded': True, 'loadedTime': 2778, 'positionName': 'CENTER', 'positionCoords': [554, 221.5]}]",Rate how much you want to eat this food from 0 (least) to 10 (most).,89249.10000002384,1669840576263,apple slices,1556.8999999761581,True,3.56,90806.0,1556.8999999761581,True,HRV,HRV_0117,2022-11-30 19:36:57
45,"[{'imgObject': {}, 'id': 'mac & cheese', 'src': '/static/foodstim60/mac & cheese.jpg', 'key': 'NaN', 'origWidth': 410, 'origHeight': 410, 'width': 410, 'height': 410, 'widthPercent': 0.8, 'rescaleHeight': True, 'trialN': 45, 'loaded': True, 'loadedTime': 2784.3000000715256, 'positionName': 'CENTER', 'positionCoords': [553.5, 221.5]}]",Rate how much you want to eat this food from 0 (least) to 10 (most).,90807.20000004768,1669840577821,mac & cheese,1816.6999999284744,True,4.99,92623.89999997616,1816.6999999284744,True,HRV,HRV_0117,2022-11-30 19:36:57
46,"[{'imgObject': {}, 'id': 'orange slices', 'src': '/static/foodstim60/orange slices.jpg', 'key': 'NaN', 'origWidth': 409, 'origHeight': 410, 'width': 409, 'height': 410, 'widthPercent': 0.8, 'rescaleHeight': True, 'trialN': 46, 'loaded': True, 'loadedTime': 2796.5, 'positionName': 'CENTER', 'positionCoords': [554, 221.5]}]",Rate how much you want to eat this food from 0 (least) to 10 (most).,92625.10000002384,1669840579639,orange slices,972.8999999761581,True,5.91,93598.0,972.8999999761581,True,HRV,HRV_0117,2022-11-30 19:36:57
47,"[{'imgObject': {}, 'id': 'shreddedwheatwithmilk', 'src': '/static/foodstim60/shreddedwheatwithmilk.jpg', 'key': 'NaN', 'origWidth': 410, 'origHeight': 410, 'width': 410, 'height': 410, 'widthPercent': 0.8, 'rescaleHeight': True, 'trialN': 47, 'loaded': True, 'loadedTime': 2802.7000000476837, 'positionName': 'CENTER', 'positionCoords': [553.5, 221.5]}]",Rate how much you want to eat this food from 0 (least) to 10 (most).,93599.20000004768,1669840580613,shreddedwheatwithmilk,859.1000000238419,True,6.43,94458.30000007153,859.1000000238419,True,HRV,HRV_0117,2022-11-30 19:36:57
48,"[{'imgObject': {}, 'id': 'roastedpotatoes', 'src': '/static/foodstim60/roastedpotatoes.jpg', 'key': 'NaN', 'origWidth': 409, 'origHeight': 410, 'width': 409, 'height': 410, 'widthPercent': 0.8, 'rescaleHeight': True, 'trialN': 48, 'loaded': True, 'loadedTime': 2894, 'positionName': 'CENTER', 'positionCoords': [554, 221.5]}]",Rate how much you want to eat this food from 0 (least) to 10 (most).,94459.80000007153,1669840581474,roastedpotatoes,1828.1999999284744,True,5.03,96288.0,1828.1999999284744,True,HRV,HRV_0117,2022-11-30 19:36:57
49,"[{'imgObject': {}, 'id': 'hotdog w must', 'src': '/static/foodstim60/hotdog w must.jpg', 'key': 'NaN', 'origWidth': 409, 'origHeight': 409, 'width': 409, 'height': 409, 'widthPercent': 0.8, 'rescaleHeight': True, 'trialN': 49, 'loaded': True, 'loadedTime': 2899.8000000715256, 'positionName': 'CENTER', 'positionCoords': [554, 222]}]",Rate how much you want to eat this food from 0 (least) to 10 (most).,96289.20000004768,1669840583303,hotdog w must,1398.7999999523163,True,6.37,97688.0,1398.7999999523163,True,HRV,HRV_0117,2022-11-30 19:36:57
50,"[{'imgObject': {}, 'id': 'ice cream sundae 002', 'src': '/static/foodstim60/ice cream sundae 002.jpg', 'key': 'NaN', 'origWidth': 409, 'origHeight': 409, 'width': 409, 'height': 409, 'widthPercent': 0.8, 'rescaleHeight': True, 'trialN': 50, 'loaded': True, 'loadedTime': 2912.5, 'positionName': 'CENTER', 'positionCoords': [554, 222]}]",Rate how much you want to eat this food from 0 (least) to 10 (most).,97689.39999997616,1669840584703,ice cream sundae 002,888.5,True,6.94,98577.89999997616,888.5,True,HRV,HRV_0117,2022-11-30 19:36:57
51,"[{'imgObject': {}, 'id': 'eggs', 'src': '/static/foodstim60/eggs.jpg', 'key': 'NaN', 'origWidth': 409, 'origHeight': 409, 'width': 409, 'height': 409, 'widthPercent': 0.8, 'rescaleHeight': True, 'trialN': 51, 'loaded': True, 'loadedTime': 2917.899999976158, 'positionName': 'CENTER', 'positionCoords': [554, 222]}]",Rate how much you want to eat this food from 0 (least) to 10 (most).,98579.30000007153,1669840585593,eggs,1496.6999999284744,True,4.7,100076.0,1496.6999999284744,True,HRV,HRV_0117,2022-11-30 19:36:57
52,"[{'imgObject': {}, 'id': 'fruitsalad', 'src': '/static/foodstim60/fruitsalad.jpg', 'key': 'NaN', 'origWidth': 410, 'origHeight': 410, 'width': 410, 'height': 410, 'widthPercent': 0.8, 'rescaleHeight': True, 'trialN': 52, 'loaded': True, 'loadedTime': 2924.399999976158, 'positionName': 'CENTER', 'positionCoords': [553.5, 221.5]}]",Rate how much you want to eat this food from 0 (least) to 10 (most).,100077.20000004768,1669840587091,fruitsalad,1948.7999999523163,True,7.15,102026.0,1948.7999999523163,True,HRV,HRV_0117,2022-11-30 19:36:57
53,"[{'imgObject': {}, 'id': 'chickenfingers', 'src': '/static/foodstim60/chickenfingers.jpg', 'key': 'NaN', 'origWidth': 410, 'origHeight': 410, 'width': 410, 'height': 410, 'widthPercent': 0.8, 'rescaleHeight': True, 'trialN': 53, 'loaded': True, 'loadedTime': 2931.3000000715256, 'positionName': 'CENTER', 'positionCoords': [553.5, 221.5]}]",Rate how much you want to eat this food from 0 (least) to 10 (most).,102027.20000004768,1669840589041,chickenfingers,2004.7999999523163,True,6.47,104032.0,2004.7999999523163,True,HRV,HRV_0117,2022-11-30 19:36:57
54,"[{'imgObject': {}, 'id': 'mango', 'src': '/static/foodstim60/mango.jpg', 'key': 'NaN', 'origWidth': 411, 'origHeight': 411, 'width': 411, 'height': 411, 'widthPercent': 0.8, 'rescaleHeight': True, 'trialN': 54, 'loaded': True, 'loadedTime': 3032.600000023842, 'positionName': 'CENTER', 'positionCoords': [553, 221]}]",Rate how much you want to eat this food from 0 (least) to 10 (most).,104033.39999997616,1669840591047,mango,1290.7000000476837,True,5.42,105324.10000002384,1290.7000000476837,True,HRV,HRV_0117,2022-11-30 19:36:57
55,"[{'imgObject': {}, 'id': 'raspberries', 'src': '/static/foodstim60/raspberries.jpg', 'key': 'NaN', 'origWidth': 411, 'origHeight': 411, 'width': 411, 'height': 411, 'widthPercent': 0.8, 'rescaleHeight': True, 'trialN': 55, 'loaded': True, 'loadedTime': 3038.2000000476837, 'positionName': 'CENTER', 'positionCoords': [553, 221]}]",Rate how much you want to eat this food from 0 (least) to 10 (most).,105325.80000007153,1669840592340,raspberries,1050.1999999284744,True,7.55,106376.0,1050.1999999284744,True,HRV,HRV_0117,2022-11-30 19:36:57
56,"[{'imgObject': {}, 'id': 'Tribe humus pita', 'src': '/static/foodstim60/Tribe humus pita.jpg', 'key': 'NaN', 'origWidth': 411, 'origHeight': 411, 'width': 411, 'height': 411, 'widthPercent': 0.8, 'rescaleHeight': True, 'trialN': 56, 'loaded': True, 'loadedTime': 3060.399999976158, 'positionName': 'CENTER', 'positionCoords': [553, 221]}]",Rate how much you want to eat this food from 0 (least) to 10 (most).,106377.30000007153,1669840593391,Tribe humus pita,2524.5999999046326,True,5.08,108901.89999997616,2524.5999999046326,True,HRV,HRV_0117,2022-11-30 19:36:57
57,"[{'imgObject': {}, 'id': 'raisin bran w milk', 'src': '/static/foodstim60/raisin bran w milk.jpg', 'key': 'NaN', 'origWidth': 411, 'origHeight': 411, 'width': 411, 'height': 411, 'widthPercent': 0.8, 'rescaleHeight': True, 'trialN': 57, 'loaded': True, 'loadedTime': 3066.2000000476837, 'positionName': 'CENTER', 'positionCoords': [553, 221]}]",Rate how much you want to eat this food from 0 (least) to 10 (most).,108903.20000004768,1669840595917,raisin bran w milk,1808.8999999761581,True,6.28,110712.10000002384,1808.8999999761581,True,HRV,HRV_0117,2022-11-30 19:36:57
58,"[{'imgObject': {}, 'id': 'grilled chicken strips', 'src': '/static/foodstim60/grilled chicken strips.jpg', 'key': 'NaN', 'origWidth': 410, 'origHeight': 411, 'width': 410, 'height': 411, 'widthPercent': 0.8, 'rescaleHeight': True, 'trialN': 58, 'loaded': True, 'loadedTime': 3077.399999976158, 'positionName': 'CENTER', 'positionCoords': [553.5, 221]}]",Rate how much you want to eat this food from 0 (least) to 10 (most).,110713.5,1669840597727,grilled chicken strips,2072.5,True,7.7,112786.0,2072.5,True,HRV,HRV_0117,2022-11-30 19:36:57
59,"[{'imgObject': {}, 'id': 'banana', 'src': '/static/foodstim60/banana.jpg', 'key': 'NaN', 'origWidth': 410, 'origHeight': 410, 'width': 410, 'height': 410, 'widthPercent': 0.8, 'rescaleHeight': True, 'trialN': 59, 'loaded': True, 'loadedTime': 3083.100000023842, 'positionName': 'CENTER', 'positionCoords': [553.5, 221.5]}]",Rate how much you want to eat this food from 0 (least) to 10 (most).,112787.70000004768,1669840599802,banana,2990.1999999284744,True,5.09,115777.89999997616,2990.1999999284744,True,HRV,HRV_0117,2022-11-30 19:36:57
