success,trial_type,trial_index,time_elapsed,internal_node_id,Block,TrialNumber,TrialTime,trialTimeDiff,FPS_avg,FPS_med,FPS_mode,TrialDur,winResizeTime,rt,block,button_pressed,MotCoh,MotDir,ColCoh,Color,ChoiceKey,Choice,Accuracy,RT,nFrames,FPS,PPD,missTrial,missTrialMsg,onsetDelay,fullScreenExitTime,canvCenter,TrialType,Score,BlockTrial,stimulus,button_labels,exp,subjectId,date
True,fullscreen,0,3624,0.0-0.0,0.0,1.0,,,,,,,,,,,,,,,,,,,,,,,,,,,,,,,,HRV,HRV_0117,2022-11-30 20:07:39
,wl-check-fps,1,8619,0.0-1.0,0.0,2.0,"[5517.4, 5519.2, 5536, 5551.7, 5566.6, 5582.4, 5598.4, 5616.5, 5632.1, 5649.4, 5665.3, 5681.7, 5698.3, 5715.2, 5732.2, 5749.2, 5765.6, 5783, 5799, 5815, 5832.1, 5849, 5865, 5882.1, 5899.1, 5915.6, 5932.1, 5949.4, 5965.1, 5982.2, 5998.2, 6015.5, 6032.6, 6048.2, 6066.4, 6083.1, 6099.2, 6114.9, 6132.1, 6148.1, 6165.2, 6182.2, 6198.2, 6215.4, 6232.3, 6249.1, 6266.3, 6281.2, 6299.5, 6315.6, 6332.1, 6350, 6365.6, 6382.7, 6398.8, 6415.1, 6431.3, 6448.8, 6464.9, 6482.2, 6498.7, 6515.6, 6532.1, 6548.2, 6565.6, 6582.4, 6598.5, 6614.8, 6631.5, 6650.2, 6665.6, 6682.2, 6698.8, 6714.7, 6731.7, 6748.8, 6764.9, 6782.8, 6798.7, 6814.9, 6832.1, 6848.8, 6865.2, 6882.1, 6898.7, 6915.4, 6933.2, 6949.7, 6966.1, 6981.5, 6999.1, 7015, 7032.4, 7048.8, 7065, 7082, 7099.9, 7114.9, 7131.8, 7148.9, 7164.8, 7182.1, 7200, 7214.7, 7231.8, 7249.4, 7265.7, 7283.1, 7298.1, 7315.5, 7331.7, 7348.6, 7365.6, 7382.9, 7397.9, 7416.1, 7431.9, 7449.4, 7466.1, 7482.2, 7498, 7515.4, 7531.9, 7550.1, 7565.3, 7582.2, 7598.2, 7614.7, 7632, 7648, 7665.4, 7681.8, 7699.7, 7715.3, 7732, 7749.4, 7765.3, 7781.2, 7798.2, 7815.4, 7832, 7848.8, 7864.9, 7883.3, 7899.3, 7914.9, 7932.2, 7949.4, 7966.3, 7982.2, 7998.3, 8014.6, 8033.2, 8048.1, 8064.7, 8082.1, 8098.5, 8115.9, 8132.9, 8147.8, 8165.4, 8181.9, 8198.7, 8215, 8232.3, 8249.2, 8265.3, 8282.2, 8298.8, 8314.9, 8333.2, 8348.8, 8365.3, 8381.8, 8398.9, 8415.5, 8432.1, 8448.5, 8465.4, 8482.9, 8498.7, 8514.8, 8531.9, 8549.9, 8565.5, 8581.2, 8598.2, 8615.4, 8632.2, 8648.9, 8664.4, 8682.7, 8698, 8715.2, 8732.1, 8748.2, 8765.9, 8782, 8798.1, 8815.5, 8832.2, 8848.8, 8864.7, 8882.2, 8897.9, 8916.2, 8931.1, 8948.8, 8965.4, 8981.3, 8998.3, 9015.2, 9031.9, 9048, 9065.1, 9082.1, 9098.1, 9116.2, 9132.1, 9149.5, 9166.4, 9181.4, 9199.3, 9216.3, 9231.5, 9248.6, 9265.3, 9282.1, 9298.6, 9315.3, 9333, 9348.9, 9365.3, 9382.1, 9398.7, 9414.9, 9432.3, 9449.2, 9465.4, 9482.3, 9498.4, 9515.4, 9531.6, 9548.6, 9564.7, 9582.9, 9597.9, 9615.6, 9631.8, 9648.4, 9665.6, 9682.6, 9699.4, 9715.3, 9733.2, 9748.4, 9764.7, 9783, 9798.2, 9814.7, 9832.2, 9849.5, 9865.1, 9881.8, 9898.5, 9915.6, 9932.1, 9948.5, 9964.7, 9981.8, 9997.7, 10014.7, 10032, 10048.2, 10065.1, 10083, 10098, 10115.2, 10132.3, 10148.5, 10165, 10181.9, 10198.7, 10214.6, 10231.9, 10248.8, 10264.7, 10283.2, 10298.1, 10314.9, 10331.9, 10348.1, 10364.4, 10381.6, 10397.7, 10414.6, 10432.7, 10448.6, 10465.7, 10482.6]","[10.1, 1.8, 16.8, 15.7, 14.9, 15.8, 16, 18.1, 15.6, 17.3, 15.9, 16.4, 16.6, 16.9, 17, 17, 16.4, 17.4, 16, 16, 17.1, 16.9, 16, 17.1, 17, 16.5, 16.5, 17.3, 15.7, 17.1, 16, 17.3, 17.1, 15.6, 18.2, 16.7, 16.1, 15.7, 17.2, 16, 17.1, 17, 16, 17.2, 16.9, 16.8, 17.2, 14.9, 18.3, 16.1, 16.5, 17.9, 15.6, 17.1, 16.1, 16.3, 16.2, 17.5, 16.1, 17.3, 16.5, 16.9, 16.5, 16.1, 17.4, 16.8, 16.1, 16.3, 16.7, 18.7, 15.4, 16.6, 16.6, 15.9, 17, 17.1, 16.1, 17.9, 15.9, 16.2, 17.2, 16.7, 16.4, 16.9, 16.6, 16.7, 17.8, 16.5, 16.4, 15.4, 17.6, 15.9, 17.4, 16.4, 16.2, 17, 17.9, 15, 16.9, 17.1, 15.9, 17.3, 17.9, 14.7, 17.1, 17.6, 16.3, 17.4, 15, 17.4, 16.2, 16.9, 17, 17.3, 15, 18.2, 15.8, 17.5, 16.7, 16.1, 15.8, 17.4, 16.5, 18.2, 15.2, 16.9, 16, 16.5, 17.3, 16, 17.4, 16.4, 17.9, 15.6, 16.7, 17.4, 15.9, 15.9, 17, 17.2, 16.6, 16.8, 16.1, 18.4, 16, 15.6, 17.3, 17.2, 16.9, 15.9, 16.1, 16.3, 18.6, 14.9, 16.6, 17.4, 16.4, 17.4, 17, 14.9, 17.6, 16.5, 16.8, 16.3, 17.3, 16.9, 16.1, 16.9, 16.6, 16.1, 18.3, 15.6, 16.5, 16.5, 17.1, 16.6, 16.6, 16.4, 16.9, 17.5, 15.8, 16.1, 17.1, 18, 15.6, 15.7, 17, 17.2, 16.8, 16.7, 15.5, 18.3, 15.3, 17.2, 16.9, 16.1, 17.7, 16.1, 16.1, 17.4, 16.7, 16.6, 15.9, 17.5, 15.7, 18.3, 14.9, 17.7, 16.6, 15.9, 17, 16.9, 16.7, 16.1, 17.1, 17, 16, 18.1, 15.9, 17.4, 16.9, 15, 17.9, 17, 15.2, 17.1, 16.7, 16.8, 16.5, 16.7, 17.7, 15.9, 16.4, 16.8, 16.6, 16.2, 17.4, 16.9, 16.2, 16.9, 16.1, 17, 16.2, 17, 16.1, 18.2, 15, 17.7, 16.2, 16.6, 17.2, 17, 16.8, 15.9, 17.9, 15.2, 16.3, 18.3, 15.2, 16.5, 17.5, 17.3, 15.6, 16.7, 16.7, 17.1, 16.5, 16.4, 16.2, 17.1, 15.9, 17, 17.3, 16.2, 16.9, 17.9, 15, 17.2, 17.1, 16.2, 16.5, 16.9, 16.8, 15.9, 17.3, 16.9, 15.9, 18.5, 14.9, 16.8, 17, 16.2, 16.3, 17.2, 16.1, 16.9, 18.1, 15.9, 17.1, 16.9]",60.0,63.0,59.0,4991.3,[],,,,,,,,,,,,,,,,,,,,,,,,,HRV,HRV_0117,2022-11-30 20:07:39
,wl-html-keyboard-response,2,27604,0.0-2.0-0.0,0.0,3.0,,,,,,,,16964.5,0.0,0,,,,,,,,,,,,,,,,,,,,,,HRV,HRV_0117,2022-11-30 20:07:39
,wl-rdm,3,35515,0.0-3.0-0.0,0.0,4.0,,,,,,,[],,,,0.0,0.0,87.9,0.0,u,0.0,True,2306.5999999046326,139.0,59.0,40.0,False,,3000.0,[],"[758.5, 426.5]",ColorTask_Demo,,,,,HRV,HRV_0117,2022-11-30 20:07:39
,wl-rdm,4,40781,0.0-3.0-1.0,0.0,5.0,,,,,,,[],,,,0.0,0.0,87.9,1.0,i,1.0,True,1189.1000000238419,72.0,59.0,40.0,False,,2000.0,[],"[758.5, 426.5]",ColorTask_Demo,,,,,HRV,HRV_0117,2022-11-30 20:07:39
,wl-html-keyboard-response,5,44838,0.0-3.0-2.0,0.0,6.0,,,,,,,,2053.3000000715256,0.0,1,,,,,,,,,,,,,,,,,,,,,,HRV,HRV_0117,2022-11-30 20:07:39
,wl-html-keyboard-response,6,73750,0.0-4.0-0.0,0.0,7.0,,,,,,,,26908.899999976158,0.0,0,,,,,,,,,,,,,,,,,,,,,,HRV,HRV_0117,2022-11-30 20:07:39
,wl-html-keyboard-response,7,91525,0.0-5.0-0.0,0.0,8.0,,,,,,,,15765.699999928474,0.0,0,,,,,,,,,,,,,,,,,,,,,,HRV,HRV_0117,2022-11-30 20:07:39
,wl-rdm,8,94226,0.0-6.0-0.0,0.0,9.0,,,,,,,[],,,,,,62.5,0.0,u,0.0,True,1250.6999999284744,75.0,59.0,40.0,False,,366.9288932663864,[],"[758.5, 426.5]",ColorTask,1.0,1.0,,,HRV,HRV_0117,2022-11-30 20:07:39
,wl-rdm,9,96810,0.0-6.1-0.1,0.0,10.0,,,,,,,[],,,,,,50.0,0.0,i,1.0,False,1204.9999998807907,73.0,59.0,40.0,False,,310.64575352816024,[],"[758.5, 426.5]",ColorTask,0.0,2.0,,,HRV,HRV_0117,2022-11-30 20:07:39
,wl-rdm,10,98876,0.0-6.2-0.2,0.0,11.0,,,,,,,[],,,,,,87.9,0.0,u,0.0,True,723.2000000476837,44.0,59.0,40.0,False,,273.0740021023785,[],"[758.5, 426.5]",ColorTask,1.0,3.0,,,HRV,HRV_0117,2022-11-30 20:07:39
,wl-rdm,11,100976,0.0-6.3-0.3,0.0,12.0,,,,,,,[],,,,,,73.6,1.0,i,1.0,True,722.5,44.0,59.0,40.0,False,,291.81071845564816,[],"[758.5, 426.5]",ColorTask,2.0,4.0,,,HRV,HRV_0117,2022-11-30 20:07:39
,wl-rdm,12,103126,0.0-6.4-0.4,0.0,13.0,,,,,,,[],,,,,,50.0,1.0,u,0.0,False,855.6000000238419,52.0,59.0,40.0,False,,227.71353477668478,[],"[758.5, 426.5]",ColorTask,1.0,5.0,,,HRV,HRV_0117,2022-11-30 20:07:39
,wl-rdm,13,105576,0.0-6.5-0.5,0.0,14.0,,,,,,,[],,,,,,53.2,1.0,i,1.0,True,983.6000000238419,59.0,59.0,40.0,False,,396.34980071927095,[],"[758.5, 426.5]",ColorTask,2.0,6.0,,,HRV,HRV_0117,2022-11-30 20:07:39
,wl-rdm,14,107942,0.0-6.6-0.6,0.0,15.0,,,,,,,[],,,,,,56.4,1.0,i,1.0,True,1005.0,61.0,59.0,40.0,False,,268.6203696579463,[],"[758.5, 426.5]",ColorTask,3.0,7.0,,,HRV,HRV_0117,2022-11-30 20:07:39
,wl-rdm,15,110242,0.0-6.7-0.7,0.0,16.0,,,,,,,[],,,,,,56.4,1.0,i,1.0,True,1007.0,61.0,59.0,40.0,False,,207.18921063548052,[],"[758.5, 426.5]",ColorTask,4.0,8.0,,,HRV,HRV_0117,2022-11-30 20:07:39
,wl-rdm,16,112392,0.0-6.8-0.8,0.0,17.0,,,,,,,[],,,,,,50.0,0.0,i,1.0,False,828.8999999761581,50.0,59.0,40.0,False,,247.7424862023091,[],"[758.5, 426.5]",ColorTask,3.0,9.0,,,HRV,HRV_0117,2022-11-30 20:07:39
,wl-rdm,17,114325,0.0-6.9-0.9,0.0,18.0,,,,,,,[],,,,,,87.9,0.0,u,0.0,True,615.7999999523163,37.0,59.0,40.0,False,,242.30258983477512,[],"[758.5, 426.5]",ColorTask,4.0,10.0,,,HRV,HRV_0117,2022-11-30 20:07:39
,wl-rdm,18,116476,0.0-6.10-0.10,0.0,19.0,,,,,,,[],,,,,,50.0,1.0,i,1.0,True,857.7999999523163,52.0,59.0,40.0,False,,216.0019928541682,[],"[758.5, 426.5]",ColorTask,5.0,11.0,,,HRV,HRV_0117,2022-11-30 20:07:39
,wl-rdm,19,118742,0.0-6.11-0.11,0.0,20.0,,,,,,,[],,,,,,53.2,0.0,u,0.0,True,973.6000000238419,59.0,59.0,40.0,False,,222.59305165859186,[],"[758.5, 426.5]",ColorTask,6.0,12.0,,,HRV,HRV_0117,2022-11-30 20:07:39
,wl-rdm,20,120774,0.0-6.12-0.12,0.0,21.0,,,,,,,[],,,,,,87.9,0.0,u,0.0,True,675.3000000715256,41.0,59.0,40.0,False,,271.8242182325052,[],"[758.5, 426.5]",ColorTask,7.0,13.0,,,HRV,HRV_0117,2022-11-30 20:07:39
,wl-rdm,21,123374,0.0-6.13-0.13,0.0,22.0,,,,,,,[],,,,,,53.2,0.0,i,1.0,False,1172.7000000476837,71.0,59.0,40.0,False,,337.19157365811077,[],"[758.5, 426.5]",ColorTask,6.0,14.0,,,HRV,HRV_0117,2022-11-30 20:07:39
,wl-rdm,22,125708,0.0-6.14-0.14,0.0,23.0,,,,,,,[],,,,,,56.4,1.0,u,0.0,False,1038.6999999284744,63.0,59.0,40.0,False,,212.62626792422475,[],"[758.5, 426.5]",ColorTask,5.0,15.0,,,HRV,HRV_0117,2022-11-30 20:07:39
,wl-rdm,23,127791,0.0-6.15-0.15,0.0,24.0,,,,,,,[],,,,,,73.6,0.0,u,0.0,True,772.8999999761581,47.0,59.0,40.0,False,,231.5142082573727,[],"[758.5, 426.5]",ColorTask,6.0,16.0,,,HRV,HRV_0117,2022-11-30 20:07:39
,wl-rdm,24,130390,0.0-6.16-0.16,0.0,25.0,,,,,,,[],,,,,,53.2,1.0,i,1.0,True,1306.1000000238419,79.0,59.0,40.0,False,,200.69173433310564,[],"[758.5, 426.5]",ColorTask,7.0,17.0,,,HRV,HRV_0117,2022-11-30 20:07:39
,wl-rdm,25,132574,0.0-6.17-0.17,0.0,26.0,,,,,,,[],,,,,,73.6,0.0,u,0.0,True,855.7000000476837,52.0,59.0,40.0,False,,255.04109019797644,[],"[758.5, 426.5]",ColorTask,8.0,18.0,,,HRV,HRV_0117,2022-11-30 20:07:39
,wl-rdm,26,134657,0.0-6.18-0.18,0.0,27.0,,,,,,,[],,,,,,87.9,0.0,u,0.0,True,672.7000000476837,41.0,59.0,40.0,False,,337.9954515155066,[],"[758.5, 426.5]",ColorTask,9.0,19.0,,,HRV,HRV_0117,2022-11-30 20:07:39
,wl-rdm,27,137206,0.0-6.19-0.19,0.0,28.0,,,,,,,[],,,,,,56.4,1.0,i,1.0,True,1276.3999999761581,77.0,59.0,40.0,False,,201.804581649113,[],"[758.5, 426.5]",ColorTask,10.0,20.0,,,HRV,HRV_0117,2022-11-30 20:07:39
,wl-rdm,28,139674,0.0-6.20-0.20,0.0,29.0,,,,,,,[],,,,,,62.5,0.0,i,1.0,False,1125.5,68.0,59.0,40.0,False,,263.7401404916012,[],"[758.5, 426.5]",ColorTask,9.0,21.0,,,HRV,HRV_0117,2022-11-30 20:07:39
,wl-rdm,29,142357,0.0-6.21-0.21,0.0,30.0,,,,,,,[],,,,,,53.2,1.0,i,1.0,True,1272.6999999284744,77.0,59.0,40.0,False,,327.8508528325834,[],"[758.5, 426.5]",ColorTask,10.0,22.0,,,HRV,HRV_0117,2022-11-30 20:07:39
,wl-rdm,30,144556,0.0-6.22-0.22,0.0,31.0,,,,,,,[],,,,,,73.6,0.0,u,0.0,True,889.8000000715256,54.0,59.0,40.0,False,,234.52665750335098,[],"[758.5, 426.5]",ColorTask,11.0,23.0,,,HRV,HRV_0117,2022-11-30 20:07:39
,wl-rdm,31,146856,0.0-6.23-0.23,0.0,32.0,,,,,,,[],,,,,,50.0,0.0,u,0.0,True,990.2999999523163,60.0,59.0,40.0,False,,217.6770277625514,[],"[758.5, 426.5]",ColorTask,12.0,24.0,,,HRV,HRV_0117,2022-11-30 20:07:39
,wl-rdm,32,149124,0.0-6.24-0.24,0.0,33.0,,,,,,,[],,,,,,73.6,1.0,i,1.0,True,824.3000000715256,50.0,59.0,40.0,False,,367.26331649309475,[],"[758.5, 426.5]",ColorTask,13.0,25.0,,,HRV,HRV_0117,2022-11-30 20:07:39
,wl-rdm,33,151256,0.0-6.25-0.25,0.0,34.0,,,,,,,[],,,,,,87.9,0.0,u,0.0,True,755.3000000715256,46.0,59.0,40.0,False,,304.2329444213651,[],"[758.5, 426.5]",ColorTask,14.0,26.0,,,HRV,HRV_0117,2022-11-30 20:07:39
,wl-rdm,34,153205,0.0-6.26-0.26,0.0,35.0,,,,,,,[],,,,,,73.6,1.0,i,1.0,True,645.5,39.0,59.0,40.0,False,,224.20671980742154,[],"[758.5, 426.5]",ColorTask,15.0,27.0,,,HRV,HRV_0117,2022-11-30 20:07:39
,wl-rdm,35,155822,0.0-6.27-0.27,0.0,36.0,,,,,,,[],,,,,,62.5,0.0,u,0.0,True,1239.1999999284744,75.0,59.0,40.0,False,,297.2268061040867,[],"[758.5, 426.5]",ColorTask,16.0,28.0,,,HRV,HRV_0117,2022-11-30 20:07:39
,wl-rdm,36,158188,0.0-6.28-0.28,0.0,37.0,,,,,,,[],,,,,,53.2,0.0,i,1.0,False,898.8999999761581,54.0,59.0,40.0,False,,397.3332627217939,[],"[758.5, 426.5]",ColorTask,15.0,29.0,,,HRV,HRV_0117,2022-11-30 20:07:39
,wl-rdm,37,160388,0.0-6.29-0.29,0.0,38.0,,,,,,,[],,,,,,62.5,0.0,u,0.0,True,872.7999999523163,53.0,59.0,40.0,False,,262.30925695745856,[],"[758.5, 426.5]",ColorTask,16.0,30.0,,,HRV,HRV_0117,2022-11-30 20:07:39
,wl-rdm,38,162838,0.0-6.30-0.30,0.0,39.0,,,,,,,[],,,,,,53.2,0.0,u,0.0,True,1038.3999999761581,63.0,59.0,40.0,False,,333.40673128318315,[],"[758.5, 426.5]",ColorTask,17.0,31.0,,,HRV,HRV_0117,2022-11-30 20:07:39
,wl-rdm,39,165071,0.0-6.31-0.31,0.0,40.0,,,,,,,[],,,,,,56.4,0.0,u,0.0,True,932.7000000476837,56.0,59.0,40.0,False,,227.72864530450914,[],"[758.5, 426.5]",ColorTask,18.0,32.0,,,HRV,HRV_0117,2022-11-30 20:07:39
,wl-rdm,40,167255,0.0-6.32-0.32,0.0,41.0,,,,,,,[],,,,,,50.0,0.0,i,1.0,False,896.6000000238419,54.0,59.0,40.0,False,,201.88861646844376,[],"[758.5, 426.5]",ColorTask,17.0,33.0,,,HRV,HRV_0117,2022-11-30 20:07:39
,wl-rdm,41,169421,0.0-6.33-0.33,0.0,42.0,,,,,,,[],,,,,,73.6,1.0,i,1.0,True,861.2000000476837,52.0,59.0,40.0,False,,217.23883670710103,[],"[758.5, 426.5]",ColorTask,18.0,34.0,,,HRV,HRV_0117,2022-11-30 20:07:39
,wl-rdm,42,171705,0.0-6.34-0.34,0.0,43.0,,,,,,,[],,,,,,62.5,1.0,i,1.0,True,857.8000000715256,52.0,59.0,40.0,False,,341.47206872890064,[],"[758.5, 426.5]",ColorTask,19.0,35.0,,,HRV,HRV_0117,2022-11-30 20:07:39
,wl-rdm,43,174104,0.0-6.35-0.35,0.0,44.0,,,,,,,[],,,,,,73.6,1.0,i,1.0,True,995.6999999284744,60.0,59.0,40.0,False,,347.2761768175772,[],"[758.5, 426.5]",ColorTask,20.0,36.0,,,HRV,HRV_0117,2022-11-30 20:07:39
,wl-rdm,44,176254,0.0-6.36-0.36,0.0,45.0,,,,,,,[],,,,,,73.6,0.0,u,0.0,True,756.7000000476837,46.0,59.0,40.0,False,,316.63302303421943,[],"[758.5, 426.5]",ColorTask,21.0,37.0,,,HRV,HRV_0117,2022-11-30 20:07:39
,wl-rdm,45,178520,0.0-6.37-0.37,0.0,46.0,,,,,,,[],,,,,,50.0,1.0,u,0.0,False,942.9000000953674,57.0,59.0,40.0,False,,240.31170987357208,[],"[758.5, 426.5]",ColorTask,20.0,38.0,,,HRV,HRV_0117,2022-11-30 20:07:39
,wl-rdm,46,180821,0.0-6.38-0.38,0.0,47.0,,,,,,,[],,,,,,56.4,0.0,i,1.0,False,989.0,60.0,59.0,40.0,False,,249.47517486359794,[],"[758.5, 426.5]",ColorTask,19.0,39.0,,,HRV,HRV_0117,2022-11-30 20:07:39
,wl-rdm,47,183020,0.0-6.39-0.39,0.0,48.0,,,,,,,[],,,,,,62.5,0.0,u,0.0,True,899.3000000715256,54.0,59.0,40.0,False,,224.27392263461687,[],"[758.5, 426.5]",ColorTask,20.0,40.0,,,HRV,HRV_0117,2022-11-30 20:07:39
,wl-rdm,48,184954,0.0-6.40-0.40,0.0,49.0,,,,,,,[],,,,,,73.6,0.0,u,0.0,True,615.1000000238419,37.0,59.0,40.0,False,,250.6228129264504,[],"[758.5, 426.5]",ColorTask,21.0,41.0,,,HRV,HRV_0117,2022-11-30 20:07:39
,wl-rdm,49,187071,0.0-6.41-0.41,0.0,50.0,,,,,,,[],,,,,,62.5,1.0,i,1.0,True,797.5,48.0,59.0,40.0,False,,262.284941809437,[],"[758.5, 426.5]",ColorTask,22.0,42.0,,,HRV,HRV_0117,2022-11-30 20:07:39
,wl-rdm,50,189236,0.0-6.42-0.42,0.0,51.0,,,,,,,[],,,,,,53.2,0.0,i,1.0,False,877.0,53.0,59.0,40.0,False,,227.94900402705977,[],"[758.5, 426.5]",ColorTask,21.0,43.0,,,HRV,HRV_0117,2022-11-30 20:07:39
,wl-rdm,51,191837,0.0-6.43-0.43,0.0,52.0,,,,,,,[],,,,,,53.2,1.0,u,0.0,False,1175.3999999761581,71.0,59.0,40.0,False,,335.31322958239844,[],"[758.5, 426.5]",ColorTask,20.0,44.0,,,HRV,HRV_0117,2022-11-30 20:07:39
,wl-rdm,52,194103,0.0-6.44-0.44,0.0,53.0,,,,,,,[],,,,,,87.9,0.0,u,0.0,True,939.2999999523163,57.0,59.0,40.0,False,,241.70837632111304,[],"[758.5, 426.5]",ColorTask,21.0,45.0,,,HRV,HRV_0117,2022-11-30 20:07:39
,wl-rdm,53,196270,0.0-6.45-0.45,0.0,54.0,,,,,,,[],,,,,,53.2,1.0,i,1.0,True,792.7999999523163,48.0,59.0,40.0,False,,307.6722475255301,[],"[758.5, 426.5]",ColorTask,22.0,46.0,,,HRV,HRV_0117,2022-11-30 20:07:39
,wl-rdm,54,199136,0.0-6.46-0.46,0.0,55.0,,,,,,,[],,,,,,50.0,1.0,u,0.0,False,1396.2000000476837,84.0,59.0,40.0,False,,389.3307781223624,[],"[758.5, 426.5]",ColorTask,21.0,47.0,,,HRV,HRV_0117,2022-11-30 20:07:39
,wl-rdm,55,201170,0.0-6.47-0.47,0.0,56.0,,,,,,,[],,,,,,53.2,0.0,u,0.0,True,661.8999999761581,40.0,59.0,40.0,False,,297.85416250223795,[],"[758.5, 426.5]",ColorTask,22.0,48.0,,,HRV,HRV_0117,2022-11-30 20:07:39
,wl-rdm,56,203852,0.0-6.48-0.48,0.0,57.0,,,,,,,[],,,,,,56.4,0.0,u,0.0,True,1391.2000000476837,84.0,59.0,40.0,False,,211.03784157690757,[],"[758.5, 426.5]",ColorTask,23.0,49.0,,,HRV,HRV_0117,2022-11-30 20:07:39
,wl-rdm,57,205802,0.0-6.49-0.49,0.0,58.0,,,,,,,[],,,,,,50.0,0.0,i,1.0,False,676.1999999284744,41.0,59.0,40.0,False,,213.0274035013086,[],"[758.5, 426.5]",ColorTask,22.0,50.0,,,HRV,HRV_0117,2022-11-30 20:07:39
,wl-rdm,58,209335,0.0-6.50-0.50,0.0,59.0,,,,,,,[],,,,,,53.2,0.0,u,0.0,True,2228.4000000953674,134.0,59.0,40.0,False,,241.84201214326973,[],"[758.5, 426.5]",ColorTask,23.0,51.0,,,HRV,HRV_0117,2022-11-30 20:07:39
,wl-rdm,59,213085,0.0-6.51-0.51,0.0,60.0,,,,,,,[],,,,,,53.2,1.0,i,1.0,True,2475.1999999284744,149.0,59.0,40.0,False,,209.99508956180662,[],"[758.5, 426.5]",ColorTask,24.0,52.0,,,HRV,HRV_0117,2022-11-30 20:07:39
,wl-rdm,60,216168,0.0-6.52-0.52,0.0,61.0,,,,,,,[],,,,,,53.2,1.0,u,0.0,False,1604.5000001192093,97.0,59.0,40.0,False,,392.48571707099256,[],"[758.5, 426.5]",ColorTask,23.0,53.0,,,HRV,HRV_0117,2022-11-30 20:07:39
,wl-rdm,61,218851,0.0-6.53-0.53,0.0,62.0,,,,,,,[],,,,,,62.5,0.0,u,0.0,True,1240.5,75.0,59.0,40.0,False,,353.7597021330505,[],"[758.5, 426.5]",ColorTask,24.0,54.0,,,HRV,HRV_0117,2022-11-30 20:07:39
,wl-rdm,62,220985,0.0-6.54-0.54,0.0,63.0,,,,,,,[],,,,,,73.6,1.0,i,1.0,True,694.5,42.0,59.0,40.0,False,,357.56553389227554,[],"[758.5, 426.5]",ColorTask,25.0,55.0,,,HRV,HRV_0117,2022-11-30 20:07:39
,wl-rdm,63,223817,0.0-6.55-0.55,0.0,64.0,,,,,,,[],,,,,,50.0,1.0,u,0.0,False,1394.1000000238419,84.0,59.0,40.0,False,,356.5714774809518,[],"[758.5, 426.5]",ColorTask,24.0,56.0,,,HRV,HRV_0117,2022-11-30 20:07:39
,wl-rdm,64,225801,0.0-6.56-0.56,0.0,65.0,,,,,,,[],,,,,,87.9,1.0,u,0.0,False,673.2000000476837,41.0,59.0,40.0,False,,235.3441122964275,[],"[758.5, 426.5]",ColorTask,23.0,57.0,,,HRV,HRV_0117,2022-11-30 20:07:39
,wl-rdm,65,229901,0.0-6.57-0.57,0.0,66.0,,,,,,,[],,,,,,56.4,0.0,u,0.0,True,2698.100000023842,162.0,59.0,40.0,False,,330.8415601843458,[],"[758.5, 426.5]",ColorTask,24.0,58.0,,,HRV,HRV_0117,2022-11-30 20:07:39
,wl-rdm,66,232084,0.0-6.58-0.58,0.0,67.0,,,,,,,[],,,,,,87.9,1.0,i,1.0,True,839.2999999523163,51.0,59.0,40.0,False,,278.7918715735478,[],"[758.5, 426.5]",ColorTask,25.0,59.0,,,HRV,HRV_0117,2022-11-30 20:07:39
,wl-rdm,67,234166,0.0-6.59-0.59,0.0,68.0,,,,,,,[],,,,,,87.9,1.0,i,1.0,True,807.1000000238419,49.0,59.0,40.0,False,,214.7604649914901,[],"[758.5, 426.5]",ColorTask,26.0,60.0,,,HRV,HRV_0117,2022-11-30 20:07:39
,wl-rdm,68,236733,0.0-6.60-0.60,0.0,69.0,,,,,,,[],,,,,,73.6,0.0,u,0.0,True,1283.1999999284744,77.0,59.0,40.0,False,,230.8524452665078,[],"[758.5, 426.5]",ColorTask,27.0,61.0,,,HRV,HRV_0117,2022-11-30 20:07:39
,wl-rdm,69,240267,0.0-6.61-0.61,0.0,70.0,,,,,,,[],,,,,,62.5,1.0,i,1.0,True,2166.5000001192093,130.0,59.0,40.0,False,,293.37210695569706,[],"[758.5, 426.5]",ColorTask,28.0,62.0,,,HRV,HRV_0117,2022-11-30 20:07:39
,wl-rdm,70,242433,0.0-6.62-0.62,0.0,71.0,,,,,,,[],,,,,,73.6,0.0,u,0.0,True,822.8000000715256,50.0,59.0,40.0,False,,251.11094645062082,[],"[758.5, 426.5]",ColorTask,29.0,63.0,,,HRV,HRV_0117,2022-11-30 20:07:39
,wl-rdm,71,244532,0.0-6.63-0.63,0.0,72.0,,,,,,,[],,,,,,56.4,0.0,u,0.0,True,810.5,49.0,59.0,40.0,False,,218.79913767808262,[],"[758.5, 426.5]",ColorTask,30.0,64.0,,,HRV,HRV_0117,2022-11-30 20:07:39
,wl-rdm,72,246616,0.0-6.64-0.64,0.0,73.0,,,,,,,[],,,,,,87.9,0.0,u,0.0,True,672.5,41.0,59.0,40.0,False,,347.29972476369437,[],"[758.5, 426.5]",ColorTask,31.0,65.0,,,HRV,HRV_0117,2022-11-30 20:07:39
,wl-rdm,73,248899,0.0-6.65-0.65,0.0,74.0,,,,,,,[],,,,,,62.5,1.0,i,1.0,True,993.3999999761581,60.0,59.0,40.0,False,,203.99512926680347,[],"[758.5, 426.5]",ColorTask,32.0,66.0,,,HRV,HRV_0117,2022-11-30 20:07:39
,wl-rdm,74,250966,0.0-6.66-0.66,0.0,75.0,,,,,,,[],,,,,,50.0,0.0,u,0.0,True,772.7999999523163,47.0,59.0,40.0,False,,232.41576769703863,[],"[758.5, 426.5]",ColorTask,33.0,67.0,,,HRV,HRV_0117,2022-11-30 20:07:39
,wl-rdm,75,253399,0.0-6.67-0.67,0.0,76.0,,,,,,,[],,,,,,62.5,1.0,i,1.0,True,988.6999999284744,60.0,59.0,40.0,False,,359.42071199822334,[],"[758.5, 426.5]",ColorTask,34.0,68.0,,,HRV,HRV_0117,2022-11-30 20:07:39
,wl-rdm,76,255732,0.0-6.68-0.68,0.0,77.0,,,,,,,[],,,,,,50.0,1.0,u,0.0,False,938.0,57.0,59.0,40.0,False,,302.1294998241411,[],"[758.5, 426.5]",ColorTask,33.0,69.0,,,HRV,HRV_0117,2022-11-30 20:07:39
,wl-rdm,77,257665,0.0-6.69-0.69,0.0,78.0,,,,,,,[],,,,,,62.5,1.0,i,1.0,True,605.7000000476837,37.0,59.0,40.0,False,,240.51658395114023,[],"[758.5, 426.5]",ColorTask,34.0,70.0,,,HRV,HRV_0117,2022-11-30 20:07:39
,wl-rdm,78,260081,0.0-6.70-0.70,0.0,79.0,,,,,,,[],,,,,,50.0,1.0,i,1.0,True,1026.299999833107,62.0,59.0,40.0,False,,324.71972099060883,[],"[758.5, 426.5]",ColorTask,35.0,71.0,,,HRV,HRV_0117,2022-11-30 20:07:39
,wl-rdm,79,262465,0.0-6.71-0.71,0.0,80.0,,,,,,,[],,,,,,73.6,0.0,u,0.0,True,933.6999999284744,56.0,59.0,40.0,False,,373.69810648328814,[],"[758.5, 426.5]",ColorTask,36.0,72.0,,,HRV,HRV_0117,2022-11-30 20:07:39
,wl-rdm,80,264681,0.0-6.72-0.72,0.0,81.0,,,,,,,[],,,,,,62.5,0.0,u,0.0,True,850.2000000476837,51.0,59.0,40.0,False,,286.1677082383204,[],"[758.5, 426.5]",ColorTask,37.0,73.0,,,HRV,HRV_0117,2022-11-30 20:07:39
,wl-rdm,81,267614,0.0-6.73-0.73,0.0,82.0,,,,,,,[],,,,,,53.2,0.0,u,0.0,True,1609.9000000953674,97.0,59.0,40.0,False,,263.63604375877986,[],"[758.5, 426.5]",ColorTask,38.0,74.0,,,HRV,HRV_0117,2022-11-30 20:07:39
,wl-rdm,82,269664,0.0-6.74-0.74,0.0,83.0,,,,,,,[],,,,,,62.5,0.0,u,0.0,True,722.5,44.0,59.0,40.0,False,,252.0515710872552,[],"[758.5, 426.5]",ColorTask,39.0,75.0,,,HRV,HRV_0117,2022-11-30 20:07:39
,wl-rdm,83,271714,0.0-6.75-0.75,0.0,84.0,,,,,,,[],,,,,,56.4,0.0,u,0.0,True,608.9999998807907,37.0,59.0,40.0,False,,380.8836986621287,[],"[758.5, 426.5]",ColorTask,40.0,76.0,,,HRV,HRV_0117,2022-11-30 20:07:39
,wl-rdm,84,274064,0.0-6.76-0.76,0.0,85.0,,,,,,,[],,,,,,50.0,1.0,u,0.0,False,957.3000000715256,58.0,59.0,40.0,False,,303.6197692975903,[],"[758.5, 426.5]",ColorTask,39.0,77.0,,,HRV,HRV_0117,2022-11-30 20:07:39
,wl-rdm,85,276481,0.0-6.77-0.77,0.0,86.0,,,,,,,[],,,,,,50.0,0.0,i,1.0,False,989.1000000238419,60.0,59.0,40.0,False,,364.5713564616033,[],"[758.5, 426.5]",ColorTask,38.0,78.0,,,HRV,HRV_0117,2022-11-30 20:07:39
,wl-rdm,86,278547,0.0-6.78-0.78,0.0,87.0,,,,,,,[],,,,,,73.6,1.0,i,1.0,True,789.7000000476837,48.0,59.0,40.0,False,,209.07675124014455,[],"[758.5, 426.5]",ColorTask,39.0,79.0,,,HRV,HRV_0117,2022-11-30 20:07:39
,wl-rdm,87,281296,0.0-6.79-0.79,0.0,88.0,,,,,,,[],,,,,,56.4,1.0,i,1.0,True,1290.0,78.0,59.0,40.0,False,,385.4359663040924,[],"[758.5, 426.5]",ColorTask,40.0,80.0,,,HRV,HRV_0117,2022-11-30 20:07:39
,wl-rdm,88,283396,0.0-6.80-0.80,0.0,89.0,,,,,,,[],,,,,,87.9,1.0,i,1.0,True,681.2999999523163,41.0,59.0,40.0,False,,355.33817551815935,[],"[758.5, 426.5]",ColorTask,41.0,81.0,,,HRV,HRV_0117,2022-11-30 20:07:39
,wl-rdm,89,285695,0.0-6.81-0.81,0.0,90.0,,,,,,,[],,,,,,56.4,0.0,u,0.0,True,941.3000000715256,57.0,59.0,40.0,False,,299.07294919716264,[],"[758.5, 426.5]",ColorTask,42.0,82.0,,,HRV,HRV_0117,2022-11-30 20:07:39
,wl-rdm,90,288046,0.0-6.82-0.82,0.0,91.0,,,,,,,[],,,,,,53.2,0.0,u,0.0,True,1030.2000000476837,62.0,59.0,40.0,False,,244.0998523686319,[],"[758.5, 426.5]",ColorTask,43.0,83.0,,,HRV,HRV_0117,2022-11-30 20:07:39
,wl-rdm,91,290695,0.0-6.83-0.83,0.0,92.0,,,,,,,[],,,,,,62.5,1.0,i,1.0,True,1232.6000000238419,74.0,59.0,40.0,False,,347.08546787109776,[],"[758.5, 426.5]",ColorTask,44.0,84.0,,,HRV,HRV_0117,2022-11-30 20:07:39
,wl-rdm,92,293578,0.0-6.84-0.84,0.0,93.0,,,,,,,[],,,,,,53.2,1.0,i,1.0,True,1539.6000000238419,93.0,59.0,40.0,False,,279.6834860137537,[],"[758.5, 426.5]",ColorTask,45.0,85.0,,,HRV,HRV_0117,2022-11-30 20:07:39
,wl-rdm,93,296995,0.0-6.85-0.85,0.0,94.0,,,,,,,[],,,,,,62.5,1.0,i,1.0,True,2022.5,122.0,59.0,40.0,False,,324.2491242551923,[],"[758.5, 426.5]",ColorTask,46.0,86.0,,,HRV,HRV_0117,2022-11-30 20:07:39
,wl-rdm,94,299044,0.0-6.86-0.86,0.0,95.0,,,,,,,[],,,,,,87.9,0.0,u,0.0,True,724.0,44.0,59.0,40.0,False,,267.8499521134673,[],"[758.5, 426.5]",ColorTask,47.0,87.0,,,HRV,HRV_0117,2022-11-30 20:07:39
,wl-rdm,95,301112,0.0-6.87-0.87,0.0,96.0,,,,,,,[],,,,,,73.6,1.0,i,1.0,True,756.3000000715256,46.0,59.0,40.0,False,,235.64833919730756,[],"[758.5, 426.5]",ColorTask,48.0,88.0,,,HRV,HRV_0117,2022-11-30 20:07:39
,wl-rdm,96,303161,0.0-6.88-0.88,0.0,97.0,,,,,,,[],,,,,,87.9,0.0,u,0.0,True,689.6000000238419,42.0,59.0,40.0,False,,281.7596792366829,[],"[758.5, 426.5]",ColorTask,49.0,89.0,,,HRV,HRV_0117,2022-11-30 20:07:39
,wl-rdm,97,305078,0.0-6.89-0.89,0.0,98.0,,,,,,,[],,,,,,87.9,1.0,i,1.0,True,640.0999999046326,39.0,59.0,40.0,False,,214.75307469266295,[],"[758.5, 426.5]",ColorTask,50.0,90.0,,,HRV,HRV_0117,2022-11-30 20:07:39
,wl-rdm,98,307027,0.0-6.90-0.90,0.0,99.0,,,,,,,[],,,,,,56.4,1.0,u,0.0,False,614.0,37.0,59.0,40.0,False,,280.0019339742485,[],"[758.5, 426.5]",ColorTask,49.0,91.0,,,HRV,HRV_0117,2022-11-30 20:07:39
,wl-rdm,99,309560,0.0-6.91-0.91,0.0,100.0,,,,,,,[],,,,,,62.5,1.0,i,1.0,True,1225.0,74.0,59.0,40.0,False,,230.168339237678,[],"[758.5, 426.5]",ColorTask,50.0,92.0,,,HRV,HRV_0117,2022-11-30 20:07:39
,wl-rdm,100,312694,0.0-6.92-0.92,0.0,101.0,,,,,,,[],,,,,,62.5,0.0,u,0.0,True,1674.0,101.0,59.0,40.0,False,,386.7399726175998,[],"[758.5, 426.5]",ColorTask,51.0,93.0,,,HRV,HRV_0117,2022-11-30 20:07:39
,wl-rdm,101,314627,0.0-6.93-0.93,0.0,102.0,,,,,,,[],,,,,,87.9,1.0,i,1.0,True,626.8000000715256,38.0,59.0,40.0,False,,224.485507567059,[],"[758.5, 426.5]",ColorTask,52.0,94.0,,,HRV,HRV_0117,2022-11-30 20:07:39
,wl-rdm,102,317643,0.0-6.94-0.94,0.0,103.0,,,,,,,[],,,,,,56.4,1.0,i,1.0,True,1640.2999999523163,99.0,59.0,40.0,False,,298.50952136795604,[],"[758.5, 426.5]",ColorTask,53.0,95.0,,,HRV,HRV_0117,2022-11-30 20:07:39
,wl-rdm,103,320743,0.0-6.95-0.95,0.0,104.0,,,,,,,[],,,,,,50.0,1.0,i,1.0,True,1761.0,106.0,59.0,40.0,False,,282.49815049131,[],"[758.5, 426.5]",ColorTask,54.0,96.0,,,HRV,HRV_0117,2022-11-30 20:07:39
,wl-rdm,104,322909,0.0-6.96-0.96,0.0,105.0,,,,,,,[],,,,,,73.6,1.0,i,1.0,True,823.7999999523163,50.0,59.0,40.0,False,,260.22500779255597,[],"[758.5, 426.5]",ColorTask,55.0,97.0,,,HRV,HRV_0117,2022-11-30 20:07:39
,wl-rdm,105,324959,0.0-6.97-0.97,0.0,106.0,,,,,,,[],,,,,,87.9,1.0,i,1.0,True,757.6999999284744,46.0,59.0,40.0,False,,201.86759529206634,[],"[758.5, 426.5]",ColorTask,56.0,98.0,,,HRV,HRV_0117,2022-11-30 20:07:39
,wl-rdm,106,327675,0.0-6.98-0.98,0.0,107.0,,,,,,,[],,,,,,50.0,0.0,i,1.0,False,1323.0999999046326,80.0,59.0,40.0,False,,319.2500005233714,[],"[758.5, 426.5]",ColorTask,55.0,99.0,,,HRV,HRV_0117,2022-11-30 20:07:39
,wl-rdm,107,329759,0.0-6.99-0.99,0.0,108.0,,,,,,,[],,,,,,73.6,0.0,u,0.0,True,633.6000000238419,38.0,59.0,40.0,False,,377.45188328382943,[],"[758.5, 426.5]",ColorTask,56.0,100.0,,,HRV,HRV_0117,2022-11-30 20:07:39
,wl-rdm,108,332391,0.0-6.100-0.100,0.0,109.0,,,,,,,[],,,,,,56.4,1.0,i,1.0,True,1339.2999999523163,81.0,59.0,40.0,False,,231.47338039677757,[],"[758.5, 426.5]",ColorTask,57.0,101.0,,,HRV,HRV_0117,2022-11-30 20:07:39
,wl-rdm,109,334609,0.0-6.101-0.101,0.0,110.0,,,,,,,[],,,,,,56.4,1.0,u,0.0,False,879.2999999523163,53.0,59.0,40.0,False,,250.82564399927494,[],"[758.5, 426.5]",ColorTask,56.0,102.0,,,HRV,HRV_0117,2022-11-30 20:07:39
,wl-rdm,110,336575,0.0-6.102-0.102,0.0,111.0,,,,,,,[],,,,,,87.9,1.0,u,0.0,False,646.2000000476837,39.0,59.0,40.0,False,,248.35611165233868,[],"[758.5, 426.5]",ColorTask,55.0,103.0,,,HRV,HRV_0117,2022-11-30 20:07:39
,wl-rdm,111,339142,0.0-6.103-0.103,0.0,112.0,,,,,,,[],,,,,,56.4,0.0,u,0.0,True,1275.7000000476837,77.0,59.0,40.0,False,,230.40756780254674,[],"[758.5, 426.5]",ColorTask,56.0,104.0,,,HRV,HRV_0117,2022-11-30 20:07:39
,wl-rdm,112,342825,0.0-6.104-0.104,0.0,113.0,,,,,,,[],,,,,,50.0,0.0,i,1.0,False,2372.7999999523163,143.0,59.0,40.0,False,,233.72890003454106,[],"[758.5, 426.5]",ColorTask,55.0,105.0,,,HRV,HRV_0117,2022-11-30 20:07:39
,wl-rdm,113,345158,0.0-6.105-0.105,0.0,114.0,,,,,,,[],,,,,,53.2,1.0,u,0.0,False,1022.7999999523163,62.0,59.0,40.0,False,,225.87563954933398,[],"[758.5, 426.5]",ColorTask,54.0,106.0,,,HRV,HRV_0117,2022-11-30 20:07:39
,wl-rdm,114,347242,0.0-6.106-0.106,0.0,115.0,,,,,,,[],,,,,,56.4,0.0,u,0.0,True,639.6999999284744,39.0,59.0,40.0,False,,374.02739346473254,[],"[758.5, 426.5]",ColorTask,55.0,107.0,,,HRV,HRV_0117,2022-11-30 20:07:39
,wl-rdm,115,349624,0.0-6.107-0.107,0.0,116.0,,,,,,,[],,,,,,87.9,1.0,i,1.0,True,1006.5999999046326,61.0,59.0,40.0,False,,313.15552500293234,[],"[758.5, 426.5]",ColorTask,56.0,108.0,,,HRV,HRV_0117,2022-11-30 20:07:39
,wl-html-keyboard-response,116,685031,0.0-7.0-0.0,1.0,117.0,,,,,,,,333395.7000000477,1.0,0,,,,,,,,,,,,,,,,,,,,,,HRV,HRV_0117,2022-11-30 20:07:39
,wl-rdm,117,687267,0.0-8.0-0.0,1.0,118.0,,,,,,,[],,,,,,73.6,1.0,i,1.0,True,772.7000000476837,47.0,59.0,40.0,False,,384.7790051146666,[],"[758.5, 426.5]",ColorTask,57.0,1.0,,,HRV,HRV_0117,2022-11-30 20:07:39
,wl-rdm,118,689283,0.0-8.1-0.1,1.0,119.0,,,,,,,[],,,,,,53.2,1.0,i,1.0,True,671.3999999761581,41.0,59.0,40.0,False,,251.8544564857417,[],"[758.5, 426.5]",ColorTask,58.0,2.0,,,HRV,HRV_0117,2022-11-30 20:07:39
,wl-rdm,119,691283,0.0-8.2-0.2,1.0,120.0,,,,,,,[],,,,,,62.5,0.0,u,0.0,True,623.6999999284744,38.0,59.0,40.0,False,,287.22715636938744,[],"[758.5, 426.5]",ColorTask,59.0,3.0,,,HRV,HRV_0117,2022-11-30 20:07:39
,wl-rdm,120,693416,0.0-8.3-0.3,1.0,121.0,,,,,,,[],,,,,,53.2,0.0,u,0.0,True,712.3999999761581,43.0,59.0,40.0,False,,348.26216073702517,[],"[758.5, 426.5]",ColorTask,60.0,4.0,,,HRV,HRV_0117,2022-11-30 20:07:39
,wl-rdm,121,696000,0.0-8.4-0.4,1.0,122.0,,,,,,,[],,,,,,53.2,1.0,i,1.0,True,1289.3999999761581,78.0,59.0,40.0,False,,203.67701798652345,[],"[758.5, 426.5]",ColorTask,61.0,5.0,,,HRV,HRV_0117,2022-11-30 20:07:39
,wl-rdm,122,697898,0.0-8.5-0.5,1.0,123.0,,,,,,,[],,,,,,87.9,1.0,i,1.0,True,599.1000000238419,36.0,59.0,40.0,False,,218.12872635687012,[],"[758.5, 426.5]",ColorTask,62.0,6.0,,,HRV,HRV_0117,2022-11-30 20:07:39
,wl-rdm,123,700399,0.0-8.6-0.6,1.0,124.0,,,,,,,[],,,,,,53.2,0.0,i,1.0,False,1154.8000000715256,70.0,59.0,40.0,False,,257.4625065064341,[],"[758.5, 426.5]",ColorTask,61.0,7.0,,,HRV,HRV_0117,2022-11-30 20:07:39
,wl-rdm,124,702798,0.0-8.7-0.7,1.0,125.0,,,,,,,[],,,,,,56.4,1.0,i,1.0,True,981.1000000238419,59.0,59.0,40.0,False,,346.5137461953299,[],"[758.5, 426.5]",ColorTask,62.0,8.0,,,HRV,HRV_0117,2022-11-30 20:07:39
,wl-rdm,125,704849,0.0-8.8-0.8,1.0,126.0,,,,,,,[],,,,,,73.6,1.0,i,1.0,True,605.0000001192093,37.0,59.0,40.0,False,,375.2708623311037,[],"[758.5, 426.5]",ColorTask,63.0,9.0,,,HRV,HRV_0117,2022-11-30 20:07:39
,wl-rdm,126,706882,0.0-8.9-0.9,1.0,127.0,,,,,,,[],,,,,,73.6,1.0,i,1.0,True,575.3000000715256,35.0,59.0,40.0,False,,394.5570903255543,[],"[758.5, 426.5]",ColorTask,64.0,10.0,,,HRV,HRV_0117,2022-11-30 20:07:39
,wl-rdm,127,708849,0.0-8.10-0.10,1.0,128.0,,,,,,,[],,,,,,56.4,1.0,u,0.0,False,641.7000000476837,39.0,59.0,40.0,False,,255.8416661552144,[],"[758.5, 426.5]",ColorTask,63.0,11.0,,,HRV,HRV_0117,2022-11-30 20:07:39
,wl-rdm,128,710880,0.0-8.11-0.11,1.0,129.0,,,,,,,[],,,,,,56.4,1.0,i,1.0,True,606.0,37.0,59.0,40.0,False,,355.2219249702746,[],"[758.5, 426.5]",ColorTask,64.0,12.0,,,HRV,HRV_0117,2022-11-30 20:07:39
,wl-rdm,129,712798,0.0-8.12-0.12,1.0,130.0,,,,,,,[],,,,,,73.6,1.0,i,1.0,True,564.5,34.0,59.0,40.0,False,,284.63707062522894,[],"[758.5, 426.5]",ColorTask,65.0,13.0,,,HRV,HRV_0117,2022-11-30 20:07:39
,wl-rdm,130,715015,0.0-8.13-0.13,1.0,131.0,,,,,,,[],,,,,,73.6,0.0,u,0.0,True,825.8000000715256,50.0,59.0,40.0,False,,330.4382010162375,[],"[758.5, 426.5]",ColorTask,66.0,14.0,,,HRV,HRV_0117,2022-11-30 20:07:39
,wl-rdm,131,717097,0.0-8.14-0.14,1.0,132.0,,,,,,,[],,,,,,53.2,0.0,u,0.0,True,748.7000000476837,45.0,59.0,40.0,False,,264.08129681253433,[],"[758.5, 426.5]",ColorTask,67.0,15.0,,,HRV,HRV_0117,2022-11-30 20:07:39
,wl-rdm,132,719113,0.0-8.15-0.15,1.0,133.0,,,,,,,[],,,,,,62.5,1.0,i,1.0,True,547.3999999761581,33.0,59.0,40.0,False,,386.9268062404126,[],"[758.5, 426.5]",ColorTask,68.0,16.0,,,HRV,HRV_0117,2022-11-30 20:07:39
,wl-rdm,133,721113,0.0-8.16-0.16,1.0,134.0,,,,,,,[],,,,,,62.5,0.0,i,1.0,False,623.5000001192093,38.0,59.0,40.0,False,,292.74237954399007,[],"[758.5, 426.5]",ColorTask,67.0,17.0,,,HRV,HRV_0117,2022-11-30 20:07:39
,wl-rdm,134,723198,0.0-8.17-0.17,1.0,135.0,,,,,,,[],,,,,,62.5,1.0,i,1.0,True,661.3000000715256,40.0,59.0,40.0,False,,366.07620371080725,[],"[758.5, 426.5]",ColorTask,68.0,18.0,,,HRV,HRV_0117,2022-11-30 20:07:39
,wl-rdm,135,725247,0.0-8.18-0.18,1.0,136.0,,,,,,,[],,,,,,62.5,0.0,u,0.0,True,722.6000000238419,44.0,59.0,40.0,False,,247.53098236645093,[],"[758.5, 426.5]",ColorTask,69.0,19.0,,,HRV,HRV_0117,2022-11-30 20:07:39
,wl-rdm,136,727196,0.0-8.19-0.19,1.0,137.0,,,,,,,[],,,,,,50.0,1.0,i,1.0,True,656.0,40.0,59.0,40.0,False,,231.31275680374327,[],"[758.5, 426.5]",ColorTask,70.0,20.0,,,HRV,HRV_0117,2022-11-30 20:07:39
,wl-rdm,137,729114,0.0-8.20-0.20,1.0,138.0,,,,,,,[],,,,,,62.5,0.0,i,1.0,False,646.1000000238419,39.0,59.0,40.0,False,,217.05909347409818,[],"[758.5, 426.5]",ColorTask,69.0,21.0,,,HRV,HRV_0117,2022-11-30 20:07:39
,wl-rdm,138,730996,0.0-8.21-0.21,1.0,139.0,,,,,,,[],,,,,,87.9,1.0,i,1.0,True,541.1000000238419,33.0,59.0,40.0,False,,265.4175158732152,[],"[758.5, 426.5]",ColorTask,70.0,22.0,,,HRV,HRV_0117,2022-11-30 20:07:39
,wl-rdm,139,733379,0.0-8.22-0.22,1.0,140.0,,,,,,,[],,,,,,50.0,1.0,i,1.0,True,1039.1000000238419,63.0,59.0,40.0,False,,256.36750317255957,[],"[758.5, 426.5]",ColorTask,71.0,23.0,,,HRV,HRV_0117,2022-11-30 20:07:39
,wl-rdm,140,736013,0.0-8.23-0.23,1.0,141.0,,,,,,,[],,,,,,53.2,0.0,u,0.0,True,1245.5,75.0,59.0,40.0,False,,329.6516179070971,[],"[758.5, 426.5]",ColorTask,72.0,24.0,,,HRV,HRV_0117,2022-11-30 20:07:39
,wl-rdm,141,738212,0.0-8.24-0.24,1.0,142.0,,,,,,,[],,,,,,56.4,0.0,u,0.0,True,833.2999999523163,50.0,59.0,40.0,False,,292.44344075794226,[],"[758.5, 426.5]",ColorTask,73.0,25.0,,,HRV,HRV_0117,2022-11-30 20:07:39
,wl-rdm,142,740229,0.0-8.25-0.25,1.0,143.0,,,,,,,[],,,,,,87.9,1.0,i,1.0,True,559.7999999523163,34.0,59.0,40.0,False,,399.6491923991184,[],"[758.5, 426.5]",ColorTask,74.0,26.0,,,HRV,HRV_0117,2022-11-30 20:07:39
,wl-rdm,143,742112,0.0-8.26-0.26,1.0,144.0,,,,,,,[],,,,,,87.9,1.0,i,1.0,True,548.1000000238419,33.0,59.0,40.0,False,,274.60285011570534,[],"[758.5, 426.5]",ColorTask,75.0,27.0,,,HRV,HRV_0117,2022-11-30 20:07:39
,wl-rdm,144,744178,0.0-8.27-0.27,1.0,145.0,,,,,,,[],,,,,,62.5,0.0,u,0.0,True,739.2999999523163,45.0,59.0,40.0,False,,264.50774662202804,[],"[758.5, 426.5]",ColorTask,76.0,28.0,,,HRV,HRV_0117,2022-11-30 20:07:39
,wl-rdm,145,746278,0.0-8.28-0.28,1.0,146.0,,,,,,,[],,,,,,73.6,0.0,u,0.0,True,640.6000000238419,39.0,59.0,40.0,False,,381.44404196663584,[],"[758.5, 426.5]",ColorTask,77.0,29.0,,,HRV,HRV_0117,2022-11-30 20:07:39
,wl-rdm,146,748678,0.0-8.29-0.29,1.0,147.0,,,,,,,[],,,,,,50.0,0.0,u,0.0,True,974.4000000953674,59.0,59.0,40.0,False,,337.91269265488233,[],"[758.5, 426.5]",ColorTask,78.0,30.0,,,HRV,HRV_0117,2022-11-30 20:07:39
,wl-rdm,147,750645,0.0-8.30-0.30,1.0,148.0,,,,,,,[],,,,,,87.9,0.0,u,0.0,True,589.1999999284744,36.0,59.0,40.0,False,,296.0439596539152,[],"[758.5, 426.5]",ColorTask,79.0,31.0,,,HRV,HRV_0117,2022-11-30 20:07:39
,wl-rdm,148,752595,0.0-8.31-0.31,1.0,149.0,,,,,,,[],,,,,,50.0,1.0,u,0.0,False,661.7000000476837,40.0,59.0,40.0,False,,211.73189931092384,[],"[758.5, 426.5]",ColorTask,78.0,32.0,,,HRV,HRV_0117,2022-11-30 20:07:39
,wl-rdm,149,754528,0.0-8.32-0.32,1.0,150.0,,,,,,,[],,,,,,73.6,0.0,u,0.0,True,589.7999999523163,36.0,59.0,40.0,False,,254.98963831951102,[],"[758.5, 426.5]",ColorTask,79.0,33.0,,,HRV,HRV_0117,2022-11-30 20:07:39
,wl-rdm,150,756544,0.0-8.33-0.33,1.0,151.0,,,,,,,[],,,,,,53.2,1.0,i,1.0,True,555.7999999523163,34.0,59.0,40.0,False,,374.98916784838184,[],"[758.5, 426.5]",ColorTask,80.0,34.0,,,HRV,HRV_0117,2022-11-30 20:07:39
,wl-rdm,151,758844,0.0-8.34-0.34,1.0,152.0,,,,,,,[],,,,,,56.4,0.0,i,1.0,False,1005.7999999523163,61.0,59.0,40.0,False,,228.38479103513018,[],"[758.5, 426.5]",ColorTask,79.0,35.0,,,HRV,HRV_0117,2022-11-30 20:07:39
,wl-rdm,152,760927,0.0-8.35-0.35,1.0,153.0,,,,,,,[],,,,,,87.9,0.0,i,1.0,False,661.3999999761581,40.0,59.0,40.0,False,,337.8663188457343,[],"[758.5, 426.5]",ColorTask,78.0,36.0,,,HRV,HRV_0117,2022-11-30 20:07:39
,wl-rdm,153,763794,0.0-8.36-0.36,1.0,154.0,,,,,,,[],,,,,,56.4,0.0,u,0.0,True,1545.1999999284744,93.0,59.0,40.0,False,,247.90795491982811,[],"[758.5, 426.5]",ColorTask,79.0,37.0,,,HRV,HRV_0117,2022-11-30 20:07:39
,wl-rdm,154,766045,0.0-8.37-0.37,1.0,155.0,,,,,,,[],,,,,,62.5,1.0,i,1.0,True,928.5000001192093,56.0,59.0,40.0,False,,239.16396500279882,[],"[758.5, 426.5]",ColorTask,80.0,38.0,,,HRV,HRV_0117,2022-11-30 20:07:39
,wl-rdm,155,768612,0.0-8.38-0.38,1.0,156.0,,,,,,,[],,,,,,56.4,0.0,u,0.0,True,1274.5,77.0,59.0,40.0,False,,224.77047629196048,[],"[758.5, 426.5]",ColorTask,81.0,39.0,,,HRV,HRV_0117,2022-11-30 20:07:39
,wl-rdm,156,771011,0.0-8.39-0.39,1.0,157.0,,,,,,,[],,,,,,56.4,0.0,u,0.0,True,1106.7000000476837,67.0,59.0,40.0,False,,207.421374085999,[],"[758.5, 426.5]",ColorTask,82.0,40.0,,,HRV,HRV_0117,2022-11-30 20:07:39
,wl-rdm,157,773694,0.0-8.40-0.40,1.0,158.0,,,,,,,[],,,,,,50.0,0.0,i,1.0,False,1395.5,84.0,59.0,40.0,False,,204.52930086604277,[],"[758.5, 426.5]",ColorTask,81.0,41.0,,,HRV,HRV_0117,2022-11-30 20:07:39
,wl-rdm,158,775744,0.0-8.41-0.41,1.0,159.0,,,,,,,[],,,,,,73.6,1.0,i,1.0,True,722.1000000238419,44.0,59.0,40.0,False,,263.6894079951847,[],"[758.5, 426.5]",ColorTask,82.0,42.0,,,HRV,HRV_0117,2022-11-30 20:07:39
,wl-rdm,159,777793,0.0-8.42-0.42,1.0,160.0,,,,,,,[],,,,,,73.6,0.0,u,0.0,True,639.0000001192093,39.0,59.0,40.0,False,,341.9144291635632,[],"[758.5, 426.5]",ColorTask,83.0,43.0,,,HRV,HRV_0117,2022-11-30 20:07:39
,wl-rdm,160,779693,0.0-8.43-0.43,1.0,161.0,,,,,,,[],,,,,,73.6,0.0,u,0.0,True,606.8000000715256,37.0,59.0,40.0,False,,232.15471406248196,[],"[758.5, 426.5]",ColorTask,84.0,44.0,,,HRV,HRV_0117,2022-11-30 20:07:39
,wl-rdm,161,781577,0.0-8.44-0.44,1.0,162.0,,,,,,,[],,,,,,87.9,1.0,i,1.0,True,580.5,35.0,59.0,40.0,False,,230.0255655807451,[],"[758.5, 426.5]",ColorTask,85.0,45.0,,,HRV,HRV_0117,2022-11-30 20:07:39
,wl-rdm,162,783576,0.0-8.45-0.45,1.0,163.0,,,,,,,[],,,,,,56.4,1.0,i,1.0,True,709.6999999284744,43.0,59.0,40.0,False,,208.6157224415149,[],"[758.5, 426.5]",ColorTask,86.0,46.0,,,HRV,HRV_0117,2022-11-30 20:07:39
,wl-rdm,163,785726,0.0-8.46-0.46,1.0,164.0,,,,,,,[],,,,,,50.0,0.0,u,0.0,True,838.0,51.0,59.0,40.0,False,,220.9653072861612,[],"[758.5, 426.5]",ColorTask,87.0,47.0,,,HRV,HRV_0117,2022-11-30 20:07:39
,wl-rdm,164,787859,0.0-8.47-0.47,1.0,165.0,,,,,,,[],,,,,,56.4,1.0,i,1.0,True,772.9000000953674,47.0,59.0,40.0,False,,272.7259690223906,[],"[758.5, 426.5]",ColorTask,88.0,48.0,,,HRV,HRV_0117,2022-11-30 20:07:39
,wl-rdm,165,790075,0.0-8.48-0.48,1.0,166.0,,,,,,,[],,,,,,73.6,0.0,u,0.0,True,906.7000000476837,55.0,59.0,40.0,False,,237.62953376426074,[],"[758.5, 426.5]",ColorTask,89.0,49.0,,,HRV,HRV_0117,2022-11-30 20:07:39
,wl-rdm,166,794409,0.0-8.49-0.49,1.0,167.0,,,,,,,[],,,,,,50.0,0.0,i,1.0,False,2912.5,175.0,59.0,40.0,False,,339.2739278907752,[],"[758.5, 426.5]",ColorTask,88.0,50.0,,,HRV,HRV_0117,2022-11-30 20:07:39
,wl-rdm,167,798075,0.0-8.50-0.50,1.0,168.0,,,,,,,[],,,,,,62.5,0.0,u,0.0,True,2274.7000000476837,137.0,59.0,40.0,False,,309.50453135235125,[],"[758.5, 426.5]",ColorTask,89.0,51.0,,,HRV,HRV_0117,2022-11-30 20:07:39
,wl-rdm,168,800225,0.0-8.51-0.51,1.0,169.0,,,,,,,[],,,,,,53.2,1.0,i,1.0,True,789.6000000238419,48.0,59.0,40.0,False,,288.2071017332551,[],"[758.5, 426.5]",ColorTask,90.0,52.0,,,HRV,HRV_0117,2022-11-30 20:07:39
,wl-rdm,169,802359,0.0-8.52-0.52,1.0,170.0,,,,,,,[],,,,,,87.9,1.0,i,1.0,True,755.3999999761581,46.0,59.0,40.0,False,,307.99001421473434,[],"[758.5, 426.5]",ColorTask,91.0,53.0,,,HRV,HRV_0117,2022-11-30 20:07:39
,wl-rdm,170,805025,0.0-8.53-0.53,1.0,171.0,,,,,,,[],,,,,,50.0,1.0,i,1.0,True,1380.5,83.0,59.0,40.0,False,,215.71856538691088,[],"[758.5, 426.5]",ColorTask,92.0,54.0,,,HRV,HRV_0117,2022-11-30 20:07:39
,wl-rdm,171,807192,0.0-8.54-0.54,1.0,172.0,,,,,,,[],,,,,,50.0,0.0,i,1.0,False,825.6000000238419,50.0,59.0,40.0,False,,264.93023217210845,[],"[758.5, 426.5]",ColorTask,91.0,55.0,,,HRV,HRV_0117,2022-11-30 20:07:39
,wl-rdm,172,810308,0.0-8.55-0.55,1.0,173.0,,,,,,,[],,,,,,50.0,1.0,u,0.0,False,1808.2999999523163,109.0,59.0,40.0,False,,224.57831137014398,[],"[758.5, 426.5]",ColorTask,90.0,56.0,,,HRV,HRV_0117,2022-11-30 20:07:39
,wl-rdm,173,812308,0.0-8.56-0.56,1.0,174.0,,,,,,,[],,,,,,62.5,1.0,i,1.0,True,697.3000000715256,42.0,59.0,40.0,False,,240.3822126752176,[],"[758.5, 426.5]",ColorTask,91.0,57.0,,,HRV,HRV_0117,2022-11-30 20:07:39
,wl-rdm,174,814574,0.0-8.57-0.57,1.0,175.0,,,,,,,[],,,,,,73.6,0.0,u,0.0,True,892.7000000476837,54.0,59.0,40.0,False,,295.15124356926896,[],"[758.5, 426.5]",ColorTask,92.0,58.0,,,HRV,HRV_0117,2022-11-30 20:07:39
,wl-rdm,175,817357,0.0-8.58-0.58,1.0,176.0,,,,,,,[],,,,,,53.2,1.0,i,1.0,True,1459.1000000238419,88.0,59.0,40.0,False,,236.8408788242689,[],"[758.5, 426.5]",ColorTask,93.0,59.0,,,HRV,HRV_0117,2022-11-30 20:07:39
,wl-rdm,176,819824,0.0-8.59-0.59,1.0,177.0,,,,,,,[],,,,,,53.2,1.0,i,1.0,True,1147.7999999523163,69.0,59.0,40.0,False,,235.02162674734885,[],"[758.5, 426.5]",ColorTask,94.0,60.0,,,HRV,HRV_0117,2022-11-30 20:07:39
,wl-rdm,177,822357,0.0-8.60-0.60,1.0,178.0,,,,,,,[],,,,,,56.4,1.0,i,1.0,True,1239.1000000238419,75.0,59.0,40.0,False,,224.26695242148722,[],"[758.5, 426.5]",ColorTask,95.0,61.0,,,HRV,HRV_0117,2022-11-30 20:07:39
,wl-rdm,178,824689,0.0-8.61-0.61,1.0,179.0,,,,,,,[],,,,,,50.0,0.0,i,1.0,False,1001.2999999523163,60.0,59.0,40.0,False,,253.53595820102746,[],"[758.5, 426.5]",ColorTask,94.0,62.0,,,HRV,HRV_0117,2022-11-30 20:07:39
,wl-rdm,179,826839,0.0-8.62-0.62,1.0,180.0,,,,,,,[],,,,,,56.4,1.0,i,1.0,True,722.6000000238419,44.0,59.0,40.0,False,,351.09579119149475,[],"[758.5, 426.5]",ColorTask,95.0,63.0,,,HRV,HRV_0117,2022-11-30 20:07:39
,wl-rdm,180,829306,0.0-8.63-0.63,1.0,181.0,,,,,,,[],,,,,,56.4,0.0,i,1.0,False,1173.0000001192093,71.0,59.0,40.0,False,,220.38112278271439,[],"[758.5, 426.5]",ColorTask,94.0,64.0,,,HRV,HRV_0117,2022-11-30 20:07:39
,wl-rdm,181,831272,0.0-8.64-0.64,1.0,182.0,,,,,,,[],,,,,,87.9,0.0,u,0.0,True,555.7000000476837,34.0,59.0,40.0,False,,319.42229483830283,[],"[758.5, 426.5]",ColorTask,95.0,65.0,,,HRV,HRV_0117,2022-11-30 20:07:39
,wl-rdm,182,833222,0.0-8.65-0.65,1.0,183.0,,,,,,,[],,,,,,87.9,0.0,u,0.0,True,505.5,31.0,59.0,40.0,False,,361.36274460742504,[],"[758.5, 426.5]",ColorTask,96.0,66.0,,,HRV,HRV_0117,2022-11-30 20:07:39
,wl-rdm,183,835673,0.0-8.66-0.66,1.0,184.0,,,,,,,[],,,,,,50.0,0.0,i,1.0,False,1139.3000000715256,69.0,59.0,40.0,False,,247.904184481141,[],"[758.5, 426.5]",ColorTask,95.0,67.0,,,HRV,HRV_0117,2022-11-30 20:07:39
,wl-rdm,184,837722,0.0-8.67-0.67,1.0,185.0,,,,,,,[],,,,,,62.5,1.0,i,1.0,True,707.8999998569489,43.0,59.0,40.0,False,,266.44296102369157,[],"[758.5, 426.5]",ColorTask,96.0,68.0,,,HRV,HRV_0117,2022-11-30 20:07:39
,wl-rdm,185,840005,0.0-8.68-0.68,1.0,186.0,,,,,,,[],,,,,,50.0,1.0,i,1.0,True,977.6000000238419,59.0,59.0,40.0,False,,242.87300104251784,[],"[758.5, 426.5]",ColorTask,97.0,69.0,,,HRV,HRV_0117,2022-11-30 20:07:39
,wl-rdm,186,842138,0.0-8.69-0.69,1.0,187.0,,,,,,,[],,,,,,87.9,0.0,u,0.0,True,724.2000000476837,44.0,59.0,40.0,False,,344.77872390261075,[],"[758.5, 426.5]",ColorTask,98.0,70.0,,,HRV,HRV_0117,2022-11-30 20:07:39
,wl-rdm,187,845455,0.0-8.70-0.70,1.0,188.0,,,,,,,[],,,,,,53.2,0.0,u,0.0,True,1925.7999999523163,116.0,59.0,40.0,False,,315.25678693265354,[],"[758.5, 426.5]",ColorTask,99.0,71.0,,,HRV,HRV_0117,2022-11-30 20:07:39
,wl-rdm,188,848472,0.0-8.71-0.71,1.0,189.0,,,,,,,[],,,,,,53.2,0.0,u,0.0,True,1672.8999999761581,101.0,59.0,40.0,False,,259.32501656399495,[],"[758.5, 426.5]",ColorTask,100.0,72.0,,,HRV,HRV_0117,2022-11-30 20:07:39
,wl-rdm,189,850871,0.0-8.72-0.72,1.0,190.0,,,,,,,[],,,,,,50.0,1.0,i,1.0,True,1040.0,63.0,59.0,40.0,False,,272.28825306209757,[],"[758.5, 426.5]",ColorTask,101.0,73.0,,,HRV,HRV_0117,2022-11-30 20:07:39
,wl-rdm,190,853620,0.0-8.73-0.73,1.0,191.0,,,,,,,[],,,,,,53.2,1.0,i,1.0,True,1307.4000000953674,79.0,59.0,40.0,False,,349.6732584875731,[],"[758.5, 426.5]",ColorTask,102.0,74.0,,,HRV,HRV_0117,2022-11-30 20:07:39
,wl-rdm,191,856004,0.0-8.74-0.74,1.0,192.0,,,,,,,[],,,,,,53.2,1.0,i,1.0,True,1061.2000000476837,64.0,59.0,40.0,False,,237.23295052262964,[],"[758.5, 426.5]",ColorTask,103.0,75.0,,,HRV,HRV_0117,2022-11-30 20:07:39
,wl-rdm,192,858137,0.0-8.75-0.75,1.0,193.0,,,,,,,[],,,,,,87.9,0.0,u,0.0,True,732.7000000476837,44.0,59.0,40.0,False,,334.11502075051,[],"[758.5, 426.5]",ColorTask,104.0,76.0,,,HRV,HRV_0117,2022-11-30 20:07:39
,wl-rdm,193,860504,0.0-8.76-0.76,1.0,194.0,,,,,,,[],,,,,,73.6,1.0,i,1.0,True,1045.5,63.0,59.0,40.0,False,,264.6349494198797,[],"[758.5, 426.5]",ColorTask,105.0,77.0,,,HRV,HRV_0117,2022-11-30 20:07:39
,wl-rdm,194,862586,0.0-8.77-0.77,1.0,195.0,,,,,,,[],,,,,,73.6,0.0,u,0.0,True,778.6000000238419,47.0,59.0,40.0,False,,250.40026599356597,[],"[758.5, 426.5]",ColorTask,106.0,78.0,,,HRV,HRV_0117,2022-11-30 20:07:39
,wl-rdm,195,864786,0.0-8.78-0.78,1.0,196.0,,,,,,,[],,,,,,62.5,1.0,i,1.0,True,880.2000000476837,53.0,59.0,40.0,False,,250.9072241658717,[],"[758.5, 426.5]",ColorTask,107.0,79.0,,,HRV,HRV_0117,2022-11-30 20:07:39
,wl-rdm,196,866870,0.0-8.79-0.79,1.0,197.0,,,,,,,[],,,,,,87.9,1.0,i,1.0,True,656.8000000715256,40.0,59.0,40.0,False,,339.6052185189782,[],"[758.5, 426.5]",ColorTask,108.0,80.0,,,HRV,HRV_0117,2022-11-30 20:07:39
,wl-rdm,197,869186,0.0-8.80-0.80,1.0,198.0,,,,,,,[],,,,,,62.5,1.0,i,1.0,True,943.8999999761581,57.0,59.0,40.0,False,,302.60925840812433,[],"[758.5, 426.5]",ColorTask,109.0,81.0,,,HRV,HRV_0117,2022-11-30 20:07:39
,wl-rdm,198,872720,0.0-8.81-0.81,1.0,199.0,,,,,,,[],,,,,,56.4,0.0,u,0.0,True,2239.2000000476837,135.0,59.0,40.0,False,,210.28507291974375,[],"[758.5, 426.5]",ColorTask,110.0,82.0,,,HRV,HRV_0117,2022-11-30 20:07:39
,wl-rdm,199,874920,0.0-8.82-0.82,1.0,200.0,,,,,,,[],,,,,,56.4,1.0,i,1.0,True,839.0,51.0,59.0,40.0,False,,278.08232703992337,[],"[758.5, 426.5]",ColorTask,111.0,83.0,,,HRV,HRV_0117,2022-11-30 20:07:39
,wl-rdm,200,876886,0.0-8.83-0.83,1.0,201.0,,,,,,,[],,,,,,87.9,0.0,u,0.0,True,607.5,37.0,59.0,40.0,False,,271.78269025759647,[],"[758.5, 426.5]",ColorTask,112.0,84.0,,,HRV,HRV_0117,2022-11-30 20:07:39
,wl-rdm,201,878986,0.0-8.84-0.84,1.0,202.0,,,,,,,[],,,,,,73.6,0.0,u,0.0,True,790.0000001192093,48.0,59.0,40.0,False,,234.4300977362883,[],"[758.5, 426.5]",ColorTask,113.0,85.0,,,HRV,HRV_0117,2022-11-30 20:07:39
,wl-rdm,202,881119,0.0-8.85-0.85,1.0,203.0,,,,,,,[],,,,,,62.5,1.0,u,0.0,False,844.0,51.0,59.0,40.0,False,,205.76905589231666,[],"[758.5, 426.5]",ColorTask,112.0,86.0,,,HRV,HRV_0117,2022-11-30 20:07:39
,wl-rdm,203,883401,0.0-8.86-0.86,1.0,204.0,,,,,,,[],,,,,,53.2,0.0,u,0.0,True,942.4000000953674,57.0,59.0,40.0,False,,257.3277252326455,[],"[758.5, 426.5]",ColorTask,113.0,87.0,,,HRV,HRV_0117,2022-11-30 20:07:39
,wl-rdm,204,886235,0.0-8.87-0.87,1.0,205.0,,,,,,,[],,,,,,56.4,0.0,u,0.0,True,1443.5,87.0,59.0,40.0,False,,306.86117596604606,[],"[758.5, 426.5]",ColorTask,114.0,88.0,,,HRV,HRV_0117,2022-11-30 20:07:39
,wl-rdm,205,888302,0.0-8.88-0.88,1.0,206.0,,,,,,,[],,,,,,62.5,0.0,u,0.0,True,773.1999999284744,47.0,59.0,40.0,False,,230.35758743163163,[],"[758.5, 426.5]",ColorTask,115.0,89.0,,,HRV,HRV_0117,2022-11-30 20:07:39
,wl-rdm,206,891418,0.0-8.89-0.89,1.0,207.0,,,,,,,[],,,,,,56.4,1.0,i,1.0,True,1756.2000000476837,106.0,59.0,40.0,False,,293.0645156802681,[],"[758.5, 426.5]",ColorTask,116.0,90.0,,,HRV,HRV_0117,2022-11-30 20:07:39
,wl-rdm,207,894200,0.0-8.90-0.90,1.0,208.0,,,,,,,[],,,,,,50.0,0.0,i,1.0,False,1396.7000000476837,84.0,59.0,40.0,False,,324.19431016462744,[],"[758.5, 426.5]",ColorTask,115.0,91.0,,,HRV,HRV_0117,2022-11-30 20:07:39
,wl-rdm,208,896269,0.0-8.91-0.91,1.0,209.0,,,,,,,[],,,,,,87.9,1.0,i,1.0,True,756.8000000715256,46.0,59.0,40.0,False,,230.73346539788716,[],"[758.5, 426.5]",ColorTask,116.0,92.0,,,HRV,HRV_0117,2022-11-30 20:07:39
,wl-rdm,209,898384,0.0-8.92-0.92,1.0,210.0,,,,,,,[],,,,,,62.5,0.0,u,0.0,True,754.8999999761581,46.0,59.0,40.0,False,,269.6075605178476,[],"[758.5, 426.5]",ColorTask,117.0,93.0,,,HRV,HRV_0117,2022-11-30 20:07:39
,wl-rdm,210,900417,0.0-8.93-0.93,1.0,211.0,,,,,,,[],,,,,,87.9,1.0,i,1.0,True,680.7000000476837,41.0,59.0,40.0,False,,297.7722358003638,[],"[758.5, 426.5]",ColorTask,118.0,94.0,,,HRV,HRV_0117,2022-11-30 20:07:39
,wl-rdm,211,903017,0.0-8.94-0.94,1.0,212.0,,,,,,,[],,,,,,53.2,1.0,i,1.0,True,1148.1000000238419,69.0,59.0,40.0,False,,370.8602516859224,[],"[758.5, 426.5]",ColorTask,119.0,95.0,,,HRV,HRV_0117,2022-11-30 20:07:39
,wl-rdm,212,905800,0.0-8.95-0.95,1.0,213.0,,,,,,,[],,,,,,50.0,1.0,i,1.0,True,1455.6000000238419,88.0,59.0,40.0,False,,262.57068777430305,[],"[758.5, 426.5]",ColorTask,120.0,96.0,,,HRV,HRV_0117,2022-11-30 20:07:39
,wl-rdm,213,908050,0.0-8.96-0.96,1.0,214.0,,,,,,,[],,,,,,62.5,0.0,u,0.0,True,816.7999999523163,49.0,59.0,40.0,False,,355.74481458899334,[],"[758.5, 426.5]",ColorTask,121.0,97.0,,,HRV,HRV_0117,2022-11-30 20:07:39
,wl-rdm,214,911450,0.0-8.97-0.97,1.0,215.0,,,,,,,[],,,,,,53.2,0.0,u,0.0,True,1939.6000000238419,117.0,59.0,40.0,False,,374.1905660749889,[],"[758.5, 426.5]",ColorTask,122.0,98.0,,,HRV,HRV_0117,2022-11-30 20:07:39
,wl-rdm,215,913533,0.0-8.98-0.98,1.0,216.0,,,,,,,[],,,,,,62.5,1.0,i,1.0,True,632.9000000953674,38.0,59.0,40.0,False,,368.77209632021254,[],"[758.5, 426.5]",ColorTask,123.0,99.0,,,HRV,HRV_0117,2022-11-30 20:07:39
,wl-rdm,216,915483,0.0-8.99-0.99,1.0,217.0,,,,,,,[],,,,,,87.9,0.0,u,0.0,True,655.1000000238419,40.0,59.0,40.0,False,,231.46029111698357,[],"[758.5, 426.5]",ColorTask,124.0,100.0,,,HRV,HRV_0117,2022-11-30 20:07:39
,wl-rdm,217,918199,0.0-8.100-0.100,1.0,218.0,,,,,,,[],,,,,,56.4,0.0,u,0.0,True,1341.0,81.0,59.0,40.0,False,,313.00590350996765,[],"[758.5, 426.5]",ColorTask,125.0,101.0,,,HRV,HRV_0117,2022-11-30 20:07:39
,wl-rdm,218,921166,0.0-8.101-0.101,1.0,219.0,,,,,,,[],,,,,,53.2,0.0,i,1.0,False,1655.8999999761581,100.0,59.0,40.0,False,,239.17092309929615,[],"[758.5, 426.5]",ColorTask,124.0,102.0,,,HRV,HRV_0117,2022-11-30 20:07:39
,wl-rdm,219,923132,0.0-8.102-0.102,1.0,220.0,,,,,,,[],,,,,,73.6,1.0,i,1.0,True,648.4999998807907,39.0,59.0,40.0,False,,234.02319086659867,[],"[758.5, 426.5]",ColorTask,125.0,103.0,,,HRV,HRV_0117,2022-11-30 20:07:39
,wl-rdm,220,925399,0.0-8.103-0.103,1.0,221.0,,,,,,,[],,,,,,73.6,1.0,i,1.0,True,798.5,48.0,59.0,40.0,False,,383.7575747987123,[],"[758.5, 426.5]",ColorTask,126.0,104.0,,,HRV,HRV_0117,2022-11-30 20:07:39
,wl-rdm,221,927581,0.0-8.104-0.104,1.0,222.0,,,,,,,[],,,,,,50.0,1.0,i,1.0,True,840.6999999284744,51.0,59.0,40.0,False,,256.82654461381355,[],"[758.5, 426.5]",ColorTask,127.0,105.0,,,HRV,HRV_0117,2022-11-30 20:07:39
,wl-rdm,222,929781,0.0-8.105-0.105,1.0,223.0,,,,,,,[],,,,,,73.6,1.0,i,1.0,True,746.9000000953674,45.0,59.0,40.0,False,,390.3740898510948,[],"[758.5, 426.5]",ColorTask,128.0,106.0,,,HRV,HRV_0117,2022-11-30 20:07:39
,wl-rdm,223,931715,0.0-8.106-0.106,1.0,224.0,,,,,,,[],,,,,,87.9,0.0,u,0.0,True,655.3999999761581,40.0,59.0,40.0,False,,207.02292700866283,[],"[758.5, 426.5]",ColorTask,129.0,107.0,,,HRV,HRV_0117,2022-11-30 20:07:39
,wl-rdm,224,934131,0.0-8.107-0.107,1.0,225.0,,,,,,,[],,,,,,50.0,0.0,i,1.0,False,1077.4000000953674,65.0,59.0,40.0,False,,280.1560910980128,[],"[758.5, 426.5]",ColorTask,128.0,108.0,,,HRV,HRV_0117,2022-11-30 20:07:39
,wl-html-button-response,225,938113,0.0-9.0-0.0,,,,,,,,,,3977.600000023842,,0,,,,,,,,,,,,,,,,,,,,<h3>End of this session. Thank you!</h3><br>,['Close window'],HRV,HRV_0117,2022-11-30 20:07:39
