success,trial_type,trial_index,time_elapsed,internal_node_id,Block,TrialNumber,TrialTime,trialTimeDiff,FPS_avg,FPS_med,FPS_mode,TrialDur,winResizeTime,rt,block,button_pressed,MotCoh,MotDir,ColCoh,Color,ChoiceKey,Choice,Accuracy,RT,nFrames,FPS,PPD,missTrial,missTrialMsg,onsetDelay,fullScreenExitTime,canvCenter,TrialType,Score,BlockTrial,stimulus,button_labels,exp,subjectId,date
True,fullscreen,0,2154,0.0-0.0,0.0,1.0,,,,,,,,,,,,,,,,,,,,,,,,,,,,,,,,HRV,HRV_0241,2022-11-30 19:37:26
,wl-check-fps,1,7179,0.0-1.0,0.0,2.0,"[2816, 2822.7, 2842.2, 2858.2, 2873.7, 2890.7, 2907.2, 2924, 2939.4, 2956.5, 2973.1, 2991.3, 3006.6, 3024.9, 3041.4, 3057.8, 3074.8, 3089.2, 3107.8, 3124.8, 3141, 3157.5, 3174.1, 3190.4, 3207.5, 3223.8, 3240.5, 3257.2, 3273.6, 3290.4, 3312.3, 3324.3, 3339.7, 3357.1, 3372.7, 3389.5, 3407.6, 3422.7, 3441.4, 3457.1, 3473.1, 3490.1, 3506.7, 3522.6, 3539.9, 3556.6, 3573.2, 3589.6, 3606.5, 3622.9, 3639.9, 3656.1, 3673.2, 3689.9, 3706.2, 3723.3, 3739.5, 3756.6, 3773.1, 3789.5, 3806.4, 3823.2, 3844.4, 3857.2, 3873.3, 3890.3, 3906.3, 3923.7, 3939.9, 3956.4, 3979.7, 3989.7, 4008.4, 4023, 4042.1, 4056, 4073.4, 4090.5, 4106.3, 4122.8, 4140.5, 4157.5, 4173.3, 4189.6, 4206.8, 4224.2, 4240.5, 4256.8, 4273.2, 4290.7, 4308, 4323.8, 4341.1, 4358.6, 4375.5, 4395.7, 4405.9, 4459.3, 4460.3, 4473.5, 4489.9, 4506.2, 4523.3, 4540.4, 4557.3, 4573.7, 4590.1, 4606.9, 4623.5, 4640.9, 4656.6, 4673.7, 4690.4, 4706.6, 4723.8, 4740.8, 4757.7, 4773.9, 4790.2, 4807.4, 4824.2, 4841.1, 4857.2, 4873.8, 4890.6, 4911, 4923.7, 4940.5, 4957.3, 4974, 4990.1, 5006.5, 5023.8, 5040.7, 5056.3, 5073, 5090.5, 5106.7, 5123.4, 5140.6, 5157, 5174, 5190.1, 5207, 5224, 5240.7, 5256.6, 5273.5, 5289.5, 5306.3, 5323.7, 5340.2, 5357.3, 5374, 5389.9, 5408.2, 5425, 5443.6, 5456.8, 5473.2, 5489.6, 5506.4, 5523.1, 5541.2, 5556.9, 5574.2, 5590, 5607.1, 5623.5, 5639.8, 5656.6, 5673.5, 5689.6, 5707.4, 5722.9, 5741.2, 5756.1, 5773.3, 5790.6, 5806.9, 5822.3, 5840.6, 5856.8, 5872.2, 5888.6, 5905.3, 5923.6, 5939.3, 5957, 5977.8, 5989, 6006.5, 6022.8, 6039.6, 6056.3, 6083.2, 6091.2, 6106.8, 6121.9, 6138.9, 6156.1, 6172.7, 6188.6, 6207, 6223.2, 6239.7, 6256.3, 6273.4, 6290, 6306.8, 6323.3, 6340.1, 6357.1, 6375.6, 6390.2, 6408, 6424.5, 6440, 6457.5, 6472.8, 6491, 6512.7, 6522.9, 6539.3, 6556.8, 6573.6, 6589.3, 6606.1, 6622.8, 6640, 6656.8, 6676.1, 6689.9, 6706.1, 6723.2, 6739.7, 6755.9, 6772.4, 6788.8, 6805.8, 6822.4, 6839, 6856.6, 6872.9, 6890, 6906.3, 6922.7, 6940.2, 6957, 6974.4, 6989.5, 7008.1, 7024.8, 7046.5, 7056.3, 7073.7, 7090.6, 7106.6, 7122.5, 7139.9, 7155.6, 7172.6, 7191, 7205.4, 7223.2, 7239.9, 7256.2, 7272.8, 7288.8, 7306.2, 7322.8, 7339.9, 7355.4, 7373.3, 7389.2, 7407.9, 7422.7, 7438.5, 7456.2, 7472.3, 7490.1, 7505.9, 7522.9, 7539.1, 7556.2, 7572.7, 7589.1, 7605.8, 7622.5, 7638.8, 7655.4, 7672.4, 7689.1, 7705.9, 7722.7, 7739.5, 7756.1, 7772.2, 7789, 7806]","[7, 6.7, 19.5, 16, 15.5, 17, 16.5, 16.8, 15.4, 17.1, 16.6, 18.2, 15.3, 18.3, 16.5, 16.4, 17, 14.4, 18.6, 17, 16.2, 16.5, 16.6, 16.3, 17.1, 16.3, 16.7, 16.7, 16.4, 16.8, 21.9, 12, 15.4, 17.4, 15.6, 16.8, 18.1, 15.1, 18.7, 15.7, 16, 17, 16.6, 15.9, 17.3, 16.7, 16.6, 16.4, 16.9, 16.4, 17, 16.2, 17.1, 16.7, 16.3, 17.1, 16.2, 17.1, 16.5, 16.4, 16.9, 16.8, 21.2, 12.8, 16.1, 17, 16, 17.4, 16.2, 16.5, 23.3, 10, 18.7, 14.6, 19.1, 13.9, 17.4, 17.1, 15.8, 16.5, 17.7, 17, 15.8, 16.3, 17.2, 17.4, 16.3, 16.3, 16.4, 17.5, 17.3, 15.8, 17.3, 17.5, 16.9, 20.2, 10.2, 53.4, 1, 13.2, 16.4, 16.3, 17.1, 17.1, 16.9, 16.4, 16.4, 16.8, 16.6, 17.4, 15.7, 17.1, 16.7, 16.2, 17.2, 17, 16.9, 16.2, 16.3, 17.2, 16.8, 16.9, 16.1, 16.6, 16.8, 20.4, 12.7, 16.8, 16.8, 16.7, 16.1, 16.4, 17.3, 16.9, 15.6, 16.7, 17.5, 16.2, 16.7, 17.2, 16.4, 17, 16.1, 16.9, 17, 16.7, 15.9, 16.9, 16, 16.8, 17.4, 16.5, 17.1, 16.7, 15.9, 18.3, 16.8, 18.6, 13.2, 16.4, 16.4, 16.8, 16.7, 18.1, 15.7, 17.3, 15.8, 17.1, 16.4, 16.3, 16.8, 16.9, 16.1, 17.8, 15.5, 18.3, 14.9, 17.2, 17.3, 16.3, 15.4, 18.3, 16.2, 15.4, 16.4, 16.7, 18.3, 15.7, 17.7, 20.8, 11.2, 17.5, 16.3, 16.8, 16.7, 26.9, 8, 15.6, 15.1, 17, 17.2, 16.6, 15.9, 18.4, 16.2, 16.5, 16.6, 17.1, 16.6, 16.8, 16.5, 16.8, 17, 18.5, 14.6, 17.8, 16.5, 15.5, 17.5, 15.3, 18.2, 21.7, 10.2, 16.4, 17.5, 16.8, 15.7, 16.8, 16.7, 17.2, 16.8, 19.3, 13.8, 16.2, 17.1, 16.5, 16.2, 16.5, 16.4, 17, 16.6, 16.6, 17.6, 16.3, 17.1, 16.3, 16.4, 17.5, 16.8, 17.4, 15.1, 18.6, 16.7, 21.7, 9.8, 17.4, 16.9, 16, 15.9, 17.4, 15.7, 17, 18.4, 14.4, 17.8, 16.7, 16.3, 16.6, 16, 17.4, 16.6, 17.1, 15.5, 17.9, 15.9, 18.7, 14.8, 15.8, 17.7, 16.1, 17.8, 15.8, 17, 16.2, 17.1, 16.5, 16.4, 16.7, 16.7, 16.3, 16.6, 17, 16.7, 16.8, 16.8, 16.8, 16.6, 16.1, 16.8, 17]",60.0,58.0,60.0,5013.5,[],,,,,,,,,,,,,,,,,,,,,,,,,HRV,HRV_0241,2022-11-30 19:37:26
,wl-html-keyboard-response,2,36946,0.0-2.0-0.0,0.0,3.0,,,,,,,,27744.300000000745,0.0,0,,,,,,,,,,,,,,,,,,,,,,HRV,HRV_0241,2022-11-30 19:37:26
,wl-rdm,3,44816,0.0-3.0-0.0,0.0,4.0,,,,,,,[],,,,0.0,0.0,87.9,0.0,u,0.0,True,2280.60000000149,137.0,60.0,40.0,False,,3000.0,[],"[960, 540]",ColorTask_Demo,,,,,HRV,HRV_0241,2022-11-30 19:37:26
,wl-rdm,4,50162,0.0-3.0-1.0,0.0,5.0,,,,,,,[],,,,0.0,0.0,87.9,1.0,i,1.0,True,1242.199999999255,75.0,60.0,40.0,False,,2000.0,[],"[960, 540]",ColorTask_Demo,,,,,HRV,HRV_0241,2022-11-30 19:37:26
,wl-html-keyboard-response,5,223306,0.0-3.0-2.0,0.0,6.0,,,,,,,,171127.69999999925,0.0,1,,,,,,,,,,,,,,,,,,,,,,HRV,HRV_0241,2022-11-30 19:37:26
,wl-html-keyboard-response,6,239155,0.0-4.0-0.0,0.0,7.0,,,,,,,,13840.5,0.0,0,,,,,,,,,,,,,,,,,,,,,,HRV,HRV_0241,2022-11-30 19:37:26
,wl-html-keyboard-response,7,272586,0.0-5.0-0.0,0.0,8.0,,,,,,,,31427.0,0.0,0,,,,,,,,,,,,,,,,,,,,,,HRV,HRV_0241,2022-11-30 19:37:26
,wl-rdm,8,276313,0.0-6.0-0.0,0.0,9.0,,,,,,,[],,,,,,56.4,1.0,i,1.0,True,2388.89999999851,144.0,60.0,40.0,False,,276.71148331811406,[],"[960, 540]",ColorTask,1.0,1.0,,,HRV,HRV_0241,2022-11-30 19:37:26
,wl-rdm,9,280196,0.0-6.1-0.1,0.0,10.0,,,,,,,[],,,,,,50.0,0.0,i,1.0,False,2601.0,155.0,60.0,40.0,False,,204.7488591550692,[],"[960, 540]",ColorTask,0.0,2.0,,,HRV,HRV_0241,2022-11-30 19:37:26
,wl-rdm,10,284578,0.0-6.2-0.2,0.0,10.0,,,,,,,[],,,,,,53.2,0.0,,,,,179.0,60.0,40.0,True,RT_timeout ,276.7123962193825,[],"[960, 540]",ColorTask,-1.0,3.0,,,HRV,HRV_0241,2022-11-30 19:37:26
,wl-rdm,11,287944,0.0-6.3-0.3,0.0,11.0,,,,,,,[],,,,,,62.5,0.0,i,1.0,False,2073.5,125.0,60.0,40.0,False,,215.21163215993045,[],"[960, 540]",ColorTask,-2.0,4.0,,,HRV,HRV_0241,2022-11-30 19:37:26
,wl-rdm,12,291210,0.0-6.4-0.4,0.0,12.0,,,,,,,[],,,,,,50.0,1.0,u,0.0,False,1926.4000000022352,116.0,60.0,40.0,False,,280.09540988887113,[],"[960, 540]",ColorTask,-3.0,5.0,,,HRV,HRV_0241,2022-11-30 19:37:26
,wl-rdm,13,294927,0.0-6.5-0.5,0.0,13.0,,,,,,,[],,,,,,53.2,0.0,u,0.0,True,2393.699999999255,144.0,60.0,40.0,False,,241.29888421740117,[],"[960, 540]",ColorTask,-2.0,6.0,,,HRV,HRV_0241,2022-11-30 19:37:26
,wl-rdm,14,297675,0.0-6.6-0.6,0.0,14.0,,,,,,,[],,,,,,56.4,0.0,i,1.0,False,1331.7999999970198,80.0,60.0,40.0,False,,348.23050081720714,[],"[960, 540]",ColorTask,-3.0,7.0,,,HRV,HRV_0241,2022-11-30 19:37:26
,wl-rdm,15,301674,0.0-6.7-0.7,0.0,15.0,,,,,,,[],,,,,,56.4,0.0,i,1.0,False,2627.7999999970198,157.0,60.0,40.0,False,,286.9775425050874,[],"[960, 540]",ColorTask,-4.0,8.0,,,HRV,HRV_0241,2022-11-30 19:37:26
,wl-rdm,16,304641,0.0-6.8-0.8,0.0,16.0,,,,,,,[],,,,,,87.9,0.0,u,0.0,True,1622.5,98.0,60.0,40.0,False,,261.6731567347739,[],"[960, 540]",ColorTask,-3.0,9.0,,,HRV,HRV_0241,2022-11-30 19:37:26
,wl-rdm,17,307723,0.0-6.9-0.9,0.0,17.0,,,,,,,[],,,,,,50.0,0.0,i,1.0,False,1733.800000000745,105.0,60.0,40.0,False,,269.9335481247515,[],"[960, 540]",ColorTask,-4.0,10.0,,,HRV,HRV_0241,2022-11-30 19:37:26
,wl-rdm,18,310573,0.0-6.10-0.10,0.0,18.0,,,,,,,[],,,,,,50.0,0.0,i,1.0,False,1443.8999999985099,87.0,60.0,40.0,False,,324.60675250379927,[],"[960, 540]",ColorTask,-5.0,11.0,,,HRV,HRV_0241,2022-11-30 19:37:26
,wl-rdm,19,314955,0.0-6.11-0.11,0.0,19.0,,,,,,,[],,,,,,56.4,0.0,u,0.0,True,2933.39999999851,176.0,60.0,40.0,False,,374.00276041417897,[],"[960, 540]",ColorTask,-4.0,12.0,,,HRV,HRV_0241,2022-11-30 19:37:26
,wl-rdm,20,318087,0.0-6.12-0.12,0.0,20.0,,,,,,,[],,,,,,53.2,1.0,i,1.0,True,1778.5000000037253,107.0,60.0,40.0,False,,274.9571837898662,[],"[960, 540]",ColorTask,-3.0,13.0,,,HRV,HRV_0241,2022-11-30 19:37:26
,wl-rdm,21,320187,0.0-6.13-0.13,0.0,21.0,,,,,,,[],,,,,,87.9,1.0,i,1.0,True,827.7999999970198,50.0,60.0,40.0,False,,215.86446544425408,[],"[960, 540]",ColorTask,-2.0,14.0,,,HRV,HRV_0241,2022-11-30 19:37:26
,wl-rdm,22,322637,0.0-6.14-0.14,0.0,22.0,,,,,,,[],,,,,,87.9,0.0,u,0.0,True,1014.6000000014901,61.0,60.0,40.0,False,,350.6878359715712,[],"[960, 540]",ColorTask,-1.0,15.0,,,HRV,HRV_0241,2022-11-30 19:37:26
,wl-rdm,23,324986,0.0-6.15-0.15,0.0,23.0,,,,,,,[],,,,,,73.6,1.0,i,1.0,True,964.3999999985099,58.0,60.0,40.0,False,,332.8067423438258,[],"[960, 540]",ColorTask,0.0,16.0,,,HRV,HRV_0241,2022-11-30 19:37:26
,wl-rdm,24,327818,0.0-6.16-0.16,0.0,24.0,,,,,,,[],,,,,,53.2,1.0,i,1.0,True,1401.5000000037253,85.0,60.0,40.0,False,,349.6824725808491,[],"[960, 540]",ColorTask,1.0,17.0,,,HRV,HRV_0241,2022-11-30 19:37:26
,wl-rdm,25,331552,0.0-6.17-0.17,0.0,25.0,,,,,,,[],,,,,,53.2,0.0,i,1.0,False,2323.599999997765,140.0,60.0,40.0,False,,348.0367740404055,[],"[960, 540]",ColorTask,0.0,18.0,,,HRV,HRV_0241,2022-11-30 19:37:26
,wl-rdm,26,333984,0.0-6.18-0.18,0.0,26.0,,,,,,,[],,,,,,73.6,1.0,i,1.0,True,1072.9000000022352,65.0,60.0,40.0,False,,276.5293953699029,[],"[960, 540]",ColorTask,1.0,19.0,,,HRV,HRV_0241,2022-11-30 19:37:26
,wl-rdm,27,337116,0.0-6.19-0.19,0.0,27.0,,,,,,,[],,,,,,50.0,0.0,u,0.0,True,1773.0000000037253,107.0,60.0,40.0,False,,297.3196112546352,[],"[960, 540]",ColorTask,2.0,20.0,,,HRV,HRV_0241,2022-11-30 19:37:26
,wl-rdm,28,340632,0.0-6.20-0.20,0.0,28.0,,,,,,,[],,,,,,62.5,0.0,u,0.0,True,2078.400000002235,125.0,60.0,40.0,False,,357.0835356254154,[],"[960, 540]",ColorTask,3.0,21.0,,,HRV,HRV_0241,2022-11-30 19:37:26
,wl-rdm,29,344149,0.0-6.21-0.21,0.0,29.0,,,,,,,[],,,,,,56.4,1.0,u,0.0,False,2154.5000000037253,130.0,60.0,40.0,False,,276.6637582914901,[],"[960, 540]",ColorTask,2.0,22.0,,,HRV,HRV_0241,2022-11-30 19:37:26
,wl-rdm,30,348317,0.0-6.22-0.22,0.0,30.0,,,,,,,[],,,,,,53.2,1.0,i,1.0,True,2727.300000000745,164.0,60.0,40.0,False,,362.3750776470197,[],"[960, 540]",ColorTask,3.0,23.0,,,HRV,HRV_0241,2022-11-30 19:37:26
,wl-rdm,31,351380,0.0-6.23-0.23,0.0,31.0,,,,,,,[],,,,,,87.9,0.0,u,0.0,True,1628.9000000022352,98.0,60.0,40.0,False,,352.26867878826243,[],"[960, 540]",ColorTask,4.0,24.0,,,HRV,HRV_0241,2022-11-30 19:37:26
,wl-rdm,32,354881,0.0-6.24-0.24,0.0,32.0,,,,,,,[],,,,,,73.6,0.0,u,0.0,True,2126.5,128.0,60.0,40.0,False,,285.2980498555416,[],"[960, 540]",ColorTask,5.0,25.0,,,HRV,HRV_0241,2022-11-30 19:37:26
,wl-rdm,33,357312,0.0-6.25-0.25,0.0,33.0,,,,,,,[],,,,,,87.9,1.0,i,1.0,True,1089.2999999970198,66.0,60.0,40.0,False,,253.0485425802104,[],"[960, 540]",ColorTask,6.0,26.0,,,HRV,HRV_0241,2022-11-30 19:37:26
,wl-rdm,34,361411,0.0-6.26-0.26,0.0,34.0,,,,,,,[],,,,,,50.0,0.0,u,0.0,True,2788.39999999851,168.0,60.0,40.0,False,,227.15794123422356,[],"[960, 540]",ColorTask,7.0,27.0,,,HRV,HRV_0241,2022-11-30 19:37:26
,wl-rdm,35,365368,0.0-6.27-0.27,0.0,35.0,,,,,,,[],,,,,,62.5,0.0,u,0.0,True,2611.60000000149,157.0,60.0,40.0,False,,259.29846248380784,[],"[960, 540]",ColorTask,8.0,28.0,,,HRV,HRV_0241,2022-11-30 19:37:26
,wl-rdm,36,367927,0.0-6.28-0.28,0.0,36.0,,,,,,,[],,,,,,73.6,1.0,i,1.0,True,1158.5999999977648,69.0,60.0,40.0,False,,304.511371171141,[],"[960, 540]",ColorTask,9.0,29.0,,,HRV,HRV_0241,2022-11-30 19:37:26
,wl-rdm,37,371759,0.0-6.29-0.29,0.0,37.0,,,,,,,[],,,,,,56.4,1.0,i,1.0,True,2512.10000000149,151.0,60.0,40.0,False,,259.2155623815166,[],"[960, 540]",ColorTask,10.0,30.0,,,HRV,HRV_0241,2022-11-30 19:37:26
,wl-rdm,38,375141,0.0-6.30-0.30,0.0,38.0,,,,,,,[],,,,,,53.2,0.0,u,0.0,True,2065.10000000149,124.0,60.0,40.0,False,,243.89606919565006,[],"[960, 540]",ColorTask,11.0,31.0,,,HRV,HRV_0241,2022-11-30 19:37:26
,wl-rdm,39,378890,0.0-6.31-0.31,0.0,39.0,,,,,,,[],,,,,,56.4,0.0,i,1.0,False,2426.099999997765,146.0,60.0,40.0,False,,248.53870263440987,[],"[960, 540]",ColorTask,10.0,32.0,,,HRV,HRV_0241,2022-11-30 19:37:26
,wl-rdm,40,381640,0.0-6.32-0.32,0.0,40.0,,,,,,,[],,,,,,56.4,1.0,i,1.0,True,1403.5999999977648,85.0,60.0,40.0,False,,261.6281539830752,[],"[960, 540]",ColorTask,11.0,33.0,,,HRV,HRV_0241,2022-11-30 19:37:26
,wl-rdm,41,384390,0.0-6.33-0.33,0.0,41.0,,,,,,,[],,,,,,87.9,0.0,u,0.0,True,1307.300000000745,79.0,60.0,40.0,False,,351.26976581744793,[],"[960, 540]",ColorTask,12.0,34.0,,,HRV,HRV_0241,2022-11-30 19:37:26
,wl-rdm,42,387289,0.0-6.34-0.34,0.0,42.0,,,,,,,[],,,,,,62.5,1.0,i,1.0,True,1521.9999999962747,91.0,60.0,40.0,False,,289.50119639523416,[],"[960, 540]",ColorTask,13.0,35.0,,,HRV,HRV_0241,2022-11-30 19:37:26
,wl-rdm,43,390271,0.0-6.35-0.35,0.0,43.0,,,,,,,[],,,,,,56.4,0.0,u,0.0,True,1600.5,96.0,60.0,40.0,False,,305.823949278114,[],"[960, 540]",ColorTask,14.0,36.0,,,HRV,HRV_0241,2022-11-30 19:37:26
,wl-rdm,44,393871,0.0-6.36-0.36,0.0,44.0,,,,,,,[],,,,,,53.2,1.0,i,1.0,True,2155.199999999255,130.0,60.0,40.0,False,,355.88938363564205,[],"[960, 540]",ColorTask,15.0,37.0,,,HRV,HRV_0241,2022-11-30 19:37:26
,wl-rdm,45,397687,0.0-6.37-0.37,0.0,45.0,,,,,,,[],,,,,,50.0,0.0,u,0.0,True,2410.800000000745,145.0,60.0,40.0,False,,333.98675664574176,[],"[960, 540]",ColorTask,16.0,38.0,,,HRV,HRV_0241,2022-11-30 19:37:26
,wl-rdm,46,401469,0.0-6.38-0.38,0.0,46.0,,,,,,,[],,,,,,50.0,0.0,i,1.0,False,2395.099999997765,144.0,60.0,40.0,False,,309.79317485959734,[],"[960, 540]",ColorTask,15.0,39.0,,,HRV,HRV_0241,2022-11-30 19:37:26
,wl-rdm,47,404887,0.0-6.39-0.39,0.0,47.0,,,,,,,[],,,,,,73.6,1.0,i,1.0,True,2087.2999999970198,126.0,60.0,40.0,False,,265.4201095114347,[],"[960, 540]",ColorTask,16.0,40.0,,,HRV,HRV_0241,2022-11-30 19:37:26
,wl-rdm,48,407618,0.0-6.40-0.40,0.0,48.0,,,,,,,[],,,,,,73.6,0.0,u,0.0,True,1258.800000000745,75.0,60.0,40.0,False,,393.5407596652275,[],"[960, 540]",ColorTask,17.0,41.0,,,HRV,HRV_0241,2022-11-30 19:37:26
,wl-rdm,49,411500,0.0-6.41-0.41,0.0,49.0,,,,,,,[],,,,,,56.4,0.0,u,0.0,True,2553.5,154.0,60.0,40.0,False,,262.8134773925212,[],"[960, 540]",ColorTask,18.0,42.0,,,HRV,HRV_0241,2022-11-30 19:37:26
,wl-rdm,50,414533,0.0-6.42-0.42,0.0,50.0,,,,,,,[],,,,,,73.6,0.0,u,0.0,True,1612.4000000022352,96.0,60.0,40.0,False,,364.4376909868387,[],"[960, 540]",ColorTask,19.0,43.0,,,HRV,HRV_0241,2022-11-30 19:37:26
,wl-rdm,51,417564,0.0-6.43-0.43,0.0,51.0,,,,,,,[],,,,,,87.9,0.0,u,0.0,True,1631.6999999955297,98.0,60.0,40.0,False,,318.257641765063,[],"[960, 540]",ColorTask,20.0,44.0,,,HRV,HRV_0241,2022-11-30 19:37:26
,wl-rdm,52,419933,0.0-6.44-0.44,0.0,52.0,,,,,,,[],,,,,,87.9,1.0,i,1.0,True,1074.0999999977648,65.0,60.0,40.0,False,,223.84481305917348,[],"[960, 540]",ColorTask,21.0,45.0,,,HRV,HRV_0241,2022-11-30 19:37:26
,wl-rdm,53,422230,0.0-6.45-0.45,0.0,53.0,,,,,,,[],,,,,,87.9,1.0,i,1.0,True,932.1000000014901,57.0,60.0,40.0,False,,269.39057367940853,[],"[960, 540]",ColorTask,22.0,46.0,,,HRV,HRV_0241,2022-11-30 19:37:26
,wl-rdm,54,424814,0.0-6.46-0.46,0.0,54.0,,,,,,,[],,,,,,62.5,0.0,u,0.0,True,1149.199999999255,69.0,60.0,40.0,False,,370.6766229015748,[],"[960, 540]",ColorTask,23.0,47.0,,,HRV,HRV_0241,2022-11-30 19:37:26
,wl-rdm,55,427180,0.0-6.47-0.47,0.0,55.0,,,,,,,[],,,,,,62.5,0.0,u,0.0,True,980.9999999962747,59.0,60.0,40.0,False,,309.7062907310224,[],"[960, 540]",ColorTask,24.0,48.0,,,HRV,HRV_0241,2022-11-30 19:37:26
,wl-rdm,56,429979,0.0-6.48-0.48,0.0,56.0,,,,,,,[],,,,,,53.2,0.0,u,0.0,True,1438.5,87.0,60.0,40.0,False,,294.4531594366812,[],"[960, 540]",ColorTask,25.0,49.0,,,HRV,HRV_0241,2022-11-30 19:37:26
,wl-rdm,57,432396,0.0-6.49-0.49,0.0,57.0,,,,,,,[],,,,,,73.6,0.0,u,0.0,True,1090.5999999977648,66.0,60.0,40.0,False,,265.7450327242044,[],"[960, 540]",ColorTask,26.0,50.0,,,HRV,HRV_0241,2022-11-30 19:37:26
,wl-rdm,58,434812,0.0-6.50-0.50,0.0,58.0,,,,,,,[],,,,,,56.4,1.0,u,0.0,False,1088.5,66.0,60.0,40.0,False,,264.66942015518595,[],"[960, 540]",ColorTask,25.0,51.0,,,HRV,HRV_0241,2022-11-30 19:37:26
,wl-rdm,59,437244,0.0-6.51-0.51,0.0,59.0,,,,,,,[],,,,,,87.9,1.0,i,1.0,True,1118.0,68.0,60.0,40.0,False,,239.64706719205756,[],"[960, 540]",ColorTask,26.0,52.0,,,HRV,HRV_0241,2022-11-30 19:37:26
,wl-rdm,60,440994,0.0-6.52-0.52,0.0,60.0,,,,,,,[],,,,,,56.4,1.0,i,1.0,True,2291.599999997765,138.0,60.0,40.0,False,,370.12120277629566,[],"[960, 540]",ColorTask,27.0,53.0,,,HRV,HRV_0241,2022-11-30 19:37:26
,wl-rdm,61,443792,0.0-6.53-0.53,0.0,61.0,,,,,,,[],,,,,,50.0,0.0,u,0.0,True,1437.3999999947846,87.0,60.0,40.0,False,,282.9457185013651,[],"[960, 540]",ColorTask,28.0,54.0,,,HRV,HRV_0241,2022-11-30 19:37:26
,wl-rdm,62,447326,0.0-6.54-0.54,0.0,62.0,,,,,,,[],,,,,,50.0,1.0,u,0.0,False,2156.699999999255,130.0,60.0,40.0,False,,288.77998347710616,[],"[960, 540]",ColorTask,27.0,55.0,,,HRV,HRV_0241,2022-11-30 19:37:26
,wl-rdm,63,450341,0.0-6.55-0.55,0.0,63.0,,,,,,,[],,,,,,53.2,0.0,u,0.0,True,1739.7000000029802,105.0,60.0,40.0,False,,209.1676446962369,[],"[960, 540]",ColorTask,28.0,56.0,,,HRV,HRV_0241,2022-11-30 19:37:26
,wl-rdm,64,454690,0.0-6.56-0.56,0.0,63.0,,,,,,,[],,,,,,62.5,0.0,,,,,179.0,60.0,40.0,True,RT_timeout ,252.1089748809744,[],"[960, 540]",ColorTask,27.0,57.0,,,HRV,HRV_0241,2022-11-30 19:37:26
,wl-rdm,65,457040,0.0-6.57-0.57,0.0,64.0,,,,,,,[],,,,,,87.9,0.0,u,0.0,True,1047.0999999977648,63.0,60.0,40.0,False,,224.30238598865986,[],"[960, 540]",ColorTask,28.0,58.0,,,HRV,HRV_0241,2022-11-30 19:37:26
,wl-rdm,66,460039,0.0-6.58-0.58,0.0,65.0,,,,,,,[],,,,,,56.4,0.0,u,0.0,True,1641.1000000014901,99.0,60.0,40.0,False,,273.58596998003173,[],"[960, 540]",ColorTask,29.0,59.0,,,HRV,HRV_0241,2022-11-30 19:37:26
,wl-rdm,67,462756,0.0-6.59-0.59,0.0,66.0,,,,,,,[],,,,,,56.4,1.0,i,1.0,True,1405.8999999985099,85.0,60.0,40.0,False,,222.63649785718857,[],"[960, 540]",ColorTask,30.0,60.0,,,HRV,HRV_0241,2022-11-30 19:37:26
,wl-rdm,68,465505,0.0-6.60-0.60,0.0,67.0,,,,,,,[],,,,,,56.4,0.0,u,0.0,True,1290.0,78.0,60.0,40.0,False,,369.9898347734817,[],"[960, 540]",ColorTask,31.0,61.0,,,HRV,HRV_0241,2022-11-30 19:37:26
,wl-rdm,69,468320,0.0-6.61-0.61,0.0,68.0,,,,,,,[],,,,,,50.0,1.0,u,0.0,False,1457.8999999985099,88.0,60.0,40.0,False,,273.75196900737524,[],"[960, 540]",ColorTask,30.0,62.0,,,HRV,HRV_0241,2022-11-30 19:37:26
,wl-rdm,70,470671,0.0-6.62-0.62,0.0,69.0,,,,,,,[],,,,,,87.9,0.0,u,0.0,True,924.1999999992549,56.0,60.0,40.0,False,,349.4906075961195,[],"[960, 540]",ColorTask,31.0,63.0,,,HRV,HRV_0241,2022-11-30 19:37:26
,wl-rdm,71,472870,0.0-6.63-0.63,0.0,70.0,,,,,,,[],,,,,,73.6,1.0,i,1.0,True,853.0999999977648,52.0,60.0,40.0,False,,269.26128264173326,[],"[960, 540]",ColorTask,32.0,64.0,,,HRV,HRV_0241,2022-11-30 19:37:26
,wl-rdm,72,475669,0.0-6.64-0.64,0.0,71.0,,,,,,,[],,,,,,50.0,1.0,i,1.0,True,1402.800000000745,85.0,60.0,40.0,False,,316.75045062112207,[],"[960, 540]",ColorTask,33.0,65.0,,,HRV,HRV_0241,2022-11-30 19:37:26
,wl-rdm,73,478269,0.0-6.65-0.65,0.0,72.0,,,,,,,[],,,,,,50.0,1.0,u,0.0,False,1132.8999999985099,68.0,60.0,40.0,False,,389.91675695551237,[],"[960, 540]",ColorTask,32.0,66.0,,,HRV,HRV_0241,2022-11-30 19:37:26
,wl-rdm,74,480919,0.0-6.66-0.66,0.0,73.0,,,,,,,[],,,,,,87.9,0.0,u,0.0,True,1298.0,78.0,60.0,40.0,False,,264.9181633728431,[],"[960, 540]",ColorTask,33.0,67.0,,,HRV,HRV_0241,2022-11-30 19:37:26
,wl-rdm,75,484384,0.0-6.67-0.67,0.0,74.0,,,,,,,[],,,,,,53.2,1.0,u,0.0,False,2164.699999999255,130.0,60.0,40.0,False,,201.08698215466808,[],"[960, 540]",ColorTask,32.0,68.0,,,HRV,HRV_0241,2022-11-30 19:37:26
,wl-rdm,76,486852,0.0-6.68-0.68,0.0,75.0,,,,,,,[],,,,,,62.5,0.0,u,0.0,True,1054.9000000022352,64.0,60.0,40.0,False,,343.63510569045286,[],"[960, 540]",ColorTask,33.0,69.0,,,HRV,HRV_0241,2022-11-30 19:37:26
,wl-rdm,77,489067,0.0-6.69-0.69,0.0,76.0,,,,,,,[],,,,,,87.9,1.0,i,1.0,True,821.8999999985099,50.0,60.0,40.0,False,,302.8463843129367,[],"[960, 540]",ColorTask,34.0,70.0,,,HRV,HRV_0241,2022-11-30 19:37:26
,wl-rdm,78,491651,0.0-6.70-0.70,0.0,77.0,,,,,,,[],,,,,,53.2,1.0,i,1.0,True,1260.0,76.0,60.0,40.0,False,,257.5803750824212,[],"[960, 540]",ColorTask,35.0,71.0,,,HRV,HRV_0241,2022-11-30 19:37:26
,wl-rdm,79,494718,0.0-6.71-0.71,0.0,78.0,,,,,,,[],,,,,,53.2,1.0,i,1.0,True,1765.1000000014901,106.0,60.0,40.0,False,,232.09645882462095,[],"[960, 540]",ColorTask,36.0,72.0,,,HRV,HRV_0241,2022-11-30 19:37:26
,wl-rdm,80,497498,0.0-6.72-0.72,0.0,79.0,,,,,,,[],,,,,,50.0,1.0,i,1.0,True,1486.4000000022352,88.0,60.0,40.0,False,,215.2667229945557,[],"[960, 540]",ColorTask,37.0,73.0,,,HRV,HRV_0241,2022-11-30 19:37:26
,wl-rdm,81,500098,0.0-6.73-0.73,0.0,80.0,,,,,,,[],,,,,,73.6,1.0,i,1.0,True,1266.1000000014901,77.0,60.0,40.0,False,,239.9750823028027,[],"[960, 540]",ColorTask,38.0,74.0,,,HRV,HRV_0241,2022-11-30 19:37:26
,wl-rdm,82,502912,0.0-6.74-0.74,0.0,81.0,,,,,,,[],,,,,,62.5,1.0,i,1.0,True,1463.0,88.0,60.0,40.0,False,,274.2501905624007,[],"[960, 540]",ColorTask,39.0,75.0,,,HRV,HRV_0241,2022-11-30 19:37:26
,wl-rdm,83,505595,0.0-6.75-0.75,0.0,82.0,,,,,,,[],,,,,,53.2,0.0,i,1.0,False,1372.199999999255,83.0,60.0,40.0,False,,218.13638700292998,[],"[960, 540]",ColorTask,38.0,76.0,,,HRV,HRV_0241,2022-11-30 19:37:26
,wl-rdm,84,508082,0.0-6.76-0.76,0.0,83.0,,,,,,,[],,,,,,87.9,1.0,i,1.0,True,1197.699999999255,72.0,60.0,40.0,False,,218.46562078120954,[],"[960, 540]",ColorTask,39.0,77.0,,,HRV,HRV_0241,2022-11-30 19:37:26
,wl-rdm,85,510544,0.0-6.77-0.77,0.0,84.0,,,,,,,[],,,,,,62.5,1.0,i,1.0,True,1020.3999999985099,62.0,60.0,40.0,False,,353.5920678323509,[],"[960, 540]",ColorTask,40.0,78.0,,,HRV,HRV_0241,2022-11-30 19:37:26
,wl-rdm,86,513378,0.0-6.78-0.78,0.0,85.0,,,,,,,[],,,,,,53.2,0.0,i,1.0,False,1516.0,91.0,60.0,40.0,False,,261.9568194069785,[],"[960, 540]",ColorTask,39.0,79.0,,,HRV,HRV_0241,2022-11-30 19:37:26
,wl-rdm,87,515610,0.0-6.79-0.79,0.0,86.0,,,,,,,[],,,,,,62.5,0.0,u,0.0,True,907.0000000037253,55.0,60.0,40.0,False,,238.49128857681268,[],"[960, 540]",ColorTask,40.0,80.0,,,HRV,HRV_0241,2022-11-30 19:37:26
,wl-rdm,88,517659,0.0-6.80-0.80,0.0,87.0,,,,,,,[],,,,,,73.6,0.0,u,0.0,True,737.8000000007451,45.0,60.0,40.0,False,,219.4780848617574,[],"[960, 540]",ColorTask,41.0,81.0,,,HRV,HRV_0241,2022-11-30 19:37:26
,wl-rdm,89,519926,0.0-6.81-0.81,0.0,88.0,,,,,,,[],,,,,,73.6,0.0,u,0.0,True,834.5999999977648,50.0,60.0,40.0,False,,351.6583748217905,[],"[960, 540]",ColorTask,42.0,82.0,,,HRV,HRV_0241,2022-11-30 19:37:26
,wl-rdm,90,522476,0.0-6.82-0.82,0.0,89.0,,,,,,,[],,,,,,73.6,1.0,i,1.0,True,1254.0,76.0,60.0,40.0,False,,229.24174418898352,[],"[960, 540]",ColorTask,43.0,83.0,,,HRV,HRV_0241,2022-11-30 19:37:26
,wl-rdm,91,524741,0.0-6.83-0.83,0.0,90.0,,,,,,,[],,,,,,62.5,0.0,i,1.0,False,905.5,55.0,60.0,40.0,False,,290.0377453757438,[],"[960, 540]",ColorTask,42.0,84.0,,,HRV,HRV_0241,2022-11-30 19:37:26
,wl-rdm,92,527992,0.0-6.84-0.84,0.0,91.0,,,,,,,[],,,,,,53.2,1.0,u,0.0,False,1881.1000000052154,113.0,60.0,40.0,False,,270.5039057105147,[],"[960, 540]",ColorTask,41.0,85.0,,,HRV,HRV_0241,2022-11-30 19:37:26
,wl-rdm,93,530408,0.0-6.85-0.85,0.0,92.0,,,,,,,[],,,,,,62.5,1.0,i,1.0,True,1126.0,68.0,60.0,40.0,False,,206.81509262305872,[],"[960, 540]",ColorTask,42.0,86.0,,,HRV,HRV_0241,2022-11-30 19:37:26
,wl-rdm,94,532768,0.0-6.86-0.86,0.0,93.0,,,,,,,[],,,,,,73.6,0.0,u,0.0,True,1022.3999999985099,62.0,60.0,40.0,False,,256.17644467380813,[],"[960, 540]",ColorTask,43.0,87.0,,,HRV,HRV_0241,2022-11-30 19:37:26
,wl-rdm,95,535040,0.0-6.87-0.87,0.0,94.0,,,,,,,[],,,,,,53.2,0.0,u,0.0,True,797.9000000022352,48.0,60.0,40.0,False,,381.01851997297865,[],"[960, 540]",ColorTask,44.0,88.0,,,HRV,HRV_0241,2022-11-30 19:37:26
,wl-rdm,96,537805,0.0-6.88-0.88,0.0,95.0,,,,,,,[],,,,,,56.4,0.0,i,1.0,False,1399.8999999985099,84.0,60.0,40.0,False,,284.2733270336569,[],"[960, 540]",ColorTask,43.0,89.0,,,HRV,HRV_0241,2022-11-30 19:37:26
,wl-rdm,97,540172,0.0-6.89-0.89,0.0,96.0,,,,,,,[],,,,,,62.5,1.0,i,1.0,True,899.2000000029802,54.0,60.0,40.0,False,,389.7925384031791,[],"[960, 540]",ColorTask,44.0,90.0,,,HRV,HRV_0241,2022-11-30 19:37:26
,wl-rdm,98,543288,0.0-6.90-0.90,0.0,97.0,,,,,,,[],,,,,,56.4,1.0,i,1.0,True,1712.0999999977648,102.0,60.0,40.0,False,,314.0036804288833,[],"[960, 540]",ColorTask,45.0,91.0,,,HRV,HRV_0241,2022-11-30 19:37:26
,wl-rdm,99,545687,0.0-6.91-0.91,0.0,98.0,,,,,,,[],,,,,,53.2,1.0,u,0.0,False,1022.6000000014901,62.0,60.0,40.0,False,,284.511236284721,[],"[960, 540]",ColorTask,44.0,92.0,,,HRV,HRV_0241,2022-11-30 19:37:26
,wl-rdm,100,548037,0.0-6.92-0.92,0.0,99.0,,,,,,,[],,,,,,73.6,1.0,i,1.0,True,1057.199999999255,64.0,60.0,40.0,False,,207.29912478102946,[],"[960, 540]",ColorTask,45.0,93.0,,,HRV,HRV_0241,2022-11-30 19:37:26
,wl-rdm,101,550385,0.0-6.93-0.93,0.0,100.0,,,,,,,[],,,,,,87.9,1.0,i,1.0,True,970.7000000029802,59.0,60.0,40.0,False,,297.8636205932896,[],"[960, 540]",ColorTask,46.0,94.0,,,HRV,HRV_0241,2022-11-30 19:37:26
,wl-rdm,102,552536,0.0-6.94-0.94,0.0,101.0,,,,,,,[],,,,,,73.6,1.0,i,1.0,True,688.4000000022352,41.0,60.0,40.0,False,,377.48809610252175,[],"[960, 540]",ColorTask,47.0,95.0,,,HRV,HRV_0241,2022-11-30 19:37:26
,wl-rdm,103,555202,0.0-6.95-0.95,0.0,102.0,,,,,,,[],,,,,,53.2,0.0,i,1.0,False,1207.800000000745,73.0,60.0,40.0,False,,369.8802824249821,[],"[960, 540]",ColorTask,46.0,96.0,,,HRV,HRV_0241,2022-11-30 19:37:26
,wl-rdm,104,558218,0.0-6.96-0.96,0.0,103.0,,,,,,,[],,,,,,62.5,1.0,i,1.0,True,1597.699999999255,96.0,60.0,40.0,False,,346.3055013121717,[],"[960, 540]",ColorTask,47.0,97.0,,,HRV,HRV_0241,2022-11-30 19:37:26
,wl-rdm,105,560401,0.0-6.97-0.97,0.0,104.0,,,,,,,[],,,,,,50.0,1.0,u,0.0,False,831.6000000014901,50.0,60.0,40.0,False,,269.62283966649716,[],"[960, 540]",ColorTask,46.0,98.0,,,HRV,HRV_0241,2022-11-30 19:37:26
,wl-rdm,106,563116,0.0-6.98-0.98,0.0,105.0,,,,,,,[],,,,,,62.5,1.0,i,1.0,True,1249.4000000022352,75.0,60.0,40.0,False,,393.5660465476035,[],"[960, 540]",ColorTask,47.0,99.0,,,HRV,HRV_0241,2022-11-30 19:37:26
,wl-rdm,107,565183,0.0-6.99-0.99,0.0,106.0,,,,,,,[],,,,,,62.5,1.0,i,1.0,True,709.5999999977648,43.0,60.0,40.0,False,,295.2298301804391,[],"[960, 540]",ColorTask,48.0,100.0,,,HRV,HRV_0241,2022-11-30 19:37:26
,wl-rdm,108,567700,0.0-6.100-0.100,0.0,107.0,,,,,,,[],,,,,,50.0,1.0,i,1.0,True,1148.3000000044703,68.0,60.0,40.0,False,,309.9503625030295,[],"[960, 540]",ColorTask,49.0,101.0,,,HRV,HRV_0241,2022-11-30 19:37:26
,wl-rdm,109,569764,0.0-6.101-0.101,0.0,108.0,,,,,,,[],,,,,,73.6,0.0,u,0.0,True,670.5,41.0,60.0,40.0,False,,303.22796314537777,[],"[960, 540]",ColorTask,50.0,102.0,,,HRV,HRV_0241,2022-11-30 19:37:26
,wl-rdm,110,571865,0.0-6.102-0.102,0.0,109.0,,,,,,,[],,,,,,73.6,0.0,u,0.0,True,785.3000000007451,46.0,60.0,40.0,False,,243.15641131113875,[],"[960, 540]",ColorTask,51.0,103.0,,,HRV,HRV_0241,2022-11-30 19:37:26
,wl-rdm,111,573947,0.0-6.103-0.103,0.0,110.0,,,,,,,[],,,,,,50.0,0.0,u,0.0,True,692.3000000007451,42.0,60.0,40.0,False,,311.9447701198963,[],"[960, 540]",ColorTask,52.0,104.0,,,HRV,HRV_0241,2022-11-30 19:37:26
,wl-rdm,112,576497,0.0-6.104-0.104,0.0,111.0,,,,,,,[],,,,,,62.5,1.0,i,1.0,True,1061.4999999962747,64.0,60.0,40.0,False,,396.1764569747476,[],"[960, 540]",ColorTask,53.0,105.0,,,HRV,HRV_0241,2022-11-30 19:37:26
,wl-rdm,113,578979,0.0-6.105-0.105,0.0,112.0,,,,,,,[],,,,,,50.0,1.0,i,1.0,True,1073.3999999985099,65.0,60.0,40.0,False,,322.3595439462532,[],"[960, 540]",ColorTask,54.0,106.0,,,HRV,HRV_0241,2022-11-30 19:37:26
,wl-rdm,114,581930,0.0-6.106-0.106,0.0,113.0,,,,,,,[],,,,,,62.5,0.0,u,0.0,True,1489.199999999255,90.0,60.0,40.0,False,,392.7344641393992,[],"[960, 540]",ColorTask,55.0,107.0,,,HRV,HRV_0241,2022-11-30 19:37:26
,wl-rdm,115,584162,0.0-6.107-0.107,0.0,114.0,,,,,,,[],,,,,,87.9,1.0,i,1.0,True,773.6999999992549,47.0,60.0,40.0,False,,380.5828418676086,[],"[960, 540]",ColorTask,56.0,108.0,,,HRV,HRV_0241,2022-11-30 19:37:26
,wl-rdm,116,586344,0.0-6.108-0.108,0.0,115.0,,,,,,,[],,,,,,87.9,0.0,u,0.0,True,710.5999999977648,43.0,60.0,40.0,False,,374.92957297237217,[],"[960, 540]",ColorTask,57.0,109.0,,,HRV,HRV_0241,2022-11-30 19:37:26
,wl-rdm,117,588911,0.0-6.109-0.109,0.0,116.0,,,,,,,[],,,,,,56.4,1.0,u,0.0,False,1149.300000000745,69.0,60.0,40.0,False,,337.97842042300294,[],"[960, 540]",ColorTask,56.0,110.0,,,HRV,HRV_0241,2022-11-30 19:37:26
,wl-html-keyboard-response,118,601298,0.0-7.0-0.0,1.0,117.0,,,,,,,,10374.400000002235,1.0,0,,,,,,,,,,,,,,,,,,,,,,HRV,HRV_0241,2022-11-30 19:37:26
,wl-rdm,119,603458,0.0-8.0-0.0,1.0,118.0,,,,,,,[],,,,,,56.4,1.0,i,1.0,True,856.8999999985099,52.0,60.0,40.0,False,,230.18807065343887,[],"[960, 540]",ColorTask,57.0,1.0,,,HRV,HRV_0241,2022-11-30 19:37:26
,wl-rdm,120,606074,0.0-8.1-0.1,1.0,119.0,,,,,,,[],,,,,,50.0,0.0,u,0.0,True,1299.800000000745,78.0,60.0,40.0,False,,236.33060473365705,[],"[960, 540]",ColorTask,58.0,2.0,,,HRV,HRV_0241,2022-11-30 19:37:26
,wl-rdm,121,608974,0.0-8.2-0.2,1.0,120.0,,,,,,,[],,,,,,56.4,1.0,i,1.0,True,1530.9000000022352,92.0,60.0,40.0,False,,293.532211005461,[],"[960, 540]",ColorTask,59.0,3.0,,,HRV,HRV_0241,2022-11-30 19:37:26
,wl-rdm,122,611123,0.0-8.3-0.3,1.0,121.0,,,,,,,[],,,,,,87.9,1.0,i,1.0,True,711.5,43.0,60.0,40.0,False,,373.8416274561571,[],"[960, 540]",ColorTask,60.0,4.0,,,HRV,HRV_0241,2022-11-30 19:37:26
,wl-rdm,123,613239,0.0-8.4-0.4,1.0,122.0,,,,,,,[],,,,,,73.6,0.0,u,0.0,True,681.5999999977648,41.0,60.0,40.0,False,,358.6900897832153,[],"[960, 540]",ColorTask,61.0,5.0,,,HRV,HRV_0241,2022-11-30 19:37:26
,wl-rdm,124,615372,0.0-8.5-0.5,1.0,123.0,,,,,,,[],,,,,,50.0,0.0,i,1.0,False,807.3000000007451,49.0,60.0,40.0,False,,255.23126048629945,[],"[960, 540]",ColorTask,60.0,6.0,,,HRV,HRV_0241,2022-11-30 19:37:26
,wl-rdm,125,617971,0.0-8.6-0.6,1.0,124.0,,,,,,,[],,,,,,53.2,1.0,u,0.0,False,1316.3999999985099,79.0,60.0,40.0,False,,206.80330785419386,[],"[960, 540]",ColorTask,59.0,7.0,,,HRV,HRV_0241,2022-11-30 19:37:26
,wl-rdm,126,620037,0.0-8.7-0.7,1.0,125.0,,,,,,,[],,,,,,87.9,1.0,i,1.0,True,705.1999999992549,43.0,60.0,40.0,False,,266.5793520715122,[],"[960, 540]",ColorTask,60.0,8.0,,,HRV,HRV_0241,2022-11-30 19:37:26
,wl-rdm,127,622138,0.0-8.8-0.8,1.0,126.0,,,,,,,[],,,,,,87.9,1.0,i,1.0,True,641.9999999962747,39.0,60.0,40.0,False,,375.2565442470992,[],"[960, 540]",ColorTask,61.0,9.0,,,HRV,HRV_0241,2022-11-30 19:37:26
,wl-rdm,128,624187,0.0-8.9-0.9,1.0,127.0,,,,,,,[],,,,,,87.9,0.0,u,0.0,True,761.2999999970198,46.0,60.0,40.0,False,,214.25282862618891,[],"[960, 540]",ColorTask,62.0,10.0,,,HRV,HRV_0241,2022-11-30 19:37:26
,wl-rdm,129,626752,0.0-8.10-0.10,1.0,128.0,,,,,,,[],,,,,,62.5,1.0,i,1.0,True,1121.4000000022352,68.0,60.0,40.0,False,,350.7035063700377,[],"[960, 540]",ColorTask,63.0,11.0,,,HRV,HRV_0241,2022-11-30 19:37:26
,wl-rdm,130,629019,0.0-8.11-0.11,1.0,129.0,,,,,,,[],,,,,,62.5,0.0,u,0.0,True,958.4000000059605,58.0,60.0,40.0,False,,223.72535294965098,[],"[960, 540]",ColorTask,64.0,12.0,,,HRV,HRV_0241,2022-11-30 19:37:26
,wl-rdm,131,631785,0.0-8.12-0.12,1.0,130.0,,,,,,,[],,,,,,56.4,1.0,i,1.0,True,1324.699999999255,79.0,60.0,40.0,False,,368.0406839406837,[],"[960, 540]",ColorTask,65.0,13.0,,,HRV,HRV_0241,2022-11-30 19:37:26
,wl-rdm,132,634452,0.0-8.13-0.13,1.0,131.0,,,,,,,[],,,,,,73.6,0.0,u,0.0,True,1349.199999999255,81.0,60.0,40.0,False,,244.1153248989242,[],"[960, 540]",ColorTask,66.0,14.0,,,HRV,HRV_0241,2022-11-30 19:37:26
,wl-rdm,133,636617,0.0-8.14-0.14,1.0,132.0,,,,,,,[],,,,,,73.6,0.0,u,0.0,True,753.9000000022352,46.0,60.0,40.0,False,,314.0544039641324,[],"[960, 540]",ColorTask,67.0,15.0,,,HRV,HRV_0241,2022-11-30 19:37:26
,wl-rdm,134,639251,0.0-8.15-0.15,1.0,133.0,,,,,,,[],,,,,,50.0,0.0,i,1.0,False,1232.4000000022352,74.0,60.0,40.0,False,,319.9493779669955,[],"[960, 540]",ColorTask,66.0,16.0,,,HRV,HRV_0241,2022-11-30 19:37:26
,wl-rdm,135,641733,0.0-8.16-0.16,1.0,134.0,,,,,,,[],,,,,,56.4,0.0,u,0.0,True,1127.199999999255,68.0,60.0,40.0,False,,293.29187993607377,[],"[960, 540]",ColorTask,67.0,17.0,,,HRV,HRV_0241,2022-11-30 19:37:26
,wl-rdm,136,643916,0.0-8.17-0.17,1.0,135.0,,,,,,,[],,,,,,73.6,1.0,u,0.0,False,722.3000000007451,44.0,60.0,40.0,False,,378.95561062197794,[],"[960, 540]",ColorTask,66.0,18.0,,,HRV,HRV_0241,2022-11-30 19:37:26
,wl-rdm,137,646099,0.0-8.18-0.18,1.0,136.0,,,,,,,[],,,,,,87.9,0.0,u,0.0,True,773.2000000029802,47.0,60.0,40.0,False,,316.250818838354,[],"[960, 540]",ColorTask,67.0,19.0,,,HRV,HRV_0241,2022-11-30 19:37:26
,wl-rdm,138,648181,0.0-8.19-0.19,1.0,137.0,,,,,,,[],,,,,,87.9,1.0,i,1.0,True,742.1999999992549,45.0,60.0,40.0,False,,263.8873678019944,[],"[960, 540]",ColorTask,68.0,20.0,,,HRV,HRV_0241,2022-11-30 19:37:26
,wl-rdm,139,650347,0.0-8.20-0.20,1.0,138.0,,,,,,,[],,,,,,62.5,1.0,i,1.0,True,781.9000000022352,47.0,60.0,40.0,False,,277.5426808759064,[],"[960, 540]",ColorTask,69.0,21.0,,,HRV,HRV_0241,2022-11-30 19:37:26
,wl-rdm,140,652581,0.0-8.21-0.21,1.0,139.0,,,,,,,[],,,,,,56.4,0.0,u,0.0,True,939.3000000007451,57.0,60.0,40.0,False,,209.40674632403596,[],"[960, 540]",ColorTask,70.0,22.0,,,HRV,HRV_0241,2022-11-30 19:37:26
,wl-rdm,141,655114,0.0-8.22-0.22,1.0,140.0,,,,,,,[],,,,,,53.2,1.0,i,1.0,True,1213.1999999955297,73.0,60.0,40.0,False,,260.85844388056285,[],"[960, 540]",ColorTask,71.0,23.0,,,HRV,HRV_0241,2022-11-30 19:37:26
,wl-rdm,142,657112,0.0-8.23-0.23,1.0,141.0,,,,,,,[],,,,,,50.0,1.0,i,1.0,True,613.0,37.0,60.0,40.0,False,,300.16556969013243,[],"[960, 540]",ColorTask,72.0,24.0,,,HRV,HRV_0241,2022-11-30 19:37:26
,wl-rdm,143,660047,0.0-8.24-0.24,1.0,142.0,,,,,,,[],,,,,,50.0,1.0,i,1.0,True,1472.300000000745,89.0,60.0,40.0,False,,383.7536853860391,[],"[960, 540]",ColorTask,73.0,25.0,,,HRV,HRV_0241,2022-11-30 19:37:26
,wl-rdm,144,662162,0.0-8.25-0.25,1.0,143.0,,,,,,,[],,,,,,73.6,1.0,i,1.0,True,819.0,49.0,60.0,40.0,False,,223.31132349133924,[],"[960, 540]",ColorTask,74.0,26.0,,,HRV,HRV_0241,2022-11-30 19:37:26
,wl-rdm,145,664611,0.0-8.26-0.26,1.0,144.0,,,,,,,[],,,,,,56.4,1.0,i,1.0,True,967.5999999977648,59.0,60.0,40.0,False,,384.7804003028235,[],"[960, 540]",ColorTask,75.0,27.0,,,HRV,HRV_0241,2022-11-30 19:37:26
,wl-rdm,146,667294,0.0-8.27-0.27,1.0,145.0,,,,,,,[],,,,,,53.2,0.0,i,1.0,False,1369.300000000745,83.0,60.0,40.0,False,,229.90122997674573,[],"[960, 540]",ColorTask,74.0,28.0,,,HRV,HRV_0241,2022-11-30 19:37:26
,wl-rdm,147,669893,0.0-8.28-0.28,1.0,146.0,,,,,,,[],,,,,,56.4,0.0,u,0.0,True,1291.7000000029802,78.0,60.0,40.0,False,,231.88280326680172,[],"[960, 540]",ColorTask,75.0,29.0,,,HRV,HRV_0241,2022-11-30 19:37:26
,wl-rdm,148,672793,0.0-8.29-0.29,1.0,147.0,,,,,,,[],,,,,,50.0,1.0,u,0.0,False,1490.2999999970198,90.0,60.0,40.0,False,,321.8160657522729,[],"[960, 540]",ColorTask,74.0,30.0,,,HRV,HRV_0241,2022-11-30 19:37:26
,wl-rdm,149,675761,0.0-8.30-0.30,1.0,148.0,,,,,,,[],,,,,,50.0,0.0,u,0.0,True,1515.7000000029802,91.0,60.0,40.0,False,,389.474499367538,[],"[960, 540]",ColorTask,75.0,31.0,,,HRV,HRV_0241,2022-11-30 19:37:26
,wl-rdm,150,678475,0.0-8.31-0.31,1.0,149.0,,,,,,,[],,,,,,50.0,0.0,i,1.0,False,1315.300000000745,79.0,60.0,40.0,False,,319.89523627714004,[],"[960, 540]",ColorTask,74.0,32.0,,,HRV,HRV_0241,2022-11-30 19:37:26
,wl-rdm,151,681590,0.0-8.32-0.32,1.0,150.0,,,,,,,[],,,,,,50.0,1.0,i,1.0,True,1680.4999999962747,101.0,60.0,40.0,False,,361.5032091936947,[],"[960, 540]",ColorTask,75.0,33.0,,,HRV,HRV_0241,2022-11-30 19:37:26
,wl-rdm,152,684457,0.0-8.33-0.33,1.0,151.0,,,,,,,[],,,,,,53.2,0.0,u,0.0,True,1562.0,94.0,60.0,40.0,False,,230.20311946248881,[],"[960, 540]",ColorTask,76.0,34.0,,,HRV,HRV_0241,2022-11-30 19:37:26
,wl-rdm,153,687155,0.0-8.34-0.34,1.0,152.0,,,,,,,[],,,,,,73.6,0.0,u,0.0,True,1306.699999999255,79.0,60.0,40.0,False,,324.14244152622973,[],"[960, 540]",ColorTask,77.0,35.0,,,HRV,HRV_0241,2022-11-30 19:37:26
,wl-rdm,154,689382,0.0-8.35-0.35,1.0,153.0,,,,,,,[],,,,,,62.5,0.0,u,0.0,True,859.6999999992549,52.0,60.0,40.0,False,,254.1833071311126,[],"[960, 540]",ColorTask,78.0,36.0,,,HRV,HRV_0241,2022-11-30 19:37:26
,wl-rdm,155,692055,0.0-8.36-0.36,1.0,154.0,,,,,,,[],,,,,,50.0,1.0,i,1.0,True,1221.5,74.0,60.0,40.0,False,,379.11319042927903,[],"[960, 540]",ColorTask,79.0,37.0,,,HRV,HRV_0241,2022-11-30 19:37:26
,wl-rdm,156,695406,0.0-8.37-0.37,1.0,155.0,,,,,,,[],,,,,,56.4,0.0,i,1.0,False,2045.4000000022352,123.0,60.0,40.0,False,,221.46669318761155,[],"[960, 540]",ColorTask,78.0,38.0,,,HRV,HRV_0241,2022-11-30 19:37:26
,wl-rdm,157,697520,0.0-8.38-0.38,1.0,156.0,,,,,,,[],,,,,,87.9,1.0,i,1.0,True,755.5,46.0,60.0,40.0,False,,271.34461288573067,[],"[960, 540]",ColorTask,79.0,39.0,,,HRV,HRV_0241,2022-11-30 19:37:26
,wl-rdm,158,700852,0.0-8.39-0.39,1.0,157.0,,,,,,,[],,,,,,50.0,1.0,u,0.0,False,1945.199999999255,117.0,60.0,40.0,False,,320.4650201946033,[],"[960, 540]",ColorTask,78.0,40.0,,,HRV,HRV_0241,2022-11-30 19:37:26
,wl-rdm,159,703186,0.0-8.40-0.40,1.0,158.0,,,,,,,[],,,,,,87.9,0.0,u,0.0,True,867.5999999977648,52.0,60.0,40.0,False,,387.69479137974275,[],"[960, 540]",ColorTask,79.0,41.0,,,HRV,HRV_0241,2022-11-30 19:37:26
,wl-rdm,160,705619,0.0-8.41-0.41,1.0,159.0,,,,,,,[],,,,,,62.5,1.0,i,1.0,True,1148.300000000745,69.0,60.0,40.0,False,,211.13917036990821,[],"[960, 540]",ColorTask,80.0,42.0,,,HRV,HRV_0241,2022-11-30 19:37:26
,wl-rdm,161,708652,0.0-8.42-0.42,1.0,160.0,,,,,,,[],,,,,,53.2,0.0,u,0.0,True,1727.5,103.0,60.0,40.0,False,,227.39775475376186,[],"[960, 540]",ColorTask,81.0,43.0,,,HRV,HRV_0241,2022-11-30 19:37:26
,wl-rdm,162,710884,0.0-8.43-0.43,1.0,161.0,,,,,,,[],,,,,,62.5,0.0,u,0.0,True,903.6999999992549,55.0,60.0,40.0,False,,247.3214020805254,[],"[960, 540]",ColorTask,82.0,44.0,,,HRV,HRV_0241,2022-11-30 19:37:26
,wl-rdm,163,713066,0.0-8.44-0.44,1.0,162.0,,,,,,,[],,,,,,73.6,0.0,u,0.0,True,840.7000000029802,51.0,60.0,40.0,False,,259.78138211691015,[],"[960, 540]",ColorTask,83.0,45.0,,,HRV,HRV_0241,2022-11-30 19:37:26
,wl-rdm,164,715484,0.0-8.45-0.45,1.0,163.0,,,,,,,[],,,,,,56.4,1.0,i,1.0,True,1057.800000000745,64.0,60.0,40.0,False,,288.59115732928683,[],"[960, 540]",ColorTask,84.0,46.0,,,HRV,HRV_0241,2022-11-30 19:37:26
,wl-rdm,165,717616,0.0-8.46-0.46,1.0,164.0,,,,,,,[],,,,,,73.6,1.0,i,1.0,True,700.1999999992549,41.0,60.0,40.0,False,,336.2207137334958,[],"[960, 540]",ColorTask,85.0,47.0,,,HRV,HRV_0241,2022-11-30 19:37:26
,wl-rdm,166,719932,0.0-8.47-0.47,1.0,165.0,,,,,,,[],,,,,,50.0,0.0,u,0.0,True,980.6999999992549,59.0,60.0,40.0,False,,276.02123200090557,[],"[960, 540]",ColorTask,86.0,48.0,,,HRV,HRV_0241,2022-11-30 19:37:26
,wl-rdm,167,722199,0.0-8.48-0.48,1.0,166.0,,,,,,,[],,,,,,56.4,1.0,u,0.0,False,848.9999999962747,51.0,60.0,40.0,False,,337.725613563229,[],"[960, 540]",ColorTask,85.0,49.0,,,HRV,HRV_0241,2022-11-30 19:37:26
,wl-rdm,168,724597,0.0-8.49-0.49,1.0,167.0,,,,,,,[],,,,,,87.9,0.0,u,0.0,True,1076.800000000745,65.0,60.0,40.0,False,,245.55650306051058,[],"[960, 540]",ColorTask,86.0,50.0,,,HRV,HRV_0241,2022-11-30 19:37:26
,wl-rdm,169,726730,0.0-8.50-0.50,1.0,168.0,,,,,,,[],,,,,,87.9,0.0,u,0.0,True,674.3000000007451,41.0,60.0,40.0,False,,388.18650314080014,[],"[960, 540]",ColorTask,87.0,51.0,,,HRV,HRV_0241,2022-11-30 19:37:26
,wl-rdm,170,729531,0.0-8.51-0.51,1.0,169.0,,,,,,,[],,,,,,62.5,1.0,u,0.0,False,1394.2000000029802,84.0,60.0,40.0,False,,324.19086659030944,[],"[960, 540]",ColorTask,86.0,52.0,,,HRV,HRV_0241,2022-11-30 19:37:26
,wl-rdm,171,731646,0.0-8.52-0.52,1.0,170.0,,,,,,,[],,,,,,53.2,0.0,u,0.0,True,838.9000000022352,51.0,60.0,40.0,False,,216.07769050094714,[],"[960, 540]",ColorTask,87.0,53.0,,,HRV,HRV_0241,2022-11-30 19:37:26
,wl-rdm,172,734579,0.0-8.53-0.53,1.0,171.0,,,,,,,[],,,,,,56.4,1.0,i,1.0,True,1456.7000000029802,88.0,60.0,40.0,False,,360.64275882457946,[],"[960, 540]",ColorTask,88.0,54.0,,,HRV,HRV_0241,2022-11-30 19:37:26
,wl-rdm,173,737212,0.0-8.54-0.54,1.0,172.0,,,,,,,[],,,,,,50.0,1.0,u,0.0,False,1273.6000000014901,77.0,60.0,40.0,False,,282.84030806300825,[],"[960, 540]",ColorTask,87.0,55.0,,,HRV,HRV_0241,2022-11-30 19:37:26
,wl-rdm,174,739461,0.0-8.55-0.55,1.0,173.0,,,,,,,[],,,,,,87.9,0.0,u,0.0,True,938.1999999992549,57.0,60.0,40.0,False,,244.48698918334878,[],"[960, 540]",ColorTask,88.0,56.0,,,HRV,HRV_0241,2022-11-30 19:37:26
,wl-rdm,175,742494,0.0-8.56-0.56,1.0,174.0,,,,,,,[],,,,,,50.0,0.0,i,1.0,False,1658.0999999977648,100.0,60.0,40.0,False,,308.33807438945706,[],"[960, 540]",ColorTask,87.0,57.0,,,HRV,HRV_0241,2022-11-30 19:37:26
,wl-rdm,176,745244,0.0-8.57-0.57,1.0,175.0,,,,,,,[],,,,,,73.6,0.0,u,0.0,True,1304.6000000014901,79.0,60.0,40.0,False,,356.42798326664814,[],"[960, 540]",ColorTask,88.0,58.0,,,HRV,HRV_0241,2022-11-30 19:37:26
,wl-rdm,177,747342,0.0-8.58-0.58,1.0,176.0,,,,,,,[],,,,,,73.6,0.0,u,0.0,True,781.9000000022352,47.0,60.0,40.0,False,,233.9108475076013,[],"[960, 540]",ColorTask,89.0,59.0,,,HRV,HRV_0241,2022-11-30 19:37:26
,wl-rdm,178,749843,0.0-8.59-0.59,1.0,177.0,,,,,,,[],,,,,,50.0,0.0,u,0.0,True,1108.0,66.0,60.0,40.0,False,,332.58532310569,[],"[960, 540]",ColorTask,90.0,60.0,,,HRV,HRV_0241,2022-11-30 19:37:26
,wl-rdm,179,751943,0.0-8.60-0.60,1.0,178.0,,,,,,,[],,,,,,53.2,0.0,i,1.0,False,709.8000000007451,43.0,60.0,40.0,False,,317.18097891606226,[],"[960, 540]",ColorTask,89.0,61.0,,,HRV,HRV_0241,2022-11-30 19:37:26
,wl-rdm,180,754842,0.0-8.61-0.61,1.0,179.0,,,,,,,[],,,,,,62.5,1.0,u,0.0,False,1544.2000000029802,92.0,60.0,40.0,False,,298.57434494934296,[],"[960, 540]",ColorTask,88.0,62.0,,,HRV,HRV_0241,2022-11-30 19:37:26
,wl-rdm,181,757491,0.0-8.62-0.62,1.0,180.0,,,,,,,[],,,,,,53.2,0.0,u,0.0,True,1188.4000000022352,72.0,60.0,40.0,False,,368.0387607529486,[],"[960, 540]",ColorTask,89.0,63.0,,,HRV,HRV_0241,2022-11-30 19:37:26
,wl-rdm,182,760108,0.0-8.63-0.63,1.0,181.0,,,,,,,[],,,,,,73.6,1.0,i,1.0,True,1254.1000000014901,76.0,60.0,40.0,False,,291.23646820943935,[],"[960, 540]",ColorTask,90.0,64.0,,,HRV,HRV_0241,2022-11-30 19:37:26
,wl-rdm,183,763224,0.0-8.64-0.64,1.0,182.0,,,,,,,[],,,,,,53.2,1.0,i,1.0,True,1711.4000000022352,103.0,60.0,40.0,False,,328.1911170157239,[],"[960, 540]",ColorTask,91.0,65.0,,,HRV,HRV_0241,2022-11-30 19:37:26
,wl-rdm,184,766223,0.0-8.65-0.65,1.0,183.0,,,,,,,[],,,,,,56.4,0.0,i,1.0,False,1619.5,98.0,60.0,40.0,False,,287.7489354826513,[],"[960, 540]",ColorTask,90.0,66.0,,,HRV,HRV_0241,2022-11-30 19:37:26
,wl-rdm,185,769473,0.0-8.66-0.66,1.0,184.0,,,,,,,[],,,,,,53.2,1.0,i,1.0,True,1864.300000000745,112.0,60.0,40.0,False,,296.2627029961809,[],"[960, 540]",ColorTask,91.0,67.0,,,HRV,HRV_0241,2022-11-30 19:37:26
,wl-rdm,186,772054,0.0-8.67-0.67,1.0,185.0,,,,,,,[],,,,,,53.2,1.0,i,1.0,True,1319.5,79.0,60.0,40.0,False,,200.6587696254762,[],"[960, 540]",ColorTask,92.0,68.0,,,HRV,HRV_0241,2022-11-30 19:37:26
,wl-rdm,187,775021,0.0-8.68-0.68,1.0,186.0,,,,,,,[],,,,,,53.2,0.0,i,1.0,False,1507.800000000745,91.0,60.0,40.0,False,,379.43796216500164,[],"[960, 540]",ColorTask,91.0,69.0,,,HRV,HRV_0241,2022-11-30 19:37:26
,wl-rdm,188,777636,0.0-8.69-0.69,1.0,187.0,,,,,,,[],,,,,,73.6,1.0,i,1.0,True,1142.1000000014901,69.0,60.0,40.0,False,,385.59959105632686,[],"[960, 540]",ColorTask,92.0,70.0,,,HRV,HRV_0241,2022-11-30 19:37:26
,wl-rdm,189,780002,0.0-8.70-0.70,1.0,188.0,,,,,,,[],,,,,,62.5,1.0,i,1.0,True,974.8999999947846,59.0,60.0,40.0,False,,299.7431676250135,[],"[960, 540]",ColorTask,93.0,71.0,,,HRV,HRV_0241,2022-11-30 19:37:26
,wl-rdm,190,782570,0.0-8.71-0.71,1.0,189.0,,,,,,,[],,,,,,62.5,0.0,i,1.0,False,1190.699999999255,72.0,60.0,40.0,False,,313.08545273255055,[],"[960, 540]",ColorTask,92.0,72.0,,,HRV,HRV_0241,2022-11-30 19:37:26
,wl-rdm,191,785418,0.0-8.72-0.72,1.0,190.0,,,,,,,[],,,,,,56.4,1.0,i,1.0,True,1523.3000000044703,92.0,60.0,40.0,False,,255.1061908741154,[],"[960, 540]",ColorTask,93.0,73.0,,,HRV,HRV_0241,2022-11-30 19:37:26
,wl-rdm,192,787501,0.0-8.73-0.73,1.0,191.0,,,,,,,[],,,,,,87.9,0.0,u,0.0,True,789.3000000007451,48.0,60.0,40.0,False,,202.6222155549861,[],"[960, 540]",ColorTask,94.0,74.0,,,HRV,HRV_0241,2022-11-30 19:37:26
,wl-rdm,193,790283,0.0-8.74-0.74,1.0,192.0,,,,,,,[],,,,,,56.4,0.0,u,0.0,True,1471.5,89.0,60.0,40.0,False,,217.51612575056663,[],"[960, 540]",ColorTask,95.0,75.0,,,HRV,HRV_0241,2022-11-30 19:37:26
,wl-rdm,194,792484,0.0-8.75-0.75,1.0,193.0,,,,,,,[],,,,,,87.9,1.0,i,1.0,True,859.9999999962747,52.0,60.0,40.0,False,,260.33931068532775,[],"[960, 540]",ColorTask,96.0,76.0,,,HRV,HRV_0241,2022-11-30 19:37:26
,wl-rdm,195,795651,0.0-8.76-0.76,1.0,194.0,,,,,,,[],,,,,,56.4,0.0,u,0.0,True,1879.3000000044703,113.0,60.0,40.0,False,,214.25330327487447,[],"[960, 540]",ColorTask,97.0,77.0,,,HRV,HRV_0241,2022-11-30 19:37:26
,wl-rdm,196,798215,0.0-8.77-0.77,1.0,195.0,,,,,,,[],,,,,,50.0,1.0,u,0.0,False,1154.2000000029802,70.0,60.0,40.0,False,,319.54165569041504,[],"[960, 540]",ColorTask,96.0,78.0,,,HRV,HRV_0241,2022-11-30 19:37:26
,wl-rdm,197,801715,0.0-8.78-0.78,1.0,196.0,,,,,,,[],,,,,,73.6,1.0,u,0.0,False,2105.5,127.0,60.0,40.0,False,,301.77072974178424,[],"[960, 540]",ColorTask,95.0,79.0,,,HRV,HRV_0241,2022-11-30 19:37:26
,wl-rdm,198,804250,0.0-8.79-0.79,1.0,197.0,,,,,,,[],,,,,,50.0,1.0,u,0.0,False,1136.5,69.0,60.0,40.0,False,,316.4679435397729,[],"[960, 540]",ColorTask,94.0,80.0,,,HRV,HRV_0241,2022-11-30 19:37:26
,wl-rdm,199,807013,0.0-8.80-0.80,1.0,198.0,,,,,,,[],,,,,,62.5,1.0,u,0.0,False,1373.800000000745,82.0,60.0,40.0,False,,282.66955973692507,[],"[960, 540]",ColorTask,93.0,81.0,,,HRV,HRV_0241,2022-11-30 19:37:26
,wl-rdm,200,809697,0.0-8.81-0.81,1.0,199.0,,,,,,,[],,,,,,73.6,0.0,u,0.0,True,1343.800000000745,81.0,60.0,40.0,False,,277.53838616679514,[],"[960, 540]",ColorTask,94.0,82.0,,,HRV,HRV_0241,2022-11-30 19:37:26
,wl-rdm,201,812128,0.0-8.82-0.82,1.0,200.0,,,,,,,[],,,,,,62.5,0.0,u,0.0,True,1120.0000000037253,68.0,60.0,40.0,False,,230.4624645620085,[],"[960, 540]",ColorTask,95.0,83.0,,,HRV,HRV_0241,2022-11-30 19:37:26
,wl-rdm,202,814711,0.0-8.83-0.83,1.0,201.0,,,,,,,[],,,,,,62.5,0.0,u,0.0,True,1248.6000000014901,75.0,60.0,40.0,False,,279.1623219027986,[],"[960, 540]",ColorTask,96.0,84.0,,,HRV,HRV_0241,2022-11-30 19:37:26
,wl-rdm,203,816845,0.0-8.84-0.84,1.0,202.0,,,,,,,[],,,,,,62.5,0.0,u,0.0,True,808.3000000007451,49.0,60.0,40.0,False,,219.1988490270665,[],"[960, 540]",ColorTask,97.0,85.0,,,HRV,HRV_0241,2022-11-30 19:37:26
,wl-rdm,204,819294,0.0-8.85-0.85,1.0,203.0,,,,,,,[],,,,,,73.6,1.0,i,1.0,True,1093.300000000745,66.0,60.0,40.0,False,,282.6019195612561,[],"[960, 540]",ColorTask,98.0,86.0,,,HRV,HRV_0241,2022-11-30 19:37:26
,wl-rdm,205,821577,0.0-8.86-0.86,1.0,204.0,,,,,,,[],,,,,,87.9,0.0,u,0.0,True,916.5,54.0,60.0,40.0,False,,288.60241578223986,[],"[960, 540]",ColorTask,99.0,87.0,,,HRV,HRV_0241,2022-11-30 19:37:26
,wl-rdm,206,824010,0.0-8.87-0.87,1.0,205.0,,,,,,,[],,,,,,87.9,1.0,i,1.0,True,1125.199999999255,68.0,60.0,40.0,False,,221.50818098387333,[],"[960, 540]",ColorTask,100.0,88.0,,,HRV,HRV_0241,2022-11-30 19:37:26
,wl-rdm,207,826610,0.0-8.88-0.88,1.0,206.0,,,,,,,[],,,,,,62.5,0.0,u,0.0,True,1303.4999999962747,79.0,60.0,40.0,False,,211.80804446430955,[],"[960, 540]",ColorTask,101.0,89.0,,,HRV,HRV_0241,2022-11-30 19:37:26
,wl-rdm,208,829025,0.0-8.89-0.89,1.0,207.0,,,,,,,[],,,,,,53.2,1.0,u,0.0,False,1107.3999999985099,67.0,60.0,40.0,False,,202.9853107330137,[],"[960, 540]",ColorTask,100.0,90.0,,,HRV,HRV_0241,2022-11-30 19:37:26
,wl-rdm,209,831475,0.0-8.90-0.90,1.0,208.0,,,,,,,[],,,,,,62.5,1.0,u,0.0,False,1108.300000000745,67.0,60.0,40.0,False,,253.01029133493708,[],"[960, 540]",ColorTask,99.0,91.0,,,HRV,HRV_0241,2022-11-30 19:37:26
,wl-rdm,210,833874,0.0-8.91-0.91,1.0,209.0,,,,,,,[],,,,,,73.6,0.0,u,0.0,True,996.0000000037253,60.0,60.0,40.0,False,,325.55462014634895,[],"[960, 540]",ColorTask,100.0,92.0,,,HRV,HRV_0241,2022-11-30 19:37:26
,wl-rdm,211,836391,0.0-8.92-0.92,1.0,210.0,,,,,,,[],,,,,,73.6,1.0,i,1.0,True,1075.699999999255,65.0,60.0,40.0,False,,374.64527377691786,[],"[960, 540]",ColorTask,101.0,93.0,,,HRV,HRV_0241,2022-11-30 19:37:26
,wl-rdm,212,839057,0.0-8.93-0.93,1.0,211.0,,,,,,,[],,,,,,53.2,0.0,u,0.0,True,1269.699999999255,77.0,60.0,40.0,False,,307.9900488588788,[],"[960, 540]",ColorTask,102.0,94.0,,,HRV,HRV_0241,2022-11-30 19:37:26
,wl-rdm,213,842204,0.0-8.94-0.94,1.0,212.0,,,,,,,[],,,,,,53.2,1.0,u,0.0,False,1738.5,104.0,60.0,40.0,False,,341.46718505411195,[],"[960, 540]",ColorTask,101.0,95.0,,,HRV,HRV_0241,2022-11-30 19:37:26
,wl-rdm,214,844838,0.0-8.95-0.95,1.0,213.0,,,,,,,[],,,,,,62.5,1.0,i,1.0,True,1279.699999999255,77.0,60.0,40.0,False,,281.32144561214756,[],"[960, 540]",ColorTask,102.0,96.0,,,HRV,HRV_0241,2022-11-30 19:37:26
,wl-rdm,215,847721,0.0-8.96-0.96,1.0,214.0,,,,,,,[],,,,,,53.2,1.0,i,1.0,True,1454.800000000745,87.0,60.0,40.0,False,,361.88460842465054,[],"[960, 540]",ColorTask,103.0,97.0,,,HRV,HRV_0241,2022-11-30 19:37:26
,wl-rdm,216,851004,0.0-8.97-0.97,1.0,215.0,,,,,,,[],,,,,,50.0,0.0,u,0.0,True,1837.3999999985099,111.0,60.0,40.0,False,,376.5849437695856,[],"[960, 540]",ColorTask,104.0,98.0,,,HRV,HRV_0241,2022-11-30 19:37:26
,wl-rdm,217,853169,0.0-8.98-0.98,1.0,216.0,,,,,,,[],,,,,,87.9,0.0,u,0.0,True,877.1999999955297,53.0,60.0,40.0,False,,228.89132021325707,[],"[960, 540]",ColorTask,105.0,99.0,,,HRV,HRV_0241,2022-11-30 19:37:26
,wl-rdm,218,855520,0.0-8.99-0.99,1.0,217.0,,,,,,,[],,,,,,87.9,1.0,i,1.0,True,1021.3000000007451,62.0,60.0,40.0,False,,246.16699663271385,[],"[960, 540]",ColorTask,106.0,100.0,,,HRV,HRV_0241,2022-11-30 19:37:26
,wl-rdm,219,857569,0.0-8.100-0.100,1.0,218.0,,,,,,,[],,,,,,73.6,1.0,i,1.0,True,744.8000000007451,45.0,60.0,40.0,False,,222.41643201340196,[],"[960, 540]",ColorTask,107.0,101.0,,,HRV,HRV_0241,2022-11-30 19:37:26
,wl-rdm,220,860235,0.0-8.101-0.101,1.0,219.0,,,,,,,[],,,,,,56.4,0.0,u,0.0,True,1215.199999999255,72.0,60.0,40.0,False,,374.5403381398346,[],"[960, 540]",ColorTask,108.0,102.0,,,HRV,HRV_0241,2022-11-30 19:37:26
,wl-rdm,221,862451,0.0-8.102-0.102,1.0,220.0,,,,,,,[],,,,,,62.5,0.0,u,0.0,True,774.0,47.0,60.0,40.0,False,,366.3314063742301,[],"[960, 540]",ColorTask,109.0,103.0,,,HRV,HRV_0241,2022-11-30 19:37:26
,wl-rdm,222,865233,0.0-8.103-0.103,1.0,221.0,,,,,,,[],,,,,,53.2,0.0,u,0.0,True,1376.5,83.0,60.0,40.0,False,,348.22491441488893,[],"[960, 540]",ColorTask,110.0,104.0,,,HRV,HRV_0241,2022-11-30 19:37:26
,wl-rdm,223,867283,0.0-8.104-0.104,1.0,222.0,,,,,,,[],,,,,,87.9,1.0,i,1.0,True,685.3000000007451,41.0,60.0,40.0,False,,293.83547246843864,[],"[960, 540]",ColorTask,111.0,105.0,,,HRV,HRV_0241,2022-11-30 19:37:26
,wl-rdm,224,870718,0.0-8.105-0.105,1.0,223.0,,,,,,,[],,,,,,56.4,1.0,u,0.0,False,1959.8999999985099,118.0,60.0,40.0,False,,387.8441496548506,[],"[960, 540]",ColorTask,110.0,106.0,,,HRV,HRV_0241,2022-11-30 19:37:26
,wl-rdm,225,873899,0.0-8.106-0.106,1.0,224.0,,,,,,,[],,,,,,56.4,0.0,u,0.0,True,1848.199999999255,111.0,60.0,40.0,False,,243.52596290563605,[],"[960, 540]",ColorTask,111.0,107.0,,,HRV,HRV_0241,2022-11-30 19:37:26
,wl-rdm,226,876247,0.0-8.107-0.107,1.0,225.0,,,,,,,[],,,,,,53.2,1.0,i,1.0,True,1004.1999999992549,61.0,60.0,40.0,False,,256.3566943328576,[],"[960, 540]",ColorTask,112.0,108.0,,,HRV,HRV_0241,2022-11-30 19:37:26
,wl-html-button-response,227,879264,0.0-9.0-0.0,,,,,,,,,,3009.0,,0,,,,,,,,,,,,,,,,,,,,<h3>End of this session. Thank you!</h3><br>,['Close window'],HRV,HRV_0241,2022-11-30 19:37:26
