trialN,stimuli,trialStartTime,trialStartTime_UNIX,stimulus1,stimulus2,stimulus1Bid,stimulus2Bid,delta,selected,rt,rt_UNIX,rt_perfnow,receivedResponse,rsp,trialEndTime,trialDuration,trialEndTime_UNIX,trialDuration_UNIX,exp,subjectId,date
0,"[{'imgObject': {}, 'id': 'apple slices', 'src': '/static/foodstim60/apple slices.jpg', 'key': 'u', 'origWidth': 409, 'origHeight': 410, 'width': 409, 'height': 410, 'widthPercent': 0.45, 'rescaleHeight': False, 'trialN': 0, 'loaded': True, 'loadedTime': 2986.199999999255, 'positionName': 'LEFT', 'positionCoords': [512.6, 335], 'bid': 9.9}, {'imgObject': {}, 'id': 'turkey sandwich', 'src': '/static/foodstim60/turkey sandwich.jpg', 'key': 'i', 'origWidth': 409, 'origHeight': 409, 'width': 409, 'height': 409, 'widthPercent': 0.45, 'rescaleHeight': False, 'trialN': 0, 'loaded': True, 'loadedTime': 3039.199999999255, 'positionName': 'RIGHT', 'positionCoords': [998.4, 335.5], 'bid': 9.12}]",3828.400000002235,1669835844835,apple slices,turkey sandwich,9.9,9.12,-0.7800000000000011,turkey sandwich,1047.8999999985099,1050,1050.199999999255,True,i,5382.800000000745,1554.3999999985099,1669835846389,1554,HRV,HRV_0241,2022-11-30 19:22:41
1,"[{'imgObject': {}, 'id': 'cherry tomato', 'src': '/static/foodstim60/cherry tomato.jpg', 'key': 'u', 'origWidth': 410, 'origHeight': 410, 'width': 410, 'height': 410, 'widthPercent': 0.45, 'rescaleHeight': False, 'trialN': 1, 'loaded': True, 'loadedTime': 3052.10000000149, 'positionName': 'LEFT', 'positionCoords': [511.6, 335], 'bid': 4.07}, {'imgObject': {}, 'id': 'granola w milk', 'src': '/static/foodstim60/granola w milk.jpg', 'key': 'i', 'origWidth': 410, 'origHeight': 410, 'width': 410, 'height': 410, 'widthPercent': 0.45, 'rescaleHeight': False, 'trialN': 1, 'loaded': True, 'loadedTime': 3064, 'positionName': 'RIGHT', 'positionCoords': [998.4, 335], 'bid': 5.0200000000000005}]",5383.0,1669835846389,cherry tomato,granola w milk,4.07,5.0200000000000005,0.9500000000000002,cherry tomato,1321.300000000745,1325,1324.9000000022352,True,u,7214.699999999255,1831.699999999255,1669835848221,1832,HRV,HRV_0241,2022-11-30 19:22:41
2,"[{'imgObject': {}, 'id': 'eggsalad', 'src': '/static/foodstim60/eggsalad.jpg', 'key': 'u', 'origWidth': 410, 'origHeight': 409, 'width': 410, 'height': 409, 'widthPercent': 0.45, 'rescaleHeight': False, 'trialN': 2, 'loaded': True, 'loadedTime': 3090.5, 'positionName': 'LEFT', 'positionCoords': [511.6, 335.5], 'bid': 0.4}, {'imgObject': {}, 'id': 'sushi w_condiments', 'src': '/static/foodstim60/sushi w_condiments.jpg', 'key': 'i', 'origWidth': 410, 'origHeight': 410, 'width': 410, 'height': 410, 'widthPercent': 0.45, 'rescaleHeight': False, 'trialN': 2, 'loaded': True, 'loadedTime': 3112.400000002235, 'positionName': 'RIGHT', 'positionCoords': [998.4, 335], 'bid': 5.7700000000000005}]",7215.10000000149,1669835848221,eggsalad,sushi w_condiments,0.4,5.7700000000000005,5.37,sushi w_condiments,1278.199999999255,1281,1280.8999999985099,True,i,8998.5,1783.3999999985099,1669835850005,1784,HRV,HRV_0241,2022-11-30 19:22:41
3,"[{'imgObject': {}, 'id': 'orange slices', 'src': '/static/foodstim60/orange slices.jpg', 'key': 'u', 'origWidth': 409, 'origHeight': 410, 'width': 409, 'height': 410, 'widthPercent': 0.45, 'rescaleHeight': False, 'trialN': 3, 'loaded': True, 'loadedTime': 3139.400000002235, 'positionName': 'LEFT', 'positionCoords': [512.6, 335], 'bid': 8.32}, {'imgObject': {}, 'id': 'rigatoni and sauce', 'src': '/static/foodstim60/rigatoni and sauce.jpg', 'key': 'i', 'origWidth': 410, 'origHeight': 411, 'width': 410, 'height': 411, 'widthPercent': 0.45, 'rescaleHeight': False, 'trialN': 3, 'loaded': True, 'loadedTime': 3155.900000002235, 'positionName': 'RIGHT', 'positionCoords': [998.4, 334.5], 'bid': 9.65}]",8998.699999999255,1669835850005,orange slices,rigatoni and sauce,8.32,9.65,1.33,rigatoni and sauce,990.6000000014901,993,993.3000000007451,True,i,10494.699999999255,1496.0,1669835851501,1496,HRV,HRV_0241,2022-11-30 19:22:41
4,"[{'imgObject': {}, 'id': 'kiwi', 'src': '/static/foodstim60/kiwi.jpg', 'key': 'u', 'origWidth': 410, 'origHeight': 410, 'width': 410, 'height': 410, 'widthPercent': 0.45, 'rescaleHeight': False, 'trialN': 4, 'loaded': True, 'loadedTime': 3178.300000000745, 'positionName': 'LEFT', 'positionCoords': [511.6, 335], 'bid': 8.01}, {'imgObject': {}, 'id': 'salad w chicken', 'src': '/static/foodstim60/salad w chicken.jpg', 'key': 'i', 'origWidth': 411, 'origHeight': 411, 'width': 411, 'height': 411, 'widthPercent': 0.45, 'rescaleHeight': False, 'trialN': 4, 'loaded': True, 'loadedTime': 3250.5, 'positionName': 'RIGHT', 'positionCoords': [998.4, 334.5], 'bid': 7.4}]",10495.199999999255,1669835851502,kiwi,salad w chicken,8.01,7.4,-0.6099999999999994,salad w chicken,1242.1000000014901,1245,1245.2000000029802,True,i,12247.0,1751.800000000745,1669835853253,1751,HRV,HRV_0241,2022-11-30 19:22:41
5,"[{'imgObject': {}, 'id': 'olives', 'src': '/static/foodstim60/olives.jpg', 'key': 'u', 'origWidth': 410, 'origHeight': 410, 'width': 410, 'height': 410, 'widthPercent': 0.45, 'rescaleHeight': False, 'trialN': 5, 'loaded': True, 'loadedTime': 3221.60000000149, 'positionName': 'LEFT', 'positionCoords': [511.6, 335], 'bid': 6.67}, {'imgObject': {}, 'id': 'lox', 'src': '/static/foodstim60/lox.jpg', 'key': 'i', 'origWidth': 410, 'origHeight': 411, 'width': 410, 'height': 411, 'widthPercent': 0.45, 'rescaleHeight': False, 'trialN': 5, 'loaded': True, 'loadedTime': 3242.10000000149, 'positionName': 'RIGHT', 'positionCoords': [998.4, 334.5], 'bid': 7.04}]",12247.400000002235,1669835853254,olives,lox,6.67,7.04,0.3700000000000001,olives,1494.8999999985099,1498,1498.199999999255,True,u,14246.900000002235,1999.5,1669835855253,1999,HRV,HRV_0241,2022-11-30 19:22:41
6,"[{'imgObject': {}, 'id': 'salad w chicken', 'src': '/static/foodstim60/salad w chicken.jpg', 'key': 'u', 'origWidth': 411, 'origHeight': 411, 'width': 411, 'height': 411, 'widthPercent': 0.45, 'rescaleHeight': False, 'trialN': 6, 'loaded': True, 'loadedTime': 3249.900000002235, 'positionName': 'LEFT', 'positionCoords': [510.6, 334.5], 'bid': 7.4}, {'imgObject': {}, 'id': 'yogurt no spoon', 'src': '/static/foodstim60/yogurt no spoon.jpg', 'key': 'i', 'origWidth': 411, 'origHeight': 410, 'width': 411, 'height': 410, 'widthPercent': 0.45, 'rescaleHeight': False, 'trialN': 6, 'loaded': True, 'loadedTime': 3274.300000000745, 'positionName': 'RIGHT', 'positionCoords': [998.4, 335], 'bid': 8.9}]",14247.300000000745,1669835855254,salad w chicken,yogurt no spoon,7.4,8.9,1.5,yogurt no spoon,1686.0,1688,1688.6000000014901,True,i,16438.800000000745,2191.5,1669835857445,2191,HRV,HRV_0241,2022-11-30 19:22:41
7,"[{'imgObject': {}, 'id': 'eggsalad', 'src': '/static/foodstim60/eggsalad.jpg', 'key': 'u', 'origWidth': 410, 'origHeight': 409, 'width': 410, 'height': 409, 'widthPercent': 0.45, 'rescaleHeight': False, 'trialN': 7, 'loaded': True, 'loadedTime': 3098.699999999255, 'positionName': 'LEFT', 'positionCoords': [511.6, 335.5], 'bid': 0.4}, {'imgObject': {}, 'id': 'granola w milk', 'src': '/static/foodstim60/granola w milk.jpg', 'key': 'i', 'origWidth': 410, 'origHeight': 410, 'width': 410, 'height': 410, 'widthPercent': 0.45, 'rescaleHeight': False, 'trialN': 7, 'loaded': True, 'loadedTime': 3073.300000000745, 'positionName': 'RIGHT', 'positionCoords': [998.4, 335], 'bid': 5.0200000000000005}]",16439.300000000745,1669835857446,eggsalad,granola w milk,0.4,5.0200000000000005,4.62,granola w milk,1239.0,1241,1241.800000000745,True,i,18183.0,1743.699999999255,1669835859189,1743,HRV,HRV_0241,2022-11-30 19:22:41
8,"[{'imgObject': {}, 'id': 'chicken nuggets2', 'src': '/static/foodstim60/chicken nuggets2.jpg', 'key': 'u', 'origWidth': 410, 'origHeight': 409, 'width': 410, 'height': 409, 'widthPercent': 0.45, 'rescaleHeight': False, 'trialN': 8, 'loaded': True, 'loadedTime': 3276.400000002235, 'positionName': 'LEFT', 'positionCoords': [511.6, 335.5], 'bid': 0.18}, {'imgObject': {}, 'id': 'Grapes', 'src': '/static/foodstim60/Grapes.jpg', 'key': 'i', 'origWidth': 411, 'origHeight': 411, 'width': 411, 'height': 411, 'widthPercent': 0.45, 'rescaleHeight': False, 'trialN': 8, 'loaded': True, 'loadedTime': 3290.60000000149, 'positionName': 'RIGHT', 'positionCoords': [998.4, 334.5], 'bid': 6.09}]",18183.400000002235,1669835859190,chicken nuggets2,Grapes,0.18,6.09,5.91,Grapes,1120.8999999985099,1124,1124.199999999255,True,i,19815.0,1631.5999999977648,1669835860821,1631,HRV,HRV_0241,2022-11-30 19:22:41
9,"[{'imgObject': {}, 'id': 'fried eggs', 'src': '/static/foodstim60/fried eggs.jpg', 'key': 'u', 'origWidth': 410, 'origHeight': 410, 'width': 410, 'height': 410, 'widthPercent': 0.45, 'rescaleHeight': False, 'trialN': 9, 'loaded': True, 'loadedTime': 3301, 'positionName': 'LEFT', 'positionCoords': [511.6, 335], 'bid': 9.81}, {'imgObject': {}, 'id': 'bagel plain', 'src': '/static/foodstim60/bagel plain.jpg', 'key': 'i', 'origWidth': 410, 'origHeight': 410, 'width': 410, 'height': 410, 'widthPercent': 0.45, 'rescaleHeight': False, 'trialN': 9, 'loaded': True, 'loadedTime': 3316, 'positionName': 'RIGHT', 'positionCoords': [998.4, 335], 'bid': 6.22}]",19815.400000002235,1669835860822,fried eggs,bagel plain,9.81,6.22,-3.5900000000000007,fried eggs,1576.8999999985099,1580,1580.0999999977648,True,u,21903.0,2087.599999997765,1669835862909,2087,HRV,HRV_0241,2022-11-30 19:22:41
10,"[{'imgObject': {}, 'id': 'rigatoni and sauce', 'src': '/static/foodstim60/rigatoni and sauce.jpg', 'key': 'u', 'origWidth': 410, 'origHeight': 411, 'width': 410, 'height': 411, 'widthPercent': 0.45, 'rescaleHeight': False, 'trialN': 10, 'loaded': True, 'loadedTime': 3155.699999999255, 'positionName': 'LEFT', 'positionCoords': [511.6, 334.5], 'bid': 9.65}, {'imgObject': {}, 'id': 'turkey sandwich', 'src': '/static/foodstim60/turkey sandwich.jpg', 'key': 'i', 'origWidth': 409, 'origHeight': 409, 'width': 409, 'height': 409, 'widthPercent': 0.45, 'rescaleHeight': False, 'trialN': 10, 'loaded': True, 'loadedTime': 3038.800000000745, 'positionName': 'RIGHT', 'positionCoords': [998.4, 335.5], 'bid': 9.12}]",21903.5,1669835862910,rigatoni and sauce,turkey sandwich,9.65,9.12,-0.5300000000000011,turkey sandwich,1199.800000000745,1203,1203.300000000745,True,i,23614.900000002235,1711.4000000022352,1669835864621,1711,HRV,HRV_0241,2022-11-30 19:22:41
11,"[{'imgObject': {}, 'id': 'rigatoni', 'src': '/static/foodstim60/rigatoni.jpg', 'key': 'u', 'origWidth': 411, 'origHeight': 411, 'width': 411, 'height': 411, 'widthPercent': 0.45, 'rescaleHeight': False, 'trialN': 11, 'loaded': True, 'loadedTime': 3327, 'positionName': 'LEFT', 'positionCoords': [510.6, 334.5], 'bid': 5.09}, {'imgObject': {}, 'id': 'raspberries', 'src': '/static/foodstim60/raspberries.jpg', 'key': 'i', 'origWidth': 411, 'origHeight': 411, 'width': 411, 'height': 411, 'widthPercent': 0.45, 'rescaleHeight': False, 'trialN': 11, 'loaded': True, 'loadedTime': 3346.300000000745, 'positionName': 'RIGHT', 'positionCoords': [998.4, 334.5], 'bid': 9.36}]",23615.400000002235,1669835864622,rigatoni,raspberries,5.09,9.36,4.27,raspberries,975.8999999985099,978,978.5,True,i,25094.900000002235,1479.5,1669835866101,1479,HRV,HRV_0241,2022-11-30 19:22:41
12,"[{'imgObject': {}, 'id': 'hotdog w must', 'src': '/static/foodstim60/hotdog w must.jpg', 'key': 'u', 'origWidth': 409, 'origHeight': 409, 'width': 409, 'height': 409, 'widthPercent': 0.45, 'rescaleHeight': False, 'trialN': 12, 'loaded': True, 'loadedTime': 3358.800000000745, 'positionName': 'LEFT', 'positionCoords': [512.6, 335.5], 'bid': 5.17}, {'imgObject': {}, 'id': 'turkeysandwich', 'src': '/static/foodstim60/turkeysandwich.jpg', 'key': 'i', 'origWidth': 409, 'origHeight': 409, 'width': 409, 'height': 409, 'widthPercent': 0.45, 'rescaleHeight': False, 'trialN': 12, 'loaded': True, 'loadedTime': 3382.10000000149, 'positionName': 'RIGHT', 'positionCoords': [998.4, 335.5], 'bid': 7.96}]",25095.400000002235,1669835866102,hotdog w must,turkeysandwich,5.17,7.96,2.79,turkeysandwich,932.8999999985099,935,935.6999999992549,True,i,26534.800000000745,1439.3999999985099,1669835867541,1439,HRV,HRV_0241,2022-11-30 19:22:41
13,"[{'imgObject': {}, 'id': 'apple slices', 'src': '/static/foodstim60/apple slices.jpg', 'key': 'u', 'origWidth': 409, 'origHeight': 410, 'width': 409, 'height': 410, 'widthPercent': 0.45, 'rescaleHeight': False, 'trialN': 13, 'loaded': True, 'loadedTime': 2999.400000002235, 'positionName': 'LEFT', 'positionCoords': [512.6, 335], 'bid': 9.9}, {'imgObject': {}, 'id': 'fruitsalad', 'src': '/static/foodstim60/fruitsalad.jpg', 'key': 'i', 'origWidth': 410, 'origHeight': 410, 'width': 410, 'height': 410, 'widthPercent': 0.45, 'rescaleHeight': False, 'trialN': 13, 'loaded': True, 'loadedTime': 3392.800000000745, 'positionName': 'RIGHT', 'positionCoords': [998.4, 335], 'bid': 9.64}]",26535.300000000745,1669835867542,apple slices,fruitsalad,9.9,9.64,-0.2599999999999998,fruitsalad,1111.0,1114,1114.300000000745,True,i,28150.699999999255,1615.3999999985099,1669835869157,1615,HRV,HRV_0241,2022-11-30 19:22:41
14,"[{'imgObject': {}, 'id': 'chicken nuggets2', 'src': '/static/foodstim60/chicken nuggets2.jpg', 'key': 'u', 'origWidth': 410, 'origHeight': 409, 'width': 410, 'height': 409, 'widthPercent': 0.45, 'rescaleHeight': False, 'trialN': 14, 'loaded': True, 'loadedTime': 3283.300000000745, 'positionName': 'LEFT', 'positionCoords': [511.6, 335.5], 'bid': 0.18}, {'imgObject': {}, 'id': 'orange slices', 'src': '/static/foodstim60/orange slices.jpg', 'key': 'i', 'origWidth': 409, 'origHeight': 410, 'width': 409, 'height': 410, 'widthPercent': 0.45, 'rescaleHeight': False, 'trialN': 14, 'loaded': True, 'loadedTime': 3126.800000000745, 'positionName': 'RIGHT', 'positionCoords': [998.4, 335], 'bid': 8.32}]",28151.10000000149,1669835869157,chicken nuggets2,orange slices,0.18,8.32,8.14,orange slices,1154.199999999255,1158,1157.300000000745,True,i,29815.0,1663.8999999985099,1669835870821,1664,HRV,HRV_0241,2022-11-30 19:22:41
15,"[{'imgObject': {}, 'id': 'hotdog w must', 'src': '/static/foodstim60/hotdog w must.jpg', 'key': 'u', 'origWidth': 409, 'origHeight': 409, 'width': 409, 'height': 409, 'widthPercent': 0.45, 'rescaleHeight': False, 'trialN': 15, 'loaded': True, 'loadedTime': 3359.10000000149, 'positionName': 'LEFT', 'positionCoords': [512.6, 335.5], 'bid': 5.17}, {'imgObject': {}, 'id': 'raisin bran w milk', 'src': '/static/foodstim60/raisin bran w milk.jpg', 'key': 'i', 'origWidth': 411, 'origHeight': 411, 'width': 411, 'height': 411, 'widthPercent': 0.45, 'rescaleHeight': False, 'trialN': 15, 'loaded': True, 'loadedTime': 3392.900000002235, 'positionName': 'RIGHT', 'positionCoords': [998.4, 334.5], 'bid': 5.04}]",29815.300000000745,1669835870822,hotdog w must,raisin bran w milk,5.17,5.04,-0.1299999999999999,raisin bran w milk,1413.0,1415,1415.5,True,i,31734.800000000745,1919.5,1669835872741,1919,HRV,HRV_0241,2022-11-30 19:22:41
16,"[{'imgObject': {}, 'id': 'burrito', 'src': '/static/foodstim60/burrito.jpg', 'key': 'u', 'origWidth': 410, 'origHeight': 410, 'width': 410, 'height': 410, 'widthPercent': 0.45, 'rescaleHeight': False, 'trialN': 16, 'loaded': True, 'loadedTime': 3410.10000000149, 'positionName': 'LEFT', 'positionCoords': [511.6, 335], 'bid': 8.61}, {'imgObject': {}, 'id': 'eggsalad', 'src': '/static/foodstim60/eggsalad.jpg', 'key': 'i', 'origWidth': 410, 'origHeight': 409, 'width': 410, 'height': 409, 'widthPercent': 0.45, 'rescaleHeight': False, 'trialN': 16, 'loaded': True, 'loadedTime': 3090.800000000745, 'positionName': 'RIGHT', 'positionCoords': [998.4, 335.5], 'bid': 0.4}]",31735.199999999255,1669835872741,burrito,eggsalad,8.61,0.4,-8.209999999999999,burrito,1032.1000000014901,1036,1035.2000000029802,True,u,33278.699999999255,1543.5,1669835874285,1544,HRV,HRV_0241,2022-11-30 19:22:41
17,"[{'imgObject': {}, 'id': 'olives', 'src': '/static/foodstim60/olives.jpg', 'key': 'u', 'origWidth': 410, 'origHeight': 410, 'width': 410, 'height': 410, 'widthPercent': 0.45, 'rescaleHeight': False, 'trialN': 17, 'loaded': True, 'loadedTime': 3221.300000000745, 'positionName': 'LEFT', 'positionCoords': [511.6, 335], 'bid': 6.67}, {'imgObject': {}, 'id': 'baked potato', 'src': '/static/foodstim60/baked potato.jpg', 'key': 'i', 'origWidth': 409, 'origHeight': 410, 'width': 409, 'height': 410, 'widthPercent': 0.45, 'rescaleHeight': False, 'trialN': 17, 'loaded': True, 'loadedTime': 3420.5, 'positionName': 'RIGHT', 'positionCoords': [998.4, 335], 'bid': 8.6}]",33279.10000000149,1669835874285,olives,baked potato,6.67,8.6,1.9299999999999997,baked potato,1198.199999999255,1202,1201.0999999977648,True,i,34982.900000002235,1703.800000000745,1669835875989,1704,HRV,HRV_0241,2022-11-30 19:22:41
18,"[{'imgObject': {}, 'id': 'Grapes', 'src': '/static/foodstim60/Grapes.jpg', 'key': 'u', 'origWidth': 411, 'origHeight': 411, 'width': 411, 'height': 411, 'widthPercent': 0.45, 'rescaleHeight': False, 'trialN': 18, 'loaded': True, 'loadedTime': 3291.699999999255, 'positionName': 'LEFT', 'positionCoords': [510.6, 334.5], 'bid': 6.09}, {'imgObject': {}, 'id': 'bagel plain', 'src': '/static/foodstim60/bagel plain.jpg', 'key': 'i', 'origWidth': 410, 'origHeight': 410, 'width': 410, 'height': 410, 'widthPercent': 0.45, 'rescaleHeight': False, 'trialN': 18, 'loaded': True, 'loadedTime': 3324.800000000745, 'positionName': 'RIGHT', 'positionCoords': [998.4, 335], 'bid': 6.22}]",34983.400000002235,1669835875990,Grapes,bagel plain,6.09,6.22,0.1299999999999999,Grapes,1049.8999999985099,1052,1052.699999999255,True,u,36542.60000000149,1559.199999999255,1669835877549,1559,HRV,HRV_0241,2022-11-30 19:22:41
19,"[{'imgObject': {}, 'id': 'olives', 'src': '/static/foodstim60/olives.jpg', 'key': 'u', 'origWidth': 410, 'origHeight': 410, 'width': 410, 'height': 410, 'widthPercent': 0.45, 'rescaleHeight': False, 'trialN': 19, 'loaded': True, 'loadedTime': 3221.10000000149, 'positionName': 'LEFT', 'positionCoords': [511.6, 335], 'bid': 6.67}, {'imgObject': {}, 'id': 'cherry tomato', 'src': '/static/foodstim60/cherry tomato.jpg', 'key': 'i', 'origWidth': 410, 'origHeight': 410, 'width': 410, 'height': 410, 'widthPercent': 0.45, 'rescaleHeight': False, 'trialN': 19, 'loaded': True, 'loadedTime': 3051.400000002235, 'positionName': 'RIGHT', 'positionCoords': [998.4, 335], 'bid': 4.07}]",36542.900000002235,1669835877549,olives,cherry tomato,6.67,4.07,-2.5999999999999996,cherry tomato,1633.3999999985099,1636,1635.7999999970198,True,i,38686.699999999255,2143.7999999970198,1669835879693,2144,HRV,HRV_0241,2022-11-30 19:22:41
20,"[{'imgObject': {}, 'id': 'bagel and cc', 'src': '/static/foodstim60/bagel and cc.jpg', 'key': 'u', 'origWidth': 410, 'origHeight': 410, 'width': 410, 'height': 410, 'widthPercent': 0.45, 'rescaleHeight': False, 'trialN': 20, 'loaded': True, 'loadedTime': 3422.60000000149, 'positionName': 'LEFT', 'positionCoords': [511.6, 335], 'bid': 6.63}, {'imgObject': {}, 'id': 'cheerios', 'src': '/static/foodstim60/cheerios.jpg', 'key': 'i', 'origWidth': 409, 'origHeight': 410, 'width': 409, 'height': 410, 'widthPercent': 0.45, 'rescaleHeight': False, 'trialN': 20, 'loaded': True, 'loadedTime': 3438.699999999255, 'positionName': 'RIGHT', 'positionCoords': [998.4, 335], 'bid': 3.86}]",38687.0,1669835879693,bagel and cc,cheerios,6.63,3.86,-2.77,bagel and cc,1641.300000000745,1645,1644.4000000022352,True,u,40839.0,2152.0,1669835881845,2152,HRV,HRV_0241,2022-11-30 19:22:41
21,"[{'imgObject': {}, 'id': 'popsicles', 'src': '/static/foodstim60/popsicles.jpg', 'key': 'u', 'origWidth': 410, 'origHeight': 410, 'width': 410, 'height': 410, 'widthPercent': 0.45, 'rescaleHeight': False, 'trialN': 21, 'loaded': True, 'loadedTime': 3827.699999999255, 'positionName': 'LEFT', 'positionCoords': [511.6, 335], 'bid': 0.14}, {'imgObject': {}, 'id': 'granola w milk', 'src': '/static/foodstim60/granola w milk.jpg', 'key': 'i', 'origWidth': 410, 'origHeight': 410, 'width': 410, 'height': 410, 'widthPercent': 0.45, 'rescaleHeight': False, 'trialN': 21, 'loaded': True, 'loadedTime': 3065.300000000745, 'positionName': 'RIGHT', 'positionCoords': [998.4, 335], 'bid': 5.0200000000000005}]",40839.300000000745,1669835881846,popsicles,granola w milk,0.14,5.0200000000000005,4.880000000000001,granola w milk,849.0,852,852.3999999985099,True,i,42199.0,1359.699999999255,1669835883205,1359,HRV,HRV_0241,2022-11-30 19:22:41
22,"[{'imgObject': {}, 'id': 'roastedpotatoes', 'src': '/static/foodstim60/roastedpotatoes.jpg', 'key': 'u', 'origWidth': 409, 'origHeight': 410, 'width': 409, 'height': 410, 'widthPercent': 0.45, 'rescaleHeight': False, 'trialN': 22, 'loaded': True, 'loadedTime': 3446.5, 'positionName': 'LEFT', 'positionCoords': [512.6, 335], 'bid': 9.32}, {'imgObject': {}, 'id': 'burger', 'src': '/static/foodstim60/burger.jpg', 'key': 'i', 'origWidth': 409, 'origHeight': 409, 'width': 409, 'height': 409, 'widthPercent': 0.45, 'rescaleHeight': False, 'trialN': 22, 'loaded': True, 'loadedTime': 3459.300000000745, 'positionName': 'RIGHT', 'positionCoords': [998.4, 335.5], 'bid': 9.91}]",42199.400000002235,1669835883206,roastedpotatoes,burger,9.32,9.91,0.5899999999999999,roastedpotatoes,1571.8999999985099,1575,1575.0,True,u,44278.699999999255,2079.2999999970198,1669835885285,2079,HRV,HRV_0241,2022-11-30 19:22:41
23,"[{'imgObject': {}, 'id': 'chickenfingers', 'src': '/static/foodstim60/chickenfingers.jpg', 'key': 'u', 'origWidth': 410, 'origHeight': 410, 'width': 410, 'height': 410, 'widthPercent': 0.45, 'rescaleHeight': False, 'trialN': 23, 'loaded': True, 'loadedTime': 3473.800000000745, 'positionName': 'LEFT', 'positionCoords': [511.6, 335], 'bid': 8.71}, {'imgObject': {}, 'id': 'omelette', 'src': '/static/foodstim60/omelette.jpg', 'key': 'i', 'origWidth': 410, 'origHeight': 409, 'width': 410, 'height': 409, 'widthPercent': 0.45, 'rescaleHeight': False, 'trialN': 23, 'loaded': True, 'loadedTime': 3488, 'positionName': 'RIGHT', 'positionCoords': [998.4, 335.5], 'bid': 9.82}]",44279.10000000149,1669835885285,chickenfingers,omelette,8.71,9.82,1.1099999999999994,chickenfingers,1130.199999999255,1133,1132.5999999977648,True,u,45919.0,1639.8999999985099,1669835886925,1640,HRV,HRV_0241,2022-11-30 19:22:41
24,"[{'imgObject': {}, 'id': 'pear', 'src': '/static/foodstim60/pear.jpg', 'key': 'u', 'origWidth': 411, 'origHeight': 410, 'width': 411, 'height': 410, 'widthPercent': 0.45, 'rescaleHeight': False, 'trialN': 24, 'loaded': True, 'loadedTime': 3499.5, 'positionName': 'LEFT', 'positionCoords': [510.6, 335], 'bid': 9.92}, {'imgObject': {}, 'id': 'raspberries', 'src': '/static/foodstim60/raspberries.jpg', 'key': 'i', 'origWidth': 411, 'origHeight': 411, 'width': 411, 'height': 411, 'widthPercent': 0.45, 'rescaleHeight': False, 'trialN': 24, 'loaded': True, 'loadedTime': 3336.800000000745, 'positionName': 'RIGHT', 'positionCoords': [998.4, 334.5], 'bid': 9.36}]",45919.300000000745,1669835886926,pear,raspberries,9.92,9.36,-0.5600000000000005,raspberries,1723.0,1726,1726.1000000014901,True,i,48151.0,2231.699999999255,1669835889157,2231,HRV,HRV_0241,2022-11-30 19:22:41
25,"[{'imgObject': {}, 'id': 'turkeysandwich', 'src': '/static/foodstim60/turkeysandwich.jpg', 'key': 'u', 'origWidth': 409, 'origHeight': 409, 'width': 409, 'height': 409, 'widthPercent': 0.45, 'rescaleHeight': False, 'trialN': 25, 'loaded': True, 'loadedTime': 3381.900000002235, 'positionName': 'LEFT', 'positionCoords': [512.6, 335.5], 'bid': 7.96}, {'imgObject': {}, 'id': 'cantaloupe', 'src': '/static/foodstim60/cantaloupe.jpg', 'key': 'i', 'origWidth': 409, 'origHeight': 409, 'width': 409, 'height': 409, 'widthPercent': 0.45, 'rescaleHeight': False, 'trialN': 25, 'loaded': True, 'loadedTime': 3514.400000002235, 'positionName': 'RIGHT', 'positionCoords': [998.4, 335.5], 'bid': 10}]",48151.400000002235,1669835889158,turkeysandwich,cantaloupe,7.96,10.0,2.04,turkeysandwich,1669.8999999985099,1673,1673.0999999977648,True,u,50326.699999999255,2175.2999999970198,1669835891333,2175,HRV,HRV_0241,2022-11-30 19:22:41
26,"[{'imgObject': {}, 'id': 'bagel and cc', 'src': '/static/foodstim60/bagel and cc.jpg', 'key': 'u', 'origWidth': 410, 'origHeight': 410, 'width': 410, 'height': 410, 'widthPercent': 0.45, 'rescaleHeight': False, 'trialN': 26, 'loaded': True, 'loadedTime': 3429.5, 'positionName': 'LEFT', 'positionCoords': [511.6, 335], 'bid': 6.63}, {'imgObject': {}, 'id': 'blackbeanswithrice', 'src': '/static/foodstim60/blackbeanswithrice.jpg', 'key': 'i', 'origWidth': 410, 'origHeight': 410, 'width': 410, 'height': 410, 'widthPercent': 0.45, 'rescaleHeight': False, 'trialN': 26, 'loaded': True, 'loadedTime': 3533.10000000149, 'positionName': 'RIGHT', 'positionCoords': [998.4, 335], 'bid': 8.53}]",50327.0,1669835891333,bagel and cc,blackbeanswithrice,6.63,8.53,1.8999999999999995,blackbeanswithrice,1626.300000000745,1630,1629.300000000745,True,i,52463.0,2136.0,1669835893469,2136,HRV,HRV_0241,2022-11-30 19:22:41
27,"[{'imgObject': {}, 'id': 'hashbrowns', 'src': '/static/foodstim60/hashbrowns.jpg', 'key': 'u', 'origWidth': 411, 'origHeight': 410, 'width': 411, 'height': 410, 'widthPercent': 0.45, 'rescaleHeight': False, 'trialN': 27, 'loaded': True, 'loadedTime': 3544, 'positionName': 'LEFT', 'positionCoords': [510.6, 335], 'bid': 0.46}, {'imgObject': {}, 'id': 'luckycharms', 'src': '/static/foodstim60/luckycharms.jpg', 'key': 'i', 'origWidth': 410, 'origHeight': 409, 'width': 410, 'height': 409, 'widthPercent': 0.45, 'rescaleHeight': False, 'trialN': 27, 'loaded': True, 'loadedTime': 3554.400000002235, 'positionName': 'RIGHT', 'positionCoords': [998.4, 335.5], 'bid': 0.06}]",52463.400000002235,1669835893470,hashbrowns,luckycharms,0.46,0.06,-0.4,hashbrowns,1747.8999999985099,1751,1751.199999999255,True,u,54718.800000000745,2255.39999999851,1669835895725,2255,HRV,HRV_0241,2022-11-30 19:22:41
28,"[{'imgObject': {}, 'id': 'rigatoni', 'src': '/static/foodstim60/rigatoni.jpg', 'key': 'u', 'origWidth': 411, 'origHeight': 411, 'width': 411, 'height': 411, 'widthPercent': 0.45, 'rescaleHeight': False, 'trialN': 28, 'loaded': True, 'loadedTime': 3326.800000000745, 'positionName': 'LEFT', 'positionCoords': [510.6, 334.5], 'bid': 5.09}, {'imgObject': {}, 'id': 'bagel plain', 'src': '/static/foodstim60/bagel plain.jpg', 'key': 'i', 'origWidth': 410, 'origHeight': 410, 'width': 410, 'height': 410, 'widthPercent': 0.45, 'rescaleHeight': False, 'trialN': 28, 'loaded': True, 'loadedTime': 3317.699999999255, 'positionName': 'RIGHT', 'positionCoords': [998.4, 335], 'bid': 6.22}]",54719.300000000745,1669835895726,rigatoni,bagel plain,5.09,6.22,1.13,bagel plain,1371.0,1375,1374.8999999985099,True,i,56598.900000002235,1879.6000000014901,1669835897605,1879,HRV,HRV_0241,2022-11-30 19:22:41
29,"[{'imgObject': {}, 'id': 'lox', 'src': '/static/foodstim60/lox.jpg', 'key': 'u', 'origWidth': 410, 'origHeight': 411, 'width': 410, 'height': 411, 'widthPercent': 0.45, 'rescaleHeight': False, 'trialN': 29, 'loaded': True, 'loadedTime': 3234, 'positionName': 'LEFT', 'positionCoords': [511.6, 334.5], 'bid': 7.04}, {'imgObject': {}, 'id': 'salmon', 'src': '/static/foodstim60/salmon.jpg', 'key': 'i', 'origWidth': 410, 'origHeight': 409, 'width': 410, 'height': 409, 'widthPercent': 0.45, 'rescaleHeight': False, 'trialN': 29, 'loaded': True, 'loadedTime': 3570, 'positionName': 'RIGHT', 'positionCoords': [998.4, 335.5], 'bid': 7.32}]",56599.300000000745,1669835897606,lox,salmon,7.04,7.32,0.28000000000000025,salmon,1246.0,1249,1249.0,True,i,58350.699999999255,1751.3999999985099,1669835899357,1751,HRV,HRV_0241,2022-11-30 19:22:41
30,"[{'imgObject': {}, 'id': 'cherry tomato', 'src': '/static/foodstim60/cherry tomato.jpg', 'key': 'u', 'origWidth': 410, 'origHeight': 410, 'width': 410, 'height': 410, 'widthPercent': 0.45, 'rescaleHeight': False, 'trialN': 30, 'loaded': True, 'loadedTime': 3063.5, 'positionName': 'LEFT', 'positionCoords': [511.6, 335], 'bid': 4.07}, {'imgObject': {}, 'id': 'cheerios', 'src': '/static/foodstim60/cheerios.jpg', 'key': 'i', 'origWidth': 409, 'origHeight': 410, 'width': 409, 'height': 410, 'widthPercent': 0.45, 'rescaleHeight': False, 'trialN': 30, 'loaded': True, 'loadedTime': 3438.60000000149, 'positionName': 'RIGHT', 'positionCoords': [998.4, 335], 'bid': 3.86}]",58351.0,1669835899357,cherry tomato,cheerios,4.07,3.86,-0.2100000000000004,cherry tomato,1587.300000000745,1590,1590.1000000014901,True,u,60446.60000000149,2095.60000000149,1669835901453,2096,HRV,HRV_0241,2022-11-30 19:22:41
31,"[{'imgObject': {}, 'id': 'roastedpotatoes', 'src': '/static/foodstim60/roastedpotatoes.jpg', 'key': 'u', 'origWidth': 409, 'origHeight': 410, 'width': 409, 'height': 410, 'widthPercent': 0.45, 'rescaleHeight': False, 'trialN': 31, 'loaded': True, 'loadedTime': 3447.199999999255, 'positionName': 'LEFT', 'positionCoords': [512.6, 335], 'bid': 9.32}, {'imgObject': {}, 'id': 'tacos', 'src': '/static/foodstim60/tacos.jpg', 'key': 'i', 'origWidth': 411, 'origHeight': 411, 'width': 411, 'height': 411, 'widthPercent': 0.45, 'rescaleHeight': False, 'trialN': 31, 'loaded': True, 'loadedTime': 3589.300000000745, 'positionName': 'RIGHT', 'positionCoords': [998.4, 334.5], 'bid': 9.11}]",60446.900000002235,1669835901453,roastedpotatoes,tacos,9.32,9.11,-0.21000000000000085,roastedpotatoes,1433.3999999985099,1436,1436.199999999255,True,u,62390.699999999255,1943.7999999970198,1669835903397,1944,HRV,HRV_0241,2022-11-30 19:22:41
32,"[{'imgObject': {}, 'id': 'kiwi', 'src': '/static/foodstim60/kiwi.jpg', 'key': 'u', 'origWidth': 410, 'origHeight': 410, 'width': 410, 'height': 410, 'widthPercent': 0.45, 'rescaleHeight': False, 'trialN': 32, 'loaded': True, 'loadedTime': 3166.400000002235, 'positionName': 'LEFT', 'positionCoords': [511.6, 335], 'bid': 8.01}, {'imgObject': {}, 'id': 'luckycharms', 'src': '/static/foodstim60/luckycharms.jpg', 'key': 'i', 'origWidth': 410, 'origHeight': 409, 'width': 410, 'height': 409, 'widthPercent': 0.45, 'rescaleHeight': False, 'trialN': 32, 'loaded': True, 'loadedTime': 3567.699999999255, 'positionName': 'RIGHT', 'positionCoords': [998.4, 335.5], 'bid': 0.06}]",62391.10000000149,1669835903397,kiwi,luckycharms,8.01,0.06,-7.95,kiwi,1454.199999999255,1457,1456.8999999985099,True,u,64350.699999999255,1959.5999999977648,1669835905357,1960,HRV,HRV_0241,2022-11-30 19:22:41
33,"[{'imgObject': {}, 'id': 'burger', 'src': '/static/foodstim60/burger.jpg', 'key': 'u', 'origWidth': 409, 'origHeight': 409, 'width': 409, 'height': 409, 'widthPercent': 0.45, 'rescaleHeight': False, 'trialN': 33, 'loaded': True, 'loadedTime': 3457.60000000149, 'positionName': 'LEFT', 'positionCoords': [512.6, 335.5], 'bid': 9.91}, {'imgObject': {}, 'id': 'omelette', 'src': '/static/foodstim60/omelette.jpg', 'key': 'i', 'origWidth': 410, 'origHeight': 409, 'width': 410, 'height': 409, 'widthPercent': 0.45, 'rescaleHeight': False, 'trialN': 33, 'loaded': True, 'loadedTime': 3498.60000000149, 'positionName': 'RIGHT', 'positionCoords': [998.4, 335.5], 'bid': 9.82}]",64351.0,1669835905357,burger,omelette,9.91,9.82,-0.08999999999999986,burger,1170.300000000745,1173,1173.0,True,u,66031.10000000149,1680.1000000014901,1669835907037,1680,HRV,HRV_0241,2022-11-30 19:22:41
34,"[{'imgObject': {}, 'id': 'Tribe humus pita', 'src': '/static/foodstim60/Tribe humus pita.jpg', 'key': 'u', 'origWidth': 411, 'origHeight': 411, 'width': 411, 'height': 411, 'widthPercent': 0.45, 'rescaleHeight': False, 'trialN': 34, 'loaded': True, 'loadedTime': 3601.10000000149, 'positionName': 'LEFT', 'positionCoords': [510.6, 334.5], 'bid': 6.41}, {'imgObject': {}, 'id': 'mashed potato', 'src': '/static/foodstim60/mashed potato.jpg', 'key': 'i', 'origWidth': 409, 'origHeight': 409, 'width': 409, 'height': 409, 'widthPercent': 0.45, 'rescaleHeight': False, 'trialN': 34, 'loaded': True, 'loadedTime': 3603, 'positionName': 'RIGHT', 'positionCoords': [998.4, 335.5], 'bid': 8.23}]",66031.5,1669835907038,Tribe humus pita,mashed potato,6.41,8.23,1.8200000000000003,mashed potato,1214.800000000745,1216,1216.6000000014901,True,i,67750.60000000149,1719.1000000014901,1669835908757,1719,HRV,HRV_0241,2022-11-30 19:22:41
35,"[{'imgObject': {}, 'id': 'chicken nuggets2', 'src': '/static/foodstim60/chicken nuggets2.jpg', 'key': 'u', 'origWidth': 410, 'origHeight': 409, 'width': 410, 'height': 409, 'widthPercent': 0.45, 'rescaleHeight': False, 'trialN': 35, 'loaded': True, 'loadedTime': 3274.5, 'positionName': 'LEFT', 'positionCoords': [511.6, 335.5], 'bid': 0.18}, {'imgObject': {}, 'id': 'luckycharms', 'src': '/static/foodstim60/luckycharms.jpg', 'key': 'i', 'origWidth': 410, 'origHeight': 409, 'width': 410, 'height': 409, 'widthPercent': 0.45, 'rescaleHeight': False, 'trialN': 35, 'loaded': True, 'loadedTime': 3567.400000002235, 'positionName': 'RIGHT', 'positionCoords': [998.4, 335.5], 'bid': 0.06}]",67750.80000000075,1669835908757,chicken nuggets2,luckycharms,0.18,0.06,-0.12,chicken nuggets2,1624.5,1628,1628.0,True,u,69887.0,2136.199999999255,1669835910893,2136,HRV,HRV_0241,2022-11-30 19:22:41
36,"[{'imgObject': {}, 'id': 'salmon', 'src': '/static/foodstim60/salmon.jpg', 'key': 'u', 'origWidth': 410, 'origHeight': 409, 'width': 410, 'height': 409, 'widthPercent': 0.45, 'rescaleHeight': False, 'trialN': 36, 'loaded': True, 'loadedTime': 3570.199999999255, 'positionName': 'LEFT', 'positionCoords': [511.6, 335.5], 'bid': 7.32}, {'imgObject': {}, 'id': 'burger', 'src': '/static/foodstim60/burger.jpg', 'key': 'i', 'origWidth': 409, 'origHeight': 409, 'width': 409, 'height': 409, 'widthPercent': 0.45, 'rescaleHeight': False, 'trialN': 36, 'loaded': True, 'loadedTime': 3459.900000002235, 'positionName': 'RIGHT', 'positionCoords': [998.4, 335.5], 'bid': 9.91}]",69887.30000000075,1669835910894,salmon,burger,7.32,9.91,2.59,burger,1098.0,1100,1099.800000000745,True,i,71495.0,1607.699999999255,1669835912501,1607,HRV,HRV_0241,2022-11-30 19:22:41
37,"[{'imgObject': {}, 'id': 'froot loops w milk', 'src': '/static/foodstim60/froot loops w milk.jpg', 'key': 'u', 'origWidth': 410, 'origHeight': 410, 'width': 410, 'height': 410, 'widthPercent': 0.45, 'rescaleHeight': False, 'trialN': 37, 'loaded': True, 'loadedTime': 3616.400000002235, 'positionName': 'LEFT', 'positionCoords': [511.6, 335], 'bid': 0.19}, {'imgObject': {}, 'id': 'rigatoni', 'src': '/static/foodstim60/rigatoni.jpg', 'key': 'i', 'origWidth': 411, 'origHeight': 411, 'width': 411, 'height': 411, 'widthPercent': 0.45, 'rescaleHeight': False, 'trialN': 37, 'loaded': True, 'loadedTime': 3325.199999999255, 'positionName': 'RIGHT', 'positionCoords': [998.4, 334.5], 'bid': 5.09}]",71495.30000000075,1669835912502,froot loops w milk,rigatoni,0.19,5.09,4.8999999999999995,rigatoni,1135.0,1136,1136.3999999985099,True,i,73134.69999999925,1639.3999999985099,1669835914141,1639,HRV,HRV_0241,2022-11-30 19:22:41
38,"[{'imgObject': {}, 'id': 'chicken nuggets2', 'src': '/static/foodstim60/chicken nuggets2.jpg', 'key': 'u', 'origWidth': 410, 'origHeight': 409, 'width': 410, 'height': 409, 'widthPercent': 0.45, 'rescaleHeight': False, 'trialN': 38, 'loaded': True, 'loadedTime': 3283.400000002235, 'positionName': 'LEFT', 'positionCoords': [511.6, 335.5], 'bid': 0.18}, {'imgObject': {}, 'id': 'raisin bran w milk', 'src': '/static/foodstim60/raisin bran w milk.jpg', 'key': 'i', 'origWidth': 411, 'origHeight': 411, 'width': 411, 'height': 411, 'widthPercent': 0.45, 'rescaleHeight': False, 'trialN': 38, 'loaded': True, 'loadedTime': 3394, 'positionName': 'RIGHT', 'positionCoords': [998.4, 334.5], 'bid': 5.04}]",73135.10000000149,1669835914141,chicken nuggets2,raisin bran w milk,0.18,5.04,4.86,raisin bran w milk,1276.199999999255,1279,1278.5999999977648,True,i,74918.60000000149,1783.5,1669835915925,1784,HRV,HRV_0241,2022-11-30 19:22:41
39,"[{'imgObject': {}, 'id': 'banana', 'src': '/static/foodstim60/banana.jpg', 'key': 'u', 'origWidth': 410, 'origHeight': 410, 'width': 410, 'height': 410, 'widthPercent': 0.45, 'rescaleHeight': False, 'trialN': 39, 'loaded': True, 'loadedTime': 3618.400000002235, 'positionName': 'LEFT', 'positionCoords': [511.6, 335], 'bid': 9.52}, {'imgObject': {}, 'id': 'steak', 'src': '/static/foodstim60/steak.jpg', 'key': 'i', 'origWidth': 410, 'origHeight': 410, 'width': 410, 'height': 410, 'widthPercent': 0.45, 'rescaleHeight': False, 'trialN': 39, 'loaded': True, 'loadedTime': 3632, 'positionName': 'RIGHT', 'positionCoords': [998.4, 335], 'bid': 9.89}]",74918.69999999925,1669835915925,banana,steak,9.52,9.89,0.370000000000001,steak,925.6000000014901,929,928.6000000014901,True,i,76350.60000000149,1431.9000000022352,1669835917357,1432,HRV,HRV_0241,2022-11-30 19:22:41
40,"[{'imgObject': {}, 'id': 'mac & cheese', 'src': '/static/foodstim60/mac & cheese.jpg', 'key': 'u', 'origWidth': 410, 'origHeight': 410, 'width': 410, 'height': 410, 'widthPercent': 0.45, 'rescaleHeight': False, 'trialN': 40, 'loaded': True, 'loadedTime': 3647.10000000149, 'positionName': 'LEFT', 'positionCoords': [511.6, 335], 'bid': 9.72}, {'imgObject': {}, 'id': 'blackbeanswithrice', 'src': '/static/foodstim60/blackbeanswithrice.jpg', 'key': 'i', 'origWidth': 410, 'origHeight': 410, 'width': 410, 'height': 410, 'widthPercent': 0.45, 'rescaleHeight': False, 'trialN': 40, 'loaded': True, 'loadedTime': 3527.199999999255, 'positionName': 'RIGHT', 'positionCoords': [998.4, 335], 'bid': 8.53}]",76350.90000000224,1669835917357,mac & cheese,blackbeanswithrice,9.72,8.53,-1.1900000000000013,mac & cheese,1520.3999999985099,1524,1523.2999999970198,True,u,78374.90000000224,2024.0,1669835919381,2024,HRV,HRV_0241,2022-11-30 19:22:41
41,"[{'imgObject': {}, 'id': 'raspberries', 'src': '/static/foodstim60/raspberries.jpg', 'key': 'u', 'origWidth': 411, 'origHeight': 411, 'width': 411, 'height': 411, 'widthPercent': 0.45, 'rescaleHeight': False, 'trialN': 41, 'loaded': True, 'loadedTime': 3335.800000000745, 'positionName': 'LEFT', 'positionCoords': [510.6, 334.5], 'bid': 9.36}, {'imgObject': {}, 'id': 'strawberries', 'src': '/static/foodstim60/strawberries.jpg', 'key': 'i', 'origWidth': 410, 'origHeight': 410, 'width': 410, 'height': 410, 'widthPercent': 0.45, 'rescaleHeight': False, 'trialN': 41, 'loaded': True, 'loadedTime': 3667.900000002235, 'positionName': 'RIGHT', 'positionCoords': [998.4, 335], 'bid': 8.89}]",78375.19999999925,1669835919382,raspberries,strawberries,9.36,8.89,-0.46999999999999886,raspberries,1831.1000000014901,1833,1833.800000000745,True,u,80711.0,2335.800000000745,1669835921717,2335,HRV,HRV_0241,2022-11-30 19:22:41
42,"[{'imgObject': {}, 'id': 'edamame', 'src': '/static/foodstim60/edamame.jpg', 'key': 'u', 'origWidth': 409, 'origHeight': 410, 'width': 409, 'height': 410, 'widthPercent': 0.45, 'rescaleHeight': False, 'trialN': 42, 'loaded': True, 'loadedTime': 3679.900000002235, 'positionName': 'LEFT', 'positionCoords': [512.6, 335], 'bid': 5.86}, {'imgObject': {}, 'id': 'fruitsalad', 'src': '/static/foodstim60/fruitsalad.jpg', 'key': 'i', 'origWidth': 410, 'origHeight': 410, 'width': 410, 'height': 410, 'widthPercent': 0.45, 'rescaleHeight': False, 'trialN': 42, 'loaded': True, 'loadedTime': 3383.400000002235, 'positionName': 'RIGHT', 'positionCoords': [998.4, 335], 'bid': 9.64}]",80711.19999999925,1669835921718,edamame,fruitsalad,5.86,9.64,3.7800000000000002,fruitsalad,1068.1000000014901,1070,1070.800000000745,True,i,82287.0,1575.800000000745,1669835923293,1575,HRV,HRV_0241,2022-11-30 19:22:41
43,"[{'imgObject': {}, 'id': 'burrito', 'src': '/static/foodstim60/burrito.jpg', 'key': 'u', 'origWidth': 410, 'origHeight': 410, 'width': 410, 'height': 410, 'widthPercent': 0.45, 'rescaleHeight': False, 'trialN': 43, 'loaded': True, 'loadedTime': 3412, 'positionName': 'LEFT', 'positionCoords': [511.6, 335], 'bid': 8.61}, {'imgObject': {}, 'id': 'lox', 'src': '/static/foodstim60/lox.jpg', 'key': 'i', 'origWidth': 410, 'origHeight': 411, 'width': 410, 'height': 411, 'widthPercent': 0.45, 'rescaleHeight': False, 'trialN': 43, 'loaded': True, 'loadedTime': 3234.900000002235, 'positionName': 'RIGHT', 'positionCoords': [998.4, 334.5], 'bid': 7.04}]",82287.40000000224,1669835923294,burrito,lox,8.61,7.04,-1.5699999999999994,burrito,1082.8999999985099,1086,1085.7999999970198,True,u,83879.0,1591.5999999977648,1669835924885,1591,HRV,HRV_0241,2022-11-30 19:22:41
44,"[{'imgObject': {}, 'id': 'blueberries', 'src': '/static/foodstim60/blueberries.jpg', 'key': 'u', 'origWidth': 411, 'origHeight': 411, 'width': 411, 'height': 411, 'widthPercent': 0.45, 'rescaleHeight': False, 'trialN': 44, 'loaded': True, 'loadedTime': 3680.60000000149, 'positionName': 'LEFT', 'positionCoords': [510.6, 334.5], 'bid': 9.87}, {'imgObject': {}, 'id': 'steak', 'src': '/static/foodstim60/steak.jpg', 'key': 'i', 'origWidth': 410, 'origHeight': 410, 'width': 410, 'height': 410, 'widthPercent': 0.45, 'rescaleHeight': False, 'trialN': 44, 'loaded': True, 'loadedTime': 3632.199999999255, 'positionName': 'RIGHT', 'positionCoords': [998.4, 335], 'bid': 9.89}]",83879.30000000075,1669835924886,blueberries,steak,9.87,9.89,0.02000000000000135,steak,1333.0,1335,1335.800000000745,True,i,85718.69999999925,1839.3999999985099,1669835926725,1839,HRV,HRV_0241,2022-11-30 19:22:41
45,"[{'imgObject': {}, 'id': 'omelette', 'src': '/static/foodstim60/omelette.jpg', 'key': 'u', 'origWidth': 410, 'origHeight': 409, 'width': 410, 'height': 409, 'widthPercent': 0.45, 'rescaleHeight': False, 'trialN': 45, 'loaded': True, 'loadedTime': 3487.800000000745, 'positionName': 'LEFT', 'positionCoords': [511.6, 335.5], 'bid': 9.82}, {'imgObject': {}, 'id': 'fried eggs', 'src': '/static/foodstim60/fried eggs.jpg', 'key': 'i', 'origWidth': 410, 'origHeight': 410, 'width': 410, 'height': 410, 'widthPercent': 0.45, 'rescaleHeight': False, 'trialN': 45, 'loaded': True, 'loadedTime': 3307.800000000745, 'positionName': 'RIGHT', 'positionCoords': [998.4, 335], 'bid': 9.81}]",85719.10000000149,1669835926725,omelette,fried eggs,9.82,9.81,-0.009999999999999787,fried eggs,1127.199999999255,1131,1130.0999999977648,True,i,87350.90000000224,1631.800000000745,1669835928357,1632,HRV,HRV_0241,2022-11-30 19:22:41
46,"[{'imgObject': {}, 'id': 'rigatoni', 'src': '/static/foodstim60/rigatoni.jpg', 'key': 'u', 'origWidth': 411, 'origHeight': 411, 'width': 411, 'height': 411, 'widthPercent': 0.45, 'rescaleHeight': False, 'trialN': 46, 'loaded': True, 'loadedTime': 3326.5, 'positionName': 'LEFT', 'positionCoords': [510.6, 334.5], 'bid': 5.09}, {'imgObject': {}, 'id': 'salad w chicken', 'src': '/static/foodstim60/salad w chicken.jpg', 'key': 'i', 'origWidth': 411, 'origHeight': 411, 'width': 411, 'height': 411, 'widthPercent': 0.45, 'rescaleHeight': False, 'trialN': 46, 'loaded': True, 'loadedTime': 3250.400000002235, 'positionName': 'RIGHT', 'positionCoords': [998.4, 334.5], 'bid': 7.4}]",87351.30000000075,1669835928358,rigatoni,salad w chicken,5.09,7.4,2.3100000000000005,salad w chicken,1075.0,1078,1078.800000000745,True,i,88934.69999999925,1583.3999999985099,1669835929941,1583,HRV,HRV_0241,2022-11-30 19:22:41
47,"[{'imgObject': {}, 'id': 'avocado', 'src': '/static/foodstim60/avocado.jpg', 'key': 'u', 'origWidth': 409, 'origHeight': 409, 'width': 409, 'height': 409, 'widthPercent': 0.45, 'rescaleHeight': False, 'trialN': 47, 'loaded': True, 'loadedTime': 3696.60000000149, 'positionName': 'LEFT', 'positionCoords': [512.6, 335.5], 'bid': 9.87}, {'imgObject': {}, 'id': 'steak', 'src': '/static/foodstim60/steak.jpg', 'key': 'i', 'origWidth': 410, 'origHeight': 410, 'width': 410, 'height': 410, 'widthPercent': 0.45, 'rescaleHeight': False, 'trialN': 47, 'loaded': True, 'loadedTime': 3645, 'positionName': 'RIGHT', 'positionCoords': [998.4, 335], 'bid': 9.89}]",88935.10000000149,1669835929941,avocado,steak,9.87,9.89,0.02000000000000135,steak,1228.199999999255,1232,1231.300000000745,True,i,90670.80000000075,1735.699999999255,1669835931677,1736,HRV,HRV_0241,2022-11-30 19:22:41
48,"[{'imgObject': {}, 'id': 'Tribe humus pita', 'src': '/static/foodstim60/Tribe humus pita.jpg', 'key': 'u', 'origWidth': 411, 'origHeight': 411, 'width': 411, 'height': 411, 'widthPercent': 0.45, 'rescaleHeight': False, 'trialN': 48, 'loaded': True, 'loadedTime': 3601.5, 'positionName': 'LEFT', 'positionCoords': [510.6, 334.5], 'bid': 6.41}, {'imgObject': {}, 'id': 'bagel and cc', 'src': '/static/foodstim60/bagel and cc.jpg', 'key': 'i', 'origWidth': 410, 'origHeight': 410, 'width': 410, 'height': 410, 'widthPercent': 0.45, 'rescaleHeight': False, 'trialN': 48, 'loaded': True, 'loadedTime': 3422.400000002235, 'positionName': 'RIGHT', 'positionCoords': [998.4, 335], 'bid': 6.63}]",90671.10000000149,1669835931677,Tribe humus pita,bagel and cc,6.41,6.63,0.21999999999999975,bagel and cc,1059.199999999255,1062,1061.8999999985099,True,i,92239.0,1567.8999999985099,1669835933245,1568,HRV,HRV_0241,2022-11-30 19:22:41
49,"[{'imgObject': {}, 'id': 'hashbrowns', 'src': '/static/foodstim60/hashbrowns.jpg', 'key': 'u', 'origWidth': 411, 'origHeight': 410, 'width': 411, 'height': 410, 'widthPercent': 0.45, 'rescaleHeight': False, 'trialN': 49, 'loaded': True, 'loadedTime': 3534.5, 'positionName': 'LEFT', 'positionCoords': [510.6, 335], 'bid': 0.46}, {'imgObject': {}, 'id': 'seaweed', 'src': '/static/foodstim60/seaweed.jpg', 'key': 'i', 'origWidth': 410, 'origHeight': 410, 'width': 410, 'height': 410, 'widthPercent': 0.45, 'rescaleHeight': False, 'trialN': 49, 'loaded': True, 'loadedTime': 3707.60000000149, 'positionName': 'RIGHT', 'positionCoords': [998.4, 335], 'bid': 0.27}]",92239.40000000224,1669835933246,hashbrowns,seaweed,0.46,0.27,-0.19,hashbrowns,855.8999999985099,858,858.5999999977648,True,u,93598.90000000224,1359.5,1669835934605,1359,HRV,HRV_0241,2022-11-30 19:22:41
50,"[{'imgObject': {}, 'id': 'veggieswithdip', 'src': '/static/foodstim60/veggieswithdip.jpg', 'key': 'u', 'origWidth': 409, 'origHeight': 409, 'width': 409, 'height': 409, 'widthPercent': 0.45, 'rescaleHeight': False, 'trialN': 50, 'loaded': True, 'loadedTime': 3708.400000002235, 'positionName': 'LEFT', 'positionCoords': [512.6, 335.5], 'bid': 6.29}, {'imgObject': {}, 'id': 'hotdog w must', 'src': '/static/foodstim60/hotdog w must.jpg', 'key': 'i', 'origWidth': 409, 'origHeight': 409, 'width': 409, 'height': 409, 'widthPercent': 0.45, 'rescaleHeight': False, 'trialN': 50, 'loaded': True, 'loadedTime': 3348.800000000745, 'positionName': 'RIGHT', 'positionCoords': [998.4, 335.5], 'bid': 5.17}]",93599.19999999925,1669835934606,veggieswithdip,hotdog w must,6.29,5.17,-1.12,hotdog w must,1607.1000000014901,1616,1616.800000000745,True,i,95719.10000000149,2119.900000002235,1669835936725,2119,HRV,HRV_0241,2022-11-30 19:22:41
51,"[{'imgObject': {}, 'id': 'raisin bran w milk', 'src': '/static/foodstim60/raisin bran w milk.jpg', 'key': 'u', 'origWidth': 411, 'origHeight': 411, 'width': 411, 'height': 411, 'widthPercent': 0.45, 'rescaleHeight': False, 'trialN': 51, 'loaded': True, 'loadedTime': 3394.199999999255, 'positionName': 'LEFT', 'positionCoords': [510.6, 334.5], 'bid': 5.04}, {'imgObject': {}, 'id': 'cherries', 'src': '/static/foodstim60/cherries.jpg', 'key': 'i', 'origWidth': 410, 'origHeight': 411, 'width': 410, 'height': 411, 'widthPercent': 0.45, 'rescaleHeight': False, 'trialN': 51, 'loaded': True, 'loadedTime': 3710.800000000745, 'positionName': 'RIGHT', 'positionCoords': [998.4, 334.5], 'bid': 6.19}]",95719.40000000224,1669835936726,raisin bran w milk,cherries,5.04,6.19,1.1500000000000004,cherries,1079.8999999985099,1083,1082.7999999970198,True,i,97302.69999999925,1583.2999999970198,1669835938309,1583,HRV,HRV_0241,2022-11-30 19:22:41
52,"[{'imgObject': {}, 'id': 'ice cream sundae 002', 'src': '/static/foodstim60/ice cream sundae 002.jpg', 'key': 'u', 'origWidth': 409, 'origHeight': 409, 'width': 409, 'height': 409, 'widthPercent': 0.45, 'rescaleHeight': False, 'trialN': 52, 'loaded': True, 'loadedTime': 3712.800000000745, 'positionName': 'LEFT', 'positionCoords': [512.6, 335.5], 'bid': 3.27}, {'imgObject': {}, 'id': 'popsicles', 'src': '/static/foodstim60/popsicles.jpg', 'key': 'i', 'origWidth': 410, 'origHeight': 410, 'width': 410, 'height': 410, 'widthPercent': 0.45, 'rescaleHeight': False, 'trialN': 52, 'loaded': True, 'loadedTime': 3826.60000000149, 'positionName': 'RIGHT', 'positionCoords': [998.4, 335], 'bid': 0.14}]",97302.69999999925,1669835938309,ice cream sundae 002,popsicles,3.27,0.14,-3.13,ice cream sundae 002,1018.6000000014901,1021,1021.5,True,u,98830.69999999925,1528.0,1669835939837,1528,HRV,HRV_0241,2022-11-30 19:22:41
53,"[{'imgObject': {}, 'id': 'tacos', 'src': '/static/foodstim60/tacos.jpg', 'key': 'u', 'origWidth': 411, 'origHeight': 411, 'width': 411, 'height': 411, 'widthPercent': 0.45, 'rescaleHeight': False, 'trialN': 53, 'loaded': True, 'loadedTime': 3590.199999999255, 'positionName': 'LEFT', 'positionCoords': [510.6, 334.5], 'bid': 9.11}, {'imgObject': {}, 'id': 'cocktailshrimp', 'src': '/static/foodstim60/cocktailshrimp.jpg', 'key': 'i', 'origWidth': 410, 'origHeight': 410, 'width': 410, 'height': 410, 'widthPercent': 0.45, 'rescaleHeight': False, 'trialN': 53, 'loaded': True, 'loadedTime': 3724.199999999255, 'positionName': 'RIGHT', 'positionCoords': [998.4, 335], 'bid': 9.82}]",98831.0,1669835939837,tacos,cocktailshrimp,9.11,9.82,0.7100000000000009,cocktailshrimp,1490.300000000745,1494,1494.1000000014901,True,i,100831.0,2000.0,1669835941837,2000,HRV,HRV_0241,2022-11-30 19:22:41
54,"[{'imgObject': {}, 'id': 'cherries', 'src': '/static/foodstim60/cherries.jpg', 'key': 'u', 'origWidth': 410, 'origHeight': 411, 'width': 410, 'height': 411, 'widthPercent': 0.45, 'rescaleHeight': False, 'trialN': 54, 'loaded': True, 'loadedTime': 3712.400000002235, 'positionName': 'LEFT', 'positionCoords': [511.6, 334.5], 'bid': 6.19}, {'imgObject': {}, 'id': 'cheerios', 'src': '/static/foodstim60/cheerios.jpg', 'key': 'i', 'origWidth': 409, 'origHeight': 410, 'width': 409, 'height': 410, 'widthPercent': 0.45, 'rescaleHeight': False, 'trialN': 54, 'loaded': True, 'loadedTime': 3438.60000000149, 'positionName': 'RIGHT', 'positionCoords': [998.4, 335], 'bid': 3.86}]",100831.30000000075,1669835941838,cherries,cheerios,6.19,3.86,-2.3300000000000005,cherries,1371.0,1373,1373.6000000014901,True,u,102710.69999999925,1879.3999999985099,1669835943717,1879,HRV,HRV_0241,2022-11-30 19:22:41
55,"[{'imgObject': {}, 'id': 'raisin bran w milk', 'src': '/static/foodstim60/raisin bran w milk.jpg', 'key': 'u', 'origWidth': 411, 'origHeight': 411, 'width': 411, 'height': 411, 'widthPercent': 0.45, 'rescaleHeight': False, 'trialN': 55, 'loaded': True, 'loadedTime': 3401.900000002235, 'positionName': 'LEFT', 'positionCoords': [510.6, 334.5], 'bid': 5.04}, {'imgObject': {}, 'id': 'salmon', 'src': '/static/foodstim60/salmon.jpg', 'key': 'i', 'origWidth': 410, 'origHeight': 409, 'width': 410, 'height': 409, 'widthPercent': 0.45, 'rescaleHeight': False, 'trialN': 55, 'loaded': True, 'loadedTime': 3567.900000002235, 'positionName': 'RIGHT', 'positionCoords': [998.4, 335.5], 'bid': 7.32}]",102711.10000000149,1669835943717,raisin bran w milk,salmon,5.04,7.32,2.2800000000000002,salmon,1076.199999999255,1079,1078.800000000745,True,i,104295.10000000149,1584.0,1669835945301,1584,HRV,HRV_0241,2022-11-30 19:22:41
56,"[{'imgObject': {}, 'id': 'sweetpotato', 'src': '/static/foodstim60/sweetpotato.jpg', 'key': 'u', 'origWidth': 410, 'origHeight': 410, 'width': 410, 'height': 410, 'widthPercent': 0.45, 'rescaleHeight': False, 'trialN': 56, 'loaded': True, 'loadedTime': 3728.300000000745, 'positionName': 'LEFT', 'positionCoords': [511.6, 335], 'bid': 7.26}, {'imgObject': {}, 'id': 'orange slices', 'src': '/static/foodstim60/orange slices.jpg', 'key': 'i', 'origWidth': 409, 'origHeight': 410, 'width': 409, 'height': 410, 'widthPercent': 0.45, 'rescaleHeight': False, 'trialN': 56, 'loaded': True, 'loadedTime': 3128.199999999255, 'positionName': 'RIGHT', 'positionCoords': [998.4, 335], 'bid': 8.32}]",104295.69999999925,1669835945302,sweetpotato,orange slices,7.26,8.32,1.0600000000000005,sweetpotato,1340.6000000014901,1343,1343.0,True,u,106142.69999999925,1847.0,1669835947149,1847,HRV,HRV_0241,2022-11-30 19:22:41
57,"[{'imgObject': {}, 'id': 'grilled chicken strips', 'src': '/static/foodstim60/grilled chicken strips.jpg', 'key': 'u', 'origWidth': 410, 'origHeight': 411, 'width': 410, 'height': 411, 'widthPercent': 0.45, 'rescaleHeight': False, 'trialN': 57, 'loaded': True, 'loadedTime': 3730.800000000745, 'positionName': 'LEFT', 'positionCoords': [511.6, 334.5], 'bid': 9.01}, {'imgObject': {}, 'id': 'blueberries', 'src': '/static/foodstim60/blueberries.jpg', 'key': 'i', 'origWidth': 411, 'origHeight': 411, 'width': 411, 'height': 411, 'widthPercent': 0.45, 'rescaleHeight': False, 'trialN': 57, 'loaded': True, 'loadedTime': 3681.699999999255, 'positionName': 'RIGHT', 'positionCoords': [998.4, 334.5], 'bid': 9.87}]",106143.10000000149,1669835947149,grilled chicken strips,blueberries,9.01,9.87,0.8599999999999994,blueberries,907.1999999992549,910,909.5,True,i,107559.0,1415.8999999985099,1669835948565,1416,HRV,HRV_0241,2022-11-30 19:22:41
58,"[{'imgObject': {}, 'id': 'Tribe humus pita', 'src': '/static/foodstim60/Tribe humus pita.jpg', 'key': 'u', 'origWidth': 411, 'origHeight': 411, 'width': 411, 'height': 411, 'widthPercent': 0.45, 'rescaleHeight': False, 'trialN': 58, 'loaded': True, 'loadedTime': 3600.900000002235, 'positionName': 'LEFT', 'positionCoords': [510.6, 334.5], 'bid': 6.41}, {'imgObject': {}, 'id': 'omelette', 'src': '/static/foodstim60/omelette.jpg', 'key': 'i', 'origWidth': 410, 'origHeight': 409, 'width': 410, 'height': 409, 'widthPercent': 0.45, 'rescaleHeight': False, 'trialN': 58, 'loaded': True, 'loadedTime': 3487.199999999255, 'positionName': 'RIGHT', 'positionCoords': [998.4, 335.5], 'bid': 9.82}]",107559.30000000075,1669835948566,Tribe humus pita,omelette,6.41,9.82,3.41,omelette,1058.0,1060,1060.800000000745,True,i,109126.90000000224,1567.6000000014901,1669835950133,1567,HRV,HRV_0241,2022-11-30 19:22:41
59,"[{'imgObject': {}, 'id': 'fried eggs', 'src': '/static/foodstim60/fried eggs.jpg', 'key': 'u', 'origWidth': 410, 'origHeight': 410, 'width': 410, 'height': 410, 'widthPercent': 0.45, 'rescaleHeight': False, 'trialN': 59, 'loaded': True, 'loadedTime': 3301.300000000745, 'positionName': 'LEFT', 'positionCoords': [511.6, 335], 'bid': 9.81}, {'imgObject': {}, 'id': 'baked potato', 'src': '/static/foodstim60/baked potato.jpg', 'key': 'i', 'origWidth': 409, 'origHeight': 410, 'width': 409, 'height': 410, 'widthPercent': 0.45, 'rescaleHeight': False, 'trialN': 59, 'loaded': True, 'loadedTime': 3419.900000002235, 'positionName': 'RIGHT', 'positionCoords': [998.4, 335], 'bid': 8.6}]",109127.10000000149,1669835950133,fried eggs,baked potato,9.81,8.6,-1.2100000000000009,baked potato,1864.199999999255,1868,1867.800000000745,True,i,111503.0,2375.89999999851,1669835952509,2376,HRV,HRV_0241,2022-11-30 19:22:41
60,"[{'imgObject': {}, 'id': 'cocktailshrimp', 'src': '/static/foodstim60/cocktailshrimp.jpg', 'key': 'u', 'origWidth': 410, 'origHeight': 410, 'width': 410, 'height': 410, 'widthPercent': 0.45, 'rescaleHeight': False, 'trialN': 60, 'loaded': True, 'loadedTime': 3726.300000000745, 'positionName': 'LEFT', 'positionCoords': [511.6, 335], 'bid': 9.82}, {'imgObject': {}, 'id': 'veggieswithdip', 'src': '/static/foodstim60/veggieswithdip.jpg', 'key': 'i', 'origWidth': 409, 'origHeight': 409, 'width': 409, 'height': 409, 'widthPercent': 0.45, 'rescaleHeight': False, 'trialN': 60, 'loaded': True, 'loadedTime': 3709.900000002235, 'positionName': 'RIGHT', 'positionCoords': [998.4, 335.5], 'bid': 6.29}]",111503.40000000224,1669835952510,cocktailshrimp,veggieswithdip,9.82,6.29,-3.5300000000000002,cocktailshrimp,998.8999999985099,1001,1001.5999999977648,True,u,113006.90000000224,1503.5,1669835954013,1503,HRV,HRV_0241,2022-11-30 19:22:41
61,"[{'imgObject': {}, 'id': 'olives', 'src': '/static/foodstim60/olives.jpg', 'key': 'u', 'origWidth': 410, 'origHeight': 410, 'width': 410, 'height': 410, 'widthPercent': 0.45, 'rescaleHeight': False, 'trialN': 61, 'loaded': True, 'loadedTime': 3221.5, 'positionName': 'LEFT', 'positionCoords': [511.6, 335], 'bid': 6.67}, {'imgObject': {}, 'id': 'sweetpotato', 'src': '/static/foodstim60/sweetpotato.jpg', 'key': 'i', 'origWidth': 410, 'origHeight': 410, 'width': 410, 'height': 410, 'widthPercent': 0.45, 'rescaleHeight': False, 'trialN': 61, 'loaded': True, 'loadedTime': 3728.400000002235, 'positionName': 'RIGHT', 'positionCoords': [998.4, 335], 'bid': 7.26}]",113007.30000000075,1669835954014,olives,sweetpotato,6.67,7.26,0.5899999999999999,sweetpotato,1221.0,1224,1224.0,True,i,114734.80000000075,1727.5,1669835955741,1727,HRV,HRV_0241,2022-11-30 19:22:41
62,"[{'imgObject': {}, 'id': 'mango', 'src': '/static/foodstim60/mango.jpg', 'key': 'u', 'origWidth': 411, 'origHeight': 411, 'width': 411, 'height': 411, 'widthPercent': 0.45, 'rescaleHeight': False, 'trialN': 62, 'loaded': True, 'loadedTime': 3732.199999999255, 'positionName': 'LEFT', 'positionCoords': [510.6, 334.5], 'bid': 9.41}, {'imgObject': {}, 'id': 'yogurt no spoon', 'src': '/static/foodstim60/yogurt no spoon.jpg', 'key': 'i', 'origWidth': 411, 'origHeight': 410, 'width': 411, 'height': 410, 'widthPercent': 0.45, 'rescaleHeight': False, 'trialN': 62, 'loaded': True, 'loadedTime': 3266.5, 'positionName': 'RIGHT', 'positionCoords': [998.4, 335], 'bid': 8.9}]",114735.10000000149,1669835955741,mango,yogurt no spoon,9.41,8.9,-0.5099999999999998,yogurt no spoon,1334.199999999255,1338,1337.3999999985099,True,i,116574.90000000224,1839.800000000745,1669835957581,1840,HRV,HRV_0241,2022-11-30 19:22:41
63,"[{'imgObject': {}, 'id': 'olives', 'src': '/static/foodstim60/olives.jpg', 'key': 'u', 'origWidth': 410, 'origHeight': 410, 'width': 410, 'height': 410, 'widthPercent': 0.45, 'rescaleHeight': False, 'trialN': 63, 'loaded': True, 'loadedTime': 3220.800000000745, 'positionName': 'LEFT', 'positionCoords': [511.6, 335], 'bid': 6.67}, {'imgObject': {}, 'id': 'kiwi', 'src': '/static/foodstim60/kiwi.jpg', 'key': 'i', 'origWidth': 410, 'origHeight': 410, 'width': 410, 'height': 410, 'widthPercent': 0.45, 'rescaleHeight': False, 'trialN': 63, 'loaded': True, 'loadedTime': 3178, 'positionName': 'RIGHT', 'positionCoords': [998.4, 335], 'bid': 8.01}]",116575.40000000224,1669835957582,olives,kiwi,6.67,8.01,1.3399999999999999,olives,1378.8999999985099,1381,1381.3999999985099,True,u,118462.69999999925,1887.2999999970198,1669835959469,1887,HRV,HRV_0241,2022-11-30 19:22:41
64,"[{'imgObject': {}, 'id': 'blackbeanswithrice', 'src': '/static/foodstim60/blackbeanswithrice.jpg', 'key': 'u', 'origWidth': 410, 'origHeight': 410, 'width': 410, 'height': 410, 'widthPercent': 0.45, 'rescaleHeight': False, 'trialN': 64, 'loaded': True, 'loadedTime': 3532.400000002235, 'positionName': 'LEFT', 'positionCoords': [511.6, 335], 'bid': 8.53}, {'imgObject': {}, 'id': 'froot loops w milk', 'src': '/static/foodstim60/froot loops w milk.jpg', 'key': 'i', 'origWidth': 410, 'origHeight': 410, 'width': 410, 'height': 410, 'widthPercent': 0.45, 'rescaleHeight': False, 'trialN': 64, 'loaded': True, 'loadedTime': 3614.900000002235, 'positionName': 'RIGHT', 'positionCoords': [998.4, 335], 'bid': 0.19}]",118462.90000000224,1669835959469,blackbeanswithrice,froot loops w milk,8.53,0.19,-8.34,blackbeanswithrice,906.3999999985099,908,908.0,True,u,119878.69999999925,1415.7999999970198,1669835960885,1416,HRV,HRV_0241,2022-11-30 19:22:41
65,"[{'imgObject': {}, 'id': 'chickenfingers', 'src': '/static/foodstim60/chickenfingers.jpg', 'key': 'u', 'origWidth': 410, 'origHeight': 410, 'width': 410, 'height': 410, 'widthPercent': 0.45, 'rescaleHeight': False, 'trialN': 65, 'loaded': True, 'loadedTime': 3485.60000000149, 'positionName': 'LEFT', 'positionCoords': [511.6, 335], 'bid': 8.71}, {'imgObject': {}, 'id': 'hashbrowns', 'src': '/static/foodstim60/hashbrowns.jpg', 'key': 'i', 'origWidth': 411, 'origHeight': 410, 'width': 411, 'height': 410, 'widthPercent': 0.45, 'rescaleHeight': False, 'trialN': 65, 'loaded': True, 'loadedTime': 3533.10000000149, 'positionName': 'RIGHT', 'positionCoords': [998.4, 335], 'bid': 0.46}]",119878.90000000224,1669835960885,chickenfingers,hashbrowns,8.71,0.46,-8.25,chickenfingers,925.3999999985099,928,927.8999999985099,True,u,121310.69999999925,1431.7999999970198,1669835962317,1432,HRV,HRV_0241,2022-11-30 19:22:41
66,"[{'imgObject': {}, 'id': 'hotdog w must', 'src': '/static/foodstim60/hotdog w must.jpg', 'key': 'u', 'origWidth': 409, 'origHeight': 409, 'width': 409, 'height': 409, 'widthPercent': 0.45, 'rescaleHeight': False, 'trialN': 66, 'loaded': True, 'loadedTime': 3350, 'positionName': 'LEFT', 'positionCoords': [512.6, 335.5], 'bid': 5.17}, {'imgObject': {}, 'id': 'seaweed', 'src': '/static/foodstim60/seaweed.jpg', 'key': 'i', 'origWidth': 410, 'origHeight': 410, 'width': 410, 'height': 410, 'widthPercent': 0.45, 'rescaleHeight': False, 'trialN': 66, 'loaded': True, 'loadedTime': 3697.300000000745, 'positionName': 'RIGHT', 'positionCoords': [998.4, 335], 'bid': 0.27}]",121311.10000000149,1669835962317,hotdog w must,seaweed,5.17,0.27,-4.9,hotdog w must,943.1999999992549,948,947.5999999977648,True,u,122767.0,1455.8999999985099,1669835963773,1456,HRV,HRV_0241,2022-11-30 19:22:41
67,"[{'imgObject': {}, 'id': 'edamame', 'src': '/static/foodstim60/edamame.jpg', 'key': 'u', 'origWidth': 409, 'origHeight': 410, 'width': 409, 'height': 410, 'widthPercent': 0.45, 'rescaleHeight': False, 'trialN': 67, 'loaded': True, 'loadedTime': 3670.400000002235, 'positionName': 'LEFT', 'positionCoords': [512.6, 335], 'bid': 5.86}, {'imgObject': {}, 'id': 'corn cob', 'src': '/static/foodstim60/corn cob.jpg', 'key': 'i', 'origWidth': 411, 'origHeight': 411, 'width': 411, 'height': 411, 'widthPercent': 0.45, 'rescaleHeight': False, 'trialN': 67, 'loaded': True, 'loadedTime': 3733.699999999255, 'positionName': 'RIGHT', 'positionCoords': [998.4, 334.5], 'bid': 6.48}]",122767.30000000075,1669835963774,edamame,corn cob,5.86,6.48,0.6200000000000001,corn cob,1064.0,1067,1067.300000000745,True,i,124342.69999999925,1575.3999999985099,1669835965349,1575,HRV,HRV_0241,2022-11-30 19:22:41
68,"[{'imgObject': {}, 'id': 'apple slices', 'src': '/static/foodstim60/apple slices.jpg', 'key': 'u', 'origWidth': 409, 'origHeight': 410, 'width': 409, 'height': 410, 'widthPercent': 0.45, 'rescaleHeight': False, 'trialN': 68, 'loaded': True, 'loadedTime': 3003.199999999255, 'positionName': 'LEFT', 'positionCoords': [512.6, 335], 'bid': 9.9}, {'imgObject': {}, 'id': 'burger', 'src': '/static/foodstim60/burger.jpg', 'key': 'i', 'origWidth': 409, 'origHeight': 409, 'width': 409, 'height': 409, 'widthPercent': 0.45, 'rescaleHeight': False, 'trialN': 68, 'loaded': True, 'loadedTime': 3459.60000000149, 'positionName': 'RIGHT', 'positionCoords': [998.4, 335.5], 'bid': 9.91}]",124343.10000000149,1669835965349,apple slices,burger,9.9,9.91,0.009999999999999787,burger,1066.199999999255,1070,1069.300000000745,True,i,125919.10000000149,1576.0,1669835966925,1576,HRV,HRV_0241,2022-11-30 19:22:41
69,"[{'imgObject': {}, 'id': 'chickenfingers', 'src': '/static/foodstim60/chickenfingers.jpg', 'key': 'u', 'origWidth': 410, 'origHeight': 410, 'width': 410, 'height': 410, 'widthPercent': 0.45, 'rescaleHeight': False, 'trialN': 69, 'loaded': True, 'loadedTime': 3473.400000002235, 'positionName': 'LEFT', 'positionCoords': [511.6, 335], 'bid': 8.71}, {'imgObject': {}, 'id': 'roastedpotatoes', 'src': '/static/foodstim60/roastedpotatoes.jpg', 'key': 'i', 'origWidth': 409, 'origHeight': 410, 'width': 409, 'height': 410, 'widthPercent': 0.45, 'rescaleHeight': False, 'trialN': 69, 'loaded': True, 'loadedTime': 3447.400000002235, 'positionName': 'RIGHT', 'positionCoords': [998.4, 335], 'bid': 9.32}]",125919.5,1669835966926,chickenfingers,roastedpotatoes,8.71,9.32,0.6099999999999994,chickenfingers,1259.800000000745,1261,1261.6000000014901,True,u,127686.80000000075,1767.300000000745,1669835968693,1767,HRV,HRV_0241,2022-11-30 19:22:41
70,"[{'imgObject': {}, 'id': 'rigatoni and sauce', 'src': '/static/foodstim60/rigatoni and sauce.jpg', 'key': 'u', 'origWidth': 410, 'origHeight': 411, 'width': 410, 'height': 411, 'widthPercent': 0.45, 'rescaleHeight': False, 'trialN': 70, 'loaded': True, 'loadedTime': 3154.400000002235, 'positionName': 'LEFT', 'positionCoords': [511.6, 334.5], 'bid': 9.65}, {'imgObject': {}, 'id': 'Grapes', 'src': '/static/foodstim60/Grapes.jpg', 'key': 'i', 'origWidth': 411, 'origHeight': 411, 'width': 411, 'height': 411, 'widthPercent': 0.45, 'rescaleHeight': False, 'trialN': 70, 'loaded': True, 'loadedTime': 3299.400000002235, 'positionName': 'RIGHT', 'positionCoords': [998.4, 334.5], 'bid': 6.09}]",127687.19999999925,1669835968694,rigatoni and sauce,Grapes,9.65,6.09,-3.5600000000000005,rigatoni and sauce,1604.1000000014901,1606,1606.9000000022352,True,u,129798.69999999925,2111.5,1669835970805,2111,HRV,HRV_0241,2022-11-30 19:22:41
71,"[{'imgObject': {}, 'id': 'cocktailshrimp', 'src': '/static/foodstim60/cocktailshrimp.jpg', 'key': 'u', 'origWidth': 410, 'origHeight': 410, 'width': 410, 'height': 410, 'widthPercent': 0.45, 'rescaleHeight': False, 'trialN': 71, 'loaded': True, 'loadedTime': 3725.900000002235, 'positionName': 'LEFT', 'positionCoords': [511.6, 335], 'bid': 9.82}, {'imgObject': {}, 'id': 'mac & cheese', 'src': '/static/foodstim60/mac & cheese.jpg', 'key': 'i', 'origWidth': 410, 'origHeight': 410, 'width': 410, 'height': 410, 'widthPercent': 0.45, 'rescaleHeight': False, 'trialN': 71, 'loaded': True, 'loadedTime': 3656.400000002235, 'positionName': 'RIGHT', 'positionCoords': [998.4, 335], 'bid': 9.72}]",129798.90000000224,1669835970805,cocktailshrimp,mac & cheese,9.82,9.72,-0.09999999999999964,mac & cheese,832.3999999985099,836,835.8999999985099,True,i,131142.5,1343.5999999977648,1669835972149,1344,HRV,HRV_0241,2022-11-30 19:22:41
72,"[{'imgObject': {}, 'id': 'eggs', 'src': '/static/foodstim60/eggs.jpg', 'key': 'u', 'origWidth': 409, 'origHeight': 409, 'width': 409, 'height': 409, 'widthPercent': 0.45, 'rescaleHeight': False, 'trialN': 72, 'loaded': True, 'loadedTime': 3735, 'positionName': 'LEFT', 'positionCoords': [512.6, 335.5], 'bid': 9.85}, {'imgObject': {}, 'id': 'blueberries', 'src': '/static/foodstim60/blueberries.jpg', 'key': 'i', 'origWidth': 411, 'origHeight': 411, 'width': 411, 'height': 411, 'widthPercent': 0.45, 'rescaleHeight': False, 'trialN': 72, 'loaded': True, 'loadedTime': 3693.5, 'positionName': 'RIGHT', 'positionCoords': [998.4, 334.5], 'bid': 9.87}]",131142.69999999925,1669835972149,eggs,blueberries,9.85,9.87,0.019999999999999574,blueberries,1134.6000000014901,1138,1138.0,True,i,132782.80000000075,1640.1000000014901,1669835973789,1640,HRV,HRV_0241,2022-11-30 19:22:41
73,"[{'imgObject': {}, 'id': 'strawberries', 'src': '/static/foodstim60/strawberries.jpg', 'key': 'u', 'origWidth': 410, 'origHeight': 410, 'width': 410, 'height': 410, 'widthPercent': 0.45, 'rescaleHeight': False, 'trialN': 73, 'loaded': True, 'loadedTime': 3668.300000000745, 'positionName': 'LEFT', 'positionCoords': [511.6, 335], 'bid': 8.89}, {'imgObject': {}, 'id': 'eggs', 'src': '/static/foodstim60/eggs.jpg', 'key': 'i', 'origWidth': 409, 'origHeight': 409, 'width': 409, 'height': 409, 'widthPercent': 0.45, 'rescaleHeight': False, 'trialN': 73, 'loaded': True, 'loadedTime': 3735.300000000745, 'positionName': 'RIGHT', 'positionCoords': [998.4, 335.5], 'bid': 9.85}]",132783.19999999925,1669835973790,strawberries,eggs,8.89,9.85,0.9599999999999991,eggs,845.1000000014901,848,848.4000000022352,True,i,134134.90000000224,1351.7000000029802,1669835975141,1351,HRV,HRV_0241,2022-11-30 19:22:41
74,"[{'imgObject': {}, 'id': 'lox', 'src': '/static/foodstim60/lox.jpg', 'key': 'u', 'origWidth': 410, 'origHeight': 411, 'width': 410, 'height': 411, 'widthPercent': 0.45, 'rescaleHeight': False, 'trialN': 74, 'loaded': True, 'loadedTime': 3241.800000000745, 'positionName': 'LEFT', 'positionCoords': [511.6, 334.5], 'bid': 7.04}, {'imgObject': {}, 'id': 'shreddedwheatwithmilk', 'src': '/static/foodstim60/shreddedwheatwithmilk.jpg', 'key': 'i', 'origWidth': 410, 'origHeight': 410, 'width': 410, 'height': 410, 'widthPercent': 0.45, 'rescaleHeight': False, 'trialN': 74, 'loaded': True, 'loadedTime': 3735.5, 'positionName': 'RIGHT', 'positionCoords': [998.4, 335], 'bid': 5}]",134135.30000000075,1669835975142,lox,shreddedwheatwithmilk,7.04,5.0,-2.04,lox,1493.0,1495,1495.3999999985099,True,u,136135.0,1999.699999999255,1669835977141,1999,HRV,HRV_0241,2022-11-30 19:22:41
75,"[{'imgObject': {}, 'id': 'hotdog w must', 'src': '/static/foodstim60/hotdog w must.jpg', 'key': 'u', 'origWidth': 409, 'origHeight': 409, 'width': 409, 'height': 409, 'widthPercent': 0.45, 'rescaleHeight': False, 'trialN': 75, 'loaded': True, 'loadedTime': 3359.400000002235, 'positionName': 'LEFT', 'positionCoords': [512.6, 335.5], 'bid': 5.17}, {'imgObject': {}, 'id': 'mango', 'src': '/static/foodstim60/mango.jpg', 'key': 'i', 'origWidth': 411, 'origHeight': 411, 'width': 411, 'height': 411, 'widthPercent': 0.45, 'rescaleHeight': False, 'trialN': 75, 'loaded': True, 'loadedTime': 3731.10000000149, 'positionName': 'RIGHT', 'positionCoords': [998.4, 334.5], 'bid': 9.41}]",136135.30000000075,1669835977142,hotdog w must,mango,5.17,9.41,4.24,mango,1046.0,1047,1047.300000000745,True,i,137686.80000000075,1551.5,1669835978693,1551,HRV,HRV_0241,2022-11-30 19:22:41
76,"[{'imgObject': {}, 'id': 'salmon', 'src': '/static/foodstim60/salmon.jpg', 'key': 'u', 'origWidth': 410, 'origHeight': 409, 'width': 410, 'height': 409, 'widthPercent': 0.45, 'rescaleHeight': False, 'trialN': 76, 'loaded': True, 'loadedTime': 3570.300000000745, 'positionName': 'LEFT', 'positionCoords': [511.6, 335.5], 'bid': 7.32}, {'imgObject': {}, 'id': 'strawberries', 'src': '/static/foodstim60/strawberries.jpg', 'key': 'i', 'origWidth': 410, 'origHeight': 410, 'width': 410, 'height': 410, 'widthPercent': 0.45, 'rescaleHeight': False, 'trialN': 76, 'loaded': True, 'loadedTime': 3668.60000000149, 'positionName': 'RIGHT', 'positionCoords': [998.4, 335], 'bid': 8.89}]",137687.30000000075,1669835978694,salmon,strawberries,7.32,8.89,1.5700000000000003,salmon,802.0,805,805.1000000014901,True,u,138999.0,1311.699999999255,1669835980005,1311,HRV,HRV_0241,2022-11-30 19:22:41
77,"[{'imgObject': {}, 'id': 'fried eggs', 'src': '/static/foodstim60/fried eggs.jpg', 'key': 'u', 'origWidth': 410, 'origHeight': 410, 'width': 410, 'height': 410, 'widthPercent': 0.45, 'rescaleHeight': False, 'trialN': 77, 'loaded': True, 'loadedTime': 3308.60000000149, 'positionName': 'LEFT', 'positionCoords': [511.6, 335], 'bid': 9.81}, {'imgObject': {}, 'id': 'cantaloupe', 'src': '/static/foodstim60/cantaloupe.jpg', 'key': 'i', 'origWidth': 409, 'origHeight': 409, 'width': 409, 'height': 409, 'widthPercent': 0.45, 'rescaleHeight': False, 'trialN': 77, 'loaded': True, 'loadedTime': 3512.5, 'positionName': 'RIGHT', 'positionCoords': [998.4, 335.5], 'bid': 10}]",138999.40000000224,1669835980006,fried eggs,cantaloupe,9.81,10.0,0.1899999999999995,cantaloupe,1183.8999999985099,1187,1187.3999999985099,True,i,140694.69999999925,1695.2999999970198,1669835981701,1695,HRV,HRV_0241,2022-11-30 19:22:41
78,"[{'imgObject': {}, 'id': 'hashbrowns', 'src': '/static/foodstim60/hashbrowns.jpg', 'key': 'u', 'origWidth': 411, 'origHeight': 410, 'width': 411, 'height': 410, 'widthPercent': 0.45, 'rescaleHeight': False, 'trialN': 78, 'loaded': True, 'loadedTime': 3553.800000000745, 'positionName': 'LEFT', 'positionCoords': [510.6, 335], 'bid': 0.46}, {'imgObject': {}, 'id': 'Tribe humus pita', 'src': '/static/foodstim60/Tribe humus pita.jpg', 'key': 'i', 'origWidth': 411, 'origHeight': 411, 'width': 411, 'height': 411, 'widthPercent': 0.45, 'rescaleHeight': False, 'trialN': 78, 'loaded': True, 'loadedTime': 3601.60000000149, 'positionName': 'RIGHT', 'positionCoords': [998.4, 334.5], 'bid': 6.41}]",140695.0,1669835981701,hashbrowns,Tribe humus pita,0.46,6.41,5.95,hashbrowns,1353.300000000745,1356,1355.800000000745,True,u,142558.69999999925,1863.699999999255,1669835983565,1864,HRV,HRV_0241,2022-11-30 19:22:41
79,"[{'imgObject': {}, 'id': 'yogurt no spoon', 'src': '/static/foodstim60/yogurt no spoon.jpg', 'key': 'u', 'origWidth': 411, 'origHeight': 410, 'width': 411, 'height': 410, 'widthPercent': 0.45, 'rescaleHeight': False, 'trialN': 79, 'loaded': True, 'loadedTime': 3259.10000000149, 'positionName': 'LEFT', 'positionCoords': [510.6, 335], 'bid': 8.9}, {'imgObject': {}, 'id': 'cheerios', 'src': '/static/foodstim60/cheerios.jpg', 'key': 'i', 'origWidth': 409, 'origHeight': 410, 'width': 409, 'height': 410, 'widthPercent': 0.45, 'rescaleHeight': False, 'trialN': 79, 'loaded': True, 'loadedTime': 3438.199999999255, 'positionName': 'RIGHT', 'positionCoords': [998.4, 335], 'bid': 3.86}]",142559.0,1669835983565,yogurt no spoon,cheerios,8.9,3.86,-5.040000000000001,yogurt no spoon,1271.300000000745,1276,1275.300000000745,True,u,144334.80000000075,1775.800000000745,1669835985341,1776,HRV,HRV_0241,2022-11-30 19:22:41
80,"[{'imgObject': {}, 'id': 'kiwi', 'src': '/static/foodstim60/kiwi.jpg', 'key': 'u', 'origWidth': 410, 'origHeight': 410, 'width': 410, 'height': 410, 'widthPercent': 0.45, 'rescaleHeight': False, 'trialN': 80, 'loaded': True, 'loadedTime': 3177.199999999255, 'positionName': 'LEFT', 'positionCoords': [511.6, 335], 'bid': 8.01}, {'imgObject': {}, 'id': 'veggieswithdip', 'src': '/static/foodstim60/veggieswithdip.jpg', 'key': 'i', 'origWidth': 409, 'origHeight': 409, 'width': 409, 'height': 409, 'widthPercent': 0.45, 'rescaleHeight': False, 'trialN': 80, 'loaded': True, 'loadedTime': 3709.5, 'positionName': 'RIGHT', 'positionCoords': [998.4, 335.5], 'bid': 6.29}]",144335.1000000015,1669835985341,kiwi,veggieswithdip,8.01,6.29,-1.7199999999999998,kiwi,1729.199999999255,1733,1732.5,True,u,146574.80000000075,2239.699999999255,1669835987581,2240,HRV,HRV_0241,2022-11-30 19:22:41
81,"[{'imgObject': {}, 'id': 'rigatoni and sauce', 'src': '/static/foodstim60/rigatoni and sauce.jpg', 'key': 'u', 'origWidth': 410, 'origHeight': 411, 'width': 410, 'height': 411, 'widthPercent': 0.45, 'rescaleHeight': False, 'trialN': 81, 'loaded': True, 'loadedTime': 3166.199999999255, 'positionName': 'LEFT', 'positionCoords': [511.6, 334.5], 'bid': 9.65}, {'imgObject': {}, 'id': 'banana', 'src': '/static/foodstim60/banana.jpg', 'key': 'i', 'origWidth': 410, 'origHeight': 410, 'width': 410, 'height': 410, 'widthPercent': 0.45, 'rescaleHeight': False, 'trialN': 81, 'loaded': True, 'loadedTime': 3618.300000000745, 'positionName': 'RIGHT', 'positionCoords': [998.4, 335], 'bid': 9.52}]",146575.19999999925,1669835987582,rigatoni and sauce,banana,9.65,9.52,-0.13000000000000078,rigatoni and sauce,1251.1000000014901,1253,1254.0,True,u,148334.69999999925,1759.5,1669835989341,1759,HRV,HRV_0241,2022-11-30 19:22:41
82,"[{'imgObject': {}, 'id': 'cheerios', 'src': '/static/foodstim60/cheerios.jpg', 'key': 'u', 'origWidth': 409, 'origHeight': 410, 'width': 409, 'height': 410, 'widthPercent': 0.45, 'rescaleHeight': False, 'trialN': 82, 'loaded': True, 'loadedTime': 3436.900000002235, 'positionName': 'LEFT', 'positionCoords': [512.6, 335], 'bid': 3.86}, {'imgObject': {}, 'id': 'chicken nuggets2', 'src': '/static/foodstim60/chicken nuggets2.jpg', 'key': 'i', 'origWidth': 410, 'origHeight': 409, 'width': 410, 'height': 409, 'widthPercent': 0.45, 'rescaleHeight': False, 'trialN': 82, 'loaded': True, 'loadedTime': 3276.300000000745, 'positionName': 'RIGHT', 'positionCoords': [998.4, 335.5], 'bid': 0.18}]",148335.1000000015,1669835989341,cheerios,chicken nuggets2,3.86,0.18,-3.6799999999999997,cheerios,1650.199999999255,1653,1653.0,True,u,150495.0,2159.89999999851,1669835991501,2160,HRV,HRV_0241,2022-11-30 19:22:41
83,"[{'imgObject': {}, 'id': 'cantaloupe', 'src': '/static/foodstim60/cantaloupe.jpg', 'key': 'u', 'origWidth': 409, 'origHeight': 409, 'width': 409, 'height': 409, 'widthPercent': 0.45, 'rescaleHeight': False, 'trialN': 83, 'loaded': True, 'loadedTime': 3514.199999999255, 'positionName': 'LEFT', 'positionCoords': [512.6, 335.5], 'bid': 10}, {'imgObject': {}, 'id': 'avocado', 'src': '/static/foodstim60/avocado.jpg', 'key': 'i', 'origWidth': 409, 'origHeight': 409, 'width': 409, 'height': 409, 'widthPercent': 0.45, 'rescaleHeight': False, 'trialN': 83, 'loaded': True, 'loadedTime': 3695.800000000745, 'positionName': 'RIGHT', 'positionCoords': [998.4, 335.5], 'bid': 9.87}]",150495.5,1669835991502,cantaloupe,avocado,10.0,9.87,-0.13000000000000078,avocado,1851.800000000745,1854,1854.5,True,i,152855.0,2359.5,1669835993861,2359,HRV,HRV_0241,2022-11-30 19:22:41
84,"[{'imgObject': {}, 'id': 'Grapes', 'src': '/static/foodstim60/Grapes.jpg', 'key': 'u', 'origWidth': 411, 'origHeight': 411, 'width': 411, 'height': 411, 'widthPercent': 0.45, 'rescaleHeight': False, 'trialN': 84, 'loaded': True, 'loadedTime': 3291.5, 'positionName': 'LEFT', 'positionCoords': [510.6, 334.5], 'bid': 6.09}, {'imgObject': {}, 'id': 'bagel and cc', 'src': '/static/foodstim60/bagel and cc.jpg', 'key': 'i', 'origWidth': 410, 'origHeight': 410, 'width': 410, 'height': 410, 'widthPercent': 0.45, 'rescaleHeight': False, 'trialN': 84, 'loaded': True, 'loadedTime': 3421.5, 'positionName': 'RIGHT', 'positionCoords': [998.4, 335], 'bid': 6.63}]",152855.30000000075,1669835993862,Grapes,bagel and cc,6.09,6.63,0.54,Grapes,1121.0,1124,1124.3999999985099,True,u,154486.80000000075,1631.5,1669835995493,1631,HRV,HRV_0241,2022-11-30 19:22:41
85,"[{'imgObject': {}, 'id': 'turkey sandwich', 'src': '/static/foodstim60/turkey sandwich.jpg', 'key': 'u', 'origWidth': 409, 'origHeight': 409, 'width': 409, 'height': 409, 'widthPercent': 0.45, 'rescaleHeight': False, 'trialN': 85, 'loaded': True, 'loadedTime': 3039.400000002235, 'positionName': 'LEFT', 'positionCoords': [512.6, 335.5], 'bid': 9.12}, {'imgObject': {}, 'id': 'omelette', 'src': '/static/foodstim60/omelette.jpg', 'key': 'i', 'origWidth': 410, 'origHeight': 409, 'width': 410, 'height': 409, 'widthPercent': 0.45, 'rescaleHeight': False, 'trialN': 85, 'loaded': True, 'loadedTime': 3486.10000000149, 'positionName': 'RIGHT', 'positionCoords': [998.4, 335.5], 'bid': 9.82}]",154487.1000000015,1669835995493,turkey sandwich,omelette,9.12,9.82,0.7000000000000011,turkey sandwich,830.1999999992549,833,832.1999999992549,True,u,155822.80000000075,1335.699999999255,1669835996829,1336,HRV,HRV_0241,2022-11-30 19:22:41
86,"[{'imgObject': {}, 'id': 'blackbeanswithrice', 'src': '/static/foodstim60/blackbeanswithrice.jpg', 'key': 'u', 'origWidth': 410, 'origHeight': 410, 'width': 410, 'height': 410, 'widthPercent': 0.45, 'rescaleHeight': False, 'trialN': 86, 'loaded': True, 'loadedTime': 3532.800000000745, 'positionName': 'LEFT', 'positionCoords': [511.6, 335], 'bid': 8.53}, {'imgObject': {}, 'id': 'burrito', 'src': '/static/foodstim60/burrito.jpg', 'key': 'i', 'origWidth': 410, 'origHeight': 410, 'width': 410, 'height': 410, 'widthPercent': 0.45, 'rescaleHeight': False, 'trialN': 86, 'loaded': True, 'loadedTime': 3412.199999999255, 'positionName': 'RIGHT', 'positionCoords': [998.4, 335], 'bid': 8.61}]",155823.1000000015,1669835996829,blackbeanswithrice,burrito,8.53,8.61,0.08000000000000007,burrito,1303.199999999255,1306,1305.699999999255,True,i,157630.80000000075,1807.699999999255,1669835998637,1808,HRV,HRV_0241,2022-11-30 19:22:41
87,"[{'imgObject': {}, 'id': 'corn cob', 'src': '/static/foodstim60/corn cob.jpg', 'key': 'u', 'origWidth': 411, 'origHeight': 411, 'width': 411, 'height': 411, 'widthPercent': 0.45, 'rescaleHeight': False, 'trialN': 87, 'loaded': True, 'loadedTime': 3733.900000002235, 'positionName': 'LEFT', 'positionCoords': [510.6, 334.5], 'bid': 6.48}, {'imgObject': {}, 'id': 'veggieswithdip', 'src': '/static/foodstim60/veggieswithdip.jpg', 'key': 'i', 'origWidth': 409, 'origHeight': 409, 'width': 409, 'height': 409, 'widthPercent': 0.45, 'rescaleHeight': False, 'trialN': 87, 'loaded': True, 'loadedTime': 3710.5, 'positionName': 'RIGHT', 'positionCoords': [998.4, 335.5], 'bid': 6.29}]",157631.1000000015,1669835998637,corn cob,veggieswithdip,6.48,6.29,-0.1900000000000004,veggieswithdip,1241.199999999255,1245,1244.5,True,i,159383.0,1751.8999999985099,1669836000389,1752,HRV,HRV_0241,2022-11-30 19:22:41
88,"[{'imgObject': {}, 'id': 'mango', 'src': '/static/foodstim60/mango.jpg', 'key': 'u', 'origWidth': 411, 'origHeight': 411, 'width': 411, 'height': 411, 'widthPercent': 0.45, 'rescaleHeight': False, 'trialN': 88, 'loaded': True, 'loadedTime': 3732.300000000745, 'positionName': 'LEFT', 'positionCoords': [510.6, 334.5], 'bid': 9.41}, {'imgObject': {}, 'id': 'cantaloupe', 'src': '/static/foodstim60/cantaloupe.jpg', 'key': 'i', 'origWidth': 409, 'origHeight': 409, 'width': 409, 'height': 409, 'widthPercent': 0.45, 'rescaleHeight': False, 'trialN': 88, 'loaded': True, 'loadedTime': 3514.10000000149, 'positionName': 'RIGHT', 'positionCoords': [998.4, 335.5], 'bid': 10}]",159383.40000000224,1669836000390,mango,cantaloupe,9.41,10.0,0.5899999999999999,cantaloupe,1580.8999999985099,1584,1583.699999999255,True,i,161470.69999999925,2087.2999999970198,1669836002477,2087,HRV,HRV_0241,2022-11-30 19:22:41
89,"[{'imgObject': {}, 'id': 'fruitsalad', 'src': '/static/foodstim60/fruitsalad.jpg', 'key': 'u', 'origWidth': 410, 'origHeight': 410, 'width': 410, 'height': 410, 'widthPercent': 0.45, 'rescaleHeight': False, 'trialN': 89, 'loaded': True, 'loadedTime': 3392.5, 'positionName': 'LEFT', 'positionCoords': [511.6, 335], 'bid': 9.64}, {'imgObject': {}, 'id': 'mashed potato', 'src': '/static/foodstim60/mashed potato.jpg', 'key': 'i', 'origWidth': 409, 'origHeight': 409, 'width': 409, 'height': 409, 'widthPercent': 0.45, 'rescaleHeight': False, 'trialN': 89, 'loaded': True, 'loadedTime': 3614.800000000745, 'positionName': 'RIGHT', 'positionCoords': [998.4, 335.5], 'bid': 8.23}]",161471.1000000015,1669836002477,fruitsalad,mashed potato,9.64,8.23,-1.4100000000000001,fruitsalad,743.1999999992549,747,746.0999999977648,True,u,162718.80000000075,1247.699999999255,1669836003725,1248,HRV,HRV_0241,2022-11-30 19:22:41
90,"[{'imgObject': {}, 'id': 'popsicles', 'src': '/static/foodstim60/popsicles.jpg', 'key': 'u', 'origWidth': 410, 'origHeight': 410, 'width': 410, 'height': 410, 'widthPercent': 0.45, 'rescaleHeight': False, 'trialN': 90, 'loaded': True, 'loadedTime': 3827.900000002235, 'positionName': 'LEFT', 'positionCoords': [511.6, 335], 'bid': 0.14}, {'imgObject': {}, 'id': 'luckycharms', 'src': '/static/foodstim60/luckycharms.jpg', 'key': 'i', 'origWidth': 410, 'origHeight': 409, 'width': 410, 'height': 409, 'widthPercent': 0.45, 'rescaleHeight': False, 'trialN': 90, 'loaded': True, 'loadedTime': 3556.5, 'positionName': 'RIGHT', 'positionCoords': [998.4, 335.5], 'bid': 0.06}]",172654.90000000224,1669836013661,popsicles,luckycharms,0.14,0.06,-0.08000000000000002,luckycharms,873.3999999985099,876,875.6999999992549,True,i,174030.90000000224,1376.0,1669836015037,1376,HRV,HRV_0241,2022-11-30 19:22:41
91,"[{'imgObject': {}, 'id': 'mac & cheese', 'src': '/static/foodstim60/mac & cheese.jpg', 'key': 'u', 'origWidth': 410, 'origHeight': 410, 'width': 410, 'height': 410, 'widthPercent': 0.45, 'rescaleHeight': False, 'trialN': 91, 'loaded': True, 'loadedTime': 3646.900000002235, 'positionName': 'LEFT', 'positionCoords': [511.6, 335], 'bid': 9.72}, {'imgObject': {}, 'id': 'cherries', 'src': '/static/foodstim60/cherries.jpg', 'key': 'i', 'origWidth': 410, 'origHeight': 411, 'width': 410, 'height': 411, 'widthPercent': 0.45, 'rescaleHeight': False, 'trialN': 91, 'loaded': True, 'loadedTime': 3712.60000000149, 'positionName': 'RIGHT', 'positionCoords': [998.4, 334.5], 'bid': 6.19}]",174031.1000000015,1669836015037,mac & cheese,cherries,9.72,6.19,-3.5300000000000002,cherries,820.1999999992549,823,823.0,True,i,175359.0,1327.8999999985099,1669836016365,1328,HRV,HRV_0241,2022-11-30 19:22:41
92,"[{'imgObject': {}, 'id': 'orange slices', 'src': '/static/foodstim60/orange slices.jpg', 'key': 'u', 'origWidth': 409, 'origHeight': 410, 'width': 409, 'height': 410, 'widthPercent': 0.45, 'rescaleHeight': False, 'trialN': 92, 'loaded': True, 'loadedTime': 3146.199999999255, 'positionName': 'LEFT', 'positionCoords': [512.6, 335], 'bid': 8.32}, {'imgObject': {}, 'id': 'blackbeanswithrice', 'src': '/static/foodstim60/blackbeanswithrice.jpg', 'key': 'i', 'origWidth': 410, 'origHeight': 410, 'width': 410, 'height': 410, 'widthPercent': 0.45, 'rescaleHeight': False, 'trialN': 92, 'loaded': True, 'loadedTime': 3514.60000000149, 'positionName': 'RIGHT', 'positionCoords': [998.4, 335], 'bid': 8.53}]",175359.40000000224,1669836016366,orange slices,blackbeanswithrice,8.32,8.53,0.20999999999999908,blackbeanswithrice,1422.8999999985099,1425,1425.199999999255,True,i,177287.0,1927.5999999977648,1669836018293,1927,HRV,HRV_0241,2022-11-30 19:22:41
93,"[{'imgObject': {}, 'id': 'cocktailshrimp', 'src': '/static/foodstim60/cocktailshrimp.jpg', 'key': 'u', 'origWidth': 410, 'origHeight': 410, 'width': 410, 'height': 410, 'widthPercent': 0.45, 'rescaleHeight': False, 'trialN': 93, 'loaded': True, 'loadedTime': 3726.199999999255, 'positionName': 'LEFT', 'positionCoords': [511.6, 335], 'bid': 9.82}, {'imgObject': {}, 'id': 'burrito', 'src': '/static/foodstim60/burrito.jpg', 'key': 'i', 'origWidth': 410, 'origHeight': 410, 'width': 410, 'height': 410, 'widthPercent': 0.45, 'rescaleHeight': False, 'trialN': 93, 'loaded': True, 'loadedTime': 3412.10000000149, 'positionName': 'RIGHT', 'positionCoords': [998.4, 335], 'bid': 8.61}]",177287.30000000075,1669836018294,cocktailshrimp,burrito,9.82,8.61,-1.2100000000000009,cocktailshrimp,1199.0,1201,1200.8999999985099,True,u,178990.80000000075,1703.5,1669836019997,1703,HRV,HRV_0241,2022-11-30 19:22:41
94,"[{'imgObject': {}, 'id': 'seaweed', 'src': '/static/foodstim60/seaweed.jpg', 'key': 'u', 'origWidth': 410, 'origHeight': 410, 'width': 410, 'height': 410, 'widthPercent': 0.45, 'rescaleHeight': False, 'trialN': 94, 'loaded': True, 'loadedTime': 3699.5, 'positionName': 'LEFT', 'positionCoords': [511.6, 335], 'bid': 0.27}, {'imgObject': {}, 'id': 'shreddedwheatwithmilk', 'src': '/static/foodstim60/shreddedwheatwithmilk.jpg', 'key': 'i', 'origWidth': 410, 'origHeight': 410, 'width': 410, 'height': 410, 'widthPercent': 0.45, 'rescaleHeight': False, 'trialN': 94, 'loaded': True, 'loadedTime': 3736.60000000149, 'positionName': 'RIGHT', 'positionCoords': [998.4, 335], 'bid': 5}]",178991.19999999925,1669836019998,seaweed,shreddedwheatwithmilk,0.27,5.0,4.73,shreddedwheatwithmilk,992.1000000014901,995,995.3000000007451,True,i,180494.6000000015,1503.4000000022352,1669836021501,1503,HRV,HRV_0241,2022-11-30 19:22:41
95,"[{'imgObject': {}, 'id': 'turkey sandwich', 'src': '/static/foodstim60/turkey sandwich.jpg', 'key': 'u', 'origWidth': 409, 'origHeight': 409, 'width': 409, 'height': 409, 'widthPercent': 0.45, 'rescaleHeight': False, 'trialN': 95, 'loaded': True, 'loadedTime': 3027.199999999255, 'positionName': 'LEFT', 'positionCoords': [512.6, 335.5], 'bid': 9.12}, {'imgObject': {}, 'id': 'tacos', 'src': '/static/foodstim60/tacos.jpg', 'key': 'i', 'origWidth': 411, 'origHeight': 411, 'width': 411, 'height': 411, 'widthPercent': 0.45, 'rescaleHeight': False, 'trialN': 95, 'loaded': True, 'loadedTime': 3590.5, 'positionName': 'RIGHT', 'positionCoords': [998.4, 334.5], 'bid': 9.11}]",180495.30000000075,1669836021502,turkey sandwich,tacos,9.12,9.11,-0.009999999999999787,turkey sandwich,867.0,870,870.1999999992549,True,u,181871.0,1375.699999999255,1669836022877,1375,HRV,HRV_0241,2022-11-30 19:22:41
96,"[{'imgObject': {}, 'id': 'sweetpotato', 'src': '/static/foodstim60/sweetpotato.jpg', 'key': 'u', 'origWidth': 410, 'origHeight': 410, 'width': 410, 'height': 410, 'widthPercent': 0.45, 'rescaleHeight': False, 'trialN': 96, 'loaded': True, 'loadedTime': 3727.800000000745, 'positionName': 'LEFT', 'positionCoords': [511.6, 335], 'bid': 7.26}, {'imgObject': {}, 'id': 'granola w milk', 'src': '/static/foodstim60/granola w milk.jpg', 'key': 'i', 'origWidth': 410, 'origHeight': 410, 'width': 410, 'height': 410, 'widthPercent': 0.45, 'rescaleHeight': False, 'trialN': 96, 'loaded': True, 'loadedTime': 3072.699999999255, 'positionName': 'RIGHT', 'positionCoords': [998.4, 335], 'bid': 5.0200000000000005}]",181871.40000000224,1669836022878,sweetpotato,granola w milk,7.26,5.0200000000000005,-2.2399999999999993,sweetpotato,1209.8999999985099,1213,1213.199999999255,True,u,183590.80000000075,1719.3999999985099,1669836024597,1719,HRV,HRV_0241,2022-11-30 19:22:41
97,"[{'imgObject': {}, 'id': 'sushi w_condiments', 'src': '/static/foodstim60/sushi w_condiments.jpg', 'key': 'u', 'origWidth': 410, 'origHeight': 410, 'width': 410, 'height': 410, 'widthPercent': 0.45, 'rescaleHeight': False, 'trialN': 97, 'loaded': True, 'loadedTime': 3100.300000000745, 'positionName': 'LEFT', 'positionCoords': [511.6, 335], 'bid': 5.7700000000000005}, {'imgObject': {}, 'id': 'rigatoni', 'src': '/static/foodstim60/rigatoni.jpg', 'key': 'i', 'origWidth': 411, 'origHeight': 411, 'width': 411, 'height': 411, 'widthPercent': 0.45, 'rescaleHeight': False, 'trialN': 97, 'loaded': True, 'loadedTime': 3326.699999999255, 'positionName': 'RIGHT', 'positionCoords': [998.4, 334.5], 'bid': 5.09}]",183591.19999999925,1669836024597,sushi w_condiments,rigatoni,5.7700000000000005,5.09,-0.6800000000000006,sushi w_condiments,1199.1000000014901,1202,1201.7000000029802,True,u,185295.19999999925,1704.0,1669836026302,1705,HRV,HRV_0241,2022-11-30 19:22:41
98,"[{'imgObject': {}, 'id': 'eggs', 'src': '/static/foodstim60/eggs.jpg', 'key': 'u', 'origWidth': 409, 'origHeight': 409, 'width': 409, 'height': 409, 'widthPercent': 0.45, 'rescaleHeight': False, 'trialN': 98, 'loaded': True, 'loadedTime': 3734.10000000149, 'positionName': 'LEFT', 'positionCoords': [512.6, 335.5], 'bid': 9.85}, {'imgObject': {}, 'id': 'pear', 'src': '/static/foodstim60/pear.jpg', 'key': 'i', 'origWidth': 411, 'origHeight': 410, 'width': 411, 'height': 410, 'widthPercent': 0.45, 'rescaleHeight': False, 'trialN': 98, 'loaded': True, 'loadedTime': 3501.400000002235, 'positionName': 'RIGHT', 'positionCoords': [998.4, 335], 'bid': 9.92}]",185295.6000000015,1669836026302,eggs,pear,9.85,9.92,0.07000000000000028,eggs,1175.699999999255,1179,1179.0999999977648,True,u,186982.69999999925,1687.0999999977648,1669836027989,1687,HRV,HRV_0241,2022-11-30 19:22:41
99,"[{'imgObject': {}, 'id': 'baked potato', 'src': '/static/foodstim60/baked potato.jpg', 'key': 'u', 'origWidth': 409, 'origHeight': 410, 'width': 409, 'height': 410, 'widthPercent': 0.45, 'rescaleHeight': False, 'trialN': 99, 'loaded': True, 'loadedTime': 3418.400000002235, 'positionName': 'LEFT', 'positionCoords': [512.6, 335], 'bid': 8.6}, {'imgObject': {}, 'id': 'salad w chicken', 'src': '/static/foodstim60/salad w chicken.jpg', 'key': 'i', 'origWidth': 411, 'origHeight': 411, 'width': 411, 'height': 411, 'widthPercent': 0.45, 'rescaleHeight': False, 'trialN': 99, 'loaded': True, 'loadedTime': 3256.900000002235, 'positionName': 'RIGHT', 'positionCoords': [998.4, 334.5], 'bid': 7.4}]",186983.0,1669836027989,baked potato,salad w chicken,8.6,7.4,-1.1999999999999993,salad w chicken,1275.300000000745,1279,1278.800000000745,True,i,188766.80000000075,1783.800000000745,1669836029773,1784,HRV,HRV_0241,2022-11-30 19:22:41
100,"[{'imgObject': {}, 'id': 'avocado', 'src': '/static/foodstim60/avocado.jpg', 'key': 'u', 'origWidth': 409, 'origHeight': 409, 'width': 409, 'height': 409, 'widthPercent': 0.45, 'rescaleHeight': False, 'trialN': 100, 'loaded': True, 'loadedTime': 3696.400000002235, 'positionName': 'LEFT', 'positionCoords': [512.6, 335.5], 'bid': 9.87}, {'imgObject': {}, 'id': 'yogurt no spoon', 'src': '/static/foodstim60/yogurt no spoon.jpg', 'key': 'i', 'origWidth': 411, 'origHeight': 410, 'width': 411, 'height': 410, 'widthPercent': 0.45, 'rescaleHeight': False, 'trialN': 100, 'loaded': True, 'loadedTime': 3267.400000002235, 'positionName': 'RIGHT', 'positionCoords': [998.4, 335], 'bid': 8.9}]",188767.1000000015,1669836029774,avocado,yogurt no spoon,9.87,8.9,-0.9699999999999989,yogurt no spoon,1650.199999999255,1653,1653.300000000745,True,i,190927.0,2159.89999999851,1669836031933,2159,HRV,HRV_0241,2022-11-30 19:22:41
101,"[{'imgObject': {}, 'id': 'cherries', 'src': '/static/foodstim60/cherries.jpg', 'key': 'u', 'origWidth': 410, 'origHeight': 411, 'width': 410, 'height': 411, 'widthPercent': 0.45, 'rescaleHeight': False, 'trialN': 101, 'loaded': True, 'loadedTime': 3712.400000002235, 'positionName': 'LEFT', 'positionCoords': [511.6, 334.5], 'bid': 6.19}, {'imgObject': {}, 'id': 'froot loops w milk', 'src': '/static/foodstim60/froot loops w milk.jpg', 'key': 'i', 'origWidth': 410, 'origHeight': 410, 'width': 410, 'height': 410, 'widthPercent': 0.45, 'rescaleHeight': False, 'trialN': 101, 'loaded': True, 'loadedTime': 3616.60000000149, 'positionName': 'RIGHT', 'positionCoords': [998.4, 335], 'bid': 0.19}]",190927.40000000224,1669836031934,cherries,froot loops w milk,6.19,0.19,-6.0,cherries,908.8999999985099,912,912.0999999977648,True,u,192342.90000000224,1415.5,1669836033349,1415,HRV,HRV_0241,2022-11-30 19:22:41
102,"[{'imgObject': {}, 'id': 'eggsalad', 'src': '/static/foodstim60/eggsalad.jpg', 'key': 'u', 'origWidth': 410, 'origHeight': 409, 'width': 410, 'height': 409, 'widthPercent': 0.45, 'rescaleHeight': False, 'trialN': 102, 'loaded': True, 'loadedTime': 3089.199999999255, 'positionName': 'LEFT', 'positionCoords': [511.6, 335.5], 'bid': 0.4}, {'imgObject': {}, 'id': 'ice cream sundae 002', 'src': '/static/foodstim60/ice cream sundae 002.jpg', 'key': 'i', 'origWidth': 409, 'origHeight': 409, 'width': 409, 'height': 409, 'widthPercent': 0.45, 'rescaleHeight': False, 'trialN': 102, 'loaded': True, 'loadedTime': 3723.800000000745, 'positionName': 'RIGHT', 'positionCoords': [998.4, 335.5], 'bid': 3.27}]",192343.19999999925,1669836033350,eggsalad,ice cream sundae 002,0.4,3.27,2.87,eggsalad,1152.1000000014901,1156,1156.1000000014901,True,u,194007.0,1663.800000000745,1669836035013,1663,HRV,HRV_0241,2022-11-30 19:22:41
103,"[{'imgObject': {}, 'id': 'baked potato', 'src': '/static/foodstim60/baked potato.jpg', 'key': 'u', 'origWidth': 409, 'origHeight': 410, 'width': 409, 'height': 410, 'widthPercent': 0.45, 'rescaleHeight': False, 'trialN': 103, 'loaded': True, 'loadedTime': 3420.10000000149, 'positionName': 'LEFT', 'positionCoords': [512.6, 335], 'bid': 8.6}, {'imgObject': {}, 'id': 'seaweed', 'src': '/static/foodstim60/seaweed.jpg', 'key': 'i', 'origWidth': 410, 'origHeight': 410, 'width': 410, 'height': 410, 'widthPercent': 0.45, 'rescaleHeight': False, 'trialN': 103, 'loaded': True, 'loadedTime': 3707.900000002235, 'positionName': 'RIGHT', 'positionCoords': [998.4, 335], 'bid': 0.27}]",194007.30000000075,1669836035014,baked potato,seaweed,8.6,0.27,-8.33,baked potato,837.0,840,840.3999999985099,True,u,195350.69999999925,1343.3999999985099,1669836036357,1343,HRV,HRV_0241,2022-11-30 19:22:41
104,"[{'imgObject': {}, 'id': 'granola w milk', 'src': '/static/foodstim60/granola w milk.jpg', 'key': 'u', 'origWidth': 410, 'origHeight': 410, 'width': 410, 'height': 410, 'widthPercent': 0.45, 'rescaleHeight': False, 'trialN': 104, 'loaded': True, 'loadedTime': 3073.199999999255, 'positionName': 'LEFT', 'positionCoords': [511.6, 335], 'bid': 5.0200000000000005}, {'imgObject': {}, 'id': 'shreddedwheatwithmilk', 'src': '/static/foodstim60/shreddedwheatwithmilk.jpg', 'key': 'i', 'origWidth': 410, 'origHeight': 410, 'width': 410, 'height': 410, 'widthPercent': 0.45, 'rescaleHeight': False, 'trialN': 104, 'loaded': True, 'loadedTime': 3737, 'positionName': 'RIGHT', 'positionCoords': [998.4, 335], 'bid': 5}]",195350.90000000224,1669836036357,granola w milk,shreddedwheatwithmilk,5.0200000000000005,5.0,-0.020000000000000462,shreddedwheatwithmilk,1394.3999999985099,1398,1397.3999999985099,True,i,197255.0,1904.0999999977648,1669836038261,1904,HRV,HRV_0241,2022-11-30 19:22:41
105,"[{'imgObject': {}, 'id': 'hashbrowns', 'src': '/static/foodstim60/hashbrowns.jpg', 'key': 'u', 'origWidth': 411, 'origHeight': 410, 'width': 411, 'height': 410, 'widthPercent': 0.45, 'rescaleHeight': False, 'trialN': 105, 'loaded': True, 'loadedTime': 3544.199999999255, 'positionName': 'LEFT', 'positionCoords': [510.6, 335], 'bid': 0.46}, {'imgObject': {}, 'id': 'ice cream sundae 002', 'src': '/static/foodstim60/ice cream sundae 002.jpg', 'key': 'i', 'origWidth': 409, 'origHeight': 409, 'width': 409, 'height': 409, 'widthPercent': 0.45, 'rescaleHeight': False, 'trialN': 105, 'loaded': True, 'loadedTime': 3723.900000002235, 'positionName': 'RIGHT', 'positionCoords': [998.4, 335.5], 'bid': 3.27}]",197255.30000000075,1669836038262,hashbrowns,ice cream sundae 002,0.46,3.27,2.81,ice cream sundae 002,1137.0,1139,1139.3999999985099,True,i,198903.0,1647.699999999255,1669836039909,1647,HRV,HRV_0241,2022-11-30 19:22:41
106,"[{'imgObject': {}, 'id': 'ice cream sundae 002', 'src': '/static/foodstim60/ice cream sundae 002.jpg', 'key': 'u', 'origWidth': 409, 'origHeight': 409, 'width': 409, 'height': 409, 'widthPercent': 0.45, 'rescaleHeight': False, 'trialN': 106, 'loaded': True, 'loadedTime': 3723.699999999255, 'positionName': 'LEFT', 'positionCoords': [512.6, 335.5], 'bid': 3.27}, {'imgObject': {}, 'id': 'Grapes', 'src': '/static/foodstim60/Grapes.jpg', 'key': 'i', 'origWidth': 411, 'origHeight': 411, 'width': 411, 'height': 411, 'widthPercent': 0.45, 'rescaleHeight': False, 'trialN': 106, 'loaded': True, 'loadedTime': 3283.60000000149, 'positionName': 'RIGHT', 'positionCoords': [998.4, 334.5], 'bid': 6.09}]",198903.30000000075,1669836039910,ice cream sundae 002,Grapes,3.27,6.09,2.82,Grapes,930.0,932,932.6999999992549,True,i,200342.69999999925,1439.3999999985099,1669836041349,1439,HRV,HRV_0241,2022-11-30 19:22:41
107,"[{'imgObject': {}, 'id': 'mango', 'src': '/static/foodstim60/mango.jpg', 'key': 'u', 'origWidth': 411, 'origHeight': 411, 'width': 411, 'height': 411, 'widthPercent': 0.45, 'rescaleHeight': False, 'trialN': 107, 'loaded': True, 'loadedTime': 3731.900000002235, 'positionName': 'LEFT', 'positionCoords': [510.6, 334.5], 'bid': 9.41}, {'imgObject': {}, 'id': 'banana', 'src': '/static/foodstim60/banana.jpg', 'key': 'i', 'origWidth': 410, 'origHeight': 410, 'width': 410, 'height': 410, 'widthPercent': 0.45, 'rescaleHeight': False, 'trialN': 107, 'loaded': True, 'loadedTime': 3629.800000000745, 'positionName': 'RIGHT', 'positionCoords': [998.4, 335], 'bid': 9.52}]",200342.80000000075,1669836041349,mango,banana,9.41,9.52,0.10999999999999943,banana,1425.5,1429,1428.5,True,i,202279.0,1936.199999999255,1669836043285,1936,HRV,HRV_0241,2022-11-30 19:22:41
108,"[{'imgObject': {}, 'id': 'pear', 'src': '/static/foodstim60/pear.jpg', 'key': 'u', 'origWidth': 411, 'origHeight': 410, 'width': 411, 'height': 410, 'widthPercent': 0.45, 'rescaleHeight': False, 'trialN': 108, 'loaded': True, 'loadedTime': 3500.900000002235, 'positionName': 'LEFT', 'positionCoords': [510.6, 335], 'bid': 9.92}, {'imgObject': {}, 'id': 'cantaloupe', 'src': '/static/foodstim60/cantaloupe.jpg', 'key': 'i', 'origWidth': 409, 'origHeight': 409, 'width': 409, 'height': 409, 'widthPercent': 0.45, 'rescaleHeight': False, 'trialN': 108, 'loaded': True, 'loadedTime': 3514.5, 'positionName': 'RIGHT', 'positionCoords': [998.4, 335.5], 'bid': 10}]",202279.30000000075,1669836043286,pear,cantaloupe,9.92,10.0,0.08000000000000007,cantaloupe,1001.0,1003,1003.1000000014901,True,i,203790.5,1511.199999999255,1669836044797,1511,HRV,HRV_0241,2022-11-30 19:22:41
109,"[{'imgObject': {}, 'id': 'seaweed', 'src': '/static/foodstim60/seaweed.jpg', 'key': 'u', 'origWidth': 410, 'origHeight': 410, 'width': 410, 'height': 410, 'widthPercent': 0.45, 'rescaleHeight': False, 'trialN': 109, 'loaded': True, 'loadedTime': 3708.199999999255, 'positionName': 'LEFT', 'positionCoords': [511.6, 335], 'bid': 0.27}, {'imgObject': {}, 'id': 'eggsalad', 'src': '/static/foodstim60/eggsalad.jpg', 'key': 'i', 'origWidth': 410, 'origHeight': 409, 'width': 410, 'height': 409, 'widthPercent': 0.45, 'rescaleHeight': False, 'trialN': 109, 'loaded': True, 'loadedTime': 3097.5, 'positionName': 'RIGHT', 'positionCoords': [998.4, 335.5], 'bid': 0.4}]",203790.6000000015,1669836044797,seaweed,eggsalad,0.27,0.4,0.13,eggsalad,1058.699999999255,1062,1062.199999999255,True,i,205358.80000000075,1568.199999999255,1669836046365,1568,HRV,HRV_0241,2022-11-30 19:22:41
