success,trial_type,trial_index,time_elapsed,internal_node_id,Block,TrialNumber,TrialTime,trialTimeDiff,FPS_avg,FPS_med,FPS_mode,TrialDur,winResizeTime,rt,block,button_pressed,MotCoh,MotDir,ColCoh,Color,ChoiceKey,Choice,Accuracy,RT,nFrames,FPS,PPD,missTrial,missTrialMsg,onsetDelay,fullScreenExitTime,canvCenter,TrialType,Score,BlockTrial,stimulus,button_labels,exp,subjectId,date
True,fullscreen,0,6867,0.0-0.0,0.0,1.0,,,,,,,,,,,,,,,,,,,,,,,,,,,,,,,,HRV,HRV_0091,2022-11-30 18:07:41
,wl-check-fps,1,11862,0.0-1.0,0.0,2.0,"[7324.9, 7326.1, 7341.8, 7358.3, 7375.3, 7392.3, 7409.3, 7425.7, 7442, 7459.1, 7476.9, 7492.4, 7508.9, 7525.4, 7542.3, 7558.7, 7575.5, 7592.3, 7608.9, 7625.7, 7642.3, 7659, 7675.6, 7692.3, 7709, 7725.7, 7742.5, 7759, 7775.7, 7792.4, 7809.1, 7825.9, 7842.5, 7859, 7875.7, 7892.3, 7909.1, 7925.9, 7942.5, 7959.2, 7976, 7992.6, 8009.4, 8026.3, 8042.8, 8059.5, 8075.9, 8092.6, 8109.2, 8125.9, 8142.6, 8159.5, 8176, 8192.6, 8209.5, 8226, 8242.6, 8259.4, 8276.2, 8293.1, 8309.6, 8326.5, 8343, 8359.7, 8376.3, 8393.1, 8409.7, 8426.5, 8443.2, 8459.8, 8477.7, 8493.2, 8510, 8526.7, 8543.5, 8560.2, 8576.7, 8593.2, 8610.1, 8626.8, 8643.3, 8660.2, 8677.1, 8693.4, 8710.2, 8727.1, 8743.5, 8760.3, 8777, 8793.6, 8810.4, 8827.2, 8843.7, 8860.2, 8877, 8893.5, 8910.1, 8927.2, 8943.6, 8960.2, 8977.2, 8993.6, 9010.3, 9027.1, 9043.8, 9060.5, 9077.1, 9093.6, 9110.3, 9127.1, 9143.7, 9160.9, 9177.1, 9193.9, 9210.8, 9227.3, 9244.1, 9261.1, 9277.4, 9294.1, 9311, 9327.6, 9344.1, 9360.8, 9377.4, 9394.2, 9410.9, 9427.6, 9444.4, 9461.1, 9477.9, 9494.3, 9511.1, 9527.4, 9544.2, 9561, 9577.5, 9594.3, 9610.9, 9627.6, 9644.5, 9661.1, 9677.7, 9694.4, 9711.3, 9727.8, 9744.6, 9761.5, 9778.6, 9798.2, 9811.3, 9828, 9844.9, 9861.3, 9878, 9894.5, 9911.3, 9928, 9944.6, 9961.3, 9978.1, 9994.7, 10011.4, 10028, 10044.6, 10061.4, 10078.1, 10094.9, 10111.4, 10128.1, 10144.7, 10161.6, 10178.2, 10194.9, 10211.5, 10228.2, 10245.1, 10261.5, 10278.5, 10295.1, 10311.9, 10328.6, 10345.3, 10362.1, 10378.7, 10395.4, 10412.2, 10428.5, 10445.4, 10462, 10479.1, 10495.5, 10512.1, 10529, 10545.5, 10562.1, 10578.8, 10595.6, 10612.4, 10628.7, 10645.6, 10662.3, 10678.8, 10695.5, 10712.2, 10729.1, 10745.9, 10762.4, 10779.2, 10795.8, 10812.2, 10829.2, 10845.7, 10862.4, 10879.2, 10895.6, 10912.3, 10929.1, 10945.7, 10962.8, 10979.6, 10996, 11012.5, 11029.2, 11046, 11062.6, 11079.3, 11096, 11112.7, 11129.3, 11146.1, 11162.7, 11179.3, 11196.1, 11212.9, 11229.4, 11246.1, 11262.9, 11279.8, 11296.2, 11312.9, 11329.8, 11346.3, 11363.1, 11379.8, 11396.5, 11413, 11429.7, 11446.3, 11463.4, 11480.1, 11496.7, 11513.4, 11530.1, 11546.7, 11563.3, 11580.2, 11596.5, 11613.3, 11630.1, 11646.7, 11663.5, 11680.3, 11696.9, 11713.4, 11730.3, 11747.1, 11763.5, 11780.3, 11797, 11813.7, 11830.1, 11847.2, 11863.5, 11880.1, 11896.9, 11913.6, 11930.2, 11946.9, 11963.4, 11980.2, 11996.9, 12013.6, 12030.3, 12047.1, 12063.7, 12080.4, 12097, 12113.6, 12130.5, 12147.1, 12163.7, 12180.4, 12197, 12213.7, 12230.5, 12247.1, 12264.1, 12280.6, 12297.2]","[2, 1.2, 15.7, 16.5, 17, 17, 17, 16.4, 16.3, 17.1, 17.8, 15.5, 16.5, 16.5, 16.9, 16.4, 16.8, 16.8, 16.6, 16.8, 16.6, 16.7, 16.6, 16.7, 16.7, 16.7, 16.8, 16.5, 16.7, 16.7, 16.7, 16.8, 16.6, 16.5, 16.7, 16.6, 16.8, 16.8, 16.6, 16.7, 16.8, 16.6, 16.8, 16.9, 16.5, 16.7, 16.4, 16.7, 16.6, 16.7, 16.7, 16.9, 16.5, 16.6, 16.9, 16.5, 16.6, 16.8, 16.8, 16.9, 16.5, 16.9, 16.5, 16.7, 16.6, 16.8, 16.6, 16.8, 16.7, 16.6, 17.9, 15.5, 16.8, 16.7, 16.8, 16.7, 16.5, 16.5, 16.9, 16.7, 16.5, 16.9, 16.9, 16.3, 16.8, 16.9, 16.4, 16.8, 16.7, 16.6, 16.8, 16.8, 16.5, 16.5, 16.8, 16.5, 16.6, 17.1, 16.4, 16.6, 17, 16.4, 16.7, 16.8, 16.7, 16.7, 16.6, 16.5, 16.7, 16.8, 16.6, 17.2, 16.2, 16.8, 16.9, 16.5, 16.8, 17, 16.3, 16.7, 16.9, 16.6, 16.5, 16.7, 16.6, 16.8, 16.7, 16.7, 16.8, 16.7, 16.8, 16.4, 16.8, 16.3, 16.8, 16.8, 16.5, 16.8, 16.6, 16.7, 16.9, 16.6, 16.6, 16.7, 16.9, 16.5, 16.8, 16.9, 17.1, 19.6, 13.1, 16.7, 16.9, 16.4, 16.7, 16.5, 16.8, 16.7, 16.6, 16.7, 16.8, 16.6, 16.7, 16.6, 16.6, 16.8, 16.7, 16.8, 16.5, 16.7, 16.6, 16.9, 16.6, 16.7, 16.6, 16.7, 16.9, 16.4, 17, 16.6, 16.8, 16.7, 16.7, 16.8, 16.6, 16.7, 16.8, 16.3, 16.9, 16.6, 17.1, 16.4, 16.6, 16.9, 16.5, 16.6, 16.7, 16.8, 16.8, 16.3, 16.9, 16.7, 16.5, 16.7, 16.7, 16.9, 16.8, 16.5, 16.8, 16.6, 16.4, 17, 16.5, 16.7, 16.8, 16.4, 16.7, 16.8, 16.6, 17.1, 16.8, 16.4, 16.5, 16.7, 16.8, 16.6, 16.7, 16.7, 16.7, 16.6, 16.8, 16.6, 16.6, 16.8, 16.8, 16.5, 16.7, 16.8, 16.9, 16.4, 16.7, 16.9, 16.5, 16.8, 16.7, 16.7, 16.5, 16.7, 16.6, 17.1, 16.7, 16.6, 16.7, 16.7, 16.6, 16.6, 16.9, 16.3, 16.8, 16.8, 16.6, 16.8, 16.8, 16.6, 16.5, 16.9, 16.8, 16.4, 16.8, 16.7, 16.7, 16.4, 17.1, 16.3, 16.6, 16.8, 16.7, 16.6, 16.7, 16.5, 16.8, 16.7, 16.7, 16.7, 16.8, 16.6, 16.7, 16.6, 16.6, 16.9, 16.6, 16.6, 16.7, 16.6, 16.7, 16.8, 16.6, 17, 16.5, 16.6]",60.0,61.0,60.0,4991.1,[],,,,,,,,,,,,,,,,,,,,,,,,,HRV,HRV_0091,2022-11-30 18:07:41
,wl-html-keyboard-response,2,26598,0.0-2.0-0.0,0.0,3.0,,,,,,,,12719.299999952316,0.0,0,,,,,,,,,,,,,,,,,,,,,,HRV,HRV_0091,2022-11-30 18:07:41
,wl-rdm,3,35487,0.0-3.0-0.0,0.0,4.0,,,,,,,[],,,,0.0,0.0,87.9,0.0,u,0.0,True,3306.2999999523163,199.0,60.0,40.0,False,,3000.0,[],"[960, 540]",ColorTask_Demo,,,,,HRV,HRV_0091,2022-11-30 18:07:41
,wl-rdm,4,41026,0.0-3.0-1.0,0.0,5.0,,,,,,,[],,,,0.0,0.0,87.9,1.0,i,1.0,True,1478.6000001430511,89.0,60.0,40.0,False,,2000.0,[],"[960, 540]",ColorTask_Demo,,,,,HRV,HRV_0091,2022-11-30 18:07:41
,wl-html-keyboard-response,5,46649,0.0-3.0-2.0,0.0,6.0,,,,,,,,3613.5,0.0,1,,,,,,,,,,,,,,,,,,,,,,HRV,HRV_0091,2022-11-30 18:07:41
,wl-html-keyboard-response,6,60633,0.0-4.0-0.0,0.0,7.0,,,,,,,,11976.700000047684,0.0,0,,,,,,,,,,,,,,,,,,,,,,HRV,HRV_0091,2022-11-30 18:07:41
,wl-html-keyboard-response,7,68648,0.0-5.0-0.0,0.0,8.0,,,,,,,,6004.400000095367,0.0,0,,,,,,,,,,,,,,,,,,,,,,HRV,HRV_0091,2022-11-30 18:07:41
,wl-rdm,8,71159,0.0-6.0-0.0,0.0,9.0,,,,,,,[],,,,,,62.5,0.0,i,1.0,False,1181.6000001430511,71.0,60.0,40.0,False,,276.35956366508447,[],"[960, 540]",ColorTask,-1.0,1.0,,,HRV,HRV_0091,2022-11-30 18:07:41
,wl-rdm,9,73178,0.0-6.1-0.1,0.0,10.0,,,,,,,[],,,,,,87.9,0.0,u,0.0,True,687.1999998092651,42.0,60.0,40.0,False,,256.18913593075354,[],"[960, 540]",ColorTask,0.0,2.0,,,HRV,HRV_0091,2022-11-30 18:07:41
,wl-rdm,10,75313,0.0-6.2-0.2,0.0,11.0,,,,,,,[],,,,,,73.6,0.0,u,0.0,True,687.5,42.0,60.0,40.0,False,,365.7171034154812,[],"[960, 540]",ColorTask,1.0,3.0,,,HRV,HRV_0091,2022-11-30 18:07:41
,wl-rdm,11,77366,0.0-6.3-0.3,0.0,12.0,,,,,,,[],,,,,,87.9,0.0,u,0.0,True,706.1000001430511,43.0,60.0,40.0,False,,281.67974537380957,[],"[960, 540]",ColorTask,2.0,4.0,,,HRV,HRV_0091,2022-11-30 18:07:41
,wl-rdm,12,79702,0.0-6.4-0.4,0.0,13.0,,,,,,,[],,,,,,50.0,1.0,i,1.0,True,927.9999997615814,56.0,60.0,40.0,False,,346.5063857873881,[],"[960, 540]",ColorTask,3.0,5.0,,,HRV,HRV_0091,2022-11-30 18:07:41
,wl-rdm,13,82087,0.0-6.5-0.5,0.0,14.0,,,,,,,[],,,,,,73.6,0.0,u,0.0,True,981.8999998569489,59.0,60.0,40.0,False,,341.61585300094555,[],"[960, 540]",ColorTask,4.0,6.0,,,HRV,HRV_0091,2022-11-30 18:07:41
,wl-rdm,14,84156,0.0-6.6-0.6,0.0,15.0,,,,,,,[],,,,,,56.4,1.0,i,1.0,True,775.3000001907349,47.0,60.0,40.0,False,,225.3524928105746,[],"[960, 540]",ColorTask,5.0,7.0,,,HRV,HRV_0091,2022-11-30 18:07:41
,wl-rdm,15,86309,0.0-6.7-0.7,0.0,16.0,,,,,,,[],,,,,,62.5,0.0,i,1.0,False,746.9000000953674,45.0,60.0,40.0,False,,348.07615721853676,[],"[960, 540]",ColorTask,4.0,8.0,,,HRV,HRV_0091,2022-11-30 18:07:41
,wl-rdm,16,88311,0.0-6.8-0.8,0.0,17.0,,,,,,,[],,,,,,73.6,0.0,u,0.0,True,587.8999998569489,36.0,60.0,40.0,False,,345.2008026134772,[],"[960, 540]",ColorTask,5.0,9.0,,,HRV,HRV_0091,2022-11-30 18:07:41
,wl-rdm,17,90447,0.0-6.9-0.9,0.0,18.0,,,,,,,[],,,,,,56.4,0.0,i,1.0,False,742.5000002384186,45.0,60.0,40.0,False,,306.4727985145506,[],"[960, 540]",ColorTask,4.0,10.0,,,HRV,HRV_0091,2022-11-30 18:07:41
,wl-rdm,18,92465,0.0-6.10-0.10,0.0,19.0,,,,,,,[],,,,,,87.9,0.0,u,0.0,True,591.5999999046326,36.0,60.0,40.0,False,,362.8272825133613,[],"[960, 540]",ColorTask,5.0,11.0,,,HRV,HRV_0091,2022-11-30 18:07:41
,wl-rdm,19,94418,0.0-6.11-0.11,0.0,20.0,,,,,,,[],,,,,,73.6,1.0,i,1.0,True,618.6000001430511,38.0,60.0,40.0,False,,261.7552962257661,[],"[960, 540]",ColorTask,6.0,12.0,,,HRV,HRV_0091,2022-11-30 18:07:41
,wl-rdm,20,96570,0.0-6.12-0.12,0.0,21.0,,,,,,,[],,,,,,62.5,0.0,i,1.0,False,712.7000000476837,43.0,60.0,40.0,False,,382.139823830492,[],"[960, 540]",ColorTask,5.0,13.0,,,HRV,HRV_0091,2022-11-30 18:07:41
,wl-rdm,21,98622,0.0-6.13-0.13,0.0,22.0,,,,,,,[],,,,,,62.5,1.0,i,1.0,True,751.2999999523163,46.0,60.0,40.0,False,,221.24010796394518,[],"[960, 540]",ColorTask,6.0,14.0,,,HRV,HRV_0091,2022-11-30 18:07:41
,wl-rdm,22,100624,0.0-6.14-0.14,0.0,23.0,,,,,,,[],,,,,,50.0,0.0,i,1.0,False,652.2000000476837,40.0,60.0,40.0,False,,276.4742701981295,[],"[960, 540]",ColorTask,5.0,15.0,,,HRV,HRV_0091,2022-11-30 18:07:41
,wl-rdm,23,102827,0.0-6.15-0.15,0.0,24.0,,,,,,,[],,,,,,56.4,1.0,i,1.0,True,735.8999998569489,45.0,60.0,40.0,False,,399.8415437037021,[],"[960, 540]",ColorTask,6.0,16.0,,,HRV,HRV_0091,2022-11-30 18:07:41
,wl-rdm,24,104679,0.0-6.16-0.16,0.0,25.0,,,,,,,[],,,,,,87.9,1.0,i,1.0,True,464.19999980926514,28.0,60.0,40.0,False,,318.1898781141997,[],"[960, 540]",ColorTask,7.0,17.0,,,HRV,HRV_0091,2022-11-30 18:07:41
,wl-rdm,25,106564,0.0-6.17-0.17,0.0,26.0,,,,,,,[],,,,,,50.0,0.0,i,1.0,False,591.6000001430511,36.0,60.0,40.0,False,,230.84728324354737,[],"[960, 540]",ColorTask,6.0,18.0,,,HRV,HRV_0091,2022-11-30 18:07:41
,wl-rdm,26,108617,0.0-6.18-0.18,0.0,27.0,,,,,,,[],,,,,,62.5,0.0,i,1.0,False,700.2000002861023,42.0,60.0,40.0,False,,290.30101113008357,[],"[960, 540]",ColorTask,5.0,19.0,,,HRV,HRV_0091,2022-11-30 18:07:41
,wl-rdm,27,110536,0.0-6.19-0.19,0.0,28.0,,,,,,,[],,,,,,87.9,1.0,u,0.0,False,594.6000001430511,36.0,60.0,40.0,False,,251.39256015569035,[],"[960, 540]",ColorTask,4.0,20.0,,,HRV,HRV_0091,2022-11-30 18:07:41
,wl-rdm,28,112671,0.0-6.20-0.20,0.0,29.0,,,,,,,[],,,,,,62.5,0.0,u,0.0,True,773.7999999523163,47.0,60.0,40.0,False,,284.51316046744535,[],"[960, 540]",ColorTask,5.0,21.0,,,HRV,HRV_0091,2022-11-30 18:07:41
,wl-rdm,29,114607,0.0-6.21-0.21,0.0,30.0,,,,,,,[],,,,,,87.9,0.0,u,0.0,True,583.7000000476837,35.0,60.0,40.0,False,,293.12261315454145,[],"[960, 540]",ColorTask,6.0,22.0,,,HRV,HRV_0091,2022-11-30 18:07:41
,wl-rdm,30,116558,0.0-6.22-0.22,0.0,31.0,,,,,,,[],,,,,,56.4,0.0,i,1.0,False,586.8000001907349,36.0,60.0,40.0,False,,291.19455167686914,[],"[960, 540]",ColorTask,5.0,23.0,,,HRV,HRV_0091,2022-11-30 18:07:41
,wl-rdm,31,118694,0.0-6.23-0.23,0.0,32.0,,,,,,,[],,,,,,62.5,1.0,i,1.0,True,773.5000002384186,47.0,60.0,40.0,False,,291.68953904374223,[],"[960, 540]",ColorTask,6.0,24.0,,,HRV,HRV_0091,2022-11-30 18:07:41
,wl-rdm,32,120713,0.0-6.24-0.24,0.0,33.0,,,,,,,[],,,,,,56.4,0.0,i,1.0,False,682.2000000476837,41.0,60.0,40.0,False,,277.7797688753192,[],"[960, 540]",ColorTask,5.0,25.0,,,HRV,HRV_0091,2022-11-30 18:07:41
,wl-rdm,33,122749,0.0-6.25-0.25,0.0,34.0,,,,,,,[],,,,,,50.0,0.0,i,1.0,False,754.2999999523163,46.0,60.0,40.0,False,,204.40452773093804,[],"[960, 540]",ColorTask,4.0,26.0,,,HRV,HRV_0091,2022-11-30 18:07:41
,wl-rdm,34,124834,0.0-6.26-0.26,0.0,35.0,,,,,,,[],,,,,,53.2,0.0,i,1.0,False,749.9999997615814,45.0,60.0,40.0,False,,267.7952563664132,[],"[960, 540]",ColorTask,3.0,27.0,,,HRV,HRV_0091,2022-11-30 18:07:41
,wl-rdm,35,126803,0.0-6.27-0.27,0.0,36.0,,,,,,,[],,,,,,56.4,1.0,u,0.0,False,630.0,38.0,60.0,40.0,False,,282.4491487698885,[],"[960, 540]",ColorTask,2.0,28.0,,,HRV,HRV_0091,2022-11-30 18:07:41
,wl-rdm,36,128638,0.0-6.28-0.28,0.0,37.0,,,,,,,[],,,,,,62.5,0.0,i,1.0,False,559.7999999523163,34.0,60.0,40.0,False,,207.46463897376807,[],"[960, 540]",ColorTask,1.0,29.0,,,HRV,HRV_0091,2022-11-30 18:07:41
,wl-rdm,37,130473,0.0-6.29-0.29,0.0,38.0,,,,,,,[],,,,,,87.9,1.0,i,1.0,True,493.2000000476837,30.0,60.0,40.0,False,,279.892248119703,[],"[960, 540]",ColorTask,2.0,30.0,,,HRV,HRV_0091,2022-11-30 18:07:41
,wl-rdm,38,132426,0.0-6.30-0.30,0.0,39.0,,,,,,,[],,,,,,73.6,1.0,i,1.0,True,492.90000009536743,30.0,60.0,40.0,False,,388.06747688748214,[],"[960, 540]",ColorTask,3.0,31.0,,,HRV,HRV_0091,2022-11-30 18:07:41
,wl-rdm,39,134211,0.0-6.31-0.31,0.0,40.0,,,,,,,[],,,,,,56.4,1.0,i,1.0,True,494.89999985694885,30.0,60.0,40.0,False,,222.75368031791743,[],"[960, 540]",ColorTask,4.0,32.0,,,HRV,HRV_0091,2022-11-30 18:07:41
,wl-rdm,40,136013,0.0-6.32-0.32,0.0,41.0,,,,,,,[],,,,,,73.6,1.0,i,1.0,True,446.89999985694885,27.0,60.0,40.0,False,,291.86672596224514,[],"[960, 540]",ColorTask,5.0,33.0,,,HRV,HRV_0091,2022-11-30 18:07:41
,wl-rdm,41,137998,0.0-6.33-0.33,0.0,42.0,,,,,,,[],,,,,,53.2,1.0,i,1.0,True,551.5,34.0,60.0,40.0,False,,351.2436169341072,[],"[960, 540]",ColorTask,6.0,34.0,,,HRV,HRV_0091,2022-11-30 18:07:41
,wl-rdm,42,139984,0.0-6.34-0.34,0.0,43.0,,,,,,,[],,,,,,50.0,1.0,i,1.0,True,568.7000000476837,35.0,60.0,40.0,False,,338.0530386399668,[],"[960, 540]",ColorTask,7.0,35.0,,,HRV,HRV_0091,2022-11-30 18:07:41
,wl-rdm,43,141802,0.0-6.35-0.35,0.0,44.0,,,,,,,[],,,,,,50.0,0.0,i,1.0,False,510.0,31.0,60.0,40.0,False,,240.45729445213183,[],"[960, 540]",ColorTask,6.0,36.0,,,HRV,HRV_0091,2022-11-30 18:07:41
,wl-rdm,44,143621,0.0-6.36-0.36,0.0,45.0,,,,,,,[],,,,,,62.5,1.0,i,1.0,True,533.0999999046326,32.0,60.0,40.0,False,,226.2917574336222,[],"[960, 540]",ColorTask,7.0,37.0,,,HRV,HRV_0091,2022-11-30 18:07:41
,wl-rdm,45,145507,0.0-6.37-0.37,0.0,46.0,,,,,,,[],,,,,,87.9,0.0,u,0.0,True,603.5999999046326,37.0,60.0,40.0,False,,216.41440646952475,[],"[960, 540]",ColorTask,8.0,38.0,,,HRV,HRV_0091,2022-11-30 18:07:41
,wl-rdm,46,147443,0.0-6.38-0.38,0.0,47.0,,,,,,,[],,,,,,53.2,1.0,i,1.0,True,653.5,40.0,60.0,40.0,False,,205.26582443631037,[],"[960, 540]",ColorTask,9.0,39.0,,,HRV,HRV_0091,2022-11-30 18:07:41
,wl-rdm,47,149194,0.0-6.39-0.39,0.0,48.0,,,,,,,[],,,,,,73.6,0.0,i,1.0,False,473.09999990463257,29.0,60.0,40.0,False,,216.85700566178068,[],"[960, 540]",ColorTask,8.0,40.0,,,HRV,HRV_0091,2022-11-30 18:07:41
,wl-rdm,48,151247,0.0-6.40-0.40,0.0,49.0,,,,,,,[],,,,,,53.2,1.0,i,1.0,True,750.6999998092651,45.0,60.0,40.0,False,,249.73771654631346,[],"[960, 540]",ColorTask,9.0,41.0,,,HRV,HRV_0091,2022-11-30 18:07:41
,wl-rdm,49,153182,0.0-6.41-0.41,0.0,50.0,,,,,,,[],,,,,,53.2,1.0,i,1.0,True,659.2000002861023,40.0,60.0,40.0,False,,202.91713026372085,[],"[960, 540]",ColorTask,10.0,42.0,,,HRV,HRV_0091,2022-11-30 18:07:41
,wl-rdm,50,155234,0.0-6.42-0.42,0.0,51.0,,,,,,,[],,,,,,56.4,1.0,i,1.0,True,674.0000002384186,41.0,60.0,40.0,False,,307.4120943830194,[],"[960, 540]",ColorTask,11.0,43.0,,,HRV,HRV_0091,2022-11-30 18:07:41
,wl-rdm,51,157286,0.0-6.43-0.43,0.0,52.0,,,,,,,[],,,,,,53.2,1.0,i,1.0,True,742.2000000476837,45.0,60.0,40.0,False,,239.54480325356167,[],"[960, 540]",ColorTask,12.0,44.0,,,HRV,HRV_0091,2022-11-30 18:07:41
,wl-rdm,52,159272,0.0-6.44-0.44,0.0,53.0,,,,,,,[],,,,,,56.4,0.0,i,1.0,False,649.4000000953674,39.0,60.0,40.0,False,,281.8417821738438,[],"[960, 540]",ColorTask,11.0,45.0,,,HRV,HRV_0091,2022-11-30 18:07:41
,wl-rdm,53,161691,0.0-6.45-0.45,0.0,54.0,,,,,,,[],,,,,,53.2,1.0,i,1.0,True,963.2000000476837,58.0,60.0,40.0,False,,398.66507868933184,[],"[960, 540]",ColorTask,12.0,46.0,,,HRV,HRV_0091,2022-11-30 18:07:41
,wl-rdm,54,163743,0.0-6.46-0.46,0.0,55.0,,,,,,,[],,,,,,73.6,1.0,i,1.0,True,720.2999997138977,44.0,60.0,40.0,False,,265.8324771586874,[],"[960, 540]",ColorTask,13.0,47.0,,,HRV,HRV_0091,2022-11-30 18:07:41
,wl-rdm,55,165646,0.0-6.47-0.47,0.0,56.0,,,,,,,[],,,,,,87.9,1.0,i,1.0,True,549.4000000953674,33.0,60.0,40.0,False,,290.0053418649978,[],"[960, 540]",ColorTask,14.0,48.0,,,HRV,HRV_0091,2022-11-30 18:07:41
,wl-rdm,56,168098,0.0-6.48-0.48,0.0,57.0,,,,,,,[],,,,,,50.0,1.0,i,1.0,True,1119.7000002861023,68.0,60.0,40.0,False,,252.93180811569528,[],"[960, 540]",ColorTask,15.0,49.0,,,HRV,HRV_0091,2022-11-30 18:07:41
,wl-rdm,57,170284,0.0-6.49-0.49,0.0,58.0,,,,,,,[],,,,,,50.0,1.0,i,1.0,True,895.0,54.0,60.0,40.0,False,,231.69415546235498,[],"[960, 540]",ColorTask,16.0,50.0,,,HRV,HRV_0091,2022-11-30 18:07:41
,wl-rdm,58,172503,0.0-6.50-0.50,0.0,59.0,,,,,,,[],,,,,,53.2,1.0,i,1.0,True,920.9000000953674,56.0,60.0,40.0,False,,224.39864499226422,[],"[960, 540]",ColorTask,17.0,51.0,,,HRV,HRV_0091,2022-11-30 18:07:41
,wl-rdm,59,174522,0.0-6.51-0.51,0.0,60.0,,,,,,,[],,,,,,87.9,1.0,i,1.0,True,635.0,39.0,60.0,40.0,False,,309.52595313185526,[],"[960, 540]",ColorTask,18.0,52.0,,,HRV,HRV_0091,2022-11-30 18:07:41
,wl-rdm,60,176641,0.0-6.52-0.52,0.0,61.0,,,,,,,[],,,,,,87.9,0.0,u,0.0,True,803.2000002861023,49.0,60.0,40.0,False,,234.95746398938806,[],"[960, 540]",ColorTask,19.0,53.0,,,HRV,HRV_0091,2022-11-30 18:07:41
,wl-rdm,61,179194,0.0-6.53-0.53,0.0,62.0,,,,,,,[],,,,,,53.2,0.0,i,1.0,False,1185.5999999046326,72.0,60.0,40.0,False,,288.2001671160595,[],"[960, 540]",ColorTask,18.0,54.0,,,HRV,HRV_0091,2022-11-30 18:07:41
,wl-rdm,62,181980,0.0-6.54-0.54,0.0,63.0,,,,,,,[],,,,,,73.6,1.0,i,1.0,True,1373.2999999523163,83.0,60.0,40.0,False,,333.57844244642837,[],"[960, 540]",ColorTask,19.0,55.0,,,HRV,HRV_0091,2022-11-30 18:07:41
,wl-rdm,63,184183,0.0-6.55-0.55,0.0,64.0,,,,,,,[],,,,,,53.2,1.0,i,1.0,True,929.2999999523163,56.0,60.0,40.0,False,,201.5687555840557,[],"[960, 540]",ColorTask,20.0,56.0,,,HRV,HRV_0091,2022-11-30 18:07:41
,wl-rdm,64,186219,0.0-6.56-0.56,0.0,65.0,,,,,,,[],,,,,,87.9,0.0,u,0.0,True,759.8999998569489,46.0,60.0,40.0,False,,208.58508621238445,[],"[960, 540]",ColorTask,21.0,57.0,,,HRV,HRV_0091,2022-11-30 18:07:41
,wl-rdm,65,188555,0.0-6.57-0.57,0.0,66.0,,,,,,,[],,,,,,73.6,0.0,u,0.0,True,928.0999999046326,56.0,60.0,40.0,False,,335.00614013837395,[],"[960, 540]",ColorTask,22.0,58.0,,,HRV,HRV_0091,2022-11-30 18:07:41
,wl-rdm,66,190757,0.0-6.58-0.58,0.0,67.0,,,,,,,[],,,,,,50.0,0.0,i,1.0,False,810.3999998569489,49.0,60.0,40.0,False,,329.78105705544544,[],"[960, 540]",ColorTask,21.0,59.0,,,HRV,HRV_0091,2022-11-30 18:07:41
,wl-rdm,67,192876,0.0-6.59-0.59,0.0,68.0,,,,,,,[],,,,,,53.2,1.0,i,1.0,True,759.6999998092651,46.0,60.0,40.0,False,,286.62254407164767,[],"[960, 540]",ColorTask,22.0,60.0,,,HRV,HRV_0091,2022-11-30 18:07:41
,wl-rdm,68,194778,0.0-6.60-0.60,0.0,69.0,,,,,,,[],,,,,,87.9,1.0,i,1.0,True,583.2000000476837,35.0,60.0,40.0,False,,262.9477998757406,[],"[960, 540]",ColorTask,23.0,61.0,,,HRV,HRV_0091,2022-11-30 18:07:41
,wl-rdm,69,197047,0.0-6.61-0.61,0.0,70.0,,,,,,,[],,,,,,73.6,0.0,u,0.0,True,833.6000001430511,50.0,60.0,40.0,False,,375.3846487890303,[],"[960, 540]",ColorTask,24.0,62.0,,,HRV,HRV_0091,2022-11-30 18:07:41
,wl-rdm,70,199200,0.0-6.62-0.62,0.0,71.0,,,,,,,[],,,,,,56.4,0.0,i,1.0,False,752.6000001430511,46.0,60.0,40.0,False,,318.8732576552447,[],"[960, 540]",ColorTask,23.0,63.0,,,HRV,HRV_0091,2022-11-30 18:07:41
,wl-rdm,71,201319,0.0-6.63-0.63,0.0,72.0,,,,,,,[],,,,,,50.0,0.0,i,1.0,False,748.2000000476837,45.0,60.0,40.0,False,,306.9642909922565,[],"[960, 540]",ColorTask,22.0,64.0,,,HRV,HRV_0091,2022-11-30 18:07:41
,wl-rdm,72,203454,0.0-6.64-0.64,0.0,73.0,,,,,,,[],,,,,,62.5,0.0,u,0.0,True,792.5,48.0,60.0,40.0,False,,271.11675629299776,[],"[960, 540]",ColorTask,23.0,65.0,,,HRV,HRV_0091,2022-11-30 18:07:41
,wl-rdm,73,205473,0.0-6.65-0.65,0.0,74.0,,,,,,,[],,,,,,56.4,1.0,i,1.0,True,700.9000000953674,42.0,60.0,40.0,False,,251.63588185892996,[],"[960, 540]",ColorTask,24.0,66.0,,,HRV,HRV_0091,2022-11-30 18:07:41
,wl-rdm,74,207576,0.0-6.66-0.66,0.0,75.0,,,,,,,[],,,,,,87.9,0.0,i,1.0,False,785.5999999046326,48.0,60.0,40.0,False,,238.94645844910775,[],"[960, 540]",ColorTask,23.0,67.0,,,HRV,HRV_0091,2022-11-30 18:07:41
,wl-rdm,75,209544,0.0-6.67-0.67,0.0,76.0,,,,,,,[],,,,,,62.5,0.0,i,1.0,False,653.5000002384186,40.0,60.0,40.0,False,,245.94299660480758,[],"[960, 540]",ColorTask,22.0,68.0,,,HRV,HRV_0091,2022-11-30 18:07:41
,wl-rdm,76,211613,0.0-6.68-0.68,0.0,77.0,,,,,,,[],,,,,,50.0,1.0,i,1.0,True,647.0999999046326,39.0,60.0,40.0,False,,353.5802231591348,[],"[960, 540]",ColorTask,23.0,69.0,,,HRV,HRV_0091,2022-11-30 18:07:41
,wl-rdm,77,213549,0.0-6.69-0.69,0.0,78.0,,,,,,,[],,,,,,53.2,0.0,u,0.0,True,626.4000000953674,38.0,60.0,40.0,False,,248.36025573928802,[],"[960, 540]",ColorTask,24.0,70.0,,,HRV,HRV_0091,2022-11-30 18:07:41
,wl-rdm,78,215551,0.0-6.70-0.70,0.0,79.0,,,,,,,[],,,,,,73.6,1.0,i,1.0,True,703.3999998569489,43.0,60.0,40.0,False,,232.3773441267245,[],"[960, 540]",ColorTask,25.0,71.0,,,HRV,HRV_0091,2022-11-30 18:07:41
,wl-rdm,79,217687,0.0-6.71-0.71,0.0,80.0,,,,,,,[],,,,,,62.5,1.0,i,1.0,True,852.5999999046326,52.0,60.0,40.0,False,,208.94757979017578,[],"[960, 540]",ColorTask,26.0,72.0,,,HRV,HRV_0091,2022-11-30 18:07:41
,wl-rdm,80,219739,0.0-6.72-0.72,0.0,81.0,,,,,,,[],,,,,,73.6,0.0,u,0.0,True,691.2999999523163,42.0,60.0,40.0,False,,297.2781354612253,[],"[960, 540]",ColorTask,27.0,73.0,,,HRV,HRV_0091,2022-11-30 18:07:41
,wl-rdm,81,221791,0.0-6.73-0.73,0.0,82.0,,,,,,,[],,,,,,87.9,0.0,u,0.0,True,759.0,46.0,60.0,40.0,False,,230.34999712074887,[],"[960, 540]",ColorTask,28.0,74.0,,,HRV,HRV_0091,2022-11-30 18:07:41
,wl-rdm,82,223793,0.0-6.74-0.74,0.0,83.0,,,,,,,[],,,,,,62.5,1.0,i,1.0,True,686.5,42.0,60.0,40.0,False,,235.88770711099585,[],"[960, 540]",ColorTask,29.0,75.0,,,HRV,HRV_0091,2022-11-30 18:07:41
,wl-rdm,83,225863,0.0-6.75-0.75,0.0,84.0,,,,,,,[],,,,,,56.4,0.0,i,1.0,False,726.5,44.0,60.0,40.0,False,,281.2502584923123,[],"[960, 540]",ColorTask,28.0,76.0,,,HRV,HRV_0091,2022-11-30 18:07:41
,wl-rdm,84,228032,0.0-6.76-0.76,0.0,85.0,,,,,,,[],,,,,,56.4,0.0,i,1.0,False,726.6000001430511,44.0,60.0,40.0,False,,373.2077098544338,[],"[960, 540]",ColorTask,27.0,77.0,,,HRV,HRV_0091,2022-11-30 18:07:41
,wl-rdm,85,230084,0.0-6.77-0.77,0.0,86.0,,,,,,,[],,,,,,56.4,1.0,i,1.0,True,632.0,38.0,60.0,40.0,False,,352.7376026053166,[],"[960, 540]",ColorTask,28.0,78.0,,,HRV,HRV_0091,2022-11-30 18:07:41
,wl-rdm,86,232236,0.0-6.78-0.78,0.0,87.0,,,,,,,[],,,,,,50.0,0.0,u,0.0,True,883.5,53.0,60.0,40.0,False,,214.164917243965,[],"[960, 540]",ColorTask,29.0,79.0,,,HRV,HRV_0091,2022-11-30 18:07:41
,wl-rdm,87,234705,0.0-6.79-0.79,0.0,88.0,,,,,,,[],,,,,,53.2,0.0,u,0.0,True,1070.2000000476837,65.0,60.0,40.0,False,,323.8009819739831,[],"[960, 540]",ColorTask,30.0,80.0,,,HRV,HRV_0091,2022-11-30 18:07:41
,wl-rdm,88,236791,0.0-6.80-0.80,0.0,89.0,,,,,,,[],,,,,,73.6,1.0,i,1.0,True,702.6000001430511,43.0,60.0,40.0,False,,299.9022663278671,[],"[960, 540]",ColorTask,31.0,81.0,,,HRV,HRV_0091,2022-11-30 18:07:41
,wl-rdm,89,238910,0.0-6.81-0.81,0.0,90.0,,,,,,,[],,,,,,73.6,1.0,i,1.0,True,788.7999999523163,48.0,60.0,40.0,False,,263.48335590540063,[],"[960, 540]",ColorTask,32.0,82.0,,,HRV,HRV_0091,2022-11-30 18:07:41
,wl-rdm,90,240812,0.0-6.82-0.82,0.0,91.0,,,,,,,[],,,,,,50.0,0.0,i,1.0,False,589.6999998092651,36.0,60.0,40.0,False,,233.99545664855543,[],"[960, 540]",ColorTask,31.0,83.0,,,HRV,HRV_0091,2022-11-30 18:07:41
,wl-rdm,91,242881,0.0-6.83-0.83,0.0,92.0,,,,,,,[],,,,,,73.6,0.0,u,0.0,True,758.7000002861023,46.0,60.0,40.0,False,,244.3961908228107,[],"[960, 540]",ColorTask,32.0,84.0,,,HRV,HRV_0091,2022-11-30 18:07:41
,wl-rdm,92,245150,0.0-6.84-0.84,0.0,93.0,,,,,,,[],,,,,,56.4,0.0,u,0.0,True,874.5,53.0,60.0,40.0,False,,331.1908371503963,[],"[960, 540]",ColorTask,33.0,85.0,,,HRV,HRV_0091,2022-11-30 18:07:41
,wl-rdm,93,247153,0.0-6.85-0.85,0.0,94.0,,,,,,,[],,,,,,62.5,1.0,i,1.0,True,718.8999998569489,44.0,60.0,40.0,False,,205.12360976962907,[],"[960, 540]",ColorTask,34.0,86.0,,,HRV,HRV_0091,2022-11-30 18:07:41
,wl-rdm,94,249505,0.0-6.86-0.86,0.0,95.0,,,,,,,[],,,,,,87.9,1.0,i,1.0,True,1070.7999999523163,65.0,60.0,40.0,False,,207.16671833111067,[],"[960, 540]",ColorTask,35.0,87.0,,,HRV,HRV_0091,2022-11-30 18:07:41
,wl-rdm,95,251741,0.0-6.87-0.87,0.0,96.0,,,,,,,[],,,,,,53.2,0.0,i,1.0,False,911.7999999523163,55.0,60.0,40.0,False,,258.2822592541797,[],"[960, 540]",ColorTask,34.0,88.0,,,HRV,HRV_0091,2022-11-30 18:07:41
,wl-rdm,96,253693,0.0-6.88-0.88,0.0,97.0,,,,,,,[],,,,,,87.9,1.0,u,0.0,False,656.7000000476837,40.0,60.0,40.0,False,,233.4654547661038,[],"[960, 540]",ColorTask,33.0,89.0,,,HRV,HRV_0091,2022-11-30 18:07:41
,wl-rdm,97,255612,0.0-6.89-0.89,0.0,98.0,,,,,,,[],,,,,,62.5,1.0,i,1.0,True,646.5,39.0,60.0,40.0,False,,202.37424548462798,[],"[960, 540]",ColorTask,34.0,90.0,,,HRV,HRV_0091,2022-11-30 18:07:41
,wl-rdm,98,257831,0.0-6.90-0.90,0.0,99.0,,,,,,,[],,,,,,56.4,0.0,u,0.0,True,914.0,55.0,60.0,40.0,False,,247.04560731209688,[],"[960, 540]",ColorTask,35.0,91.0,,,HRV,HRV_0091,2022-11-30 18:07:41
,wl-rdm,99,259883,0.0-6.91-0.91,0.0,100.0,,,,,,,[],,,,,,53.2,0.0,u,0.0,True,784.2000000476837,47.0,60.0,40.0,False,,205.10150248785962,[],"[960, 540]",ColorTask,36.0,92.0,,,HRV,HRV_0091,2022-11-30 18:07:41
,wl-rdm,100,261869,0.0-6.92-0.92,0.0,101.0,,,,,,,[],,,,,,53.2,0.0,i,1.0,False,626.0999999046326,38.0,60.0,40.0,False,,284.68471834327585,[],"[960, 540]",ColorTask,35.0,93.0,,,HRV,HRV_0091,2022-11-30 18:07:41
,wl-rdm,101,264188,0.0-6.93-0.93,0.0,102.0,,,,,,,[],,,,,,73.6,0.0,u,0.0,True,937.2999999523163,57.0,60.0,40.0,False,,312.71573403693003,[],"[960, 540]",ColorTask,36.0,94.0,,,HRV,HRV_0091,2022-11-30 18:07:41
,wl-rdm,102,266324,0.0-6.94-0.94,0.0,103.0,,,,,,,[],,,,,,73.6,1.0,i,1.0,True,684.7999999523163,42.0,60.0,40.0,False,,376.3113284709673,[],"[960, 540]",ColorTask,37.0,95.0,,,HRV,HRV_0091,2022-11-30 18:07:41
,wl-rdm,103,268393,0.0-6.95-0.95,0.0,104.0,,,,,,,[],,,,,,62.5,1.0,i,1.0,True,758.7000000476837,46.0,60.0,40.0,False,,247.7358821013696,[],"[960, 540]",ColorTask,38.0,96.0,,,HRV,HRV_0091,2022-11-30 18:07:41
,wl-rdm,104,270461,0.0-6.96-0.96,0.0,105.0,,,,,,,[],,,,,,62.5,0.0,i,1.0,False,745.6999998092651,45.0,60.0,40.0,False,,266.17069801237415,[],"[960, 540]",ColorTask,37.0,97.0,,,HRV,HRV_0091,2022-11-30 18:07:41
,wl-rdm,105,272381,0.0-6.97-0.97,0.0,106.0,,,,,,,[],,,,,,50.0,0.0,i,1.0,False,642.2999999523163,39.0,60.0,40.0,False,,207.7878072650137,[],"[960, 540]",ColorTask,36.0,98.0,,,HRV,HRV_0091,2022-11-30 18:07:41
,wl-rdm,106,274349,0.0-6.98-0.98,0.0,107.0,,,,,,,[],,,,,,56.4,1.0,i,1.0,True,649.5,39.0,60.0,40.0,False,,257.9624646815146,[],"[960, 540]",ColorTask,37.0,99.0,,,HRV,HRV_0091,2022-11-30 18:07:41
,wl-rdm,107,276351,0.0-6.99-0.99,0.0,108.0,,,,,,,[],,,,,,53.2,0.0,i,1.0,False,652.4000000953674,40.0,60.0,40.0,False,,283.42878830599716,[],"[960, 540]",ColorTask,36.0,100.0,,,HRV,HRV_0091,2022-11-30 18:07:41
,wl-rdm,108,278420,0.0-6.100-0.100,0.0,109.0,,,,,,,[],,,,,,50.0,1.0,i,1.0,True,695.5999999046326,42.0,60.0,40.0,False,,310.1518755549949,[],"[960, 540]",ColorTask,37.0,101.0,,,HRV,HRV_0091,2022-11-30 18:07:41
,wl-rdm,109,280422,0.0-6.101-0.101,0.0,110.0,,,,,,,[],,,,,,50.0,1.0,i,1.0,True,630.1999998092651,38.0,60.0,40.0,False,,314.9136171465959,[],"[960, 540]",ColorTask,38.0,102.0,,,HRV,HRV_0091,2022-11-30 18:07:41
,wl-rdm,110,282675,0.0-6.102-0.102,0.0,111.0,,,,,,,[],,,,,,62.5,1.0,i,1.0,True,825.3000001907349,50.0,60.0,40.0,False,,358.96453544622887,[],"[960, 540]",ColorTask,39.0,103.0,,,HRV,HRV_0091,2022-11-30 18:07:41
,wl-rdm,111,284761,0.0-6.103-0.103,0.0,112.0,,,,,,,[],,,,,,53.2,0.0,u,0.0,True,656.6000001430511,40.0,60.0,40.0,False,,354.70485397172956,[],"[960, 540]",ColorTask,40.0,104.0,,,HRV,HRV_0091,2022-11-30 18:07:41
,wl-rdm,112,287263,0.0-6.104-0.104,0.0,113.0,,,,,,,[],,,,,,50.0,1.0,u,0.0,False,1173.4000000953674,71.0,60.0,40.0,False,,258.62267826730573,[],"[960, 540]",ColorTask,39.0,105.0,,,HRV,HRV_0091,2022-11-30 18:07:41
,wl-rdm,113,289583,0.0-6.105-0.105,0.0,114.0,,,,,,,[],,,,,,56.4,1.0,u,0.0,False,1021.4000000953674,62.0,60.0,40.0,False,,219.2007001591882,[],"[960, 540]",ColorTask,38.0,106.0,,,HRV,HRV_0091,2022-11-30 18:07:41
,wl-rdm,114,291802,0.0-6.106-0.106,0.0,115.0,,,,,,,[],,,,,,50.0,1.0,i,1.0,True,804.6999998092651,49.0,60.0,40.0,False,,334.7980338171875,[],"[960, 540]",ColorTask,39.0,107.0,,,HRV,HRV_0091,2022-11-30 18:07:41
,wl-rdm,115,294104,0.0-6.107-0.107,0.0,116.0,,,,,,,[],,,,,,87.9,1.0,i,1.0,True,1019.1000001430511,62.0,60.0,40.0,False,,205.7558076376484,[],"[960, 540]",ColorTask,40.0,108.0,,,HRV,HRV_0091,2022-11-30 18:07:41
,wl-html-keyboard-response,116,305376,0.0-7.0-0.0,1.0,117.0,,,,,,,,9262.200000047684,1.0,0,,,,,,,,,,,,,,,,,,,,,,HRV,HRV_0091,2022-11-30 18:07:41
,wl-rdm,117,307736,0.0-8.0-0.0,1.0,118.0,,,,,,,[],,,,,,62.5,0.0,i,1.0,False,1055.5,64.0,60.0,40.0,False,,233.55378215149935,[],"[960, 540]",ColorTask,39.0,1.0,,,HRV,HRV_0091,2022-11-30 18:07:41
,wl-rdm,118,309805,0.0-8.1-0.1,1.0,119.0,,,,,,,[],,,,,,53.2,1.0,i,1.0,True,791.7999999523163,48.0,60.0,40.0,False,,203.1548809004381,[],"[960, 540]",ColorTask,40.0,2.0,,,HRV,HRV_0091,2022-11-30 18:07:41
,wl-rdm,119,311790,0.0-8.2-0.2,1.0,120.0,,,,,,,[],,,,,,56.4,0.0,u,0.0,True,701.7999999523163,43.0,60.0,40.0,False,,200.47453924037688,[],"[960, 540]",ColorTask,41.0,3.0,,,HRV,HRV_0091,2022-11-30 18:07:41
,wl-rdm,120,313793,0.0-8.3-0.3,1.0,121.0,,,,,,,[],,,,,,62.5,1.0,i,1.0,True,698.7000000476837,42.0,60.0,40.0,False,,241.36862666121826,[],"[960, 540]",ColorTask,42.0,4.0,,,HRV,HRV_0091,2022-11-30 18:07:41
,wl-rdm,121,316045,0.0-8.4-0.4,1.0,122.0,,,,,,,[],,,,,,73.6,1.0,i,1.0,True,826.900000333786,50.0,60.0,40.0,False,,359.04608077165744,[],"[960, 540]",ColorTask,43.0,5.0,,,HRV,HRV_0091,2022-11-30 18:07:41
,wl-rdm,122,318048,0.0-8.5-0.5,1.0,123.0,,,,,,,[],,,,,,53.2,1.0,i,1.0,True,722.7000000476837,44.0,60.0,40.0,False,,214.68984291173297,[],"[960, 540]",ColorTask,44.0,6.0,,,HRV,HRV_0091,2022-11-30 18:07:41
,wl-rdm,123,319949,0.0-8.6-0.6,1.0,124.0,,,,,,,[],,,,,,87.9,1.0,i,1.0,True,587.5,36.0,60.0,40.0,False,,238.9764939096266,[],"[960, 540]",ColorTask,45.0,7.0,,,HRV,HRV_0091,2022-11-30 18:07:41
,wl-rdm,124,322052,0.0-8.7-0.7,1.0,125.0,,,,,,,[],,,,,,62.5,0.0,u,0.0,True,828.6000001430511,50.0,60.0,40.0,False,,214.8877199020425,[],"[960, 540]",ColorTask,46.0,8.0,,,HRV,HRV_0091,2022-11-30 18:07:41
,wl-rdm,125,324088,0.0-8.8-0.8,1.0,126.0,,,,,,,[],,,,,,87.9,0.0,u,0.0,True,680.2999999523163,41.0,60.0,40.0,False,,292.7326218434191,[],"[960, 540]",ColorTask,47.0,9.0,,,HRV,HRV_0091,2022-11-30 18:07:41
,wl-rdm,126,326340,0.0-8.9-0.9,1.0,127.0,,,,,,,[],,,,,,62.5,1.0,i,1.0,True,829.2000000476837,50.0,60.0,40.0,False,,366.0683465247116,[],"[960, 540]",ColorTask,48.0,10.0,,,HRV,HRV_0091,2022-11-30 18:07:41
,wl-rdm,127,328359,0.0-8.10-0.10,1.0,128.0,,,,,,,[],,,,,,87.9,1.0,i,1.0,True,725.2000000476837,44.0,60.0,40.0,False,,217.23979099480445,[],"[960, 540]",ColorTask,49.0,11.0,,,HRV,HRV_0091,2022-11-30 18:07:41
,wl-rdm,128,330611,0.0-8.11-0.11,1.0,129.0,,,,,,,[],,,,,,87.9,0.0,u,0.0,True,841.2999999523163,51.0,60.0,40.0,False,,347.89101513148216,[],"[960, 540]",ColorTask,50.0,12.0,,,HRV,HRV_0091,2022-11-30 18:07:41
,wl-rdm,129,332546,0.0-8.12-0.12,1.0,130.0,,,,,,,[],,,,,,87.9,1.0,i,1.0,True,662.8000001907349,40.0,60.0,40.0,False,,200.28904293513,[],"[960, 540]",ColorTask,51.0,13.0,,,HRV,HRV_0091,2022-11-30 18:07:41
,wl-rdm,130,334565,0.0-8.13-0.13,1.0,131.0,,,,,,,[],,,,,,50.0,1.0,i,1.0,True,736.0999999046326,45.0,60.0,40.0,False,,202.4160099456706,[],"[960, 540]",ColorTask,52.0,14.0,,,HRV,HRV_0091,2022-11-30 18:07:41
,wl-rdm,131,336968,0.0-8.14-0.14,1.0,132.0,,,,,,,[],,,,,,50.0,1.0,u,0.0,False,1097.5999999046326,66.0,60.0,40.0,False,,244.99772822165454,[],"[960, 540]",ColorTask,51.0,15.0,,,HRV,HRV_0091,2022-11-30 18:07:41
,wl-rdm,132,339288,0.0-8.15-0.15,1.0,133.0,,,,,,,[],,,,,,73.6,1.0,i,1.0,True,946.0999999046326,57.0,60.0,40.0,False,,314.00835915964285,[],"[960, 540]",ColorTask,52.0,16.0,,,HRV,HRV_0091,2022-11-30 18:07:41
,wl-rdm,133,341707,0.0-8.16-0.16,1.0,134.0,,,,,,,[],,,,,,56.4,1.0,i,1.0,True,969.5,59.0,60.0,40.0,False,,372.795798978276,[],"[960, 540]",ColorTask,53.0,17.0,,,HRV,HRV_0091,2022-11-30 18:07:41
,wl-rdm,134,344176,0.0-8.17-0.17,1.0,135.0,,,,,,,[],,,,,,73.6,1.0,i,1.0,True,1050.7999999523163,63.0,60.0,40.0,False,,360.06192664767224,[],"[960, 540]",ColorTask,54.0,18.0,,,HRV,HRV_0091,2022-11-30 18:07:41
,wl-rdm,135,346345,0.0-8.18-0.18,1.0,136.0,,,,,,,[],,,,,,87.9,0.0,u,0.0,True,853.4000000953674,52.0,60.0,40.0,False,,238.71013861545683,[],"[960, 540]",ColorTask,55.0,19.0,,,HRV,HRV_0091,2022-11-30 18:07:41
,wl-rdm,136,348815,0.0-8.19-0.19,1.0,137.0,,,,,,,[],,,,,,53.2,0.0,u,0.0,True,1158.2000000476837,70.0,60.0,40.0,False,,248.09183915171388,[],"[960, 540]",ColorTask,56.0,20.0,,,HRV,HRV_0091,2022-11-30 18:07:41
,wl-rdm,137,350950,0.0-8.20-0.20,1.0,138.0,,,,,,,[],,,,,,53.2,1.0,i,1.0,True,840.9000000953674,51.0,60.0,40.0,False,,225.98806921248058,[],"[960, 540]",ColorTask,57.0,21.0,,,HRV,HRV_0091,2022-11-30 18:07:41
,wl-rdm,138,353370,0.0-8.21-0.21,1.0,139.0,,,,,,,[],,,,,,50.0,0.0,i,1.0,False,1116.7999999523163,67.0,60.0,40.0,False,,239.04997701882823,[],"[960, 540]",ColorTask,56.0,22.0,,,HRV,HRV_0091,2022-11-30 18:07:41
,wl-rdm,139,355405,0.0-8.22-0.22,1.0,140.0,,,,,,,[],,,,,,73.6,1.0,i,1.0,True,755.8000001907349,46.0,60.0,40.0,False,,207.43946412346793,[],"[960, 540]",ColorTask,57.0,23.0,,,HRV,HRV_0091,2022-11-30 18:07:41
,wl-rdm,140,357307,0.0-8.23-0.23,1.0,141.0,,,,,,,[],,,,,,73.6,1.0,i,1.0,True,629.1999998092651,38.0,60.0,40.0,False,,213.1259295483169,[],"[960, 540]",ColorTask,58.0,24.0,,,HRV,HRV_0091,2022-11-30 18:07:41
,wl-rdm,141,359676,0.0-8.24-0.24,1.0,142.0,,,,,,,[],,,,,,56.4,0.0,u,0.0,True,1058.8000001907349,64.0,60.0,40.0,False,,235.3996563173165,[],"[960, 540]",ColorTask,59.0,25.0,,,HRV,HRV_0091,2022-11-30 18:07:41
,wl-rdm,142,361963,0.0-8.25-0.25,1.0,143.0,,,,,,,[],,,,,,50.0,0.0,i,1.0,False,892.0,54.0,60.0,40.0,False,,330.01428424392327,[],"[960, 540]",ColorTask,58.0,26.0,,,HRV,HRV_0091,2022-11-30 18:07:41
,wl-rdm,143,364015,0.0-8.26-0.26,1.0,144.0,,,,,,,[],,,,,,73.6,0.0,u,0.0,True,724.0,44.0,60.0,40.0,False,,260.5343969030517,[],"[960, 540]",ColorTask,59.0,27.0,,,HRV,HRV_0091,2022-11-30 18:07:41
,wl-rdm,144,365950,0.0-8.27-0.27,1.0,145.0,,,,,,,[],,,,,,62.5,1.0,i,1.0,True,605.8999998569489,37.0,60.0,40.0,False,,254.59240258423236,[],"[960, 540]",ColorTask,60.0,28.0,,,HRV,HRV_0091,2022-11-30 18:07:41
,wl-rdm,145,367985,0.0-8.28-0.28,1.0,146.0,,,,,,,[],,,,,,50.0,0.0,i,1.0,False,659.8999998569489,40.0,60.0,40.0,False,,300.0406175925741,[],"[960, 540]",ColorTask,59.0,29.0,,,HRV,HRV_0091,2022-11-30 18:07:41
,wl-rdm,146,369770,0.0-8.29-0.29,1.0,147.0,,,,,,,[],,,,,,73.6,0.0,u,0.0,True,490.59999990463257,30.0,60.0,40.0,False,,231.80166960974591,[],"[960, 540]",ColorTask,60.0,30.0,,,HRV,HRV_0091,2022-11-30 18:07:41
,wl-rdm,147,371672,0.0-8.30-0.30,1.0,148.0,,,,,,,[],,,,,,56.4,1.0,i,1.0,True,555.7000002861023,34.0,60.0,40.0,False,,281.0708478357522,[],"[960, 540]",ColorTask,61.0,31.0,,,HRV,HRV_0091,2022-11-30 18:07:41
,wl-rdm,148,373608,0.0-8.31-0.31,1.0,149.0,,,,,,,[],,,,,,56.4,0.0,i,1.0,False,660.7999999523163,40.0,60.0,40.0,False,,201.81543729897712,[],"[960, 540]",ColorTask,60.0,32.0,,,HRV,HRV_0091,2022-11-30 18:07:41
,wl-rdm,149,375644,0.0-8.32-0.32,1.0,150.0,,,,,,,[],,,,,,53.2,0.0,i,1.0,False,660.1999998092651,40.0,60.0,40.0,False,,303.28137362083424,[],"[960, 540]",ColorTask,59.0,33.0,,,HRV,HRV_0091,2022-11-30 18:07:41
,wl-rdm,150,377779,0.0-8.33-0.33,1.0,151.0,,,,,,,[],,,,,,53.2,1.0,i,1.0,True,751.0999999046326,45.0,60.0,40.0,False,,324.3020754414175,[],"[960, 540]",ColorTask,60.0,34.0,,,HRV,HRV_0091,2022-11-30 18:07:41
,wl-rdm,151,379898,0.0-8.34-0.34,1.0,152.0,,,,,,,[],,,,,,53.2,0.0,u,0.0,True,739.7999999523163,45.0,60.0,40.0,False,,312.5520417576206,[],"[960, 540]",ColorTask,61.0,35.0,,,HRV,HRV_0091,2022-11-30 18:07:41
,wl-rdm,152,381951,0.0-8.35-0.35,1.0,153.0,,,,,,,[],,,,,,50.0,0.0,u,0.0,True,756.4000000953674,46.0,60.0,40.0,False,,233.3475469159339,[],"[960, 540]",ColorTask,62.0,36.0,,,HRV,HRV_0091,2022-11-30 18:07:41
,wl-rdm,153,383836,0.0-8.36-0.36,1.0,154.0,,,,,,,[],,,,,,87.9,1.0,u,0.0,False,582.0999999046326,35.0,60.0,40.0,False,,245.36131110437697,[],"[960, 540]",ColorTask,61.0,37.0,,,HRV,HRV_0091,2022-11-30 18:07:41
,wl-rdm,154,385738,0.0-8.37-0.37,1.0,155.0,,,,,,,[],,,,,,53.2,1.0,i,1.0,True,614.0,37.0,60.0,40.0,False,,233.35832494330876,[],"[960, 540]",ColorTask,62.0,38.0,,,HRV,HRV_0091,2022-11-30 18:07:41
,wl-rdm,155,387724,0.0-8.38-0.38,1.0,156.0,,,,,,,[],,,,,,56.4,1.0,i,1.0,True,552.4000000953674,34.0,60.0,40.0,False,,352.96031597085107,[],"[960, 540]",ColorTask,63.0,39.0,,,HRV,HRV_0091,2022-11-30 18:07:41
,wl-rdm,156,389742,0.0-8.39-0.39,1.0,157.0,,,,,,,[],,,,,,50.0,1.0,i,1.0,True,663.0,40.0,60.0,40.0,False,,294.5257621226061,[],"[960, 540]",ColorTask,64.0,40.0,,,HRV,HRV_0091,2022-11-30 18:07:41
,wl-rdm,157,391812,0.0-8.40-0.40,1.0,158.0,,,,,,,[],,,,,,56.4,1.0,u,0.0,False,690.0,42.0,60.0,40.0,False,,304.27458894180904,[],"[960, 540]",ColorTask,63.0,41.0,,,HRV,HRV_0091,2022-11-30 18:07:41
,wl-rdm,158,393847,0.0-8.41-0.41,1.0,159.0,,,,,,,[],,,,,,73.6,0.0,u,0.0,True,648.7999997138977,39.0,60.0,40.0,False,,313.38952909378077,[],"[960, 540]",ColorTask,64.0,42.0,,,HRV,HRV_0091,2022-11-30 18:07:41
,wl-rdm,159,395766,0.0-8.42-0.42,1.0,160.0,,,,,,,[],,,,,,87.9,0.0,u,0.0,True,589.0999999046326,36.0,60.0,40.0,False,,248.55362965092456,[],"[960, 540]",ColorTask,65.0,43.0,,,HRV,HRV_0091,2022-11-30 18:07:41
,wl-rdm,160,397985,0.0-8.43-0.43,1.0,161.0,,,,,,,[],,,,,,53.2,0.0,u,0.0,True,843.0999999046326,51.0,60.0,40.0,False,,309.18926702637515,[],"[960, 540]",ColorTask,66.0,44.0,,,HRV,HRV_0091,2022-11-30 18:07:41
,wl-rdm,161,400120,0.0-8.44-0.44,1.0,162.0,,,,,,,[],,,,,,56.4,0.0,u,0.0,True,796.4999997615814,48.0,60.0,40.0,False,,275.0370569540738,[],"[960, 540]",ColorTask,67.0,45.0,,,HRV,HRV_0091,2022-11-30 18:07:41
,wl-rdm,162,402256,0.0-8.45-0.45,1.0,163.0,,,,,,,[],,,,,,56.4,0.0,u,0.0,True,696.8999998569489,42.0,60.0,40.0,False,,368.105258470266,[],"[960, 540]",ColorTask,68.0,46.0,,,HRV,HRV_0091,2022-11-30 18:07:41
,wl-rdm,163,404041,0.0-8.46-0.46,1.0,164.0,,,,,,,[],,,,,,87.9,0.0,u,0.0,True,513.7999999523163,31.0,60.0,40.0,False,,210.66240173910526,[],"[960, 540]",ColorTask,69.0,47.0,,,HRV,HRV_0091,2022-11-30 18:07:41
,wl-rdm,164,406094,0.0-8.47-0.47,1.0,165.0,,,,,,,[],,,,,,50.0,1.0,u,0.0,False,588.5,36.0,60.0,40.0,False,,387.3290443036748,[],"[960, 540]",ColorTask,68.0,48.0,,,HRV,HRV_0091,2022-11-30 18:07:41
,wl-rdm,165,408013,0.0-8.48-0.48,1.0,166.0,,,,,,,[],,,,,,73.6,0.0,u,0.0,True,609.5999999046326,37.0,60.0,40.0,False,,246.30136016264458,[],"[960, 540]",ColorTask,69.0,49.0,,,HRV,HRV_0091,2022-11-30 18:07:41
,wl-rdm,166,409865,0.0-8.49-0.49,1.0,167.0,,,,,,,[],,,,,,53.2,0.0,u,0.0,True,531.2000000476837,32.0,60.0,40.0,False,,255.23897124710663,[],"[960, 540]",ColorTask,70.0,50.0,,,HRV,HRV_0091,2022-11-30 18:07:41
,wl-rdm,167,412100,0.0-8.50-0.50,1.0,168.0,,,,,,,[],,,,,,53.2,0.0,u,0.0,True,799.9000000953674,48.0,60.0,40.0,False,,374.93338143234683,[],"[960, 540]",ColorTask,71.0,51.0,,,HRV,HRV_0091,2022-11-30 18:07:41
,wl-rdm,168,414086,0.0-8.51-0.51,1.0,169.0,,,,,,,[],,,,,,87.9,1.0,i,1.0,True,678.2999999523163,41.0,60.0,40.0,False,,240.53522678734618,[],"[960, 540]",ColorTask,72.0,52.0,,,HRV,HRV_0091,2022-11-30 18:07:41
,wl-rdm,169,416205,0.0-8.52-0.52,1.0,170.0,,,,,,,[],,,,,,56.4,0.0,u,0.0,True,735.7999999523163,45.0,60.0,40.0,False,,315.5323811224389,[],"[960, 540]",ColorTask,73.0,53.0,,,HRV,HRV_0091,2022-11-30 18:07:41
,wl-rdm,170,418324,0.0-8.53-0.53,1.0,171.0,,,,,,,[],,,,,,87.9,0.0,i,1.0,False,774.5999999046326,47.0,60.0,40.0,False,,270.08798799626743,[],"[960, 540]",ColorTask,72.0,54.0,,,HRV,HRV_0091,2022-11-30 18:07:41
,wl-rdm,171,420359,0.0-8.54-0.54,1.0,172.0,,,,,,,[],,,,,,53.2,0.0,u,0.0,True,742.5,45.0,60.0,40.0,False,,230.22871325721678,[],"[960, 540]",ColorTask,73.0,55.0,,,HRV,HRV_0091,2022-11-30 18:07:41
,wl-rdm,172,422595,0.0-8.55-0.55,1.0,173.0,,,,,,,[],,,,,,50.0,0.0,u,0.0,True,811.2999999523163,49.0,60.0,40.0,False,,360.09308809728896,[],"[960, 540]",ColorTask,74.0,56.0,,,HRV,HRV_0091,2022-11-30 18:07:41
,wl-rdm,173,424581,0.0-8.56-0.56,1.0,174.0,,,,,,,[],,,,,,73.6,1.0,i,1.0,True,640.1000001430511,39.0,60.0,40.0,False,,280.4000315590175,[],"[960, 540]",ColorTask,75.0,57.0,,,HRV,HRV_0091,2022-11-30 18:07:41
,wl-rdm,174,426817,0.0-8.57-0.57,1.0,175.0,,,,,,,[],,,,,,62.5,0.0,i,1.0,False,838.9000000953674,51.0,60.0,40.0,False,,329.9340294145577,[],"[960, 540]",ColorTask,74.0,58.0,,,HRV,HRV_0091,2022-11-30 18:07:41
,wl-rdm,175,428786,0.0-8.58-0.58,1.0,176.0,,,,,,,[],,,,,,73.6,0.0,u,0.0,True,666.7999999523163,40.0,60.0,40.0,False,,240.09361435563778,[],"[960, 540]",ColorTask,75.0,59.0,,,HRV,HRV_0091,2022-11-30 18:07:41
,wl-rdm,176,430888,0.0-8.59-0.59,1.0,177.0,,,,,,,[],,,,,,62.5,0.0,u,0.0,True,693.3999998569489,42.0,60.0,40.0,False,,339.6755180366947,[],"[960, 540]",ColorTask,76.0,60.0,,,HRV,HRV_0091,2022-11-30 18:07:41
,wl-rdm,177,432890,0.0-8.60-0.60,1.0,178.0,,,,,,,[],,,,,,73.6,1.0,i,1.0,True,720.7000000476837,44.0,60.0,40.0,False,,209.55673404159882,[],"[960, 540]",ColorTask,77.0,61.0,,,HRV,HRV_0091,2022-11-30 18:07:41
,wl-rdm,178,435009,0.0-8.61-0.61,1.0,179.0,,,,,,,[],,,,,,62.5,0.0,i,1.0,False,848.9000000953674,51.0,60.0,40.0,False,,213.5811070239815,[],"[960, 540]",ColorTask,76.0,62.0,,,HRV,HRV_0091,2022-11-30 18:07:41
,wl-rdm,179,437145,0.0-8.62-0.62,1.0,180.0,,,,,,,[],,,,,,50.0,1.0,i,1.0,True,811.9000000953674,49.0,60.0,40.0,False,,250.97182190987334,[],"[960, 540]",ColorTask,77.0,63.0,,,HRV,HRV_0091,2022-11-30 18:07:41
,wl-rdm,180,439564,0.0-8.63-0.63,1.0,181.0,,,,,,,[],,,,,,56.4,1.0,u,0.0,False,969.4999997615814,59.0,60.0,40.0,False,,374.9855184684262,[],"[960, 540]",ColorTask,76.0,64.0,,,HRV,HRV_0091,2022-11-30 18:07:41
,wl-rdm,181,442301,0.0-8.64-0.64,1.0,182.0,,,,,,,[],,,,,,50.0,0.0,u,0.0,True,1410.7999999523163,85.0,60.0,40.0,False,,260.69332222411776,[],"[960, 540]",ColorTask,77.0,65.0,,,HRV,HRV_0091,2022-11-30 18:07:41
,wl-rdm,182,444536,0.0-8.65-0.65,1.0,183.0,,,,,,,[],,,,,,56.4,1.0,i,1.0,True,959.3000001907349,58.0,60.0,40.0,False,,207.64943896517303,[],"[960, 540]",ColorTask,78.0,66.0,,,HRV,HRV_0091,2022-11-30 18:07:41
,wl-rdm,183,446505,0.0-8.66-0.66,1.0,184.0,,,,,,,[],,,,,,87.9,1.0,i,1.0,True,603.0,37.0,60.0,40.0,False,,286.8376720166346,[],"[960, 540]",ColorTask,79.0,67.0,,,HRV,HRV_0091,2022-11-30 18:07:41
,wl-rdm,184,448841,0.0-8.67-0.67,1.0,185.0,,,,,,,[],,,,,,50.0,1.0,i,1.0,True,1063.9000000953674,64.0,60.0,40.0,False,,204.03362734749533,[],"[960, 540]",ColorTask,80.0,68.0,,,HRV,HRV_0091,2022-11-30 18:07:41
,wl-rdm,185,450960,0.0-8.68-0.68,1.0,186.0,,,,,,,[],,,,,,87.9,1.0,i,1.0,True,824.7000000476837,50.0,60.0,40.0,False,,217.4208320230851,[],"[960, 540]",ColorTask,81.0,69.0,,,HRV,HRV_0091,2022-11-30 18:07:41
,wl-rdm,186,453063,0.0-8.69-0.69,1.0,187.0,,,,,,,[],,,,,,62.5,1.0,i,1.0,True,809.5,49.0,60.0,40.0,False,,230.20306344633673,[],"[960, 540]",ColorTask,82.0,70.0,,,HRV,HRV_0091,2022-11-30 18:07:41
,wl-rdm,187,455582,0.0-8.70-0.70,1.0,188.0,,,,,,,[],,,,,,56.4,1.0,u,0.0,False,1236.1000001430511,75.0,60.0,40.0,False,,206.80002953787488,[],"[960, 540]",ColorTask,81.0,71.0,,,HRV,HRV_0091,2022-11-30 18:07:41
,wl-rdm,188,458185,0.0-8.71-0.71,1.0,189.0,,,,,,,[],,,,,,53.2,1.0,u,0.0,False,1162.7999999523163,70.0,60.0,40.0,False,,377.0799879680378,[],"[960, 540]",ColorTask,80.0,72.0,,,HRV,HRV_0091,2022-11-30 18:07:41
,wl-rdm,189,460187,0.0-8.72-0.72,1.0,190.0,,,,,,,[],,,,,,62.5,1.0,i,1.0,True,688.6000001430511,42.0,60.0,40.0,False,,234.21979595016967,[],"[960, 540]",ColorTask,81.0,73.0,,,HRV,HRV_0091,2022-11-30 18:07:41
,wl-rdm,190,461255,0.0-8.73-0.73,1.0,190.0,,,,,,,[],,,,,,53.2,1.0,i,,,511.0,0.0,60.0,40.0,True,too_early ,227.89038550239846,[],"[960, 540]",ColorTask,80.0,74.0,,,HRV,HRV_0091,2022-11-30 18:07:41
,wl-rdm,191,463441,0.0-8.74-0.74,1.0,191.0,,,,,,,[],,,,,,73.6,0.0,u,0.0,True,814.9000000953674,49.0,60.0,40.0,False,,308.92168081629563,[],"[960, 540]",ColorTask,81.0,75.0,,,HRV,HRV_0091,2022-11-30 18:07:41
,wl-rdm,192,465577,0.0-8.75-0.75,1.0,192.0,,,,,,,[],,,,,,56.4,0.0,u,0.0,True,835.7999999523163,51.0,60.0,40.0,False,,222.08070247822505,[],"[960, 540]",ColorTask,82.0,76.0,,,HRV,HRV_0091,2022-11-30 18:07:41
,wl-rdm,193,467695,0.0-8.76-0.76,1.0,193.0,,,,,,,[],,,,,,53.2,1.0,i,1.0,True,804.0,49.0,60.0,40.0,False,,237.50047972660283,[],"[960, 540]",ColorTask,83.0,77.0,,,HRV,HRV_0091,2022-11-30 18:07:41
,wl-rdm,194,469764,0.0-8.77-0.77,1.0,194.0,,,,,,,[],,,,,,50.0,0.0,i,1.0,False,775.0000002384186,47.0,60.0,40.0,False,,232.32908645635598,[],"[960, 540]",ColorTask,82.0,78.0,,,HRV,HRV_0091,2022-11-30 18:07:41
,wl-rdm,195,471800,0.0-8.78-0.78,1.0,195.0,,,,,,,[],,,,,,73.6,0.0,u,0.0,True,760.1999998092651,46.0,60.0,40.0,False,,215.49771035033436,[],"[960, 540]",ColorTask,83.0,79.0,,,HRV,HRV_0091,2022-11-30 18:07:41
,wl-rdm,196,473652,0.0-8.79-0.79,1.0,196.0,,,,,,,[],,,,,,87.9,1.0,i,1.0,True,542.3000001907349,33.0,60.0,40.0,False,,238.49214603967275,[],"[960, 540]",ColorTask,84.0,80.0,,,HRV,HRV_0091,2022-11-30 18:07:41
,wl-rdm,197,475721,0.0-8.80-0.80,1.0,197.0,,,,,,,[],,,,,,73.6,0.0,u,0.0,True,769.1999998092651,47.0,60.0,40.0,False,,225.62118967862233,[],"[960, 540]",ColorTask,85.0,81.0,,,HRV,HRV_0091,2022-11-30 18:07:41
,wl-rdm,198,477573,0.0-8.81-0.81,1.0,198.0,,,,,,,[],,,,,,56.4,0.0,u,0.0,True,551.8000001907349,34.0,60.0,40.0,False,,220.84363965161185,[],"[960, 540]",ColorTask,86.0,82.0,,,HRV,HRV_0091,2022-11-30 18:07:41
,wl-rdm,199,479758,0.0-8.82-0.82,1.0,199.0,,,,,,,[],,,,,,62.5,0.0,i,1.0,False,749.3000001907349,45.0,60.0,40.0,False,,375.7421726503072,[],"[960, 540]",ColorTask,85.0,83.0,,,HRV,HRV_0091,2022-11-30 18:07:41
,wl-rdm,200,481894,0.0-8.83-0.83,1.0,200.0,,,,,,,[],,,,,,62.5,0.0,i,1.0,False,861.2000000476837,52.0,60.0,40.0,False,,216.47070639195525,[],"[960, 540]",ColorTask,84.0,84.0,,,HRV,HRV_0091,2022-11-30 18:07:41
,wl-rdm,201,484030,0.0-8.84-0.84,1.0,201.0,,,,,,,[],,,,,,50.0,1.0,i,1.0,True,808.1000001430511,49.0,60.0,40.0,False,,264.6110653050388,[],"[960, 540]",ColorTask,85.0,85.0,,,HRV,HRV_0091,2022-11-30 18:07:41
,wl-rdm,202,485966,0.0-8.85-0.85,1.0,202.0,,,,,,,[],,,,,,56.4,1.0,i,1.0,True,588.7000000476837,36.0,60.0,40.0,False,,267.2771212681297,[],"[960, 540]",ColorTask,86.0,86.0,,,HRV,HRV_0091,2022-11-30 18:07:41
,wl-rdm,203,488118,0.0-8.86-0.86,1.0,203.0,,,,,,,[],,,,,,87.9,0.0,u,0.0,True,768.8999998569489,47.0,60.0,40.0,False,,313.9679081720002,[],"[960, 540]",ColorTask,87.0,87.0,,,HRV,HRV_0091,2022-11-30 18:07:41
,wl-rdm,204,490371,0.0-8.87-0.87,1.0,204.0,,,,,,,[],,,,,,62.5,0.0,u,0.0,True,789.7999999523163,48.0,60.0,40.0,False,,394.84741770491655,[],"[960, 540]",ColorTask,88.0,88.0,,,HRV,HRV_0091,2022-11-30 18:07:41
,wl-rdm,205,492556,0.0-8.88-0.88,1.0,205.0,,,,,,,[],,,,,,56.4,1.0,i,1.0,True,838.0000002384186,51.0,60.0,40.0,False,,272.17124170064324,[],"[960, 540]",ColorTask,89.0,89.0,,,HRV,HRV_0091,2022-11-30 18:07:41
,wl-rdm,206,494809,0.0-8.89-0.89,1.0,206.0,,,,,,,[],,,,,,53.2,0.0,u,0.0,True,972.7999999523163,59.0,60.0,40.0,False,,209.78055704224073,[],"[960, 540]",ColorTask,90.0,90.0,,,HRV,HRV_0091,2022-11-30 18:07:41
,wl-rdm,207,496811,0.0-8.90-0.90,1.0,207.0,,,,,,,[],,,,,,62.5,0.0,i,1.0,False,716.5999999046326,43.0,60.0,40.0,False,,223.2470516178578,[],"[960, 540]",ColorTask,89.0,91.0,,,HRV,HRV_0091,2022-11-30 18:07:41
,wl-rdm,208,499314,0.0-8.91-0.91,1.0,208.0,,,,,,,[],,,,,,56.4,0.0,u,0.0,True,1125.7999999523163,68.0,60.0,40.0,False,,306.36769540209434,[],"[960, 540]",ColorTask,90.0,92.0,,,HRV,HRV_0091,2022-11-30 18:07:41
,wl-rdm,209,501900,0.0-8.92-0.92,1.0,209.0,,,,,,,[],,,,,,53.2,1.0,i,1.0,True,1161.1000001430511,70.0,60.0,40.0,False,,363.22930785628296,[],"[960, 540]",ColorTask,91.0,93.0,,,HRV,HRV_0091,2022-11-30 18:07:41
,wl-rdm,210,504119,0.0-8.93-0.93,1.0,210.0,,,,,,,[],,,,,,62.5,1.0,i,1.0,True,781.0999999046326,47.0,60.0,40.0,False,,383.22559697567397,[],"[960, 540]",ColorTask,92.0,94.0,,,HRV,HRV_0091,2022-11-30 18:07:41
,wl-rdm,211,506054,0.0-8.94-0.94,1.0,211.0,,,,,,,[],,,,,,73.6,1.0,i,1.0,True,607.1000001430511,37.0,60.0,40.0,False,,259.1747148600677,[],"[960, 540]",ColorTask,93.0,95.0,,,HRV,HRV_0091,2022-11-30 18:07:41
,wl-rdm,212,508090,0.0-8.95-0.95,1.0,212.0,,,,,,,[],,,,,,73.6,0.0,i,1.0,False,730.3999998569489,44.0,60.0,40.0,False,,244.55371525691658,[],"[960, 540]",ColorTask,92.0,96.0,,,HRV,HRV_0091,2022-11-30 18:07:41
,wl-rdm,213,510259,0.0-8.96-0.96,1.0,213.0,,,,,,,[],,,,,,73.6,1.0,i,1.0,True,785.8999998569489,48.0,60.0,40.0,False,,307.7387415875894,[],"[960, 540]",ColorTask,93.0,97.0,,,HRV,HRV_0091,2022-11-30 18:07:41
,wl-rdm,214,512495,0.0-8.97-0.97,1.0,214.0,,,,,,,[],,,,,,62.5,1.0,i,1.0,True,790.2000000476837,48.0,60.0,40.0,False,,374.11095323079815,[],"[960, 540]",ColorTask,94.0,98.0,,,HRV,HRV_0091,2022-11-30 18:07:41
,wl-rdm,215,514781,0.0-8.98-0.98,1.0,215.0,,,,,,,[],,,,,,87.9,1.0,i,1.0,True,908.5,55.0,60.0,40.0,False,,313.06854788877934,[],"[960, 540]",ColorTask,95.0,99.0,,,HRV,HRV_0091,2022-11-30 18:07:41
,wl-rdm,216,517333,0.0-8.99-0.99,1.0,216.0,,,,,,,[],,,,,,50.0,1.0,u,0.0,False,1236.1000001430511,75.0,60.0,40.0,False,,233.88074710804233,[],"[960, 540]",ColorTask,94.0,100.0,,,HRV,HRV_0091,2022-11-30 18:07:41
,wl-rdm,217,519519,0.0-8.100-0.100,1.0,217.0,,,,,,,[],,,,,,87.9,0.0,u,0.0,True,810.7000000476837,49.0,60.0,40.0,False,,302.53616215449046,[],"[960, 540]",ColorTask,95.0,101.0,,,HRV,HRV_0091,2022-11-30 18:07:41
,wl-rdm,218,521939,0.0-8.101-0.101,1.0,218.0,,,,,,,[],,,,,,53.2,1.0,u,0.0,False,1114.2999999523163,67.0,60.0,40.0,False,,244.53133402629254,[],"[960, 540]",ColorTask,94.0,102.0,,,HRV,HRV_0091,2022-11-30 18:07:41
,wl-rdm,219,524041,0.0-8.102-0.102,1.0,219.0,,,,,,,[],,,,,,50.0,1.0,u,0.0,False,796.5,48.0,60.0,40.0,False,,234.330988960225,[],"[960, 540]",ColorTask,93.0,103.0,,,HRV,HRV_0091,2022-11-30 18:07:41
,wl-rdm,220,526060,0.0-8.103-0.103,1.0,220.0,,,,,,,[],,,,,,50.0,0.0,u,0.0,True,692.2000000476837,42.0,60.0,40.0,False,,261.5031815965841,[],"[960, 540]",ColorTask,94.0,104.0,,,HRV,HRV_0091,2022-11-30 18:07:41
,wl-rdm,221,528279,0.0-8.104-0.104,1.0,221.0,,,,,,,[],,,,,,62.5,1.0,i,1.0,True,915.5,55.0,60.0,40.0,False,,234.98243433201728,[],"[960, 540]",ColorTask,95.0,105.0,,,HRV,HRV_0091,2022-11-30 18:07:41
,wl-rdm,222,530431,0.0-8.105-0.105,1.0,222.0,,,,,,,[],,,,,,50.0,0.0,u,0.0,True,712.2999999523163,43.0,60.0,40.0,False,,372.154413901048,[],"[960, 540]",ColorTask,96.0,106.0,,,HRV,HRV_0091,2022-11-30 18:07:41
,wl-rdm,223,532700,0.0-8.106-0.106,1.0,223.0,,,,,,,[],,,,,,53.2,0.0,i,1.0,False,833.2999999523163,50.0,60.0,40.0,False,,367.23662881926487,[],"[960, 540]",ColorTask,95.0,107.0,,,HRV,HRV_0091,2022-11-30 18:07:41
,wl-rdm,224,534970,0.0-8.107-0.107,1.0,224.0,,,,,,,[],,,,,,87.9,0.0,u,0.0,True,848.1999998092651,51.0,60.0,40.0,False,,356.2659840811861,[],"[960, 540]",ColorTask,96.0,108.0,,,HRV,HRV_0091,2022-11-30 18:07:41
,wl-rdm,225,537156,0.0-8.108-0.108,1.0,225.0,,,,,,,[],,,,,,62.5,1.0,i,1.0,True,720.4000000953674,44.0,60.0,40.0,False,,397.47128070773203,[],"[960, 540]",ColorTask,97.0,109.0,,,HRV,HRV_0091,2022-11-30 18:07:41
,wl-html-button-response,226,540695,0.0-9.0-0.0,,,,,,,,,,3534.0,,0,,,,,,,,,,,,,,,,,,,,<h3>End of this session. Thank you!</h3><br>,['Close window'],HRV,HRV_0091,2022-11-30 18:07:41
