trialN,stimuli,trialStartTime,trialStartTime_UNIX,stimulus1,stimulus2,stimulus1Bid,stimulus2Bid,delta,selected,rt,rt_UNIX,rt_perfnow,receivedResponse,rsp,trialEndTime,trialDuration,trialEndTime_UNIX,trialDuration_UNIX,exp,subjectId,date
0,"[{'imgObject': {}, 'id': 'edamame', 'src': '/static/foodstim60/edamame.jpg', 'key': 'u', 'origWidth': 409, 'origHeight': 410, 'width': 409, 'height': 410, 'widthPercent': 0.45, 'rescaleHeight': False, 'trialN': 0, 'loaded': True, 'loadedTime': 2475.5, 'positionName': 'LEFT', 'positionCoords': [512.6, 335], 'bid': 3.46}, {'imgObject': {}, 'id': 'cocktailshrimp', 'src': '/static/foodstim60/cocktailshrimp.jpg', 'key': 'i', 'origWidth': 410, 'origHeight': 410, 'width': 410, 'height': 410, 'widthPercent': 0.45, 'rescaleHeight': False, 'trialN': 0, 'loaded': True, 'loadedTime': 2622, 'positionName': 'RIGHT', 'positionCoords': [998.4, 335], 'bid': 3.47}]",2973.300000190735,1669830799319,edamame,cocktailshrimp,3.46,3.47,0.010000000000000231,cocktailshrimp,2478.7999999523163,2480,2479.5999999046326,True,i,5960.100000143051,2986.7999999523163,1669830802306,2987,HRV,HRV_0091,2022-11-30 17:58:11
1,"[{'imgObject': {}, 'id': 'chickenfingers', 'src': '/static/foodstim60/chickenfingers.jpg', 'key': 'u', 'origWidth': 410, 'origHeight': 410, 'width': 410, 'height': 410, 'widthPercent': 0.45, 'rescaleHeight': False, 'trialN': 1, 'loaded': True, 'loadedTime': 2635.4000000953674, 'positionName': 'LEFT', 'positionCoords': [511.6, 335], 'bid': 6.5200000000000005}, {'imgObject': {}, 'id': 'mac & cheese', 'src': '/static/foodstim60/mac & cheese.jpg', 'key': 'i', 'origWidth': 410, 'origHeight': 410, 'width': 410, 'height': 410, 'widthPercent': 0.45, 'rescaleHeight': False, 'trialN': 1, 'loaded': True, 'loadedTime': 2645.300000190735, 'positionName': 'RIGHT', 'positionCoords': [998.4, 335], 'bid': 6.48}]",5960.300000190735,1669830802306,chickenfingers,mac & cheese,6.5200000000000005,6.48,-0.040000000000000036,mac & cheese,920.2999999523163,921,921.0,True,i,7391.100000143051,1430.7999999523163,1669830803737,1431,HRV,HRV_0091,2022-11-30 17:58:11
2,"[{'imgObject': {}, 'id': 'granola w milk', 'src': '/static/foodstim60/granola w milk.jpg', 'key': 'u', 'origWidth': 410, 'origHeight': 410, 'width': 410, 'height': 410, 'widthPercent': 0.45, 'rescaleHeight': False, 'trialN': 2, 'loaded': True, 'loadedTime': 2645.5, 'positionName': 'LEFT', 'positionCoords': [511.6, 335], 'bid': 6.48}, {'imgObject': {}, 'id': 'bagel and cc', 'src': '/static/foodstim60/bagel and cc.jpg', 'key': 'i', 'origWidth': 410, 'origHeight': 410, 'width': 410, 'height': 410, 'widthPercent': 0.45, 'rescaleHeight': False, 'trialN': 2, 'loaded': True, 'loadedTime': 2647.800000190735, 'positionName': 'RIGHT', 'positionCoords': [998.4, 335], 'bid': 6.42}]",7391.300000190735,1669830803737,granola w milk,bagel and cc,6.48,6.42,-0.0600000000000005,bagel and cc,739.2999999523163,741,739.7999999523163,True,i,8641.800000190735,1250.5,1669830804988,1251,HRV,HRV_0091,2022-11-30 17:58:11
3,"[{'imgObject': {}, 'id': 'baked potato', 'src': '/static/foodstim60/baked potato.jpg', 'key': 'u', 'origWidth': 409, 'origHeight': 410, 'width': 409, 'height': 410, 'widthPercent': 0.45, 'rescaleHeight': False, 'trialN': 3, 'loaded': True, 'loadedTime': 2722.9000000953674, 'positionName': 'LEFT', 'positionCoords': [512.6, 335], 'bid': 3.77}, {'imgObject': {}, 'id': 'apple slices', 'src': '/static/foodstim60/apple slices.jpg', 'key': 'i', 'origWidth': 409, 'origHeight': 410, 'width': 409, 'height': 410, 'widthPercent': 0.45, 'rescaleHeight': False, 'trialN': 3, 'loaded': True, 'loadedTime': 2731.600000143051, 'positionName': 'RIGHT', 'positionCoords': [998.4, 335], 'bid': 3.66}]",8642.200000047684,1669830804989,baked potato,apple slices,3.77,3.66,-0.10999999999999988,apple slices,1128.2999999523163,1129,1128.9000000953674,True,i,10279.900000095367,1637.7000000476837,1669830806626,1637,HRV,HRV_0091,2022-11-30 17:58:11
4,"[{'imgObject': {}, 'id': 'fruitsalad', 'src': '/static/foodstim60/fruitsalad.jpg', 'key': 'u', 'origWidth': 410, 'origHeight': 410, 'width': 410, 'height': 410, 'widthPercent': 0.45, 'rescaleHeight': False, 'trialN': 4, 'loaded': True, 'loadedTime': 2748.7000000476837, 'positionName': 'LEFT', 'positionCoords': [511.6, 335], 'bid': 4.94}, {'imgObject': {}, 'id': 'granola w milk', 'src': '/static/foodstim60/granola w milk.jpg', 'key': 'i', 'origWidth': 410, 'origHeight': 410, 'width': 410, 'height': 410, 'widthPercent': 0.45, 'rescaleHeight': False, 'trialN': 4, 'loaded': True, 'loadedTime': 2646.4000000953674, 'positionName': 'RIGHT', 'positionCoords': [998.4, 335], 'bid': 6.48}]",10280.200000047684,1669830806627,fruitsalad,granola w milk,4.94,6.48,1.54,granola w milk,962.4000000953674,963,963.2000000476837,True,i,11758.900000095367,1478.7000000476837,1669830808105,1478,HRV,HRV_0091,2022-11-30 17:58:11
5,"[{'imgObject': {}, 'id': 'mac & cheese', 'src': '/static/foodstim60/mac & cheese.jpg', 'key': 'u', 'origWidth': 410, 'origHeight': 410, 'width': 410, 'height': 410, 'widthPercent': 0.45, 'rescaleHeight': False, 'trialN': 5, 'loaded': True, 'loadedTime': 2645.100000143051, 'positionName': 'LEFT', 'positionCoords': [511.6, 335], 'bid': 6.48}, {'imgObject': {}, 'id': 'cheerios', 'src': '/static/foodstim60/cheerios.jpg', 'key': 'i', 'origWidth': 409, 'origHeight': 410, 'width': 409, 'height': 410, 'widthPercent': 0.45, 'rescaleHeight': False, 'trialN': 5, 'loaded': True, 'loadedTime': 2776.7000000476837, 'positionName': 'RIGHT', 'positionCoords': [998.4, 335], 'bid': 6.72}]",11759.200000047684,1669830808106,mac & cheese,cheerios,6.48,6.72,0.23999999999999932,cheerios,1196.2999999523163,1197,1196.9000000953674,True,i,13476.300000190735,1717.1000001430511,1669830809823,1717,HRV,HRV_0091,2022-11-30 17:58:11
6,"[{'imgObject': {}, 'id': 'orange slices', 'src': '/static/foodstim60/orange slices.jpg', 'key': 'u', 'origWidth': 409, 'origHeight': 410, 'width': 409, 'height': 410, 'widthPercent': 0.45, 'rescaleHeight': False, 'trialN': 6, 'loaded': True, 'loadedTime': 2778.300000190735, 'positionName': 'LEFT', 'positionCoords': [512.6, 335], 'bid': 6.68}, {'imgObject': {}, 'id': 'popsicles', 'src': '/static/foodstim60/popsicles.jpg', 'key': 'i', 'origWidth': 410, 'origHeight': 410, 'width': 410, 'height': 410, 'widthPercent': 0.45, 'rescaleHeight': False, 'trialN': 6, 'loaded': True, 'loadedTime': 2972.600000143051, 'positionName': 'RIGHT', 'positionCoords': [998.4, 335], 'bid': 6.36}]",13476.700000047684,1669830809823,orange slices,popsicles,6.68,6.36,-0.3199999999999994,orange slices,1880,1881,1880.5,True,u,15866.700000047684,2390.0,1669830812213,2390,HRV,HRV_0091,2022-11-30 17:58:11
7,"[{'imgObject': {}, 'id': 'orange slices', 'src': '/static/foodstim60/orange slices.jpg', 'key': 'u', 'origWidth': 409, 'origHeight': 410, 'width': 409, 'height': 410, 'widthPercent': 0.45, 'rescaleHeight': False, 'trialN': 7, 'loaded': True, 'loadedTime': 2776.800000190735, 'positionName': 'LEFT', 'positionCoords': [512.6, 335], 'bid': 6.68}, {'imgObject': {}, 'id': 'cheerios', 'src': '/static/foodstim60/cheerios.jpg', 'key': 'i', 'origWidth': 409, 'origHeight': 410, 'width': 409, 'height': 410, 'widthPercent': 0.45, 'rescaleHeight': False, 'trialN': 7, 'loaded': True, 'loadedTime': 2766.100000143051, 'positionName': 'RIGHT', 'positionCoords': [998.4, 335], 'bid': 6.72}]",15867.0,1669830812214,orange slices,cheerios,6.68,6.72,0.040000000000000036,cheerios,981.7000000476837,982,982.3000001907349,True,i,17363.5,1496.5,1669830813710,1496,HRV,HRV_0091,2022-11-30 17:58:11
8,"[{'imgObject': {}, 'id': 'eggsalad', 'src': '/static/foodstim60/eggsalad.jpg', 'key': 'u', 'origWidth': 410, 'origHeight': 409, 'width': 410, 'height': 409, 'widthPercent': 0.45, 'rescaleHeight': False, 'trialN': 8, 'loaded': True, 'loadedTime': 2639.9000000953674, 'positionName': 'LEFT', 'positionCoords': [511.6, 335.5], 'bid': 4.98}, {'imgObject': {}, 'id': 'hotdog w must', 'src': '/static/foodstim60/hotdog w must.jpg', 'key': 'i', 'origWidth': 409, 'origHeight': 409, 'width': 409, 'height': 409, 'widthPercent': 0.45, 'rescaleHeight': False, 'trialN': 8, 'loaded': True, 'loadedTime': 2641.5, 'positionName': 'RIGHT', 'positionCoords': [998.4, 335.5], 'bid': 4.97}]",17363.700000047684,1669830813710,eggsalad,hotdog w must,4.98,4.97,-0.010000000000000675,eggsalad,1578.6000001430511,1579,1579.2999999523163,True,u,19447.800000190735,2084.100000143051,1669830815794,2084,HRV,HRV_0091,2022-11-30 17:58:11
9,"[{'imgObject': {}, 'id': 'cheerios', 'src': '/static/foodstim60/cheerios.jpg', 'key': 'u', 'origWidth': 409, 'origHeight': 410, 'width': 409, 'height': 410, 'widthPercent': 0.45, 'rescaleHeight': False, 'trialN': 9, 'loaded': True, 'loadedTime': 2776.600000143051, 'positionName': 'LEFT', 'positionCoords': [512.6, 335], 'bid': 6.72}, {'imgObject': {}, 'id': 'salad w chicken', 'src': '/static/foodstim60/salad w chicken.jpg', 'key': 'i', 'origWidth': 411, 'origHeight': 411, 'width': 411, 'height': 411, 'widthPercent': 0.45, 'rescaleHeight': False, 'trialN': 9, 'loaded': True, 'loadedTime': 2643.800000190735, 'positionName': 'RIGHT', 'positionCoords': [998.4, 334.5], 'bid': 6.390000000000001}]",19448.10000014305,1669830815795,cheerios,salad w chicken,6.72,6.390000000000001,-0.3299999999999992,salad w chicken,703.5999999046326,704,704.0999999046326,True,i,20655.300000190735,1207.2000000476837,1669830817002,1207,HRV,HRV_0091,2022-11-30 17:58:11
10,"[{'imgObject': {}, 'id': 'sweetpotato', 'src': '/static/foodstim60/sweetpotato.jpg', 'key': 'u', 'origWidth': 410, 'origHeight': 410, 'width': 410, 'height': 410, 'widthPercent': 0.45, 'rescaleHeight': False, 'trialN': 10, 'loaded': True, 'loadedTime': 2648.800000190735, 'positionName': 'LEFT', 'positionCoords': [511.6, 335], 'bid': 3.47}, {'imgObject': {}, 'id': 'edamame', 'src': '/static/foodstim60/edamame.jpg', 'key': 'i', 'origWidth': 409, 'origHeight': 410, 'width': 409, 'height': 410, 'widthPercent': 0.45, 'rescaleHeight': False, 'trialN': 10, 'loaded': True, 'loadedTime': 2586.2000000476837, 'positionName': 'RIGHT', 'positionCoords': [998.4, 335], 'bid': 3.46}]",20655.400000095367,1669830817002,sweetpotato,edamame,3.47,3.46,-0.010000000000000231,edamame,1798.2000000476837,1799,1798.7000000476837,True,i,22968.10000014305,2312.7000000476837,1669830819315,2313,HRV,HRV_0091,2022-11-30 17:58:11
11,"[{'imgObject': {}, 'id': 'seaweed', 'src': '/static/foodstim60/seaweed.jpg', 'key': 'u', 'origWidth': 410, 'origHeight': 410, 'width': 410, 'height': 410, 'widthPercent': 0.45, 'rescaleHeight': False, 'trialN': 11, 'loaded': True, 'loadedTime': 2674, 'positionName': 'LEFT', 'positionCoords': [511.6, 335], 'bid': 3.35}, {'imgObject': {}, 'id': 'baked potato', 'src': '/static/foodstim60/baked potato.jpg', 'key': 'i', 'origWidth': 409, 'origHeight': 410, 'width': 409, 'height': 410, 'widthPercent': 0.45, 'rescaleHeight': False, 'trialN': 11, 'loaded': True, 'loadedTime': 2714.800000190735, 'positionName': 'RIGHT', 'positionCoords': [998.4, 335], 'bid': 3.77}]",22968.400000095367,1669830819315,seaweed,baked potato,3.35,3.77,0.41999999999999993,baked potato,1238.0999999046326,1239,1238.7000000476837,True,i,24723.0,1754.5999999046326,1669830821070,1755,HRV,HRV_0091,2022-11-30 17:58:11
12,"[{'imgObject': {}, 'id': 'mashed potato', 'src': '/static/foodstim60/mashed potato.jpg', 'key': 'u', 'origWidth': 409, 'origHeight': 409, 'width': 409, 'height': 409, 'widthPercent': 0.45, 'rescaleHeight': False, 'trialN': 12, 'loaded': True, 'loadedTime': 2682.9000000953674, 'positionName': 'LEFT', 'positionCoords': [512.6, 335.5], 'bid': 5.0200000000000005}, {'imgObject': {}, 'id': 'rigatoni and sauce', 'src': '/static/foodstim60/rigatoni and sauce.jpg', 'key': 'i', 'origWidth': 410, 'origHeight': 411, 'width': 410, 'height': 411, 'widthPercent': 0.45, 'rescaleHeight': False, 'trialN': 12, 'loaded': True, 'loadedTime': 2690.7000000476837, 'positionName': 'RIGHT', 'positionCoords': [998.4, 334.5], 'bid': 5.04}]",24723.300000190735,1669830821070,mashed potato,rigatoni and sauce,5.0200000000000005,5.04,0.019999999999999574,rigatoni and sauce,2105.0999999046326,2105,2105.5999999046326,True,i,27347.400000095367,2624.0999999046326,1669830823694,2624,HRV,HRV_0091,2022-11-30 17:58:11
13,"[{'imgObject': {}, 'id': 'salmon', 'src': '/static/foodstim60/salmon.jpg', 'key': 'u', 'origWidth': 410, 'origHeight': 409, 'width': 410, 'height': 409, 'widthPercent': 0.45, 'rescaleHeight': False, 'trialN': 13, 'loaded': True, 'loadedTime': 2699, 'positionName': 'LEFT', 'positionCoords': [511.6, 335.5], 'bid': 4.96}, {'imgObject': {}, 'id': 'kiwi', 'src': '/static/foodstim60/kiwi.jpg', 'key': 'i', 'origWidth': 410, 'origHeight': 410, 'width': 410, 'height': 410, 'widthPercent': 0.45, 'rescaleHeight': False, 'trialN': 13, 'loaded': True, 'loadedTime': 2730.300000190735, 'positionName': 'RIGHT', 'positionCoords': [998.4, 335], 'bid': 4.86}]",27347.60000014305,1669830823694,salmon,kiwi,4.96,4.86,-0.09999999999999964,salmon,1121.5999999046326,1122,1122.2000000476837,True,u,28986.200000047684,1638.5999999046326,1669830825333,1639,HRV,HRV_0091,2022-11-30 17:58:11
14,"[{'imgObject': {}, 'id': 'salad w chicken', 'src': '/static/foodstim60/salad w chicken.jpg', 'key': 'u', 'origWidth': 411, 'origHeight': 411, 'width': 411, 'height': 411, 'widthPercent': 0.45, 'rescaleHeight': False, 'trialN': 14, 'loaded': True, 'loadedTime': 2643.9000000953674, 'positionName': 'LEFT', 'positionCoords': [510.6, 334.5], 'bid': 6.390000000000001}, {'imgObject': {}, 'id': 'strawberries', 'src': '/static/foodstim60/strawberries.jpg', 'key': 'i', 'origWidth': 410, 'origHeight': 410, 'width': 410, 'height': 410, 'widthPercent': 0.45, 'rescaleHeight': False, 'trialN': 14, 'loaded': True, 'loadedTime': 2748.2000000476837, 'positionName': 'RIGHT', 'positionCoords': [998.4, 335], 'bid': 6.36}]",28986.400000095367,1669830825333,salad w chicken,strawberries,6.390000000000001,6.36,-0.03000000000000025,salad w chicken,1478.2999999523163,1479,1478.9000000953674,True,u,30968.900000095367,1982.5,1669830827315,1982,HRV,HRV_0091,2022-11-30 17:58:11
15,"[{'imgObject': {}, 'id': 'veggieswithdip', 'src': '/static/foodstim60/veggieswithdip.jpg', 'key': 'u', 'origWidth': 409, 'origHeight': 409, 'width': 409, 'height': 409, 'widthPercent': 0.45, 'rescaleHeight': False, 'trialN': 15, 'loaded': True, 'loadedTime': 2753.100000143051, 'positionName': 'LEFT', 'positionCoords': [512.6, 335.5], 'bid': 3.45}, {'imgObject': {}, 'id': 'cherries', 'src': '/static/foodstim60/cherries.jpg', 'key': 'i', 'origWidth': 410, 'origHeight': 411, 'width': 410, 'height': 411, 'widthPercent': 0.45, 'rescaleHeight': False, 'trialN': 15, 'loaded': True, 'loadedTime': 2757.7000000476837, 'positionName': 'RIGHT', 'positionCoords': [998.4, 334.5], 'bid': 3.38}]",30969.200000047684,1669830827316,veggieswithdip,cherries,3.45,3.38,-0.07000000000000028,veggieswithdip,3062.4000000953674,3063,3062.9000000953674,True,u,34547.300000190735,3578.100000143051,1669830830894,3578,HRV,HRV_0091,2022-11-30 17:58:11
16,"[{'imgObject': {}, 'id': 'fried eggs', 'src': '/static/foodstim60/fried eggs.jpg', 'key': 'u', 'origWidth': 410, 'origHeight': 410, 'width': 410, 'height': 410, 'widthPercent': 0.45, 'rescaleHeight': False, 'trialN': 16, 'loaded': True, 'loadedTime': 2793.4000000953674, 'positionName': 'LEFT', 'positionCoords': [511.6, 335], 'bid': 6.18}, {'imgObject': {}, 'id': 'apple slices', 'src': '/static/foodstim60/apple slices.jpg', 'key': 'i', 'origWidth': 409, 'origHeight': 410, 'width': 409, 'height': 410, 'widthPercent': 0.45, 'rescaleHeight': False, 'trialN': 16, 'loaded': True, 'loadedTime': 2731.7000000476837, 'positionName': 'RIGHT', 'positionCoords': [998.4, 335], 'bid': 3.66}]",34547.5,1669830830894,fried eggs,apple slices,6.18,3.66,-2.5199999999999996,fried eggs,1205.2000000476837,1206,1205.7000000476837,True,u,36262.5,1715.0,1669830832609,1715,HRV,HRV_0091,2022-11-30 17:58:11
17,"[{'imgObject': {}, 'id': 'fried eggs', 'src': '/static/foodstim60/fried eggs.jpg', 'key': 'u', 'origWidth': 410, 'origHeight': 410, 'width': 410, 'height': 410, 'widthPercent': 0.45, 'rescaleHeight': False, 'trialN': 17, 'loaded': True, 'loadedTime': 2785.800000190735, 'positionName': 'LEFT', 'positionCoords': [511.6, 335], 'bid': 6.18}, {'imgObject': {}, 'id': 'roastedpotatoes', 'src': '/static/foodstim60/roastedpotatoes.jpg', 'key': 'i', 'origWidth': 409, 'origHeight': 410, 'width': 409, 'height': 410, 'widthPercent': 0.45, 'rescaleHeight': False, 'trialN': 17, 'loaded': True, 'loadedTime': 2794, 'positionName': 'RIGHT', 'positionCoords': [998.4, 335], 'bid': 5.23}]",36262.800000190735,1669830832609,fried eggs,roastedpotatoes,6.18,5.23,-0.9499999999999993,fried eggs,1208.2999999523163,1210,1209.1999998092651,True,u,37980.60000014305,1717.7999999523163,1669830834327,1718,HRV,HRV_0091,2022-11-30 17:58:11
18,"[{'imgObject': {}, 'id': 'ice cream sundae 002', 'src': '/static/foodstim60/ice cream sundae 002.jpg', 'key': 'u', 'origWidth': 409, 'origHeight': 409, 'width': 409, 'height': 409, 'widthPercent': 0.45, 'rescaleHeight': False, 'trialN': 18, 'loaded': True, 'loadedTime': 2805.600000143051, 'positionName': 'LEFT', 'positionCoords': [512.6, 335.5], 'bid': 5.05}, {'imgObject': {}, 'id': 'yogurt no spoon', 'src': '/static/foodstim60/yogurt no spoon.jpg', 'key': 'i', 'origWidth': 411, 'origHeight': 410, 'width': 411, 'height': 410, 'widthPercent': 0.45, 'rescaleHeight': False, 'trialN': 18, 'loaded': True, 'loadedTime': 2808.600000143051, 'positionName': 'RIGHT', 'positionCoords': [998.4, 335], 'bid': 4.97}]",37980.90000009537,1669830834327,ice cream sundae 002,yogurt no spoon,5.05,4.97,-0.08000000000000007,yogurt no spoon,1171,1172,1171.7000000476837,True,i,39662.200000047684,1681.2999999523163,1669830836009,1682,HRV,HRV_0091,2022-11-30 17:58:11
19,"[{'imgObject': {}, 'id': 'corn cob', 'src': '/static/foodstim60/corn cob.jpg', 'key': 'u', 'origWidth': 411, 'origHeight': 411, 'width': 411, 'height': 411, 'widthPercent': 0.45, 'rescaleHeight': False, 'trialN': 19, 'loaded': True, 'loadedTime': 2812.7000000476837, 'positionName': 'LEFT', 'positionCoords': [510.6, 334.5], 'bid': 4.97}, {'imgObject': {}, 'id': 'olives', 'src': '/static/foodstim60/olives.jpg', 'key': 'i', 'origWidth': 410, 'origHeight': 410, 'width': 410, 'height': 410, 'widthPercent': 0.45, 'rescaleHeight': False, 'trialN': 19, 'loaded': True, 'loadedTime': 2826.800000190735, 'positionName': 'RIGHT', 'positionCoords': [998.4, 335], 'bid': 3.72}]",39662.60000014305,1669830836009,corn cob,olives,4.97,3.72,-1.2499999999999996,corn cob,1034.8999998569489,1035,1035.3999998569489,True,u,41207.60000014305,1545.0,1669830837554,1545,HRV,HRV_0091,2022-11-30 17:58:11
20,"[{'imgObject': {}, 'id': 'olives', 'src': '/static/foodstim60/olives.jpg', 'key': 'u', 'origWidth': 410, 'origHeight': 410, 'width': 410, 'height': 410, 'widthPercent': 0.45, 'rescaleHeight': False, 'trialN': 20, 'loaded': True, 'loadedTime': 2826.7000000476837, 'positionName': 'LEFT', 'positionCoords': [511.6, 335], 'bid': 3.72}, {'imgObject': {}, 'id': 'avocado', 'src': '/static/foodstim60/avocado.jpg', 'key': 'i', 'origWidth': 409, 'origHeight': 409, 'width': 409, 'height': 409, 'widthPercent': 0.45, 'rescaleHeight': False, 'trialN': 20, 'loaded': True, 'loadedTime': 2834.2000000476837, 'positionName': 'RIGHT', 'positionCoords': [998.4, 335.5], 'bid': 3.53}]",41207.700000047684,1669830837554,olives,avocado,3.72,3.53,-0.1900000000000004,avocado,1920.2999999523163,1921,1920.9000000953674,True,i,43637.10000014305,2429.4000000953674,1669830839984,2430,HRV,HRV_0091,2022-11-30 17:58:11
21,"[{'imgObject': {}, 'id': 'cocktailshrimp', 'src': '/static/foodstim60/cocktailshrimp.jpg', 'key': 'u', 'origWidth': 410, 'origHeight': 410, 'width': 410, 'height': 410, 'widthPercent': 0.45, 'rescaleHeight': False, 'trialN': 21, 'loaded': True, 'loadedTime': 2622.100000143051, 'positionName': 'LEFT', 'positionCoords': [511.6, 335], 'bid': 3.47}, {'imgObject': {}, 'id': 'eggs', 'src': '/static/foodstim60/eggs.jpg', 'key': 'i', 'origWidth': 409, 'origHeight': 409, 'width': 409, 'height': 409, 'widthPercent': 0.45, 'rescaleHeight': False, 'trialN': 21, 'loaded': True, 'loadedTime': 2835.800000190735, 'positionName': 'RIGHT', 'positionCoords': [998.4, 335.5], 'bid': 4.93}]",43637.300000190735,1669830839984,cocktailshrimp,eggs,3.47,4.93,1.4599999999999995,eggs,990.5999999046326,991,991.0999999046326,True,i,45140.700000047684,1503.3999998569489,1669830841487,1503,HRV,HRV_0091,2022-11-30 17:58:11
22,"[{'imgObject': {}, 'id': 'blackbeanswithrice', 'src': '/static/foodstim60/blackbeanswithrice.jpg', 'key': 'u', 'origWidth': 410, 'origHeight': 410, 'width': 410, 'height': 410, 'widthPercent': 0.45, 'rescaleHeight': False, 'trialN': 22, 'loaded': True, 'loadedTime': 2844.100000143051, 'positionName': 'LEFT', 'positionCoords': [511.6, 335], 'bid': 3.19}, {'imgObject': {}, 'id': 'cherries', 'src': '/static/foodstim60/cherries.jpg', 'key': 'i', 'origWidth': 410, 'origHeight': 411, 'width': 410, 'height': 411, 'widthPercent': 0.45, 'rescaleHeight': False, 'trialN': 22, 'loaded': True, 'loadedTime': 2756.300000190735, 'positionName': 'RIGHT', 'positionCoords': [998.4, 334.5], 'bid': 3.38}]",45140.90000009537,1669830841487,blackbeanswithrice,cherries,3.19,3.38,0.18999999999999995,cherries,1767.0999999046326,1768,1767.5,True,i,47414.90000009537,2274.0,1669830843761,2274,HRV,HRV_0091,2022-11-30 17:58:11
23,"[{'imgObject': {}, 'id': 'cantaloupe', 'src': '/static/foodstim60/cantaloupe.jpg', 'key': 'u', 'origWidth': 409, 'origHeight': 409, 'width': 409, 'height': 409, 'widthPercent': 0.45, 'rescaleHeight': False, 'trialN': 23, 'loaded': True, 'loadedTime': 2851.4000000953674, 'positionName': 'LEFT', 'positionCoords': [512.6, 335.5], 'bid': 4.84}, {'imgObject': {}, 'id': 'cherries', 'src': '/static/foodstim60/cherries.jpg', 'key': 'i', 'origWidth': 410, 'origHeight': 411, 'width': 410, 'height': 411, 'widthPercent': 0.45, 'rescaleHeight': False, 'trialN': 23, 'loaded': True, 'loadedTime': 2765.7000000476837, 'positionName': 'RIGHT', 'positionCoords': [998.4, 334.5], 'bid': 3.38}]",47415.200000047684,1669830843762,cantaloupe,cherries,4.84,3.38,-1.46,cantaloupe,1059.4000000953674,1060,1059.9000000953674,True,u,48996.700000047684,1581.5,1669830845343,1581,HRV,HRV_0091,2022-11-30 17:58:11
24,"[{'imgObject': {}, 'id': 'sweetpotato', 'src': '/static/foodstim60/sweetpotato.jpg', 'key': 'u', 'origWidth': 410, 'origHeight': 410, 'width': 410, 'height': 410, 'widthPercent': 0.45, 'rescaleHeight': False, 'trialN': 24, 'loaded': True, 'loadedTime': 2649, 'positionName': 'LEFT', 'positionCoords': [511.6, 335], 'bid': 3.47}, {'imgObject': {}, 'id': 'banana', 'src': '/static/foodstim60/banana.jpg', 'key': 'i', 'origWidth': 410, 'origHeight': 410, 'width': 410, 'height': 410, 'widthPercent': 0.45, 'rescaleHeight': False, 'trialN': 24, 'loaded': True, 'loadedTime': 2851.600000143051, 'positionName': 'RIGHT', 'positionCoords': [998.4, 335], 'bid': 4.93}]",48996.90000009537,1669830845343,sweetpotato,banana,3.47,4.93,1.4599999999999995,banana,666.5,667,667.0999999046326,True,i,50181.0,1184.0999999046326,1669830846528,1185,HRV,HRV_0091,2022-11-30 17:58:11
25,"[{'imgObject': {}, 'id': 'granola w milk', 'src': '/static/foodstim60/granola w milk.jpg', 'key': 'u', 'origWidth': 410, 'origHeight': 410, 'width': 410, 'height': 410, 'widthPercent': 0.45, 'rescaleHeight': False, 'trialN': 25, 'loaded': True, 'loadedTime': 2646.800000190735, 'positionName': 'LEFT', 'positionCoords': [511.6, 335], 'bid': 6.48}, {'imgObject': {}, 'id': 'Grapes', 'src': '/static/foodstim60/Grapes.jpg', 'key': 'i', 'origWidth': 411, 'origHeight': 411, 'width': 411, 'height': 411, 'widthPercent': 0.45, 'rescaleHeight': False, 'trialN': 25, 'loaded': True, 'loadedTime': 2860.4000000953674, 'positionName': 'RIGHT', 'positionCoords': [998.4, 334.5], 'bid': 5.0600000000000005}]",50181.300000190735,1669830846528,granola w milk,Grapes,6.48,5.0600000000000005,-1.42,Grapes,1209,1209,1209.6999998092651,True,i,51902.90000009537,1721.5999999046326,1669830848249,1721,HRV,HRV_0091,2022-11-30 17:58:11
26,"[{'imgObject': {}, 'id': 'burrito', 'src': '/static/foodstim60/burrito.jpg', 'key': 'u', 'origWidth': 410, 'origHeight': 410, 'width': 410, 'height': 410, 'widthPercent': 0.45, 'rescaleHeight': False, 'trialN': 26, 'loaded': True, 'loadedTime': 2868.2000000476837, 'positionName': 'LEFT', 'positionCoords': [511.6, 335], 'bid': 4.97}, {'imgObject': {}, 'id': 'rigatoni', 'src': '/static/foodstim60/rigatoni.jpg', 'key': 'i', 'origWidth': 411, 'origHeight': 411, 'width': 411, 'height': 411, 'widthPercent': 0.45, 'rescaleHeight': False, 'trialN': 26, 'loaded': True, 'loadedTime': 2876.4000000953674, 'positionName': 'RIGHT', 'positionCoords': [998.4, 334.5], 'bid': 4.96}]",51903.10000014305,1669830848250,burrito,rigatoni,4.97,4.96,-0.009999999999999787,burrito,1675.5999999046326,1676,1676.2000000476837,True,u,54096.0,2192.899999856949,1669830850442,2192,HRV,HRV_0091,2022-11-30 17:58:11
27,"[{'imgObject': {}, 'id': 'eggsalad', 'src': '/static/foodstim60/eggsalad.jpg', 'key': 'u', 'origWidth': 410, 'origHeight': 409, 'width': 410, 'height': 409, 'widthPercent': 0.45, 'rescaleHeight': False, 'trialN': 27, 'loaded': True, 'loadedTime': 2640, 'positionName': 'LEFT', 'positionCoords': [511.6, 335.5], 'bid': 4.98}, {'imgObject': {}, 'id': 'tacos', 'src': '/static/foodstim60/tacos.jpg', 'key': 'i', 'origWidth': 411, 'origHeight': 411, 'width': 411, 'height': 411, 'widthPercent': 0.45, 'rescaleHeight': False, 'trialN': 27, 'loaded': True, 'loadedTime': 2883.7000000476837, 'positionName': 'RIGHT', 'positionCoords': [998.4, 334.5], 'bid': 5}]",54096.200000047684,1669830850443,eggsalad,tacos,4.98,5.0,0.019999999999999574,tacos,1423.7999999523163,1424,1424.4000000953674,True,i,56035.5,1939.2999999523163,1669830852382,1939,HRV,HRV_0091,2022-11-30 17:58:11
28,"[{'imgObject': {}, 'id': 'eggs', 'src': '/static/foodstim60/eggs.jpg', 'key': 'u', 'origWidth': 409, 'origHeight': 409, 'width': 409, 'height': 409, 'widthPercent': 0.45, 'rescaleHeight': False, 'trialN': 28, 'loaded': True, 'loadedTime': 2842.2000000476837, 'positionName': 'LEFT', 'positionCoords': [512.6, 335.5], 'bid': 4.93}, {'imgObject': {}, 'id': 'fruitsalad', 'src': '/static/foodstim60/fruitsalad.jpg', 'key': 'i', 'origWidth': 410, 'origHeight': 410, 'width': 410, 'height': 410, 'widthPercent': 0.45, 'rescaleHeight': False, 'trialN': 28, 'loaded': True, 'loadedTime': 2750.800000190735, 'positionName': 'RIGHT', 'positionCoords': [998.4, 335], 'bid': 4.94}]",56035.800000190735,1669830852382,eggs,fruitsalad,4.93,4.94,0.010000000000000675,eggs,1743.0999999046326,1744,1743.5999999046326,True,u,58300.10000014305,2264.2999999523163,1669830854647,2265,HRV,HRV_0091,2022-11-30 17:58:11
29,"[{'imgObject': {}, 'id': 'turkeysandwich', 'src': '/static/foodstim60/turkeysandwich.jpg', 'key': 'u', 'origWidth': 409, 'origHeight': 409, 'width': 409, 'height': 409, 'widthPercent': 0.45, 'rescaleHeight': False, 'trialN': 29, 'loaded': True, 'loadedTime': 2884.9000000953674, 'positionName': 'LEFT', 'positionCoords': [512.6, 335.5], 'bid': 6.5600000000000005}, {'imgObject': {}, 'id': 'luckycharms', 'src': '/static/foodstim60/luckycharms.jpg', 'key': 'i', 'origWidth': 410, 'origHeight': 409, 'width': 410, 'height': 409, 'widthPercent': 0.45, 'rescaleHeight': False, 'trialN': 29, 'loaded': True, 'loadedTime': 2892.100000143051, 'positionName': 'RIGHT', 'positionCoords': [998.4, 335.5], 'bid': 6.57}]",58300.300000190735,1669830854647,turkeysandwich,luckycharms,6.5600000000000005,6.57,0.009999999999999787,turkeysandwich,1740.3999998569489,1741,1741.0,True,u,60546.700000047684,2246.399999856949,1669830856893,2246,HRV,HRV_0091,2022-11-30 17:58:11
30,"[{'imgObject': {}, 'id': 'corn cob', 'src': '/static/foodstim60/corn cob.jpg', 'key': 'u', 'origWidth': 411, 'origHeight': 411, 'width': 411, 'height': 411, 'widthPercent': 0.45, 'rescaleHeight': False, 'trialN': 30, 'loaded': True, 'loadedTime': 2819.100000143051, 'positionName': 'LEFT', 'positionCoords': [510.6, 334.5], 'bid': 4.97}, {'imgObject': {}, 'id': 'hotdog w must', 'src': '/static/foodstim60/hotdog w must.jpg', 'key': 'i', 'origWidth': 409, 'origHeight': 409, 'width': 409, 'height': 409, 'widthPercent': 0.45, 'rescaleHeight': False, 'trialN': 30, 'loaded': True, 'loadedTime': 2641.2000000476837, 'positionName': 'RIGHT', 'positionCoords': [998.4, 335.5], 'bid': 4.97}]",60546.90000009537,1669830856893,corn cob,hotdog w must,4.97,4.97,0.0,corn cob,1553.9000000953674,1555,1554.5999999046326,True,u,62611.200000047684,2064.2999999523163,1669830858958,2065,HRV,HRV_0091,2022-11-30 17:58:11
31,"[{'imgObject': {}, 'id': 'steak', 'src': '/static/foodstim60/steak.jpg', 'key': 'u', 'origWidth': 410, 'origHeight': 410, 'width': 410, 'height': 410, 'widthPercent': 0.45, 'rescaleHeight': False, 'trialN': 31, 'loaded': True, 'loadedTime': 2902.300000190735, 'positionName': 'LEFT', 'positionCoords': [511.6, 335], 'bid': 6.71}, {'imgObject': {}, 'id': 'tacos', 'src': '/static/foodstim60/tacos.jpg', 'key': 'i', 'origWidth': 411, 'origHeight': 411, 'width': 411, 'height': 411, 'widthPercent': 0.45, 'rescaleHeight': False, 'trialN': 31, 'loaded': True, 'loadedTime': 2883.100000143051, 'positionName': 'RIGHT', 'positionCoords': [998.4, 334.5], 'bid': 5}]",62611.40000009537,1669830858958,steak,tacos,6.71,5.0,-1.71,steak,1105.5999999046326,1106,1106.2999999523163,True,u,64236.60000014305,1625.2000000476837,1669830860583,1625,HRV,HRV_0091,2022-11-30 17:58:11
32,"[{'imgObject': {}, 'id': 'cherries', 'src': '/static/foodstim60/cherries.jpg', 'key': 'u', 'origWidth': 410, 'origHeight': 411, 'width': 410, 'height': 411, 'widthPercent': 0.45, 'rescaleHeight': False, 'trialN': 32, 'loaded': True, 'loadedTime': 2757.5, 'positionName': 'LEFT', 'positionCoords': [511.6, 334.5], 'bid': 3.38}, {'imgObject': {}, 'id': 'fruitsalad', 'src': '/static/foodstim60/fruitsalad.jpg', 'key': 'i', 'origWidth': 410, 'origHeight': 410, 'width': 410, 'height': 410, 'widthPercent': 0.45, 'rescaleHeight': False, 'trialN': 32, 'loaded': True, 'loadedTime': 2751.300000190735, 'positionName': 'RIGHT', 'positionCoords': [998.4, 335], 'bid': 4.94}]",64236.800000190735,1669830860583,cherries,fruitsalad,3.38,4.94,1.5600000000000005,fruitsalad,1011.1999998092651,1012,1011.8999998569489,True,i,65756.40000009537,1519.5999999046326,1669830862103,1520,HRV,HRV_0091,2022-11-30 17:58:11
33,"[{'imgObject': {}, 'id': 'avocado', 'src': '/static/foodstim60/avocado.jpg', 'key': 'u', 'origWidth': 409, 'origHeight': 409, 'width': 409, 'height': 409, 'widthPercent': 0.45, 'rescaleHeight': False, 'trialN': 33, 'loaded': True, 'loadedTime': 2834.5, 'positionName': 'LEFT', 'positionCoords': [512.6, 335.5], 'bid': 3.53}, {'imgObject': {}, 'id': 'lox', 'src': '/static/foodstim60/lox.jpg', 'key': 'i', 'origWidth': 410, 'origHeight': 411, 'width': 410, 'height': 411, 'widthPercent': 0.45, 'rescaleHeight': False, 'trialN': 33, 'loaded': True, 'loadedTime': 2908.2000000476837, 'positionName': 'RIGHT', 'positionCoords': [998.4, 334.5], 'bid': 4.95}]",65756.5,1669830862103,avocado,lox,3.53,4.95,1.4200000000000004,lox,1290.1000001430511,1291,1290.6000001430511,True,i,67561.5,1805.0,1669830863908,1805,HRV,HRV_0091,2022-11-30 17:58:11
34,"[{'imgObject': {}, 'id': 'pear', 'src': '/static/foodstim60/pear.jpg', 'key': 'u', 'origWidth': 411, 'origHeight': 410, 'width': 411, 'height': 410, 'widthPercent': 0.45, 'rescaleHeight': False, 'trialN': 34, 'loaded': True, 'loadedTime': 2908.300000190735, 'positionName': 'LEFT', 'positionCoords': [510.6, 335], 'bid': 5.03}, {'imgObject': {}, 'id': 'burger', 'src': '/static/foodstim60/burger.jpg', 'key': 'i', 'origWidth': 409, 'origHeight': 409, 'width': 409, 'height': 409, 'widthPercent': 0.45, 'rescaleHeight': False, 'trialN': 34, 'loaded': True, 'loadedTime': 2919.7000000476837, 'positionName': 'RIGHT', 'positionCoords': [998.4, 335.5], 'bid': 6.82}]",67561.80000019073,1669830863908,pear,burger,5.03,6.82,1.79,burger,815.5,816,816.2999999523163,True,i,68892.70000004768,1330.8999998569489,1669830865239,1331,HRV,HRV_0091,2022-11-30 17:58:11
35,"[{'imgObject': {}, 'id': 'seaweed', 'src': '/static/foodstim60/seaweed.jpg', 'key': 'u', 'origWidth': 410, 'origHeight': 410, 'width': 410, 'height': 410, 'widthPercent': 0.45, 'rescaleHeight': False, 'trialN': 35, 'loaded': True, 'loadedTime': 2666.300000190735, 'positionName': 'LEFT', 'positionCoords': [511.6, 335], 'bid': 3.35}, {'imgObject': {}, 'id': 'eggs', 'src': '/static/foodstim60/eggs.jpg', 'key': 'i', 'origWidth': 409, 'origHeight': 409, 'width': 409, 'height': 409, 'widthPercent': 0.45, 'rescaleHeight': False, 'trialN': 35, 'loaded': True, 'loadedTime': 2834.7000000476837, 'positionName': 'RIGHT', 'positionCoords': [998.4, 335.5], 'bid': 4.93}]",68893.0,1669830865239,seaweed,eggs,3.35,4.93,1.5799999999999996,eggs,916.6000001430511,918,917.2000000476837,True,i,70329.10000014305,1436.1000001430511,1669830866675,1436,HRV,HRV_0091,2022-11-30 17:58:11
36,"[{'imgObject': {}, 'id': 'olives', 'src': '/static/foodstim60/olives.jpg', 'key': 'u', 'origWidth': 410, 'origHeight': 410, 'width': 410, 'height': 410, 'widthPercent': 0.45, 'rescaleHeight': False, 'trialN': 36, 'loaded': True, 'loadedTime': 2819.300000190735, 'positionName': 'LEFT', 'positionCoords': [511.6, 335], 'bid': 3.72}, {'imgObject': {}, 'id': 'edamame', 'src': '/static/foodstim60/edamame.jpg', 'key': 'i', 'origWidth': 409, 'origHeight': 410, 'width': 409, 'height': 410, 'widthPercent': 0.45, 'rescaleHeight': False, 'trialN': 36, 'loaded': True, 'loadedTime': 2600.2000000476837, 'positionName': 'RIGHT', 'positionCoords': [998.4, 335], 'bid': 3.46}]",70329.20000004768,1669830866676,olives,edamame,3.72,3.46,-0.26000000000000023,edamame,952.2999999523163,952,952.9000000953674,True,i,71794.70000004768,1465.5,1669830868141,1465,HRV,HRV_0091,2022-11-30 17:58:11
37,"[{'imgObject': {}, 'id': 'veggieswithdip', 'src': '/static/foodstim60/veggieswithdip.jpg', 'key': 'u', 'origWidth': 409, 'origHeight': 409, 'width': 409, 'height': 409, 'widthPercent': 0.45, 'rescaleHeight': False, 'trialN': 37, 'loaded': True, 'loadedTime': 2751.800000190735, 'positionName': 'LEFT', 'positionCoords': [512.6, 335.5], 'bid': 3.45}, {'imgObject': {}, 'id': 'lox', 'src': '/static/foodstim60/lox.jpg', 'key': 'i', 'origWidth': 410, 'origHeight': 411, 'width': 410, 'height': 411, 'widthPercent': 0.45, 'rescaleHeight': False, 'trialN': 37, 'loaded': True, 'loadedTime': 2908.100000143051, 'positionName': 'RIGHT', 'positionCoords': [998.4, 334.5], 'bid': 4.95}]",71794.90000009537,1669830868141,veggieswithdip,lox,3.45,4.95,1.5,lox,1282.2000000476837,1283,1282.9000000953674,True,i,73588.80000019073,1793.9000000953674,1669830869935,1794,HRV,HRV_0091,2022-11-30 17:58:11
38,"[{'imgObject': {}, 'id': 'banana', 'src': '/static/foodstim60/banana.jpg', 'key': 'u', 'origWidth': 410, 'origHeight': 410, 'width': 410, 'height': 410, 'widthPercent': 0.45, 'rescaleHeight': False, 'trialN': 38, 'loaded': True, 'loadedTime': 2852.5, 'positionName': 'LEFT', 'positionCoords': [511.6, 335], 'bid': 4.93}, {'imgObject': {}, 'id': 'sushi w_condiments', 'src': '/static/foodstim60/sushi w_condiments.jpg', 'key': 'i', 'origWidth': 410, 'origHeight': 410, 'width': 410, 'height': 410, 'widthPercent': 0.45, 'rescaleHeight': False, 'trialN': 38, 'loaded': True, 'loadedTime': 2921.2000000476837, 'positionName': 'RIGHT', 'positionCoords': [998.4, 335], 'bid': 4.91}]",73589.10000014305,1669830869935,banana,sushi w_condiments,4.93,4.91,-0.019999999999999574,banana,1424.5999999046326,1425,1425.0,True,u,75521.70000004768,1932.5999999046326,1669830871868,1933,HRV,HRV_0091,2022-11-30 17:58:11
39,"[{'imgObject': {}, 'id': 'omelette', 'src': '/static/foodstim60/omelette.jpg', 'key': 'u', 'origWidth': 410, 'origHeight': 409, 'width': 410, 'height': 409, 'widthPercent': 0.45, 'rescaleHeight': False, 'trialN': 39, 'loaded': True, 'loadedTime': 2921.300000190735, 'positionName': 'LEFT', 'positionCoords': [511.6, 335.5], 'bid': 5.07}, {'imgObject': {}, 'id': 'tacos', 'src': '/static/foodstim60/tacos.jpg', 'key': 'i', 'origWidth': 411, 'origHeight': 411, 'width': 411, 'height': 411, 'widthPercent': 0.45, 'rescaleHeight': False, 'trialN': 39, 'loaded': True, 'loadedTime': 2883.9000000953674, 'positionName': 'RIGHT', 'positionCoords': [998.4, 334.5], 'bid': 5}]",75522.0,1669830871868,omelette,tacos,5.07,5.0,-0.07000000000000028,tacos,1738.2000000476837,1739,1738.5,True,i,77771.5,2249.5,1669830874118,2250,HRV,HRV_0091,2022-11-30 17:58:11
40,"[{'imgObject': {}, 'id': 'burrito', 'src': '/static/foodstim60/burrito.jpg', 'key': 'u', 'origWidth': 410, 'origHeight': 410, 'width': 410, 'height': 410, 'widthPercent': 0.45, 'rescaleHeight': False, 'trialN': 40, 'loaded': True, 'loadedTime': 2867.100000143051, 'positionName': 'LEFT', 'positionCoords': [511.6, 335], 'bid': 4.97}, {'imgObject': {}, 'id': 'cherry tomato', 'src': '/static/foodstim60/cherry tomato.jpg', 'key': 'i', 'origWidth': 410, 'origHeight': 410, 'width': 410, 'height': 410, 'widthPercent': 0.45, 'rescaleHeight': False, 'trialN': 40, 'loaded': True, 'loadedTime': 2929.7000000476837, 'positionName': 'RIGHT', 'positionCoords': [998.4, 335], 'bid': 3.52}]",77771.80000019073,1669830874118,burrito,cherry tomato,4.97,3.52,-1.4499999999999997,burrito,817.3999998569489,818,818.0999999046326,True,u,79107.90000009537,1336.0999999046326,1669830875454,1336,HRV,HRV_0091,2022-11-30 17:58:11
41,"[{'imgObject': {}, 'id': 'grilled chicken strips', 'src': '/static/foodstim60/grilled chicken strips.jpg', 'key': 'u', 'origWidth': 410, 'origHeight': 411, 'width': 410, 'height': 411, 'widthPercent': 0.45, 'rescaleHeight': False, 'trialN': 41, 'loaded': True, 'loadedTime': 2931, 'positionName': 'LEFT', 'positionCoords': [511.6, 334.5], 'bid': 6.5200000000000005}, {'imgObject': {}, 'id': 'mango', 'src': '/static/foodstim60/mango.jpg', 'key': 'i', 'origWidth': 411, 'origHeight': 411, 'width': 411, 'height': 411, 'widthPercent': 0.45, 'rescaleHeight': False, 'trialN': 41, 'loaded': True, 'loadedTime': 2939.300000190735, 'positionName': 'RIGHT', 'positionCoords': [998.4, 334.5], 'bid': 5.1000000000000005}]",79108.10000014305,1669830875454,grilled chicken strips,mango,6.5200000000000005,5.1000000000000005,-1.42,grilled chicken strips,897.7999999523163,899,898.2000000476837,True,u,80525.80000019073,1417.7000000476837,1669830876872,1418,HRV,HRV_0091,2022-11-30 17:58:11
42,"[{'imgObject': {}, 'id': 'salad w chicken', 'src': '/static/foodstim60/salad w chicken.jpg', 'key': 'u', 'origWidth': 411, 'origHeight': 411, 'width': 411, 'height': 411, 'widthPercent': 0.45, 'rescaleHeight': False, 'trialN': 42, 'loaded': True, 'loadedTime': 2642.100000143051, 'positionName': 'LEFT', 'positionCoords': [510.6, 334.5], 'bid': 6.390000000000001}, {'imgObject': {}, 'id': 'blueberries', 'src': '/static/foodstim60/blueberries.jpg', 'key': 'i', 'origWidth': 411, 'origHeight': 411, 'width': 411, 'height': 411, 'widthPercent': 0.45, 'rescaleHeight': False, 'trialN': 42, 'loaded': True, 'loadedTime': 2946.4000000953674, 'positionName': 'RIGHT', 'positionCoords': [998.4, 334.5], 'bid': 5.19}]",80526.0,1669830876872,salad w chicken,blueberries,6.390000000000001,5.19,-1.2000000000000002,salad w chicken,1139.5,1140,1140.2000000476837,True,u,82170.70000004768,1644.7000000476837,1669830878517,1645,HRV,HRV_0091,2022-11-30 17:58:11
43,"[{'imgObject': {}, 'id': 'corn cob', 'src': '/static/foodstim60/corn cob.jpg', 'key': 'u', 'origWidth': 411, 'origHeight': 411, 'width': 411, 'height': 411, 'widthPercent': 0.45, 'rescaleHeight': False, 'trialN': 43, 'loaded': True, 'loadedTime': 2811.5, 'positionName': 'LEFT', 'positionCoords': [510.6, 334.5], 'bid': 4.97}, {'imgObject': {}, 'id': 'Tribe humus pita', 'src': '/static/foodstim60/Tribe humus pita.jpg', 'key': 'i', 'origWidth': 411, 'origHeight': 411, 'width': 411, 'height': 411, 'widthPercent': 0.45, 'rescaleHeight': False, 'trialN': 43, 'loaded': True, 'loadedTime': 2947.5, 'positionName': 'RIGHT', 'positionCoords': [998.4, 334.5], 'bid': 5.11}]",82171.0,1669830878517,corn cob,Tribe humus pita,4.97,5.11,0.14000000000000057,Tribe humus pita,1263.2000000476837,1264,1263.8000001907349,True,i,83947.90000009537,1776.9000000953674,1669830880294,1777,HRV,HRV_0091,2022-11-30 17:58:11
44,"[{'imgObject': {}, 'id': 'mashed potato', 'src': '/static/foodstim60/mashed potato.jpg', 'key': 'u', 'origWidth': 409, 'origHeight': 409, 'width': 409, 'height': 409, 'widthPercent': 0.45, 'rescaleHeight': False, 'trialN': 44, 'loaded': True, 'loadedTime': 2690.2000000476837, 'positionName': 'LEFT', 'positionCoords': [512.6, 335.5], 'bid': 5.0200000000000005}, {'imgObject': {}, 'id': 'pear', 'src': '/static/foodstim60/pear.jpg', 'key': 'i', 'origWidth': 411, 'origHeight': 410, 'width': 411, 'height': 410, 'widthPercent': 0.45, 'rescaleHeight': False, 'trialN': 44, 'loaded': True, 'loadedTime': 2909.9000000953674, 'positionName': 'RIGHT', 'positionCoords': [998.4, 335], 'bid': 5.03}]",83948.10000014305,1669830880294,mashed potato,pear,5.0200000000000005,5.03,0.009999999999999787,mashed potato,1649.7999999523163,1651,1650.2000000476837,True,u,86104.30000019073,2156.2000000476837,1669830882451,2157,HRV,HRV_0091,2022-11-30 17:58:11
45,"[{'imgObject': {}, 'id': 'bagel and cc', 'src': '/static/foodstim60/bagel and cc.jpg', 'key': 'u', 'origWidth': 410, 'origHeight': 410, 'width': 410, 'height': 410, 'widthPercent': 0.45, 'rescaleHeight': False, 'trialN': 45, 'loaded': True, 'loadedTime': 2646.800000190735, 'positionName': 'LEFT', 'positionCoords': [511.6, 335], 'bid': 6.42}, {'imgObject': {}, 'id': 'luckycharms', 'src': '/static/foodstim60/luckycharms.jpg', 'key': 'i', 'origWidth': 410, 'origHeight': 409, 'width': 410, 'height': 409, 'widthPercent': 0.45, 'rescaleHeight': False, 'trialN': 45, 'loaded': True, 'loadedTime': 2893, 'positionName': 'RIGHT', 'positionCoords': [998.4, 335.5], 'bid': 6.57}]",86104.5,1669830882451,bagel and cc,luckycharms,6.42,6.57,0.15000000000000036,luckycharms,1990.6000001430511,1991,1991.1000001430511,True,i,88609.5,2505.0,1669830884956,2505,HRV,HRV_0091,2022-11-30 17:58:11
46,"[{'imgObject': {}, 'id': 'mango', 'src': '/static/foodstim60/mango.jpg', 'key': 'u', 'origWidth': 411, 'origHeight': 411, 'width': 411, 'height': 411, 'widthPercent': 0.45, 'rescaleHeight': False, 'trialN': 46, 'loaded': True, 'loadedTime': 2939.2000000476837, 'positionName': 'LEFT', 'positionCoords': [510.6, 334.5], 'bid': 5.1000000000000005}, {'imgObject': {}, 'id': 'Grapes', 'src': '/static/foodstim60/Grapes.jpg', 'key': 'i', 'origWidth': 411, 'origHeight': 411, 'width': 411, 'height': 411, 'widthPercent': 0.45, 'rescaleHeight': False, 'trialN': 46, 'loaded': True, 'loadedTime': 2860.2000000476837, 'positionName': 'RIGHT', 'positionCoords': [998.4, 334.5], 'bid': 5.0600000000000005}]",88609.80000019073,1669830884956,mango,Grapes,5.1000000000000005,5.0600000000000005,-0.040000000000000036,Grapes,1336,1337,1336.3999998569489,True,i,90458.30000019073,1848.5,1669830886805,1849,HRV,HRV_0091,2022-11-30 17:58:11
47,"[{'imgObject': {}, 'id': 'cherries', 'src': '/static/foodstim60/cherries.jpg', 'key': 'u', 'origWidth': 410, 'origHeight': 411, 'width': 410, 'height': 411, 'widthPercent': 0.45, 'rescaleHeight': False, 'trialN': 47, 'loaded': True, 'loadedTime': 2757.600000143051, 'positionName': 'LEFT', 'positionCoords': [511.6, 334.5], 'bid': 3.38}, {'imgObject': {}, 'id': 'avocado', 'src': '/static/foodstim60/avocado.jpg', 'key': 'i', 'origWidth': 409, 'origHeight': 409, 'width': 409, 'height': 409, 'widthPercent': 0.45, 'rescaleHeight': False, 'trialN': 47, 'loaded': True, 'loadedTime': 2827.9000000953674, 'positionName': 'RIGHT', 'positionCoords': [998.4, 335.5], 'bid': 3.53}]",90458.5,1669830886805,cherries,avocado,3.38,3.53,0.1499999999999999,avocado,1095.1000001430511,1096,1095.6000001430511,True,i,92055.0,1596.5,1669830888401,1596,HRV,HRV_0091,2022-11-30 17:58:11
48,"[{'imgObject': {}, 'id': 'raspberries', 'src': '/static/foodstim60/raspberries.jpg', 'key': 'u', 'origWidth': 411, 'origHeight': 411, 'width': 411, 'height': 411, 'widthPercent': 0.45, 'rescaleHeight': False, 'trialN': 48, 'loaded': True, 'loadedTime': 2948.5, 'positionName': 'LEFT', 'positionCoords': [510.6, 334.5], 'bid': 6.55}, {'imgObject': {}, 'id': 'cheerios', 'src': '/static/foodstim60/cheerios.jpg', 'key': 'i', 'origWidth': 409, 'origHeight': 410, 'width': 409, 'height': 410, 'widthPercent': 0.45, 'rescaleHeight': False, 'trialN': 48, 'loaded': True, 'loadedTime': 2767.2000000476837, 'positionName': 'RIGHT', 'positionCoords': [998.4, 335], 'bid': 6.72}]",92055.30000019073,1669830888402,raspberries,cheerios,6.55,6.72,0.16999999999999993,cheerios,1952.1999998092651,1952,1952.5999999046326,True,i,94515.90000009537,2460.5999999046326,1669830890862,2460,HRV,HRV_0091,2022-11-30 17:58:11
49,"[{'imgObject': {}, 'id': 'yogurt no spoon', 'src': '/static/foodstim60/yogurt no spoon.jpg', 'key': 'u', 'origWidth': 411, 'origHeight': 410, 'width': 411, 'height': 410, 'widthPercent': 0.45, 'rescaleHeight': False, 'trialN': 49, 'loaded': True, 'loadedTime': 2808.5, 'positionName': 'LEFT', 'positionCoords': [510.6, 335], 'bid': 4.97}, {'imgObject': {}, 'id': 'cocktailshrimp', 'src': '/static/foodstim60/cocktailshrimp.jpg', 'key': 'i', 'origWidth': 410, 'origHeight': 410, 'width': 410, 'height': 410, 'widthPercent': 0.45, 'rescaleHeight': False, 'trialN': 49, 'loaded': True, 'loadedTime': 2631.100000143051, 'positionName': 'RIGHT', 'positionCoords': [998.4, 335], 'bid': 3.47}]",94516.10000014305,1669830890862,yogurt no spoon,cocktailshrimp,4.97,3.47,-1.4999999999999996,yogurt no spoon,1022,1023,1022.7999999523163,True,u,96051.20000004768,1535.0999999046326,1669830892398,1536,HRV,HRV_0091,2022-11-30 17:58:11
50,"[{'imgObject': {}, 'id': 'salmon', 'src': '/static/foodstim60/salmon.jpg', 'key': 'u', 'origWidth': 410, 'origHeight': 409, 'width': 410, 'height': 409, 'widthPercent': 0.45, 'rescaleHeight': False, 'trialN': 50, 'loaded': True, 'loadedTime': 2707.2000000476837, 'positionName': 'LEFT', 'positionCoords': [511.6, 335.5], 'bid': 4.96}, {'imgObject': {}, 'id': 'fruitsalad', 'src': '/static/foodstim60/fruitsalad.jpg', 'key': 'i', 'origWidth': 410, 'origHeight': 410, 'width': 410, 'height': 410, 'widthPercent': 0.45, 'rescaleHeight': False, 'trialN': 50, 'loaded': True, 'loadedTime': 2751.600000143051, 'positionName': 'RIGHT', 'positionCoords': [998.4, 335], 'bid': 4.94}]",96051.5,1669830892398,salmon,fruitsalad,4.96,4.94,-0.019999999999999574,salmon,2387.300000190735,2388,2388.0,True,u,98956.80000019073,2905.300000190735,1669830895303,2905,HRV,HRV_0091,2022-11-30 17:58:11
51,"[{'imgObject': {}, 'id': 'avocado', 'src': '/static/foodstim60/avocado.jpg', 'key': 'u', 'origWidth': 409, 'origHeight': 409, 'width': 409, 'height': 409, 'widthPercent': 0.45, 'rescaleHeight': False, 'trialN': 51, 'loaded': True, 'loadedTime': 2827, 'positionName': 'LEFT', 'positionCoords': [512.6, 335.5], 'bid': 3.53}, {'imgObject': {}, 'id': 'apple slices', 'src': '/static/foodstim60/apple slices.jpg', 'key': 'i', 'origWidth': 409, 'origHeight': 410, 'width': 409, 'height': 410, 'widthPercent': 0.45, 'rescaleHeight': False, 'trialN': 51, 'loaded': True, 'loadedTime': 2731.4000000953674, 'positionName': 'RIGHT', 'positionCoords': [998.4, 335], 'bid': 3.66}]",98957.0,1669830895303,avocado,apple slices,3.53,3.66,0.13000000000000034,NaN,NaN,NaN,,False,NaN,102983.0,4026.0,1669830899329,4026,HRV,HRV_0091,2022-11-30 17:58:11
52,"[{'imgObject': {}, 'id': 'cherry tomato', 'src': '/static/foodstim60/cherry tomato.jpg', 'key': 'u', 'origWidth': 410, 'origHeight': 410, 'width': 410, 'height': 410, 'widthPercent': 0.45, 'rescaleHeight': False, 'trialN': 52, 'loaded': True, 'loadedTime': 2929.5, 'positionName': 'LEFT', 'positionCoords': [511.6, 335], 'bid': 3.52}, {'imgObject': {}, 'id': 'fruitsalad', 'src': '/static/foodstim60/fruitsalad.jpg', 'key': 'i', 'origWidth': 410, 'origHeight': 410, 'width': 410, 'height': 410, 'widthPercent': 0.45, 'rescaleHeight': False, 'trialN': 52, 'loaded': True, 'loadedTime': 2750.300000190735, 'positionName': 'RIGHT', 'positionCoords': [998.4, 335], 'bid': 4.94}]",102983.10000014305,1669830899330,cherry tomato,fruitsalad,3.52,4.94,1.4200000000000004,fruitsalad,3180,3180,3180.5999999046326,True,i,106679.80000019073,3696.7000000476837,1669830903026,3696,HRV,HRV_0091,2022-11-30 17:58:11
53,"[{'imgObject': {}, 'id': 'cantaloupe', 'src': '/static/foodstim60/cantaloupe.jpg', 'key': 'u', 'origWidth': 409, 'origHeight': 409, 'width': 409, 'height': 409, 'widthPercent': 0.45, 'rescaleHeight': False, 'trialN': 53, 'loaded': True, 'loadedTime': 2844.2000000476837, 'positionName': 'LEFT', 'positionCoords': [512.6, 335.5], 'bid': 4.84}, {'imgObject': {}, 'id': 'tacos', 'src': '/static/foodstim60/tacos.jpg', 'key': 'i', 'origWidth': 411, 'origHeight': 411, 'width': 411, 'height': 411, 'widthPercent': 0.45, 'rescaleHeight': False, 'trialN': 53, 'loaded': True, 'loadedTime': 2883.600000143051, 'positionName': 'RIGHT', 'positionCoords': [998.4, 334.5], 'bid': 5}]",106680.10000014305,1669830903026,cantaloupe,tacos,4.84,5.0,0.16000000000000014,tacos,1231.0999999046326,1232,1231.7000000476837,True,i,108415.5,1735.3999998569489,1669830904762,1736,HRV,HRV_0091,2022-11-30 17:58:11
54,"[{'imgObject': {}, 'id': 'corn cob', 'src': '/static/foodstim60/corn cob.jpg', 'key': 'u', 'origWidth': 411, 'origHeight': 411, 'width': 411, 'height': 411, 'widthPercent': 0.45, 'rescaleHeight': False, 'trialN': 54, 'loaded': True, 'loadedTime': 2812.600000143051, 'positionName': 'LEFT', 'positionCoords': [510.6, 334.5], 'bid': 4.97}, {'imgObject': {}, 'id': 'ice cream sundae 002', 'src': '/static/foodstim60/ice cream sundae 002.jpg', 'key': 'i', 'origWidth': 409, 'origHeight': 409, 'width': 409, 'height': 409, 'widthPercent': 0.45, 'rescaleHeight': False, 'trialN': 54, 'loaded': True, 'loadedTime': 2806.2000000476837, 'positionName': 'RIGHT', 'positionCoords': [998.4, 335.5], 'bid': 5.05}]",108415.70000004768,1669830904762,corn cob,ice cream sundae 002,4.97,5.05,0.08000000000000007,ice cream sundae 002,1100.9000000953674,1102,1101.5,True,i,110036.70000004768,1621.0,1669830906383,1621,HRV,HRV_0091,2022-11-30 17:58:11
55,"[{'imgObject': {}, 'id': 'cocktailshrimp', 'src': '/static/foodstim60/cocktailshrimp.jpg', 'key': 'u', 'origWidth': 410, 'origHeight': 410, 'width': 410, 'height': 410, 'widthPercent': 0.45, 'rescaleHeight': False, 'trialN': 55, 'loaded': True, 'loadedTime': 2620.9000000953674, 'positionName': 'LEFT', 'positionCoords': [511.6, 335], 'bid': 3.47}, {'imgObject': {}, 'id': 'raisin bran w milk', 'src': '/static/foodstim60/raisin bran w milk.jpg', 'key': 'i', 'origWidth': 411, 'origHeight': 411, 'width': 411, 'height': 411, 'widthPercent': 0.45, 'rescaleHeight': False, 'trialN': 55, 'loaded': True, 'loadedTime': 2949.600000143051, 'positionName': 'RIGHT', 'positionCoords': [998.4, 334.5], 'bid': 5.11}]",110036.90000009537,1669830906383,cocktailshrimp,raisin bran w milk,3.47,5.11,1.6400000000000001,raisin bran w milk,1024.5,1025,1024.9000000953674,True,i,111568.40000009537,1531.5,1669830907915,1532,HRV,HRV_0091,2022-11-30 17:58:11
56,"[{'imgObject': {}, 'id': 'roastedpotatoes', 'src': '/static/foodstim60/roastedpotatoes.jpg', 'key': 'u', 'origWidth': 409, 'origHeight': 410, 'width': 409, 'height': 410, 'widthPercent': 0.45, 'rescaleHeight': False, 'trialN': 56, 'loaded': True, 'loadedTime': 2803.7000000476837, 'positionName': 'LEFT', 'positionCoords': [512.6, 335], 'bid': 5.23}, {'imgObject': {}, 'id': 'raisin bran w milk', 'src': '/static/foodstim60/raisin bran w milk.jpg', 'key': 'i', 'origWidth': 411, 'origHeight': 411, 'width': 411, 'height': 411, 'widthPercent': 0.45, 'rescaleHeight': False, 'trialN': 56, 'loaded': True, 'loadedTime': 2949.4000000953674, 'positionName': 'RIGHT', 'positionCoords': [998.4, 334.5], 'bid': 5.11}]",111568.70000004768,1669830907915,roastedpotatoes,raisin bran w milk,5.23,5.11,-0.1200000000000001,raisin bran w milk,890,891,890.5,True,i,112976.40000009537,1407.7000000476837,1669830909323,1408,HRV,HRV_0091,2022-11-30 17:58:11
57,"[{'imgObject': {}, 'id': 'salad w chicken', 'src': '/static/foodstim60/salad w chicken.jpg', 'key': 'u', 'origWidth': 411, 'origHeight': 411, 'width': 411, 'height': 411, 'widthPercent': 0.45, 'rescaleHeight': False, 'trialN': 57, 'loaded': True, 'loadedTime': 2643.9000000953674, 'positionName': 'LEFT', 'positionCoords': [510.6, 334.5], 'bid': 6.390000000000001}, {'imgObject': {}, 'id': 'kiwi', 'src': '/static/foodstim60/kiwi.jpg', 'key': 'i', 'origWidth': 410, 'origHeight': 410, 'width': 410, 'height': 410, 'widthPercent': 0.45, 'rescaleHeight': False, 'trialN': 57, 'loaded': True, 'loadedTime': 2730.600000143051, 'positionName': 'RIGHT', 'positionCoords': [998.4, 335], 'bid': 4.86}]",112976.60000014305,1669830909323,salad w chicken,kiwi,6.390000000000001,4.86,-1.5300000000000002,salad w chicken,855.8999998569489,856,856.5,True,u,114347.60000014305,1371.0,1669830910694,1371,HRV,HRV_0091,2022-11-30 17:58:11
58,"[{'imgObject': {}, 'id': 'cantaloupe', 'src': '/static/foodstim60/cantaloupe.jpg', 'key': 'u', 'origWidth': 409, 'origHeight': 409, 'width': 409, 'height': 409, 'widthPercent': 0.45, 'rescaleHeight': False, 'trialN': 58, 'loaded': True, 'loadedTime': 2851.4000000953674, 'positionName': 'LEFT', 'positionCoords': [512.6, 335.5], 'bid': 4.84}, {'imgObject': {}, 'id': 'kiwi', 'src': '/static/foodstim60/kiwi.jpg', 'key': 'i', 'origWidth': 410, 'origHeight': 410, 'width': 410, 'height': 410, 'widthPercent': 0.45, 'rescaleHeight': False, 'trialN': 58, 'loaded': True, 'loadedTime': 2724, 'positionName': 'RIGHT', 'positionCoords': [998.4, 335], 'bid': 4.86}]",114347.90000009537,1669830910694,cantaloupe,kiwi,4.84,4.86,0.020000000000000462,cantaloupe,1678,1679,1678.5,True,u,116535.80000019073,2187.9000000953674,1669830912882,2188,HRV,HRV_0091,2022-11-30 17:58:11
59,"[{'imgObject': {}, 'id': 'fried eggs', 'src': '/static/foodstim60/fried eggs.jpg', 'key': 'u', 'origWidth': 410, 'origHeight': 410, 'width': 410, 'height': 410, 'widthPercent': 0.45, 'rescaleHeight': False, 'trialN': 59, 'loaded': True, 'loadedTime': 2793.9000000953674, 'positionName': 'LEFT', 'positionCoords': [511.6, 335], 'bid': 6.18}, {'imgObject': {}, 'id': 'turkeysandwich', 'src': '/static/foodstim60/turkeysandwich.jpg', 'key': 'i', 'origWidth': 409, 'origHeight': 409, 'width': 409, 'height': 409, 'widthPercent': 0.45, 'rescaleHeight': False, 'trialN': 59, 'loaded': True, 'loadedTime': 2884, 'positionName': 'RIGHT', 'positionCoords': [998.4, 335.5], 'bid': 6.5600000000000005}]",116536.0,1669830912882,fried eggs,turkeysandwich,6.18,6.5600000000000005,0.3800000000000008,turkeysandwich,1092.7000000476837,1094,1093.2000000476837,True,i,118149.30000019073,1613.3000001907349,1669830914496,1614,HRV,HRV_0091,2022-11-30 17:58:11
60,"[{'imgObject': {}, 'id': 'hashbrowns', 'src': '/static/foodstim60/hashbrowns.jpg', 'key': 'u', 'origWidth': 411, 'origHeight': 410, 'width': 411, 'height': 410, 'widthPercent': 0.45, 'rescaleHeight': False, 'trialN': 60, 'loaded': True, 'loadedTime': 2949.7000000476837, 'positionName': 'LEFT', 'positionCoords': [510.6, 335], 'bid': 4.97}, {'imgObject': {}, 'id': 'omelette', 'src': '/static/foodstim60/omelette.jpg', 'key': 'i', 'origWidth': 410, 'origHeight': 409, 'width': 410, 'height': 409, 'widthPercent': 0.45, 'rescaleHeight': False, 'trialN': 60, 'loaded': True, 'loadedTime': 2922, 'positionName': 'RIGHT', 'positionCoords': [998.4, 335.5], 'bid': 5.07}]",118149.5,1669830914496,hashbrowns,omelette,4.97,5.07,0.10000000000000053,omelette,1879.4000000953674,1880,1879.9000000953674,True,i,120536.60000014305,2387.100000143051,1669830916883,2387,HRV,HRV_0091,2022-11-30 17:58:11
61,"[{'imgObject': {}, 'id': 'hotdog w must', 'src': '/static/foodstim60/hotdog w must.jpg', 'key': 'u', 'origWidth': 409, 'origHeight': 409, 'width': 409, 'height': 409, 'widthPercent': 0.45, 'rescaleHeight': False, 'trialN': 61, 'loaded': True, 'loadedTime': 2642, 'positionName': 'LEFT', 'positionCoords': [512.6, 335.5], 'bid': 4.97}, {'imgObject': {}, 'id': 'mango', 'src': '/static/foodstim60/mango.jpg', 'key': 'i', 'origWidth': 411, 'origHeight': 411, 'width': 411, 'height': 411, 'widthPercent': 0.45, 'rescaleHeight': False, 'trialN': 61, 'loaded': True, 'loadedTime': 2939, 'positionName': 'RIGHT', 'positionCoords': [998.4, 334.5], 'bid': 5.1000000000000005}]",120536.80000019073,1669830916883,hotdog w must,mango,4.97,5.1000000000000005,0.13000000000000078,hotdog w must,1277.5,1278,1278.0,True,u,122331.90000009537,1795.0999999046326,1669830918678,1795,HRV,HRV_0091,2022-11-30 17:58:11
62,"[{'imgObject': {}, 'id': 'raspberries', 'src': '/static/foodstim60/raspberries.jpg', 'key': 'u', 'origWidth': 411, 'origHeight': 411, 'width': 411, 'height': 411, 'widthPercent': 0.45, 'rescaleHeight': False, 'trialN': 62, 'loaded': True, 'loadedTime': 2948.5, 'positionName': 'LEFT', 'positionCoords': [510.6, 334.5], 'bid': 6.55}, {'imgObject': {}, 'id': 'strawberries', 'src': '/static/foodstim60/strawberries.jpg', 'key': 'i', 'origWidth': 410, 'origHeight': 410, 'width': 410, 'height': 410, 'widthPercent': 0.45, 'rescaleHeight': False, 'trialN': 62, 'loaded': True, 'loadedTime': 2739.100000143051, 'positionName': 'RIGHT', 'positionCoords': [998.4, 335], 'bid': 6.36}]",122332.10000014305,1669830918678,raspberries,strawberries,6.55,6.36,-0.1899999999999995,strawberries,1101.2999999523163,1102,1101.8999998569489,True,i,123950.0,1617.8999998569489,1669830920296,1618,HRV,HRV_0091,2022-11-30 17:58:11
63,"[{'imgObject': {}, 'id': 'hotdog w must', 'src': '/static/foodstim60/hotdog w must.jpg', 'key': 'u', 'origWidth': 409, 'origHeight': 409, 'width': 409, 'height': 409, 'widthPercent': 0.45, 'rescaleHeight': False, 'trialN': 63, 'loaded': True, 'loadedTime': 2641.5, 'positionName': 'LEFT', 'positionCoords': [512.6, 335.5], 'bid': 4.97}, {'imgObject': {}, 'id': 'rigatoni and sauce', 'src': '/static/foodstim60/rigatoni and sauce.jpg', 'key': 'i', 'origWidth': 410, 'origHeight': 411, 'width': 410, 'height': 411, 'widthPercent': 0.45, 'rescaleHeight': False, 'trialN': 63, 'loaded': True, 'loadedTime': 2698.300000190735, 'positionName': 'RIGHT', 'positionCoords': [998.4, 334.5], 'bid': 5.04}]",123950.20000004768,1669830920297,hotdog w must,rigatoni and sauce,4.97,5.04,0.07000000000000028,rigatoni and sauce,1022.7999999523163,1023,1023.4000000953674,True,i,125493.0,1542.7999999523163,1669830921839,1542,HRV,HRV_0091,2022-11-30 17:58:11
64,"[{'imgObject': {}, 'id': 'shreddedwheatwithmilk', 'src': '/static/foodstim60/shreddedwheatwithmilk.jpg', 'key': 'u', 'origWidth': 410, 'origHeight': 410, 'width': 410, 'height': 410, 'widthPercent': 0.45, 'rescaleHeight': False, 'trialN': 64, 'loaded': True, 'loadedTime': 2958.100000143051, 'positionName': 'LEFT', 'positionCoords': [511.6, 335], 'bid': 6.4}, {'imgObject': {}, 'id': 'bagel and cc', 'src': '/static/foodstim60/bagel and cc.jpg', 'key': 'i', 'origWidth': 410, 'origHeight': 410, 'width': 410, 'height': 410, 'widthPercent': 0.45, 'rescaleHeight': False, 'trialN': 64, 'loaded': True, 'loadedTime': 2647.600000143051, 'positionName': 'RIGHT', 'positionCoords': [998.4, 335], 'bid': 6.42}]",125493.20000004768,1669830921840,shreddedwheatwithmilk,bagel and cc,6.4,6.42,0.019999999999999574,bagel and cc,983.1000001430511,983,983.5,True,i,126993.80000019073,1500.6000001430511,1669830923340,1500,HRV,HRV_0091,2022-11-30 17:58:11
65,"[{'imgObject': {}, 'id': 'salmon', 'src': '/static/foodstim60/salmon.jpg', 'key': 'u', 'origWidth': 410, 'origHeight': 409, 'width': 410, 'height': 409, 'widthPercent': 0.45, 'rescaleHeight': False, 'trialN': 65, 'loaded': True, 'loadedTime': 2706.600000143051, 'positionName': 'LEFT', 'positionCoords': [511.6, 335.5], 'bid': 4.96}, {'imgObject': {}, 'id': 'grilled chicken strips', 'src': '/static/foodstim60/grilled chicken strips.jpg', 'key': 'i', 'origWidth': 410, 'origHeight': 411, 'width': 410, 'height': 411, 'widthPercent': 0.45, 'rescaleHeight': False, 'trialN': 65, 'loaded': True, 'loadedTime': 2930.9000000953674, 'positionName': 'RIGHT', 'positionCoords': [998.4, 334.5], 'bid': 6.5200000000000005}]",126994.10000014305,1669830923340,salmon,grilled chicken strips,4.96,6.5200000000000005,1.5600000000000005,grilled chicken strips,1204.2999999523163,1205,1205.0,True,i,128714.80000019073,1720.7000000476837,1669830925061,1721,HRV,HRV_0091,2022-11-30 17:58:11
66,"[{'imgObject': {}, 'id': 'froot loops w milk', 'src': '/static/foodstim60/froot loops w milk.jpg', 'key': 'u', 'origWidth': 410, 'origHeight': 410, 'width': 410, 'height': 410, 'widthPercent': 0.45, 'rescaleHeight': False, 'trialN': 66, 'loaded': True, 'loadedTime': 2959.2000000476837, 'positionName': 'LEFT', 'positionCoords': [511.6, 335], 'bid': 6.55}, {'imgObject': {}, 'id': 'yogurt no spoon', 'src': '/static/foodstim60/yogurt no spoon.jpg', 'key': 'i', 'origWidth': 411, 'origHeight': 410, 'width': 411, 'height': 410, 'widthPercent': 0.45, 'rescaleHeight': False, 'trialN': 66, 'loaded': True, 'loadedTime': 2808.600000143051, 'positionName': 'RIGHT', 'positionCoords': [998.4, 335], 'bid': 4.97}]",128715.0,1669830925062,froot loops w milk,yogurt no spoon,6.55,4.97,-1.58,froot loops w milk,1361.6000001430511,1362,1362.4000000953674,True,u,130594.0,1879.0,1669830926940,1878,HRV,HRV_0091,2022-11-30 17:58:11
67,"[{'imgObject': {}, 'id': 'yogurt no spoon', 'src': '/static/foodstim60/yogurt no spoon.jpg', 'key': 'u', 'origWidth': 411, 'origHeight': 410, 'width': 411, 'height': 410, 'widthPercent': 0.45, 'rescaleHeight': False, 'trialN': 67, 'loaded': True, 'loadedTime': 2808.2000000476837, 'positionName': 'LEFT', 'positionCoords': [510.6, 335], 'bid': 4.97}, {'imgObject': {}, 'id': 'rigatoni', 'src': '/static/foodstim60/rigatoni.jpg', 'key': 'i', 'origWidth': 411, 'origHeight': 411, 'width': 411, 'height': 411, 'widthPercent': 0.45, 'rescaleHeight': False, 'trialN': 67, 'loaded': True, 'loadedTime': 2876.300000190735, 'positionName': 'RIGHT', 'positionCoords': [998.4, 334.5], 'bid': 4.96}]",130594.30000019073,1669830926941,yogurt no spoon,rigatoni,4.97,4.96,-0.009999999999999787,yogurt no spoon,906.0999999046326,906,906.6999998092651,True,u,132016.70000004768,1422.3999998569489,1669830928363,1422,HRV,HRV_0091,2022-11-30 17:58:11
68,"[{'imgObject': {}, 'id': 'sushi w_condiments', 'src': '/static/foodstim60/sushi w_condiments.jpg', 'key': 'u', 'origWidth': 410, 'origHeight': 410, 'width': 410, 'height': 410, 'widthPercent': 0.45, 'rescaleHeight': False, 'trialN': 68, 'loaded': True, 'loadedTime': 2920, 'positionName': 'LEFT', 'positionCoords': [511.6, 335], 'bid': 4.91}, {'imgObject': {}, 'id': 'cantaloupe', 'src': '/static/foodstim60/cantaloupe.jpg', 'key': 'i', 'origWidth': 409, 'origHeight': 409, 'width': 409, 'height': 409, 'widthPercent': 0.45, 'rescaleHeight': False, 'trialN': 68, 'loaded': True, 'loadedTime': 2850.800000190735, 'positionName': 'RIGHT', 'positionCoords': [998.4, 335.5], 'bid': 4.84}]",132016.90000009537,1669830928363,sushi w_condiments,cantaloupe,4.91,4.84,-0.07000000000000028,cantaloupe,1220.5999999046326,1221,1221.0999999046326,True,i,133750.30000019073,1733.4000000953674,1669830930097,1734,HRV,HRV_0091,2022-11-30 17:58:11
69,"[{'imgObject': {}, 'id': 'edamame', 'src': '/static/foodstim60/edamame.jpg', 'key': 'u', 'origWidth': 409, 'origHeight': 410, 'width': 409, 'height': 410, 'widthPercent': 0.45, 'rescaleHeight': False, 'trialN': 69, 'loaded': True, 'loadedTime': 2597, 'positionName': 'LEFT', 'positionCoords': [512.6, 335], 'bid': 3.46}, {'imgObject': {}, 'id': 'mango', 'src': '/static/foodstim60/mango.jpg', 'key': 'i', 'origWidth': 411, 'origHeight': 411, 'width': 411, 'height': 411, 'widthPercent': 0.45, 'rescaleHeight': False, 'trialN': 69, 'loaded': True, 'loadedTime': 2939.2000000476837, 'positionName': 'RIGHT', 'positionCoords': [998.4, 334.5], 'bid': 5.1000000000000005}]",133750.60000014305,1669830930097,edamame,mango,3.46,5.1000000000000005,1.6400000000000006,mango,1275.5999999046326,1276,1276.2000000476837,True,i,135541.30000019073,1790.7000000476837,1669830931888,1791,HRV,HRV_0091,2022-11-30 17:58:11
70,"[{'imgObject': {}, 'id': 'bagel and cc', 'src': '/static/foodstim60/bagel and cc.jpg', 'key': 'u', 'origWidth': 410, 'origHeight': 410, 'width': 410, 'height': 410, 'widthPercent': 0.45, 'rescaleHeight': False, 'trialN': 70, 'loaded': True, 'loadedTime': 2647.9000000953674, 'positionName': 'LEFT', 'positionCoords': [511.6, 335], 'bid': 6.42}, {'imgObject': {}, 'id': 'fried eggs', 'src': '/static/foodstim60/fried eggs.jpg', 'key': 'i', 'origWidth': 410, 'origHeight': 410, 'width': 410, 'height': 410, 'widthPercent': 0.45, 'rescaleHeight': False, 'trialN': 70, 'loaded': True, 'loadedTime': 2786.800000190735, 'positionName': 'RIGHT', 'positionCoords': [998.4, 335], 'bid': 6.18}]",135541.60000014305,1669830931888,bagel and cc,fried eggs,6.42,6.18,-0.2400000000000002,fried eggs,832.8999998569489,833,833.3999998569489,True,i,136885.90000009537,1344.2999999523163,1669830933232,1344,HRV,HRV_0091,2022-11-30 17:58:11
71,"[{'imgObject': {}, 'id': 'grilled chicken strips', 'src': '/static/foodstim60/grilled chicken strips.jpg', 'key': 'u', 'origWidth': 410, 'origHeight': 411, 'width': 410, 'height': 411, 'widthPercent': 0.45, 'rescaleHeight': False, 'trialN': 71, 'loaded': True, 'loadedTime': 2930.600000143051, 'positionName': 'LEFT', 'positionCoords': [511.6, 334.5], 'bid': 6.5200000000000005}, {'imgObject': {}, 'id': 'froot loops w milk', 'src': '/static/foodstim60/froot loops w milk.jpg', 'key': 'i', 'origWidth': 410, 'origHeight': 410, 'width': 410, 'height': 410, 'widthPercent': 0.45, 'rescaleHeight': False, 'trialN': 71, 'loaded': True, 'loadedTime': 2959.300000190735, 'positionName': 'RIGHT', 'positionCoords': [998.4, 335], 'bid': 6.55}]",136886.10000014305,1669830933233,grilled chicken strips,froot loops w milk,6.5200000000000005,6.55,0.02999999999999936,grilled chicken strips,876,876,876.5,True,u,138276.70000004768,1390.5999999046326,1669830934623,1390,HRV,HRV_0091,2022-11-30 17:58:11
72,"[{'imgObject': {}, 'id': 'banana', 'src': '/static/foodstim60/banana.jpg', 'key': 'u', 'origWidth': 410, 'origHeight': 410, 'width': 410, 'height': 410, 'widthPercent': 0.45, 'rescaleHeight': False, 'trialN': 72, 'loaded': True, 'loadedTime': 2858.7000000476837, 'positionName': 'LEFT', 'positionCoords': [511.6, 335], 'bid': 4.93}, {'imgObject': {}, 'id': 'yogurt no spoon', 'src': '/static/foodstim60/yogurt no spoon.jpg', 'key': 'i', 'origWidth': 411, 'origHeight': 410, 'width': 411, 'height': 410, 'widthPercent': 0.45, 'rescaleHeight': False, 'trialN': 72, 'loaded': True, 'loadedTime': 2811.300000190735, 'positionName': 'RIGHT', 'positionCoords': [998.4, 335], 'bid': 4.97}]",138276.80000019073,1669830934623,banana,yogurt no spoon,4.93,4.97,0.040000000000000036,banana,941.8999998569489,942,942.1999998092651,True,u,139728.90000009537,1452.0999999046326,1669830936075,1452,HRV,HRV_0091,2022-11-30 17:58:11
73,"[{'imgObject': {}, 'id': 'ice cream sundae 002', 'src': '/static/foodstim60/ice cream sundae 002.jpg', 'key': 'u', 'origWidth': 409, 'origHeight': 409, 'width': 409, 'height': 409, 'widthPercent': 0.45, 'rescaleHeight': False, 'trialN': 73, 'loaded': True, 'loadedTime': 2806.2000000476837, 'positionName': 'LEFT', 'positionCoords': [512.6, 335.5], 'bid': 5.05}, {'imgObject': {}, 'id': 'rigatoni and sauce', 'src': '/static/foodstim60/rigatoni and sauce.jpg', 'key': 'i', 'origWidth': 410, 'origHeight': 411, 'width': 410, 'height': 411, 'widthPercent': 0.45, 'rescaleHeight': False, 'trialN': 73, 'loaded': True, 'loadedTime': 2692, 'positionName': 'RIGHT', 'positionCoords': [998.4, 334.5], 'bid': 5.04}]",139729.10000014305,1669830936076,ice cream sundae 002,rigatoni and sauce,5.05,5.04,-0.009999999999999787,rigatoni and sauce,691.2999999523163,691,691.5999999046326,True,i,140933.80000019073,1204.7000000476837,1669830937280,1204,HRV,HRV_0091,2022-11-30 17:58:11
74,"[{'imgObject': {}, 'id': 'fruitsalad', 'src': '/static/foodstim60/fruitsalad.jpg', 'key': 'u', 'origWidth': 410, 'origHeight': 410, 'width': 410, 'height': 410, 'widthPercent': 0.45, 'rescaleHeight': False, 'trialN': 74, 'loaded': True, 'loadedTime': 2749.800000190735, 'positionName': 'LEFT', 'positionCoords': [511.6, 335], 'bid': 4.94}, {'imgObject': {}, 'id': 'hashbrowns', 'src': '/static/foodstim60/hashbrowns.jpg', 'key': 'i', 'origWidth': 411, 'origHeight': 410, 'width': 411, 'height': 410, 'widthPercent': 0.45, 'rescaleHeight': False, 'trialN': 74, 'loaded': True, 'loadedTime': 2950.5, 'positionName': 'RIGHT', 'positionCoords': [998.4, 335], 'bid': 4.97}]",140934.0,1669830937280,fruitsalad,hashbrowns,4.94,4.97,0.02999999999999936,fruitsalad,1313.9000000953674,1315,1314.3000001907349,True,u,142761.20000004768,1827.2000000476837,1669830939108,1828,HRV,HRV_0091,2022-11-30 17:58:11
75,"[{'imgObject': {}, 'id': 'salmon', 'src': '/static/foodstim60/salmon.jpg', 'key': 'u', 'origWidth': 410, 'origHeight': 409, 'width': 410, 'height': 409, 'widthPercent': 0.45, 'rescaleHeight': False, 'trialN': 75, 'loaded': True, 'loadedTime': 2714.5, 'positionName': 'LEFT', 'positionCoords': [511.6, 335.5], 'bid': 4.96}, {'imgObject': {}, 'id': 'lox', 'src': '/static/foodstim60/lox.jpg', 'key': 'i', 'origWidth': 410, 'origHeight': 411, 'width': 410, 'height': 411, 'widthPercent': 0.45, 'rescaleHeight': False, 'trialN': 75, 'loaded': True, 'loadedTime': 2908.2000000476837, 'positionName': 'RIGHT', 'positionCoords': [998.4, 334.5], 'bid': 4.95}]",142761.5,1669830939108,salmon,lox,4.96,4.95,-0.009999999999999787,lox,1016.8000001907349,1017,1017.4000000953674,True,i,144294.10000014305,1532.6000001430511,1669830940641,1533,HRV,HRV_0091,2022-11-30 17:58:11
76,"[{'imgObject': {}, 'id': 'grilled chicken strips', 'src': '/static/foodstim60/grilled chicken strips.jpg', 'key': 'u', 'origWidth': 410, 'origHeight': 411, 'width': 410, 'height': 411, 'widthPercent': 0.45, 'rescaleHeight': False, 'trialN': 76, 'loaded': True, 'loadedTime': 2929.800000190735, 'positionName': 'LEFT', 'positionCoords': [511.6, 334.5], 'bid': 6.5200000000000005}, {'imgObject': {}, 'id': 'luckycharms', 'src': '/static/foodstim60/luckycharms.jpg', 'key': 'i', 'origWidth': 410, 'origHeight': 409, 'width': 410, 'height': 409, 'widthPercent': 0.45, 'rescaleHeight': False, 'trialN': 76, 'loaded': True, 'loadedTime': 2893.100000143051, 'positionName': 'RIGHT', 'positionCoords': [998.4, 335.5], 'bid': 6.57}]",144294.30000019073,1669830940641,grilled chicken strips,luckycharms,6.5200000000000005,6.57,0.04999999999999982,luckycharms,1027.1999998092651,1027,1027.6999998092651,True,i,145823.90000009537,1529.5999999046326,1669830942170,1529,HRV,HRV_0091,2022-11-30 17:58:11
77,"[{'imgObject': {}, 'id': 'orange slices', 'src': '/static/foodstim60/orange slices.jpg', 'key': 'u', 'origWidth': 409, 'origHeight': 410, 'width': 409, 'height': 410, 'widthPercent': 0.45, 'rescaleHeight': False, 'trialN': 77, 'loaded': True, 'loadedTime': 2778.100000143051, 'positionName': 'LEFT', 'positionCoords': [512.6, 335], 'bid': 6.68}, {'imgObject': {}, 'id': 'steak', 'src': '/static/foodstim60/steak.jpg', 'key': 'i', 'origWidth': 410, 'origHeight': 410, 'width': 410, 'height': 410, 'widthPercent': 0.45, 'rescaleHeight': False, 'trialN': 77, 'loaded': True, 'loadedTime': 2903.9000000953674, 'positionName': 'RIGHT', 'positionCoords': [998.4, 335], 'bid': 6.71}]",145824.10000014305,1669830942171,orange slices,steak,6.68,6.71,0.03000000000000025,steak,919.2000000476837,919,919.7999999523163,True,i,147247.70000004768,1423.5999999046326,1669830943594,1423,HRV,HRV_0091,2022-11-30 17:58:11
78,"[{'imgObject': {}, 'id': 'popsicles', 'src': '/static/foodstim60/popsicles.jpg', 'key': 'u', 'origWidth': 410, 'origHeight': 410, 'width': 410, 'height': 410, 'widthPercent': 0.45, 'rescaleHeight': False, 'trialN': 78, 'loaded': True, 'loadedTime': 2972.7000000476837, 'positionName': 'LEFT', 'positionCoords': [511.6, 335], 'bid': 6.36}, {'imgObject': {}, 'id': 'granola w milk', 'src': '/static/foodstim60/granola w milk.jpg', 'key': 'i', 'origWidth': 410, 'origHeight': 410, 'width': 410, 'height': 410, 'widthPercent': 0.45, 'rescaleHeight': False, 'trialN': 78, 'loaded': True, 'loadedTime': 2646.5, 'positionName': 'RIGHT', 'positionCoords': [998.4, 335], 'bid': 6.48}]",147247.90000009537,1669830943594,popsicles,granola w milk,6.36,6.48,0.1200000000000001,granola w milk,1094.9000000953674,1096,1095.5,True,i,148853.70000004768,1605.7999999523163,1669830945200,1606,HRV,HRV_0091,2022-11-30 17:58:11
79,"[{'imgObject': {}, 'id': 'orange slices', 'src': '/static/foodstim60/orange slices.jpg', 'key': 'u', 'origWidth': 409, 'origHeight': 410, 'width': 409, 'height': 410, 'widthPercent': 0.45, 'rescaleHeight': False, 'trialN': 79, 'loaded': True, 'loadedTime': 2785.600000143051, 'positionName': 'LEFT', 'positionCoords': [512.6, 335], 'bid': 6.68}, {'imgObject': {}, 'id': 'bagel plain', 'src': '/static/foodstim60/bagel plain.jpg', 'key': 'i', 'origWidth': 410, 'origHeight': 410, 'width': 410, 'height': 410, 'widthPercent': 0.45, 'rescaleHeight': False, 'trialN': 79, 'loaded': True, 'loadedTime': 2967.300000190735, 'positionName': 'RIGHT', 'positionCoords': [998.4, 335], 'bid': 6.46}]",148854.0,1669830945200,orange slices,bagel plain,6.68,6.46,-0.21999999999999975,bagel plain,986.2000000476837,987,986.7000000476837,True,i,150346.10000014305,1492.1000001430511,1669830946693,1493,HRV,HRV_0091,2022-11-30 17:58:11
80,"[{'imgObject': {}, 'id': 'sweetpotato', 'src': '/static/foodstim60/sweetpotato.jpg', 'key': 'u', 'origWidth': 410, 'origHeight': 410, 'width': 410, 'height': 410, 'widthPercent': 0.45, 'rescaleHeight': False, 'trialN': 80, 'loaded': True, 'loadedTime': 2652.100000143051, 'positionName': 'LEFT', 'positionCoords': [511.6, 335], 'bid': 3.47}, {'imgObject': {}, 'id': 'Tribe humus pita', 'src': '/static/foodstim60/Tribe humus pita.jpg', 'key': 'i', 'origWidth': 411, 'origHeight': 411, 'width': 411, 'height': 411, 'widthPercent': 0.45, 'rescaleHeight': False, 'trialN': 80, 'loaded': True, 'loadedTime': 2947.7000000476837, 'positionName': 'RIGHT', 'positionCoords': [998.4, 334.5], 'bid': 5.11}]",150346.30000019073,1669830946693,sweetpotato,Tribe humus pita,3.47,5.11,1.6400000000000001,Tribe humus pita,1084.8999998569489,1085,1085.2999999523163,True,i,151940.70000004768,1594.3999998569489,1669830948287,1594,HRV,HRV_0091,2022-11-30 17:58:11
81,"[{'imgObject': {}, 'id': 'burger', 'src': '/static/foodstim60/burger.jpg', 'key': 'u', 'origWidth': 409, 'origHeight': 409, 'width': 409, 'height': 409, 'widthPercent': 0.45, 'rescaleHeight': False, 'trialN': 81, 'loaded': True, 'loadedTime': 2912.100000143051, 'positionName': 'LEFT', 'positionCoords': [512.6, 335.5], 'bid': 6.82}, {'imgObject': {}, 'id': 'cheerios', 'src': '/static/foodstim60/cheerios.jpg', 'key': 'i', 'origWidth': 409, 'origHeight': 410, 'width': 409, 'height': 410, 'widthPercent': 0.45, 'rescaleHeight': False, 'trialN': 81, 'loaded': True, 'loadedTime': 2776, 'positionName': 'RIGHT', 'positionCoords': [998.4, 335], 'bid': 6.72}]",151940.90000009537,1669830948287,burger,cheerios,6.82,6.72,-0.10000000000000053,cheerios,1605.5,1606,1606.0999999046326,True,i,154068.80000019073,2127.9000000953674,1669830950415,2128,HRV,HRV_0091,2022-11-30 17:58:11
82,"[{'imgObject': {}, 'id': 'burger', 'src': '/static/foodstim60/burger.jpg', 'key': 'u', 'origWidth': 409, 'origHeight': 409, 'width': 409, 'height': 409, 'widthPercent': 0.45, 'rescaleHeight': False, 'trialN': 82, 'loaded': True, 'loadedTime': 2913.2000000476837, 'positionName': 'LEFT', 'positionCoords': [512.6, 335.5], 'bid': 6.82}, {'imgObject': {}, 'id': 'shreddedwheatwithmilk', 'src': '/static/foodstim60/shreddedwheatwithmilk.jpg', 'key': 'i', 'origWidth': 410, 'origHeight': 410, 'width': 410, 'height': 410, 'widthPercent': 0.45, 'rescaleHeight': False, 'trialN': 82, 'loaded': True, 'loadedTime': 2958.100000143051, 'positionName': 'RIGHT', 'positionCoords': [998.4, 335], 'bid': 6.4}]",154068.90000009537,1669830950415,burger,shreddedwheatwithmilk,6.82,6.4,-0.41999999999999993,shreddedwheatwithmilk,1025.9000000953674,1027,1026.2999999523163,True,i,155601.60000014305,1532.7000000476837,1669830951948,1533,HRV,HRV_0091,2022-11-30 17:58:11
83,"[{'imgObject': {}, 'id': 'grilled chicken strips', 'src': '/static/foodstim60/grilled chicken strips.jpg', 'key': 'u', 'origWidth': 410, 'origHeight': 411, 'width': 410, 'height': 411, 'widthPercent': 0.45, 'rescaleHeight': False, 'trialN': 83, 'loaded': True, 'loadedTime': 2930.9000000953674, 'positionName': 'LEFT', 'positionCoords': [511.6, 334.5], 'bid': 6.5200000000000005}, {'imgObject': {}, 'id': 'mac & cheese', 'src': '/static/foodstim60/mac & cheese.jpg', 'key': 'i', 'origWidth': 410, 'origHeight': 410, 'width': 410, 'height': 410, 'widthPercent': 0.45, 'rescaleHeight': False, 'trialN': 83, 'loaded': True, 'loadedTime': 2644, 'positionName': 'RIGHT', 'positionCoords': [998.4, 335], 'bid': 6.48}]",155601.70000004768,1669830951948,grilled chicken strips,mac & cheese,6.5200000000000005,6.48,-0.040000000000000036,mac & cheese,2117,2118,2117.7999999523163,True,i,158226.20000004768,2624.5,1669830954573,2625,HRV,HRV_0091,2022-11-30 17:58:11
84,"[{'imgObject': {}, 'id': 'sweetpotato', 'src': '/static/foodstim60/sweetpotato.jpg', 'key': 'u', 'origWidth': 410, 'origHeight': 410, 'width': 410, 'height': 410, 'widthPercent': 0.45, 'rescaleHeight': False, 'trialN': 84, 'loaded': True, 'loadedTime': 2652.4000000953674, 'positionName': 'LEFT', 'positionCoords': [511.6, 335], 'bid': 3.47}, {'imgObject': {}, 'id': 'cherry tomato', 'src': '/static/foodstim60/cherry tomato.jpg', 'key': 'i', 'origWidth': 410, 'origHeight': 410, 'width': 410, 'height': 410, 'widthPercent': 0.45, 'rescaleHeight': False, 'trialN': 84, 'loaded': True, 'loadedTime': 2929.7000000476837, 'positionName': 'RIGHT', 'positionCoords': [998.4, 335], 'bid': 3.52}]",158226.40000009537,1669830954573,sweetpotato,cherry tomato,3.47,3.52,0.04999999999999982,sweetpotato,2671.5,2672,2672.0999999046326,True,u,161415.40000009537,3189.0,1669830957762,3189,HRV,HRV_0091,2022-11-30 17:58:11
85,"[{'imgObject': {}, 'id': 'veggieswithdip', 'src': '/static/foodstim60/veggieswithdip.jpg', 'key': 'u', 'origWidth': 409, 'origHeight': 409, 'width': 409, 'height': 409, 'widthPercent': 0.45, 'rescaleHeight': False, 'trialN': 85, 'loaded': True, 'loadedTime': 2753.4000000953674, 'positionName': 'LEFT', 'positionCoords': [512.6, 335.5], 'bid': 3.45}, {'imgObject': {}, 'id': 'apple slices', 'src': '/static/foodstim60/apple slices.jpg', 'key': 'i', 'origWidth': 409, 'origHeight': 410, 'width': 409, 'height': 410, 'widthPercent': 0.45, 'rescaleHeight': False, 'trialN': 85, 'loaded': True, 'loadedTime': 2738.600000143051, 'positionName': 'RIGHT', 'positionCoords': [998.4, 335], 'bid': 3.66}]",161415.60000014305,1669830957762,veggieswithdip,apple slices,3.45,3.66,0.20999999999999996,veggieswithdip,1643.3999998569489,1644,1644.0,True,u,163571.20000004768,2155.5999999046326,1669830959918,2156,HRV,HRV_0091,2022-11-30 17:58:11
86,"[{'imgObject': {}, 'id': 'turkeysandwich', 'src': '/static/foodstim60/turkeysandwich.jpg', 'key': 'u', 'origWidth': 409, 'origHeight': 409, 'width': 409, 'height': 409, 'widthPercent': 0.45, 'rescaleHeight': False, 'trialN': 86, 'loaded': True, 'loadedTime': 2891.800000190735, 'positionName': 'LEFT', 'positionCoords': [512.6, 335.5], 'bid': 6.5600000000000005}, {'imgObject': {}, 'id': 'shreddedwheatwithmilk', 'src': '/static/foodstim60/shreddedwheatwithmilk.jpg', 'key': 'i', 'origWidth': 410, 'origHeight': 410, 'width': 410, 'height': 410, 'widthPercent': 0.45, 'rescaleHeight': False, 'trialN': 86, 'loaded': True, 'loadedTime': 2957.100000143051, 'positionName': 'RIGHT', 'positionCoords': [998.4, 335], 'bid': 6.4}]",163571.40000009537,1669830959918,turkeysandwich,shreddedwheatwithmilk,6.5600000000000005,6.4,-0.16000000000000014,shreddedwheatwithmilk,1237.2000000476837,1238,1237.7999999523163,True,i,165321.70000004768,1750.2999999523163,1669830961668,1750,HRV,HRV_0091,2022-11-30 17:58:11
87,"[{'imgObject': {}, 'id': 'granola w milk', 'src': '/static/foodstim60/granola w milk.jpg', 'key': 'u', 'origWidth': 410, 'origHeight': 410, 'width': 410, 'height': 410, 'widthPercent': 0.45, 'rescaleHeight': False, 'trialN': 87, 'loaded': True, 'loadedTime': 2646.600000143051, 'positionName': 'LEFT', 'positionCoords': [511.6, 335], 'bid': 6.48}, {'imgObject': {}, 'id': 'bagel plain', 'src': '/static/foodstim60/bagel plain.jpg', 'key': 'i', 'origWidth': 410, 'origHeight': 410, 'width': 410, 'height': 410, 'widthPercent': 0.45, 'rescaleHeight': False, 'trialN': 87, 'loaded': True, 'loadedTime': 2967.4000000953674, 'positionName': 'RIGHT', 'positionCoords': [998.4, 335], 'bid': 6.46}]",165321.80000019073,1669830961668,granola w milk,bagel plain,6.48,6.46,-0.020000000000000462,bagel plain,787.7999999523163,789,788.3999998569489,True,i,166618.5,1296.6999998092651,1669830962965,1297,HRV,HRV_0091,2022-11-30 17:58:11
88,"[{'imgObject': {}, 'id': 'strawberries', 'src': '/static/foodstim60/strawberries.jpg', 'key': 'u', 'origWidth': 410, 'origHeight': 410, 'width': 410, 'height': 410, 'widthPercent': 0.45, 'rescaleHeight': False, 'trialN': 88, 'loaded': True, 'loadedTime': 2747.9000000953674, 'positionName': 'LEFT', 'positionCoords': [511.6, 335], 'bid': 6.36}, {'imgObject': {}, 'id': 'raisin bran w milk', 'src': '/static/foodstim60/raisin bran w milk.jpg', 'key': 'i', 'origWidth': 411, 'origHeight': 411, 'width': 411, 'height': 411, 'widthPercent': 0.45, 'rescaleHeight': False, 'trialN': 88, 'loaded': True, 'loadedTime': 2949.7000000476837, 'positionName': 'RIGHT', 'positionCoords': [998.4, 334.5], 'bid': 5.11}]",166618.70000004768,1669830962965,strawberries,raisin bran w milk,6.36,5.11,-1.25,raisin bran w milk,1283.2999999523163,1284,1283.9000000953674,True,i,168411.90000009537,1793.2000000476837,1669830964758,1793,HRV,HRV_0091,2022-11-30 17:58:11
89,"[{'imgObject': {}, 'id': 'omelette', 'src': '/static/foodstim60/omelette.jpg', 'key': 'u', 'origWidth': 410, 'origHeight': 409, 'width': 410, 'height': 409, 'widthPercent': 0.45, 'rescaleHeight': False, 'trialN': 89, 'loaded': True, 'loadedTime': 2921.9000000953674, 'positionName': 'LEFT', 'positionCoords': [511.6, 335.5], 'bid': 5.07}, {'imgObject': {}, 'id': 'Tribe humus pita', 'src': '/static/foodstim60/Tribe humus pita.jpg', 'key': 'i', 'origWidth': 411, 'origHeight': 411, 'width': 411, 'height': 411, 'widthPercent': 0.45, 'rescaleHeight': False, 'trialN': 89, 'loaded': True, 'loadedTime': 2947.7000000476837, 'positionName': 'RIGHT', 'positionCoords': [998.4, 334.5], 'bid': 5.11}]",168412.10000014305,1669830964759,omelette,Tribe humus pita,5.07,5.11,0.040000000000000036,Tribe humus pita,1108.5,1108,1108.7999999523163,True,i,170029.20000004768,1617.0999999046326,1669830966376,1617,HRV,HRV_0091,2022-11-30 17:58:11
90,"[{'imgObject': {}, 'id': 'hashbrowns', 'src': '/static/foodstim60/hashbrowns.jpg', 'key': 'u', 'origWidth': 411, 'origHeight': 410, 'width': 411, 'height': 410, 'widthPercent': 0.45, 'rescaleHeight': False, 'trialN': 90, 'loaded': True, 'loadedTime': 2950.7000000476837, 'positionName': 'LEFT', 'positionCoords': [510.6, 335], 'bid': 4.97}, {'imgObject': {}, 'id': 'turkey sandwich', 'src': '/static/foodstim60/turkey sandwich.jpg', 'key': 'i', 'origWidth': 409, 'origHeight': 409, 'width': 409, 'height': 409, 'widthPercent': 0.45, 'rescaleHeight': False, 'trialN': 90, 'loaded': True, 'loadedTime': 2968.5, 'positionName': 'RIGHT', 'positionCoords': [998.4, 335.5], 'bid': 6.55}]",174244.70000004768,1669830970591,hashbrowns,turkey sandwich,4.97,6.55,1.58,turkey sandwich,1939.2000000476837,1940,1940.0,True,i,176689.90000009537,2445.2000000476837,1669830973036,2445,HRV,HRV_0091,2022-11-30 17:58:11
91,"[{'imgObject': {}, 'id': 'seaweed', 'src': '/static/foodstim60/seaweed.jpg', 'key': 'u', 'origWidth': 410, 'origHeight': 410, 'width': 410, 'height': 410, 'widthPercent': 0.45, 'rescaleHeight': False, 'trialN': 91, 'loaded': True, 'loadedTime': 2665.800000190735, 'positionName': 'LEFT', 'positionCoords': [511.6, 335], 'bid': 3.35}, {'imgObject': {}, 'id': 'ice cream sundae 002', 'src': '/static/foodstim60/ice cream sundae 002.jpg', 'key': 'i', 'origWidth': 409, 'origHeight': 409, 'width': 409, 'height': 409, 'widthPercent': 0.45, 'rescaleHeight': False, 'trialN': 91, 'loaded': True, 'loadedTime': 2806.9000000953674, 'positionName': 'RIGHT', 'positionCoords': [998.4, 335.5], 'bid': 5.05}]",176690.10000014305,1669830973037,seaweed,ice cream sundae 002,3.35,5.05,1.6999999999999997,ice cream sundae 002,968.2000000476837,968,968.5999999046326,True,i,178176.60000014305,1486.5,1669830974523,1486,HRV,HRV_0091,2022-11-30 17:58:11
92,"[{'imgObject': {}, 'id': 'blackbeanswithrice', 'src': '/static/foodstim60/blackbeanswithrice.jpg', 'key': 'u', 'origWidth': 410, 'origHeight': 410, 'width': 410, 'height': 410, 'widthPercent': 0.45, 'rescaleHeight': False, 'trialN': 92, 'loaded': True, 'loadedTime': 2843.9000000953674, 'positionName': 'LEFT', 'positionCoords': [511.6, 335], 'bid': 3.19}, {'imgObject': {}, 'id': 'olives', 'src': '/static/foodstim60/olives.jpg', 'key': 'i', 'origWidth': 410, 'origHeight': 410, 'width': 410, 'height': 410, 'widthPercent': 0.45, 'rescaleHeight': False, 'trialN': 92, 'loaded': True, 'loadedTime': 2820.2000000476837, 'positionName': 'RIGHT', 'positionCoords': [998.4, 335], 'bid': 3.72}]",178176.80000019073,1669830974523,blackbeanswithrice,olives,3.19,3.72,0.5300000000000002,blackbeanswithrice,2148.199999809265,2149,2148.699999809265,True,u,180838.60000014305,2661.7999999523163,1669830977185,2662,HRV,HRV_0091,2022-11-30 17:58:11
93,"[{'imgObject': {}, 'id': 'raspberries', 'src': '/static/foodstim60/raspberries.jpg', 'key': 'u', 'origWidth': 411, 'origHeight': 411, 'width': 411, 'height': 411, 'widthPercent': 0.45, 'rescaleHeight': False, 'trialN': 93, 'loaded': True, 'loadedTime': 2948.7000000476837, 'positionName': 'LEFT', 'positionCoords': [510.6, 334.5], 'bid': 6.55}, {'imgObject': {}, 'id': 'blueberries', 'src': '/static/foodstim60/blueberries.jpg', 'key': 'i', 'origWidth': 411, 'origHeight': 411, 'width': 411, 'height': 411, 'widthPercent': 0.45, 'rescaleHeight': False, 'trialN': 93, 'loaded': True, 'loadedTime': 2939.4000000953674, 'positionName': 'RIGHT', 'positionCoords': [998.4, 334.5], 'bid': 5.19}]",180838.80000019073,1669830977185,raspberries,blueberries,6.55,5.19,-1.3599999999999994,raspberries,1257.5,1258,1258.0,True,u,182602.80000019073,1764.0,1669830978949,1764,HRV,HRV_0091,2022-11-30 17:58:11
94,"[{'imgObject': {}, 'id': 'chickenfingers', 'src': '/static/foodstim60/chickenfingers.jpg', 'key': 'u', 'origWidth': 410, 'origHeight': 410, 'width': 410, 'height': 410, 'widthPercent': 0.45, 'rescaleHeight': False, 'trialN': 94, 'loaded': True, 'loadedTime': 2631.5, 'positionName': 'LEFT', 'positionCoords': [511.6, 335], 'bid': 6.5200000000000005}, {'imgObject': {}, 'id': 'froot loops w milk', 'src': '/static/foodstim60/froot loops w milk.jpg', 'key': 'i', 'origWidth': 410, 'origHeight': 410, 'width': 410, 'height': 410, 'widthPercent': 0.45, 'rescaleHeight': False, 'trialN': 94, 'loaded': True, 'loadedTime': 2959.2000000476837, 'positionName': 'RIGHT', 'positionCoords': [998.4, 335], 'bid': 6.55}]",182602.90000009537,1669830978949,chickenfingers,froot loops w milk,6.5200000000000005,6.55,0.02999999999999936,chickenfingers,889.2000000476837,890,889.7999999523163,True,u,184009.90000009537,1407.0,1669830980356,1407,HRV,HRV_0091,2022-11-30 17:58:11
95,"[{'imgObject': {}, 'id': 'baked potato', 'src': '/static/foodstim60/baked potato.jpg', 'key': 'u', 'origWidth': 409, 'origHeight': 410, 'width': 409, 'height': 410, 'widthPercent': 0.45, 'rescaleHeight': False, 'trialN': 95, 'loaded': True, 'loadedTime': 2722.800000190735, 'positionName': 'LEFT', 'positionCoords': [512.6, 335], 'bid': 3.77}, {'imgObject': {}, 'id': 'sweetpotato', 'src': '/static/foodstim60/sweetpotato.jpg', 'key': 'i', 'origWidth': 410, 'origHeight': 410, 'width': 410, 'height': 410, 'widthPercent': 0.45, 'rescaleHeight': False, 'trialN': 95, 'loaded': True, 'loadedTime': 2648.100000143051, 'positionName': 'RIGHT', 'positionCoords': [998.4, 335], 'bid': 3.47}]",184010.10000014305,1669830980357,baked potato,sweetpotato,3.77,3.47,-0.2999999999999998,baked potato,1075.2999999523163,1075,1075.7000000476837,True,u,185591.90000009537,1581.7999999523163,1669830981938,1581,HRV,HRV_0091,2022-11-30 17:58:11
96,"[{'imgObject': {}, 'id': 'cantaloupe', 'src': '/static/foodstim60/cantaloupe.jpg', 'key': 'u', 'origWidth': 409, 'origHeight': 409, 'width': 409, 'height': 409, 'widthPercent': 0.45, 'rescaleHeight': False, 'trialN': 96, 'loaded': True, 'loadedTime': 2851.300000190735, 'positionName': 'LEFT', 'positionCoords': [512.6, 335.5], 'bid': 4.84}, {'imgObject': {}, 'id': 'lox', 'src': '/static/foodstim60/lox.jpg', 'key': 'i', 'origWidth': 410, 'origHeight': 411, 'width': 410, 'height': 411, 'widthPercent': 0.45, 'rescaleHeight': False, 'trialN': 96, 'loaded': True, 'loadedTime': 2906.600000143051, 'positionName': 'RIGHT', 'positionCoords': [998.4, 334.5], 'bid': 4.95}]",185592.0,1669830981938,cantaloupe,lox,4.84,4.95,0.11000000000000032,cantaloupe,858.4000000953674,859,858.9000000953674,True,u,186970.90000009537,1378.9000000953674,1669830983317,1379,HRV,HRV_0091,2022-11-30 17:58:11
97,"[{'imgObject': {}, 'id': 'ice cream sundae 002', 'src': '/static/foodstim60/ice cream sundae 002.jpg', 'key': 'u', 'origWidth': 409, 'origHeight': 409, 'width': 409, 'height': 409, 'widthPercent': 0.45, 'rescaleHeight': False, 'trialN': 97, 'loaded': True, 'loadedTime': 2804.300000190735, 'positionName': 'LEFT', 'positionCoords': [512.6, 335.5], 'bid': 5.05}, {'imgObject': {}, 'id': 'pear', 'src': '/static/foodstim60/pear.jpg', 'key': 'i', 'origWidth': 411, 'origHeight': 410, 'width': 411, 'height': 410, 'widthPercent': 0.45, 'rescaleHeight': False, 'trialN': 97, 'loaded': True, 'loadedTime': 2909.4000000953674, 'positionName': 'RIGHT', 'positionCoords': [998.4, 335], 'bid': 5.03}]",186971.20000004768,1669830983318,ice cream sundae 002,pear,5.05,5.03,-0.019999999999999574,ice cream sundae 002,990.2000000476837,990,990.9000000953674,True,u,188467.40000009537,1496.2000000476837,1669830984814,1496,HRV,HRV_0091,2022-11-30 17:58:11
98,"[{'imgObject': {}, 'id': 'cocktailshrimp', 'src': '/static/foodstim60/cocktailshrimp.jpg', 'key': 'u', 'origWidth': 410, 'origHeight': 410, 'width': 410, 'height': 410, 'widthPercent': 0.45, 'rescaleHeight': False, 'trialN': 98, 'loaded': True, 'loadedTime': 2628.7000000476837, 'positionName': 'LEFT', 'positionCoords': [511.6, 335], 'bid': 3.47}, {'imgObject': {}, 'id': 'cherry tomato', 'src': '/static/foodstim60/cherry tomato.jpg', 'key': 'i', 'origWidth': 410, 'origHeight': 410, 'width': 410, 'height': 410, 'widthPercent': 0.45, 'rescaleHeight': False, 'trialN': 98, 'loaded': True, 'loadedTime': 2929.7000000476837, 'positionName': 'RIGHT', 'positionCoords': [998.4, 335], 'bid': 3.52}]",188467.60000014305,1669830984814,cocktailshrimp,cherry tomato,3.47,3.52,0.04999999999999982,cocktailshrimp,870.8999998569489,871,871.5,True,u,189859.30000019073,1391.7000000476837,1669830986205,1391,HRV,HRV_0091,2022-11-30 17:58:11
99,"[{'imgObject': {}, 'id': 'bagel and cc', 'src': '/static/foodstim60/bagel and cc.jpg', 'key': 'u', 'origWidth': 410, 'origHeight': 410, 'width': 410, 'height': 410, 'widthPercent': 0.45, 'rescaleHeight': False, 'trialN': 99, 'loaded': True, 'loadedTime': 2647.9000000953674, 'positionName': 'LEFT', 'positionCoords': [511.6, 335], 'bid': 6.42}, {'imgObject': {}, 'id': 'banana', 'src': '/static/foodstim60/banana.jpg', 'key': 'i', 'origWidth': 410, 'origHeight': 410, 'width': 410, 'height': 410, 'widthPercent': 0.45, 'rescaleHeight': False, 'trialN': 99, 'loaded': True, 'loadedTime': 2852.4000000953674, 'positionName': 'RIGHT', 'positionCoords': [998.4, 335], 'bid': 4.93}]",189859.5,1669830986206,bagel and cc,banana,6.42,4.93,-1.4900000000000002,bagel and cc,1095.9000000953674,1096,1096.5,True,u,191469.90000009537,1610.4000000953674,1669830987816,1610,HRV,HRV_0091,2022-11-30 17:58:11
100,"[{'imgObject': {}, 'id': 'rigatoni', 'src': '/static/foodstim60/rigatoni.jpg', 'key': 'u', 'origWidth': 411, 'origHeight': 411, 'width': 411, 'height': 411, 'widthPercent': 0.45, 'rescaleHeight': False, 'trialN': 100, 'loaded': True, 'loadedTime': 2876.4000000953674, 'positionName': 'LEFT', 'positionCoords': [510.6, 334.5], 'bid': 4.96}, {'imgObject': {}, 'id': 'chickenfingers', 'src': '/static/foodstim60/chickenfingers.jpg', 'key': 'i', 'origWidth': 410, 'origHeight': 410, 'width': 410, 'height': 410, 'widthPercent': 0.45, 'rescaleHeight': False, 'trialN': 100, 'loaded': True, 'loadedTime': 2633.7000000476837, 'positionName': 'RIGHT', 'positionCoords': [998.4, 335], 'bid': 6.5200000000000005}]",191470.10000014305,1669830987816,rigatoni,chickenfingers,4.96,6.5200000000000005,1.5600000000000005,chickenfingers,791.2000000476837,792,791.8999998569489,True,i,192773.0,1302.8999998569489,1669830989119,1303,HRV,HRV_0091,2022-11-30 17:58:11
101,"[{'imgObject': {}, 'id': 'luckycharms', 'src': '/static/foodstim60/luckycharms.jpg', 'key': 'u', 'origWidth': 410, 'origHeight': 409, 'width': 410, 'height': 409, 'widthPercent': 0.45, 'rescaleHeight': False, 'trialN': 101, 'loaded': True, 'loadedTime': 2901.7000000476837, 'positionName': 'LEFT', 'positionCoords': [511.6, 335.5], 'bid': 6.57}, {'imgObject': {}, 'id': 'chicken nuggets2', 'src': '/static/foodstim60/chicken nuggets2.jpg', 'key': 'i', 'origWidth': 410, 'origHeight': 409, 'width': 410, 'height': 409, 'widthPercent': 0.45, 'rescaleHeight': False, 'trialN': 101, 'loaded': True, 'loadedTime': 2969.5, 'positionName': 'RIGHT', 'positionCoords': [998.4, 335.5], 'bid': 6.33}]",192773.20000004768,1669830989119,luckycharms,chicken nuggets2,6.57,6.33,-0.2400000000000002,luckycharms,1106.5,1107,1106.9000000953674,True,u,194384.80000019073,1611.6000001430511,1669830990731,1612,HRV,HRV_0091,2022-11-30 17:58:11
102,"[{'imgObject': {}, 'id': 'shreddedwheatwithmilk', 'src': '/static/foodstim60/shreddedwheatwithmilk.jpg', 'key': 'u', 'origWidth': 410, 'origHeight': 410, 'width': 410, 'height': 410, 'widthPercent': 0.45, 'rescaleHeight': False, 'trialN': 102, 'loaded': True, 'loadedTime': 2958.2000000476837, 'positionName': 'LEFT', 'positionCoords': [511.6, 335], 'bid': 6.4}, {'imgObject': {}, 'id': 'sushi w_condiments', 'src': '/static/foodstim60/sushi w_condiments.jpg', 'key': 'i', 'origWidth': 410, 'origHeight': 410, 'width': 410, 'height': 410, 'widthPercent': 0.45, 'rescaleHeight': False, 'trialN': 102, 'loaded': True, 'loadedTime': 2920.9000000953674, 'positionName': 'RIGHT', 'positionCoords': [998.4, 335], 'bid': 4.91}]",194385.0,1669830990731,shreddedwheatwithmilk,sushi w_condiments,6.4,4.91,-1.4900000000000002,shreddedwheatwithmilk,1938.6000001430511,1939,1939.3000001907349,True,u,196844.80000019073,2459.800000190735,1669830993191,2460,HRV,HRV_0091,2022-11-30 17:58:11
103,"[{'imgObject': {}, 'id': 'sushi w_condiments', 'src': '/static/foodstim60/sushi w_condiments.jpg', 'key': 'u', 'origWidth': 410, 'origHeight': 410, 'width': 410, 'height': 410, 'widthPercent': 0.45, 'rescaleHeight': False, 'trialN': 103, 'loaded': True, 'loadedTime': 2921.300000190735, 'positionName': 'LEFT', 'positionCoords': [511.6, 335], 'bid': 4.91}, {'imgObject': {}, 'id': 'rigatoni', 'src': '/static/foodstim60/rigatoni.jpg', 'key': 'i', 'origWidth': 411, 'origHeight': 411, 'width': 411, 'height': 411, 'widthPercent': 0.45, 'rescaleHeight': False, 'trialN': 103, 'loaded': True, 'loadedTime': 2875.2000000476837, 'positionName': 'RIGHT', 'positionCoords': [998.4, 334.5], 'bid': 4.96}]",196845.0,1669830993191,sushi w_condiments,rigatoni,4.91,4.96,0.04999999999999982,sushi w_condiments,861.2000000476837,862,861.7000000476837,True,u,198216.30000019073,1371.3000001907349,1669830994562,1371,HRV,HRV_0091,2022-11-30 17:58:11
104,"[{'imgObject': {}, 'id': 'mac & cheese', 'src': '/static/foodstim60/mac & cheese.jpg', 'key': 'u', 'origWidth': 410, 'origHeight': 410, 'width': 410, 'height': 410, 'widthPercent': 0.45, 'rescaleHeight': False, 'trialN': 104, 'loaded': True, 'loadedTime': 2645.4000000953674, 'positionName': 'LEFT', 'positionCoords': [511.6, 335], 'bid': 6.48}, {'imgObject': {}, 'id': 'turkeysandwich', 'src': '/static/foodstim60/turkeysandwich.jpg', 'key': 'i', 'origWidth': 409, 'origHeight': 409, 'width': 409, 'height': 409, 'widthPercent': 0.45, 'rescaleHeight': False, 'trialN': 104, 'loaded': True, 'loadedTime': 2892.100000143051, 'positionName': 'RIGHT', 'positionCoords': [998.4, 335.5], 'bid': 6.5600000000000005}]",198216.5,1669830994563,mac & cheese,turkeysandwich,6.48,6.5600000000000005,0.08000000000000007,turkeysandwich,1456.4000000953674,1457,1457.0,True,i,200188.60000014305,1972.1000001430511,1669830996535,1972,HRV,HRV_0091,2022-11-30 17:58:11
105,"[{'imgObject': {}, 'id': 'pear', 'src': '/static/foodstim60/pear.jpg', 'key': 'u', 'origWidth': 411, 'origHeight': 410, 'width': 411, 'height': 410, 'widthPercent': 0.45, 'rescaleHeight': False, 'trialN': 105, 'loaded': True, 'loadedTime': 2909.600000143051, 'positionName': 'LEFT', 'positionCoords': [510.6, 335], 'bid': 5.03}, {'imgObject': {}, 'id': 'Tribe humus pita', 'src': '/static/foodstim60/Tribe humus pita.jpg', 'key': 'i', 'origWidth': 411, 'origHeight': 411, 'width': 411, 'height': 411, 'widthPercent': 0.45, 'rescaleHeight': False, 'trialN': 105, 'loaded': True, 'loadedTime': 2947.800000190735, 'positionName': 'RIGHT', 'positionCoords': [998.4, 334.5], 'bid': 5.11}]",200188.80000019073,1669830996535,pear,Tribe humus pita,5.03,5.11,0.08000000000000007,Tribe humus pita,1447,1447,1447.5,True,i,202149.30000019073,1960.5,1669830998495,1960,HRV,HRV_0091,2022-11-30 17:58:11
106,"[{'imgObject': {}, 'id': 'shreddedwheatwithmilk', 'src': '/static/foodstim60/shreddedwheatwithmilk.jpg', 'key': 'u', 'origWidth': 410, 'origHeight': 410, 'width': 410, 'height': 410, 'widthPercent': 0.45, 'rescaleHeight': False, 'trialN': 106, 'loaded': True, 'loadedTime': 2958.2000000476837, 'positionName': 'LEFT', 'positionCoords': [511.6, 335], 'bid': 6.4}, {'imgObject': {}, 'id': 'roastedpotatoes', 'src': '/static/foodstim60/roastedpotatoes.jpg', 'key': 'i', 'origWidth': 409, 'origHeight': 410, 'width': 409, 'height': 410, 'widthPercent': 0.45, 'rescaleHeight': False, 'trialN': 106, 'loaded': True, 'loadedTime': 2794.9000000953674, 'positionName': 'RIGHT', 'positionCoords': [998.4, 335], 'bid': 5.23}]",202149.60000014305,1669830998496,shreddedwheatwithmilk,roastedpotatoes,6.4,5.23,-1.17,shreddedwheatwithmilk,2484.7999999523163,2485,2485.2999999523163,True,u,205151.80000019073,3002.2000000476837,1669831001498,3002,HRV,HRV_0091,2022-11-30 17:58:11
107,"[{'imgObject': {}, 'id': 'salmon', 'src': '/static/foodstim60/salmon.jpg', 'key': 'u', 'origWidth': 410, 'origHeight': 409, 'width': 410, 'height': 409, 'widthPercent': 0.45, 'rescaleHeight': False, 'trialN': 107, 'loaded': True, 'loadedTime': 2706.9000000953674, 'positionName': 'LEFT', 'positionCoords': [511.6, 335.5], 'bid': 4.96}, {'imgObject': {}, 'id': 'edamame', 'src': '/static/foodstim60/edamame.jpg', 'key': 'i', 'origWidth': 409, 'origHeight': 410, 'width': 409, 'height': 410, 'widthPercent': 0.45, 'rescaleHeight': False, 'trialN': 107, 'loaded': True, 'loadedTime': 2586, 'positionName': 'RIGHT', 'positionCoords': [998.4, 335], 'bid': 3.46}]",205152.0,1669831001498,salmon,edamame,4.96,3.46,-1.5,salmon,1897.2000000476837,1898,1897.7000000476837,True,u,207562.10000014305,2410.100000143051,1669831003908,2410,HRV,HRV_0091,2022-11-30 17:58:11
