trialN,stimuli,trialStartTime,trialStartTime_UNIX,stimulus1,stimulus2,stimulus1Bid,stimulus2Bid,delta,selected,rt,rt_UNIX,rt_perfnow,receivedResponse,rsp,trialEndTime,trialDuration,trialEndTime_UNIX,trialDuration_UNIX,exp,subjectId,date
0,"[{'imgObject': {}, 'id': 'cocktailshrimp', 'src': '/static/foodstim60/cocktailshrimp.jpg', 'key': 'u', 'origWidth': 410, 'origHeight': 410, 'width': 410, 'height': 410, 'widthPercent': 0.45, 'rescaleHeight': False, 'trialN': 0, 'loaded': True, 'loadedTime': 3373.7999999970198, 'positionName': 'LEFT', 'positionCoords': [204.4, 155], 'bid': 0.2}, {'imgObject': {}, 'id': 'rigatoni', 'src': '/static/foodstim60/rigatoni.jpg', 'key': 'i', 'origWidth': 411, 'origHeight': 411, 'width': 411, 'height': 411, 'widthPercent': 0.45, 'rescaleHeight': False, 'trialN': 0, 'loaded': True, 'loadedTime': 3399.5, 'positionName': 'RIGHT', 'positionCoords': [665.6, 154.5], 'bid': 1.39}]",3802.3999999910593,1669829707099,cocktailshrimp,rigatoni,0.2,1.39,1.19,rigatoni,913.7999999970198,914,914.5,True,i,5237.0999999940395,1434.7000000029802,1669829708533,1434,HRV,HRV_0080,2022-11-30 17:40:18
1,"[{'imgObject': {}, 'id': 'eggsalad', 'src': '/static/foodstim60/eggsalad.jpg', 'key': 'u', 'origWidth': 410, 'origHeight': 409, 'width': 410, 'height': 409, 'widthPercent': 0.45, 'rescaleHeight': False, 'trialN': 1, 'loaded': True, 'loadedTime': 3403, 'positionName': 'LEFT', 'positionCoords': [204.4, 155.5], 'bid': 1.12}, {'imgObject': {}, 'id': 'olives', 'src': '/static/foodstim60/olives.jpg', 'key': 'i', 'origWidth': 410, 'origHeight': 410, 'width': 410, 'height': 410, 'widthPercent': 0.45, 'rescaleHeight': False, 'trialN': 1, 'loaded': True, 'loadedTime': 3406.199999988079, 'positionName': 'RIGHT', 'positionCoords': [665.6, 155], 'bid': 0.21}]",5237.5,1669829708534,eggsalad,olives,1.12,0.21,-0.9100000000000001,eggsalad,1258.0999999940395,1259,1258.7999999970198,True,u,7011.0,1773.5,1669829710307,1773,HRV,HRV_0080,2022-11-30 17:40:18
2,"[{'imgObject': {}, 'id': 'kiwi', 'src': '/static/foodstim60/kiwi.jpg', 'key': 'u', 'origWidth': 410, 'origHeight': 410, 'width': 410, 'height': 410, 'widthPercent': 0.45, 'rescaleHeight': False, 'trialN': 2, 'loaded': True, 'loadedTime': 3408.8999999910593, 'positionName': 'LEFT', 'positionCoords': [204.4, 155], 'bid': 7.15}, {'imgObject': {}, 'id': 'burrito', 'src': '/static/foodstim60/burrito.jpg', 'key': 'i', 'origWidth': 410, 'origHeight': 410, 'width': 410, 'height': 410, 'widthPercent': 0.45, 'rescaleHeight': False, 'trialN': 2, 'loaded': True, 'loadedTime': 3415.7999999970198, 'positionName': 'RIGHT', 'positionCoords': [665.6, 155], 'bid': 7.56}]",7011.5,1669829710308,kiwi,burrito,7.15,7.56,0.40999999999999925,burrito,796.1999999880791,797,796.8999999910593,True,i,8323.79999999702,1312.2999999970198,1669829711620,1312,HRV,HRV_0080,2022-11-30 17:40:18
3,"[{'imgObject': {}, 'id': 'Tribe humus pita', 'src': '/static/foodstim60/Tribe humus pita.jpg', 'key': 'u', 'origWidth': 411, 'origHeight': 411, 'width': 411, 'height': 411, 'widthPercent': 0.45, 'rescaleHeight': False, 'trialN': 3, 'loaded': True, 'loadedTime': 3384.3999999910593, 'positionName': 'LEFT', 'positionCoords': [203.4, 154.5], 'bid': 4.5600000000000005}, {'imgObject': {}, 'id': 'raspberries', 'src': '/static/foodstim60/raspberries.jpg', 'key': 'i', 'origWidth': 411, 'origHeight': 411, 'width': 411, 'height': 411, 'widthPercent': 0.45, 'rescaleHeight': False, 'trialN': 3, 'loaded': True, 'loadedTime': 3416.5, 'positionName': 'RIGHT', 'positionCoords': [665.6, 154.5], 'bid': 9.75}]",8324.199999988079,1669829711620,Tribe humus pita,raspberries,4.5600000000000005,9.75,5.1899999999999995,raspberries,1016.0,1017,1016.8000000119209,True,i,9852.89999999106,1528.7000000029802,1669829713149,1529,HRV,HRV_0080,2022-11-30 17:40:18
4,"[{'imgObject': {}, 'id': 'luckycharms', 'src': '/static/foodstim60/luckycharms.jpg', 'key': 'u', 'origWidth': 410, 'origHeight': 409, 'width': 410, 'height': 409, 'widthPercent': 0.45, 'rescaleHeight': False, 'trialN': 4, 'loaded': True, 'loadedTime': 3431, 'positionName': 'LEFT', 'positionCoords': [204.4, 155.5], 'bid': 7.81}, {'imgObject': {}, 'id': 'chickenfingers', 'src': '/static/foodstim60/chickenfingers.jpg', 'key': 'i', 'origWidth': 410, 'origHeight': 410, 'width': 410, 'height': 410, 'widthPercent': 0.45, 'rescaleHeight': False, 'trialN': 4, 'loaded': True, 'loadedTime': 3441, 'positionName': 'RIGHT', 'positionCoords': [665.6, 155], 'bid': 9.59}]",9853.199999988079,1669829713149,luckycharms,chickenfingers,7.81,9.59,1.7800000000000002,chickenfingers,1027.0,1028,1027.7000000029802,True,i,11397.79999999702,1544.6000000089407,1669829714694,1545,HRV,HRV_0080,2022-11-30 17:40:18
5,"[{'imgObject': {}, 'id': 'luckycharms', 'src': '/static/foodstim60/luckycharms.jpg', 'key': 'u', 'origWidth': 410, 'origHeight': 409, 'width': 410, 'height': 409, 'widthPercent': 0.45, 'rescaleHeight': False, 'trialN': 5, 'loaded': True, 'loadedTime': 3433, 'positionName': 'LEFT', 'positionCoords': [204.4, 155.5], 'bid': 7.81}, {'imgObject': {}, 'id': 'pear', 'src': '/static/foodstim60/pear.jpg', 'key': 'i', 'origWidth': 411, 'origHeight': 410, 'width': 411, 'height': 410, 'widthPercent': 0.45, 'rescaleHeight': False, 'trialN': 5, 'loaded': True, 'loadedTime': 3445.0999999940395, 'positionName': 'RIGHT', 'positionCoords': [665.6, 155], 'bid': 2.18}]",11398.199999988079,1669829714694,luckycharms,pear,7.81,2.18,-5.629999999999999,luckycharms,1110.4000000059605,1111,1110.800000011921,True,u,13013.89999999106,1615.7000000029802,1669829716310,1616,HRV,HRV_0080,2022-11-30 17:40:18
6,"[{'imgObject': {}, 'id': 'turkey sandwich', 'src': '/static/foodstim60/turkey sandwich.jpg', 'key': 'u', 'origWidth': 409, 'origHeight': 409, 'width': 409, 'height': 409, 'widthPercent': 0.45, 'rescaleHeight': False, 'trialN': 6, 'loaded': True, 'loadedTime': 3451, 'positionName': 'LEFT', 'positionCoords': [205.4, 155.5], 'bid': 0.43}, {'imgObject': {}, 'id': 'cheerios', 'src': '/static/foodstim60/cheerios.jpg', 'key': 'i', 'origWidth': 409, 'origHeight': 410, 'width': 409, 'height': 410, 'widthPercent': 0.45, 'rescaleHeight': False, 'trialN': 6, 'loaded': True, 'loadedTime': 3458.5999999940395, 'positionName': 'RIGHT', 'positionCoords': [665.6, 155], 'bid': 1.95}]",13014.29999999702,1669829716310,turkey sandwich,cheerios,0.43,1.95,1.52,cheerios,1379.7999999970198,1381,1380.3999999910593,True,i,14911.699999988079,1897.3999999910593,1669829718207,1897,HRV,HRV_0080,2022-11-30 17:40:18
7,"[{'imgObject': {}, 'id': 'chickenfingers', 'src': '/static/foodstim60/chickenfingers.jpg', 'key': 'u', 'origWidth': 410, 'origHeight': 410, 'width': 410, 'height': 410, 'widthPercent': 0.45, 'rescaleHeight': False, 'trialN': 7, 'loaded': True, 'loadedTime': 3433.5, 'positionName': 'LEFT', 'positionCoords': [204.4, 155], 'bid': 9.59}, {'imgObject': {}, 'id': 'roastedpotatoes', 'src': '/static/foodstim60/roastedpotatoes.jpg', 'key': 'i', 'origWidth': 409, 'origHeight': 410, 'width': 409, 'height': 410, 'widthPercent': 0.45, 'rescaleHeight': False, 'trialN': 7, 'loaded': True, 'loadedTime': 3466.0999999940395, 'positionName': 'RIGHT', 'positionCoords': [665.6, 155], 'bid': 9.68}]",14912.199999988079,1669829718208,chickenfingers,roastedpotatoes,9.59,9.68,0.08999999999999986,chickenfingers,1635.2000000029802,1636,1636.2000000029802,True,u,17056.29999999702,2144.1000000089407,1669829720352,2144,HRV,HRV_0080,2022-11-30 17:40:18
8,"[{'imgObject': {}, 'id': 'salmon', 'src': '/static/foodstim60/salmon.jpg', 'key': 'u', 'origWidth': 410, 'origHeight': 409, 'width': 410, 'height': 409, 'widthPercent': 0.45, 'rescaleHeight': False, 'trialN': 8, 'loaded': True, 'loadedTime': 3468.3999999910593, 'positionName': 'LEFT', 'positionCoords': [204.4, 155.5], 'bid': 5.54}, {'imgObject': {}, 'id': 'edamame', 'src': '/static/foodstim60/edamame.jpg', 'key': 'i', 'origWidth': 409, 'origHeight': 410, 'width': 409, 'height': 410, 'widthPercent': 0.45, 'rescaleHeight': False, 'trialN': 8, 'loaded': True, 'loadedTime': 3475.2999999970198, 'positionName': 'RIGHT', 'positionCoords': [665.6, 155], 'bid': 5.4}]",17056.69999998808,1669829720352,salmon,edamame,5.54,5.4,-0.13999999999999968,salmon,975.4000000059605,977,976.0,True,u,18533.19999998808,1476.5,1669829721829,1477,HRV,HRV_0080,2022-11-30 17:40:18
9,"[{'imgObject': {}, 'id': 'sweetpotato', 'src': '/static/foodstim60/sweetpotato.jpg', 'key': 'u', 'origWidth': 410, 'origHeight': 410, 'width': 410, 'height': 410, 'widthPercent': 0.45, 'rescaleHeight': False, 'trialN': 9, 'loaded': True, 'loadedTime': 3482, 'positionName': 'LEFT', 'positionCoords': [204.4, 155], 'bid': 2.92}, {'imgObject': {}, 'id': 'baked potato', 'src': '/static/foodstim60/baked potato.jpg', 'key': 'i', 'origWidth': 409, 'origHeight': 410, 'width': 409, 'height': 410, 'widthPercent': 0.45, 'rescaleHeight': False, 'trialN': 9, 'loaded': True, 'loadedTime': 3489.8999999910593, 'positionName': 'RIGHT', 'positionCoords': [665.6, 155], 'bid': 5}]",18533.59999999404,1669829721829,sweetpotato,baked potato,2.92,5.0,2.08,baked potato,885.5,886,885.7000000029802,True,i,19930.0,1396.4000000059605,1669829723226,1397,HRV,HRV_0080,2022-11-30 17:40:18
10,"[{'imgObject': {}, 'id': 'chicken nuggets2', 'src': '/static/foodstim60/chicken nuggets2.jpg', 'key': 'u', 'origWidth': 410, 'origHeight': 409, 'width': 410, 'height': 409, 'widthPercent': 0.45, 'rescaleHeight': False, 'trialN': 10, 'loaded': True, 'loadedTime': 3506.699999988079, 'positionName': 'LEFT', 'positionCoords': [204.4, 155.5], 'bid': 9.28}, {'imgObject': {}, 'id': 'hashbrowns', 'src': '/static/foodstim60/hashbrowns.jpg', 'key': 'i', 'origWidth': 411, 'origHeight': 410, 'width': 411, 'height': 410, 'widthPercent': 0.45, 'rescaleHeight': False, 'trialN': 10, 'loaded': True, 'loadedTime': 3514.7999999970198, 'positionName': 'RIGHT', 'positionCoords': [665.6, 155], 'bid': 4.12}]",19930.59999999404,1669829723226,chicken nuggets2,hashbrowns,9.28,4.12,-5.159999999999999,chicken nuggets2,970.5,972,971.2000000029802,True,u,21416.39999999106,1485.7999999970198,1669829724712,1486,HRV,HRV_0080,2022-11-30 17:40:18
11,"[{'imgObject': {}, 'id': 'roastedpotatoes', 'src': '/static/foodstim60/roastedpotatoes.jpg', 'key': 'u', 'origWidth': 409, 'origHeight': 410, 'width': 409, 'height': 410, 'widthPercent': 0.45, 'rescaleHeight': False, 'trialN': 11, 'loaded': True, 'loadedTime': 3460, 'positionName': 'LEFT', 'positionCoords': [205.4, 155], 'bid': 9.68}, {'imgObject': {}, 'id': 'grilled chicken strips', 'src': '/static/foodstim60/grilled chicken strips.jpg', 'key': 'i', 'origWidth': 410, 'origHeight': 411, 'width': 410, 'height': 411, 'widthPercent': 0.45, 'rescaleHeight': False, 'trialN': 11, 'loaded': True, 'loadedTime': 3516.2999999970198, 'positionName': 'RIGHT', 'positionCoords': [665.6, 154.5], 'bid': 7.85}]",21416.89999999106,1669829724713,roastedpotatoes,grilled chicken strips,9.68,7.85,-1.83,grilled chicken strips,1269.4000000059605,1270,1270.2999999970198,True,i,23196.39999999106,1779.5,1669829726492,1779,HRV,HRV_0080,2022-11-30 17:40:18
12,"[{'imgObject': {}, 'id': 'strawberries', 'src': '/static/foodstim60/strawberries.jpg', 'key': 'u', 'origWidth': 410, 'origHeight': 410, 'width': 410, 'height': 410, 'widthPercent': 0.45, 'rescaleHeight': False, 'trialN': 12, 'loaded': True, 'loadedTime': 3535.0999999940395, 'positionName': 'LEFT', 'positionCoords': [204.4, 155], 'bid': 9.75}, {'imgObject': {}, 'id': 'mashed potato', 'src': '/static/foodstim60/mashed potato.jpg', 'key': 'i', 'origWidth': 409, 'origHeight': 409, 'width': 409, 'height': 409, 'widthPercent': 0.45, 'rescaleHeight': False, 'trialN': 12, 'loaded': True, 'loadedTime': 3541.5, 'positionName': 'RIGHT', 'positionCoords': [665.6, 155.5], 'bid': 4.71}]",23197.09999999404,1669829726493,strawberries,mashed potato,9.75,4.71,-5.04,strawberries,1426.5,1427,1427.5999999940395,True,u,25126.69999998808,1929.5999999940395,1669829728422,1929,HRV,HRV_0080,2022-11-30 17:40:18
13,"[{'imgObject': {}, 'id': 'roastedpotatoes', 'src': '/static/foodstim60/roastedpotatoes.jpg', 'key': 'u', 'origWidth': 409, 'origHeight': 410, 'width': 409, 'height': 410, 'widthPercent': 0.45, 'rescaleHeight': False, 'trialN': 13, 'loaded': True, 'loadedTime': 3464.699999988079, 'positionName': 'LEFT', 'positionCoords': [205.4, 155], 'bid': 9.68}, {'imgObject': {}, 'id': 'ice cream sundae 002', 'src': '/static/foodstim60/ice cream sundae 002.jpg', 'key': 'i', 'origWidth': 409, 'origHeight': 409, 'width': 409, 'height': 409, 'widthPercent': 0.45, 'rescaleHeight': False, 'trialN': 13, 'loaded': True, 'loadedTime': 3546, 'positionName': 'RIGHT', 'positionCoords': [665.6, 155.5], 'bid': 4.43}]",25127.0,1669829728423,roastedpotatoes,ice cream sundae 002,9.68,4.43,-5.25,roastedpotatoes,994.8999999910593,996,995.6999999880791,True,u,26644.69999998808,1517.699999988079,1669829729940,1517,HRV,HRV_0080,2022-11-30 17:40:18
14,"[{'imgObject': {}, 'id': 'fried eggs', 'src': '/static/foodstim60/fried eggs.jpg', 'key': 'u', 'origWidth': 410, 'origHeight': 410, 'width': 410, 'height': 410, 'widthPercent': 0.45, 'rescaleHeight': False, 'trialN': 14, 'loaded': True, 'loadedTime': 3550.0999999940395, 'positionName': 'LEFT', 'positionCoords': [204.4, 155], 'bid': 5.1000000000000005}, {'imgObject': {}, 'id': 'mashed potato', 'src': '/static/foodstim60/mashed potato.jpg', 'key': 'i', 'origWidth': 409, 'origHeight': 409, 'width': 409, 'height': 409, 'widthPercent': 0.45, 'rescaleHeight': False, 'trialN': 14, 'loaded': True, 'loadedTime': 3541.3999999910593, 'positionName': 'RIGHT', 'positionCoords': [665.6, 155.5], 'bid': 4.71}]",26645.19999998808,1669829729941,fried eggs,mashed potato,5.1000000000000005,4.71,-0.39000000000000057,fried eggs,1527.6000000089407,1528,1528.300000011921,True,u,28687.0,2041.800000011921,1669829731983,2042,HRV,HRV_0080,2022-11-30 17:40:18
15,"[{'imgObject': {}, 'id': 'eggs', 'src': '/static/foodstim60/eggs.jpg', 'key': 'u', 'origWidth': 409, 'origHeight': 409, 'width': 409, 'height': 409, 'widthPercent': 0.45, 'rescaleHeight': False, 'trialN': 15, 'loaded': True, 'loadedTime': 3555.0999999940395, 'positionName': 'LEFT', 'positionCoords': [205.4, 155.5], 'bid': 0.32}, {'imgObject': {}, 'id': 'granola w milk', 'src': '/static/foodstim60/granola w milk.jpg', 'key': 'i', 'origWidth': 410, 'origHeight': 410, 'width': 410, 'height': 410, 'widthPercent': 0.45, 'rescaleHeight': False, 'trialN': 15, 'loaded': True, 'loadedTime': 3556.8999999910593, 'positionName': 'RIGHT', 'positionCoords': [665.6, 155], 'bid': 1.57}]",28687.5,1669829731983,eggs,granola w milk,0.32,1.57,1.25,granola w milk,1226.8999999910593,1228,1227.699999988079,True,i,30431.29999999702,1743.7999999970198,1669829733727,1744,HRV,HRV_0080,2022-11-30 17:40:18
16,"[{'imgObject': {}, 'id': 'burger', 'src': '/static/foodstim60/burger.jpg', 'key': 'u', 'origWidth': 409, 'origHeight': 409, 'width': 409, 'height': 409, 'widthPercent': 0.45, 'rescaleHeight': False, 'trialN': 16, 'loaded': True, 'loadedTime': 3564.199999988079, 'positionName': 'LEFT', 'positionCoords': [205.4, 155.5], 'bid': 8.82}, {'imgObject': {}, 'id': 'cherries', 'src': '/static/foodstim60/cherries.jpg', 'key': 'i', 'origWidth': 410, 'origHeight': 411, 'width': 410, 'height': 411, 'widthPercent': 0.45, 'rescaleHeight': False, 'trialN': 16, 'loaded': True, 'loadedTime': 3567.7999999970198, 'positionName': 'RIGHT', 'positionCoords': [665.6, 154.5], 'bid': 6.37}]",30431.79999999702,1669829733728,burger,cherries,8.82,6.37,-2.45,burger,1182.0999999940395,1183,1183.0,True,u,32132.89999999106,1701.0999999940395,1669829735429,1701,HRV,HRV_0080,2022-11-30 17:40:18
17,"[{'imgObject': {}, 'id': 'turkey sandwich', 'src': '/static/foodstim60/turkey sandwich.jpg', 'key': 'u', 'origWidth': 409, 'origHeight': 409, 'width': 409, 'height': 409, 'widthPercent': 0.45, 'rescaleHeight': False, 'trialN': 17, 'loaded': True, 'loadedTime': 3450.699999988079, 'positionName': 'LEFT', 'positionCoords': [205.4, 155.5], 'bid': 0.43}, {'imgObject': {}, 'id': 'eggsalad', 'src': '/static/foodstim60/eggsalad.jpg', 'key': 'i', 'origWidth': 410, 'origHeight': 409, 'width': 410, 'height': 409, 'widthPercent': 0.45, 'rescaleHeight': False, 'trialN': 17, 'loaded': True, 'loadedTime': 3400.8999999910593, 'positionName': 'RIGHT', 'positionCoords': [665.6, 155.5], 'bid': 1.12}]",32133.29999999702,1669829735429,turkey sandwich,eggsalad,0.43,1.12,0.6900000000000002,eggsalad,1593.5,1594,1593.8999999910593,True,i,34229.5,2096.2000000029802,1669829737525,2096,HRV,HRV_0080,2022-11-30 17:40:18
18,"[{'imgObject': {}, 'id': 'kiwi', 'src': '/static/foodstim60/kiwi.jpg', 'key': 'u', 'origWidth': 410, 'origHeight': 410, 'width': 410, 'height': 410, 'widthPercent': 0.45, 'rescaleHeight': False, 'trialN': 18, 'loaded': True, 'loadedTime': 3411.699999988079, 'positionName': 'LEFT', 'positionCoords': [204.4, 155], 'bid': 7.15}, {'imgObject': {}, 'id': 'rigatoni and sauce', 'src': '/static/foodstim60/rigatoni and sauce.jpg', 'key': 'i', 'origWidth': 410, 'origHeight': 411, 'width': 410, 'height': 411, 'widthPercent': 0.45, 'rescaleHeight': False, 'trialN': 18, 'loaded': True, 'loadedTime': 3573.8999999910593, 'positionName': 'RIGHT', 'positionCoords': [665.6, 154.5], 'bid': 8.4}]",34230.0,1669829737526,kiwi,rigatoni and sauce,7.15,8.4,1.25,rigatoni and sauce,758.5999999940395,759,759.3999999910593,True,i,35501.79999999702,1271.7999999970198,1669829738798,1272,HRV,HRV_0080,2022-11-30 17:40:18
19,"[{'imgObject': {}, 'id': 'grilled chicken strips', 'src': '/static/foodstim60/grilled chicken strips.jpg', 'key': 'u', 'origWidth': 410, 'origHeight': 411, 'width': 410, 'height': 411, 'widthPercent': 0.45, 'rescaleHeight': False, 'trialN': 19, 'loaded': True, 'loadedTime': 3519.8999999910593, 'positionName': 'LEFT', 'positionCoords': [204.4, 154.5], 'bid': 7.85}, {'imgObject': {}, 'id': 'fruitsalad', 'src': '/static/foodstim60/fruitsalad.jpg', 'key': 'i', 'origWidth': 410, 'origHeight': 410, 'width': 410, 'height': 410, 'widthPercent': 0.45, 'rescaleHeight': False, 'trialN': 19, 'loaded': True, 'loadedTime': 3576.5, 'positionName': 'RIGHT', 'positionCoords': [665.6, 155], 'bid': 5.1000000000000005}]",35502.19999998808,1669829738798,grilled chicken strips,fruitsalad,7.85,5.1000000000000005,-2.749999999999999,grilled chicken strips,1037.4000000059605,1038,1037.9000000059605,True,u,37053.0,1550.800000011921,1669829740349,1551,HRV,HRV_0080,2022-11-30 17:40:18
20,"[{'imgObject': {}, 'id': 'froot loops w milk', 'src': '/static/foodstim60/froot loops w milk.jpg', 'key': 'u', 'origWidth': 410, 'origHeight': 410, 'width': 410, 'height': 410, 'widthPercent': 0.45, 'rescaleHeight': False, 'trialN': 20, 'loaded': True, 'loadedTime': 3578.8999999910593, 'positionName': 'LEFT', 'positionCoords': [204.4, 155], 'bid': 7.930000000000001}, {'imgObject': {}, 'id': 'chicken nuggets2', 'src': '/static/foodstim60/chicken nuggets2.jpg', 'key': 'i', 'origWidth': 410, 'origHeight': 409, 'width': 410, 'height': 409, 'widthPercent': 0.45, 'rescaleHeight': False, 'trialN': 20, 'loaded': True, 'loadedTime': 3508.199999988079, 'positionName': 'RIGHT', 'positionCoords': [665.6, 155.5], 'bid': 9.28}]",37053.19999998808,1669829740349,froot loops w milk,chicken nuggets2,7.930000000000001,9.28,1.3499999999999988,chicken nuggets2,1155.9000000059605,1157,1156.5,True,i,38723.19999998808,1670.0,1669829742019,1670,HRV,HRV_0080,2022-11-30 17:40:18
21,"[{'imgObject': {}, 'id': 'cocktailshrimp', 'src': '/static/foodstim60/cocktailshrimp.jpg', 'key': 'u', 'origWidth': 410, 'origHeight': 410, 'width': 410, 'height': 410, 'widthPercent': 0.45, 'rescaleHeight': False, 'trialN': 21, 'loaded': True, 'loadedTime': 3377.199999988079, 'positionName': 'LEFT', 'positionCoords': [204.4, 155], 'bid': 0.2}, {'imgObject': {}, 'id': 'olives', 'src': '/static/foodstim60/olives.jpg', 'key': 'i', 'origWidth': 410, 'origHeight': 410, 'width': 410, 'height': 410, 'widthPercent': 0.45, 'rescaleHeight': False, 'trialN': 21, 'loaded': True, 'loadedTime': 3407.7999999970198, 'positionName': 'RIGHT', 'positionCoords': [665.6, 155], 'bid': 0.21}]",38723.69999998808,1669829742019,cocktailshrimp,olives,0.2,0.21,0.009999999999999981,olives,1120.9000000059605,1122,1121.300000011921,True,i,40365.69999998808,1642.0,1669829743662,1643,HRV,HRV_0080,2022-11-30 17:40:18
22,"[{'imgObject': {}, 'id': 'omelette', 'src': '/static/foodstim60/omelette.jpg', 'key': 'u', 'origWidth': 410, 'origHeight': 409, 'width': 410, 'height': 409, 'widthPercent': 0.45, 'rescaleHeight': False, 'trialN': 22, 'loaded': True, 'loadedTime': 3596.3999999910593, 'positionName': 'LEFT', 'positionCoords': [204.4, 155.5], 'bid': 0.53}, {'imgObject': {}, 'id': 'seaweed', 'src': '/static/foodstim60/seaweed.jpg', 'key': 'i', 'origWidth': 410, 'origHeight': 410, 'width': 410, 'height': 410, 'widthPercent': 0.45, 'rescaleHeight': False, 'trialN': 22, 'loaded': True, 'loadedTime': 3599.3999999910593, 'positionName': 'RIGHT', 'positionCoords': [665.6, 155], 'bid': 0.42}]",40366.19999998808,1669829743662,omelette,seaweed,0.53,0.42,-0.11000000000000004,seaweed,1314.6000000089407,1315,1314.9000000059605,True,i,42192.59999999404,1826.4000000059605,1669829745488,1826,HRV,HRV_0080,2022-11-30 17:40:18
23,"[{'imgObject': {}, 'id': 'bagel plain', 'src': '/static/foodstim60/bagel plain.jpg', 'key': 'u', 'origWidth': 410, 'origHeight': 410, 'width': 410, 'height': 410, 'widthPercent': 0.45, 'rescaleHeight': False, 'trialN': 23, 'loaded': True, 'loadedTime': 3601.7999999970198, 'positionName': 'LEFT', 'positionCoords': [204.4, 155], 'bid': 7.03}, {'imgObject': {}, 'id': 'kiwi', 'src': '/static/foodstim60/kiwi.jpg', 'key': 'i', 'origWidth': 410, 'origHeight': 410, 'width': 410, 'height': 410, 'widthPercent': 0.45, 'rescaleHeight': False, 'trialN': 23, 'loaded': True, 'loadedTime': 3410.7999999970198, 'positionName': 'RIGHT', 'positionCoords': [665.6, 155], 'bid': 7.15}]",42192.69999998808,1669829745489,bagel plain,kiwi,7.03,7.15,0.1200000000000001,bagel plain,1739.7000000029802,1740,1740.1000000089407,True,u,44444.29999999702,2251.6000000089407,1669829747740,2251,HRV,HRV_0080,2022-11-30 17:40:18
24,"[{'imgObject': {}, 'id': 'popsicles', 'src': '/static/foodstim60/popsicles.jpg', 'key': 'u', 'origWidth': 410, 'origHeight': 410, 'width': 410, 'height': 410, 'widthPercent': 0.45, 'rescaleHeight': False, 'trialN': 24, 'loaded': True, 'loadedTime': 3801.3999999910593, 'positionName': 'LEFT', 'positionCoords': [204.4, 155], 'bid': 2.31}, {'imgObject': {}, 'id': 'grilled chicken strips', 'src': '/static/foodstim60/grilled chicken strips.jpg', 'key': 'i', 'origWidth': 410, 'origHeight': 411, 'width': 410, 'height': 411, 'widthPercent': 0.45, 'rescaleHeight': False, 'trialN': 24, 'loaded': True, 'loadedTime': 3518.699999988079, 'positionName': 'RIGHT', 'positionCoords': [665.6, 154.5], 'bid': 7.85}]",44444.59999999404,1669829747740,popsicles,grilled chicken strips,2.31,7.85,5.539999999999999,grilled chicken strips,946.9000000059605,948,947.5999999940395,True,i,45898.09999999404,1453.5,1669829749194,1454,HRV,HRV_0080,2022-11-30 17:40:18
25,"[{'imgObject': {}, 'id': 'raisin bran w milk', 'src': '/static/foodstim60/raisin bran w milk.jpg', 'key': 'u', 'origWidth': 411, 'origHeight': 411, 'width': 411, 'height': 411, 'widthPercent': 0.45, 'rescaleHeight': False, 'trialN': 25, 'loaded': True, 'loadedTime': 3603.0999999940395, 'positionName': 'LEFT', 'positionCoords': [203.4, 154.5], 'bid': 2.37}, {'imgObject': {}, 'id': 'granola w milk', 'src': '/static/foodstim60/granola w milk.jpg', 'key': 'i', 'origWidth': 410, 'origHeight': 410, 'width': 410, 'height': 410, 'widthPercent': 0.45, 'rescaleHeight': False, 'trialN': 25, 'loaded': True, 'loadedTime': 3559.5, 'positionName': 'RIGHT', 'positionCoords': [665.6, 155], 'bid': 1.57}]",45898.59999999404,1669829749194,raisin bran w milk,granola w milk,2.37,1.57,-0.8,raisin bran w milk,1180.0,1181,1180.5,True,u,47597.59999999404,1699.0,1669829750893,1699,HRV,HRV_0080,2022-11-30 17:40:18
26,"[{'imgObject': {}, 'id': 'apple slices', 'src': '/static/foodstim60/apple slices.jpg', 'key': 'u', 'origWidth': 409, 'origHeight': 410, 'width': 409, 'height': 410, 'widthPercent': 0.45, 'rescaleHeight': False, 'trialN': 26, 'loaded': True, 'loadedTime': 3609.3999999910593, 'positionName': 'LEFT', 'positionCoords': [205.4, 155], 'bid': 1.85}, {'imgObject': {}, 'id': 'mashed potato', 'src': '/static/foodstim60/mashed potato.jpg', 'key': 'i', 'origWidth': 409, 'origHeight': 409, 'width': 409, 'height': 409, 'widthPercent': 0.45, 'rescaleHeight': False, 'trialN': 26, 'loaded': True, 'loadedTime': 3540.0999999940395, 'positionName': 'RIGHT', 'positionCoords': [665.6, 155.5], 'bid': 4.71}]",47597.89999999106,1669829750894,apple slices,mashed potato,1.85,4.71,2.86,mashed potato,1244.2999999970198,1245,1245.5,True,i,49350.89999999106,1753.0,1669829752647,1753,HRV,HRV_0080,2022-11-30 17:40:18
27,"[{'imgObject': {}, 'id': 'turkeysandwich', 'src': '/static/foodstim60/turkeysandwich.jpg', 'key': 'u', 'origWidth': 409, 'origHeight': 409, 'width': 409, 'height': 409, 'widthPercent': 0.45, 'rescaleHeight': False, 'trialN': 27, 'loaded': True, 'loadedTime': 3610.699999988079, 'positionName': 'LEFT', 'positionCoords': [205.4, 155.5], 'bid': 2.78}, {'imgObject': {}, 'id': 'raisin bran w milk', 'src': '/static/foodstim60/raisin bran w milk.jpg', 'key': 'i', 'origWidth': 411, 'origHeight': 411, 'width': 411, 'height': 411, 'widthPercent': 0.45, 'rescaleHeight': False, 'trialN': 27, 'loaded': True, 'loadedTime': 3603.8999999910593, 'positionName': 'RIGHT', 'positionCoords': [665.6, 154.5], 'bid': 2.37}]",49351.09999999404,1669829752647,turkeysandwich,raisin bran w milk,2.78,2.37,-0.4099999999999997,turkeysandwich,1121.0,1122,1121.7000000029802,True,u,50987.09999999404,1636.0,1669829754283,1636,HRV,HRV_0080,2022-11-30 17:40:18
28,"[{'imgObject': {}, 'id': 'chickenfingers', 'src': '/static/foodstim60/chickenfingers.jpg', 'key': 'u', 'origWidth': 410, 'origHeight': 410, 'width': 410, 'height': 410, 'widthPercent': 0.45, 'rescaleHeight': False, 'trialN': 28, 'loaded': True, 'loadedTime': 3440.0999999940395, 'positionName': 'LEFT', 'positionCoords': [204.4, 155], 'bid': 9.59}, {'imgObject': {}, 'id': 'blueberries', 'src': '/static/foodstim60/blueberries.jpg', 'key': 'i', 'origWidth': 411, 'origHeight': 411, 'width': 411, 'height': 411, 'widthPercent': 0.45, 'rescaleHeight': False, 'trialN': 28, 'loaded': True, 'loadedTime': 3616.5, 'positionName': 'RIGHT', 'positionCoords': [665.6, 154.5], 'bid': 8.03}]",50987.59999999404,1669829754283,chickenfingers,blueberries,9.59,8.03,-1.5600000000000005,chickenfingers,711.0,712,711.2999999970198,True,u,52213.39999999106,1225.7999999970198,1669829755509,1226,HRV,HRV_0080,2022-11-30 17:40:18
29,"[{'imgObject': {}, 'id': 'Tribe humus pita', 'src': '/static/foodstim60/Tribe humus pita.jpg', 'key': 'u', 'origWidth': 411, 'origHeight': 411, 'width': 411, 'height': 411, 'widthPercent': 0.45, 'rescaleHeight': False, 'trialN': 29, 'loaded': True, 'loadedTime': 3381.199999988079, 'positionName': 'LEFT', 'positionCoords': [203.4, 154.5], 'bid': 4.5600000000000005}, {'imgObject': {}, 'id': 'hotdog w must', 'src': '/static/foodstim60/hotdog w must.jpg', 'key': 'i', 'origWidth': 409, 'origHeight': 409, 'width': 409, 'height': 409, 'widthPercent': 0.45, 'rescaleHeight': False, 'trialN': 29, 'loaded': True, 'loadedTime': 3617.699999988079, 'positionName': 'RIGHT', 'positionCoords': [665.6, 155.5], 'bid': 5.45}]",52213.79999999702,1669829755510,Tribe humus pita,hotdog w must,4.5600000000000005,5.45,0.8899999999999997,Tribe humus pita,1882.7000000029802,1883,1883.5999999940395,True,u,54605.09999999404,2391.2999999970198,1669829757901,2391,HRV,HRV_0080,2022-11-30 17:40:18
30,"[{'imgObject': {}, 'id': 'blackbeanswithrice', 'src': '/static/foodstim60/blackbeanswithrice.jpg', 'key': 'u', 'origWidth': 410, 'origHeight': 410, 'width': 410, 'height': 410, 'widthPercent': 0.45, 'rescaleHeight': False, 'trialN': 30, 'loaded': True, 'loadedTime': 3620.2999999970198, 'positionName': 'LEFT', 'positionCoords': [204.4, 155], 'bid': 1.12}, {'imgObject': {}, 'id': 'mac & cheese', 'src': '/static/foodstim60/mac & cheese.jpg', 'key': 'i', 'origWidth': 410, 'origHeight': 410, 'width': 410, 'height': 410, 'widthPercent': 0.45, 'rescaleHeight': False, 'trialN': 30, 'loaded': True, 'loadedTime': 3626.2999999970198, 'positionName': 'RIGHT', 'positionCoords': [665.6, 155], 'bid': 1.25}]",54605.29999999702,1669829757901,blackbeanswithrice,mac & cheese,1.12,1.25,0.1299999999999999,mac & cheese,1868.3999999910593,1869,1869.2000000029802,True,i,56993.39999999106,2388.0999999940395,1669829760289,2388,HRV,HRV_0080,2022-11-30 17:40:18
31,"[{'imgObject': {}, 'id': 'burrito', 'src': '/static/foodstim60/burrito.jpg', 'key': 'u', 'origWidth': 410, 'origHeight': 410, 'width': 410, 'height': 410, 'widthPercent': 0.45, 'rescaleHeight': False, 'trialN': 31, 'loaded': True, 'loadedTime': 3414.199999988079, 'positionName': 'LEFT', 'positionCoords': [204.4, 155], 'bid': 7.56}, {'imgObject': {}, 'id': 'yogurt no spoon', 'src': '/static/foodstim60/yogurt no spoon.jpg', 'key': 'i', 'origWidth': 411, 'origHeight': 410, 'width': 411, 'height': 410, 'widthPercent': 0.45, 'rescaleHeight': False, 'trialN': 31, 'loaded': True, 'loadedTime': 3626.5, 'positionName': 'RIGHT', 'positionCoords': [665.6, 155], 'bid': 6.0600000000000005}]",56993.69999998808,1669829760290,burrito,yogurt no spoon,7.56,6.0600000000000005,-1.4999999999999991,burrito,1277.800000011921,1278,1278.5,True,u,58781.19999998808,1787.5,1669829762077,1787,HRV,HRV_0080,2022-11-30 17:40:18
32,"[{'imgObject': {}, 'id': 'fried eggs', 'src': '/static/foodstim60/fried eggs.jpg', 'key': 'u', 'origWidth': 410, 'origHeight': 410, 'width': 410, 'height': 410, 'widthPercent': 0.45, 'rescaleHeight': False, 'trialN': 32, 'loaded': True, 'loadedTime': 3550.2999999970198, 'positionName': 'LEFT', 'positionCoords': [204.4, 155], 'bid': 5.1000000000000005}, {'imgObject': {}, 'id': 'veggieswithdip', 'src': '/static/foodstim60/veggieswithdip.jpg', 'key': 'i', 'origWidth': 409, 'origHeight': 409, 'width': 409, 'height': 409, 'widthPercent': 0.45, 'rescaleHeight': False, 'trialN': 32, 'loaded': True, 'loadedTime': 3631, 'positionName': 'RIGHT', 'positionCoords': [665.6, 155.5], 'bid': 2.93}]",58781.79999999702,1669829762078,fried eggs,veggieswithdip,5.1000000000000005,2.93,-2.1700000000000004,fried eggs,1102.5,1103,1103.0,True,u,60399.59999999404,1617.7999999970198,1669829763695,1617,HRV,HRV_0080,2022-11-30 17:40:18
33,"[{'imgObject': {}, 'id': 'seaweed', 'src': '/static/foodstim60/seaweed.jpg', 'key': 'u', 'origWidth': 410, 'origHeight': 410, 'width': 410, 'height': 410, 'widthPercent': 0.45, 'rescaleHeight': False, 'trialN': 33, 'loaded': True, 'loadedTime': 3599.5, 'positionName': 'LEFT', 'positionCoords': [204.4, 155], 'bid': 0.42}, {'imgObject': {}, 'id': 'apple slices', 'src': '/static/foodstim60/apple slices.jpg', 'key': 'i', 'origWidth': 409, 'origHeight': 410, 'width': 409, 'height': 410, 'widthPercent': 0.45, 'rescaleHeight': False, 'trialN': 33, 'loaded': True, 'loadedTime': 3609.5999999940395, 'positionName': 'RIGHT', 'positionCoords': [665.6, 155], 'bid': 1.85}]",60400.0,1669829763696,seaweed,apple slices,0.42,1.85,1.4300000000000002,seaweed,1142.8999999910593,1144,1143.699999988079,True,u,62050.79999999702,1650.7999999970198,1669829765347,1651,HRV,HRV_0080,2022-11-30 17:40:18
34,"[{'imgObject': {}, 'id': 'mango', 'src': '/static/foodstim60/mango.jpg', 'key': 'u', 'origWidth': 411, 'origHeight': 411, 'width': 411, 'height': 411, 'widthPercent': 0.45, 'rescaleHeight': False, 'trialN': 34, 'loaded': True, 'loadedTime': 3631.2999999970198, 'positionName': 'LEFT', 'positionCoords': [203.4, 154.5], 'bid': 5.82}, {'imgObject': {}, 'id': 'yogurt no spoon', 'src': '/static/foodstim60/yogurt no spoon.jpg', 'key': 'i', 'origWidth': 411, 'origHeight': 410, 'width': 411, 'height': 410, 'widthPercent': 0.45, 'rescaleHeight': False, 'trialN': 34, 'loaded': True, 'loadedTime': 3627.5999999940395, 'positionName': 'RIGHT', 'positionCoords': [665.6, 155], 'bid': 6.0600000000000005}]",62051.09999999404,1669829765347,mango,yogurt no spoon,5.82,6.0600000000000005,0.2400000000000002,yogurt no spoon,1453.4000000059605,1454,1454.4000000059605,True,i,64026.0,1974.9000000059605,1669829767322,1975,HRV,HRV_0080,2022-11-30 17:40:18
35,"[{'imgObject': {}, 'id': 'popsicles', 'src': '/static/foodstim60/popsicles.jpg', 'key': 'u', 'origWidth': 410, 'origHeight': 410, 'width': 410, 'height': 410, 'widthPercent': 0.45, 'rescaleHeight': False, 'trialN': 35, 'loaded': True, 'loadedTime': 3801.7999999970198, 'positionName': 'LEFT', 'positionCoords': [204.4, 155], 'bid': 2.31}, {'imgObject': {}, 'id': 'turkeysandwich', 'src': '/static/foodstim60/turkeysandwich.jpg', 'key': 'i', 'origWidth': 409, 'origHeight': 409, 'width': 409, 'height': 409, 'widthPercent': 0.45, 'rescaleHeight': False, 'trialN': 35, 'loaded': True, 'loadedTime': 3610.7999999970198, 'positionName': 'RIGHT', 'positionCoords': [665.6, 155.5], 'bid': 2.78}]",64026.5,1669829767322,popsicles,turkeysandwich,2.31,2.78,0.46999999999999975,turkeysandwich,1155.8999999910593,1157,1156.699999988079,True,i,65694.19999998808,1667.699999988079,1669829768990,1668,HRV,HRV_0080,2022-11-30 17:40:18
36,"[{'imgObject': {}, 'id': 'veggieswithdip', 'src': '/static/foodstim60/veggieswithdip.jpg', 'key': 'u', 'origWidth': 409, 'origHeight': 409, 'width': 409, 'height': 409, 'widthPercent': 0.45, 'rescaleHeight': False, 'trialN': 36, 'loaded': True, 'loadedTime': 3630.8999999910593, 'positionName': 'LEFT', 'positionCoords': [205.4, 155.5], 'bid': 2.93}, {'imgObject': {}, 'id': 'omelette', 'src': '/static/foodstim60/omelette.jpg', 'key': 'i', 'origWidth': 410, 'origHeight': 409, 'width': 410, 'height': 409, 'widthPercent': 0.45, 'rescaleHeight': False, 'trialN': 36, 'loaded': True, 'loadedTime': 3594.7999999970198, 'positionName': 'RIGHT', 'positionCoords': [665.6, 155.5], 'bid': 0.53}]",65694.5,1669829768990,veggieswithdip,omelette,2.93,0.53,-2.4000000000000004,veggieswithdip,1334.7999999970198,1336,1335.2999999970198,True,u,67544.59999999404,1850.0999999940395,1669829770840,1850,HRV,HRV_0080,2022-11-30 17:40:18
37,"[{'imgObject': {}, 'id': 'shreddedwheatwithmilk', 'src': '/static/foodstim60/shreddedwheatwithmilk.jpg', 'key': 'u', 'origWidth': 410, 'origHeight': 410, 'width': 410, 'height': 410, 'widthPercent': 0.45, 'rescaleHeight': False, 'trialN': 37, 'loaded': True, 'loadedTime': 3641.3999999910593, 'positionName': 'LEFT', 'positionCoords': [204.4, 155], 'bid': 1.84}, {'imgObject': {}, 'id': 'burrito', 'src': '/static/foodstim60/burrito.jpg', 'key': 'i', 'origWidth': 410, 'origHeight': 410, 'width': 410, 'height': 410, 'widthPercent': 0.45, 'rescaleHeight': False, 'trialN': 37, 'loaded': True, 'loadedTime': 3415.3999999910593, 'positionName': 'RIGHT', 'positionCoords': [665.6, 155], 'bid': 7.56}]",67545.09999999404,1669829770841,shreddedwheatwithmilk,burrito,1.84,7.56,5.72,burrito,1090.2000000029802,1082,1091.0,True,i,69144.5,1599.4000000059605,1669829772432,1591,HRV,HRV_0080,2022-11-30 17:40:18
38,"[{'imgObject': {}, 'id': 'chicken nuggets2', 'src': '/static/foodstim60/chicken nuggets2.jpg', 'key': 'u', 'origWidth': 410, 'origHeight': 409, 'width': 410, 'height': 409, 'widthPercent': 0.45, 'rescaleHeight': False, 'trialN': 38, 'loaded': True, 'loadedTime': 3507.699999988079, 'positionName': 'LEFT', 'positionCoords': [204.4, 155.5], 'bid': 9.28}, {'imgObject': {}, 'id': 'salad w chicken', 'src': '/static/foodstim60/salad w chicken.jpg', 'key': 'i', 'origWidth': 411, 'origHeight': 411, 'width': 411, 'height': 411, 'widthPercent': 0.45, 'rescaleHeight': False, 'trialN': 38, 'loaded': True, 'loadedTime': 3643.699999988079, 'positionName': 'RIGHT', 'positionCoords': [665.6, 154.5], 'bid': 7.59}]",69144.59999999404,1669829772432,chicken nuggets2,salad w chicken,9.28,7.59,-1.6899999999999995,chicken nuggets2,1190.5999999940395,1191,1191.0,True,u,70839.89999999106,1695.2999999970198,1669829774127,1695,HRV,HRV_0080,2022-11-30 17:40:18
39,"[{'imgObject': {}, 'id': 'pear', 'src': '/static/foodstim60/pear.jpg', 'key': 'u', 'origWidth': 411, 'origHeight': 410, 'width': 411, 'height': 410, 'widthPercent': 0.45, 'rescaleHeight': False, 'trialN': 39, 'loaded': True, 'loadedTime': 3445.3999999910593, 'positionName': 'LEFT', 'positionCoords': [203.4, 155], 'bid': 2.18}, {'imgObject': {}, 'id': 'avocado', 'src': '/static/foodstim60/avocado.jpg', 'key': 'i', 'origWidth': 409, 'origHeight': 409, 'width': 409, 'height': 409, 'widthPercent': 0.45, 'rescaleHeight': False, 'trialN': 39, 'loaded': True, 'loadedTime': 3644.199999988079, 'positionName': 'RIGHT', 'positionCoords': [665.6, 155.5], 'bid': 3.54}]",70840.29999999702,1669829774127,pear,avocado,2.18,3.54,1.3599999999999999,avocado,1740.2999999970198,1742,1741.0999999940395,True,i,73097.79999999702,2257.5,1669829776385,2258,HRV,HRV_0080,2022-11-30 17:40:18
40,"[{'imgObject': {}, 'id': 'cheerios', 'src': '/static/foodstim60/cheerios.jpg', 'key': 'u', 'origWidth': 409, 'origHeight': 410, 'width': 409, 'height': 410, 'widthPercent': 0.45, 'rescaleHeight': False, 'trialN': 40, 'loaded': True, 'loadedTime': 3458.7999999970198, 'positionName': 'LEFT', 'positionCoords': [205.4, 155], 'bid': 1.95}, {'imgObject': {}, 'id': 'veggieswithdip', 'src': '/static/foodstim60/veggieswithdip.jpg', 'key': 'i', 'origWidth': 409, 'origHeight': 409, 'width': 409, 'height': 409, 'widthPercent': 0.45, 'rescaleHeight': False, 'trialN': 40, 'loaded': True, 'loadedTime': 3631.199999988079, 'positionName': 'RIGHT', 'positionCoords': [665.6, 155.5], 'bid': 2.93}]",73098.09999999404,1669829776385,cheerios,veggieswithdip,1.95,2.93,0.9800000000000002,veggieswithdip,1220.7000000029802,1222,1221.5,True,i,74835.0,1736.9000000059605,1669829778122,1737,HRV,HRV_0080,2022-11-30 17:40:18
41,"[{'imgObject': {}, 'id': 'strawberries', 'src': '/static/foodstim60/strawberries.jpg', 'key': 'u', 'origWidth': 410, 'origHeight': 410, 'width': 410, 'height': 410, 'widthPercent': 0.45, 'rescaleHeight': False, 'trialN': 41, 'loaded': True, 'loadedTime': 3539.199999988079, 'positionName': 'LEFT', 'positionCoords': [204.4, 155], 'bid': 9.75}, {'imgObject': {}, 'id': 'corn cob', 'src': '/static/foodstim60/corn cob.jpg', 'key': 'i', 'origWidth': 411, 'origHeight': 411, 'width': 411, 'height': 411, 'widthPercent': 0.45, 'rescaleHeight': False, 'trialN': 41, 'loaded': True, 'loadedTime': 3647.8999999910593, 'positionName': 'RIGHT', 'positionCoords': [665.6, 154.5], 'bid': 8.01}]",74835.39999999106,1669829778123,strawberries,corn cob,9.75,8.01,-1.7400000000000002,strawberries,1131.1000000089407,1131,1131.7999999970198,True,u,76484.69999998808,1649.2999999970198,1669829779772,1649,HRV,HRV_0080,2022-11-30 17:40:18
42,"[{'imgObject': {}, 'id': 'omelette', 'src': '/static/foodstim60/omelette.jpg', 'key': 'u', 'origWidth': 410, 'origHeight': 409, 'width': 410, 'height': 409, 'widthPercent': 0.45, 'rescaleHeight': False, 'trialN': 42, 'loaded': True, 'loadedTime': 3594, 'positionName': 'LEFT', 'positionCoords': [204.4, 155.5], 'bid': 0.53}, {'imgObject': {}, 'id': 'eggsalad', 'src': '/static/foodstim60/eggsalad.jpg', 'key': 'i', 'origWidth': 410, 'origHeight': 409, 'width': 410, 'height': 409, 'widthPercent': 0.45, 'rescaleHeight': False, 'trialN': 42, 'loaded': True, 'loadedTime': 3404.0999999940395, 'positionName': 'RIGHT', 'positionCoords': [665.6, 155.5], 'bid': 1.12}]",76485.0,1669829779772,omelette,eggsalad,0.53,1.12,0.5900000000000001,eggsalad,1446.3999999910593,1447,1447.0999999940395,True,i,78452.69999998808,1967.699999988079,1669829781740,1968,HRV,HRV_0080,2022-11-30 17:40:18
43,"[{'imgObject': {}, 'id': 'orange slices', 'src': '/static/foodstim60/orange slices.jpg', 'key': 'u', 'origWidth': 409, 'origHeight': 410, 'width': 409, 'height': 410, 'widthPercent': 0.45, 'rescaleHeight': False, 'trialN': 43, 'loaded': True, 'loadedTime': 3649.8999999910593, 'positionName': 'LEFT', 'positionCoords': [205.4, 155], 'bid': 3.68}, {'imgObject': {}, 'id': 'edamame', 'src': '/static/foodstim60/edamame.jpg', 'key': 'i', 'origWidth': 409, 'origHeight': 410, 'width': 409, 'height': 410, 'widthPercent': 0.45, 'rescaleHeight': False, 'trialN': 43, 'loaded': True, 'loadedTime': 3473.699999988079, 'positionName': 'RIGHT', 'positionCoords': [665.6, 155], 'bid': 5.4}]",78453.19999998808,1669829781740,orange slices,edamame,3.68,5.4,1.7200000000000002,edamame,1144.2000000029802,1145,1145.1000000089407,True,i,80116.69999998808,1663.5,1669829783404,1664,HRV,HRV_0080,2022-11-30 17:40:18
44,"[{'imgObject': {}, 'id': 'omelette', 'src': '/static/foodstim60/omelette.jpg', 'key': 'u', 'origWidth': 410, 'origHeight': 409, 'width': 410, 'height': 409, 'widthPercent': 0.45, 'rescaleHeight': False, 'trialN': 44, 'loaded': True, 'loadedTime': 3595.5999999940395, 'positionName': 'LEFT', 'positionCoords': [204.4, 155.5], 'bid': 0.53}, {'imgObject': {}, 'id': 'mango', 'src': '/static/foodstim60/mango.jpg', 'key': 'i', 'origWidth': 411, 'origHeight': 411, 'width': 411, 'height': 411, 'widthPercent': 0.45, 'rescaleHeight': False, 'trialN': 44, 'loaded': True, 'loadedTime': 3636.2999999970198, 'positionName': 'RIGHT', 'positionCoords': [665.6, 154.5], 'bid': 5.82}]",80117.09999999404,1669829783404,omelette,mango,0.53,5.82,5.29,mango,1107.5,1108,1108.2999999970198,True,i,81739.79999999702,1622.7000000029802,1669829785027,1623,HRV,HRV_0080,2022-11-30 17:40:18
45,"[{'imgObject': {}, 'id': 'hotdog w must', 'src': '/static/foodstim60/hotdog w must.jpg', 'key': 'u', 'origWidth': 409, 'origHeight': 409, 'width': 409, 'height': 409, 'widthPercent': 0.45, 'rescaleHeight': False, 'trialN': 45, 'loaded': True, 'loadedTime': 3618, 'positionName': 'LEFT', 'positionCoords': [205.4, 155.5], 'bid': 5.45}, {'imgObject': {}, 'id': 'salmon', 'src': '/static/foodstim60/salmon.jpg', 'key': 'i', 'origWidth': 410, 'origHeight': 409, 'width': 410, 'height': 409, 'widthPercent': 0.45, 'rescaleHeight': False, 'trialN': 45, 'loaded': True, 'loadedTime': 3466.199999988079, 'positionName': 'RIGHT', 'positionCoords': [665.6, 155.5], 'bid': 5.54}]",81740.29999999702,1669829785027,hotdog w must,salmon,5.45,5.54,0.08999999999999986,salmon,1013.0999999940395,1014,1014.0999999940395,True,i,83270.79999999702,1530.5,1669829786558,1531,HRV,HRV_0080,2022-11-30 17:40:18
46,"[{'imgObject': {}, 'id': 'tacos', 'src': '/static/foodstim60/tacos.jpg', 'key': 'u', 'origWidth': 411, 'origHeight': 411, 'width': 411, 'height': 411, 'widthPercent': 0.45, 'rescaleHeight': False, 'trialN': 46, 'loaded': True, 'loadedTime': 3651.2999999970198, 'positionName': 'LEFT', 'positionCoords': [203.4, 154.5], 'bid': 7.51}, {'imgObject': {}, 'id': 'granola w milk', 'src': '/static/foodstim60/granola w milk.jpg', 'key': 'i', 'origWidth': 410, 'origHeight': 410, 'width': 410, 'height': 410, 'widthPercent': 0.45, 'rescaleHeight': False, 'trialN': 46, 'loaded': True, 'loadedTime': 3558.2999999970198, 'positionName': 'RIGHT', 'positionCoords': [665.6, 155], 'bid': 1.57}]",83271.29999999702,1669829786558,tacos,granola w milk,7.51,1.57,-5.9399999999999995,tacos,1033.5,1035,1034.3999999910593,True,u,84821.29999999702,1550.0,1669829788108,1550,HRV,HRV_0080,2022-11-30 17:40:18
47,"[{'imgObject': {}, 'id': 'apple slices', 'src': '/static/foodstim60/apple slices.jpg', 'key': 'u', 'origWidth': 409, 'origHeight': 410, 'width': 409, 'height': 410, 'widthPercent': 0.45, 'rescaleHeight': False, 'trialN': 47, 'loaded': True, 'loadedTime': 3609.199999988079, 'positionName': 'LEFT', 'positionCoords': [205.4, 155], 'bid': 1.85}, {'imgObject': {}, 'id': 'sweetpotato', 'src': '/static/foodstim60/sweetpotato.jpg', 'key': 'i', 'origWidth': 410, 'origHeight': 410, 'width': 410, 'height': 410, 'widthPercent': 0.45, 'rescaleHeight': False, 'trialN': 47, 'loaded': True, 'loadedTime': 3482.699999988079, 'positionName': 'RIGHT', 'positionCoords': [665.6, 155], 'bid': 2.92}]",84821.59999999404,1669829788109,apple slices,sweetpotato,1.85,2.92,1.0699999999999998,sweetpotato,1450.7999999970198,1451,1451.7000000029802,True,i,86781.59999999404,1960.0,1669829790069,1960,HRV,HRV_0080,2022-11-30 17:40:18
48,"[{'imgObject': {}, 'id': 'pear', 'src': '/static/foodstim60/pear.jpg', 'key': 'u', 'origWidth': 411, 'origHeight': 410, 'width': 411, 'height': 410, 'widthPercent': 0.45, 'rescaleHeight': False, 'trialN': 48, 'loaded': True, 'loadedTime': 3443.2999999970198, 'positionName': 'LEFT', 'positionCoords': [203.4, 155], 'bid': 2.18}, {'imgObject': {}, 'id': 'olives', 'src': '/static/foodstim60/olives.jpg', 'key': 'i', 'origWidth': 410, 'origHeight': 410, 'width': 410, 'height': 410, 'widthPercent': 0.45, 'rescaleHeight': False, 'trialN': 48, 'loaded': True, 'loadedTime': 3406.5, 'positionName': 'RIGHT', 'positionCoords': [665.6, 155], 'bid': 0.21}]",86782.0,1669829790069,pear,olives,2.18,0.21,-1.9700000000000002,pear,1428.0999999940395,1429,1429.2999999970198,True,u,88727.89999999106,1945.8999999910593,1669829792015,1946,HRV,HRV_0080,2022-11-30 17:40:18
49,"[{'imgObject': {}, 'id': 'eggsalad', 'src': '/static/foodstim60/eggsalad.jpg', 'key': 'u', 'origWidth': 410, 'origHeight': 409, 'width': 410, 'height': 409, 'widthPercent': 0.45, 'rescaleHeight': False, 'trialN': 49, 'loaded': True, 'loadedTime': 3405, 'positionName': 'LEFT', 'positionCoords': [204.4, 155.5], 'bid': 1.12}, {'imgObject': {}, 'id': 'yogurt no spoon', 'src': '/static/foodstim60/yogurt no spoon.jpg', 'key': 'i', 'origWidth': 411, 'origHeight': 410, 'width': 411, 'height': 410, 'widthPercent': 0.45, 'rescaleHeight': False, 'trialN': 49, 'loaded': True, 'loadedTime': 3629.2999999970198, 'positionName': 'RIGHT', 'positionCoords': [665.6, 155], 'bid': 6.0600000000000005}]",88728.5,1669829792016,eggsalad,yogurt no spoon,1.12,6.0600000000000005,4.94,yogurt no spoon,1009.2999999970198,1010,1010.0,True,i,90251.59999999404,1523.0999999940395,1669829793539,1523,HRV,HRV_0080,2022-11-30 17:40:18
50,"[{'imgObject': {}, 'id': 'blueberries', 'src': '/static/foodstim60/blueberries.jpg', 'key': 'u', 'origWidth': 411, 'origHeight': 411, 'width': 411, 'height': 411, 'widthPercent': 0.45, 'rescaleHeight': False, 'trialN': 50, 'loaded': True, 'loadedTime': 3616.3999999910593, 'positionName': 'LEFT', 'positionCoords': [203.4, 154.5], 'bid': 8.03}, {'imgObject': {}, 'id': 'froot loops w milk', 'src': '/static/foodstim60/froot loops w milk.jpg', 'key': 'i', 'origWidth': 410, 'origHeight': 410, 'width': 410, 'height': 410, 'widthPercent': 0.45, 'rescaleHeight': False, 'trialN': 50, 'loaded': True, 'loadedTime': 3577.2999999970198, 'positionName': 'RIGHT', 'positionCoords': [665.6, 155], 'bid': 7.930000000000001}]",90251.89999999106,1669829793539,blueberries,froot loops w milk,8.03,7.930000000000001,-0.09999999999999876,blueberries,1020.0,1020,1020.4000000059605,True,u,91782.59999999404,1530.7000000029802,1669829795070,1531,HRV,HRV_0080,2022-11-30 17:40:18
51,"[{'imgObject': {}, 'id': 'sushi w_condiments', 'src': '/static/foodstim60/sushi w_condiments.jpg', 'key': 'u', 'origWidth': 410, 'origHeight': 410, 'width': 410, 'height': 410, 'widthPercent': 0.45, 'rescaleHeight': False, 'trialN': 51, 'loaded': True, 'loadedTime': 3651.5, 'positionName': 'LEFT', 'positionCoords': [204.4, 155], 'bid': 9.43}, {'imgObject': {}, 'id': 'bagel plain', 'src': '/static/foodstim60/bagel plain.jpg', 'key': 'i', 'origWidth': 410, 'origHeight': 410, 'width': 410, 'height': 410, 'widthPercent': 0.45, 'rescaleHeight': False, 'trialN': 51, 'loaded': True, 'loadedTime': 3602.2999999970198, 'positionName': 'RIGHT', 'positionCoords': [665.6, 155], 'bid': 7.03}]",91782.89999999106,1669829795070,sushi w_condiments,bagel plain,9.43,7.03,-2.3999999999999995,sushi w_condiments,1258.5,1259,1259.2000000029802,True,u,93558.0,1775.1000000089407,1669829796845,1775,HRV,HRV_0080,2022-11-30 17:40:18
52,"[{'imgObject': {}, 'id': 'avocado', 'src': '/static/foodstim60/avocado.jpg', 'key': 'u', 'origWidth': 409, 'origHeight': 409, 'width': 409, 'height': 409, 'widthPercent': 0.45, 'rescaleHeight': False, 'trialN': 52, 'loaded': True, 'loadedTime': 3645.5, 'positionName': 'LEFT', 'positionCoords': [205.4, 155.5], 'bid': 3.54}, {'imgObject': {}, 'id': 'sweetpotato', 'src': '/static/foodstim60/sweetpotato.jpg', 'key': 'i', 'origWidth': 410, 'origHeight': 410, 'width': 410, 'height': 410, 'widthPercent': 0.45, 'rescaleHeight': False, 'trialN': 52, 'loaded': True, 'loadedTime': 3484.8999999910593, 'positionName': 'RIGHT', 'positionCoords': [665.6, 155], 'bid': 2.92}]",93558.29999999702,1669829796845,avocado,sweetpotato,3.54,2.92,-0.6200000000000001,sweetpotato,1665.0,1666,1665.5,True,i,95733.0,2174.7000000029802,1669829799020,2175,HRV,HRV_0080,2022-11-30 17:40:18
53,"[{'imgObject': {}, 'id': 'cantaloupe', 'src': '/static/foodstim60/cantaloupe.jpg', 'key': 'u', 'origWidth': 409, 'origHeight': 409, 'width': 409, 'height': 409, 'widthPercent': 0.45, 'rescaleHeight': False, 'trialN': 53, 'loaded': True, 'loadedTime': 3660.5, 'positionName': 'LEFT', 'positionCoords': [205.4, 155.5], 'bid': 4.37}, {'imgObject': {}, 'id': 'fruitsalad', 'src': '/static/foodstim60/fruitsalad.jpg', 'key': 'i', 'origWidth': 410, 'origHeight': 410, 'width': 410, 'height': 410, 'widthPercent': 0.45, 'rescaleHeight': False, 'trialN': 53, 'loaded': True, 'loadedTime': 3576.0999999940395, 'positionName': 'RIGHT', 'positionCoords': [665.6, 155], 'bid': 5.1000000000000005}]",95733.39999999106,1669829799021,cantaloupe,fruitsalad,4.37,5.1000000000000005,0.7300000000000004,fruitsalad,1179.1000000089407,1179,1179.7999999970198,True,i,97426.39999999106,1693.0,1669829800714,1693,HRV,HRV_0080,2022-11-30 17:40:18
54,"[{'imgObject': {}, 'id': 'Grapes', 'src': '/static/foodstim60/Grapes.jpg', 'key': 'u', 'origWidth': 411, 'origHeight': 411, 'width': 411, 'height': 411, 'widthPercent': 0.45, 'rescaleHeight': False, 'trialN': 54, 'loaded': True, 'loadedTime': 3662.0999999940395, 'positionName': 'LEFT', 'positionCoords': [203.4, 154.5], 'bid': 4.34}, {'imgObject': {}, 'id': 'rigatoni', 'src': '/static/foodstim60/rigatoni.jpg', 'key': 'i', 'origWidth': 411, 'origHeight': 411, 'width': 411, 'height': 411, 'widthPercent': 0.45, 'rescaleHeight': False, 'trialN': 54, 'loaded': True, 'loadedTime': 3396.699999988079, 'positionName': 'RIGHT', 'positionCoords': [665.6, 154.5], 'bid': 1.39}]",97426.69999998808,1669829800714,Grapes,rigatoni,4.34,1.39,-2.95,rigatoni,1745.6000000089407,1746,1746.300000011921,True,i,99682.89999999106,2256.2000000029802,1669829802970,2256,HRV,HRV_0080,2022-11-30 17:40:18
55,"[{'imgObject': {}, 'id': 'salmon', 'src': '/static/foodstim60/salmon.jpg', 'key': 'u', 'origWidth': 410, 'origHeight': 409, 'width': 410, 'height': 409, 'widthPercent': 0.45, 'rescaleHeight': False, 'trialN': 55, 'loaded': True, 'loadedTime': 3469, 'positionName': 'LEFT', 'positionCoords': [204.4, 155.5], 'bid': 5.54}, {'imgObject': {}, 'id': 'Grapes', 'src': '/static/foodstim60/Grapes.jpg', 'key': 'i', 'origWidth': 411, 'origHeight': 411, 'width': 411, 'height': 411, 'widthPercent': 0.45, 'rescaleHeight': False, 'trialN': 55, 'loaded': True, 'loadedTime': 3662, 'positionName': 'RIGHT', 'positionCoords': [665.6, 154.5], 'bid': 4.34}]",99683.39999999106,1669829802970,salmon,Grapes,5.54,4.34,-1.2000000000000002,salmon,942.7000000029802,944,943.5,True,u,101144.19999998808,1460.7999999970198,1669829804431,1461,HRV,HRV_0080,2022-11-30 17:40:18
56,"[{'imgObject': {}, 'id': 'strawberries', 'src': '/static/foodstim60/strawberries.jpg', 'key': 'u', 'origWidth': 410, 'origHeight': 410, 'width': 410, 'height': 410, 'widthPercent': 0.45, 'rescaleHeight': False, 'trialN': 56, 'loaded': True, 'loadedTime': 3539.5, 'positionName': 'LEFT', 'positionCoords': [204.4, 155], 'bid': 9.75}, {'imgObject': {}, 'id': 'roastedpotatoes', 'src': '/static/foodstim60/roastedpotatoes.jpg', 'key': 'i', 'origWidth': 409, 'origHeight': 410, 'width': 409, 'height': 410, 'widthPercent': 0.45, 'rescaleHeight': False, 'trialN': 56, 'loaded': True, 'loadedTime': 3462.699999988079, 'positionName': 'RIGHT', 'positionCoords': [665.6, 155], 'bid': 9.68}]",101144.59999999404,1669829804432,strawberries,roastedpotatoes,9.75,9.68,-0.07000000000000028,strawberries,1324.7999999970198,1325,1325.4000000059605,True,u,102980.89999999106,1836.2999999970198,1669829806268,1836,HRV,HRV_0080,2022-11-30 17:40:18
57,"[{'imgObject': {}, 'id': 'bagel and cc', 'src': '/static/foodstim60/bagel and cc.jpg', 'key': 'u', 'origWidth': 410, 'origHeight': 410, 'width': 410, 'height': 410, 'widthPercent': 0.45, 'rescaleHeight': False, 'trialN': 57, 'loaded': True, 'loadedTime': 3663.5999999940395, 'positionName': 'LEFT', 'positionCoords': [204.4, 155], 'bid': 7.78}, {'imgObject': {}, 'id': 'banana', 'src': '/static/foodstim60/banana.jpg', 'key': 'i', 'origWidth': 410, 'origHeight': 410, 'width': 410, 'height': 410, 'widthPercent': 0.45, 'rescaleHeight': False, 'trialN': 57, 'loaded': True, 'loadedTime': 3664.5, 'positionName': 'RIGHT', 'positionCoords': [665.6, 155], 'bid': 6.45}]",102981.19999998808,1669829806268,bagel and cc,banana,7.78,6.45,-1.33,bagel and cc,1333.0,1334,1333.7000000029802,True,u,104831.09999999404,1849.9000000059605,1669829808118,1850,HRV,HRV_0080,2022-11-30 17:40:18
58,"[{'imgObject': {}, 'id': 'turkey sandwich', 'src': '/static/foodstim60/turkey sandwich.jpg', 'key': 'u', 'origWidth': 409, 'origHeight': 409, 'width': 409, 'height': 409, 'widthPercent': 0.45, 'rescaleHeight': False, 'trialN': 58, 'loaded': True, 'loadedTime': 3451.5999999940395, 'positionName': 'LEFT', 'positionCoords': [205.4, 155.5], 'bid': 0.43}, {'imgObject': {}, 'id': 'lox', 'src': '/static/foodstim60/lox.jpg', 'key': 'i', 'origWidth': 410, 'origHeight': 411, 'width': 410, 'height': 411, 'widthPercent': 0.45, 'rescaleHeight': False, 'trialN': 58, 'loaded': True, 'loadedTime': 3668, 'positionName': 'RIGHT', 'positionCoords': [665.6, 154.5], 'bid': 1.39}]",104831.5,1669829808119,turkey sandwich,lox,0.43,1.39,0.96,lox,1524.199999988079,1524,1524.5999999940395,True,i,106872.09999999404,2040.5999999940395,1669829810159,2040,HRV,HRV_0080,2022-11-30 17:40:18
59,"[{'imgObject': {}, 'id': 'cocktailshrimp', 'src': '/static/foodstim60/cocktailshrimp.jpg', 'key': 'u', 'origWidth': 410, 'origHeight': 410, 'width': 410, 'height': 410, 'widthPercent': 0.45, 'rescaleHeight': False, 'trialN': 59, 'loaded': True, 'loadedTime': 3376, 'positionName': 'LEFT', 'positionCoords': [204.4, 155], 'bid': 0.2}, {'imgObject': {}, 'id': 'cheerios', 'src': '/static/foodstim60/cheerios.jpg', 'key': 'i', 'origWidth': 409, 'origHeight': 410, 'width': 409, 'height': 410, 'widthPercent': 0.45, 'rescaleHeight': False, 'trialN': 59, 'loaded': True, 'loadedTime': 3459.8999999910593, 'positionName': 'RIGHT', 'positionCoords': [665.6, 155], 'bid': 1.95}]",106872.5,1669829810160,cocktailshrimp,cheerios,0.2,1.95,1.75,cheerios,968.8999999910593,969,969.6999999880791,True,i,108357.0,1484.5,1669829811644,1484,HRV,HRV_0080,2022-11-30 17:40:18
60,"[{'imgObject': {}, 'id': 'blackbeanswithrice', 'src': '/static/foodstim60/blackbeanswithrice.jpg', 'key': 'u', 'origWidth': 410, 'origHeight': 410, 'width': 410, 'height': 410, 'widthPercent': 0.45, 'rescaleHeight': False, 'trialN': 60, 'loaded': True, 'loadedTime': 3621.699999988079, 'positionName': 'LEFT', 'positionCoords': [204.4, 155], 'bid': 1.12}, {'imgObject': {}, 'id': 'cherries', 'src': '/static/foodstim60/cherries.jpg', 'key': 'i', 'origWidth': 410, 'origHeight': 411, 'width': 410, 'height': 411, 'widthPercent': 0.45, 'rescaleHeight': False, 'trialN': 60, 'loaded': True, 'loadedTime': 3566.3999999910593, 'positionName': 'RIGHT', 'positionCoords': [665.6, 154.5], 'bid': 6.37}]",108357.29999999702,1669829811644,blackbeanswithrice,cherries,1.12,6.37,5.25,cherries,961.2000000029802,962,961.8999999910593,True,i,109829.59999999404,1472.2999999970198,1669829813117,1473,HRV,HRV_0080,2022-11-30 17:40:18
61,"[{'imgObject': {}, 'id': 'sweetpotato', 'src': '/static/foodstim60/sweetpotato.jpg', 'key': 'u', 'origWidth': 410, 'origHeight': 410, 'width': 410, 'height': 410, 'widthPercent': 0.45, 'rescaleHeight': False, 'trialN': 61, 'loaded': True, 'loadedTime': 3484, 'positionName': 'LEFT', 'positionCoords': [204.4, 155], 'bid': 2.92}, {'imgObject': {}, 'id': 'veggieswithdip', 'src': '/static/foodstim60/veggieswithdip.jpg', 'key': 'i', 'origWidth': 409, 'origHeight': 409, 'width': 409, 'height': 409, 'widthPercent': 0.45, 'rescaleHeight': False, 'trialN': 61, 'loaded': True, 'loadedTime': 3631.199999988079, 'positionName': 'RIGHT', 'positionCoords': [665.6, 155.5], 'bid': 2.93}]",109829.89999999106,1669829813117,sweetpotato,veggieswithdip,2.92,2.93,0.010000000000000231,sweetpotato,934.7000000029802,936,935.7000000029802,True,u,111273.79999999702,1443.9000000059605,1669829814561,1444,HRV,HRV_0080,2022-11-30 17:40:18
62,"[{'imgObject': {}, 'id': 'bagel and cc', 'src': '/static/foodstim60/bagel and cc.jpg', 'key': 'u', 'origWidth': 410, 'origHeight': 410, 'width': 410, 'height': 410, 'widthPercent': 0.45, 'rescaleHeight': False, 'trialN': 62, 'loaded': True, 'loadedTime': 3663.2999999970198, 'positionName': 'LEFT', 'positionCoords': [204.4, 155], 'bid': 7.78}, {'imgObject': {}, 'id': 'salad w chicken', 'src': '/static/foodstim60/salad w chicken.jpg', 'key': 'i', 'origWidth': 411, 'origHeight': 411, 'width': 411, 'height': 411, 'widthPercent': 0.45, 'rescaleHeight': False, 'trialN': 62, 'loaded': True, 'loadedTime': 3643.7999999970198, 'positionName': 'RIGHT', 'positionCoords': [665.6, 154.5], 'bid': 7.59}]",111274.29999999702,1669829814561,bagel and cc,salad w chicken,7.78,7.59,-0.1900000000000004,salad w chicken,1728.2999999970198,1729,1728.8999999910593,True,i,113518.69999998808,2244.3999999910593,1669829816806,2245,HRV,HRV_0080,2022-11-30 17:40:18
63,"[{'imgObject': {}, 'id': 'mac & cheese', 'src': '/static/foodstim60/mac & cheese.jpg', 'key': 'u', 'origWidth': 410, 'origHeight': 410, 'width': 410, 'height': 410, 'widthPercent': 0.45, 'rescaleHeight': False, 'trialN': 63, 'loaded': True, 'loadedTime': 3624.699999988079, 'positionName': 'LEFT', 'positionCoords': [204.4, 155], 'bid': 1.25}, {'imgObject': {}, 'id': 'hashbrowns', 'src': '/static/foodstim60/hashbrowns.jpg', 'key': 'i', 'origWidth': 411, 'origHeight': 410, 'width': 411, 'height': 410, 'widthPercent': 0.45, 'rescaleHeight': False, 'trialN': 63, 'loaded': True, 'loadedTime': 3514, 'positionName': 'RIGHT', 'positionCoords': [665.6, 155], 'bid': 4.12}]",113519.0,1669829816806,mac & cheese,hashbrowns,1.25,4.12,2.87,hashbrowns,1381.3999999910593,1382,1382.0999999940395,True,i,115419.69999998808,1900.699999988079,1669829818707,1901,HRV,HRV_0080,2022-11-30 17:40:18
64,"[{'imgObject': {}, 'id': 'mango', 'src': '/static/foodstim60/mango.jpg', 'key': 'u', 'origWidth': 411, 'origHeight': 411, 'width': 411, 'height': 411, 'widthPercent': 0.45, 'rescaleHeight': False, 'trialN': 64, 'loaded': True, 'loadedTime': 3635.7999999970198, 'positionName': 'LEFT', 'positionCoords': [203.4, 154.5], 'bid': 5.82}, {'imgObject': {}, 'id': 'cantaloupe', 'src': '/static/foodstim60/cantaloupe.jpg', 'key': 'i', 'origWidth': 409, 'origHeight': 409, 'width': 409, 'height': 409, 'widthPercent': 0.45, 'rescaleHeight': False, 'trialN': 64, 'loaded': True, 'loadedTime': 3660.3999999910593, 'positionName': 'RIGHT', 'positionCoords': [665.6, 155.5], 'bid': 4.37}]",115420.19999998808,1669829818707,mango,cantaloupe,5.82,4.37,-1.4500000000000002,mango,1258.800000011921,1260,1259.5,True,u,117195.69999998808,1775.5,1669829820483,1776,HRV,HRV_0080,2022-11-30 17:40:18
65,"[{'imgObject': {}, 'id': 'mashed potato', 'src': '/static/foodstim60/mashed potato.jpg', 'key': 'u', 'origWidth': 409, 'origHeight': 409, 'width': 409, 'height': 409, 'widthPercent': 0.45, 'rescaleHeight': False, 'trialN': 65, 'loaded': True, 'loadedTime': 3541.2999999970198, 'positionName': 'LEFT', 'positionCoords': [205.4, 155.5], 'bid': 4.71}, {'imgObject': {}, 'id': 'salmon', 'src': '/static/foodstim60/salmon.jpg', 'key': 'i', 'origWidth': 410, 'origHeight': 409, 'width': 410, 'height': 409, 'widthPercent': 0.45, 'rescaleHeight': False, 'trialN': 65, 'loaded': True, 'loadedTime': 3468.0999999940395, 'positionName': 'RIGHT', 'positionCoords': [665.6, 155.5], 'bid': 5.54}]",117196.0,1669829820483,mashed potato,salmon,4.71,5.54,0.8300000000000001,salmon,1000.1999999880791,1001,1001.1999999880791,True,i,118702.39999999106,1506.3999999910593,1669829821990,1507,HRV,HRV_0080,2022-11-30 17:40:18
66,"[{'imgObject': {}, 'id': 'edamame', 'src': '/static/foodstim60/edamame.jpg', 'key': 'u', 'origWidth': 409, 'origHeight': 410, 'width': 409, 'height': 410, 'widthPercent': 0.45, 'rescaleHeight': False, 'trialN': 66, 'loaded': True, 'loadedTime': 3475.699999988079, 'positionName': 'LEFT', 'positionCoords': [205.4, 155], 'bid': 5.4}, {'imgObject': {}, 'id': 'ice cream sundae 002', 'src': '/static/foodstim60/ice cream sundae 002.jpg', 'key': 'i', 'origWidth': 409, 'origHeight': 409, 'width': 409, 'height': 409, 'widthPercent': 0.45, 'rescaleHeight': False, 'trialN': 66, 'loaded': True, 'loadedTime': 3542.0999999940395, 'positionName': 'RIGHT', 'positionCoords': [665.6, 155.5], 'bid': 4.43}]",118703.19999998808,1669829821990,edamame,ice cream sundae 002,5.4,4.43,-0.9700000000000006,edamame,1116.6000000089407,1118,1117.5,True,u,120335.89999999106,1632.7000000029802,1669829823623,1633,HRV,HRV_0080,2022-11-30 17:40:18
67,"[{'imgObject': {}, 'id': 'grilled chicken strips', 'src': '/static/foodstim60/grilled chicken strips.jpg', 'key': 'u', 'origWidth': 410, 'origHeight': 411, 'width': 410, 'height': 411, 'widthPercent': 0.45, 'rescaleHeight': False, 'trialN': 67, 'loaded': True, 'loadedTime': 3517.5, 'positionName': 'LEFT', 'positionCoords': [204.4, 154.5], 'bid': 7.85}, {'imgObject': {}, 'id': 'luckycharms', 'src': '/static/foodstim60/luckycharms.jpg', 'key': 'i', 'origWidth': 410, 'origHeight': 409, 'width': 410, 'height': 409, 'widthPercent': 0.45, 'rescaleHeight': False, 'trialN': 67, 'loaded': True, 'loadedTime': 3432.8999999910593, 'positionName': 'RIGHT', 'positionCoords': [665.6, 155.5], 'bid': 7.81}]",120336.29999999702,1669829823623,grilled chicken strips,luckycharms,7.85,7.81,-0.040000000000000036,grilled chicken strips,940.5,942,941.2000000029802,True,u,121787.39999999106,1451.0999999940395,1669829825075,1452,HRV,HRV_0080,2022-11-30 17:40:18
68,"[{'imgObject': {}, 'id': 'cantaloupe', 'src': '/static/foodstim60/cantaloupe.jpg', 'key': 'u', 'origWidth': 409, 'origHeight': 409, 'width': 409, 'height': 409, 'widthPercent': 0.45, 'rescaleHeight': False, 'trialN': 68, 'loaded': True, 'loadedTime': 3660.5999999940395, 'positionName': 'LEFT', 'positionCoords': [205.4, 155.5], 'bid': 4.37}, {'imgObject': {}, 'id': 'hashbrowns', 'src': '/static/foodstim60/hashbrowns.jpg', 'key': 'i', 'origWidth': 411, 'origHeight': 410, 'width': 411, 'height': 410, 'widthPercent': 0.45, 'rescaleHeight': False, 'trialN': 68, 'loaded': True, 'loadedTime': 3515.699999988079, 'positionName': 'RIGHT', 'positionCoords': [665.6, 155], 'bid': 4.12}]",121787.79999999702,1669829825075,cantaloupe,hashbrowns,4.37,4.12,-0.25,hashbrowns,1181.7000000029802,1182,1182.5,True,i,123479.29999999702,1691.5,1669829826766,1691,HRV,HRV_0080,2022-11-30 17:40:18
69,"[{'imgObject': {}, 'id': 'edamame', 'src': '/static/foodstim60/edamame.jpg', 'key': 'u', 'origWidth': 409, 'origHeight': 410, 'width': 409, 'height': 410, 'widthPercent': 0.45, 'rescaleHeight': False, 'trialN': 69, 'loaded': True, 'loadedTime': 3475.3999999910593, 'positionName': 'LEFT', 'positionCoords': [205.4, 155], 'bid': 5.4}, {'imgObject': {}, 'id': 'fruitsalad', 'src': '/static/foodstim60/fruitsalad.jpg', 'key': 'i', 'origWidth': 410, 'origHeight': 410, 'width': 410, 'height': 410, 'widthPercent': 0.45, 'rescaleHeight': False, 'trialN': 69, 'loaded': True, 'loadedTime': 3577.199999988079, 'positionName': 'RIGHT', 'positionCoords': [665.6, 155], 'bid': 5.1000000000000005}]",123479.39999999106,1669829826767,edamame,fruitsalad,5.4,5.1000000000000005,-0.2999999999999998,fruitsalad,1294.9000000059605,1295,1295.9000000059605,True,i,125288.29999999702,1808.9000000059605,1669829828575,1808,HRV,HRV_0080,2022-11-30 17:40:18
70,"[{'imgObject': {}, 'id': 'rigatoni and sauce', 'src': '/static/foodstim60/rigatoni and sauce.jpg', 'key': 'u', 'origWidth': 410, 'origHeight': 411, 'width': 410, 'height': 411, 'widthPercent': 0.45, 'rescaleHeight': False, 'trialN': 70, 'loaded': True, 'loadedTime': 3569.7999999970198, 'positionName': 'LEFT', 'positionCoords': [204.4, 154.5], 'bid': 8.4}, {'imgObject': {}, 'id': 'blueberries', 'src': '/static/foodstim60/blueberries.jpg', 'key': 'i', 'origWidth': 411, 'origHeight': 411, 'width': 411, 'height': 411, 'widthPercent': 0.45, 'rescaleHeight': False, 'trialN': 70, 'loaded': True, 'loadedTime': 3616.5999999940395, 'positionName': 'RIGHT', 'positionCoords': [665.6, 154.5], 'bid': 8.03}]",125288.5,1669829828576,rigatoni and sauce,blueberries,8.4,8.03,-0.370000000000001,rigatoni and sauce,781.3999999910593,782,782.0999999940395,True,u,126587.59999999404,1299.0999999940395,1669829829875,1299,HRV,HRV_0080,2022-11-30 17:40:18
71,"[{'imgObject': {}, 'id': 'sushi w_condiments', 'src': '/static/foodstim60/sushi w_condiments.jpg', 'key': 'u', 'origWidth': 410, 'origHeight': 410, 'width': 410, 'height': 410, 'widthPercent': 0.45, 'rescaleHeight': False, 'trialN': 71, 'loaded': True, 'loadedTime': 3656.3999999910593, 'positionName': 'LEFT', 'positionCoords': [204.4, 155], 'bid': 9.43}, {'imgObject': {}, 'id': 'burger', 'src': '/static/foodstim60/burger.jpg', 'key': 'i', 'origWidth': 409, 'origHeight': 409, 'width': 409, 'height': 409, 'widthPercent': 0.45, 'rescaleHeight': False, 'trialN': 71, 'loaded': True, 'loadedTime': 3562.5, 'positionName': 'RIGHT', 'positionCoords': [665.6, 155.5], 'bid': 8.82}]",126588.0,1669829829875,sushi w_condiments,burger,9.43,8.82,-0.6099999999999994,sushi w_condiments,1981.0999999940395,1982,1981.8999999910593,True,u,129087.29999999702,2499.2999999970198,1669829832383,2508,HRV,HRV_0080,2022-11-30 17:40:18
72,"[{'imgObject': {}, 'id': 'grilled chicken strips', 'src': '/static/foodstim60/grilled chicken strips.jpg', 'key': 'u', 'origWidth': 410, 'origHeight': 411, 'width': 410, 'height': 411, 'widthPercent': 0.45, 'rescaleHeight': False, 'trialN': 72, 'loaded': True, 'loadedTime': 3519.5999999940395, 'positionName': 'LEFT', 'positionCoords': [204.4, 154.5], 'bid': 7.85}, {'imgObject': {}, 'id': 'kiwi', 'src': '/static/foodstim60/kiwi.jpg', 'key': 'i', 'origWidth': 410, 'origHeight': 410, 'width': 410, 'height': 410, 'widthPercent': 0.45, 'rescaleHeight': False, 'trialN': 72, 'loaded': True, 'loadedTime': 3411.5, 'positionName': 'RIGHT', 'positionCoords': [665.6, 155], 'bid': 7.15}]",129087.59999999404,1669829832384,grilled chicken strips,kiwi,7.85,7.15,-0.6999999999999993,grilled chicken strips,1215.4000000059605,1216,1216.2000000029802,True,u,130814.79999999702,1727.2000000029802,1669829834111,1727,HRV,HRV_0080,2022-11-30 17:40:18
73,"[{'imgObject': {}, 'id': 'turkeysandwich', 'src': '/static/foodstim60/turkeysandwich.jpg', 'key': 'u', 'origWidth': 409, 'origHeight': 409, 'width': 409, 'height': 409, 'widthPercent': 0.45, 'rescaleHeight': False, 'trialN': 73, 'loaded': True, 'loadedTime': 3611, 'positionName': 'LEFT', 'positionCoords': [205.4, 155.5], 'bid': 2.78}, {'imgObject': {}, 'id': 'mac & cheese', 'src': '/static/foodstim60/mac & cheese.jpg', 'key': 'i', 'origWidth': 410, 'origHeight': 410, 'width': 410, 'height': 410, 'widthPercent': 0.45, 'rescaleHeight': False, 'trialN': 73, 'loaded': True, 'loadedTime': 3624.3999999910593, 'positionName': 'RIGHT', 'positionCoords': [665.6, 155], 'bid': 1.25}]",130815.19999998808,1669829834111,turkeysandwich,mac & cheese,2.78,1.25,-1.5299999999999998,turkeysandwich,1214.5,1215,1215.300000011921,True,u,132533.89999999106,1718.7000000029802,1669829835830,1719,HRV,HRV_0080,2022-11-30 17:40:18
74,"[{'imgObject': {}, 'id': 'ice cream sundae 002', 'src': '/static/foodstim60/ice cream sundae 002.jpg', 'key': 'u', 'origWidth': 409, 'origHeight': 409, 'width': 409, 'height': 409, 'widthPercent': 0.45, 'rescaleHeight': False, 'trialN': 74, 'loaded': True, 'loadedTime': 3547, 'positionName': 'LEFT', 'positionCoords': [205.4, 155.5], 'bid': 4.43}, {'imgObject': {}, 'id': 'Grapes', 'src': '/static/foodstim60/Grapes.jpg', 'key': 'i', 'origWidth': 411, 'origHeight': 411, 'width': 411, 'height': 411, 'widthPercent': 0.45, 'rescaleHeight': False, 'trialN': 74, 'loaded': True, 'loadedTime': 3662.2999999970198, 'positionName': 'RIGHT', 'positionCoords': [665.6, 154.5], 'bid': 4.34}]",132534.29999999702,1669829835830,ice cream sundae 002,Grapes,4.43,4.34,-0.08999999999999986,Grapes,1305.5,1306,1306.2000000029802,True,i,134349.09999999404,1814.7999999970198,1669829837645,1815,HRV,HRV_0080,2022-11-30 17:40:18
75,"[{'imgObject': {}, 'id': 'omelette', 'src': '/static/foodstim60/omelette.jpg', 'key': 'u', 'origWidth': 410, 'origHeight': 409, 'width': 410, 'height': 409, 'widthPercent': 0.45, 'rescaleHeight': False, 'trialN': 75, 'loaded': True, 'loadedTime': 3596.2999999970198, 'positionName': 'LEFT', 'positionCoords': [204.4, 155.5], 'bid': 0.53}, {'imgObject': {}, 'id': 'pear', 'src': '/static/foodstim60/pear.jpg', 'key': 'i', 'origWidth': 411, 'origHeight': 410, 'width': 411, 'height': 410, 'widthPercent': 0.45, 'rescaleHeight': False, 'trialN': 75, 'loaded': True, 'loadedTime': 3443.5, 'positionName': 'RIGHT', 'positionCoords': [665.6, 155], 'bid': 2.18}]",134349.39999999106,1669829837645,omelette,pear,0.53,2.18,1.6500000000000001,pear,1256.2999999970198,1257,1257.2000000029802,True,i,136116.69999998808,1767.2999999970198,1669829839413,1768,HRV,HRV_0080,2022-11-30 17:40:18
76,"[{'imgObject': {}, 'id': 'fried eggs', 'src': '/static/foodstim60/fried eggs.jpg', 'key': 'u', 'origWidth': 410, 'origHeight': 410, 'width': 410, 'height': 410, 'widthPercent': 0.45, 'rescaleHeight': False, 'trialN': 76, 'loaded': True, 'loadedTime': 3548.7999999970198, 'positionName': 'LEFT', 'positionCoords': [204.4, 155], 'bid': 5.1000000000000005}, {'imgObject': {}, 'id': 'olives', 'src': '/static/foodstim60/olives.jpg', 'key': 'i', 'origWidth': 410, 'origHeight': 410, 'width': 410, 'height': 410, 'widthPercent': 0.45, 'rescaleHeight': False, 'trialN': 76, 'loaded': True, 'loadedTime': 3408.0999999940395, 'positionName': 'RIGHT', 'positionCoords': [665.6, 155], 'bid': 0.21}]",136116.89999999106,1669829839413,fried eggs,olives,5.1000000000000005,0.21,-4.890000000000001,fried eggs,1053.9000000059605,1055,1054.7999999970198,True,u,137677.89999999106,1561.0,1669829840974,1561,HRV,HRV_0080,2022-11-30 17:40:18
77,"[{'imgObject': {}, 'id': 'orange slices', 'src': '/static/foodstim60/orange slices.jpg', 'key': 'u', 'origWidth': 409, 'origHeight': 410, 'width': 409, 'height': 410, 'widthPercent': 0.45, 'rescaleHeight': False, 'trialN': 77, 'loaded': True, 'loadedTime': 3649.699999988079, 'positionName': 'LEFT', 'positionCoords': [205.4, 155], 'bid': 3.68}, {'imgObject': {}, 'id': 'blackbeanswithrice', 'src': '/static/foodstim60/blackbeanswithrice.jpg', 'key': 'i', 'origWidth': 410, 'origHeight': 410, 'width': 410, 'height': 410, 'widthPercent': 0.45, 'rescaleHeight': False, 'trialN': 77, 'loaded': True, 'loadedTime': 3621.7999999970198, 'positionName': 'RIGHT', 'positionCoords': [665.6, 155], 'bid': 1.12}]",137678.19999998808,1669829840974,orange slices,blackbeanswithrice,3.68,1.12,-2.56,orange slices,1547.800000011921,1548,1548.4000000059605,True,u,139746.59999999404,2068.4000000059605,1669829843042,2068,HRV,HRV_0080,2022-11-30 17:40:18
78,"[{'imgObject': {}, 'id': 'fruitsalad', 'src': '/static/foodstim60/fruitsalad.jpg', 'key': 'u', 'origWidth': 410, 'origHeight': 410, 'width': 410, 'height': 410, 'widthPercent': 0.45, 'rescaleHeight': False, 'trialN': 78, 'loaded': True, 'loadedTime': 3574.5999999940395, 'positionName': 'LEFT', 'positionCoords': [204.4, 155], 'bid': 5.1000000000000005}, {'imgObject': {}, 'id': 'avocado', 'src': '/static/foodstim60/avocado.jpg', 'key': 'i', 'origWidth': 409, 'origHeight': 409, 'width': 409, 'height': 409, 'widthPercent': 0.45, 'rescaleHeight': False, 'trialN': 78, 'loaded': True, 'loadedTime': 3645.7999999970198, 'positionName': 'RIGHT', 'positionCoords': [665.6, 155.5], 'bid': 3.54}]",139747.59999999404,1669829843043,fruitsalad,avocado,5.1000000000000005,3.54,-1.5600000000000005,fruitsalad,1503.9000000059605,1506,1505.0999999940395,True,u,141766.79999999702,2019.2000000029802,1669829845063,2020,HRV,HRV_0080,2022-11-30 17:40:18
79,"[{'imgObject': {}, 'id': 'cocktailshrimp', 'src': '/static/foodstim60/cocktailshrimp.jpg', 'key': 'u', 'origWidth': 410, 'origHeight': 410, 'width': 410, 'height': 410, 'widthPercent': 0.45, 'rescaleHeight': False, 'trialN': 79, 'loaded': True, 'loadedTime': 3375.199999988079, 'positionName': 'LEFT', 'positionCoords': [204.4, 155], 'bid': 0.2}, {'imgObject': {}, 'id': 'eggs', 'src': '/static/foodstim60/eggs.jpg', 'key': 'i', 'origWidth': 409, 'origHeight': 409, 'width': 409, 'height': 409, 'widthPercent': 0.45, 'rescaleHeight': False, 'trialN': 79, 'loaded': True, 'loadedTime': 3553.3999999910593, 'positionName': 'RIGHT', 'positionCoords': [665.6, 155.5], 'bid': 0.32}]",141767.5,1669829845063,cocktailshrimp,eggs,0.2,0.32,0.12,eggs,1229.0,1230,1229.699999988079,True,i,143516.09999999404,1748.5999999940395,1669829846812,1749,HRV,HRV_0080,2022-11-30 17:40:18
80,"[{'imgObject': {}, 'id': 'mashed potato', 'src': '/static/foodstim60/mashed potato.jpg', 'key': 'u', 'origWidth': 409, 'origHeight': 409, 'width': 409, 'height': 409, 'widthPercent': 0.45, 'rescaleHeight': False, 'trialN': 80, 'loaded': True, 'loadedTime': 3541.8999999910593, 'positionName': 'LEFT', 'positionCoords': [205.4, 155.5], 'bid': 4.71}, {'imgObject': {}, 'id': 'Tribe humus pita', 'src': '/static/foodstim60/Tribe humus pita.jpg', 'key': 'i', 'origWidth': 411, 'origHeight': 411, 'width': 411, 'height': 411, 'widthPercent': 0.45, 'rescaleHeight': False, 'trialN': 80, 'loaded': True, 'loadedTime': 3383.699999988079, 'positionName': 'RIGHT', 'positionCoords': [665.6, 154.5], 'bid': 4.5600000000000005}]",143516.59999999404,1669829846812,mashed potato,Tribe humus pita,4.71,4.5600000000000005,-0.14999999999999947,Tribe humus pita,1707.0,1708,1707.4000000059605,True,i,145728.09999999404,2211.5,1669829849024,2212,HRV,HRV_0080,2022-11-30 17:40:18
81,"[{'imgObject': {}, 'id': 'baked potato', 'src': '/static/foodstim60/baked potato.jpg', 'key': 'u', 'origWidth': 409, 'origHeight': 410, 'width': 409, 'height': 410, 'widthPercent': 0.45, 'rescaleHeight': False, 'trialN': 81, 'loaded': True, 'loadedTime': 3491, 'positionName': 'LEFT', 'positionCoords': [205.4, 155], 'bid': 5}, {'imgObject': {}, 'id': 'cocktailshrimp', 'src': '/static/foodstim60/cocktailshrimp.jpg', 'key': 'i', 'origWidth': 410, 'origHeight': 410, 'width': 410, 'height': 410, 'widthPercent': 0.45, 'rescaleHeight': False, 'trialN': 81, 'loaded': True, 'loadedTime': 3375.5999999940395, 'positionName': 'RIGHT', 'positionCoords': [665.6, 155], 'bid': 0.2}]",145728.5,1669829849024,baked potato,cocktailshrimp,5.0,0.2,-4.8,baked potato,1104.5999999940395,1105,1104.8999999910593,True,u,147343.0,1614.5,1669829850639,1615,HRV,HRV_0080,2022-11-30 17:40:18
82,"[{'imgObject': {}, 'id': 'sweetpotato', 'src': '/static/foodstim60/sweetpotato.jpg', 'key': 'u', 'origWidth': 410, 'origHeight': 410, 'width': 410, 'height': 410, 'widthPercent': 0.45, 'rescaleHeight': False, 'trialN': 82, 'loaded': True, 'loadedTime': 3480.7999999970198, 'positionName': 'LEFT', 'positionCoords': [204.4, 155], 'bid': 2.92}, {'imgObject': {}, 'id': 'turkey sandwich', 'src': '/static/foodstim60/turkey sandwich.jpg', 'key': 'i', 'origWidth': 409, 'origHeight': 409, 'width': 409, 'height': 409, 'widthPercent': 0.45, 'rescaleHeight': False, 'trialN': 82, 'loaded': True, 'loadedTime': 3452.199999988079, 'positionName': 'RIGHT', 'positionCoords': [665.6, 155.5], 'bid': 0.43}]",147343.39999999106,1669829850639,sweetpotato,turkey sandwich,2.92,0.43,-2.4899999999999998,sweetpotato,1039.4000000059605,1041,1040.4000000059605,True,u,148885.89999999106,1542.5,1669829852182,1543,HRV,HRV_0080,2022-11-30 17:40:18
83,"[{'imgObject': {}, 'id': 'burrito', 'src': '/static/foodstim60/burrito.jpg', 'key': 'u', 'origWidth': 410, 'origHeight': 410, 'width': 410, 'height': 410, 'widthPercent': 0.45, 'rescaleHeight': False, 'trialN': 83, 'loaded': True, 'loadedTime': 3414.8999999910593, 'positionName': 'LEFT', 'positionCoords': [204.4, 155], 'bid': 7.56}, {'imgObject': {}, 'id': 'tacos', 'src': '/static/foodstim60/tacos.jpg', 'key': 'i', 'origWidth': 411, 'origHeight': 411, 'width': 411, 'height': 411, 'widthPercent': 0.45, 'rescaleHeight': False, 'trialN': 83, 'loaded': True, 'loadedTime': 3651.3999999910593, 'positionName': 'RIGHT', 'positionCoords': [665.6, 154.5], 'bid': 7.51}]",148886.39999999106,1669829852182,burrito,tacos,7.56,7.51,-0.04999999999999982,burrito,1254.7000000029802,1256,1255.4000000059605,True,u,150647.19999998808,1760.7999999970198,1669829853943,1761,HRV,HRV_0080,2022-11-30 17:40:18
84,"[{'imgObject': {}, 'id': 'blackbeanswithrice', 'src': '/static/foodstim60/blackbeanswithrice.jpg', 'key': 'u', 'origWidth': 410, 'origHeight': 410, 'width': 410, 'height': 410, 'widthPercent': 0.45, 'rescaleHeight': False, 'trialN': 84, 'loaded': True, 'loadedTime': 3618.8999999910593, 'positionName': 'LEFT', 'positionCoords': [204.4, 155], 'bid': 1.12}, {'imgObject': {}, 'id': 'rigatoni', 'src': '/static/foodstim60/rigatoni.jpg', 'key': 'i', 'origWidth': 411, 'origHeight': 411, 'width': 411, 'height': 411, 'widthPercent': 0.45, 'rescaleHeight': False, 'trialN': 84, 'loaded': True, 'loadedTime': 3396.199999988079, 'positionName': 'RIGHT', 'positionCoords': [665.6, 154.5], 'bid': 1.39}]",150647.5,1669829853943,blackbeanswithrice,rigatoni,1.12,1.39,0.2699999999999998,rigatoni,1434.7999999970198,1436,1435.7999999970198,True,i,152598.79999999702,1951.2999999970198,1669829855895,1952,HRV,HRV_0080,2022-11-30 17:40:18
85,"[{'imgObject': {}, 'id': 'corn cob', 'src': '/static/foodstim60/corn cob.jpg', 'key': 'u', 'origWidth': 411, 'origHeight': 411, 'width': 411, 'height': 411, 'widthPercent': 0.45, 'rescaleHeight': False, 'trialN': 85, 'loaded': True, 'loadedTime': 3647.699999988079, 'positionName': 'LEFT', 'positionCoords': [203.4, 154.5], 'bid': 8.01}, {'imgObject': {}, 'id': 'froot loops w milk', 'src': '/static/foodstim60/froot loops w milk.jpg', 'key': 'i', 'origWidth': 410, 'origHeight': 410, 'width': 410, 'height': 410, 'widthPercent': 0.45, 'rescaleHeight': False, 'trialN': 85, 'loaded': True, 'loadedTime': 3579, 'positionName': 'RIGHT', 'positionCoords': [665.6, 155], 'bid': 7.930000000000001}]",152599.0,1669829855895,corn cob,froot loops w milk,8.01,7.930000000000001,-0.07999999999999918,corn cob,1166.199999988079,1167,1166.8999999910593,True,u,154270.19999998808,1671.199999988079,1669829857566,1671,HRV,HRV_0080,2022-11-30 17:40:18
86,"[{'imgObject': {}, 'id': 'steak', 'src': '/static/foodstim60/steak.jpg', 'key': 'u', 'origWidth': 410, 'origHeight': 410, 'width': 410, 'height': 410, 'widthPercent': 0.45, 'rescaleHeight': False, 'trialN': 86, 'loaded': True, 'loadedTime': 3669.3999999910593, 'positionName': 'LEFT', 'positionCoords': [204.4, 155], 'bid': 8.51}, {'imgObject': {}, 'id': 'raspberries', 'src': '/static/foodstim60/raspberries.jpg', 'key': 'i', 'origWidth': 411, 'origHeight': 411, 'width': 411, 'height': 411, 'widthPercent': 0.45, 'rescaleHeight': False, 'trialN': 86, 'loaded': True, 'loadedTime': 3417.699999988079, 'positionName': 'RIGHT', 'positionCoords': [665.6, 154.5], 'bid': 9.75}]",154270.5,1669829857566,steak,raspberries,8.51,9.75,1.2400000000000002,raspberries,1587.0,1588,1587.5999999940395,True,i,156371.39999999106,2100.8999999910593,1669829859667,2101,HRV,HRV_0080,2022-11-30 17:40:18
87,"[{'imgObject': {}, 'id': 'sushi w_condiments', 'src': '/static/foodstim60/sushi w_condiments.jpg', 'key': 'u', 'origWidth': 410, 'origHeight': 410, 'width': 410, 'height': 410, 'widthPercent': 0.45, 'rescaleHeight': False, 'trialN': 87, 'loaded': True, 'loadedTime': 3652.2999999970198, 'positionName': 'LEFT', 'positionCoords': [204.4, 155], 'bid': 9.43}, {'imgObject': {}, 'id': 'corn cob', 'src': '/static/foodstim60/corn cob.jpg', 'key': 'i', 'origWidth': 411, 'origHeight': 411, 'width': 411, 'height': 411, 'widthPercent': 0.45, 'rescaleHeight': False, 'trialN': 87, 'loaded': True, 'loadedTime': 3648.0999999940395, 'positionName': 'RIGHT', 'positionCoords': [665.6, 154.5], 'bid': 8.01}]",156371.89999999106,1669829859668,sushi w_condiments,corn cob,9.43,8.01,-1.42,sushi w_condiments,993.2999999970198,994,994.0,True,u,157870.59999999404,1498.7000000029802,1669829861167,1499,HRV,HRV_0080,2022-11-30 17:40:18
88,"[{'imgObject': {}, 'id': 'burger', 'src': '/static/foodstim60/burger.jpg', 'key': 'u', 'origWidth': 409, 'origHeight': 409, 'width': 409, 'height': 409, 'widthPercent': 0.45, 'rescaleHeight': False, 'trialN': 88, 'loaded': True, 'loadedTime': 3564.7999999970198, 'positionName': 'LEFT', 'positionCoords': [205.4, 155.5], 'bid': 8.82}, {'imgObject': {}, 'id': 'burrito', 'src': '/static/foodstim60/burrito.jpg', 'key': 'i', 'origWidth': 410, 'origHeight': 410, 'width': 410, 'height': 410, 'widthPercent': 0.45, 'rescaleHeight': False, 'trialN': 88, 'loaded': True, 'loadedTime': 3412.0999999940395, 'positionName': 'RIGHT', 'positionCoords': [665.6, 155], 'bid': 7.56}]",157871.0,1669829861167,burger,burrito,8.82,7.56,-1.2600000000000007,burger,1271.2999999970198,1272,1272.0999999940395,True,u,159657.79999999702,1786.7999999970198,1669829862954,1787,HRV,HRV_0080,2022-11-30 17:40:18
89,"[{'imgObject': {}, 'id': 'cherry tomato', 'src': '/static/foodstim60/cherry tomato.jpg', 'key': 'u', 'origWidth': 410, 'origHeight': 410, 'width': 410, 'height': 410, 'widthPercent': 0.45, 'rescaleHeight': False, 'trialN': 89, 'loaded': True, 'loadedTime': 3671.0999999940395, 'positionName': 'LEFT', 'positionCoords': [204.4, 155], 'bid': 0.34}, {'imgObject': {}, 'id': 'edamame', 'src': '/static/foodstim60/edamame.jpg', 'key': 'i', 'origWidth': 409, 'origHeight': 410, 'width': 409, 'height': 410, 'widthPercent': 0.45, 'rescaleHeight': False, 'trialN': 89, 'loaded': True, 'loadedTime': 3475, 'positionName': 'RIGHT', 'positionCoords': [665.6, 155], 'bid': 5.4}]",159658.0,1669829862954,cherry tomato,edamame,0.34,5.4,5.0600000000000005,edamame,926.0999999940395,926,926.5,True,i,161096.79999999702,1438.7999999970198,1669829864393,1439,HRV,HRV_0080,2022-11-30 17:40:18
90,"[{'imgObject': {}, 'id': 'blackbeanswithrice', 'src': '/static/foodstim60/blackbeanswithrice.jpg', 'key': 'u', 'origWidth': 410, 'origHeight': 410, 'width': 410, 'height': 410, 'widthPercent': 0.45, 'rescaleHeight': False, 'trialN': 90, 'loaded': True, 'loadedTime': 3620.0999999940395, 'positionName': 'LEFT', 'positionCoords': [204.4, 155], 'bid': 1.12}, {'imgObject': {}, 'id': 'raisin bran w milk', 'src': '/static/foodstim60/raisin bran w milk.jpg', 'key': 'i', 'origWidth': 411, 'origHeight': 411, 'width': 411, 'height': 411, 'widthPercent': 0.45, 'rescaleHeight': False, 'trialN': 90, 'loaded': True, 'loadedTime': 3607.8999999910593, 'positionName': 'RIGHT', 'positionCoords': [665.6, 154.5], 'bid': 2.37}]",164148.39999999106,1669829867444,blackbeanswithrice,raisin bran w milk,1.12,2.37,1.25,raisin bran w milk,1700.0,1701,1700.7000000029802,True,i,166373.19999998808,2224.7999999970198,1669829869669,2225,HRV,HRV_0080,2022-11-30 17:40:18
91,"[{'imgObject': {}, 'id': 'sushi w_condiments', 'src': '/static/foodstim60/sushi w_condiments.jpg', 'key': 'u', 'origWidth': 410, 'origHeight': 410, 'width': 410, 'height': 410, 'widthPercent': 0.45, 'rescaleHeight': False, 'trialN': 91, 'loaded': True, 'loadedTime': 3652.5, 'positionName': 'LEFT', 'positionCoords': [204.4, 155], 'bid': 9.43}, {'imgObject': {}, 'id': 'bagel and cc', 'src': '/static/foodstim60/bagel and cc.jpg', 'key': 'i', 'origWidth': 410, 'origHeight': 410, 'width': 410, 'height': 410, 'widthPercent': 0.45, 'rescaleHeight': False, 'trialN': 91, 'loaded': True, 'loadedTime': 3662.3999999910593, 'positionName': 'RIGHT', 'positionCoords': [665.6, 155], 'bid': 7.78}]",166373.39999999106,1669829869669,sushi w_condiments,bagel and cc,9.43,7.78,-1.6499999999999995,sushi w_condiments,786.0,787,786.7000000029802,True,u,167673.19999998808,1299.7999999970198,1669829870969,1300,HRV,HRV_0080,2022-11-30 17:40:18
92,"[{'imgObject': {}, 'id': 'blueberries', 'src': '/static/foodstim60/blueberries.jpg', 'key': 'u', 'origWidth': 411, 'origHeight': 411, 'width': 411, 'height': 411, 'widthPercent': 0.45, 'rescaleHeight': False, 'trialN': 92, 'loaded': True, 'loadedTime': 3616.5999999940395, 'positionName': 'LEFT', 'positionCoords': [203.4, 154.5], 'bid': 8.03}, {'imgObject': {}, 'id': 'salmon', 'src': '/static/foodstim60/salmon.jpg', 'key': 'i', 'origWidth': 410, 'origHeight': 409, 'width': 410, 'height': 409, 'widthPercent': 0.45, 'rescaleHeight': False, 'trialN': 92, 'loaded': True, 'loadedTime': 3467.5, 'positionName': 'RIGHT', 'positionCoords': [665.6, 155.5], 'bid': 5.54}]",167673.5,1669829870969,blueberries,salmon,8.03,5.54,-2.4899999999999993,salmon,1623.7999999970198,1625,1624.5999999940395,True,i,169814.59999999404,2141.0999999940395,1669829873110,2141,HRV,HRV_0080,2022-11-30 17:40:18
93,"[{'imgObject': {}, 'id': 'rigatoni', 'src': '/static/foodstim60/rigatoni.jpg', 'key': 'u', 'origWidth': 411, 'origHeight': 411, 'width': 411, 'height': 411, 'widthPercent': 0.45, 'rescaleHeight': False, 'trialN': 93, 'loaded': True, 'loadedTime': 3394.699999988079, 'positionName': 'LEFT', 'positionCoords': [203.4, 154.5], 'bid': 1.39}, {'imgObject': {}, 'id': 'seaweed', 'src': '/static/foodstim60/seaweed.jpg', 'key': 'i', 'origWidth': 410, 'origHeight': 410, 'width': 410, 'height': 410, 'widthPercent': 0.45, 'rescaleHeight': False, 'trialN': 93, 'loaded': True, 'loadedTime': 3600.699999988079, 'positionName': 'RIGHT', 'positionCoords': [665.6, 155], 'bid': 0.42}]",169814.89999999106,1669829873111,rigatoni,seaweed,1.39,0.42,-0.97,seaweed,1040.2999999970198,1041,1041.1000000089407,True,i,171370.69999998808,1555.7999999970198,1669829874666,1555,HRV,HRV_0080,2022-11-30 17:40:18
94,"[{'imgObject': {}, 'id': 'cheerios', 'src': '/static/foodstim60/cheerios.jpg', 'key': 'u', 'origWidth': 409, 'origHeight': 410, 'width': 409, 'height': 410, 'widthPercent': 0.45, 'rescaleHeight': False, 'trialN': 94, 'loaded': True, 'loadedTime': 3453.0999999940395, 'positionName': 'LEFT', 'positionCoords': [205.4, 155], 'bid': 1.95}, {'imgObject': {}, 'id': 'apple slices', 'src': '/static/foodstim60/apple slices.jpg', 'key': 'i', 'origWidth': 409, 'origHeight': 410, 'width': 409, 'height': 410, 'widthPercent': 0.45, 'rescaleHeight': False, 'trialN': 94, 'loaded': True, 'loadedTime': 3609.699999988079, 'positionName': 'RIGHT', 'positionCoords': [665.6, 155], 'bid': 1.85}]",171371.0,1669829874667,cheerios,apple slices,1.95,1.85,-0.09999999999999987,cheerios,1052.0,1053,1053.0,True,u,172929.0,1558.0,1669829876225,1558,HRV,HRV_0080,2022-11-30 17:40:18
95,"[{'imgObject': {}, 'id': 'rigatoni and sauce', 'src': '/static/foodstim60/rigatoni and sauce.jpg', 'key': 'u', 'origWidth': 410, 'origHeight': 411, 'width': 410, 'height': 411, 'widthPercent': 0.45, 'rescaleHeight': False, 'trialN': 95, 'loaded': True, 'loadedTime': 3568.3999999910593, 'positionName': 'LEFT', 'positionCoords': [204.4, 154.5], 'bid': 8.4}, {'imgObject': {}, 'id': 'corn cob', 'src': '/static/foodstim60/corn cob.jpg', 'key': 'i', 'origWidth': 411, 'origHeight': 411, 'width': 411, 'height': 411, 'widthPercent': 0.45, 'rescaleHeight': False, 'trialN': 95, 'loaded': True, 'loadedTime': 3647.3999999910593, 'positionName': 'RIGHT', 'positionCoords': [665.6, 154.5], 'bid': 8.01}]",172929.5,1669829876225,rigatoni and sauce,corn cob,8.4,8.01,-0.39000000000000057,rigatoni and sauce,697.0999999940395,698,697.7999999970198,True,u,174146.59999999404,1217.0999999940395,1669829877442,1217,HRV,HRV_0080,2022-11-30 17:40:18
96,"[{'imgObject': {}, 'id': 'apple slices', 'src': '/static/foodstim60/apple slices.jpg', 'key': 'u', 'origWidth': 409, 'origHeight': 410, 'width': 409, 'height': 410, 'widthPercent': 0.45, 'rescaleHeight': False, 'trialN': 96, 'loaded': True, 'loadedTime': 3608.5999999940395, 'positionName': 'LEFT', 'positionCoords': [205.4, 155], 'bid': 1.85}, {'imgObject': {}, 'id': 'granola w milk', 'src': '/static/foodstim60/granola w milk.jpg', 'key': 'i', 'origWidth': 410, 'origHeight': 410, 'width': 410, 'height': 410, 'widthPercent': 0.45, 'rescaleHeight': False, 'trialN': 96, 'loaded': True, 'loadedTime': 3559, 'positionName': 'RIGHT', 'positionCoords': [665.6, 155], 'bid': 1.57}]",174146.79999999702,1669829877443,apple slices,granola w milk,1.85,1.57,-0.28,apple slices,1363.0999999940395,1364,1364.0,True,u,176024.59999999404,1877.7999999970198,1669829879320,1877,HRV,HRV_0080,2022-11-30 17:40:18
97,"[{'imgObject': {}, 'id': 'chicken nuggets2', 'src': '/static/foodstim60/chicken nuggets2.jpg', 'key': 'u', 'origWidth': 410, 'origHeight': 409, 'width': 410, 'height': 409, 'widthPercent': 0.45, 'rescaleHeight': False, 'trialN': 97, 'loaded': True, 'loadedTime': 3507.7999999970198, 'positionName': 'LEFT', 'positionCoords': [204.4, 155.5], 'bid': 9.28}, {'imgObject': {}, 'id': 'banana', 'src': '/static/foodstim60/banana.jpg', 'key': 'i', 'origWidth': 410, 'origHeight': 410, 'width': 410, 'height': 410, 'widthPercent': 0.45, 'rescaleHeight': False, 'trialN': 97, 'loaded': True, 'loadedTime': 3665.5, 'positionName': 'RIGHT', 'positionCoords': [665.6, 155], 'bid': 6.45}]",176025.09999999404,1669829879321,chicken nuggets2,banana,9.28,6.45,-2.829999999999999,chicken nuggets2,647.9000000059605,649,648.7000000029802,True,u,177190.79999999702,1165.7000000029802,1669829880487,1166,HRV,HRV_0080,2022-11-30 17:40:18
98,"[{'imgObject': {}, 'id': 'turkey sandwich', 'src': '/static/foodstim60/turkey sandwich.jpg', 'key': 'u', 'origWidth': 409, 'origHeight': 409, 'width': 409, 'height': 409, 'widthPercent': 0.45, 'rescaleHeight': False, 'trialN': 98, 'loaded': True, 'loadedTime': 3447.5999999940395, 'positionName': 'LEFT', 'positionCoords': [205.4, 155.5], 'bid': 0.43}, {'imgObject': {}, 'id': 'salmon', 'src': '/static/foodstim60/salmon.jpg', 'key': 'i', 'origWidth': 410, 'origHeight': 409, 'width': 410, 'height': 409, 'widthPercent': 0.45, 'rescaleHeight': False, 'trialN': 98, 'loaded': True, 'loadedTime': 3468.2999999970198, 'positionName': 'RIGHT', 'positionCoords': [665.6, 155.5], 'bid': 5.54}]",177191.19999998808,1669829880487,turkey sandwich,salmon,0.43,5.54,5.11,salmon,917.6000000089407,918,918.3000000119209,True,i,178616.29999999702,1425.1000000089407,1669829881912,1425,HRV,HRV_0080,2022-11-30 17:40:18
99,"[{'imgObject': {}, 'id': 'cherries', 'src': '/static/foodstim60/cherries.jpg', 'key': 'u', 'origWidth': 410, 'origHeight': 411, 'width': 410, 'height': 411, 'widthPercent': 0.45, 'rescaleHeight': False, 'trialN': 99, 'loaded': True, 'loadedTime': 3567.2999999970198, 'positionName': 'LEFT', 'positionCoords': [204.4, 154.5], 'bid': 6.37}, {'imgObject': {}, 'id': 'mango', 'src': '/static/foodstim60/mango.jpg', 'key': 'i', 'origWidth': 411, 'origHeight': 411, 'width': 411, 'height': 411, 'widthPercent': 0.45, 'rescaleHeight': False, 'trialN': 99, 'loaded': True, 'loadedTime': 3636.5, 'positionName': 'RIGHT', 'positionCoords': [665.6, 154.5], 'bid': 5.82}]",178616.79999999702,1669829881913,cherries,mango,6.37,5.82,-0.5499999999999998,cherries,1174.3999999910593,1175,1175.0999999940395,True,u,180301.5,1684.7000000029802,1669829883597,1684,HRV,HRV_0080,2022-11-30 17:40:18
100,"[{'imgObject': {}, 'id': 'strawberries', 'src': '/static/foodstim60/strawberries.jpg', 'key': 'u', 'origWidth': 410, 'origHeight': 410, 'width': 410, 'height': 410, 'widthPercent': 0.45, 'rescaleHeight': False, 'trialN': 100, 'loaded': True, 'loadedTime': 3539.5999999940395, 'positionName': 'LEFT', 'positionCoords': [204.4, 155], 'bid': 9.75}, {'imgObject': {}, 'id': 'burger', 'src': '/static/foodstim60/burger.jpg', 'key': 'i', 'origWidth': 409, 'origHeight': 409, 'width': 409, 'height': 409, 'widthPercent': 0.45, 'rescaleHeight': False, 'trialN': 100, 'loaded': True, 'loadedTime': 3560.5, 'positionName': 'RIGHT', 'positionCoords': [665.6, 155.5], 'bid': 8.82}]",180302.0,1669829883598,strawberries,burger,9.75,8.82,-0.9299999999999997,strawberries,783.7999999970198,785,785.0999999940395,True,u,181592.5,1290.5,1669829884888,1290,HRV,HRV_0080,2022-11-30 17:40:18
101,"[{'imgObject': {}, 'id': 'corn cob', 'src': '/static/foodstim60/corn cob.jpg', 'key': 'u', 'origWidth': 411, 'origHeight': 411, 'width': 411, 'height': 411, 'widthPercent': 0.45, 'rescaleHeight': False, 'trialN': 101, 'loaded': True, 'loadedTime': 3648, 'positionName': 'LEFT', 'positionCoords': [203.4, 154.5], 'bid': 8.01}, {'imgObject': {}, 'id': 'turkeysandwich', 'src': '/static/foodstim60/turkeysandwich.jpg', 'key': 'i', 'origWidth': 409, 'origHeight': 409, 'width': 409, 'height': 409, 'widthPercent': 0.45, 'rescaleHeight': False, 'trialN': 101, 'loaded': True, 'loadedTime': 3611.2999999970198, 'positionName': 'RIGHT', 'positionCoords': [665.6, 155.5], 'bid': 2.78}]",181593.09999999404,1669829884889,corn cob,turkeysandwich,8.01,2.78,-5.23,corn cob,953.5,954,954.4000000059605,True,u,183053.0,1459.9000000059605,1669829886349,1460,HRV,HRV_0080,2022-11-30 17:40:18
102,"[{'imgObject': {}, 'id': 'ice cream sundae 002', 'src': '/static/foodstim60/ice cream sundae 002.jpg', 'key': 'u', 'origWidth': 409, 'origHeight': 409, 'width': 409, 'height': 409, 'widthPercent': 0.45, 'rescaleHeight': False, 'trialN': 102, 'loaded': True, 'loadedTime': 3548, 'positionName': 'LEFT', 'positionCoords': [205.4, 155.5], 'bid': 4.43}, {'imgObject': {}, 'id': 'granola w milk', 'src': '/static/foodstim60/granola w milk.jpg', 'key': 'i', 'origWidth': 410, 'origHeight': 410, 'width': 410, 'height': 410, 'widthPercent': 0.45, 'rescaleHeight': False, 'trialN': 102, 'loaded': True, 'loadedTime': 3558.199999988079, 'positionName': 'RIGHT', 'positionCoords': [665.6, 155], 'bid': 1.57}]",183053.5,1669829886349,ice cream sundae 002,granola w milk,4.43,1.57,-2.8599999999999994,ice cream sundae 002,1019.2999999970198,1021,1020.2999999970198,True,u,184588.5,1535.0,1669829887884,1535,HRV,HRV_0080,2022-11-30 17:40:18
103,"[{'imgObject': {}, 'id': 'Tribe humus pita', 'src': '/static/foodstim60/Tribe humus pita.jpg', 'key': 'u', 'origWidth': 411, 'origHeight': 411, 'width': 411, 'height': 411, 'widthPercent': 0.45, 'rescaleHeight': False, 'trialN': 103, 'loaded': True, 'loadedTime': 3385, 'positionName': 'LEFT', 'positionCoords': [203.4, 154.5], 'bid': 4.5600000000000005}, {'imgObject': {}, 'id': 'cherries', 'src': '/static/foodstim60/cherries.jpg', 'key': 'i', 'origWidth': 410, 'origHeight': 411, 'width': 410, 'height': 411, 'widthPercent': 0.45, 'rescaleHeight': False, 'trialN': 103, 'loaded': True, 'loadedTime': 3567.0999999940395, 'positionName': 'RIGHT', 'positionCoords': [665.6, 154.5], 'bid': 6.37}]",184588.79999999702,1669829887885,Tribe humus pita,cherries,4.5600000000000005,6.37,1.8099999999999996,Tribe humus pita,982.2000000029802,982,982.3999999910593,True,u,186080.59999999404,1491.7999999970198,1669829889376,1491,HRV,HRV_0080,2022-11-30 17:40:18
104,"[{'imgObject': {}, 'id': 'orange slices', 'src': '/static/foodstim60/orange slices.jpg', 'key': 'u', 'origWidth': 409, 'origHeight': 410, 'width': 409, 'height': 410, 'widthPercent': 0.45, 'rescaleHeight': False, 'trialN': 104, 'loaded': True, 'loadedTime': 3649.7999999970198, 'positionName': 'LEFT', 'positionCoords': [205.4, 155], 'bid': 3.68}, {'imgObject': {}, 'id': 'avocado', 'src': '/static/foodstim60/avocado.jpg', 'key': 'i', 'origWidth': 409, 'origHeight': 409, 'width': 409, 'height': 409, 'widthPercent': 0.45, 'rescaleHeight': False, 'trialN': 104, 'loaded': True, 'loadedTime': 3645.7999999970198, 'positionName': 'RIGHT', 'positionCoords': [665.6, 155.5], 'bid': 3.54}]",186081.0,1669829889377,orange slices,avocado,3.68,3.54,-0.14000000000000012,avocado,1076.5,1077,1076.7999999970198,True,i,187676.0,1595.0,1669829890972,1595,HRV,HRV_0080,2022-11-30 17:40:18
105,"[{'imgObject': {}, 'id': 'salad w chicken', 'src': '/static/foodstim60/salad w chicken.jpg', 'key': 'u', 'origWidth': 411, 'origHeight': 411, 'width': 411, 'height': 411, 'widthPercent': 0.45, 'rescaleHeight': False, 'trialN': 105, 'loaded': True, 'loadedTime': 3642, 'positionName': 'LEFT', 'positionCoords': [203.4, 154.5], 'bid': 7.59}, {'imgObject': {}, 'id': 'luckycharms', 'src': '/static/foodstim60/luckycharms.jpg', 'key': 'i', 'origWidth': 410, 'origHeight': 409, 'width': 410, 'height': 409, 'widthPercent': 0.45, 'rescaleHeight': False, 'trialN': 105, 'loaded': True, 'loadedTime': 3432.3999999910593, 'positionName': 'RIGHT', 'positionCoords': [665.6, 155.5], 'bid': 7.81}]",187676.39999999106,1669829890972,salad w chicken,luckycharms,7.59,7.81,0.21999999999999975,salad w chicken,1030.5,1032,1031.2999999970198,True,u,189214.0,1537.6000000089407,1669829892510,1538,HRV,HRV_0080,2022-11-30 17:40:18
106,"[{'imgObject': {}, 'id': 'chickenfingers', 'src': '/static/foodstim60/chickenfingers.jpg', 'key': 'u', 'origWidth': 410, 'origHeight': 410, 'width': 410, 'height': 410, 'widthPercent': 0.45, 'rescaleHeight': False, 'trialN': 106, 'loaded': True, 'loadedTime': 3441.7999999970198, 'positionName': 'LEFT', 'positionCoords': [204.4, 155], 'bid': 9.59}, {'imgObject': {}, 'id': 'raspberries', 'src': '/static/foodstim60/raspberries.jpg', 'key': 'i', 'origWidth': 411, 'origHeight': 411, 'width': 411, 'height': 411, 'widthPercent': 0.45, 'rescaleHeight': False, 'trialN': 106, 'loaded': True, 'loadedTime': 3418.2999999970198, 'positionName': 'RIGHT', 'positionCoords': [665.6, 154.5], 'bid': 9.75}]",189214.39999999106,1669829892510,chickenfingers,raspberries,9.59,9.75,0.16000000000000014,chickenfingers,650.6000000089407,652,651.4000000059605,True,u,190376.69999998808,1162.2999999970198,1669829893673,1163,HRV,HRV_0080,2022-11-30 17:40:18
107,"[{'imgObject': {}, 'id': 'veggieswithdip', 'src': '/static/foodstim60/veggieswithdip.jpg', 'key': 'u', 'origWidth': 409, 'origHeight': 409, 'width': 409, 'height': 409, 'widthPercent': 0.45, 'rescaleHeight': False, 'trialN': 107, 'loaded': True, 'loadedTime': 3631, 'positionName': 'LEFT', 'positionCoords': [205.4, 155.5], 'bid': 2.93}, {'imgObject': {}, 'id': 'rigatoni and sauce', 'src': '/static/foodstim60/rigatoni and sauce.jpg', 'key': 'i', 'origWidth': 410, 'origHeight': 411, 'width': 410, 'height': 411, 'widthPercent': 0.45, 'rescaleHeight': False, 'trialN': 107, 'loaded': True, 'loadedTime': 3574.0999999940395, 'positionName': 'RIGHT', 'positionCoords': [665.6, 154.5], 'bid': 8.4}]",190377.0,1669829893673,veggieswithdip,rigatoni and sauce,2.93,8.4,5.470000000000001,rigatoni and sauce,901.5,902,902.1999999880791,True,i,191794.5,1417.5,1669829895090,1417,HRV,HRV_0080,2022-11-30 17:40:18
108,"[{'imgObject': {}, 'id': 'lox', 'src': '/static/foodstim60/lox.jpg', 'key': 'u', 'origWidth': 410, 'origHeight': 411, 'width': 410, 'height': 411, 'widthPercent': 0.45, 'rescaleHeight': False, 'trialN': 108, 'loaded': True, 'loadedTime': 3667.699999988079, 'positionName': 'LEFT', 'positionCoords': [204.4, 154.5], 'bid': 1.39}, {'imgObject': {}, 'id': 'cantaloupe', 'src': '/static/foodstim60/cantaloupe.jpg', 'key': 'i', 'origWidth': 409, 'origHeight': 409, 'width': 409, 'height': 409, 'widthPercent': 0.45, 'rescaleHeight': False, 'trialN': 108, 'loaded': True, 'loadedTime': 3659.3999999910593, 'positionName': 'RIGHT', 'positionCoords': [665.6, 155.5], 'bid': 4.37}]",191794.69999998808,1669829895091,lox,cantaloupe,1.39,4.37,2.9800000000000004,cantaloupe,1033.1000000089407,1033,1033.9000000059605,True,i,193337.5,1542.800000011921,1669829896633,1542,HRV,HRV_0080,2022-11-30 17:40:18
