success,trial_type,trial_index,time_elapsed,internal_node_id,Block,TrialNumber,TrialTime,trialTimeDiff,FPS_avg,FPS_med,FPS_mode,TrialDur,winResizeTime,rt,block,button_pressed,MotCoh,MotDir,ColCoh,Color,ChoiceKey,Choice,Accuracy,RT,nFrames,FPS,PPD,missTrial,missTrialMsg,onsetDelay,fullScreenExitTime,canvCenter,TrialType,Score,BlockTrial,stimulus,button_labels,exp,subjectId,date
True,fullscreen,0,2573,0.0-0.0,0.0,1.0,,,,,,,,,,,,,,,,,,,,,,,,,,,,,,,,HRV,HRV_0080,2022-11-30 18:03:57
,wl-check-fps,1,7565,0.0-1.0,0.0,2.0,"[3680.1, 3682, 3698.1, 3714.8, 3731.2, 3748.2, 3764.9, 3781.5, 3798.3, 3815.2, 3832, 3848.4, 3865.1, 3881.1, 3897.8, 3914.5, 3931.1, 3947.8, 3964.8, 3981.3, 3998, 4014.7, 4031.5, 4048.2, 4065.2, 4081.5, 4098.4, 4115.3, 4131.2, 4147.9, 4164.5, 4181.3, 4198.4, 4214.9, 4231.4, 4248.4, 4265.2, 4281.4, 4298.3, 4314.8, 4331.2, 4348.5, 4365, 4381.3, 4398.5, 4415.3, 4431.1, 4447.9, 4464.9, 4481.3, 4498.3, 4514.6, 4531.2, 4548.1, 4564.5, 4581.4, 4598.2, 4614.9, 4631.1, 4648.2, 4664.7, 4681, 4698.2, 4714.3, 4731.1, 4747.7, 4764.5, 4780.8, 4797.3, 4814, 4830.5, 4847.6, 4864.1, 4880.7, 4897.7, 4914.5, 4931, 4947.6, 4964.4, 4981, 4997.8, 5014.4, 5031, 5048, 5064.6, 5081.1, 5097.9, 5115, 5130.4, 5147.9, 5164.1, 5180.8, 5197.5, 5214.5, 5230.9, 5247.8, 5264.3, 5281.1, 5297.6, 5313.8, 5330.3, 5347.3, 5364.3, 5380.9, 5397.6, 5414, 5431, 5447.6, 5464.3, 5481.1, 5497.3, 5514.4, 5530.6, 5547.4, 5564.3, 5580.7, 5597.2, 5614.2, 5630.8, 5647.6, 5664.3, 5680.8, 5697.4, 5713.9, 5730.4, 5747.3, 5764.3, 5780.8, 5797.7, 5813.9, 5830.6, 5847.5, 5863.9, 5879.9, 5896.9, 5913.3, 5930.1, 5946.7, 5963.3, 5980.5, 5997.4, 6014.1, 6030.7, 6047.1, 6063.8, 6080.7, 6097.4, 6114.2, 6130.1, 6147.3, 6163.9, 6180.6, 6197.4, 6213.9, 6230, 6246.4, 6263, 6279.9, 6296.7, 6313.3, 6330, 6346.8, 6363.3, 6380.4, 6397, 6413.8, 6430.7, 6447.2, 6463.6, 6480.6, 6497.3, 6513.6, 6530.5, 6547.3, 6563.6, 6580, 6597, 6613.8, 6630.3, 6647.3, 6663.9, 6680.5, 6696.8, 6713.4, 6730.4, 6746.8, 6763.6, 6780.7, 6797.3, 6813.7, 6829.4, 6846.4, 6863.1, 6879.6, 6896.6, 6913.3, 6929.4, 6946.3, 6963.2, 6980, 6996.8, 7013.7, 7030.3, 7046.8, 7063.2, 7080.2, 7097, 7114.1, 7129.3, 7146.3, 7163.3, 7180, 7196.6, 7213.1, 7230.3, 7246.6, 7263.2, 7279.9, 7296.8, 7313.4, 7330, 7346.8, 7363.6, 7380.1, 7396.7, 7413.3, 7430.2, 7446.6, 7462.7, 7479.6, 7497, 7513.4, 7530.2, 7546.1, 7563, 7579.4, 7596.6, 7613.5, 7630, 7646.8, 7663.2, 7679.9, 7696.6, 7713.3, 7730, 7746.3, 7763.3, 7780.1, 7796.8, 7813.4, 7829.9, 7846.6, 7863.2, 7879.5, 7896.4, 7912.7, 7929.8, 7946.7, 7963, 7979.9, 7996.5, 8013.2, 8030.2, 8046.3, 8062.9, 8079.6, 8096.3, 8113.3, 8129.3, 8146, 8162.9, 8179.9, 8196.4, 8213, 8229.6, 8246.5, 8263, 8279.8, 8296.4, 8312.9, 8329.4, 8346, 8362.5, 8379.2, 8396, 8412.8, 8429.9, 8445.9, 8463, 8478.7, 8495.7, 8512.4, 8529.5, 8545.8, 8562, 8579.3, 8595.9, 8612.5, 8629.2, 8646.1]","[2.9, 1.9, 16.1, 16.7, 16.4, 17, 16.7, 16.6, 16.8, 16.9, 16.8, 16.4, 16.7, 16, 16.7, 16.7, 16.6, 16.7, 17, 16.5, 16.7, 16.7, 16.8, 16.7, 17, 16.3, 16.9, 16.9, 15.9, 16.7, 16.6, 16.8, 17.1, 16.5, 16.5, 17, 16.8, 16.2, 16.9, 16.5, 16.4, 17.3, 16.5, 16.3, 17.2, 16.8, 15.8, 16.8, 17, 16.4, 17, 16.3, 16.6, 16.9, 16.4, 16.9, 16.8, 16.7, 16.2, 17.1, 16.5, 16.3, 17.2, 16.1, 16.8, 16.6, 16.8, 16.3, 16.5, 16.7, 16.5, 17.1, 16.5, 16.6, 17, 16.8, 16.5, 16.6, 16.8, 16.6, 16.8, 16.6, 16.6, 17, 16.6, 16.5, 16.8, 17.1, 15.4, 17.5, 16.2, 16.7, 16.7, 17, 16.4, 16.9, 16.5, 16.8, 16.5, 16.2, 16.5, 17, 17, 16.6, 16.7, 16.4, 17, 16.6, 16.7, 16.8, 16.2, 17.1, 16.2, 16.8, 16.9, 16.4, 16.5, 17, 16.6, 16.8, 16.7, 16.5, 16.6, 16.5, 16.5, 16.9, 17, 16.5, 16.9, 16.2, 16.7, 16.9, 16.4, 16, 17, 16.4, 16.8, 16.6, 16.6, 17.2, 16.9, 16.7, 16.6, 16.4, 16.7, 16.9, 16.7, 16.8, 15.9, 17.2, 16.6, 16.7, 16.8, 16.5, 16.1, 16.4, 16.6, 16.9, 16.8, 16.6, 16.7, 16.8, 16.5, 17.1, 16.6, 16.8, 16.9, 16.5, 16.4, 17, 16.7, 16.3, 16.9, 16.8, 16.3, 16.4, 17, 16.8, 16.5, 17, 16.6, 16.6, 16.3, 16.6, 17, 16.4, 16.8, 17.1, 16.6, 16.4, 15.7, 17, 16.7, 16.5, 17, 16.7, 16.1, 16.9, 16.9, 16.8, 16.8, 16.9, 16.6, 16.5, 16.4, 17, 16.8, 17.1, 15.2, 17, 17, 16.7, 16.6, 16.5, 17.2, 16.3, 16.6, 16.7, 16.9, 16.6, 16.6, 16.8, 16.8, 16.5, 16.6, 16.6, 16.9, 16.4, 16.1, 16.9, 17.4, 16.4, 16.8, 15.9, 16.9, 16.4, 17.2, 16.9, 16.5, 16.8, 16.4, 16.7, 16.7, 16.7, 16.7, 16.3, 17, 16.8, 16.7, 16.6, 16.5, 16.7, 16.6, 16.3, 16.9, 16.3, 17.1, 16.9, 16.3, 16.9, 16.6, 16.7, 17, 16.1, 16.6, 16.7, 16.7, 17, 16, 16.7, 16.9, 17, 16.5, 16.6, 16.6, 16.9, 16.5, 16.8, 16.6, 16.5, 16.5, 16.6, 16.5, 16.7, 16.8, 16.8, 17.1, 16, 17.1, 15.7, 17, 16.7, 17.1, 16.3, 16.2, 17.3, 16.6, 16.6, 16.7, 16.9]",60.0,59.0,60.0,4985.0,[],,,,,,,,,,,,,,,,,,,,,,,,,HRV,HRV_0080,2022-11-30 18:03:57
,wl-html-keyboard-response,2,40273,0.0-2.0-0.0,0.0,3.0,,,,,,,,30690.70000000298,0.0,0,,,,,,,,,,,,,,,,,,,,,,HRV,HRV_0080,2022-11-30 18:03:57
,wl-rdm,3,47648,0.0-3.0-0.0,0.0,4.0,,,,,,,[],,,,0.0,0.0,87.9,0.0,u,0.0,True,1754.0999999940395,106.0,60.0,40.0,False,,3000.0,[],"[640, 360]",ColorTask_Demo,,,,,HRV,HRV_0080,2022-11-30 18:03:57
,wl-rdm,4,53660,0.0-3.0-1.0,0.0,5.0,,,,,,,[],,,,0.0,0.0,87.9,1.0,i,1.0,True,1920.699999988079,116.0,60.0,40.0,False,,2000.0,[],"[640, 360]",ColorTask_Demo,,,,,HRV,HRV_0080,2022-11-30 18:03:57
,wl-html-keyboard-response,5,59537,0.0-3.0-2.0,0.0,6.0,,,,,,,,3869.2000000029802,0.0,1,,,,,,,,,,,,,,,,,,,,,,HRV,HRV_0080,2022-11-30 18:03:57
,wl-html-keyboard-response,6,70736,0.0-4.0-0.0,0.0,7.0,,,,,,,,9188.09999999404,0.0,0,,,,,,,,,,,,,,,,,,,,,,HRV,HRV_0080,2022-11-30 18:03:57
,wl-html-keyboard-response,7,80793,0.0-5.0-0.0,0.0,8.0,,,,,,,,8045.70000000298,0.0,0,,,,,,,,,,,,,,,,,,,,,,HRV,HRV_0080,2022-11-30 18:03:57
,wl-rdm,8,83633,0.0-6.0-0.0,0.0,9.0,,,,,,,[],,,,,,56.4,1.0,i,1.0,True,1362.5000000149012,82.0,60.0,40.0,False,,393.0958389909289,[],"[640, 360]",ColorTask,1.0,1.0,,,HRV,HRV_0080,2022-11-30 18:03:57
,wl-rdm,9,85865,0.0-6.1-0.1,0.0,10.0,,,,,,,[],,,,,,87.9,0.0,u,0.0,True,935.7000000178814,57.0,60.0,40.0,False,,209.99244818993353,[],"[640, 360]",ColorTask,2.0,2.0,,,HRV,HRV_0080,2022-11-30 18:03:57
,wl-rdm,10,87780,0.0-6.2-0.2,0.0,11.0,,,,,,,[],,,,,,87.9,0.0,u,0.0,True,573.9000000059605,35.0,60.0,40.0,False,,264.82914019353575,[],"[640, 360]",ColorTask,3.0,3.0,,,HRV,HRV_0080,2022-11-30 18:03:57
,wl-rdm,11,89997,0.0-6.3-0.3,0.0,12.0,,,,,,,[],,,,,,73.6,1.0,i,1.0,True,911.7999999970198,55.0,60.0,40.0,False,,224.48605489535638,[],"[640, 360]",ColorTask,4.0,4.0,,,HRV,HRV_0080,2022-11-30 18:03:57
,wl-rdm,12,92412,0.0-6.4-0.4,0.0,13.0,,,,,,,[],,,,,,87.9,1.0,i,1.0,True,973.0,59.0,60.0,40.0,False,,361.01210098034164,[],"[640, 360]",ColorTask,5.0,5.0,,,HRV,HRV_0080,2022-11-30 18:03:57
,wl-rdm,13,95111,0.0-6.5-0.5,0.0,14.0,,,,,,,[],,,,,,53.2,1.0,u,0.0,False,1406.7999999970198,85.0,60.0,40.0,False,,221.15138766672445,[],"[640, 360]",ColorTask,4.0,6.0,,,HRV,HRV_0080,2022-11-30 18:03:57
,wl-rdm,14,97392,0.0-6.6-0.6,0.0,15.0,,,,,,,[],,,,,,62.5,0.0,u,0.0,True,927.3000000119209,56.0,60.0,40.0,False,,268.5696152179619,[],"[640, 360]",ColorTask,5.0,7.0,,,HRV,HRV_0080,2022-11-30 18:03:57
,wl-rdm,15,99475,0.0-6.7-0.7,0.0,16.0,,,,,,,[],,,,,,87.9,1.0,i,1.0,True,694.2000000029802,42.0,60.0,40.0,False,,320.2049119203747,[],"[640, 360]",ColorTask,6.0,8.0,,,HRV,HRV_0080,2022-11-30 18:03:57
,wl-rdm,16,102156,0.0-6.8-0.8,0.0,17.0,,,,,,,[],,,,,,56.4,0.0,u,0.0,True,1398.1000000089407,84.0,60.0,40.0,False,,230.57731099012264,[],"[640, 360]",ColorTask,7.0,9.0,,,HRV,HRV_0080,2022-11-30 18:03:57
,wl-rdm,17,105155,0.0-6.9-0.9,0.0,18.0,,,,,,,[],,,,,,53.2,0.0,i,1.0,False,1686.5999999940395,102.0,60.0,40.0,False,,222.62656903842122,[],"[640, 360]",ColorTask,6.0,10.0,,,HRV,HRV_0080,2022-11-30 18:03:57
,wl-rdm,18,107953,0.0-6.10-0.10,0.0,19.0,,,,,,,[],,,,,,53.2,0.0,i,1.0,False,1436.4000000059605,87.0,60.0,40.0,False,,274.019916907631,[],"[640, 360]",ColorTask,5.0,11.0,,,HRV,HRV_0080,2022-11-30 18:03:57
,wl-rdm,19,109935,0.0-6.11-0.11,0.0,20.0,,,,,,,[],,,,,,62.5,0.0,u,0.0,True,681.9000000208616,41.0,60.0,40.0,False,,223.51583185103232,[],"[640, 360]",ColorTask,6.0,12.0,,,HRV,HRV_0080,2022-11-30 18:03:57
,wl-rdm,20,113150,0.0-6.12-0.12,0.0,21.0,,,,,,,[],,,,,,50.0,1.0,i,1.0,True,1855.7999999970198,112.0,60.0,40.0,False,,283.45153101141693,[],"[640, 360]",ColorTask,7.0,13.0,,,HRV,HRV_0080,2022-11-30 18:03:57
,wl-rdm,21,115315,0.0-6.13-0.13,0.0,22.0,,,,,,,[],,,,,,73.6,0.0,u,0.0,True,700.3999999910593,42.0,60.0,40.0,False,,387.6393003511844,[],"[640, 360]",ColorTask,8.0,14.0,,,HRV,HRV_0080,2022-11-30 18:03:57
,wl-rdm,22,117631,0.0-6.14-0.14,0.0,23.0,,,,,,,[],,,,,,53.2,0.0,u,0.0,True,992.2000000029802,60.0,60.0,40.0,False,,258.44002848286095,[],"[640, 360]",ColorTask,9.0,15.0,,,HRV,HRV_0080,2022-11-30 18:03:57
,wl-rdm,23,119962,0.0-6.15-0.15,0.0,24.0,,,,,,,[],,,,,,73.6,1.0,i,1.0,True,1025.800000011921,62.0,60.0,40.0,False,,203.98658693221964,[],"[640, 360]",ColorTask,10.0,16.0,,,HRV,HRV_0080,2022-11-30 18:03:57
,wl-rdm,24,123578,0.0-6.16-0.16,0.0,25.0,,,,,,,[],,,,,,56.4,0.0,i,1.0,False,2222.8999999910593,134.0,60.0,40.0,False,,320.1018159202936,[],"[640, 360]",ColorTask,9.0,17.0,,,HRV,HRV_0080,2022-11-30 18:03:57
,wl-rdm,25,125660,0.0-6.17-0.17,0.0,26.0,,,,,,,[],,,,,,87.9,0.0,u,0.0,True,761.6999999880791,46.0,60.0,40.0,False,,242.11993823665094,[],"[640, 360]",ColorTask,10.0,18.0,,,HRV,HRV_0080,2022-11-30 18:03:57
,wl-rdm,26,127959,0.0-6.18-0.18,0.0,27.0,,,,,,,[],,,,,,62.5,0.0,u,0.0,True,888.8999999910593,54.0,60.0,40.0,False,,323.7350651486395,[],"[640, 360]",ColorTask,11.0,19.0,,,HRV,HRV_0080,2022-11-30 18:03:57
,wl-rdm,27,130724,0.0-6.19-0.19,0.0,28.0,,,,,,,[],,,,,,56.4,1.0,i,1.0,True,1313.1000000089407,79.0,60.0,40.0,False,,381.66880136800506,[],"[640, 360]",ColorTask,12.0,20.0,,,HRV,HRV_0080,2022-11-30 18:03:57
,wl-rdm,28,133439,0.0-6.20-0.20,0.0,29.0,,,,,,,[],,,,,,50.0,0.0,u,0.0,True,1445.7999999821186,87.0,60.0,40.0,False,,205.7751663602082,[],"[640, 360]",ColorTask,13.0,21.0,,,HRV,HRV_0080,2022-11-30 18:03:57
,wl-rdm,29,135588,0.0-6.21-0.21,0.0,30.0,,,,,,,[],,,,,,50.0,1.0,u,0.0,False,843.2999999970198,51.0,60.0,40.0,False,,226.73906725181837,[],"[640, 360]",ColorTask,12.0,22.0,,,HRV,HRV_0080,2022-11-30 18:03:57
,wl-rdm,30,137670,0.0-6.22-0.22,0.0,31.0,,,,,,,[],,,,,,73.6,0.0,u,0.0,True,754.9000000059605,46.0,60.0,40.0,False,,261.4970944275194,[],"[640, 360]",ColorTask,13.0,23.0,,,HRV,HRV_0080,2022-11-30 18:03:57
,wl-rdm,31,140285,0.0-6.23-0.23,0.0,32.0,,,,,,,[],,,,,,50.0,0.0,u,0.0,True,1317.8999999910593,80.0,60.0,40.0,False,,224.80393021131673,[],"[640, 360]",ColorTask,14.0,24.0,,,HRV,HRV_0080,2022-11-30 18:03:57
,wl-rdm,32,142467,0.0-6.24-0.24,0.0,33.0,,,,,,,[],,,,,,73.6,1.0,i,1.0,True,819.8000000119209,50.0,60.0,40.0,False,,275.2936920904892,[],"[640, 360]",ColorTask,15.0,25.0,,,HRV,HRV_0080,2022-11-30 18:03:57
,wl-rdm,33,144416,0.0-6.25-0.25,0.0,34.0,,,,,,,[],,,,,,62.5,1.0,i,1.0,True,618.2999999970198,38.0,60.0,40.0,False,,240.87285559083983,[],"[640, 360]",ColorTask,16.0,26.0,,,HRV,HRV_0080,2022-11-30 18:03:57
,wl-rdm,34,146465,0.0-6.26-0.26,0.0,35.0,,,,,,,[],,,,,,62.5,1.0,i,1.0,True,730.9000000059605,44.0,60.0,40.0,False,,234.96024366732306,[],"[640, 360]",ColorTask,17.0,27.0,,,HRV,HRV_0080,2022-11-30 18:03:57
,wl-rdm,35,148780,0.0-6.27-0.27,0.0,36.0,,,,,,,[],,,,,,73.6,0.0,u,0.0,True,965.0,58.0,60.0,40.0,False,,251.54771834662327,[],"[640, 360]",ColorTask,18.0,28.0,,,HRV,HRV_0080,2022-11-30 18:03:57
,wl-rdm,36,150746,0.0-6.28-0.28,0.0,37.0,,,,,,,[],,,,,,73.6,1.0,i,1.0,True,627.7000000178814,38.0,60.0,40.0,False,,259.29679509499414,[],"[640, 360]",ColorTask,19.0,29.0,,,HRV,HRV_0080,2022-11-30 18:03:57
,wl-rdm,37,152961,0.0-6.29-0.29,0.0,38.0,,,,,,,[],,,,,,53.2,0.0,u,0.0,True,903.5,55.0,60.0,40.0,False,,230.7442761932721,[],"[640, 360]",ColorTask,20.0,30.0,,,HRV,HRV_0080,2022-11-30 18:03:57
,wl-rdm,38,155843,0.0-6.30-0.30,0.0,39.0,,,,,,,[],,,,,,50.0,1.0,u,0.0,False,1591.7999999821186,96.0,60.0,40.0,False,,208.02828276711242,[],"[640, 360]",ColorTask,19.0,31.0,,,HRV,HRV_0080,2022-11-30 18:03:57
,wl-rdm,39,158974,0.0-6.31-0.31,0.0,40.0,,,,,,,[],,,,,,50.0,1.0,u,0.0,False,1696.2999999970198,102.0,60.0,40.0,False,,381.7611481260635,[],"[640, 360]",ColorTask,18.0,32.0,,,HRV,HRV_0080,2022-11-30 18:03:57
,wl-rdm,40,160990,0.0-6.32-0.32,0.0,41.0,,,,,,,[],,,,,,53.2,1.0,i,1.0,True,620.3999999910593,38.0,60.0,40.0,False,,300.76576397703843,[],"[640, 360]",ColorTask,19.0,33.0,,,HRV,HRV_0080,2022-11-30 18:03:57
,wl-rdm,41,162955,0.0-6.33-0.33,0.0,42.0,,,,,,,[],,,,,,87.9,0.0,u,0.0,True,504.59999999403954,31.0,60.0,40.0,False,,371.2725251056865,[],"[640, 360]",ColorTask,20.0,34.0,,,HRV,HRV_0080,2022-11-30 18:03:57
,wl-rdm,42,164871,0.0-6.34-0.34,0.0,43.0,,,,,,,[],,,,,,87.9,0.0,u,0.0,True,561.9000000059605,34.0,60.0,40.0,False,,275.3855920978905,[],"[640, 360]",ColorTask,21.0,35.0,,,HRV,HRV_0080,2022-11-30 18:03:57
,wl-rdm,43,167720,0.0-6.35-0.35,0.0,44.0,,,,,,,[],,,,,,50.0,1.0,i,1.0,True,1385.7999999970198,84.0,60.0,40.0,False,,369.1587212401139,[],"[640, 360]",ColorTask,22.0,36.0,,,HRV,HRV_0080,2022-11-30 18:03:57
,wl-rdm,44,171518,0.0-6.36-0.36,0.0,45.0,,,,,,,[],,,,,,53.2,1.0,i,1.0,True,2396.6000000089407,144.0,60.0,40.0,False,,341.8942641498596,[],"[640, 360]",ColorTask,23.0,37.0,,,HRV,HRV_0080,2022-11-30 18:03:57
,wl-rdm,45,173950,0.0-6.37-0.37,0.0,46.0,,,,,,,[],,,,,,56.4,0.0,i,1.0,False,1021.1000000089407,62.0,60.0,40.0,False,,345.80984728803,[],"[640, 360]",ColorTask,22.0,38.0,,,HRV,HRV_0080,2022-11-30 18:03:57
,wl-rdm,46,175982,0.0-6.38-0.38,0.0,47.0,,,,,,,[],,,,,,73.6,0.0,u,0.0,True,712.2000000029802,43.0,60.0,40.0,False,,251.89778169433657,[],"[640, 360]",ColorTask,23.0,39.0,,,HRV,HRV_0080,2022-11-30 18:03:57
,wl-rdm,47,178047,0.0-6.39-0.39,0.0,48.0,,,,,,,[],,,,,,73.6,0.0,u,0.0,True,718.2000000029802,44.0,60.0,40.0,False,,260.1209270528225,[],"[640, 360]",ColorTask,24.0,40.0,,,HRV,HRV_0080,2022-11-30 18:03:57
,wl-rdm,48,180146,0.0-6.40-0.40,0.0,49.0,,,,,,,[],,,,,,87.9,1.0,i,1.0,True,640.5999999940395,39.0,60.0,40.0,False,,386.93629394405315,[],"[640, 360]",ColorTask,25.0,41.0,,,HRV,HRV_0080,2022-11-30 18:03:57
,wl-rdm,49,183628,0.0-6.41-0.41,0.0,50.0,,,,,,,[],,,,,,50.0,1.0,u,0.0,False,2195.5,132.0,60.0,40.0,False,,200.96809150440473,[],"[640, 360]",ColorTask,24.0,42.0,,,HRV,HRV_0080,2022-11-30 18:03:57
,wl-rdm,50,185576,0.0-6.42-0.42,0.0,51.0,,,,,,,[],,,,,,87.9,0.0,u,0.0,True,580.9000000059605,35.0,60.0,40.0,False,,294.0590836001401,[],"[640, 360]",ColorTask,25.0,43.0,,,HRV,HRV_0080,2022-11-30 18:03:57
,wl-rdm,51,187392,0.0-6.43-0.43,0.0,52.0,,,,,,,[],,,,,,73.6,1.0,i,1.0,True,418.20000000298023,26.0,60.0,40.0,False,,300.18794299338504,[],"[640, 360]",ColorTask,26.0,44.0,,,HRV,HRV_0080,2022-11-30 18:03:57
,wl-rdm,52,189158,0.0-6.44-0.44,0.0,53.0,,,,,,,[],,,,,,87.9,1.0,i,1.0,True,478.70000000298023,29.0,60.0,40.0,False,,218.5139226454748,[],"[640, 360]",ColorTask,27.0,45.0,,,HRV,HRV_0080,2022-11-30 18:03:57
,wl-rdm,53,191157,0.0-6.45-0.45,0.0,54.0,,,,,,,[],,,,,,73.6,0.0,u,0.0,True,545.7999999970198,33.0,60.0,40.0,False,,390.8019919983152,[],"[640, 360]",ColorTask,28.0,46.0,,,HRV,HRV_0080,2022-11-30 18:03:57
,wl-rdm,54,193039,0.0-6.46-0.46,0.0,55.0,,,,,,,[],,,,,,56.4,1.0,i,1.0,True,571.6999999880791,35.0,60.0,40.0,False,,224.67471925376586,[],"[640, 360]",ColorTask,29.0,47.0,,,HRV,HRV_0080,2022-11-30 18:03:57
,wl-rdm,55,195239,0.0-6.47-0.47,0.0,56.0,,,,,,,[],,,,,,62.5,0.0,u,0.0,True,930.9000000059605,56.0,60.0,40.0,False,,212.04372766554786,[],"[640, 360]",ColorTask,30.0,48.0,,,HRV,HRV_0080,2022-11-30 18:03:57
,wl-rdm,56,197287,0.0-6.48-0.48,0.0,57.0,,,,,,,[],,,,,,73.6,0.0,u,0.0,True,638.4000000059605,39.0,60.0,40.0,False,,349.72088120580463,[],"[640, 360]",ColorTask,31.0,49.0,,,HRV,HRV_0080,2022-11-30 18:03:57
,wl-rdm,57,199152,0.0-6.49-0.49,0.0,58.0,,,,,,,[],,,,,,73.6,1.0,i,1.0,True,581.5000000149012,35.0,60.0,40.0,False,,223.57283208095066,[],"[640, 360]",ColorTask,32.0,50.0,,,HRV,HRV_0080,2022-11-30 18:03:57
,wl-rdm,58,201118,0.0-6.50-0.50,0.0,59.0,,,,,,,[],,,,,,62.5,0.0,u,0.0,True,509.69999998807907,31.0,60.0,40.0,False,,385.48965389152056,[],"[640, 360]",ColorTask,33.0,51.0,,,HRV,HRV_0080,2022-11-30 18:03:57
,wl-rdm,59,203317,0.0-6.51-0.51,0.0,60.0,,,,,,,[],,,,,,50.0,1.0,i,1.0,True,867.3000000119209,53.0,60.0,40.0,False,,258.62261571598634,[],"[640, 360]",ColorTask,34.0,52.0,,,HRV,HRV_0080,2022-11-30 18:03:57
,wl-rdm,60,205298,0.0-6.52-0.52,0.0,61.0,,,,,,,[],,,,,,53.2,1.0,i,1.0,True,697.7999999970198,42.0,60.0,40.0,False,,208.8509654918409,[],"[640, 360]",ColorTask,35.0,53.0,,,HRV,HRV_0080,2022-11-30 18:03:57
,wl-rdm,61,207997,0.0-6.53-0.53,0.0,62.0,,,,,,,[],,,,,,56.4,0.0,u,0.0,True,1286.1000000089407,78.0,60.0,40.0,False,,329.75750373705876,[],"[640, 360]",ColorTask,36.0,54.0,,,HRV,HRV_0080,2022-11-30 18:03:57
,wl-rdm,62,210762,0.0-6.54-0.54,0.0,63.0,,,,,,,[],,,,,,62.5,1.0,i,1.0,True,1333.7999999970198,81.0,60.0,40.0,False,,343.33239536926567,[],"[640, 360]",ColorTask,37.0,55.0,,,HRV,HRV_0080,2022-11-30 18:03:57
,wl-rdm,63,212944,0.0-6.55-0.55,0.0,64.0,,,,,,,[],,,,,,56.4,0.0,i,1.0,False,760.7999999970198,46.0,60.0,40.0,False,,356.21352563069524,[],"[640, 360]",ColorTask,36.0,56.0,,,HRV,HRV_0080,2022-11-30 18:03:57
,wl-rdm,64,215027,0.0-6.56-0.56,0.0,65.0,,,,,,,[],,,,,,62.5,1.0,i,1.0,True,660.3999999910593,40.0,60.0,40.0,False,,337.56556686568825,[],"[640, 360]",ColorTask,37.0,57.0,,,HRV,HRV_0080,2022-11-30 18:03:57
,wl-rdm,65,217226,0.0-6.57-0.57,0.0,66.0,,,,,,,[],,,,,,53.2,0.0,i,1.0,False,809.0999999940395,49.0,60.0,40.0,False,,315.17115688640126,[],"[640, 360]",ColorTask,36.0,58.0,,,HRV,HRV_0080,2022-11-30 18:03:57
,wl-rdm,66,219692,0.0-6.58-0.58,0.0,67.0,,,,,,,[],,,,,,62.5,1.0,i,1.0,True,1132.1000000089407,68.0,60.0,40.0,False,,280.75480171063566,[],"[640, 360]",ColorTask,37.0,59.0,,,HRV,HRV_0080,2022-11-30 18:03:57
,wl-rdm,67,222473,0.0-6.59-0.59,0.0,68.0,,,,,,,[],,,,,,53.2,1.0,i,1.0,True,1318.8999999910593,80.0,60.0,40.0,False,,399.37264742219384,[],"[640, 360]",ColorTask,38.0,60.0,,,HRV,HRV_0080,2022-11-30 18:03:57
,wl-rdm,68,224838,0.0-6.60-0.60,0.0,69.0,,,,,,,[],,,,,,56.4,1.0,i,1.0,True,1073.2000000029802,65.0,60.0,40.0,False,,206.31957307771407,[],"[640, 360]",ColorTask,39.0,61.0,,,HRV,HRV_0080,2022-11-30 18:03:57
,wl-rdm,69,227254,0.0-6.61-0.61,0.0,70.0,,,,,,,[],,,,,,56.4,0.0,u,0.0,True,1028.2999999970198,62.0,60.0,40.0,False,,314.9943802821956,[],"[640, 360]",ColorTask,40.0,62.0,,,HRV,HRV_0080,2022-11-30 18:03:57
,wl-rdm,70,229653,0.0-6.62-0.62,0.0,71.0,,,,,,,[],,,,,,53.2,1.0,i,1.0,True,1035.7999999970198,63.0,60.0,40.0,False,,299.23890153494926,[],"[640, 360]",ColorTask,41.0,63.0,,,HRV,HRV_0080,2022-11-30 18:03:57
,wl-rdm,71,231484,0.0-6.63-0.63,0.0,72.0,,,,,,,[],,,,,,87.9,1.0,i,1.0,True,522.2000000029802,32.0,60.0,40.0,False,,223.7472578972022,[],"[640, 360]",ColorTask,42.0,64.0,,,HRV,HRV_0080,2022-11-30 18:03:57
,wl-rdm,72,233616,0.0-6.64-0.64,0.0,73.0,,,,,,,[],,,,,,62.5,0.0,u,0.0,True,783.2999999970198,47.0,60.0,40.0,False,,281.36766010762904,[],"[640, 360]",ColorTask,43.0,65.0,,,HRV,HRV_0080,2022-11-30 18:03:57
,wl-rdm,73,236066,0.0-6.65-0.65,0.0,74.0,,,,,,,[],,,,,,62.5,1.0,i,1.0,True,1006.2000000029802,61.0,60.0,40.0,False,,355.113615636133,[],"[640, 360]",ColorTask,44.0,66.0,,,HRV,HRV_0080,2022-11-30 18:03:57
,wl-rdm,74,238331,0.0-6.66-0.66,0.0,75.0,,,,,,,[],,,,,,56.4,0.0,u,0.0,True,834.9000000059605,51.0,60.0,40.0,False,,342.52189519804324,[],"[640, 360]",ColorTask,45.0,67.0,,,HRV,HRV_0080,2022-11-30 18:03:57
,wl-rdm,75,240813,0.0-6.67-0.67,0.0,76.0,,,,,,,[],,,,,,50.0,0.0,i,1.0,False,1035.6000000089407,63.0,60.0,40.0,False,,363.71585307673433,[],"[640, 360]",ColorTask,44.0,68.0,,,HRV,HRV_0080,2022-11-30 18:03:57
,wl-rdm,76,244061,0.0-6.68-0.68,0.0,77.0,,,,,,,[],,,,,,56.4,1.0,u,0.0,False,1821.7000000029802,110.0,60.0,40.0,False,,336.6791418970897,[],"[640, 360]",ColorTask,43.0,69.0,,,HRV,HRV_0080,2022-11-30 18:03:57
,wl-rdm,77,246193,0.0-6.69-0.69,0.0,78.0,,,,,,,[],,,,,,53.2,1.0,i,1.0,True,717.6000000089407,44.0,60.0,40.0,False,,324.58606074828396,[],"[640, 360]",ColorTask,44.0,70.0,,,HRV,HRV_0080,2022-11-30 18:03:57
,wl-rdm,78,248308,0.0-6.70-0.70,0.0,79.0,,,,,,,[],,,,,,73.6,0.0,u,0.0,True,641.8999999910593,39.0,60.0,40.0,False,,399.19738072412906,[],"[640, 360]",ColorTask,45.0,71.0,,,HRV,HRV_0080,2022-11-30 18:03:57
,wl-rdm,79,250390,0.0-6.71-0.71,0.0,80.0,,,,,,,[],,,,,,87.9,1.0,i,1.0,True,706.6000000089407,43.0,60.0,40.0,False,,299.1446258510671,[],"[640, 360]",ColorTask,46.0,72.0,,,HRV,HRV_0080,2022-11-30 18:03:57
,wl-rdm,80,252457,0.0-6.72-0.72,0.0,81.0,,,,,,,[],,,,,,73.6,1.0,i,1.0,True,771.8999999910593,47.0,60.0,40.0,False,,216.5866607565075,[],"[640, 360]",ColorTask,47.0,73.0,,,HRV,HRV_0080,2022-11-30 18:03:57
,wl-rdm,81,255388,0.0-6.73-0.73,0.0,82.0,,,,,,,[],,,,,,53.2,0.0,u,0.0,True,1512.300000011921,91.0,60.0,40.0,False,,351.3787516515895,[],"[640, 360]",ColorTask,48.0,74.0,,,HRV,HRV_0080,2022-11-30 18:03:57
,wl-rdm,82,257953,0.0-6.74-0.74,0.0,83.0,,,,,,,[],,,,,,53.2,1.0,u,0.0,False,1173.9000000059605,71.0,60.0,40.0,False,,305.70822194174326,[],"[640, 360]",ColorTask,47.0,75.0,,,HRV,HRV_0080,2022-11-30 18:03:57
,wl-rdm,83,260252,0.0-6.75-0.75,0.0,84.0,,,,,,,[],,,,,,62.5,0.0,u,0.0,True,952.8000000119209,58.0,60.0,40.0,False,,259.990345639243,[],"[640, 360]",ColorTask,48.0,76.0,,,HRV,HRV_0080,2022-11-30 18:03:57
,wl-rdm,84,262301,0.0-6.76-0.76,0.0,85.0,,,,,,,[],,,,,,53.2,0.0,u,0.0,True,719.7000000029802,44.0,60.0,40.0,False,,249.54566976815036,[],"[640, 360]",ColorTask,49.0,77.0,,,HRV,HRV_0080,2022-11-30 18:03:57
,wl-rdm,85,265083,0.0-6.77-0.77,0.0,86.0,,,,,,,[],,,,,,50.0,0.0,i,1.0,False,1334.0999999940395,81.0,60.0,40.0,False,,379.0227684000123,[],"[640, 360]",ColorTask,48.0,78.0,,,HRV,HRV_0080,2022-11-30 18:03:57
,wl-rdm,86,267048,0.0-6.78-0.78,0.0,87.0,,,,,,,[],,,,,,62.5,0.0,u,0.0,True,655.1000000089407,40.0,60.0,40.0,False,,227.6527907780933,[],"[640, 360]",ColorTask,49.0,79.0,,,HRV,HRV_0080,2022-11-30 18:03:57
,wl-rdm,87,269214,0.0-6.79-0.79,0.0,88.0,,,,,,,[],,,,,,62.5,0.0,u,0.0,True,736.8999999910593,45.0,60.0,40.0,False,,335.8867005122896,[],"[640, 360]",ColorTask,50.0,80.0,,,HRV,HRV_0080,2022-11-30 18:03:57
,wl-rdm,88,271462,0.0-6.80-0.80,0.0,89.0,,,,,,,[],,,,,,62.5,1.0,i,1.0,True,893.0,54.0,60.0,40.0,False,,290.21991750849367,[],"[640, 360]",ColorTask,51.0,81.0,,,HRV,HRV_0080,2022-11-30 18:03:57
,wl-rdm,89,273611,0.0-6.81-0.81,0.0,90.0,,,,,,,[],,,,,,87.9,1.0,i,1.0,True,740.0,45.0,60.0,40.0,False,,328.49535763816203,[],"[640, 360]",ColorTask,52.0,82.0,,,HRV,HRV_0080,2022-11-30 18:03:57
,wl-rdm,90,276843,0.0-6.82-0.82,0.0,91.0,,,,,,,[],,,,,,62.5,1.0,u,0.0,False,1788.4000000059605,108.0,60.0,40.0,False,,363.30242450759306,[],"[640, 360]",ColorTask,51.0,83.0,,,HRV,HRV_0080,2022-11-30 18:03:57
,wl-rdm,91,278892,0.0-6.83-0.83,0.0,92.0,,,,,,,[],,,,,,62.5,1.0,i,1.0,True,727.0999999940395,44.0,60.0,40.0,False,,238.44129327891574,[],"[640, 360]",ColorTask,52.0,84.0,,,HRV,HRV_0080,2022-11-30 18:03:57
,wl-rdm,92,280791,0.0-6.84-0.84,0.0,93.0,,,,,,,[],,,,,,87.9,0.0,u,0.0,True,599.2000000029802,36.0,60.0,40.0,False,,234.12087787161954,[],"[640, 360]",ColorTask,53.0,85.0,,,HRV,HRV_0080,2022-11-30 18:03:57
,wl-rdm,93,283606,0.0-6.85-0.85,0.0,94.0,,,,,,,[],,,,,,50.0,0.0,i,1.0,False,1463.8999999910593,88.0,60.0,40.0,False,,284.5332458676842,[],"[640, 360]",ColorTask,52.0,86.0,,,HRV,HRV_0080,2022-11-30 18:03:57
,wl-rdm,94,286188,0.0-6.86-0.86,0.0,95.0,,,,,,,[],,,,,,56.4,0.0,u,0.0,True,1307.0,79.0,60.0,40.0,False,,202.9936154790205,[],"[640, 360]",ColorTask,53.0,87.0,,,HRV,HRV_0080,2022-11-30 18:03:57
,wl-rdm,95,288270,0.0-6.87-0.87,0.0,96.0,,,,,,,[],,,,,,87.9,1.0,i,1.0,True,630.2999999970198,38.0,60.0,40.0,False,,386.94366147640767,[],"[640, 360]",ColorTask,54.0,88.0,,,HRV,HRV_0080,2022-11-30 18:03:57
,wl-rdm,96,290269,0.0-6.88-0.88,0.0,97.0,,,,,,,[],,,,,,56.4,1.0,i,1.0,True,678.7999999970198,41.0,60.0,40.0,False,,241.54107095381877,[],"[640, 360]",ColorTask,55.0,89.0,,,HRV,HRV_0080,2022-11-30 18:03:57
,wl-rdm,97,292484,0.0-6.89-0.89,0.0,98.0,,,,,,,[],,,,,,73.6,1.0,i,1.0,True,892.1999999880791,54.0,60.0,40.0,False,,241.49100000709788,[],"[640, 360]",ColorTask,56.0,90.0,,,HRV,HRV_0080,2022-11-30 18:03:57
,wl-rdm,98,294883,0.0-6.90-0.90,0.0,99.0,,,,,,,[],,,,,,50.0,0.0,u,0.0,True,1017.8000000119209,62.0,60.0,40.0,False,,290.20702466517594,[],"[640, 360]",ColorTask,57.0,91.0,,,HRV,HRV_0080,2022-11-30 18:03:57
,wl-rdm,99,296899,0.0-6.91-0.91,0.0,100.0,,,,,,,[],,,,,,50.0,1.0,i,1.0,True,690.6999999880791,42.0,60.0,40.0,False,,260.49268600172115,[],"[640, 360]",ColorTask,58.0,92.0,,,HRV,HRV_0080,2022-11-30 18:03:57
,wl-rdm,100,300063,0.0-6.92-0.92,0.0,101.0,,,,,,,[],,,,,,56.4,1.0,u,0.0,False,1777.5999999940395,107.0,60.0,40.0,False,,301.57712747949995,[],"[640, 360]",ColorTask,57.0,93.0,,,HRV,HRV_0080,2022-11-30 18:03:57
,wl-rdm,101,302062,0.0-6.93-0.93,0.0,102.0,,,,,,,[],,,,,,73.6,1.0,i,1.0,True,665.0,40.0,60.0,40.0,False,,252.22845142100186,[],"[640, 360]",ColorTask,58.0,94.0,,,HRV,HRV_0080,2022-11-30 18:03:57
,wl-rdm,102,304145,0.0-6.94-0.94,0.0,103.0,,,,,,,[],,,,,,73.6,0.0,u,0.0,True,686.3000000119209,42.0,60.0,40.0,False,,309.03657141058255,[],"[640, 360]",ColorTask,59.0,95.0,,,HRV,HRV_0080,2022-11-30 18:03:57
,wl-rdm,103,306027,0.0-6.95-0.95,0.0,104.0,,,,,,,[],,,,,,87.9,0.0,u,0.0,True,597.7999999970198,36.0,60.0,40.0,False,,207.2143669086331,[],"[640, 360]",ColorTask,60.0,96.0,,,HRV,HRV_0080,2022-11-30 18:03:57
,wl-rdm,104,308092,0.0-6.96-0.96,0.0,105.0,,,,,,,[],,,,,,87.9,1.0,i,1.0,True,731.1000000089407,44.0,60.0,40.0,False,,257.2396774047852,[],"[640, 360]",ColorTask,61.0,97.0,,,HRV,HRV_0080,2022-11-30 18:03:57
,wl-rdm,105,310157,0.0-6.97-0.97,0.0,106.0,,,,,,,[],,,,,,87.9,0.0,i,1.0,False,725.5,44.0,60.0,40.0,False,,265.67317781634796,[],"[640, 360]",ColorTask,60.0,98.0,,,HRV,HRV_0080,2022-11-30 18:03:57
,wl-rdm,106,312506,0.0-6.98-0.98,0.0,107.0,,,,,,,[],,,,,,53.2,0.0,u,0.0,True,979.1999999880791,59.0,60.0,40.0,False,,311.0401305301487,[],"[640, 360]",ColorTask,61.0,99.0,,,HRV,HRV_0080,2022-11-30 18:03:57
,wl-rdm,107,315655,0.0-6.99-0.99,0.0,108.0,,,,,,,[],,,,,,53.2,1.0,u,0.0,False,1791.300000011921,108.0,60.0,40.0,False,,298.58196528326675,[],"[640, 360]",ColorTask,60.0,100.0,,,HRV,HRV_0080,2022-11-30 18:03:57
,wl-rdm,108,317804,0.0-6.100-0.100,0.0,109.0,,,,,,,[],,,,,,50.0,0.0,i,1.0,False,830.2000000029802,50.0,60.0,40.0,False,,245.2462461601568,[],"[640, 360]",ColorTask,59.0,101.0,,,HRV,HRV_0080,2022-11-30 18:03:57
,wl-rdm,109,319953,0.0-6.101-0.101,0.0,110.0,,,,,,,[],,,,,,50.0,1.0,u,0.0,False,811.5,49.0,60.0,40.0,False,,259.82545670242047,[],"[640, 360]",ColorTask,58.0,102.0,,,HRV,HRV_0080,2022-11-30 18:03:57
,wl-rdm,110,322135,0.0-6.102-0.102,0.0,111.0,,,,,,,[],,,,,,56.4,1.0,i,1.0,True,870.5000000149012,53.0,60.0,40.0,False,,249.41176208229604,[],"[640, 360]",ColorTask,59.0,103.0,,,HRV,HRV_0080,2022-11-30 18:03:57
,wl-rdm,111,324583,0.0-6.103-0.103,0.0,112.0,,,,,,,[],,,,,,56.4,1.0,u,0.0,False,1013.2000000029802,61.0,60.0,40.0,False,,372.0860056221833,[],"[640, 360]",ColorTask,58.0,104.0,,,HRV,HRV_0080,2022-11-30 18:03:57
,wl-rdm,112,326631,0.0-6.104-0.104,0.0,113.0,,,,,,,[],,,,,,50.0,0.0,i,1.0,False,717.9000000059605,44.0,60.0,40.0,False,,246.13220787180694,[],"[640, 360]",ColorTask,57.0,105.0,,,HRV,HRV_0080,2022-11-30 18:03:57
,wl-rdm,113,329780,0.0-6.105-0.105,0.0,114.0,,,,,,,[],,,,,,56.4,0.0,u,0.0,True,1804.1000000089407,109.0,60.0,40.0,False,,261.47044196111335,[],"[640, 360]",ColorTask,58.0,106.0,,,HRV,HRV_0080,2022-11-30 18:03:57
,wl-rdm,114,331846,0.0-6.106-0.106,0.0,115.0,,,,,,,[],,,,,,53.2,0.0,u,0.0,True,679.4000000059605,41.0,60.0,40.0,False,,315.0826829992004,[],"[640, 360]",ColorTask,59.0,107.0,,,HRV,HRV_0080,2022-11-30 18:03:57
,wl-rdm,115,334778,0.0-6.107-0.107,0.0,116.0,,,,,,,[],,,,,,50.0,0.0,i,1.0,False,1571.3999999910593,95.0,60.0,40.0,False,,275.81271446229965,[],"[640, 360]",ColorTask,58.0,108.0,,,HRV,HRV_0080,2022-11-30 18:03:57
,wl-html-keyboard-response,116,343097,0.0-7.0-0.0,1.0,117.0,,,,,,,,6305.899999991059,1.0,0,,,,,,,,,,,,,,,,,,,,,,HRV,HRV_0080,2022-11-30 18:03:57
,wl-rdm,117,345179,0.0-8.0-0.0,1.0,118.0,,,,,,,[],,,,,,56.4,0.0,i,1.0,False,787.7999999970198,48.0,60.0,40.0,False,,224.36139601536047,[],"[640, 360]",ColorTask,57.0,1.0,,,HRV,HRV_0080,2022-11-30 18:03:57
,wl-rdm,118,348112,0.0-8.1-0.1,1.0,119.0,,,,,,,[],,,,,,50.0,0.0,i,1.0,False,1542.9000000059605,93.0,60.0,40.0,False,,323.7856987742438,[],"[640, 360]",ColorTask,56.0,2.0,,,HRV,HRV_0080,2022-11-30 18:03:57
,wl-rdm,119,350160,0.0-8.2-0.2,1.0,120.0,,,,,,,[],,,,,,73.6,1.0,i,1.0,True,705.0,43.0,60.0,40.0,False,,272.68415939969526,[],"[640, 360]",ColorTask,57.0,3.0,,,HRV,HRV_0080,2022-11-30 18:03:57
,wl-rdm,120,352342,0.0-8.3-0.3,1.0,121.0,,,,,,,[],,,,,,73.6,0.0,u,0.0,True,863.3999999910593,52.0,60.0,40.0,False,,248.68581587501475,[],"[640, 360]",ColorTask,58.0,4.0,,,HRV,HRV_0080,2022-11-30 18:03:57
,wl-rdm,121,355074,0.0-8.4-0.4,1.0,122.0,,,,,,,[],,,,,,50.0,1.0,u,0.0,False,1410.2000000029802,85.0,60.0,40.0,False,,263.0317001095087,[],"[640, 360]",ColorTask,57.0,5.0,,,HRV,HRV_0080,2022-11-30 18:03:57
,wl-rdm,122,357107,0.0-8.5-0.5,1.0,123.0,,,,,,,[],,,,,,53.2,0.0,i,1.0,False,661.7999999970198,40.0,60.0,40.0,False,,289.79049595318054,[],"[640, 360]",ColorTask,56.0,6.0,,,HRV,HRV_0080,2022-11-30 18:03:57
,wl-rdm,123,359289,0.0-8.6-0.6,1.0,124.0,,,,,,,[],,,,,,56.4,0.0,i,1.0,False,889.5999999940395,54.0,60.0,40.0,False,,200.5579459763162,[],"[640, 360]",ColorTask,55.0,7.0,,,HRV,HRV_0080,2022-11-30 18:03:57
,wl-rdm,124,361703,0.0-8.7-0.7,1.0,125.0,,,,,,,[],,,,,,62.5,1.0,i,1.0,True,1038.2000000029802,63.0,60.0,40.0,False,,298.6144403375986,[],"[640, 360]",ColorTask,56.0,8.0,,,HRV,HRV_0080,2022-11-30 18:03:57
,wl-rdm,125,363836,0.0-8.8-0.8,1.0,126.0,,,,,,,[],,,,,,53.2,1.0,i,1.0,True,763.2000000178814,46.0,60.0,40.0,False,,290.3778139088478,[],"[640, 360]",ColorTask,57.0,9.0,,,HRV,HRV_0080,2022-11-30 18:03:57
,wl-rdm,126,365735,0.0-8.9-0.9,1.0,127.0,,,,,,,[],,,,,,62.5,0.0,u,0.0,True,631.5999999940395,38.0,60.0,40.0,False,,203.69184539223065,[],"[640, 360]",ColorTask,58.0,10.0,,,HRV,HRV_0080,2022-11-30 18:03:57
,wl-rdm,127,367733,0.0-8.10-0.10,1.0,128.0,,,,,,,[],,,,,,62.5,0.0,u,0.0,True,621.5999999940395,38.0,60.0,40.0,False,,297.4443450370742,[],"[640, 360]",ColorTask,59.0,11.0,,,HRV,HRV_0080,2022-11-30 18:03:57
,wl-rdm,128,370450,0.0-8.11-0.11,1.0,129.0,,,,,,,[],,,,,,56.4,1.0,u,0.0,False,1285.5,78.0,60.0,40.0,False,,366.06914246903983,[],"[640, 360]",ColorTask,58.0,12.0,,,HRV,HRV_0080,2022-11-30 18:03:57
,wl-rdm,129,372399,0.0-8.12-0.12,1.0,130.0,,,,,,,[],,,,,,56.4,1.0,i,1.0,True,623.2000000029802,38.0,60.0,40.0,False,,263.28626734845903,[],"[640, 360]",ColorTask,59.0,13.0,,,HRV,HRV_0080,2022-11-30 18:03:57
,wl-rdm,130,374497,0.0-8.13-0.13,1.0,131.0,,,,,,,[],,,,,,73.6,0.0,u,0.0,True,774.9000000059605,47.0,60.0,40.0,False,,248.13076213450637,[],"[640, 360]",ColorTask,60.0,14.0,,,HRV,HRV_0080,2022-11-30 18:03:57
,wl-rdm,131,378095,0.0-8.14-0.14,1.0,132.0,,,,,,,[],,,,,,50.0,1.0,u,0.0,False,2143.2000000029802,129.0,60.0,40.0,False,,386.1916723405681,[],"[640, 360]",ColorTask,59.0,15.0,,,HRV,HRV_0080,2022-11-30 18:03:57
,wl-rdm,132,380293,0.0-8.15-0.15,1.0,133.0,,,,,,,[],,,,,,73.6,1.0,i,1.0,True,743.7999999970198,45.0,60.0,40.0,False,,395.99450270551574,[],"[640, 360]",ColorTask,60.0,16.0,,,HRV,HRV_0080,2022-11-30 18:03:57
,wl-rdm,133,384408,0.0-8.16-0.16,1.0,134.0,,,,,,,[],,,,,,50.0,1.0,i,1.0,True,2817.5,170.0,60.0,40.0,False,,205.89313793466724,[],"[640, 360]",ColorTask,61.0,17.0,,,HRV,HRV_0080,2022-11-30 18:03:57
,wl-rdm,134,386373,0.0-8.17-0.17,1.0,135.0,,,,,,,[],,,,,,50.0,1.0,u,0.0,False,630.2999999970198,38.0,60.0,40.0,False,,252.9432239277595,[],"[640, 360]",ColorTask,60.0,18.0,,,HRV,HRV_0080,2022-11-30 18:03:57
,wl-rdm,135,388289,0.0-8.18-0.18,1.0,136.0,,,,,,,[],,,,,,56.4,1.0,u,0.0,False,513.0,31.0,60.0,40.0,False,,331.27318343558443,[],"[640, 360]",ColorTask,59.0,19.0,,,HRV,HRV_0080,2022-11-30 18:03:57
,wl-rdm,136,390238,0.0-8.19-0.19,1.0,137.0,,,,,,,[],,,,,,62.5,0.0,u,0.0,True,654.7999999821186,40.0,60.0,40.0,False,,209.22990503315395,[],"[640, 360]",ColorTask,60.0,20.0,,,HRV,HRV_0080,2022-11-30 18:03:57
,wl-rdm,137,392387,0.0-8.20-0.20,1.0,138.0,,,,,,,[],,,,,,62.5,1.0,i,1.0,True,815.6999999880791,49.0,60.0,40.0,False,,276.60871770639716,[],"[640, 360]",ColorTask,61.0,21.0,,,HRV,HRV_0080,2022-11-30 18:03:57
,wl-rdm,138,395536,0.0-8.21-0.21,1.0,139.0,,,,,,,[],,,,,,56.4,0.0,u,0.0,True,1747.2000000029802,105.0,60.0,40.0,False,,320.89943058190687,[],"[640, 360]",ColorTask,62.0,22.0,,,HRV,HRV_0080,2022-11-30 18:03:57
,wl-rdm,139,398084,0.0-8.22-0.22,1.0,140.0,,,,,,,[],,,,,,50.0,0.0,u,0.0,True,1088.7000000029802,66.0,60.0,40.0,False,,367.0841629936793,[],"[640, 360]",ColorTask,63.0,23.0,,,HRV,HRV_0080,2022-11-30 18:03:57
,wl-rdm,140,400250,0.0-8.23-0.23,1.0,141.0,,,,,,,[],,,,,,87.9,1.0,i,1.0,True,741.4000000059605,45.0,60.0,40.0,False,,333.4296606007688,[],"[640, 360]",ColorTask,64.0,24.0,,,HRV,HRV_0080,2022-11-30 18:03:57
,wl-rdm,141,402298,0.0-8.24-0.24,1.0,142.0,,,,,,,[],,,,,,53.2,0.0,u,0.0,True,676.4000000059605,41.0,60.0,40.0,False,,301.6682101039713,[],"[640, 360]",ColorTask,65.0,25.0,,,HRV,HRV_0080,2022-11-30 18:03:57
,wl-rdm,142,404297,0.0-8.25-0.25,1.0,143.0,,,,,,,[],,,,,,62.5,0.0,u,0.0,True,653.1000000089407,40.0,60.0,40.0,False,,259.62144901651806,[],"[640, 360]",ColorTask,66.0,26.0,,,HRV,HRV_0080,2022-11-30 18:03:57
,wl-rdm,143,406363,0.0-8.26-0.26,1.0,144.0,,,,,,,[],,,,,,50.0,1.0,i,1.0,True,706.0000000149012,43.0,60.0,40.0,False,,283.9701025975824,[],"[640, 360]",ColorTask,67.0,27.0,,,HRV,HRV_0080,2022-11-30 18:03:57
,wl-rdm,144,408644,0.0-8.27-0.27,1.0,145.0,,,,,,,[],,,,,,53.2,0.0,u,0.0,True,929.1000000089407,56.0,60.0,40.0,False,,278.7119091564263,[],"[640, 360]",ColorTask,68.0,28.0,,,HRV,HRV_0080,2022-11-30 18:03:57
,wl-rdm,145,410777,0.0-8.28-0.28,1.0,146.0,,,,,,,[],,,,,,62.5,1.0,i,1.0,True,810.9000000059605,49.0,60.0,40.0,False,,242.22322239372784,[],"[640, 360]",ColorTask,69.0,29.0,,,HRV,HRV_0080,2022-11-30 18:03:57
,wl-rdm,146,413792,0.0-8.29-0.29,1.0,147.0,,,,,,,[],,,,,,56.4,1.0,u,0.0,False,1654.5,100.0,60.0,40.0,False,,299.70884560500895,[],"[640, 360]",ColorTask,68.0,30.0,,,HRV,HRV_0080,2022-11-30 18:03:57
,wl-rdm,147,415823,0.0-8.30-0.30,1.0,148.0,,,,,,,[],,,,,,53.2,1.0,i,1.0,True,718.9999999850988,44.0,60.0,40.0,False,,222.26521162137212,[],"[640, 360]",ColorTask,69.0,31.0,,,HRV,HRV_0080,2022-11-30 18:03:57
,wl-rdm,148,418972,0.0-8.31-0.31,1.0,149.0,,,,,,,[],,,,,,62.5,0.0,u,0.0,True,1727.2999999970198,104.0,60.0,40.0,False,,346.85991049464155,[],"[640, 360]",ColorTask,70.0,32.0,,,HRV,HRV_0080,2022-11-30 18:03:57
,wl-rdm,149,421104,0.0-8.32-0.32,1.0,150.0,,,,,,,[],,,,,,62.5,1.0,i,1.0,True,709.2000000029802,43.0,60.0,40.0,False,,336.9082043497243,[],"[640, 360]",ColorTask,71.0,33.0,,,HRV,HRV_0080,2022-11-30 18:03:57
,wl-rdm,150,423120,0.0-8.33-0.33,1.0,151.0,,,,,,,[],,,,,,87.9,0.0,u,0.0,True,586.2999999970198,36.0,60.0,40.0,False,,346.55860473340266,[],"[640, 360]",ColorTask,72.0,34.0,,,HRV,HRV_0080,2022-11-30 18:03:57
,wl-rdm,151,425169,0.0-8.34-0.34,1.0,152.0,,,,,,,[],,,,,,87.9,1.0,i,1.0,True,613.7000000178814,37.0,60.0,40.0,False,,379.66979836801,[],"[640, 360]",ColorTask,73.0,35.0,,,HRV,HRV_0080,2022-11-30 18:03:57
,wl-rdm,152,427701,0.0-8.35-0.35,1.0,153.0,,,,,,,[],,,,,,50.0,0.0,u,0.0,True,1069.199999988079,65.0,60.0,40.0,False,,369.96395785563425,[],"[640, 360]",ColorTask,74.0,36.0,,,HRV,HRV_0080,2022-11-30 18:03:57
,wl-rdm,153,429983,0.0-8.36-0.36,1.0,154.0,,,,,,,[],,,,,,56.4,1.0,i,1.0,True,834.2999999970198,51.0,60.0,40.0,False,,368.47840225363143,[],"[640, 360]",ColorTask,75.0,37.0,,,HRV,HRV_0080,2022-11-30 18:03:57
,wl-rdm,154,431831,0.0-8.37-0.37,1.0,155.0,,,,,,,[],,,,,,73.6,0.0,u,0.0,True,478.29999999701977,29.0,60.0,40.0,False,,287.21076691439896,[],"[640, 360]",ColorTask,76.0,38.0,,,HRV,HRV_0080,2022-11-30 18:03:57
,wl-rdm,155,433730,0.0-8.38-0.38,1.0,156.0,,,,,,,[],,,,,,73.6,1.0,i,1.0,True,572.6999999880791,35.0,60.0,40.0,False,,237.9089050020298,[],"[640, 360]",ColorTask,77.0,39.0,,,HRV,HRV_0080,2022-11-30 18:03:57
,wl-rdm,156,436029,0.0-8.39-0.39,1.0,157.0,,,,,,,[],,,,,,53.2,1.0,i,1.0,True,861.7999999970198,52.0,60.0,40.0,False,,380.9715879587336,[],"[640, 360]",ColorTask,78.0,40.0,,,HRV,HRV_0080,2022-11-30 18:03:57
,wl-rdm,157,437977,0.0-8.40-0.40,1.0,158.0,,,,,,,[],,,,,,73.6,0.0,u,0.0,True,540.1000000089407,33.0,60.0,40.0,False,,344.6719210745507,[],"[640, 360]",ColorTask,79.0,41.0,,,HRV,HRV_0080,2022-11-30 18:03:57
,wl-rdm,158,439761,0.0-8.41-0.41,1.0,159.0,,,,,,,[],,,,,,53.2,1.0,i,1.0,True,509.59999999403954,31.0,60.0,40.0,False,,206.10361026628664,[],"[640, 360]",ColorTask,80.0,42.0,,,HRV,HRV_0080,2022-11-30 18:03:57
,wl-rdm,159,441510,0.0-8.42-0.42,1.0,160.0,,,,,,,[],,,,,,87.9,0.0,u,0.0,True,462.70000000298023,28.0,60.0,40.0,False,,232.89077265690656,[],"[640, 360]",ColorTask,81.0,43.0,,,HRV,HRV_0080,2022-11-30 18:03:57
,wl-rdm,160,443759,0.0-8.43-0.43,1.0,161.0,,,,,,,[],,,,,,56.4,1.0,u,0.0,False,925.3999999910593,56.0,60.0,40.0,False,,237.47928799900416,[],"[640, 360]",ColorTask,80.0,44.0,,,HRV,HRV_0080,2022-11-30 18:03:57
,wl-rdm,161,446124,0.0-8.44-0.44,1.0,162.0,,,,,,,[],,,,,,73.6,1.0,i,1.0,True,938.3999999761581,57.0,60.0,40.0,False,,343.4589857104472,[],"[640, 360]",ColorTask,81.0,45.0,,,HRV,HRV_0080,2022-11-30 18:03:57
,wl-rdm,162,449339,0.0-8.45-0.45,1.0,163.0,,,,,,,[],,,,,,50.0,1.0,u,0.0,False,1863.5,112.0,60.0,40.0,False,,268.5003750478503,[],"[640, 360]",ColorTask,80.0,46.0,,,HRV,HRV_0080,2022-11-30 18:03:57
,wl-rdm,163,451221,0.0-8.46-0.46,1.0,164.0,,,,,,,[],,,,,,73.6,0.0,u,0.0,True,540.8999999910593,33.0,60.0,40.0,False,,251.82683601006227,[],"[640, 360]",ColorTask,81.0,47.0,,,HRV,HRV_0080,2022-11-30 18:03:57
,wl-rdm,164,454868,0.0-8.47-0.47,1.0,165.0,,,,,,,[],,,,,,50.0,0.0,i,1.0,False,2351.7000000029802,142.0,60.0,40.0,False,,200.5412785589555,[],"[640, 360]",ColorTask,80.0,48.0,,,HRV,HRV_0080,2022-11-30 18:03:57
,wl-rdm,165,456817,0.0-8.48-0.48,1.0,166.0,,,,,,,[],,,,,,87.9,1.0,i,1.0,True,630.8999999761581,38.0,60.0,40.0,False,,252.1954159281918,[],"[640, 360]",ColorTask,81.0,49.0,,,HRV,HRV_0080,2022-11-30 18:03:57
,wl-rdm,166,458833,0.0-8.49-0.49,1.0,167.0,,,,,,,[],,,,,,87.9,0.0,u,0.0,True,608.6999999880791,37.0,60.0,40.0,False,,319.81968273070675,[],"[640, 360]",ColorTask,82.0,50.0,,,HRV,HRV_0080,2022-11-30 18:03:57
,wl-rdm,167,461215,0.0-8.50-0.50,1.0,168.0,,,,,,,[],,,,,,53.2,0.0,i,1.0,False,1031.4000000059605,62.0,60.0,40.0,False,,292.76943726268735,[],"[640, 360]",ColorTask,81.0,51.0,,,HRV,HRV_0080,2022-11-30 18:03:57
,wl-rdm,168,463231,0.0-8.51-0.51,1.0,169.0,,,,,,,[],,,,,,87.9,0.0,u,0.0,True,623.6000000089407,38.0,60.0,40.0,False,,331.70983922898097,[],"[640, 360]",ColorTask,82.0,52.0,,,HRV,HRV_0080,2022-11-30 18:03:57
,wl-rdm,169,465297,0.0-8.52-0.52,1.0,170.0,,,,,,,[],,,,,,53.2,0.0,i,1.0,False,768.8000000119209,47.0,60.0,40.0,False,,228.56632994233402,[],"[640, 360]",ColorTask,81.0,53.0,,,HRV,HRV_0080,2022-11-30 18:03:57
,wl-rdm,170,467261,0.0-8.53-0.53,1.0,171.0,,,,,,,[],,,,,,56.4,0.0,u,0.0,True,567.7000000029802,35.0,60.0,40.0,False,,330.3322953975169,[],"[640, 360]",ColorTask,82.0,54.0,,,HRV,HRV_0080,2022-11-30 18:03:57
,wl-rdm,171,469028,0.0-8.54-0.54,1.0,172.0,,,,,,,[],,,,,,87.9,0.0,u,0.0,True,490.5,30.0,60.0,40.0,False,,209.16304847587395,[],"[640, 360]",ColorTask,83.0,55.0,,,HRV,HRV_0080,2022-11-30 18:03:57
,wl-rdm,172,471143,0.0-8.55-0.55,1.0,173.0,,,,,,,[],,,,,,87.9,0.0,u,0.0,True,715.4999999850988,43.0,60.0,40.0,False,,337.9818460726491,[],"[640, 360]",ColorTask,84.0,56.0,,,HRV,HRV_0080,2022-11-30 18:03:57
,wl-rdm,173,473559,0.0-8.56-0.56,1.0,174.0,,,,,,,[],,,,,,73.6,0.0,u,0.0,True,1147.2999999970198,69.0,60.0,40.0,False,,207.95545903632362,[],"[640, 360]",ColorTask,85.0,57.0,,,HRV,HRV_0080,2022-11-30 18:03:57
,wl-rdm,174,475557,0.0-8.57-0.57,1.0,175.0,,,,,,,[],,,,,,73.6,1.0,i,1.0,True,619.7000000178814,38.0,60.0,40.0,False,,312.5264855623389,[],"[640, 360]",ColorTask,86.0,58.0,,,HRV,HRV_0080,2022-11-30 18:03:57
,wl-rdm,175,477573,0.0-8.58-0.58,1.0,176.0,,,,,,,[],,,,,,62.5,0.0,u,0.0,True,726.2999999821186,44.0,60.0,40.0,False,,231.48777822857687,[],"[640, 360]",ColorTask,87.0,59.0,,,HRV,HRV_0080,2022-11-30 18:03:57
,wl-rdm,176,480038,0.0-8.59-0.59,1.0,177.0,,,,,,,[],,,,,,56.4,1.0,i,1.0,True,1160.1000000089407,70.0,60.0,40.0,False,,227.83235852328352,[],"[640, 360]",ColorTask,88.0,60.0,,,HRV,HRV_0080,2022-11-30 18:03:57
,wl-rdm,177,481970,0.0-8.60-0.60,1.0,178.0,,,,,,,[],,,,,,73.6,0.0,u,0.0,True,641.8999999910593,39.0,60.0,40.0,False,,205.8342784846655,[],"[640, 360]",ColorTask,89.0,61.0,,,HRV,HRV_0080,2022-11-30 18:03:57
,wl-rdm,178,484003,0.0-8.61-0.61,1.0,179.0,,,,,,,[],,,,,,73.6,0.0,u,0.0,True,608.4000000059605,37.0,60.0,40.0,False,,349.9870544018844,[],"[640, 360]",ColorTask,90.0,62.0,,,HRV,HRV_0080,2022-11-30 18:03:57
,wl-rdm,179,486067,0.0-8.62-0.62,1.0,180.0,,,,,,,[],,,,,,73.6,1.0,i,1.0,True,650.5,40.0,60.0,40.0,False,,325.63975132727285,[],"[640, 360]",ColorTask,91.0,63.0,,,HRV,HRV_0080,2022-11-30 18:03:57
,wl-rdm,180,488167,0.0-8.63-0.63,1.0,181.0,,,,,,,[],,,,,,62.5,0.0,u,0.0,True,802.3000000119209,49.0,60.0,40.0,False,,206.48003526737926,[],"[640, 360]",ColorTask,92.0,64.0,,,HRV,HRV_0080,2022-11-30 18:03:57
,wl-rdm,181,490116,0.0-8.64-0.64,1.0,182.0,,,,,,,[],,,,,,62.5,1.0,i,1.0,True,663.7000000029802,40.0,60.0,40.0,False,,218.6786634992618,[],"[640, 360]",ColorTask,93.0,65.0,,,HRV,HRV_0080,2022-11-30 18:03:57
,wl-rdm,182,492531,0.0-8.65-0.65,1.0,183.0,,,,,,,[],,,,,,53.2,0.0,i,1.0,False,1062.4000000059605,64.0,60.0,40.0,False,,276.7953405975628,[],"[640, 360]",ColorTask,92.0,66.0,,,HRV,HRV_0080,2022-11-30 18:03:57
,wl-rdm,183,495129,0.0-8.66-0.66,1.0,184.0,,,,,,,[],,,,,,53.2,0.0,u,0.0,True,1186.3999999910593,72.0,60.0,40.0,False,,333.0441098495628,[],"[640, 360]",ColorTask,93.0,67.0,,,HRV,HRV_0080,2022-11-30 18:03:57
,wl-rdm,184,497479,0.0-8.67-0.67,1.0,185.0,,,,,,,[],,,,,,50.0,0.0,i,1.0,False,1004.6000000089407,61.0,60.0,40.0,False,,268.2169346518044,[],"[640, 360]",ColorTask,92.0,68.0,,,HRV,HRV_0080,2022-11-30 18:03:57
,wl-rdm,185,499960,0.0-8.68-0.68,1.0,186.0,,,,,,,[],,,,,,53.2,0.0,i,1.0,False,1018.4999999850988,62.0,60.0,40.0,False,,370.09870045891876,[],"[640, 360]",ColorTask,91.0,69.0,,,HRV,HRV_0080,2022-11-30 18:03:57
,wl-rdm,186,501859,0.0-8.69-0.69,1.0,187.0,,,,,,,[],,,,,,56.4,1.0,i,1.0,True,571.5,35.0,60.0,40.0,False,,238.33235899120814,[],"[640, 360]",ColorTask,92.0,70.0,,,HRV,HRV_0080,2022-11-30 18:03:57
,wl-rdm,187,505090,0.0-8.70-0.70,1.0,188.0,,,,,,,[],,,,,,50.0,1.0,i,1.0,True,1914.7000000029802,115.0,60.0,40.0,False,,262.11990788090475,[],"[640, 360]",ColorTask,93.0,71.0,,,HRV,HRV_0080,2022-11-30 18:03:57
,wl-rdm,188,507239,0.0-8.71-0.71,1.0,189.0,,,,,,,[],,,,,,56.4,0.0,u,0.0,True,719.5,44.0,60.0,40.0,False,,348.77456216563803,[],"[640, 360]",ColorTask,94.0,72.0,,,HRV,HRV_0080,2022-11-30 18:03:57
,wl-rdm,189,509105,0.0-8.72-0.72,1.0,190.0,,,,,,,[],,,,,,87.9,1.0,i,1.0,True,528.3000000119209,32.0,60.0,40.0,False,,251.01288621115768,[],"[640, 360]",ColorTask,95.0,73.0,,,HRV,HRV_0080,2022-11-30 18:03:57
,wl-rdm,190,511172,0.0-8.73-0.73,1.0,191.0,,,,,,,[],,,,,,62.5,1.0,i,1.0,True,621.8999999910593,38.0,60.0,40.0,False,,358.64054905277584,[],"[640, 360]",ColorTask,96.0,74.0,,,HRV,HRV_0080,2022-11-30 18:03:57
,wl-rdm,191,513187,0.0-8.74-0.74,1.0,192.0,,,,,,,[],,,,,,87.9,0.0,u,0.0,True,718.4999999850988,44.0,60.0,40.0,False,,209.15198904264108,[],"[640, 360]",ColorTask,97.0,75.0,,,HRV,HRV_0080,2022-11-30 18:03:57
,wl-rdm,192,516885,0.0-8.75-0.75,1.0,193.0,,,,,,,[],,,,,,50.0,0.0,i,1.0,False,2294.500000014901,138.0,60.0,40.0,False,,346.2081934420918,[],"[640, 360]",ColorTask,96.0,76.0,,,HRV,HRV_0080,2022-11-30 18:03:57
,wl-rdm,193,518918,0.0-8.76-0.76,1.0,194.0,,,,,,,[],,,,,,87.9,1.0,i,1.0,True,670.3999999910593,41.0,60.0,40.0,False,,284.386324047514,[],"[640, 360]",ColorTask,97.0,77.0,,,HRV,HRV_0080,2022-11-30 18:03:57
,wl-rdm,194,521032,0.0-8.77-0.77,1.0,195.0,,,,,,,[],,,,,,56.4,0.0,u,0.0,True,797.0000000149012,48.0,60.0,40.0,False,,254.2604746859762,[],"[640, 360]",ColorTask,98.0,78.0,,,HRV,HRV_0080,2022-11-30 18:03:57
,wl-rdm,195,523165,0.0-8.78-0.78,1.0,196.0,,,,,,,[],,,,,,62.5,1.0,i,1.0,True,714.6000000089407,43.0,60.0,40.0,False,,357.4569623065946,[],"[640, 360]",ColorTask,99.0,79.0,,,HRV,HRV_0080,2022-11-30 18:03:57
,wl-rdm,196,525796,0.0-8.79-0.79,1.0,197.0,,,,,,,[],,,,,,50.0,0.0,u,0.0,True,1319.4000000059605,80.0,60.0,40.0,False,,221.44489273448804,[],"[640, 360]",ColorTask,100.0,80.0,,,HRV,HRV_0080,2022-11-30 18:03:57
,wl-rdm,197,527712,0.0-8.80-0.80,1.0,198.0,,,,,,,[],,,,,,73.6,1.0,i,1.0,True,577.5999999940395,35.0,60.0,40.0,False,,260.81521933478984,[],"[640, 360]",ColorTask,101.0,81.0,,,HRV,HRV_0080,2022-11-30 18:03:57
,wl-rdm,198,529545,0.0-8.81-0.81,1.0,199.0,,,,,,,[],,,,,,87.9,0.0,u,0.0,True,564.5999999940395,34.0,60.0,40.0,False,,205.05287670606083,[],"[640, 360]",ColorTask,102.0,82.0,,,HRV,HRV_0080,2022-11-30 18:03:57
,wl-rdm,199,531577,0.0-8.82-0.82,1.0,200.0,,,,,,,[],,,,,,73.6,1.0,i,1.0,True,719.0999999940395,44.0,60.0,40.0,False,,229.29942064739834,[],"[640, 360]",ColorTask,103.0,83.0,,,HRV,HRV_0080,2022-11-30 18:03:57
,wl-rdm,200,533875,0.0-8.83-0.83,1.0,201.0,,,,,,,[],,,,,,62.5,1.0,i,1.0,True,996.4000000059605,60.0,60.0,40.0,False,,228.9413435657924,[],"[640, 360]",ColorTask,104.0,84.0,,,HRV,HRV_0080,2022-11-30 18:03:57
,wl-rdm,201,535824,0.0-8.84-0.84,1.0,202.0,,,,,,,[],,,,,,53.2,1.0,i,1.0,True,535.5999999940395,33.0,60.0,40.0,False,,317.50542431077065,[],"[640, 360]",ColorTask,105.0,85.0,,,HRV,HRV_0080,2022-11-30 18:03:57
,wl-rdm,202,538489,0.0-8.85-0.85,1.0,203.0,,,,,,,[],,,,,,62.5,1.0,i,1.0,True,1294.4000000208616,78.0,60.0,40.0,False,,282.80594953336725,[],"[640, 360]",ColorTask,106.0,86.0,,,HRV,HRV_0080,2022-11-30 18:03:57
,wl-rdm,203,540504,0.0-8.86-0.86,1.0,204.0,,,,,,,[],,,,,,87.9,1.0,i,1.0,True,562.7000000029802,34.0,60.0,40.0,False,,382.39272464951824,[],"[640, 360]",ColorTask,107.0,87.0,,,HRV,HRV_0080,2022-11-30 18:03:57
,wl-rdm,204,543221,0.0-8.87-0.87,1.0,205.0,,,,,,,[],,,,,,53.2,1.0,i,1.0,True,1345.4000000059605,81.0,60.0,40.0,False,,291.37932139772556,[],"[640, 360]",ColorTask,108.0,88.0,,,HRV,HRV_0080,2022-11-30 18:03:57
,wl-rdm,205,546202,0.0-8.88-0.88,1.0,206.0,,,,,,,[],,,,,,50.0,1.0,u,0.0,False,1597.7999999970198,96.0,60.0,40.0,False,,304.1232318323003,[],"[640, 360]",ColorTask,107.0,89.0,,,HRV,HRV_0080,2022-11-30 18:03:57
,wl-rdm,206,548700,0.0-8.89-0.89,1.0,207.0,,,,,,,[],,,,,,53.2,1.0,i,1.0,True,1051.5999999940395,64.0,60.0,40.0,False,,359.3772421168479,[],"[640, 360]",ColorTask,108.0,90.0,,,HRV,HRV_0080,2022-11-30 18:03:57
,wl-rdm,207,550899,0.0-8.90-0.90,1.0,208.0,,,,,,,[],,,,,,56.4,0.0,u,0.0,True,834.0000000149012,51.0,60.0,40.0,False,,279.0805450898029,[],"[640, 360]",ColorTask,109.0,91.0,,,HRV,HRV_0080,2022-11-30 18:03:57
,wl-rdm,208,553331,0.0-8.91-0.91,1.0,209.0,,,,,,,[],,,,,,53.2,1.0,i,1.0,True,1114.0999999940395,67.0,60.0,40.0,False,,253.69424094554296,[],"[640, 360]",ColorTask,110.0,92.0,,,HRV,HRV_0080,2022-11-30 18:03:57
,wl-rdm,209,555397,0.0-8.92-0.92,1.0,210.0,,,,,,,[],,,,,,73.6,0.0,u,0.0,True,720.9999999850988,44.0,60.0,40.0,False,,265.92861916413733,[],"[640, 360]",ColorTask,111.0,93.0,,,HRV,HRV_0080,2022-11-30 18:03:57
,wl-rdm,210,557362,0.0-8.93-0.93,1.0,211.0,,,,,,,[],,,,,,87.9,1.0,i,1.0,True,540.4000000059605,33.0,60.0,40.0,False,,359.493026457828,[],"[640, 360]",ColorTask,112.0,94.0,,,HRV,HRV_0080,2022-11-30 18:03:57
,wl-rdm,211,560010,0.0-8.94-0.94,1.0,212.0,,,,,,,[],,,,,,50.0,0.0,i,1.0,False,1227.2000000029802,74.0,60.0,40.0,False,,332.7086650875014,[],"[640, 360]",ColorTask,111.0,95.0,,,HRV,HRV_0080,2022-11-30 18:03:57
,wl-rdm,212,562260,0.0-8.95-0.95,1.0,213.0,,,,,,,[],,,,,,56.4,0.0,u,0.0,True,786.7000000029802,48.0,60.0,40.0,False,,389.30624706942996,[],"[640, 360]",ColorTask,112.0,96.0,,,HRV,HRV_0080,2022-11-30 18:03:57
,wl-rdm,213,565542,0.0-8.96-0.96,1.0,214.0,,,,,,,[],,,,,,50.0,0.0,u,0.0,True,1978.7999999970198,119.0,60.0,40.0,False,,237.52426578578599,[],"[640, 360]",ColorTask,113.0,97.0,,,HRV,HRV_0080,2022-11-30 18:03:57
,wl-rdm,214,567890,0.0-8.97-0.97,1.0,215.0,,,,,,,[],,,,,,53.2,1.0,i,1.0,True,996.2999999970198,60.0,60.0,40.0,False,,276.5130756888464,[],"[640, 360]",ColorTask,114.0,98.0,,,HRV,HRV_0080,2022-11-30 18:03:57
,wl-rdm,215,570555,0.0-8.98-0.98,1.0,216.0,,,,,,,[],,,,,,56.4,0.0,i,1.0,False,1343.1000000089407,81.0,60.0,40.0,False,,261.80007223251454,[],"[640, 360]",ColorTask,113.0,99.0,,,HRV,HRV_0080,2022-11-30 18:03:57
,wl-rdm,216,572521,0.0-8.99-0.99,1.0,217.0,,,,,,,[],,,,,,87.9,1.0,i,1.0,True,654.0,40.0,60.0,40.0,False,,231.42163201777933,[],"[640, 360]",ColorTask,114.0,100.0,,,HRV,HRV_0080,2022-11-30 18:03:57
,wl-rdm,217,574652,0.0-8.100-0.100,1.0,218.0,,,,,,,[],,,,,,53.2,0.0,u,0.0,True,801.7000000029802,49.0,60.0,40.0,False,,246.15499920661688,[],"[640, 360]",ColorTask,115.0,101.0,,,HRV,HRV_0080,2022-11-30 18:03:57
,wl-rdm,218,576618,0.0-8.101-0.101,1.0,219.0,,,,,,,[],,,,,,62.5,0.0,u,0.0,True,625.2000000029802,38.0,60.0,40.0,False,,280.90638136327755,[],"[640, 360]",ColorTask,116.0,102.0,,,HRV,HRV_0080,2022-11-30 18:03:57
,wl-rdm,219,578433,0.0-8.102-0.102,1.0,220.0,,,,,,,[],,,,,,87.9,0.0,u,0.0,True,459.30000001192093,28.0,60.0,40.0,False,,279.0678173496517,[],"[640, 360]",ColorTask,117.0,103.0,,,HRV,HRV_0080,2022-11-30 18:03:57
,wl-rdm,220,580633,0.0-8.103-0.103,1.0,221.0,,,,,,,[],,,,,,73.6,1.0,i,1.0,True,784.7999999970198,48.0,60.0,40.0,False,,337.4515633532891,[],"[640, 360]",ColorTask,118.0,104.0,,,HRV,HRV_0080,2022-11-30 18:03:57
,wl-rdm,221,583382,0.0-8.104-0.104,1.0,222.0,,,,,,,[],,,,,,50.0,1.0,u,0.0,False,1417.800000011921,86.0,60.0,40.0,False,,235.75489095503482,[],"[640, 360]",ColorTask,117.0,105.0,,,HRV,HRV_0080,2022-11-30 18:03:57
,wl-rdm,222,585314,0.0-8.105-0.105,1.0,223.0,,,,,,,[],,,,,,56.4,1.0,u,0.0,False,602.8000000119209,37.0,60.0,40.0,False,,217.51405415099512,[],"[640, 360]",ColorTask,116.0,106.0,,,HRV,HRV_0080,2022-11-30 18:03:57
,wl-rdm,223,587196,0.0-8.106-0.106,1.0,224.0,,,,,,,[],,,,,,62.5,0.0,u,0.0,True,563.2999999970198,34.0,60.0,40.0,False,,247.51900521229746,[],"[640, 360]",ColorTask,117.0,107.0,,,HRV,HRV_0080,2022-11-30 18:03:57
,wl-rdm,224,589094,0.0-8.107-0.107,1.0,225.0,,,,,,,[],,,,,,87.9,1.0,i,1.0,True,533.0999999940395,32.0,60.0,40.0,False,,283.3917251298003,[],"[640, 360]",ColorTask,118.0,108.0,,,HRV,HRV_0080,2022-11-30 18:03:57
,wl-html-button-response,225,591544,0.0-9.0-0.0,,,,,,,,,,2444.9000000059605,,0,,,,,,,,,,,,,,,,,,,,<h3>End of this session. Thank you!</h3><br>,['Close window'],HRV,HRV_0080,2022-11-30 18:03:57
