trialN,stimuli,trialStartTime,trialStartTime_UNIX,stimulus1,stimulus2,stimulus1Bid,stimulus2Bid,delta,selected,rt,rt_UNIX,rt_perfnow,receivedResponse,rsp,trialEndTime,trialDuration,trialEndTime_UNIX,trialDuration_UNIX,exp,subjectId,date
0,"[{'imgObject': {}, 'id': 'omelette', 'src': '/static/foodstim60/omelette.jpg', 'key': 'u', 'origWidth': 410, 'origHeight': 409, 'width': 410, 'height': 409, 'widthPercent': 0.45, 'rescaleHeight': False, 'trialN': 0, 'loaded': True, 'loadedTime': 2788.399999999907, 'positionName': 'LEFT', 'positionCoords': [511.6, 335.5], 'bid': 4.0200000000000005}, {'imgObject': {}, 'id': 'lox', 'src': '/static/foodstim60/lox.jpg', 'key': 'i', 'origWidth': 410, 'origHeight': 411, 'width': 410, 'height': 411, 'widthPercent': 0.45, 'rescaleHeight': False, 'trialN': 0, 'loaded': True, 'loadedTime': 2801.7000000001863, 'positionName': 'RIGHT', 'positionCoords': [998.4, 334.5], 'bid': 0.89}]",3237.7000000001863,1669832225805,omelette,lox,4.0200000000000005,0.89,-3.1300000000000003,omelette,1959.2999999998137,1960,1959.7999999998137,True,u,5709.700000000186,2472.0,1669832228277,2472,HRV,HRV_0173,2022-11-30 18:22:18
1,"[{'imgObject': {}, 'id': 'shreddedwheatwithmilk', 'src': '/static/foodstim60/shreddedwheatwithmilk.jpg', 'key': 'u', 'origWidth': 410, 'origHeight': 410, 'width': 410, 'height': 410, 'widthPercent': 0.45, 'rescaleHeight': False, 'trialN': 1, 'loaded': True, 'loadedTime': 2826.2000000001863, 'positionName': 'LEFT', 'positionCoords': [511.6, 335], 'bid': 0.45}, {'imgObject': {}, 'id': 'cocktailshrimp', 'src': '/static/foodstim60/cocktailshrimp.jpg', 'key': 'i', 'origWidth': 410, 'origHeight': 410, 'width': 410, 'height': 410, 'widthPercent': 0.45, 'rescaleHeight': False, 'trialN': 1, 'loaded': True, 'loadedTime': 2837.899999999907, 'positionName': 'RIGHT', 'positionCoords': [998.4, 335], 'bid': 6.46}]",5709.899999999907,1669832228277,shreddedwheatwithmilk,cocktailshrimp,0.45,6.46,6.01,cocktailshrimp,1078.8000000002794,1080,1079.1000000000931,True,i,7307.700000000186,1597.8000000002794,1669832229875,1598,HRV,HRV_0173,2022-11-30 18:22:18
2,"[{'imgObject': {}, 'id': 'cheerios', 'src': '/static/foodstim60/cheerios.jpg', 'key': 'u', 'origWidth': 409, 'origHeight': 410, 'width': 409, 'height': 410, 'widthPercent': 0.45, 'rescaleHeight': False, 'trialN': 2, 'loaded': True, 'loadedTime': 2850.7999999998137, 'positionName': 'LEFT', 'positionCoords': [512.6, 335], 'bid': 7.41}, {'imgObject': {}, 'id': 'kiwi', 'src': '/static/foodstim60/kiwi.jpg', 'key': 'i', 'origWidth': 410, 'origHeight': 410, 'width': 410, 'height': 410, 'widthPercent': 0.45, 'rescaleHeight': False, 'trialN': 2, 'loaded': True, 'loadedTime': 2862.7999999998137, 'positionName': 'RIGHT', 'positionCoords': [998.4, 335], 'bid': 7.57}]",7307.899999999907,1669832229875,cheerios,kiwi,7.41,7.57,0.16000000000000014,cheerios,1712.8999999999069,1714,1713.3000000002794,True,u,9525.5,2217.600000000093,1669832232093,2218,HRV,HRV_0173,2022-11-30 18:22:18
3,"[{'imgObject': {}, 'id': 'cocktailshrimp', 'src': '/static/foodstim60/cocktailshrimp.jpg', 'key': 'u', 'origWidth': 410, 'origHeight': 410, 'width': 410, 'height': 410, 'widthPercent': 0.45, 'rescaleHeight': False, 'trialN': 3, 'loaded': True, 'loadedTime': 2843.5, 'positionName': 'LEFT', 'positionCoords': [511.6, 335], 'bid': 6.46}, {'imgObject': {}, 'id': 'cantaloupe', 'src': '/static/foodstim60/cantaloupe.jpg', 'key': 'i', 'origWidth': 409, 'origHeight': 409, 'width': 409, 'height': 409, 'widthPercent': 0.45, 'rescaleHeight': False, 'trialN': 3, 'loaded': True, 'loadedTime': 2870.7999999998137, 'positionName': 'RIGHT', 'positionCoords': [998.4, 335.5], 'bid': 8.34}]",9525.600000000093,1669832232093,cocktailshrimp,cantaloupe,6.46,8.34,1.88,cantaloupe,1816.1999999997206,1817,1816.6000000000931,True,i,11859.299999999814,2333.6999999997206,1669832234427,2334,HRV,HRV_0173,2022-11-30 18:22:18
4,"[{'imgObject': {}, 'id': 'froot loops w milk', 'src': '/static/foodstim60/froot loops w milk.jpg', 'key': 'u', 'origWidth': 410, 'origHeight': 410, 'width': 410, 'height': 410, 'widthPercent': 0.45, 'rescaleHeight': False, 'trialN': 4, 'loaded': True, 'loadedTime': 2878.7000000001863, 'positionName': 'LEFT', 'positionCoords': [511.6, 335], 'bid': 2.12}, {'imgObject': {}, 'id': 'eggsalad', 'src': '/static/foodstim60/eggsalad.jpg', 'key': 'i', 'origWidth': 410, 'origHeight': 409, 'width': 410, 'height': 409, 'widthPercent': 0.45, 'rescaleHeight': False, 'trialN': 4, 'loaded': True, 'loadedTime': 2896.100000000093, 'positionName': 'RIGHT', 'positionCoords': [998.4, 335.5], 'bid': 2.88}]",11859.5,1669832234427,froot loops w milk,eggsalad,2.12,2.88,0.7599999999999998,froot loops w milk,1867.8999999999069,1868,1868.3999999999069,True,u,14242.0,2382.5,1669832236810,2383,HRV,HRV_0173,2022-11-30 18:22:18
5,"[{'imgObject': {}, 'id': 'edamame', 'src': '/static/foodstim60/edamame.jpg', 'key': 'u', 'origWidth': 409, 'origHeight': 410, 'width': 409, 'height': 410, 'widthPercent': 0.45, 'rescaleHeight': False, 'trialN': 5, 'loaded': True, 'loadedTime': 2918.7999999998137, 'positionName': 'LEFT', 'positionCoords': [512.6, 335], 'bid': 1.29}, {'imgObject': {}, 'id': 'apple slices', 'src': '/static/foodstim60/apple slices.jpg', 'key': 'i', 'origWidth': 409, 'origHeight': 410, 'width': 409, 'height': 410, 'widthPercent': 0.45, 'rescaleHeight': False, 'trialN': 5, 'loaded': True, 'loadedTime': 2925.600000000093, 'positionName': 'RIGHT', 'positionCoords': [998.4, 335], 'bid': 7.140000000000001}]",14242.200000000186,1669832236810,edamame,apple slices,1.29,7.140000000000001,5.8500000000000005,apple slices,948.6999999997206,949,949.0999999996275,True,i,15708.5,1466.2999999998137,1669832238276,1466,HRV,HRV_0173,2022-11-30 18:22:18
6,"[{'imgObject': {}, 'id': 'kiwi', 'src': '/static/foodstim60/kiwi.jpg', 'key': 'u', 'origWidth': 410, 'origHeight': 410, 'width': 410, 'height': 410, 'widthPercent': 0.45, 'rescaleHeight': False, 'trialN': 6, 'loaded': True, 'loadedTime': 2863, 'positionName': 'LEFT', 'positionCoords': [511.6, 335], 'bid': 7.57}, {'imgObject': {}, 'id': 'froot loops w milk', 'src': '/static/foodstim60/froot loops w milk.jpg', 'key': 'i', 'origWidth': 410, 'origHeight': 410, 'width': 410, 'height': 410, 'widthPercent': 0.45, 'rescaleHeight': False, 'trialN': 6, 'loaded': True, 'loadedTime': 2888, 'positionName': 'RIGHT', 'positionCoords': [998.4, 335], 'bid': 2.12}]",15708.799999999814,1669832238276,kiwi,froot loops w milk,7.57,2.12,-5.45,kiwi,1705.8000000002794,1706,1706.1000000000931,True,u,17930.5,2221.7000000001863,1669832240498,2222,HRV,HRV_0173,2022-11-30 18:22:18
7,"[{'imgObject': {}, 'id': 'grilled chicken strips', 'src': '/static/foodstim60/grilled chicken strips.jpg', 'key': 'u', 'origWidth': 410, 'origHeight': 411, 'width': 410, 'height': 411, 'widthPercent': 0.45, 'rescaleHeight': False, 'trialN': 7, 'loaded': True, 'loadedTime': 2939.600000000093, 'positionName': 'LEFT', 'positionCoords': [511.6, 334.5], 'bid': 2.54}, {'imgObject': {}, 'id': 'popsicles', 'src': '/static/foodstim60/popsicles.jpg', 'key': 'i', 'origWidth': 410, 'origHeight': 410, 'width': 410, 'height': 410, 'widthPercent': 0.45, 'rescaleHeight': False, 'trialN': 7, 'loaded': True, 'loadedTime': 3236.7999999998137, 'positionName': 'RIGHT', 'positionCoords': [998.4, 335], 'bid': 0.75}]",17930.799999999814,1669832240498,grilled chicken strips,popsicles,2.54,0.75,-1.79,grilled chicken strips,1309.0,1310,1309.3000000002794,True,u,19742.700000000186,1811.9000000003725,1669832242310,1812,HRV,HRV_0173,2022-11-30 18:22:18
8,"[{'imgObject': {}, 'id': 'steak', 'src': '/static/foodstim60/steak.jpg', 'key': 'u', 'origWidth': 410, 'origHeight': 410, 'width': 410, 'height': 410, 'widthPercent': 0.45, 'rescaleHeight': False, 'trialN': 8, 'loaded': True, 'loadedTime': 2952.600000000093, 'positionName': 'LEFT', 'positionCoords': [511.6, 335], 'bid': 4.04}, {'imgObject': {}, 'id': 'Tribe humus pita', 'src': '/static/foodstim60/Tribe humus pita.jpg', 'key': 'i', 'origWidth': 411, 'origHeight': 411, 'width': 411, 'height': 411, 'widthPercent': 0.45, 'rescaleHeight': False, 'trialN': 8, 'loaded': True, 'loadedTime': 2959.7000000001863, 'positionName': 'RIGHT', 'positionCoords': [998.4, 334.5], 'bid': 4.25}]",19742.799999999814,1669832242310,steak,Tribe humus pita,4.04,4.25,0.20999999999999996,Tribe humus pita,1112.9000000003725,1113,1113.1000000000931,True,i,21369.399999999907,1626.6000000000931,1669832243937,1627,HRV,HRV_0173,2022-11-30 18:22:18
9,"[{'imgObject': {}, 'id': 'sweetpotato', 'src': '/static/foodstim60/sweetpotato.jpg', 'key': 'u', 'origWidth': 410, 'origHeight': 410, 'width': 410, 'height': 410, 'widthPercent': 0.45, 'rescaleHeight': False, 'trialN': 9, 'loaded': True, 'loadedTime': 2964.7999999998137, 'positionName': 'LEFT', 'positionCoords': [511.6, 335], 'bid': 5.14}, {'imgObject': {}, 'id': 'eggsalad', 'src': '/static/foodstim60/eggsalad.jpg', 'key': 'i', 'origWidth': 410, 'origHeight': 409, 'width': 410, 'height': 409, 'widthPercent': 0.45, 'rescaleHeight': False, 'trialN': 9, 'loaded': True, 'loadedTime': 2896.100000000093, 'positionName': 'RIGHT', 'positionCoords': [998.4, 335.5], 'bid': 2.88}]",21369.700000000186,1669832243937,sweetpotato,eggsalad,5.14,2.88,-2.26,sweetpotato,1662.5999999996275,1663,1662.8999999999069,True,u,23541.700000000186,2172.0,1669832246109,2172,HRV,HRV_0173,2022-11-30 18:22:18
10,"[{'imgObject': {}, 'id': 'cocktailshrimp', 'src': '/static/foodstim60/cocktailshrimp.jpg', 'key': 'u', 'origWidth': 410, 'origHeight': 410, 'width': 410, 'height': 410, 'widthPercent': 0.45, 'rescaleHeight': False, 'trialN': 10, 'loaded': True, 'loadedTime': 2838.399999999907, 'positionName': 'LEFT', 'positionCoords': [511.6, 335], 'bid': 6.46}, {'imgObject': {}, 'id': 'eggs', 'src': '/static/foodstim60/eggs.jpg', 'key': 'i', 'origWidth': 409, 'origHeight': 409, 'width': 409, 'height': 409, 'widthPercent': 0.45, 'rescaleHeight': False, 'trialN': 10, 'loaded': True, 'loadedTime': 2972.7999999998137, 'positionName': 'RIGHT', 'positionCoords': [998.4, 335.5], 'bid': 6.16}]",23542.200000000186,1669832246110,cocktailshrimp,eggs,6.46,6.16,-0.2999999999999998,cocktailshrimp,1441.5,1442,1441.8999999999069,True,u,25493.100000000093,1950.8999999999069,1669832248061,1951,HRV,HRV_0173,2022-11-30 18:22:18
11,"[{'imgObject': {}, 'id': 'lox', 'src': '/static/foodstim60/lox.jpg', 'key': 'u', 'origWidth': 410, 'origHeight': 411, 'width': 410, 'height': 411, 'widthPercent': 0.45, 'rescaleHeight': False, 'trialN': 11, 'loaded': True, 'loadedTime': 2801.600000000093, 'positionName': 'LEFT', 'positionCoords': [511.6, 334.5], 'bid': 0.89}, {'imgObject': {}, 'id': 'eggsalad', 'src': '/static/foodstim60/eggsalad.jpg', 'key': 'i', 'origWidth': 410, 'origHeight': 409, 'width': 410, 'height': 409, 'widthPercent': 0.45, 'rescaleHeight': False, 'trialN': 11, 'loaded': True, 'loadedTime': 2896, 'positionName': 'RIGHT', 'positionCoords': [998.4, 335.5], 'bid': 2.88}]",25493.200000000186,1669832248061,lox,eggsalad,0.89,2.88,1.9899999999999998,eggsalad,1018.6999999997206,1019,1019.0,True,i,27026.299999999814,1533.0999999996275,1669832249594,1533,HRV,HRV_0173,2022-11-30 18:22:18
12,"[{'imgObject': {}, 'id': 'ice cream sundae 002', 'src': '/static/foodstim60/ice cream sundae 002.jpg', 'key': 'u', 'origWidth': 409, 'origHeight': 409, 'width': 409, 'height': 409, 'widthPercent': 0.45, 'rescaleHeight': False, 'trialN': 12, 'loaded': True, 'loadedTime': 2992.2000000001863, 'positionName': 'LEFT', 'positionCoords': [512.6, 335.5], 'bid': 9.75}, {'imgObject': {}, 'id': 'baked potato', 'src': '/static/foodstim60/baked potato.jpg', 'key': 'i', 'origWidth': 409, 'origHeight': 410, 'width': 409, 'height': 410, 'widthPercent': 0.45, 'rescaleHeight': False, 'trialN': 12, 'loaded': True, 'loadedTime': 2999, 'positionName': 'RIGHT', 'positionCoords': [998.4, 335], 'bid': 5.73}]",27026.5,1669832249594,ice cream sundae 002,baked potato,9.75,5.73,-4.02,ice cream sundae 002,958.0,958,958.2000000001863,True,u,28494.700000000186,1468.2000000001863,1669832251062,1468,HRV,HRV_0173,2022-11-30 18:22:18
13,"[{'imgObject': {}, 'id': 'omelette', 'src': '/static/foodstim60/omelette.jpg', 'key': 'u', 'origWidth': 410, 'origHeight': 409, 'width': 410, 'height': 409, 'widthPercent': 0.45, 'rescaleHeight': False, 'trialN': 13, 'loaded': True, 'loadedTime': 2786.600000000093, 'positionName': 'LEFT', 'positionCoords': [511.6, 335.5], 'bid': 4.0200000000000005}, {'imgObject': {}, 'id': 'pear', 'src': '/static/foodstim60/pear.jpg', 'key': 'i', 'origWidth': 411, 'origHeight': 410, 'width': 411, 'height': 410, 'widthPercent': 0.45, 'rescaleHeight': False, 'trialN': 13, 'loaded': True, 'loadedTime': 3006.100000000093, 'positionName': 'RIGHT', 'positionCoords': [998.4, 335], 'bid': 6.07}]",28494.899999999907,1669832251062,omelette,pear,4.0200000000000005,6.07,2.05,pear,1834.3000000002794,1835,1834.6000000000931,True,i,30840.0,2345.100000000093,1669832253408,2346,HRV,HRV_0173,2022-11-30 18:22:18
14,"[{'imgObject': {}, 'id': 'froot loops w milk', 'src': '/static/foodstim60/froot loops w milk.jpg', 'key': 'u', 'origWidth': 410, 'origHeight': 410, 'width': 410, 'height': 410, 'widthPercent': 0.45, 'rescaleHeight': False, 'trialN': 14, 'loaded': True, 'loadedTime': 2888.399999999907, 'positionName': 'LEFT', 'positionCoords': [511.6, 335], 'bid': 2.12}, {'imgObject': {}, 'id': 'rigatoni', 'src': '/static/foodstim60/rigatoni.jpg', 'key': 'i', 'origWidth': 411, 'origHeight': 411, 'width': 411, 'height': 411, 'widthPercent': 0.45, 'rescaleHeight': False, 'trialN': 14, 'loaded': True, 'loadedTime': 3018.2000000001863, 'positionName': 'RIGHT', 'positionCoords': [998.4, 334.5], 'bid': 4.3100000000000005}]",30840.299999999814,1669832253408,froot loops w milk,rigatoni,2.12,4.3100000000000005,2.1900000000000004,rigatoni,1201.1000000000931,1201,1201.4000000003725,True,i,32558.399999999907,1718.1000000000931,1669832255126,1718,HRV,HRV_0173,2022-11-30 18:22:18
15,"[{'imgObject': {}, 'id': 'sushi w_condiments', 'src': '/static/foodstim60/sushi w_condiments.jpg', 'key': 'u', 'origWidth': 410, 'origHeight': 410, 'width': 410, 'height': 410, 'widthPercent': 0.45, 'rescaleHeight': False, 'trialN': 15, 'loaded': True, 'loadedTime': 3019.5, 'positionName': 'LEFT', 'positionCoords': [511.6, 335], 'bid': 4.1}, {'imgObject': {}, 'id': 'blackbeanswithrice', 'src': '/static/foodstim60/blackbeanswithrice.jpg', 'key': 'i', 'origWidth': 410, 'origHeight': 410, 'width': 410, 'height': 410, 'widthPercent': 0.45, 'rescaleHeight': False, 'trialN': 15, 'loaded': True, 'loadedTime': 3026.899999999907, 'positionName': 'RIGHT', 'positionCoords': [998.4, 335], 'bid': 1.79}]",32558.700000000186,1669832255126,sushi w_condiments,blackbeanswithrice,4.1,1.79,-2.3099999999999996,sushi w_condiments,1179.0999999996275,1180,1179.3999999999069,True,u,34257.89999999991,1699.1999999997206,1669832256825,1699,HRV,HRV_0173,2022-11-30 18:22:18
16,"[{'imgObject': {}, 'id': 'mango', 'src': '/static/foodstim60/mango.jpg', 'key': 'u', 'origWidth': 411, 'origHeight': 411, 'width': 411, 'height': 411, 'widthPercent': 0.45, 'rescaleHeight': False, 'trialN': 16, 'loaded': True, 'loadedTime': 3028.100000000093, 'positionName': 'LEFT', 'positionCoords': [510.6, 334.5], 'bid': 4.58}, {'imgObject': {}, 'id': 'raspberries', 'src': '/static/foodstim60/raspberries.jpg', 'key': 'i', 'origWidth': 411, 'origHeight': 411, 'width': 411, 'height': 411, 'widthPercent': 0.45, 'rescaleHeight': False, 'trialN': 16, 'loaded': True, 'loadedTime': 3041.399999999907, 'positionName': 'RIGHT', 'positionCoords': [998.4, 334.5], 'bid': 7.0200000000000005}]",34258.0,1669832256826,mango,raspberries,4.58,7.0200000000000005,2.4400000000000004,raspberries,1487.8999999999069,1488,1488.2000000001863,True,i,36258.799999999814,2000.7999999998137,1669832258826,2000,HRV,HRV_0173,2022-11-30 18:22:18
17,"[{'imgObject': {}, 'id': 'fruitsalad', 'src': '/static/foodstim60/fruitsalad.jpg', 'key': 'u', 'origWidth': 410, 'origHeight': 410, 'width': 410, 'height': 410, 'widthPercent': 0.45, 'rescaleHeight': False, 'trialN': 17, 'loaded': True, 'loadedTime': 3047.600000000093, 'positionName': 'LEFT', 'positionCoords': [511.6, 335], 'bid': 8.14}, {'imgObject': {}, 'id': 'eggs', 'src': '/static/foodstim60/eggs.jpg', 'key': 'i', 'origWidth': 409, 'origHeight': 409, 'width': 409, 'height': 409, 'widthPercent': 0.45, 'rescaleHeight': False, 'trialN': 17, 'loaded': True, 'loadedTime': 2971.899999999907, 'positionName': 'RIGHT', 'positionCoords': [998.4, 335.5], 'bid': 6.16}]",36258.89999999991,1669832258826,fruitsalad,eggs,8.14,6.16,-1.9800000000000004,fruitsalad,1015.5,1015,1015.8999999999069,True,u,37777.200000000186,1518.3000000002794,1669832260344,1518,HRV,HRV_0173,2022-11-30 18:22:18
18,"[{'imgObject': {}, 'id': 'salad w chicken', 'src': '/static/foodstim60/salad w chicken.jpg', 'key': 'u', 'origWidth': 411, 'origHeight': 411, 'width': 411, 'height': 411, 'widthPercent': 0.45, 'rescaleHeight': False, 'trialN': 18, 'loaded': True, 'loadedTime': 3053.2999999998137, 'positionName': 'LEFT', 'positionCoords': [510.6, 334.5], 'bid': 7.41}, {'imgObject': {}, 'id': 'hotdog w must', 'src': '/static/foodstim60/hotdog w must.jpg', 'key': 'i', 'origWidth': 409, 'origHeight': 409, 'width': 409, 'height': 409, 'widthPercent': 0.45, 'rescaleHeight': False, 'trialN': 18, 'loaded': True, 'loadedTime': 3065.2000000001863, 'positionName': 'RIGHT', 'positionCoords': [998.4, 335.5], 'bid': 9.28}]",37777.60000000009,1669832260344,salad w chicken,hotdog w must,7.41,9.28,1.8699999999999992,salad w chicken,920.6999999997206,921,920.8999999999069,True,u,39210.0,1432.3999999999069,1669832261776,1432,HRV,HRV_0173,2022-11-30 18:22:18
19,"[{'imgObject': {}, 'id': 'banana', 'src': '/static/foodstim60/banana.jpg', 'key': 'u', 'origWidth': 410, 'origHeight': 410, 'width': 410, 'height': 410, 'widthPercent': 0.45, 'rescaleHeight': False, 'trialN': 19, 'loaded': True, 'loadedTime': 3072.899999999907, 'positionName': 'LEFT', 'positionCoords': [511.6, 335], 'bid': 3}, {'imgObject': {}, 'id': 'granola w milk', 'src': '/static/foodstim60/granola w milk.jpg', 'key': 'i', 'origWidth': 410, 'origHeight': 410, 'width': 410, 'height': 410, 'widthPercent': 0.45, 'rescaleHeight': False, 'trialN': 19, 'loaded': True, 'loadedTime': 3087.399999999907, 'positionName': 'RIGHT', 'positionCoords': [998.4, 335], 'bid': 0.32}]",39210.10000000009,1669832261776,banana,granola w milk,3.0,0.32,-2.68,granola w milk,1121.1000000000931,1122,1121.3999999999069,True,i,40843.89999999991,1633.7999999998137,1669832263410,1634,HRV,HRV_0173,2022-11-30 18:22:18
20,"[{'imgObject': {}, 'id': 'cherry tomato', 'src': '/static/foodstim60/cherry tomato.jpg', 'key': 'u', 'origWidth': 410, 'origHeight': 410, 'width': 410, 'height': 410, 'widthPercent': 0.45, 'rescaleHeight': False, 'trialN': 20, 'loaded': True, 'loadedTime': 3094, 'positionName': 'LEFT', 'positionCoords': [511.6, 335], 'bid': 6.0600000000000005}, {'imgObject': {}, 'id': 'bagel plain', 'src': '/static/foodstim60/bagel plain.jpg', 'key': 'i', 'origWidth': 410, 'origHeight': 410, 'width': 410, 'height': 410, 'widthPercent': 0.45, 'rescaleHeight': False, 'trialN': 20, 'loaded': True, 'loadedTime': 3101.399999999907, 'positionName': 'RIGHT', 'positionCoords': [998.4, 335], 'bid': 3.01}]",40844.10000000009,1669832263410,cherry tomato,bagel plain,6.0600000000000005,3.01,-3.0500000000000007,cherry tomato,1278.3999999999069,1279,1278.6999999997206,True,u,42643.200000000186,1799.1000000000931,1669832265209,1799,HRV,HRV_0173,2022-11-30 18:22:18
21,"[{'imgObject': {}, 'id': 'banana', 'src': '/static/foodstim60/banana.jpg', 'key': 'u', 'origWidth': 410, 'origHeight': 410, 'width': 410, 'height': 410, 'widthPercent': 0.45, 'rescaleHeight': False, 'trialN': 21, 'loaded': True, 'loadedTime': 3073.600000000093, 'positionName': 'LEFT', 'positionCoords': [511.6, 335], 'bid': 3}, {'imgObject': {}, 'id': 'bagel and cc', 'src': '/static/foodstim60/bagel and cc.jpg', 'key': 'i', 'origWidth': 410, 'origHeight': 410, 'width': 410, 'height': 410, 'widthPercent': 0.45, 'rescaleHeight': False, 'trialN': 21, 'loaded': True, 'loadedTime': 3106.7999999998137, 'positionName': 'RIGHT', 'positionCoords': [998.4, 335], 'bid': 3.83}]",42643.39999999991,1669832265210,banana,bagel and cc,3.0,3.83,0.8300000000000001,bagel and cc,1864.2000000001863,1864,1864.5,True,i,45025.60000000009,2382.2000000001863,1669832267592,2382,HRV,HRV_0173,2022-11-30 18:22:18
22,"[{'imgObject': {}, 'id': 'steak', 'src': '/static/foodstim60/steak.jpg', 'key': 'u', 'origWidth': 410, 'origHeight': 410, 'width': 410, 'height': 410, 'widthPercent': 0.45, 'rescaleHeight': False, 'trialN': 22, 'loaded': True, 'loadedTime': 2947, 'positionName': 'LEFT', 'positionCoords': [511.6, 335], 'bid': 4.04}, {'imgObject': {}, 'id': 'cherries', 'src': '/static/foodstim60/cherries.jpg', 'key': 'i', 'origWidth': 410, 'origHeight': 411, 'width': 410, 'height': 411, 'widthPercent': 0.45, 'rescaleHeight': False, 'trialN': 22, 'loaded': True, 'loadedTime': 3113.2999999998137, 'positionName': 'RIGHT', 'positionCoords': [998.4, 334.5], 'bid': 6.15}]",45025.700000000186,1669832267592,steak,cherries,4.04,6.15,2.1100000000000003,cherries,810.0999999996275,810,810.3999999999069,True,i,46350.799999999814,1325.0999999996275,1669832268917,1325,HRV,HRV_0173,2022-11-30 18:22:18
23,"[{'imgObject': {}, 'id': 'strawberries', 'src': '/static/foodstim60/strawberries.jpg', 'key': 'u', 'origWidth': 410, 'origHeight': 410, 'width': 410, 'height': 410, 'widthPercent': 0.45, 'rescaleHeight': False, 'trialN': 23, 'loaded': True, 'loadedTime': 3114.399999999907, 'positionName': 'LEFT', 'positionCoords': [511.6, 335], 'bid': 7.7}, {'imgObject': {}, 'id': 'chicken nuggets2', 'src': '/static/foodstim60/chicken nuggets2.jpg', 'key': 'i', 'origWidth': 410, 'origHeight': 409, 'width': 410, 'height': 409, 'widthPercent': 0.45, 'rescaleHeight': False, 'trialN': 23, 'loaded': True, 'loadedTime': 3125.5, 'positionName': 'RIGHT', 'positionCoords': [998.4, 335.5], 'bid': 7.84}]",46351.0,1669832268917,strawberries,chicken nuggets2,7.7,7.84,0.13999999999999968,chicken nuggets2,1189.7999999998137,1191,1190.2999999998137,True,i,48052.39999999991,1701.3999999999069,1669832270619,1702,HRV,HRV_0173,2022-11-30 18:22:18
24,"[{'imgObject': {}, 'id': 'grilled chicken strips', 'src': '/static/foodstim60/grilled chicken strips.jpg', 'key': 'u', 'origWidth': 410, 'origHeight': 411, 'width': 410, 'height': 411, 'widthPercent': 0.45, 'rescaleHeight': False, 'trialN': 24, 'loaded': True, 'loadedTime': 2934.7000000001863, 'positionName': 'LEFT', 'positionCoords': [511.6, 334.5], 'bid': 2.54}, {'imgObject': {}, 'id': 'corn cob', 'src': '/static/foodstim60/corn cob.jpg', 'key': 'i', 'origWidth': 411, 'origHeight': 411, 'width': 411, 'height': 411, 'widthPercent': 0.45, 'rescaleHeight': False, 'trialN': 24, 'loaded': True, 'loadedTime': 3132.7999999998137, 'positionName': 'RIGHT', 'positionCoords': [998.4, 334.5], 'bid': 7.63}]",48052.60000000009,1669832270619,grilled chicken strips,corn cob,2.54,7.63,5.09,corn cob,1296.1000000000931,1296,1296.6000000000931,True,i,49865.5,1812.8999999999069,1669832272432,1813,HRV,HRV_0173,2022-11-30 18:22:18
25,"[{'imgObject': {}, 'id': 'turkeysandwich', 'src': '/static/foodstim60/turkeysandwich.jpg', 'key': 'u', 'origWidth': 409, 'origHeight': 409, 'width': 409, 'height': 409, 'widthPercent': 0.45, 'rescaleHeight': False, 'trialN': 25, 'loaded': True, 'loadedTime': 3139.100000000093, 'positionName': 'LEFT', 'positionCoords': [512.6, 335.5], 'bid': 3.97}, {'imgObject': {}, 'id': 'popsicles', 'src': '/static/foodstim60/popsicles.jpg', 'key': 'i', 'origWidth': 410, 'origHeight': 410, 'width': 410, 'height': 410, 'widthPercent': 0.45, 'rescaleHeight': False, 'trialN': 25, 'loaded': True, 'loadedTime': 3236.7000000001863, 'positionName': 'RIGHT', 'positionCoords': [998.4, 335], 'bid': 0.75}]",49865.60000000009,1669832272432,turkeysandwich,popsicles,3.97,0.75,-3.22,turkeysandwich,1331.6999999997206,1332,1332.3999999999069,True,u,51709.89999999991,1844.2999999998137,1669832274276,1844,HRV,HRV_0173,2022-11-30 18:22:18
26,"[{'imgObject': {}, 'id': 'mac & cheese', 'src': '/static/foodstim60/mac & cheese.jpg', 'key': 'u', 'origWidth': 410, 'origHeight': 410, 'width': 410, 'height': 410, 'widthPercent': 0.45, 'rescaleHeight': False, 'trialN': 26, 'loaded': True, 'loadedTime': 3147.100000000093, 'positionName': 'LEFT', 'positionCoords': [511.6, 335], 'bid': 9.77}, {'imgObject': {}, 'id': 'cantaloupe', 'src': '/static/foodstim60/cantaloupe.jpg', 'key': 'i', 'origWidth': 409, 'origHeight': 409, 'width': 409, 'height': 409, 'widthPercent': 0.45, 'rescaleHeight': False, 'trialN': 26, 'loaded': True, 'loadedTime': 2871, 'positionName': 'RIGHT', 'positionCoords': [998.4, 335.5], 'bid': 8.34}]",51710.10000000009,1669832274276,mac & cheese,cantaloupe,9.77,8.34,-1.4299999999999997,mac & cheese,830.6999999997206,832,831.1999999997206,True,u,53052.700000000186,1342.6000000000931,1669832275619,1343,HRV,HRV_0173,2022-11-30 18:22:18
27,"[{'imgObject': {}, 'id': 'hotdog w must', 'src': '/static/foodstim60/hotdog w must.jpg', 'key': 'u', 'origWidth': 409, 'origHeight': 409, 'width': 409, 'height': 409, 'widthPercent': 0.45, 'rescaleHeight': False, 'trialN': 27, 'loaded': True, 'loadedTime': 3065.5, 'positionName': 'LEFT', 'positionCoords': [512.6, 335.5], 'bid': 9.28}, {'imgObject': {}, 'id': 'rigatoni and sauce', 'src': '/static/foodstim60/rigatoni and sauce.jpg', 'key': 'i', 'origWidth': 410, 'origHeight': 411, 'width': 410, 'height': 411, 'widthPercent': 0.45, 'rescaleHeight': False, 'trialN': 27, 'loaded': True, 'loadedTime': 3153.7999999998137, 'positionName': 'RIGHT', 'positionCoords': [998.4, 334.5], 'bid': 9.42}]",53053.0,1669832275619,hotdog w must,rigatoni and sauce,9.28,9.42,0.14000000000000057,rigatoni and sauce,1447.7000000001863,1448,1448.0,True,i,55008.5,1955.5,1669832277575,1956,HRV,HRV_0173,2022-11-30 18:22:18
28,"[{'imgObject': {}, 'id': 'orange slices', 'src': '/static/foodstim60/orange slices.jpg', 'key': 'u', 'origWidth': 409, 'origHeight': 410, 'width': 409, 'height': 410, 'widthPercent': 0.45, 'rescaleHeight': False, 'trialN': 28, 'loaded': True, 'loadedTime': 3165.2000000001863, 'positionName': 'LEFT', 'positionCoords': [512.6, 335], 'bid': 8}, {'imgObject': {}, 'id': 'kiwi', 'src': '/static/foodstim60/kiwi.jpg', 'key': 'i', 'origWidth': 410, 'origHeight': 410, 'width': 410, 'height': 410, 'widthPercent': 0.45, 'rescaleHeight': False, 'trialN': 28, 'loaded': True, 'loadedTime': 2856.7999999998137, 'positionName': 'RIGHT', 'positionCoords': [998.4, 335], 'bid': 7.57}]",55008.60000000009,1669832277575,orange slices,kiwi,8.0,7.57,-0.4299999999999997,kiwi,1284.5,1285,1284.6999999997206,True,i,56809.10000000009,1800.5,1669832279375,1800,HRV,HRV_0173,2022-11-30 18:22:18
29,"[{'imgObject': {}, 'id': 'baked potato', 'src': '/static/foodstim60/baked potato.jpg', 'key': 'u', 'origWidth': 409, 'origHeight': 410, 'width': 409, 'height': 410, 'widthPercent': 0.45, 'rescaleHeight': False, 'trialN': 29, 'loaded': True, 'loadedTime': 2992.399999999907, 'positionName': 'LEFT', 'positionCoords': [512.6, 335], 'bid': 5.73}, {'imgObject': {}, 'id': 'cheerios', 'src': '/static/foodstim60/cheerios.jpg', 'key': 'i', 'origWidth': 409, 'origHeight': 410, 'width': 409, 'height': 410, 'widthPercent': 0.45, 'rescaleHeight': False, 'trialN': 29, 'loaded': True, 'loadedTime': 2854.7999999998137, 'positionName': 'RIGHT', 'positionCoords': [998.4, 335], 'bid': 7.41}]",56809.200000000186,1669832279376,baked potato,cheerios,5.73,7.41,1.6799999999999997,baked potato,1148.2999999998137,1148,1148.6999999997206,True,u,58476.299999999814,1667.0999999996275,1669832281043,1667,HRV,HRV_0173,2022-11-30 18:22:18
30,"[{'imgObject': {}, 'id': 'fried eggs', 'src': '/static/foodstim60/fried eggs.jpg', 'key': 'u', 'origWidth': 410, 'origHeight': 410, 'width': 410, 'height': 410, 'widthPercent': 0.45, 'rescaleHeight': False, 'trialN': 30, 'loaded': True, 'loadedTime': 3166.7999999998137, 'positionName': 'LEFT', 'positionCoords': [511.6, 335], 'bid': 9.36}, {'imgObject': {}, 'id': 'kiwi', 'src': '/static/foodstim60/kiwi.jpg', 'key': 'i', 'origWidth': 410, 'origHeight': 410, 'width': 410, 'height': 410, 'widthPercent': 0.45, 'rescaleHeight': False, 'trialN': 30, 'loaded': True, 'loadedTime': 2862.399999999907, 'positionName': 'RIGHT', 'positionCoords': [998.4, 335], 'bid': 7.57}]",58476.5,1669832281043,fried eggs,kiwi,9.36,7.57,-1.7899999999999991,fried eggs,777.2999999998137,778,777.7999999998137,True,u,59759.60000000009,1283.1000000000931,1669832282326,1283,HRV,HRV_0173,2022-11-30 18:22:18
31,"[{'imgObject': {}, 'id': 'seaweed', 'src': '/static/foodstim60/seaweed.jpg', 'key': 'u', 'origWidth': 410, 'origHeight': 410, 'width': 410, 'height': 410, 'widthPercent': 0.45, 'rescaleHeight': False, 'trialN': 31, 'loaded': True, 'loadedTime': 3172.7999999998137, 'positionName': 'LEFT', 'positionCoords': [511.6, 335], 'bid': 0.15}, {'imgObject': {}, 'id': 'pear', 'src': '/static/foodstim60/pear.jpg', 'key': 'i', 'origWidth': 411, 'origHeight': 410, 'width': 411, 'height': 410, 'widthPercent': 0.45, 'rescaleHeight': False, 'trialN': 31, 'loaded': True, 'loadedTime': 3006.2000000001863, 'positionName': 'RIGHT', 'positionCoords': [998.4, 335], 'bid': 6.07}]",59759.799999999814,1669832282326,seaweed,pear,0.15,6.07,5.92,pear,798.3000000002794,799,798.5,True,i,61067.799999999814,1308.0,1669832283634,1308,HRV,HRV_0173,2022-11-30 18:22:18
32,"[{'imgObject': {}, 'id': 'banana', 'src': '/static/foodstim60/banana.jpg', 'key': 'u', 'origWidth': 410, 'origHeight': 410, 'width': 410, 'height': 410, 'widthPercent': 0.45, 'rescaleHeight': False, 'trialN': 32, 'loaded': True, 'loadedTime': 3072.600000000093, 'positionName': 'LEFT', 'positionCoords': [511.6, 335], 'bid': 3}, {'imgObject': {}, 'id': 'baked potato', 'src': '/static/foodstim60/baked potato.jpg', 'key': 'i', 'origWidth': 409, 'origHeight': 410, 'width': 409, 'height': 410, 'widthPercent': 0.45, 'rescaleHeight': False, 'trialN': 32, 'loaded': True, 'loadedTime': 2993.2000000001863, 'positionName': 'RIGHT', 'positionCoords': [998.4, 335], 'bid': 5.73}]",61068.0,1669832283634,banana,baked potato,3.0,5.73,2.7300000000000004,baked potato,962.1000000000931,963,962.3999999999069,True,i,62545.0,1477.0,1669832285111,1477,HRV,HRV_0173,2022-11-30 18:22:18
33,"[{'imgObject': {}, 'id': 'cheerios', 'src': '/static/foodstim60/cheerios.jpg', 'key': 'u', 'origWidth': 409, 'origHeight': 410, 'width': 409, 'height': 410, 'widthPercent': 0.45, 'rescaleHeight': False, 'trialN': 33, 'loaded': True, 'loadedTime': 2844.2000000001863, 'positionName': 'LEFT', 'positionCoords': [512.6, 335], 'bid': 7.41}, {'imgObject': {}, 'id': 'blackbeanswithrice', 'src': '/static/foodstim60/blackbeanswithrice.jpg', 'key': 'i', 'origWidth': 410, 'origHeight': 410, 'width': 410, 'height': 410, 'widthPercent': 0.45, 'rescaleHeight': False, 'trialN': 33, 'loaded': True, 'loadedTime': 3028, 'positionName': 'RIGHT', 'positionCoords': [998.4, 335], 'bid': 1.79}]",62545.299999999814,1669832285112,cheerios,blackbeanswithrice,7.41,1.79,-5.62,cheerios,909.9000000003725,910,910.5,True,u,63964.5,1419.2000000001863,1669832286531,1419,HRV,HRV_0173,2022-11-30 18:22:18
34,"[{'imgObject': {}, 'id': 'granola w milk', 'src': '/static/foodstim60/granola w milk.jpg', 'key': 'u', 'origWidth': 410, 'origHeight': 410, 'width': 410, 'height': 410, 'widthPercent': 0.45, 'rescaleHeight': False, 'trialN': 34, 'loaded': True, 'loadedTime': 3088, 'positionName': 'LEFT', 'positionCoords': [511.6, 335], 'bid': 0.32}, {'imgObject': {}, 'id': 'shreddedwheatwithmilk', 'src': '/static/foodstim60/shreddedwheatwithmilk.jpg', 'key': 'i', 'origWidth': 410, 'origHeight': 410, 'width': 410, 'height': 410, 'widthPercent': 0.45, 'rescaleHeight': False, 'trialN': 34, 'loaded': True, 'loadedTime': 2820.5, 'positionName': 'RIGHT', 'positionCoords': [998.4, 335], 'bid': 0.45}]",63964.89999999991,1669832286531,granola w milk,shreddedwheatwithmilk,0.32,0.45,0.13,shreddedwheatwithmilk,1649.8999999999069,1651,1650.3999999999069,True,i,66130.8999999999,2166.0,1669832288697,2166,HRV,HRV_0173,2022-11-30 18:22:18
35,"[{'imgObject': {}, 'id': 'olives', 'src': '/static/foodstim60/olives.jpg', 'key': 'u', 'origWidth': 410, 'origHeight': 410, 'width': 410, 'height': 410, 'widthPercent': 0.45, 'rescaleHeight': False, 'trialN': 35, 'loaded': True, 'loadedTime': 3174.2000000001863, 'positionName': 'LEFT', 'positionCoords': [511.6, 335], 'bid': 5.76}, {'imgObject': {}, 'id': 'pear', 'src': '/static/foodstim60/pear.jpg', 'key': 'i', 'origWidth': 411, 'origHeight': 410, 'width': 411, 'height': 410, 'widthPercent': 0.45, 'rescaleHeight': False, 'trialN': 35, 'loaded': True, 'loadedTime': 3005.899999999907, 'positionName': 'RIGHT', 'positionCoords': [998.4, 335], 'bid': 6.07}]",66131.0,1669832288697,olives,pear,5.76,6.07,0.3100000000000005,olives,1420.3999999999069,1421,1420.7999999998137,True,u,68053.20000000019,1922.2000000001863,1669832290619,1922,HRV,HRV_0173,2022-11-30 18:22:18
36,"[{'imgObject': {}, 'id': 'baked potato', 'src': '/static/foodstim60/baked potato.jpg', 'key': 'u', 'origWidth': 409, 'origHeight': 410, 'width': 409, 'height': 410, 'widthPercent': 0.45, 'rescaleHeight': False, 'trialN': 36, 'loaded': True, 'loadedTime': 2998.399999999907, 'positionName': 'LEFT', 'positionCoords': [512.6, 335], 'bid': 5.73}, {'imgObject': {}, 'id': 'sweetpotato', 'src': '/static/foodstim60/sweetpotato.jpg', 'key': 'i', 'origWidth': 410, 'origHeight': 410, 'width': 410, 'height': 410, 'widthPercent': 0.45, 'rescaleHeight': False, 'trialN': 36, 'loaded': True, 'loadedTime': 2965.7999999998137, 'positionName': 'RIGHT', 'positionCoords': [998.4, 335], 'bid': 5.14}]",68053.5,1669832290620,baked potato,sweetpotato,5.73,5.14,-0.5900000000000007,baked potato,1922.3999999999069,1923,1923.0,True,u,70493.0,2439.5,1669832293059,2439,HRV,HRV_0173,2022-11-30 18:22:18
37,"[{'imgObject': {}, 'id': 'mac & cheese', 'src': '/static/foodstim60/mac & cheese.jpg', 'key': 'u', 'origWidth': 410, 'origHeight': 410, 'width': 410, 'height': 410, 'widthPercent': 0.45, 'rescaleHeight': False, 'trialN': 37, 'loaded': True, 'loadedTime': 3152.100000000093, 'positionName': 'LEFT', 'positionCoords': [511.6, 335], 'bid': 9.77}, {'imgObject': {}, 'id': 'yogurt no spoon', 'src': '/static/foodstim60/yogurt no spoon.jpg', 'key': 'i', 'origWidth': 411, 'origHeight': 410, 'width': 411, 'height': 410, 'widthPercent': 0.45, 'rescaleHeight': False, 'trialN': 37, 'loaded': True, 'loadedTime': 3181.100000000093, 'positionName': 'RIGHT', 'positionCoords': [998.4, 335], 'bid': 8.96}]",70493.3999999999,1669832293060,mac & cheese,yogurt no spoon,9.77,8.96,-0.8099999999999987,mac & cheese,746.2000000001863,746,746.3999999999069,True,u,71745.79999999981,1252.3999999999069,1669832294312,1252,HRV,HRV_0173,2022-11-30 18:22:18
38,"[{'imgObject': {}, 'id': 'raisin bran w milk', 'src': '/static/foodstim60/raisin bran w milk.jpg', 'key': 'u', 'origWidth': 411, 'origHeight': 411, 'width': 411, 'height': 411, 'widthPercent': 0.45, 'rescaleHeight': False, 'trialN': 38, 'loaded': True, 'loadedTime': 3182, 'positionName': 'LEFT', 'positionCoords': [510.6, 334.5], 'bid': 0.18}, {'imgObject': {}, 'id': 'eggsalad', 'src': '/static/foodstim60/eggsalad.jpg', 'key': 'i', 'origWidth': 410, 'origHeight': 409, 'width': 410, 'height': 409, 'widthPercent': 0.45, 'rescaleHeight': False, 'trialN': 38, 'loaded': True, 'loadedTime': 2895.2000000001863, 'positionName': 'RIGHT', 'positionCoords': [998.4, 335.5], 'bid': 2.88}]",71745.8999999999,1669832294312,raisin bran w milk,eggsalad,0.18,2.88,2.6999999999999997,raisin bran w milk,1799.0,1800,1799.5,True,u,74067.3999999999,2321.5,1669832296634,2322,HRV,HRV_0173,2022-11-30 18:22:18
39,"[{'imgObject': {}, 'id': 'blueberries', 'src': '/static/foodstim60/blueberries.jpg', 'key': 'u', 'origWidth': 411, 'origHeight': 411, 'width': 411, 'height': 411, 'widthPercent': 0.45, 'rescaleHeight': False, 'trialN': 39, 'loaded': True, 'loadedTime': 3182.2999999998137, 'positionName': 'LEFT', 'positionCoords': [510.6, 334.5], 'bid': 8.43}, {'imgObject': {}, 'id': 'rigatoni and sauce', 'src': '/static/foodstim60/rigatoni and sauce.jpg', 'key': 'i', 'origWidth': 410, 'origHeight': 411, 'width': 410, 'height': 411, 'widthPercent': 0.45, 'rescaleHeight': False, 'trialN': 39, 'loaded': True, 'loadedTime': 3152.600000000093, 'positionName': 'RIGHT', 'positionCoords': [998.4, 334.5], 'bid': 9.42}]",74067.79999999981,1669832296634,blueberries,rigatoni and sauce,8.43,9.42,0.9900000000000002,rigatoni and sauce,996.5,997,996.7000000001863,True,i,75571.70000000019,1503.9000000003725,1669832298138,1504,HRV,HRV_0173,2022-11-30 18:22:18
40,"[{'imgObject': {}, 'id': 'orange slices', 'src': '/static/foodstim60/orange slices.jpg', 'key': 'u', 'origWidth': 409, 'origHeight': 410, 'width': 409, 'height': 410, 'widthPercent': 0.45, 'rescaleHeight': False, 'trialN': 40, 'loaded': True, 'loadedTime': 3160.5, 'positionName': 'LEFT', 'positionCoords': [512.6, 335], 'bid': 8}, {'imgObject': {}, 'id': 'chickenfingers', 'src': '/static/foodstim60/chickenfingers.jpg', 'key': 'i', 'origWidth': 410, 'origHeight': 410, 'width': 410, 'height': 410, 'widthPercent': 0.45, 'rescaleHeight': False, 'trialN': 40, 'loaded': True, 'loadedTime': 3196.899999999907, 'positionName': 'RIGHT', 'positionCoords': [998.4, 335], 'bid': 7.88}]",75571.79999999981,1669832298138,orange slices,chickenfingers,8.0,7.88,-0.1200000000000001,chickenfingers,1021.4000000003725,1022,1021.9000000003725,True,i,77100.79999999981,1529.0,1669832299667,1529,HRV,HRV_0173,2022-11-30 18:22:18
41,"[{'imgObject': {}, 'id': 'omelette', 'src': '/static/foodstim60/omelette.jpg', 'key': 'u', 'origWidth': 410, 'origHeight': 409, 'width': 410, 'height': 409, 'widthPercent': 0.45, 'rescaleHeight': False, 'trialN': 41, 'loaded': True, 'loadedTime': 2790.5, 'positionName': 'LEFT', 'positionCoords': [511.6, 335.5], 'bid': 4.0200000000000005}, {'imgObject': {}, 'id': 'bagel plain', 'src': '/static/foodstim60/bagel plain.jpg', 'key': 'i', 'origWidth': 410, 'origHeight': 410, 'width': 410, 'height': 410, 'widthPercent': 0.45, 'rescaleHeight': False, 'trialN': 41, 'loaded': True, 'loadedTime': 3094.7000000001863, 'positionName': 'RIGHT', 'positionCoords': [998.4, 335], 'bid': 3.01}]",77100.8999999999,1669832299667,omelette,bagel plain,4.0200000000000005,3.01,-1.0100000000000007,omelette,1213.3999999999069,1214,1214.0,True,u,78827.70000000019,1726.8000000002794,1669832301394,1727,HRV,HRV_0173,2022-11-30 18:22:18
42,"[{'imgObject': {}, 'id': 'Grapes', 'src': '/static/foodstim60/Grapes.jpg', 'key': 'u', 'origWidth': 411, 'origHeight': 411, 'width': 411, 'height': 411, 'widthPercent': 0.45, 'rescaleHeight': False, 'trialN': 42, 'loaded': True, 'loadedTime': 3197.2999999998137, 'positionName': 'LEFT', 'positionCoords': [510.6, 334.5], 'bid': 6.78}, {'imgObject': {}, 'id': 'eggs', 'src': '/static/foodstim60/eggs.jpg', 'key': 'i', 'origWidth': 409, 'origHeight': 409, 'width': 409, 'height': 409, 'widthPercent': 0.45, 'rescaleHeight': False, 'trialN': 42, 'loaded': True, 'loadedTime': 2979, 'positionName': 'RIGHT', 'positionCoords': [998.4, 335.5], 'bid': 6.16}]",78827.79999999981,1669832301394,Grapes,eggs,6.78,6.16,-0.6200000000000001,Grapes,1437.7000000001863,1438,1438.0,True,u,80777.79999999981,1950.0,1669832303344,1950,HRV,HRV_0173,2022-11-30 18:22:18
43,"[{'imgObject': {}, 'id': 'salmon', 'src': '/static/foodstim60/salmon.jpg', 'key': 'u', 'origWidth': 410, 'origHeight': 409, 'width': 410, 'height': 409, 'widthPercent': 0.45, 'rescaleHeight': False, 'trialN': 43, 'loaded': True, 'loadedTime': 3199.899999999907, 'positionName': 'LEFT', 'positionCoords': [511.6, 335.5], 'bid': 3.01}, {'imgObject': {}, 'id': 'luckycharms', 'src': '/static/foodstim60/luckycharms.jpg', 'key': 'i', 'origWidth': 410, 'origHeight': 409, 'width': 410, 'height': 409, 'widthPercent': 0.45, 'rescaleHeight': False, 'trialN': 43, 'loaded': True, 'loadedTime': 3201.100000000093, 'positionName': 'RIGHT', 'positionCoords': [998.4, 335.5], 'bid': 3.06}]",80778.0,1669832303344,salmon,luckycharms,3.01,3.06,0.050000000000000266,salmon,1143.3999999999069,1144,1143.7000000001863,True,u,82431.0,1653.0,1669832304997,1653,HRV,HRV_0173,2022-11-30 18:22:18
44,"[{'imgObject': {}, 'id': 'hashbrowns', 'src': '/static/foodstim60/hashbrowns.jpg', 'key': 'u', 'origWidth': 411, 'origHeight': 410, 'width': 411, 'height': 410, 'widthPercent': 0.45, 'rescaleHeight': False, 'trialN': 44, 'loaded': True, 'loadedTime': 3201.5, 'positionName': 'LEFT', 'positionCoords': [510.6, 335], 'bid': 2.09}, {'imgObject': {}, 'id': 'bagel and cc', 'src': '/static/foodstim60/bagel and cc.jpg', 'key': 'i', 'origWidth': 410, 'origHeight': 410, 'width': 410, 'height': 410, 'widthPercent': 0.45, 'rescaleHeight': False, 'trialN': 44, 'loaded': True, 'loadedTime': 3102.100000000093, 'positionName': 'RIGHT', 'positionCoords': [998.4, 335], 'bid': 3.83}]",82431.1000000001,1669832304997,hashbrowns,bagel and cc,2.09,3.83,1.7400000000000002,bagel and cc,1242.7999999998137,1244,1243.3999999999069,True,i,84194.29999999981,1763.1999999997206,1669832306761,1764,HRV,HRV_0173,2022-11-30 18:22:18
45,"[{'imgObject': {}, 'id': 'burrito', 'src': '/static/foodstim60/burrito.jpg', 'key': 'u', 'origWidth': 410, 'origHeight': 410, 'width': 410, 'height': 410, 'widthPercent': 0.45, 'rescaleHeight': False, 'trialN': 45, 'loaded': True, 'loadedTime': 3209, 'positionName': 'LEFT', 'positionCoords': [511.6, 335], 'bid': 8.09}, {'imgObject': {}, 'id': 'chickenfingers', 'src': '/static/foodstim60/chickenfingers.jpg', 'key': 'i', 'origWidth': 410, 'origHeight': 410, 'width': 410, 'height': 410, 'widthPercent': 0.45, 'rescaleHeight': False, 'trialN': 45, 'loaded': True, 'loadedTime': 3188.5, 'positionName': 'RIGHT', 'positionCoords': [998.4, 335], 'bid': 7.88}]",84194.3999999999,1669832306761,burrito,chickenfingers,8.09,7.88,-0.20999999999999996,chickenfingers,1432.3000000002794,1432,1432.8000000002794,True,i,86147.20000000019,1952.8000000002794,1669832308714,1953,HRV,HRV_0173,2022-11-30 18:22:18
46,"[{'imgObject': {}, 'id': 'sushi w_condiments', 'src': '/static/foodstim60/sushi w_condiments.jpg', 'key': 'u', 'origWidth': 410, 'origHeight': 410, 'width': 410, 'height': 410, 'widthPercent': 0.45, 'rescaleHeight': False, 'trialN': 46, 'loaded': True, 'loadedTime': 3026.5, 'positionName': 'LEFT', 'positionCoords': [511.6, 335], 'bid': 4.1}, {'imgObject': {}, 'id': 'eggs', 'src': '/static/foodstim60/eggs.jpg', 'key': 'i', 'origWidth': 409, 'origHeight': 409, 'width': 409, 'height': 409, 'widthPercent': 0.45, 'rescaleHeight': False, 'trialN': 46, 'loaded': True, 'loadedTime': 2979.399999999907, 'positionName': 'RIGHT', 'positionCoords': [998.4, 335.5], 'bid': 6.16}]",86147.3999999999,1669832308714,sushi w_condiments,eggs,4.1,6.16,2.0600000000000005,eggs,1319.8999999999069,1320,1320.3999999999069,True,i,87979.70000000019,1832.3000000002794,1669832310546,1832,HRV,HRV_0173,2022-11-30 18:22:18
47,"[{'imgObject': {}, 'id': 'corn cob', 'src': '/static/foodstim60/corn cob.jpg', 'key': 'u', 'origWidth': 411, 'origHeight': 411, 'width': 411, 'height': 411, 'widthPercent': 0.45, 'rescaleHeight': False, 'trialN': 47, 'loaded': True, 'loadedTime': 3126.7000000001863, 'positionName': 'LEFT', 'positionCoords': [510.6, 334.5], 'bid': 7.63}, {'imgObject': {}, 'id': 'turkey sandwich', 'src': '/static/foodstim60/turkey sandwich.jpg', 'key': 'i', 'origWidth': 409, 'origHeight': 409, 'width': 409, 'height': 409, 'widthPercent': 0.45, 'rescaleHeight': False, 'trialN': 47, 'loaded': True, 'loadedTime': 3210.7000000001863, 'positionName': 'RIGHT', 'positionCoords': [998.4, 335.5], 'bid': 8.75}]",87979.79999999981,1669832310546,corn cob,turkey sandwich,7.63,8.75,1.12,turkey sandwich,1032.7000000001863,1033,1033.2000000001863,True,i,89526.20000000019,1546.4000000003725,1669832312092,1546,HRV,HRV_0173,2022-11-30 18:22:18
48,"[{'imgObject': {}, 'id': 'chickenfingers', 'src': '/static/foodstim60/chickenfingers.jpg', 'key': 'u', 'origWidth': 410, 'origHeight': 410, 'width': 410, 'height': 410, 'widthPercent': 0.45, 'rescaleHeight': False, 'trialN': 48, 'loaded': True, 'loadedTime': 3189.399999999907, 'positionName': 'LEFT', 'positionCoords': [511.6, 335], 'bid': 7.88}, {'imgObject': {}, 'id': 'roastedpotatoes', 'src': '/static/foodstim60/roastedpotatoes.jpg', 'key': 'i', 'origWidth': 409, 'origHeight': 410, 'width': 409, 'height': 410, 'widthPercent': 0.45, 'rescaleHeight': False, 'trialN': 48, 'loaded': True, 'loadedTime': 3216.7999999998137, 'positionName': 'RIGHT', 'positionCoords': [998.4, 335], 'bid': 9.83}]",89526.6000000001,1669832312093,chickenfingers,roastedpotatoes,7.88,9.83,1.9500000000000002,roastedpotatoes,1629.1999999997206,1630,1629.7999999998137,True,i,91676.1000000001,2149.5,1669832314242,2149,HRV,HRV_0173,2022-11-30 18:22:18
49,"[{'imgObject': {}, 'id': 'luckycharms', 'src': '/static/foodstim60/luckycharms.jpg', 'key': 'u', 'origWidth': 410, 'origHeight': 409, 'width': 410, 'height': 409, 'widthPercent': 0.45, 'rescaleHeight': False, 'trialN': 49, 'loaded': True, 'loadedTime': 3201.100000000093, 'positionName': 'LEFT', 'positionCoords': [511.6, 335.5], 'bid': 3.06}, {'imgObject': {}, 'id': 'orange slices', 'src': '/static/foodstim60/orange slices.jpg', 'key': 'i', 'origWidth': 409, 'origHeight': 410, 'width': 409, 'height': 410, 'widthPercent': 0.45, 'rescaleHeight': False, 'trialN': 49, 'loaded': True, 'loadedTime': 3160.7000000001863, 'positionName': 'RIGHT', 'positionCoords': [998.4, 335], 'bid': 8}]",91676.29999999981,1669832314243,luckycharms,orange slices,3.06,8.0,4.9399999999999995,orange slices,791.6000000000931,792,792.2000000001863,True,i,92982.8999999999,1306.6000000000931,1669832315549,1306,HRV,HRV_0173,2022-11-30 18:22:18
50,"[{'imgObject': {}, 'id': 'raisin bran w milk', 'src': '/static/foodstim60/raisin bran w milk.jpg', 'key': 'u', 'origWidth': 411, 'origHeight': 411, 'width': 411, 'height': 411, 'widthPercent': 0.45, 'rescaleHeight': False, 'trialN': 50, 'loaded': True, 'loadedTime': 3182.2999999998137, 'positionName': 'LEFT', 'positionCoords': [510.6, 334.5], 'bid': 0.18}, {'imgObject': {}, 'id': 'shreddedwheatwithmilk', 'src': '/static/foodstim60/shreddedwheatwithmilk.jpg', 'key': 'i', 'origWidth': 410, 'origHeight': 410, 'width': 410, 'height': 410, 'widthPercent': 0.45, 'rescaleHeight': False, 'trialN': 50, 'loaded': True, 'loadedTime': 2811.7000000001863, 'positionName': 'RIGHT', 'positionCoords': [998.4, 335], 'bid': 0.45}]",92983.20000000019,1669832315549,raisin bran w milk,shreddedwheatwithmilk,0.18,0.45,0.27,shreddedwheatwithmilk,1508.8999999999069,1510,1509.0999999996275,True,i,95010.1000000001,2026.8999999999069,1669832317576,2027,HRV,HRV_0173,2022-11-30 18:22:18
51,"[{'imgObject': {}, 'id': 'salmon', 'src': '/static/foodstim60/salmon.jpg', 'key': 'u', 'origWidth': 410, 'origHeight': 409, 'width': 410, 'height': 409, 'widthPercent': 0.45, 'rescaleHeight': False, 'trialN': 51, 'loaded': True, 'loadedTime': 3198.7000000001863, 'positionName': 'LEFT', 'positionCoords': [511.6, 335.5], 'bid': 3.01}, {'imgObject': {}, 'id': 'banana', 'src': '/static/foodstim60/banana.jpg', 'key': 'i', 'origWidth': 410, 'origHeight': 410, 'width': 410, 'height': 410, 'widthPercent': 0.45, 'rescaleHeight': False, 'trialN': 51, 'loaded': True, 'loadedTime': 3078.600000000093, 'positionName': 'RIGHT', 'positionCoords': [998.4, 335], 'bid': 3}]",95010.29999999981,1669832317577,salmon,banana,3.01,3.0,-0.009999999999999787,salmon,1178.1000000000931,1178,1178.6000000000931,True,u,96695.5,1685.2000000001863,1669832319262,1685,HRV,HRV_0173,2022-11-30 18:22:18
52,"[{'imgObject': {}, 'id': 'turkey sandwich', 'src': '/static/foodstim60/turkey sandwich.jpg', 'key': 'u', 'origWidth': 409, 'origHeight': 409, 'width': 409, 'height': 409, 'widthPercent': 0.45, 'rescaleHeight': False, 'trialN': 52, 'loaded': True, 'loadedTime': 3209.399999999907, 'positionName': 'LEFT', 'positionCoords': [512.6, 335.5], 'bid': 8.75}, {'imgObject': {}, 'id': 'veggieswithdip', 'src': '/static/foodstim60/veggieswithdip.jpg', 'key': 'i', 'origWidth': 409, 'origHeight': 409, 'width': 409, 'height': 409, 'widthPercent': 0.45, 'rescaleHeight': False, 'trialN': 52, 'loaded': True, 'loadedTime': 3219.100000000093, 'positionName': 'RIGHT', 'positionCoords': [998.4, 335.5], 'bid': 9.63}]",96695.70000000019,1669832319262,turkey sandwich,veggieswithdip,8.75,9.63,0.8800000000000008,veggieswithdip,1308.8999999999069,1311,1309.0999999996275,True,i,98523.70000000019,1828.0,1669832321091,1829,HRV,HRV_0173,2022-11-30 18:22:18
53,"[{'imgObject': {}, 'id': 'burger', 'src': '/static/foodstim60/burger.jpg', 'key': 'u', 'origWidth': 409, 'origHeight': 409, 'width': 409, 'height': 409, 'widthPercent': 0.45, 'rescaleHeight': False, 'trialN': 53, 'loaded': True, 'loadedTime': 3222.399999999907, 'positionName': 'LEFT', 'positionCoords': [512.6, 335.5], 'bid': 7.63}, {'imgObject': {}, 'id': 'tacos', 'src': '/static/foodstim60/tacos.jpg', 'key': 'i', 'origWidth': 411, 'origHeight': 411, 'width': 411, 'height': 411, 'widthPercent': 0.45, 'rescaleHeight': False, 'trialN': 53, 'loaded': True, 'loadedTime': 3223.899999999907, 'positionName': 'RIGHT', 'positionCoords': [998.4, 334.5], 'bid': 8.85}]",98523.79999999981,1669832321092,burger,tacos,7.63,8.85,1.2199999999999998,tacos,1225.1000000000931,1225,1225.4000000003725,True,i,100259.8999999999,1736.1000000000931,1669832322828,1736,HRV,HRV_0173,2022-11-30 18:22:18
54,"[{'imgObject': {}, 'id': 'mac & cheese', 'src': '/static/foodstim60/mac & cheese.jpg', 'key': 'u', 'origWidth': 410, 'origHeight': 410, 'width': 410, 'height': 410, 'widthPercent': 0.45, 'rescaleHeight': False, 'trialN': 54, 'loaded': True, 'loadedTime': 3146.2000000001863, 'positionName': 'LEFT', 'positionCoords': [511.6, 335], 'bid': 9.77}, {'imgObject': {}, 'id': 'chicken nuggets2', 'src': '/static/foodstim60/chicken nuggets2.jpg', 'key': 'i', 'origWidth': 410, 'origHeight': 409, 'width': 410, 'height': 409, 'widthPercent': 0.45, 'rescaleHeight': False, 'trialN': 54, 'loaded': True, 'loadedTime': 3120.600000000093, 'positionName': 'RIGHT', 'positionCoords': [998.4, 335.5], 'bid': 7.84}]",100260.20000000019,1669832322828,mac & cheese,chicken nuggets2,9.77,7.84,-1.9299999999999997,mac & cheese,1497.1999999997206,1498,1497.6999999997206,True,u,102260.79999999981,2000.5999999996275,1669832324829,2001,HRV,HRV_0173,2022-11-30 18:22:18
55,"[{'imgObject': {}, 'id': 'chicken nuggets2', 'src': '/static/foodstim60/chicken nuggets2.jpg', 'key': 'u', 'origWidth': 410, 'origHeight': 409, 'width': 410, 'height': 409, 'widthPercent': 0.45, 'rescaleHeight': False, 'trialN': 55, 'loaded': True, 'loadedTime': 3125.600000000093, 'positionName': 'LEFT', 'positionCoords': [511.6, 335.5], 'bid': 7.84}, {'imgObject': {}, 'id': 'cheerios', 'src': '/static/foodstim60/cheerios.jpg', 'key': 'i', 'origWidth': 409, 'origHeight': 410, 'width': 409, 'height': 410, 'widthPercent': 0.45, 'rescaleHeight': False, 'trialN': 55, 'loaded': True, 'loadedTime': 2850.100000000093, 'positionName': 'RIGHT', 'positionCoords': [998.4, 335], 'bid': 7.41}]",102260.8999999999,1669832324829,chicken nuggets2,cheerios,7.84,7.41,-0.4299999999999997,chicken nuggets2,1048.1000000000931,1048,1048.3999999999069,True,u,103816.20000000019,1555.3000000002794,1669832326384,1555,HRV,HRV_0173,2022-11-30 18:22:18
56,"[{'imgObject': {}, 'id': 'ice cream sundae 002', 'src': '/static/foodstim60/ice cream sundae 002.jpg', 'key': 'u', 'origWidth': 409, 'origHeight': 409, 'width': 409, 'height': 409, 'widthPercent': 0.45, 'rescaleHeight': False, 'trialN': 56, 'loaded': True, 'loadedTime': 2986, 'positionName': 'LEFT', 'positionCoords': [512.6, 335.5], 'bid': 9.75}, {'imgObject': {}, 'id': 'roastedpotatoes', 'src': '/static/foodstim60/roastedpotatoes.jpg', 'key': 'i', 'origWidth': 409, 'origHeight': 410, 'width': 409, 'height': 410, 'widthPercent': 0.45, 'rescaleHeight': False, 'trialN': 56, 'loaded': True, 'loadedTime': 3218.2000000001863, 'positionName': 'RIGHT', 'positionCoords': [998.4, 335], 'bid': 9.83}]",103816.5,1669832326384,ice cream sundae 002,roastedpotatoes,9.75,9.83,0.08000000000000007,ice cream sundae 002,1188.3999999999069,1189,1188.6000000000931,True,u,105518.70000000019,1702.2000000001863,1669832328086,1702,HRV,HRV_0173,2022-11-30 18:22:18
57,"[{'imgObject': {}, 'id': 'avocado', 'src': '/static/foodstim60/avocado.jpg', 'key': 'u', 'origWidth': 409, 'origHeight': 409, 'width': 409, 'height': 409, 'widthPercent': 0.45, 'rescaleHeight': False, 'trialN': 57, 'loaded': True, 'loadedTime': 3224.7000000001863, 'positionName': 'LEFT', 'positionCoords': [512.6, 335.5], 'bid': 3.78}, {'imgObject': {}, 'id': 'blackbeanswithrice', 'src': '/static/foodstim60/blackbeanswithrice.jpg', 'key': 'i', 'origWidth': 410, 'origHeight': 410, 'width': 410, 'height': 410, 'widthPercent': 0.45, 'rescaleHeight': False, 'trialN': 57, 'loaded': True, 'loadedTime': 3028.100000000093, 'positionName': 'RIGHT', 'positionCoords': [998.4, 335], 'bid': 1.79}]",105518.8999999999,1669832328087,avocado,blackbeanswithrice,3.78,1.79,-1.9899999999999998,blackbeanswithrice,2422.399999999907,2422,2422.600000000093,True,i,108455.1000000001,2936.2000000001863,1669832331023,2936,HRV,HRV_0173,2022-11-30 18:22:18
58,"[{'imgObject': {}, 'id': 'chicken nuggets2', 'src': '/static/foodstim60/chicken nuggets2.jpg', 'key': 'u', 'origWidth': 410, 'origHeight': 409, 'width': 410, 'height': 409, 'widthPercent': 0.45, 'rescaleHeight': False, 'trialN': 58, 'loaded': True, 'loadedTime': 3125.2000000001863, 'positionName': 'LEFT', 'positionCoords': [511.6, 335.5], 'bid': 7.84}, {'imgObject': {}, 'id': 'hotdog w must', 'src': '/static/foodstim60/hotdog w must.jpg', 'key': 'i', 'origWidth': 409, 'origHeight': 409, 'width': 409, 'height': 409, 'widthPercent': 0.45, 'rescaleHeight': False, 'trialN': 58, 'loaded': True, 'loadedTime': 3058.7000000001863, 'positionName': 'RIGHT', 'positionCoords': [998.4, 335.5], 'bid': 9.28}]",108455.20000000019,1669832331023,chicken nuggets2,hotdog w must,7.84,9.28,1.4399999999999995,chicken nuggets2,1407.2999999998137,1408,1407.5999999996275,True,u,110379.1000000001,1923.8999999999069,1669832332947,1924,HRV,HRV_0173,2022-11-30 18:22:18
59,"[{'imgObject': {}, 'id': 'shreddedwheatwithmilk', 'src': '/static/foodstim60/shreddedwheatwithmilk.jpg', 'key': 'u', 'origWidth': 410, 'origHeight': 410, 'width': 410, 'height': 410, 'widthPercent': 0.45, 'rescaleHeight': False, 'trialN': 59, 'loaded': True, 'loadedTime': 2819.7000000001863, 'positionName': 'LEFT', 'positionCoords': [511.6, 335], 'bid': 0.45}, {'imgObject': {}, 'id': 'bagel and cc', 'src': '/static/foodstim60/bagel and cc.jpg', 'key': 'i', 'origWidth': 410, 'origHeight': 410, 'width': 410, 'height': 410, 'widthPercent': 0.45, 'rescaleHeight': False, 'trialN': 59, 'loaded': True, 'loadedTime': 3106.5, 'positionName': 'RIGHT', 'positionCoords': [998.4, 335], 'bid': 3.83}]",110379.20000000019,1669832332947,shreddedwheatwithmilk,bagel and cc,0.45,3.83,3.38,bagel and cc,1922.8999999999069,1923,1923.1999999997206,True,i,112811.70000000019,2432.5,1669832335379,2432,HRV,HRV_0173,2022-11-30 18:22:18
60,"[{'imgObject': {}, 'id': 'bagel and cc', 'src': '/static/foodstim60/bagel and cc.jpg', 'key': 'u', 'origWidth': 410, 'origHeight': 410, 'width': 410, 'height': 410, 'widthPercent': 0.45, 'rescaleHeight': False, 'trialN': 60, 'loaded': True, 'loadedTime': 3106.899999999907, 'positionName': 'LEFT', 'positionCoords': [511.6, 335], 'bid': 3.83}, {'imgObject': {}, 'id': 'mashed potato', 'src': '/static/foodstim60/mashed potato.jpg', 'key': 'i', 'origWidth': 409, 'origHeight': 409, 'width': 409, 'height': 409, 'widthPercent': 0.45, 'rescaleHeight': False, 'trialN': 60, 'loaded': True, 'loadedTime': 3234, 'positionName': 'RIGHT', 'positionCoords': [998.4, 335.5], 'bid': 3.5500000000000003}]",112811.79999999981,1669832335380,bagel and cc,mashed potato,3.83,3.5500000000000003,-0.2799999999999998,mashed potato,1860.1000000000931,1860,1860.6000000000931,True,i,115195.0,2383.2000000001863,1669832337763,2383,HRV,HRV_0173,2022-11-30 18:22:18
61,"[{'imgObject': {}, 'id': 'strawberries', 'src': '/static/foodstim60/strawberries.jpg', 'key': 'u', 'origWidth': 410, 'origHeight': 410, 'width': 410, 'height': 410, 'widthPercent': 0.45, 'rescaleHeight': False, 'trialN': 61, 'loaded': True, 'loadedTime': 3114.399999999907, 'positionName': 'LEFT', 'positionCoords': [511.6, 335], 'bid': 7.7}, {'imgObject': {}, 'id': 'banana', 'src': '/static/foodstim60/banana.jpg', 'key': 'i', 'origWidth': 410, 'origHeight': 410, 'width': 410, 'height': 410, 'widthPercent': 0.45, 'rescaleHeight': False, 'trialN': 61, 'loaded': True, 'loadedTime': 3073.2999999998137, 'positionName': 'RIGHT', 'positionCoords': [998.4, 335], 'bid': 3}]",115195.20000000019,1669832337763,strawberries,banana,7.7,3.0,-4.7,strawberries,1132.2999999998137,1132,1132.5999999996275,True,u,116843.29999999981,1648.0999999996275,1669832339411,1648,HRV,HRV_0173,2022-11-30 18:22:18
62,"[{'imgObject': {}, 'id': 'rigatoni', 'src': '/static/foodstim60/rigatoni.jpg', 'key': 'u', 'origWidth': 411, 'origHeight': 411, 'width': 411, 'height': 411, 'widthPercent': 0.45, 'rescaleHeight': False, 'trialN': 62, 'loaded': True, 'loadedTime': 3012.600000000093, 'positionName': 'LEFT', 'positionCoords': [510.6, 334.5], 'bid': 4.3100000000000005}, {'imgObject': {}, 'id': 'mango', 'src': '/static/foodstim60/mango.jpg', 'key': 'i', 'origWidth': 411, 'origHeight': 411, 'width': 411, 'height': 411, 'widthPercent': 0.45, 'rescaleHeight': False, 'trialN': 62, 'loaded': True, 'loadedTime': 3034.2999999998137, 'positionName': 'RIGHT', 'positionCoords': [998.4, 334.5], 'bid': 4.58}]",116843.3999999999,1669832339411,rigatoni,mango,4.3100000000000005,4.58,0.2699999999999996,rigatoni,1019.8000000002794,1020,1020.1000000000931,True,u,118368.70000000019,1525.3000000002794,1669832340936,1525,HRV,HRV_0173,2022-11-30 18:22:18
63,"[{'imgObject': {}, 'id': 'Tribe humus pita', 'src': '/static/foodstim60/Tribe humus pita.jpg', 'key': 'u', 'origWidth': 411, 'origHeight': 411, 'width': 411, 'height': 411, 'widthPercent': 0.45, 'rescaleHeight': False, 'trialN': 63, 'loaded': True, 'loadedTime': 2959, 'positionName': 'LEFT', 'positionCoords': [510.6, 334.5], 'bid': 4.25}, {'imgObject': {}, 'id': 'sushi w_condiments', 'src': '/static/foodstim60/sushi w_condiments.jpg', 'key': 'i', 'origWidth': 410, 'origHeight': 410, 'width': 410, 'height': 410, 'widthPercent': 0.45, 'rescaleHeight': False, 'trialN': 63, 'loaded': True, 'loadedTime': 3018.600000000093, 'positionName': 'RIGHT', 'positionCoords': [998.4, 335], 'bid': 4.1}]",118368.79999999981,1669832340937,Tribe humus pita,sushi w_condiments,4.25,4.1,-0.15000000000000036,Tribe humus pita,1911.6000000000931,1911,1911.8000000002794,True,u,120795.79999999981,2427.0,1669832343364,2427,HRV,HRV_0173,2022-11-30 18:22:18
64,"[{'imgObject': {}, 'id': 'fried eggs', 'src': '/static/foodstim60/fried eggs.jpg', 'key': 'u', 'origWidth': 410, 'origHeight': 410, 'width': 410, 'height': 410, 'widthPercent': 0.45, 'rescaleHeight': False, 'trialN': 64, 'loaded': True, 'loadedTime': 3166.600000000093, 'positionName': 'LEFT', 'positionCoords': [511.6, 335], 'bid': 9.36}, {'imgObject': {}, 'id': 'chickenfingers', 'src': '/static/foodstim60/chickenfingers.jpg', 'key': 'i', 'origWidth': 410, 'origHeight': 410, 'width': 410, 'height': 410, 'widthPercent': 0.45, 'rescaleHeight': False, 'trialN': 64, 'loaded': True, 'loadedTime': 3197.2000000001863, 'positionName': 'RIGHT', 'positionCoords': [998.4, 335], 'bid': 7.88}]",120796.0,1669832343364,fried eggs,chickenfingers,9.36,7.88,-1.4799999999999995,chickenfingers,1725.0,1725,1725.5,True,i,123044.0,2248.0,1669832345612,2248,HRV,HRV_0173,2022-11-30 18:22:18
65,"[{'imgObject': {}, 'id': 'salmon', 'src': '/static/foodstim60/salmon.jpg', 'key': 'u', 'origWidth': 410, 'origHeight': 409, 'width': 410, 'height': 409, 'widthPercent': 0.45, 'rescaleHeight': False, 'trialN': 65, 'loaded': True, 'loadedTime': 3199.7000000001863, 'positionName': 'LEFT', 'positionCoords': [511.6, 335.5], 'bid': 3.01}, {'imgObject': {}, 'id': 'turkeysandwich', 'src': '/static/foodstim60/turkeysandwich.jpg', 'key': 'i', 'origWidth': 409, 'origHeight': 409, 'width': 409, 'height': 409, 'widthPercent': 0.45, 'rescaleHeight': False, 'trialN': 65, 'loaded': True, 'loadedTime': 3139.600000000093, 'positionName': 'RIGHT', 'positionCoords': [998.4, 335.5], 'bid': 3.97}]",123044.20000000019,1669832345612,salmon,turkeysandwich,3.01,3.97,0.9600000000000004,turkeysandwich,1629.0,1629,1629.5,True,i,125180.70000000019,2136.5,1669832347748,2136,HRV,HRV_0173,2022-11-30 18:22:18
66,"[{'imgObject': {}, 'id': 'mango', 'src': '/static/foodstim60/mango.jpg', 'key': 'u', 'origWidth': 411, 'origHeight': 411, 'width': 411, 'height': 411, 'widthPercent': 0.45, 'rescaleHeight': False, 'trialN': 66, 'loaded': True, 'loadedTime': 3034.7000000001863, 'positionName': 'LEFT', 'positionCoords': [510.6, 334.5], 'bid': 4.58}, {'imgObject': {}, 'id': 'baked potato', 'src': '/static/foodstim60/baked potato.jpg', 'key': 'i', 'origWidth': 409, 'origHeight': 410, 'width': 409, 'height': 410, 'widthPercent': 0.45, 'rescaleHeight': False, 'trialN': 66, 'loaded': True, 'loadedTime': 2998.7000000001863, 'positionName': 'RIGHT', 'positionCoords': [998.4, 335], 'bid': 5.73}]",125180.8999999999,1669832347749,mango,baked potato,4.58,5.73,1.1500000000000004,baked potato,1091.8999999999069,1092,1092.2000000001863,True,i,126795.1000000001,1614.2000000001863,1669832349363,1614,HRV,HRV_0173,2022-11-30 18:22:18
67,"[{'imgObject': {}, 'id': 'sweetpotato', 'src': '/static/foodstim60/sweetpotato.jpg', 'key': 'u', 'origWidth': 410, 'origHeight': 410, 'width': 410, 'height': 410, 'widthPercent': 0.45, 'rescaleHeight': False, 'trialN': 67, 'loaded': True, 'loadedTime': 2966, 'positionName': 'LEFT', 'positionCoords': [511.6, 335], 'bid': 5.14}, {'imgObject': {}, 'id': 'eggs', 'src': '/static/foodstim60/eggs.jpg', 'key': 'i', 'origWidth': 409, 'origHeight': 409, 'width': 409, 'height': 409, 'widthPercent': 0.45, 'rescaleHeight': False, 'trialN': 67, 'loaded': True, 'loadedTime': 2973, 'positionName': 'RIGHT', 'positionCoords': [998.4, 335.5], 'bid': 6.16}]",126795.3999999999,1669832349363,sweetpotato,eggs,5.14,6.16,1.0200000000000005,eggs,1501.8999999999069,1502,1502.1000000000931,True,i,128818.20000000019,2022.8000000002794,1669832351386,2023,HRV,HRV_0173,2022-11-30 18:22:18
68,"[{'imgObject': {}, 'id': 'cocktailshrimp', 'src': '/static/foodstim60/cocktailshrimp.jpg', 'key': 'u', 'origWidth': 410, 'origHeight': 410, 'width': 410, 'height': 410, 'widthPercent': 0.45, 'rescaleHeight': False, 'trialN': 68, 'loaded': True, 'loadedTime': 2837, 'positionName': 'LEFT', 'positionCoords': [511.6, 335], 'bid': 6.46}, {'imgObject': {}, 'id': 'baked potato', 'src': '/static/foodstim60/baked potato.jpg', 'key': 'i', 'origWidth': 409, 'origHeight': 410, 'width': 409, 'height': 410, 'widthPercent': 0.45, 'rescaleHeight': False, 'trialN': 68, 'loaded': True, 'loadedTime': 2998.899999999907, 'positionName': 'RIGHT', 'positionCoords': [998.4, 335], 'bid': 5.73}]",128818.3999999999,1669832351386,cocktailshrimp,baked potato,6.46,5.73,-0.7299999999999995,cocktailshrimp,1527.7000000001863,1528,1528.0,True,u,130859.29999999981,2040.8999999999069,1669832353427,2041,HRV,HRV_0173,2022-11-30 18:22:18
69,"[{'imgObject': {}, 'id': 'tacos', 'src': '/static/foodstim60/tacos.jpg', 'key': 'u', 'origWidth': 411, 'origHeight': 411, 'width': 411, 'height': 411, 'widthPercent': 0.45, 'rescaleHeight': False, 'trialN': 69, 'loaded': True, 'loadedTime': 3224.399999999907, 'positionName': 'LEFT', 'positionCoords': [510.6, 334.5], 'bid': 8.85}, {'imgObject': {}, 'id': 'steak', 'src': '/static/foodstim60/steak.jpg', 'key': 'i', 'origWidth': 410, 'origHeight': 410, 'width': 410, 'height': 410, 'widthPercent': 0.45, 'rescaleHeight': False, 'trialN': 69, 'loaded': True, 'loadedTime': 2945.600000000093, 'positionName': 'RIGHT', 'positionCoords': [998.4, 335], 'bid': 4.04}]",130859.3999999999,1669832353427,tacos,steak,8.85,4.04,-4.81,tacos,951.3999999999069,952,951.7000000001863,True,u,132322.7000000002,1463.3000000002794,1669832354890,1463,HRV,HRV_0173,2022-11-30 18:22:18
70,"[{'imgObject': {}, 'id': 'hashbrowns', 'src': '/static/foodstim60/hashbrowns.jpg', 'key': 'u', 'origWidth': 411, 'origHeight': 410, 'width': 411, 'height': 410, 'widthPercent': 0.45, 'rescaleHeight': False, 'trialN': 70, 'loaded': True, 'loadedTime': 3202, 'positionName': 'LEFT', 'positionCoords': [510.6, 335], 'bid': 2.09}, {'imgObject': {}, 'id': 'Tribe humus pita', 'src': '/static/foodstim60/Tribe humus pita.jpg', 'key': 'i', 'origWidth': 411, 'origHeight': 411, 'width': 411, 'height': 411, 'widthPercent': 0.45, 'rescaleHeight': False, 'trialN': 70, 'loaded': True, 'loadedTime': 2952.7999999998137, 'positionName': 'RIGHT', 'positionCoords': [998.4, 334.5], 'bid': 4.25}]",132322.7999999998,1669832354891,hashbrowns,Tribe humus pita,2.09,4.25,2.16,Tribe humus pita,879.4000000003725,879,879.8000000002794,True,i,133711.2000000002,1388.4000000003725,1669832356279,1388,HRV,HRV_0173,2022-11-30 18:22:18
71,"[{'imgObject': {}, 'id': 'kiwi', 'src': '/static/foodstim60/kiwi.jpg', 'key': 'u', 'origWidth': 410, 'origHeight': 410, 'width': 410, 'height': 410, 'widthPercent': 0.45, 'rescaleHeight': False, 'trialN': 71, 'loaded': True, 'loadedTime': 2855.899999999907, 'positionName': 'LEFT', 'positionCoords': [511.6, 335], 'bid': 7.57}, {'imgObject': {}, 'id': 'cherry tomato', 'src': '/static/foodstim60/cherry tomato.jpg', 'key': 'i', 'origWidth': 410, 'origHeight': 410, 'width': 410, 'height': 410, 'widthPercent': 0.45, 'rescaleHeight': False, 'trialN': 71, 'loaded': True, 'loadedTime': 3088.100000000093, 'positionName': 'RIGHT', 'positionCoords': [998.4, 335], 'bid': 6.0600000000000005}]",133711.3999999999,1669832356279,kiwi,cherry tomato,7.57,6.0600000000000005,-1.5099999999999998,cherry tomato,1802.5,1803,1802.7000000001863,True,i,136021.7999999998,2310.399999999907,1669832358590,2311,HRV,HRV_0173,2022-11-30 18:22:18
72,"[{'imgObject': {}, 'id': 'turkeysandwich', 'src': '/static/foodstim60/turkeysandwich.jpg', 'key': 'u', 'origWidth': 409, 'origHeight': 409, 'width': 409, 'height': 409, 'widthPercent': 0.45, 'rescaleHeight': False, 'trialN': 72, 'loaded': True, 'loadedTime': 3139.7999999998137, 'positionName': 'LEFT', 'positionCoords': [512.6, 335.5], 'bid': 3.97}, {'imgObject': {}, 'id': 'bagel and cc', 'src': '/static/foodstim60/bagel and cc.jpg', 'key': 'i', 'origWidth': 410, 'origHeight': 410, 'width': 410, 'height': 410, 'widthPercent': 0.45, 'rescaleHeight': False, 'trialN': 72, 'loaded': True, 'loadedTime': 3107.100000000093, 'positionName': 'RIGHT', 'positionCoords': [998.4, 335], 'bid': 3.83}]",136022.1000000001,1669832358590,turkeysandwich,bagel and cc,3.97,3.83,-0.14000000000000012,turkeysandwich,1012.5,1013,1012.7999999998137,True,u,137544.2000000002,1522.1000000000931,1669832360112,1522,HRV,HRV_0173,2022-11-30 18:22:18
73,"[{'imgObject': {}, 'id': 'eggsalad', 'src': '/static/foodstim60/eggsalad.jpg', 'key': 'u', 'origWidth': 410, 'origHeight': 409, 'width': 410, 'height': 409, 'widthPercent': 0.45, 'rescaleHeight': False, 'trialN': 73, 'loaded': True, 'loadedTime': 2896.2999999998137, 'positionName': 'LEFT', 'positionCoords': [511.6, 335.5], 'bid': 2.88}, {'imgObject': {}, 'id': 'grilled chicken strips', 'src': '/static/foodstim60/grilled chicken strips.jpg', 'key': 'i', 'origWidth': 410, 'origHeight': 411, 'width': 410, 'height': 411, 'widthPercent': 0.45, 'rescaleHeight': False, 'trialN': 73, 'loaded': True, 'loadedTime': 2933.7000000001863, 'positionName': 'RIGHT', 'positionCoords': [998.4, 334.5], 'bid': 2.54}]",137544.2000000002,1669832360112,eggsalad,grilled chicken strips,2.88,2.54,-0.33999999999999986,grilled chicken strips,1907.2999999998137,1908,1908.0,True,i,139959.7000000002,2415.5,1669832362528,2416,HRV,HRV_0173,2022-11-30 18:22:18
74,"[{'imgObject': {}, 'id': 'edamame', 'src': '/static/foodstim60/edamame.jpg', 'key': 'u', 'origWidth': 409, 'origHeight': 410, 'width': 409, 'height': 410, 'widthPercent': 0.45, 'rescaleHeight': False, 'trialN': 74, 'loaded': True, 'loadedTime': 2913.5, 'positionName': 'LEFT', 'positionCoords': [512.6, 335], 'bid': 1.29}, {'imgObject': {}, 'id': 'blackbeanswithrice', 'src': '/static/foodstim60/blackbeanswithrice.jpg', 'key': 'i', 'origWidth': 410, 'origHeight': 410, 'width': 410, 'height': 410, 'widthPercent': 0.45, 'rescaleHeight': False, 'trialN': 74, 'loaded': True, 'loadedTime': 3028, 'positionName': 'RIGHT', 'positionCoords': [998.4, 335], 'bid': 1.79}]",139959.8999999999,1669832362528,edamame,blackbeanswithrice,1.29,1.79,0.5,blackbeanswithrice,899.7000000001863,900,899.8999999999069,True,i,141377.7999999998,1417.8999999999069,1669832363946,1418,HRV,HRV_0173,2022-11-30 18:22:18
75,"[{'imgObject': {}, 'id': 'raspberries', 'src': '/static/foodstim60/raspberries.jpg', 'key': 'u', 'origWidth': 411, 'origHeight': 411, 'width': 411, 'height': 411, 'widthPercent': 0.45, 'rescaleHeight': False, 'trialN': 75, 'loaded': True, 'loadedTime': 3040.7000000001863, 'positionName': 'LEFT', 'positionCoords': [510.6, 334.5], 'bid': 7.0200000000000005}, {'imgObject': {}, 'id': 'cocktailshrimp', 'src': '/static/foodstim60/cocktailshrimp.jpg', 'key': 'i', 'origWidth': 410, 'origHeight': 410, 'width': 410, 'height': 410, 'widthPercent': 0.45, 'rescaleHeight': False, 'trialN': 75, 'loaded': True, 'loadedTime': 2838.2000000001863, 'positionName': 'RIGHT', 'positionCoords': [998.4, 335], 'bid': 6.46}]",141377.8999999999,1669832363946,raspberries,cocktailshrimp,7.0200000000000005,6.46,-0.5600000000000005,cocktailshrimp,1201.7000000001863,1202,1201.8999999999069,True,i,143085.1000000001,1707.2000000001863,1669832365653,1707,HRV,HRV_0173,2022-11-30 18:22:18
76,"[{'imgObject': {}, 'id': 'fruitsalad', 'src': '/static/foodstim60/fruitsalad.jpg', 'key': 'u', 'origWidth': 410, 'origHeight': 410, 'width': 410, 'height': 410, 'widthPercent': 0.45, 'rescaleHeight': False, 'trialN': 76, 'loaded': True, 'loadedTime': 3047.7000000001863, 'positionName': 'LEFT', 'positionCoords': [511.6, 335], 'bid': 8.14}, {'imgObject': {}, 'id': 'avocado', 'src': '/static/foodstim60/avocado.jpg', 'key': 'i', 'origWidth': 409, 'origHeight': 409, 'width': 409, 'height': 409, 'widthPercent': 0.45, 'rescaleHeight': False, 'trialN': 76, 'loaded': True, 'loadedTime': 3225.7000000001863, 'positionName': 'RIGHT', 'positionCoords': [998.4, 335.5], 'bid': 3.78}]",143085.2999999998,1669832365653,fruitsalad,avocado,8.14,3.78,-4.360000000000001,fruitsalad,1142.5,1143,1142.7000000001863,True,u,144734.5,1649.2000000001863,1669832367302,1649,HRV,HRV_0173,2022-11-30 18:22:18
77,"[{'imgObject': {}, 'id': 'apple slices', 'src': '/static/foodstim60/apple slices.jpg', 'key': 'u', 'origWidth': 409, 'origHeight': 410, 'width': 409, 'height': 410, 'widthPercent': 0.45, 'rescaleHeight': False, 'trialN': 77, 'loaded': True, 'loadedTime': 2919.2999999998137, 'positionName': 'LEFT', 'positionCoords': [512.6, 335], 'bid': 7.140000000000001}, {'imgObject': {}, 'id': 'salad w chicken', 'src': '/static/foodstim60/salad w chicken.jpg', 'key': 'i', 'origWidth': 411, 'origHeight': 411, 'width': 411, 'height': 411, 'widthPercent': 0.45, 'rescaleHeight': False, 'trialN': 77, 'loaded': True, 'loadedTime': 3053.2000000001863, 'positionName': 'RIGHT', 'positionCoords': [998.4, 334.5], 'bid': 7.41}]",144734.5,1669832367302,apple slices,salad w chicken,7.140000000000001,7.41,0.2699999999999996,salad w chicken,957.5,958,957.7999999998137,True,i,146199.2000000002,1464.7000000001863,1669832368767,1465,HRV,HRV_0173,2022-11-30 18:22:18
78,"[{'imgObject': {}, 'id': 'olives', 'src': '/static/foodstim60/olives.jpg', 'key': 'u', 'origWidth': 410, 'origHeight': 410, 'width': 410, 'height': 410, 'widthPercent': 0.45, 'rescaleHeight': False, 'trialN': 78, 'loaded': True, 'loadedTime': 3174.7000000001863, 'positionName': 'LEFT', 'positionCoords': [511.6, 335], 'bid': 5.76}, {'imgObject': {}, 'id': 'Grapes', 'src': '/static/foodstim60/Grapes.jpg', 'key': 'i', 'origWidth': 411, 'origHeight': 411, 'width': 411, 'height': 411, 'widthPercent': 0.45, 'rescaleHeight': False, 'trialN': 78, 'loaded': True, 'loadedTime': 3198.5, 'positionName': 'RIGHT', 'positionCoords': [998.4, 334.5], 'bid': 6.78}]",146199.2999999998,1669832368767,olives,Grapes,5.76,6.78,1.0200000000000005,Grapes,1684.9000000003725,1685,1685.3000000002794,True,i,148389.3999999999,2190.100000000093,1669832370957,2190,HRV,HRV_0173,2022-11-30 18:22:18
79,"[{'imgObject': {}, 'id': 'hashbrowns', 'src': '/static/foodstim60/hashbrowns.jpg', 'key': 'u', 'origWidth': 411, 'origHeight': 410, 'width': 411, 'height': 410, 'widthPercent': 0.45, 'rescaleHeight': False, 'trialN': 79, 'loaded': True, 'loadedTime': 3202, 'positionName': 'LEFT', 'positionCoords': [510.6, 335], 'bid': 2.09}, {'imgObject': {}, 'id': 'grilled chicken strips', 'src': '/static/foodstim60/grilled chicken strips.jpg', 'key': 'i', 'origWidth': 410, 'origHeight': 411, 'width': 410, 'height': 411, 'widthPercent': 0.45, 'rescaleHeight': False, 'trialN': 79, 'loaded': True, 'loadedTime': 2934.2000000001863, 'positionName': 'RIGHT', 'positionCoords': [998.4, 334.5], 'bid': 2.54}]",148389.5,1669832370957,hashbrowns,grilled chicken strips,2.09,2.54,0.4500000000000002,grilled chicken strips,782.8999999999069,783,783.2000000001863,True,i,149687.8999999999,1298.3999999999069,1669832372256,1299,HRV,HRV_0173,2022-11-30 18:22:18
80,"[{'imgObject': {}, 'id': 'rigatoni and sauce', 'src': '/static/foodstim60/rigatoni and sauce.jpg', 'key': 'u', 'origWidth': 410, 'origHeight': 411, 'width': 410, 'height': 411, 'widthPercent': 0.45, 'rescaleHeight': False, 'trialN': 80, 'loaded': True, 'loadedTime': 3153.600000000093, 'positionName': 'LEFT', 'positionCoords': [511.6, 334.5], 'bid': 9.42}, {'imgObject': {}, 'id': 'mango', 'src': '/static/foodstim60/mango.jpg', 'key': 'i', 'origWidth': 411, 'origHeight': 411, 'width': 411, 'height': 411, 'widthPercent': 0.45, 'rescaleHeight': False, 'trialN': 80, 'loaded': True, 'loadedTime': 3034.899999999907, 'positionName': 'RIGHT', 'positionCoords': [998.4, 334.5], 'bid': 4.58}]",149688.0,1669832372256,rigatoni and sauce,mango,9.42,4.58,-4.84,rigatoni and sauce,740.8999999999069,741,741.2000000001863,True,u,150935.3999999999,1247.3999999999069,1669832373503,1247,HRV,HRV_0173,2022-11-30 18:22:18
81,"[{'imgObject': {}, 'id': 'turkey sandwich', 'src': '/static/foodstim60/turkey sandwich.jpg', 'key': 'u', 'origWidth': 409, 'origHeight': 409, 'width': 409, 'height': 409, 'widthPercent': 0.45, 'rescaleHeight': False, 'trialN': 81, 'loaded': True, 'loadedTime': 3210.7999999998137, 'positionName': 'LEFT', 'positionCoords': [512.6, 335.5], 'bid': 8.75}, {'imgObject': {}, 'id': 'tacos', 'src': '/static/foodstim60/tacos.jpg', 'key': 'i', 'origWidth': 411, 'origHeight': 411, 'width': 411, 'height': 411, 'widthPercent': 0.45, 'rescaleHeight': False, 'trialN': 81, 'loaded': True, 'loadedTime': 3224.2000000001863, 'positionName': 'RIGHT', 'positionCoords': [998.4, 334.5], 'bid': 8.85}]",150935.5,1669832373503,turkey sandwich,tacos,8.75,8.85,0.09999999999999964,tacos,1101.3999999999069,1102,1101.6000000000931,True,i,152547.6000000001,1612.1000000000931,1669832375115,1612,HRV,HRV_0173,2022-11-30 18:22:18
82,"[{'imgObject': {}, 'id': 'cantaloupe', 'src': '/static/foodstim60/cantaloupe.jpg', 'key': 'u', 'origWidth': 409, 'origHeight': 409, 'width': 409, 'height': 409, 'widthPercent': 0.45, 'rescaleHeight': False, 'trialN': 82, 'loaded': True, 'loadedTime': 2869.2000000001863, 'positionName': 'LEFT', 'positionCoords': [512.6, 335.5], 'bid': 8.34}, {'imgObject': {}, 'id': 'turkey sandwich', 'src': '/static/foodstim60/turkey sandwich.jpg', 'key': 'i', 'origWidth': 409, 'origHeight': 409, 'width': 409, 'height': 409, 'widthPercent': 0.45, 'rescaleHeight': False, 'trialN': 82, 'loaded': True, 'loadedTime': 3210.2999999998137, 'positionName': 'RIGHT', 'positionCoords': [998.4, 335.5], 'bid': 8.75}]",152547.7000000002,1669832375115,cantaloupe,turkey sandwich,8.34,8.75,0.41000000000000014,turkey sandwich,1377.7999999998137,1379,1378.0999999996275,True,i,154428.5,1880.7999999998137,1669832376996,1881,HRV,HRV_0173,2022-11-30 18:22:18
83,"[{'imgObject': {}, 'id': 'cantaloupe', 'src': '/static/foodstim60/cantaloupe.jpg', 'key': 'u', 'origWidth': 409, 'origHeight': 409, 'width': 409, 'height': 409, 'widthPercent': 0.45, 'rescaleHeight': False, 'trialN': 83, 'loaded': True, 'loadedTime': 2877.7999999998137, 'positionName': 'LEFT', 'positionCoords': [512.6, 335.5], 'bid': 8.34}, {'imgObject': {}, 'id': 'fried eggs', 'src': '/static/foodstim60/fried eggs.jpg', 'key': 'i', 'origWidth': 410, 'origHeight': 410, 'width': 410, 'height': 410, 'widthPercent': 0.45, 'rescaleHeight': False, 'trialN': 83, 'loaded': True, 'loadedTime': 3166.5, 'positionName': 'RIGHT', 'positionCoords': [998.4, 335], 'bid': 9.36}]",154428.7000000002,1669832376996,cantaloupe,fried eggs,8.34,9.36,1.0199999999999996,fried eggs,720.8999999999069,722,721.1999999997206,True,i,155661.7999999998,1233.0999999996275,1669832378230,1234,HRV,HRV_0173,2022-11-30 18:22:18
84,"[{'imgObject': {}, 'id': 'yogurt no spoon', 'src': '/static/foodstim60/yogurt no spoon.jpg', 'key': 'u', 'origWidth': 411, 'origHeight': 410, 'width': 411, 'height': 410, 'widthPercent': 0.45, 'rescaleHeight': False, 'trialN': 84, 'loaded': True, 'loadedTime': 3179.7000000001863, 'positionName': 'LEFT', 'positionCoords': [510.6, 335], 'bid': 8.96}, {'imgObject': {}, 'id': 'strawberries', 'src': '/static/foodstim60/strawberries.jpg', 'key': 'i', 'origWidth': 410, 'origHeight': 410, 'width': 410, 'height': 410, 'widthPercent': 0.45, 'rescaleHeight': False, 'trialN': 84, 'loaded': True, 'loadedTime': 3114.600000000093, 'positionName': 'RIGHT', 'positionCoords': [998.4, 335], 'bid': 7.7}]",155662.0,1669832378230,yogurt no spoon,strawberries,8.96,7.7,-1.2600000000000007,yogurt no spoon,944.1000000000931,944,944.2999999998137,True,u,157117.5,1455.5,1669832379685,1455,HRV,HRV_0173,2022-11-30 18:22:18
85,"[{'imgObject': {}, 'id': 'raisin bran w milk', 'src': '/static/foodstim60/raisin bran w milk.jpg', 'key': 'u', 'origWidth': 411, 'origHeight': 411, 'width': 411, 'height': 411, 'widthPercent': 0.45, 'rescaleHeight': False, 'trialN': 85, 'loaded': True, 'loadedTime': 3182.100000000093, 'positionName': 'LEFT', 'positionCoords': [510.6, 334.5], 'bid': 0.18}, {'imgObject': {}, 'id': 'cherries', 'src': '/static/foodstim60/cherries.jpg', 'key': 'i', 'origWidth': 410, 'origHeight': 411, 'width': 410, 'height': 411, 'widthPercent': 0.45, 'rescaleHeight': False, 'trialN': 85, 'loaded': True, 'loadedTime': 3108.100000000093, 'positionName': 'RIGHT', 'positionCoords': [998.4, 334.5], 'bid': 6.15}]",157117.6000000001,1669832379685,raisin bran w milk,cherries,0.18,6.15,5.970000000000001,cherries,1128.1999999997206,1126,1128.5,True,i,158762.7000000002,1645.1000000000931,1669832381328,1643,HRV,HRV_0173,2022-11-30 18:22:18
86,"[{'imgObject': {}, 'id': 'edamame', 'src': '/static/foodstim60/edamame.jpg', 'key': 'u', 'origWidth': 409, 'origHeight': 410, 'width': 409, 'height': 410, 'widthPercent': 0.45, 'rescaleHeight': False, 'trialN': 86, 'loaded': True, 'loadedTime': 2908.2000000001863, 'positionName': 'LEFT', 'positionCoords': [512.6, 335], 'bid': 1.29}, {'imgObject': {}, 'id': 'popsicles', 'src': '/static/foodstim60/popsicles.jpg', 'key': 'i', 'origWidth': 410, 'origHeight': 410, 'width': 410, 'height': 410, 'widthPercent': 0.45, 'rescaleHeight': False, 'trialN': 86, 'loaded': True, 'loadedTime': 3235.600000000093, 'positionName': 'RIGHT', 'positionCoords': [998.4, 335], 'bid': 0.75}]",158762.7999999998,1669832381328,edamame,popsicles,1.29,0.75,-0.54,popsicles,2268.100000000093,2268,2268.3000000002794,True,i,161544.0,2781.2000000001863,1669832384109,2781,HRV,HRV_0173,2022-11-30 18:22:18
87,"[{'imgObject': {}, 'id': 'tacos', 'src': '/static/foodstim60/tacos.jpg', 'key': 'u', 'origWidth': 411, 'origHeight': 411, 'width': 411, 'height': 411, 'widthPercent': 0.45, 'rescaleHeight': False, 'trialN': 87, 'loaded': True, 'loadedTime': 3224.5, 'positionName': 'LEFT', 'positionCoords': [510.6, 334.5], 'bid': 8.85}, {'imgObject': {}, 'id': 'blueberries', 'src': '/static/foodstim60/blueberries.jpg', 'key': 'i', 'origWidth': 411, 'origHeight': 411, 'width': 411, 'height': 411, 'widthPercent': 0.45, 'rescaleHeight': False, 'trialN': 87, 'loaded': True, 'loadedTime': 3183.2000000001863, 'positionName': 'RIGHT', 'positionCoords': [998.4, 334.5], 'bid': 8.43}]",161544.2999999998,1669832384110,tacos,blueberries,8.85,8.43,-0.41999999999999993,tacos,1503.1000000000931,1503,1503.5,True,u,163560.0,2015.7000000001863,1669832386125,2015,HRV,HRV_0173,2022-11-30 18:22:18
88,"[{'imgObject': {}, 'id': 'blackbeanswithrice', 'src': '/static/foodstim60/blackbeanswithrice.jpg', 'key': 'u', 'origWidth': 410, 'origHeight': 410, 'width': 410, 'height': 410, 'widthPercent': 0.45, 'rescaleHeight': False, 'trialN': 88, 'loaded': True, 'loadedTime': 3027.7999999998137, 'positionName': 'LEFT', 'positionCoords': [511.6, 335], 'bid': 1.79}, {'imgObject': {}, 'id': 'raisin bran w milk', 'src': '/static/foodstim60/raisin bran w milk.jpg', 'key': 'i', 'origWidth': 411, 'origHeight': 411, 'width': 411, 'height': 411, 'widthPercent': 0.45, 'rescaleHeight': False, 'trialN': 88, 'loaded': True, 'loadedTime': 3182.2999999998137, 'positionName': 'RIGHT', 'positionCoords': [998.4, 334.5], 'bid': 0.18}]",163560.1000000001,1669832386125,blackbeanswithrice,raisin bran w milk,1.79,0.18,-1.61,blackbeanswithrice,1432.2999999998137,1433,1432.7999999998137,True,u,165512.1000000001,1952.0,1669832388078,1953,HRV,HRV_0173,2022-11-30 18:22:18
89,"[{'imgObject': {}, 'id': 'apple slices', 'src': '/static/foodstim60/apple slices.jpg', 'key': 'u', 'origWidth': 409, 'origHeight': 410, 'width': 409, 'height': 410, 'widthPercent': 0.45, 'rescaleHeight': False, 'trialN': 89, 'loaded': True, 'loadedTime': 2925.2000000001863, 'positionName': 'LEFT', 'positionCoords': [512.6, 335], 'bid': 7.140000000000001}, {'imgObject': {}, 'id': 'strawberries', 'src': '/static/foodstim60/strawberries.jpg', 'key': 'i', 'origWidth': 410, 'origHeight': 410, 'width': 410, 'height': 410, 'widthPercent': 0.45, 'rescaleHeight': False, 'trialN': 89, 'loaded': True, 'loadedTime': 3113.399999999907, 'positionName': 'RIGHT', 'positionCoords': [998.4, 335], 'bid': 7.7}]",165512.2999999998,1669832388078,apple slices,strawberries,7.140000000000001,7.7,0.5599999999999996,strawberries,999.1000000000931,999,999.4000000003725,True,i,167013.3999999999,1501.1000000000931,1669832389579,1501,HRV,HRV_0173,2022-11-30 18:22:18
90,"[{'imgObject': {}, 'id': 'fruitsalad', 'src': '/static/foodstim60/fruitsalad.jpg', 'key': 'u', 'origWidth': 410, 'origHeight': 410, 'width': 410, 'height': 410, 'widthPercent': 0.45, 'rescaleHeight': False, 'trialN': 90, 'loaded': True, 'loadedTime': 3052.100000000093, 'positionName': 'LEFT', 'positionCoords': [511.6, 335], 'bid': 8.14}, {'imgObject': {}, 'id': 'ice cream sundae 002', 'src': '/static/foodstim60/ice cream sundae 002.jpg', 'key': 'i', 'origWidth': 409, 'origHeight': 409, 'width': 409, 'height': 409, 'widthPercent': 0.45, 'rescaleHeight': False, 'trialN': 90, 'loaded': True, 'loadedTime': 2986.399999999907, 'positionName': 'RIGHT', 'positionCoords': [998.4, 335.5], 'bid': 9.75}]",170278.7999999998,1669832392844,fruitsalad,ice cream sundae 002,8.14,9.75,1.6099999999999994,ice cream sundae 002,1041.7000000001863,1042,1042.0,True,i,171828.7999999998,1550.0,1669832394394,1550,HRV,HRV_0173,2022-11-30 18:22:18
91,"[{'imgObject': {}, 'id': 'cherry tomato', 'src': '/static/foodstim60/cherry tomato.jpg', 'key': 'u', 'origWidth': 410, 'origHeight': 410, 'width': 410, 'height': 410, 'widthPercent': 0.45, 'rescaleHeight': False, 'trialN': 91, 'loaded': True, 'loadedTime': 3094.399999999907, 'positionName': 'LEFT', 'positionCoords': [511.6, 335], 'bid': 6.0600000000000005}, {'imgObject': {}, 'id': 'olives', 'src': '/static/foodstim60/olives.jpg', 'key': 'i', 'origWidth': 410, 'origHeight': 410, 'width': 410, 'height': 410, 'widthPercent': 0.45, 'rescaleHeight': False, 'trialN': 91, 'loaded': True, 'loadedTime': 3174.399999999907, 'positionName': 'RIGHT', 'positionCoords': [998.4, 335], 'bid': 5.76}]",171829.1000000001,1669832394394,cherry tomato,olives,6.0600000000000005,5.76,-0.3000000000000007,cherry tomato,1059.6000000000931,1060,1059.7999999998137,True,u,173402.1000000001,1573.0,1669832395967,1573,HRV,HRV_0173,2022-11-30 18:22:18
92,"[{'imgObject': {}, 'id': 'strawberries', 'src': '/static/foodstim60/strawberries.jpg', 'key': 'u', 'origWidth': 410, 'origHeight': 410, 'width': 410, 'height': 410, 'widthPercent': 0.45, 'rescaleHeight': False, 'trialN': 92, 'loaded': True, 'loadedTime': 3119.399999999907, 'positionName': 'LEFT', 'positionCoords': [511.6, 335], 'bid': 7.7}, {'imgObject': {}, 'id': 'corn cob', 'src': '/static/foodstim60/corn cob.jpg', 'key': 'i', 'origWidth': 411, 'origHeight': 411, 'width': 411, 'height': 411, 'widthPercent': 0.45, 'rescaleHeight': False, 'trialN': 92, 'loaded': True, 'loadedTime': 3132.2000000001863, 'positionName': 'RIGHT', 'positionCoords': [998.4, 334.5], 'bid': 7.63}]",173402.1000000001,1669832395967,strawberries,corn cob,7.7,7.63,-0.07000000000000028,strawberries,1487.8999999999069,1489,1488.1999999997206,True,u,175402.2000000002,2000.1000000000931,1669832397968,2001,HRV,HRV_0173,2022-11-30 18:22:18
93,"[{'imgObject': {}, 'id': 'lox', 'src': '/static/foodstim60/lox.jpg', 'key': 'u', 'origWidth': 410, 'origHeight': 411, 'width': 410, 'height': 411, 'widthPercent': 0.45, 'rescaleHeight': False, 'trialN': 93, 'loaded': True, 'loadedTime': 2810.2000000001863, 'positionName': 'LEFT', 'positionCoords': [511.6, 334.5], 'bid': 0.89}, {'imgObject': {}, 'id': 'popsicles', 'src': '/static/foodstim60/popsicles.jpg', 'key': 'i', 'origWidth': 410, 'origHeight': 410, 'width': 410, 'height': 410, 'widthPercent': 0.45, 'rescaleHeight': False, 'trialN': 93, 'loaded': True, 'loadedTime': 3237.100000000093, 'positionName': 'RIGHT', 'positionCoords': [998.4, 335], 'bid': 0.75}]",175402.3999999999,1669832397968,lox,popsicles,0.89,0.75,-0.14,popsicles,1526.7000000001863,1527,1527.0,True,i,177433.2000000002,2030.8000000002794,1669832399999,2031,HRV,HRV_0173,2022-11-30 18:22:18
94,"[{'imgObject': {}, 'id': 'orange slices', 'src': '/static/foodstim60/orange slices.jpg', 'key': 'u', 'origWidth': 409, 'origHeight': 410, 'width': 409, 'height': 410, 'widthPercent': 0.45, 'rescaleHeight': False, 'trialN': 94, 'loaded': True, 'loadedTime': 3164.899999999907, 'positionName': 'LEFT', 'positionCoords': [512.6, 335], 'bid': 8}, {'imgObject': {}, 'id': 'rigatoni and sauce', 'src': '/static/foodstim60/rigatoni and sauce.jpg', 'key': 'i', 'origWidth': 410, 'origHeight': 411, 'width': 410, 'height': 411, 'widthPercent': 0.45, 'rescaleHeight': False, 'trialN': 94, 'loaded': True, 'loadedTime': 3153.899999999907, 'positionName': 'RIGHT', 'positionCoords': [998.4, 334.5], 'bid': 9.42}]",177433.6000000001,1669832399999,orange slices,rigatoni and sauce,8.0,9.42,1.42,rigatoni and sauce,1016.6999999997206,1017,1017.1999999997206,True,i,178962.2000000002,1528.6000000000931,1669832401528,1529,HRV,HRV_0173,2022-11-30 18:22:18
95,"[{'imgObject': {}, 'id': 'turkeysandwich', 'src': '/static/foodstim60/turkeysandwich.jpg', 'key': 'u', 'origWidth': 409, 'origHeight': 409, 'width': 409, 'height': 409, 'widthPercent': 0.45, 'rescaleHeight': False, 'trialN': 95, 'loaded': True, 'loadedTime': 3145.899999999907, 'positionName': 'LEFT', 'positionCoords': [512.6, 335.5], 'bid': 3.97}, {'imgObject': {}, 'id': 'froot loops w milk', 'src': '/static/foodstim60/froot loops w milk.jpg', 'key': 'i', 'origWidth': 410, 'origHeight': 410, 'width': 410, 'height': 410, 'widthPercent': 0.45, 'rescaleHeight': False, 'trialN': 95, 'loaded': True, 'loadedTime': 2888.7000000001863, 'positionName': 'RIGHT', 'positionCoords': [998.4, 335], 'bid': 2.12}]",178962.2999999998,1669832401528,turkeysandwich,froot loops w milk,3.97,2.12,-1.85,turkeysandwich,887.6000000000931,888,887.9000000003725,True,u,180370.8999999999,1408.6000000000931,1669832402936,1408,HRV,HRV_0173,2022-11-30 18:22:18
96,"[{'imgObject': {}, 'id': 'apple slices', 'src': '/static/foodstim60/apple slices.jpg', 'key': 'u', 'origWidth': 409, 'origHeight': 410, 'width': 409, 'height': 410, 'widthPercent': 0.45, 'rescaleHeight': False, 'trialN': 96, 'loaded': True, 'loadedTime': 2924.899999999907, 'positionName': 'LEFT', 'positionCoords': [512.6, 335], 'bid': 7.140000000000001}, {'imgObject': {}, 'id': 'cheerios', 'src': '/static/foodstim60/cheerios.jpg', 'key': 'i', 'origWidth': 409, 'origHeight': 410, 'width': 409, 'height': 410, 'widthPercent': 0.45, 'rescaleHeight': False, 'trialN': 96, 'loaded': True, 'loadedTime': 2850.600000000093, 'positionName': 'RIGHT', 'positionCoords': [998.4, 335], 'bid': 7.41}]",180371.1000000001,1669832402936,apple slices,cheerios,7.140000000000001,7.41,0.2699999999999996,apple slices,1319.7999999998137,1321,1320.3999999999069,True,u,182198.2000000002,1827.1000000000931,1669832404764,1828,HRV,HRV_0173,2022-11-30 18:22:18
97,"[{'imgObject': {}, 'id': 'seaweed', 'src': '/static/foodstim60/seaweed.jpg', 'key': 'u', 'origWidth': 410, 'origHeight': 410, 'width': 410, 'height': 410, 'widthPercent': 0.45, 'rescaleHeight': False, 'trialN': 97, 'loaded': True, 'loadedTime': 3168, 'positionName': 'LEFT', 'positionCoords': [511.6, 335], 'bid': 0.15}, {'imgObject': {}, 'id': 'raisin bran w milk', 'src': '/static/foodstim60/raisin bran w milk.jpg', 'key': 'i', 'origWidth': 411, 'origHeight': 411, 'width': 411, 'height': 411, 'widthPercent': 0.45, 'rescaleHeight': False, 'trialN': 97, 'loaded': True, 'loadedTime': 3181.2999999998137, 'positionName': 'RIGHT', 'positionCoords': [998.4, 334.5], 'bid': 0.18}]",182198.5,1669832404764,seaweed,raisin bran w milk,0.15,0.18,0.03,raisin bran w milk,716.0,716,716.2999999998137,True,i,183433.7999999998,1235.2999999998137,1669832405999,1235,HRV,HRV_0173,2022-11-30 18:22:18
98,"[{'imgObject': {}, 'id': 'Tribe humus pita', 'src': '/static/foodstim60/Tribe humus pita.jpg', 'key': 'u', 'origWidth': 411, 'origHeight': 411, 'width': 411, 'height': 411, 'widthPercent': 0.45, 'rescaleHeight': False, 'trialN': 98, 'loaded': True, 'loadedTime': 2959.899999999907, 'positionName': 'LEFT', 'positionCoords': [510.6, 334.5], 'bid': 4.25}, {'imgObject': {}, 'id': 'hotdog w must', 'src': '/static/foodstim60/hotdog w must.jpg', 'key': 'i', 'origWidth': 409, 'origHeight': 409, 'width': 409, 'height': 409, 'widthPercent': 0.45, 'rescaleHeight': False, 'trialN': 98, 'loaded': True, 'loadedTime': 3065.399999999907, 'positionName': 'RIGHT', 'positionCoords': [998.4, 335.5], 'bid': 9.28}]",183434.0,1669832405999,Tribe humus pita,hotdog w must,4.25,9.28,5.029999999999999,hotdog w must,1080.6000000000931,1081,1081.0,True,i,185028.2000000002,1594.2000000001863,1669832407594,1595,HRV,HRV_0173,2022-11-30 18:22:18
99,"[{'imgObject': {}, 'id': 'tacos', 'src': '/static/foodstim60/tacos.jpg', 'key': 'u', 'origWidth': 411, 'origHeight': 411, 'width': 411, 'height': 411, 'widthPercent': 0.45, 'rescaleHeight': False, 'trialN': 99, 'loaded': True, 'loadedTime': 3224.100000000093, 'positionName': 'LEFT', 'positionCoords': [510.6, 334.5], 'bid': 8.85}, {'imgObject': {}, 'id': 'ice cream sundae 002', 'src': '/static/foodstim60/ice cream sundae 002.jpg', 'key': 'i', 'origWidth': 409, 'origHeight': 409, 'width': 409, 'height': 409, 'widthPercent': 0.45, 'rescaleHeight': False, 'trialN': 99, 'loaded': True, 'loadedTime': 2979.7000000001863, 'positionName': 'RIGHT', 'positionCoords': [998.4, 335.5], 'bid': 9.75}]",185028.5,1669832407594,tacos,ice cream sundae 002,8.85,9.75,0.9000000000000004,ice cream sundae 002,854.6000000000931,855,854.7999999998137,True,i,186400.2999999998,1371.7999999998137,1669832408966,1372,HRV,HRV_0173,2022-11-30 18:22:18
100,"[{'imgObject': {}, 'id': 'sweetpotato', 'src': '/static/foodstim60/sweetpotato.jpg', 'key': 'u', 'origWidth': 410, 'origHeight': 410, 'width': 410, 'height': 410, 'widthPercent': 0.45, 'rescaleHeight': False, 'trialN': 100, 'loaded': True, 'loadedTime': 2971.2999999998137, 'positionName': 'LEFT', 'positionCoords': [511.6, 335], 'bid': 5.14}, {'imgObject': {}, 'id': 'apple slices', 'src': '/static/foodstim60/apple slices.jpg', 'key': 'i', 'origWidth': 409, 'origHeight': 410, 'width': 409, 'height': 410, 'widthPercent': 0.45, 'rescaleHeight': False, 'trialN': 100, 'loaded': True, 'loadedTime': 2925.5, 'positionName': 'RIGHT', 'positionCoords': [998.4, 335], 'bid': 7.140000000000001}]",186400.3999999999,1669832408966,sweetpotato,apple slices,5.14,7.140000000000001,2.000000000000001,apple slices,1771.0,1771,1771.5,True,i,188681.0,2280.600000000093,1669832411246,2280,HRV,HRV_0173,2022-11-30 18:22:18
101,"[{'imgObject': {}, 'id': 'turkey sandwich', 'src': '/static/foodstim60/turkey sandwich.jpg', 'key': 'u', 'origWidth': 409, 'origHeight': 409, 'width': 409, 'height': 409, 'widthPercent': 0.45, 'rescaleHeight': False, 'trialN': 101, 'loaded': True, 'loadedTime': 3210.600000000093, 'positionName': 'LEFT', 'positionCoords': [512.6, 335.5], 'bid': 8.75}, {'imgObject': {}, 'id': 'raspberries', 'src': '/static/foodstim60/raspberries.jpg', 'key': 'i', 'origWidth': 411, 'origHeight': 411, 'width': 411, 'height': 411, 'widthPercent': 0.45, 'rescaleHeight': False, 'trialN': 101, 'loaded': True, 'loadedTime': 3041, 'positionName': 'RIGHT', 'positionCoords': [998.4, 334.5], 'bid': 7.0200000000000005}]",188681.1000000001,1669832411246,turkey sandwich,raspberries,8.75,7.0200000000000005,-1.7299999999999995,turkey sandwich,931.0,932,931.5,True,u,190117.0,1435.8999999999069,1669832412682,1436,HRV,HRV_0173,2022-11-30 18:22:18
102,"[{'imgObject': {}, 'id': 'luckycharms', 'src': '/static/foodstim60/luckycharms.jpg', 'key': 'u', 'origWidth': 410, 'origHeight': 409, 'width': 410, 'height': 409, 'widthPercent': 0.45, 'rescaleHeight': False, 'trialN': 102, 'loaded': True, 'loadedTime': 3200.2000000001863, 'positionName': 'LEFT', 'positionCoords': [511.6, 335.5], 'bid': 3.06}, {'imgObject': {}, 'id': 'bagel plain', 'src': '/static/foodstim60/bagel plain.jpg', 'key': 'i', 'origWidth': 410, 'origHeight': 410, 'width': 410, 'height': 410, 'widthPercent': 0.45, 'rescaleHeight': False, 'trialN': 102, 'loaded': True, 'loadedTime': 3100.899999999907, 'positionName': 'RIGHT', 'positionCoords': [998.4, 335], 'bid': 3.01}]",190117.1000000001,1669832412682,luckycharms,bagel plain,3.06,3.01,-0.050000000000000266,bagel plain,1398.7999999998137,1399,1399.1000000000931,True,i,192029.6000000001,1912.5,1669832414595,1913,HRV,HRV_0173,2022-11-30 18:22:18
103,"[{'imgObject': {}, 'id': 'hotdog w must', 'src': '/static/foodstim60/hotdog w must.jpg', 'key': 'u', 'origWidth': 409, 'origHeight': 409, 'width': 409, 'height': 409, 'widthPercent': 0.45, 'rescaleHeight': False, 'trialN': 103, 'loaded': True, 'loadedTime': 3057.600000000093, 'positionName': 'LEFT', 'positionCoords': [512.6, 335.5], 'bid': 9.28}, {'imgObject': {}, 'id': 'yogurt no spoon', 'src': '/static/foodstim60/yogurt no spoon.jpg', 'key': 'i', 'origWidth': 411, 'origHeight': 410, 'width': 411, 'height': 410, 'widthPercent': 0.45, 'rescaleHeight': False, 'trialN': 103, 'loaded': True, 'loadedTime': 3180.899999999907, 'positionName': 'RIGHT', 'positionCoords': [998.4, 335], 'bid': 8.96}]",192029.7999999998,1669832414595,hotdog w must,yogurt no spoon,9.28,8.96,-0.3199999999999985,hotdog w must,1670.5,1671,1670.8000000002794,True,u,194214.6000000001,2184.8000000002794,1669832416780,2185,HRV,HRV_0173,2022-11-30 18:22:18
104,"[{'imgObject': {}, 'id': 'fried eggs', 'src': '/static/foodstim60/fried eggs.jpg', 'key': 'u', 'origWidth': 410, 'origHeight': 410, 'width': 410, 'height': 410, 'widthPercent': 0.45, 'rescaleHeight': False, 'trialN': 104, 'loaded': True, 'loadedTime': 3166.5, 'positionName': 'LEFT', 'positionCoords': [511.6, 335], 'bid': 9.36}, {'imgObject': {}, 'id': 'rigatoni and sauce', 'src': '/static/foodstim60/rigatoni and sauce.jpg', 'key': 'i', 'origWidth': 410, 'origHeight': 411, 'width': 410, 'height': 411, 'widthPercent': 0.45, 'rescaleHeight': False, 'trialN': 104, 'loaded': True, 'loadedTime': 3159.2999999998137, 'positionName': 'RIGHT', 'positionCoords': [998.4, 334.5], 'bid': 9.42}]",194214.7999999998,1669832416780,fried eggs,rigatoni and sauce,9.36,9.42,0.0600000000000005,fried eggs,1734.0,1734,1734.3000000002794,True,u,196451.7999999998,2237.0,1669832419017,2237,HRV,HRV_0173,2022-11-30 18:22:18
105,"[{'imgObject': {}, 'id': 'Tribe humus pita', 'src': '/static/foodstim60/Tribe humus pita.jpg', 'key': 'u', 'origWidth': 411, 'origHeight': 411, 'width': 411, 'height': 411, 'widthPercent': 0.45, 'rescaleHeight': False, 'trialN': 105, 'loaded': True, 'loadedTime': 2959.600000000093, 'positionName': 'LEFT', 'positionCoords': [510.6, 334.5], 'bid': 4.25}, {'imgObject': {}, 'id': 'avocado', 'src': '/static/foodstim60/avocado.jpg', 'key': 'i', 'origWidth': 409, 'origHeight': 409, 'width': 409, 'height': 409, 'widthPercent': 0.45, 'rescaleHeight': False, 'trialN': 105, 'loaded': True, 'loadedTime': 3231.899999999907, 'positionName': 'RIGHT', 'positionCoords': [998.4, 335.5], 'bid': 3.78}]",196451.8999999999,1669832419017,Tribe humus pita,avocado,4.25,3.78,-0.4700000000000002,Tribe humus pita,1193.7000000001863,1194,1194.0,True,u,198150.5,1698.6000000000931,1669832420716,1699,HRV,HRV_0173,2022-11-30 18:22:18
106,"[{'imgObject': {}, 'id': 'bagel plain', 'src': '/static/foodstim60/bagel plain.jpg', 'key': 'u', 'origWidth': 410, 'origHeight': 410, 'width': 410, 'height': 410, 'widthPercent': 0.45, 'rescaleHeight': False, 'trialN': 106, 'loaded': True, 'loadedTime': 3095.399999999907, 'positionName': 'LEFT', 'positionCoords': [511.6, 335], 'bid': 3.01}, {'imgObject': {}, 'id': 'popsicles', 'src': '/static/foodstim60/popsicles.jpg', 'key': 'i', 'origWidth': 410, 'origHeight': 410, 'width': 410, 'height': 410, 'widthPercent': 0.45, 'rescaleHeight': False, 'trialN': 106, 'loaded': True, 'loadedTime': 3236.899999999907, 'positionName': 'RIGHT', 'positionCoords': [998.4, 335], 'bid': 0.75}]",198150.7000000002,1669832420716,bagel plain,popsicles,3.01,0.75,-2.26,bagel plain,1934.5,1935,1934.8999999999069,True,u,200596.6000000001,2445.899999999907,1669832423162,2446,HRV,HRV_0173,2022-11-30 18:22:18
107,"[{'imgObject': {}, 'id': 'burrito', 'src': '/static/foodstim60/burrito.jpg', 'key': 'u', 'origWidth': 410, 'origHeight': 410, 'width': 410, 'height': 410, 'widthPercent': 0.45, 'rescaleHeight': False, 'trialN': 107, 'loaded': True, 'loadedTime': 3208.399999999907, 'positionName': 'LEFT', 'positionCoords': [511.6, 335], 'bid': 8.09}, {'imgObject': {}, 'id': 'corn cob', 'src': '/static/foodstim60/corn cob.jpg', 'key': 'i', 'origWidth': 411, 'origHeight': 411, 'width': 411, 'height': 411, 'widthPercent': 0.45, 'rescaleHeight': False, 'trialN': 107, 'loaded': True, 'loadedTime': 3132.899999999907, 'positionName': 'RIGHT', 'positionCoords': [998.4, 334.5], 'bid': 7.63}]",200596.8999999999,1669832423162,burrito,corn cob,8.09,7.63,-0.45999999999999996,burrito,928.7000000001863,929,929.0,True,u,202038.1000000001,1441.2000000001863,1669832424603,1441,HRV,HRV_0173,2022-11-30 18:22:18
