success,trial_type,trial_index,time_elapsed,internal_node_id,Block,TrialNumber,TrialTime,trialTimeDiff,FPS_avg,FPS_med,FPS_mode,TrialDur,winResizeTime,rt,block,button_pressed,MotCoh,MotDir,ColCoh,Color,ChoiceKey,Choice,Accuracy,RT,nFrames,FPS,PPD,missTrial,missTrialMsg,onsetDelay,fullScreenExitTime,canvCenter,TrialType,Score,BlockTrial,stimulus,button_labels,exp,subjectId,date
True,fullscreen,0,1762,0.0-0.0,0.0,1.0,,,,,,,,,,,,,,,,,,,,,,,,,,,,,,,,HRV,HRV_0173,2022-11-30 18:32:18
,wl-check-fps,1,6762,0.0-1.0,0.0,2.0,"[4540.5, 4552.9, 4569.4, 4586, 4602.7, 4619.5, 4636.1, 4652.7, 4669.5, 4686.1, 4702.7, 4719.5, 4736.1, 4752.7, 4769.4, 4786.1, 4802.7, 4819.3, 4835.9, 4852.6, 4869.6, 4885.9, 4902.9, 4919.3, 4935.9, 4952.9, 4969.3, 4985.9, 5002.5, 5019.2, 5036, 5052.6, 5069.3, 5086, 5102.7, 5119.3, 5136, 5152.7, 5169.3, 5186, 5202.8, 5219.2, 5235.9, 5252.6, 5269.4, 5285.9, 5302.6, 5319.3, 5336, 5352.6, 5369.3, 5386, 5403, 5419.6, 5435.9, 5453.2, 5469.3, 5486, 5502.6, 5519.3, 5535.9, 5552.7, 5569.3, 5586, 5602.7, 5619.3, 5636, 5652.7, 5669.4, 5686, 5702.7, 5719.3, 5735.9, 5752.7, 5769.4, 5786.3, 5802.6, 5819.3, 5836, 5852.7, 5869.3, 5886, 5902.8, 5919.3, 5936, 5952.7, 5969.4, 5986, 6002.7, 6019.4, 6036, 6052.7, 6069.4, 6086, 6102.7, 6119.3, 6136, 6152.7, 6169.4, 6186, 6202.7, 6219.3, 6236, 6253, 6269.5, 6286, 6302.9, 6319.8, 6336, 6352.9, 6369.4, 6385.9, 6402.6, 6419.3, 6436, 6452.7, 6469.3, 6486, 6502.7, 6519.3, 6536, 6553.1, 6569.3, 6586, 6602.9, 6619.4, 6636, 6652.9, 6669.6, 6686, 6702.9, 6719.2, 6735.9, 6752.8, 6769.6, 6785.9, 6802.8, 6819.3, 6836, 6852.8, 6869.8, 6886, 6902.9, 6919.6, 6936, 6953, 6969.3, 6986, 7002.6, 7019.4, 7036, 7052.6, 7069.5, 7086, 7102.9, 7119.3, 7136, 7153, 7169.6, 7186.3, 7202.7, 7219.4, 7235.9, 7252.7, 7269.4, 7286, 7302.9, 7319.3, 7336, 7352.7, 7369.4, 7386, 7402.7, 7419.4, 7436, 7452.9, 7469.4, 7485.9, 7502.6, 7519.3, 7536, 7552.8, 7569.3, 7586, 7603.1, 7619.3, 7635.9, 7652.7, 7669.7, 7686, 7702.7, 7719.3, 7736, 7753, 7769.7, 7786, 7802.9, 7819.7, 7836, 7852.9, 7869.3, 7886, 7902.8, 7919.3, 7935.9, 7952.9, 7969.3, 7986, 8002.6, 8019.3, 8036, 8052.7, 8069.6, 8086, 8102.7, 8119.4, 8135.9, 8152.9, 8169.4, 8186, 8202.7, 8219.3, 8236, 8253, 8269.4, 8286, 8302.7, 8319.3, 8336.1, 8353, 8369.4, 8386.1, 8402.7, 8419.4, 8436, 8452.7, 8469.3, 8486, 8502.7, 8519.3, 8536.1, 8552.7, 8569.4, 8586, 8602.7, 8619.4, 8636, 8652.7, 8669.4, 8686, 8702.8, 8719.4, 8736.1, 8752.7, 8769.5, 8786, 8803, 8819.4, 8836, 8852.7, 8869.4, 8886.1, 8904.7, 8921.2, 8938.1, 8954.4, 8971.3, 8987.9, 9004.6, 9021.4, 9037.8, 9055.3, 9071.5, 9087.9, 9104.7, 9121.3, 9137.9, 9154.7, 9171.2, 9187.8, 9204.8, 9221.3, 9237.8, 9255, 9271.3, 9287.8, 9304.9, 9321.1, 9338, 9354.8, 9371.2, 9388.2, 9404.7, 9421.2, 9438.3, 9454.5, 9472.2, 9487.9, 9504.7, 9521.3]","[1.5, 12.4, 16.5, 16.6, 16.7, 16.8, 16.6, 16.6, 16.8, 16.6, 16.6, 16.8, 16.6, 16.6, 16.7, 16.7, 16.6, 16.6, 16.6, 16.7, 17, 16.3, 17, 16.4, 16.6, 17, 16.4, 16.6, 16.6, 16.7, 16.8, 16.6, 16.7, 16.7, 16.7, 16.6, 16.7, 16.7, 16.6, 16.7, 16.8, 16.4, 16.7, 16.7, 16.8, 16.5, 16.7, 16.7, 16.7, 16.6, 16.7, 16.7, 17, 16.6, 16.3, 17.3, 16.1, 16.7, 16.6, 16.7, 16.6, 16.8, 16.6, 16.7, 16.7, 16.6, 16.7, 16.7, 16.7, 16.6, 16.7, 16.6, 16.6, 16.8, 16.7, 16.9, 16.3, 16.7, 16.7, 16.7, 16.6, 16.7, 16.8, 16.5, 16.7, 16.7, 16.7, 16.6, 16.7, 16.7, 16.6, 16.7, 16.7, 16.6, 16.7, 16.6, 16.7, 16.7, 16.7, 16.6, 16.7, 16.6, 16.7, 17, 16.5, 16.5, 16.9, 16.9, 16.2, 16.9, 16.5, 16.5, 16.7, 16.7, 16.7, 16.7, 16.6, 16.7, 16.7, 16.6, 16.7, 17.1, 16.2, 16.7, 16.9, 16.5, 16.6, 16.9, 16.7, 16.4, 16.9, 16.3, 16.7, 16.9, 16.8, 16.3, 16.9, 16.5, 16.7, 16.8, 17, 16.2, 16.9, 16.7, 16.4, 17, 16.3, 16.7, 16.6, 16.8, 16.6, 16.6, 16.9, 16.5, 16.9, 16.4, 16.7, 17, 16.6, 16.7, 16.4, 16.7, 16.5, 16.8, 16.7, 16.6, 16.9, 16.4, 16.7, 16.7, 16.7, 16.6, 16.7, 16.7, 16.6, 16.9, 16.5, 16.5, 16.7, 16.7, 16.7, 16.8, 16.5, 16.7, 17.1, 16.2, 16.6, 16.8, 17, 16.3, 16.7, 16.6, 16.7, 17, 16.7, 16.3, 16.9, 16.8, 16.3, 16.9, 16.4, 16.7, 16.8, 16.5, 16.6, 17, 16.4, 16.7, 16.6, 16.7, 16.7, 16.7, 16.9, 16.4, 16.7, 16.7, 16.5, 17, 16.5, 16.6, 16.7, 16.6, 16.7, 17, 16.4, 16.6, 16.7, 16.6, 16.8, 16.9, 16.4, 16.7, 16.6, 16.7, 16.6, 16.7, 16.6, 16.7, 16.7, 16.6, 16.8, 16.6, 16.7, 16.6, 16.7, 16.7, 16.6, 16.7, 16.7, 16.6, 16.8, 16.6, 16.7, 16.6, 16.8, 16.5, 17, 16.4, 16.6, 16.7, 16.7, 16.7, 18.6, 16.5, 16.9, 16.3, 16.9, 16.6, 16.7, 16.8, 16.4, 17.5, 16.2, 16.4, 16.8, 16.6, 16.6, 16.8, 16.5, 16.6, 17, 16.5, 16.5, 17.2, 16.3, 16.5, 17.1, 16.2, 16.9, 16.8, 16.4, 17, 16.5, 16.5, 17.1, 16.2, 17.7, 15.7, 16.8, 16.6]",60.0,60.0,60.0,4998.9,[],,,,,,,,,,,,,,,,,,,,,,,,,HRV,HRV_0173,2022-11-30 18:32:18
,wl-html-keyboard-response,2,22113,0.0-2.0-0.0,0.0,3.0,,,,,,,,13326.200000000186,0.0,0,,,,,,,,,,,,,,,,,,,,,,HRV,HRV_0173,2022-11-30 18:32:18
,wl-rdm,3,31448,0.0-3.0-0.0,0.0,4.0,,,,,,,[],,,,0.0,0.0,87.9,0.0,u,0.0,True,3767.7000000001863,227.0,60.0,40.0,False,,3000.0,[],"[960, 540]",ColorTask_Demo,,,,,HRV,HRV_0173,2022-11-30 18:32:18
,wl-rdm,4,37382,0.0-3.0-1.0,0.0,5.0,,,,,,,[],,,,0.0,0.0,87.9,1.0,i,1.0,True,1867.0,113.0,60.0,40.0,False,,2000.0,[],"[960, 540]",ColorTask_Demo,,,,,HRV,HRV_0173,2022-11-30 18:32:18
,wl-html-keyboard-response,5,45109,0.0-3.0-2.0,0.0,6.0,,,,,,,,5721.799999999814,0.0,1,,,,,,,,,,,,,,,,,,,,,,HRV,HRV_0173,2022-11-30 18:32:18
,wl-html-keyboard-response,6,57350,0.0-4.0-0.0,0.0,7.0,,,,,,,,10237.299999999814,0.0,0,,,,,,,,,,,,,,,,,,,,,,HRV,HRV_0173,2022-11-30 18:32:18
,wl-html-keyboard-response,7,75502,0.0-5.0-0.0,0.0,8.0,,,,,,,,16144.100000000093,0.0,0,,,,,,,,,,,,,,,,,,,,,,HRV,HRV_0173,2022-11-30 18:32:18
,wl-rdm,8,78216,0.0-6.0-0.0,0.0,9.0,,,,,,,[],,,,,,73.6,1.0,i,1.0,True,1429.2000000001863,86.0,60.0,40.0,False,,216.8677494985691,[],"[960, 540]",ColorTask,1.0,1.0,,,HRV,HRV_0173,2022-11-30 18:32:18
,wl-rdm,9,80599,0.0-6.1-0.1,0.0,10.0,,,,,,,[],,,,,,73.6,0.0,u,0.0,True,1063.6000000000931,64.0,60.0,40.0,False,,250.82426682764066,[],"[960, 540]",ColorTask,2.0,2.0,,,HRV,HRV_0173,2022-11-30 18:32:18
,wl-rdm,10,83232,0.0-6.2-0.2,0.0,11.0,,,,,,,[],,,,,,62.5,0.0,i,1.0,False,1345.6000000000931,81.0,60.0,40.0,False,,231.47463240978894,[],"[960, 540]",ColorTask,1.0,3.0,,,HRV,HRV_0173,2022-11-30 18:32:18
,wl-rdm,11,85516,0.0-6.3-0.3,0.0,12.0,,,,,,,[],,,,,,50.0,0.0,i,1.0,False,985.6999999997206,60.0,60.0,40.0,False,,211.45701124232988,[],"[960, 540]",ColorTask,0.0,4.0,,,HRV,HRV_0173,2022-11-30 18:32:18
,wl-rdm,12,87666,0.0-6.4-0.4,0.0,13.0,,,,,,,[],,,,,,87.9,1.0,i,1.0,True,720.8999999999069,44.0,60.0,40.0,False,,338.76726276031934,[],"[960, 540]",ColorTask,1.0,5.0,,,HRV,HRV_0173,2022-11-30 18:32:18
,wl-rdm,13,90416,0.0-6.5-0.5,0.0,14.0,,,,,,,[],,,,,,50.0,0.0,u,0.0,True,1323.0,80.0,60.0,40.0,False,,357.69324323321814,[],"[960, 540]",ColorTask,2.0,6.0,,,HRV,HRV_0173,2022-11-30 18:32:18
,wl-rdm,14,92866,0.0-6.6-0.6,0.0,15.0,,,,,,,[],,,,,,50.0,0.0,i,1.0,False,1163.4000000003725,70.0,60.0,40.0,False,,229.15628434072912,[],"[960, 540]",ColorTask,1.0,7.0,,,HRV,HRV_0173,2022-11-30 18:32:18
,wl-rdm,15,95650,0.0-6.7-0.7,0.0,16.0,,,,,,,[],,,,,,53.2,0.0,i,1.0,False,1347.6000000000931,81.0,60.0,40.0,False,,380.0223149249575,[],"[960, 540]",ColorTask,0.0,8.0,,,HRV,HRV_0173,2022-11-30 18:32:18
,wl-rdm,16,98683,0.0-6.8-0.8,0.0,17.0,,,,,,,[],,,,,,50.0,0.0,i,1.0,False,1637.7999999998137,99.0,60.0,40.0,False,,318.21551091188894,[],"[960, 540]",ColorTask,-1.0,9.0,,,HRV,HRV_0173,2022-11-30 18:32:18
,wl-rdm,17,100816,0.0-6.9-0.9,0.0,18.0,,,,,,,[],,,,,,62.5,0.0,u,0.0,True,841.7000000001863,51.0,60.0,40.0,False,,216.14101711454524,[],"[960, 540]",ColorTask,0.0,10.0,,,HRV,HRV_0173,2022-11-30 18:32:18
,wl-rdm,18,103300,0.0-6.10-0.10,0.0,19.0,,,,,,,[],,,,,,62.5,0.0,u,0.0,True,1095.9000000003725,66.0,60.0,40.0,False,,326.1307095284494,[],"[960, 540]",ColorTask,1.0,11.0,,,HRV,HRV_0173,2022-11-30 18:32:18
,wl-rdm,19,106183,0.0-6.11-0.11,0.0,20.0,,,,,,,[],,,,,,50.0,1.0,u,0.0,False,1502.5,91.0,60.0,40.0,False,,284.9598326948519,[],"[960, 540]",ColorTask,0.0,12.0,,,HRV,HRV_0173,2022-11-30 18:32:18
,wl-rdm,20,108483,0.0-6.12-0.12,0.0,21.0,,,,,,,[],,,,,,62.5,1.0,i,1.0,True,956.6000000000931,58.0,60.0,40.0,False,,262.0080016662272,[],"[960, 540]",ColorTask,1.0,13.0,,,HRV,HRV_0173,2022-11-30 18:32:18
,wl-rdm,21,110850,0.0-6.13-0.13,0.0,22.0,,,,,,,[],,,,,,62.5,0.0,u,0.0,True,1049.0,63.0,60.0,40.0,False,,251.3653504624753,[],"[960, 540]",ColorTask,2.0,14.0,,,HRV,HRV_0173,2022-11-30 18:32:18
,wl-rdm,22,113100,0.0-6.14-0.14,0.0,23.0,,,,,,,[],,,,,,87.9,0.0,u,0.0,True,964.1999999997206,58.0,60.0,40.0,False,,228.94253317616204,[],"[960, 540]",ColorTask,3.0,15.0,,,HRV,HRV_0173,2022-11-30 18:32:18
,wl-rdm,23,115400,0.0-6.15-0.15,0.0,24.0,,,,,,,[],,,,,,56.4,1.0,i,1.0,True,994.8000000002794,60.0,60.0,40.0,False,,220.57140053797963,[],"[960, 540]",ColorTask,4.0,16.0,,,HRV,HRV_0173,2022-11-30 18:32:18
,wl-rdm,24,117833,0.0-6.16-0.16,0.0,25.0,,,,,,,[],,,,,,50.0,1.0,i,1.0,True,1110.1999999997206,67.0,60.0,40.0,False,,250.9990739917539,[],"[960, 540]",ColorTask,5.0,17.0,,,HRV,HRV_0173,2022-11-30 18:32:18
,wl-rdm,25,120283,0.0-6.17-0.17,0.0,26.0,,,,,,,[],,,,,,56.4,0.0,i,1.0,False,1066.7000000001863,64.0,60.0,40.0,False,,309.27734234048717,[],"[960, 540]",ColorTask,4.0,18.0,,,HRV,HRV_0173,2022-11-30 18:32:18
,wl-rdm,26,122900,0.0-6.18-0.18,0.0,27.0,,,,,,,[],,,,,,62.5,1.0,i,1.0,True,1298.8000000002794,78.0,60.0,40.0,False,,255.18742404861212,[],"[960, 540]",ColorTask,5.0,19.0,,,HRV,HRV_0173,2022-11-30 18:32:18
,wl-rdm,27,125367,0.0-6.19-0.19,0.0,28.0,,,,,,,[],,,,,,50.0,1.0,i,1.0,True,1130.0,68.0,60.0,40.0,False,,265.5942016029925,[],"[960, 540]",ColorTask,6.0,20.0,,,HRV,HRV_0173,2022-11-30 18:32:18
,wl-rdm,28,127917,0.0-6.20-0.20,0.0,29.0,,,,,,,[],,,,,,73.6,0.0,u,0.0,True,1107.8000000002794,67.0,60.0,40.0,False,,370.1228340512223,[],"[960, 540]",ColorTask,7.0,21.0,,,HRV,HRV_0173,2022-11-30 18:32:18
,wl-rdm,29,130550,0.0-6.21-0.21,0.0,30.0,,,,,,,[],,,,,,53.2,1.0,i,1.0,True,1331.3999999999069,80.0,60.0,40.0,False,,248.88092242462716,[],"[960, 540]",ColorTask,8.0,22.0,,,HRV,HRV_0173,2022-11-30 18:32:18
,wl-rdm,30,132933,0.0-6.22-0.22,0.0,31.0,,,,,,,[],,,,,,73.6,1.0,i,1.0,True,948.7999999998137,57.0,60.0,40.0,False,,377.576038356178,[],"[960, 540]",ColorTask,9.0,23.0,,,HRV,HRV_0173,2022-11-30 18:32:18
,wl-rdm,31,135250,0.0-6.23-0.23,0.0,32.0,,,,,,,[],,,,,,73.6,0.0,u,0.0,True,1019.6999999997206,62.0,60.0,40.0,False,,217.41387542058143,[],"[960, 540]",ColorTask,10.0,24.0,,,HRV,HRV_0173,2022-11-30 18:32:18
,wl-rdm,32,137417,0.0-6.24-0.24,0.0,33.0,,,,,,,[],,,,,,87.9,1.0,i,1.0,True,813.0,49.0,60.0,40.0,False,,286.87569266785954,[],"[960, 540]",ColorTask,11.0,25.0,,,HRV,HRV_0173,2022-11-30 18:32:18
,wl-rdm,33,140250,0.0-6.25-0.25,0.0,34.0,,,,,,,[],,,,,,50.0,1.0,i,1.0,True,1512.3999999999069,91.0,60.0,40.0,False,,257.9665605638579,[],"[960, 540]",ColorTask,12.0,26.0,,,HRV,HRV_0173,2022-11-30 18:32:18
,wl-rdm,34,144634,0.0-6.26-0.26,0.0,34.0,,,,,,,[],,,,,,56.4,0.0,u,,,3510.399999999907,179.0,60.0,40.0,True,RT_timeout ,280.167033826758,[],"[960, 540]",ColorTask,11.0,27.0,,,HRV,HRV_0173,2022-11-30 18:32:18
,wl-rdm,35,147001,0.0-6.27-0.27,0.0,35.0,,,,,,,[],,,,,,87.9,0.0,u,0.0,True,1039.7999999998137,63.0,60.0,40.0,False,,257.89728802897923,[],"[960, 540]",ColorTask,12.0,28.0,,,HRV,HRV_0173,2022-11-30 18:32:18
,wl-rdm,36,149334,0.0-6.28-0.28,0.0,36.0,,,,,,,[],,,,,,87.9,0.0,u,0.0,True,959.8999999999069,58.0,60.0,40.0,False,,302.725522647296,[],"[960, 540]",ColorTask,13.0,29.0,,,HRV,HRV_0173,2022-11-30 18:32:18
,wl-rdm,37,151601,0.0-6.29-0.29,0.0,37.0,,,,,,,[],,,,,,73.6,1.0,i,1.0,True,857.7999999998137,52.0,60.0,40.0,False,,346.5532543041079,[],"[960, 540]",ColorTask,14.0,30.0,,,HRV,HRV_0173,2022-11-30 18:32:18
,wl-rdm,38,155067,0.0-6.30-0.30,0.0,38.0,,,,,,,[],,,,,,53.2,0.0,i,1.0,False,2172.199999999255,131.0,60.0,40.0,False,,226.99885730082406,[],"[960, 540]",ColorTask,13.0,31.0,,,HRV,HRV_0173,2022-11-30 18:32:18
,wl-rdm,39,157918,0.0-6.31-0.31,0.0,39.0,,,,,,,[],,,,,,62.5,0.0,u,0.0,True,1486.7000000001863,90.0,60.0,40.0,False,,292.71254402053535,[],"[960, 540]",ColorTask,14.0,32.0,,,HRV,HRV_0173,2022-11-30 18:32:18
,wl-rdm,40,159968,0.0-6.32-0.32,0.0,40.0,,,,,,,[],,,,,,87.9,0.0,u,0.0,True,734.8999999999069,45.0,60.0,40.0,False,,242.43571687532014,[],"[960, 540]",ColorTask,15.0,33.0,,,HRV,HRV_0173,2022-11-30 18:32:18
,wl-rdm,41,163051,0.0-6.33-0.33,0.0,41.0,,,,,,,[],,,,,,62.5,0.0,i,1.0,False,1665.5,100.0,60.0,40.0,False,,356.97164255385496,[],"[960, 540]",ColorTask,14.0,34.0,,,HRV,HRV_0173,2022-11-30 18:32:18
,wl-rdm,42,165234,0.0-6.34-0.34,0.0,42.0,,,,,,,[],,,,,,53.2,1.0,i,1.0,True,749.5,45.0,60.0,40.0,False,,380.7743625640622,[],"[960, 540]",ColorTask,15.0,35.0,,,HRV,HRV_0173,2022-11-30 18:32:18
,wl-rdm,43,167884,0.0-6.35-0.35,0.0,43.0,,,,,,,[],,,,,,56.4,0.0,i,1.0,False,1273.5,77.0,60.0,40.0,False,,297.5183898247822,[],"[960, 540]",ColorTask,14.0,36.0,,,HRV,HRV_0173,2022-11-30 18:32:18
,wl-rdm,44,170801,0.0-6.36-0.36,0.0,44.0,,,,,,,[],,,,,,56.4,1.0,i,1.0,True,1510.3999999999069,91.0,60.0,40.0,False,,335.1407056545595,[],"[960, 540]",ColorTask,15.0,37.0,,,HRV,HRV_0173,2022-11-30 18:32:18
,wl-rdm,45,173418,0.0-6.37-0.37,0.0,45.0,,,,,,,[],,,,,,56.4,1.0,u,0.0,False,1302.6000000000931,79.0,60.0,40.0,False,,226.84241496003227,[],"[960, 540]",ColorTask,14.0,38.0,,,HRV,HRV_0173,2022-11-30 18:32:18
,wl-rdm,46,176351,0.0-6.38-0.38,0.0,46.0,,,,,,,[],,,,,,56.4,0.0,u,0.0,True,1472.0999999996275,89.0,60.0,40.0,False,,372.687486421909,[],"[960, 540]",ColorTask,15.0,39.0,,,HRV,HRV_0173,2022-11-30 18:32:18
,wl-rdm,47,178385,0.0-6.39-0.39,0.0,47.0,,,,,,,[],,,,,,73.6,1.0,i,1.0,True,721.2000000001863,44.0,60.0,40.0,False,,222.8660399170015,[],"[960, 540]",ColorTask,16.0,40.0,,,HRV,HRV_0173,2022-11-30 18:32:18
,wl-rdm,48,180735,0.0-6.40-0.40,0.0,48.0,,,,,,,[],,,,,,53.2,0.0,i,1.0,False,1065.0,64.0,60.0,40.0,False,,208.76537826282095,[],"[960, 540]",ColorTask,15.0,41.0,,,HRV,HRV_0173,2022-11-30 18:32:18
,wl-rdm,49,182668,0.0-6.41-0.41,0.0,49.0,,,,,,,[],,,,,,87.9,1.0,i,1.0,True,568.2000000001863,35.0,60.0,40.0,False,,281.2773177327801,[],"[960, 540]",ColorTask,16.0,42.0,,,HRV,HRV_0173,2022-11-30 18:32:18
,wl-rdm,50,185085,0.0-6.42-0.42,0.0,50.0,,,,,,,[],,,,,,50.0,1.0,u,0.0,False,1001.3000000002794,61.0,60.0,40.0,False,,341.29700568172825,[],"[960, 540]",ColorTask,15.0,43.0,,,HRV,HRV_0173,2022-11-30 18:32:18
,wl-rdm,51,187885,0.0-6.43-0.43,0.0,51.0,,,,,,,[],,,,,,56.4,0.0,i,1.0,False,1426.3000000002794,86.0,60.0,40.0,False,,293.69676358052686,[],"[960, 540]",ColorTask,14.0,44.0,,,HRV,HRV_0173,2022-11-30 18:32:18
,wl-rdm,52,189818,0.0-6.44-0.44,0.0,52.0,,,,,,,[],,,,,,87.9,1.0,i,1.0,True,579.3999999999069,35.0,60.0,40.0,False,,266.87755449536564,[],"[960, 540]",ColorTask,15.0,45.0,,,HRV,HRV_0173,2022-11-30 18:32:18
,wl-rdm,53,192718,0.0-6.45-0.45,0.0,53.0,,,,,,,[],,,,,,53.2,1.0,i,1.0,True,1508.1999999997206,91.0,60.0,40.0,False,,326.5506223055137,[],"[960, 540]",ColorTask,16.0,46.0,,,HRV,HRV_0173,2022-11-30 18:32:18
,wl-rdm,54,195102,0.0-6.46-0.46,0.0,54.0,,,,,,,[],,,,,,56.4,1.0,i,1.0,True,926.0999999996275,56.0,60.0,40.0,False,,383.68118155855393,[],"[960, 540]",ColorTask,17.0,47.0,,,HRV,HRV_0173,2022-11-30 18:32:18
,wl-rdm,55,197685,0.0-6.47-0.47,0.0,55.0,,,,,,,[],,,,,,62.5,0.0,u,0.0,True,1136.6000000000931,69.0,60.0,40.0,False,,355.85015452282187,[],"[960, 540]",ColorTask,18.0,48.0,,,HRV,HRV_0173,2022-11-30 18:32:18
,wl-rdm,56,200152,0.0-6.48-0.48,0.0,56.0,,,,,,,[],,,,,,53.2,0.0,i,1.0,False,1101.1999999997206,67.0,60.0,40.0,False,,273.57253496909806,[],"[960, 540]",ColorTask,17.0,49.0,,,HRV,HRV_0173,2022-11-30 18:32:18
,wl-rdm,57,202669,0.0-6.49-0.49,0.0,57.0,,,,,,,[],,,,,,50.0,1.0,i,1.0,True,1204.5,73.0,60.0,40.0,False,,221.94716434247866,[],"[960, 540]",ColorTask,18.0,50.0,,,HRV,HRV_0173,2022-11-30 18:32:18
,wl-rdm,58,205219,0.0-6.50-0.50,0.0,58.0,,,,,,,[],,,,,,50.0,0.0,i,1.0,False,1231.7999999998137,74.0,60.0,40.0,False,,255.36212944417554,[],"[960, 540]",ColorTask,17.0,51.0,,,HRV,HRV_0173,2022-11-30 18:32:18
,wl-rdm,59,207852,0.0-6.51-0.51,0.0,59.0,,,,,,,[],,,,,,56.4,0.0,i,1.0,False,1355.4000000003725,82.0,60.0,40.0,False,,211.91603452414043,[],"[960, 540]",ColorTask,16.0,52.0,,,HRV,HRV_0173,2022-11-30 18:32:18
,wl-rdm,60,210402,0.0-6.52-0.52,0.0,60.0,,,,,,,[],,,,,,50.0,1.0,i,1.0,True,1116.5,67.0,60.0,40.0,False,,365.8045384702168,[],"[960, 540]",ColorTask,17.0,53.0,,,HRV,HRV_0173,2022-11-30 18:32:18
,wl-rdm,61,212536,0.0-6.53-0.53,0.0,61.0,,,,,,,[],,,,,,73.6,1.0,i,1.0,True,794.2000000001863,48.0,60.0,40.0,False,,279.85884493153486,[],"[960, 540]",ColorTask,18.0,54.0,,,HRV,HRV_0173,2022-11-30 18:32:18
,wl-rdm,62,214920,0.0-6.54-0.54,0.0,62.0,,,,,,,[],,,,,,62.5,1.0,i,1.0,True,928.2000000001863,56.0,60.0,40.0,False,,388.03818342520185,[],"[960, 540]",ColorTask,19.0,55.0,,,HRV,HRV_0173,2022-11-30 18:32:18
,wl-rdm,63,217953,0.0-6.55-0.55,0.0,63.0,,,,,,,[],,,,,,53.2,0.0,i,1.0,False,1627.6000000000931,98.0,60.0,40.0,False,,350.2585596539976,[],"[960, 540]",ColorTask,18.0,56.0,,,HRV,HRV_0173,2022-11-30 18:32:18
,wl-rdm,64,220153,0.0-6.56-0.56,0.0,64.0,,,,,,,[],,,,,,73.6,1.0,i,1.0,True,910.8999999999069,55.0,60.0,40.0,False,,225.25784227528072,[],"[960, 540]",ColorTask,19.0,57.0,,,HRV,HRV_0173,2022-11-30 18:32:18
,wl-rdm,65,222470,0.0-6.57-0.57,0.0,65.0,,,,,,,[],,,,,,62.5,1.0,i,1.0,True,998.2999999993481,60.0,60.0,40.0,False,,258.38359942010607,[],"[960, 540]",ColorTask,20.0,58.0,,,HRV,HRV_0173,2022-11-30 18:32:18
,wl-rdm,66,224669,0.0-6.58-0.58,0.0,66.0,,,,,,,[],,,,,,73.6,1.0,i,1.0,True,807.0,49.0,60.0,40.0,False,,320.7428623338251,[],"[960, 540]",ColorTask,21.0,59.0,,,HRV,HRV_0173,2022-11-30 18:32:18
,wl-rdm,67,226720,0.0-6.59-0.59,0.0,67.0,,,,,,,[],,,,,,87.9,0.0,u,0.0,True,771.7999999998137,47.0,60.0,40.0,False,,212.30748964774313,[],"[960, 540]",ColorTask,22.0,60.0,,,HRV,HRV_0173,2022-11-30 18:32:18
,wl-rdm,68,229086,0.0-6.60-0.60,0.0,68.0,,,,,,,[],,,,,,73.6,0.0,u,0.0,True,900.5,55.0,60.0,40.0,False,,383.8502652058065,[],"[960, 540]",ColorTask,23.0,61.0,,,HRV,HRV_0173,2022-11-30 18:32:18
,wl-rdm,69,231720,0.0-6.61-0.61,0.0,69.0,,,,,,,[],,,,,,50.0,1.0,u,0.0,False,1181.5999999996275,71.0,60.0,40.0,False,,390.85646811291946,[],"[960, 540]",ColorTask,22.0,62.0,,,HRV,HRV_0173,2022-11-30 18:32:18
,wl-rdm,70,234220,0.0-6.62-0.62,0.0,70.0,,,,,,,[],,,,,,62.5,0.0,u,0.0,True,1185.7999999998137,72.0,60.0,40.0,False,,232.85446910752984,[],"[960, 540]",ColorTask,23.0,63.0,,,HRV,HRV_0173,2022-11-30 18:32:18
,wl-rdm,71,236703,0.0-6.63-0.63,0.0,71.0,,,,,,,[],,,,,,50.0,0.0,i,1.0,False,1134.1000000000931,69.0,60.0,40.0,False,,255.8880038931199,[],"[960, 540]",ColorTask,22.0,64.0,,,HRV,HRV_0173,2022-11-30 18:32:18
,wl-rdm,72,238987,0.0-6.64-0.64,0.0,72.0,,,,,,,[],,,,,,73.6,0.0,u,0.0,True,980.2000000001863,59.0,60.0,40.0,False,,228.81923968056378,[],"[960, 540]",ColorTask,23.0,65.0,,,HRV,HRV_0173,2022-11-30 18:32:18
,wl-rdm,73,241220,0.0-6.65-0.65,0.0,73.0,,,,,,,[],,,,,,87.9,1.0,i,1.0,True,911.1999999997206,55.0,60.0,40.0,False,,261.21029063338204,[],"[960, 540]",ColorTask,24.0,66.0,,,HRV,HRV_0173,2022-11-30 18:32:18
,wl-rdm,74,243637,0.0-6.66-0.66,0.0,74.0,,,,,,,[],,,,,,56.4,0.0,i,1.0,False,1011.3000000002794,61.0,60.0,40.0,False,,339.48951576699653,[],"[960, 540]",ColorTask,23.0,67.0,,,HRV,HRV_0173,2022-11-30 18:32:18
,wl-rdm,75,246437,0.0-6.67-0.67,0.0,75.0,,,,,,,[],,,,,,53.2,0.0,i,1.0,False,1394.6999999997206,84.0,60.0,40.0,False,,348.10502740169477,[],"[960, 540]",ColorTask,22.0,68.0,,,HRV,HRV_0173,2022-11-30 18:32:18
,wl-rdm,76,248421,0.0-6.68-0.68,0.0,76.0,,,,,,,[],,,,,,87.9,0.0,u,0.0,True,595.7000000001863,36.0,60.0,40.0,False,,331.08049248607006,[],"[960, 540]",ColorTask,23.0,69.0,,,HRV,HRV_0173,2022-11-30 18:32:18
,wl-rdm,77,250287,0.0-6.69-0.69,0.0,77.0,,,,,,,[],,,,,,87.9,1.0,i,1.0,True,593.3000000002794,36.0,60.0,40.0,False,,212.0074847811549,[],"[960, 540]",ColorTask,24.0,70.0,,,HRV,HRV_0173,2022-11-30 18:32:18
,wl-rdm,78,252837,0.0-6.70-0.70,0.0,78.0,,,,,,,[],,,,,,50.0,1.0,u,0.0,False,1213.5,73.0,60.0,40.0,False,,251.00811895169446,[],"[960, 540]",ColorTask,23.0,71.0,,,HRV,HRV_0173,2022-11-30 18:32:18
,wl-rdm,79,255187,0.0-6.71-0.71,0.0,79.0,,,,,,,[],,,,,,53.2,0.0,u,0.0,True,998.0,60.0,60.0,40.0,False,,284.1053868645196,[],"[960, 540]",ColorTask,24.0,72.0,,,HRV,HRV_0173,2022-11-30 18:32:18
,wl-rdm,80,257886,0.0-6.72-0.72,0.0,80.0,,,,,,,[],,,,,,53.2,1.0,u,0.0,False,1386.8999999999069,84.0,60.0,40.0,False,,222.96211223163164,[],"[960, 540]",ColorTask,23.0,73.0,,,HRV,HRV_0173,2022-11-30 18:32:18
,wl-rdm,81,260353,0.0-6.73-0.73,0.0,81.0,,,,,,,[],,,,,,53.2,1.0,i,1.0,True,1068.2000000001863,65.0,60.0,40.0,False,,300.13532813867323,[],"[960, 540]",ColorTask,24.0,74.0,,,HRV,HRV_0173,2022-11-30 18:32:18
,wl-rdm,82,262903,0.0-6.74-0.74,0.0,82.0,,,,,,,[],,,,,,62.5,1.0,i,1.0,True,1145.6000000000931,69.0,60.0,40.0,False,,332.1324919506835,[],"[960, 540]",ColorTask,25.0,75.0,,,HRV,HRV_0173,2022-11-30 18:32:18
,wl-rdm,83,265136,0.0-6.75-0.75,0.0,83.0,,,,,,,[],,,,,,56.4,1.0,i,1.0,True,903.1000000000931,55.0,60.0,40.0,False,,238.379783537274,[],"[960, 540]",ColorTask,26.0,76.0,,,HRV,HRV_0173,2022-11-30 18:32:18
,wl-rdm,84,267187,0.0-6.76-0.76,0.0,84.0,,,,,,,[],,,,,,87.9,0.0,u,0.0,True,725.0,44.0,60.0,40.0,False,,262.94719405545607,[],"[960, 540]",ColorTask,27.0,77.0,,,HRV,HRV_0173,2022-11-30 18:32:18
,wl-rdm,85,269270,0.0-6.77-0.77,0.0,85.0,,,,,,,[],,,,,,62.5,1.0,i,1.0,True,813.2999999998137,49.0,60.0,40.0,False,,211.5370861144405,[],"[960, 540]",ColorTask,28.0,78.0,,,HRV,HRV_0173,2022-11-30 18:32:18
,wl-rdm,86,272320,0.0-6.78-0.78,0.0,86.0,,,,,,,[],,,,,,56.4,1.0,i,1.0,True,1696.1000000000931,102.0,60.0,40.0,False,,290.42368567511585,[],"[960, 540]",ColorTask,29.0,79.0,,,HRV,HRV_0173,2022-11-30 18:32:18
,wl-rdm,87,274553,0.0-6.79-0.79,0.0,87.0,,,,,,,[],,,,,,56.4,1.0,i,1.0,True,961.0999999996275,58.0,60.0,40.0,False,,209.8145192247527,[],"[960, 540]",ColorTask,30.0,80.0,,,HRV,HRV_0173,2022-11-30 18:32:18
,wl-rdm,88,277086,0.0-6.80-0.80,0.0,88.0,,,,,,,[],,,,,,53.2,0.0,u,0.0,True,1255.8999999999069,76.0,60.0,40.0,False,,200.20970735733792,[],"[960, 540]",ColorTask,31.0,81.0,,,HRV,HRV_0173,2022-11-30 18:32:18
,wl-rdm,89,279603,0.0-6.81-0.81,0.0,89.0,,,,,,,[],,,,,,56.4,1.0,i,1.0,True,1168.7999999998137,71.0,60.0,40.0,False,,259.85592832045376,[],"[960, 540]",ColorTask,32.0,82.0,,,HRV,HRV_0173,2022-11-30 18:32:18
,wl-rdm,90,282120,0.0-6.82-0.82,0.0,90.0,,,,,,,[],,,,,,53.2,1.0,i,1.0,True,1180.2999999998137,71.0,60.0,40.0,False,,254.04974728644584,[],"[960, 540]",ColorTask,33.0,83.0,,,HRV,HRV_0173,2022-11-30 18:32:18
,wl-rdm,91,284287,0.0-6.83-0.83,0.0,91.0,,,,,,,[],,,,,,62.5,1.0,i,1.0,True,791.0,48.0,60.0,40.0,False,,295.01610232288635,[],"[960, 540]",ColorTask,34.0,84.0,,,HRV,HRV_0173,2022-11-30 18:32:18
,wl-rdm,92,287187,0.0-6.84-0.84,0.0,92.0,,,,,,,[],,,,,,50.0,0.0,u,0.0,True,1619.7000000001863,98.0,60.0,40.0,False,,214.1420474515475,[],"[960, 540]",ColorTask,35.0,85.0,,,HRV,HRV_0173,2022-11-30 18:32:18
,wl-rdm,93,289753,0.0-6.85-0.85,0.0,93.0,,,,,,,[],,,,,,50.0,0.0,u,0.0,True,1129.3999999999069,68.0,60.0,40.0,False,,366.61960610623237,[],"[960, 540]",ColorTask,36.0,86.0,,,HRV,HRV_0173,2022-11-30 18:32:18
,wl-rdm,94,292204,0.0-6.86-0.86,0.0,94.0,,,,,,,[],,,,,,53.2,0.0,u,0.0,True,1094.2999999998137,66.0,60.0,40.0,False,,290.0902117414154,[],"[960, 540]",ColorTask,37.0,87.0,,,HRV,HRV_0173,2022-11-30 18:32:18
,wl-rdm,95,294870,0.0-6.87-0.87,0.0,95.0,,,,,,,[],,,,,,62.5,1.0,i,1.0,True,1301.2999999998137,79.0,60.0,40.0,False,,278.4491575464802,[],"[960, 540]",ColorTask,38.0,88.0,,,HRV,HRV_0173,2022-11-30 18:32:18
,wl-rdm,96,297187,0.0-6.88-0.88,0.0,96.0,,,,,,,[],,,,,,73.6,1.0,i,1.0,True,871.0,53.0,60.0,40.0,False,,371.2056677492133,[],"[960, 540]",ColorTask,39.0,89.0,,,HRV,HRV_0173,2022-11-30 18:32:18
,wl-rdm,97,299237,0.0-6.89-0.89,0.0,97.0,,,,,,,[],,,,,,87.9,1.0,i,1.0,True,661.3999999999069,40.0,60.0,40.0,False,,313.2693139984978,[],"[960, 540]",ColorTask,40.0,90.0,,,HRV,HRV_0173,2022-11-30 18:32:18
,wl-rdm,98,301571,0.0-6.90-0.90,0.0,98.0,,,,,,,[],,,,,,56.4,0.0,u,0.0,True,930.7000000001863,56.0,60.0,40.0,False,,343.1983887243972,[],"[960, 540]",ColorTask,41.0,91.0,,,HRV,HRV_0173,2022-11-30 18:32:18
,wl-rdm,99,303787,0.0-6.91-0.91,0.0,99.0,,,,,,,[],,,,,,53.2,1.0,u,0.0,False,913.6000000000931,55.0,60.0,40.0,False,,242.01470000307734,[],"[960, 540]",ColorTask,40.0,92.0,,,HRV,HRV_0173,2022-11-30 18:32:18
,wl-rdm,100,305971,0.0-6.92-0.92,0.0,100.0,,,,,,,[],,,,,,87.9,0.0,u,0.0,True,831.6000000000931,50.0,60.0,40.0,False,,293.21404330014445,[],"[960, 540]",ColorTask,41.0,93.0,,,HRV,HRV_0173,2022-11-30 18:32:18
,wl-rdm,101,308671,0.0-6.93-0.93,0.0,101.0,,,,,,,[],,,,,,53.2,1.0,u,0.0,False,1310.9000000003725,79.0,60.0,40.0,False,,324.69980837027464,[],"[960, 540]",ColorTask,40.0,94.0,,,HRV,HRV_0173,2022-11-30 18:32:18
,wl-rdm,102,310621,0.0-6.94-0.94,0.0,102.0,,,,,,,[],,,,,,87.9,0.0,u,0.0,True,639.4000000003725,39.0,60.0,40.0,False,,221.14406000272572,[],"[960, 540]",ColorTask,41.0,95.0,,,HRV,HRV_0173,2022-11-30 18:32:18
,wl-rdm,103,312771,0.0-6.95-0.95,0.0,103.0,,,,,,,[],,,,,,56.4,0.0,u,0.0,True,858.1999999997206,52.0,60.0,40.0,False,,206.31537841129884,[],"[960, 540]",ColorTask,42.0,96.0,,,HRV,HRV_0173,2022-11-30 18:32:18
,wl-rdm,104,314787,0.0-6.96-0.96,0.0,104.0,,,,,,,[],,,,,,87.9,1.0,i,1.0,True,608.1000000000931,37.0,60.0,40.0,False,,318.96837648730883,[],"[960, 540]",ColorTask,43.0,97.0,,,HRV,HRV_0173,2022-11-30 18:32:18
,wl-rdm,105,317105,0.0-6.97-0.97,0.0,105.0,,,,,,,[],,,,,,56.4,0.0,u,0.0,True,945.0,57.0,60.0,40.0,False,,295.63048453666454,[],"[960, 540]",ColorTask,44.0,98.0,,,HRV,HRV_0173,2022-11-30 18:32:18
,wl-rdm,106,319338,0.0-6.98-0.98,0.0,106.0,,,,,,,[],,,,,,53.2,1.0,u,0.0,False,926.6999999997206,56.0,60.0,40.0,False,,231.111568852768,[],"[960, 540]",ColorTask,43.0,99.0,,,HRV,HRV_0173,2022-11-30 18:32:18
,wl-rdm,107,321472,0.0-6.99-0.99,0.0,107.0,,,,,,,[],,,,,,62.5,1.0,u,0.0,False,746.8999999999069,45.0,60.0,40.0,False,,314.49702386867034,[],"[960, 540]",ColorTask,42.0,100.0,,,HRV,HRV_0173,2022-11-30 18:32:18
,wl-rdm,108,323705,0.0-6.100-0.100,0.0,108.0,,,,,,,[],,,,,,73.6,0.0,u,0.0,True,795.5,48.0,60.0,40.0,False,,371.02232448395813,[],"[960, 540]",ColorTask,43.0,101.0,,,HRV,HRV_0173,2022-11-30 18:32:18
,wl-rdm,109,325942,0.0-6.101-0.101,0.0,109.0,,,,,,,[],,,,,,73.6,0.0,u,0.0,True,827.5,50.0,60.0,40.0,False,,348.88731275213365,[],"[960, 540]",ColorTask,44.0,102.0,,,HRV,HRV_0173,2022-11-30 18:32:18
,wl-rdm,110,327939,0.0-6.102-0.102,0.0,110.0,,,,,,,[],,,,,,50.0,0.0,u,0.0,True,694.8000000002794,42.0,60.0,40.0,False,,227.59937148919275,[],"[960, 540]",ColorTask,45.0,103.0,,,HRV,HRV_0173,2022-11-30 18:32:18
,wl-rdm,111,330005,0.0-6.103-0.103,0.0,111.0,,,,,,,[],,,,,,87.9,1.0,i,1.0,True,791.8999999999069,48.0,60.0,40.0,False,,215.56612053290422,[],"[960, 540]",ColorTask,46.0,104.0,,,HRV,HRV_0173,2022-11-30 18:32:18
,wl-rdm,112,332056,0.0-6.104-0.104,0.0,112.0,,,,,,,[],,,,,,73.6,0.0,u,0.0,True,732.3999999999069,44.0,60.0,40.0,False,,243.72651718035172,[],"[960, 540]",ColorTask,47.0,105.0,,,HRV,HRV_0173,2022-11-30 18:32:18
,wl-rdm,113,334255,0.0-6.105-0.105,0.0,113.0,,,,,,,[],,,,,,62.5,0.0,u,0.0,True,807.3000000002794,49.0,60.0,40.0,False,,311.3658735879316,[],"[960, 540]",ColorTask,48.0,106.0,,,HRV,HRV_0173,2022-11-30 18:32:18
,wl-rdm,114,336422,0.0-6.106-0.106,0.0,114.0,,,,,,,[],,,,,,56.4,1.0,u,0.0,False,751.5,46.0,60.0,40.0,False,,320.84119950876476,[],"[960, 540]",ColorTask,47.0,107.0,,,HRV,HRV_0173,2022-11-30 18:32:18
,wl-rdm,115,338539,0.0-6.107-0.107,0.0,115.0,,,,,,,[],,,,,,73.6,1.0,i,1.0,True,779.7000000001863,47.0,60.0,40.0,False,,265.64762880725965,[],"[960, 540]",ColorTask,48.0,108.0,,,HRV,HRV_0173,2022-11-30 18:32:18
,wl-rdm,116,340806,0.0-6.108-0.108,0.0,116.0,,,,,,,[],,,,,,73.6,0.0,u,0.0,True,869.2000000001863,53.0,60.0,40.0,False,,311.0006632865114,[],"[960, 540]",ColorTask,49.0,109.0,,,HRV,HRV_0173,2022-11-30 18:32:18
,wl-html-keyboard-response,117,348301,0.0-7.0-0.0,1.0,117.0,,,,,,,,5485.399999999907,1.0,0,,,,,,,,,,,,,,,,,,,,,,HRV,HRV_0173,2022-11-30 18:32:18
,wl-rdm,118,350806,0.0-8.0-0.0,1.0,118.0,,,,,,,[],,,,,,73.6,0.0,u,0.0,True,1169.6000000000931,71.0,60.0,40.0,False,,276.3898212814185,[],"[960, 540]",ColorTask,50.0,1.0,,,HRV,HRV_0173,2022-11-30 18:32:18
,wl-rdm,119,353039,0.0-8.1-0.1,1.0,119.0,,,,,,,[],,,,,,73.6,1.0,i,1.0,True,769.1999999997206,47.0,60.0,40.0,False,,381.49283685632145,[],"[960, 540]",ColorTask,51.0,2.0,,,HRV,HRV_0173,2022-11-30 18:32:18
,wl-rdm,120,355273,0.0-8.2-0.2,1.0,120.0,,,,,,,[],,,,,,50.0,1.0,u,0.0,False,901.7999999998137,55.0,60.0,40.0,False,,234.85130997823944,[],"[960, 540]",ColorTask,50.0,3.0,,,HRV,HRV_0173,2022-11-30 18:32:18
,wl-rdm,121,357472,0.0-8.3-0.3,1.0,121.0,,,,,,,[],,,,,,56.4,1.0,u,0.0,False,885.3999999999069,54.0,60.0,40.0,False,,244.78352928649872,[],"[960, 540]",ColorTask,49.0,4.0,,,HRV,HRV_0173,2022-11-30 18:32:18
,wl-rdm,122,359656,0.0-8.4-0.4,1.0,122.0,,,,,,,[],,,,,,53.2,1.0,i,1.0,True,736.1999999997206,45.0,60.0,40.0,False,,350.14892624852337,[],"[960, 540]",ColorTask,50.0,5.0,,,HRV,HRV_0173,2022-11-30 18:32:18
,wl-rdm,123,362290,0.0-8.5-0.5,1.0,123.0,,,,,,,[],,,,,,50.0,0.0,u,0.0,True,1218.7999999998137,74.0,60.0,40.0,False,,323.1939656514337,[],"[960, 540]",ColorTask,51.0,6.0,,,HRV,HRV_0173,2022-11-30 18:32:18
,wl-rdm,124,364256,0.0-8.6-0.6,1.0,124.0,,,,,,,[],,,,,,50.0,0.0,u,0.0,True,661.6000000000931,40.0,60.0,40.0,False,,245.74437957314416,[],"[960, 540]",ColorTask,52.0,7.0,,,HRV,HRV_0173,2022-11-30 18:32:18
,wl-rdm,125,366773,0.0-8.7-0.7,1.0,125.0,,,,,,,[],,,,,,56.4,1.0,i,1.0,True,1174.0,71.0,60.0,40.0,False,,264.6070542410461,[],"[960, 540]",ColorTask,53.0,8.0,,,HRV,HRV_0173,2022-11-30 18:32:18
,wl-rdm,126,368939,0.0-8.8-0.8,1.0,126.0,,,,,,,[],,,,,,87.9,0.0,u,0.0,True,709.0999999996275,43.0,60.0,40.0,False,,395.5956736674411,[],"[960, 540]",ColorTask,54.0,9.0,,,HRV,HRV_0173,2022-11-30 18:32:18
,wl-rdm,127,370890,0.0-8.9-0.9,1.0,127.0,,,,,,,[],,,,,,87.9,1.0,i,1.0,True,660.6999999997206,40.0,60.0,40.0,False,,217.94957704936493,[],"[960, 540]",ColorTask,55.0,10.0,,,HRV,HRV_0173,2022-11-30 18:32:18
,wl-rdm,128,372873,0.0-8.10-0.10,1.0,128.0,,,,,,,[],,,,,,62.5,1.0,i,1.0,True,653.3999999999069,40.0,60.0,40.0,False,,252.5771608355872,[],"[960, 540]",ColorTask,56.0,11.0,,,HRV,HRV_0173,2022-11-30 18:32:18
,wl-rdm,129,375606,0.0-8.11-0.11,1.0,129.0,,,,,,,[],,,,,,53.2,1.0,u,0.0,False,1273.5999999996275,77.0,60.0,40.0,False,,386.3097663004156,[],"[960, 540]",ColorTask,55.0,12.0,,,HRV,HRV_0173,2022-11-30 18:32:18
,wl-rdm,130,378090,0.0-8.12-0.12,1.0,130.0,,,,,,,[],,,,,,50.0,1.0,u,0.0,False,1087.3999999999069,66.0,60.0,40.0,False,,324.988938928793,[],"[960, 540]",ColorTask,54.0,13.0,,,HRV,HRV_0173,2022-11-30 18:32:18
,wl-rdm,131,380240,0.0-8.13-0.13,1.0,131.0,,,,,,,[],,,,,,53.2,0.0,i,1.0,False,739.7999999998137,45.0,60.0,40.0,False,,339.3886230914511,[],"[960, 540]",ColorTask,53.0,14.0,,,HRV,HRV_0173,2022-11-30 18:32:18
,wl-rdm,132,382323,0.0-8.14-0.14,1.0,132.0,,,,,,,[],,,,,,50.0,0.0,u,0.0,True,736.8999999999069,45.0,60.0,40.0,False,,252.4167122019415,[],"[960, 540]",ColorTask,54.0,15.0,,,HRV,HRV_0173,2022-11-30 18:32:18
,wl-rdm,133,385023,0.0-8.15-0.15,1.0,133.0,,,,,,,[],,,,,,56.4,1.0,i,1.0,True,1374.8000000002794,83.0,60.0,40.0,False,,241.574420370162,[],"[960, 540]",ColorTask,55.0,16.0,,,HRV,HRV_0173,2022-11-30 18:32:18
,wl-rdm,134,386957,0.0-8.16-0.16,1.0,134.0,,,,,,,[],,,,,,87.9,0.0,u,0.0,True,636.3999999999069,39.0,60.0,40.0,False,,213.79163304358738,[],"[960, 540]",ColorTask,56.0,17.0,,,HRV,HRV_0173,2022-11-30 18:32:18
,wl-rdm,135,389790,0.0-8.17-0.17,1.0,135.0,,,,,,,[],,,,,,53.2,1.0,u,0.0,False,1385.2999999998137,84.0,60.0,40.0,False,,356.0522824419477,[],"[960, 540]",ColorTask,55.0,18.0,,,HRV,HRV_0173,2022-11-30 18:32:18
,wl-rdm,136,391907,0.0-8.18-0.18,1.0,136.0,,,,,,,[],,,,,,56.4,0.0,u,0.0,True,805.6999999997206,49.0,60.0,40.0,False,,243.6560941961483,[],"[960, 540]",ColorTask,56.0,19.0,,,HRV,HRV_0173,2022-11-30 18:32:18
,wl-rdm,137,394524,0.0-8.19-0.19,1.0,137.0,,,,,,,[],,,,,,62.5,0.0,i,1.0,False,1163.1000000000931,70.0,60.0,40.0,False,,393.1959676776261,[],"[960, 540]",ColorTask,55.0,20.0,,,HRV,HRV_0173,2022-11-30 18:32:18
,wl-rdm,138,396774,0.0-8.20-0.20,1.0,138.0,,,,,,,[],,,,,,56.4,0.0,u,0.0,True,861.2000000001863,52.0,60.0,40.0,False,,330.69504768528293,[],"[960, 540]",ColorTask,56.0,21.0,,,HRV,HRV_0173,2022-11-30 18:32:18
,wl-rdm,139,399291,0.0-8.21-0.21,1.0,139.0,,,,,,,[],,,,,,53.2,0.0,i,1.0,False,1165.6000000000931,70.0,60.0,40.0,False,,285.1193706095256,[],"[960, 540]",ColorTask,55.0,22.0,,,HRV,HRV_0173,2022-11-30 18:32:18
,wl-rdm,140,401357,0.0-8.22-0.22,1.0,140.0,,,,,,,[],,,,,,73.6,1.0,i,1.0,True,621.1999999997206,38.0,60.0,40.0,False,,370.9739381825873,[],"[960, 540]",ColorTask,56.0,23.0,,,HRV,HRV_0173,2022-11-30 18:32:18
,wl-rdm,141,403407,0.0-8.23-0.23,1.0,141.0,,,,,,,[],,,,,,87.9,0.0,u,0.0,True,661.5,40.0,60.0,40.0,False,,321.98178418346436,[],"[960, 540]",ColorTask,57.0,24.0,,,HRV,HRV_0173,2022-11-30 18:32:18
,wl-rdm,142,405558,0.0-8.24-0.24,1.0,142.0,,,,,,,[],,,,,,50.0,0.0,i,1.0,False,812.8999999999069,49.0,60.0,40.0,False,,280.5439193243089,[],"[960, 540]",ColorTask,56.0,25.0,,,HRV,HRV_0173,2022-11-30 18:32:18
,wl-rdm,143,407991,0.0-8.25-0.25,1.0,143.0,,,,,,,[],,,,,,56.4,1.0,i,1.0,True,1037.6000000000931,63.0,60.0,40.0,False,,324.4750135830891,[],"[960, 540]",ColorTask,57.0,26.0,,,HRV,HRV_0173,2022-11-30 18:32:18
,wl-rdm,144,410291,0.0-8.26-0.26,1.0,144.0,,,,,,,[],,,,,,73.6,1.0,i,1.0,True,951.1999999997206,58.0,60.0,40.0,False,,254.8728550482078,[],"[960, 540]",ColorTask,58.0,27.0,,,HRV,HRV_0173,2022-11-30 18:32:18
,wl-rdm,145,412775,0.0-8.27-0.27,1.0,145.0,,,,,,,[],,,,,,62.5,0.0,i,1.0,False,1138.5999999996275,69.0,60.0,40.0,False,,277.811098335306,[],"[960, 540]",ColorTask,57.0,28.0,,,HRV,HRV_0173,2022-11-30 18:32:18
,wl-rdm,146,414941,0.0-8.28-0.28,1.0,146.0,,,,,,,[],,,,,,53.2,1.0,u,0.0,False,832.5,50.0,60.0,40.0,False,,268.2748327285237,[],"[960, 540]",ColorTask,56.0,29.0,,,HRV,HRV_0173,2022-11-30 18:32:18
,wl-rdm,147,417141,0.0-8.29-0.29,1.0,147.0,,,,,,,[],,,,,,62.5,0.0,i,1.0,False,824.5,50.0,60.0,40.0,False,,305.23781401847833,[],"[960, 540]",ColorTask,55.0,30.0,,,HRV,HRV_0173,2022-11-30 18:32:18
,wl-rdm,148,419241,0.0-8.30-0.30,1.0,148.0,,,,,,,[],,,,,,62.5,0.0,u,0.0,True,811.6000000000931,49.0,60.0,40.0,False,,218.70622570540166,[],"[960, 540]",ColorTask,56.0,31.0,,,HRV,HRV_0173,2022-11-30 18:32:18
,wl-rdm,149,421325,0.0-8.31-0.31,1.0,149.0,,,,,,,[],,,,,,56.4,1.0,i,1.0,True,741.9000000003725,45.0,60.0,40.0,False,,270.1509049971081,[],"[960, 540]",ColorTask,57.0,32.0,,,HRV,HRV_0173,2022-11-30 18:32:18
,wl-rdm,150,423358,0.0-8.32-0.32,1.0,150.0,,,,,,,[],,,,,,87.9,0.0,u,0.0,True,658.1000000000931,40.0,60.0,40.0,False,,290.4491792254375,[],"[960, 540]",ColorTask,58.0,33.0,,,HRV,HRV_0173,2022-11-30 18:32:18
,wl-rdm,151,425458,0.0-8.33-0.33,1.0,151.0,,,,,,,[],,,,,,73.6,0.0,u,0.0,True,688.3000000002794,42.0,60.0,40.0,False,,319.7240557572064,[],"[960, 540]",ColorTask,59.0,34.0,,,HRV,HRV_0173,2022-11-30 18:32:18
,wl-rdm,152,427408,0.0-8.34-0.34,1.0,152.0,,,,,,,[],,,,,,87.9,1.0,i,1.0,True,590.5,36.0,60.0,40.0,False,,277.7607208718929,[],"[960, 540]",ColorTask,60.0,35.0,,,HRV,HRV_0173,2022-11-30 18:32:18
,wl-rdm,153,429392,0.0-8.35-0.35,1.0,153.0,,,,,,,[],,,,,,87.9,1.0,i,1.0,True,567.2000000001863,35.0,60.0,40.0,False,,332.90847230800864,[],"[960, 540]",ColorTask,61.0,36.0,,,HRV,HRV_0173,2022-11-30 18:32:18
,wl-rdm,154,431241,0.0-8.36-0.36,1.0,154.0,,,,,,,[],,,,,,87.9,1.0,i,1.0,True,531.0,32.0,60.0,40.0,False,,239.6420727659021,[],"[960, 540]",ColorTask,62.0,37.0,,,HRV,HRV_0173,2022-11-30 18:32:18
,wl-rdm,155,433025,0.0-8.37-0.37,1.0,155.0,,,,,,,[],,,,,,53.2,1.0,i,1.0,True,489.39999999990687,30.0,60.0,40.0,False,,231.83432774412677,[],"[960, 540]",ColorTask,63.0,38.0,,,HRV,HRV_0173,2022-11-30 18:32:18
,wl-rdm,156,434975,0.0-8.38-0.38,1.0,156.0,,,,,,,[],,,,,,50.0,0.0,i,1.0,False,550.8000000002794,34.0,60.0,40.0,False,,318.6642250283085,[],"[960, 540]",ColorTask,62.0,39.0,,,HRV,HRV_0173,2022-11-30 18:32:18
,wl-rdm,157,436791,0.0-8.39-0.39,1.0,157.0,,,,,,,[],,,,,,62.5,0.0,u,0.0,True,549.6000000000931,33.0,60.0,40.0,False,,205.38628799297277,[],"[960, 540]",ColorTask,63.0,40.0,,,HRV,HRV_0173,2022-11-30 18:32:18
,wl-rdm,158,438991,0.0-8.40-0.40,1.0,158.0,,,,,,,[],,,,,,53.2,1.0,i,1.0,True,883.6000000000931,54.0,60.0,40.0,False,,243.4344381843929,[],"[960, 540]",ColorTask,64.0,41.0,,,HRV,HRV_0173,2022-11-30 18:32:18
,wl-rdm,159,440958,0.0-8.41-0.41,1.0,159.0,,,,,,,[],,,,,,87.9,1.0,i,1.0,True,585.7999999998137,36.0,60.0,40.0,False,,297.3916550122638,[],"[960, 540]",ColorTask,65.0,42.0,,,HRV,HRV_0173,2022-11-30 18:32:18
,wl-rdm,160,443442,0.0-8.42-0.42,1.0,160.0,,,,,,,[],,,,,,53.2,0.0,u,0.0,True,1074.3999999999069,65.0,60.0,40.0,False,,320.0369546274287,[],"[960, 540]",ColorTask,66.0,43.0,,,HRV,HRV_0173,2022-11-30 18:32:18
,wl-rdm,161,445458,0.0-8.43-0.43,1.0,161.0,,,,,,,[],,,,,,62.5,1.0,i,1.0,True,731.7000000001863,44.0,60.0,40.0,False,,210.8168676402787,[],"[960, 540]",ColorTask,67.0,44.0,,,HRV,HRV_0173,2022-11-30 18:32:18
,wl-rdm,162,447725,0.0-8.44-0.44,1.0,162.0,,,,,,,[],,,,,,73.6,1.0,i,1.0,True,855.3999999999069,52.0,60.0,40.0,False,,319.7866610141542,[],"[960, 540]",ColorTask,68.0,45.0,,,HRV,HRV_0173,2022-11-30 18:32:18
,wl-rdm,163,450342,0.0-8.45-0.45,1.0,163.0,,,,,,,[],,,,,,53.2,1.0,u,0.0,False,1320.6000000000931,80.0,60.0,40.0,False,,229.43775392252363,[],"[960, 540]",ColorTask,67.0,46.0,,,HRV,HRV_0173,2022-11-30 18:32:18
,wl-rdm,164,452725,0.0-8.46-0.46,1.0,164.0,,,,,,,[],,,,,,53.2,0.0,u,0.0,True,1071.7000000001863,65.0,60.0,40.0,False,,237.84759404457176,[],"[960, 540]",ColorTask,68.0,47.0,,,HRV,HRV_0173,2022-11-30 18:32:18
,wl-rdm,165,455092,0.0-8.47-0.47,1.0,165.0,,,,,,,[],,,,,,56.4,1.0,i,1.0,True,990.2000000001863,60.0,60.0,40.0,False,,303.2139757366796,[],"[960, 540]",ColorTask,69.0,48.0,,,HRV,HRV_0173,2022-11-30 18:32:18
,wl-rdm,166,457142,0.0-8.48-0.48,1.0,166.0,,,,,,,[],,,,,,56.4,1.0,i,1.0,True,689.0,42.0,60.0,40.0,False,,271.7702090192877,[],"[960, 540]",ColorTask,70.0,49.0,,,HRV,HRV_0173,2022-11-30 18:32:18
,wl-rdm,167,459375,0.0-8.49-0.49,1.0,167.0,,,,,,,[],,,,,,73.6,0.0,u,0.0,True,821.5,50.0,60.0,40.0,False,,321.7705609961099,[],"[960, 540]",ColorTask,71.0,50.0,,,HRV,HRV_0173,2022-11-30 18:32:18
,wl-rdm,168,462092,0.0-8.50-0.50,1.0,168.0,,,,,,,[],,,,,,53.2,0.0,u,0.0,True,1432.2000000001863,86.0,60.0,40.0,False,,228.45542891373333,[],"[960, 540]",ColorTask,72.0,51.0,,,HRV,HRV_0173,2022-11-30 18:32:18
,wl-rdm,169,464792,0.0-8.51-0.51,1.0,169.0,,,,,,,[],,,,,,62.5,1.0,i,1.0,True,1411.6000000000931,85.0,60.0,40.0,False,,223.17669794544653,[],"[960, 540]",ColorTask,73.0,52.0,,,HRV,HRV_0173,2022-11-30 18:32:18
,wl-rdm,170,466726,0.0-8.52-0.52,1.0,170.0,,,,,,,[],,,,,,87.9,0.0,u,0.0,True,631.8999999999069,38.0,60.0,40.0,False,,241.8981159581681,[],"[960, 540]",ColorTask,74.0,53.0,,,HRV,HRV_0173,2022-11-30 18:32:18
,wl-rdm,171,469642,0.0-8.53-0.53,1.0,171.0,,,,,,,[],,,,,,56.4,1.0,i,1.0,True,1627.2000000001863,98.0,60.0,40.0,False,,221.40667023219643,[],"[960, 540]",ColorTask,75.0,54.0,,,HRV,HRV_0173,2022-11-30 18:32:18
,wl-rdm,172,472143,0.0-8.54-0.54,1.0,172.0,,,,,,,[],,,,,,62.5,1.0,i,1.0,True,1182.1000000000931,71.0,60.0,40.0,False,,250.97254002775998,[],"[960, 540]",ColorTask,76.0,55.0,,,HRV,HRV_0173,2022-11-30 18:32:18
,wl-rdm,173,474775,0.0-8.55-0.55,1.0,173.0,,,,,,,[],,,,,,62.5,1.0,i,1.0,True,1323.4000000003725,80.0,60.0,40.0,False,,228.46302409370531,[],"[960, 540]",ColorTask,77.0,56.0,,,HRV,HRV_0173,2022-11-30 18:32:18
,wl-rdm,174,477176,0.0-8.56-0.56,1.0,174.0,,,,,,,[],,,,,,56.4,0.0,i,1.0,False,1056.6000000000931,64.0,60.0,40.0,False,,272.72018421576774,[],"[960, 540]",ColorTask,76.0,57.0,,,HRV,HRV_0173,2022-11-30 18:32:18
,wl-rdm,175,479142,0.0-8.57-0.57,1.0,175.0,,,,,,,[],,,,,,87.9,1.0,i,1.0,True,682.3999999999069,41.0,60.0,40.0,False,,228.47217630125334,[],"[960, 540]",ColorTask,77.0,58.0,,,HRV,HRV_0173,2022-11-30 18:32:18
,wl-rdm,176,481193,0.0-8.58-0.58,1.0,176.0,,,,,,,[],,,,,,73.6,0.0,u,0.0,True,723.5999999996275,44.0,60.0,40.0,False,,249.36929374742377,[],"[960, 540]",ColorTask,78.0,59.0,,,HRV,HRV_0173,2022-11-30 18:32:18
,wl-rdm,177,483193,0.0-8.59-0.59,1.0,177.0,,,,,,,[],,,,,,87.9,0.0,u,0.0,True,606.8999999999069,37.0,60.0,40.0,False,,303.53691653153265,[],"[960, 540]",ColorTask,79.0,60.0,,,HRV,HRV_0173,2022-11-30 18:32:18
,wl-rdm,178,486142,0.0-8.60-0.60,1.0,178.0,,,,,,,[],,,,,,56.4,0.0,u,0.0,True,1568.7999999998137,95.0,60.0,40.0,False,,292.19529858130517,[],"[960, 540]",ColorTask,80.0,61.0,,,HRV,HRV_0173,2022-11-30 18:32:18
,wl-rdm,179,488809,0.0-8.61-0.61,1.0,179.0,,,,,,,[],,,,,,56.4,0.0,u,0.0,True,1290.3000000002794,78.0,60.0,40.0,False,,315.4773431638758,[],"[960, 540]",ColorTask,81.0,62.0,,,HRV,HRV_0173,2022-11-30 18:32:18
,wl-rdm,180,490926,0.0-8.62-0.62,1.0,180.0,,,,,,,[],,,,,,50.0,1.0,u,0.0,False,777.6000000000931,47.0,60.0,40.0,False,,257.545313084275,[],"[960, 540]",ColorTask,80.0,63.0,,,HRV,HRV_0173,2022-11-30 18:32:18
,wl-rdm,181,492946,0.0-8.63-0.63,1.0,181.0,,,,,,,[],,,,,,73.6,1.0,i,1.0,True,602.7000000001863,37.0,60.0,40.0,False,,329.08270497581736,[],"[960, 540]",ColorTask,81.0,64.0,,,HRV,HRV_0173,2022-11-30 18:32:18
,wl-rdm,182,495476,0.0-8.64-0.64,1.0,182.0,,,,,,,[],,,,,,56.4,0.0,u,0.0,True,1179.5999999996275,71.0,60.0,40.0,False,,294.0536341376744,[],"[960, 540]",ColorTask,82.0,65.0,,,HRV,HRV_0173,2022-11-30 18:32:18
,wl-rdm,183,497642,0.0-8.65-0.65,1.0,183.0,,,,,,,[],,,,,,56.4,0.0,u,0.0,True,823.5999999996275,50.0,60.0,40.0,False,,272.9404369199172,[],"[960, 540]",ColorTask,83.0,66.0,,,HRV,HRV_0173,2022-11-30 18:32:18
,wl-rdm,184,499726,0.0-8.66-0.66,1.0,184.0,,,,,,,[],,,,,,50.0,1.0,u,0.0,False,778.5999999996275,47.0,60.0,40.0,False,,250.02081346980282,[],"[960, 540]",ColorTask,82.0,67.0,,,HRV,HRV_0173,2022-11-30 18:32:18
,wl-rdm,185,501776,0.0-8.67-0.67,1.0,185.0,,,,,,,[],,,,,,53.2,0.0,u,0.0,True,760.0,46.0,60.0,40.0,False,,216.9287720180784,[],"[960, 540]",ColorTask,83.0,68.0,,,HRV,HRV_0173,2022-11-30 18:32:18
,wl-rdm,186,503692,0.0-8.68-0.68,1.0,186.0,,,,,,,[],,,,,,87.9,1.0,i,1.0,True,555.7000000001863,34.0,60.0,40.0,False,,293.89990118675894,[],"[960, 540]",ColorTask,84.0,69.0,,,HRV,HRV_0173,2022-11-30 18:32:18
,wl-rdm,187,505642,0.0-8.69-0.69,1.0,187.0,,,,,,,[],,,,,,62.5,0.0,u,0.0,True,649.0,39.0,60.0,40.0,False,,242.97730482043724,[],"[960, 540]",ColorTask,85.0,70.0,,,HRV,HRV_0173,2022-11-30 18:32:18
,wl-rdm,188,507976,0.0-8.70-0.70,1.0,188.0,,,,,,,[],,,,,,50.0,1.0,u,0.0,False,960.6000000000931,58.0,60.0,40.0,False,,302.97469557059725,[],"[960, 540]",ColorTask,84.0,71.0,,,HRV,HRV_0173,2022-11-30 18:32:18
,wl-rdm,189,510792,0.0-8.71-0.71,1.0,189.0,,,,,,,[],,,,,,62.5,0.0,i,1.0,False,1453.1999999997206,88.0,60.0,40.0,False,,270.8414532115999,[],"[960, 540]",ColorTask,83.0,72.0,,,HRV,HRV_0173,2022-11-30 18:32:18
,wl-rdm,190,512726,0.0-8.72-0.72,1.0,190.0,,,,,,,[],,,,,,87.9,1.0,i,1.0,True,513.2999999998137,31.0,60.0,40.0,False,,364.2739845362356,[],"[960, 540]",ColorTask,84.0,73.0,,,HRV,HRV_0173,2022-11-30 18:32:18
,wl-rdm,191,515442,0.0-8.73-0.73,1.0,191.0,,,,,,,[],,,,,,50.0,1.0,u,0.0,False,1293.5,78.0,60.0,40.0,False,,347.0150196208318,[],"[960, 540]",ColorTask,83.0,74.0,,,HRV,HRV_0173,2022-11-30 18:32:18
,wl-rdm,192,517409,0.0-8.74-0.74,1.0,192.0,,,,,,,[],,,,,,87.9,0.0,u,0.0,True,636.6000000000931,39.0,60.0,40.0,False,,240.8426963512499,[],"[960, 540]",ColorTask,84.0,75.0,,,HRV,HRV_0173,2022-11-30 18:32:18
,wl-rdm,193,519576,0.0-8.75-0.75,1.0,193.0,,,,,,,[],,,,,,62.5,0.0,i,1.0,False,845.7999999998137,51.0,60.0,40.0,False,,259.8289328201229,[],"[960, 540]",ColorTask,83.0,76.0,,,HRV,HRV_0173,2022-11-30 18:32:18
,wl-rdm,194,521910,0.0-8.76-0.76,1.0,194.0,,,,,,,[],,,,,,50.0,1.0,i,1.0,True,1040.6999999997206,63.0,60.0,40.0,False,,231.0026799879517,[],"[960, 540]",ColorTask,84.0,77.0,,,HRV,HRV_0173,2022-11-30 18:32:18
,wl-rdm,195,523926,0.0-8.77-0.77,1.0,195.0,,,,,,,[],,,,,,73.6,1.0,i,1.0,True,640.6000000000931,39.0,60.0,40.0,False,,302.8832851113657,[],"[960, 540]",ColorTask,85.0,78.0,,,HRV,HRV_0173,2022-11-30 18:32:18
,wl-rdm,196,525826,0.0-8.78-0.78,1.0,196.0,,,,,,,[],,,,,,73.6,1.0,i,1.0,True,562.2000000001863,34.0,60.0,40.0,False,,271.5153153350651,[],"[960, 540]",ColorTask,86.0,79.0,,,HRV,HRV_0173,2022-11-30 18:32:18
,wl-rdm,197,527743,0.0-8.79-0.79,1.0,197.0,,,,,,,[],,,,,,73.6,0.0,i,1.0,False,547.5,33.0,60.0,40.0,False,,312.46395783561525,[],"[960, 540]",ColorTask,85.0,80.0,,,HRV,HRV_0173,2022-11-30 18:32:18
,wl-rdm,198,529910,0.0-8.80-0.80,1.0,198.0,,,,,,,[],,,,,,50.0,0.0,i,1.0,False,817.6000000000931,50.0,60.0,40.0,False,,268.2333272781282,[],"[960, 540]",ColorTask,84.0,81.0,,,HRV,HRV_0173,2022-11-30 18:32:18
,wl-rdm,199,532343,0.0-8.81-0.81,1.0,199.0,,,,,,,[],,,,,,53.2,0.0,i,1.0,False,990.6000000000931,60.0,60.0,40.0,False,,374.7157111210855,[],"[960, 540]",ColorTask,83.0,82.0,,,HRV,HRV_0173,2022-11-30 18:32:18
,wl-rdm,200,534893,0.0-8.82-0.82,1.0,200.0,,,,,,,[],,,,,,56.4,1.0,i,1.0,True,1069.0,65.0,60.0,40.0,False,,388.69040717039076,[],"[960, 540]",ColorTask,84.0,83.0,,,HRV,HRV_0173,2022-11-30 18:32:18
,wl-rdm,201,537010,0.0-8.83-0.83,1.0,201.0,,,,,,,[],,,,,,73.6,0.0,u,0.0,True,713.5,43.0,60.0,40.0,False,,347.8310524952543,[],"[960, 540]",ColorTask,85.0,84.0,,,HRV,HRV_0173,2022-11-30 18:32:18
,wl-rdm,202,539060,0.0-8.84-0.84,1.0,202.0,,,,,,,[],,,,,,56.4,0.0,u,0.0,True,645.7999999998137,39.0,60.0,40.0,False,,324.3331226148364,[],"[960, 540]",ColorTask,86.0,85.0,,,HRV,HRV_0173,2022-11-30 18:32:18
,wl-rdm,203,541427,0.0-8.85-0.85,1.0,203.0,,,,,,,[],,,,,,53.2,1.0,i,1.0,True,913.8999999999069,55.0,60.0,40.0,False,,386.1101020109527,[],"[960, 540]",ColorTask,87.0,86.0,,,HRV,HRV_0173,2022-11-30 18:32:18
,wl-rdm,204,543410,0.0-8.86-0.86,1.0,204.0,,,,,,,[],,,,,,53.2,0.0,i,1.0,False,556.5,34.0,60.0,40.0,False,,360.82247722521515,[],"[960, 540]",ColorTask,86.0,87.0,,,HRV,HRV_0173,2022-11-30 18:32:18
,wl-rdm,205,545644,0.0-8.87-0.87,1.0,205.0,,,,,,,[],,,,,,62.5,0.0,u,0.0,True,830.0,50.0,60.0,40.0,False,,338.5337045691221,[],"[960, 540]",ColorTask,87.0,88.0,,,HRV,HRV_0173,2022-11-30 18:32:18
,wl-rdm,206,547827,0.0-8.88-0.88,1.0,206.0,,,,,,,[],,,,,,53.2,1.0,i,1.0,True,756.6999999997206,46.0,60.0,40.0,False,,362.48746618488076,[],"[960, 540]",ColorTask,88.0,89.0,,,HRV,HRV_0173,2022-11-30 18:32:18
,wl-rdm,207,549844,0.0-8.89-0.89,1.0,207.0,,,,,,,[],,,,,,73.6,1.0,i,1.0,True,706.1999999997206,43.0,60.0,40.0,False,,232.85999947271543,[],"[960, 540]",ColorTask,89.0,90.0,,,HRV,HRV_0173,2022-11-30 18:32:18
,wl-rdm,208,552193,0.0-8.90-0.90,1.0,208.0,,,,,,,[],,,,,,62.5,1.0,i,1.0,True,900.1999999997206,55.0,60.0,40.0,False,,376.1682571453837,[],"[960, 540]",ColorTask,90.0,91.0,,,HRV,HRV_0173,2022-11-30 18:32:18
,wl-rdm,209,554077,0.0-8.91-0.91,1.0,209.0,,,,,,,[],,,,,,87.9,1.0,i,1.0,True,539.2000000001863,33.0,60.0,40.0,False,,250.68678880853304,[],"[960, 540]",ColorTask,91.0,92.0,,,HRV,HRV_0173,2022-11-30 18:32:18
,wl-rdm,210,556160,0.0-8.92-0.92,1.0,210.0,,,,,,,[],,,,,,62.5,1.0,i,1.0,True,660.1000000000931,40.0,60.0,40.0,False,,362.2104363315448,[],"[960, 540]",ColorTask,92.0,93.0,,,HRV,HRV_0173,2022-11-30 18:32:18
,wl-rdm,211,558194,0.0-8.93-0.93,1.0,211.0,,,,,,,[],,,,,,50.0,0.0,i,1.0,False,660.2000000001863,40.0,60.0,40.0,False,,288.29861892323794,[],"[960, 540]",ColorTask,91.0,94.0,,,HRV,HRV_0173,2022-11-30 18:32:18
,wl-rdm,212,560178,0.0-8.94-0.94,1.0,212.0,,,,,,,[],,,,,,73.6,1.0,i,1.0,True,577.0,35.0,60.0,40.0,False,,339.5205082480745,[],"[960, 540]",ColorTask,92.0,95.0,,,HRV,HRV_0173,2022-11-30 18:32:18
,wl-rdm,213,562278,0.0-8.95-0.95,1.0,213.0,,,,,,,[],,,,,,53.2,0.0,u,0.0,True,831.6999999992549,50.0,60.0,40.0,False,,200.80586842358898,[],"[960, 540]",ColorTask,93.0,96.0,,,HRV,HRV_0173,2022-11-30 18:32:18
,wl-rdm,214,564278,0.0-8.96-0.96,1.0,214.0,,,,,,,[],,,,,,56.4,0.0,i,1.0,False,598.1000000000931,36.0,60.0,40.0,False,,334.1260693936013,[],"[960, 540]",ColorTask,92.0,97.0,,,HRV,HRV_0173,2022-11-30 18:32:18
,wl-rdm,215,566794,0.0-8.97-0.97,1.0,215.0,,,,,,,[],,,,,,50.0,0.0,i,1.0,False,1093.6999999997206,66.0,60.0,40.0,False,,364.36089737196085,[],"[960, 540]",ColorTask,91.0,98.0,,,HRV,HRV_0173,2022-11-30 18:32:18
,wl-rdm,216,568861,0.0-8.98-0.98,1.0,216.0,,,,,,,[],,,,,,87.9,0.0,u,0.0,True,716.1000000000931,43.0,60.0,40.0,False,,284.1732181172285,[],"[960, 540]",ColorTask,92.0,99.0,,,HRV,HRV_0173,2022-11-30 18:32:18
,wl-rdm,217,570878,0.0-8.99-0.99,1.0,217.0,,,,,,,[],,,,,,50.0,1.0,u,0.0,False,715.7999999998137,43.0,60.0,40.0,False,,238.3336537128044,[],"[960, 540]",ColorTask,91.0,100.0,,,HRV,HRV_0173,2022-11-30 18:32:18
,wl-rdm,218,572778,0.0-8.100-0.100,1.0,218.0,,,,,,,[],,,,,,87.9,0.0,u,0.0,True,587.8000000002794,36.0,60.0,40.0,False,,223.4300587751157,[],"[960, 540]",ColorTask,92.0,101.0,,,HRV,HRV_0173,2022-11-30 18:32:18
,wl-rdm,219,575228,0.0-8.101-0.101,1.0,219.0,,,,,,,[],,,,,,50.0,1.0,i,1.0,True,1043.299999999348,63.0,60.0,40.0,False,,339.75267781375396,[],"[960, 540]",ColorTask,93.0,102.0,,,HRV,HRV_0173,2022-11-30 18:32:18
,wl-rdm,220,577595,0.0-8.102-0.102,1.0,220.0,,,,,,,[],,,,,,62.5,1.0,i,1.0,True,971.1000000000931,59.0,60.0,40.0,False,,307.75225816494196,[],"[960, 540]",ColorTask,94.0,103.0,,,HRV,HRV_0173,2022-11-30 18:32:18
,wl-rdm,221,580045,0.0-8.103-0.103,1.0,221.0,,,,,,,[],,,,,,73.6,0.0,u,0.0,True,1002.6000000000931,61.0,60.0,40.0,False,,367.67157015265695,[],"[960, 540]",ColorTask,95.0,104.0,,,HRV,HRV_0173,2022-11-30 18:32:18
,wl-rdm,222,583028,0.0-8.104-0.104,1.0,222.0,,,,,,,[],,,,,,50.0,0.0,i,1.0,False,1637.3999999994412,99.0,60.0,40.0,False,,263.0185320774498,[],"[960, 540]",ColorTask,94.0,105.0,,,HRV,HRV_0173,2022-11-30 18:32:18
,wl-rdm,223,585129,0.0-8.105-0.105,1.0,223.0,,,,,,,[],,,,,,73.6,0.0,u,0.0,True,800.4000000003725,49.0,60.0,40.0,False,,222.89710795793576,[],"[960, 540]",ColorTask,95.0,106.0,,,HRV,HRV_0173,2022-11-30 18:32:18
,wl-rdm,224,587778,0.0-8.106-0.106,1.0,224.0,,,,,,,[],,,,,,73.6,0.0,u,0.0,True,1223.1000000000931,74.0,60.0,40.0,False,,349.31299332198523,[],"[960, 540]",ColorTask,96.0,107.0,,,HRV,HRV_0173,2022-11-30 18:32:18
,wl-rdm,225,590179,0.0-8.107-0.107,1.0,225.0,,,,,,,[],,,,,,62.5,1.0,i,1.0,True,1014.3999999999069,61.0,60.0,40.0,False,,319.11197628727183,[],"[960, 540]",ColorTask,97.0,108.0,,,HRV,HRV_0173,2022-11-30 18:32:18
,wl-html-button-response,226,592573,0.0-9.0-0.0,,,,,,,,,,2392.7999999998137,,0,,,,,,,,,,,,,,,,,,,,<h3>End of this session. Thank you!</h3><br>,['Close window'],HRV,HRV_0173,2022-11-30 18:32:18
