success,trial_type,trial_index,time_elapsed,internal_node_id,Block,TrialNumber,TrialTime,trialTimeDiff,FPS_avg,FPS_med,FPS_mode,TrialDur,winResizeTime,rt,block,button_pressed,MotCoh,MotDir,ColCoh,Color,ChoiceKey,Choice,Accuracy,RT,nFrames,FPS,PPD,missTrial,missTrialMsg,onsetDelay,fullScreenExitTime,canvCenter,TrialType,Score,BlockTrial,stimulus,button_labels,exp,subjectId,date
True,fullscreen,0,2481,0.0-0.0,0.0,1.0,,,,,,,,,,,,,,,,,,,,,,,,,,,,,,,,HRV,HRV_0148,2022-11-30 18:18:12
,wl-check-fps,1,6580,0.0-1.0,0.0,2.0,"[2969.3, 2969.6, 2976, 2982.9, 2989.9, 2996.8, 3003.8, 3010.7, 3017.6, 3024.7, 3033.7, 3038.5, 3047.6, 3075.4, 3089.8, 3103.8, 3117.5, 3131, 3144.8, 3158.7, 3163.6, 3172.6, 3186.6, 3200.6, 3214.4, 3228.2, 3242.1, 3256.1, 3270, 3283.8, 3297.8, 3311.7, 3325.6, 3339.4, 3353.4, 3367.3, 3381.2, 3395.1, 3409, 3423, 3436.9, 3450.6, 3464.5, 3478.5, 3492.4, 3506.3, 3520.2, 3534.2, 3548.3, 3561.9, 3575.9, 3590.1, 3603.6, 3617.6, 3631.4, 3645.6, 3659.3, 3673.2, 3687.1, 3701.1, 3714.9, 3728.8, 3742.7, 3756.8, 3770.6, 3784.6, 3798.5, 3812.3, 3826.2, 3840, 3854, 3867.8, 3881.7, 3895.7, 3909.6, 3923.4, 3937.3, 3951.3, 3965.2, 3979, 3998.2, 4012, 4025.9, 4039.9, 4053.8, 4067.6, 4081.5, 4095.7, 4109.4, 4123.5, 4137.3, 4151, 4164.9, 4178.9, 4192.8, 4206.7, 4220.6, 4234.5, 4248.3, 4262.2, 4276.2, 4290.1, 4303.9, 4317.9, 4331.7, 4345.7, 4359.5, 4373.4, 4387.4, 4401.3, 4415.2, 4429.1, 4443, 4457.2, 4470.9, 4484.7, 4498.6, 4512.5, 4526.4, 4540.3, 4554.2, 4568.2, 4582, 4595.9, 4609.9, 4623.7, 4637.6, 4651.6, 4665.4, 4679.4, 4693.3, 4707.2, 4721, 4734.9, 4748.9, 4762.8, 4776.7, 4790.6, 4804.5, 4818.4, 4832.3, 4846.7, 4860.2, 4874.1, 4887.9, 4901.8, 4915.6, 4929.6, 4943.5, 4957.3, 4971.3, 4985.2, 4999.1, 5013, 5027, 5040.9, 5054.8, 5068.7, 5082.5, 5096.5, 5110.3, 5124.3, 5138.1, 5152, 5166, 5179.9, 5193.7, 5207.7, 5221.5, 5235.4, 5249.3, 5263.2, 5277.2, 5291.1, 5305, 5318.9, 5332.9, 5346.7, 5360.6, 5374.5, 5388.4, 5402.3, 5416.2, 5430.1, 5444.1, 5457.9, 5471.8, 5485.9, 5499.9, 5513.5, 5527.6, 5541.4, 5555.3, 5569.2, 5583, 5597, 5610.9, 5624.7, 5638.7, 5652.5, 5666.5, 5680.3, 5694.2, 5708.2, 5722, 5735.9, 5749.9, 5763.8, 5777.7, 5791.6, 5805.4, 5819.3, 5833.3, 5847.2, 5861.1, 5875, 5888.9, 5902.9, 5916.8, 5930.7, 5944.6, 5958.4, 5972.3, 5986.2, 6000.1, 6014.2, 6028.1, 6041.9, 6055.7, 6069.7, 6083.5, 6097.8, 6111.3, 6125.3, 6139.1, 6153.1, 6167, 6180.8, 6194.8, 6208.7, 6222.6, 6236.4, 6250.3, 6264.3, 6278.1, 6292.1, 6305.8, 6319.9, 6334.2, 6347.8, 6362, 6375.6, 6389.3, 6403.3, 6417.2, 6431.2, 6445, 6458.8, 6472.8, 6486.7, 6500.6, 6514.5, 6528.4, 6542.4, 6556.2, 6570.1, 6584, 6597.9, 6625.8, 6639.6, 6648.6, 6662.3, 6676.1, 6690.1, 6703.9, 6718.2, 6732.1, 6745.6, 6750.5, 6759.6, 6787.3, 6801.7, 6815.6, 6829.5, 6843.1, 6856.9, 6870.8, 6884.6, 6899, 6912.9, 6926.4, 6940.3, 6954.2, 6968, 6982.4, 6996.5, 7009.9, 7023.8, 7037.6, 7051.8]","[0.6, 0.3, 6.4, 6.9, 7, 6.9, 7, 6.9, 6.9, 7.1, 9, 4.8, 9.1, 27.8, 14.4, 14, 13.7, 13.5, 13.8, 13.9, 4.9, 9, 14, 14, 13.8, 13.8, 13.9, 14, 13.9, 13.8, 14, 13.9, 13.9, 13.8, 14, 13.9, 13.9, 13.9, 13.9, 14, 13.9, 13.7, 13.9, 14, 13.9, 13.9, 13.9, 14, 14.1, 13.6, 14, 14.2, 13.5, 14, 13.8, 14.2, 13.7, 13.9, 13.9, 14, 13.8, 13.9, 13.9, 14.1, 13.8, 14, 13.9, 13.8, 13.9, 13.8, 14, 13.8, 13.9, 14, 13.9, 13.8, 13.9, 14, 13.9, 13.8, 19.2, 13.8, 13.9, 14, 13.9, 13.8, 13.9, 14.2, 13.7, 14.1, 13.8, 13.7, 13.9, 14, 13.9, 13.9, 13.9, 13.9, 13.8, 13.9, 14, 13.9, 13.8, 14, 13.8, 14, 13.8, 13.9, 14, 13.9, 13.9, 13.9, 13.9, 14.2, 13.7, 13.8, 13.9, 13.9, 13.9, 13.9, 13.9, 14, 13.8, 13.9, 14, 13.8, 13.9, 14, 13.8, 14, 13.9, 13.9, 13.8, 13.9, 14, 13.9, 13.9, 13.9, 13.9, 13.9, 13.9, 14.4, 13.5, 13.9, 13.8, 13.9, 13.8, 14, 13.9, 13.8, 14, 13.9, 13.9, 13.9, 14, 13.9, 13.9, 13.9, 13.8, 14, 13.8, 14, 13.8, 13.9, 14, 13.9, 13.8, 14, 13.8, 13.9, 13.9, 13.9, 14, 13.9, 13.9, 13.9, 14, 13.8, 13.9, 13.9, 13.9, 13.9, 13.9, 13.9, 14, 13.8, 13.9, 14.1, 14, 13.6, 14.1, 13.8, 13.9, 13.9, 13.8, 14, 13.9, 13.8, 14, 13.8, 14, 13.8, 13.9, 14, 13.8, 13.9, 14, 13.9, 13.9, 13.9, 13.8, 13.9, 14, 13.9, 13.9, 13.9, 13.9, 14, 13.9, 13.9, 13.9, 13.8, 13.9, 13.9, 13.9, 14.1, 13.9, 13.8, 13.8, 14, 13.8, 14.3, 13.5, 14, 13.8, 14, 13.9, 13.8, 14, 13.9, 13.9, 13.8, 13.9, 14, 13.8, 14, 13.7, 14.1, 14.3, 13.6, 14.2, 13.6, 13.7, 14, 13.9, 14, 13.8, 13.8, 14, 13.9, 13.9, 13.9, 13.9, 14, 13.8, 13.9, 13.9, 13.9, 27.9, 13.8, 9, 13.7, 13.8, 14, 13.8, 14.3, 13.9, 13.5, 4.9, 9.1, 27.7, 14.4, 13.9, 13.9, 13.6, 13.8, 13.9, 13.8, 14.4, 13.9, 13.5, 13.9, 13.9, 13.8, 14.4, 14.1, 13.4, 13.9, 13.8, 14.2]",73.0,72.0,72.0,4096.7,[],,,,,,,,,,,,,,,,,,,,,,,,,HRV,HRV_0148,2022-11-30 18:18:12
,wl-html-keyboard-response,2,22090,0.0-2.0-0.0,0.0,3.0,,,,,,,,13493.400000095367,0.0,0,,,,,,,,,,,,,,,,,,,,,,HRV,HRV_0148,2022-11-30 18:18:12
,wl-rdm,3,29190,0.0-3.0-0.0,0.0,4.0,,,,,,,[],,,,0.0,0.0,87.9,0.0,u,0.0,True,1534.4000000953674,111.0,72.0,40.0,False,,3000.0,[],"[1280, 720]",ColorTask_Demo,,,,,HRV,HRV_0148,2022-11-30 18:18:12
,wl-rdm,4,34167,0.0-3.0-1.0,0.0,5.0,,,,,,,[],,,,0.0,0.0,87.9,1.0,i,1.0,True,925.9000000953674,67.0,72.0,40.0,False,,2000.0,[],"[1280, 720]",ColorTask_Demo,,,,,HRV,HRV_0148,2022-11-30 18:18:12
,wl-html-keyboard-response,5,41175,0.0-3.0-2.0,0.0,6.0,,,,,,,,4999.0,0.0,1,,,,,,,,,,,,,,,,,,,,,,HRV,HRV_0148,2022-11-30 18:18:12
,wl-html-keyboard-response,6,48959,0.0-4.0-0.0,0.0,7.0,,,,,,,,5761.400000095367,0.0,0,,,,,,,,,,,,,,,,,,,,,,HRV,HRV_0148,2022-11-30 18:18:12
,wl-html-keyboard-response,7,58559,0.0-5.0-0.0,0.0,8.0,,,,,,,,7598.0,0.0,0,,,,,,,,,,,,,,,,,,,,,,HRV,HRV_0148,2022-11-30 18:18:12
,wl-rdm,8,61500,0.0-6.0-0.0,0.0,9.0,,,,,,,[],,,,,,50.0,1.0,i,1.0,True,1621.9000000953674,117.0,72.0,40.0,False,,272.11459810287363,[],"[1280, 720]",ColorTask,1.0,1.0,,,HRV,HRV_0148,2022-11-30 18:18:12
,wl-rdm,9,63863,0.0-6.1-0.1,0.0,10.0,,,,,,,[],,,,,,87.9,1.0,i,1.0,True,1005.3999998569489,73.0,72.0,40.0,False,,293.5395529127068,[],"[1280, 720]",ColorTask,2.0,2.0,,,HRV,HRV_0148,2022-11-30 18:18:12
,wl-rdm,10,66102,0.0-6.2-0.2,0.0,11.0,,,,,,,[],,,,,,56.4,0.0,i,1.0,False,984.9000000953674,71.0,72.0,40.0,False,,202.8054828252244,[],"[1280, 720]",ColorTask,1.0,3.0,,,HRV,HRV_0148,2022-11-30 18:18:12
,wl-rdm,11,68479,0.0-6.3-0.3,0.0,12.0,,,,,,,[],,,,,,53.2,0.0,u,0.0,True,1062.1000001430511,77.0,72.0,40.0,False,,258.1651661225051,[],"[1280, 720]",ColorTask,2.0,4.0,,,HRV,HRV_0148,2022-11-30 18:18:12
,wl-rdm,12,70579,0.0-6.4-0.4,0.0,13.0,,,,,,,[],,,,,,87.9,1.0,i,1.0,True,768.7999999523163,56.0,72.0,40.0,False,,277.7316327436855,[],"[1280, 720]",ColorTask,3.0,5.0,,,HRV,HRV_0148,2022-11-30 18:18:12
,wl-rdm,13,72692,0.0-6.5-0.5,0.0,14.0,,,,,,,[],,,,,,62.5,0.0,u,0.0,True,775.5,56.0,72.0,40.0,False,,284.1056041947943,[],"[1280, 720]",ColorTask,4.0,6.0,,,HRV,HRV_0148,2022-11-30 18:18:12
,wl-rdm,14,74680,0.0-6.6-0.6,0.0,15.0,,,,,,,[],,,,,,73.6,1.0,i,1.0,True,648.7999999523163,47.0,72.0,40.0,False,,280.8027691253634,[],"[1280, 720]",ColorTask,5.0,7.0,,,HRV,HRV_0148,2022-11-30 18:18:12
,wl-rdm,15,76751,0.0-6.7-0.7,0.0,16.0,,,,,,,[],,,,,,53.2,0.0,i,1.0,False,703.7000000476837,51.0,72.0,40.0,False,,308.0087890078995,[],"[1280, 720]",ColorTask,4.0,8.0,,,HRV,HRV_0148,2022-11-30 18:18:12
,wl-rdm,16,78711,0.0-6.8-0.8,0.0,17.0,,,,,,,[],,,,,,87.9,1.0,i,1.0,True,614.8000001907349,45.0,72.0,40.0,False,,284.6520887315273,[],"[1280, 720]",ColorTask,5.0,9.0,,,HRV,HRV_0148,2022-11-30 18:18:12
,wl-rdm,17,80811,0.0-6.9-0.9,0.0,18.0,,,,,,,[],,,,,,56.4,0.0,i,1.0,False,782.3000001907349,57.0,72.0,40.0,False,,263.2566930011721,[],"[1280, 720]",ColorTask,4.0,10.0,,,HRV,HRV_0148,2022-11-30 18:18:12
,wl-rdm,18,82854,0.0-6.10-0.10,0.0,19.0,,,,,,,[],,,,,,87.9,0.0,u,0.0,True,635.5999999046326,46.0,72.0,40.0,False,,350.40877297462254,[],"[1280, 720]",ColorTask,5.0,11.0,,,HRV,HRV_0148,2022-11-30 18:18:12
,wl-rdm,19,84898,0.0-6.11-0.11,0.0,20.0,,,,,,,[],,,,,,50.0,1.0,i,1.0,True,678.7000000476837,49.0,72.0,40.0,False,,305.92317066581745,[],"[1280, 720]",ColorTask,6.0,12.0,,,HRV,HRV_0148,2022-11-30 18:18:12
,wl-rdm,20,86775,0.0-6.12-0.12,0.0,21.0,,,,,,,[],,,,,,87.9,1.0,i,1.0,True,610.3000001907349,44.0,72.0,40.0,False,,209.3449760038463,[],"[1280, 720]",ColorTask,7.0,13.0,,,HRV,HRV_0148,2022-11-30 18:18:12
,wl-rdm,21,88846,0.0-6.13-0.13,0.0,22.0,,,,,,,[],,,,,,56.4,1.0,u,0.0,False,670.2999999523163,49.0,72.0,40.0,False,,342.9356860606445,[],"[1280, 720]",ColorTask,6.0,14.0,,,HRV,HRV_0148,2022-11-30 18:18:12
,wl-rdm,22,91238,0.0-6.14-0.14,0.0,23.0,,,,,,,[],,,,,,50.0,1.0,i,1.0,True,966.1999998092651,70.0,72.0,40.0,False,,366.7015359005961,[],"[1280, 720]",ColorTask,7.0,15.0,,,HRV,HRV_0148,2022-11-30 18:18:12
,wl-rdm,23,93643,0.0-6.15-0.15,0.0,24.0,,,,,,,[],,,,,,56.4,1.0,u,0.0,False,1059.8999998569489,77.0,72.0,40.0,False,,279.64299665150713,[],"[1280, 720]",ColorTask,6.0,16.0,,,HRV,HRV_0148,2022-11-30 18:18:12
,wl-rdm,24,95700,0.0-6.16-0.16,0.0,25.0,,,,,,,[],,,,,,62.5,1.0,i,1.0,True,711.9999997615814,52.0,72.0,40.0,False,,283.5646603601373,[],"[1280, 720]",ColorTask,7.0,17.0,,,HRV,HRV_0148,2022-11-30 18:18:12
,wl-rdm,25,97675,0.0-6.17-0.17,0.0,26.0,,,,,,,[],,,,,,87.9,1.0,i,1.0,True,609.5,44.0,72.0,40.0,False,,310.76253981736284,[],"[1280, 720]",ColorTask,8.0,18.0,,,HRV,HRV_0148,2022-11-30 18:18:12
,wl-rdm,26,99969,0.0-6.18-0.18,0.0,27.0,,,,,,,[],,,,,,56.4,1.0,i,1.0,True,1021.7000000476837,74.0,72.0,40.0,False,,212.36905356040828,[],"[1280, 720]",ColorTask,9.0,19.0,,,HRV,HRV_0148,2022-11-30 18:18:12
,wl-rdm,27,102207,0.0-6.19-0.19,0.0,28.0,,,,,,,[],,,,,,62.5,1.0,i,1.0,True,884.3000001907349,64.0,72.0,40.0,False,,298.8139462159795,[],"[1280, 720]",ColorTask,10.0,20.0,,,HRV,HRV_0148,2022-11-30 18:18:12
,wl-rdm,28,104306,0.0-6.20-0.20,0.0,29.0,,,,,,,[],,,,,,62.5,1.0,i,1.0,True,771.9000000953674,56.0,72.0,40.0,False,,276.5023214328606,[],"[1280, 720]",ColorTask,11.0,21.0,,,HRV,HRV_0148,2022-11-30 18:18:12
,wl-rdm,29,106336,0.0-6.21-0.21,0.0,30.0,,,,,,,[],,,,,,73.6,0.0,u,0.0,True,697.5999999046326,51.0,72.0,40.0,False,,276.1605777149586,[],"[1280, 720]",ColorTask,12.0,22.0,,,HRV,HRV_0148,2022-11-30 18:18:12
,wl-rdm,30,108435,0.0-6.22-0.22,0.0,31.0,,,,,,,[],,,,,,50.0,0.0,u,0.0,True,839.0999999046326,61.0,72.0,40.0,False,,203.4007347861747,[],"[1280, 720]",ColorTask,13.0,23.0,,,HRV,HRV_0148,2022-11-30 18:18:12
,wl-rdm,31,110243,0.0-6.23-0.23,0.0,32.0,,,,,,,[],,,,,,87.9,1.0,i,1.0,True,505.2999999523163,37.0,72.0,40.0,False,,239.37679533960733,[],"[1280, 720]",ColorTask,14.0,24.0,,,HRV,HRV_0148,2022-11-30 18:18:12
,wl-rdm,32,112217,0.0-6.24-0.24,0.0,33.0,,,,,,,[],,,,,,62.5,0.0,u,0.0,True,690.3999998569489,50.0,72.0,40.0,False,,227.34182855906448,[],"[1280, 720]",ColorTask,15.0,25.0,,,HRV,HRV_0148,2022-11-30 18:18:12
,wl-rdm,33,114428,0.0-6.25-0.25,0.0,34.0,,,,,,,[],,,,,,73.6,1.0,i,1.0,True,833.0999999046326,60.0,72.0,40.0,False,,326.6080421972358,[],"[1280, 720]",ColorTask,16.0,26.0,,,HRV,HRV_0148,2022-11-30 18:18:12
,wl-rdm,34,116444,0.0-6.26-0.26,0.0,35.0,,,,,,,[],,,,,,73.6,0.0,u,0.0,True,579.2000000476837,42.0,72.0,40.0,False,,388.36969296836185,[],"[1280, 720]",ColorTask,17.0,27.0,,,HRV,HRV_0148,2022-11-30 18:18:12
,wl-rdm,35,118640,0.0-6.27-0.27,0.0,36.0,,,,,,,[],,,,,,50.0,1.0,i,1.0,True,886.3999998569489,64.0,72.0,40.0,False,,251.9109031465782,[],"[1280, 720]",ColorTask,18.0,28.0,,,HRV,HRV_0148,2022-11-30 18:18:12
,wl-rdm,36,120698,0.0-6.28-0.28,0.0,37.0,,,,,,,[],,,,,,87.9,0.0,u,0.0,True,613.6000001430511,45.0,72.0,40.0,False,,382.2283355263749,[],"[1280, 720]",ColorTask,19.0,29.0,,,HRV,HRV_0148,2022-11-30 18:18:12
,wl-rdm,37,122922,0.0-6.29-0.29,0.0,38.0,,,,,,,[],,,,,,56.4,0.0,i,1.0,False,888.2000000476837,64.0,72.0,40.0,False,,278.6123486389374,[],"[1280, 720]",ColorTask,18.0,30.0,,,HRV,HRV_0148,2022-11-30 18:18:12
,wl-rdm,38,124924,0.0-6.30-0.30,0.0,39.0,,,,,,,[],,,,,,50.0,1.0,u,0.0,False,665.8999998569489,48.0,72.0,40.0,False,,279.8552214944329,[],"[1280, 720]",ColorTask,17.0,31.0,,,HRV,HRV_0148,2022-11-30 18:18:12
,wl-rdm,39,126885,0.0-6.31-0.31,0.0,40.0,,,,,,,[],,,,,,62.5,0.0,u,0.0,True,688.6999998092651,50.0,72.0,40.0,False,,216.25567842495414,[],"[1280, 720]",ColorTask,18.0,32.0,,,HRV,HRV_0148,2022-11-30 18:18:12
,wl-rdm,40,128789,0.0-6.32-0.32,0.0,41.0,,,,,,,[],,,,,,87.9,1.0,i,1.0,True,629.2000000476837,46.0,72.0,40.0,False,,208.8653104872857,[],"[1280, 720]",ColorTask,19.0,33.0,,,HRV,HRV_0148,2022-11-30 18:18:12
,wl-rdm,41,130763,0.0-6.33-0.33,0.0,42.0,,,,,,,[],,,,,,62.5,1.0,i,1.0,True,663.5999999046326,48.0,72.0,40.0,False,,250.20047208966247,[],"[1280, 720]",ColorTask,20.0,34.0,,,HRV,HRV_0148,2022-11-30 18:18:12
,wl-rdm,42,132918,0.0-6.34-0.34,0.0,43.0,,,,,,,[],,,,,,56.4,1.0,u,0.0,False,759.1000001430511,55.0,72.0,40.0,False,,344.8025886475933,[],"[1280, 720]",ColorTask,19.0,35.0,,,HRV,HRV_0148,2022-11-30 18:18:12
,wl-rdm,43,134781,0.0-6.35-0.35,0.0,44.0,,,,,,,[],,,,,,73.6,1.0,i,1.0,True,587.3999998569489,43.0,72.0,40.0,False,,218.26126400162855,[],"[1280, 720]",ColorTask,20.0,36.0,,,HRV,HRV_0148,2022-11-30 18:18:12
,wl-rdm,44,136658,0.0-6.36-0.36,0.0,45.0,,,,,,,[],,,,,,87.9,1.0,i,1.0,True,594.5,43.0,72.0,40.0,False,,228.26954796051058,[],"[1280, 720]",ColorTask,21.0,37.0,,,HRV,HRV_0148,2022-11-30 18:18:12
,wl-rdm,45,138646,0.0-6.37-0.37,0.0,46.0,,,,,,,[],,,,,,53.2,1.0,u,0.0,False,705.4000000953674,51.0,72.0,40.0,False,,235.21438097236157,[],"[1280, 720]",ColorTask,20.0,38.0,,,HRV,HRV_0148,2022-11-30 18:18:12
,wl-rdm,46,140829,0.0-6.38-0.38,0.0,47.0,,,,,,,[],,,,,,50.0,0.0,i,1.0,False,845.7000000476837,61.0,72.0,40.0,False,,270.18811361009534,[],"[1280, 720]",ColorTask,19.0,39.0,,,HRV,HRV_0148,2022-11-30 18:18:12
,wl-rdm,47,142984,0.0-6.39-0.39,0.0,48.0,,,,,,,[],,,,,,62.5,0.0,u,0.0,True,880.5,64.0,72.0,40.0,False,,211.51605737595378,[],"[1280, 720]",ColorTask,20.0,40.0,,,HRV,HRV_0148,2022-11-30 18:18:12
,wl-rdm,48,144944,0.0-6.40-0.40,0.0,49.0,,,,,,,[],,,,,,73.6,0.0,u,0.0,True,673.7999999523163,49.0,72.0,40.0,False,,230.28431602811625,[],"[1280, 720]",ColorTask,21.0,41.0,,,HRV,HRV_0148,2022-11-30 18:18:12
,wl-rdm,49,147196,0.0-6.41-0.41,0.0,50.0,,,,,,,[],,,,,,62.5,1.0,i,1.0,True,839.6000001430511,61.0,72.0,40.0,False,,353.66712193556134,[],"[1280, 720]",ColorTask,22.0,42.0,,,HRV,HRV_0148,2022-11-30 18:18:12
,wl-rdm,50,149185,0.0-6.42-0.42,0.0,51.0,,,,,,,[],,,,,,53.2,0.0,u,0.0,True,712.3000001907349,52.0,72.0,40.0,False,,218.30933391275047,[],"[1280, 720]",ColorTask,23.0,43.0,,,HRV,HRV_0148,2022-11-30 18:18:12
,wl-rdm,51,151270,0.0-6.43-0.43,0.0,52.0,,,,,,,[],,,,,,62.5,1.0,i,1.0,True,733.7000000476837,53.0,72.0,40.0,False,,294.0195411233125,[],"[1280, 720]",ColorTask,24.0,44.0,,,HRV,HRV_0148,2022-11-30 18:18:12
,wl-rdm,52,153341,0.0-6.44-0.44,0.0,53.0,,,,,,,[],,,,,,62.5,1.0,i,1.0,True,773.0,56.0,72.0,40.0,False,,245.32607465129723,[],"[1280, 720]",ColorTask,25.0,45.0,,,HRV,HRV_0148,2022-11-30 18:18:12
,wl-rdm,53,155594,0.0-6.45-0.45,0.0,54.0,,,,,,,[],,,,,,56.4,1.0,i,1.0,True,922.5,67.0,72.0,40.0,False,,272.54950151370684,[],"[1280, 720]",ColorTask,26.0,46.0,,,HRV,HRV_0148,2022-11-30 18:18:12
,wl-rdm,54,157790,0.0-6.46-0.46,0.0,55.0,,,,,,,[],,,,,,62.5,1.0,i,1.0,True,843.7000000476837,61.0,72.0,40.0,False,,294.48550778135484,[],"[1280, 720]",ColorTask,27.0,47.0,,,HRV,HRV_0148,2022-11-30 18:18:12
,wl-rdm,55,159751,0.0-6.47-0.47,0.0,56.0,,,,,,,[],,,,,,73.6,0.0,u,0.0,True,624.2000000476837,45.0,72.0,40.0,False,,279.2699895479974,[],"[1280, 720]",ColorTask,28.0,48.0,,,HRV,HRV_0148,2022-11-30 18:18:12
,wl-rdm,56,161906,0.0-6.48-0.48,0.0,57.0,,,,,,,[],,,,,,50.0,0.0,i,1.0,False,859.1000001430511,62.0,72.0,40.0,False,,246.56390173367032,[],"[1280, 720]",ColorTask,27.0,49.0,,,HRV,HRV_0148,2022-11-30 18:18:12
,wl-rdm,57,164046,0.0-6.49-0.49,0.0,58.0,,,,,,,[],,,,,,56.4,0.0,u,0.0,True,804.5999999046326,58.0,72.0,40.0,False,,286.25210130280686,[],"[1280, 720]",ColorTask,28.0,50.0,,,HRV,HRV_0148,2022-11-30 18:18:12
,wl-rdm,58,166118,0.0-6.50-0.50,0.0,59.0,,,,,,,[],,,,,,53.2,0.0,u,0.0,True,748.5,54.0,72.0,40.0,False,,272.0444696919931,[],"[1280, 720]",ColorTask,29.0,51.0,,,HRV,HRV_0148,2022-11-30 18:18:12
,wl-rdm,59,168148,0.0-6.51-0.51,0.0,60.0,,,,,,,[],,,,,,50.0,0.0,u,0.0,True,716.7999999523163,51.0,72.0,40.0,False,,253.47458092578324,[],"[1280, 720]",ColorTask,30.0,52.0,,,HRV,HRV_0148,2022-11-30 18:18:12
,wl-rdm,60,170178,0.0-6.52-0.52,0.0,61.0,,,,,,,[],,,,,,53.2,0.0,i,1.0,False,733.2000000476837,53.0,72.0,40.0,False,,249.3348590090748,[],"[1280, 720]",ColorTask,29.0,53.0,,,HRV,HRV_0148,2022-11-30 18:18:12
,wl-rdm,61,172207,0.0-6.53-0.53,0.0,62.0,,,,,,,[],,,,,,73.6,1.0,i,1.0,True,718.3000001907349,52.0,72.0,40.0,False,,259.3303569091925,[],"[1280, 720]",ColorTask,30.0,54.0,,,HRV,HRV_0148,2022-11-30 18:18:12
,wl-rdm,62,174404,0.0-6.54-0.54,0.0,63.0,,,,,,,[],,,,,,53.2,1.0,i,1.0,True,910.4000000953674,66.0,72.0,40.0,False,,232.59404645918573,[],"[1280, 720]",ColorTask,31.0,55.0,,,HRV,HRV_0148,2022-11-30 18:18:12
,wl-rdm,63,176392,0.0-6.55-0.55,0.0,64.0,,,,,,,[],,,,,,87.9,0.0,u,0.0,True,671.8999998569489,49.0,72.0,40.0,False,,253.27089409906665,[],"[1280, 720]",ColorTask,32.0,56.0,,,HRV,HRV_0148,2022-11-30 18:18:12
,wl-rdm,64,178505,0.0-6.56-0.56,0.0,65.0,,,,,,,[],,,,,,56.4,0.0,i,1.0,False,789.8999998569489,57.0,72.0,40.0,False,,269.09171478268314,[],"[1280, 720]",ColorTask,31.0,57.0,,,HRV,HRV_0148,2022-11-30 18:18:12
,wl-rdm,65,180785,0.0-6.57-0.57,0.0,66.0,,,,,,,[],,,,,,53.2,1.0,i,1.0,True,868.7000000476837,63.0,72.0,40.0,False,,359.5012903971242,[],"[1280, 720]",ColorTask,32.0,58.0,,,HRV,HRV_0148,2022-11-30 18:18:12
,wl-rdm,66,182704,0.0-6.58-0.58,0.0,67.0,,,,,,,[],,,,,,53.2,1.0,i,1.0,True,575.2999999523163,42.0,72.0,40.0,False,,287.3121997316765,[],"[1280, 720]",ColorTask,33.0,59.0,,,HRV,HRV_0148,2022-11-30 18:18:12
,wl-rdm,67,184636,0.0-6.59-0.59,0.0,68.0,,,,,,,[],,,,,,87.9,0.0,u,0.0,True,501.7000000476837,37.0,72.0,40.0,False,,363.25528149035415,[],"[1280, 720]",ColorTask,34.0,60.0,,,HRV,HRV_0148,2022-11-30 18:18:12
,wl-rdm,68,186777,0.0-6.60-0.60,0.0,69.0,,,,,,,[],,,,,,62.5,0.0,u,0.0,True,883.0999999046326,64.0,72.0,40.0,False,,207.76048025967026,[],"[1280, 720]",ColorTask,35.0,61.0,,,HRV,HRV_0148,2022-11-30 18:18:12
,wl-rdm,69,188682,0.0-6.61-0.61,0.0,70.0,,,,,,,[],,,,,,50.0,1.0,i,1.0,True,571.6000001430511,42.0,72.0,40.0,False,,274.51638025566325,[],"[1280, 720]",ColorTask,36.0,62.0,,,HRV,HRV_0148,2022-11-30 18:18:12
,wl-rdm,70,190559,0.0-6.62-0.62,0.0,71.0,,,,,,,[],,,,,,73.6,0.0,u,0.0,True,553.7999999523163,40.0,72.0,40.0,False,,266.3900812593278,[],"[1280, 720]",ColorTask,37.0,63.0,,,HRV,HRV_0148,2022-11-30 18:18:12
,wl-rdm,71,192449,0.0-6.63-0.63,0.0,72.0,,,,,,,[],,,,,,87.9,0.0,u,0.0,True,572.1000001430511,42.0,72.0,40.0,False,,257.6259477985961,[],"[1280, 720]",ColorTask,38.0,64.0,,,HRV,HRV_0148,2022-11-30 18:18:12
,wl-rdm,72,194438,0.0-6.64-0.64,0.0,73.0,,,,,,,[],,,,,,53.2,1.0,i,1.0,True,721.0,52.0,72.0,40.0,False,,217.00407667011052,[],"[1280, 720]",ColorTask,39.0,65.0,,,HRV,HRV_0148,2022-11-30 18:18:12
,wl-rdm,73,196426,0.0-6.65-0.65,0.0,74.0,,,,,,,[],,,,,,62.5,0.0,u,0.0,True,656.3000001907349,48.0,72.0,40.0,False,,276.82216875874417,[],"[1280, 720]",ColorTask,40.0,66.0,,,HRV,HRV_0148,2022-11-30 18:18:12
,wl-rdm,74,198386,0.0-6.66-0.66,0.0,75.0,,,,,,,[],,,,,,50.0,0.0,i,1.0,False,703.7999999523163,51.0,72.0,40.0,False,,203.51058659461802,[],"[1280, 720]",ColorTask,39.0,67.0,,,HRV,HRV_0148,2022-11-30 18:18:12
,wl-rdm,75,200861,0.0-6.67-0.67,0.0,76.0,,,,,,,[],,,,,,56.4,0.0,u,0.0,True,1109.0999999046326,80.0,72.0,40.0,False,,313.76174740002386,[],"[1280, 720]",ColorTask,40.0,68.0,,,HRV,HRV_0148,2022-11-30 18:18:12
,wl-rdm,76,202835,0.0-6.68-0.68,0.0,77.0,,,,,,,[],,,,,,56.4,1.0,i,1.0,True,714.9000000953674,52.0,72.0,40.0,False,,200.26650371854296,[],"[1280, 720]",ColorTask,41.0,69.0,,,HRV,HRV_0148,2022-11-30 18:18:12
,wl-rdm,77,204934,0.0-6.69-0.69,0.0,78.0,,,,,,,[],,,,,,50.0,0.0,i,1.0,False,844.3000001907349,61.0,72.0,40.0,False,,206.68836653982868,[],"[1280, 720]",ColorTask,40.0,70.0,,,HRV,HRV_0148,2022-11-30 18:18:12
,wl-rdm,78,206881,0.0-6.70-0.70,0.0,79.0,,,,,,,[],,,,,,87.9,0.0,u,0.0,True,588.2999999523163,42.0,72.0,40.0,False,,305.27697123084135,[],"[1280, 720]",ColorTask,41.0,71.0,,,HRV,HRV_0148,2022-11-30 18:18:12
,wl-rdm,79,209188,0.0-6.71-0.71,0.0,80.0,,,,,,,[],,,,,,50.0,1.0,u,0.0,False,1016.2000000476837,74.0,72.0,40.0,False,,229.01814574406112,[],"[1280, 720]",ColorTask,40.0,72.0,,,HRV,HRV_0148,2022-11-30 18:18:12
,wl-rdm,80,211135,0.0-6.72-0.72,0.0,81.0,,,,,,,[],,,,,,73.6,1.0,i,1.0,True,590.7000000476837,43.0,72.0,40.0,False,,298.75607172195794,[],"[1280, 720]",ColorTask,41.0,73.0,,,HRV,HRV_0148,2022-11-30 18:18:12
,wl-rdm,81,212956,0.0-6.73-0.73,0.0,82.0,,,,,,,[],,,,,,87.9,0.0,u,0.0,True,522.0,38.0,72.0,40.0,False,,226.1857066917941,[],"[1280, 720]",ColorTask,42.0,74.0,,,HRV,HRV_0148,2022-11-30 18:18:12
,wl-rdm,82,215264,0.0-6.74-0.74,0.0,83.0,,,,,,,[],,,,,,50.0,0.0,i,1.0,False,946.0,69.0,72.0,40.0,False,,292.2227042649623,[],"[1280, 720]",ColorTask,41.0,75.0,,,HRV,HRV_0148,2022-11-30 18:18:12
,wl-rdm,83,217238,0.0-6.75-0.75,0.0,84.0,,,,,,,[],,,,,,73.6,1.0,i,1.0,True,586.0,43.0,72.0,40.0,False,,332.62202624069124,[],"[1280, 720]",ColorTask,42.0,76.0,,,HRV,HRV_0148,2022-11-30 18:18:12
,wl-rdm,84,219365,0.0-6.76-0.76,0.0,85.0,,,,,,,[],,,,,,62.5,1.0,i,1.0,True,775.8999998569489,56.0,72.0,40.0,False,,305.06822271723104,[],"[1280, 720]",ColorTask,43.0,77.0,,,HRV,HRV_0148,2022-11-30 18:18:12
,wl-rdm,85,221339,0.0-6.77-0.77,0.0,86.0,,,,,,,[],,,,,,53.2,0.0,i,1.0,False,629.7999999523163,46.0,72.0,40.0,False,,283.75059999415197,[],"[1280, 720]",ColorTask,42.0,78.0,,,HRV,HRV_0148,2022-11-30 18:18:12
,wl-rdm,86,223313,0.0-6.78-0.78,0.0,87.0,,,,,,,[],,,,,,53.2,1.0,i,1.0,True,653.5,48.0,72.0,40.0,False,,258.3700017455128,[],"[1280, 720]",ColorTask,43.0,79.0,,,HRV,HRV_0148,2022-11-30 18:18:12
,wl-rdm,87,225538,0.0-6.79-0.79,0.0,88.0,,,,,,,[],,,,,,53.2,1.0,i,1.0,True,773.0999999046326,56.0,72.0,40.0,False,,397.7995935637463,[],"[1280, 720]",ColorTask,44.0,80.0,,,HRV,HRV_0148,2022-11-30 18:18:12
,wl-rdm,88,227679,0.0-6.80-0.80,0.0,89.0,,,,,,,[],,,,,,56.4,0.0,u,0.0,True,846.6000001430511,61.0,72.0,40.0,False,,237.17388008455853,[],"[1280, 720]",ColorTask,45.0,81.0,,,HRV,HRV_0148,2022-11-30 18:18:12
,wl-rdm,89,229792,0.0-6.81-0.81,0.0,90.0,,,,,,,[],,,,,,56.4,0.0,u,0.0,True,739.0,54.0,72.0,40.0,False,,309.5436920657153,[],"[1280, 720]",ColorTask,46.0,82.0,,,HRV,HRV_0148,2022-11-30 18:18:12
,wl-rdm,90,231738,0.0-6.82-0.82,0.0,91.0,,,,,,,[],,,,,,62.5,0.0,u,0.0,True,582.9999997615814,42.0,72.0,40.0,False,,315.56883774839486,[],"[1280, 720]",ColorTask,47.0,83.0,,,HRV,HRV_0148,2022-11-30 18:18:12
,wl-rdm,91,233685,0.0-6.83-0.83,0.0,92.0,,,,,,,[],,,,,,73.6,0.0,u,0.0,True,627.2000000476837,46.0,72.0,40.0,False,,260.8433278434641,[],"[1280, 720]",ColorTask,48.0,84.0,,,HRV,HRV_0148,2022-11-30 18:18:12
,wl-rdm,92,235590,0.0-6.84-0.84,0.0,93.0,,,,,,,[],,,,,,87.9,0.0,u,0.0,True,524.3999998569489,38.0,72.0,40.0,False,,332.4082266104704,[],"[1280, 720]",ColorTask,49.0,85.0,,,HRV,HRV_0148,2022-11-30 18:18:12
,wl-rdm,93,237606,0.0-6.85-0.85,0.0,94.0,,,,,,,[],,,,,,50.0,1.0,i,1.0,True,746.9000000953674,54.0,72.0,40.0,False,,213.91755547045577,[],"[1280, 720]",ColorTask,50.0,86.0,,,HRV,HRV_0148,2022-11-30 18:18:12
,wl-rdm,94,239510,0.0-6.86-0.86,0.0,95.0,,,,,,,[],,,,,,73.6,0.0,u,0.0,True,626.9999997615814,46.0,72.0,40.0,False,,212.58758988502817,[],"[1280, 720]",ColorTask,51.0,87.0,,,HRV,HRV_0148,2022-11-30 18:18:12
,wl-rdm,95,241471,0.0-6.87-0.87,0.0,96.0,,,,,,,[],,,,,,73.6,0.0,u,0.0,True,678.3999998569489,49.0,72.0,40.0,False,,224.4792218048105,[],"[1280, 720]",ColorTask,52.0,88.0,,,HRV,HRV_0148,2022-11-30 18:18:12
,wl-rdm,96,243361,0.0-6.88-0.88,0.0,97.0,,,,,,,[],,,,,,56.4,0.0,u,0.0,True,635.7999999523163,46.0,72.0,40.0,False,,205.52965175446226,[],"[1280, 720]",ColorTask,53.0,89.0,,,HRV,HRV_0148,2022-11-30 18:18:12
,wl-rdm,97,245377,0.0-6.89-0.89,0.0,98.0,,,,,,,[],,,,,,56.4,1.0,i,1.0,True,630.1000001430511,46.0,72.0,40.0,False,,329.8346278527689,[],"[1280, 720]",ColorTask,54.0,90.0,,,HRV,HRV_0148,2022-11-30 18:18:12
,wl-rdm,98,247240,0.0-6.90-0.90,0.0,99.0,,,,,,,[],,,,,,50.0,1.0,i,1.0,True,584.3999998569489,43.0,72.0,40.0,False,,209.99179022693357,[],"[1280, 720]",ColorTask,55.0,91.0,,,HRV,HRV_0148,2022-11-30 18:18:12
,wl-rdm,99,249353,0.0-6.91-0.91,0.0,100.0,,,,,,,[],,,,,,73.6,1.0,i,1.0,True,654.0,48.0,72.0,40.0,False,,396.549006194051,[],"[1280, 720]",ColorTask,56.0,92.0,,,HRV,HRV_0148,2022-11-30 18:18:12
,wl-rdm,100,251397,0.0-6.92-0.92,0.0,101.0,,,,,,,[],,,,,,73.6,0.0,u,0.0,True,692.7000000476837,50.0,72.0,40.0,False,,295.30979961129736,[],"[1280, 720]",ColorTask,57.0,93.0,,,HRV,HRV_0148,2022-11-30 18:18:12
,wl-rdm,101,253399,0.0-6.93-0.93,0.0,102.0,,,,,,,[],,,,,,53.2,0.0,i,1.0,False,720.7999999523163,52.0,72.0,40.0,False,,230.13260372566447,[],"[1280, 720]",ColorTask,56.0,94.0,,,HRV,HRV_0148,2022-11-30 18:18:12
,wl-rdm,102,255429,0.0-6.94-0.94,0.0,103.0,,,,,,,[],,,,,,53.2,0.0,i,1.0,False,602.8999998569489,44.0,72.0,40.0,False,,373.90859483406837,[],"[1280, 720]",ColorTask,55.0,95.0,,,HRV,HRV_0148,2022-11-30 18:18:12
,wl-rdm,103,257361,0.0-6.95-0.95,0.0,104.0,,,,,,,[],,,,,,50.0,0.0,i,1.0,False,624.8999998569489,45.0,72.0,40.0,False,,263.4812857460108,[],"[1280, 720]",ColorTask,54.0,96.0,,,HRV,HRV_0148,2022-11-30 18:18:12
,wl-rdm,104,259363,0.0-6.96-0.96,0.0,105.0,,,,,,,[],,,,,,53.2,1.0,i,1.0,True,594.2000000476837,43.0,72.0,40.0,False,,354.9001123496183,[],"[1280, 720]",ColorTask,55.0,97.0,,,HRV,HRV_0148,2022-11-30 18:18:12
,wl-rdm,105,261407,0.0-6.97-0.97,0.0,106.0,,,,,,,[],,,,,,62.5,0.0,u,0.0,True,624.2999999523163,45.0,72.0,40.0,False,,371.067256027645,[],"[1280, 720]",ColorTask,56.0,98.0,,,HRV,HRV_0148,2022-11-30 18:18:12
,wl-rdm,106,263437,0.0-6.98-0.98,0.0,107.0,,,,,,,[],,,,,,87.9,1.0,i,1.0,True,693.7000000476837,50.0,72.0,40.0,False,,291.9178977531668,[],"[1280, 720]",ColorTask,57.0,99.0,,,HRV,HRV_0148,2022-11-30 18:18:12
,wl-rdm,107,265258,0.0-6.99-0.99,0.0,108.0,,,,,,,[],,,,,,73.6,1.0,i,1.0,True,514.0,37.0,72.0,40.0,False,,261.7240435442694,[],"[1280, 720]",ColorTask,58.0,100.0,,,HRV,HRV_0148,2022-11-30 18:18:12
,wl-rdm,108,267079,0.0-6.100-0.100,0.0,109.0,,,,,,,[],,,,,,53.2,1.0,i,1.0,True,553.6999998092651,40.0,72.0,40.0,False,,221.0675397208248,[],"[1280, 720]",ColorTask,59.0,101.0,,,HRV,HRV_0148,2022-11-30 18:18:12
,wl-rdm,109,268984,0.0-6.101-0.101,0.0,110.0,,,,,,,[],,,,,,50.0,0.0,i,1.0,False,506.0,37.0,72.0,40.0,False,,340.39274895237645,[],"[1280, 720]",ColorTask,58.0,102.0,,,HRV,HRV_0148,2022-11-30 18:18:12
,wl-rdm,110,270958,0.0-6.102-0.102,0.0,111.0,,,,,,,[],,,,,,62.5,0.0,u,0.0,True,699.3999998569489,51.0,72.0,40.0,False,,218.0851870094243,[],"[1280, 720]",ColorTask,59.0,103.0,,,HRV,HRV_0148,2022-11-30 18:18:12
,wl-rdm,111,272807,0.0-6.103-0.103,0.0,112.0,,,,,,,[],,,,,,56.4,1.0,i,1.0,True,597.2999999523163,43.0,72.0,40.0,False,,202.1755575589161,[],"[1280, 720]",ColorTask,60.0,104.0,,,HRV,HRV_0148,2022-11-30 18:18:12
,wl-rdm,112,274698,0.0-6.104-0.104,0.0,113.0,,,,,,,[],,,,,,73.6,1.0,i,1.0,True,486.2000000476837,35.0,72.0,40.0,False,,352.2544161917191,[],"[1280, 720]",ColorTask,61.0,105.0,,,HRV,HRV_0148,2022-11-30 18:18:12
,wl-rdm,113,276589,0.0-6.105-0.105,0.0,114.0,,,,,,,[],,,,,,56.4,1.0,i,1.0,True,521.3999998569489,38.0,72.0,40.0,False,,317.4093914999195,[],"[1280, 720]",ColorTask,62.0,106.0,,,HRV,HRV_0148,2022-11-30 18:18:12
,wl-rdm,114,278507,0.0-6.106-0.106,0.0,115.0,,,,,,,[],,,,,,87.9,0.0,u,0.0,True,480.90000009536743,35.0,72.0,40.0,False,,384.7142623584731,[],"[1280, 720]",ColorTask,63.0,107.0,,,HRV,HRV_0148,2022-11-30 18:18:12
,wl-rdm,115,280440,0.0-6.107-0.107,0.0,116.0,,,,,,,[],,,,,,53.2,0.0,u,0.0,True,655.2999999523163,48.0,72.0,40.0,False,,214.7091513539164,[],"[1280, 720]",ColorTask,64.0,108.0,,,HRV,HRV_0148,2022-11-30 18:18:12
,wl-html-keyboard-response,116,320727,0.0-7.0-0.0,1.0,116.0,,,,,,,,38277.89999985695,1.0,0,,,,,,,,,,,,True,undefinedblurEvent ,,,,,,,,,HRV,HRV_0148,2022-11-30 18:18:12
,wl-rdm,117,322829,0.0-8.0-0.0,1.0,117.0,,,,,,,[],,,,,,62.5,1.0,i,1.0,True,782.2000000476837,58.0,72.0,40.0,False,,261.7307730461419,[],"[1280, 720]",ColorTask,65.0,1.0,,,HRV,HRV_0148,2022-11-30 18:18:12
,wl-rdm,118,324790,0.0-8.1-0.1,1.0,118.0,,,,,,,[],,,,,,50.0,0.0,i,1.0,False,588.9000000953674,43.0,72.0,40.0,False,,314.58447990933035,[],"[1280, 720]",ColorTask,64.0,2.0,,,HRV,HRV_0148,2022-11-30 18:18:12
,wl-rdm,119,326680,0.0-8.2-0.2,1.0,119.0,,,,,,,[],,,,,,56.4,1.0,i,1.0,True,480.89999985694885,35.0,72.0,40.0,False,,356.14463392953667,[],"[1280, 720]",ColorTask,65.0,3.0,,,HRV,HRV_0148,2022-11-30 18:18:12
,wl-rdm,120,328529,0.0-8.3-0.3,1.0,120.0,,,,,,,[],,,,,,73.6,1.0,i,1.0,True,529.7000000476837,39.0,72.0,40.0,False,,261.72837155141053,[],"[1280, 720]",ColorTask,66.0,4.0,,,HRV,HRV_0148,2022-11-30 18:18:12
,wl-rdm,121,330392,0.0-8.4-0.4,1.0,121.0,,,,,,,[],,,,,,87.9,0.0,u,0.0,True,560.3999998569489,41.0,72.0,40.0,False,,248.5351371601261,[],"[1280, 720]",ColorTask,67.0,5.0,,,HRV,HRV_0148,2022-11-30 18:18:12
,wl-rdm,122,332339,0.0-8.5-0.5,1.0,122.0,,,,,,,[],,,,,,56.4,0.0,u,0.0,True,644.5,47.0,72.0,40.0,False,,243.19127929105622,[],"[1280, 720]",ColorTask,68.0,6.0,,,HRV,HRV_0148,2022-11-30 18:18:12
,wl-rdm,123,334354,0.0-8.6-0.6,1.0,123.0,,,,,,,[],,,,,,56.4,1.0,u,0.0,False,618.9000000953674,45.0,72.0,40.0,False,,336.23744906640854,[],"[1280, 720]",ColorTask,67.0,7.0,,,HRV,HRV_0148,2022-11-30 18:18:12
,wl-rdm,124,336468,0.0-8.7-0.7,1.0,124.0,,,,,,,[],,,,,,56.4,0.0,u,0.0,True,858.7999999523163,62.0,72.0,40.0,False,,207.56346621429716,[],"[1280, 720]",ColorTask,68.0,8.0,,,HRV,HRV_0148,2022-11-30 18:18:12
,wl-rdm,125,338345,0.0-8.8-0.8,1.0,125.0,,,,,,,[],,,,,,50.0,1.0,u,0.0,False,567.0999999046326,41.0,72.0,40.0,False,,260.6265241548924,[],"[1280, 720]",ColorTask,67.0,9.0,,,HRV,HRV_0148,2022-11-30 18:18:12
,wl-rdm,126,340444,0.0-8.9-0.9,1.0,126.0,,,,,,,[],,,,,,56.4,1.0,i,1.0,True,710.6000001430511,52.0,72.0,40.0,False,,323.7812475842555,[],"[1280, 720]",ColorTask,68.0,10.0,,,HRV,HRV_0148,2022-11-30 18:18:12
,wl-rdm,127,342376,0.0-8.10-0.10,1.0,127.0,,,,,,,[],,,,,,56.4,1.0,i,1.0,True,600.9000000953674,44.0,72.0,40.0,False,,274.54568699341013,[],"[1280, 720]",ColorTask,69.0,11.0,,,HRV,HRV_0148,2022-11-30 18:18:12
,wl-rdm,128,344170,0.0-8.11-0.11,1.0,128.0,,,,,,,[],,,,,,87.9,1.0,i,1.0,True,510.0,37.0,72.0,40.0,False,,232.25089373411004,[],"[1280, 720]",ColorTask,70.0,12.0,,,HRV,HRV_0148,2022-11-30 18:18:12
,wl-rdm,129,346172,0.0-8.12-0.12,1.0,129.0,,,,,,,[],,,,,,73.6,1.0,i,1.0,True,705.7000000476837,51.0,72.0,40.0,False,,248.09322510496065,[],"[1280, 720]",ColorTask,71.0,13.0,,,HRV,HRV_0148,2022-11-30 18:18:12
,wl-rdm,130,348076,0.0-8.13-0.13,1.0,130.0,,,,,,,[],,,,,,73.6,1.0,i,1.0,True,607.7000000476837,44.0,72.0,40.0,False,,228.957236980212,[],"[1280, 720]",ColorTask,72.0,14.0,,,HRV,HRV_0148,2022-11-30 18:18:12
,wl-rdm,131,350079,0.0-8.14-0.14,1.0,131.0,,,,,,,[],,,,,,50.0,1.0,i,1.0,True,708.1000001430511,51.0,72.0,40.0,False,,238.26906425436334,[],"[1280, 720]",ColorTask,73.0,15.0,,,HRV,HRV_0148,2022-11-30 18:18:12
,wl-rdm,132,352080,0.0-8.15-0.15,1.0,132.0,,,,,,,[],,,,,,87.9,0.0,u,0.0,True,718.5999999046326,52.0,72.0,40.0,False,,229.34796185112745,[],"[1280, 720]",ColorTask,74.0,16.0,,,HRV,HRV_0148,2022-11-30 18:18:12
,wl-rdm,133,353971,0.0-8.16-0.16,1.0,133.0,,,,,,,[],,,,,,50.0,0.0,i,1.0,False,599.1000001430511,44.0,72.0,40.0,False,,227.68892929146318,[],"[1280, 720]",ColorTask,73.0,17.0,,,HRV,HRV_0148,2022-11-30 18:18:12
,wl-rdm,134,356098,0.0-8.17-0.17,1.0,134.0,,,,,,,[],,,,,,50.0,1.0,i,1.0,True,822.2999999523163,60.0,72.0,40.0,False,,246.96424860312246,[],"[1280, 720]",ColorTask,74.0,18.0,,,HRV,HRV_0148,2022-11-30 18:18:12
,wl-rdm,135,358017,0.0-8.18-0.18,1.0,135.0,,,,,,,[],,,,,,87.9,0.0,u,0.0,True,590.0,43.0,72.0,40.0,False,,270.89915079258583,[],"[1280, 720]",ColorTask,75.0,19.0,,,HRV,HRV_0148,2022-11-30 18:18:12
,wl-rdm,136,359894,0.0-8.19-0.19,1.0,136.0,,,,,,,[],,,,,,87.9,1.0,i,1.0,True,596.7999999523163,43.0,72.0,40.0,False,,229.8564554048725,[],"[1280, 720]",ColorTask,76.0,20.0,,,HRV,HRV_0148,2022-11-30 18:18:12
,wl-rdm,137,361784,0.0-8.20-0.20,1.0,137.0,,,,,,,[],,,,,,53.2,1.0,i,1.0,True,529.2999999523163,39.0,72.0,40.0,False,,300.34304544702235,[],"[1280, 720]",ColorTask,77.0,21.0,,,HRV,HRV_0148,2022-11-30 18:18:12
,wl-rdm,138,364009,0.0-8.21-0.21,1.0,138.0,,,,,,,[],,,,,,53.2,0.0,u,0.0,True,848.6000001430511,62.0,72.0,40.0,False,,306.4269739296282,[],"[1280, 720]",ColorTask,78.0,22.0,,,HRV,HRV_0148,2022-11-30 18:18:12
,wl-rdm,139,366150,0.0-8.22-0.22,1.0,139.0,,,,,,,[],,,,,,56.4,0.0,i,1.0,False,740.1999998092651,54.0,72.0,40.0,False,,344.2992871662583,[],"[1280, 720]",ColorTask,77.0,23.0,,,HRV,HRV_0148,2022-11-30 18:18:12
,wl-rdm,140,368430,0.0-8.23-0.23,1.0,140.0,,,,,,,[],,,,,,56.4,0.0,i,1.0,False,918.1000001430511,67.0,72.0,40.0,False,,294.677588652146,[],"[1280, 720]",ColorTask,76.0,24.0,,,HRV,HRV_0148,2022-11-30 18:18:12
,wl-rdm,141,370418,0.0-8.24-0.24,1.0,141.0,,,,,,,[],,,,,,73.6,1.0,i,1.0,True,643.7999999523163,47.0,72.0,40.0,False,,283.01973364917416,[],"[1280, 720]",ColorTask,77.0,25.0,,,HRV,HRV_0148,2022-11-30 18:18:12
,wl-rdm,142,372406,0.0-8.25-0.25,1.0,142.0,,,,,,,[],,,,,,56.4,1.0,u,0.0,False,654.7000000476837,48.0,72.0,40.0,False,,264.7061814452762,[],"[1280, 720]",ColorTask,76.0,26.0,,,HRV,HRV_0148,2022-11-30 18:18:12
,wl-rdm,143,374464,0.0-8.26-0.26,1.0,143.0,,,,,,,[],,,,,,73.6,0.0,u,0.0,True,729.5,53.0,72.0,40.0,False,,270.5418072275201,[],"[1280, 720]",ColorTask,77.0,27.0,,,HRV,HRV_0148,2022-11-30 18:18:12
,wl-rdm,144,376452,0.0-8.27-0.27,1.0,144.0,,,,,,,[],,,,,,62.5,1.0,i,1.0,True,550.7000000476837,40.0,72.0,40.0,False,,381.3118005678447,[],"[1280, 720]",ColorTask,78.0,28.0,,,HRV,HRV_0148,2022-11-30 18:18:12
,wl-rdm,145,378454,0.0-8.28-0.28,1.0,145.0,,,,,,,[],,,,,,73.6,0.0,u,0.0,True,653.9000000953674,48.0,72.0,40.0,False,,280.67450348543053,[],"[1280, 720]",ColorTask,79.0,29.0,,,HRV,HRV_0148,2022-11-30 18:18:12
,wl-rdm,146,380414,0.0-8.29-0.29,1.0,146.0,,,,,,,[],,,,,,62.5,0.0,u,0.0,True,598.5,44.0,72.0,40.0,False,,302.68559332510176,[],"[1280, 720]",ColorTask,80.0,30.0,,,HRV,HRV_0148,2022-11-30 18:18:12
,wl-rdm,147,382305,0.0-8.30-0.30,1.0,147.0,,,,,,,[],,,,,,87.9,1.0,i,1.0,True,542.6000001430511,40.0,72.0,40.0,False,,284.5769046882706,[],"[1280, 720]",ColorTask,81.0,31.0,,,HRV,HRV_0148,2022-11-30 18:18:12
,wl-rdm,148,384210,0.0-8.31-0.31,1.0,148.0,,,,,,,[],,,,,,73.6,1.0,i,1.0,True,638.5000002384186,46.0,72.0,40.0,False,,215.31683914010898,[],"[1280, 720]",ColorTask,82.0,32.0,,,HRV,HRV_0148,2022-11-30 18:18:12
,wl-rdm,149,386267,0.0-8.32-0.32,1.0,149.0,,,,,,,[],,,,,,50.0,0.0,u,0.0,True,691.4000000953674,50.0,72.0,40.0,False,,311.21587112943246,[],"[1280, 720]",ColorTask,83.0,33.0,,,HRV,HRV_0148,2022-11-30 18:18:12
,wl-rdm,150,388116,0.0-8.33-0.33,1.0,150.0,,,,,,,[],,,,,,62.5,0.0,u,0.0,True,587.1000001430511,43.0,72.0,40.0,False,,201.24929063012615,[],"[1280, 720]",ColorTask,84.0,34.0,,,HRV,HRV_0148,2022-11-30 18:18:12
,wl-rdm,151,389965,0.0-8.34-0.34,1.0,151.0,,,,,,,[],,,,,,62.5,1.0,i,1.0,True,544.4000000953674,40.0,72.0,40.0,False,,239.4108689271446,[],"[1280, 720]",ColorTask,85.0,35.0,,,HRV,HRV_0148,2022-11-30 18:18:12
,wl-rdm,152,392037,0.0-8.35-0.35,1.0,152.0,,,,,,,[],,,,,,53.2,0.0,u,0.0,True,718.5999999046326,52.0,72.0,40.0,False,,299.4724709574091,[],"[1280, 720]",ColorTask,86.0,36.0,,,HRV,HRV_0148,2022-11-30 18:18:12
,wl-rdm,153,393955,0.0-8.36-0.36,1.0,153.0,,,,,,,[],,,,,,56.4,0.0,u,0.0,True,571.1000001430511,42.0,72.0,40.0,False,,289.3150207353066,[],"[1280, 720]",ColorTask,87.0,37.0,,,HRV,HRV_0148,2022-11-30 18:18:12
,wl-rdm,154,395860,0.0-8.37-0.37,1.0,154.0,,,,,,,[],,,,,,87.9,1.0,i,1.0,True,465.2999999523163,34.0,72.0,40.0,False,,386.6199054300465,[],"[1280, 720]",ColorTask,88.0,38.0,,,HRV,HRV_0148,2022-11-30 18:18:12
,wl-rdm,155,397779,0.0-8.38-0.38,1.0,155.0,,,,,,,[],,,,,,53.2,0.0,u,0.0,True,593.5,43.0,72.0,40.0,False,,277.5288880336196,[],"[1280, 720]",ColorTask,89.0,39.0,,,HRV,HRV_0148,2022-11-30 18:18:12
,wl-rdm,156,399836,0.0-8.39-0.39,1.0,156.0,,,,,,,[],,,,,,62.5,0.0,u,0.0,True,676.7000000476837,49.0,72.0,40.0,False,,331.60924082146397,[],"[1280, 720]",ColorTask,90.0,40.0,,,HRV,HRV_0148,2022-11-30 18:18:12
,wl-rdm,157,401852,0.0-8.40-0.40,1.0,157.0,,,,,,,[],,,,,,53.2,0.0,u,0.0,True,599.4000000953674,44.0,72.0,40.0,False,,355.56535276129097,[],"[1280, 720]",ColorTask,91.0,41.0,,,HRV,HRV_0148,2022-11-30 18:18:12
,wl-rdm,158,403590,0.0-8.41-0.41,1.0,158.0,,,,,,,[],,,,,,53.2,0.0,i,1.0,False,414.5,30.0,72.0,40.0,False,,269.1958821376549,[],"[1280, 720]",ColorTask,90.0,42.0,,,HRV,HRV_0148,2022-11-30 18:18:12
,wl-rdm,159,405620,0.0-8.42-0.42,1.0,159.0,,,,,,,[],,,,,,87.9,1.0,i,1.0,True,571.7000000476837,42.0,72.0,40.0,False,,395.59866501629114,[],"[1280, 720]",ColorTask,91.0,43.0,,,HRV,HRV_0148,2022-11-30 18:18:12
,wl-rdm,160,407858,0.0-8.43-0.43,1.0,160.0,,,,,,,[],,,,,,53.2,1.0,i,1.0,True,927.8999998569489,67.0,72.0,40.0,False,,256.3663723819982,[],"[1280, 720]",ColorTask,92.0,44.0,,,HRV,HRV_0148,2022-11-30 18:18:12
,wl-rdm,161,409930,0.0-8.44-0.44,1.0,161.0,,,,,,,[],,,,,,73.6,1.0,i,1.0,True,684.0,50.0,72.0,40.0,False,,321.9563230242451,[],"[1280, 720]",ColorTask,93.0,45.0,,,HRV,HRV_0148,2022-11-30 18:18:12
,wl-rdm,162,412029,0.0-8.45-0.45,1.0,162.0,,,,,,,[],,,,,,50.0,0.0,u,0.0,True,782.7999999523163,57.0,72.0,40.0,False,,254.08204355240179,[],"[1280, 720]",ColorTask,94.0,46.0,,,HRV,HRV_0148,2022-11-30 18:18:12
,wl-rdm,163,414031,0.0-8.46-0.46,1.0,163.0,,,,,,,[],,,,,,62.5,0.0,u,0.0,True,597.6000001430511,43.0,72.0,40.0,False,,357.27880181737834,[],"[1280, 720]",ColorTask,95.0,47.0,,,HRV,HRV_0148,2022-11-30 18:18:12
,wl-rdm,164,415866,0.0-8.47-0.47,1.0,164.0,,,,,,,[],,,,,,50.0,1.0,u,0.0,False,526.7999999523163,38.0,72.0,40.0,False,,260.7024679574236,[],"[1280, 720]",ColorTask,94.0,48.0,,,HRV,HRV_0148,2022-11-30 18:18:12
,wl-rdm,165,417937,0.0-8.48-0.48,1.0,165.0,,,,,,,[],,,,,,62.5,1.0,i,1.0,True,640.4000000953674,47.0,72.0,40.0,False,,365.290037906408,[],"[1280, 720]",ColorTask,95.0,49.0,,,HRV,HRV_0148,2022-11-30 18:18:12
,wl-rdm,166,419995,0.0-8.49-0.49,1.0,166.0,,,,,,,[],,,,,,53.2,1.0,u,0.0,False,640.6999998092651,47.0,72.0,40.0,False,,361.0168596305583,[],"[1280, 720]",ColorTask,94.0,50.0,,,HRV,HRV_0148,2022-11-30 18:18:12
,wl-rdm,167,422164,0.0-8.50-0.50,1.0,167.0,,,,,,,[],,,,,,62.5,1.0,i,1.0,True,797.9999997615814,58.0,72.0,40.0,False,,308.8312681962968,[],"[1280, 720]",ColorTask,95.0,51.0,,,HRV,HRV_0148,2022-11-30 18:18:12
,wl-rdm,168,424263,0.0-8.51-0.51,1.0,168.0,,,,,,,[],,,,,,50.0,0.0,u,0.0,True,658.6000001430511,48.0,72.0,40.0,False,,377.38873021071583,[],"[1280, 720]",ColorTask,96.0,52.0,,,HRV,HRV_0148,2022-11-30 18:18:12
,wl-rdm,169,426363,0.0-8.52-0.52,1.0,169.0,,,,,,,[],,,,,,73.6,0.0,u,0.0,True,678.1000001430511,49.0,72.0,40.0,False,,362.3862951872957,[],"[1280, 720]",ColorTask,97.0,53.0,,,HRV,HRV_0148,2022-11-30 18:18:12
,wl-rdm,170,428170,0.0-8.53-0.53,1.0,170.0,,,,,,,[],,,,,,87.9,0.0,u,0.0,True,525.7999999523163,38.0,72.0,40.0,False,,231.03833262194823,[],"[1280, 720]",ColorTask,98.0,54.0,,,HRV,HRV_0148,2022-11-30 18:18:12
,wl-rdm,171,430130,0.0-8.54-0.54,1.0,171.0,,,,,,,[],,,,,,53.2,1.0,u,0.0,False,604.3000001907349,44.0,72.0,40.0,False,,296.6572312086388,[],"[1280, 720]",ColorTask,97.0,55.0,,,HRV,HRV_0148,2022-11-30 18:18:12
,wl-rdm,172,432313,0.0-8.55-0.55,1.0,172.0,,,,,,,[],,,,,,56.4,1.0,u,0.0,False,918.7999999523163,67.0,72.0,40.0,False,,208.62311418300195,[],"[1280, 720]",ColorTask,96.0,56.0,,,HRV,HRV_0148,2022-11-30 18:18:12
,wl-rdm,173,434120,0.0-8.56-0.56,1.0,173.0,,,,,,,[],,,,,,73.6,1.0,i,1.0,True,530.2999999523163,39.0,72.0,40.0,False,,215.51977687477606,[],"[1280, 720]",ColorTask,97.0,57.0,,,HRV,HRV_0148,2022-11-30 18:18:12
,wl-rdm,174,436150,0.0-8.57-0.57,1.0,174.0,,,,,,,[],,,,,,73.6,0.0,u,0.0,True,588.5,43.0,72.0,40.0,False,,381.46051613124916,[],"[1280, 720]",ColorTask,98.0,58.0,,,HRV,HRV_0148,2022-11-30 18:18:12
,wl-rdm,175,438166,0.0-8.58-0.58,1.0,175.0,,,,,,,[],,,,,,62.5,0.0,u,0.0,True,590.5,43.0,72.0,40.0,False,,366.1352096941979,[],"[1280, 720]",ColorTask,99.0,59.0,,,HRV,HRV_0148,2022-11-30 18:18:12
,wl-rdm,176,440043,0.0-8.59-0.59,1.0,176.0,,,,,,,[],,,,,,62.5,0.0,u,0.0,True,584.3999998569489,43.0,72.0,40.0,False,,233.09791163895775,[],"[1280, 720]",ColorTask,100.0,60.0,,,HRV,HRV_0148,2022-11-30 18:18:12
,wl-rdm,177,442003,0.0-8.60-0.60,1.0,177.0,,,,,,,[],,,,,,56.4,0.0,u,0.0,True,549.2999997138977,40.0,72.0,40.0,False,,353.8004816778299,[],"[1280, 720]",ColorTask,101.0,61.0,,,HRV,HRV_0148,2022-11-30 18:18:12
,wl-rdm,178,443908,0.0-8.61-0.61,1.0,178.0,,,,,,,[],,,,,,87.9,1.0,i,1.0,True,544.8999998569489,40.0,72.0,40.0,False,,302.2079269811726,[],"[1280, 720]",ColorTask,102.0,62.0,,,HRV,HRV_0148,2022-11-30 18:18:12
,wl-rdm,179,445854,0.0-8.62-0.62,1.0,179.0,,,,,,,[],,,,,,87.9,0.0,u,0.0,True,578.4000000953674,42.0,72.0,40.0,False,,307.86826561868867,[],"[1280, 720]",ColorTask,103.0,63.0,,,HRV,HRV_0148,2022-11-30 18:18:12
,wl-rdm,180,447856,0.0-8.63-0.63,1.0,180.0,,,,,,,[],,,,,,50.0,0.0,i,1.0,False,550.4000000953674,40.0,72.0,40.0,False,,399.92629177477977,[],"[1280, 720]",ColorTask,102.0,64.0,,,HRV,HRV_0148,2022-11-30 18:18:12
,wl-rdm,181,450011,0.0-8.64-0.64,1.0,181.0,,,,,,,[],,,,,,56.4,1.0,u,0.0,False,711.2999999523163,52.0,72.0,40.0,False,,387.7742738895064,[],"[1280, 720]",ColorTask,101.0,65.0,,,HRV,HRV_0148,2022-11-30 18:18:12
,wl-rdm,182,451860,0.0-8.65-0.65,1.0,182.0,,,,,,,[],,,,,,73.6,1.0,i,1.0,True,511.59999990463257,37.0,72.0,40.0,False,,283.3885749406631,[],"[1280, 720]",ColorTask,102.0,66.0,,,HRV,HRV_0148,2022-11-30 18:18:12
,wl-rdm,183,454015,0.0-8.66-0.66,1.0,183.0,,,,,,,[],,,,,,53.2,1.0,i,1.0,True,842.4000000953674,61.0,72.0,40.0,False,,257.74479324777445,[],"[1280, 720]",ColorTask,103.0,67.0,,,HRV,HRV_0148,2022-11-30 18:18:12
,wl-rdm,184,456337,0.0-8.67-0.67,1.0,184.0,,,,,,,[],,,,,,50.0,0.0,u,0.0,True,896.5999999046326,65.0,72.0,40.0,False,,370.268711044925,[],"[1280, 720]",ColorTask,104.0,68.0,,,HRV,HRV_0148,2022-11-30 18:18:12
,wl-rdm,185,458297,0.0-8.68-0.68,1.0,185.0,,,,,,,[],,,,,,87.9,0.0,u,0.0,True,595.1999998092651,43.0,72.0,40.0,False,,306.17461161743654,[],"[1280, 720]",ColorTask,105.0,69.0,,,HRV,HRV_0148,2022-11-30 18:18:12
,wl-rdm,186,460410,0.0-8.69-0.69,1.0,186.0,,,,,,,[],,,,,,53.2,0.0,u,0.0,True,712.3999998569489,52.0,72.0,40.0,False,,345.8350477036116,[],"[1280, 720]",ColorTask,106.0,70.0,,,HRV,HRV_0148,2022-11-30 18:18:12
,wl-rdm,187,462468,0.0-8.70-0.70,1.0,187.0,,,,,,,[],,,,,,50.0,1.0,u,0.0,False,653.7999999523163,48.0,72.0,40.0,False,,336.3417715581563,[],"[1280, 720]",ColorTask,105.0,71.0,,,HRV,HRV_0148,2022-11-30 18:18:12
,wl-rdm,188,464567,0.0-8.71-0.71,1.0,188.0,,,,,,,[],,,,,,53.2,1.0,u,0.0,False,835.6000001430511,61.0,72.0,40.0,False,,206.62201363897012,[],"[1280, 720]",ColorTask,104.0,72.0,,,HRV,HRV_0148,2022-11-30 18:18:12
,wl-rdm,189,466903,0.0-8.72-0.72,1.0,189.0,,,,,,,[],,,,,,56.4,1.0,i,1.0,True,959.9000000953674,70.0,72.0,40.0,False,,307.8162472546785,[],"[1280, 720]",ColorTask,105.0,73.0,,,HRV,HRV_0148,2022-11-30 18:18:12
,wl-rdm,190,468822,0.0-8.73-0.73,1.0,190.0,,,,,,,[],,,,,,73.6,0.0,u,0.0,True,601.7999997138977,44.0,72.0,40.0,False,,264.0986955932785,[],"[1280, 720]",ColorTask,106.0,74.0,,,HRV,HRV_0148,2022-11-30 18:18:12
,wl-rdm,191,470726,0.0-8.74-0.74,1.0,191.0,,,,,,,[],,,,,,87.9,1.0,i,1.0,True,633.8999998569489,46.0,72.0,40.0,False,,215.84547204050753,[],"[1280, 720]",ColorTask,107.0,75.0,,,HRV,HRV_0148,2022-11-30 18:18:12
,wl-rdm,192,472978,0.0-8.75-0.75,1.0,192.0,,,,,,,[],,,,,,53.2,1.0,u,0.0,False,1000.0,72.0,72.0,40.0,False,,205.88850238896643,[],"[1280, 720]",ColorTask,106.0,76.0,,,HRV,HRV_0148,2022-11-30 18:18:12
,wl-rdm,193,475147,0.0-8.76-0.76,1.0,193.0,,,,,,,[],,,,,,50.0,0.0,i,1.0,False,852.2000000476837,62.0,72.0,40.0,False,,260.3304260037893,[],"[1280, 720]",ColorTask,105.0,77.0,,,HRV,HRV_0148,2022-11-30 18:18:12
,wl-rdm,194,477177,0.0-8.77-0.77,1.0,194.0,,,,,,,[],,,,,,87.9,0.0,u,0.0,True,585.4000000953674,43.0,72.0,40.0,False,,379.81009782450803,[],"[1280, 720]",ColorTask,106.0,78.0,,,HRV,HRV_0148,2022-11-30 18:18:12
,wl-rdm,195,479096,0.0-8.78-0.78,1.0,195.0,,,,,,,[],,,,,,73.6,1.0,i,1.0,True,614.5,45.0,72.0,40.0,False,,237.43780809196716,[],"[1280, 720]",ColorTask,107.0,79.0,,,HRV,HRV_0148,2022-11-30 18:18:12
,wl-rdm,196,481084,0.0-8.79-0.79,1.0,196.0,,,,,,,[],,,,,,87.9,0.0,u,0.0,True,586.7000000476837,43.0,72.0,40.0,False,,327.07091346162844,[],"[1280, 720]",ColorTask,108.0,80.0,,,HRV,HRV_0148,2022-11-30 18:18:12
,wl-rdm,197,483266,0.0-8.80-0.80,1.0,197.0,,,,,,,[],,,,,,50.0,1.0,i,1.0,True,824.2000000476837,60.0,72.0,40.0,False,,299.24807182447717,[],"[1280, 720]",ColorTask,109.0,81.0,,,HRV,HRV_0148,2022-11-30 18:18:12
,wl-rdm,198,485199,0.0-8.81-0.81,1.0,198.0,,,,,,,[],,,,,,50.0,1.0,i,1.0,True,631.1000001430511,46.0,72.0,40.0,False,,240.44595491324927,[],"[1280, 720]",ColorTask,110.0,82.0,,,HRV,HRV_0148,2022-11-30 18:18:12
,wl-rdm,199,487145,0.0-8.82-0.82,1.0,199.0,,,,,,,[],,,,,,50.0,0.0,i,1.0,False,607.7999999523163,44.0,72.0,40.0,False,,283.6025918797606,[],"[1280, 720]",ColorTask,109.0,83.0,,,HRV,HRV_0148,2022-11-30 18:18:12
,wl-rdm,200,489064,0.0-8.83-0.83,1.0,200.0,,,,,,,[],,,,,,73.6,0.0,u,0.0,True,664.1000001430511,48.0,72.0,40.0,False,,204.44486787174728,[],"[1280, 720]",ColorTask,110.0,84.0,,,HRV,HRV_0148,2022-11-30 18:18:12
,wl-rdm,201,491066,0.0-8.84-0.84,1.0,201.0,,,,,,,[],,,,,,56.4,0.0,i,1.0,False,647.0999999046326,47.0,72.0,40.0,False,,299.62932228691886,[],"[1280, 720]",ColorTask,109.0,85.0,,,HRV,HRV_0148,2022-11-30 18:18:12
,wl-rdm,202,493054,0.0-8.85-0.85,1.0,202.0,,,,,,,[],,,,,,87.9,1.0,i,1.0,True,558.5999999046326,41.0,72.0,40.0,False,,369.53822597983793,[],"[1280, 720]",ColorTask,110.0,86.0,,,HRV,HRV_0148,2022-11-30 18:18:12
,wl-rdm,203,495111,0.0-8.86-0.86,1.0,203.0,,,,,,,[],,,,,,50.0,1.0,u,0.0,False,624.5,45.0,72.0,40.0,False,,384.92842081007757,[],"[1280, 720]",ColorTask,109.0,87.0,,,HRV,HRV_0148,2022-11-30 18:18:12
,wl-rdm,204,497127,0.0-8.87-0.87,1.0,204.0,,,,,,,[],,,,,,62.5,0.0,u,0.0,True,741.0,54.0,72.0,40.0,False,,210.18645002799852,[],"[1280, 720]",ColorTask,110.0,88.0,,,HRV,HRV_0148,2022-11-30 18:18:12
,wl-rdm,205,499032,0.0-8.88-0.88,1.0,205.0,,,,,,,[],,,,,,62.5,1.0,i,1.0,True,578.2999999523163,42.0,72.0,40.0,False,,273.1615432044706,[],"[1280, 720]",ColorTask,111.0,89.0,,,HRV,HRV_0148,2022-11-30 18:18:12
,wl-rdm,206,501034,0.0-8.89-0.89,1.0,206.0,,,,,,,[],,,,,,62.5,1.0,i,1.0,True,652.1000001430511,47.0,72.0,40.0,False,,292.9153110798796,[],"[1280, 720]",ColorTask,112.0,90.0,,,HRV,HRV_0148,2022-11-30 18:18:12
,wl-rdm,207,503189,0.0-8.90-0.90,1.0,207.0,,,,,,,[],,,,,,62.5,0.0,u,0.0,True,716.5,52.0,72.0,40.0,False,,383.4025803261567,[],"[1280, 720]",ColorTask,113.0,91.0,,,HRV,HRV_0148,2022-11-30 18:18:12
,wl-rdm,208,505330,0.0-8.91-0.91,1.0,208.0,,,,,,,[],,,,,,53.2,1.0,i,1.0,True,753.0,55.0,72.0,40.0,False,,321.77883728638756,[],"[1280, 720]",ColorTask,114.0,92.0,,,HRV,HRV_0148,2022-11-30 18:18:12
,wl-rdm,209,507249,0.0-8.92-0.92,1.0,209.0,,,,,,,[],,,,,,53.2,0.0,u,0.0,True,639.6000001430511,46.0,72.0,40.0,False,,233.50673011829298,[],"[1280, 720]",ColorTask,115.0,93.0,,,HRV,HRV_0148,2022-11-30 18:18:12
,wl-rdm,210,509139,0.0-8.93-0.93,1.0,210.0,,,,,,,[],,,,,,73.6,0.0,u,0.0,True,540.2999999523163,39.0,72.0,40.0,False,,302.18296482820205,[],"[1280, 720]",ColorTask,116.0,94.0,,,HRV,HRV_0148,2022-11-30 18:18:12
,wl-rdm,211,511127,0.0-8.94-0.94,1.0,211.0,,,,,,,[],,,,,,62.5,0.0,u,0.0,True,669.1999998092651,49.0,72.0,40.0,False,,254.03192280544158,[],"[1280, 720]",ColorTask,117.0,95.0,,,HRV,HRV_0148,2022-11-30 18:18:12
,wl-rdm,212,513282,0.0-8.95-0.95,1.0,212.0,,,,,,,[],,,,,,56.4,0.0,u,0.0,True,788.5999999046326,57.0,72.0,40.0,False,,307.92042836353585,[],"[1280, 720]",ColorTask,118.0,96.0,,,HRV,HRV_0148,2022-11-30 18:18:12
,wl-rdm,213,515771,0.0-8.96-0.96,1.0,213.0,,,,,,,[],,,,,,50.0,1.0,i,1.0,True,1073.0,78.0,72.0,40.0,False,,349.34774872136563,[],"[1280, 720]",ColorTask,119.0,97.0,,,HRV,HRV_0148,2022-11-30 18:18:12
,wl-rdm,214,517856,0.0-8.97-0.97,1.0,214.0,,,,,,,[],,,,,,53.2,0.0,u,0.0,True,734.9000000953674,53.0,72.0,40.0,False,,296.4331580642057,[],"[1280, 720]",ColorTask,120.0,98.0,,,HRV,HRV_0148,2022-11-30 18:18:12
,wl-rdm,215,519789,0.0-8.98-0.98,1.0,215.0,,,,,,,[],,,,,,53.2,0.0,u,0.0,True,581.7000000476837,42.0,72.0,40.0,False,,300.0585189728019,[],"[1280, 720]",ColorTask,121.0,99.0,,,HRV,HRV_0148,2022-11-30 18:18:12
,wl-rdm,216,521846,0.0-8.99-0.99,1.0,216.0,,,,,,,[],,,,,,62.5,1.0,u,0.0,False,656.1999998092651,48.0,72.0,40.0,False,,333.74555285896054,[],"[1280, 720]",ColorTask,120.0,100.0,,,HRV,HRV_0148,2022-11-30 18:18:12
,wl-rdm,217,523890,0.0-8.100-0.100,1.0,217.0,,,,,,,[],,,,,,73.6,0.0,u,0.0,True,702.2999999523163,51.0,72.0,40.0,False,,290.39901225467855,[],"[1280, 720]",ColorTask,121.0,101.0,,,HRV,HRV_0148,2022-11-30 18:18:12
,wl-rdm,218,525878,0.0-8.101-0.101,1.0,218.0,,,,,,,[],,,,,,62.5,1.0,i,1.0,True,715.2999999523163,52.0,72.0,40.0,False,,213.04864364580436,[],"[1280, 720]",ColorTask,122.0,102.0,,,HRV,HRV_0148,2022-11-30 18:18:12
,wl-rdm,219,527797,0.0-8.102-0.102,1.0,219.0,,,,,,,[],,,,,,87.9,1.0,i,1.0,True,537.8999998569489,39.0,72.0,40.0,False,,326.93088557040846,[],"[1280, 720]",ColorTask,123.0,103.0,,,HRV,HRV_0148,2022-11-30 18:18:12
,wl-rdm,220,529771,0.0-8.103-0.103,1.0,220.0,,,,,,,[],,,,,,56.4,0.0,u,0.0,True,583.5,42.0,72.0,40.0,False,,338.76736894053715,[],"[1280, 720]",ColorTask,124.0,104.0,,,HRV,HRV_0148,2022-11-30 18:18:12
,wl-rdm,221,531759,0.0-8.104-0.104,1.0,221.0,,,,,,,[],,,,,,73.6,0.0,u,0.0,True,656.7999999523163,48.0,72.0,40.0,False,,265.21706974169564,[],"[1280, 720]",ColorTask,125.0,105.0,,,HRV,HRV_0148,2022-11-30 18:18:12
,wl-rdm,222,533956,0.0-8.105-0.105,1.0,222.0,,,,,,,[],,,,,,56.4,1.0,u,0.0,False,822.8999998569489,60.0,72.0,40.0,False,,318.45722920987254,[],"[1280, 720]",ColorTask,124.0,106.0,,,HRV,HRV_0148,2022-11-30 18:18:12
,wl-rdm,223,535888,0.0-8.106-0.106,1.0,223.0,,,,,,,[],,,,,,87.9,0.0,u,0.0,True,602.0999999046326,44.0,72.0,40.0,False,,267.07502243092875,[],"[1280, 720]",ColorTask,125.0,107.0,,,HRV,HRV_0148,2022-11-30 18:18:12
,wl-rdm,224,537807,0.0-8.107-0.107,1.0,224.0,,,,,,,[],,,,,,53.2,1.0,i,1.0,True,645.0999999046326,47.0,72.0,40.0,False,,212.61225418613878,[],"[1280, 720]",ColorTask,126.0,108.0,,,HRV,HRV_0148,2022-11-30 18:18:12
,wl-html-button-response,225,540076,0.0-9.0-0.0,,,,,,,,,,2267.2999999523163,,0,,,,,,,,,,,,,,,,,,,,<h3>End of this session. Thank you!</h3><br>,['Close window'],HRV,HRV_0148,2022-11-30 18:18:12
