trialN,stimuli,trialStartTime,trialStartTime_UNIX,stimulus1,stimulus2,stimulus1Bid,stimulus2Bid,delta,selected,rt,rt_UNIX,rt_perfnow,receivedResponse,rsp,trialEndTime,trialDuration,trialEndTime_UNIX,trialDuration_UNIX,trialEvents,exp,subjectId,date
0,"[{'imgObject': {}, 'id': 'seaweed', 'src': '/static/foodstim60/seaweed.jpg', 'key': 'u', 'origWidth': 410, 'origHeight': 410, 'width': 410, 'height': 410, 'widthPercent': 0.45, 'rescaleHeight': False, 'trialN': 0, 'loaded': True, 'loadedTime': 3460.2000000476837, 'positionName': 'LEFT', 'positionCoords': [818.8, 515], 'bid': 0.16}, {'imgObject': {}, 'id': 'kiwi', 'src': '/static/foodstim60/kiwi.jpg', 'key': 'i', 'origWidth': 410, 'origHeight': 410, 'width': 410, 'height': 410, 'widthPercent': 0.45, 'rescaleHeight': False, 'trialN': 0, 'loaded': True, 'loadedTime': 3504.5, 'positionName': 'RIGHT', 'positionCoords': [1331.2, 515], 'bid': 5.36}]",3818.4000000953674,1669830652595,seaweed,kiwi,0.16,5.36,5.2,kiwi,1306.9000000953674,1307,1307.0,True,i,5639.100000143051,1820.7000000476837,1669830654416,1821,,HRV,HRV_0148,2022-11-30 17:56:07
1,"[{'imgObject': {}, 'id': 'mac & cheese', 'src': '/static/foodstim60/mac & cheese.jpg', 'key': 'u', 'origWidth': 410, 'origHeight': 410, 'width': 410, 'height': 410, 'widthPercent': 0.45, 'rescaleHeight': False, 'trialN': 1, 'loaded': True, 'loadedTime': 3508.300000190735, 'positionName': 'LEFT', 'positionCoords': [818.8, 515], 'bid': 6.72}, {'imgObject': {}, 'id': 'eggs', 'src': '/static/foodstim60/eggs.jpg', 'key': 'i', 'origWidth': 409, 'origHeight': 409, 'width': 409, 'height': 409, 'widthPercent': 0.45, 'rescaleHeight': False, 'trialN': 1, 'loaded': True, 'loadedTime': 3510.100000143051, 'positionName': 'RIGHT', 'positionCoords': [1331.2, 515.5], 'bid': 5.04}]",5639.100000143051,1669830654416,mac & cheese,eggs,6.72,5.04,-1.6799999999999997,mac & cheese,888.2999999523163,888,888.5,True,u,7050.700000047684,1411.5999999046326,1669830655827,1411,,HRV,HRV_0148,2022-11-30 17:56:07
2,"[{'imgObject': {}, 'id': 'edamame', 'src': '/static/foodstim60/edamame.jpg', 'key': 'u', 'origWidth': 409, 'origHeight': 410, 'width': 409, 'height': 410, 'widthPercent': 0.45, 'rescaleHeight': False, 'trialN': 2, 'loaded': True, 'loadedTime': 3532.7000000476837, 'positionName': 'LEFT', 'positionCoords': [819.8, 515], 'bid': 5.28}, {'imgObject': {}, 'id': 'steak', 'src': '/static/foodstim60/steak.jpg', 'key': 'i', 'origWidth': 410, 'origHeight': 410, 'width': 410, 'height': 410, 'widthPercent': 0.45, 'rescaleHeight': False, 'trialN': 2, 'loaded': True, 'loadedTime': 3559.7000000476837, 'positionName': 'RIGHT', 'positionCoords': [1331.2, 515], 'bid': 8.75}]",7050.700000047684,1669830655827,edamame,steak,5.28,8.75,3.4699999999999998,steak,702.7999999523163,703,702.9000000953674,True,i,8260.700000047684,1210.0,1669830657037,1210,,HRV,HRV_0148,2022-11-30 17:56:07
3,"[{'imgObject': {}, 'id': 'eggsalad', 'src': '/static/foodstim60/eggsalad.jpg', 'key': 'u', 'origWidth': 410, 'origHeight': 409, 'width': 410, 'height': 409, 'widthPercent': 0.45, 'rescaleHeight': False, 'trialN': 3, 'loaded': True, 'loadedTime': 3636.300000190735, 'positionName': 'LEFT', 'positionCoords': [818.8, 515.5], 'bid': 5.18}, {'imgObject': {}, 'id': 'yogurt no spoon', 'src': '/static/foodstim60/yogurt no spoon.jpg', 'key': 'i', 'origWidth': 411, 'origHeight': 410, 'width': 411, 'height': 410, 'widthPercent': 0.45, 'rescaleHeight': False, 'trialN': 3, 'loaded': True, 'loadedTime': 3644, 'positionName': 'RIGHT', 'positionCoords': [1331.2, 515], 'bid': 5.03}]",8260.800000190735,1669830657037,eggsalad,yogurt no spoon,5.18,5.03,-0.14999999999999947,yogurt no spoon,1370.5999999046326,1371,1370.5999999046326,True,i,10153.300000190735,1892.5,1669830658930,1893,,HRV,HRV_0148,2022-11-30 17:56:07
4,"[{'imgObject': {}, 'id': 'avocado', 'src': '/static/foodstim60/avocado.jpg', 'key': 'u', 'origWidth': 409, 'origHeight': 409, 'width': 409, 'height': 409, 'widthPercent': 0.45, 'rescaleHeight': False, 'trialN': 4, 'loaded': True, 'loadedTime': 3668, 'positionName': 'LEFT', 'positionCoords': [819.8, 515.5], 'bid': 0.06}, {'imgObject': {}, 'id': 'salmon', 'src': '/static/foodstim60/salmon.jpg', 'key': 'i', 'origWidth': 410, 'origHeight': 409, 'width': 410, 'height': 409, 'widthPercent': 0.45, 'rescaleHeight': False, 'trialN': 4, 'loaded': True, 'loadedTime': 3494.4000000953674, 'positionName': 'RIGHT', 'positionCoords': [1331.2, 515.5], 'bid': 2.01}]",10153.5,1669830658930,avocado,salmon,0.06,2.01,1.9499999999999997,avocado,1599.2000000476837,1599,1599.3000001907349,True,u,12263.200000047684,2109.7000000476837,1669830661040,2110,,HRV,HRV_0148,2022-11-30 17:56:07
5,"[{'imgObject': {}, 'id': 'baked potato', 'src': '/static/foodstim60/baked potato.jpg', 'key': 'u', 'origWidth': 409, 'origHeight': 410, 'width': 409, 'height': 410, 'widthPercent': 0.45, 'rescaleHeight': False, 'trialN': 5, 'loaded': True, 'loadedTime': 3502.2000000476837, 'positionName': 'LEFT', 'positionCoords': [819.8, 515], 'bid': 6.44}, {'imgObject': {}, 'id': 'bagel plain', 'src': '/static/foodstim60/bagel plain.jpg', 'key': 'i', 'origWidth': 410, 'origHeight': 410, 'width': 410, 'height': 410, 'widthPercent': 0.45, 'rescaleHeight': False, 'trialN': 5, 'loaded': True, 'loadedTime': 3503, 'positionName': 'RIGHT', 'positionCoords': [1331.2, 515], 'bid': 6.390000000000001}]",12263.300000190735,1669830661040,baked potato,bagel plain,6.44,6.390000000000001,-0.04999999999999982,baked potato,1167,1167,1167.1999998092651,True,u,13938.5,1675.1999998092651,1669830662715,1675,,HRV,HRV_0148,2022-11-30 17:56:07
6,"[{'imgObject': {}, 'id': 'burrito', 'src': '/static/foodstim60/burrito.jpg', 'key': 'u', 'origWidth': 410, 'origHeight': 410, 'width': 410, 'height': 410, 'widthPercent': 0.45, 'rescaleHeight': False, 'trialN': 6, 'loaded': True, 'loadedTime': 3504.800000190735, 'positionName': 'LEFT', 'positionCoords': [818.8, 515], 'bid': 7.8}, {'imgObject': {}, 'id': 'roastedpotatoes', 'src': '/static/foodstim60/roastedpotatoes.jpg', 'key': 'i', 'origWidth': 409, 'origHeight': 410, 'width': 409, 'height': 410, 'widthPercent': 0.45, 'rescaleHeight': False, 'trialN': 6, 'loaded': True, 'loadedTime': 3506.7000000476837, 'positionName': 'RIGHT', 'positionCoords': [1331.2, 515], 'bid': 6.9}]",13938.600000143051,1669830662715,burrito,roastedpotatoes,7.8,6.9,-0.8999999999999995,burrito,1020.7999999523163,1021,1020.8999998569489,True,u,15474.400000095367,1535.7999999523163,1669830664251,1536,,HRV,HRV_0148,2022-11-30 17:56:07
7,"[{'imgObject': {}, 'id': 'chickenfingers', 'src': '/static/foodstim60/chickenfingers.jpg', 'key': 'u', 'origWidth': 410, 'origHeight': 410, 'width': 410, 'height': 410, 'widthPercent': 0.45, 'rescaleHeight': False, 'trialN': 7, 'loaded': True, 'loadedTime': 3507.300000190735, 'positionName': 'LEFT', 'positionCoords': [818.8, 515], 'bid': 6.36}, {'imgObject': {}, 'id': 'mango', 'src': '/static/foodstim60/mango.jpg', 'key': 'i', 'origWidth': 411, 'origHeight': 411, 'width': 411, 'height': 411, 'widthPercent': 0.45, 'rescaleHeight': False, 'trialN': 7, 'loaded': True, 'loadedTime': 3509.2000000476837, 'positionName': 'RIGHT', 'positionCoords': [1331.2, 514.5], 'bid': 5.65}]",15474.5,1669830664251,chickenfingers,mango,6.36,5.65,-0.71,mango,1329.7000000476837,1330,1329.9000000953674,True,i,17320.5,1846.0,1669830666097,1846,,HRV,HRV_0148,2022-11-30 17:56:07
8,"[{'imgObject': {}, 'id': 'corn cob', 'src': '/static/foodstim60/corn cob.jpg', 'key': 'u', 'origWidth': 411, 'origHeight': 411, 'width': 411, 'height': 411, 'widthPercent': 0.45, 'rescaleHeight': False, 'trialN': 8, 'loaded': True, 'loadedTime': 3531.9000000953674, 'positionName': 'LEFT', 'positionCoords': [817.8, 514.5], 'bid': 5.03}, {'imgObject': {}, 'id': 'salmon', 'src': '/static/foodstim60/salmon.jpg', 'key': 'i', 'origWidth': 410, 'origHeight': 409, 'width': 410, 'height': 409, 'widthPercent': 0.45, 'rescaleHeight': False, 'trialN': 8, 'loaded': True, 'loadedTime': 3487.4000000953674, 'positionName': 'RIGHT', 'positionCoords': [1331.2, 515.5], 'bid': 2.01}]",17320.60000014305,1669830666097,corn cob,salmon,5.03,2.01,-3.0200000000000005,corn cob,1032.7000000476837,1033,1032.7999999523163,True,u,18871.800000190735,1551.2000000476837,1669830667648,1551,,HRV,HRV_0148,2022-11-30 17:56:07
9,"[{'imgObject': {}, 'id': 'bagel plain', 'src': '/static/foodstim60/bagel plain.jpg', 'key': 'u', 'origWidth': 410, 'origHeight': 410, 'width': 410, 'height': 410, 'widthPercent': 0.45, 'rescaleHeight': False, 'trialN': 9, 'loaded': True, 'loadedTime': 3503.5, 'positionName': 'LEFT', 'positionCoords': [818.8, 515], 'bid': 6.390000000000001}, {'imgObject': {}, 'id': 'turkey sandwich', 'src': '/static/foodstim60/turkey sandwich.jpg', 'key': 'i', 'origWidth': 409, 'origHeight': 409, 'width': 409, 'height': 409, 'widthPercent': 0.45, 'rescaleHeight': False, 'trialN': 9, 'loaded': True, 'loadedTime': 3551.600000143051, 'positionName': 'RIGHT', 'positionCoords': [1331.2, 515.5], 'bid': 6.53}]",18871.900000095367,1669830667649,bagel plain,turkey sandwich,6.390000000000001,6.53,0.13999999999999968,turkey sandwich,1116.4000000953674,1116,1116.5999999046326,True,i,20500.800000190735,1628.9000000953674,1669830669277,1628,,HRV,HRV_0148,2022-11-30 17:56:07
10,"[{'imgObject': {}, 'id': 'granola w milk', 'src': '/static/foodstim60/granola w milk.jpg', 'key': 'u', 'origWidth': 410, 'origHeight': 410, 'width': 410, 'height': 410, 'widthPercent': 0.45, 'rescaleHeight': False, 'trialN': 10, 'loaded': True, 'loadedTime': 3568.100000143051, 'positionName': 'LEFT', 'positionCoords': [818.8, 515], 'bid': 5}, {'imgObject': {}, 'id': 'fried eggs', 'src': '/static/foodstim60/fried eggs.jpg', 'key': 'i', 'origWidth': 410, 'origHeight': 410, 'width': 410, 'height': 410, 'widthPercent': 0.45, 'rescaleHeight': False, 'trialN': 10, 'loaded': True, 'loadedTime': 3584, 'positionName': 'RIGHT', 'positionCoords': [1331.2, 515], 'bid': 6.0600000000000005}]",20500.900000095367,1669830669277,granola w milk,fried eggs,5.0,6.0600000000000005,1.0600000000000005,fried eggs,1074.4000000953674,1075,1074.5,True,i,22098.60000014305,1597.7000000476837,1669830670875,1598,,HRV,HRV_0148,2022-11-30 17:56:07
11,"[{'imgObject': {}, 'id': 'popsicles', 'src': '/static/foodstim60/popsicles.jpg', 'key': 'u', 'origWidth': 410, 'origHeight': 410, 'width': 410, 'height': 410, 'widthPercent': 0.45, 'rescaleHeight': False, 'trialN': 11, 'loaded': True, 'loadedTime': 3588.300000190735, 'positionName': 'LEFT', 'positionCoords': [818.8, 515], 'bid': 5.0200000000000005}, {'imgObject': {}, 'id': 'edamame', 'src': '/static/foodstim60/edamame.jpg', 'key': 'i', 'origWidth': 409, 'origHeight': 410, 'width': 409, 'height': 410, 'widthPercent': 0.45, 'rescaleHeight': False, 'trialN': 11, 'loaded': True, 'loadedTime': 3532, 'positionName': 'RIGHT', 'positionCoords': [1331.2, 515], 'bid': 5.28}]",22098.700000047684,1669830670875,popsicles,edamame,5.0200000000000005,5.28,0.2599999999999998,NaN,NaN,NaN,,False,NaN,26107.5,4008.7999999523163,1669830674884,4009,,HRV,HRV_0148,2022-11-30 17:56:07
12,"[{'imgObject': {}, 'id': 'baked potato', 'src': '/static/foodstim60/baked potato.jpg', 'key': 'u', 'origWidth': 409, 'origHeight': 410, 'width': 409, 'height': 410, 'widthPercent': 0.45, 'rescaleHeight': False, 'trialN': 12, 'loaded': True, 'loadedTime': 3501, 'positionName': 'LEFT', 'positionCoords': [819.8, 515], 'bid': 6.44}, {'imgObject': {}, 'id': 'turkeysandwich', 'src': '/static/foodstim60/turkeysandwich.jpg', 'key': 'i', 'origWidth': 409, 'origHeight': 409, 'width': 409, 'height': 409, 'widthPercent': 0.45, 'rescaleHeight': False, 'trialN': 12, 'loaded': True, 'loadedTime': 3595.800000190735, 'positionName': 'RIGHT', 'positionCoords': [1331.2, 515.5], 'bid': 5.84}]",26107.60000014305,1669830674884,baked potato,turkeysandwich,6.44,5.84,-0.6000000000000005,baked potato,2011.7999999523163,2012,2012.0,True,u,28629.700000047684,2522.0999999046326,1669830677406,2522,,HRV,HRV_0148,2022-11-30 17:56:07
13,"[{'imgObject': {}, 'id': 'yogurt no spoon', 'src': '/static/foodstim60/yogurt no spoon.jpg', 'key': 'u', 'origWidth': 411, 'origHeight': 410, 'width': 411, 'height': 410, 'widthPercent': 0.45, 'rescaleHeight': False, 'trialN': 13, 'loaded': True, 'loadedTime': 3647.800000190735, 'positionName': 'LEFT', 'positionCoords': [817.8, 515], 'bid': 5.03}, {'imgObject': {}, 'id': 'rigatoni and sauce', 'src': '/static/foodstim60/rigatoni and sauce.jpg', 'key': 'i', 'origWidth': 410, 'origHeight': 411, 'width': 410, 'height': 411, 'widthPercent': 0.45, 'rescaleHeight': False, 'trialN': 13, 'loaded': True, 'loadedTime': 3607.7000000476837, 'positionName': 'RIGHT', 'positionCoords': [1331.2, 514.5], 'bid': 6.67}]",28629.800000190735,1669830677406,yogurt no spoon,rigatoni and sauce,5.03,6.67,1.6399999999999997,rigatoni and sauce,1659.5999999046326,1660,1659.6999998092651,True,i,30801.60000014305,2171.7999999523163,1669830679578,2172,,HRV,HRV_0148,2022-11-30 17:56:07
14,"[{'imgObject': {}, 'id': 'avocado', 'src': '/static/foodstim60/avocado.jpg', 'key': 'u', 'origWidth': 409, 'origHeight': 409, 'width': 409, 'height': 409, 'widthPercent': 0.45, 'rescaleHeight': False, 'trialN': 14, 'loaded': True, 'loadedTime': 3668.100000143051, 'positionName': 'LEFT', 'positionCoords': [819.8, 515.5], 'bid': 0.06}, {'imgObject': {}, 'id': 'cocktailshrimp', 'src': '/static/foodstim60/cocktailshrimp.jpg', 'key': 'i', 'origWidth': 410, 'origHeight': 410, 'width': 410, 'height': 410, 'widthPercent': 0.45, 'rescaleHeight': False, 'trialN': 14, 'loaded': True, 'loadedTime': 3615.9000000953674, 'positionName': 'RIGHT', 'positionCoords': [1331.2, 515], 'bid': 0.15}]",30801.60000014305,1669830679578,avocado,cocktailshrimp,0.06,0.15,0.09,avocado,1603.7000000476837,1604,1603.8999998569489,True,u,32911.300000190735,2109.7000000476837,1669830681688,2110,,HRV,HRV_0148,2022-11-30 17:56:07
15,"[{'imgObject': {}, 'id': 'roastedpotatoes', 'src': '/static/foodstim60/roastedpotatoes.jpg', 'key': 'u', 'origWidth': 409, 'origHeight': 410, 'width': 409, 'height': 410, 'widthPercent': 0.45, 'rescaleHeight': False, 'trialN': 15, 'loaded': True, 'loadedTime': 3506.7000000476837, 'positionName': 'LEFT', 'positionCoords': [819.8, 515], 'bid': 6.9}, {'imgObject': {}, 'id': 'cantaloupe', 'src': '/static/foodstim60/cantaloupe.jpg', 'key': 'i', 'origWidth': 409, 'origHeight': 409, 'width': 409, 'height': 409, 'widthPercent': 0.45, 'rescaleHeight': False, 'trialN': 15, 'loaded': True, 'loadedTime': 3624, 'positionName': 'RIGHT', 'positionCoords': [1331.2, 515.5], 'bid': 5.5}]",32911.40000009537,1669830681688,roastedpotatoes,cantaloupe,6.9,5.5,-1.4000000000000004,roastedpotatoes,1502.9000000953674,1503,1503.0999999046326,True,u,34928.10000014305,2016.7000000476837,1669830683705,2017,,HRV,HRV_0148,2022-11-30 17:56:07
16,"[{'imgObject': {}, 'id': 'hotdog w must', 'src': '/static/foodstim60/hotdog w must.jpg', 'key': 'u', 'origWidth': 409, 'origHeight': 409, 'width': 409, 'height': 409, 'widthPercent': 0.45, 'rescaleHeight': False, 'trialN': 16, 'loaded': True, 'loadedTime': 3627.7000000476837, 'positionName': 'LEFT', 'positionCoords': [819.8, 515.5], 'bid': 7.78}, {'imgObject': {}, 'id': 'burrito', 'src': '/static/foodstim60/burrito.jpg', 'key': 'i', 'origWidth': 410, 'origHeight': 410, 'width': 410, 'height': 410, 'widthPercent': 0.45, 'rescaleHeight': False, 'trialN': 16, 'loaded': True, 'loadedTime': 3505.4000000953674, 'positionName': 'RIGHT', 'positionCoords': [1331.2, 515], 'bid': 7.8}]",34928.200000047684,1669830683705,hotdog w must,burrito,7.78,7.8,0.019999999999999574,burrito,1317.2000000476837,1317,1317.2000000476837,True,i,36758.700000047684,1830.5,1669830685535,1830,,HRV,HRV_0148,2022-11-30 17:56:07
17,"[{'imgObject': {}, 'id': 'granola w milk', 'src': '/static/foodstim60/granola w milk.jpg', 'key': 'u', 'origWidth': 410, 'origHeight': 410, 'width': 410, 'height': 410, 'widthPercent': 0.45, 'rescaleHeight': False, 'trialN': 17, 'loaded': True, 'loadedTime': 3580.100000143051, 'positionName': 'LEFT', 'positionCoords': [818.8, 515], 'bid': 5}, {'imgObject': {}, 'id': 'raisin bran w milk', 'src': '/static/foodstim60/raisin bran w milk.jpg', 'key': 'i', 'origWidth': 411, 'origHeight': 411, 'width': 411, 'height': 411, 'widthPercent': 0.45, 'rescaleHeight': False, 'trialN': 17, 'loaded': True, 'loadedTime': 3651.800000190735, 'positionName': 'RIGHT', 'positionCoords': [1331.2, 514.5], 'bid': 5.0200000000000005}]",36758.800000190735,1669830685535,granola w milk,raisin bran w milk,5.0,5.0200000000000005,0.020000000000000462,raisin bran w milk,1727.5999999046326,1728,1727.6999998092651,True,i,39008.10000014305,2249.2999999523163,1669830687785,2250,,HRV,HRV_0148,2022-11-30 17:56:07
18,"[{'imgObject': {}, 'id': 'cheerios', 'src': '/static/foodstim60/cheerios.jpg', 'key': 'u', 'origWidth': 409, 'origHeight': 410, 'width': 409, 'height': 410, 'widthPercent': 0.45, 'rescaleHeight': False, 'trialN': 18, 'loaded': True, 'loadedTime': 3659.800000190735, 'positionName': 'LEFT', 'positionCoords': [819.8, 515], 'bid': 5.34}, {'imgObject': {}, 'id': 'cherries', 'src': '/static/foodstim60/cherries.jpg', 'key': 'i', 'origWidth': 410, 'origHeight': 411, 'width': 410, 'height': 411, 'widthPercent': 0.45, 'rescaleHeight': False, 'trialN': 18, 'loaded': True, 'loadedTime': 3672.2000000476837, 'positionName': 'RIGHT', 'positionCoords': [1331.2, 514.5], 'bid': 5.28}]",39008.200000047684,1669830687785,cheerios,cherries,5.34,5.28,-0.05999999999999961,cheerios,1247.1000001430511,1247,1247.2999999523163,True,u,40776.60000014305,1768.4000000953674,1669830689553,1768,,HRV,HRV_0148,2022-11-30 17:56:07
19,"[{'imgObject': {}, 'id': 'blackbeanswithrice', 'src': '/static/foodstim60/blackbeanswithrice.jpg', 'key': 'u', 'origWidth': 410, 'origHeight': 410, 'width': 410, 'height': 410, 'widthPercent': 0.45, 'rescaleHeight': False, 'trialN': 19, 'loaded': True, 'loadedTime': 3680.5, 'positionName': 'LEFT', 'positionCoords': [818.8, 515], 'bid': 5.08}, {'imgObject': {}, 'id': 'raspberries', 'src': '/static/foodstim60/raspberries.jpg', 'key': 'i', 'origWidth': 411, 'origHeight': 411, 'width': 411, 'height': 411, 'widthPercent': 0.45, 'rescaleHeight': False, 'trialN': 19, 'loaded': True, 'loadedTime': 3684.600000143051, 'positionName': 'RIGHT', 'positionCoords': [1331.2, 514.5], 'bid': 5.11}]",40776.700000047684,1669830689553,blackbeanswithrice,raspberries,5.08,5.11,0.03000000000000025,blackbeanswithrice,1215.6000001430511,1216,1215.7999999523163,True,u,42514.200000047684,1737.5,1669830691291,1738,,HRV,HRV_0148,2022-11-30 17:56:07
20,"[{'imgObject': {}, 'id': 'eggs', 'src': '/static/foodstim60/eggs.jpg', 'key': 'u', 'origWidth': 409, 'origHeight': 409, 'width': 409, 'height': 409, 'widthPercent': 0.45, 'rescaleHeight': False, 'trialN': 20, 'loaded': True, 'loadedTime': 3510, 'positionName': 'LEFT', 'positionCoords': [819.8, 515.5], 'bid': 5.04}, {'imgObject': {}, 'id': 'lox', 'src': '/static/foodstim60/lox.jpg', 'key': 'i', 'origWidth': 410, 'origHeight': 411, 'width': 410, 'height': 411, 'widthPercent': 0.45, 'rescaleHeight': False, 'trialN': 20, 'loaded': True, 'loadedTime': 3696.7000000476837, 'positionName': 'RIGHT', 'positionCoords': [1331.2, 514.5], 'bid': 0.59}]",42514.200000047684,1669830691291,eggs,lox,5.04,0.59,-4.45,eggs,746.1000001430511,746,746.2999999523163,True,u,43770.700000047684,1256.5,1669830692547,1256,,HRV,HRV_0148,2022-11-30 17:56:07
21,"[{'imgObject': {}, 'id': 'banana', 'src': '/static/foodstim60/banana.jpg', 'key': 'u', 'origWidth': 410, 'origHeight': 410, 'width': 410, 'height': 410, 'widthPercent': 0.45, 'rescaleHeight': False, 'trialN': 21, 'loaded': True, 'loadedTime': 3701.100000143051, 'positionName': 'LEFT', 'positionCoords': [818.8, 515], 'bid': 5.3500000000000005}, {'imgObject': {}, 'id': 'raspberries', 'src': '/static/foodstim60/raspberries.jpg', 'key': 'i', 'origWidth': 411, 'origHeight': 411, 'width': 411, 'height': 411, 'widthPercent': 0.45, 'rescaleHeight': False, 'trialN': 21, 'loaded': True, 'loadedTime': 3685.100000143051, 'positionName': 'RIGHT', 'positionCoords': [1331.2, 514.5], 'bid': 5.11}]",43770.800000190735,1669830692547,banana,raspberries,5.3500000000000005,5.11,-0.2400000000000002,raspberries,1156.5,1157,1156.5999999046326,True,i,45446.10000014305,1675.2999999523163,1669830694223,1676,,HRV,HRV_0148,2022-11-30 17:56:07
22,"[{'imgObject': {}, 'id': 'tacos', 'src': '/static/foodstim60/tacos.jpg', 'key': 'u', 'origWidth': 411, 'origHeight': 411, 'width': 411, 'height': 411, 'widthPercent': 0.45, 'rescaleHeight': False, 'trialN': 22, 'loaded': True, 'loadedTime': 3704.800000190735, 'positionName': 'LEFT', 'positionCoords': [817.8, 514.5], 'bid': 7.09}, {'imgObject': {}, 'id': 'fried eggs', 'src': '/static/foodstim60/fried eggs.jpg', 'key': 'i', 'origWidth': 410, 'origHeight': 410, 'width': 410, 'height': 410, 'widthPercent': 0.45, 'rescaleHeight': False, 'trialN': 22, 'loaded': True, 'loadedTime': 3584.5, 'positionName': 'RIGHT', 'positionCoords': [1331.2, 515], 'bid': 6.0600000000000005}]",45446.200000047684,1669830694223,tacos,fried eggs,7.09,6.0600000000000005,-1.0299999999999994,tacos,1648.1000001430511,1648,1648.2999999523163,True,u,47602.5,2156.2999999523163,1669830696379,2156,,HRV,HRV_0148,2022-11-30 17:56:07
23,"[{'imgObject': {}, 'id': 'baked potato', 'src': '/static/foodstim60/baked potato.jpg', 'key': 'u', 'origWidth': 409, 'origHeight': 410, 'width': 409, 'height': 410, 'widthPercent': 0.45, 'rescaleHeight': False, 'trialN': 23, 'loaded': True, 'loadedTime': 3502.600000143051, 'positionName': 'LEFT', 'positionCoords': [819.8, 515], 'bid': 6.44}, {'imgObject': {}, 'id': 'cheerios', 'src': '/static/foodstim60/cheerios.jpg', 'key': 'i', 'origWidth': 409, 'origHeight': 410, 'width': 409, 'height': 410, 'widthPercent': 0.45, 'rescaleHeight': False, 'trialN': 23, 'loaded': True, 'loadedTime': 3664, 'positionName': 'RIGHT', 'positionCoords': [1331.2, 515], 'bid': 5.34}]",47602.60000014305,1669830696379,baked potato,cheerios,6.44,5.34,-1.1000000000000005,baked potato,939.7999999523163,940,939.8999998569489,True,u,49060.700000047684,1458.0999999046326,1669830697837,1458,,HRV,HRV_0148,2022-11-30 17:56:07
24,"[{'imgObject': {}, 'id': 'banana', 'src': '/static/foodstim60/banana.jpg', 'key': 'u', 'origWidth': 410, 'origHeight': 410, 'width': 410, 'height': 410, 'widthPercent': 0.45, 'rescaleHeight': False, 'trialN': 24, 'loaded': True, 'loadedTime': 3700.7000000476837, 'positionName': 'LEFT', 'positionCoords': [818.8, 515], 'bid': 5.3500000000000005}, {'imgObject': {}, 'id': 'cherry tomato', 'src': '/static/foodstim60/cherry tomato.jpg', 'key': 'i', 'origWidth': 410, 'origHeight': 410, 'width': 410, 'height': 410, 'widthPercent': 0.45, 'rescaleHeight': False, 'trialN': 24, 'loaded': True, 'loadedTime': 3717.300000190735, 'positionName': 'RIGHT', 'positionCoords': [1331.2, 515], 'bid': 0.14}]",49060.800000190735,1669830697837,banana,cherry tomato,5.3500000000000005,0.14,-5.210000000000001,banana,928.5,929,928.5999999046326,True,u,50503.5,1442.6999998092651,1669830699280,1443,,HRV,HRV_0148,2022-11-30 17:56:07
25,"[{'imgObject': {}, 'id': 'chicken nuggets2', 'src': '/static/foodstim60/chicken nuggets2.jpg', 'key': 'u', 'origWidth': 410, 'origHeight': 409, 'width': 410, 'height': 409, 'widthPercent': 0.45, 'rescaleHeight': False, 'trialN': 25, 'loaded': True, 'loadedTime': 3721.100000143051, 'positionName': 'LEFT', 'positionCoords': [818.8, 515.5], 'bid': 7.48}, {'imgObject': {}, 'id': 'tacos', 'src': '/static/foodstim60/tacos.jpg', 'key': 'i', 'origWidth': 411, 'origHeight': 411, 'width': 411, 'height': 411, 'widthPercent': 0.45, 'rescaleHeight': False, 'trialN': 25, 'loaded': True, 'loadedTime': 3705.5, 'positionName': 'RIGHT', 'positionCoords': [1331.2, 514.5], 'bid': 7.09}]",50503.60000014305,1669830699280,chicken nuggets2,tacos,7.48,7.09,-0.39000000000000057,chicken nuggets2,1158.7000000476837,1159,1158.8999998569489,True,u,52163.40000009537,1659.7999999523163,1669830700940,1660,,HRV,HRV_0148,2022-11-30 17:56:07
26,"[{'imgObject': {}, 'id': 'raspberries', 'src': '/static/foodstim60/raspberries.jpg', 'key': 'u', 'origWidth': 411, 'origHeight': 411, 'width': 411, 'height': 411, 'widthPercent': 0.45, 'rescaleHeight': False, 'trialN': 26, 'loaded': True, 'loadedTime': 3685, 'positionName': 'LEFT', 'positionCoords': [817.8, 514.5], 'bid': 5.11}, {'imgObject': {}, 'id': 'roastedpotatoes', 'src': '/static/foodstim60/roastedpotatoes.jpg', 'key': 'i', 'origWidth': 409, 'origHeight': 410, 'width': 409, 'height': 410, 'widthPercent': 0.45, 'rescaleHeight': False, 'trialN': 26, 'loaded': True, 'loadedTime': 3505.7000000476837, 'positionName': 'RIGHT', 'positionCoords': [1331.2, 515], 'bid': 6.9}]",52163.40000009537,1669830700940,raspberries,roastedpotatoes,5.11,6.9,1.79,roastedpotatoes,1150.9000000953674,1151,1151.0,True,i,53823.300000190735,1659.9000000953674,1669830702600,1660,,HRV,HRV_0148,2022-11-30 17:56:07
27,"[{'imgObject': {}, 'id': 'sushi w_condiments', 'src': '/static/foodstim60/sushi w_condiments.jpg', 'key': 'u', 'origWidth': 410, 'origHeight': 410, 'width': 410, 'height': 410, 'widthPercent': 0.45, 'rescaleHeight': False, 'trialN': 27, 'loaded': True, 'loadedTime': 3721.5, 'positionName': 'LEFT', 'positionCoords': [818.8, 515], 'bid': 0.91}, {'imgObject': {}, 'id': 'froot loops w milk', 'src': '/static/foodstim60/froot loops w milk.jpg', 'key': 'i', 'origWidth': 410, 'origHeight': 410, 'width': 410, 'height': 410, 'widthPercent': 0.45, 'rescaleHeight': False, 'trialN': 27, 'loaded': True, 'loadedTime': 3729.7000000476837, 'positionName': 'RIGHT', 'positionCoords': [1331.2, 515], 'bid': 5.03}]",53823.40000009537,1669830702600,sushi w_condiments,froot loops w milk,0.91,5.03,4.12,froot loops w milk,1294.9000000953674,1295,1295.0999999046326,True,i,55638.40000009537,1815.0,1669830704415,1815,,HRV,HRV_0148,2022-11-30 17:56:07
28,"[{'imgObject': {}, 'id': 'sushi w_condiments', 'src': '/static/foodstim60/sushi w_condiments.jpg', 'key': 'u', 'origWidth': 410, 'origHeight': 410, 'width': 410, 'height': 410, 'widthPercent': 0.45, 'rescaleHeight': False, 'trialN': 28, 'loaded': True, 'loadedTime': 3725, 'positionName': 'LEFT', 'positionCoords': [818.8, 515], 'bid': 0.91}, {'imgObject': {}, 'id': 'fruitsalad', 'src': '/static/foodstim60/fruitsalad.jpg', 'key': 'i', 'origWidth': 410, 'origHeight': 410, 'width': 410, 'height': 410, 'widthPercent': 0.45, 'rescaleHeight': False, 'trialN': 28, 'loaded': True, 'loadedTime': 3730.4000000953674, 'positionName': 'RIGHT', 'positionCoords': [1331.2, 515], 'bid': 5.5}]",55638.5,1669830704415,sushi w_condiments,fruitsalad,0.91,5.5,4.59,fruitsalad,663.8000001907349,664,664.0,True,i,56817.40000009537,1178.9000000953674,1669830705594,1179,,HRV,HRV_0148,2022-11-30 17:56:07
29,"[{'imgObject': {}, 'id': 'rigatoni', 'src': '/static/foodstim60/rigatoni.jpg', 'key': 'u', 'origWidth': 411, 'origHeight': 411, 'width': 411, 'height': 411, 'widthPercent': 0.45, 'rescaleHeight': False, 'trialN': 29, 'loaded': True, 'loadedTime': 3741.9000000953674, 'positionName': 'LEFT', 'positionCoords': [817.8, 514.5], 'bid': 5}, {'imgObject': {}, 'id': 'Grapes', 'src': '/static/foodstim60/Grapes.jpg', 'key': 'i', 'origWidth': 411, 'origHeight': 411, 'width': 411, 'height': 411, 'widthPercent': 0.45, 'rescaleHeight': False, 'trialN': 29, 'loaded': True, 'loadedTime': 3749.7000000476837, 'positionName': 'RIGHT', 'positionCoords': [1331.2, 514.5], 'bid': 4.96}]",56817.5,1669830705594,rigatoni,Grapes,5.0,4.96,-0.040000000000000036,rigatoni,1004.8000001907349,1005,1004.9000000953674,True,u,58337.700000047684,1520.2000000476837,1669830707114,1520,,HRV,HRV_0148,2022-11-30 17:56:07
30,"[{'imgObject': {}, 'id': 'cocktailshrimp', 'src': '/static/foodstim60/cocktailshrimp.jpg', 'key': 'u', 'origWidth': 410, 'origHeight': 410, 'width': 410, 'height': 410, 'widthPercent': 0.45, 'rescaleHeight': False, 'trialN': 30, 'loaded': True, 'loadedTime': 3611.9000000953674, 'positionName': 'LEFT', 'positionCoords': [818.8, 515], 'bid': 0.15}, {'imgObject': {}, 'id': 'mashed potato', 'src': '/static/foodstim60/mashed potato.jpg', 'key': 'i', 'origWidth': 409, 'origHeight': 409, 'width': 409, 'height': 409, 'widthPercent': 0.45, 'rescaleHeight': False, 'trialN': 30, 'loaded': True, 'loadedTime': 3754.100000143051, 'positionName': 'RIGHT', 'positionCoords': [1331.2, 515.5], 'bid': 4.91}]",58337.800000190735,1669830707114,cocktailshrimp,mashed potato,0.15,4.91,4.76,mashed potato,1547.6999998092651,1548,1547.8999998569489,True,i,60401.0,2063.199999809265,1669830709178,2064,,HRV,HRV_0148,2022-11-30 17:56:07
31,"[{'imgObject': {}, 'id': 'chicken nuggets2', 'src': '/static/foodstim60/chicken nuggets2.jpg', 'key': 'u', 'origWidth': 410, 'origHeight': 409, 'width': 410, 'height': 409, 'widthPercent': 0.45, 'rescaleHeight': False, 'trialN': 31, 'loaded': True, 'loadedTime': 3721.2000000476837, 'positionName': 'LEFT', 'positionCoords': [818.8, 515.5], 'bid': 7.48}, {'imgObject': {}, 'id': 'strawberries', 'src': '/static/foodstim60/strawberries.jpg', 'key': 'i', 'origWidth': 410, 'origHeight': 410, 'width': 410, 'height': 410, 'widthPercent': 0.45, 'rescaleHeight': False, 'trialN': 31, 'loaded': True, 'loadedTime': 3762.100000143051, 'positionName': 'RIGHT', 'positionCoords': [1331.2, 515], 'bid': 5.74}]",60401.10000014305,1669830709178,chicken nuggets2,strawberries,7.48,5.74,-1.7400000000000002,chicken nuggets2,785.2999999523163,785,785.3999998569489,True,u,61704.10000014305,1303.0,1669830710481,1303,,HRV,HRV_0148,2022-11-30 17:56:07
32,"[{'imgObject': {}, 'id': 'chicken nuggets2', 'src': '/static/foodstim60/chicken nuggets2.jpg', 'key': 'u', 'origWidth': 410, 'origHeight': 409, 'width': 410, 'height': 409, 'widthPercent': 0.45, 'rescaleHeight': False, 'trialN': 32, 'loaded': True, 'loadedTime': 3721.4000000953674, 'positionName': 'LEFT', 'positionCoords': [818.8, 515.5], 'bid': 7.48}, {'imgObject': {}, 'id': 'chickenfingers', 'src': '/static/foodstim60/chickenfingers.jpg', 'key': 'i', 'origWidth': 410, 'origHeight': 410, 'width': 410, 'height': 410, 'widthPercent': 0.45, 'rescaleHeight': False, 'trialN': 32, 'loaded': True, 'loadedTime': 3506.800000190735, 'positionName': 'RIGHT', 'positionCoords': [1331.2, 515], 'bid': 6.36}]",61704.200000047684,1669830710481,chicken nuggets2,chickenfingers,7.48,6.36,-1.12,chicken nuggets2,526.1000001430511,526,526.2000000476837,True,u,62743.5,1039.2999999523163,1669830711520,1039,,HRV,HRV_0148,2022-11-30 17:56:07
33,"[{'imgObject': {}, 'id': 'pear', 'src': '/static/foodstim60/pear.jpg', 'key': 'u', 'origWidth': 411, 'origHeight': 410, 'width': 411, 'height': 410, 'widthPercent': 0.45, 'rescaleHeight': False, 'trialN': 33, 'loaded': True, 'loadedTime': 3763.5, 'positionName': 'LEFT', 'positionCoords': [817.8, 515], 'bid': 5.2700000000000005}, {'imgObject': {}, 'id': 'orange slices', 'src': '/static/foodstim60/orange slices.jpg', 'key': 'i', 'origWidth': 409, 'origHeight': 410, 'width': 409, 'height': 410, 'widthPercent': 0.45, 'rescaleHeight': False, 'trialN': 33, 'loaded': True, 'loadedTime': 3771.5, 'positionName': 'RIGHT', 'positionCoords': [1331.2, 515], 'bid': 5.26}]",62743.5,1669830711520,pear,orange slices,5.2700000000000005,5.26,-0.010000000000000675,orange slices,1414.9000000953674,1415,1414.9000000953674,True,i,64667.10000014305,1923.6000001430511,1669830713444,1924,,HRV,HRV_0148,2022-11-30 17:56:07
34,"[{'imgObject': {}, 'id': 'sweetpotato', 'src': '/static/foodstim60/sweetpotato.jpg', 'key': 'u', 'origWidth': 410, 'origHeight': 410, 'width': 410, 'height': 410, 'widthPercent': 0.45, 'rescaleHeight': False, 'trialN': 34, 'loaded': True, 'loadedTime': 3783.9000000953674, 'positionName': 'LEFT', 'positionCoords': [818.8, 515], 'bid': 5.13}, {'imgObject': {}, 'id': 'blackbeanswithrice', 'src': '/static/foodstim60/blackbeanswithrice.jpg', 'key': 'i', 'origWidth': 410, 'origHeight': 410, 'width': 410, 'height': 410, 'widthPercent': 0.45, 'rescaleHeight': False, 'trialN': 34, 'loaded': True, 'loadedTime': 3680.600000143051, 'positionName': 'RIGHT', 'positionCoords': [1331.2, 515], 'bid': 5.08}]",64667.300000190735,1669830713444,sweetpotato,blackbeanswithrice,5.13,5.08,-0.04999999999999982,blackbeanswithrice,831,831,831.1999998092651,True,i,66016.80000019073,1349.5,1669830714793,1349,,HRV,HRV_0148,2022-11-30 17:56:07
35,"[{'imgObject': {}, 'id': 'pear', 'src': '/static/foodstim60/pear.jpg', 'key': 'u', 'origWidth': 411, 'origHeight': 410, 'width': 411, 'height': 410, 'widthPercent': 0.45, 'rescaleHeight': False, 'trialN': 35, 'loaded': True, 'loadedTime': 3766.7000000476837, 'positionName': 'LEFT', 'positionCoords': [817.8, 515], 'bid': 5.2700000000000005}, {'imgObject': {}, 'id': 'salad w chicken', 'src': '/static/foodstim60/salad w chicken.jpg', 'key': 'i', 'origWidth': 411, 'origHeight': 411, 'width': 411, 'height': 411, 'widthPercent': 0.45, 'rescaleHeight': False, 'trialN': 35, 'loaded': True, 'loadedTime': 3788.5, 'positionName': 'RIGHT', 'positionCoords': [1331.2, 514.5], 'bid': 7.640000000000001}]",66016.90000009537,1669830714794,pear,salad w chicken,5.2700000000000005,7.640000000000001,2.37,salad w chicken,815.2999999523163,815,815.5,True,i,67350.90000009537,1334.0,1669830716128,1334,,HRV,HRV_0148,2022-11-30 17:56:07
36,"[{'imgObject': {}, 'id': 'eggs', 'src': '/static/foodstim60/eggs.jpg', 'key': 'u', 'origWidth': 409, 'origHeight': 409, 'width': 409, 'height': 409, 'widthPercent': 0.45, 'rescaleHeight': False, 'trialN': 36, 'loaded': True, 'loadedTime': 3511.5, 'positionName': 'LEFT', 'positionCoords': [819.8, 515.5], 'bid': 5.04}, {'imgObject': {}, 'id': 'raisin bran w milk', 'src': '/static/foodstim60/raisin bran w milk.jpg', 'key': 'i', 'origWidth': 411, 'origHeight': 411, 'width': 411, 'height': 411, 'widthPercent': 0.45, 'rescaleHeight': False, 'trialN': 36, 'loaded': True, 'loadedTime': 3651.7000000476837, 'positionName': 'RIGHT', 'positionCoords': [1331.2, 514.5], 'bid': 5.0200000000000005}]",67351.0,1669830716128,eggs,raisin bran w milk,5.04,5.0200000000000005,-0.019999999999999574,eggs,1036.3000001907349,1036,1036.4000000953674,True,u,68902.30000019073,1551.3000001907349,1669830717679,1551,,HRV,HRV_0148,2022-11-30 17:56:07
37,"[{'imgObject': {}, 'id': 'edamame', 'src': '/static/foodstim60/edamame.jpg', 'key': 'u', 'origWidth': 409, 'origHeight': 410, 'width': 409, 'height': 410, 'widthPercent': 0.45, 'rescaleHeight': False, 'trialN': 37, 'loaded': True, 'loadedTime': 3535.7000000476837, 'positionName': 'LEFT', 'positionCoords': [819.8, 515], 'bid': 5.28}, {'imgObject': {}, 'id': 'turkeysandwich', 'src': '/static/foodstim60/turkeysandwich.jpg', 'key': 'i', 'origWidth': 409, 'origHeight': 409, 'width': 409, 'height': 409, 'widthPercent': 0.45, 'rescaleHeight': False, 'trialN': 37, 'loaded': True, 'loadedTime': 3603.800000190735, 'positionName': 'RIGHT', 'positionCoords': [1331.2, 515.5], 'bid': 5.84}]",68902.30000019073,1669830717679,edamame,turkeysandwich,5.28,5.84,0.5599999999999996,turkeysandwich,1593.0999999046326,1593,1593.1999998092651,True,i,71012.10000014305,2109.7999999523163,1669830719789,2110,,HRV,HRV_0148,2022-11-30 17:56:07
38,"[{'imgObject': {}, 'id': 'mango', 'src': '/static/foodstim60/mango.jpg', 'key': 'u', 'origWidth': 411, 'origHeight': 411, 'width': 411, 'height': 411, 'widthPercent': 0.45, 'rescaleHeight': False, 'trialN': 38, 'loaded': True, 'loadedTime': 3509.4000000953674, 'positionName': 'LEFT', 'positionCoords': [817.8, 514.5], 'bid': 5.65}, {'imgObject': {}, 'id': 'veggieswithdip', 'src': '/static/foodstim60/veggieswithdip.jpg', 'key': 'i', 'origWidth': 409, 'origHeight': 409, 'width': 409, 'height': 409, 'widthPercent': 0.45, 'rescaleHeight': False, 'trialN': 38, 'loaded': True, 'loadedTime': 3792.7000000476837, 'positionName': 'RIGHT', 'positionCoords': [1331.2, 515.5], 'bid': 4.42}]",71012.20000004768,1669830719789,mango,veggieswithdip,5.65,4.42,-1.2300000000000004,mango,851.1000001430511,851,851.2999999523163,True,u,72377.30000019073,1365.1000001430511,1669830721154,1365,,HRV,HRV_0148,2022-11-30 17:56:07
39,"[{'imgObject': {}, 'id': 'cherries', 'src': '/static/foodstim60/cherries.jpg', 'key': 'u', 'origWidth': 410, 'origHeight': 411, 'width': 410, 'height': 411, 'widthPercent': 0.45, 'rescaleHeight': False, 'trialN': 39, 'loaded': True, 'loadedTime': 3676.2000000476837, 'positionName': 'LEFT', 'positionCoords': [818.8, 514.5], 'bid': 5.28}, {'imgObject': {}, 'id': 'blueberries', 'src': '/static/foodstim60/blueberries.jpg', 'key': 'i', 'origWidth': 411, 'origHeight': 411, 'width': 411, 'height': 411, 'widthPercent': 0.45, 'rescaleHeight': False, 'trialN': 39, 'loaded': True, 'loadedTime': 3793.300000190735, 'positionName': 'RIGHT', 'positionCoords': [1331.2, 514.5], 'bid': 5.44}]",72377.40000009537,1669830721154,cherries,blueberries,5.28,5.44,0.16000000000000014,cherries,850.9000000953674,851,851.0999999046326,True,u,73742.40000009537,1365.0,1669830722519,1365,,HRV,HRV_0148,2022-11-30 17:56:07
40,"[{'imgObject': {}, 'id': 'baked potato', 'src': '/static/foodstim60/baked potato.jpg', 'key': 'u', 'origWidth': 409, 'origHeight': 410, 'width': 409, 'height': 410, 'widthPercent': 0.45, 'rescaleHeight': False, 'trialN': 40, 'loaded': True, 'loadedTime': 3502, 'positionName': 'LEFT', 'positionCoords': [819.8, 515], 'bid': 6.44}, {'imgObject': {}, 'id': 'rigatoni and sauce', 'src': '/static/foodstim60/rigatoni and sauce.jpg', 'key': 'i', 'origWidth': 410, 'origHeight': 411, 'width': 410, 'height': 411, 'widthPercent': 0.45, 'rescaleHeight': False, 'trialN': 40, 'loaded': True, 'loadedTime': 3607.800000190735, 'positionName': 'RIGHT', 'positionCoords': [1331.2, 514.5], 'bid': 6.67}]",73742.5,1669830722519,baked potato,rigatoni and sauce,6.44,6.67,0.22999999999999954,rigatoni and sauce,1329.8000001907349,1330,1330.0,True,i,75588.60000014305,1846.1000001430511,1669830724365,1846,,HRV,HRV_0148,2022-11-30 17:56:07
41,"[{'imgObject': {}, 'id': 'cherry tomato', 'src': '/static/foodstim60/cherry tomato.jpg', 'key': 'u', 'origWidth': 410, 'origHeight': 410, 'width': 410, 'height': 410, 'widthPercent': 0.45, 'rescaleHeight': False, 'trialN': 41, 'loaded': True, 'loadedTime': 3713.100000143051, 'positionName': 'LEFT', 'positionCoords': [818.8, 515], 'bid': 0.14}, {'imgObject': {}, 'id': 'rigatoni', 'src': '/static/foodstim60/rigatoni.jpg', 'key': 'i', 'origWidth': 411, 'origHeight': 411, 'width': 411, 'height': 411, 'widthPercent': 0.45, 'rescaleHeight': False, 'trialN': 41, 'loaded': True, 'loadedTime': 3745.800000190735, 'positionName': 'RIGHT', 'positionCoords': [1331.2, 514.5], 'bid': 5}]",75588.60000014305,1669830724365,cherry tomato,rigatoni,0.14,5.0,4.86,rigatoni,685.7000000476837,686,685.8999998569489,True,i,76783.0,1194.3999998569489,1669830725560,1195,,HRV,HRV_0148,2022-11-30 17:56:07
42,"[{'imgObject': {}, 'id': 'bagel and cc', 'src': '/static/foodstim60/bagel and cc.jpg', 'key': 'u', 'origWidth': 410, 'origHeight': 410, 'width': 410, 'height': 410, 'widthPercent': 0.45, 'rescaleHeight': False, 'trialN': 42, 'loaded': True, 'loadedTime': 3801.600000143051, 'positionName': 'LEFT', 'positionCoords': [818.8, 515], 'bid': 6}, {'imgObject': {}, 'id': 'salad w chicken', 'src': '/static/foodstim60/salad w chicken.jpg', 'key': 'i', 'origWidth': 411, 'origHeight': 411, 'width': 411, 'height': 411, 'widthPercent': 0.45, 'rescaleHeight': False, 'trialN': 42, 'loaded': True, 'loadedTime': 3788.5, 'positionName': 'RIGHT', 'positionCoords': [1331.2, 514.5], 'bid': 7.640000000000001}]",76783.10000014305,1669830725560,bagel and cc,salad w chicken,6.0,7.640000000000001,1.6400000000000006,salad w chicken,683.2000000476837,683,683.3999998569489,True,i,77977.60000014305,1194.5,1669830726754,1194,,HRV,HRV_0148,2022-11-30 17:56:07
43,"[{'imgObject': {}, 'id': 'edamame', 'src': '/static/foodstim60/edamame.jpg', 'key': 'u', 'origWidth': 409, 'origHeight': 410, 'width': 409, 'height': 410, 'widthPercent': 0.45, 'rescaleHeight': False, 'trialN': 43, 'loaded': True, 'loadedTime': 3543.600000143051, 'positionName': 'LEFT', 'positionCoords': [819.8, 515], 'bid': 5.28}, {'imgObject': {}, 'id': 'banana', 'src': '/static/foodstim60/banana.jpg', 'key': 'i', 'origWidth': 410, 'origHeight': 410, 'width': 410, 'height': 410, 'widthPercent': 0.45, 'rescaleHeight': False, 'trialN': 43, 'loaded': True, 'loadedTime': 3701.2000000476837, 'positionName': 'RIGHT', 'positionCoords': [1331.2, 515], 'bid': 5.3500000000000005}]",77977.70000004768,1669830726754,edamame,banana,5.28,5.3500000000000005,0.07000000000000028,edamame,1548.7000000476837,1549,1548.7999999523163,True,u,80040.90000009537,2063.2000000476837,1669830728817,2063,,HRV,HRV_0148,2022-11-30 17:56:07
44,"[{'imgObject': {}, 'id': 'hotdog w must', 'src': '/static/foodstim60/hotdog w must.jpg', 'key': 'u', 'origWidth': 409, 'origHeight': 409, 'width': 409, 'height': 409, 'widthPercent': 0.45, 'rescaleHeight': False, 'trialN': 44, 'loaded': True, 'loadedTime': 3635.7000000476837, 'positionName': 'LEFT', 'positionCoords': [819.8, 515.5], 'bid': 7.78}, {'imgObject': {}, 'id': 'turkey sandwich', 'src': '/static/foodstim60/turkey sandwich.jpg', 'key': 'i', 'origWidth': 409, 'origHeight': 409, 'width': 409, 'height': 409, 'widthPercent': 0.45, 'rescaleHeight': False, 'trialN': 44, 'loaded': True, 'loadedTime': 3555.7000000476837, 'positionName': 'RIGHT', 'positionCoords': [1331.2, 515.5], 'bid': 6.53}]",80040.90000009537,1669830728818,hotdog w must,turkey sandwich,7.78,6.53,-1.25,hotdog w must,976.7000000476837,976,976.7999999523163,True,u,81530.10000014305,1489.2000000476837,1669830730307,1489,,HRV,HRV_0148,2022-11-30 17:56:07
45,"[{'imgObject': {}, 'id': 'burrito', 'src': '/static/foodstim60/burrito.jpg', 'key': 'u', 'origWidth': 410, 'origHeight': 410, 'width': 410, 'height': 410, 'widthPercent': 0.45, 'rescaleHeight': False, 'trialN': 45, 'loaded': True, 'loadedTime': 3505.5, 'positionName': 'LEFT', 'positionCoords': [818.8, 515], 'bid': 7.8}, {'imgObject': {}, 'id': 'omelette', 'src': '/static/foodstim60/omelette.jpg', 'key': 'i', 'origWidth': 410, 'origHeight': 409, 'width': 410, 'height': 409, 'widthPercent': 0.45, 'rescaleHeight': False, 'trialN': 45, 'loaded': True, 'loadedTime': 3802.2000000476837, 'positionName': 'RIGHT', 'positionCoords': [1331.2, 515.5], 'bid': 5.28}]",81530.30000019073,1669830730307,burrito,omelette,7.8,5.28,-2.5199999999999996,burrito,1712,1712,1712.0999999046326,True,u,83748.60000014305,2218.2999999523163,1669830732525,2218,,HRV,HRV_0148,2022-11-30 17:56:07
46,"[{'imgObject': {}, 'id': 'veggieswithdip', 'src': '/static/foodstim60/veggieswithdip.jpg', 'key': 'u', 'origWidth': 409, 'origHeight': 409, 'width': 409, 'height': 409, 'widthPercent': 0.45, 'rescaleHeight': False, 'trialN': 46, 'loaded': True, 'loadedTime': 3792.600000143051, 'positionName': 'LEFT', 'positionCoords': [819.8, 515.5], 'bid': 4.42}, {'imgObject': {}, 'id': 'salmon', 'src': '/static/foodstim60/salmon.jpg', 'key': 'i', 'origWidth': 410, 'origHeight': 409, 'width': 410, 'height': 409, 'widthPercent': 0.45, 'rescaleHeight': False, 'trialN': 46, 'loaded': True, 'loadedTime': 3492.600000143051, 'positionName': 'RIGHT', 'positionCoords': [1331.2, 515.5], 'bid': 2.01}]",83748.60000014305,1669830732525,veggieswithdip,salmon,4.42,2.01,-2.41,salmon,985.7000000476837,986,985.7999999523163,True,i,85237.80000019073,1489.2000000476837,1669830734014,1489,,HRV,HRV_0148,2022-11-30 17:56:07
47,"[{'imgObject': {}, 'id': 'raspberries', 'src': '/static/foodstim60/raspberries.jpg', 'key': 'u', 'origWidth': 411, 'origHeight': 411, 'width': 411, 'height': 411, 'widthPercent': 0.45, 'rescaleHeight': False, 'trialN': 47, 'loaded': True, 'loadedTime': 3685.100000143051, 'positionName': 'LEFT', 'positionCoords': [817.8, 514.5], 'bid': 5.11}, {'imgObject': {}, 'id': 'eggsalad', 'src': '/static/foodstim60/eggsalad.jpg', 'key': 'i', 'origWidth': 410, 'origHeight': 409, 'width': 410, 'height': 409, 'widthPercent': 0.45, 'rescaleHeight': False, 'trialN': 47, 'loaded': True, 'loadedTime': 3635.9000000953674, 'positionName': 'RIGHT', 'positionCoords': [1331.2, 515.5], 'bid': 5.18}]",85237.90000009537,1669830734015,raspberries,eggsalad,5.11,5.18,0.0699999999999994,eggsalad,1909.2999999523163,1909,1909.7000000476837,True,i,87657.80000019073,2419.9000000953674,1669830736434,2419,,HRV,HRV_0148,2022-11-30 17:56:07
48,"[{'imgObject': {}, 'id': 'cherries', 'src': '/static/foodstim60/cherries.jpg', 'key': 'u', 'origWidth': 410, 'origHeight': 411, 'width': 410, 'height': 411, 'widthPercent': 0.45, 'rescaleHeight': False, 'trialN': 48, 'loaded': True, 'loadedTime': 3676.4000000953674, 'positionName': 'LEFT', 'positionCoords': [818.8, 514.5], 'bid': 5.28}, {'imgObject': {}, 'id': 'edamame', 'src': '/static/foodstim60/edamame.jpg', 'key': 'i', 'origWidth': 409, 'origHeight': 410, 'width': 409, 'height': 410, 'widthPercent': 0.45, 'rescaleHeight': False, 'trialN': 48, 'loaded': True, 'loadedTime': 3539.7000000476837, 'positionName': 'RIGHT', 'positionCoords': [1331.2, 515], 'bid': 5.28}]",87657.90000009537,1669830736435,cherries,edamame,5.28,5.28,0.0,edamame,722.4000000953674,722,722.5,True,i,88883.40000009537,1225.5,1669830737660,1225,,HRV,HRV_0148,2022-11-30 17:56:07
49,"[{'imgObject': {}, 'id': 'rigatoni and sauce', 'src': '/static/foodstim60/rigatoni and sauce.jpg', 'key': 'u', 'origWidth': 410, 'origHeight': 411, 'width': 410, 'height': 411, 'widthPercent': 0.45, 'rescaleHeight': False, 'trialN': 49, 'loaded': True, 'loadedTime': 3607.800000190735, 'positionName': 'LEFT', 'positionCoords': [818.8, 514.5], 'bid': 6.67}, {'imgObject': {}, 'id': 'turkey sandwich', 'src': '/static/foodstim60/turkey sandwich.jpg', 'key': 'i', 'origWidth': 409, 'origHeight': 409, 'width': 409, 'height': 409, 'widthPercent': 0.45, 'rescaleHeight': False, 'trialN': 49, 'loaded': True, 'loadedTime': 3547.600000143051, 'positionName': 'RIGHT', 'positionCoords': [1331.2, 515.5], 'bid': 6.53}]",88883.5,1669830737660,rigatoni and sauce,turkey sandwich,6.67,6.53,-0.13999999999999968,rigatoni and sauce,951.8000001907349,952,951.9000000953674,True,u,90341.70000004768,1458.2000000476837,1669830739118,1458,,HRV,HRV_0148,2022-11-30 17:56:07
50,"[{'imgObject': {}, 'id': 'strawberries', 'src': '/static/foodstim60/strawberries.jpg', 'key': 'u', 'origWidth': 410, 'origHeight': 410, 'width': 410, 'height': 410, 'widthPercent': 0.45, 'rescaleHeight': False, 'trialN': 50, 'loaded': True, 'loadedTime': 3762.600000143051, 'positionName': 'LEFT', 'positionCoords': [818.8, 515], 'bid': 5.74}, {'imgObject': {}, 'id': 'cantaloupe', 'src': '/static/foodstim60/cantaloupe.jpg', 'key': 'i', 'origWidth': 409, 'origHeight': 409, 'width': 409, 'height': 409, 'widthPercent': 0.45, 'rescaleHeight': False, 'trialN': 50, 'loaded': True, 'loadedTime': 3623.9000000953674, 'positionName': 'RIGHT', 'positionCoords': [1331.2, 515.5], 'bid': 5.5}]",90341.70000004768,1669830739118,strawberries,cantaloupe,5.74,5.5,-0.2400000000000002,cantaloupe,1377.7000000476837,1378,1377.7999999523163,True,i,92234.30000019073,1892.6000001430511,1669830741011,1893,,HRV,HRV_0148,2022-11-30 17:56:07
51,"[{'imgObject': {}, 'id': 'ice cream sundae 002', 'src': '/static/foodstim60/ice cream sundae 002.jpg', 'key': 'u', 'origWidth': 409, 'origHeight': 409, 'width': 409, 'height': 409, 'widthPercent': 0.45, 'rescaleHeight': False, 'trialN': 51, 'loaded': True, 'loadedTime': 3806.2000000476837, 'positionName': 'LEFT', 'positionCoords': [819.8, 515.5], 'bid': 6.7700000000000005}, {'imgObject': {}, 'id': 'blackbeanswithrice', 'src': '/static/foodstim60/blackbeanswithrice.jpg', 'key': 'i', 'origWidth': 410, 'origHeight': 410, 'width': 410, 'height': 410, 'widthPercent': 0.45, 'rescaleHeight': False, 'trialN': 51, 'loaded': True, 'loadedTime': 3676.9000000953674, 'positionName': 'RIGHT', 'positionCoords': [1331.2, 515], 'bid': 5.08}]",92234.40000009537,1669830741011,ice cream sundae 002,blackbeanswithrice,6.7700000000000005,5.08,-1.6900000000000004,ice cream sundae 002,1379.9000000953674,1380,1380.0,True,u,94127.0,1892.5999999046326,1669830742904,1893,,HRV,HRV_0148,2022-11-30 17:56:07
52,"[{'imgObject': {}, 'id': 'yogurt no spoon', 'src': '/static/foodstim60/yogurt no spoon.jpg', 'key': 'u', 'origWidth': 411, 'origHeight': 410, 'width': 411, 'height': 410, 'widthPercent': 0.45, 'rescaleHeight': False, 'trialN': 52, 'loaded': True, 'loadedTime': 3644.5, 'positionName': 'LEFT', 'positionCoords': [817.8, 515], 'bid': 5.03}, {'imgObject': {}, 'id': 'eggs', 'src': '/static/foodstim60/eggs.jpg', 'key': 'i', 'origWidth': 409, 'origHeight': 409, 'width': 409, 'height': 409, 'widthPercent': 0.45, 'rescaleHeight': False, 'trialN': 52, 'loaded': True, 'loadedTime': 3509.5, 'positionName': 'RIGHT', 'positionCoords': [1331.2, 515.5], 'bid': 5.04}]",94127.0,1669830742904,yogurt no spoon,eggs,5.03,5.04,0.009999999999999787,yogurt no spoon,1287.3000001907349,1287,1287.5,True,u,95926.5,1799.5,1669830744703,1799,,HRV,HRV_0148,2022-11-30 17:56:07
53,"[{'imgObject': {}, 'id': 'fruitsalad', 'src': '/static/foodstim60/fruitsalad.jpg', 'key': 'u', 'origWidth': 410, 'origHeight': 410, 'width': 410, 'height': 410, 'widthPercent': 0.45, 'rescaleHeight': False, 'trialN': 53, 'loaded': True, 'loadedTime': 3733.9000000953674, 'positionName': 'LEFT', 'positionCoords': [818.8, 515], 'bid': 5.5}, {'imgObject': {}, 'id': 'blueberries', 'src': '/static/foodstim60/blueberries.jpg', 'key': 'i', 'origWidth': 411, 'origHeight': 411, 'width': 411, 'height': 411, 'widthPercent': 0.45, 'rescaleHeight': False, 'trialN': 53, 'loaded': True, 'loadedTime': 3793.300000190735, 'positionName': 'RIGHT', 'positionCoords': [1331.2, 514.5], 'bid': 5.44}]",95926.5,1669830744703,fruitsalad,blueberries,5.5,5.44,-0.05999999999999961,fruitsalad,1142.9000000953674,1143,1143.0,True,u,97570.90000009537,1644.4000000953674,1669830746348,1645,,HRV,HRV_0148,2022-11-30 17:56:07
54,"[{'imgObject': {}, 'id': 'edamame', 'src': '/static/foodstim60/edamame.jpg', 'key': 'u', 'origWidth': 409, 'origHeight': 410, 'width': 409, 'height': 410, 'widthPercent': 0.45, 'rescaleHeight': False, 'trialN': 54, 'loaded': True, 'loadedTime': 3539.800000190735, 'positionName': 'LEFT', 'positionCoords': [819.8, 515], 'bid': 5.28}, {'imgObject': {}, 'id': 'fruitsalad', 'src': '/static/foodstim60/fruitsalad.jpg', 'key': 'i', 'origWidth': 410, 'origHeight': 410, 'width': 410, 'height': 410, 'widthPercent': 0.45, 'rescaleHeight': False, 'trialN': 54, 'loaded': True, 'loadedTime': 3729.9000000953674, 'positionName': 'RIGHT', 'positionCoords': [1331.2, 515], 'bid': 5.5}]",97570.90000009537,1669830746348,edamame,fruitsalad,5.28,5.5,0.21999999999999975,fruitsalad,1974.2999999523163,1974,1974.5,True,i,100052.5,2481.5999999046326,1669830748829,2481,,HRV,HRV_0148,2022-11-30 17:56:07
55,"[{'imgObject': {}, 'id': 'Tribe humus pita', 'src': '/static/foodstim60/Tribe humus pita.jpg', 'key': 'u', 'origWidth': 411, 'origHeight': 411, 'width': 411, 'height': 411, 'widthPercent': 0.45, 'rescaleHeight': False, 'trialN': 55, 'loaded': True, 'loadedTime': 3810.600000143051, 'positionName': 'LEFT', 'positionCoords': [817.8, 514.5], 'bid': 6.68}, {'imgObject': {}, 'id': 'mac & cheese', 'src': '/static/foodstim60/mac & cheese.jpg', 'key': 'i', 'origWidth': 410, 'origHeight': 410, 'width': 410, 'height': 410, 'widthPercent': 0.45, 'rescaleHeight': False, 'trialN': 55, 'loaded': True, 'loadedTime': 3508.300000190735, 'positionName': 'RIGHT', 'positionCoords': [1331.2, 515], 'bid': 6.72}]",100052.70000004768,1669830748829,Tribe humus pita,mac & cheese,6.68,6.72,0.040000000000000036,mac & cheese,949.5,950,949.7000000476837,True,i,101510.80000019073,1458.1000001430511,1669830750287,1458,,HRV,HRV_0148,2022-11-30 17:56:07
56,"[{'imgObject': {}, 'id': 'yogurt no spoon', 'src': '/static/foodstim60/yogurt no spoon.jpg', 'key': 'u', 'origWidth': 411, 'origHeight': 410, 'width': 411, 'height': 410, 'widthPercent': 0.45, 'rescaleHeight': False, 'trialN': 56, 'loaded': True, 'loadedTime': 3644.600000143051, 'positionName': 'LEFT', 'positionCoords': [817.8, 515], 'bid': 5.03}, {'imgObject': {}, 'id': 'veggieswithdip', 'src': '/static/foodstim60/veggieswithdip.jpg', 'key': 'i', 'origWidth': 409, 'origHeight': 409, 'width': 409, 'height': 409, 'widthPercent': 0.45, 'rescaleHeight': False, 'trialN': 56, 'loaded': True, 'loadedTime': 3792.800000190735, 'positionName': 'RIGHT', 'positionCoords': [1331.2, 515.5], 'bid': 4.42}]",101510.80000019073,1669830750287,yogurt no spoon,veggieswithdip,5.03,4.42,-0.6100000000000003,yogurt no spoon,1314.5999999046326,1315,1314.7999999523163,True,u,103341.40000009537,1830.5999999046326,1669830752118,1831,,HRV,HRV_0148,2022-11-30 17:56:07
57,"[{'imgObject': {}, 'id': 'blackbeanswithrice', 'src': '/static/foodstim60/blackbeanswithrice.jpg', 'key': 'u', 'origWidth': 410, 'origHeight': 410, 'width': 410, 'height': 410, 'widthPercent': 0.45, 'rescaleHeight': False, 'trialN': 57, 'loaded': True, 'loadedTime': 3684.5, 'positionName': 'LEFT', 'positionCoords': [818.8, 515], 'bid': 5.08}, {'imgObject': {}, 'id': 'sushi w_condiments', 'src': '/static/foodstim60/sushi w_condiments.jpg', 'key': 'i', 'origWidth': 410, 'origHeight': 410, 'width': 410, 'height': 410, 'widthPercent': 0.45, 'rescaleHeight': False, 'trialN': 57, 'loaded': True, 'loadedTime': 3725.100000143051, 'positionName': 'RIGHT', 'positionCoords': [1331.2, 515], 'bid': 0.91}]",103341.40000009537,1669830752118,blackbeanswithrice,sushi w_condiments,5.08,0.91,-4.17,blackbeanswithrice,1764.7999999523163,1765,1765.0,True,u,105621.80000019073,2280.4000000953674,1669830754398,2280,,HRV,HRV_0148,2022-11-30 17:56:07
58,"[{'imgObject': {}, 'id': 'granola w milk', 'src': '/static/foodstim60/granola w milk.jpg', 'key': 'u', 'origWidth': 410, 'origHeight': 410, 'width': 410, 'height': 410, 'widthPercent': 0.45, 'rescaleHeight': False, 'trialN': 58, 'loaded': True, 'loadedTime': 3564.600000143051, 'positionName': 'LEFT', 'positionCoords': [818.8, 515], 'bid': 5}, {'imgObject': {}, 'id': 'popsicles', 'src': '/static/foodstim60/popsicles.jpg', 'key': 'i', 'origWidth': 410, 'origHeight': 410, 'width': 410, 'height': 410, 'widthPercent': 0.45, 'rescaleHeight': False, 'trialN': 58, 'loaded': True, 'loadedTime': 3588.7000000476837, 'positionName': 'RIGHT', 'positionCoords': [1331.2, 515], 'bid': 5.0200000000000005}]",105621.90000009537,1669830754399,granola w milk,popsicles,5.0,5.0200000000000005,0.020000000000000462,popsicles,1716.4000000953674,1716,1716.5,True,i,107855.80000019073,2233.9000000953674,1669830756632,2233,,HRV,HRV_0148,2022-11-30 17:56:07
59,"[{'imgObject': {}, 'id': 'tacos', 'src': '/static/foodstim60/tacos.jpg', 'key': 'u', 'origWidth': 411, 'origHeight': 411, 'width': 411, 'height': 411, 'widthPercent': 0.45, 'rescaleHeight': False, 'trialN': 59, 'loaded': True, 'loadedTime': 3713.100000143051, 'positionName': 'LEFT', 'positionCoords': [817.8, 514.5], 'bid': 7.09}, {'imgObject': {}, 'id': 'olives', 'src': '/static/foodstim60/olives.jpg', 'key': 'i', 'origWidth': 410, 'origHeight': 410, 'width': 410, 'height': 410, 'widthPercent': 0.45, 'rescaleHeight': False, 'trialN': 59, 'loaded': True, 'loadedTime': 3811.300000190735, 'positionName': 'RIGHT', 'positionCoords': [1331.2, 515], 'bid': 8.24}]",107855.80000019073,1669830756632,tacos,olives,7.09,8.24,1.1500000000000004,tacos,896.5,897,896.5999999046326,True,u,109253.5,1397.6999998092651,1669830758030,1398,,HRV,HRV_0148,2022-11-30 17:56:07
60,"[{'imgObject': {}, 'id': 'burrito', 'src': '/static/foodstim60/burrito.jpg', 'key': 'u', 'origWidth': 410, 'origHeight': 410, 'width': 410, 'height': 410, 'widthPercent': 0.45, 'rescaleHeight': False, 'trialN': 60, 'loaded': True, 'loadedTime': 3505.5, 'positionName': 'LEFT', 'positionCoords': [818.8, 515], 'bid': 7.8}, {'imgObject': {}, 'id': 'steak', 'src': '/static/foodstim60/steak.jpg', 'key': 'i', 'origWidth': 410, 'origHeight': 410, 'width': 410, 'height': 410, 'widthPercent': 0.45, 'rescaleHeight': False, 'trialN': 60, 'loaded': True, 'loadedTime': 3560.4000000953674, 'positionName': 'RIGHT', 'positionCoords': [1331.2, 515], 'bid': 8.75}]",109253.60000014305,1669830758030,burrito,steak,7.8,8.75,0.9500000000000002,burrito,2512.7999999523163,2513,2513.0,True,u,112277.0,3023.399999856949,1669830761054,3024,,HRV,HRV_0148,2022-11-30 17:56:07
61,"[{'imgObject': {}, 'id': 'grilled chicken strips', 'src': '/static/foodstim60/grilled chicken strips.jpg', 'key': 'u', 'origWidth': 410, 'origHeight': 411, 'width': 410, 'height': 411, 'widthPercent': 0.45, 'rescaleHeight': False, 'trialN': 61, 'loaded': True, 'loadedTime': 3812, 'positionName': 'LEFT', 'positionCoords': [818.8, 514.5], 'bid': 6.01}, {'imgObject': {}, 'id': 'roastedpotatoes', 'src': '/static/foodstim60/roastedpotatoes.jpg', 'key': 'i', 'origWidth': 409, 'origHeight': 410, 'width': 409, 'height': 410, 'widthPercent': 0.45, 'rescaleHeight': False, 'trialN': 61, 'loaded': True, 'loadedTime': 3506.5, 'positionName': 'RIGHT', 'positionCoords': [1331.2, 515], 'bid': 6.9}]",112277.10000014305,1669830761054,grilled chicken strips,roastedpotatoes,6.01,6.9,0.8900000000000006,roastedpotatoes,1688.3999998569489,1688,1688.5,True,i,114479.90000009537,2202.7999999523163,1669830763256,2202,,HRV,HRV_0148,2022-11-30 17:56:07
62,"[{'imgObject': {}, 'id': 'orange slices', 'src': '/static/foodstim60/orange slices.jpg', 'key': 'u', 'origWidth': 409, 'origHeight': 410, 'width': 409, 'height': 410, 'widthPercent': 0.45, 'rescaleHeight': False, 'trialN': 62, 'loaded': True, 'loadedTime': 3775.2000000476837, 'positionName': 'LEFT', 'positionCoords': [819.8, 515], 'bid': 5.26}, {'imgObject': {}, 'id': 'luckycharms', 'src': '/static/foodstim60/luckycharms.jpg', 'key': 'i', 'origWidth': 410, 'origHeight': 409, 'width': 410, 'height': 409, 'widthPercent': 0.45, 'rescaleHeight': False, 'trialN': 62, 'loaded': True, 'loadedTime': 3812.600000143051, 'positionName': 'RIGHT', 'positionCoords': [1331.2, 515.5], 'bid': 4.92}]",114480.0,1669830763256,orange slices,luckycharms,5.26,4.92,-0.33999999999999986,orange slices,941.3000001907349,942,941.4000000953674,True,u,115938.10000014305,1458.1000001430511,1669830764714,1458,,HRV,HRV_0148,2022-11-30 17:56:07
63,"[{'imgObject': {}, 'id': 'Grapes', 'src': '/static/foodstim60/Grapes.jpg', 'key': 'u', 'origWidth': 411, 'origHeight': 411, 'width': 411, 'height': 411, 'widthPercent': 0.45, 'rescaleHeight': False, 'trialN': 63, 'loaded': True, 'loadedTime': 3749.9000000953674, 'positionName': 'LEFT', 'positionCoords': [817.8, 514.5], 'bid': 4.96}, {'imgObject': {}, 'id': 'avocado', 'src': '/static/foodstim60/avocado.jpg', 'key': 'i', 'origWidth': 409, 'origHeight': 409, 'width': 409, 'height': 409, 'widthPercent': 0.45, 'rescaleHeight': False, 'trialN': 63, 'loaded': True, 'loadedTime': 3664.100000143051, 'positionName': 'RIGHT', 'positionCoords': [1331.2, 515.5], 'bid': 0.06}]",115938.20000004768,1669830764715,Grapes,avocado,4.96,0.06,-4.9,Grapes,873.1000001430511,873,873.2000000476837,True,u,117318.90000009537,1380.7000000476837,1669830766095,1380,,HRV,HRV_0148,2022-11-30 17:56:07
64,"[{'imgObject': {}, 'id': 'cocktailshrimp', 'src': '/static/foodstim60/cocktailshrimp.jpg', 'key': 'u', 'origWidth': 410, 'origHeight': 410, 'width': 410, 'height': 410, 'widthPercent': 0.45, 'rescaleHeight': False, 'trialN': 64, 'loaded': True, 'loadedTime': 3619.9000000953674, 'positionName': 'LEFT', 'positionCoords': [818.8, 515], 'bid': 0.15}, {'imgObject': {}, 'id': 'granola w milk', 'src': '/static/foodstim60/granola w milk.jpg', 'key': 'i', 'origWidth': 410, 'origHeight': 410, 'width': 410, 'height': 410, 'widthPercent': 0.45, 'rescaleHeight': False, 'trialN': 64, 'loaded': True, 'loadedTime': 3564.100000143051, 'positionName': 'RIGHT', 'positionCoords': [1331.2, 515], 'bid': 5}]",117319.0,1669830766095,cocktailshrimp,granola w milk,0.15,5.0,4.85,granola w milk,678.3000001907349,679,678.4000000953674,True,i,118513.40000009537,1194.4000000953674,1669830767290,1195,,HRV,HRV_0148,2022-11-30 17:56:07
65,"[{'imgObject': {}, 'id': 'strawberries', 'src': '/static/foodstim60/strawberries.jpg', 'key': 'u', 'origWidth': 410, 'origHeight': 410, 'width': 410, 'height': 410, 'widthPercent': 0.45, 'rescaleHeight': False, 'trialN': 65, 'loaded': True, 'loadedTime': 3762.7000000476837, 'positionName': 'LEFT', 'positionCoords': [818.8, 515], 'bid': 5.74}, {'imgObject': {}, 'id': 'mashed potato', 'src': '/static/foodstim60/mashed potato.jpg', 'key': 'i', 'origWidth': 409, 'origHeight': 409, 'width': 409, 'height': 409, 'widthPercent': 0.45, 'rescaleHeight': False, 'trialN': 65, 'loaded': True, 'loadedTime': 3754.2000000476837, 'positionName': 'RIGHT', 'positionCoords': [1331.2, 515.5], 'bid': 4.91}]",118513.40000009537,1669830767290,strawberries,mashed potato,5.74,4.91,-0.8300000000000001,strawberries,845.9000000953674,846,846.0,True,u,119878.60000014305,1365.2000000476837,1669830768655,1365,,HRV,HRV_0148,2022-11-30 17:56:07
66,"[{'imgObject': {}, 'id': 'sushi w_condiments', 'src': '/static/foodstim60/sushi w_condiments.jpg', 'key': 'u', 'origWidth': 410, 'origHeight': 410, 'width': 410, 'height': 410, 'widthPercent': 0.45, 'rescaleHeight': False, 'trialN': 66, 'loaded': True, 'loadedTime': 3729.2000000476837, 'positionName': 'LEFT', 'positionCoords': [818.8, 515], 'bid': 0.91}, {'imgObject': {}, 'id': 'rigatoni', 'src': '/static/foodstim60/rigatoni.jpg', 'key': 'i', 'origWidth': 411, 'origHeight': 411, 'width': 411, 'height': 411, 'widthPercent': 0.45, 'rescaleHeight': False, 'trialN': 66, 'loaded': True, 'loadedTime': 3737.800000190735, 'positionName': 'RIGHT', 'positionCoords': [1331.2, 514.5], 'bid': 5}]",119878.60000014305,1669830768655,sushi w_condiments,rigatoni,0.91,5.0,4.09,rigatoni,657.7000000476837,658,657.7999999523163,True,i,121057.5,1178.8999998569489,1669830769834,1179,,HRV,HRV_0148,2022-11-30 17:56:07
67,"[{'imgObject': {}, 'id': 'blueberries', 'src': '/static/foodstim60/blueberries.jpg', 'key': 'u', 'origWidth': 411, 'origHeight': 411, 'width': 411, 'height': 411, 'widthPercent': 0.45, 'rescaleHeight': False, 'trialN': 67, 'loaded': True, 'loadedTime': 3793.5, 'positionName': 'LEFT', 'positionCoords': [817.8, 514.5], 'bid': 5.44}, {'imgObject': {}, 'id': 'lox', 'src': '/static/foodstim60/lox.jpg', 'key': 'i', 'origWidth': 410, 'origHeight': 411, 'width': 410, 'height': 411, 'widthPercent': 0.45, 'rescaleHeight': False, 'trialN': 67, 'loaded': True, 'loadedTime': 3696.7000000476837, 'positionName': 'RIGHT', 'positionCoords': [1331.2, 514.5], 'bid': 0.59}]",121057.60000014305,1669830769834,blueberries,lox,5.44,0.59,-4.8500000000000005,blueberries,796.7000000476837,797,796.7999999523163,True,u,122360.70000004768,1303.0999999046326,1669830771137,1303,,HRV,HRV_0148,2022-11-30 17:56:07
68,"[{'imgObject': {}, 'id': 'luckycharms', 'src': '/static/foodstim60/luckycharms.jpg', 'key': 'u', 'origWidth': 410, 'origHeight': 409, 'width': 410, 'height': 409, 'widthPercent': 0.45, 'rescaleHeight': False, 'trialN': 68, 'loaded': True, 'loadedTime': 3812.7000000476837, 'positionName': 'LEFT', 'positionCoords': [818.8, 515.5], 'bid': 4.92}, {'imgObject': {}, 'id': 'rigatoni', 'src': '/static/foodstim60/rigatoni.jpg', 'key': 'i', 'origWidth': 411, 'origHeight': 411, 'width': 411, 'height': 411, 'widthPercent': 0.45, 'rescaleHeight': False, 'trialN': 68, 'loaded': True, 'loadedTime': 3745.9000000953674, 'positionName': 'RIGHT', 'positionCoords': [1331.2, 514.5], 'bid': 5}]",122360.70000004768,1669830771137,luckycharms,rigatoni,4.92,5.0,0.08000000000000007,rigatoni,824.6000001430511,825,824.6000001430511,True,i,123694.80000019073,1334.1000001430511,1669830772471,1334,,HRV,HRV_0148,2022-11-30 17:56:07
69,"[{'imgObject': {}, 'id': 'burger', 'src': '/static/foodstim60/burger.jpg', 'key': 'u', 'origWidth': 409, 'origHeight': 409, 'width': 409, 'height': 409, 'widthPercent': 0.45, 'rescaleHeight': False, 'trialN': 69, 'loaded': True, 'loadedTime': 3812.7000000476837, 'positionName': 'LEFT', 'positionCoords': [819.8, 515.5], 'bid': 7.57}, {'imgObject': {}, 'id': 'Tribe humus pita', 'src': '/static/foodstim60/Tribe humus pita.jpg', 'key': 'i', 'origWidth': 411, 'origHeight': 411, 'width': 411, 'height': 411, 'widthPercent': 0.45, 'rescaleHeight': False, 'trialN': 69, 'loaded': True, 'loadedTime': 3806.9000000953674, 'positionName': 'RIGHT', 'positionCoords': [1331.2, 514.5], 'bid': 6.68}]",123694.90000009537,1669830772471,burger,Tribe humus pita,7.57,6.68,-0.8900000000000006,burger,1490.5999999046326,1491,1490.7999999523163,True,u,125696.0,2001.0999999046326,1669830774472,2001,,HRV,HRV_0148,2022-11-30 17:56:07
70,"[{'imgObject': {}, 'id': 'mac & cheese', 'src': '/static/foodstim60/mac & cheese.jpg', 'key': 'u', 'origWidth': 410, 'origHeight': 410, 'width': 410, 'height': 410, 'widthPercent': 0.45, 'rescaleHeight': False, 'trialN': 70, 'loaded': True, 'loadedTime': 3507.7000000476837, 'positionName': 'LEFT', 'positionCoords': [818.8, 515], 'bid': 6.72}, {'imgObject': {}, 'id': 'roastedpotatoes', 'src': '/static/foodstim60/roastedpotatoes.jpg', 'key': 'i', 'origWidth': 409, 'origHeight': 410, 'width': 409, 'height': 410, 'widthPercent': 0.45, 'rescaleHeight': False, 'trialN': 70, 'loaded': True, 'loadedTime': 3506.600000143051, 'positionName': 'RIGHT', 'positionCoords': [1331.2, 515], 'bid': 6.9}]",125696.10000014305,1669830774472,mac & cheese,roastedpotatoes,6.72,6.9,0.1800000000000006,mac & cheese,924.2000000476837,925,924.2000000476837,True,u,127123.20000004768,1427.0999999046326,1669830775900,1428,,HRV,HRV_0148,2022-11-30 17:56:07
71,"[{'imgObject': {}, 'id': 'veggieswithdip', 'src': '/static/foodstim60/veggieswithdip.jpg', 'key': 'u', 'origWidth': 409, 'origHeight': 409, 'width': 409, 'height': 409, 'widthPercent': 0.45, 'rescaleHeight': False, 'trialN': 71, 'loaded': True, 'loadedTime': 3792.7000000476837, 'positionName': 'LEFT', 'positionCoords': [819.8, 515.5], 'bid': 4.42}, {'imgObject': {}, 'id': 'sushi w_condiments', 'src': '/static/foodstim60/sushi w_condiments.jpg', 'key': 'i', 'origWidth': 410, 'origHeight': 410, 'width': 410, 'height': 410, 'widthPercent': 0.45, 'rescaleHeight': False, 'trialN': 71, 'loaded': True, 'loadedTime': 3725.100000143051, 'positionName': 'RIGHT', 'positionCoords': [1331.2, 515], 'bid': 0.91}]",127123.30000019073,1669830775900,veggieswithdip,sushi w_condiments,4.42,0.91,-3.51,veggieswithdip,1656,1656,1656.0999999046326,True,u,129295.10000014305,2171.7999999523163,1669830778071,2171,,HRV,HRV_0148,2022-11-30 17:56:07
72,"[{'imgObject': {}, 'id': 'popsicles', 'src': '/static/foodstim60/popsicles.jpg', 'key': 'u', 'origWidth': 410, 'origHeight': 410, 'width': 410, 'height': 410, 'widthPercent': 0.45, 'rescaleHeight': False, 'trialN': 72, 'loaded': True, 'loadedTime': 3592.100000143051, 'positionName': 'LEFT', 'positionCoords': [818.8, 515], 'bid': 5.0200000000000005}, {'imgObject': {}, 'id': 'froot loops w milk', 'src': '/static/foodstim60/froot loops w milk.jpg', 'key': 'i', 'origWidth': 410, 'origHeight': 410, 'width': 410, 'height': 410, 'widthPercent': 0.45, 'rescaleHeight': False, 'trialN': 72, 'loaded': True, 'loadedTime': 3729.9000000953674, 'positionName': 'RIGHT', 'positionCoords': [1331.2, 515], 'bid': 5.03}]",129295.30000019073,1669830778071,popsicles,froot loops w milk,5.0200000000000005,5.03,0.009999999999999787,froot loops w milk,1500,1501,1500.0999999046326,True,i,131311.40000009537,2016.0999999046326,1669830780088,2017,,HRV,HRV_0148,2022-11-30 17:56:07
73,"[{'imgObject': {}, 'id': 'orange slices', 'src': '/static/foodstim60/orange slices.jpg', 'key': 'u', 'origWidth': 409, 'origHeight': 410, 'width': 409, 'height': 410, 'widthPercent': 0.45, 'rescaleHeight': False, 'trialN': 73, 'loaded': True, 'loadedTime': 3771.600000143051, 'positionName': 'LEFT', 'positionCoords': [819.8, 515], 'bid': 5.26}, {'imgObject': {}, 'id': 'cheerios', 'src': '/static/foodstim60/cheerios.jpg', 'key': 'i', 'origWidth': 409, 'origHeight': 410, 'width': 409, 'height': 410, 'widthPercent': 0.45, 'rescaleHeight': False, 'trialN': 73, 'loaded': True, 'loadedTime': 3655.9000000953674, 'positionName': 'RIGHT', 'positionCoords': [1331.2, 515], 'bid': 5.34}]",131311.5,1669830780088,orange slices,cheerios,5.26,5.34,0.08000000000000007,cheerios,986.8000001907349,987,986.9000000953674,True,i,132816.20000004768,1504.7000000476837,1669830781592,1504,,HRV,HRV_0148,2022-11-30 17:56:07
74,"[{'imgObject': {}, 'id': 'orange slices', 'src': '/static/foodstim60/orange slices.jpg', 'key': 'u', 'origWidth': 409, 'origHeight': 410, 'width': 409, 'height': 410, 'widthPercent': 0.45, 'rescaleHeight': False, 'trialN': 74, 'loaded': True, 'loadedTime': 3771.7000000476837, 'positionName': 'LEFT', 'positionCoords': [819.8, 515], 'bid': 5.26}, {'imgObject': {}, 'id': 'burger', 'src': '/static/foodstim60/burger.jpg', 'key': 'i', 'origWidth': 409, 'origHeight': 409, 'width': 409, 'height': 409, 'widthPercent': 0.45, 'rescaleHeight': False, 'trialN': 74, 'loaded': True, 'loadedTime': 3813.300000190735, 'positionName': 'RIGHT', 'positionCoords': [1331.2, 515.5], 'bid': 7.57}]",132816.20000004768,1669830781592,orange slices,burger,5.26,7.57,2.3100000000000005,burger,639,640,639.2000000476837,True,i,133964.20000004768,1148.0,1669830782740,1148,,HRV,HRV_0148,2022-11-30 17:56:07
75,"[{'imgObject': {}, 'id': 'grilled chicken strips', 'src': '/static/foodstim60/grilled chicken strips.jpg', 'key': 'u', 'origWidth': 410, 'origHeight': 411, 'width': 410, 'height': 411, 'widthPercent': 0.45, 'rescaleHeight': False, 'trialN': 75, 'loaded': True, 'loadedTime': 3811.300000190735, 'positionName': 'LEFT', 'positionCoords': [818.8, 514.5], 'bid': 6.01}, {'imgObject': {}, 'id': 'hotdog w must', 'src': '/static/foodstim60/hotdog w must.jpg', 'key': 'i', 'origWidth': 409, 'origHeight': 409, 'width': 409, 'height': 409, 'widthPercent': 0.45, 'rescaleHeight': False, 'trialN': 75, 'loaded': True, 'loadedTime': 3627.9000000953674, 'positionName': 'RIGHT', 'positionCoords': [1331.2, 515.5], 'bid': 7.78}]",133964.30000019073,1669830782741,grilled chicken strips,hotdog w must,6.01,7.78,1.7700000000000005,hotdog w must,1219.8999998569489,1220,1220.0999999046326,True,i,135701.60000014305,1737.2999999523163,1669830784478,1737,,HRV,HRV_0148,2022-11-30 17:56:07
76,"[{'imgObject': {}, 'id': 'salad w chicken', 'src': '/static/foodstim60/salad w chicken.jpg', 'key': 'u', 'origWidth': 411, 'origHeight': 411, 'width': 411, 'height': 411, 'widthPercent': 0.45, 'rescaleHeight': False, 'trialN': 76, 'loaded': True, 'loadedTime': 3788.5, 'positionName': 'LEFT', 'positionCoords': [817.8, 514.5], 'bid': 7.640000000000001}, {'imgObject': {}, 'id': 'baked potato', 'src': '/static/foodstim60/baked potato.jpg', 'key': 'i', 'origWidth': 409, 'origHeight': 410, 'width': 409, 'height': 410, 'widthPercent': 0.45, 'rescaleHeight': False, 'trialN': 76, 'loaded': True, 'loadedTime': 3502.9000000953674, 'positionName': 'RIGHT', 'positionCoords': [1331.2, 515], 'bid': 6.44}]",135701.70000004768,1669830784478,salad w chicken,baked potato,7.640000000000001,6.44,-1.2000000000000002,salad w chicken,1167.6000001430511,1168,1167.7999999523163,True,u,137377.10000014305,1675.4000000953674,1669830786153,1675,,HRV,HRV_0148,2022-11-30 17:56:07
77,"[{'imgObject': {}, 'id': 'shreddedwheatwithmilk', 'src': '/static/foodstim60/shreddedwheatwithmilk.jpg', 'key': 'u', 'origWidth': 410, 'origHeight': 410, 'width': 410, 'height': 410, 'widthPercent': 0.45, 'rescaleHeight': False, 'trialN': 77, 'loaded': True, 'loadedTime': 3816.600000143051, 'positionName': 'LEFT', 'positionCoords': [818.8, 515], 'bid': 5.28}, {'imgObject': {}, 'id': 'rigatoni', 'src': '/static/foodstim60/rigatoni.jpg', 'key': 'i', 'origWidth': 411, 'origHeight': 411, 'width': 411, 'height': 411, 'widthPercent': 0.45, 'rescaleHeight': False, 'trialN': 77, 'loaded': True, 'loadedTime': 3738.4000000953674, 'positionName': 'RIGHT', 'positionCoords': [1331.2, 514.5], 'bid': 5}]",137377.20000004768,1669830786153,shreddedwheatwithmilk,rigatoni,5.28,5.0,-0.28000000000000025,shreddedwheatwithmilk,1757.2000000476837,1758,1757.2999999523163,True,u,139642.10000014305,2264.9000000953674,1669830788418,2265,,HRV,HRV_0148,2022-11-30 17:56:07
78,"[{'imgObject': {}, 'id': 'sweetpotato', 'src': '/static/foodstim60/sweetpotato.jpg', 'key': 'u', 'origWidth': 410, 'origHeight': 410, 'width': 410, 'height': 410, 'widthPercent': 0.45, 'rescaleHeight': False, 'trialN': 78, 'loaded': True, 'loadedTime': 3783.4000000953674, 'positionName': 'LEFT', 'positionCoords': [818.8, 515], 'bid': 5.13}, {'imgObject': {}, 'id': 'tacos', 'src': '/static/foodstim60/tacos.jpg', 'key': 'i', 'origWidth': 411, 'origHeight': 411, 'width': 411, 'height': 411, 'widthPercent': 0.45, 'rescaleHeight': False, 'trialN': 78, 'loaded': True, 'loadedTime': 3705.600000143051, 'positionName': 'RIGHT', 'positionCoords': [1331.2, 514.5], 'bid': 7.09}]",139642.20000004768,1669830788418,sweetpotato,tacos,5.13,7.09,1.96,tacos,1162.2000000476837,1166,1165.6000001430511,True,i,141317.5,1675.2999999523163,1669830790094,1676,,HRV,HRV_0148,2022-11-30 17:56:07
79,"[{'imgObject': {}, 'id': 'avocado', 'src': '/static/foodstim60/avocado.jpg', 'key': 'u', 'origWidth': 409, 'origHeight': 409, 'width': 409, 'height': 409, 'widthPercent': 0.45, 'rescaleHeight': False, 'trialN': 79, 'loaded': True, 'loadedTime': 3668.100000143051, 'positionName': 'LEFT', 'positionCoords': [819.8, 515.5], 'bid': 0.06}, {'imgObject': {}, 'id': 'cherry tomato', 'src': '/static/foodstim60/cherry tomato.jpg', 'key': 'i', 'origWidth': 410, 'origHeight': 410, 'width': 410, 'height': 410, 'widthPercent': 0.45, 'rescaleHeight': False, 'trialN': 79, 'loaded': True, 'loadedTime': 3717.100000143051, 'positionName': 'RIGHT', 'positionCoords': [1331.2, 515], 'bid': 0.14}]",141317.60000014305,1669830790094,avocado,cherry tomato,0.06,0.14,0.08000000000000002,avocado,1227.7000000476837,1228,1227.7999999523163,True,u,143055.0,1737.3999998569489,1669830791831,1737,,HRV,HRV_0148,2022-11-30 17:56:07
80,"[{'imgObject': {}, 'id': 'roastedpotatoes', 'src': '/static/foodstim60/roastedpotatoes.jpg', 'key': 'u', 'origWidth': 409, 'origHeight': 410, 'width': 409, 'height': 410, 'widthPercent': 0.45, 'rescaleHeight': False, 'trialN': 80, 'loaded': True, 'loadedTime': 3506.4000000953674, 'positionName': 'LEFT', 'positionCoords': [819.8, 515], 'bid': 6.9}, {'imgObject': {}, 'id': 'ice cream sundae 002', 'src': '/static/foodstim60/ice cream sundae 002.jpg', 'key': 'i', 'origWidth': 409, 'origHeight': 409, 'width': 409, 'height': 409, 'widthPercent': 0.45, 'rescaleHeight': False, 'trialN': 80, 'loaded': True, 'loadedTime': 3806.2000000476837, 'positionName': 'RIGHT', 'positionCoords': [1331.2, 515.5], 'bid': 6.7700000000000005}]",143055.0,1669830791831,roastedpotatoes,ice cream sundae 002,6.9,6.7700000000000005,-0.1299999999999999,roastedpotatoes,766.2000000476837,767,766.4000000953674,True,u,144327.10000014305,1272.1000001430511,1669830793103,1272,,HRV,HRV_0148,2022-11-30 17:56:07
81,"[{'imgObject': {}, 'id': 'turkeysandwich', 'src': '/static/foodstim60/turkeysandwich.jpg', 'key': 'u', 'origWidth': 409, 'origHeight': 409, 'width': 409, 'height': 409, 'widthPercent': 0.45, 'rescaleHeight': False, 'trialN': 81, 'loaded': True, 'loadedTime': 3596.300000190735, 'positionName': 'LEFT', 'positionCoords': [819.8, 515.5], 'bid': 5.84}, {'imgObject': {}, 'id': 'luckycharms', 'src': '/static/foodstim60/luckycharms.jpg', 'key': 'i', 'origWidth': 410, 'origHeight': 409, 'width': 410, 'height': 409, 'widthPercent': 0.45, 'rescaleHeight': False, 'trialN': 81, 'loaded': True, 'loadedTime': 3812.5, 'positionName': 'RIGHT', 'positionCoords': [1331.2, 515.5], 'bid': 4.92}]",144327.10000014305,1669830793103,turkeysandwich,luckycharms,5.84,4.92,-0.9199999999999999,turkeysandwich,2174.0999999046326,2175,2174.2999999523163,True,u,147010.30000019073,2683.2000000476837,1669830795787,2684,,HRV,HRV_0148,2022-11-30 17:56:07
82,"[{'imgObject': {}, 'id': 'salad w chicken', 'src': '/static/foodstim60/salad w chicken.jpg', 'key': 'u', 'origWidth': 411, 'origHeight': 411, 'width': 411, 'height': 411, 'widthPercent': 0.45, 'rescaleHeight': False, 'trialN': 82, 'loaded': True, 'loadedTime': 3788.4000000953674, 'positionName': 'LEFT', 'positionCoords': [817.8, 514.5], 'bid': 7.640000000000001}, {'imgObject': {}, 'id': 'mac & cheese', 'src': '/static/foodstim60/mac & cheese.jpg', 'key': 'i', 'origWidth': 410, 'origHeight': 410, 'width': 410, 'height': 410, 'widthPercent': 0.45, 'rescaleHeight': False, 'trialN': 82, 'loaded': True, 'loadedTime': 3508.600000143051, 'positionName': 'RIGHT', 'positionCoords': [1331.2, 515], 'bid': 6.72}]",147010.40000009537,1669830795787,salad w chicken,mac & cheese,7.640000000000001,6.72,-0.9200000000000008,salad w chicken,994.2000000476837,994,994.4000000953674,True,u,148515.20000004768,1504.7999999523163,1669830797291,1504,,HRV,HRV_0148,2022-11-30 17:56:07
83,"[{'imgObject': {}, 'id': 'hashbrowns', 'src': '/static/foodstim60/hashbrowns.jpg', 'key': 'u', 'origWidth': 411, 'origHeight': 410, 'width': 411, 'height': 410, 'widthPercent': 0.45, 'rescaleHeight': False, 'trialN': 83, 'loaded': True, 'loadedTime': 3817.4000000953674, 'positionName': 'LEFT', 'positionCoords': [817.8, 515], 'bid': 5.04}, {'imgObject': {}, 'id': 'seaweed', 'src': '/static/foodstim60/seaweed.jpg', 'key': 'i', 'origWidth': 410, 'origHeight': 410, 'width': 410, 'height': 410, 'widthPercent': 0.45, 'rescaleHeight': False, 'trialN': 83, 'loaded': True, 'loadedTime': 3468.100000143051, 'positionName': 'RIGHT', 'positionCoords': [1331.2, 515], 'bid': 0.16}]",148515.30000019073,1669830797291,hashbrowns,seaweed,5.04,0.16,-4.88,hashbrowns,860,861,860.0999999046326,True,u,149895.80000019073,1380.5,1669830798672,1381,,HRV,HRV_0148,2022-11-30 17:56:07
84,"[{'imgObject': {}, 'id': 'turkey sandwich', 'src': '/static/foodstim60/turkey sandwich.jpg', 'key': 'u', 'origWidth': 409, 'origHeight': 409, 'width': 409, 'height': 409, 'widthPercent': 0.45, 'rescaleHeight': False, 'trialN': 84, 'loaded': True, 'loadedTime': 3551.800000190735, 'positionName': 'LEFT', 'positionCoords': [819.8, 515.5], 'bid': 6.53}, {'imgObject': {}, 'id': 'bagel and cc', 'src': '/static/foodstim60/bagel and cc.jpg', 'key': 'i', 'origWidth': 410, 'origHeight': 410, 'width': 410, 'height': 410, 'widthPercent': 0.45, 'rescaleHeight': False, 'trialN': 84, 'loaded': True, 'loadedTime': 3793.5, 'positionName': 'RIGHT', 'positionCoords': [1331.2, 515], 'bid': 6}]",149895.90000009537,1669830798672,turkey sandwich,bagel and cc,6.53,6.0,-0.5300000000000002,turkey sandwich,887.2999999523163,888,887.5,True,u,151292.0,1396.0999999046326,1669830800068,1396,,HRV,HRV_0148,2022-11-30 17:56:07
85,"[{'imgObject': {}, 'id': 'granola w milk', 'src': '/static/foodstim60/granola w milk.jpg', 'key': 'u', 'origWidth': 410, 'origHeight': 410, 'width': 410, 'height': 410, 'widthPercent': 0.45, 'rescaleHeight': False, 'trialN': 85, 'loaded': True, 'loadedTime': 3572.100000143051, 'positionName': 'LEFT', 'positionCoords': [818.8, 515], 'bid': 5}, {'imgObject': {}, 'id': 'hashbrowns', 'src': '/static/foodstim60/hashbrowns.jpg', 'key': 'i', 'origWidth': 411, 'origHeight': 410, 'width': 411, 'height': 410, 'widthPercent': 0.45, 'rescaleHeight': False, 'trialN': 85, 'loaded': True, 'loadedTime': 3817.4000000953674, 'positionName': 'RIGHT', 'positionCoords': [1331.2, 515], 'bid': 5.04}]",151292.10000014305,1669830800068,granola w milk,hashbrowns,5.0,5.04,0.040000000000000036,granola w milk,1210.5,1211,1210.5,True,u,153010.5,1718.3999998569489,1669830801787,1719,,HRV,HRV_0148,2022-11-30 17:56:07
86,"[{'imgObject': {}, 'id': 'corn cob', 'src': '/static/foodstim60/corn cob.jpg', 'key': 'u', 'origWidth': 411, 'origHeight': 411, 'width': 411, 'height': 411, 'widthPercent': 0.45, 'rescaleHeight': False, 'trialN': 86, 'loaded': True, 'loadedTime': 3524.100000143051, 'positionName': 'LEFT', 'positionCoords': [817.8, 514.5], 'bid': 5.03}, {'imgObject': {}, 'id': 'yogurt no spoon', 'src': '/static/foodstim60/yogurt no spoon.jpg', 'key': 'i', 'origWidth': 411, 'origHeight': 410, 'width': 411, 'height': 410, 'widthPercent': 0.45, 'rescaleHeight': False, 'trialN': 86, 'loaded': True, 'loadedTime': 3644.4000000953674, 'positionName': 'RIGHT', 'positionCoords': [1331.2, 515], 'bid': 5.03}]",153010.60000014305,1669830801787,corn cob,yogurt no spoon,5.03,5.03,0.0,yogurt no spoon,1017.5999999046326,1018,1017.7999999523163,True,i,154533.80000019073,1523.2000000476837,1669830803310,1523,,HRV,HRV_0148,2022-11-30 17:56:07
87,"[{'imgObject': {}, 'id': 'cantaloupe', 'src': '/static/foodstim60/cantaloupe.jpg', 'key': 'u', 'origWidth': 409, 'origHeight': 409, 'width': 409, 'height': 409, 'widthPercent': 0.45, 'rescaleHeight': False, 'trialN': 87, 'loaded': True, 'loadedTime': 3624, 'positionName': 'LEFT', 'positionCoords': [819.8, 515.5], 'bid': 5.5}, {'imgObject': {}, 'id': 'mango', 'src': '/static/foodstim60/mango.jpg', 'key': 'i', 'origWidth': 411, 'origHeight': 411, 'width': 411, 'height': 411, 'widthPercent': 0.45, 'rescaleHeight': False, 'trialN': 87, 'loaded': True, 'loadedTime': 3508.600000143051, 'positionName': 'RIGHT', 'positionCoords': [1331.2, 514.5], 'bid': 5.65}]",154533.90000009537,1669830803310,cantaloupe,mango,5.5,5.65,0.15000000000000036,mango,1122.2999999523163,1123,1122.5,True,i,156163.20000004768,1629.2999999523163,1669830804939,1629,,HRV,HRV_0148,2022-11-30 17:56:07
88,"[{'imgObject': {}, 'id': 'froot loops w milk', 'src': '/static/foodstim60/froot loops w milk.jpg', 'key': 'u', 'origWidth': 410, 'origHeight': 410, 'width': 410, 'height': 410, 'widthPercent': 0.45, 'rescaleHeight': False, 'trialN': 88, 'loaded': True, 'loadedTime': 3729.9000000953674, 'positionName': 'LEFT', 'positionCoords': [818.8, 515], 'bid': 5.03}, {'imgObject': {}, 'id': 'raspberries', 'src': '/static/foodstim60/raspberries.jpg', 'key': 'i', 'origWidth': 411, 'origHeight': 411, 'width': 411, 'height': 411, 'widthPercent': 0.45, 'rescaleHeight': False, 'trialN': 88, 'loaded': True, 'loadedTime': 3688.5, 'positionName': 'RIGHT', 'positionCoords': [1331.2, 514.5], 'bid': 5.11}]",156163.30000019073,1669830804940,froot loops w milk,raspberries,5.03,5.11,0.08000000000000007,froot loops w milk,1040,1040,1040.0999999046326,True,u,157714.5,1551.1999998092651,1669830806491,1551,,HRV,HRV_0148,2022-11-30 17:56:07
89,"[{'imgObject': {}, 'id': 'mashed potato', 'src': '/static/foodstim60/mashed potato.jpg', 'key': 'u', 'origWidth': 409, 'origHeight': 409, 'width': 409, 'height': 409, 'widthPercent': 0.45, 'rescaleHeight': False, 'trialN': 89, 'loaded': True, 'loadedTime': 3754.300000190735, 'positionName': 'LEFT', 'positionCoords': [819.8, 515.5], 'bid': 4.91}, {'imgObject': {}, 'id': 'hashbrowns', 'src': '/static/foodstim60/hashbrowns.jpg', 'key': 'i', 'origWidth': 411, 'origHeight': 410, 'width': 411, 'height': 410, 'widthPercent': 0.45, 'rescaleHeight': False, 'trialN': 89, 'loaded': True, 'loadedTime': 3817.300000190735, 'positionName': 'RIGHT', 'positionCoords': [1331.2, 515], 'bid': 5.04}]",157714.70000004768,1669830806491,mashed potato,hashbrowns,4.91,5.04,0.1299999999999999,hashbrowns,1255.7000000476837,1256,1255.9000000953674,True,i,159483.10000014305,1768.4000000953674,1669830808259,1768,,HRV,HRV_0148,2022-11-30 17:56:07
90,"[{'imgObject': {}, 'id': 'olives', 'src': '/static/foodstim60/olives.jpg', 'key': 'u', 'origWidth': 410, 'origHeight': 410, 'width': 410, 'height': 410, 'widthPercent': 0.45, 'rescaleHeight': False, 'trialN': 90, 'loaded': True, 'loadedTime': 3811.2000000476837, 'positionName': 'LEFT', 'positionCoords': [818.8, 515], 'bid': 8.24}, {'imgObject': {}, 'id': 'cherries', 'src': '/static/foodstim60/cherries.jpg', 'key': 'i', 'origWidth': 410, 'origHeight': 411, 'width': 410, 'height': 411, 'widthPercent': 0.45, 'rescaleHeight': False, 'trialN': 90, 'loaded': True, 'loadedTime': 3672.9000000953674, 'positionName': 'RIGHT', 'positionCoords': [1331.2, 514.5], 'bid': 5.28}]",165708.10000014305,1669830814484,olives,cherries,8.24,5.28,-2.96,olives,1544.0999999046326,1545,1544.3999998569489,True,u,167753.70000004768,2045.5999999046326,1669830816530,2046,"[{'event': 'fullscreenchange', 'details': 'fullscreenenter', 'performance time': 165708.40000009537, 'date time': 1669830814485}]",HRV,HRV_0148,2022-11-30 17:56:07
91,"[{'imgObject': {}, 'id': 'kiwi', 'src': '/static/foodstim60/kiwi.jpg', 'key': 'u', 'origWidth': 410, 'origHeight': 410, 'width': 410, 'height': 410, 'widthPercent': 0.45, 'rescaleHeight': False, 'trialN': 91, 'loaded': True, 'loadedTime': 3504.7000000476837, 'positionName': 'LEFT', 'positionCoords': [818.8, 515], 'bid': 5.36}, {'imgObject': {}, 'id': 'apple slices', 'src': '/static/foodstim60/apple slices.jpg', 'key': 'i', 'origWidth': 409, 'origHeight': 410, 'width': 409, 'height': 410, 'widthPercent': 0.45, 'rescaleHeight': False, 'trialN': 91, 'loaded': True, 'loadedTime': 3818, 'positionName': 'RIGHT', 'positionCoords': [1331.2, 515], 'bid': 5.36}]",167753.90000009537,1669830816530,kiwi,apple slices,5.36,5.36,0.0,kiwi,1743.4000000953674,1744,1743.5999999046326,True,u,170016.10000014305,2262.2000000476837,1669830818792,2262,,HRV,HRV_0148,2022-11-30 17:56:07
92,"[{'imgObject': {}, 'id': 'rigatoni', 'src': '/static/foodstim60/rigatoni.jpg', 'key': 'u', 'origWidth': 411, 'origHeight': 411, 'width': 411, 'height': 411, 'widthPercent': 0.45, 'rescaleHeight': False, 'trialN': 92, 'loaded': True, 'loadedTime': 3738.5, 'positionName': 'LEFT', 'positionCoords': [817.8, 514.5], 'bid': 5}, {'imgObject': {}, 'id': 'grilled chicken strips', 'src': '/static/foodstim60/grilled chicken strips.jpg', 'key': 'i', 'origWidth': 410, 'origHeight': 411, 'width': 410, 'height': 411, 'widthPercent': 0.45, 'rescaleHeight': False, 'trialN': 92, 'loaded': True, 'loadedTime': 3811.9000000953674, 'positionName': 'RIGHT', 'positionCoords': [1331.2, 514.5], 'bid': 6.01}]",170016.20000004768,1669830818792,rigatoni,grilled chicken strips,5.0,6.01,1.0099999999999998,grilled chicken strips,1390,1391,1390.2000000476837,True,i,171908.70000004768,1892.5,1669830820685,1893,,HRV,HRV_0148,2022-11-30 17:56:07
93,"[{'imgObject': {}, 'id': 'luckycharms', 'src': '/static/foodstim60/luckycharms.jpg', 'key': 'u', 'origWidth': 410, 'origHeight': 409, 'width': 410, 'height': 409, 'widthPercent': 0.45, 'rescaleHeight': False, 'trialN': 93, 'loaded': True, 'loadedTime': 3812, 'positionName': 'LEFT', 'positionCoords': [818.8, 515.5], 'bid': 4.92}, {'imgObject': {}, 'id': 'eggs', 'src': '/static/foodstim60/eggs.jpg', 'key': 'i', 'origWidth': 409, 'origHeight': 409, 'width': 409, 'height': 409, 'widthPercent': 0.45, 'rescaleHeight': False, 'trialN': 93, 'loaded': True, 'loadedTime': 3510.2000000476837, 'positionName': 'RIGHT', 'positionCoords': [1331.2, 515.5], 'bid': 5.04}]",171908.80000019073,1669830820685,luckycharms,eggs,4.92,5.04,0.1200000000000001,luckycharms,1346.3999998569489,1347,1346.5999999046326,True,u,173770.30000019073,1861.5,1669830822547,1862,,HRV,HRV_0148,2022-11-30 17:56:07
94,"[{'imgObject': {}, 'id': 'orange slices', 'src': '/static/foodstim60/orange slices.jpg', 'key': 'u', 'origWidth': 409, 'origHeight': 410, 'width': 409, 'height': 410, 'widthPercent': 0.45, 'rescaleHeight': False, 'trialN': 94, 'loaded': True, 'loadedTime': 3770.9000000953674, 'positionName': 'LEFT', 'positionCoords': [819.8, 515], 'bid': 5.26}, {'imgObject': {}, 'id': 'shreddedwheatwithmilk', 'src': '/static/foodstim60/shreddedwheatwithmilk.jpg', 'key': 'i', 'origWidth': 410, 'origHeight': 410, 'width': 410, 'height': 410, 'widthPercent': 0.45, 'rescaleHeight': False, 'trialN': 94, 'loaded': True, 'loadedTime': 3816.7000000476837, 'positionName': 'RIGHT', 'positionCoords': [1331.2, 515], 'bid': 5.28}]",173770.40000009537,1669830822547,orange slices,shreddedwheatwithmilk,5.26,5.28,0.020000000000000462,shreddedwheatwithmilk,1044.7999999523163,1045,1045.0,True,i,175337.10000014305,1566.7000000476837,1669830824114,1567,,HRV,HRV_0148,2022-11-30 17:56:07
95,"[{'imgObject': {}, 'id': 'sweetpotato', 'src': '/static/foodstim60/sweetpotato.jpg', 'key': 'u', 'origWidth': 410, 'origHeight': 410, 'width': 410, 'height': 410, 'widthPercent': 0.45, 'rescaleHeight': False, 'trialN': 95, 'loaded': True, 'loadedTime': 3784, 'positionName': 'LEFT', 'positionCoords': [818.8, 515], 'bid': 5.13}, {'imgObject': {}, 'id': 'veggieswithdip', 'src': '/static/foodstim60/veggieswithdip.jpg', 'key': 'i', 'origWidth': 409, 'origHeight': 409, 'width': 409, 'height': 409, 'widthPercent': 0.45, 'rescaleHeight': False, 'trialN': 95, 'loaded': True, 'loadedTime': 3792.7000000476837, 'positionName': 'RIGHT', 'positionCoords': [1331.2, 515.5], 'bid': 4.42}]",175337.30000019073,1669830824114,sweetpotato,veggieswithdip,5.13,4.42,-0.71,sweetpotato,830.8999998569489,831,831.0,True,u,176686.80000019073,1349.5,1669830825463,1349,,HRV,HRV_0148,2022-11-30 17:56:07
96,"[{'imgObject': {}, 'id': 'omelette', 'src': '/static/foodstim60/omelette.jpg', 'key': 'u', 'origWidth': 410, 'origHeight': 409, 'width': 410, 'height': 409, 'widthPercent': 0.45, 'rescaleHeight': False, 'trialN': 96, 'loaded': True, 'loadedTime': 3802.2000000476837, 'positionName': 'LEFT', 'positionCoords': [818.8, 515.5], 'bid': 5.28}, {'imgObject': {}, 'id': 'kiwi', 'src': '/static/foodstim60/kiwi.jpg', 'key': 'i', 'origWidth': 410, 'origHeight': 410, 'width': 410, 'height': 410, 'widthPercent': 0.45, 'rescaleHeight': False, 'trialN': 96, 'loaded': True, 'loadedTime': 3504.5, 'positionName': 'RIGHT', 'positionCoords': [1331.2, 515], 'bid': 5.36}]",176686.90000009537,1669830825464,omelette,kiwi,5.28,5.36,0.08000000000000007,omelette,1121.4000000953674,1121,1121.5,True,u,178315.70000004768,1628.7999999523163,1669830827092,1628,,HRV,HRV_0148,2022-11-30 17:56:07
97,"[{'imgObject': {}, 'id': 'bagel and cc', 'src': '/static/foodstim60/bagel and cc.jpg', 'key': 'u', 'origWidth': 410, 'origHeight': 410, 'width': 410, 'height': 410, 'widthPercent': 0.45, 'rescaleHeight': False, 'trialN': 97, 'loaded': True, 'loadedTime': 3801.5, 'positionName': 'LEFT', 'positionCoords': [818.8, 515], 'bid': 6}, {'imgObject': {}, 'id': 'Grapes', 'src': '/static/foodstim60/Grapes.jpg', 'key': 'i', 'origWidth': 411, 'origHeight': 411, 'width': 411, 'height': 411, 'widthPercent': 0.45, 'rescaleHeight': False, 'trialN': 97, 'loaded': True, 'loadedTime': 3746, 'positionName': 'RIGHT', 'positionCoords': [1331.2, 514.5], 'bid': 4.96}]",178315.90000009537,1669830827093,bagel and cc,Grapes,6.0,4.96,-1.04,bagel and cc,1004.2999999523163,1004,1004.5,True,u,179836.0,1520.0999999046326,1669830828613,1520,,HRV,HRV_0148,2022-11-30 17:56:07
98,"[{'imgObject': {}, 'id': 'blackbeanswithrice', 'src': '/static/foodstim60/blackbeanswithrice.jpg', 'key': 'u', 'origWidth': 410, 'origHeight': 410, 'width': 410, 'height': 410, 'widthPercent': 0.45, 'rescaleHeight': False, 'trialN': 98, 'loaded': True, 'loadedTime': 3680.5, 'positionName': 'LEFT', 'positionCoords': [818.8, 515], 'bid': 5.08}, {'imgObject': {}, 'id': 'cheerios', 'src': '/static/foodstim60/cheerios.jpg', 'key': 'i', 'origWidth': 409, 'origHeight': 410, 'width': 409, 'height': 410, 'widthPercent': 0.45, 'rescaleHeight': False, 'trialN': 98, 'loaded': True, 'loadedTime': 3663.9000000953674, 'positionName': 'RIGHT', 'positionCoords': [1331.2, 515], 'bid': 5.34}]",179836.10000014305,1669830828613,blackbeanswithrice,cheerios,5.08,5.34,0.2599999999999998,blackbeanswithrice,1279.2999999523163,1279,1279.3999998569489,True,u,181620.0,1783.8999998569489,1669830830397,1784,,HRV,HRV_0148,2022-11-30 17:56:07
99,"[{'imgObject': {}, 'id': 'cocktailshrimp', 'src': '/static/foodstim60/cocktailshrimp.jpg', 'key': 'u', 'origWidth': 410, 'origHeight': 410, 'width': 410, 'height': 410, 'widthPercent': 0.45, 'rescaleHeight': False, 'trialN': 99, 'loaded': True, 'loadedTime': 3620, 'positionName': 'LEFT', 'positionCoords': [818.8, 515], 'bid': 0.15}, {'imgObject': {}, 'id': 'apple slices', 'src': '/static/foodstim60/apple slices.jpg', 'key': 'i', 'origWidth': 409, 'origHeight': 410, 'width': 409, 'height': 410, 'widthPercent': 0.45, 'rescaleHeight': False, 'trialN': 99, 'loaded': True, 'loadedTime': 3818.100000143051, 'positionName': 'RIGHT', 'positionCoords': [1331.2, 515], 'bid': 5.36}]",181620.20000004768,1669830830397,cocktailshrimp,apple slices,0.15,5.36,5.21,apple slices,1464,1464,1464.2000000476837,True,i,183590.20000004768,1970.0,1669830832367,1970,,HRV,HRV_0148,2022-11-30 17:56:07
100,"[{'imgObject': {}, 'id': 'shreddedwheatwithmilk', 'src': '/static/foodstim60/shreddedwheatwithmilk.jpg', 'key': 'u', 'origWidth': 410, 'origHeight': 410, 'width': 410, 'height': 410, 'widthPercent': 0.45, 'rescaleHeight': False, 'trialN': 100, 'loaded': True, 'loadedTime': 3816.5, 'positionName': 'LEFT', 'positionCoords': [818.8, 515], 'bid': 5.28}, {'imgObject': {}, 'id': 'hotdog w must', 'src': '/static/foodstim60/hotdog w must.jpg', 'key': 'i', 'origWidth': 409, 'origHeight': 409, 'width': 409, 'height': 409, 'widthPercent': 0.45, 'rescaleHeight': False, 'trialN': 100, 'loaded': True, 'loadedTime': 3627.7000000476837, 'positionName': 'RIGHT', 'positionCoords': [1331.2, 515.5], 'bid': 7.78}]",183590.30000019073,1669830832367,shreddedwheatwithmilk,hotdog w must,5.28,7.78,2.5,hotdog w must,991.8999998569489,992,992.0,True,i,185095.0,1504.6999998092651,1669830833872,1505,,HRV,HRV_0148,2022-11-30 17:56:07
101,"[{'imgObject': {}, 'id': 'blueberries', 'src': '/static/foodstim60/blueberries.jpg', 'key': 'u', 'origWidth': 411, 'origHeight': 411, 'width': 411, 'height': 411, 'widthPercent': 0.45, 'rescaleHeight': False, 'trialN': 101, 'loaded': True, 'loadedTime': 3792.800000190735, 'positionName': 'LEFT', 'positionCoords': [817.8, 514.5], 'bid': 5.44}, {'imgObject': {}, 'id': 'mac & cheese', 'src': '/static/foodstim60/mac & cheese.jpg', 'key': 'i', 'origWidth': 410, 'origHeight': 410, 'width': 410, 'height': 410, 'widthPercent': 0.45, 'rescaleHeight': False, 'trialN': 101, 'loaded': True, 'loadedTime': 3508.5, 'positionName': 'RIGHT', 'positionCoords': [1331.2, 515], 'bid': 6.72}]",185095.20000004768,1669830833872,blueberries,mac & cheese,5.44,6.72,1.2799999999999994,mac & cheese,921,921,921.2000000476837,True,i,186531.10000014305,1435.9000000953674,1669830835308,1436,,HRV,HRV_0148,2022-11-30 17:56:07
102,"[{'imgObject': {}, 'id': 'salad w chicken', 'src': '/static/foodstim60/salad w chicken.jpg', 'key': 'u', 'origWidth': 411, 'origHeight': 411, 'width': 411, 'height': 411, 'widthPercent': 0.45, 'rescaleHeight': False, 'trialN': 102, 'loaded': True, 'loadedTime': 3788.600000143051, 'positionName': 'LEFT', 'positionCoords': [817.8, 514.5], 'bid': 7.640000000000001}, {'imgObject': {}, 'id': 'burger', 'src': '/static/foodstim60/burger.jpg', 'key': 'i', 'origWidth': 409, 'origHeight': 409, 'width': 409, 'height': 409, 'widthPercent': 0.45, 'rescaleHeight': False, 'trialN': 102, 'loaded': True, 'loadedTime': 3813.2000000476837, 'positionName': 'RIGHT', 'positionCoords': [1331.2, 515.5], 'bid': 7.57}]",186531.20000004768,1669830835308,salad w chicken,burger,7.640000000000001,7.57,-0.07000000000000028,salad w chicken,613,613,613.2000000476837,True,u,187654.70000004768,1123.5,1669830836431,1123,,HRV,HRV_0148,2022-11-30 17:56:07
103,"[{'imgObject': {}, 'id': 'mashed potato', 'src': '/static/foodstim60/mashed potato.jpg', 'key': 'u', 'origWidth': 409, 'origHeight': 409, 'width': 409, 'height': 409, 'widthPercent': 0.45, 'rescaleHeight': False, 'trialN': 103, 'loaded': True, 'loadedTime': 3758, 'positionName': 'LEFT', 'positionCoords': [819.8, 515.5], 'bid': 4.91}, {'imgObject': {}, 'id': 'luckycharms', 'src': '/static/foodstim60/luckycharms.jpg', 'key': 'i', 'origWidth': 410, 'origHeight': 409, 'width': 410, 'height': 409, 'widthPercent': 0.45, 'rescaleHeight': False, 'trialN': 103, 'loaded': True, 'loadedTime': 3812.600000143051, 'positionName': 'RIGHT', 'positionCoords': [1331.2, 515.5], 'bid': 4.92}]",187654.80000019073,1669830836431,mashed potato,luckycharms,4.91,4.92,0.009999999999999787,luckycharms,773.3999998569489,774,773.5999999046326,True,i,188942.40000009537,1287.5999999046326,1669830837719,1288,,HRV,HRV_0148,2022-11-30 17:56:07
104,"[{'imgObject': {}, 'id': 'omelette', 'src': '/static/foodstim60/omelette.jpg', 'key': 'u', 'origWidth': 410, 'origHeight': 409, 'width': 410, 'height': 409, 'widthPercent': 0.45, 'rescaleHeight': False, 'trialN': 104, 'loaded': True, 'loadedTime': 3802.4000000953674, 'positionName': 'LEFT', 'positionCoords': [818.8, 515.5], 'bid': 5.28}, {'imgObject': {}, 'id': 'granola w milk', 'src': '/static/foodstim60/granola w milk.jpg', 'key': 'i', 'origWidth': 410, 'origHeight': 410, 'width': 410, 'height': 410, 'widthPercent': 0.45, 'rescaleHeight': False, 'trialN': 104, 'loaded': True, 'loadedTime': 3576.300000190735, 'positionName': 'RIGHT', 'positionCoords': [1331.2, 515], 'bid': 5}]",188942.5,1669830837719,omelette,granola w milk,5.28,5.0,-0.28000000000000025,omelette,819.8000001907349,820,819.9000000953674,True,u,190276.5,1334.0,1669830839053,1334,,HRV,HRV_0148,2022-11-30 17:56:07
105,"[{'imgObject': {}, 'id': 'apple slices', 'src': '/static/foodstim60/apple slices.jpg', 'key': 'u', 'origWidth': 409, 'origHeight': 410, 'width': 409, 'height': 410, 'widthPercent': 0.45, 'rescaleHeight': False, 'trialN': 105, 'loaded': True, 'loadedTime': 3817.5, 'positionName': 'LEFT', 'positionCoords': [819.8, 515], 'bid': 5.36}, {'imgObject': {}, 'id': 'sweetpotato', 'src': '/static/foodstim60/sweetpotato.jpg', 'key': 'i', 'origWidth': 410, 'origHeight': 410, 'width': 410, 'height': 410, 'widthPercent': 0.45, 'rescaleHeight': False, 'trialN': 105, 'loaded': True, 'loadedTime': 3784.100000143051, 'positionName': 'RIGHT', 'positionCoords': [1331.2, 515], 'bid': 5.13}]",190276.60000014305,1669830839053,apple slices,sweetpotato,5.36,5.13,-0.23000000000000043,apple slices,2997.7999999523163,2998,2997.899999856949,True,u,193782.5,3505.899999856949,1669830842559,3506,,HRV,HRV_0148,2022-11-30 17:56:07
106,"[{'imgObject': {}, 'id': 'veggieswithdip', 'src': '/static/foodstim60/veggieswithdip.jpg', 'key': 'u', 'origWidth': 409, 'origHeight': 409, 'width': 409, 'height': 409, 'widthPercent': 0.45, 'rescaleHeight': False, 'trialN': 106, 'loaded': True, 'loadedTime': 3792, 'positionName': 'LEFT', 'positionCoords': [819.8, 515.5], 'bid': 4.42}, {'imgObject': {}, 'id': 'cherry tomato', 'src': '/static/foodstim60/cherry tomato.jpg', 'key': 'i', 'origWidth': 410, 'origHeight': 410, 'width': 410, 'height': 410, 'widthPercent': 0.45, 'rescaleHeight': False, 'trialN': 106, 'loaded': True, 'loadedTime': 3717.2000000476837, 'positionName': 'RIGHT', 'positionCoords': [1331.2, 515], 'bid': 0.14}]",193782.60000014305,1669830842559,veggieswithdip,cherry tomato,4.42,0.14,-4.28,veggieswithdip,1239.5999999046326,1240,1239.8999998569489,True,u,195535.5,1752.8999998569489,1669830844312,1753,,HRV,HRV_0148,2022-11-30 17:56:07
107,"[{'imgObject': {}, 'id': 'seaweed', 'src': '/static/foodstim60/seaweed.jpg', 'key': 'u', 'origWidth': 410, 'origHeight': 410, 'width': 410, 'height': 410, 'widthPercent': 0.45, 'rescaleHeight': False, 'trialN': 107, 'loaded': True, 'loadedTime': 3472.5, 'positionName': 'LEFT', 'positionCoords': [818.8, 515], 'bid': 0.16}, {'imgObject': {}, 'id': 'raisin bran w milk', 'src': '/static/foodstim60/raisin bran w milk.jpg', 'key': 'i', 'origWidth': 411, 'origHeight': 411, 'width': 411, 'height': 411, 'widthPercent': 0.45, 'rescaleHeight': False, 'trialN': 107, 'loaded': True, 'loadedTime': 3648.4000000953674, 'positionName': 'RIGHT', 'positionCoords': [1331.2, 514.5], 'bid': 5.0200000000000005}]",195535.60000014305,1669830844312,seaweed,raisin bran w milk,0.16,5.0200000000000005,4.86,raisin bran w milk,935.5999999046326,936,935.7999999523163,True,i,196993.70000004768,1458.0999999046326,1669830845770,1458,,HRV,HRV_0148,2022-11-30 17:56:07
