trialN,stimuli,question,trialStartTime,trialStartTime_UNIX,stimulus1,rt,receivedResponse,rating,trialEndTime,trialDuration,stimulus1Loaded,exp,subjectId,date
0,"[{'imgObject': {}, 'id': 'sweetpotato', 'src': '/static/foodstim60/sweetpotato.jpg', 'key': 'NaN', 'origWidth': 410, 'origHeight': 410, 'width': 410, 'height': 410, 'widthPercent': 0.8, 'rescaleHeight': True, 'trialN': 0, 'loaded': True, 'loadedTime': 2378.900000035763, 'positionName': 'CENTER', 'positionCoords': [435, 155]}]",Rate how much you want to eat this food from 0 (least) to 10 (most).,2437.400000035763,1669829993890,sweetpotato,4664.899999976158,True,1.76,7102.300000011921,4664.899999976158,True,HRV,HRV_0005,2022-11-30 17:42:05
1,"[{'imgObject': {}, 'id': 'raisin bran w milk', 'src': '/static/foodstim60/raisin bran w milk.jpg', 'key': 'NaN', 'origWidth': 411, 'origHeight': 411, 'width': 411, 'height': 411, 'widthPercent': 0.8, 'rescaleHeight': True, 'trialN': 1, 'loaded': True, 'loadedTime': 2379.900000035763, 'positionName': 'CENTER', 'positionCoords': [434.5, 154.5]}]",Rate how much you want to eat this food from 0 (least) to 10 (most).,7104.699999988079,1669829998558,raisin bran w milk,1891.6000000238419,True,7.34,8996.300000011921,1891.6000000238419,True,HRV,HRV_0005,2022-11-30 17:42:05
2,"[{'imgObject': {}, 'id': 'banana', 'src': '/static/foodstim60/banana.jpg', 'key': 'NaN', 'origWidth': 410, 'origHeight': 410, 'width': 410, 'height': 410, 'widthPercent': 0.8, 'rescaleHeight': True, 'trialN': 2, 'loaded': True, 'loadedTime': 2381, 'positionName': 'CENTER', 'positionCoords': [435, 155]}]",Rate how much you want to eat this food from 0 (least) to 10 (most).,8997.5,1669830000450,banana,1332.800000011921,True,7.4,10330.300000011921,1332.800000011921,True,HRV,HRV_0005,2022-11-30 17:42:05
3,"[{'imgObject': {}, 'id': 'pear', 'src': '/static/foodstim60/pear.jpg', 'key': 'NaN', 'origWidth': 411, 'origHeight': 410, 'width': 411, 'height': 410, 'widthPercent': 0.8, 'rescaleHeight': True, 'trialN': 3, 'loaded': True, 'loadedTime': 2383.800000011921, 'positionName': 'CENTER', 'positionCoords': [434.5, 155]}]",Rate how much you want to eat this food from 0 (least) to 10 (most).,10331.5,1669830001784,pear,1440.4000000357628,True,6.8500000000000005,11771.900000035763,1440.4000000357628,True,HRV,HRV_0005,2022-11-30 17:42:05
4,"[{'imgObject': {}, 'id': 'omelette', 'src': '/static/foodstim60/omelette.jpg', 'key': 'NaN', 'origWidth': 410, 'origHeight': 409, 'width': 410, 'height': 409, 'widthPercent': 0.8, 'rescaleHeight': True, 'trialN': 4, 'loaded': True, 'loadedTime': 2384.400000035763, 'positionName': 'CENTER', 'positionCoords': [435, 155.5]}]",Rate how much you want to eat this food from 0 (least) to 10 (most).,11772.699999988079,1669830003226,omelette,2417.600000023842,True,1.34,14190.300000011921,2417.600000023842,True,HRV,HRV_0005,2022-11-30 17:42:05
5,"[{'imgObject': {}, 'id': 'froot loops w milk', 'src': '/static/foodstim60/froot loops w milk.jpg', 'key': 'NaN', 'origWidth': 410, 'origHeight': 410, 'width': 410, 'height': 410, 'widthPercent': 0.8, 'rescaleHeight': True, 'trialN': 5, 'loaded': True, 'loadedTime': 2385.900000035763, 'positionName': 'CENTER', 'positionCoords': [435, 155]}]",Rate how much you want to eat this food from 0 (least) to 10 (most).,14191.5,1669830005644,froot loops w milk,2040.800000011921,True,7.62,16232.300000011921,2040.800000011921,True,HRV,HRV_0005,2022-11-30 17:42:05
6,"[{'imgObject': {}, 'id': 'turkeysandwich', 'src': '/static/foodstim60/turkeysandwich.jpg', 'key': 'NaN', 'origWidth': 409, 'origHeight': 409, 'width': 409, 'height': 409, 'widthPercent': 0.8, 'rescaleHeight': True, 'trialN': 6, 'loaded': True, 'loadedTime': 2390.100000023842, 'positionName': 'CENTER', 'positionCoords': [435.5, 155.5]}]",Rate how much you want to eat this food from 0 (least) to 10 (most).,16233.5,1669830007686,turkeysandwich,2018.9000000357628,True,9.34,18252.400000035763,2018.9000000357628,True,HRV,HRV_0005,2022-11-30 17:42:05
7,"[{'imgObject': {}, 'id': 'rigatoni', 'src': '/static/foodstim60/rigatoni.jpg', 'key': 'NaN', 'origWidth': 411, 'origHeight': 411, 'width': 411, 'height': 411, 'widthPercent': 0.8, 'rescaleHeight': True, 'trialN': 7, 'loaded': True, 'loadedTime': 2391.300000011921, 'positionName': 'CENTER', 'positionCoords': [434.5, 154.5]}]",Rate how much you want to eat this food from 0 (least) to 10 (most).,18253.600000023842,1669830009706,rigatoni,2234.800000011921,True,1.9000000000000001,20488.400000035763,2234.800000011921,True,HRV,HRV_0005,2022-11-30 17:42:05
8,"[{'imgObject': {}, 'id': 'veggieswithdip', 'src': '/static/foodstim60/veggieswithdip.jpg', 'key': 'NaN', 'origWidth': 409, 'origHeight': 409, 'width': 409, 'height': 409, 'widthPercent': 0.8, 'rescaleHeight': True, 'trialN': 8, 'loaded': True, 'loadedTime': 2392.800000011921, 'positionName': 'CENTER', 'positionCoords': [435.5, 155.5]}]",Rate how much you want to eat this food from 0 (least) to 10 (most).,20489.5,1669830011942,veggieswithdip,3466.800000011921,True,4.9,23956.30000001192,3466.800000011921,True,HRV,HRV_0005,2022-11-30 17:42:05
9,"[{'imgObject': {}, 'id': 'cherry tomato', 'src': '/static/foodstim60/cherry tomato.jpg', 'key': 'NaN', 'origWidth': 410, 'origHeight': 410, 'width': 410, 'height': 410, 'widthPercent': 0.8, 'rescaleHeight': True, 'trialN': 9, 'loaded': True, 'loadedTime': 2394.300000011921, 'positionName': 'CENTER', 'positionCoords': [435, 155]}]",Rate how much you want to eat this food from 0 (least) to 10 (most).,23957.600000023842,1669830015410,cherry tomato,1598.800000011921,True,4.29,25556.400000035763,1598.800000011921,True,HRV,HRV_0005,2022-11-30 17:42:05
10,"[{'imgObject': {}, 'id': 'corn cob', 'src': '/static/foodstim60/corn cob.jpg', 'key': 'NaN', 'origWidth': 411, 'origHeight': 411, 'width': 411, 'height': 411, 'widthPercent': 0.8, 'rescaleHeight': True, 'trialN': 10, 'loaded': True, 'loadedTime': 2398.699999988079, 'positionName': 'CENTER', 'positionCoords': [434.5, 154.5]}]",Rate how much you want to eat this food from 0 (least) to 10 (most).,25557.80000001192,1669830017010,corn cob,2206.5,True,6.46,27764.30000001192,2206.5,True,HRV,HRV_0005,2022-11-30 17:42:05
11,"[{'imgObject': {}, 'id': 'olives', 'src': '/static/foodstim60/olives.jpg', 'key': 'NaN', 'origWidth': 410, 'origHeight': 410, 'width': 410, 'height': 410, 'widthPercent': 0.8, 'rescaleHeight': True, 'trialN': 11, 'loaded': True, 'loadedTime': 2400.199999988079, 'positionName': 'CENTER', 'positionCoords': [435, 155]}]",Rate how much you want to eat this food from 0 (least) to 10 (most).,27765.69999998808,1669830019218,olives,1878.6000000238419,True,0.0,29644.30000001192,1878.6000000238419,True,HRV,HRV_0005,2022-11-30 17:42:05
12,"[{'imgObject': {}, 'id': 'popsicles', 'src': '/static/foodstim60/popsicles.jpg', 'key': 'NaN', 'origWidth': 410, 'origHeight': 410, 'width': 410, 'height': 410, 'widthPercent': 0.8, 'rescaleHeight': True, 'trialN': 12, 'loaded': True, 'loadedTime': 2402.100000023842, 'positionName': 'CENTER', 'positionCoords': [435, 155]}]",Rate how much you want to eat this food from 0 (least) to 10 (most).,29645.600000023842,1669830021098,popsicles,2274.800000011921,True,9.0,31920.400000035763,2274.800000011921,True,HRV,HRV_0005,2022-11-30 17:42:05
13,"[{'imgObject': {}, 'id': 'ice cream sundae 002', 'src': '/static/foodstim60/ice cream sundae 002.jpg', 'key': 'NaN', 'origWidth': 409, 'origHeight': 409, 'width': 409, 'height': 409, 'widthPercent': 0.8, 'rescaleHeight': True, 'trialN': 13, 'loaded': True, 'loadedTime': 2403.5, 'positionName': 'CENTER', 'positionCoords': [435.5, 155.5]}]",Rate how much you want to eat this food from 0 (least) to 10 (most).,31921.80000001192,1669830023374,ice cream sundae 002,1738.5,True,7.9,33660.30000001192,1738.5,True,HRV,HRV_0005,2022-11-30 17:42:05
14,"[{'imgObject': {}, 'id': 'fruitsalad', 'src': '/static/foodstim60/fruitsalad.jpg', 'key': 'NaN', 'origWidth': 410, 'origHeight': 410, 'width': 410, 'height': 410, 'widthPercent': 0.8, 'rescaleHeight': True, 'trialN': 14, 'loaded': True, 'loadedTime': 2405.600000023842, 'positionName': 'CENTER', 'positionCoords': [435, 155]}]",Rate how much you want to eat this food from 0 (least) to 10 (most).,33661.80000001192,1669830025114,fruitsalad,1782.6000000238419,True,8.26,35444.40000003576,1782.6000000238419,True,HRV,HRV_0005,2022-11-30 17:42:05
15,"[{'imgObject': {}, 'id': 'raspberries', 'src': '/static/foodstim60/raspberries.jpg', 'key': 'NaN', 'origWidth': 411, 'origHeight': 411, 'width': 411, 'height': 411, 'widthPercent': 0.8, 'rescaleHeight': True, 'trialN': 15, 'loaded': True, 'loadedTime': 2406.800000011921, 'positionName': 'CENTER', 'positionCoords': [434.5, 154.5]}]",Rate how much you want to eat this food from 0 (least) to 10 (most).,35445.69999998808,1669830026898,raspberries,2034.6000000238419,True,8.03,37480.30000001192,2034.6000000238419,True,HRV,HRV_0005,2022-11-30 17:42:05
16,"[{'imgObject': {}, 'id': 'lox', 'src': '/static/foodstim60/lox.jpg', 'key': 'NaN', 'origWidth': 410, 'origHeight': 411, 'width': 410, 'height': 411, 'widthPercent': 0.8, 'rescaleHeight': True, 'trialN': 16, 'loaded': True, 'loadedTime': 2407.699999988079, 'positionName': 'CENTER', 'positionCoords': [435, 154.5]}]",Rate how much you want to eat this food from 0 (least) to 10 (most).,37481.40000003576,1669830028934,lox,2448.899999976158,True,0.1,39930.30000001192,2448.899999976158,True,HRV,HRV_0005,2022-11-30 17:42:05
17,"[{'imgObject': {}, 'id': 'burger', 'src': '/static/foodstim60/burger.jpg', 'key': 'NaN', 'origWidth': 409, 'origHeight': 409, 'width': 409, 'height': 409, 'widthPercent': 0.8, 'rescaleHeight': True, 'trialN': 17, 'loaded': True, 'loadedTime': 2408.100000023842, 'positionName': 'CENTER', 'positionCoords': [435.5, 155.5]}]",Rate how much you want to eat this food from 0 (least) to 10 (most).,39931.40000003576,1669830031384,burger,1892.8999999761581,True,9.93,41824.30000001192,1892.8999999761581,True,HRV,HRV_0005,2022-11-30 17:42:05
18,"[{'imgObject': {}, 'id': 'cherries', 'src': '/static/foodstim60/cherries.jpg', 'key': 'NaN', 'origWidth': 410, 'origHeight': 411, 'width': 410, 'height': 411, 'widthPercent': 0.8, 'rescaleHeight': True, 'trialN': 18, 'loaded': True, 'loadedTime': 2412.600000023842, 'positionName': 'CENTER', 'positionCoords': [435, 154.5]}]",Rate how much you want to eat this food from 0 (least) to 10 (most).,41825.40000003576,1669830033278,cherries,1509.0,True,9.92,43334.40000003576,1509.0,True,HRV,HRV_0005,2022-11-30 17:42:05
19,"[{'imgObject': {}, 'id': 'mango', 'src': '/static/foodstim60/mango.jpg', 'key': 'NaN', 'origWidth': 411, 'origHeight': 411, 'width': 411, 'height': 411, 'widthPercent': 0.8, 'rescaleHeight': True, 'trialN': 19, 'loaded': True, 'loadedTime': 2413.5, 'positionName': 'CENTER', 'positionCoords': [434.5, 154.5]}]",Rate how much you want to eat this food from 0 (least) to 10 (most).,43335.5,1669830034788,mango,2690.800000011921,True,6.25,46026.30000001192,2690.800000011921,True,HRV,HRV_0005,2022-11-30 17:42:05
20,"[{'imgObject': {}, 'id': 'yogurt no spoon', 'src': '/static/foodstim60/yogurt no spoon.jpg', 'key': 'NaN', 'origWidth': 411, 'origHeight': 410, 'width': 411, 'height': 410, 'widthPercent': 0.8, 'rescaleHeight': True, 'trialN': 20, 'loaded': True, 'loadedTime': 2413.900000035763, 'positionName': 'CENTER', 'positionCoords': [434.5, 155]}]",Rate how much you want to eat this food from 0 (least) to 10 (most).,46027.40000003576,1669830037480,yogurt no spoon,1961.0999999642372,True,7.59,47988.5,1961.0999999642372,True,HRV,HRV_0005,2022-11-30 17:42:05
21,"[{'imgObject': {}, 'id': 'seaweed', 'src': '/static/foodstim60/seaweed.jpg', 'key': 'NaN', 'origWidth': 410, 'origHeight': 410, 'width': 410, 'height': 410, 'widthPercent': 0.8, 'rescaleHeight': True, 'trialN': 21, 'loaded': True, 'loadedTime': 2391.900000035763, 'positionName': 'CENTER', 'positionCoords': [435, 155]}]",Rate how much you want to eat this food from 0 (least) to 10 (most).,47989.60000002384,1669830039442,seaweed,2080.699999988079,True,0.0,50070.30000001192,2080.699999988079,True,HRV,HRV_0005,2022-11-30 17:42:05
22,"[{'imgObject': {}, 'id': 'salad w chicken', 'src': '/static/foodstim60/salad w chicken.jpg', 'key': 'NaN', 'origWidth': 411, 'origHeight': 411, 'width': 411, 'height': 411, 'widthPercent': 0.8, 'rescaleHeight': True, 'trialN': 22, 'loaded': True, 'loadedTime': 2393.600000023842, 'positionName': 'CENTER', 'positionCoords': [434.5, 154.5]}]",Rate how much you want to eat this food from 0 (least) to 10 (most).,50071.60000002384,1669830041524,salad w chicken,2173.099999964237,True,8.56,52244.69999998808,2173.099999964237,True,HRV,HRV_0005,2022-11-30 17:42:05
23,"[{'imgObject': {}, 'id': 'apple slices', 'src': '/static/foodstim60/apple slices.jpg', 'key': 'NaN', 'origWidth': 409, 'origHeight': 410, 'width': 409, 'height': 410, 'widthPercent': 0.8, 'rescaleHeight': True, 'trialN': 23, 'loaded': True, 'loadedTime': 2399.5, 'positionName': 'CENTER', 'positionCoords': [435.5, 155]}]",Rate how much you want to eat this food from 0 (least) to 10 (most).,52245.5,1669830043698,apple slices,2096.800000011921,True,7.5,54342.30000001192,2096.800000011921,True,HRV,HRV_0005,2022-11-30 17:42:05
24,"[{'imgObject': {}, 'id': 'hashbrowns', 'src': '/static/foodstim60/hashbrowns.jpg', 'key': 'NaN', 'origWidth': 411, 'origHeight': 410, 'width': 411, 'height': 410, 'widthPercent': 0.8, 'rescaleHeight': True, 'trialN': 24, 'loaded': True, 'loadedTime': 2401.400000035763, 'positionName': 'CENTER', 'positionCoords': [434.5, 155]}]",Rate how much you want to eat this food from 0 (least) to 10 (most).,54343.60000002384,1669830045796,hashbrowns,1912.699999988079,True,5.01,56256.30000001192,1912.699999988079,True,HRV,HRV_0005,2022-11-30 17:42:05
25,"[{'imgObject': {}, 'id': 'rigatoni and sauce', 'src': '/static/foodstim60/rigatoni and sauce.jpg', 'key': 'NaN', 'origWidth': 410, 'origHeight': 411, 'width': 410, 'height': 411, 'widthPercent': 0.8, 'rescaleHeight': True, 'trialN': 25, 'loaded': True, 'loadedTime': 2402.800000011921, 'positionName': 'CENTER', 'positionCoords': [435, 154.5]}]",Rate how much you want to eat this food from 0 (least) to 10 (most).,56257.60000002384,1669830047710,rigatoni and sauce,2088.699999988079,True,7.57,58346.30000001192,2088.699999988079,True,HRV,HRV_0005,2022-11-30 17:42:05
26,"[{'imgObject': {}, 'id': 'kiwi', 'src': '/static/foodstim60/kiwi.jpg', 'key': 'NaN', 'origWidth': 410, 'origHeight': 410, 'width': 410, 'height': 410, 'widthPercent': 0.8, 'rescaleHeight': True, 'trialN': 26, 'loaded': True, 'loadedTime': 2406.300000011921, 'positionName': 'CENTER', 'positionCoords': [435, 155]}]",Rate how much you want to eat this food from 0 (least) to 10 (most).,58347.69999998808,1669830049800,kiwi,1590.7000000476837,True,8.68,59938.40000003576,1590.7000000476837,True,HRV,HRV_0005,2022-11-30 17:42:05
27,"[{'imgObject': {}, 'id': 'burrito', 'src': '/static/foodstim60/burrito.jpg', 'key': 'NaN', 'origWidth': 410, 'origHeight': 410, 'width': 410, 'height': 410, 'widthPercent': 0.8, 'rescaleHeight': True, 'trialN': 27, 'loaded': True, 'loadedTime': 2407.199999988079, 'positionName': 'CENTER', 'positionCoords': [435, 155]}]",Rate how much you want to eat this food from 0 (least) to 10 (most).,59939.60000002384,1669830051392,burrito,1682.699999988079,True,8.9,61622.30000001192,1682.699999988079,True,HRV,HRV_0005,2022-11-30 17:42:05
28,"[{'imgObject': {}, 'id': 'mac & cheese', 'src': '/static/foodstim60/mac & cheese.jpg', 'key': 'NaN', 'origWidth': 410, 'origHeight': 410, 'width': 410, 'height': 410, 'widthPercent': 0.8, 'rescaleHeight': True, 'trialN': 28, 'loaded': True, 'loadedTime': 2408.5, 'positionName': 'CENTER', 'positionCoords': [435, 155]}]",Rate how much you want to eat this food from 0 (least) to 10 (most).,61623.69999998808,1669830053076,mac & cheese,2024.6000000238419,True,4.14,63648.30000001192,2024.6000000238419,True,HRV,HRV_0005,2022-11-30 17:42:05
29,"[{'imgObject': {}, 'id': 'orange slices', 'src': '/static/foodstim60/orange slices.jpg', 'key': 'NaN', 'origWidth': 409, 'origHeight': 410, 'width': 409, 'height': 410, 'widthPercent': 0.8, 'rescaleHeight': True, 'trialN': 29, 'loaded': True, 'loadedTime': 2411.400000035763, 'positionName': 'CENTER', 'positionCoords': [435.5, 155]}]",Rate how much you want to eat this food from 0 (least) to 10 (most).,63649.69999998808,1669830055102,orange slices,1946.6000000238419,True,8.45,65596.30000001192,1946.6000000238419,True,HRV,HRV_0005,2022-11-30 17:42:05
30,"[{'imgObject': {}, 'id': 'shreddedwheatwithmilk', 'src': '/static/foodstim60/shreddedwheatwithmilk.jpg', 'key': 'NaN', 'origWidth': 410, 'origHeight': 410, 'width': 410, 'height': 410, 'widthPercent': 0.8, 'rescaleHeight': True, 'trialN': 30, 'loaded': True, 'loadedTime': 2412.199999988079, 'positionName': 'CENTER', 'positionCoords': [435, 155]}]",Rate how much you want to eat this food from 0 (least) to 10 (most).,65597.69999998808,1669830057050,shreddedwheatwithmilk,2514.7000000476837,True,2.06,68112.40000003576,2514.7000000476837,True,HRV,HRV_0005,2022-11-30 17:42:05
31,"[{'imgObject': {}, 'id': 'strawberries', 'src': '/static/foodstim60/strawberries.jpg', 'key': 'NaN', 'origWidth': 410, 'origHeight': 410, 'width': 410, 'height': 410, 'widthPercent': 0.8, 'rescaleHeight': True, 'trialN': 31, 'loaded': True, 'loadedTime': 2413, 'positionName': 'CENTER', 'positionCoords': [435, 155]}]",Rate how much you want to eat this food from 0 (least) to 10 (most).,68113.80000001192,1669830059566,strawberries,2430.5,True,9.23,70544.30000001192,2430.5,True,HRV,HRV_0005,2022-11-30 17:42:05
32,"[{'imgObject': {}, 'id': 'bagel and cc', 'src': '/static/foodstim60/bagel and cc.jpg', 'key': 'NaN', 'origWidth': 410, 'origHeight': 410, 'width': 410, 'height': 410, 'widthPercent': 0.8, 'rescaleHeight': True, 'trialN': 32, 'loaded': True, 'loadedTime': 2414.300000011921, 'positionName': 'CENTER', 'positionCoords': [435, 155]}]",Rate how much you want to eat this food from 0 (least) to 10 (most).,70545.69999998808,1669830061998,bagel and cc,1752.6000000238419,True,7.67,72298.30000001192,1752.6000000238419,True,HRV,HRV_0005,2022-11-30 17:42:05
33,"[{'imgObject': {}, 'id': 'steak', 'src': '/static/foodstim60/steak.jpg', 'key': 'NaN', 'origWidth': 410, 'origHeight': 410, 'width': 410, 'height': 410, 'widthPercent': 0.8, 'rescaleHeight': True, 'trialN': 33, 'loaded': True, 'loadedTime': 2416.800000011921, 'positionName': 'CENTER', 'positionCoords': [435, 155]}]",Rate how much you want to eat this food from 0 (least) to 10 (most).,72299.5,1669830063752,steak,1804.800000011921,True,9.870000000000001,74104.30000001192,1804.800000011921,True,HRV,HRV_0005,2022-11-30 17:42:05
34,"[{'imgObject': {}, 'id': 'cantaloupe', 'src': '/static/foodstim60/cantaloupe.jpg', 'key': 'NaN', 'origWidth': 409, 'origHeight': 409, 'width': 409, 'height': 409, 'widthPercent': 0.8, 'rescaleHeight': True, 'trialN': 34, 'loaded': True, 'loadedTime': 2417.600000023842, 'positionName': 'CENTER', 'positionCoords': [435.5, 155.5]}]",Rate how much you want to eat this food from 0 (least) to 10 (most).,74105.40000003576,1669830065558,cantaloupe,2068.899999976158,True,6.78,76174.30000001192,2068.899999976158,True,HRV,HRV_0005,2022-11-30 17:42:05
35,"[{'imgObject': {}, 'id': 'grilled chicken strips', 'src': '/static/foodstim60/grilled chicken strips.jpg', 'key': 'NaN', 'origWidth': 410, 'origHeight': 411, 'width': 410, 'height': 411, 'widthPercent': 0.8, 'rescaleHeight': True, 'trialN': 35, 'loaded': True, 'loadedTime': 2418, 'positionName': 'CENTER', 'positionCoords': [435, 154.5]}]",Rate how much you want to eat this food from 0 (least) to 10 (most).,76175.40000003576,1669830067628,grilled chicken strips,1551.0,True,9.09,77726.40000003576,1551.0,True,HRV,HRV_0005,2022-11-30 17:42:05
36,"[{'imgObject': {}, 'id': 'chickenfingers', 'src': '/static/foodstim60/chickenfingers.jpg', 'key': 'NaN', 'origWidth': 410, 'origHeight': 410, 'width': 410, 'height': 410, 'widthPercent': 0.8, 'rescaleHeight': True, 'trialN': 36, 'loaded': True, 'loadedTime': 2418.5, 'positionName': 'CENTER', 'positionCoords': [435, 155]}]",Rate how much you want to eat this food from 0 (least) to 10 (most).,77727.40000003576,1669830069180,chickenfingers,1655.0,True,8.46,79382.40000003576,1655.0,True,HRV,HRV_0005,2022-11-30 17:42:05
37,"[{'imgObject': {}, 'id': 'eggs', 'src': '/static/foodstim60/eggs.jpg', 'key': 'NaN', 'origWidth': 409, 'origHeight': 409, 'width': 409, 'height': 409, 'widthPercent': 0.8, 'rescaleHeight': True, 'trialN': 37, 'loaded': True, 'loadedTime': 2418.900000035763, 'positionName': 'CENTER', 'positionCoords': [435.5, 155.5]}]",Rate how much you want to eat this food from 0 (least) to 10 (most).,79383.5,1669830070836,eggs,1184.800000011921,True,8.53,80568.30000001192,1184.800000011921,True,HRV,HRV_0005,2022-11-30 17:42:05
38,"[{'imgObject': {}, 'id': 'blueberries', 'src': '/static/foodstim60/blueberries.jpg', 'key': 'NaN', 'origWidth': 411, 'origHeight': 411, 'width': 411, 'height': 411, 'widthPercent': 0.8, 'rescaleHeight': True, 'trialN': 38, 'loaded': True, 'loadedTime': 2419.400000035763, 'positionName': 'CENTER', 'positionCoords': [434.5, 154.5]}]",Rate how much you want to eat this food from 0 (least) to 10 (most).,80569.40000003576,1669830072022,blueberries,2278.899999976158,True,9.950000000000001,82848.30000001192,2278.899999976158,True,HRV,HRV_0005,2022-11-30 17:42:05
39,"[{'imgObject': {}, 'id': 'chicken nuggets2', 'src': '/static/foodstim60/chicken nuggets2.jpg', 'key': 'NaN', 'origWidth': 410, 'origHeight': 409, 'width': 410, 'height': 409, 'widthPercent': 0.8, 'rescaleHeight': True, 'trialN': 39, 'loaded': True, 'loadedTime': 2419.800000011921, 'positionName': 'CENTER', 'positionCoords': [435, 155.5]}]",Rate how much you want to eat this food from 0 (least) to 10 (most).,82849.5,1669830074302,chicken nuggets2,2792.900000035763,True,2.0,85642.40000003576,2792.900000035763,True,HRV,HRV_0005,2022-11-30 17:42:05
40,"[{'imgObject': {}, 'id': 'baked potato', 'src': '/static/foodstim60/baked potato.jpg', 'key': 'NaN', 'origWidth': 409, 'origHeight': 410, 'width': 409, 'height': 410, 'widthPercent': 0.8, 'rescaleHeight': True, 'trialN': 40, 'loaded': True, 'loadedTime': 2421.800000011921, 'positionName': 'CENTER', 'positionCoords': [435.5, 155]}]",Rate how much you want to eat this food from 0 (least) to 10 (most).,85643.60000002384,1669830077096,baked potato,1532.8999999761581,True,1.85,87176.5,1532.8999999761581,True,HRV,HRV_0005,2022-11-30 17:42:05
41,"[{'imgObject': {}, 'id': 'granola w milk', 'src': '/static/foodstim60/granola w milk.jpg', 'key': 'NaN', 'origWidth': 410, 'origHeight': 410, 'width': 410, 'height': 410, 'widthPercent': 0.8, 'rescaleHeight': True, 'trialN': 41, 'loaded': True, 'loadedTime': 2422.300000011921, 'positionName': 'CENTER', 'positionCoords': [435, 155]}]",Rate how much you want to eat this food from 0 (least) to 10 (most).,87177.69999998808,1669830078630,granola w milk,1824.6000000238419,True,8.01,89002.30000001192,1824.6000000238419,True,HRV,HRV_0005,2022-11-30 17:42:05
42,"[{'imgObject': {}, 'id': 'luckycharms', 'src': '/static/foodstim60/luckycharms.jpg', 'key': 'NaN', 'origWidth': 410, 'origHeight': 409, 'width': 410, 'height': 409, 'widthPercent': 0.8, 'rescaleHeight': True, 'trialN': 42, 'loaded': True, 'loadedTime': 2422.699999988079, 'positionName': 'CENTER', 'positionCoords': [435, 155.5]}]",Rate how much you want to eat this food from 0 (least) to 10 (most).,89003.40000003576,1669830080456,luckycharms,2123.0,True,7.92,91126.40000003576,2123.0,True,HRV,HRV_0005,2022-11-30 17:42:05
43,"[{'imgObject': {}, 'id': 'cocktailshrimp', 'src': '/static/foodstim60/cocktailshrimp.jpg', 'key': 'NaN', 'origWidth': 410, 'origHeight': 410, 'width': 410, 'height': 410, 'widthPercent': 0.8, 'rescaleHeight': True, 'trialN': 43, 'loaded': True, 'loadedTime': 2423.199999988079, 'positionName': 'CENTER', 'positionCoords': [435, 155]}]",Rate how much you want to eat this food from 0 (least) to 10 (most).,91127.69999998808,1669830082580,cocktailshrimp,1616.6000000238419,True,8.0,92744.30000001192,1616.6000000238419,True,HRV,HRV_0005,2022-11-30 17:42:05
44,"[{'imgObject': {}, 'id': 'roastedpotatoes', 'src': '/static/foodstim60/roastedpotatoes.jpg', 'key': 'NaN', 'origWidth': 409, 'origHeight': 410, 'width': 409, 'height': 410, 'widthPercent': 0.8, 'rescaleHeight': True, 'trialN': 44, 'loaded': True, 'loadedTime': 2423.699999988079, 'positionName': 'CENTER', 'positionCoords': [435.5, 155]}]",Rate how much you want to eat this food from 0 (least) to 10 (most).,92745.5,1669830084198,roastedpotatoes,1886.800000011921,True,7.01,94632.30000001192,1886.800000011921,True,HRV,HRV_0005,2022-11-30 17:42:05
45,"[{'imgObject': {}, 'id': 'Tribe humus pita', 'src': '/static/foodstim60/Tribe humus pita.jpg', 'key': 'NaN', 'origWidth': 411, 'origHeight': 411, 'width': 411, 'height': 411, 'widthPercent': 0.8, 'rescaleHeight': True, 'trialN': 45, 'loaded': True, 'loadedTime': 2424.100000023842, 'positionName': 'CENTER', 'positionCoords': [434.5, 154.5]}]",Rate how much you want to eat this food from 0 (least) to 10 (most).,94633.5,1669830086086,Tribe humus pita,1994.9000000357628,True,8.68,96628.40000003576,1994.9000000357628,True,HRV,HRV_0005,2022-11-30 17:42:05
46,"[{'imgObject': {}, 'id': 'salmon', 'src': '/static/foodstim60/salmon.jpg', 'key': 'NaN', 'origWidth': 410, 'origHeight': 409, 'width': 410, 'height': 409, 'widthPercent': 0.8, 'rescaleHeight': True, 'trialN': 46, 'loaded': True, 'loadedTime': 2424.600000023842, 'positionName': 'CENTER', 'positionCoords': [435, 155.5]}]",Rate how much you want to eat this food from 0 (least) to 10 (most).,96629.69999998808,1669830088082,salmon,2206.600000023842,True,0.0,98836.30000001192,2206.600000023842,True,HRV,HRV_0005,2022-11-30 17:42:05
47,"[{'imgObject': {}, 'id': 'cheerios', 'src': '/static/foodstim60/cheerios.jpg', 'key': 'NaN', 'origWidth': 409, 'origHeight': 410, 'width': 409, 'height': 410, 'widthPercent': 0.8, 'rescaleHeight': True, 'trialN': 47, 'loaded': True, 'loadedTime': 2426.800000011921, 'positionName': 'CENTER', 'positionCoords': [435.5, 155]}]",Rate how much you want to eat this food from 0 (least) to 10 (most).,98837.60000002384,1669830090290,cheerios,4938.699999988079,True,6.03,103776.30000001192,4938.699999988079,True,HRV,HRV_0005,2022-11-30 17:42:05
48,"[{'imgObject': {}, 'id': 'turkey sandwich', 'src': '/static/foodstim60/turkey sandwich.jpg', 'key': 'NaN', 'origWidth': 409, 'origHeight': 409, 'width': 409, 'height': 409, 'widthPercent': 0.8, 'rescaleHeight': True, 'trialN': 48, 'loaded': True, 'loadedTime': 2427.5, 'positionName': 'CENTER', 'positionCoords': [435.5, 155.5]}]",Rate how much you want to eat this food from 0 (least) to 10 (most).,103777.5,1669830095230,turkey sandwich,2802.900000035763,True,9.950000000000001,106580.40000003576,2802.900000035763,True,HRV,HRV_0005,2022-11-30 17:42:05
49,"[{'imgObject': {}, 'id': 'hotdog w must', 'src': '/static/foodstim60/hotdog w must.jpg', 'key': 'NaN', 'origWidth': 409, 'origHeight': 409, 'width': 409, 'height': 409, 'widthPercent': 0.8, 'rescaleHeight': True, 'trialN': 49, 'loaded': True, 'loadedTime': 2428.100000023842, 'positionName': 'CENTER', 'positionCoords': [435.5, 155.5]}]",Rate how much you want to eat this food from 0 (least) to 10 (most).,106581.80000001192,1669830098034,hotdog w must,3706.600000023842,True,9.92,110288.40000003576,3706.600000023842,True,HRV,HRV_0005,2022-11-30 17:42:05
50,"[{'imgObject': {}, 'id': 'bagel plain', 'src': '/static/foodstim60/bagel plain.jpg', 'key': 'NaN', 'origWidth': 410, 'origHeight': 410, 'width': 410, 'height': 410, 'widthPercent': 0.8, 'rescaleHeight': True, 'trialN': 50, 'loaded': True, 'loadedTime': 2428.5, 'positionName': 'CENTER', 'positionCoords': [435, 155]}]",Rate how much you want to eat this food from 0 (least) to 10 (most).,110289.69999998808,1669830101742,bagel plain,2970.5,True,6.140000000000001,113260.19999998808,2970.5,True,HRV,HRV_0005,2022-11-30 17:42:05
51,"[{'imgObject': {}, 'id': 'tacos', 'src': '/static/foodstim60/tacos.jpg', 'key': 'NaN', 'origWidth': 411, 'origHeight': 411, 'width': 411, 'height': 411, 'widthPercent': 0.8, 'rescaleHeight': True, 'trialN': 51, 'loaded': True, 'loadedTime': 2429, 'positionName': 'CENTER', 'positionCoords': [434.5, 154.5]}]",Rate how much you want to eat this food from 0 (least) to 10 (most).,113261.60000002384,1669830104714,tacos,2386.599999964237,True,9.59,115648.19999998808,2386.599999964237,True,HRV,HRV_0005,2022-11-30 17:42:05
52,"[{'imgObject': {}, 'id': 'avocado', 'src': '/static/foodstim60/avocado.jpg', 'key': 'NaN', 'origWidth': 409, 'origHeight': 409, 'width': 409, 'height': 409, 'widthPercent': 0.8, 'rescaleHeight': True, 'trialN': 52, 'loaded': True, 'loadedTime': 2429.5, 'positionName': 'CENTER', 'positionCoords': [435.5, 155.5]}]",Rate how much you want to eat this food from 0 (least) to 10 (most).,115649.30000001192,1669830107102,avocado,2547.100000023842,True,2.65,118196.40000003576,2547.100000023842,True,HRV,HRV_0005,2022-11-30 17:42:05
53,"[{'imgObject': {}, 'id': 'blackbeanswithrice', 'src': '/static/foodstim60/blackbeanswithrice.jpg', 'key': 'NaN', 'origWidth': 410, 'origHeight': 410, 'width': 410, 'height': 410, 'widthPercent': 0.8, 'rescaleHeight': True, 'trialN': 53, 'loaded': True, 'loadedTime': 2430, 'positionName': 'CENTER', 'positionCoords': [435, 155]}]",Rate how much you want to eat this food from 0 (least) to 10 (most).,118197.5,1669830109650,blackbeanswithrice,1634.800000011921,True,2.85,119832.30000001192,1634.800000011921,True,HRV,HRV_0005,2022-11-30 17:42:05
54,"[{'imgObject': {}, 'id': 'Grapes', 'src': '/static/foodstim60/Grapes.jpg', 'key': 'NaN', 'origWidth': 411, 'origHeight': 411, 'width': 411, 'height': 411, 'widthPercent': 0.8, 'rescaleHeight': True, 'trialN': 54, 'loaded': True, 'loadedTime': 2432.800000011921, 'positionName': 'CENTER', 'positionCoords': [434.5, 154.5]}]",Rate how much you want to eat this food from 0 (least) to 10 (most).,119833.40000003576,1669830111286,Grapes,1717.0,True,5.57,121550.40000003576,1717.0,True,HRV,HRV_0005,2022-11-30 17:42:05
55,"[{'imgObject': {}, 'id': 'sushi w_condiments', 'src': '/static/foodstim60/sushi w_condiments.jpg', 'key': 'NaN', 'origWidth': 410, 'origHeight': 410, 'width': 410, 'height': 410, 'widthPercent': 0.8, 'rescaleHeight': True, 'trialN': 55, 'loaded': True, 'loadedTime': 2433.600000023842, 'positionName': 'CENTER', 'positionCoords': [435, 155]}]",Rate how much you want to eat this food from 0 (least) to 10 (most).,121551.5,1669830113004,sushi w_condiments,1764.699999988079,True,0.03,123316.19999998808,1764.699999988079,True,HRV,HRV_0005,2022-11-30 17:42:05
56,"[{'imgObject': {}, 'id': 'edamame', 'src': '/static/foodstim60/edamame.jpg', 'key': 'NaN', 'origWidth': 409, 'origHeight': 410, 'width': 409, 'height': 410, 'widthPercent': 0.8, 'rescaleHeight': True, 'trialN': 56, 'loaded': True, 'loadedTime': 2433.900000035763, 'positionName': 'CENTER', 'positionCoords': [435.5, 155]}]",Rate how much you want to eat this food from 0 (least) to 10 (most).,123317.30000001192,1669830114770,edamame,3681.100000023842,True,5.03,126998.40000003576,3681.100000023842,True,HRV,HRV_0005,2022-11-30 17:42:05
57,"[{'imgObject': {}, 'id': 'eggsalad', 'src': '/static/foodstim60/eggsalad.jpg', 'key': 'NaN', 'origWidth': 410, 'origHeight': 409, 'width': 410, 'height': 409, 'widthPercent': 0.8, 'rescaleHeight': True, 'trialN': 57, 'loaded': True, 'loadedTime': 2434.5, 'positionName': 'CENTER', 'positionCoords': [435, 155.5]}]",Rate how much you want to eat this food from 0 (least) to 10 (most).,126999.60000002384,1669830118452,eggsalad,3460.699999988079,True,2.2800000000000002,130460.30000001192,3460.699999988079,True,HRV,HRV_0005,2022-11-30 17:42:05
58,"[{'imgObject': {}, 'id': 'mashed potato', 'src': '/static/foodstim60/mashed potato.jpg', 'key': 'NaN', 'origWidth': 409, 'origHeight': 409, 'width': 409, 'height': 409, 'widthPercent': 0.8, 'rescaleHeight': True, 'trialN': 58, 'loaded': True, 'loadedTime': 2434.900000035763, 'positionName': 'CENTER', 'positionCoords': [435.5, 155.5]}]",Rate how much you want to eat this food from 0 (least) to 10 (most).,130461.60000002384,1669830121914,mashed potato,2006.699999988079,True,5.0,132468.30000001192,2006.699999988079,True,HRV,HRV_0005,2022-11-30 17:42:05
59,"[{'imgObject': {}, 'id': 'fried eggs', 'src': '/static/foodstim60/fried eggs.jpg', 'key': 'NaN', 'origWidth': 410, 'origHeight': 410, 'width': 410, 'height': 410, 'widthPercent': 0.8, 'rescaleHeight': True, 'trialN': 59, 'loaded': True, 'loadedTime': 2435.300000011921, 'positionName': 'CENTER', 'positionCoords': [435, 155]}]",Rate how much you want to eat this food from 0 (least) to 10 (most).,132469.60000002384,1669830123922,fried eggs,2208.800000011921,True,9.9,134678.40000003576,2208.800000011921,True,HRV,HRV_0005,2022-11-30 17:42:05
