trialN,stimuli,trialStartTime,trialStartTime_UNIX,stimulus1,stimulus2,stimulus1Bid,stimulus2Bid,delta,selected,rt,rt_UNIX,rt_perfnow,receivedResponse,rsp,trialEndTime,trialDuration,trialEndTime_UNIX,trialDuration_UNIX,exp,subjectId,date
0,"[{'imgObject': {}, 'id': 'fried eggs', 'src': '/static/foodstim60/fried eggs.jpg', 'key': 'u', 'origWidth': 410, 'origHeight': 410, 'width': 410, 'height': 410, 'widthPercent': 0.45, 'rescaleHeight': False, 'trialN': 0, 'loaded': True, 'loadedTime': 2138.199999988079, 'positionName': 'LEFT', 'positionCoords': [204.4, 155], 'bid': 9.9}, {'imgObject': {}, 'id': 'tacos', 'src': '/static/foodstim60/tacos.jpg', 'key': 'i', 'origWidth': 411, 'origHeight': 411, 'width': 411, 'height': 411, 'widthPercent': 0.45, 'rescaleHeight': False, 'trialN': 0, 'loaded': True, 'loadedTime': 2156.800000011921, 'positionName': 'RIGHT', 'positionCoords': [665.6, 154.5], 'bid': 9.59}]",2498.800000011921,1669830193077,fried eggs,tacos,9.9,9.59,-0.3100000000000005,tacos,1508.8999999761581,1510,1509.199999988079,True,i,4525.300000011921,2026.5,1669830195104,2027,HRV,HRV_0005,2022-11-30 17:48:59
1,"[{'imgObject': {}, 'id': 'mac & cheese', 'src': '/static/foodstim60/mac & cheese.jpg', 'key': 'u', 'origWidth': 410, 'origHeight': 410, 'width': 410, 'height': 410, 'widthPercent': 0.45, 'rescaleHeight': False, 'trialN': 1, 'loaded': True, 'loadedTime': 2160.699999988079, 'positionName': 'LEFT', 'positionCoords': [204.4, 155], 'bid': 4.14}, {'imgObject': {}, 'id': 'salad w chicken', 'src': '/static/foodstim60/salad w chicken.jpg', 'key': 'i', 'origWidth': 411, 'origHeight': 411, 'width': 411, 'height': 411, 'widthPercent': 0.45, 'rescaleHeight': False, 'trialN': 1, 'loaded': True, 'loadedTime': 2169.199999988079, 'positionName': 'RIGHT', 'positionCoords': [665.6, 154.5], 'bid': 8.56}]",4525.5,1669830195104,mac & cheese,salad w chicken,4.14,8.56,4.420000000000001,salad w chicken,1022,1022,1022.1999999880791,True,i,6067.100000023842,1541.6000000238419,1669830196646,1542,HRV,HRV_0005,2022-11-30 17:48:59
2,"[{'imgObject': {}, 'id': 'rigatoni', 'src': '/static/foodstim60/rigatoni.jpg', 'key': 'u', 'origWidth': 411, 'origHeight': 411, 'width': 411, 'height': 411, 'widthPercent': 0.45, 'rescaleHeight': False, 'trialN': 2, 'loaded': True, 'loadedTime': 2173.5, 'positionName': 'LEFT', 'positionCoords': [203.4, 154.5], 'bid': 1.9}, {'imgObject': {}, 'id': 'shreddedwheatwithmilk', 'src': '/static/foodstim60/shreddedwheatwithmilk.jpg', 'key': 'i', 'origWidth': 410, 'origHeight': 410, 'width': 410, 'height': 410, 'widthPercent': 0.45, 'rescaleHeight': False, 'trialN': 2, 'loaded': True, 'loadedTime': 2180.699999988079, 'positionName': 'RIGHT', 'positionCoords': [665.6, 155], 'bid': 2.06}]",6067.399999976158,1669830196646,rigatoni,shreddedwheatwithmilk,1.9,2.06,0.16000000000000014,rigatoni,1443.5,1444,1443.9000000357628,True,u,8025.5,1958.1000000238419,1669830198604,1958,HRV,HRV_0005,2022-11-30 17:48:59
3,"[{'imgObject': {}, 'id': 'hotdog w must', 'src': '/static/foodstim60/hotdog w must.jpg', 'key': 'u', 'origWidth': 409, 'origHeight': 409, 'width': 409, 'height': 409, 'widthPercent': 0.45, 'rescaleHeight': False, 'trialN': 3, 'loaded': True, 'loadedTime': 2196.399999976158, 'positionName': 'LEFT', 'positionCoords': [205.4, 155.5], 'bid': 9.92}, {'imgObject': {}, 'id': 'cantaloupe', 'src': '/static/foodstim60/cantaloupe.jpg', 'key': 'i', 'origWidth': 409, 'origHeight': 409, 'width': 409, 'height': 409, 'widthPercent': 0.45, 'rescaleHeight': False, 'trialN': 3, 'loaded': True, 'loadedTime': 2197, 'positionName': 'RIGHT', 'positionCoords': [665.6, 155.5], 'bid': 6.78}]",8025.699999988079,1669830198604,hotdog w must,cantaloupe,9.92,6.78,-3.1399999999999997,hotdog w must,881.3000000119209,882,881.6999999880791,True,u,9414.399999976158,1388.699999988079,1669830199993,1389,HRV,HRV_0005,2022-11-30 17:48:59
4,"[{'imgObject': {}, 'id': 'blackbeanswithrice', 'src': '/static/foodstim60/blackbeanswithrice.jpg', 'key': 'u', 'origWidth': 410, 'origHeight': 410, 'width': 410, 'height': 410, 'widthPercent': 0.45, 'rescaleHeight': False, 'trialN': 4, 'loaded': True, 'loadedTime': 2201.199999988079, 'positionName': 'LEFT', 'positionCoords': [204.4, 155], 'bid': 2.85}, {'imgObject': {}, 'id': 'avocado', 'src': '/static/foodstim60/avocado.jpg', 'key': 'i', 'origWidth': 409, 'origHeight': 409, 'width': 409, 'height': 409, 'widthPercent': 0.45, 'rescaleHeight': False, 'trialN': 4, 'loaded': True, 'loadedTime': 2149.300000011921, 'positionName': 'RIGHT', 'positionCoords': [665.6, 155.5], 'bid': 2.65}]",9414.600000023842,1669830199993,blackbeanswithrice,avocado,2.85,2.65,-0.20000000000000018,blackbeanswithrice,1333.5999999642372,1334,1333.8999999761581,True,u,11252.600000023842,1838.0,1669830201831,1838,HRV,HRV_0005,2022-11-30 17:48:59
5,"[{'imgObject': {}, 'id': 'bagel plain', 'src': '/static/foodstim60/bagel plain.jpg', 'key': 'u', 'origWidth': 410, 'origHeight': 410, 'width': 410, 'height': 410, 'widthPercent': 0.45, 'rescaleHeight': False, 'trialN': 5, 'loaded': True, 'loadedTime': 2153.5, 'positionName': 'LEFT', 'positionCoords': [204.4, 155], 'bid': 6.140000000000001}, {'imgObject': {}, 'id': 'veggieswithdip', 'src': '/static/foodstim60/veggieswithdip.jpg', 'key': 'i', 'origWidth': 409, 'origHeight': 409, 'width': 409, 'height': 409, 'widthPercent': 0.45, 'rescaleHeight': False, 'trialN': 5, 'loaded': True, 'loadedTime': 2159.899999976158, 'positionName': 'RIGHT', 'positionCoords': [665.6, 155.5], 'bid': 4.9}]",11252.800000011921,1669830201832,bagel plain,veggieswithdip,6.140000000000001,4.9,-1.2400000000000002,bagel plain,1439.0999999642372,1439,1439.5,True,u,13202.800000011921,1950.0,1669830203781,1949,HRV,HRV_0005,2022-11-30 17:48:59
6,"[{'imgObject': {}, 'id': 'mango', 'src': '/static/foodstim60/mango.jpg', 'key': 'u', 'origWidth': 411, 'origHeight': 411, 'width': 411, 'height': 411, 'widthPercent': 0.45, 'rescaleHeight': False, 'trialN': 6, 'loaded': True, 'loadedTime': 2164.699999988079, 'positionName': 'LEFT', 'positionCoords': [203.4, 154.5], 'bid': 6.25}, {'imgObject': {}, 'id': 'steak', 'src': '/static/foodstim60/steak.jpg', 'key': 'i', 'origWidth': 410, 'origHeight': 410, 'width': 410, 'height': 410, 'widthPercent': 0.45, 'rescaleHeight': False, 'trialN': 6, 'loaded': True, 'loadedTime': 2165.5, 'positionName': 'RIGHT', 'positionCoords': [665.6, 155], 'bid': 9.87}]",13203.0,1669830203782,mango,steak,6.25,9.87,3.619999999999999,steak,797.8000000119209,798,798.1999999880791,True,i,14518.899999976158,1315.8999999761581,1669830205098,1316,HRV,HRV_0005,2022-11-30 17:48:59
7,"[{'imgObject': {}, 'id': 'avocado', 'src': '/static/foodstim60/avocado.jpg', 'key': 'u', 'origWidth': 409, 'origHeight': 409, 'width': 409, 'height': 409, 'widthPercent': 0.45, 'rescaleHeight': False, 'trialN': 7, 'loaded': True, 'loadedTime': 2149.399999976158, 'positionName': 'LEFT', 'positionCoords': [205.4, 155.5], 'bid': 2.65}, {'imgObject': {}, 'id': 'olives', 'src': '/static/foodstim60/olives.jpg', 'key': 'i', 'origWidth': 410, 'origHeight': 410, 'width': 410, 'height': 410, 'widthPercent': 0.45, 'rescaleHeight': False, 'trialN': 7, 'loaded': True, 'loadedTime': 2172.199999988079, 'positionName': 'RIGHT', 'positionCoords': [665.6, 155], 'bid': 0}]",14519.100000023842,1669830205098,avocado,olives,2.65,0.0,-2.65,avocado,1112.8999999761581,1113,1113.199999988079,True,u,16153.300000011921,1634.199999988079,1669830206732,1634,HRV,HRV_0005,2022-11-30 17:48:59
8,"[{'imgObject': {}, 'id': 'cheerios', 'src': '/static/foodstim60/cheerios.jpg', 'key': 'u', 'origWidth': 409, 'origHeight': 410, 'width': 409, 'height': 410, 'widthPercent': 0.45, 'rescaleHeight': False, 'trialN': 8, 'loaded': True, 'loadedTime': 2177.5, 'positionName': 'LEFT', 'positionCoords': [205.4, 155], 'bid': 6.03}, {'imgObject': {}, 'id': 'mango', 'src': '/static/foodstim60/mango.jpg', 'key': 'i', 'origWidth': 411, 'origHeight': 411, 'width': 411, 'height': 411, 'widthPercent': 0.45, 'rescaleHeight': False, 'trialN': 8, 'loaded': True, 'loadedTime': 2164.5, 'positionName': 'RIGHT', 'positionCoords': [665.6, 154.5], 'bid': 6.25}]",16153.5,1669830206732,cheerios,mango,6.03,6.25,0.21999999999999975,cheerios,1254.5,1255,1254.800000011921,True,u,17922.600000023842,1769.1000000238419,1669830208501,1769,HRV,HRV_0005,2022-11-30 17:48:59
9,"[{'imgObject': {}, 'id': 'cheerios', 'src': '/static/foodstim60/cheerios.jpg', 'key': 'u', 'origWidth': 409, 'origHeight': 410, 'width': 409, 'height': 410, 'widthPercent': 0.45, 'rescaleHeight': False, 'trialN': 9, 'loaded': True, 'loadedTime': 2177.5, 'positionName': 'LEFT', 'positionCoords': [205.4, 155], 'bid': 6.03}, {'imgObject': {}, 'id': 'rigatoni and sauce', 'src': '/static/foodstim60/rigatoni and sauce.jpg', 'key': 'i', 'origWidth': 410, 'origHeight': 411, 'width': 410, 'height': 411, 'widthPercent': 0.45, 'rescaleHeight': False, 'trialN': 9, 'loaded': True, 'loadedTime': 2182, 'positionName': 'RIGHT', 'positionCoords': [665.6, 154.5], 'bid': 7.57}]",17922.899999976158,1669830208502,cheerios,rigatoni and sauce,6.03,7.57,1.54,rigatoni and sauce,836.1000000238419,836,836.4000000357628,True,i,19274.899999976158,1352.0,1669830209854,1352,HRV,HRV_0005,2022-11-30 17:48:59
10,"[{'imgObject': {}, 'id': 'salmon', 'src': '/static/foodstim60/salmon.jpg', 'key': 'u', 'origWidth': 410, 'origHeight': 409, 'width': 410, 'height': 409, 'widthPercent': 0.45, 'rescaleHeight': False, 'trialN': 10, 'loaded': True, 'loadedTime': 2185.699999988079, 'positionName': 'LEFT', 'positionCoords': [204.4, 155.5], 'bid': 0}, {'imgObject': {}, 'id': 'olives', 'src': '/static/foodstim60/olives.jpg', 'key': 'i', 'origWidth': 410, 'origHeight': 410, 'width': 410, 'height': 410, 'widthPercent': 0.45, 'rescaleHeight': False, 'trialN': 10, 'loaded': True, 'loadedTime': 2169.399999976158, 'positionName': 'RIGHT', 'positionCoords': [665.6, 155], 'bid': 0}]",19275.19999998808,1669830209854,salmon,olives,0.0,0.0,0.0,salmon,1441.699999988079,1442,1442.0,True,u,21230.100000023842,1954.9000000357628,1669830211809,1955,HRV,HRV_0005,2022-11-30 17:48:59
11,"[{'imgObject': {}, 'id': 'turkeysandwich', 'src': '/static/foodstim60/turkeysandwich.jpg', 'key': 'u', 'origWidth': 409, 'origHeight': 409, 'width': 409, 'height': 409, 'widthPercent': 0.45, 'rescaleHeight': False, 'trialN': 11, 'loaded': True, 'loadedTime': 2186.100000023842, 'positionName': 'LEFT', 'positionCoords': [205.4, 155.5], 'bid': 9.34}, {'imgObject': {}, 'id': 'strawberries', 'src': '/static/foodstim60/strawberries.jpg', 'key': 'i', 'origWidth': 410, 'origHeight': 410, 'width': 410, 'height': 410, 'widthPercent': 0.45, 'rescaleHeight': False, 'trialN': 11, 'loaded': True, 'loadedTime': 2192.699999988079, 'positionName': 'RIGHT', 'positionCoords': [665.6, 155], 'bid': 9.23}]",21230.399999976158,1669830211809,turkeysandwich,strawberries,9.34,9.23,-0.10999999999999943,turkeysandwich,1208.9000000357628,1209,1209.2000000476837,True,u,22947.19999998808,1716.800000011921,1669830213526,1717,HRV,HRV_0005,2022-11-30 17:48:59
12,"[{'imgObject': {}, 'id': 'eggs', 'src': '/static/foodstim60/eggs.jpg', 'key': 'u', 'origWidth': 409, 'origHeight': 409, 'width': 409, 'height': 409, 'widthPercent': 0.45, 'rescaleHeight': False, 'trialN': 12, 'loaded': True, 'loadedTime': 2193.399999976158, 'positionName': 'LEFT', 'positionCoords': [205.4, 155.5], 'bid': 8.53}, {'imgObject': {}, 'id': 'orange slices', 'src': '/static/foodstim60/orange slices.jpg', 'key': 'i', 'origWidth': 409, 'origHeight': 410, 'width': 409, 'height': 410, 'widthPercent': 0.45, 'rescaleHeight': False, 'trialN': 12, 'loaded': True, 'loadedTime': 2197.800000011921, 'positionName': 'RIGHT', 'positionCoords': [665.6, 155], 'bid': 8.45}]",22947.5,1669830213526,eggs,orange slices,8.53,8.45,-0.08000000000000007,eggs,1509.3999999761581,1510,1509.8999999761581,True,u,24979.600000023842,2032.1000000238419,1669830215558,2032,HRV,HRV_0005,2022-11-30 17:48:59
13,"[{'imgObject': {}, 'id': 'cocktailshrimp', 'src': '/static/foodstim60/cocktailshrimp.jpg', 'key': 'u', 'origWidth': 410, 'origHeight': 410, 'width': 410, 'height': 410, 'widthPercent': 0.45, 'rescaleHeight': False, 'trialN': 13, 'loaded': True, 'loadedTime': 2203.399999976158, 'positionName': 'LEFT', 'positionCoords': [204.4, 155], 'bid': 8}, {'imgObject': {}, 'id': 'tacos', 'src': '/static/foodstim60/tacos.jpg', 'key': 'i', 'origWidth': 411, 'origHeight': 411, 'width': 411, 'height': 411, 'widthPercent': 0.45, 'rescaleHeight': False, 'trialN': 13, 'loaded': True, 'loadedTime': 2153.899999976158, 'positionName': 'RIGHT', 'positionCoords': [665.6, 154.5], 'bid': 9.59}]",24979.899999976158,1669830215559,cocktailshrimp,tacos,8.0,9.59,1.5899999999999999,tacos,1256,1256,1256.300000011921,True,i,26746.30000001192,1766.4000000357628,1669830217325,1766,HRV,HRV_0005,2022-11-30 17:48:59
14,"[{'imgObject': {}, 'id': 'seaweed', 'src': '/static/foodstim60/seaweed.jpg', 'key': 'u', 'origWidth': 410, 'origHeight': 410, 'width': 410, 'height': 410, 'widthPercent': 0.45, 'rescaleHeight': False, 'trialN': 14, 'loaded': True, 'loadedTime': 2205.100000023842, 'positionName': 'LEFT', 'positionCoords': [204.4, 155], 'bid': 0}, {'imgObject': {}, 'id': 'veggieswithdip', 'src': '/static/foodstim60/veggieswithdip.jpg', 'key': 'i', 'origWidth': 409, 'origHeight': 409, 'width': 409, 'height': 409, 'widthPercent': 0.45, 'rescaleHeight': False, 'trialN': 14, 'loaded': True, 'loadedTime': 2157.600000023842, 'positionName': 'RIGHT', 'positionCoords': [665.6, 155.5], 'bid': 4.9}]",26746.5,1669830217325,seaweed,veggieswithdip,0.0,4.9,4.9,veggieswithdip,1597.5,1598,1597.8999999761581,True,i,28866.80000001192,2120.300000011921,1669830219446,2121,HRV,HRV_0005,2022-11-30 17:48:59
15,"[{'imgObject': {}, 'id': 'orange slices', 'src': '/static/foodstim60/orange slices.jpg', 'key': 'u', 'origWidth': 409, 'origHeight': 410, 'width': 409, 'height': 410, 'widthPercent': 0.45, 'rescaleHeight': False, 'trialN': 15, 'loaded': True, 'loadedTime': 2197.300000011921, 'positionName': 'LEFT', 'positionCoords': [205.4, 155], 'bid': 8.45}, {'imgObject': {}, 'id': 'turkeysandwich', 'src': '/static/foodstim60/turkeysandwich.jpg', 'key': 'i', 'origWidth': 409, 'origHeight': 409, 'width': 409, 'height': 409, 'widthPercent': 0.45, 'rescaleHeight': False, 'trialN': 15, 'loaded': True, 'loadedTime': 2189.199999988079, 'positionName': 'RIGHT', 'positionCoords': [665.6, 155.5], 'bid': 9.34}]",28867.100000023842,1669830219446,orange slices,turkeysandwich,8.45,9.34,0.8900000000000006,turkeysandwich,1082.8999999761581,1083,1083.199999988079,True,i,30462.399999976158,1595.2999999523163,1669830221041,1595,HRV,HRV_0005,2022-11-30 17:48:59
16,"[{'imgObject': {}, 'id': 'seaweed', 'src': '/static/foodstim60/seaweed.jpg', 'key': 'u', 'origWidth': 410, 'origHeight': 410, 'width': 410, 'height': 410, 'widthPercent': 0.45, 'rescaleHeight': False, 'trialN': 16, 'loaded': True, 'loadedTime': 2204.399999976158, 'positionName': 'LEFT', 'positionCoords': [204.4, 155], 'bid': 0}, {'imgObject': {}, 'id': 'salmon', 'src': '/static/foodstim60/salmon.jpg', 'key': 'i', 'origWidth': 410, 'origHeight': 409, 'width': 410, 'height': 409, 'widthPercent': 0.45, 'rescaleHeight': False, 'trialN': 16, 'loaded': True, 'loadedTime': 2185.600000023842, 'positionName': 'RIGHT', 'positionCoords': [665.6, 155.5], 'bid': 0}]",30462.600000023842,1669830221041,seaweed,salmon,0.0,0.0,0.0,salmon,1334.3999999761581,1335,1334.699999988079,True,i,32300.5,1837.8999999761581,1669830222879,1838,HRV,HRV_0005,2022-11-30 17:48:59
17,"[{'imgObject': {}, 'id': 'turkey sandwich', 'src': '/static/foodstim60/turkey sandwich.jpg', 'key': 'u', 'origWidth': 409, 'origHeight': 409, 'width': 409, 'height': 409, 'widthPercent': 0.45, 'rescaleHeight': False, 'trialN': 17, 'loaded': True, 'loadedTime': 2208.5, 'positionName': 'LEFT', 'positionCoords': [205.4, 155.5], 'bid': 9.95}, {'imgObject': {}, 'id': 'eggs', 'src': '/static/foodstim60/eggs.jpg', 'key': 'i', 'origWidth': 409, 'origHeight': 409, 'width': 409, 'height': 409, 'widthPercent': 0.45, 'rescaleHeight': False, 'trialN': 17, 'loaded': True, 'loadedTime': 2193.600000023842, 'positionName': 'RIGHT', 'positionCoords': [665.6, 155.5], 'bid': 8.53}]",32300.600000023842,1669830222879,turkey sandwich,eggs,9.95,8.53,-1.42,turkey sandwich,1557.5999999642372,1558,1558.0,True,u,34363.69999998808,2063.099999964237,1669830224942,2063,HRV,HRV_0005,2022-11-30 17:48:59
18,"[{'imgObject': {}, 'id': 'veggieswithdip', 'src': '/static/foodstim60/veggieswithdip.jpg', 'key': 'u', 'origWidth': 409, 'origHeight': 409, 'width': 409, 'height': 409, 'widthPercent': 0.45, 'rescaleHeight': False, 'trialN': 18, 'loaded': True, 'loadedTime': 2157.699999988079, 'positionName': 'LEFT', 'positionCoords': [205.4, 155.5], 'bid': 4.9}, {'imgObject': {}, 'id': 'hashbrowns', 'src': '/static/foodstim60/hashbrowns.jpg', 'key': 'i', 'origWidth': 411, 'origHeight': 410, 'width': 411, 'height': 410, 'widthPercent': 0.45, 'rescaleHeight': False, 'trialN': 18, 'loaded': True, 'loadedTime': 2211.899999976158, 'positionName': 'RIGHT', 'positionCoords': [665.6, 155], 'bid': 5.01}]",34364.0,1669830224943,veggieswithdip,hashbrowns,4.9,5.01,0.10999999999999943,hashbrowns,1972,1972,1972.3999999761581,True,i,36845.10000002384,2481.100000023842,1669830227424,2481,HRV,HRV_0005,2022-11-30 17:48:59
19,"[{'imgObject': {}, 'id': 'tacos', 'src': '/static/foodstim60/tacos.jpg', 'key': 'u', 'origWidth': 411, 'origHeight': 411, 'width': 411, 'height': 411, 'widthPercent': 0.45, 'rescaleHeight': False, 'trialN': 19, 'loaded': True, 'loadedTime': 2156.800000011921, 'positionName': 'LEFT', 'positionCoords': [203.4, 154.5], 'bid': 9.59}, {'imgObject': {}, 'id': 'turkey sandwich', 'src': '/static/foodstim60/turkey sandwich.jpg', 'key': 'i', 'origWidth': 409, 'origHeight': 409, 'width': 409, 'height': 409, 'widthPercent': 0.45, 'rescaleHeight': False, 'trialN': 19, 'loaded': True, 'loadedTime': 2207.399999976158, 'positionName': 'RIGHT', 'positionCoords': [665.6, 155.5], 'bid': 9.95}]",36845.39999997616,1669830227424,tacos,turkey sandwich,9.59,9.95,0.35999999999999943,turkey sandwich,1871.6000000238419,1872,1871.9000000357628,True,i,39222.39999997616,2377.0,1669830229801,2377,HRV,HRV_0005,2022-11-30 17:48:59
20,"[{'imgObject': {}, 'id': 'bagel plain', 'src': '/static/foodstim60/bagel plain.jpg', 'key': 'u', 'origWidth': 410, 'origHeight': 410, 'width': 410, 'height': 410, 'widthPercent': 0.45, 'rescaleHeight': False, 'trialN': 20, 'loaded': True, 'loadedTime': 2153.600000023842, 'positionName': 'LEFT', 'positionCoords': [204.4, 155], 'bid': 6.140000000000001}, {'imgObject': {}, 'id': 'Grapes', 'src': '/static/foodstim60/Grapes.jpg', 'key': 'i', 'origWidth': 411, 'origHeight': 411, 'width': 411, 'height': 411, 'widthPercent': 0.45, 'rescaleHeight': False, 'trialN': 20, 'loaded': True, 'loadedTime': 2212.800000011921, 'positionName': 'RIGHT', 'positionCoords': [665.6, 154.5], 'bid': 5.57}]",39222.60000002384,1669830229801,bagel plain,Grapes,6.140000000000001,5.57,-0.5700000000000003,bagel plain,1532.3999999761581,1533,1532.8999999761581,True,u,41275.10000002384,2052.5,1669830231854,2053,HRV,HRV_0005,2022-11-30 17:48:59
21,"[{'imgObject': {}, 'id': 'strawberries', 'src': '/static/foodstim60/strawberries.jpg', 'key': 'u', 'origWidth': 410, 'origHeight': 410, 'width': 410, 'height': 410, 'widthPercent': 0.45, 'rescaleHeight': False, 'trialN': 21, 'loaded': True, 'loadedTime': 2190.199999988079, 'positionName': 'LEFT', 'positionCoords': [204.4, 155], 'bid': 9.23}, {'imgObject': {}, 'id': 'popsicles', 'src': '/static/foodstim60/popsicles.jpg', 'key': 'i', 'origWidth': 410, 'origHeight': 410, 'width': 410, 'height': 410, 'widthPercent': 0.45, 'rescaleHeight': False, 'trialN': 21, 'loaded': True, 'loadedTime': 2497.699999988079, 'positionName': 'RIGHT', 'positionCoords': [665.6, 155], 'bid': 9}]",41275.30000001192,1669830231854,strawberries,popsicles,9.23,9.0,-0.23000000000000043,popsicles,1672.5999999642372,1673,1672.8999999761581,True,i,43458.0,2182.699999988079,1669830234037,2183,HRV,HRV_0005,2022-11-30 17:48:59
22,"[{'imgObject': {}, 'id': 'bagel plain', 'src': '/static/foodstim60/bagel plain.jpg', 'key': 'u', 'origWidth': 410, 'origHeight': 410, 'width': 410, 'height': 410, 'widthPercent': 0.45, 'rescaleHeight': False, 'trialN': 22, 'loaded': True, 'loadedTime': 2152.800000011921, 'positionName': 'LEFT', 'positionCoords': [204.4, 155], 'bid': 6.140000000000001}, {'imgObject': {}, 'id': 'baked potato', 'src': '/static/foodstim60/baked potato.jpg', 'key': 'i', 'origWidth': 409, 'origHeight': 410, 'width': 409, 'height': 410, 'widthPercent': 0.45, 'rescaleHeight': False, 'trialN': 22, 'loaded': True, 'loadedTime': 2213.5, 'positionName': 'RIGHT', 'positionCoords': [665.6, 155], 'bid': 1.85}]",43458.30000001192,1669830234037,bagel plain,baked potato,6.140000000000001,1.85,-4.290000000000001,bagel plain,1909.8999999761581,1910,1910.199999988079,True,u,45877.89999997616,2419.599999964237,1669830236457,2420,HRV,HRV_0005,2022-11-30 17:48:59
23,"[{'imgObject': {}, 'id': 'avocado', 'src': '/static/foodstim60/avocado.jpg', 'key': 'u', 'origWidth': 409, 'origHeight': 409, 'width': 409, 'height': 409, 'widthPercent': 0.45, 'rescaleHeight': False, 'trialN': 23, 'loaded': True, 'loadedTime': 2149.5, 'positionName': 'LEFT', 'positionCoords': [205.4, 155.5], 'bid': 2.65}, {'imgObject': {}, 'id': 'hashbrowns', 'src': '/static/foodstim60/hashbrowns.jpg', 'key': 'i', 'origWidth': 411, 'origHeight': 410, 'width': 411, 'height': 410, 'widthPercent': 0.45, 'rescaleHeight': False, 'trialN': 23, 'loaded': True, 'loadedTime': 2208.600000023842, 'positionName': 'RIGHT', 'positionCoords': [665.6, 155], 'bid': 5.01}]",45878.10000002384,1669830236457,avocado,hashbrowns,2.65,5.01,2.36,hashbrowns,910.1999999880791,910,910.3999999761581,True,i,47297.5,1419.3999999761581,1669830237876,1419,HRV,HRV_0005,2022-11-30 17:48:59
24,"[{'imgObject': {}, 'id': 'hashbrowns', 'src': '/static/foodstim60/hashbrowns.jpg', 'key': 'u', 'origWidth': 411, 'origHeight': 410, 'width': 411, 'height': 410, 'widthPercent': 0.45, 'rescaleHeight': False, 'trialN': 24, 'loaded': True, 'loadedTime': 2209, 'positionName': 'LEFT', 'positionCoords': [203.4, 155], 'bid': 5.01}, {'imgObject': {}, 'id': 'popsicles', 'src': '/static/foodstim60/popsicles.jpg', 'key': 'i', 'origWidth': 410, 'origHeight': 410, 'width': 410, 'height': 410, 'widthPercent': 0.45, 'rescaleHeight': False, 'trialN': 24, 'loaded': True, 'loadedTime': 2498.5, 'positionName': 'RIGHT', 'positionCoords': [665.6, 155], 'bid': 9}]",47297.69999998808,1669830237876,hashbrowns,popsicles,5.01,9.0,3.99,popsicles,1156.300000011921,1157,1156.699999988079,True,i,48969.19999998808,1671.5,1669830239548,1672,HRV,HRV_0005,2022-11-30 17:48:59
25,"[{'imgObject': {}, 'id': 'eggsalad', 'src': '/static/foodstim60/eggsalad.jpg', 'key': 'u', 'origWidth': 410, 'origHeight': 409, 'width': 410, 'height': 409, 'widthPercent': 0.45, 'rescaleHeight': False, 'trialN': 25, 'loaded': True, 'loadedTime': 2213.699999988079, 'positionName': 'LEFT', 'positionCoords': [204.4, 155.5], 'bid': 2.28}, {'imgObject': {}, 'id': 'orange slices', 'src': '/static/foodstim60/orange slices.jpg', 'key': 'i', 'origWidth': 409, 'origHeight': 410, 'width': 409, 'height': 410, 'widthPercent': 0.45, 'rescaleHeight': False, 'trialN': 25, 'loaded': True, 'loadedTime': 2197.899999976158, 'positionName': 'RIGHT', 'positionCoords': [665.6, 155], 'bid': 8.45}]",48969.39999997616,1669830239548,eggsalad,orange slices,2.28,8.45,6.17,orange slices,1560.6000000238419,1561,1560.9000000357628,True,i,51046.0,2076.600000023842,1669830241625,2077,HRV,HRV_0005,2022-11-30 17:48:59
26,"[{'imgObject': {}, 'id': 'avocado', 'src': '/static/foodstim60/avocado.jpg', 'key': 'u', 'origWidth': 409, 'origHeight': 409, 'width': 409, 'height': 409, 'widthPercent': 0.45, 'rescaleHeight': False, 'trialN': 26, 'loaded': True, 'loadedTime': 2149.300000011921, 'positionName': 'LEFT', 'positionCoords': [205.4, 155.5], 'bid': 2.65}, {'imgObject': {}, 'id': 'roastedpotatoes', 'src': '/static/foodstim60/roastedpotatoes.jpg', 'key': 'i', 'origWidth': 409, 'origHeight': 410, 'width': 409, 'height': 410, 'widthPercent': 0.45, 'rescaleHeight': False, 'trialN': 26, 'loaded': True, 'loadedTime': 2218.300000011921, 'positionName': 'RIGHT', 'positionCoords': [665.6, 155], 'bid': 7.01}]",51046.19999998808,1669830241625,avocado,roastedpotatoes,2.65,7.01,4.359999999999999,roastedpotatoes,1027.800000011921,1028,1028.1000000238419,True,i,52590.30000001192,1544.1000000238419,1669830243169,1544,HRV,HRV_0005,2022-11-30 17:48:59
27,"[{'imgObject': {}, 'id': 'sushi w_condiments', 'src': '/static/foodstim60/sushi w_condiments.jpg', 'key': 'u', 'origWidth': 410, 'origHeight': 410, 'width': 410, 'height': 410, 'widthPercent': 0.45, 'rescaleHeight': False, 'trialN': 27, 'loaded': True, 'loadedTime': 2219.300000011921, 'positionName': 'LEFT', 'positionCoords': [204.4, 155], 'bid': 0.03}, {'imgObject': {}, 'id': 'seaweed', 'src': '/static/foodstim60/seaweed.jpg', 'key': 'i', 'origWidth': 410, 'origHeight': 410, 'width': 410, 'height': 410, 'widthPercent': 0.45, 'rescaleHeight': False, 'trialN': 27, 'loaded': True, 'loadedTime': 2205.100000023842, 'positionName': 'RIGHT', 'positionCoords': [665.6, 155], 'bid': 0}]",52590.39999997616,1669830243169,sushi w_condiments,seaweed,0.03,0.0,-0.03,seaweed,1367.6000000238419,1368,1367.9000000357628,True,i,54473.0,1882.6000000238419,1669830245052,1883,HRV,HRV_0005,2022-11-30 17:48:59
28,"[{'imgObject': {}, 'id': 'edamame', 'src': '/static/foodstim60/edamame.jpg', 'key': 'u', 'origWidth': 409, 'origHeight': 410, 'width': 409, 'height': 410, 'widthPercent': 0.45, 'rescaleHeight': False, 'trialN': 28, 'loaded': True, 'loadedTime': 2222.300000011921, 'positionName': 'LEFT', 'positionCoords': [205.4, 155], 'bid': 5.03}, {'imgObject': {}, 'id': 'grilled chicken strips', 'src': '/static/foodstim60/grilled chicken strips.jpg', 'key': 'i', 'origWidth': 410, 'origHeight': 411, 'width': 410, 'height': 411, 'widthPercent': 0.45, 'rescaleHeight': False, 'trialN': 28, 'loaded': True, 'loadedTime': 2223.100000023842, 'positionName': 'RIGHT', 'positionCoords': [665.6, 154.5], 'bid': 9.09}]",54473.30000001192,1669830245052,edamame,grilled chicken strips,5.03,9.09,4.06,grilled chicken strips,736.6999999880791,737,737.0,True,i,55719.0,1245.699999988079,1669830246297,1245,HRV,HRV_0005,2022-11-30 17:48:59
29,"[{'imgObject': {}, 'id': 'shreddedwheatwithmilk', 'src': '/static/foodstim60/shreddedwheatwithmilk.jpg', 'key': 'u', 'origWidth': 410, 'origHeight': 410, 'width': 410, 'height': 410, 'widthPercent': 0.45, 'rescaleHeight': False, 'trialN': 29, 'loaded': True, 'loadedTime': 2181, 'positionName': 'LEFT', 'positionCoords': [204.4, 155], 'bid': 2.06}, {'imgObject': {}, 'id': 'lox', 'src': '/static/foodstim60/lox.jpg', 'key': 'i', 'origWidth': 410, 'origHeight': 411, 'width': 410, 'height': 411, 'widthPercent': 0.45, 'rescaleHeight': False, 'trialN': 29, 'loaded': True, 'loadedTime': 2227, 'positionName': 'RIGHT', 'positionCoords': [665.6, 154.5], 'bid': 0.1}]",55719.19999998808,1669830246298,shreddedwheatwithmilk,lox,2.06,0.1,-1.96,lox,1780.1000000238419,1780,1780.5,True,i,58016.0,2296.800000011921,1669830248595,2297,HRV,HRV_0005,2022-11-30 17:48:59
30,"[{'imgObject': {}, 'id': 'granola w milk', 'src': '/static/foodstim60/granola w milk.jpg', 'key': 'u', 'origWidth': 410, 'origHeight': 410, 'width': 410, 'height': 410, 'widthPercent': 0.45, 'rescaleHeight': False, 'trialN': 30, 'loaded': True, 'loadedTime': 2228.300000011921, 'positionName': 'LEFT', 'positionCoords': [204.4, 155], 'bid': 8.01}, {'imgObject': {}, 'id': 'salad w chicken', 'src': '/static/foodstim60/salad w chicken.jpg', 'key': 'i', 'origWidth': 411, 'origHeight': 411, 'width': 411, 'height': 411, 'widthPercent': 0.45, 'rescaleHeight': False, 'trialN': 30, 'loaded': True, 'loadedTime': 2169.199999988079, 'positionName': 'RIGHT', 'positionCoords': [665.6, 154.5], 'bid': 8.56}]",58016.30000001192,1669830248595,granola w milk,salad w chicken,8.01,8.56,0.5500000000000007,salad w chicken,934.6999999880791,935,935.0999999642372,True,i,59461.60000002384,1445.300000011921,1669830250040,1445,HRV,HRV_0005,2022-11-30 17:48:59
31,"[{'imgObject': {}, 'id': 'orange slices', 'src': '/static/foodstim60/orange slices.jpg', 'key': 'u', 'origWidth': 409, 'origHeight': 410, 'width': 409, 'height': 410, 'widthPercent': 0.45, 'rescaleHeight': False, 'trialN': 31, 'loaded': True, 'loadedTime': 2200.300000011921, 'positionName': 'LEFT', 'positionCoords': [205.4, 155], 'bid': 8.45}, {'imgObject': {}, 'id': 'fruitsalad', 'src': '/static/foodstim60/fruitsalad.jpg', 'key': 'i', 'origWidth': 410, 'origHeight': 410, 'width': 410, 'height': 410, 'widthPercent': 0.45, 'rescaleHeight': False, 'trialN': 31, 'loaded': True, 'loadedTime': 2228.399999976158, 'positionName': 'RIGHT', 'positionCoords': [665.6, 155], 'bid': 8.26}]",59461.80000001192,1669830250040,orange slices,fruitsalad,8.45,8.26,-0.1899999999999995,fruitsalad,1536.3999999761581,1537,1536.5999999642372,True,i,61501.80000001192,2040.0,1669830252080,2040,HRV,HRV_0005,2022-11-30 17:48:59
32,"[{'imgObject': {}, 'id': 'mac & cheese', 'src': '/static/foodstim60/mac & cheese.jpg', 'key': 'u', 'origWidth': 410, 'origHeight': 410, 'width': 410, 'height': 410, 'widthPercent': 0.45, 'rescaleHeight': False, 'trialN': 32, 'loaded': True, 'loadedTime': 2160.899999976158, 'positionName': 'LEFT', 'positionCoords': [204.4, 155], 'bid': 4.14}, {'imgObject': {}, 'id': 'banana', 'src': '/static/foodstim60/banana.jpg', 'key': 'i', 'origWidth': 410, 'origHeight': 410, 'width': 410, 'height': 410, 'widthPercent': 0.45, 'rescaleHeight': False, 'trialN': 32, 'loaded': True, 'loadedTime': 2232.600000023842, 'positionName': 'RIGHT', 'positionCoords': [665.6, 155], 'bid': 7.4}]",61502.0,1669830252081,mac & cheese,banana,4.14,7.4,3.2600000000000007,banana,817.8999999761581,818,818.3000000119209,True,i,62838.5,1336.5,1669830253417,1336,HRV,HRV_0005,2022-11-30 17:48:59
33,"[{'imgObject': {}, 'id': 'seaweed', 'src': '/static/foodstim60/seaweed.jpg', 'key': 'u', 'origWidth': 410, 'origHeight': 410, 'width': 410, 'height': 410, 'widthPercent': 0.45, 'rescaleHeight': False, 'trialN': 33, 'loaded': True, 'loadedTime': 2205.100000023842, 'positionName': 'LEFT', 'positionCoords': [204.4, 155], 'bid': 0}, {'imgObject': {}, 'id': 'rigatoni and sauce', 'src': '/static/foodstim60/rigatoni and sauce.jpg', 'key': 'i', 'origWidth': 410, 'origHeight': 411, 'width': 410, 'height': 411, 'widthPercent': 0.45, 'rescaleHeight': False, 'trialN': 33, 'loaded': True, 'loadedTime': 2184.600000023842, 'positionName': 'RIGHT', 'positionCoords': [665.6, 154.5], 'bid': 7.57}]",62838.80000001192,1669830253417,seaweed,rigatoni and sauce,0.0,7.57,7.57,rigatoni and sauce,730,731,730.3000000119209,True,i,64084.80000001192,1246.0,1669830254663,1246,HRV,HRV_0005,2022-11-30 17:48:59
34,"[{'imgObject': {}, 'id': 'raisin bran w milk', 'src': '/static/foodstim60/raisin bran w milk.jpg', 'key': 'u', 'origWidth': 411, 'origHeight': 411, 'width': 411, 'height': 411, 'widthPercent': 0.45, 'rescaleHeight': False, 'trialN': 34, 'loaded': True, 'loadedTime': 2233.5, 'positionName': 'LEFT', 'positionCoords': [203.4, 154.5], 'bid': 7.34}, {'imgObject': {}, 'id': 'granola w milk', 'src': '/static/foodstim60/granola w milk.jpg', 'key': 'i', 'origWidth': 410, 'origHeight': 410, 'width': 410, 'height': 410, 'widthPercent': 0.45, 'rescaleHeight': False, 'trialN': 34, 'loaded': True, 'loadedTime': 2227.5, 'positionName': 'RIGHT', 'positionCoords': [665.6, 155], 'bid': 8.01}]",64084.89999997616,1669830254663,raisin bran w milk,granola w milk,7.34,8.01,0.6699999999999999,raisin bran w milk,1771.2000000476837,1772,1771.6000000238419,True,u,66365.5,2280.600000023842,1669830256944,2281,HRV,HRV_0005,2022-11-30 17:48:59
35,"[{'imgObject': {}, 'id': 'cocktailshrimp', 'src': '/static/foodstim60/cocktailshrimp.jpg', 'key': 'u', 'origWidth': 410, 'origHeight': 410, 'width': 410, 'height': 410, 'widthPercent': 0.45, 'rescaleHeight': False, 'trialN': 35, 'loaded': True, 'loadedTime': 2204.300000011921, 'positionName': 'LEFT', 'positionCoords': [204.4, 155], 'bid': 8}, {'imgObject': {}, 'id': 'baked potato', 'src': '/static/foodstim60/baked potato.jpg', 'key': 'i', 'origWidth': 409, 'origHeight': 410, 'width': 409, 'height': 410, 'widthPercent': 0.45, 'rescaleHeight': False, 'trialN': 35, 'loaded': True, 'loadedTime': 2213.600000023842, 'positionName': 'RIGHT', 'positionCoords': [665.6, 155], 'bid': 1.85}]",66365.69999998808,1669830256944,cocktailshrimp,baked potato,8.0,1.85,-6.15,baked potato,1682.699999988079,1683,1683.1000000238419,True,i,68570.60000002384,2204.900000035763,1669830259149,2205,HRV,HRV_0005,2022-11-30 17:48:59
36,"[{'imgObject': {}, 'id': 'corn cob', 'src': '/static/foodstim60/corn cob.jpg', 'key': 'u', 'origWidth': 411, 'origHeight': 411, 'width': 411, 'height': 411, 'widthPercent': 0.45, 'rescaleHeight': False, 'trialN': 36, 'loaded': True, 'loadedTime': 2236.800000011921, 'positionName': 'LEFT', 'positionCoords': [203.4, 154.5], 'bid': 6.46}, {'imgObject': {}, 'id': 'apple slices', 'src': '/static/foodstim60/apple slices.jpg', 'key': 'i', 'origWidth': 409, 'origHeight': 410, 'width': 409, 'height': 410, 'widthPercent': 0.45, 'rescaleHeight': False, 'trialN': 36, 'loaded': True, 'loadedTime': 2237.699999988079, 'positionName': 'RIGHT', 'positionCoords': [665.6, 155], 'bid': 7.5}]",68570.80000001192,1669830259149,corn cob,apple slices,6.46,7.5,1.04,apple slices,1640.0999999642372,1641,1640.3999999761581,True,i,70732.69999998808,2161.899999976158,1669830261311,2162,HRV,HRV_0005,2022-11-30 17:48:59
37,"[{'imgObject': {}, 'id': 'salad w chicken', 'src': '/static/foodstim60/salad w chicken.jpg', 'key': 'u', 'origWidth': 411, 'origHeight': 411, 'width': 411, 'height': 411, 'widthPercent': 0.45, 'rescaleHeight': False, 'trialN': 37, 'loaded': True, 'loadedTime': 2169.199999988079, 'positionName': 'LEFT', 'positionCoords': [203.4, 154.5], 'bid': 8.56}, {'imgObject': {}, 'id': 'blueberries', 'src': '/static/foodstim60/blueberries.jpg', 'key': 'i', 'origWidth': 411, 'origHeight': 411, 'width': 411, 'height': 411, 'widthPercent': 0.45, 'rescaleHeight': False, 'trialN': 37, 'loaded': True, 'loadedTime': 2238.300000011921, 'positionName': 'RIGHT', 'positionCoords': [665.6, 154.5], 'bid': 9.95}]",70732.89999997616,1669830261311,salad w chicken,blueberries,8.56,9.95,1.3899999999999988,salad w chicken,1626.1000000238419,1627,1626.5,True,u,72881.60000002384,2148.7000000476837,1669830263460,2149,HRV,HRV_0005,2022-11-30 17:48:59
38,"[{'imgObject': {}, 'id': 'luckycharms', 'src': '/static/foodstim60/luckycharms.jpg', 'key': 'u', 'origWidth': 410, 'origHeight': 409, 'width': 410, 'height': 409, 'widthPercent': 0.45, 'rescaleHeight': False, 'trialN': 38, 'loaded': True, 'loadedTime': 2242.5, 'positionName': 'LEFT', 'positionCoords': [204.4, 155.5], 'bid': 7.92}, {'imgObject': {}, 'id': 'chickenfingers', 'src': '/static/foodstim60/chickenfingers.jpg', 'key': 'i', 'origWidth': 410, 'origHeight': 410, 'width': 410, 'height': 410, 'widthPercent': 0.45, 'rescaleHeight': False, 'trialN': 38, 'loaded': True, 'loadedTime': 2243.399999976158, 'positionName': 'RIGHT', 'positionCoords': [665.6, 155], 'bid': 8.46}]",72881.80000001192,1669830263460,luckycharms,chickenfingers,7.92,8.46,0.5400000000000009,chickenfingers,1107.199999988079,1108,1107.5,True,i,74495.89999997616,1614.0999999642372,1669830265074,1614,HRV,HRV_0005,2022-11-30 17:48:59
39,"[{'imgObject': {}, 'id': 'edamame', 'src': '/static/foodstim60/edamame.jpg', 'key': 'u', 'origWidth': 409, 'origHeight': 410, 'width': 409, 'height': 410, 'widthPercent': 0.45, 'rescaleHeight': False, 'trialN': 39, 'loaded': True, 'loadedTime': 2222.699999988079, 'positionName': 'LEFT', 'positionCoords': [205.4, 155], 'bid': 5.03}, {'imgObject': {}, 'id': 'blackbeanswithrice', 'src': '/static/foodstim60/blackbeanswithrice.jpg', 'key': 'i', 'origWidth': 410, 'origHeight': 410, 'width': 410, 'height': 410, 'widthPercent': 0.45, 'rescaleHeight': False, 'trialN': 39, 'loaded': True, 'loadedTime': 2200.5, 'positionName': 'RIGHT', 'positionCoords': [665.6, 155], 'bid': 2.85}]",74496.10000002384,1669830265075,edamame,blackbeanswithrice,5.03,2.85,-2.18,blackbeanswithrice,1458.8999999761581,1459,1459.199999988079,True,i,76472.5,1976.3999999761581,1669830267051,1976,HRV,HRV_0005,2022-11-30 17:48:59
40,"[{'imgObject': {}, 'id': 'mac & cheese', 'src': '/static/foodstim60/mac & cheese.jpg', 'key': 'u', 'origWidth': 410, 'origHeight': 410, 'width': 410, 'height': 410, 'widthPercent': 0.45, 'rescaleHeight': False, 'trialN': 40, 'loaded': True, 'loadedTime': 2161, 'positionName': 'LEFT', 'positionCoords': [204.4, 155], 'bid': 4.14}, {'imgObject': {}, 'id': 'Grapes', 'src': '/static/foodstim60/Grapes.jpg', 'key': 'i', 'origWidth': 411, 'origHeight': 411, 'width': 411, 'height': 411, 'widthPercent': 0.45, 'rescaleHeight': False, 'trialN': 40, 'loaded': True, 'loadedTime': 2212.100000023842, 'positionName': 'RIGHT', 'positionCoords': [665.6, 154.5], 'bid': 5.57}]",76472.69999998808,1669830267051,mac & cheese,Grapes,4.14,5.57,1.4300000000000006,Grapes,1335.300000011921,1336,1335.699999988079,True,i,78330.30000001192,1857.6000000238419,1669830268909,1858,HRV,HRV_0005,2022-11-30 17:48:59
41,"[{'imgObject': {}, 'id': 'turkeysandwich', 'src': '/static/foodstim60/turkeysandwich.jpg', 'key': 'u', 'origWidth': 409, 'origHeight': 409, 'width': 409, 'height': 409, 'widthPercent': 0.45, 'rescaleHeight': False, 'trialN': 41, 'loaded': True, 'loadedTime': 2189.300000011921, 'positionName': 'LEFT', 'positionCoords': [205.4, 155.5], 'bid': 9.34}, {'imgObject': {}, 'id': 'cheerios', 'src': '/static/foodstim60/cheerios.jpg', 'key': 'i', 'origWidth': 409, 'origHeight': 410, 'width': 409, 'height': 410, 'widthPercent': 0.45, 'rescaleHeight': False, 'trialN': 41, 'loaded': True, 'loadedTime': 2176.5, 'positionName': 'RIGHT', 'positionCoords': [665.6, 155], 'bid': 6.03}]",78330.39999997616,1669830268909,turkeysandwich,cheerios,9.34,6.03,-3.3099999999999996,turkeysandwich,1420.9000000357628,1421,1421.2000000476837,True,u,80267.80000001192,1937.4000000357628,1669830270846,1937,HRV,HRV_0005,2022-11-30 17:48:59
42,"[{'imgObject': {}, 'id': 'cherry tomato', 'src': '/static/foodstim60/cherry tomato.jpg', 'key': 'u', 'origWidth': 410, 'origHeight': 410, 'width': 410, 'height': 410, 'widthPercent': 0.45, 'rescaleHeight': False, 'trialN': 42, 'loaded': True, 'loadedTime': 2244.300000011921, 'positionName': 'LEFT', 'positionCoords': [204.4, 155], 'bid': 4.29}, {'imgObject': {}, 'id': 'blackbeanswithrice', 'src': '/static/foodstim60/blackbeanswithrice.jpg', 'key': 'i', 'origWidth': 410, 'origHeight': 410, 'width': 410, 'height': 410, 'widthPercent': 0.45, 'rescaleHeight': False, 'trialN': 42, 'loaded': True, 'loadedTime': 2201.300000011921, 'positionName': 'RIGHT', 'positionCoords': [665.6, 155], 'bid': 2.85}]",80268.0,1669830270847,cherry tomato,blackbeanswithrice,4.29,2.85,-1.44,blackbeanswithrice,1637.8999999761581,1638,1638.199999988079,True,i,82420.89999997616,2152.899999976158,1669830272999,2152,HRV,HRV_0005,2022-11-30 17:48:59
43,"[{'imgObject': {}, 'id': 'cherries', 'src': '/static/foodstim60/cherries.jpg', 'key': 'u', 'origWidth': 410, 'origHeight': 411, 'width': 410, 'height': 411, 'widthPercent': 0.45, 'rescaleHeight': False, 'trialN': 43, 'loaded': True, 'loadedTime': 2244.899999976158, 'positionName': 'LEFT', 'positionCoords': [204.4, 154.5], 'bid': 9.92}, {'imgObject': {}, 'id': 'pear', 'src': '/static/foodstim60/pear.jpg', 'key': 'i', 'origWidth': 411, 'origHeight': 410, 'width': 411, 'height': 410, 'widthPercent': 0.45, 'rescaleHeight': False, 'trialN': 43, 'loaded': True, 'loadedTime': 2248.199999988079, 'positionName': 'RIGHT', 'positionCoords': [665.6, 155], 'bid': 6.8500000000000005}]",82421.10000002384,1669830273000,cherries,pear,9.92,6.8500000000000005,-3.0699999999999994,cherries,899.7999999523163,900,900.1999999880791,True,u,83829.39999997616,1408.2999999523163,1669830274408,1408,HRV,HRV_0005,2022-11-30 17:48:59
44,"[{'imgObject': {}, 'id': 'raisin bran w milk', 'src': '/static/foodstim60/raisin bran w milk.jpg', 'key': 'u', 'origWidth': 411, 'origHeight': 411, 'width': 411, 'height': 411, 'widthPercent': 0.45, 'rescaleHeight': False, 'trialN': 44, 'loaded': True, 'loadedTime': 2232.699999988079, 'positionName': 'LEFT', 'positionCoords': [203.4, 154.5], 'bid': 7.34}, {'imgObject': {}, 'id': 'apple slices', 'src': '/static/foodstim60/apple slices.jpg', 'key': 'i', 'origWidth': 409, 'origHeight': 410, 'width': 409, 'height': 410, 'widthPercent': 0.45, 'rescaleHeight': False, 'trialN': 44, 'loaded': True, 'loadedTime': 2237.699999988079, 'positionName': 'RIGHT', 'positionCoords': [665.6, 155], 'bid': 7.5}]",83829.60000002384,1669830274408,raisin bran w milk,apple slices,7.34,7.5,0.16000000000000014,raisin bran w milk,924.3999999761581,925,924.7999999523163,True,u,85271.0,1441.3999999761581,1669830275849,1441,HRV,HRV_0005,2022-11-30 17:48:59
45,"[{'imgObject': {}, 'id': 'fried eggs', 'src': '/static/foodstim60/fried eggs.jpg', 'key': 'u', 'origWidth': 410, 'origHeight': 410, 'width': 410, 'height': 410, 'widthPercent': 0.45, 'rescaleHeight': False, 'trialN': 45, 'loaded': True, 'loadedTime': 2138.199999988079, 'positionName': 'LEFT', 'positionCoords': [204.4, 155], 'bid': 9.9}, {'imgObject': {}, 'id': 'corn cob', 'src': '/static/foodstim60/corn cob.jpg', 'key': 'i', 'origWidth': 411, 'origHeight': 411, 'width': 411, 'height': 411, 'widthPercent': 0.45, 'rescaleHeight': False, 'trialN': 45, 'loaded': True, 'loadedTime': 2236.800000011921, 'positionName': 'RIGHT', 'positionCoords': [665.6, 154.5], 'bid': 6.46}]",85271.19999998808,1669830275850,fried eggs,corn cob,9.9,6.46,-3.4400000000000004,fried eggs,1063.800000011921,1064,1064.1000000238419,True,u,86852.60000002384,1581.4000000357628,1669830277431,1581,HRV,HRV_0005,2022-11-30 17:48:59
46,"[{'imgObject': {}, 'id': 'shreddedwheatwithmilk', 'src': '/static/foodstim60/shreddedwheatwithmilk.jpg', 'key': 'u', 'origWidth': 410, 'origHeight': 410, 'width': 410, 'height': 410, 'widthPercent': 0.45, 'rescaleHeight': False, 'trialN': 46, 'loaded': True, 'loadedTime': 2177.600000023842, 'positionName': 'LEFT', 'positionCoords': [204.4, 155], 'bid': 2.06}, {'imgObject': {}, 'id': 'fruitsalad', 'src': '/static/foodstim60/fruitsalad.jpg', 'key': 'i', 'origWidth': 410, 'origHeight': 410, 'width': 410, 'height': 410, 'widthPercent': 0.45, 'rescaleHeight': False, 'trialN': 46, 'loaded': True, 'loadedTime': 2229.100000023842, 'positionName': 'RIGHT', 'positionCoords': [665.6, 155], 'bid': 8.26}]",86852.89999997616,1669830277431,shreddedwheatwithmilk,fruitsalad,2.06,8.26,6.199999999999999,fruitsalad,1013,1014,1013.4000000357628,True,i,88385.39999997616,1532.5,1669830278964,1533,HRV,HRV_0005,2022-11-30 17:48:59
47,"[{'imgObject': {}, 'id': 'blackbeanswithrice', 'src': '/static/foodstim60/blackbeanswithrice.jpg', 'key': 'u', 'origWidth': 410, 'origHeight': 410, 'width': 410, 'height': 410, 'widthPercent': 0.45, 'rescaleHeight': False, 'trialN': 47, 'loaded': True, 'loadedTime': 2201.100000023842, 'positionName': 'LEFT', 'positionCoords': [204.4, 155], 'bid': 2.85}, {'imgObject': {}, 'id': 'eggs', 'src': '/static/foodstim60/eggs.jpg', 'key': 'i', 'origWidth': 409, 'origHeight': 409, 'width': 409, 'height': 409, 'widthPercent': 0.45, 'rescaleHeight': False, 'trialN': 47, 'loaded': True, 'loadedTime': 2193.5, 'positionName': 'RIGHT', 'positionCoords': [665.6, 155.5], 'bid': 8.53}]",88385.60000002384,1669830278964,blackbeanswithrice,eggs,2.85,8.53,5.68,eggs,865.2999999523163,866,865.5999999642372,True,i,89771.19999998808,1385.5999999642372,1669830280350,1386,HRV,HRV_0005,2022-11-30 17:48:59
48,"[{'imgObject': {}, 'id': 'bagel and cc', 'src': '/static/foodstim60/bagel and cc.jpg', 'key': 'u', 'origWidth': 410, 'origHeight': 410, 'width': 410, 'height': 410, 'widthPercent': 0.45, 'rescaleHeight': False, 'trialN': 48, 'loaded': True, 'loadedTime': 2249, 'positionName': 'LEFT', 'positionCoords': [204.4, 155], 'bid': 7.67}, {'imgObject': {}, 'id': 'grilled chicken strips', 'src': '/static/foodstim60/grilled chicken strips.jpg', 'key': 'i', 'origWidth': 410, 'origHeight': 411, 'width': 410, 'height': 411, 'widthPercent': 0.45, 'rescaleHeight': False, 'trialN': 48, 'loaded': True, 'loadedTime': 2224, 'positionName': 'RIGHT', 'positionCoords': [665.6, 154.5], 'bid': 9.09}]",89771.30000001192,1669830280350,bagel and cc,grilled chicken strips,7.67,9.09,1.42,grilled chicken strips,682.8999999761581,683,683.3000000119209,True,i,90959.60000002384,1188.300000011921,1669830281538,1188,HRV,HRV_0005,2022-11-30 17:48:59
49,"[{'imgObject': {}, 'id': 'lox', 'src': '/static/foodstim60/lox.jpg', 'key': 'u', 'origWidth': 410, 'origHeight': 411, 'width': 410, 'height': 411, 'widthPercent': 0.45, 'rescaleHeight': False, 'trialN': 49, 'loaded': True, 'loadedTime': 2224.300000011921, 'positionName': 'LEFT', 'positionCoords': [204.4, 154.5], 'bid': 0.1}, {'imgObject': {}, 'id': 'bagel and cc', 'src': '/static/foodstim60/bagel and cc.jpg', 'key': 'i', 'origWidth': 410, 'origHeight': 410, 'width': 410, 'height': 410, 'widthPercent': 0.45, 'rescaleHeight': False, 'trialN': 49, 'loaded': True, 'loadedTime': 2249, 'positionName': 'RIGHT', 'positionCoords': [665.6, 155], 'bid': 7.67}]",90959.80000001192,1669830281538,lox,bagel and cc,0.1,7.67,7.57,bagel and cc,900,901,900.3000000119209,True,i,92373.0,1413.199999988079,1669830282952,1414,HRV,HRV_0005,2022-11-30 17:48:59
50,"[{'imgObject': {}, 'id': 'luckycharms', 'src': '/static/foodstim60/luckycharms.jpg', 'key': 'u', 'origWidth': 410, 'origHeight': 409, 'width': 410, 'height': 409, 'widthPercent': 0.45, 'rescaleHeight': False, 'trialN': 50, 'loaded': True, 'loadedTime': 2242.300000011921, 'positionName': 'LEFT', 'positionCoords': [204.4, 155.5], 'bid': 7.92}, {'imgObject': {}, 'id': 'turkeysandwich', 'src': '/static/foodstim60/turkeysandwich.jpg', 'key': 'i', 'origWidth': 409, 'origHeight': 409, 'width': 409, 'height': 409, 'widthPercent': 0.45, 'rescaleHeight': False, 'trialN': 50, 'loaded': True, 'loadedTime': 2188.899999976158, 'positionName': 'RIGHT', 'positionCoords': [665.6, 155.5], 'bid': 9.34}]",92373.30000001192,1669830282952,luckycharms,turkeysandwich,7.92,9.34,1.42,turkeysandwich,1074.5999999642372,1075,1074.8999999761581,True,i,93958.69999998808,1585.3999999761581,1669830284537,1585,HRV,HRV_0005,2022-11-30 17:48:59
51,"[{'imgObject': {}, 'id': 'omelette', 'src': '/static/foodstim60/omelette.jpg', 'key': 'u', 'origWidth': 410, 'origHeight': 409, 'width': 410, 'height': 409, 'widthPercent': 0.45, 'rescaleHeight': False, 'trialN': 51, 'loaded': True, 'loadedTime': 2249.699999988079, 'positionName': 'LEFT', 'positionCoords': [204.4, 155.5], 'bid': 1.34}, {'imgObject': {}, 'id': 'eggsalad', 'src': '/static/foodstim60/eggsalad.jpg', 'key': 'i', 'origWidth': 410, 'origHeight': 409, 'width': 410, 'height': 409, 'widthPercent': 0.45, 'rescaleHeight': False, 'trialN': 51, 'loaded': True, 'loadedTime': 2214.399999976158, 'positionName': 'RIGHT', 'positionCoords': [665.6, 155.5], 'bid': 2.28}]",93958.89999997616,1669830284537,omelette,eggsalad,1.34,2.28,0.9399999999999997,eggsalad,1091.1000000238419,1092,1091.4000000357628,True,i,95565.39999997616,1606.5,1669830286144,1607,HRV,HRV_0005,2022-11-30 17:48:59
52,"[{'imgObject': {}, 'id': 'popsicles', 'src': '/static/foodstim60/popsicles.jpg', 'key': 'u', 'origWidth': 410, 'origHeight': 410, 'width': 410, 'height': 410, 'widthPercent': 0.45, 'rescaleHeight': False, 'trialN': 52, 'loaded': True, 'loadedTime': 2498.399999976158, 'positionName': 'LEFT', 'positionCoords': [204.4, 155], 'bid': 9}, {'imgObject': {}, 'id': 'fried eggs', 'src': '/static/foodstim60/fried eggs.jpg', 'key': 'i', 'origWidth': 410, 'origHeight': 410, 'width': 410, 'height': 410, 'widthPercent': 0.45, 'rescaleHeight': False, 'trialN': 52, 'loaded': True, 'loadedTime': 2117.899999976158, 'positionName': 'RIGHT', 'positionCoords': [665.6, 155], 'bid': 9.9}]",95565.69999998808,1669830286144,popsicles,fried eggs,9.0,9.9,0.9000000000000004,fried eggs,1594.4000000357628,1595,1594.6000000238419,True,i,97670.39999997616,2104.699999988079,1669830288249,2105,HRV,HRV_0005,2022-11-30 17:48:59
53,"[{'imgObject': {}, 'id': 'cherries', 'src': '/static/foodstim60/cherries.jpg', 'key': 'u', 'origWidth': 410, 'origHeight': 411, 'width': 410, 'height': 411, 'widthPercent': 0.45, 'rescaleHeight': False, 'trialN': 53, 'loaded': True, 'loadedTime': 2244.399999976158, 'positionName': 'LEFT', 'positionCoords': [204.4, 154.5], 'bid': 9.92}, {'imgObject': {}, 'id': 'turkey sandwich', 'src': '/static/foodstim60/turkey sandwich.jpg', 'key': 'i', 'origWidth': 409, 'origHeight': 409, 'width': 409, 'height': 409, 'widthPercent': 0.45, 'rescaleHeight': False, 'trialN': 53, 'loaded': True, 'loadedTime': 2208.399999976158, 'positionName': 'RIGHT', 'positionCoords': [665.6, 155.5], 'bid': 9.95}]",97670.60000002384,1669830288249,cherries,turkey sandwich,9.92,9.95,0.02999999999999936,cherries,2352.2999999523163,2353,2352.599999964237,True,u,100538.60000002384,2868.0,1669830291117,2868,HRV,HRV_0005,2022-11-30 17:48:59
54,"[{'imgObject': {}, 'id': 'edamame', 'src': '/static/foodstim60/edamame.jpg', 'key': 'u', 'origWidth': 409, 'origHeight': 410, 'width': 409, 'height': 410, 'widthPercent': 0.45, 'rescaleHeight': False, 'trialN': 54, 'loaded': True, 'loadedTime': 2219.5, 'positionName': 'LEFT', 'positionCoords': [205.4, 155], 'bid': 5.03}, {'imgObject': {}, 'id': 'mashed potato', 'src': '/static/foodstim60/mashed potato.jpg', 'key': 'i', 'origWidth': 409, 'origHeight': 409, 'width': 409, 'height': 409, 'widthPercent': 0.45, 'rescaleHeight': False, 'trialN': 54, 'loaded': True, 'loadedTime': 2250.5, 'positionName': 'RIGHT', 'positionCoords': [665.6, 155.5], 'bid': 5}]",100538.89999997616,1669830291117,edamame,mashed potato,5.03,5.0,-0.03000000000000025,mashed potato,1076.4000000357628,1077,1076.7000000476837,True,i,102134.69999998808,1595.800000011921,1669830292713,1596,HRV,HRV_0005,2022-11-30 17:48:59
55,"[{'imgObject': {}, 'id': 'grilled chicken strips', 'src': '/static/foodstim60/grilled chicken strips.jpg', 'key': 'u', 'origWidth': 410, 'origHeight': 411, 'width': 410, 'height': 411, 'widthPercent': 0.45, 'rescaleHeight': False, 'trialN': 55, 'loaded': True, 'loadedTime': 2224, 'positionName': 'LEFT', 'positionCoords': [204.4, 154.5], 'bid': 9.09}, {'imgObject': {}, 'id': 'hotdog w must', 'src': '/static/foodstim60/hotdog w must.jpg', 'key': 'i', 'origWidth': 409, 'origHeight': 409, 'width': 409, 'height': 409, 'widthPercent': 0.45, 'rescaleHeight': False, 'trialN': 55, 'loaded': True, 'loadedTime': 2196.300000011921, 'positionName': 'RIGHT', 'positionCoords': [665.6, 155.5], 'bid': 9.92}]",102135.0,1669830292713,grilled chicken strips,hotdog w must,9.09,9.92,0.8300000000000001,grilled chicken strips,1502.1000000238419,1503,1502.5,True,u,104145.60000002384,2010.6000000238419,1669830294724,2011,HRV,HRV_0005,2022-11-30 17:48:59
56,"[{'imgObject': {}, 'id': 'mashed potato', 'src': '/static/foodstim60/mashed potato.jpg', 'key': 'u', 'origWidth': 409, 'origHeight': 409, 'width': 409, 'height': 409, 'widthPercent': 0.45, 'rescaleHeight': False, 'trialN': 56, 'loaded': True, 'loadedTime': 2250.600000023842, 'positionName': 'LEFT', 'positionCoords': [205.4, 155.5], 'bid': 5}, {'imgObject': {}, 'id': 'mango', 'src': '/static/foodstim60/mango.jpg', 'key': 'i', 'origWidth': 411, 'origHeight': 411, 'width': 411, 'height': 411, 'widthPercent': 0.45, 'rescaleHeight': False, 'trialN': 56, 'loaded': True, 'loadedTime': 2161.100000023842, 'positionName': 'RIGHT', 'positionCoords': [665.6, 154.5], 'bid': 6.25}]",104145.89999997616,1669830294724,mashed potato,mango,5.0,6.25,1.25,mashed potato,1281,1282,1281.5,True,u,105941.30000001192,1795.4000000357628,1669830296520,1796,HRV,HRV_0005,2022-11-30 17:48:59
57,"[{'imgObject': {}, 'id': 'burger', 'src': '/static/foodstim60/burger.jpg', 'key': 'u', 'origWidth': 409, 'origHeight': 409, 'width': 409, 'height': 409, 'widthPercent': 0.45, 'rescaleHeight': False, 'trialN': 57, 'loaded': True, 'loadedTime': 2251.300000011921, 'positionName': 'LEFT', 'positionCoords': [205.4, 155.5], 'bid': 9.93}, {'imgObject': {}, 'id': 'roastedpotatoes', 'src': '/static/foodstim60/roastedpotatoes.jpg', 'key': 'i', 'origWidth': 409, 'origHeight': 410, 'width': 409, 'height': 410, 'widthPercent': 0.45, 'rescaleHeight': False, 'trialN': 57, 'loaded': True, 'loadedTime': 2218.600000023842, 'positionName': 'RIGHT', 'positionCoords': [665.6, 155], 'bid': 7.01}]",105941.60000002384,1669830296520,burger,roastedpotatoes,9.93,7.01,-2.92,burger,1481.3999999761581,1482,1481.699999988079,True,u,107939.80000001192,1998.199999988079,1669830298518,1998,HRV,HRV_0005,2022-11-30 17:48:59
58,"[{'imgObject': {}, 'id': 'salad w chicken', 'src': '/static/foodstim60/salad w chicken.jpg', 'key': 'u', 'origWidth': 411, 'origHeight': 411, 'width': 411, 'height': 411, 'widthPercent': 0.45, 'rescaleHeight': False, 'trialN': 58, 'loaded': True, 'loadedTime': 2169.399999976158, 'positionName': 'LEFT', 'positionCoords': [203.4, 154.5], 'bid': 8.56}, {'imgObject': {}, 'id': 'kiwi', 'src': '/static/foodstim60/kiwi.jpg', 'key': 'i', 'origWidth': 410, 'origHeight': 410, 'width': 410, 'height': 410, 'widthPercent': 0.45, 'rescaleHeight': False, 'trialN': 58, 'loaded': True, 'loadedTime': 2251.800000011921, 'positionName': 'RIGHT', 'positionCoords': [665.6, 155], 'bid': 8.68}]",107940.0,1669830298519,salad w chicken,kiwi,8.56,8.68,0.11999999999999922,salad w chicken,808.8000000119209,809,809.1000000238419,True,u,109254.5,1314.5,1669830299833,1314,HRV,HRV_0005,2022-11-30 17:48:59
59,"[{'imgObject': {}, 'id': 'tacos', 'src': '/static/foodstim60/tacos.jpg', 'key': 'u', 'origWidth': 411, 'origHeight': 411, 'width': 411, 'height': 411, 'widthPercent': 0.45, 'rescaleHeight': False, 'trialN': 59, 'loaded': True, 'loadedTime': 2156.5, 'positionName': 'LEFT', 'positionCoords': [203.4, 154.5], 'bid': 9.59}, {'imgObject': {}, 'id': 'chickenfingers', 'src': '/static/foodstim60/chickenfingers.jpg', 'key': 'i', 'origWidth': 410, 'origHeight': 410, 'width': 410, 'height': 410, 'widthPercent': 0.45, 'rescaleHeight': False, 'trialN': 59, 'loaded': True, 'loadedTime': 2243.5, 'positionName': 'RIGHT', 'positionCoords': [665.6, 155], 'bid': 8.46}]",109254.69999998808,1669830299833,tacos,chickenfingers,9.59,8.46,-1.129999999999999,chickenfingers,780.3000000119209,781,780.6999999880791,True,i,110545.0,1290.300000011921,1669830301124,1291,HRV,HRV_0005,2022-11-30 17:48:59
60,"[{'imgObject': {}, 'id': 'burrito', 'src': '/static/foodstim60/burrito.jpg', 'key': 'u', 'origWidth': 410, 'origHeight': 410, 'width': 410, 'height': 410, 'widthPercent': 0.45, 'rescaleHeight': False, 'trialN': 60, 'loaded': True, 'loadedTime': 2255.399999976158, 'positionName': 'LEFT', 'positionCoords': [204.4, 155], 'bid': 8.9}, {'imgObject': {}, 'id': 'Tribe humus pita', 'src': '/static/foodstim60/Tribe humus pita.jpg', 'key': 'i', 'origWidth': 411, 'origHeight': 411, 'width': 411, 'height': 411, 'widthPercent': 0.45, 'rescaleHeight': False, 'trialN': 60, 'loaded': True, 'loadedTime': 2256.100000023842, 'positionName': 'RIGHT', 'positionCoords': [665.6, 154.5], 'bid': 8.68}]",110545.19999998808,1669830301124,burrito,Tribe humus pita,8.9,8.68,-0.22000000000000064,burrito,1795.1000000238419,1795,1795.4000000357628,True,u,112857.19999998808,2312.0,1669830303436,2312,HRV,HRV_0005,2022-11-30 17:48:59
61,"[{'imgObject': {}, 'id': 'shreddedwheatwithmilk', 'src': '/static/foodstim60/shreddedwheatwithmilk.jpg', 'key': 'u', 'origWidth': 410, 'origHeight': 410, 'width': 410, 'height': 410, 'widthPercent': 0.45, 'rescaleHeight': False, 'trialN': 61, 'loaded': True, 'loadedTime': 2181.199999988079, 'positionName': 'LEFT', 'positionCoords': [204.4, 155], 'bid': 2.06}, {'imgObject': {}, 'id': 'cantaloupe', 'src': '/static/foodstim60/cantaloupe.jpg', 'key': 'i', 'origWidth': 409, 'origHeight': 409, 'width': 409, 'height': 409, 'widthPercent': 0.45, 'rescaleHeight': False, 'trialN': 61, 'loaded': True, 'loadedTime': 2197.100000023842, 'positionName': 'RIGHT', 'positionCoords': [665.6, 155.5], 'bid': 6.78}]",112857.39999997616,1669830303436,shreddedwheatwithmilk,cantaloupe,2.06,6.78,4.720000000000001,cantaloupe,1394.5,1395,1394.7000000476837,True,i,114772.39999997616,1915.0,1669830305351,1915,HRV,HRV_0005,2022-11-30 17:48:59
62,"[{'imgObject': {}, 'id': 'froot loops w milk', 'src': '/static/foodstim60/froot loops w milk.jpg', 'key': 'u', 'origWidth': 410, 'origHeight': 410, 'width': 410, 'height': 410, 'widthPercent': 0.45, 'rescaleHeight': False, 'trialN': 62, 'loaded': True, 'loadedTime': 2256.100000023842, 'positionName': 'LEFT', 'positionCoords': [204.4, 155], 'bid': 7.62}, {'imgObject': {}, 'id': 'popsicles', 'src': '/static/foodstim60/popsicles.jpg', 'key': 'i', 'origWidth': 410, 'origHeight': 410, 'width': 410, 'height': 410, 'widthPercent': 0.45, 'rescaleHeight': False, 'trialN': 62, 'loaded': True, 'loadedTime': 2498.399999976158, 'positionName': 'RIGHT', 'positionCoords': [665.6, 155], 'bid': 9}]",114772.69999998808,1669830305351,froot loops w milk,popsicles,7.62,9.0,1.38,popsicles,1046.300000011921,1047,1046.5,True,i,116335.0,1562.300000011921,1669830306914,1563,HRV,HRV_0005,2022-11-30 17:48:59
63,"[{'imgObject': {}, 'id': 'cocktailshrimp', 'src': '/static/foodstim60/cocktailshrimp.jpg', 'key': 'u', 'origWidth': 410, 'origHeight': 410, 'width': 410, 'height': 410, 'widthPercent': 0.45, 'rescaleHeight': False, 'trialN': 63, 'loaded': True, 'loadedTime': 2204.199999988079, 'positionName': 'LEFT', 'positionCoords': [204.4, 155], 'bid': 8}, {'imgObject': {}, 'id': 'luckycharms', 'src': '/static/foodstim60/luckycharms.jpg', 'key': 'i', 'origWidth': 410, 'origHeight': 409, 'width': 410, 'height': 409, 'widthPercent': 0.45, 'rescaleHeight': False, 'trialN': 63, 'loaded': True, 'loadedTime': 2242.600000023842, 'positionName': 'RIGHT', 'positionCoords': [665.6, 155.5], 'bid': 7.92}]",116335.30000001192,1669830306914,cocktailshrimp,luckycharms,8.0,7.92,-0.08000000000000007,luckycharms,1140.699999988079,1141,1141.0,True,i,117995.0,1659.699999988079,1669830308574,1660,HRV,HRV_0005,2022-11-30 17:48:59
64,"[{'imgObject': {}, 'id': 'turkeysandwich', 'src': '/static/foodstim60/turkeysandwich.jpg', 'key': 'u', 'origWidth': 409, 'origHeight': 409, 'width': 409, 'height': 409, 'widthPercent': 0.45, 'rescaleHeight': False, 'trialN': 64, 'loaded': True, 'loadedTime': 2186.699999988079, 'positionName': 'LEFT', 'positionCoords': [205.4, 155.5], 'bid': 9.34}, {'imgObject': {}, 'id': 'burger', 'src': '/static/foodstim60/burger.jpg', 'key': 'i', 'origWidth': 409, 'origHeight': 409, 'width': 409, 'height': 409, 'widthPercent': 0.45, 'rescaleHeight': False, 'trialN': 64, 'loaded': True, 'loadedTime': 2251.399999976158, 'positionName': 'RIGHT', 'positionCoords': [665.6, 155.5], 'bid': 9.93}]",117995.19999998808,1669830308574,turkeysandwich,burger,9.34,9.93,0.5899999999999999,burger,1362.800000011921,1363,1363.199999988079,True,i,119868.19999998808,1873.0,1669830310447,1873,HRV,HRV_0005,2022-11-30 17:48:59
65,"[{'imgObject': {}, 'id': 'olives', 'src': '/static/foodstim60/olives.jpg', 'key': 'u', 'origWidth': 410, 'origHeight': 410, 'width': 410, 'height': 410, 'widthPercent': 0.45, 'rescaleHeight': False, 'trialN': 65, 'loaded': True, 'loadedTime': 2172.399999976158, 'positionName': 'LEFT', 'positionCoords': [204.4, 155], 'bid': 0}, {'imgObject': {}, 'id': 'yogurt no spoon', 'src': '/static/foodstim60/yogurt no spoon.jpg', 'key': 'i', 'origWidth': 411, 'origHeight': 410, 'width': 411, 'height': 410, 'widthPercent': 0.45, 'rescaleHeight': False, 'trialN': 65, 'loaded': True, 'loadedTime': 2257.300000011921, 'positionName': 'RIGHT', 'positionCoords': [665.6, 155], 'bid': 7.59}]",119868.39999997616,1669830310447,olives,yogurt no spoon,0.0,7.59,7.59,yogurt no spoon,986.2000000476837,987,986.6000000238419,True,i,121359.60000002384,1491.2000000476837,1669830311938,1491,HRV,HRV_0005,2022-11-30 17:48:59
66,"[{'imgObject': {}, 'id': 'mashed potato', 'src': '/static/foodstim60/mashed potato.jpg', 'key': 'u', 'origWidth': 409, 'origHeight': 409, 'width': 409, 'height': 409, 'widthPercent': 0.45, 'rescaleHeight': False, 'trialN': 66, 'loaded': True, 'loadedTime': 2249.800000011921, 'positionName': 'LEFT', 'positionCoords': [205.4, 155.5], 'bid': 5}, {'imgObject': {}, 'id': 'baked potato', 'src': '/static/foodstim60/baked potato.jpg', 'key': 'i', 'origWidth': 409, 'origHeight': 410, 'width': 409, 'height': 410, 'widthPercent': 0.45, 'rescaleHeight': False, 'trialN': 66, 'loaded': True, 'loadedTime': 2213.5, 'positionName': 'RIGHT', 'positionCoords': [665.6, 155], 'bid': 1.85}]",121359.89999997616,1669830311939,mashed potato,baked potato,5.0,1.85,-3.15,mashed potato,1225,1225,1225.2000000476837,True,u,123100.39999997616,1740.5,1669830313679,1740,HRV,HRV_0005,2022-11-30 17:48:59
67,"[{'imgObject': {}, 'id': 'Tribe humus pita', 'src': '/static/foodstim60/Tribe humus pita.jpg', 'key': 'u', 'origWidth': 411, 'origHeight': 411, 'width': 411, 'height': 411, 'widthPercent': 0.45, 'rescaleHeight': False, 'trialN': 67, 'loaded': True, 'loadedTime': 2255.399999976158, 'positionName': 'LEFT', 'positionCoords': [203.4, 154.5], 'bid': 8.68}, {'imgObject': {}, 'id': 'cherry tomato', 'src': '/static/foodstim60/cherry tomato.jpg', 'key': 'i', 'origWidth': 410, 'origHeight': 410, 'width': 410, 'height': 410, 'widthPercent': 0.45, 'rescaleHeight': False, 'trialN': 67, 'loaded': True, 'loadedTime': 2243.699999988079, 'positionName': 'RIGHT', 'positionCoords': [665.6, 155], 'bid': 4.29}]",123100.69999998808,1669830313679,Tribe humus pita,cherry tomato,8.68,4.29,-4.39,Tribe humus pita,1123.300000011921,1124,1123.5,True,u,124744.10000002384,1643.4000000357628,1669830315323,1644,HRV,HRV_0005,2022-11-30 17:48:59
68,"[{'imgObject': {}, 'id': 'salmon', 'src': '/static/foodstim60/salmon.jpg', 'key': 'u', 'origWidth': 410, 'origHeight': 409, 'width': 410, 'height': 409, 'widthPercent': 0.45, 'rescaleHeight': False, 'trialN': 68, 'loaded': True, 'loadedTime': 2185.399999976158, 'positionName': 'LEFT', 'positionCoords': [204.4, 155.5], 'bid': 0}, {'imgObject': {}, 'id': 'apple slices', 'src': '/static/foodstim60/apple slices.jpg', 'key': 'i', 'origWidth': 409, 'origHeight': 410, 'width': 409, 'height': 410, 'widthPercent': 0.45, 'rescaleHeight': False, 'trialN': 68, 'loaded': True, 'loadedTime': 2237, 'positionName': 'RIGHT', 'positionCoords': [665.6, 155], 'bid': 7.5}]",124744.30000001192,1669830315323,salmon,apple slices,0.0,7.5,7.5,apple slices,1140.699999988079,1141,1141.0999999642372,True,i,126400.89999997616,1656.5999999642372,1669830316980,1657,HRV,HRV_0005,2022-11-30 17:48:59
69,"[{'imgObject': {}, 'id': 'raspberries', 'src': '/static/foodstim60/raspberries.jpg', 'key': 'u', 'origWidth': 411, 'origHeight': 411, 'width': 411, 'height': 411, 'widthPercent': 0.45, 'rescaleHeight': False, 'trialN': 69, 'loaded': True, 'loadedTime': 2257.899999976158, 'positionName': 'LEFT', 'positionCoords': [203.4, 154.5], 'bid': 8.03}, {'imgObject': {}, 'id': 'Tribe humus pita', 'src': '/static/foodstim60/Tribe humus pita.jpg', 'key': 'i', 'origWidth': 411, 'origHeight': 411, 'width': 411, 'height': 411, 'widthPercent': 0.45, 'rescaleHeight': False, 'trialN': 69, 'loaded': True, 'loadedTime': 2256, 'positionName': 'RIGHT', 'positionCoords': [665.6, 154.5], 'bid': 8.68}]",126401.19999998808,1669830316980,raspberries,Tribe humus pita,8.03,8.68,0.6500000000000004,Tribe humus pita,1397.699999988079,1398,1398.0,True,i,128317.0,1915.800000011921,1669830318896,1916,HRV,HRV_0005,2022-11-30 17:48:59
70,"[{'imgObject': {}, 'id': 'banana', 'src': '/static/foodstim60/banana.jpg', 'key': 'u', 'origWidth': 410, 'origHeight': 410, 'width': 410, 'height': 410, 'widthPercent': 0.45, 'rescaleHeight': False, 'trialN': 70, 'loaded': True, 'loadedTime': 2231.699999988079, 'positionName': 'LEFT', 'positionCoords': [204.4, 155], 'bid': 7.4}, {'imgObject': {}, 'id': 'rigatoni and sauce', 'src': '/static/foodstim60/rigatoni and sauce.jpg', 'key': 'i', 'origWidth': 410, 'origHeight': 411, 'width': 410, 'height': 411, 'widthPercent': 0.45, 'rescaleHeight': False, 'trialN': 70, 'loaded': True, 'loadedTime': 2181.899999976158, 'positionName': 'RIGHT', 'positionCoords': [665.6, 154.5], 'bid': 7.57}]",128317.19999998808,1669830318896,banana,rigatoni and sauce,7.4,7.57,0.16999999999999993,rigatoni and sauce,710.8000000119209,711,711.1999999880791,True,i,129539.39999997616,1222.199999988079,1669830320118,1222,HRV,HRV_0005,2022-11-30 17:48:59
71,"[{'imgObject': {}, 'id': 'burrito', 'src': '/static/foodstim60/burrito.jpg', 'key': 'u', 'origWidth': 410, 'origHeight': 410, 'width': 410, 'height': 410, 'widthPercent': 0.45, 'rescaleHeight': False, 'trialN': 71, 'loaded': True, 'loadedTime': 2255.199999988079, 'positionName': 'LEFT', 'positionCoords': [204.4, 155], 'bid': 8.9}, {'imgObject': {}, 'id': 'mashed potato', 'src': '/static/foodstim60/mashed potato.jpg', 'key': 'i', 'origWidth': 409, 'origHeight': 409, 'width': 409, 'height': 409, 'widthPercent': 0.45, 'rescaleHeight': False, 'trialN': 71, 'loaded': True, 'loadedTime': 2250.600000023842, 'positionName': 'RIGHT', 'positionCoords': [665.6, 155.5], 'bid': 5}]",129539.60000002384,1669830320118,burrito,mashed potato,8.9,5.0,-3.9000000000000004,burrito,1405.3999999761581,1406,1405.699999988079,True,u,131454.5,1914.8999999761581,1669830322033,1915,HRV,HRV_0005,2022-11-30 17:48:59
72,"[{'imgObject': {}, 'id': 'turkey sandwich', 'src': '/static/foodstim60/turkey sandwich.jpg', 'key': 'u', 'origWidth': 409, 'origHeight': 409, 'width': 409, 'height': 409, 'widthPercent': 0.45, 'rescaleHeight': False, 'trialN': 72, 'loaded': True, 'loadedTime': 2208.100000023842, 'positionName': 'LEFT', 'positionCoords': [205.4, 155.5], 'bid': 9.95}, {'imgObject': {}, 'id': 'blueberries', 'src': '/static/foodstim60/blueberries.jpg', 'key': 'i', 'origWidth': 411, 'origHeight': 411, 'width': 411, 'height': 411, 'widthPercent': 0.45, 'rescaleHeight': False, 'trialN': 72, 'loaded': True, 'loadedTime': 2238.5, 'positionName': 'RIGHT', 'positionCoords': [665.6, 154.5], 'bid': 9.95}]",131454.69999998808,1669830322034,turkey sandwich,blueberries,9.95,9.95,0.0,turkey sandwich,1169.699999988079,1169,1170.0,True,u,133138.60000002384,1683.9000000357628,1669830323717,1683,HRV,HRV_0005,2022-11-30 17:48:59
73,"[{'imgObject': {}, 'id': 'bagel and cc', 'src': '/static/foodstim60/bagel and cc.jpg', 'key': 'u', 'origWidth': 410, 'origHeight': 410, 'width': 410, 'height': 410, 'widthPercent': 0.45, 'rescaleHeight': False, 'trialN': 73, 'loaded': True, 'loadedTime': 2248.300000011921, 'positionName': 'LEFT', 'positionCoords': [204.4, 155], 'bid': 7.67}, {'imgObject': {}, 'id': 'ice cream sundae 002', 'src': '/static/foodstim60/ice cream sundae 002.jpg', 'key': 'i', 'origWidth': 409, 'origHeight': 409, 'width': 409, 'height': 409, 'widthPercent': 0.45, 'rescaleHeight': False, 'trialN': 73, 'loaded': True, 'loadedTime': 2261.399999976158, 'positionName': 'RIGHT', 'positionCoords': [665.6, 155.5], 'bid': 7.9}]",133138.89999997616,1669830323718,bagel and cc,ice cream sundae 002,7.67,7.9,0.23000000000000043,bagel and cc,1198.2000000476837,1198,1198.5,True,u,134858.30000001192,1719.4000000357628,1669830325437,1719,HRV,HRV_0005,2022-11-30 17:48:59
74,"[{'imgObject': {}, 'id': 'Grapes', 'src': '/static/foodstim60/Grapes.jpg', 'key': 'u', 'origWidth': 411, 'origHeight': 411, 'width': 411, 'height': 411, 'widthPercent': 0.45, 'rescaleHeight': False, 'trialN': 74, 'loaded': True, 'loadedTime': 2212.800000011921, 'positionName': 'LEFT', 'positionCoords': [203.4, 154.5], 'bid': 5.57}, {'imgObject': {}, 'id': 'strawberries', 'src': '/static/foodstim60/strawberries.jpg', 'key': 'i', 'origWidth': 410, 'origHeight': 410, 'width': 410, 'height': 410, 'widthPercent': 0.45, 'rescaleHeight': False, 'trialN': 74, 'loaded': True, 'loadedTime': 2190.100000023842, 'positionName': 'RIGHT', 'positionCoords': [665.6, 155], 'bid': 9.23}]",134858.5,1669830325437,Grapes,strawberries,5.57,9.23,3.66,strawberries,1342.5,1343,1342.800000011921,True,i,136725.30000001192,1866.800000011921,1669830327304,1867,HRV,HRV_0005,2022-11-30 17:48:59
75,"[{'imgObject': {}, 'id': 'banana', 'src': '/static/foodstim60/banana.jpg', 'key': 'u', 'origWidth': 410, 'origHeight': 410, 'width': 410, 'height': 410, 'widthPercent': 0.45, 'rescaleHeight': False, 'trialN': 75, 'loaded': True, 'loadedTime': 2232.399999976158, 'positionName': 'LEFT', 'positionCoords': [204.4, 155], 'bid': 7.4}, {'imgObject': {}, 'id': 'ice cream sundae 002', 'src': '/static/foodstim60/ice cream sundae 002.jpg', 'key': 'i', 'origWidth': 409, 'origHeight': 409, 'width': 409, 'height': 409, 'widthPercent': 0.45, 'rescaleHeight': False, 'trialN': 75, 'loaded': True, 'loadedTime': 2260.800000011921, 'positionName': 'RIGHT', 'positionCoords': [665.6, 155.5], 'bid': 7.9}]",136725.5,1669830327304,banana,ice cream sundae 002,7.4,7.9,0.5,ice cream sundae 002,1292.3999999761581,1293,1292.699999988079,True,i,138537.5,1812.0,1669830329116,1812,HRV,HRV_0005,2022-11-30 17:48:59
76,"[{'imgObject': {}, 'id': 'sweetpotato', 'src': '/static/foodstim60/sweetpotato.jpg', 'key': 'u', 'origWidth': 410, 'origHeight': 410, 'width': 410, 'height': 410, 'widthPercent': 0.45, 'rescaleHeight': False, 'trialN': 76, 'loaded': True, 'loadedTime': 2262.100000023842, 'positionName': 'LEFT', 'positionCoords': [204.4, 155], 'bid': 1.76}, {'imgObject': {}, 'id': 'salmon', 'src': '/static/foodstim60/salmon.jpg', 'key': 'i', 'origWidth': 410, 'origHeight': 409, 'width': 410, 'height': 409, 'widthPercent': 0.45, 'rescaleHeight': False, 'trialN': 76, 'loaded': True, 'loadedTime': 2186, 'positionName': 'RIGHT', 'positionCoords': [665.6, 155.5], 'bid': 0}]",138537.69999998808,1669830329116,sweetpotato,salmon,1.76,0.0,-1.76,salmon,1160.199999988079,1161,1160.6000000238419,True,i,140206.89999997616,1669.199999988079,1669830330786,1670,HRV,HRV_0005,2022-11-30 17:48:59
77,"[{'imgObject': {}, 'id': 'sweetpotato', 'src': '/static/foodstim60/sweetpotato.jpg', 'key': 'u', 'origWidth': 410, 'origHeight': 410, 'width': 410, 'height': 410, 'widthPercent': 0.45, 'rescaleHeight': False, 'trialN': 77, 'loaded': True, 'loadedTime': 2262.100000023842, 'positionName': 'LEFT', 'positionCoords': [204.4, 155], 'bid': 1.76}, {'imgObject': {}, 'id': 'baked potato', 'src': '/static/foodstim60/baked potato.jpg', 'key': 'i', 'origWidth': 409, 'origHeight': 410, 'width': 409, 'height': 410, 'widthPercent': 0.45, 'rescaleHeight': False, 'trialN': 77, 'loaded': True, 'loadedTime': 2212.899999976158, 'positionName': 'RIGHT', 'positionCoords': [665.6, 155], 'bid': 1.85}]",140207.19999998808,1669830330786,sweetpotato,baked potato,1.76,1.85,0.09000000000000008,baked potato,1113.699999988079,1114,1114.0,True,i,141835.80000001192,1628.6000000238419,1669830332415,1629,HRV,HRV_0005,2022-11-30 17:48:59
78,"[{'imgObject': {}, 'id': 'salmon', 'src': '/static/foodstim60/salmon.jpg', 'key': 'u', 'origWidth': 410, 'origHeight': 409, 'width': 410, 'height': 409, 'widthPercent': 0.45, 'rescaleHeight': False, 'trialN': 78, 'loaded': True, 'loadedTime': 2185.600000023842, 'positionName': 'LEFT', 'positionCoords': [204.4, 155.5], 'bid': 0}, {'imgObject': {}, 'id': 'shreddedwheatwithmilk', 'src': '/static/foodstim60/shreddedwheatwithmilk.jpg', 'key': 'i', 'origWidth': 410, 'origHeight': 410, 'width': 410, 'height': 410, 'widthPercent': 0.45, 'rescaleHeight': False, 'trialN': 78, 'loaded': True, 'loadedTime': 2178.199999988079, 'positionName': 'RIGHT', 'positionCoords': [665.6, 155], 'bid': 2.06}]",141836.10000002384,1669830332415,salmon,shreddedwheatwithmilk,0.0,2.06,2.06,shreddedwheatwithmilk,1866.199999988079,1866,1866.5,True,i,144206.69999998808,2370.599999964237,1669830334785,2370,HRV,HRV_0005,2022-11-30 17:48:59
79,"[{'imgObject': {}, 'id': 'sushi w_condiments', 'src': '/static/foodstim60/sushi w_condiments.jpg', 'key': 'u', 'origWidth': 410, 'origHeight': 410, 'width': 410, 'height': 410, 'widthPercent': 0.45, 'rescaleHeight': False, 'trialN': 79, 'loaded': True, 'loadedTime': 2219.399999976158, 'positionName': 'LEFT', 'positionCoords': [204.4, 155], 'bid': 0.03}, {'imgObject': {}, 'id': 'hashbrowns', 'src': '/static/foodstim60/hashbrowns.jpg', 'key': 'i', 'origWidth': 411, 'origHeight': 410, 'width': 411, 'height': 410, 'widthPercent': 0.45, 'rescaleHeight': False, 'trialN': 79, 'loaded': True, 'loadedTime': 2209.199999988079, 'positionName': 'RIGHT', 'positionCoords': [665.6, 155], 'bid': 5.01}]",144206.89999997616,1669830334786,sushi w_condiments,hashbrowns,0.03,5.01,4.9799999999999995,hashbrowns,1242.7000000476837,1243,1243.0,True,i,145964.60000002384,1757.7000000476837,1669830336543,1757,HRV,HRV_0005,2022-11-30 17:48:59
80,"[{'imgObject': {}, 'id': 'Grapes', 'src': '/static/foodstim60/Grapes.jpg', 'key': 'u', 'origWidth': 411, 'origHeight': 411, 'width': 411, 'height': 411, 'widthPercent': 0.45, 'rescaleHeight': False, 'trialN': 80, 'loaded': True, 'loadedTime': 2212.800000011921, 'positionName': 'LEFT', 'positionCoords': [203.4, 154.5], 'bid': 5.57}, {'imgObject': {}, 'id': 'apple slices', 'src': '/static/foodstim60/apple slices.jpg', 'key': 'i', 'origWidth': 409, 'origHeight': 410, 'width': 409, 'height': 410, 'widthPercent': 0.45, 'rescaleHeight': False, 'trialN': 80, 'loaded': True, 'loadedTime': 2237.800000011921, 'positionName': 'RIGHT', 'positionCoords': [665.6, 155], 'bid': 7.5}]",145964.80000001192,1669830336544,Grapes,apple slices,5.57,7.5,1.9299999999999997,apple slices,1107.0999999642372,1107,1107.3999999761581,True,i,147584.69999998808,1619.8999999761581,1669830338163,1619,HRV,HRV_0005,2022-11-30 17:48:59
81,"[{'imgObject': {}, 'id': 'omelette', 'src': '/static/foodstim60/omelette.jpg', 'key': 'u', 'origWidth': 410, 'origHeight': 409, 'width': 410, 'height': 409, 'widthPercent': 0.45, 'rescaleHeight': False, 'trialN': 81, 'loaded': True, 'loadedTime': 2249.600000023842, 'positionName': 'LEFT', 'positionCoords': [204.4, 155.5], 'bid': 1.34}, {'imgObject': {}, 'id': 'ice cream sundae 002', 'src': '/static/foodstim60/ice cream sundae 002.jpg', 'key': 'i', 'origWidth': 409, 'origHeight': 409, 'width': 409, 'height': 409, 'widthPercent': 0.45, 'rescaleHeight': False, 'trialN': 81, 'loaded': True, 'loadedTime': 2261.5, 'positionName': 'RIGHT', 'positionCoords': [665.6, 155.5], 'bid': 7.9}]",147584.89999997616,1669830338164,omelette,ice cream sundae 002,1.34,7.9,6.5600000000000005,ice cream sundae 002,1279.1000000238419,1279,1279.4000000357628,True,i,149379.10000002384,1794.2000000476837,1669830339958,1794,HRV,HRV_0005,2022-11-30 17:48:59
82,"[{'imgObject': {}, 'id': 'corn cob', 'src': '/static/foodstim60/corn cob.jpg', 'key': 'u', 'origWidth': 411, 'origHeight': 411, 'width': 411, 'height': 411, 'widthPercent': 0.45, 'rescaleHeight': False, 'trialN': 82, 'loaded': True, 'loadedTime': 2236.899999976158, 'positionName': 'LEFT', 'positionCoords': [203.4, 154.5], 'bid': 6.46}, {'imgObject': {}, 'id': 'chicken nuggets2', 'src': '/static/foodstim60/chicken nuggets2.jpg', 'key': 'i', 'origWidth': 410, 'origHeight': 409, 'width': 410, 'height': 409, 'widthPercent': 0.45, 'rescaleHeight': False, 'trialN': 82, 'loaded': True, 'loadedTime': 2262.899999976158, 'positionName': 'RIGHT', 'positionCoords': [665.6, 155.5], 'bid': 2}]",149379.39999997616,1669830339958,corn cob,chicken nuggets2,6.46,2.0,-4.46,corn cob,1467.6000000238419,1468,1467.9000000357628,True,u,151362.39999997616,1983.0,1669830341941,1983,HRV,HRV_0005,2022-11-30 17:48:59
83,"[{'imgObject': {}, 'id': 'banana', 'src': '/static/foodstim60/banana.jpg', 'key': 'u', 'origWidth': 410, 'origHeight': 410, 'width': 410, 'height': 410, 'widthPercent': 0.45, 'rescaleHeight': False, 'trialN': 83, 'loaded': True, 'loadedTime': 2232.600000023842, 'positionName': 'LEFT', 'positionCoords': [204.4, 155], 'bid': 7.4}, {'imgObject': {}, 'id': 'raisin bran w milk', 'src': '/static/foodstim60/raisin bran w milk.jpg', 'key': 'i', 'origWidth': 411, 'origHeight': 411, 'width': 411, 'height': 411, 'widthPercent': 0.45, 'rescaleHeight': False, 'trialN': 83, 'loaded': True, 'loadedTime': 2233.600000023842, 'positionName': 'RIGHT', 'positionCoords': [665.6, 154.5], 'bid': 7.34}]",151362.69999998808,1669830341941,banana,raisin bran w milk,7.4,7.34,-0.0600000000000005,raisin bran w milk,1561.199999988079,1562,1561.6000000238419,True,i,153434.30000001192,2071.600000023842,1669830344013,2072,HRV,HRV_0005,2022-11-30 17:48:59
84,"[{'imgObject': {}, 'id': 'hashbrowns', 'src': '/static/foodstim60/hashbrowns.jpg', 'key': 'u', 'origWidth': 411, 'origHeight': 410, 'width': 411, 'height': 410, 'widthPercent': 0.45, 'rescaleHeight': False, 'trialN': 84, 'loaded': True, 'loadedTime': 2209.199999988079, 'positionName': 'LEFT', 'positionCoords': [203.4, 155], 'bid': 5.01}, {'imgObject': {}, 'id': 'rigatoni', 'src': '/static/foodstim60/rigatoni.jpg', 'key': 'i', 'origWidth': 411, 'origHeight': 411, 'width': 411, 'height': 411, 'widthPercent': 0.45, 'rescaleHeight': False, 'trialN': 84, 'loaded': True, 'loadedTime': 2173.699999988079, 'positionName': 'RIGHT', 'positionCoords': [665.6, 154.5], 'bid': 1.9}]",153434.5,1669830344013,hashbrowns,rigatoni,5.01,1.9,-3.11,hashbrowns,1709.8999999761581,1710,1710.1000000238419,True,u,155658.89999997616,2224.399999976158,1669830346238,2225,HRV,HRV_0005,2022-11-30 17:48:59
85,"[{'imgObject': {}, 'id': 'roastedpotatoes', 'src': '/static/foodstim60/roastedpotatoes.jpg', 'key': 'u', 'origWidth': 409, 'origHeight': 410, 'width': 409, 'height': 410, 'widthPercent': 0.45, 'rescaleHeight': False, 'trialN': 85, 'loaded': True, 'loadedTime': 2218.399999976158, 'positionName': 'LEFT', 'positionCoords': [205.4, 155], 'bid': 7.01}, {'imgObject': {}, 'id': 'cantaloupe', 'src': '/static/foodstim60/cantaloupe.jpg', 'key': 'i', 'origWidth': 409, 'origHeight': 409, 'width': 409, 'height': 409, 'widthPercent': 0.45, 'rescaleHeight': False, 'trialN': 85, 'loaded': True, 'loadedTime': 2197.199999988079, 'positionName': 'RIGHT', 'positionCoords': [665.6, 155.5], 'bid': 6.78}]",155659.10000002384,1669830346238,roastedpotatoes,cantaloupe,7.01,6.78,-0.22999999999999954,roastedpotatoes,819.8999999761581,820,820.1999999880791,True,u,156989.80000001192,1330.699999988079,1669830347569,1331,HRV,HRV_0005,2022-11-30 17:48:59
86,"[{'imgObject': {}, 'id': 'veggieswithdip', 'src': '/static/foodstim60/veggieswithdip.jpg', 'key': 'u', 'origWidth': 409, 'origHeight': 409, 'width': 409, 'height': 409, 'widthPercent': 0.45, 'rescaleHeight': False, 'trialN': 86, 'loaded': True, 'loadedTime': 2157.600000023842, 'positionName': 'LEFT', 'positionCoords': [205.4, 155.5], 'bid': 4.9}, {'imgObject': {}, 'id': 'sweetpotato', 'src': '/static/foodstim60/sweetpotato.jpg', 'key': 'i', 'origWidth': 410, 'origHeight': 410, 'width': 410, 'height': 410, 'widthPercent': 0.45, 'rescaleHeight': False, 'trialN': 86, 'loaded': True, 'loadedTime': 2261.600000023842, 'positionName': 'RIGHT', 'positionCoords': [665.6, 155], 'bid': 1.76}]",156990.0,1669830347569,veggieswithdip,sweetpotato,4.9,1.76,-3.1400000000000006,veggieswithdip,1085,1085,1085.300000011921,True,u,158592.60000002384,1602.6000000238419,1669830349171,1602,HRV,HRV_0005,2022-11-30 17:48:59
87,"[{'imgObject': {}, 'id': 'chicken nuggets2', 'src': '/static/foodstim60/chicken nuggets2.jpg', 'key': 'u', 'origWidth': 410, 'origHeight': 409, 'width': 410, 'height': 409, 'widthPercent': 0.45, 'rescaleHeight': False, 'trialN': 87, 'loaded': True, 'loadedTime': 2262.800000011921, 'positionName': 'LEFT', 'positionCoords': [204.4, 155.5], 'bid': 2}, {'imgObject': {}, 'id': 'edamame', 'src': '/static/foodstim60/edamame.jpg', 'key': 'i', 'origWidth': 409, 'origHeight': 410, 'width': 409, 'height': 410, 'widthPercent': 0.45, 'rescaleHeight': False, 'trialN': 87, 'loaded': True, 'loadedTime': 2222.899999976158, 'positionName': 'RIGHT', 'positionCoords': [665.6, 155], 'bid': 5.03}]",158592.69999998808,1669830349172,chicken nuggets2,edamame,2.0,5.03,3.0300000000000002,chicken nuggets2,1164.199999988079,1164,1164.6000000238419,True,u,160269.5,1676.800000011921,1669830350848,1676,HRV,HRV_0005,2022-11-30 17:48:59
88,"[{'imgObject': {}, 'id': 'shreddedwheatwithmilk', 'src': '/static/foodstim60/shreddedwheatwithmilk.jpg', 'key': 'u', 'origWidth': 410, 'origHeight': 410, 'width': 410, 'height': 410, 'widthPercent': 0.45, 'rescaleHeight': False, 'trialN': 88, 'loaded': True, 'loadedTime': 2181.100000023842, 'positionName': 'LEFT', 'positionCoords': [204.4, 155], 'bid': 2.06}, {'imgObject': {}, 'id': 'eggsalad', 'src': '/static/foodstim60/eggsalad.jpg', 'key': 'i', 'origWidth': 410, 'origHeight': 409, 'width': 410, 'height': 409, 'widthPercent': 0.45, 'rescaleHeight': False, 'trialN': 88, 'loaded': True, 'loadedTime': 2217.800000011921, 'positionName': 'RIGHT', 'positionCoords': [665.6, 155.5], 'bid': 2.28}]",160269.80000001192,1669830350849,shreddedwheatwithmilk,eggsalad,2.06,2.28,0.21999999999999975,eggsalad,1595.300000011921,1595,1595.5999999642372,True,i,162372.39999997616,2102.599999964237,1669830352951,2102,HRV,HRV_0005,2022-11-30 17:48:59
89,"[{'imgObject': {}, 'id': 'pear', 'src': '/static/foodstim60/pear.jpg', 'key': 'u', 'origWidth': 411, 'origHeight': 410, 'width': 411, 'height': 410, 'widthPercent': 0.45, 'rescaleHeight': False, 'trialN': 89, 'loaded': True, 'loadedTime': 2248.199999988079, 'positionName': 'LEFT', 'positionCoords': [203.4, 155], 'bid': 6.8500000000000005}, {'imgObject': {}, 'id': 'eggsalad', 'src': '/static/foodstim60/eggsalad.jpg', 'key': 'i', 'origWidth': 410, 'origHeight': 409, 'width': 410, 'height': 409, 'widthPercent': 0.45, 'rescaleHeight': False, 'trialN': 89, 'loaded': True, 'loadedTime': 2217.300000011921, 'positionName': 'RIGHT', 'positionCoords': [665.6, 155.5], 'bid': 2.28}]",162372.60000002384,1669830352951,pear,eggsalad,6.8500000000000005,2.28,-4.57,pear,950.5,951,950.6999999880791,True,u,163840.10000002384,1467.5,1669830354419,1468,HRV,HRV_0005,2022-11-30 17:48:59
90,"[{'imgObject': {}, 'id': 'orange slices', 'src': '/static/foodstim60/orange slices.jpg', 'key': 'u', 'origWidth': 409, 'origHeight': 410, 'width': 409, 'height': 410, 'widthPercent': 0.45, 'rescaleHeight': False, 'trialN': 90, 'loaded': True, 'loadedTime': 2200.399999976158, 'positionName': 'LEFT', 'positionCoords': [205.4, 155], 'bid': 8.45}, {'imgObject': {}, 'id': 'burrito', 'src': '/static/foodstim60/burrito.jpg', 'key': 'i', 'origWidth': 410, 'origHeight': 410, 'width': 410, 'height': 410, 'widthPercent': 0.45, 'rescaleHeight': False, 'trialN': 90, 'loaded': True, 'loadedTime': 2254.600000023842, 'positionName': 'RIGHT', 'positionCoords': [665.6, 155], 'bid': 8.9}]",185467.10000002384,1669830376046,orange slices,burrito,8.45,8.9,0.45000000000000107,NaN,NaN,NaN,,False,NaN,189494.30000001192,4027.199999988079,1669830380073,4027,HRV,HRV_0005,2022-11-30 17:48:59
91,"[{'imgObject': {}, 'id': 'mashed potato', 'src': '/static/foodstim60/mashed potato.jpg', 'key': 'u', 'origWidth': 409, 'origHeight': 409, 'width': 409, 'height': 409, 'widthPercent': 0.45, 'rescaleHeight': False, 'trialN': 91, 'loaded': True, 'loadedTime': 2250.600000023842, 'positionName': 'LEFT', 'positionCoords': [205.4, 155.5], 'bid': 5}, {'imgObject': {}, 'id': 'olives', 'src': '/static/foodstim60/olives.jpg', 'key': 'i', 'origWidth': 410, 'origHeight': 410, 'width': 410, 'height': 410, 'widthPercent': 0.45, 'rescaleHeight': False, 'trialN': 91, 'loaded': True, 'loadedTime': 2172.5, 'positionName': 'RIGHT', 'positionCoords': [665.6, 155], 'bid': 0}]",189494.60000002384,1669830380073,mashed potato,olives,5.0,0.0,-5.0,NaN,NaN,NaN,,False,NaN,193503.60000002384,4009.0,1669830384082,4009,HRV,HRV_0005,2022-11-30 17:48:59
92,"[{'imgObject': {}, 'id': 'granola w milk', 'src': '/static/foodstim60/granola w milk.jpg', 'key': 'u', 'origWidth': 410, 'origHeight': 410, 'width': 410, 'height': 410, 'widthPercent': 0.45, 'rescaleHeight': False, 'trialN': 92, 'loaded': True, 'loadedTime': 2228.399999976158, 'positionName': 'LEFT', 'positionCoords': [204.4, 155], 'bid': 8.01}, {'imgObject': {}, 'id': 'steak', 'src': '/static/foodstim60/steak.jpg', 'key': 'i', 'origWidth': 410, 'origHeight': 410, 'width': 410, 'height': 410, 'widthPercent': 0.45, 'rescaleHeight': False, 'trialN': 92, 'loaded': True, 'loadedTime': 2165.5, 'positionName': 'RIGHT', 'positionCoords': [665.6, 155], 'bid': 9.87}]",193503.80000001192,1669830384082,granola w milk,steak,8.01,9.87,1.8599999999999994,steak,1561.5,1562,1561.800000011921,True,i,195586.69999998808,2082.899999976158,1669830386165,2083,HRV,HRV_0005,2022-11-30 17:48:59
93,"[{'imgObject': {}, 'id': 'omelette', 'src': '/static/foodstim60/omelette.jpg', 'key': 'u', 'origWidth': 410, 'origHeight': 409, 'width': 410, 'height': 409, 'widthPercent': 0.45, 'rescaleHeight': False, 'trialN': 93, 'loaded': True, 'loadedTime': 2249.699999988079, 'positionName': 'LEFT', 'positionCoords': [204.4, 155.5], 'bid': 1.34}, {'imgObject': {}, 'id': 'cherry tomato', 'src': '/static/foodstim60/cherry tomato.jpg', 'key': 'i', 'origWidth': 410, 'origHeight': 410, 'width': 410, 'height': 410, 'widthPercent': 0.45, 'rescaleHeight': False, 'trialN': 93, 'loaded': True, 'loadedTime': 2244.199999988079, 'positionName': 'RIGHT', 'positionCoords': [665.6, 155], 'bid': 4.29}]",195586.89999997616,1669830386165,omelette,cherry tomato,1.34,4.29,2.95,cherry tomato,1394.2000000476837,1395,1394.6000000238419,True,i,197483.5,1896.6000000238419,1669830388062,1897,HRV,HRV_0005,2022-11-30 17:48:59
94,"[{'imgObject': {}, 'id': 'turkey sandwich', 'src': '/static/foodstim60/turkey sandwich.jpg', 'key': 'u', 'origWidth': 409, 'origHeight': 409, 'width': 409, 'height': 409, 'widthPercent': 0.45, 'rescaleHeight': False, 'trialN': 94, 'loaded': True, 'loadedTime': 2208.300000011921, 'positionName': 'LEFT', 'positionCoords': [205.4, 155.5], 'bid': 9.95}, {'imgObject': {}, 'id': 'raisin bran w milk', 'src': '/static/foodstim60/raisin bran w milk.jpg', 'key': 'i', 'origWidth': 411, 'origHeight': 411, 'width': 411, 'height': 411, 'widthPercent': 0.45, 'rescaleHeight': False, 'trialN': 94, 'loaded': True, 'loadedTime': 2233.5, 'positionName': 'RIGHT', 'positionCoords': [665.6, 154.5], 'bid': 7.34}]",197483.80000001192,1669830388062,turkey sandwich,raisin bran w milk,9.95,7.34,-2.6099999999999994,turkey sandwich,823.0999999642372,824,823.5,True,u,198818.60000002384,1334.800000011921,1669830389397,1335,HRV,HRV_0005,2022-11-30 17:48:59
95,"[{'imgObject': {}, 'id': 'pear', 'src': '/static/foodstim60/pear.jpg', 'key': 'u', 'origWidth': 411, 'origHeight': 410, 'width': 411, 'height': 410, 'widthPercent': 0.45, 'rescaleHeight': False, 'trialN': 95, 'loaded': True, 'loadedTime': 2248.300000011921, 'positionName': 'LEFT', 'positionCoords': [203.4, 155], 'bid': 6.8500000000000005}, {'imgObject': {}, 'id': 'luckycharms', 'src': '/static/foodstim60/luckycharms.jpg', 'key': 'i', 'origWidth': 410, 'origHeight': 409, 'width': 410, 'height': 409, 'widthPercent': 0.45, 'rescaleHeight': False, 'trialN': 95, 'loaded': True, 'loadedTime': 2239.100000023842, 'positionName': 'RIGHT', 'positionCoords': [665.6, 155.5], 'bid': 7.92}]",198818.80000001192,1669830389397,pear,luckycharms,6.8500000000000005,7.92,1.0699999999999994,luckycharms,735.0999999642372,736,735.3999999761581,True,i,200065.60000002384,1246.800000011921,1669830390644,1247,HRV,HRV_0005,2022-11-30 17:48:59
96,"[{'imgObject': {}, 'id': 'steak', 'src': '/static/foodstim60/steak.jpg', 'key': 'u', 'origWidth': 410, 'origHeight': 410, 'width': 410, 'height': 410, 'widthPercent': 0.45, 'rescaleHeight': False, 'trialN': 96, 'loaded': True, 'loadedTime': 2165.699999988079, 'positionName': 'LEFT', 'positionCoords': [204.4, 155], 'bid': 9.87}, {'imgObject': {}, 'id': 'eggs', 'src': '/static/foodstim60/eggs.jpg', 'key': 'i', 'origWidth': 409, 'origHeight': 409, 'width': 409, 'height': 409, 'widthPercent': 0.45, 'rescaleHeight': False, 'trialN': 96, 'loaded': True, 'loadedTime': 2192.800000011921, 'positionName': 'RIGHT', 'positionCoords': [665.6, 155.5], 'bid': 8.53}]",200065.80000001192,1669830390644,steak,eggs,9.87,8.53,-1.3399999999999999,steak,832.1999999880791,833,832.5,True,u,201419.19999998808,1353.3999999761581,1669830391998,1354,HRV,HRV_0005,2022-11-30 17:48:59
97,"[{'imgObject': {}, 'id': 'burrito', 'src': '/static/foodstim60/burrito.jpg', 'key': 'u', 'origWidth': 410, 'origHeight': 410, 'width': 410, 'height': 410, 'widthPercent': 0.45, 'rescaleHeight': False, 'trialN': 97, 'loaded': True, 'loadedTime': 2255.199999988079, 'positionName': 'LEFT', 'positionCoords': [204.4, 155], 'bid': 8.9}, {'imgObject': {}, 'id': 'yogurt no spoon', 'src': '/static/foodstim60/yogurt no spoon.jpg', 'key': 'i', 'origWidth': 411, 'origHeight': 410, 'width': 411, 'height': 410, 'widthPercent': 0.45, 'rescaleHeight': False, 'trialN': 97, 'loaded': True, 'loadedTime': 2256.800000011921, 'positionName': 'RIGHT', 'positionCoords': [665.6, 155], 'bid': 7.59}]",201419.39999997616,1669830391998,burrito,yogurt no spoon,8.9,7.59,-1.3100000000000005,yogurt no spoon,1088.5,1089,1088.9000000357628,True,i,203020.0,1600.6000000238419,1669830393599,1601,HRV,HRV_0005,2022-11-30 17:48:59
98,"[{'imgObject': {}, 'id': 'blueberries', 'src': '/static/foodstim60/blueberries.jpg', 'key': 'u', 'origWidth': 411, 'origHeight': 411, 'width': 411, 'height': 411, 'widthPercent': 0.45, 'rescaleHeight': False, 'trialN': 98, 'loaded': True, 'loadedTime': 2238.5, 'positionName': 'LEFT', 'positionCoords': [203.4, 154.5], 'bid': 9.95}, {'imgObject': {}, 'id': 'grilled chicken strips', 'src': '/static/foodstim60/grilled chicken strips.jpg', 'key': 'i', 'origWidth': 410, 'origHeight': 411, 'width': 410, 'height': 411, 'widthPercent': 0.45, 'rescaleHeight': False, 'trialN': 98, 'loaded': True, 'loadedTime': 2224.199999988079, 'positionName': 'RIGHT', 'positionCoords': [665.6, 154.5], 'bid': 9.09}]",203020.30000001192,1669830393599,blueberries,grilled chicken strips,9.95,9.09,-0.8599999999999994,grilled chicken strips,1118.699999988079,1119,1119.0,True,i,204644.39999997616,1624.0999999642372,1669830395223,1624,HRV,HRV_0005,2022-11-30 17:48:59
99,"[{'imgObject': {}, 'id': 'apple slices', 'src': '/static/foodstim60/apple slices.jpg', 'key': 'u', 'origWidth': 409, 'origHeight': 410, 'width': 409, 'height': 410, 'widthPercent': 0.45, 'rescaleHeight': False, 'trialN': 99, 'loaded': True, 'loadedTime': 2237.5, 'positionName': 'LEFT', 'positionCoords': [205.4, 155], 'bid': 7.5}, {'imgObject': {}, 'id': 'Tribe humus pita', 'src': '/static/foodstim60/Tribe humus pita.jpg', 'key': 'i', 'origWidth': 411, 'origHeight': 411, 'width': 411, 'height': 411, 'widthPercent': 0.45, 'rescaleHeight': False, 'trialN': 99, 'loaded': True, 'loadedTime': 2256, 'positionName': 'RIGHT', 'positionCoords': [665.6, 154.5], 'bid': 8.68}]",204644.60000002384,1669830395223,apple slices,Tribe humus pita,7.5,8.68,1.1799999999999997,Tribe humus pita,957.5,958,957.7999999523163,True,i,206121.5,1476.8999999761581,1669830396700,1477,HRV,HRV_0005,2022-11-30 17:48:59
100,"[{'imgObject': {}, 'id': 'rigatoni', 'src': '/static/foodstim60/rigatoni.jpg', 'key': 'u', 'origWidth': 411, 'origHeight': 411, 'width': 411, 'height': 411, 'widthPercent': 0.45, 'rescaleHeight': False, 'trialN': 100, 'loaded': True, 'loadedTime': 2173.699999988079, 'positionName': 'LEFT', 'positionCoords': [203.4, 154.5], 'bid': 1.9}, {'imgObject': {}, 'id': 'granola w milk', 'src': '/static/foodstim60/granola w milk.jpg', 'key': 'i', 'origWidth': 410, 'origHeight': 410, 'width': 410, 'height': 410, 'widthPercent': 0.45, 'rescaleHeight': False, 'trialN': 100, 'loaded': True, 'loadedTime': 2228.399999976158, 'positionName': 'RIGHT', 'positionCoords': [665.6, 155], 'bid': 8.01}]",206121.89999997616,1669830396700,rigatoni,granola w milk,1.9,8.01,6.109999999999999,granola w milk,1231.2000000476837,1232,1231.6000000238419,True,i,207871.80000001192,1749.9000000357628,1669830398450,1750,HRV,HRV_0005,2022-11-30 17:48:59
101,"[{'imgObject': {}, 'id': 'seaweed', 'src': '/static/foodstim60/seaweed.jpg', 'key': 'u', 'origWidth': 410, 'origHeight': 410, 'width': 410, 'height': 410, 'widthPercent': 0.45, 'rescaleHeight': False, 'trialN': 101, 'loaded': True, 'loadedTime': 2205.199999988079, 'positionName': 'LEFT', 'positionCoords': [204.4, 155], 'bid': 0}, {'imgObject': {}, 'id': 'baked potato', 'src': '/static/foodstim60/baked potato.jpg', 'key': 'i', 'origWidth': 409, 'origHeight': 410, 'width': 409, 'height': 410, 'widthPercent': 0.45, 'rescaleHeight': False, 'trialN': 101, 'loaded': True, 'loadedTime': 2213.5, 'positionName': 'RIGHT', 'positionCoords': [665.6, 155], 'bid': 1.85}]",207872.0,1669830398451,seaweed,baked potato,0.0,1.85,1.85,baked potato,994,994,994.3000000119209,True,i,209376.5,1504.5,1669830399955,1504,HRV,HRV_0005,2022-11-30 17:48:59
102,"[{'imgObject': {}, 'id': 'fruitsalad', 'src': '/static/foodstim60/fruitsalad.jpg', 'key': 'u', 'origWidth': 410, 'origHeight': 410, 'width': 410, 'height': 410, 'widthPercent': 0.45, 'rescaleHeight': False, 'trialN': 102, 'loaded': True, 'loadedTime': 2229.100000023842, 'positionName': 'LEFT', 'positionCoords': [204.4, 155], 'bid': 8.26}, {'imgObject': {}, 'id': 'strawberries', 'src': '/static/foodstim60/strawberries.jpg', 'key': 'i', 'origWidth': 410, 'origHeight': 410, 'width': 410, 'height': 410, 'widthPercent': 0.45, 'rescaleHeight': False, 'trialN': 102, 'loaded': True, 'loadedTime': 2189.399999976158, 'positionName': 'RIGHT', 'positionCoords': [665.6, 155], 'bid': 9.23}]",209376.80000001192,1669830399955,fruitsalad,strawberries,8.26,9.23,0.9700000000000006,strawberries,710.0999999642372,711,710.5,True,i,210610.89999997616,1234.0999999642372,1669830401189,1234,HRV,HRV_0005,2022-11-30 17:48:59
103,"[{'imgObject': {}, 'id': 'rigatoni and sauce', 'src': '/static/foodstim60/rigatoni and sauce.jpg', 'key': 'u', 'origWidth': 410, 'origHeight': 411, 'width': 410, 'height': 411, 'widthPercent': 0.45, 'rescaleHeight': False, 'trialN': 103, 'loaded': True, 'loadedTime': 2182.100000023842, 'positionName': 'LEFT', 'positionCoords': [204.4, 154.5], 'bid': 7.57}, {'imgObject': {}, 'id': 'apple slices', 'src': '/static/foodstim60/apple slices.jpg', 'key': 'i', 'origWidth': 409, 'origHeight': 410, 'width': 409, 'height': 410, 'widthPercent': 0.45, 'rescaleHeight': False, 'trialN': 103, 'loaded': True, 'loadedTime': 2237.600000023842, 'positionName': 'RIGHT', 'positionCoords': [665.6, 155], 'bid': 7.5}]",210611.10000002384,1669830401190,rigatoni and sauce,apple slices,7.57,7.5,-0.07000000000000028,rigatoni and sauce,739.7999999523163,740,740.1999999880791,True,u,211873.80000001192,1262.699999988079,1669830402452,1262,HRV,HRV_0005,2022-11-30 17:48:59
104,"[{'imgObject': {}, 'id': 'cantaloupe', 'src': '/static/foodstim60/cantaloupe.jpg', 'key': 'u', 'origWidth': 409, 'origHeight': 409, 'width': 409, 'height': 409, 'widthPercent': 0.45, 'rescaleHeight': False, 'trialN': 104, 'loaded': True, 'loadedTime': 2196.600000023842, 'positionName': 'LEFT', 'positionCoords': [205.4, 155.5], 'bid': 6.78}, {'imgObject': {}, 'id': 'corn cob', 'src': '/static/foodstim60/corn cob.jpg', 'key': 'i', 'origWidth': 411, 'origHeight': 411, 'width': 411, 'height': 411, 'widthPercent': 0.45, 'rescaleHeight': False, 'trialN': 104, 'loaded': True, 'loadedTime': 2236.800000011921, 'positionName': 'RIGHT', 'positionCoords': [665.6, 154.5], 'bid': 6.46}]",211874.0,1669830402453,cantaloupe,corn cob,6.78,6.46,-0.3200000000000003,cantaloupe,824,824,824.3000000119209,True,u,213215.39999997616,1341.3999999761581,1669830403794,1341,HRV,HRV_0005,2022-11-30 17:48:59
105,"[{'imgObject': {}, 'id': 'luckycharms', 'src': '/static/foodstim60/luckycharms.jpg', 'key': 'u', 'origWidth': 410, 'origHeight': 409, 'width': 410, 'height': 409, 'widthPercent': 0.45, 'rescaleHeight': False, 'trialN': 105, 'loaded': True, 'loadedTime': 2238.600000023842, 'positionName': 'LEFT', 'positionCoords': [204.4, 155.5], 'bid': 7.92}, {'imgObject': {}, 'id': 'sweetpotato', 'src': '/static/foodstim60/sweetpotato.jpg', 'key': 'i', 'origWidth': 410, 'origHeight': 410, 'width': 410, 'height': 410, 'widthPercent': 0.45, 'rescaleHeight': False, 'trialN': 105, 'loaded': True, 'loadedTime': 2262.199999988079, 'positionName': 'RIGHT', 'positionCoords': [665.6, 155], 'bid': 1.76}]",213215.69999998808,1669830403794,luckycharms,sweetpotato,7.92,1.76,-6.16,luckycharms,819.1999999880791,820,819.6000000238419,True,u,214542.60000002384,1326.9000000357628,1669830405121,1327,HRV,HRV_0005,2022-11-30 17:48:59
106,"[{'imgObject': {}, 'id': 'fruitsalad', 'src': '/static/foodstim60/fruitsalad.jpg', 'key': 'u', 'origWidth': 410, 'origHeight': 410, 'width': 410, 'height': 410, 'widthPercent': 0.45, 'rescaleHeight': False, 'trialN': 106, 'loaded': True, 'loadedTime': 2229, 'positionName': 'LEFT', 'positionCoords': [204.4, 155], 'bid': 8.26}, {'imgObject': {}, 'id': 'kiwi', 'src': '/static/foodstim60/kiwi.jpg', 'key': 'i', 'origWidth': 410, 'origHeight': 410, 'width': 410, 'height': 410, 'widthPercent': 0.45, 'rescaleHeight': False, 'trialN': 106, 'loaded': True, 'loadedTime': 2251.899999976158, 'positionName': 'RIGHT', 'positionCoords': [665.6, 155], 'bid': 8.68}]",214542.89999997616,1669830405121,fruitsalad,kiwi,8.26,8.68,0.41999999999999993,fruitsalad,1540.300000011921,1541,1540.6000000238419,True,u,216610.30000001192,2067.400000035763,1669830407189,2068,HRV,HRV_0005,2022-11-30 17:48:59
107,"[{'imgObject': {}, 'id': 'blackbeanswithrice', 'src': '/static/foodstim60/blackbeanswithrice.jpg', 'key': 'u', 'origWidth': 410, 'origHeight': 410, 'width': 410, 'height': 410, 'widthPercent': 0.45, 'rescaleHeight': False, 'trialN': 107, 'loaded': True, 'loadedTime': 2201.199999988079, 'positionName': 'LEFT', 'positionCoords': [204.4, 155], 'bid': 2.85}, {'imgObject': {}, 'id': 'raisin bran w milk', 'src': '/static/foodstim60/raisin bran w milk.jpg', 'key': 'i', 'origWidth': 411, 'origHeight': 411, 'width': 411, 'height': 411, 'widthPercent': 0.45, 'rescaleHeight': False, 'trialN': 107, 'loaded': True, 'loadedTime': 2233.399999976158, 'positionName': 'RIGHT', 'positionCoords': [665.6, 154.5], 'bid': 7.34}]",216610.5,1669830407189,blackbeanswithrice,raisin bran w milk,2.85,7.34,4.49,raisin bran w milk,856.5,857,856.6999999880791,True,i,217984.69999998808,1374.199999988079,1669830408563,1374,HRV,HRV_0005,2022-11-30 17:48:59
108,"[{'imgObject': {}, 'id': 'burger', 'src': '/static/foodstim60/burger.jpg', 'key': 'u', 'origWidth': 409, 'origHeight': 409, 'width': 409, 'height': 409, 'widthPercent': 0.45, 'rescaleHeight': False, 'trialN': 108, 'loaded': True, 'loadedTime': 2251.399999976158, 'positionName': 'LEFT', 'positionCoords': [205.4, 155.5], 'bid': 9.93}, {'imgObject': {}, 'id': 'blueberries', 'src': '/static/foodstim60/blueberries.jpg', 'key': 'i', 'origWidth': 411, 'origHeight': 411, 'width': 411, 'height': 411, 'widthPercent': 0.45, 'rescaleHeight': False, 'trialN': 108, 'loaded': True, 'loadedTime': 2237.899999976158, 'positionName': 'RIGHT', 'positionCoords': [665.6, 154.5], 'bid': 9.95}]",217985.0,1669830408564,burger,blueberries,9.93,9.95,0.019999999999999574,burger,1326,1326,1326.300000011921,True,u,219820.10000002384,1835.1000000238419,1669830410399,1835,HRV,HRV_0005,2022-11-30 17:48:59
