success,trial_type,trial_index,time_elapsed,internal_node_id,Block,TrialNumber,TrialTime,trialTimeDiff,FPS_avg,FPS_med,FPS_mode,TrialDur,winResizeTime,rt,block,button_pressed,MotCoh,MotDir,ColCoh,Color,ChoiceKey,Choice,Accuracy,RT,nFrames,FPS,PPD,missTrial,missTrialMsg,onsetDelay,fullScreenExitTime,canvCenter,TrialType,Score,BlockTrial,stimulus,button_labels,exp,subjectId,date
True,fullscreen,0,4471,0.0-0.0,0.0,1.0,,,,,,,,,,,,,,,,,,,,,,,,,,,,,,,,HRV,HRV_0005,2022-11-30 17:59:56
,wl-check-fps,1,9501,0.0-1.0,0.0,2.0,"[5305.8, 5314.6, 5331.4, 5348, 5365.2, 5384.2, 5417.2, 5434.4, 5449.9, 5466.7, 5483.6, 5499.7, 5516.6, 5533.5, 5550.5, 5567, 5584.6, 5600.7, 5617.7, 5634.5, 5649.9, 5667.8, 5682.6, 5701, 5716, 5733.6, 5751.3, 5767.7, 5783.8, 5800.8, 5817.9, 5833.9, 5849.3, 5865.9, 5883, 5899.3, 5916, 5932.8, 5949.6, 5966.2, 5982.5, 5999.2, 6016, 6032.6, 6049.4, 6066.3, 6082.5, 6099.3, 6115.8, 6132.6, 6149.5, 6165.9, 6182.7, 6199.5, 6215.8, 6232.5, 6249.3, 6265.9, 6283.2, 6300.1, 6317, 6333.4, 6350.6, 6367, 6383.4, 6400.8, 6416.7, 6433.8, 6449.9, 6467.1, 6483.1, 6499.6, 6516.6, 6533.9, 6550.4, 6567.3, 6584.4, 6599.7, 6616.4, 6632.5, 6650.4, 6666.1, 6684.4, 6700.3, 6716.7, 6733.2, 6750.6, 6767.2, 6783.6, 6799.5, 6816.2, 6833.5, 6850.1, 6866.1, 6882.8, 6899.2, 6915.8, 6932.4, 6949.8, 6967.6, 6983.6, 6998.9, 7016.1, 7032.7, 7049.2, 7065.9, 7083.9, 7100.4, 7115.9, 7133.2, 7149.7, 7167.4, 7183.3, 7199.4, 7215.8, 7232.9, 7250, 7265.7, 7283.1, 7299.4, 7315.8, 7333.1, 7350.8, 7366.8, 7382.7, 7401.5, 7417.6, 7433, 7449.8, 7466.7, 7482.4, 7499.3, 7516.3, 7532.8, 7550.3, 7567.3, 7583.2, 7599.5, 7616.2, 7632.8, 7650.3, 7667.5, 7684.3, 7699.6, 7717.5, 7733.3, 7751.2, 7767.2, 7784, 7799.4, 7815.9, 7833.9, 7849.1, 7867.4, 7884, 7899.4, 7917.2, 7933.9, 7950.9, 7967.2, 7984.1, 7999.1, 8016.6, 8033.4, 8050, 8066.9, 8084.1, 8099.4, 8115.6, 8132.6, 8150.5, 8167.3, 8182.8, 8200, 8217, 8233.4, 8250.6, 8266.8, 8283.1, 8300.3, 8317.3, 8333.9, 8348.9, 8366.3, 8382.7, 8400.1, 8417.3, 8434.1, 8450.9, 8466, 8483.3, 8498.9, 8516.3, 8533.8, 8550.1, 8567.1, 8583.7, 8599.4, 8616.6, 8633.2, 8649.9, 8666.2, 8682.3, 8699.6, 8716.9, 8733, 8749.2, 8766.6, 8783.4, 8798.9, 8816.6, 8832.9, 8849.1, 8867.1, 8883.9, 8899.5, 8916.6, 8932.4, 8950.3, 8966.7, 8983, 8999.7, 9015.8, 9032.8, 9049.8, 9065.4, 9082.6, 9099.7, 9115.8, 9132.9, 9151.1, 9166.1, 9182.7, 9199.5, 9216.2, 9233.9, 9249.6, 9265.6, 9283.9, 9300.9, 9316.8, 9333.1, 9348.9, 9367.2, 9383.7, 9399.1, 9417.7, 9434.3, 9449.6, 9466.5, 9482.8, 9499.6, 9516.9, 9532.1, 9551.1, 9566.2, 9582.3, 9599.5, 9616.5, 9649.6, 9667.3, 9683.3, 9699.4, 9716, 9733.4, 9750.3, 9767.5, 9783, 9799, 9815.9, 9833.5, 9850.4, 9866.9, 9883.5, 9899.9, 9916.1, 9933.4, 9949.4, 9965.9, 9982.1, 9999.1, 10016.6, 10032.6, 10049.4, 10067.2, 10083, 10099.5, 10115.9, 10132.6, 10149.9, 10166.9, 10183.6, 10198.7, 10215.6, 10232.6, 10248.7, 10266.8, 10283.3, 10300.4, 10316.4]","[0.7, 8.8, 16.8, 16.6, 17.2, 19, 33, 17.2, 15.5, 16.8, 16.9, 16.1, 16.9, 16.9, 17, 16.5, 17.6, 16.1, 17, 16.8, 15.4, 17.9, 14.8, 18.4, 15, 17.6, 17.7, 16.4, 16.1, 17, 17.1, 16, 15.4, 16.6, 17.1, 16.3, 16.7, 16.8, 16.8, 16.6, 16.3, 16.7, 16.8, 16.6, 16.8, 16.9, 16.2, 16.8, 16.5, 16.8, 16.9, 16.4, 16.8, 16.8, 16.3, 16.7, 16.8, 16.6, 17.3, 16.9, 16.9, 16.4, 17.2, 16.4, 16.4, 17.4, 15.9, 17.1, 16.1, 17.2, 16, 16.5, 17, 17.3, 16.5, 16.9, 17.1, 15.3, 16.7, 16.1, 17.9, 15.7, 18.3, 15.9, 16.4, 16.5, 17.4, 16.6, 16.4, 15.9, 16.7, 17.3, 16.6, 16, 16.7, 16.4, 16.6, 16.6, 17.4, 17.8, 16, 15.3, 17.2, 16.6, 16.5, 16.7, 18, 16.5, 15.5, 17.3, 16.5, 17.7, 15.9, 16.1, 16.4, 17.1, 17.1, 15.7, 17.4, 16.3, 16.4, 17.3, 17.7, 16, 15.9, 18.8, 16.1, 15.4, 16.8, 16.9, 15.7, 16.9, 17, 16.5, 17.5, 17, 15.9, 16.3, 16.7, 16.6, 17.5, 17.2, 16.8, 15.3, 17.9, 15.8, 17.9, 16, 16.8, 15.4, 16.5, 18, 15.2, 18.3, 16.6, 15.4, 17.8, 16.7, 17, 16.3, 16.9, 15, 17.5, 16.8, 16.6, 16.9, 17.2, 15.3, 16.2, 17, 17.9, 16.8, 15.5, 17.2, 17, 16.4, 17.2, 16.2, 16.3, 17.2, 17, 16.6, 15, 17.4, 16.4, 17.4, 17.2, 16.8, 16.8, 15.1, 17.3, 15.6, 17.4, 17.5, 16.3, 17, 16.6, 15.7, 17.2, 16.6, 16.7, 16.3, 16.1, 17.3, 17.3, 16.1, 16.2, 17.4, 16.8, 15.5, 17.7, 16.3, 16.2, 18, 16.8, 15.6, 17.1, 15.8, 17.9, 16.4, 16.3, 16.7, 16.1, 17, 17, 15.6, 17.2, 17.1, 16.1, 17.1, 18.2, 15, 16.6, 16.8, 16.7, 17.7, 15.7, 16, 18.3, 17, 15.9, 16.3, 15.8, 18.3, 16.5, 15.4, 18.6, 16.6, 15.3, 16.9, 16.3, 16.8, 17.3, 15.2, 19, 15.1, 16.1, 17.2, 17, 33.1, 17.7, 16, 16.1, 16.6, 17.4, 16.9, 17.2, 15.5, 16, 16.9, 17.6, 16.9, 16.5, 16.6, 16.4, 16.2, 17.3, 16, 16.5, 16.2, 17, 17.5, 16, 16.8, 17.8, 15.8, 16.5, 16.4, 16.7, 17.3, 17, 16.7, 15.1, 16.9, 17, 16.1, 18.1, 16.5, 17.1, 16]",60.0,63.0,60.0,5028.7,[],,,,,,,,,,,,,,,,,,,,,,,,,HRV,HRV_0005,2022-11-30 17:59:56
,wl-html-keyboard-response,2,28442,0.0-2.0-0.0,0.0,3.0,,,,,,,,16916.80000001192,0.0,0,,,,,,,,,,,,,,,,,,,,,,HRV,HRV_0005,2022-11-30 17:59:56
,wl-rdm,3,35527,0.0-3.0-0.0,0.0,4.0,,,,,,,[],,,,0.0,0.0,87.9,0.0,u,0.0,True,1527.0999999642372,92.0,60.0,40.0,False,,3000.0,[],"[640, 360]",ColorTask_Demo,,,,,HRV,HRV_0005,2022-11-30 17:59:56
,wl-rdm,4,40560,0.0-3.0-1.0,0.0,5.0,,,,,,,[],,,,0.0,0.0,87.9,1.0,i,1.0,True,935.3000000119209,57.0,60.0,40.0,False,,2000.0,[],"[640, 360]",ColorTask_Demo,,,,,HRV,HRV_0005,2022-11-30 17:59:56
,wl-html-keyboard-response,5,45966,0.0-3.0-2.0,0.0,6.0,,,,,,,,3402.400000035763,0.0,1,,,,,,,,,,,,,,,,,,,,,,HRV,HRV_0005,2022-11-30 17:59:56
,wl-html-keyboard-response,6,56102,0.0-4.0-0.0,0.0,7.0,,,,,,,,8126.300000011921,0.0,0,,,,,,,,,,,,,,,,,,,,,,HRV,HRV_0005,2022-11-30 17:59:56
,wl-html-keyboard-response,7,75254,0.0-5.0-0.0,0.0,8.0,,,,,,,,17148.5,0.0,0,,,,,,,,,,,,,,,,,,,,,,HRV,HRV_0005,2022-11-30 17:59:56
,wl-rdm,8,77422,0.0-6.0-0.0,0.0,9.0,,,,,,,[],,,,,,73.6,1.0,i,1.0,True,840.6000000238419,51.0,60.0,40.0,False,,250.63837658371773,[],"[640, 360]",ColorTask,1.0,1.0,,,HRV,HRV_0005,2022-11-30 17:59:56
,wl-rdm,9,79422,0.0-6.1-0.1,0.0,10.0,,,,,,,[],,,,,,87.9,1.0,i,1.0,True,725.7000000476837,44.0,60.0,40.0,False,,214.3640886918105,[],"[640, 360]",ColorTask,2.0,2.0,,,HRV,HRV_0005,2022-11-30 17:59:56
,wl-rdm,10,81688,0.0-6.2-0.2,0.0,11.0,,,,,,,[],,,,,,50.0,1.0,u,0.0,False,804.7999999523163,49.0,60.0,40.0,False,,371.4869419263574,[],"[640, 360]",ColorTask,1.0,3.0,,,HRV,HRV_0005,2022-11-30 17:59:56
,wl-rdm,11,83754,0.0-6.3-0.3,0.0,12.0,,,,,,,[],,,,,,56.4,1.0,i,1.0,True,705.1999999880791,43.0,60.0,40.0,False,,282.72623686268827,[],"[640, 360]",ColorTask,2.0,4.0,,,HRV,HRV_0005,2022-11-30 17:59:56
,wl-rdm,12,85988,0.0-6.4-0.4,0.0,13.0,,,,,,,[],,,,,,56.4,1.0,i,1.0,True,797.5,48.0,60.0,40.0,False,,378.8200241399673,[],"[640, 360]",ColorTask,3.0,5.0,,,HRV,HRV_0005,2022-11-30 17:59:56
,wl-rdm,13,88104,0.0-6.5-0.5,0.0,14.0,,,,,,,[],,,,,,87.9,0.0,u,0.0,True,846.8000000119209,51.0,60.0,40.0,False,,210.9557794173777,[],"[640, 360]",ColorTask,4.0,6.0,,,HRV,HRV_0005,2022-11-30 17:59:56
,wl-rdm,14,90271,0.0-6.6-0.6,0.0,15.0,,,,,,,[],,,,,,50.0,1.0,u,0.0,False,767.8000000119209,47.0,60.0,40.0,False,,333.24308369826673,[],"[640, 360]",ColorTask,3.0,7.0,,,HRV,HRV_0005,2022-11-30 17:59:56
,wl-rdm,15,92387,0.0-6.7-0.7,0.0,16.0,,,,,,,[],,,,,,87.9,1.0,i,1.0,True,700.6999999880791,43.0,60.0,40.0,False,,334.075957895386,[],"[640, 360]",ColorTask,4.0,8.0,,,HRV,HRV_0005,2022-11-30 17:59:56
,wl-rdm,16,94437,0.0-6.8-0.8,0.0,17.0,,,,,,,[],,,,,,56.4,1.0,i,1.0,True,636.5,39.0,60.0,40.0,False,,327.3931507654048,[],"[640, 360]",ColorTask,5.0,9.0,,,HRV,HRV_0005,2022-11-30 17:59:56
,wl-rdm,17,96386,0.0-6.9-0.9,0.0,18.0,,,,,,,[],,,,,,87.9,1.0,i,1.0,True,620.5,38.0,60.0,40.0,False,,260.59510428033855,[],"[640, 360]",ColorTask,6.0,10.0,,,HRV,HRV_0005,2022-11-30 17:59:56
,wl-rdm,18,98553,0.0-6.10-0.10,0.0,19.0,,,,,,,[],,,,,,53.2,0.0,i,1.0,False,720.9000000357628,44.0,60.0,40.0,False,,366.82590593169687,[],"[640, 360]",ColorTask,5.0,11.0,,,HRV,HRV_0005,2022-11-30 17:59:56
,wl-rdm,19,101002,0.0-6.11-0.11,0.0,20.0,,,,,,,[],,,,,,53.2,1.0,u,0.0,False,1124.300000011921,68.0,60.0,40.0,False,,253.31337682951974,[],"[640, 360]",ColorTask,4.0,12.0,,,HRV,HRV_0005,2022-11-30 17:59:56
,wl-rdm,20,103652,0.0-6.12-0.12,0.0,21.0,,,,,,,[],,,,,,53.2,1.0,i,1.0,True,1189.8999999761581,72.0,60.0,40.0,False,,393.320352289096,[],"[640, 360]",ColorTask,5.0,13.0,,,HRV,HRV_0005,2022-11-30 17:59:56
,wl-rdm,21,106235,0.0-6.13-0.13,0.0,22.0,,,,,,,[],,,,,,53.2,0.0,i,1.0,False,1234.2000000476837,75.0,60.0,40.0,False,,281.3789548001668,[],"[640, 360]",ColorTask,4.0,14.0,,,HRV,HRV_0005,2022-11-30 17:59:56
,wl-rdm,22,108452,0.0-6.14-0.14,0.0,23.0,,,,,,,[],,,,,,73.6,1.0,u,0.0,False,893.4000000357628,54.0,60.0,40.0,False,,251.29490878773598,[],"[640, 360]",ColorTask,3.0,15.0,,,HRV,HRV_0005,2022-11-30 17:59:56
,wl-rdm,23,110534,0.0-6.15-0.15,0.0,24.0,,,,,,,[],,,,,,73.6,0.0,i,1.0,False,770.1000000238419,47.0,60.0,40.0,False,,228.18329836156505,[],"[640, 360]",ColorTask,2.0,16.0,,,HRV,HRV_0005,2022-11-30 17:59:56
,wl-rdm,24,112551,0.0-6.16-0.16,0.0,25.0,,,,,,,[],,,,,,62.5,0.0,i,1.0,False,682.3000000119209,41.0,60.0,40.0,False,,279.64571220368083,[],"[640, 360]",ColorTask,1.0,17.0,,,HRV,HRV_0005,2022-11-30 17:59:56
,wl-rdm,25,115334,0.0-6.17-0.17,0.0,26.0,,,,,,,[],,,,,,50.0,0.0,i,1.0,False,1378.0999999642372,83.0,60.0,40.0,False,,344.17485687559815,[],"[640, 360]",ColorTask,0.0,18.0,,,HRV,HRV_0005,2022-11-30 17:59:56
,wl-rdm,26,117750,0.0-6.18-0.18,0.0,27.0,,,,,,,[],,,,,,56.4,0.0,u,0.0,True,1112.1000000238419,67.0,60.0,40.0,False,,248.63024744127745,[],"[640, 360]",ColorTask,1.0,19.0,,,HRV,HRV_0005,2022-11-30 17:59:56
,wl-rdm,27,119950,0.0-6.19-0.19,0.0,28.0,,,,,,,[],,,,,,62.5,0.0,u,0.0,True,921.2000000476837,56.0,60.0,40.0,False,,202.34757854923043,[],"[640, 360]",ColorTask,2.0,20.0,,,HRV,HRV_0005,2022-11-30 17:59:56
,wl-rdm,28,122249,0.0-6.20-0.20,0.0,29.0,,,,,,,[],,,,,,87.9,1.0,i,1.0,True,979.6999999880791,59.0,60.0,40.0,False,,237.3095323198071,[],"[640, 360]",ColorTask,3.0,21.0,,,HRV,HRV_0005,2022-11-30 17:59:56
,wl-rdm,29,126049,0.0-6.21-0.21,0.0,30.0,,,,,,,[],,,,,,53.2,1.0,i,1.0,True,2457.600000023842,148.0,60.0,40.0,False,,272.2411912202283,[],"[640, 360]",ColorTask,4.0,22.0,,,HRV,HRV_0005,2022-11-30 17:59:56
,wl-rdm,30,128932,0.0-6.22-0.22,0.0,31.0,,,,,,,[],,,,,,53.2,1.0,i,1.0,True,1594.199999988079,96.0,60.0,40.0,False,,224.20683497995105,[],"[640, 360]",ColorTask,5.0,23.0,,,HRV,HRV_0005,2022-11-30 17:59:56
,wl-rdm,31,131849,0.0-6.23-0.23,0.0,32.0,,,,,,,[],,,,,,73.6,0.0,u,0.0,True,1435.8999999761581,87.0,60.0,40.0,False,,399.0945747462623,[],"[640, 360]",ColorTask,6.0,24.0,,,HRV,HRV_0005,2022-11-30 17:59:56
,wl-rdm,32,134815,0.0-6.24-0.24,0.0,33.0,,,,,,,[],,,,,,56.4,1.0,i,1.0,True,1668.8999999165535,101.0,60.0,40.0,False,,209.61586345009002,[],"[640, 360]",ColorTask,7.0,25.0,,,HRV,HRV_0005,2022-11-30 17:59:56
,wl-rdm,33,138531,0.0-6.25-0.25,0.0,34.0,,,,,,,[],,,,,,62.5,1.0,i,1.0,True,2354.199999988079,142.0,60.0,40.0,False,,292.4981119872285,[],"[640, 360]",ColorTask,8.0,26.0,,,HRV,HRV_0005,2022-11-30 17:59:56
,wl-rdm,34,141181,0.0-6.26-0.26,0.0,35.0,,,,,,,[],,,,,,87.9,0.0,u,0.0,True,1350.8999999761581,82.0,60.0,40.0,False,,225.99859886674253,[],"[640, 360]",ColorTask,9.0,27.0,,,HRV,HRV_0005,2022-11-30 17:59:56
,wl-rdm,35,145213,0.0-6.27-0.27,0.0,36.0,,,,,,,[],,,,,,56.4,0.0,u,0.0,True,2687.099999964237,162.0,60.0,40.0,False,,272.9206814862943,[],"[640, 360]",ColorTask,10.0,28.0,,,HRV,HRV_0005,2022-11-30 17:59:56
,wl-rdm,36,148896,0.0-6.28-0.28,0.0,37.0,,,,,,,[],,,,,,53.2,0.0,u,0.0,True,2393.699999988079,144.0,60.0,40.0,False,,230.3126095167271,[],"[640, 360]",ColorTask,11.0,29.0,,,HRV,HRV_0005,2022-11-30 17:59:56
,wl-rdm,37,151896,0.0-6.29-0.29,0.0,38.0,,,,,,,[],,,,,,73.6,0.0,u,0.0,True,1702.199999988079,103.0,60.0,40.0,False,,218.43850082717978,[],"[640, 360]",ColorTask,12.0,30.0,,,HRV,HRV_0005,2022-11-30 17:59:56
,wl-rdm,38,154729,0.0-6.30-0.30,0.0,39.0,,,,,,,[],,,,,,73.6,0.0,u,0.0,True,1475.1999999284744,89.0,60.0,40.0,False,,298.8350290163533,[],"[640, 360]",ColorTask,13.0,31.0,,,HRV,HRV_0005,2022-11-30 17:59:56
,wl-rdm,39,158245,0.0-6.31-0.31,0.0,40.0,,,,,,,[],,,,,,56.4,0.0,u,0.0,True,2095.899999976158,126.0,60.0,40.0,False,,365.63453536316456,[],"[640, 360]",ColorTask,14.0,32.0,,,HRV,HRV_0005,2022-11-30 17:59:56
,wl-rdm,40,160945,0.0-6.32-0.32,0.0,41.0,,,,,,,[],,,,,,87.9,0.0,u,0.0,True,1355.6000000238419,82.0,60.0,40.0,False,,264.9600278758002,[],"[640, 360]",ColorTask,15.0,33.0,,,HRV,HRV_0005,2022-11-30 17:59:56
,wl-rdm,41,164078,0.0-6.33-0.33,0.0,42.0,,,,,,,[],,,,,,62.5,1.0,i,1.0,True,1727.9000000357628,104.0,60.0,40.0,False,,345.7171833289311,[],"[640, 360]",ColorTask,16.0,34.0,,,HRV,HRV_0005,2022-11-30 17:59:56
,wl-rdm,42,166411,0.0-6.34-0.34,0.0,43.0,,,,,,,[],,,,,,62.5,1.0,i,1.0,True,1045.699999988079,63.0,60.0,40.0,False,,219.53386837972323,[],"[640, 360]",ColorTask,17.0,35.0,,,HRV,HRV_0005,2022-11-30 17:59:56
,wl-rdm,43,169461,0.0-6.35-0.35,0.0,44.0,,,,,,,[],,,,,,53.2,1.0,i,1.0,True,1636.4000000357628,99.0,60.0,40.0,False,,340.89535189748676,[],"[640, 360]",ColorTask,18.0,36.0,,,HRV,HRV_0005,2022-11-30 17:59:56
,wl-rdm,44,172876,0.0-6.36-0.36,0.0,45.0,,,,,,,[],,,,,,53.2,0.0,u,0.0,True,2041.300000011921,123.0,60.0,40.0,False,,310.9631783815736,[],"[640, 360]",ColorTask,19.0,37.0,,,HRV,HRV_0005,2022-11-30 17:59:56
,wl-rdm,45,177059,0.0-6.37-0.37,0.0,46.0,,,,,,,[],,,,,,62.5,0.0,u,0.0,True,2820.2999999523163,170.0,60.0,40.0,False,,290.62798355948865,[],"[640, 360]",ColorTask,20.0,38.0,,,HRV,HRV_0005,2022-11-30 17:59:56
,wl-rdm,46,180976,0.0-6.38-0.38,0.0,47.0,,,,,,,[],,,,,,50.0,1.0,u,0.0,False,2579.6999999284744,155.0,60.0,40.0,False,,275.6190575073317,[],"[640, 360]",ColorTask,19.0,39.0,,,HRV,HRV_0005,2022-11-30 17:59:56
,wl-rdm,47,184108,0.0-6.39-0.39,0.0,48.0,,,,,,,[],,,,,,53.2,0.0,i,1.0,False,1717.6000000238419,104.0,60.0,40.0,False,,319.147224392146,[],"[640, 360]",ColorTask,18.0,40.0,,,HRV,HRV_0005,2022-11-30 17:59:56
,wl-rdm,48,187457,0.0-6.40-0.40,0.0,49.0,,,,,,,[],,,,,,53.2,1.0,u,0.0,False,2047.4000000357628,123.0,60.0,40.0,False,,233.51120061968504,[],"[640, 360]",ColorTask,17.0,41.0,,,HRV,HRV_0005,2022-11-30 17:59:56
,wl-rdm,49,191141,0.0-6.41-0.41,0.0,50.0,,,,,,,[],,,,,,56.4,0.0,u,0.0,True,2414.0,145.0,60.0,40.0,False,,204.04249302732353,[],"[640, 360]",ColorTask,18.0,42.0,,,HRV,HRV_0005,2022-11-30 17:59:56
,wl-rdm,50,195124,0.0-6.42-0.42,0.0,51.0,,,,,,,[],,,,,,56.4,0.0,i,1.0,False,2568.800000011921,155.0,60.0,40.0,False,,324.4825172819162,[],"[640, 360]",ColorTask,17.0,43.0,,,HRV,HRV_0005,2022-11-30 17:59:56
,wl-rdm,51,197390,0.0-6.43-0.43,0.0,52.0,,,,,,,[],,,,,,87.9,0.0,u,0.0,True,941.8000000119209,57.0,60.0,40.0,False,,263.61081710088433,[],"[640, 360]",ColorTask,18.0,44.0,,,HRV,HRV_0005,2022-11-30 17:59:56
,wl-rdm,52,200056,0.0-6.44-0.44,0.0,53.0,,,,,,,[],,,,,,62.5,1.0,i,1.0,True,1335.9000000357628,81.0,60.0,40.0,False,,245.09303094778772,[],"[640, 360]",ColorTask,19.0,45.0,,,HRV,HRV_0005,2022-11-30 17:59:56
,wl-rdm,53,203322,0.0-6.45-0.45,0.0,54.0,,,,,,,[],,,,,,50.0,1.0,i,1.0,True,1840.3000000715256,111.0,60.0,40.0,False,,357.6575056146503,[],"[640, 360]",ColorTask,20.0,46.0,,,HRV,HRV_0005,2022-11-30 17:59:56
,wl-rdm,54,205955,0.0-6.46-0.46,0.0,55.0,,,,,,,[],,,,,,73.6,1.0,i,1.0,True,1318.3999999761581,80.0,60.0,40.0,False,,246.67253138959725,[],"[640, 360]",ColorTask,21.0,47.0,,,HRV,HRV_0005,2022-11-30 17:59:56
,wl-rdm,55,209988,0.0-6.47-0.47,0.0,56.0,,,,,,,[],,,,,,56.4,1.0,i,1.0,True,2572.899999976158,155.0,60.0,40.0,False,,396.001252534448,[],"[640, 360]",ColorTask,22.0,48.0,,,HRV,HRV_0005,2022-11-30 17:59:56
,wl-rdm,56,212238,0.0-6.48-0.48,0.0,57.0,,,,,,,[],,,,,,87.9,0.0,u,0.0,True,923.1999999880791,56.0,60.0,40.0,False,,252.4993008920296,[],"[640, 360]",ColorTask,23.0,49.0,,,HRV,HRV_0005,2022-11-30 17:59:56
,wl-rdm,57,214455,0.0-6.49-0.49,0.0,58.0,,,,,,,[],,,,,,73.6,1.0,i,1.0,True,906.3000000119209,55.0,60.0,40.0,False,,217.59562515158552,[],"[640, 360]",ColorTask,24.0,50.0,,,HRV,HRV_0005,2022-11-30 17:59:56
,wl-rdm,58,216671,0.0-6.50-0.50,0.0,59.0,,,,,,,[],,,,,,87.9,0.0,u,0.0,True,932.3000000119209,56.0,60.0,40.0,False,,223.59105068480028,[],"[640, 360]",ColorTask,25.0,51.0,,,HRV,HRV_0005,2022-11-30 17:59:56
,wl-rdm,59,219704,0.0-6.51-0.51,0.0,60.0,,,,,,,[],,,,,,56.4,1.0,i,1.0,True,1730.800000011921,104.0,60.0,40.0,False,,244.38116832150791,[],"[640, 360]",ColorTask,26.0,52.0,,,HRV,HRV_0005,2022-11-30 17:59:56
,wl-rdm,60,222219,0.0-6.52-0.52,0.0,61.0,,,,,,,[],,,,,,50.0,0.0,i,1.0,False,1202.699999988079,73.0,60.0,40.0,False,,225.11916667128966,[],"[640, 360]",ColorTask,25.0,53.0,,,HRV,HRV_0005,2022-11-30 17:59:56
,wl-rdm,61,225853,0.0-6.53-0.53,0.0,62.0,,,,,,,[],,,,,,62.5,0.0,u,0.0,True,2216.300000011921,134.0,60.0,40.0,False,,339.9943996596038,[],"[640, 360]",ColorTask,26.0,54.0,,,HRV,HRV_0005,2022-11-30 17:59:56
,wl-rdm,62,228386,0.0-6.54-0.54,0.0,63.0,,,,,,,[],,,,,,87.9,0.0,u,0.0,True,1142.5,69.0,60.0,40.0,False,,326.9837877587853,[],"[640, 360]",ColorTask,27.0,55.0,,,HRV,HRV_0005,2022-11-30 17:59:56
,wl-rdm,63,231269,0.0-6.55-0.55,0.0,64.0,,,,,,,[],,,,,,56.4,0.0,u,0.0,True,1443.8999999761581,87.0,60.0,40.0,False,,356.95901112112455,[],"[640, 360]",ColorTask,28.0,56.0,,,HRV,HRV_0005,2022-11-30 17:59:56
,wl-rdm,64,233418,0.0-6.56-0.56,0.0,65.0,,,,,,,[],,,,,,87.9,1.0,i,1.0,True,743.0,45.0,60.0,40.0,False,,323.5021145004466,[],"[640, 360]",ColorTask,29.0,57.0,,,HRV,HRV_0005,2022-11-30 17:59:56
,wl-rdm,65,235652,0.0-6.57-0.57,0.0,66.0,,,,,,,[],,,,,,87.9,1.0,i,1.0,True,785.3999999761581,48.0,60.0,40.0,False,,357.02211433037917,[],"[640, 360]",ColorTask,30.0,58.0,,,HRV,HRV_0005,2022-11-30 17:59:56
,wl-rdm,66,240101,0.0-6.58-0.58,0.0,66.0,,,,,,,[],,,,,,50.0,1.0,,,,,179.0,60.0,40.0,True,RT_timeout ,349.6801344713946,[],"[640, 360]",ColorTask,29.0,59.0,,,HRV,HRV_0005,2022-11-30 17:59:56
,wl-rdm,67,242967,0.0-6.59-0.59,0.0,67.0,,,,,,,[],,,,,,56.4,1.0,u,0.0,False,1495.300000011921,90.0,60.0,40.0,False,,298.9011669138573,[],"[640, 360]",ColorTask,28.0,60.0,,,HRV,HRV_0005,2022-11-30 17:59:56
,wl-rdm,68,245400,0.0-6.60-0.60,0.0,68.0,,,,,,,[],,,,,,53.2,0.0,u,0.0,True,1123.9000000357628,68.0,60.0,40.0,False,,240.31903004229173,[],"[640, 360]",ColorTask,29.0,61.0,,,HRV,HRV_0005,2022-11-30 17:59:56
,wl-rdm,69,247400,0.0-6.61-0.61,0.0,69.0,,,,,,,[],,,,,,50.0,0.0,u,0.0,True,696.0,42.0,60.0,40.0,False,,234.75496256636603,[],"[640, 360]",ColorTask,30.0,62.0,,,HRV,HRV_0005,2022-11-30 17:59:56
,wl-rdm,70,249650,0.0-6.62-0.62,0.0,70.0,,,,,,,[],,,,,,56.4,1.0,i,1.0,True,908.6999999880791,55.0,60.0,40.0,False,,269.9654071493826,[],"[640, 360]",ColorTask,31.0,63.0,,,HRV,HRV_0005,2022-11-30 17:59:56
,wl-rdm,71,252066,0.0-6.63-0.63,0.0,71.0,,,,,,,[],,,,,,56.4,0.0,u,0.0,True,1072.2999999523163,65.0,60.0,40.0,False,,264.4630788888771,[],"[640, 360]",ColorTask,32.0,64.0,,,HRV,HRV_0005,2022-11-30 17:59:56
,wl-rdm,72,254599,0.0-6.64-0.64,0.0,72.0,,,,,,,[],,,,,,50.0,1.0,i,1.0,True,1157.199999988079,70.0,60.0,40.0,False,,284.44724914174645,[],"[640, 360]",ColorTask,33.0,65.0,,,HRV,HRV_0005,2022-11-30 17:59:56
,wl-rdm,73,256899,0.0-6.65-0.65,0.0,73.0,,,,,,,[],,,,,,56.4,0.0,i,1.0,False,958.6999999284744,58.0,60.0,40.0,False,,277.1732261237141,[],"[640, 360]",ColorTask,32.0,66.0,,,HRV,HRV_0005,2022-11-30 17:59:56
,wl-rdm,74,259282,0.0-6.66-0.66,0.0,74.0,,,,,,,[],,,,,,73.6,0.0,u,0.0,True,935.1999999880791,57.0,60.0,40.0,False,,359.5506738752531,[],"[640, 360]",ColorTask,33.0,67.0,,,HRV,HRV_0005,2022-11-30 17:59:56
,wl-rdm,75,261415,0.0-6.67-0.67,0.0,75.0,,,,,,,[],,,,,,87.9,1.0,i,1.0,True,776.2000000476837,47.0,60.0,40.0,False,,297.69372595819385,[],"[640, 360]",ColorTask,34.0,68.0,,,HRV,HRV_0005,2022-11-30 17:59:56
,wl-rdm,76,263648,0.0-6.68-0.68,0.0,76.0,,,,,,,[],,,,,,62.5,0.0,u,0.0,True,898.1000000238419,54.0,60.0,40.0,False,,266.35615643267136,[],"[640, 360]",ColorTask,35.0,69.0,,,HRV,HRV_0005,2022-11-30 17:59:56
,wl-rdm,77,265764,0.0-6.69-0.69,0.0,77.0,,,,,,,[],,,,,,53.2,0.0,u,0.0,True,849.1999999880791,51.0,60.0,40.0,False,,206.793076196837,[],"[640, 360]",ColorTask,36.0,70.0,,,HRV,HRV_0005,2022-11-30 17:59:56
,wl-rdm,78,268147,0.0-6.70-0.70,0.0,78.0,,,,,,,[],,,,,,56.4,1.0,i,1.0,True,1083.4000000357628,66.0,60.0,40.0,False,,215.9371204125661,[],"[640, 360]",ColorTask,37.0,71.0,,,HRV,HRV_0005,2022-11-30 17:59:56
,wl-rdm,79,270231,0.0-6.71-0.71,0.0,79.0,,,,,,,[],,,,,,73.6,1.0,i,1.0,True,733.0,44.0,60.0,40.0,False,,276.7760686826599,[],"[640, 360]",ColorTask,38.0,72.0,,,HRV,HRV_0005,2022-11-30 17:59:56
,wl-rdm,80,272680,0.0-6.72-0.72,0.0,80.0,,,,,,,[],,,,,,50.0,1.0,u,0.0,False,1065.0,64.0,60.0,40.0,False,,318.16244950700286,[],"[640, 360]",ColorTask,37.0,73.0,,,HRV,HRV_0005,2022-11-30 17:59:56
,wl-rdm,81,274980,0.0-6.73-0.73,0.0,81.0,,,,,,,[],,,,,,73.6,0.0,u,0.0,True,1024.6000000238419,62.0,60.0,40.0,False,,203.7793103083925,[],"[640, 360]",ColorTask,38.0,74.0,,,HRV,HRV_0005,2022-11-30 17:59:56
,wl-rdm,82,277096,0.0-6.74-0.74,0.0,82.0,,,,,,,[],,,,,,62.5,0.0,u,0.0,True,803.7000000476837,49.0,60.0,40.0,False,,233.45110265283338,[],"[640, 360]",ColorTask,39.0,75.0,,,HRV,HRV_0005,2022-11-30 17:59:56
,wl-rdm,83,279996,0.0-6.75-0.75,0.0,83.0,,,,,,,[],,,,,,53.2,1.0,i,1.0,True,1450.5,88.0,60.0,40.0,False,,351.786176031022,[],"[640, 360]",ColorTask,40.0,76.0,,,HRV,HRV_0005,2022-11-30 17:59:56
,wl-rdm,84,282345,0.0-6.76-0.76,0.0,84.0,,,,,,,[],,,,,,87.9,1.0,i,1.0,True,905.5,55.0,60.0,40.0,False,,351.30469733166467,[],"[640, 360]",ColorTask,41.0,77.0,,,HRV,HRV_0005,2022-11-30 17:59:56
,wl-rdm,85,284696,0.0-6.77-0.77,0.0,85.0,,,,,,,[],,,,,,53.2,1.0,i,1.0,True,1060.0999999642372,64.0,60.0,40.0,False,,226.6782225539088,[],"[640, 360]",ColorTask,42.0,78.0,,,HRV,HRV_0005,2022-11-30 17:59:56
,wl-rdm,86,286895,0.0-6.78-0.78,0.0,86.0,,,,,,,[],,,,,,73.6,1.0,i,1.0,True,899.1999999880791,54.0,60.0,40.0,False,,248.29316255348346,[],"[640, 360]",ColorTask,43.0,79.0,,,HRV,HRV_0005,2022-11-30 17:59:56
,wl-rdm,87,289111,0.0-6.79-0.79,0.0,87.0,,,,,,,[],,,,,,50.0,0.0,u,0.0,True,946.5999999642372,57.0,60.0,40.0,False,,216.12524629425207,[],"[640, 360]",ColorTask,44.0,80.0,,,HRV,HRV_0005,2022-11-30 17:59:56
,wl-rdm,88,291312,0.0-6.80-0.80,0.0,88.0,,,,,,,[],,,,,,87.9,0.0,u,0.0,True,825.4000000357628,50.0,60.0,40.0,False,,290.19602591109884,[],"[640, 360]",ColorTask,45.0,81.0,,,HRV,HRV_0005,2022-11-30 17:59:56
,wl-rdm,89,293760,0.0-6.81-0.81,0.0,89.0,,,,,,,[],,,,,,50.0,0.0,u,0.0,True,1119.4000000357628,68.0,60.0,40.0,False,,263.184721204789,[],"[640, 360]",ColorTask,46.0,82.0,,,HRV,HRV_0005,2022-11-30 17:59:56
,wl-rdm,90,295961,0.0-6.82-0.82,0.0,90.0,,,,,,,[],,,,,,62.5,1.0,i,1.0,True,855.8000000119209,52.0,60.0,40.0,False,,261.93509996720707,[],"[640, 360]",ColorTask,47.0,83.0,,,HRV,HRV_0005,2022-11-30 17:59:56
,wl-rdm,91,297960,0.0-6.83-0.83,0.0,91.0,,,,,,,[],,,,,,87.9,1.0,i,1.0,True,686.8000000119209,42.0,60.0,40.0,False,,246.28696099948854,[],"[640, 360]",ColorTask,48.0,84.0,,,HRV,HRV_0005,2022-11-30 17:59:56
,wl-rdm,92,300259,0.0-6.84-0.84,0.0,92.0,,,,,,,[],,,,,,50.0,1.0,u,0.0,False,887.3999999761581,54.0,60.0,40.0,False,,317.37177029880894,[],"[640, 360]",ColorTask,47.0,85.0,,,HRV,HRV_0005,2022-11-30 17:59:56
,wl-rdm,93,302893,0.0-6.85-0.85,0.0,93.0,,,,,,,[],,,,,,62.5,1.0,u,0.0,False,1250.1000000238419,76.0,60.0,40.0,False,,298.91933201285235,[],"[640, 360]",ColorTask,46.0,86.0,,,HRV,HRV_0005,2022-11-30 17:59:56
,wl-rdm,94,305343,0.0-6.86-0.86,0.0,94.0,,,,,,,[],,,,,,53.2,0.0,u,0.0,True,1039.3999999761581,63.0,60.0,40.0,False,,348.97143309672697,[],"[640, 360]",ColorTask,47.0,87.0,,,HRV,HRV_0005,2022-11-30 17:59:56
,wl-rdm,95,308008,0.0-6.87-0.87,0.0,95.0,,,,,,,[],,,,,,62.5,0.0,u,0.0,True,1336.300000011921,81.0,60.0,40.0,False,,235.69800909658983,[],"[640, 360]",ColorTask,48.0,88.0,,,HRV,HRV_0005,2022-11-30 17:59:56
,wl-rdm,96,310341,0.0-6.88-0.88,0.0,96.0,,,,,,,[],,,,,,50.0,0.0,i,1.0,False,1012.6000000238419,61.0,60.0,40.0,False,,261.10525508613,[],"[640, 360]",ColorTask,47.0,89.0,,,HRV,HRV_0005,2022-11-30 17:59:56
,wl-rdm,97,312941,0.0-6.89-0.89,0.0,97.0,,,,,,,[],,,,,,73.6,0.0,u,0.0,True,1303.9000000357628,79.0,60.0,40.0,False,,219.66216410045897,[],"[640, 360]",ColorTask,48.0,90.0,,,HRV,HRV_0005,2022-11-30 17:59:56
,wl-rdm,98,315374,0.0-6.90-0.90,0.0,98.0,,,,,,,[],,,,,,62.5,0.0,u,0.0,True,1066.3999999761581,64.0,60.0,40.0,False,,309.5667473170086,[],"[640, 360]",ColorTask,49.0,91.0,,,HRV,HRV_0005,2022-11-30 17:59:56
,wl-rdm,99,317740,0.0-6.91-0.91,0.0,99.0,,,,,,,[],,,,,,50.0,1.0,i,1.0,True,1052.199999988079,64.0,60.0,40.0,False,,217.58365871210253,[],"[640, 360]",ColorTask,50.0,92.0,,,HRV,HRV_0005,2022-11-30 17:59:56
,wl-rdm,100,319857,0.0-6.92-0.92,0.0,100.0,,,,,,,[],,,,,,62.5,1.0,i,1.0,True,731.0,44.0,60.0,40.0,False,,330.06469223591927,[],"[640, 360]",ColorTask,51.0,93.0,,,HRV,HRV_0005,2022-11-30 17:59:56
,wl-rdm,101,322057,0.0-6.93-0.93,0.0,101.0,,,,,,,[],,,,,,50.0,1.0,i,1.0,True,817.3000000119209,50.0,60.0,40.0,False,,301.6273906694711,[],"[640, 360]",ColorTask,52.0,94.0,,,HRV,HRV_0005,2022-11-30 17:59:56
,wl-rdm,102,324340,0.0-6.94-0.94,0.0,102.0,,,,,,,[],,,,,,73.6,0.0,u,0.0,True,861.7999999523163,52.0,60.0,40.0,False,,360.67225960791154,[],"[640, 360]",ColorTask,53.0,95.0,,,HRV,HRV_0005,2022-11-30 17:59:56
,wl-rdm,103,326906,0.0-6.95-0.95,0.0,103.0,,,,,,,[],,,,,,50.0,0.0,i,1.0,False,1105.1000000238419,67.0,60.0,40.0,False,,387.35726091569245,[],"[640, 360]",ColorTask,52.0,96.0,,,HRV,HRV_0005,2022-11-30 17:59:56
,wl-rdm,104,328789,0.0-6.96-0.96,0.0,104.0,,,,,,,[],,,,,,62.5,1.0,u,0.0,False,597.5999999642372,36.0,60.0,40.0,False,,225.8887486613064,[],"[640, 360]",ColorTask,51.0,97.0,,,HRV,HRV_0005,2022-11-30 17:59:56
,wl-rdm,105,331455,0.0-6.97-0.97,0.0,105.0,,,,,,,[],,,,,,73.6,1.0,i,1.0,True,1222.6000000238419,74.0,60.0,40.0,False,,374.4266971991376,[],"[640, 360]",ColorTask,52.0,98.0,,,HRV,HRV_0005,2022-11-30 17:59:56
,wl-rdm,106,334088,0.0-6.98-0.98,0.0,106.0,,,,,,,[],,,,,,87.9,0.0,u,0.0,True,1213.2999999523163,73.0,60.0,40.0,False,,351.7926910958147,[],"[640, 360]",ColorTask,53.0,99.0,,,HRV,HRV_0005,2022-11-30 17:59:56
,wl-rdm,107,336838,0.0-6.99-0.99,0.0,107.0,,,,,,,[],,,,,,62.5,0.0,u,0.0,True,1447.800000011921,87.0,60.0,40.0,False,,247.55928403100893,[],"[640, 360]",ColorTask,54.0,100.0,,,HRV,HRV_0005,2022-11-30 17:59:56
,wl-rdm,108,339438,0.0-6.100-0.100,0.0,108.0,,,,,,,[],,,,,,56.4,0.0,i,1.0,False,1267.7999999523163,77.0,60.0,40.0,False,,260.24771613499513,[],"[640, 360]",ColorTask,53.0,101.0,,,HRV,HRV_0005,2022-11-30 17:59:56
,wl-rdm,109,341621,0.0-6.101-0.101,0.0,109.0,,,,,,,[],,,,,,73.6,1.0,i,1.0,True,850.5,52.0,60.0,40.0,False,,259.8530035963902,[],"[640, 360]",ColorTask,54.0,102.0,,,HRV,HRV_0005,2022-11-30 17:59:56
,wl-rdm,110,345120,0.0-6.102-0.102,0.0,110.0,,,,,,,[],,,,,,62.5,1.0,u,0.0,False,2071.2999999523163,125.0,60.0,40.0,False,,349.0963551951447,[],"[640, 360]",ColorTask,53.0,103.0,,,HRV,HRV_0005,2022-11-30 17:59:56
,wl-rdm,111,347437,0.0-6.103-0.103,0.0,111.0,,,,,,,[],,,,,,50.0,0.0,u,0.0,True,967.7000000476837,59.0,60.0,40.0,False,,259.27336851951713,[],"[640, 360]",ColorTask,54.0,104.0,,,HRV,HRV_0005,2022-11-30 17:59:56
,wl-rdm,112,350053,0.0-6.104-0.104,0.0,112.0,,,,,,,[],,,,,,53.2,1.0,i,1.0,True,1182.800000011921,71.0,60.0,40.0,False,,362.84645007447943,[],"[640, 360]",ColorTask,55.0,105.0,,,HRV,HRV_0005,2022-11-30 17:59:56
,wl-rdm,113,352186,0.0-6.105-0.105,0.0,113.0,,,,,,,[],,,,,,73.6,1.0,i,1.0,True,696.3000000715256,42.0,60.0,40.0,False,,368.8411445173259,[],"[640, 360]",ColorTask,56.0,106.0,,,HRV,HRV_0005,2022-11-30 17:59:56
,wl-rdm,114,354419,0.0-6.106-0.106,0.0,114.0,,,,,,,[],,,,,,53.2,0.0,i,1.0,False,767.6999999880791,47.0,60.0,40.0,False,,367.89017909119787,[],"[640, 360]",ColorTask,55.0,107.0,,,HRV,HRV_0005,2022-11-30 17:59:56
,wl-rdm,115,357135,0.0-6.107-0.107,0.0,115.0,,,,,,,[],,,,,,50.0,0.0,u,0.0,True,1302.2000000476837,79.0,60.0,40.0,False,,325.78326854206153,[],"[640, 360]",ColorTask,56.0,108.0,,,HRV,HRV_0005,2022-11-30 17:59:56
,wl-rdm,116,359652,0.0-6.108-0.108,0.0,116.0,,,,,,,[],,,,,,73.6,0.0,u,0.0,True,1172.3999999761581,71.0,60.0,40.0,False,,250.23073565993434,[],"[640, 360]",ColorTask,57.0,109.0,,,HRV,HRV_0005,2022-11-30 17:59:56
,wl-html-keyboard-response,117,399183,0.0-7.0-0.0,1.0,117.0,,,,,,,,37523.200000047684,1.0,0,,,,,,,,,,,,,,,,,,,,,,HRV,HRV_0005,2022-11-30 17:59:56
,wl-rdm,118,401396,0.0-8.0-0.0,1.0,118.0,,,,,,,[],,,,,,62.5,1.0,i,1.0,True,764.0999999642372,46.0,60.0,40.0,False,,369.7800857893968,[],"[640, 360]",ColorTask,58.0,1.0,,,HRV,HRV_0005,2022-11-30 17:59:56
,wl-rdm,119,403496,0.0-8.1-0.1,1.0,119.0,,,,,,,[],,,,,,87.9,1.0,i,1.0,True,655.8000000119209,40.0,60.0,40.0,False,,359.6685290444866,[],"[640, 360]",ColorTask,59.0,2.0,,,HRV,HRV_0005,2022-11-30 17:59:56
,wl-rdm,120,405796,0.0-8.2-0.2,1.0,120.0,,,,,,,[],,,,,,50.0,0.0,u,0.0,True,961.0,58.0,60.0,40.0,False,,269.6440163377608,[],"[640, 360]",ColorTask,60.0,3.0,,,HRV,HRV_0005,2022-11-30 17:59:56
,wl-rdm,121,407929,0.0-8.3-0.3,1.0,121.0,,,,,,,[],,,,,,62.5,0.0,u,0.0,True,813.0999999642372,49.0,60.0,40.0,False,,265.4408804628253,[],"[640, 360]",ColorTask,61.0,4.0,,,HRV,HRV_0005,2022-11-30 17:59:56
,wl-rdm,122,410012,0.0-8.4-0.4,1.0,122.0,,,,,,,[],,,,,,73.6,1.0,i,1.0,True,743.6999999880791,45.0,60.0,40.0,False,,272.2960396008399,[],"[640, 360]",ColorTask,62.0,5.0,,,HRV,HRV_0005,2022-11-30 17:59:56
,wl-rdm,123,412595,0.0-8.5-0.5,1.0,123.0,,,,,,,[],,,,,,50.0,0.0,u,0.0,True,1186.300000011921,72.0,60.0,40.0,False,,300.5256025186091,[],"[640, 360]",ColorTask,63.0,6.0,,,HRV,HRV_0005,2022-11-30 17:59:56
,wl-rdm,124,414894,0.0-8.6-0.6,1.0,124.0,,,,,,,[],,,,,,73.6,0.0,u,0.0,True,1001.1999999880791,61.0,60.0,40.0,False,,211.7638554088601,[],"[640, 360]",ColorTask,64.0,7.0,,,HRV,HRV_0005,2022-11-30 17:59:56
,wl-rdm,125,417078,0.0-8.7-0.7,1.0,125.0,,,,,,,[],,,,,,56.4,0.0,u,0.0,True,880.9000000357628,53.0,60.0,40.0,False,,247.2923309353359,[],"[640, 360]",ColorTask,65.0,8.0,,,HRV,HRV_0005,2022-11-30 17:59:56
,wl-rdm,126,419561,0.0-8.8-0.8,1.0,126.0,,,,,,,[],,,,,,50.0,1.0,i,1.0,True,1018.8999999761581,62.0,60.0,40.0,False,,367.3928101555596,[],"[640, 360]",ColorTask,66.0,9.0,,,HRV,HRV_0005,2022-11-30 17:59:56
,wl-rdm,127,421844,0.0-8.9-0.9,1.0,127.0,,,,,,,[],,,,,,73.6,0.0,u,0.0,True,850.9000000357628,52.0,60.0,40.0,False,,354.86695969654556,[],"[640, 360]",ColorTask,67.0,10.0,,,HRV,HRV_0005,2022-11-30 17:59:56
,wl-rdm,128,423944,0.0-8.10-0.10,1.0,128.0,,,,,,,[],,,,,,73.6,0.0,u,0.0,True,740.1999999880791,45.0,60.0,40.0,False,,291.05362976523696,[],"[640, 360]",ColorTask,68.0,11.0,,,HRV,HRV_0005,2022-11-30 17:59:56
,wl-rdm,129,426210,0.0-8.11-0.11,1.0,129.0,,,,,,,[],,,,,,56.4,1.0,u,0.0,False,989.0,60.0,60.0,40.0,False,,213.2979240225029,[],"[640, 360]",ColorTask,67.0,12.0,,,HRV,HRV_0005,2022-11-30 17:59:56
,wl-rdm,130,428576,0.0-8.12-0.12,1.0,130.0,,,,,,,[],,,,,,50.0,1.0,i,1.0,True,936.3999999165535,57.0,60.0,40.0,False,,361.46217961165496,[],"[640, 360]",ColorTask,68.0,13.0,,,HRV,HRV_0005,2022-11-30 17:59:56
,wl-rdm,131,430559,0.0-8.13-0.13,1.0,131.0,,,,,,,[],,,,,,62.5,1.0,i,1.0,True,714.0,43.0,60.0,40.0,False,,202.28122564435978,[],"[640, 360]",ColorTask,69.0,14.0,,,HRV,HRV_0005,2022-11-30 17:59:56
,wl-rdm,132,432792,0.0-8.14-0.14,1.0,132.0,,,,,,,[],,,,,,87.9,0.0,u,0.0,True,803.4000000357628,49.0,60.0,40.0,False,,338.309997969355,[],"[640, 360]",ColorTask,70.0,15.0,,,HRV,HRV_0005,2022-11-30 17:59:56
,wl-rdm,133,434974,0.0-8.15-0.15,1.0,133.0,,,,,,,[],,,,,,73.6,1.0,i,1.0,True,808.3999999761581,49.0,60.0,40.0,False,,313.93948934533074,[],"[640, 360]",ColorTask,71.0,16.0,,,HRV,HRV_0005,2022-11-30 17:59:56
,wl-rdm,134,437558,0.0-8.16-0.16,1.0,134.0,,,,,,,[],,,,,,53.2,1.0,i,1.0,True,1310.5,79.0,60.0,40.0,False,,203.63138634220243,[],"[640, 360]",ColorTask,72.0,17.0,,,HRV,HRV_0005,2022-11-30 17:59:56
,wl-rdm,135,439775,0.0-8.17-0.17,1.0,135.0,,,,,,,[],,,,,,50.0,0.0,u,0.0,True,913.0,55.0,60.0,40.0,False,,236.14568938038533,[],"[640, 360]",ColorTask,73.0,18.0,,,HRV,HRV_0005,2022-11-30 17:59:56
,wl-rdm,136,442191,0.0-8.18-0.18,1.0,136.0,,,,,,,[],,,,,,53.2,0.0,i,1.0,False,984.5,60.0,60.0,40.0,False,,335.748692364185,[],"[640, 360]",ColorTask,72.0,19.0,,,HRV,HRV_0005,2022-11-30 17:59:56
,wl-rdm,137,444590,0.0-8.19-0.19,1.0,137.0,,,,,,,[],,,,,,56.4,0.0,i,1.0,False,1059.199999988079,64.0,60.0,40.0,False,,259.6558214488062,[],"[640, 360]",ColorTask,71.0,20.0,,,HRV,HRV_0005,2022-11-30 17:59:56
,wl-rdm,138,446590,0.0-8.20-0.20,1.0,138.0,,,,,,,[],,,,,,87.9,0.0,u,0.0,True,642.0,39.0,60.0,40.0,False,,299.7542763500933,[],"[640, 360]",ColorTask,72.0,21.0,,,HRV,HRV_0005,2022-11-30 17:59:56
,wl-rdm,139,448773,0.0-8.21-0.21,1.0,139.0,,,,,,,[],,,,,,53.2,1.0,i,1.0,True,785.8000000119209,48.0,60.0,40.0,False,,321.81015183618655,[],"[640, 360]",ColorTask,73.0,22.0,,,HRV,HRV_0005,2022-11-30 17:59:56
,wl-rdm,140,451039,0.0-8.22-0.22,1.0,140.0,,,,,,,[],,,,,,56.4,1.0,i,1.0,True,980.4000000357628,59.0,60.0,40.0,False,,218.6432057861299,[],"[640, 360]",ColorTask,74.0,23.0,,,HRV,HRV_0005,2022-11-30 17:59:56
,wl-rdm,141,453173,0.0-8.23-0.23,1.0,141.0,,,,,,,[],,,,,,56.4,1.0,i,1.0,True,863.9000000357628,52.0,60.0,40.0,False,,202.344195125031,[],"[640, 360]",ColorTask,75.0,24.0,,,HRV,HRV_0005,2022-11-30 17:59:56
,wl-rdm,142,455872,0.0-8.24-0.24,1.0,142.0,,,,,,,[],,,,,,62.5,0.0,u,0.0,True,1373.7999999523163,83.0,60.0,40.0,False,,233.6377829700696,[],"[640, 360]",ColorTask,76.0,25.0,,,HRV,HRV_0005,2022-11-30 17:59:56
,wl-rdm,143,458455,0.0-8.25-0.25,1.0,143.0,,,,,,,[],,,,,,56.4,1.0,i,1.0,True,1283.4000000357628,78.0,60.0,40.0,False,,224.21323801868556,[],"[640, 360]",ColorTask,77.0,26.0,,,HRV,HRV_0005,2022-11-30 17:59:56
,wl-rdm,144,460422,0.0-8.26-0.26,1.0,144.0,,,,,,,[],,,,,,73.6,1.0,i,1.0,True,675.7000000476837,41.0,60.0,40.0,False,,200.48062035775476,[],"[640, 360]",ColorTask,78.0,27.0,,,HRV,HRV_0005,2022-11-30 17:59:56
,wl-rdm,145,462788,0.0-8.27-0.27,1.0,145.0,,,,,,,[],,,,,,53.2,0.0,i,1.0,False,1080.3999999761581,65.0,60.0,40.0,False,,204.3701458929873,[],"[640, 360]",ColorTask,77.0,28.0,,,HRV,HRV_0005,2022-11-30 17:59:56
,wl-rdm,146,464904,0.0-8.28-0.28,1.0,146.0,,,,,,,[],,,,,,87.9,1.0,i,1.0,True,804.8000000119209,49.0,60.0,40.0,False,,245.69009724489752,[],"[640, 360]",ColorTask,78.0,29.0,,,HRV,HRV_0005,2022-11-30 17:59:56
,wl-rdm,147,467471,0.0-8.29-0.29,1.0,147.0,,,,,,,[],,,,,,56.4,1.0,i,1.0,True,1119.6000000238419,68.0,60.0,40.0,False,,380.79687172869427,[],"[640, 360]",ColorTask,79.0,30.0,,,HRV,HRV_0005,2022-11-30 17:59:56
,wl-rdm,148,469954,0.0-8.30-0.30,1.0,148.0,,,,,,,[],,,,,,56.4,1.0,i,1.0,True,1161.199999988079,70.0,60.0,40.0,False,,265.1853125340004,[],"[640, 360]",ColorTask,80.0,31.0,,,HRV,HRV_0005,2022-11-30 17:59:56
,wl-rdm,149,471970,0.0-8.31-0.31,1.0,149.0,,,,,,,[],,,,,,56.4,0.0,i,1.0,False,717.6999999880791,44.0,60.0,40.0,False,,228.93168634532634,[],"[640, 360]",ColorTask,79.0,32.0,,,HRV,HRV_0005,2022-11-30 17:59:56
,wl-rdm,150,474220,0.0-8.32-0.32,1.0,150.0,,,,,,,[],,,,,,73.6,1.0,i,1.0,True,813.3999999761581,49.0,60.0,40.0,False,,357.34119963317914,[],"[640, 360]",ColorTask,80.0,33.0,,,HRV,HRV_0005,2022-11-30 17:59:56
,wl-rdm,151,476353,0.0-8.33-0.33,1.0,151.0,,,,,,,[],,,,,,56.4,1.0,i,1.0,True,764.3000000119209,46.0,60.0,40.0,False,,291.77062544314924,[],"[640, 360]",ColorTask,81.0,34.0,,,HRV,HRV_0005,2022-11-30 17:59:56
,wl-rdm,152,478786,0.0-8.34-0.34,1.0,152.0,,,,,,,[],,,,,,62.5,0.0,i,1.0,False,1093.2000000476837,66.0,60.0,40.0,False,,270.0609993709634,[],"[640, 360]",ColorTask,80.0,35.0,,,HRV,HRV_0005,2022-11-30 17:59:56
,wl-rdm,153,480852,0.0-8.35-0.35,1.0,153.0,,,,,,,[],,,,,,73.6,0.0,u,0.0,True,667.1000000238419,41.0,60.0,40.0,False,,315.70496824885737,[],"[640, 360]",ColorTask,81.0,36.0,,,HRV,HRV_0005,2022-11-30 17:59:56
,wl-rdm,154,482652,0.0-8.36-0.36,1.0,154.0,,,,,,,[],,,,,,87.9,0.0,u,0.0,True,457.19999998807907,28.0,60.0,40.0,False,,273.4175042290139,[],"[640, 360]",ColorTask,82.0,37.0,,,HRV,HRV_0005,2022-11-30 17:59:56
,wl-rdm,155,484602,0.0-8.37-0.37,1.0,155.0,,,,,,,[],,,,,,56.4,0.0,u,0.0,True,554.3999999761581,34.0,60.0,40.0,False,,321.2900565619689,[],"[640, 360]",ColorTask,83.0,38.0,,,HRV,HRV_0005,2022-11-30 17:59:56
,wl-rdm,156,486784,0.0-8.38-0.38,1.0,156.0,,,,,,,[],,,,,,50.0,0.0,i,1.0,False,874.3999999761581,53.0,60.0,40.0,False,,220.3901314747623,[],"[640, 360]",ColorTask,82.0,39.0,,,HRV,HRV_0005,2022-11-30 17:59:56
,wl-rdm,157,489234,0.0-8.39-0.39,1.0,157.0,,,,,,,[],,,,,,73.6,0.0,i,1.0,False,1143.4000000357628,69.0,60.0,40.0,False,,244.9890270919746,[],"[640, 360]",ColorTask,81.0,40.0,,,HRV,HRV_0005,2022-11-30 17:59:56
,wl-rdm,158,491501,0.0-8.40-0.40,1.0,158.0,,,,,,,[],,,,,,50.0,0.0,i,1.0,False,856.8999999165535,52.0,60.0,40.0,False,,345.1675487933686,[],"[640, 360]",ColorTask,80.0,41.0,,,HRV,HRV_0005,2022-11-30 17:59:56
,wl-rdm,159,493517,0.0-8.41-0.41,1.0,159.0,,,,,,,[],,,,,,87.9,1.0,i,1.0,True,731.8000000119209,44.0,60.0,40.0,False,,222.1509243798363,[],"[640, 360]",ColorTask,81.0,42.0,,,HRV,HRV_0005,2022-11-30 17:59:56
,wl-rdm,160,495734,0.0-8.42-0.42,1.0,160.0,,,,,,,[],,,,,,73.6,1.0,i,1.0,True,931.0999999642372,56.0,60.0,40.0,False,,226.00041247007752,[],"[640, 360]",ColorTask,82.0,43.0,,,HRV,HRV_0005,2022-11-30 17:59:56
,wl-rdm,161,497683,0.0-8.43-0.43,1.0,161.0,,,,,,,[],,,,,,62.5,0.0,i,1.0,False,677.1999999880791,41.0,60.0,40.0,False,,216.59802732165574,[],"[640, 360]",ColorTask,81.0,44.0,,,HRV,HRV_0005,2022-11-30 17:59:56
,wl-rdm,162,500033,0.0-8.44-0.44,1.0,162.0,,,,,,,[],,,,,,53.2,0.0,u,0.0,True,937.9000000357628,57.0,60.0,40.0,False,,323.0979275815489,[],"[640, 360]",ColorTask,82.0,45.0,,,HRV,HRV_0005,2022-11-30 17:59:56
,wl-rdm,163,501900,0.0-8.45-0.45,1.0,163.0,,,,,,,[],,,,,,53.2,1.0,u,0.0,False,591.3000000119209,36.0,60.0,40.0,False,,210.79153377241386,[],"[640, 360]",ColorTask,81.0,46.0,,,HRV,HRV_0005,2022-11-30 17:59:56
,wl-rdm,164,503949,0.0-8.46-0.46,1.0,164.0,,,,,,,[],,,,,,87.9,1.0,i,1.0,True,699.0,42.0,60.0,40.0,False,,283.7973703007814,[],"[640, 360]",ColorTask,82.0,47.0,,,HRV,HRV_0005,2022-11-30 17:59:56
,wl-rdm,165,507149,0.0-8.47-0.47,1.0,165.0,,,,,,,[],,,,,,62.5,0.0,i,1.0,False,1921.2999999523163,116.0,60.0,40.0,False,,200.77419135371045,[],"[640, 360]",ColorTask,81.0,48.0,,,HRV,HRV_0005,2022-11-30 17:59:56
,wl-rdm,166,509382,0.0-8.48-0.48,1.0,166.0,,,,,,,[],,,,,,62.5,1.0,i,1.0,True,956.9000000357628,58.0,60.0,40.0,False,,208.10216046205338,[],"[640, 360]",ColorTask,82.0,49.0,,,HRV,HRV_0005,2022-11-30 17:59:56
,wl-rdm,167,511498,0.0-8.49-0.49,1.0,167.0,,,,,,,[],,,,,,53.2,0.0,i,1.0,False,801.4000000357628,49.0,60.0,40.0,False,,227.94178952838334,[],"[640, 360]",ColorTask,81.0,50.0,,,HRV,HRV_0005,2022-11-30 17:59:56
,wl-rdm,168,513448,0.0-8.50-0.50,1.0,168.0,,,,,,,[],,,,,,50.0,1.0,u,0.0,False,572.8999999761581,35.0,60.0,40.0,False,,285.72737763648706,[],"[640, 360]",ColorTask,80.0,51.0,,,HRV,HRV_0005,2022-11-30 17:59:56
,wl-rdm,169,515398,0.0-8.51-0.51,1.0,169.0,,,,,,,[],,,,,,87.9,0.0,i,1.0,False,636.7999999523163,39.0,60.0,40.0,False,,229.45497296533716,[],"[640, 360]",ColorTask,79.0,52.0,,,HRV,HRV_0005,2022-11-30 17:59:56
,wl-rdm,170,517497,0.0-8.52-0.52,1.0,170.0,,,,,,,[],,,,,,50.0,0.0,i,1.0,False,747.3000000119209,45.0,60.0,40.0,False,,299.3797014870046,[],"[640, 360]",ColorTask,78.0,53.0,,,HRV,HRV_0005,2022-11-30 17:59:56
,wl-rdm,171,519847,0.0-8.53-0.53,1.0,171.0,,,,,,,[],,,,,,53.2,0.0,i,1.0,False,1021.3000000119209,62.0,60.0,40.0,False,,257.92711783688156,[],"[640, 360]",ColorTask,77.0,54.0,,,HRV,HRV_0005,2022-11-30 17:59:56
,wl-rdm,172,521830,0.0-8.54-0.54,1.0,172.0,,,,,,,[],,,,,,87.9,0.0,u,0.0,True,581.6000000238419,35.0,60.0,40.0,False,,341.6275678492283,[],"[640, 360]",ColorTask,78.0,55.0,,,HRV,HRV_0005,2022-11-30 17:59:56
,wl-rdm,173,524147,0.0-8.55-0.55,1.0,173.0,,,,,,,[],,,,,,56.4,1.0,i,1.0,True,1041.3999999761581,63.0,60.0,40.0,False,,203.96700253518517,[],"[640, 360]",ColorTask,79.0,56.0,,,HRV,HRV_0005,2022-11-30 17:59:56
,wl-rdm,174,525996,0.0-8.56-0.56,1.0,174.0,,,,,,,[],,,,,,73.6,1.0,i,1.0,True,518.8999999761581,32.0,60.0,40.0,False,,251.77049251024934,[],"[640, 360]",ColorTask,80.0,57.0,,,HRV,HRV_0005,2022-11-30 17:59:56
,wl-rdm,175,528296,0.0-8.57-0.57,1.0,175.0,,,,,,,[],,,,,,56.4,0.0,i,1.0,False,956.5000000596046,58.0,60.0,40.0,False,,266.41859742144356,[],"[640, 360]",ColorTask,79.0,58.0,,,HRV,HRV_0005,2022-11-30 17:59:56
,wl-rdm,176,530262,0.0-8.58-0.58,1.0,176.0,,,,,,,[],,,,,,73.6,0.0,u,0.0,True,649.7999999523163,39.0,60.0,40.0,False,,254.82062723396422,[],"[640, 360]",ColorTask,80.0,59.0,,,HRV,HRV_0005,2022-11-30 17:59:56
,wl-rdm,177,532479,0.0-8.59-0.59,1.0,177.0,,,,,,,[],,,,,,56.4,0.0,u,0.0,True,845.6000000238419,51.0,60.0,40.0,False,,313.4515492319764,[],"[640, 360]",ColorTask,81.0,60.0,,,HRV,HRV_0005,2022-11-30 17:59:56
,wl-rdm,178,534462,0.0-8.60-0.60,1.0,178.0,,,,,,,[],,,,,,87.9,0.0,u,0.0,True,715.2999999523163,43.0,60.0,40.0,False,,202.28575800957736,[],"[640, 360]",ColorTask,82.0,61.0,,,HRV,HRV_0005,2022-11-30 17:59:56
,wl-rdm,179,536462,0.0-8.61-0.61,1.0,179.0,,,,,,,[],,,,,,87.9,1.0,i,1.0,True,600.4000000357628,37.0,60.0,40.0,False,,307.74387301512104,[],"[640, 360]",ColorTask,83.0,62.0,,,HRV,HRV_0005,2022-11-30 17:59:56
,wl-rdm,180,538978,0.0-8.62-0.62,1.0,180.0,,,,,,,[],,,,,,50.0,0.0,u,0.0,True,1075.3999999761581,65.0,60.0,40.0,False,,368.5493115082419,[],"[640, 360]",ColorTask,84.0,63.0,,,HRV,HRV_0005,2022-11-30 17:59:56
,wl-rdm,181,541294,0.0-8.63-0.63,1.0,181.0,,,,,,,[],,,,,,87.9,1.0,i,1.0,True,933.7999999523163,57.0,60.0,40.0,False,,287.95608453674674,[],"[640, 360]",ColorTask,85.0,64.0,,,HRV,HRV_0005,2022-11-30 17:59:56
,wl-rdm,182,543644,0.0-8.64-0.64,1.0,182.0,,,,,,,[],,,,,,53.2,0.0,u,0.0,True,1075.4000000357628,65.0,60.0,40.0,False,,213.41611646914475,[],"[640, 360]",ColorTask,86.0,65.0,,,HRV,HRV_0005,2022-11-30 17:59:56
,wl-rdm,183,545744,0.0-8.65-0.65,1.0,183.0,,,,,,,[],,,,,,73.6,1.0,i,1.0,True,796.0999999642372,48.0,60.0,40.0,False,,249.44348372965294,[],"[640, 360]",ColorTask,87.0,66.0,,,HRV,HRV_0005,2022-11-30 17:59:56
,wl-rdm,184,547893,0.0-8.66-0.66,1.0,184.0,,,,,,,[],,,,,,87.9,0.0,u,0.0,True,800.4000000357628,49.0,60.0,40.0,False,,265.5529903866799,[],"[640, 360]",ColorTask,88.0,67.0,,,HRV,HRV_0005,2022-11-30 17:59:56
,wl-rdm,185,549944,0.0-8.67-0.67,1.0,185.0,,,,,,,[],,,,,,53.2,0.0,i,1.0,False,760.5,46.0,60.0,40.0,False,,227.05952906942431,[],"[640, 360]",ColorTask,87.0,68.0,,,HRV,HRV_0005,2022-11-30 17:59:56
,wl-rdm,186,552427,0.0-8.68-0.68,1.0,186.0,,,,,,,[],,,,,,53.2,0.0,i,1.0,False,1070.0,65.0,60.0,40.0,False,,316.7051051564505,[],"[640, 360]",ColorTask,86.0,69.0,,,HRV,HRV_0005,2022-11-30 17:59:56
,wl-rdm,187,554993,0.0-8.69-0.69,1.0,187.0,,,,,,,[],,,,,,50.0,0.0,u,0.0,True,1129.5,68.0,60.0,40.0,False,,367.41825186170126,[],"[640, 360]",ColorTask,87.0,70.0,,,HRV,HRV_0005,2022-11-30 17:59:56
,wl-rdm,188,557042,0.0-8.70-0.70,1.0,188.0,,,,,,,[],,,,,,73.6,1.0,i,1.0,True,705.1999999880791,43.0,60.0,40.0,False,,258.498415366075,[],"[640, 360]",ColorTask,88.0,71.0,,,HRV,HRV_0005,2022-11-30 17:59:56
,wl-rdm,189,559293,0.0-8.71-0.71,1.0,189.0,,,,,,,[],,,,,,62.5,1.0,i,1.0,True,934.1999999880791,57.0,60.0,40.0,False,,222.420088563438,[],"[640, 360]",ColorTask,89.0,72.0,,,HRV,HRV_0005,2022-11-30 17:59:56
,wl-rdm,190,561625,0.0-8.72-0.72,1.0,190.0,,,,,,,[],,,,,,53.2,1.0,i,1.0,True,914.6000000238419,55.0,60.0,40.0,False,,358.0925819704722,[],"[640, 360]",ColorTask,90.0,73.0,,,HRV,HRV_0005,2022-11-30 17:59:56
,wl-rdm,191,564041,0.0-8.73-0.73,1.0,191.0,,,,,,,[],,,,,,50.0,1.0,i,1.0,True,1030.199999988079,62.0,60.0,40.0,False,,317.1484497942238,[],"[640, 360]",ColorTask,91.0,74.0,,,HRV,HRV_0005,2022-11-30 17:59:56
,wl-rdm,192,566241,0.0-8.74-0.74,1.0,192.0,,,,,,,[],,,,,,73.6,0.0,u,0.0,True,865.8000000119209,52.0,60.0,40.0,False,,276.4447885125689,[],"[640, 360]",ColorTask,92.0,75.0,,,HRV,HRV_0005,2022-11-30 17:59:56
,wl-rdm,193,568525,0.0-8.75-0.75,1.0,193.0,,,,,,,[],,,,,,50.0,1.0,u,0.0,False,1008.1000000238419,61.0,60.0,40.0,False,,211.43897034052407,[],"[640, 360]",ColorTask,91.0,76.0,,,HRV,HRV_0005,2022-11-30 17:59:56
,wl-rdm,194,570791,0.0-8.76-0.76,1.0,194.0,,,,,,,[],,,,,,62.5,0.0,u,0.0,True,972.6000000238419,59.0,60.0,40.0,False,,223.64896532150132,[],"[640, 360]",ColorTask,92.0,77.0,,,HRV,HRV_0005,2022-11-30 17:59:56
,wl-rdm,195,573124,0.0-8.77-0.77,1.0,195.0,,,,,,,[],,,,,,62.5,1.0,i,1.0,True,881.0,53.0,60.0,40.0,False,,393.93885951689583,[],"[640, 360]",ColorTask,93.0,78.0,,,HRV,HRV_0005,2022-11-30 17:59:56
,wl-rdm,196,575190,0.0-8.78-0.78,1.0,196.0,,,,,,,[],,,,,,53.2,1.0,i,1.0,True,676.0999999642372,41.0,60.0,40.0,False,,322.08609793242675,[],"[640, 360]",ColorTask,94.0,79.0,,,HRV,HRV_0005,2022-11-30 17:59:56
,wl-rdm,197,577307,0.0-8.79-0.79,1.0,197.0,,,,,,,[],,,,,,53.2,1.0,i,1.0,True,845.5000000596046,51.0,60.0,40.0,False,,208.31582247000614,[],"[640, 360]",ColorTask,95.0,80.0,,,HRV,HRV_0005,2022-11-30 17:59:56
,wl-rdm,198,579523,0.0-8.80-0.80,1.0,198.0,,,,,,,[],,,,,,73.6,1.0,i,1.0,True,846.5,51.0,60.0,40.0,False,,287.8536124057924,[],"[640, 360]",ColorTask,96.0,81.0,,,HRV,HRV_0005,2022-11-30 17:59:56
,wl-rdm,199,581789,0.0-8.81-0.81,1.0,199.0,,,,,,,[],,,,,,73.6,0.0,i,1.0,False,926.9000000357628,56.0,60.0,40.0,False,,272.8539795446647,[],"[640, 360]",ColorTask,95.0,82.0,,,HRV,HRV_0005,2022-11-30 17:59:56
,wl-rdm,200,583789,0.0-8.82-0.82,1.0,200.0,,,,,,,[],,,,,,87.9,1.0,i,1.0,True,654.5,40.0,60.0,40.0,False,,261.783539173155,[],"[640, 360]",ColorTask,96.0,83.0,,,HRV,HRV_0005,2022-11-30 17:59:56
,wl-rdm,201,586139,0.0-8.83-0.83,1.0,201.0,,,,,,,[],,,,,,56.4,0.0,i,1.0,False,1004.5999999642372,61.0,60.0,40.0,False,,262.48448401020426,[],"[640, 360]",ColorTask,95.0,84.0,,,HRV,HRV_0005,2022-11-30 17:59:56
,wl-rdm,202,588372,0.0-8.84-0.84,1.0,202.0,,,,,,,[],,,,,,50.0,1.0,i,1.0,True,814.6999999880791,49.0,60.0,40.0,False,,356.0833142405925,[],"[640, 360]",ColorTask,96.0,85.0,,,HRV,HRV_0005,2022-11-30 17:59:56
,wl-rdm,203,590672,0.0-8.85-0.85,1.0,203.0,,,,,,,[],,,,,,62.5,0.0,u,0.0,True,864.1000000238419,52.0,60.0,40.0,False,,368.20117264939165,[],"[640, 360]",ColorTask,97.0,86.0,,,HRV,HRV_0005,2022-11-30 17:59:56
,wl-rdm,204,593238,0.0-8.86-0.86,1.0,204.0,,,,,,,[],,,,,,53.2,1.0,i,1.0,True,1129.7999999523163,68.0,60.0,40.0,False,,382.04779875025974,[],"[640, 360]",ColorTask,98.0,87.0,,,HRV,HRV_0005,2022-11-30 17:59:56
,wl-rdm,205,595354,0.0-8.87-0.87,1.0,205.0,,,,,,,[],,,,,,62.5,1.0,i,1.0,True,848.8999999761581,51.0,60.0,40.0,False,,205.06622738993082,[],"[640, 360]",ColorTask,99.0,88.0,,,HRV,HRV_0005,2022-11-30 17:59:56
,wl-rdm,206,597804,0.0-8.88-0.88,1.0,206.0,,,,,,,[],,,,,,56.4,0.0,u,0.0,True,1153.3999999761581,70.0,60.0,40.0,False,,223.98293821328875,[],"[640, 360]",ColorTask,100.0,89.0,,,HRV,HRV_0005,2022-11-30 17:59:56
,wl-rdm,207,600037,0.0-8.89-0.89,1.0,207.0,,,,,,,[],,,,,,62.5,1.0,i,1.0,True,961.5999999642372,58.0,60.0,40.0,False,,215.9808664925109,[],"[640, 360]",ColorTask,101.0,90.0,,,HRV,HRV_0005,2022-11-30 17:59:56
,wl-rdm,208,602536,0.0-8.90-0.90,1.0,208.0,,,,,,,[],,,,,,73.6,0.0,u,0.0,True,1226.6000000238419,74.0,60.0,40.0,False,,214.83162540086,[],"[640, 360]",ColorTask,102.0,91.0,,,HRV,HRV_0005,2022-11-30 17:59:56
,wl-rdm,209,604820,0.0-8.91-0.91,1.0,209.0,,,,,,,[],,,,,,50.0,0.0,i,1.0,False,923.1999999880791,56.0,60.0,40.0,False,,289.50901576611716,[],"[640, 360]",ColorTask,101.0,92.0,,,HRV,HRV_0005,2022-11-30 17:59:56
,wl-rdm,210,607453,0.0-8.92-0.92,1.0,210.0,,,,,,,[],,,,,,62.5,0.0,u,0.0,True,1353.5,82.0,60.0,40.0,False,,216.26666504535086,[],"[640, 360]",ColorTask,102.0,93.0,,,HRV,HRV_0005,2022-11-30 17:59:56
,wl-rdm,211,609819,0.0-8.93-0.93,1.0,211.0,,,,,,,[],,,,,,53.2,1.0,i,1.0,True,910.0999999642372,55.0,60.0,40.0,False,,378.1198648365172,[],"[640, 360]",ColorTask,103.0,94.0,,,HRV,HRV_0005,2022-11-30 17:59:56
,wl-rdm,212,611952,0.0-8.94-0.94,1.0,212.0,,,,,,,[],,,,,,87.9,0.0,u,0.0,True,721.0,44.0,60.0,40.0,False,,337.6308921795704,[],"[640, 360]",ColorTask,104.0,95.0,,,HRV,HRV_0005,2022-11-30 17:59:56
,wl-rdm,213,614235,0.0-8.95-0.95,1.0,213.0,,,,,,,[],,,,,,62.5,0.0,u,0.0,True,1013.3999999761581,61.0,60.0,40.0,False,,213.16441230613435,[],"[640, 360]",ColorTask,105.0,96.0,,,HRV,HRV_0005,2022-11-30 17:59:56
,wl-rdm,214,616651,0.0-8.96-0.96,1.0,214.0,,,,,,,[],,,,,,56.4,0.0,i,1.0,False,959.6000000238419,58.0,60.0,40.0,False,,376.7778023958581,[],"[640, 360]",ColorTask,104.0,97.0,,,HRV,HRV_0005,2022-11-30 17:59:56
,wl-rdm,215,618935,0.0-8.97-0.97,1.0,215.0,,,,,,,[],,,,,,62.5,1.0,i,1.0,True,877.6000000238419,53.0,60.0,40.0,False,,345.63319991706874,[],"[640, 360]",ColorTask,105.0,98.0,,,HRV,HRV_0005,2022-11-30 17:59:56
,wl-rdm,216,621234,0.0-8.98-0.98,1.0,216.0,,,,,,,[],,,,,,87.9,1.0,i,1.0,True,947.3000000119209,57.0,60.0,40.0,False,,282.64402526373954,[],"[640, 360]",ColorTask,106.0,99.0,,,HRV,HRV_0005,2022-11-30 17:59:56
,wl-rdm,217,623184,0.0-8.99-0.99,1.0,217.0,,,,,,,[],,,,,,87.9,1.0,i,1.0,True,603.8999999761581,37.0,60.0,40.0,False,,274.87038823407283,[],"[640, 360]",ColorTask,107.0,100.0,,,HRV,HRV_0005,2022-11-30 17:59:56
,wl-rdm,218,625050,0.0-8.100-0.100,1.0,218.0,,,,,,,[],,,,,,53.2,1.0,i,1.0,True,482.4000000357628,29.0,60.0,40.0,False,,333.0925299807634,[],"[640, 360]",ColorTask,108.0,101.0,,,HRV,HRV_0005,2022-11-30 17:59:56
,wl-rdm,219,626817,0.0-8.101-0.101,1.0,219.0,,,,,,,[],,,,,,56.4,1.0,i,1.0,True,458.30000001192093,28.0,60.0,40.0,False,,241.49508255075438,[],"[640, 360]",ColorTask,109.0,102.0,,,HRV,HRV_0005,2022-11-30 17:59:56
,wl-rdm,220,628983,0.0-8.102-0.102,1.0,220.0,,,,,,,[],,,,,,62.5,1.0,i,1.0,True,727.8000000119209,44.0,60.0,40.0,False,,374.9695131372048,[],"[640, 360]",ColorTask,110.0,103.0,,,HRV,HRV_0005,2022-11-30 17:59:56
,wl-rdm,221,631116,0.0-8.103-0.103,1.0,221.0,,,,,,,[],,,,,,53.2,0.0,i,1.0,False,795.4000000357628,48.0,60.0,40.0,False,,254.371025441022,[],"[640, 360]",ColorTask,109.0,104.0,,,HRV,HRV_0005,2022-11-30 17:59:56
,wl-rdm,222,633599,0.0-8.104-0.104,1.0,222.0,,,,,,,[],,,,,,50.0,1.0,u,0.0,False,1180.800000011921,71.0,60.0,40.0,False,,235.0735156454756,[],"[640, 360]",ColorTask,108.0,105.0,,,HRV,HRV_0005,2022-11-30 17:59:56
,wl-rdm,223,635782,0.0-8.105-0.105,1.0,223.0,,,,,,,[],,,,,,50.0,1.0,u,0.0,False,875.3999999761581,53.0,60.0,40.0,False,,234.78627868994786,[],"[640, 360]",ColorTask,107.0,106.0,,,HRV,HRV_0005,2022-11-30 17:59:56
,wl-rdm,224,637948,0.0-8.106-0.106,1.0,224.0,,,,,,,[],,,,,,50.0,1.0,u,0.0,False,801.1999999880791,49.0,60.0,40.0,False,,274.998942541949,[],"[640, 360]",ColorTask,106.0,107.0,,,HRV,HRV_0005,2022-11-30 17:59:56
,wl-rdm,225,639932,0.0-8.107-0.107,1.0,225.0,,,,,,,[],,,,,,87.9,0.0,u,0.0,True,513.6999999880791,31.0,60.0,40.0,False,,389.40054210161054,[],"[640, 360]",ColorTask,107.0,108.0,,,HRV,HRV_0005,2022-11-30 17:59:56
,wl-html-button-response,226,648073,0.0-9.0-0.0,,,,,,,,,,8139.300000011921,,0,,,,,,,,,,,,,,,,,,,,<h3>End of this session. Thank you!</h3><br>,['Close window'],HRV,HRV_0005,2022-11-30 17:59:56
