trialN,stimuli,question,trialStartTime,trialStartTime_UNIX,stimulus1,rt,receivedResponse,rating,trialEndTime,trialDuration,stimulus1Loaded,exp,subjectId,date
0,"[{'imgObject': {}, 'id': 'cocktailshrimp', 'src': '/static/foodstim60/cocktailshrimp.jpg', 'key': 'NaN', 'origWidth': 410, 'origHeight': 410, 'width': 410, 'height': 410, 'widthPercent': 0.8, 'rescaleHeight': True, 'trialN': 0, 'loaded': True, 'loadedTime': 3317.0999999046326, 'positionName': 'CENTER', 'positionCoords': [479, 251]}]",Rate how much you want to eat this food from 0 (least) to 10 (most).,4585.299999952316,1669835806994,cocktailshrimp,1700.0999999046326,True,7.48,6285.399999856949,1700.0999999046326,True,HRV,HRV_0254,2022-11-30 19:18:40
1,"[{'imgObject': {}, 'id': 'seaweed', 'src': '/static/foodstim60/seaweed.jpg', 'key': 'NaN', 'origWidth': 410, 'origHeight': 410, 'width': 410, 'height': 410, 'widthPercent': 0.8, 'rescaleHeight': True, 'trialN': 1, 'loaded': True, 'loadedTime': 3365.5, 'positionName': 'CENTER', 'positionCoords': [479, 251]}]",Rate how much you want to eat this food from 0 (least) to 10 (most).,6291.700000047684,1669835808701,seaweed,189.09999990463257,True,7.44,6480.799999952316,189.09999990463257,True,HRV,HRV_0254,2022-11-30 19:18:40
2,"[{'imgObject': {}, 'id': 'blueberries', 'src': '/static/foodstim60/blueberries.jpg', 'key': 'NaN', 'origWidth': 411, 'origHeight': 411, 'width': 411, 'height': 411, 'widthPercent': 0.8, 'rescaleHeight': True, 'trialN': 2, 'loaded': True, 'loadedTime': 3298.0999999046326, 'positionName': 'CENTER', 'positionCoords': [478.5, 250.5]}]",Rate how much you want to eat this food from 0 (least) to 10 (most).,6486.899999856949,1669835808896,blueberries,2851.0,True,6.54,9337.899999856949,2851.0,True,HRV,HRV_0254,2022-11-30 19:18:40
3,"[{'imgObject': {}, 'id': 'sushi w_condiments', 'src': '/static/foodstim60/sushi w_condiments.jpg', 'key': 'NaN', 'origWidth': 410, 'origHeight': 410, 'width': 410, 'height': 410, 'widthPercent': 0.8, 'rescaleHeight': True, 'trialN': 3, 'loaded': True, 'loadedTime': 3321.399999856949, 'positionName': 'CENTER', 'positionCoords': [479, 251]}]",Rate how much you want to eat this food from 0 (least) to 10 (most).,9342.0,1669835811751,sushi w_condiments,1801.2999999523163,True,3.18,11143.299999952316,1801.2999999523163,True,HRV,HRV_0254,2022-11-30 19:18:40
4,"[{'imgObject': {}, 'id': 'edamame', 'src': '/static/foodstim60/edamame.jpg', 'key': 'NaN', 'origWidth': 409, 'origHeight': 410, 'width': 409, 'height': 410, 'widthPercent': 0.8, 'rescaleHeight': True, 'trialN': 4, 'loaded': True, 'loadedTime': 3330.2999999523163, 'positionName': 'CENTER', 'positionCoords': [479.5, 251]}]",Rate how much you want to eat this food from 0 (least) to 10 (most).,11147.399999856949,1669835813556,edamame,2186.9000000953674,True,5.71,13334.299999952316,2186.9000000953674,True,HRV,HRV_0254,2022-11-30 19:18:40
5,"[{'imgObject': {}, 'id': 'shreddedwheatwithmilk', 'src': '/static/foodstim60/shreddedwheatwithmilk.jpg', 'key': 'NaN', 'origWidth': 410, 'origHeight': 410, 'width': 410, 'height': 410, 'widthPercent': 0.8, 'rescaleHeight': True, 'trialN': 5, 'loaded': True, 'loadedTime': 3334.5, 'positionName': 'CENTER', 'positionCoords': [479, 251]}]",Rate how much you want to eat this food from 0 (least) to 10 (most).,13344.0,1669835815753,shreddedwheatwithmilk,1485.0,True,6.62,14829.0,1485.0,True,HRV,HRV_0254,2022-11-30 19:18:40
6,"[{'imgObject': {}, 'id': 'apple slices', 'src': '/static/foodstim60/apple slices.jpg', 'key': 'NaN', 'origWidth': 409, 'origHeight': 410, 'width': 409, 'height': 410, 'widthPercent': 0.8, 'rescaleHeight': True, 'trialN': 6, 'loaded': True, 'loadedTime': 3374.0999999046326, 'positionName': 'CENTER', 'positionCoords': [479.5, 251]}]",Rate how much you want to eat this food from 0 (least) to 10 (most).,14832.899999856949,1669835817242,apple slices,1437.4000000953674,True,8.66,16270.299999952316,1437.4000000953674,True,HRV,HRV_0254,2022-11-30 19:18:40
7,"[{'imgObject': {}, 'id': 'cherry tomato', 'src': '/static/foodstim60/cherry tomato.jpg', 'key': 'NaN', 'origWidth': 410, 'origHeight': 410, 'width': 410, 'height': 410, 'widthPercent': 0.8, 'rescaleHeight': True, 'trialN': 7, 'loaded': True, 'loadedTime': 3436.7999999523163, 'positionName': 'CENTER', 'positionCoords': [479, 251]}]",Rate how much you want to eat this food from 0 (least) to 10 (most).,16274.399999856949,1669835818683,cherry tomato,1865.2000000476837,True,7.88,18139.599999904633,1865.2000000476837,True,HRV,HRV_0254,2022-11-30 19:18:40
8,"[{'imgObject': {}, 'id': 'bagel plain', 'src': '/static/foodstim60/bagel plain.jpg', 'key': 'NaN', 'origWidth': 410, 'origHeight': 410, 'width': 410, 'height': 410, 'widthPercent': 0.8, 'rescaleHeight': True, 'trialN': 8, 'loaded': True, 'loadedTime': 3440.2000000476837, 'positionName': 'CENTER', 'positionCoords': [479, 251]}]",Rate how much you want to eat this food from 0 (least) to 10 (most).,18141.89999985695,1669835820551,bagel plain,1802.6000001430511,True,2.3000000000000003,19944.5,1802.6000001430511,True,HRV,HRV_0254,2022-11-30 19:18:40
9,"[{'imgObject': {}, 'id': 'orange slices', 'src': '/static/foodstim60/orange slices.jpg', 'key': 'NaN', 'origWidth': 409, 'origHeight': 410, 'width': 409, 'height': 410, 'widthPercent': 0.8, 'rescaleHeight': True, 'trialN': 9, 'loaded': True, 'loadedTime': 3481.7999999523163, 'positionName': 'CENTER', 'positionCoords': [479.5, 251]}]",Rate how much you want to eat this food from 0 (least) to 10 (most).,19947.099999904633,1669835822356,orange slices,1742.7000000476837,True,8.42,21689.799999952316,1742.7000000476837,True,HRV,HRV_0254,2022-11-30 19:18:40
10,"[{'imgObject': {}, 'id': 'chicken nuggets2', 'src': '/static/foodstim60/chicken nuggets2.jpg', 'key': 'NaN', 'origWidth': 410, 'origHeight': 409, 'width': 410, 'height': 409, 'widthPercent': 0.8, 'rescaleHeight': True, 'trialN': 10, 'loaded': True, 'loadedTime': 3505.5, 'positionName': 'CENTER', 'positionCoords': [479, 251.5]}]",Rate how much you want to eat this food from 0 (least) to 10 (most).,21694.299999952316,1669835824103,chicken nuggets2,2563.4000000953674,True,1.47,24257.700000047684,2563.4000000953674,True,HRV,HRV_0254,2022-11-30 19:18:40
11,"[{'imgObject': {}, 'id': 'olives', 'src': '/static/foodstim60/olives.jpg', 'key': 'NaN', 'origWidth': 410, 'origHeight': 410, 'width': 410, 'height': 410, 'widthPercent': 0.8, 'rescaleHeight': True, 'trialN': 11, 'loaded': True, 'loadedTime': 3461.5, 'positionName': 'CENTER', 'positionCoords': [479, 251]}]",Rate how much you want to eat this food from 0 (least) to 10 (most).,24261.799999952316,1669835826671,olives,1691.7999999523163,True,5.97,25953.599999904633,1691.7999999523163,True,HRV,HRV_0254,2022-11-30 19:18:40
12,"[{'imgObject': {}, 'id': 'burger', 'src': '/static/foodstim60/burger.jpg', 'key': 'NaN', 'origWidth': 409, 'origHeight': 409, 'width': 409, 'height': 409, 'widthPercent': 0.8, 'rescaleHeight': True, 'trialN': 12, 'loaded': True, 'loadedTime': 3468.7000000476837, 'positionName': 'CENTER', 'positionCoords': [479.5, 251.5]}]",Rate how much you want to eat this food from 0 (least) to 10 (most).,25957.0,1669835828366,burger,2151.7000000476837,True,6.47,28108.700000047684,2151.7000000476837,True,HRV,HRV_0254,2022-11-30 19:18:40
13,"[{'imgObject': {}, 'id': 'eggs', 'src': '/static/foodstim60/eggs.jpg', 'key': 'NaN', 'origWidth': 409, 'origHeight': 409, 'width': 409, 'height': 409, 'widthPercent': 0.8, 'rescaleHeight': True, 'trialN': 13, 'loaded': True, 'loadedTime': 3559.2000000476837, 'positionName': 'CENTER', 'positionCoords': [479.5, 251.5]}]",Rate how much you want to eat this food from 0 (least) to 10 (most).,28113.200000047684,1669835830522,eggs,1804.1999998092651,True,6.8100000000000005,29917.39999985695,1804.1999998092651,True,HRV,HRV_0254,2022-11-30 19:18:40
14,"[{'imgObject': {}, 'id': 'cherries', 'src': '/static/foodstim60/cherries.jpg', 'key': 'NaN', 'origWidth': 410, 'origHeight': 411, 'width': 410, 'height': 411, 'widthPercent': 0.8, 'rescaleHeight': True, 'trialN': 14, 'loaded': True, 'loadedTime': 3571.7000000476837, 'positionName': 'CENTER', 'positionCoords': [479, 250.5]}]",Rate how much you want to eat this food from 0 (least) to 10 (most).,29921.5,1669835832331,cherries,1812.5999999046326,True,8.09,31734.099999904633,1812.5999999046326,True,HRV,HRV_0254,2022-11-30 19:18:40
15,"[{'imgObject': {}, 'id': 'lox', 'src': '/static/foodstim60/lox.jpg', 'key': 'NaN', 'origWidth': 410, 'origHeight': 411, 'width': 410, 'height': 411, 'widthPercent': 0.8, 'rescaleHeight': True, 'trialN': 15, 'loaded': True, 'loadedTime': 3640.899999856949, 'positionName': 'CENTER', 'positionCoords': [479, 250.5]}]",Rate how much you want to eat this food from 0 (least) to 10 (most).,31738.599999904633,1669835834148,lox,3892.0,True,2.07,35630.59999990463,3892.0,True,HRV,HRV_0254,2022-11-30 19:18:40
16,"[{'imgObject': {}, 'id': 'raisin bran w milk', 'src': '/static/foodstim60/raisin bran w milk.jpg', 'key': 'NaN', 'origWidth': 411, 'origHeight': 411, 'width': 411, 'height': 411, 'widthPercent': 0.8, 'rescaleHeight': True, 'trialN': 16, 'loaded': True, 'loadedTime': 3597.899999856949, 'positionName': 'CENTER', 'positionCoords': [478.5, 250.5]}]",Rate how much you want to eat this food from 0 (least) to 10 (most).,35635.0,1669835838044,raisin bran w milk,1766.5,True,6.91,37401.5,1766.5,True,HRV,HRV_0254,2022-11-30 19:18:40
17,"[{'imgObject': {}, 'id': 'luckycharms', 'src': '/static/foodstim60/luckycharms.jpg', 'key': 'NaN', 'origWidth': 410, 'origHeight': 409, 'width': 410, 'height': 409, 'widthPercent': 0.8, 'rescaleHeight': True, 'trialN': 17, 'loaded': True, 'loadedTime': 3608.5, 'positionName': 'CENTER', 'positionCoords': [479, 251.5]}]",Rate how much you want to eat this food from 0 (least) to 10 (most).,37405.200000047684,1669835839814,luckycharms,1813.7999999523163,True,1.11,39219.0,1813.7999999523163,True,HRV,HRV_0254,2022-11-30 19:18:40
18,"[{'imgObject': {}, 'id': 'veggieswithdip', 'src': '/static/foodstim60/veggieswithdip.jpg', 'key': 'NaN', 'origWidth': 409, 'origHeight': 409, 'width': 409, 'height': 409, 'widthPercent': 0.8, 'rescaleHeight': True, 'trialN': 18, 'loaded': True, 'loadedTime': 3626.2999999523163, 'positionName': 'CENTER', 'positionCoords': [479.5, 251.5]}]",Rate how much you want to eat this food from 0 (least) to 10 (most).,39225.5,1669835841635,veggieswithdip,1750.2000000476837,True,8.97,40975.700000047684,1750.2000000476837,True,HRV,HRV_0254,2022-11-30 19:18:40
19,"[{'imgObject': {}, 'id': 'burrito', 'src': '/static/foodstim60/burrito.jpg', 'key': 'NaN', 'origWidth': 410, 'origHeight': 410, 'width': 410, 'height': 410, 'widthPercent': 0.8, 'rescaleHeight': True, 'trialN': 19, 'loaded': True, 'loadedTime': 3646.7000000476837, 'positionName': 'CENTER', 'positionCoords': [479, 251]}]",Rate how much you want to eat this food from 0 (least) to 10 (most).,40980.39999985695,1669835843390,burrito,2382.100000143051,True,5.61,43362.5,2382.100000143051,True,HRV,HRV_0254,2022-11-30 19:18:40
20,"[{'imgObject': {}, 'id': 'Grapes', 'src': '/static/foodstim60/Grapes.jpg', 'key': 'NaN', 'origWidth': 411, 'origHeight': 411, 'width': 411, 'height': 411, 'widthPercent': 0.8, 'rescaleHeight': True, 'trialN': 20, 'loaded': True, 'loadedTime': 3716.2000000476837, 'positionName': 'CENTER', 'positionCoords': [478.5, 250.5]}]",Rate how much you want to eat this food from 0 (least) to 10 (most).,43367.5,1669835845777,Grapes,1428.7000000476837,True,8.85,44796.200000047684,1428.7000000476837,True,HRV,HRV_0254,2022-11-30 19:18:40
21,"[{'imgObject': {}, 'id': 'mango', 'src': '/static/foodstim60/mango.jpg', 'key': 'NaN', 'origWidth': 411, 'origHeight': 411, 'width': 411, 'height': 411, 'widthPercent': 0.8, 'rescaleHeight': True, 'trialN': 21, 'loaded': True, 'loadedTime': 3702.5, 'positionName': 'CENTER', 'positionCoords': [478.5, 250.5]}]",Rate how much you want to eat this food from 0 (least) to 10 (most).,44801.799999952316,1669835847211,mango,1014.5999999046326,True,8.69,45816.39999985695,1014.5999999046326,True,HRV,HRV_0254,2022-11-30 19:18:40
22,"[{'imgObject': {}, 'id': 'mac & cheese', 'src': '/static/foodstim60/mac & cheese.jpg', 'key': 'NaN', 'origWidth': 410, 'origHeight': 410, 'width': 410, 'height': 410, 'widthPercent': 0.8, 'rescaleHeight': True, 'trialN': 22, 'loaded': True, 'loadedTime': 3731.2999999523163, 'positionName': 'CENTER', 'positionCoords': [479, 251]}]",Rate how much you want to eat this food from 0 (least) to 10 (most).,45821.5,1669835848231,mac & cheese,1722.7000000476837,True,6.79,47544.200000047684,1722.7000000476837,True,HRV,HRV_0254,2022-11-30 19:18:40
23,"[{'imgObject': {}, 'id': 'baked potato', 'src': '/static/foodstim60/baked potato.jpg', 'key': 'NaN', 'origWidth': 409, 'origHeight': 410, 'width': 409, 'height': 410, 'widthPercent': 0.8, 'rescaleHeight': True, 'trialN': 23, 'loaded': True, 'loadedTime': 3735.5999999046326, 'positionName': 'CENTER', 'positionCoords': [479.5, 251]}]",Rate how much you want to eat this food from 0 (least) to 10 (most).,47548.09999990463,1669835849957,baked potato,1466.2999999523163,True,6.8100000000000005,49014.39999985695,1466.2999999523163,True,HRV,HRV_0254,2022-11-30 19:18:40
24,"[{'imgObject': {}, 'id': 'salad w chicken', 'src': '/static/foodstim60/salad w chicken.jpg', 'key': 'NaN', 'origWidth': 411, 'origHeight': 411, 'width': 411, 'height': 411, 'widthPercent': 0.8, 'rescaleHeight': True, 'trialN': 24, 'loaded': True, 'loadedTime': 3742.2000000476837, 'positionName': 'CENTER', 'positionCoords': [478.5, 250.5]}]",Rate how much you want to eat this food from 0 (least) to 10 (most).,49018.700000047684,1669835851428,salad w chicken,1301.8999998569489,True,6.69,50320.59999990463,1301.8999998569489,True,HRV,HRV_0254,2022-11-30 19:18:40
25,"[{'imgObject': {}, 'id': 'cheerios', 'src': '/static/foodstim60/cheerios.jpg', 'key': 'NaN', 'origWidth': 409, 'origHeight': 410, 'width': 409, 'height': 410, 'widthPercent': 0.8, 'rescaleHeight': True, 'trialN': 25, 'loaded': True, 'loadedTime': 3751.7999999523163, 'positionName': 'CENTER', 'positionCoords': [479.5, 251]}]",Rate how much you want to eat this food from 0 (least) to 10 (most).,50324.59999990463,1669835852734,cheerios,2000.7999999523163,True,4.07,52325.39999985695,2000.7999999523163,True,HRV,HRV_0254,2022-11-30 19:18:40
26,"[{'imgObject': {}, 'id': 'blackbeanswithrice', 'src': '/static/foodstim60/blackbeanswithrice.jpg', 'key': 'NaN', 'origWidth': 410, 'origHeight': 410, 'width': 410, 'height': 410, 'widthPercent': 0.8, 'rescaleHeight': True, 'trialN': 26, 'loaded': True, 'loadedTime': 3854.0999999046326, 'positionName': 'CENTER', 'positionCoords': [479, 251]}]",Rate how much you want to eat this food from 0 (least) to 10 (most).,52329.59999990463,1669835854739,blackbeanswithrice,1565.2999999523163,True,4.21,53894.89999985695,1565.2999999523163,True,HRV,HRV_0254,2022-11-30 19:18:40
27,"[{'imgObject': {}, 'id': 'granola w milk', 'src': '/static/foodstim60/granola w milk.jpg', 'key': 'NaN', 'origWidth': 410, 'origHeight': 410, 'width': 410, 'height': 410, 'widthPercent': 0.8, 'rescaleHeight': True, 'trialN': 27, 'loaded': True, 'loadedTime': 3863.7000000476837, 'positionName': 'CENTER', 'positionCoords': [479, 251]}]",Rate how much you want to eat this food from 0 (least) to 10 (most).,53899.700000047684,1669835856309,granola w milk,1908.5999999046326,True,6.2700000000000005,55808.299999952316,1908.5999999046326,True,HRV,HRV_0254,2022-11-30 19:18:40
28,"[{'imgObject': {}, 'id': 'pear', 'src': '/static/foodstim60/pear.jpg', 'key': 'NaN', 'origWidth': 411, 'origHeight': 410, 'width': 411, 'height': 410, 'widthPercent': 0.8, 'rescaleHeight': True, 'trialN': 28, 'loaded': True, 'loadedTime': 3834.5, 'positionName': 'CENTER', 'positionCoords': [478.5, 251]}]",Rate how much you want to eat this food from 0 (least) to 10 (most).,55812.09999990463,1669835858221,pear,1527.9000000953674,True,8.72,57340.0,1527.9000000953674,True,HRV,HRV_0254,2022-11-30 19:18:40
29,"[{'imgObject': {}, 'id': 'omelette', 'src': '/static/foodstim60/omelette.jpg', 'key': 'NaN', 'origWidth': 410, 'origHeight': 409, 'width': 410, 'height': 409, 'widthPercent': 0.8, 'rescaleHeight': True, 'trialN': 29, 'loaded': True, 'loadedTime': 3850.899999856949, 'positionName': 'CENTER', 'positionCoords': [479, 251.5]}]",Rate how much you want to eat this food from 0 (least) to 10 (most).,57344.299999952316,1669835859754,omelette,2886.0999999046326,True,5.2700000000000005,60230.39999985695,2886.0999999046326,True,HRV,HRV_0254,2022-11-30 19:18:40
30,"[{'imgObject': {}, 'id': 'hashbrowns', 'src': '/static/foodstim60/hashbrowns.jpg', 'key': 'NaN', 'origWidth': 411, 'origHeight': 410, 'width': 411, 'height': 410, 'widthPercent': 0.8, 'rescaleHeight': True, 'trialN': 30, 'loaded': True, 'loadedTime': 3858.7999999523163, 'positionName': 'CENTER', 'positionCoords': [478.5, 251]}]",Rate how much you want to eat this food from 0 (least) to 10 (most).,60234.5,1669835862644,hashbrowns,1700.0,True,5.86,61934.5,1700.0,True,HRV,HRV_0254,2022-11-30 19:18:40
31,"[{'imgObject': {}, 'id': 'grilled chicken strips', 'src': '/static/foodstim60/grilled chicken strips.jpg', 'key': 'NaN', 'origWidth': 410, 'origHeight': 411, 'width': 410, 'height': 411, 'widthPercent': 0.8, 'rescaleHeight': True, 'trialN': 31, 'loaded': True, 'loadedTime': 3917.0999999046326, 'positionName': 'CENTER', 'positionCoords': [479, 250.5]}]",Rate how much you want to eat this food from 0 (least) to 10 (most).,61938.5,1669835864348,grilled chicken strips,1834.8999998569489,True,6.05,63773.39999985695,1834.8999998569489,True,HRV,HRV_0254,2022-11-30 19:18:40
32,"[{'imgObject': {}, 'id': 'rigatoni', 'src': '/static/foodstim60/rigatoni.jpg', 'key': 'NaN', 'origWidth': 411, 'origHeight': 411, 'width': 411, 'height': 411, 'widthPercent': 0.8, 'rescaleHeight': True, 'trialN': 32, 'loaded': True, 'loadedTime': 3940.7000000476837, 'positionName': 'CENTER', 'positionCoords': [478.5, 250.5]}]",Rate how much you want to eat this food from 0 (least) to 10 (most).,63777.0,1669835866186,rigatoni,2901.0999999046326,True,3.5500000000000003,66678.09999990463,2901.0999999046326,True,HRV,HRV_0254,2022-11-30 19:18:40
33,"[{'imgObject': {}, 'id': 'corn cob', 'src': '/static/foodstim60/corn cob.jpg', 'key': 'NaN', 'origWidth': 411, 'origHeight': 411, 'width': 411, 'height': 411, 'widthPercent': 0.8, 'rescaleHeight': True, 'trialN': 33, 'loaded': True, 'loadedTime': 3951.7000000476837, 'positionName': 'CENTER', 'positionCoords': [478.5, 250.5]}]",Rate how much you want to eat this food from 0 (least) to 10 (most).,66682.79999995232,1669835869092,corn cob,1834.5999999046326,True,3.11,68517.39999985695,1834.5999999046326,True,HRV,HRV_0254,2022-11-30 19:18:40
34,"[{'imgObject': {}, 'id': 'eggsalad', 'src': '/static/foodstim60/eggsalad.jpg', 'key': 'NaN', 'origWidth': 410, 'origHeight': 409, 'width': 410, 'height': 409, 'widthPercent': 0.8, 'rescaleHeight': True, 'trialN': 34, 'loaded': True, 'loadedTime': 3955.5999999046326, 'positionName': 'CENTER', 'positionCoords': [479, 251.5]}]",Rate how much you want to eat this food from 0 (least) to 10 (most).,68521.29999995232,1669835870931,eggsalad,2638.2999999523163,True,6.25,71159.59999990463,2638.2999999523163,True,HRV,HRV_0254,2022-11-30 19:18:40
35,"[{'imgObject': {}, 'id': 'cantaloupe', 'src': '/static/foodstim60/cantaloupe.jpg', 'key': 'NaN', 'origWidth': 409, 'origHeight': 409, 'width': 409, 'height': 409, 'widthPercent': 0.8, 'rescaleHeight': True, 'trialN': 35, 'loaded': True, 'loadedTime': 3957.899999856949, 'positionName': 'CENTER', 'positionCoords': [479.5, 251.5]}]",Rate how much you want to eat this food from 0 (least) to 10 (most).,71163.89999985695,1669835873573,cantaloupe,1557.6000001430511,True,8.27,72721.5,1557.6000001430511,True,HRV,HRV_0254,2022-11-30 19:18:40
36,"[{'imgObject': {}, 'id': 'mashed potato', 'src': '/static/foodstim60/mashed potato.jpg', 'key': 'NaN', 'origWidth': 409, 'origHeight': 409, 'width': 409, 'height': 409, 'widthPercent': 0.8, 'rescaleHeight': True, 'trialN': 36, 'loaded': True, 'loadedTime': 3961, 'positionName': 'CENTER', 'positionCoords': [479.5, 251.5]}]",Rate how much you want to eat this food from 0 (least) to 10 (most).,72725.70000004768,1669835875135,mashed potato,62.299999952316284,True,8.26,72788.0,62.299999952316284,True,HRV,HRV_0254,2022-11-30 19:18:40
37,"[{'imgObject': {}, 'id': 'chickenfingers', 'src': '/static/foodstim60/chickenfingers.jpg', 'key': 'NaN', 'origWidth': 410, 'origHeight': 410, 'width': 410, 'height': 410, 'widthPercent': 0.8, 'rescaleHeight': True, 'trialN': 37, 'loaded': True, 'loadedTime': 4030.2999999523163, 'positionName': 'CENTER', 'positionCoords': [479, 251]}]",Rate how much you want to eat this food from 0 (least) to 10 (most).,72790.29999995232,1669835875200,chickenfingers,1695.2999999523163,True,3.0100000000000002,74485.59999990463,1695.2999999523163,True,HRV,HRV_0254,2022-11-30 19:18:40
38,"[{'imgObject': {}, 'id': 'sweetpotato', 'src': '/static/foodstim60/sweetpotato.jpg', 'key': 'NaN', 'origWidth': 410, 'origHeight': 410, 'width': 410, 'height': 410, 'widthPercent': 0.8, 'rescaleHeight': True, 'trialN': 38, 'loaded': True, 'loadedTime': 4034.7000000476837, 'positionName': 'CENTER', 'positionCoords': [479, 251]}]",Rate how much you want to eat this food from 0 (least) to 10 (most).,74490.39999985695,1669835876900,sweetpotato,2359.4000000953674,True,5.5200000000000005,76849.79999995232,2359.4000000953674,True,HRV,HRV_0254,2022-11-30 19:18:40
39,"[{'imgObject': {}, 'id': 'kiwi', 'src': '/static/foodstim60/kiwi.jpg', 'key': 'NaN', 'origWidth': 410, 'origHeight': 410, 'width': 410, 'height': 410, 'widthPercent': 0.8, 'rescaleHeight': True, 'trialN': 39, 'loaded': True, 'loadedTime': 4050.2000000476837, 'positionName': 'CENTER', 'positionCoords': [479, 251]}]",Rate how much you want to eat this food from 0 (least) to 10 (most).,76855.0,1669835879264,kiwi,1736.7000000476837,True,3.02,78591.70000004768,1736.7000000476837,True,HRV,HRV_0254,2022-11-30 19:18:40
40,"[{'imgObject': {}, 'id': 'fruitsalad', 'src': '/static/foodstim60/fruitsalad.jpg', 'key': 'NaN', 'origWidth': 410, 'origHeight': 410, 'width': 410, 'height': 410, 'widthPercent': 0.8, 'rescaleHeight': True, 'trialN': 40, 'loaded': True, 'loadedTime': 4044.0999999046326, 'positionName': 'CENTER', 'positionCoords': [479, 251]}]",Rate how much you want to eat this food from 0 (least) to 10 (most).,78595.89999985695,1669835881005,fruitsalad,1901.7000000476837,True,6.49,80497.59999990463,1901.7000000476837,True,HRV,HRV_0254,2022-11-30 19:18:40
41,"[{'imgObject': {}, 'id': 'hotdog w must', 'src': '/static/foodstim60/hotdog w must.jpg', 'key': 'NaN', 'origWidth': 409, 'origHeight': 409, 'width': 409, 'height': 409, 'widthPercent': 0.8, 'rescaleHeight': True, 'trialN': 41, 'loaded': True, 'loadedTime': 4075.7999999523163, 'positionName': 'CENTER', 'positionCoords': [479.5, 251.5]}]",Rate how much you want to eat this food from 0 (least) to 10 (most).,80501.89999985695,1669835882911,hotdog w must,1635.7000000476837,True,3.81,82137.59999990463,1635.7000000476837,True,HRV,HRV_0254,2022-11-30 19:18:40
42,"[{'imgObject': {}, 'id': 'avocado', 'src': '/static/foodstim60/avocado.jpg', 'key': 'NaN', 'origWidth': 409, 'origHeight': 409, 'width': 409, 'height': 409, 'widthPercent': 0.8, 'rescaleHeight': True, 'trialN': 42, 'loaded': True, 'loadedTime': 4057.399999856949, 'positionName': 'CENTER', 'positionCoords': [479.5, 251.5]}]",Rate how much you want to eat this food from 0 (least) to 10 (most).,82139.89999985695,1669835884549,avocado,1692.0,True,3.71,83831.89999985695,1692.0,True,HRV,HRV_0254,2022-11-30 19:18:40
43,"[{'imgObject': {}, 'id': 'yogurt no spoon', 'src': '/static/foodstim60/yogurt no spoon.jpg', 'key': 'NaN', 'origWidth': 411, 'origHeight': 410, 'width': 411, 'height': 410, 'widthPercent': 0.8, 'rescaleHeight': True, 'trialN': 43, 'loaded': True, 'loadedTime': 4123.799999952316, 'positionName': 'CENTER', 'positionCoords': [478.5, 251]}]",Rate how much you want to eat this food from 0 (least) to 10 (most).,83836.29999995232,1669835886246,yogurt no spoon,2066.0,True,6.49,85902.29999995232,2066.0,True,HRV,HRV_0254,2022-11-30 19:18:40
44,"[{'imgObject': {}, 'id': 'froot loops w milk', 'src': '/static/foodstim60/froot loops w milk.jpg', 'key': 'NaN', 'origWidth': 410, 'origHeight': 410, 'width': 410, 'height': 410, 'widthPercent': 0.8, 'rescaleHeight': True, 'trialN': 44, 'loaded': True, 'loadedTime': 4135.799999952316, 'positionName': 'CENTER', 'positionCoords': [479, 251]}]",Rate how much you want to eat this food from 0 (least) to 10 (most).,85906.29999995232,1669835888316,froot loops w milk,1753.0999999046326,True,1.21,87659.39999985695,1753.0999999046326,True,HRV,HRV_0254,2022-11-30 19:18:40
45,"[{'imgObject': {}, 'id': 'rigatoni and sauce', 'src': '/static/foodstim60/rigatoni and sauce.jpg', 'key': 'NaN', 'origWidth': 410, 'origHeight': 411, 'width': 410, 'height': 411, 'widthPercent': 0.8, 'rescaleHeight': True, 'trialN': 45, 'loaded': True, 'loadedTime': 4133.5, 'positionName': 'CENTER', 'positionCoords': [479, 250.5]}]",Rate how much you want to eat this food from 0 (least) to 10 (most).,87663.5,1669835890073,rigatoni and sauce,1970.2999999523163,True,4.18,89633.79999995232,1970.2999999523163,True,HRV,HRV_0254,2022-11-30 19:18:40
46,"[{'imgObject': {}, 'id': 'popsicles', 'src': '/static/foodstim60/popsicles.jpg', 'key': 'NaN', 'origWidth': 410, 'origHeight': 410, 'width': 410, 'height': 410, 'widthPercent': 0.8, 'rescaleHeight': True, 'trialN': 46, 'loaded': True, 'loadedTime': 4150.099999904633, 'positionName': 'CENTER', 'positionCoords': [479, 251]}]",Rate how much you want to eat this food from 0 (least) to 10 (most).,89637.79999995232,1669835892047,popsicles,2232.7999999523163,True,4.91,91870.59999990463,2232.7999999523163,True,HRV,HRV_0254,2022-11-30 19:18:40
47,"[{'imgObject': {}, 'id': 'strawberries', 'src': '/static/foodstim60/strawberries.jpg', 'key': 'NaN', 'origWidth': 410, 'origHeight': 410, 'width': 410, 'height': 410, 'widthPercent': 0.8, 'rescaleHeight': True, 'trialN': 47, 'loaded': True, 'loadedTime': 4160.099999904633, 'positionName': 'CENTER', 'positionCoords': [479, 251]}]",Rate how much you want to eat this food from 0 (least) to 10 (most).,91875.09999990463,1669835894284,strawberries,1759.6000001430511,True,8.97,93634.70000004768,1759.6000001430511,True,HRV,HRV_0254,2022-11-30 19:18:40
48,"[{'imgObject': {}, 'id': 'roastedpotatoes', 'src': '/static/foodstim60/roastedpotatoes.jpg', 'key': 'NaN', 'origWidth': 409, 'origHeight': 410, 'width': 409, 'height': 410, 'widthPercent': 0.8, 'rescaleHeight': True, 'trialN': 48, 'loaded': True, 'loadedTime': 4166.799999952316, 'positionName': 'CENTER', 'positionCoords': [479.5, 251]}]",Rate how much you want to eat this food from 0 (least) to 10 (most).,93638.39999985695,1669835896048,roastedpotatoes,2338.7000000476837,True,3.59,95977.09999990463,2338.7000000476837,True,HRV,HRV_0254,2022-11-30 19:18:40
49,"[{'imgObject': {}, 'id': 'banana', 'src': '/static/foodstim60/banana.jpg', 'key': 'NaN', 'origWidth': 410, 'origHeight': 410, 'width': 410, 'height': 410, 'widthPercent': 0.8, 'rescaleHeight': True, 'trialN': 49, 'loaded': True, 'loadedTime': 4272, 'positionName': 'CENTER', 'positionCoords': [479, 251]}]",Rate how much you want to eat this food from 0 (least) to 10 (most).,95981.39999985695,1669835898390,banana,1624.8000001907349,True,8.94,97606.20000004768,1624.8000001907349,True,HRV,HRV_0254,2022-11-30 19:18:40
50,"[{'imgObject': {}, 'id': 'turkey sandwich', 'src': '/static/foodstim60/turkey sandwich.jpg', 'key': 'NaN', 'origWidth': 409, 'origHeight': 409, 'width': 409, 'height': 409, 'widthPercent': 0.8, 'rescaleHeight': True, 'trialN': 50, 'loaded': True, 'loadedTime': 4275, 'positionName': 'CENTER', 'positionCoords': [479.5, 251.5]}]",Rate how much you want to eat this food from 0 (least) to 10 (most).,97611.20000004768,1669835900020,turkey sandwich,2224.2999999523163,True,6.65,99835.5,2224.2999999523163,True,HRV,HRV_0254,2022-11-30 19:18:40
51,"[{'imgObject': {}, 'id': 'raspberries', 'src': '/static/foodstim60/raspberries.jpg', 'key': 'NaN', 'origWidth': 411, 'origHeight': 411, 'width': 411, 'height': 411, 'widthPercent': 0.8, 'rescaleHeight': True, 'trialN': 51, 'loaded': True, 'loadedTime': 4270.700000047684, 'positionName': 'CENTER', 'positionCoords': [478.5, 250.5]}]",Rate how much you want to eat this food from 0 (least) to 10 (most).,99840.0,1669835902249,raspberries,2159.399999856949,True,8.55,101999.39999985695,2159.399999856949,True,HRV,HRV_0254,2022-11-30 19:18:40
52,"[{'imgObject': {}, 'id': 'ice cream sundae 002', 'src': '/static/foodstim60/ice cream sundae 002.jpg', 'key': 'NaN', 'origWidth': 409, 'origHeight': 409, 'width': 409, 'height': 409, 'widthPercent': 0.8, 'rescaleHeight': True, 'trialN': 52, 'loaded': True, 'loadedTime': 4285.5, 'positionName': 'CENTER', 'positionCoords': [479.5, 251.5]}]",Rate how much you want to eat this food from 0 (least) to 10 (most).,102001.79999995232,1669835904411,ice cream sundae 002,2127.9000000953674,True,8.26,104129.70000004768,2127.9000000953674,True,HRV,HRV_0254,2022-11-30 19:18:40
53,"[{'imgObject': {}, 'id': 'bagel and cc', 'src': '/static/foodstim60/bagel and cc.jpg', 'key': 'NaN', 'origWidth': 410, 'origHeight': 410, 'width': 410, 'height': 410, 'widthPercent': 0.8, 'rescaleHeight': True, 'trialN': 53, 'loaded': True, 'loadedTime': 4288.399999856949, 'positionName': 'CENTER', 'positionCoords': [479, 251]}]",Rate how much you want to eat this food from 0 (least) to 10 (most).,104134.79999995232,1669835906544,bagel and cc,2051.0999999046326,True,3.34,106185.89999985695,2051.0999999046326,True,HRV,HRV_0254,2022-11-30 19:18:40
54,"[{'imgObject': {}, 'id': 'Tribe humus pita', 'src': '/static/foodstim60/Tribe humus pita.jpg', 'key': 'NaN', 'origWidth': 411, 'origHeight': 411, 'width': 411, 'height': 411, 'widthPercent': 0.8, 'rescaleHeight': True, 'trialN': 54, 'loaded': True, 'loadedTime': 4302.200000047684, 'positionName': 'CENTER', 'positionCoords': [478.5, 250.5]}]",Rate how much you want to eat this food from 0 (least) to 10 (most).,106190.5,1669835908599,Tribe humus pita,2681.5999999046326,True,6.16,108872.09999990463,2681.5999999046326,True,HRV,HRV_0254,2022-11-30 19:18:40
55,"[{'imgObject': {}, 'id': 'steak', 'src': '/static/foodstim60/steak.jpg', 'key': 'NaN', 'origWidth': 410, 'origHeight': 410, 'width': 410, 'height': 410, 'widthPercent': 0.8, 'rescaleHeight': True, 'trialN': 55, 'loaded': True, 'loadedTime': 4559.700000047684, 'positionName': 'CENTER', 'positionCoords': [479, 251]}]",Rate how much you want to eat this food from 0 (least) to 10 (most).,108874.39999985695,1669835911283,steak,1845.2000000476837,True,3.77,110719.59999990463,1845.2000000476837,True,HRV,HRV_0254,2022-11-30 19:18:40
56,"[{'imgObject': {}, 'id': 'salmon', 'src': '/static/foodstim60/salmon.jpg', 'key': 'NaN', 'origWidth': 410, 'origHeight': 409, 'width': 410, 'height': 409, 'widthPercent': 0.8, 'rescaleHeight': True, 'trialN': 56, 'loaded': True, 'loadedTime': 4563.099999904633, 'positionName': 'CENTER', 'positionCoords': [479, 251.5]}]",Rate how much you want to eat this food from 0 (least) to 10 (most).,110723.79999995232,1669835913133,salmon,1618.0999999046326,True,3.65,112341.89999985695,1618.0999999046326,True,HRV,HRV_0254,2022-11-30 19:18:40
57,"[{'imgObject': {}, 'id': 'tacos', 'src': '/static/foodstim60/tacos.jpg', 'key': 'NaN', 'origWidth': 411, 'origHeight': 411, 'width': 411, 'height': 411, 'widthPercent': 0.8, 'rescaleHeight': True, 'trialN': 57, 'loaded': True, 'loadedTime': 4573.899999856949, 'positionName': 'CENTER', 'positionCoords': [478.5, 250.5]}]",Rate how much you want to eat this food from 0 (least) to 10 (most).,112345.89999985695,1669835914755,tacos,2261.0,True,5.83,114606.89999985695,2261.0,True,HRV,HRV_0254,2022-11-30 19:18:40
58,"[{'imgObject': {}, 'id': 'turkeysandwich', 'src': '/static/foodstim60/turkeysandwich.jpg', 'key': 'NaN', 'origWidth': 409, 'origHeight': 409, 'width': 409, 'height': 409, 'widthPercent': 0.8, 'rescaleHeight': True, 'trialN': 58, 'loaded': True, 'loadedTime': 4576.299999952316, 'positionName': 'CENTER', 'positionCoords': [479.5, 251.5]}]",Rate how much you want to eat this food from 0 (least) to 10 (most).,114610.5,1669835917020,turkeysandwich,1657.2999999523163,True,5.93,116267.79999995232,1657.2999999523163,True,HRV,HRV_0254,2022-11-30 19:18:40
59,"[{'imgObject': {}, 'id': 'fried eggs', 'src': '/static/foodstim60/fried eggs.jpg', 'key': 'NaN', 'origWidth': 410, 'origHeight': 410, 'width': 410, 'height': 410, 'widthPercent': 0.8, 'rescaleHeight': True, 'trialN': 59, 'loaded': True, 'loadedTime': 4584.099999904633, 'positionName': 'CENTER', 'positionCoords': [479, 251]}]",Rate how much you want to eat this food from 0 (least) to 10 (most).,116271.09999990463,1669835918680,fried eggs,2094.2999999523163,True,3.61,118365.39999985695,2094.2999999523163,True,HRV,HRV_0254,2022-11-30 19:18:40
