trialN,stimuli,trialStartTime,trialStartTime_UNIX,stimulus1,stimulus2,stimulus1Bid,stimulus2Bid,delta,selected,rt,rt_UNIX,rt_perfnow,receivedResponse,rsp,trialEndTime,trialDuration,trialEndTime_UNIX,trialDuration_UNIX,exp,subjectId,date
0,"[{'imgObject': {}, 'id': 'Grapes', 'src': '/static/foodstim60/Grapes.jpg', 'key': 'u', 'origWidth': 411, 'origHeight': 411, 'width': 411, 'height': 411, 'widthPercent': 0.45, 'rescaleHeight': False, 'trialN': 0, 'loaded': True, 'loadedTime': 2904, 'positionName': 'LEFT', 'positionCoords': [245.64, 250.5], 'bid': 8.61}, {'imgObject': {}, 'id': 'banana', 'src': '/static/foodstim60/banana.jpg', 'key': 'i', 'origWidth': 410, 'origHeight': 410, 'width': 410, 'height': 410, 'widthPercent': 0.45, 'rescaleHeight': False, 'trialN': 0, 'loaded': True, 'loadedTime': 2905.600000143051, 'positionName': 'RIGHT', 'positionCoords': [711.36, 251], 'bid': 8.49}]",3151.2000000476837,1669836093161,Grapes,banana,8.61,8.49,-0.11999999999999922,banana,1818.9000000953674,1819,1819.5999999046326,True,i,5491.900000095367,2340.7000000476837,1669836095501,2340,HRV,HRV_0254,2022-11-30 19:27:19
1,"[{'imgObject': {}, 'id': 'mango', 'src': '/static/foodstim60/mango.jpg', 'key': 'u', 'origWidth': 411, 'origHeight': 411, 'width': 411, 'height': 411, 'widthPercent': 0.45, 'rescaleHeight': False, 'trialN': 1, 'loaded': True, 'loadedTime': 2914.600000143051, 'positionName': 'LEFT', 'positionCoords': [245.64, 250.5], 'bid': 8.31}, {'imgObject': {}, 'id': 'pear', 'src': '/static/foodstim60/pear.jpg', 'key': 'i', 'origWidth': 411, 'origHeight': 410, 'width': 411, 'height': 410, 'widthPercent': 0.45, 'rescaleHeight': False, 'trialN': 1, 'loaded': True, 'loadedTime': 2926.100000143051, 'positionName': 'RIGHT', 'positionCoords': [711.36, 251], 'bid': 8.870000000000001}]",5492.299999952316,1669836095502,mango,pear,8.31,8.870000000000001,0.5600000000000005,pear,1743.3000001907349,1743,1743.6000001430511,True,i,7755.0,2262.7000000476837,1669836097764,2262,HRV,HRV_0254,2022-11-30 19:27:19
2,"[{'imgObject': {}, 'id': 'shreddedwheatwithmilk', 'src': '/static/foodstim60/shreddedwheatwithmilk.jpg', 'key': 'u', 'origWidth': 410, 'origHeight': 410, 'width': 410, 'height': 410, 'widthPercent': 0.45, 'rescaleHeight': False, 'trialN': 2, 'loaded': True, 'loadedTime': 2936.7000000476837, 'positionName': 'LEFT', 'positionCoords': [246.64, 251], 'bid': 5.83}, {'imgObject': {}, 'id': 'cherry tomato', 'src': '/static/foodstim60/cherry tomato.jpg', 'key': 'i', 'origWidth': 410, 'origHeight': 410, 'width': 410, 'height': 410, 'widthPercent': 0.45, 'rescaleHeight': False, 'trialN': 2, 'loaded': True, 'loadedTime': 2947.9000000953674, 'positionName': 'RIGHT', 'positionCoords': [711.36, 251], 'bid': 8.77}]",7755.299999952316,1669836097765,shreddedwheatwithmilk,cherry tomato,5.83,8.77,2.9399999999999995,cherry tomato,1856.6000001430511,1857,1856.8000001907349,True,i,10115.5,2360.2000000476837,1669836100125,2360,HRV,HRV_0254,2022-11-30 19:27:19
3,"[{'imgObject': {}, 'id': 'raspberries', 'src': '/static/foodstim60/raspberries.jpg', 'key': 'u', 'origWidth': 411, 'origHeight': 411, 'width': 411, 'height': 411, 'widthPercent': 0.45, 'rescaleHeight': False, 'trialN': 3, 'loaded': True, 'loadedTime': 2958.9000000953674, 'positionName': 'LEFT', 'positionCoords': [245.64, 250.5], 'bid': 8.31}, {'imgObject': {}, 'id': 'cherry tomato', 'src': '/static/foodstim60/cherry tomato.jpg', 'key': 'i', 'origWidth': 410, 'origHeight': 410, 'width': 410, 'height': 410, 'widthPercent': 0.45, 'rescaleHeight': False, 'trialN': 3, 'loaded': True, 'loadedTime': 2949.5, 'positionName': 'RIGHT', 'positionCoords': [711.36, 251], 'bid': 8.77}]",10115.700000047684,1669836100125,raspberries,cherry tomato,8.31,8.77,0.4599999999999991,cherry tomato,1403.0999999046326,1404,1403.5,True,i,12032.700000047684,1917.0,1669836102042,1917,HRV,HRV_0254,2022-11-30 19:27:19
4,"[{'imgObject': {}, 'id': 'lox', 'src': '/static/foodstim60/lox.jpg', 'key': 'u', 'origWidth': 410, 'origHeight': 411, 'width': 410, 'height': 411, 'widthPercent': 0.45, 'rescaleHeight': False, 'trialN': 4, 'loaded': True, 'loadedTime': 2971.100000143051, 'positionName': 'LEFT', 'positionCoords': [246.64, 250.5], 'bid': 1.81}, {'imgObject': {}, 'id': 'hotdog w must', 'src': '/static/foodstim60/hotdog w must.jpg', 'key': 'i', 'origWidth': 409, 'origHeight': 409, 'width': 409, 'height': 409, 'widthPercent': 0.45, 'rescaleHeight': False, 'trialN': 4, 'loaded': True, 'loadedTime': 2980.2000000476837, 'positionName': 'RIGHT', 'positionCoords': [711.36, 251.5], 'bid': 3.68}]",12032.900000095367,1669836102042,lox,hotdog w must,1.81,3.68,1.87,hotdog w must,1602.8999998569489,1604,1603.2999999523163,True,i,14147.5,2114.5999999046326,1669836104157,2115,HRV,HRV_0254,2022-11-30 19:27:19
5,"[{'imgObject': {}, 'id': 'Tribe humus pita', 'src': '/static/foodstim60/Tribe humus pita.jpg', 'key': 'u', 'origWidth': 411, 'origHeight': 411, 'width': 411, 'height': 411, 'widthPercent': 0.45, 'rescaleHeight': False, 'trialN': 5, 'loaded': True, 'loadedTime': 2997.100000143051, 'positionName': 'LEFT', 'positionCoords': [245.64, 250.5], 'bid': 6.11}, {'imgObject': {}, 'id': 'chickenfingers', 'src': '/static/foodstim60/chickenfingers.jpg', 'key': 'i', 'origWidth': 410, 'origHeight': 410, 'width': 410, 'height': 410, 'widthPercent': 0.45, 'rescaleHeight': False, 'trialN': 5, 'loaded': True, 'loadedTime': 3009.7000000476837, 'positionName': 'RIGHT', 'positionCoords': [711.36, 251], 'bid': 2.45}]",14147.900000095367,1669836104157,Tribe humus pita,chickenfingers,6.11,2.45,-3.66,Tribe humus pita,1923.3999998569489,1924,1923.8999998569489,True,u,16582.200000047684,2434.2999999523163,1669836106592,2435,HRV,HRV_0254,2022-11-30 19:27:19
6,"[{'imgObject': {}, 'id': 'rigatoni', 'src': '/static/foodstim60/rigatoni.jpg', 'key': 'u', 'origWidth': 411, 'origHeight': 411, 'width': 411, 'height': 411, 'widthPercent': 0.45, 'rescaleHeight': False, 'trialN': 6, 'loaded': True, 'loadedTime': 3009.9000000953674, 'positionName': 'LEFT', 'positionCoords': [245.64, 250.5], 'bid': 2.63}, {'imgObject': {}, 'id': 'olives', 'src': '/static/foodstim60/olives.jpg', 'key': 'i', 'origWidth': 410, 'origHeight': 410, 'width': 410, 'height': 410, 'widthPercent': 0.45, 'rescaleHeight': False, 'trialN': 6, 'loaded': True, 'loadedTime': 3031.600000143051, 'positionName': 'RIGHT', 'positionCoords': [711.36, 251], 'bid': 6.11}]",16582.60000014305,1669836106592,rigatoni,olives,2.63,6.11,3.4800000000000004,olives,1245.5,1246,1245.7999999523163,True,i,18347.10000014305,1764.5,1669836108356,1764,HRV,HRV_0254,2022-11-30 19:27:19
7,"[{'imgObject': {}, 'id': 'salad w chicken', 'src': '/static/foodstim60/salad w chicken.jpg', 'key': 'u', 'origWidth': 411, 'origHeight': 411, 'width': 411, 'height': 411, 'widthPercent': 0.45, 'rescaleHeight': False, 'trialN': 7, 'loaded': True, 'loadedTime': 3034.9000000953674, 'positionName': 'LEFT', 'positionCoords': [245.64, 250.5], 'bid': 7.26}, {'imgObject': {}, 'id': 'bagel plain', 'src': '/static/foodstim60/bagel plain.jpg', 'key': 'i', 'origWidth': 410, 'origHeight': 410, 'width': 410, 'height': 410, 'widthPercent': 0.45, 'rescaleHeight': False, 'trialN': 7, 'loaded': True, 'loadedTime': 3037.600000143051, 'positionName': 'RIGHT', 'positionCoords': [711.36, 251], 'bid': 3.46}]",18347.299999952316,1669836108357,salad w chicken,bagel plain,7.26,3.46,-3.8,salad w chicken,1247.5,1248,1248.0,True,u,20108.299999952316,1761.0,1669836110118,1761,HRV,HRV_0254,2022-11-30 19:27:19
8,"[{'imgObject': {}, 'id': 'fruitsalad', 'src': '/static/foodstim60/fruitsalad.jpg', 'key': 'u', 'origWidth': 410, 'origHeight': 410, 'width': 410, 'height': 410, 'widthPercent': 0.45, 'rescaleHeight': False, 'trialN': 8, 'loaded': True, 'loadedTime': 3041.2000000476837, 'positionName': 'LEFT', 'positionCoords': [246.64, 251], 'bid': 8.33}, {'imgObject': {}, 'id': 'mac & cheese', 'src': '/static/foodstim60/mac & cheese.jpg', 'key': 'i', 'origWidth': 410, 'origHeight': 410, 'width': 410, 'height': 410, 'widthPercent': 0.45, 'rescaleHeight': False, 'trialN': 8, 'loaded': True, 'loadedTime': 3043, 'positionName': 'RIGHT', 'positionCoords': [711.36, 251], 'bid': 5.99}]",20108.60000014305,1669836110118,fruitsalad,mac & cheese,8.33,5.99,-2.34,fruitsalad,1484.6999998092651,1485,1484.7999999523163,True,u,22108.299999952316,1999.6999998092651,1669836112118,2000,HRV,HRV_0254,2022-11-30 19:27:19
9,"[{'imgObject': {}, 'id': 'olives', 'src': '/static/foodstim60/olives.jpg', 'key': 'u', 'origWidth': 410, 'origHeight': 410, 'width': 410, 'height': 410, 'widthPercent': 0.45, 'rescaleHeight': False, 'trialN': 9, 'loaded': True, 'loadedTime': 3031.5, 'positionName': 'LEFT', 'positionCoords': [246.64, 251], 'bid': 6.11}, {'imgObject': {}, 'id': 'Tribe humus pita', 'src': '/static/foodstim60/Tribe humus pita.jpg', 'key': 'i', 'origWidth': 411, 'origHeight': 411, 'width': 411, 'height': 411, 'widthPercent': 0.45, 'rescaleHeight': False, 'trialN': 9, 'loaded': True, 'loadedTime': 2988.2999999523163, 'positionName': 'RIGHT', 'positionCoords': [711.36, 250.5], 'bid': 6.11}]",22108.60000014305,1669836112118,olives,Tribe humus pita,6.11,6.11,0.0,olives,1190.3999998569489,1191,1190.7999999523163,True,u,23807.10000014305,1698.5,1669836113817,1699,HRV,HRV_0254,2022-11-30 19:27:19
10,"[{'imgObject': {}, 'id': 'mac & cheese', 'src': '/static/foodstim60/mac & cheese.jpg', 'key': 'u', 'origWidth': 410, 'origHeight': 410, 'width': 410, 'height': 410, 'widthPercent': 0.45, 'rescaleHeight': False, 'trialN': 10, 'loaded': True, 'loadedTime': 3042.9000000953674, 'positionName': 'LEFT', 'positionCoords': [246.64, 251], 'bid': 5.99}, {'imgObject': {}, 'id': 'kiwi', 'src': '/static/foodstim60/kiwi.jpg', 'key': 'i', 'origWidth': 410, 'origHeight': 410, 'width': 410, 'height': 410, 'widthPercent': 0.45, 'rescaleHeight': False, 'trialN': 10, 'loaded': True, 'loadedTime': 3044.2000000476837, 'positionName': 'RIGHT', 'positionCoords': [711.36, 251], 'bid': 2.19}]",23807.299999952316,1669836113817,mac & cheese,kiwi,5.99,2.19,-3.8000000000000003,mac & cheese,1387.7000000476837,1388,1388.1000001430511,True,u,25704.900000095367,1897.6000001430511,1669836115714,1897,HRV,HRV_0254,2022-11-30 19:27:19
11,"[{'imgObject': {}, 'id': 'seaweed', 'src': '/static/foodstim60/seaweed.jpg', 'key': 'u', 'origWidth': 410, 'origHeight': 410, 'width': 410, 'height': 410, 'widthPercent': 0.45, 'rescaleHeight': False, 'trialN': 11, 'loaded': True, 'loadedTime': 3045.7000000476837, 'positionName': 'LEFT', 'positionCoords': [246.64, 251], 'bid': 3.21}, {'imgObject': {}, 'id': 'roastedpotatoes', 'src': '/static/foodstim60/roastedpotatoes.jpg', 'key': 'i', 'origWidth': 409, 'origHeight': 410, 'width': 409, 'height': 410, 'widthPercent': 0.45, 'rescaleHeight': False, 'trialN': 11, 'loaded': True, 'loadedTime': 3047.100000143051, 'positionName': 'RIGHT', 'positionCoords': [711.36, 251], 'bid': 2.33}]",25705.10000014305,1669836115715,seaweed,roastedpotatoes,3.21,2.33,-0.8799999999999999,seaweed,1362.6999998092651,1363,1363.0,True,u,27573.60000014305,1868.5,1669836117583,1868,HRV,HRV_0254,2022-11-30 19:27:19
12,"[{'imgObject': {}, 'id': 'chickenfingers', 'src': '/static/foodstim60/chickenfingers.jpg', 'key': 'u', 'origWidth': 410, 'origHeight': 410, 'width': 410, 'height': 410, 'widthPercent': 0.45, 'rescaleHeight': False, 'trialN': 12, 'loaded': True, 'loadedTime': 3009.2000000476837, 'positionName': 'LEFT', 'positionCoords': [246.64, 251], 'bid': 2.45}, {'imgObject': {}, 'id': 'bagel and cc', 'src': '/static/foodstim60/bagel and cc.jpg', 'key': 'i', 'origWidth': 410, 'origHeight': 410, 'width': 410, 'height': 410, 'widthPercent': 0.45, 'rescaleHeight': False, 'trialN': 12, 'loaded': True, 'loadedTime': 3047.5, 'positionName': 'RIGHT', 'positionCoords': [711.36, 251], 'bid': 3.62}]",27573.799999952316,1669836117583,chickenfingers,bagel and cc,2.45,3.62,1.17,bagel and cc,1380.8000001907349,1381,1381.1000001430511,True,i,29463.5,1889.7000000476837,1669836119473,1890,HRV,HRV_0254,2022-11-30 19:27:19
13,"[{'imgObject': {}, 'id': 'apple slices', 'src': '/static/foodstim60/apple slices.jpg', 'key': 'u', 'origWidth': 409, 'origHeight': 410, 'width': 409, 'height': 410, 'widthPercent': 0.45, 'rescaleHeight': False, 'trialN': 13, 'loaded': True, 'loadedTime': 3049.7999999523163, 'positionName': 'LEFT', 'positionCoords': [247.64, 251], 'bid': 8.45}, {'imgObject': {}, 'id': 'turkey sandwich', 'src': '/static/foodstim60/turkey sandwich.jpg', 'key': 'i', 'origWidth': 409, 'origHeight': 409, 'width': 409, 'height': 409, 'widthPercent': 0.45, 'rescaleHeight': False, 'trialN': 13, 'loaded': True, 'loadedTime': 3053.100000143051, 'positionName': 'RIGHT', 'positionCoords': [711.36, 251.5], 'bid': 6.5}]",29463.700000047684,1669836119473,apple slices,turkey sandwich,8.45,6.5,-1.9499999999999993,apple slices,1597.4000000953674,1598,1597.7999999523163,True,u,31576.799999952316,2113.0999999046326,1669836121586,2113,HRV,HRV_0254,2022-11-30 19:27:19
14,"[{'imgObject': {}, 'id': 'roastedpotatoes', 'src': '/static/foodstim60/roastedpotatoes.jpg', 'key': 'u', 'origWidth': 409, 'origHeight': 410, 'width': 409, 'height': 410, 'widthPercent': 0.45, 'rescaleHeight': False, 'trialN': 14, 'loaded': True, 'loadedTime': 3045.9000000953674, 'positionName': 'LEFT', 'positionCoords': [247.64, 251], 'bid': 2.33}, {'imgObject': {}, 'id': 'rigatoni', 'src': '/static/foodstim60/rigatoni.jpg', 'key': 'i', 'origWidth': 411, 'origHeight': 411, 'width': 411, 'height': 411, 'widthPercent': 0.45, 'rescaleHeight': False, 'trialN': 14, 'loaded': True, 'loadedTime': 3011.4000000953674, 'positionName': 'RIGHT', 'positionCoords': [711.36, 250.5], 'bid': 2.63}]",31577.10000014305,1669836121587,roastedpotatoes,rigatoni,2.33,2.63,0.2999999999999998,rigatoni,1332.1999998092651,1332,1332.5,True,i,33427.0,1849.8999998569489,1669836123436,1849,HRV,HRV_0254,2022-11-30 19:27:19
15,"[{'imgObject': {}, 'id': 'shreddedwheatwithmilk', 'src': '/static/foodstim60/shreddedwheatwithmilk.jpg', 'key': 'u', 'origWidth': 410, 'origHeight': 410, 'width': 410, 'height': 410, 'widthPercent': 0.45, 'rescaleHeight': False, 'trialN': 15, 'loaded': True, 'loadedTime': 2947.100000143051, 'positionName': 'LEFT', 'positionCoords': [246.64, 251], 'bid': 5.83}, {'imgObject': {}, 'id': 'olives', 'src': '/static/foodstim60/olives.jpg', 'key': 'i', 'origWidth': 410, 'origHeight': 410, 'width': 410, 'height': 410, 'widthPercent': 0.45, 'rescaleHeight': False, 'trialN': 15, 'loaded': True, 'loadedTime': 3031.2999999523163, 'positionName': 'RIGHT', 'positionCoords': [711.36, 251], 'bid': 6.11}]",33427.299999952316,1669836123437,shreddedwheatwithmilk,olives,5.83,6.11,0.28000000000000025,olives,1048.7000000476837,1049,1049.0,True,i,34988.200000047684,1560.9000000953674,1669836124998,1561,HRV,HRV_0254,2022-11-30 19:27:19
16,"[{'imgObject': {}, 'id': 'banana', 'src': '/static/foodstim60/banana.jpg', 'key': 'u', 'origWidth': 410, 'origHeight': 410, 'width': 410, 'height': 410, 'widthPercent': 0.45, 'rescaleHeight': False, 'trialN': 16, 'loaded': True, 'loadedTime': 2905.600000143051, 'positionName': 'LEFT', 'positionCoords': [246.64, 251], 'bid': 8.49}, {'imgObject': {}, 'id': 'blueberries', 'src': '/static/foodstim60/blueberries.jpg', 'key': 'i', 'origWidth': 411, 'origHeight': 411, 'width': 411, 'height': 411, 'widthPercent': 0.45, 'rescaleHeight': False, 'trialN': 16, 'loaded': True, 'loadedTime': 3053.9000000953674, 'positionName': 'RIGHT', 'positionCoords': [711.36, 250.5], 'bid': 6.5}]",34988.5,1669836124998,banana,blueberries,8.49,6.5,-1.9900000000000002,banana,1124.2999999523163,1125,1124.7000000476837,True,u,36619.200000047684,1630.7000000476837,1669836126629,1631,HRV,HRV_0254,2022-11-30 19:27:19
17,"[{'imgObject': {}, 'id': 'sweetpotato', 'src': '/static/foodstim60/sweetpotato.jpg', 'key': 'u', 'origWidth': 410, 'origHeight': 410, 'width': 410, 'height': 410, 'widthPercent': 0.45, 'rescaleHeight': False, 'trialN': 17, 'loaded': True, 'loadedTime': 3055.7000000476837, 'positionName': 'LEFT', 'positionCoords': [246.64, 251], 'bid': 3.91}, {'imgObject': {}, 'id': 'banana', 'src': '/static/foodstim60/banana.jpg', 'key': 'i', 'origWidth': 410, 'origHeight': 410, 'width': 410, 'height': 410, 'widthPercent': 0.45, 'rescaleHeight': False, 'trialN': 17, 'loaded': True, 'loadedTime': 2905.7999999523163, 'positionName': 'RIGHT', 'positionCoords': [711.36, 251], 'bid': 8.49}]",36619.60000014305,1669836126629,sweetpotato,banana,3.91,8.49,4.58,banana,1220.2999999523163,1221,1220.5999999046326,True,i,38354.40000009537,1734.7999999523163,1669836128364,1735,HRV,HRV_0254,2022-11-30 19:27:19
18,"[{'imgObject': {}, 'id': 'baked potato', 'src': '/static/foodstim60/baked potato.jpg', 'key': 'u', 'origWidth': 409, 'origHeight': 410, 'width': 409, 'height': 410, 'widthPercent': 0.45, 'rescaleHeight': False, 'trialN': 18, 'loaded': True, 'loadedTime': 3058.2000000476837, 'positionName': 'LEFT', 'positionCoords': [247.64, 251], 'bid': 3.46}, {'imgObject': {}, 'id': 'turkeysandwich', 'src': '/static/foodstim60/turkeysandwich.jpg', 'key': 'i', 'origWidth': 409, 'origHeight': 409, 'width': 409, 'height': 409, 'widthPercent': 0.45, 'rescaleHeight': False, 'trialN': 18, 'loaded': True, 'loadedTime': 3060.7000000476837, 'positionName': 'RIGHT', 'positionCoords': [711.36, 251.5], 'bid': 5.84}]",38354.700000047684,1669836128364,baked potato,turkeysandwich,3.46,5.84,2.38,turkeysandwich,1321.7000000476837,1322,1322.0,True,i,40190.90000009537,1836.2000000476837,1669836130200,1836,HRV,HRV_0254,2022-11-30 19:27:19
19,"[{'imgObject': {}, 'id': 'seaweed', 'src': '/static/foodstim60/seaweed.jpg', 'key': 'u', 'origWidth': 410, 'origHeight': 410, 'width': 410, 'height': 410, 'widthPercent': 0.45, 'rescaleHeight': False, 'trialN': 19, 'loaded': True, 'loadedTime': 3045.5, 'positionName': 'LEFT', 'positionCoords': [246.64, 251], 'bid': 3.21}, {'imgObject': {}, 'id': 'raisin bran w milk', 'src': '/static/foodstim60/raisin bran w milk.jpg', 'key': 'i', 'origWidth': 411, 'origHeight': 411, 'width': 411, 'height': 411, 'widthPercent': 0.45, 'rescaleHeight': False, 'trialN': 19, 'loaded': True, 'loadedTime': 3061.7000000476837, 'positionName': 'RIGHT', 'positionCoords': [711.36, 250.5], 'bid': 5.73}]",40191.10000014305,1669836130201,seaweed,raisin bran w milk,3.21,5.73,2.5200000000000005,raisin bran w milk,1193.2999999523163,1193,1193.6999998092651,True,i,41899.0,1707.8999998569489,1669836131908,1707,HRV,HRV_0254,2022-11-30 19:27:19
20,"[{'imgObject': {}, 'id': 'granola w milk', 'src': '/static/foodstim60/granola w milk.jpg', 'key': 'u', 'origWidth': 410, 'origHeight': 410, 'width': 410, 'height': 410, 'widthPercent': 0.45, 'rescaleHeight': False, 'trialN': 20, 'loaded': True, 'loadedTime': 3062.5, 'positionName': 'LEFT', 'positionCoords': [246.64, 251], 'bid': 5.93}, {'imgObject': {}, 'id': 'popsicles', 'src': '/static/foodstim60/popsicles.jpg', 'key': 'i', 'origWidth': 410, 'origHeight': 410, 'width': 410, 'height': 410, 'widthPercent': 0.45, 'rescaleHeight': False, 'trialN': 20, 'loaded': True, 'loadedTime': 3063.600000143051, 'positionName': 'RIGHT', 'positionCoords': [711.36, 251], 'bid': 5.93}]",41899.200000047684,1669836131909,granola w milk,popsicles,5.93,5.93,0.0,popsicles,1033.0999999046326,1033,1033.4000000953674,True,i,43435.0,1535.7999999523163,1669836133445,1536,HRV,HRV_0254,2022-11-30 19:27:19
21,"[{'imgObject': {}, 'id': 'tacos', 'src': '/static/foodstim60/tacos.jpg', 'key': 'u', 'origWidth': 411, 'origHeight': 411, 'width': 411, 'height': 411, 'widthPercent': 0.45, 'rescaleHeight': False, 'trialN': 21, 'loaded': True, 'loadedTime': 3064.7000000476837, 'positionName': 'LEFT', 'positionCoords': [245.64, 250.5], 'bid': 5.62}, {'imgObject': {}, 'id': 'corn cob', 'src': '/static/foodstim60/corn cob.jpg', 'key': 'i', 'origWidth': 411, 'origHeight': 411, 'width': 411, 'height': 411, 'widthPercent': 0.45, 'rescaleHeight': False, 'trialN': 21, 'loaded': True, 'loadedTime': 3070.5, 'positionName': 'RIGHT', 'positionCoords': [711.36, 250.5], 'bid': 2.92}]",43435.200000047684,1669836133445,tacos,corn cob,5.62,2.92,-2.7,tacos,2181.7999999523163,2182,2182.2999999523163,True,u,46124.200000047684,2689.0,1669836136134,2689,HRV,HRV_0254,2022-11-30 19:27:19
22,"[{'imgObject': {}, 'id': 'baked potato', 'src': '/static/foodstim60/baked potato.jpg', 'key': 'u', 'origWidth': 409, 'origHeight': 410, 'width': 409, 'height': 410, 'widthPercent': 0.45, 'rescaleHeight': False, 'trialN': 22, 'loaded': True, 'loadedTime': 3058.7000000476837, 'positionName': 'LEFT', 'positionCoords': [247.64, 251], 'bid': 3.46}, {'imgObject': {}, 'id': 'burger', 'src': '/static/foodstim60/burger.jpg', 'key': 'i', 'origWidth': 409, 'origHeight': 409, 'width': 409, 'height': 409, 'widthPercent': 0.45, 'rescaleHeight': False, 'trialN': 22, 'loaded': True, 'loadedTime': 3071.2999999523163, 'positionName': 'RIGHT', 'positionCoords': [711.36, 251.5], 'bid': 7.140000000000001}]",46124.5,1669836136134,baked potato,burger,3.46,7.140000000000001,3.6800000000000006,burger,1269.9000000953674,1264,1270.2999999523163,True,i,47902.60000014305,1778.1000001430511,1669836137906,1772,HRV,HRV_0254,2022-11-30 19:27:19
23,"[{'imgObject': {}, 'id': 'tacos', 'src': '/static/foodstim60/tacos.jpg', 'key': 'u', 'origWidth': 411, 'origHeight': 411, 'width': 411, 'height': 411, 'widthPercent': 0.45, 'rescaleHeight': False, 'trialN': 23, 'loaded': True, 'loadedTime': 3065.2999999523163, 'positionName': 'LEFT', 'positionCoords': [245.64, 250.5], 'bid': 5.62}, {'imgObject': {}, 'id': 'mashed potato', 'src': '/static/foodstim60/mashed potato.jpg', 'key': 'i', 'origWidth': 409, 'origHeight': 409, 'width': 409, 'height': 409, 'widthPercent': 0.45, 'rescaleHeight': False, 'trialN': 23, 'loaded': True, 'loadedTime': 3078.100000143051, 'positionName': 'RIGHT', 'positionCoords': [711.36, 251.5], 'bid': 6.0200000000000005}]",47902.799999952316,1669836137906,tacos,mashed potato,5.62,6.0200000000000005,0.40000000000000036,tacos,1592.8000001907349,1594,1593.2000000476837,True,u,50009.0,2106.2000000476837,1669836140013,2107,HRV,HRV_0254,2022-11-30 19:27:19
24,"[{'imgObject': {}, 'id': 'fruitsalad', 'src': '/static/foodstim60/fruitsalad.jpg', 'key': 'u', 'origWidth': 410, 'origHeight': 410, 'width': 410, 'height': 410, 'widthPercent': 0.45, 'rescaleHeight': False, 'trialN': 24, 'loaded': True, 'loadedTime': 3039.7999999523163, 'positionName': 'LEFT', 'positionCoords': [246.64, 251], 'bid': 8.33}, {'imgObject': {}, 'id': 'cantaloupe', 'src': '/static/foodstim60/cantaloupe.jpg', 'key': 'i', 'origWidth': 409, 'origHeight': 409, 'width': 409, 'height': 409, 'widthPercent': 0.45, 'rescaleHeight': False, 'trialN': 24, 'loaded': True, 'loadedTime': 3079.7000000476837, 'positionName': 'RIGHT', 'positionCoords': [711.36, 251.5], 'bid': 8.97}]",50009.10000014305,1669836140013,fruitsalad,cantaloupe,8.33,8.97,0.6400000000000006,cantaloupe,1414.3999998569489,1414,1414.6999998092651,True,i,51935.200000047684,1926.0999999046326,1669836141939,1926,HRV,HRV_0254,2022-11-30 19:27:19
25,"[{'imgObject': {}, 'id': 'veggieswithdip', 'src': '/static/foodstim60/veggieswithdip.jpg', 'key': 'u', 'origWidth': 409, 'origHeight': 409, 'width': 409, 'height': 409, 'widthPercent': 0.45, 'rescaleHeight': False, 'trialN': 25, 'loaded': True, 'loadedTime': 3080.9000000953674, 'positionName': 'LEFT', 'positionCoords': [247.64, 251.5], 'bid': 8.75}, {'imgObject': {}, 'id': 'raisin bran w milk', 'src': '/static/foodstim60/raisin bran w milk.jpg', 'key': 'i', 'origWidth': 411, 'origHeight': 411, 'width': 411, 'height': 411, 'widthPercent': 0.45, 'rescaleHeight': False, 'trialN': 25, 'loaded': True, 'loadedTime': 3060.7999999523163, 'positionName': 'RIGHT', 'positionCoords': [711.36, 250.5], 'bid': 5.73}]",51935.5,1669836141939,veggieswithdip,raisin bran w milk,8.75,5.73,-3.0199999999999996,veggieswithdip,1255.5,1256,1255.7999999523163,True,u,53714.40000009537,1778.9000000953674,1669836143718,1779,HRV,HRV_0254,2022-11-30 19:27:19
26,"[{'imgObject': {}, 'id': 'grilled chicken strips', 'src': '/static/foodstim60/grilled chicken strips.jpg', 'key': 'u', 'origWidth': 410, 'origHeight': 411, 'width': 410, 'height': 411, 'widthPercent': 0.45, 'rescaleHeight': False, 'trialN': 26, 'loaded': True, 'loadedTime': 3088.2000000476837, 'positionName': 'LEFT', 'positionCoords': [246.64, 250.5], 'bid': 6.19}, {'imgObject': {}, 'id': 'olives', 'src': '/static/foodstim60/olives.jpg', 'key': 'i', 'origWidth': 410, 'origHeight': 410, 'width': 410, 'height': 410, 'widthPercent': 0.45, 'rescaleHeight': False, 'trialN': 26, 'loaded': True, 'loadedTime': 3031.7000000476837, 'positionName': 'RIGHT', 'positionCoords': [711.36, 251], 'bid': 6.11}]",53714.60000014305,1669836143718,grilled chicken strips,olives,6.19,6.11,-0.08000000000000007,olives,1058.5,1059,1058.8999998569489,True,i,55287.0,1572.3999998569489,1669836145291,1573,HRV,HRV_0254,2022-11-30 19:27:19
27,"[{'imgObject': {}, 'id': 'blueberries', 'src': '/static/foodstim60/blueberries.jpg', 'key': 'u', 'origWidth': 411, 'origHeight': 411, 'width': 411, 'height': 411, 'widthPercent': 0.45, 'rescaleHeight': False, 'trialN': 27, 'loaded': True, 'loadedTime': 3055.600000143051, 'positionName': 'LEFT', 'positionCoords': [245.64, 250.5], 'bid': 6.5}, {'imgObject': {}, 'id': 'blackbeanswithrice', 'src': '/static/foodstim60/blackbeanswithrice.jpg', 'key': 'i', 'origWidth': 410, 'origHeight': 410, 'width': 410, 'height': 410, 'widthPercent': 0.45, 'rescaleHeight': False, 'trialN': 27, 'loaded': True, 'loadedTime': 3094.7000000476837, 'positionName': 'RIGHT', 'positionCoords': [711.36, 251], 'bid': 6.28}]",55287.299999952316,1669836145291,blueberries,blackbeanswithrice,6.5,6.28,-0.21999999999999975,blackbeanswithrice,1302.9000000953674,1303,1303.3000001907349,True,i,57097.60000014305,1810.3000001907349,1669836147101,1810,HRV,HRV_0254,2022-11-30 19:27:19
28,"[{'imgObject': {}, 'id': 'baked potato', 'src': '/static/foodstim60/baked potato.jpg', 'key': 'u', 'origWidth': 409, 'origHeight': 410, 'width': 409, 'height': 410, 'widthPercent': 0.45, 'rescaleHeight': False, 'trialN': 28, 'loaded': True, 'loadedTime': 3058.600000143051, 'positionName': 'LEFT', 'positionCoords': [247.64, 251], 'bid': 3.46}, {'imgObject': {}, 'id': 'fried eggs', 'src': '/static/foodstim60/fried eggs.jpg', 'key': 'i', 'origWidth': 410, 'origHeight': 410, 'width': 410, 'height': 410, 'widthPercent': 0.45, 'rescaleHeight': False, 'trialN': 28, 'loaded': True, 'loadedTime': 3094.7999999523163, 'positionName': 'RIGHT', 'positionCoords': [711.36, 251], 'bid': 3.37}]",57097.90000009537,1669836147101,baked potato,fried eggs,3.46,3.37,-0.08999999999999986,baked potato,1649.5999999046326,1650,1650.0,True,u,59259.0,2161.0999999046326,1669836149263,2162,HRV,HRV_0254,2022-11-30 19:27:19
29,"[{'imgObject': {}, 'id': 'sushi w_condiments', 'src': '/static/foodstim60/sushi w_condiments.jpg', 'key': 'u', 'origWidth': 410, 'origHeight': 410, 'width': 410, 'height': 410, 'widthPercent': 0.45, 'rescaleHeight': False, 'trialN': 29, 'loaded': True, 'loadedTime': 3096.4000000953674, 'positionName': 'LEFT', 'positionCoords': [246.64, 251], 'bid': 2.9}, {'imgObject': {}, 'id': 'steak', 'src': '/static/foodstim60/steak.jpg', 'key': 'i', 'origWidth': 410, 'origHeight': 410, 'width': 410, 'height': 410, 'widthPercent': 0.45, 'rescaleHeight': False, 'trialN': 29, 'loaded': True, 'loadedTime': 3096.7000000476837, 'positionName': 'RIGHT', 'positionCoords': [711.36, 251], 'bid': 2.89}]",59259.299999952316,1669836149263,sushi w_condiments,steak,2.9,2.89,-0.009999999999999787,steak,2114.4000000953674,2115,2114.800000190735,True,i,61881.10000014305,2621.800000190735,1669836151885,2622,HRV,HRV_0254,2022-11-30 19:27:19
30,"[{'imgObject': {}, 'id': 'froot loops w milk', 'src': '/static/foodstim60/froot loops w milk.jpg', 'key': 'u', 'origWidth': 410, 'origHeight': 410, 'width': 410, 'height': 410, 'widthPercent': 0.45, 'rescaleHeight': False, 'trialN': 30, 'loaded': True, 'loadedTime': 3101.7000000476837, 'positionName': 'LEFT', 'positionCoords': [246.64, 251], 'bid': 1.76}, {'imgObject': {}, 'id': 'luckycharms', 'src': '/static/foodstim60/luckycharms.jpg', 'key': 'i', 'origWidth': 410, 'origHeight': 409, 'width': 410, 'height': 409, 'widthPercent': 0.45, 'rescaleHeight': False, 'trialN': 30, 'loaded': True, 'loadedTime': 3107.100000143051, 'positionName': 'RIGHT', 'positionCoords': [711.36, 251.5], 'bid': 1.28}]",61881.200000047684,1669836151885,froot loops w milk,luckycharms,1.76,1.28,-0.48,froot loops w milk,1619.5,1620,1619.7999999523163,True,u,64008.799999952316,2127.5999999046326,1669836154012,2127,HRV,HRV_0254,2022-11-30 19:27:19
31,"[{'imgObject': {}, 'id': 'chicken nuggets2', 'src': '/static/foodstim60/chicken nuggets2.jpg', 'key': 'u', 'origWidth': 410, 'origHeight': 409, 'width': 410, 'height': 409, 'widthPercent': 0.45, 'rescaleHeight': False, 'trialN': 31, 'loaded': True, 'loadedTime': 3108.9000000953674, 'positionName': 'LEFT', 'positionCoords': [246.64, 251.5], 'bid': 1.49}, {'imgObject': {}, 'id': 'lox', 'src': '/static/foodstim60/lox.jpg', 'key': 'i', 'origWidth': 410, 'origHeight': 411, 'width': 410, 'height': 411, 'widthPercent': 0.45, 'rescaleHeight': False, 'trialN': 31, 'loaded': True, 'loadedTime': 2971.2000000476837, 'positionName': 'RIGHT', 'positionCoords': [711.36, 250.5], 'bid': 1.81}]",64008.90000009537,1669836154013,chicken nuggets2,lox,1.49,1.81,0.32000000000000006,chicken nuggets2,1623.3999998569489,1623,1623.5,True,u,66139.90000009537,2131.0,1669836156144,2131,HRV,HRV_0254,2022-11-30 19:27:19
32,"[{'imgObject': {}, 'id': 'strawberries', 'src': '/static/foodstim60/strawberries.jpg', 'key': 'u', 'origWidth': 410, 'origHeight': 410, 'width': 410, 'height': 410, 'widthPercent': 0.45, 'rescaleHeight': False, 'trialN': 32, 'loaded': True, 'loadedTime': 3114.600000143051, 'positionName': 'LEFT', 'positionCoords': [246.64, 251], 'bid': 8.43}, {'imgObject': {}, 'id': 'apple slices', 'src': '/static/foodstim60/apple slices.jpg', 'key': 'i', 'origWidth': 409, 'origHeight': 410, 'width': 409, 'height': 410, 'widthPercent': 0.45, 'rescaleHeight': False, 'trialN': 32, 'loaded': True, 'loadedTime': 3051, 'positionName': 'RIGHT', 'positionCoords': [711.36, 251], 'bid': 8.45}]",66140.20000004768,1669836156144,strawberries,apple slices,8.43,8.45,0.019999999999999574,strawberries,1233.7000000476837,1234,1234.0999999046326,True,u,67886.90000009537,1746.7000000476837,1669836157891,1747,HRV,HRV_0254,2022-11-30 19:27:19
33,"[{'imgObject': {}, 'id': 'mashed potato', 'src': '/static/foodstim60/mashed potato.jpg', 'key': 'u', 'origWidth': 409, 'origHeight': 409, 'width': 409, 'height': 409, 'widthPercent': 0.45, 'rescaleHeight': False, 'trialN': 33, 'loaded': True, 'loadedTime': 3078.100000143051, 'positionName': 'LEFT', 'positionCoords': [247.64, 251.5], 'bid': 6.0200000000000005}, {'imgObject': {}, 'id': 'eggs', 'src': '/static/foodstim60/eggs.jpg', 'key': 'i', 'origWidth': 409, 'origHeight': 409, 'width': 409, 'height': 409, 'widthPercent': 0.45, 'rescaleHeight': False, 'trialN': 33, 'loaded': True, 'loadedTime': 3114.600000143051, 'positionName': 'RIGHT', 'positionCoords': [711.36, 251.5], 'bid': 5.86}]",67887.10000014305,1669836157891,mashed potato,eggs,6.0200000000000005,5.86,-0.16000000000000014,eggs,1249.2999999523163,1249,1249.6999998092651,True,i,69651.10000014305,1764.0,1669836159655,1764,HRV,HRV_0254,2022-11-30 19:27:19
34,"[{'imgObject': {}, 'id': 'kiwi', 'src': '/static/foodstim60/kiwi.jpg', 'key': 'u', 'origWidth': 410, 'origHeight': 410, 'width': 410, 'height': 410, 'widthPercent': 0.45, 'rescaleHeight': False, 'trialN': 34, 'loaded': True, 'loadedTime': 3043, 'positionName': 'LEFT', 'positionCoords': [246.64, 251], 'bid': 2.19}, {'imgObject': {}, 'id': 'bagel plain', 'src': '/static/foodstim60/bagel plain.jpg', 'key': 'i', 'origWidth': 410, 'origHeight': 410, 'width': 410, 'height': 410, 'widthPercent': 0.45, 'rescaleHeight': False, 'trialN': 34, 'loaded': True, 'loadedTime': 3039.5, 'positionName': 'RIGHT', 'positionCoords': [711.36, 251], 'bid': 3.46}]",69651.29999995232,1669836159655,kiwi,bagel plain,2.19,3.46,1.27,bagel plain,1330.9000000953674,1331,1331.2000000476837,True,i,71492.20000004768,1840.9000000953674,1669836161496,1841,HRV,HRV_0254,2022-11-30 19:27:19
35,"[{'imgObject': {}, 'id': 'hashbrowns', 'src': '/static/foodstim60/hashbrowns.jpg', 'key': 'u', 'origWidth': 411, 'origHeight': 410, 'width': 411, 'height': 410, 'widthPercent': 0.45, 'rescaleHeight': False, 'trialN': 35, 'loaded': True, 'loadedTime': 3116.5, 'positionName': 'LEFT', 'positionCoords': [245.64, 251], 'bid': 5.36}, {'imgObject': {}, 'id': 'sweetpotato', 'src': '/static/foodstim60/sweetpotato.jpg', 'key': 'i', 'origWidth': 410, 'origHeight': 410, 'width': 410, 'height': 410, 'widthPercent': 0.45, 'rescaleHeight': False, 'trialN': 35, 'loaded': True, 'loadedTime': 3056.4000000953674, 'positionName': 'RIGHT', 'positionCoords': [711.36, 251], 'bid': 3.91}]",71492.29999995232,1669836161496,hashbrowns,sweetpotato,5.36,3.91,-1.4500000000000002,sweetpotato,1429.3000001907349,1430,1429.6000001430511,True,i,73439.90000009537,1947.6000001430511,1669836163443,1947,HRV,HRV_0254,2022-11-30 19:27:19
36,"[{'imgObject': {}, 'id': 'granola w milk', 'src': '/static/foodstim60/granola w milk.jpg', 'key': 'u', 'origWidth': 410, 'origHeight': 410, 'width': 410, 'height': 410, 'widthPercent': 0.45, 'rescaleHeight': False, 'trialN': 36, 'loaded': True, 'loadedTime': 3062.600000143051, 'positionName': 'LEFT', 'positionCoords': [246.64, 251], 'bid': 5.93}, {'imgObject': {}, 'id': 'sweetpotato', 'src': '/static/foodstim60/sweetpotato.jpg', 'key': 'i', 'origWidth': 410, 'origHeight': 410, 'width': 410, 'height': 410, 'widthPercent': 0.45, 'rescaleHeight': False, 'trialN': 36, 'loaded': True, 'loadedTime': 3056.600000143051, 'positionName': 'RIGHT', 'positionCoords': [711.36, 251], 'bid': 3.91}]",73440.0,1669836163444,granola w milk,sweetpotato,5.93,3.91,-2.0199999999999996,granola w milk,1395.7999999523163,1396,1396.1000001430511,True,u,75353.0,1913.0,1669836165357,1913,HRV,HRV_0254,2022-11-30 19:27:19
37,"[{'imgObject': {}, 'id': 'baked potato', 'src': '/static/foodstim60/baked potato.jpg', 'key': 'u', 'origWidth': 409, 'origHeight': 410, 'width': 409, 'height': 410, 'widthPercent': 0.45, 'rescaleHeight': False, 'trialN': 37, 'loaded': True, 'loadedTime': 3057, 'positionName': 'LEFT', 'positionCoords': [247.64, 251], 'bid': 3.46}, {'imgObject': {}, 'id': 'omelette', 'src': '/static/foodstim60/omelette.jpg', 'key': 'i', 'origWidth': 410, 'origHeight': 409, 'width': 410, 'height': 409, 'widthPercent': 0.45, 'rescaleHeight': False, 'trialN': 37, 'loaded': True, 'loadedTime': 3122.600000143051, 'positionName': 'RIGHT', 'positionCoords': [711.36, 251.5], 'bid': 3.84}]",75353.29999995232,1669836165357,baked potato,omelette,3.46,3.84,0.3799999999999999,baked potato,1314.1000001430511,1314,1314.4000000953674,True,u,77173.20000004768,1819.9000000953674,1669836167177,1820,HRV,HRV_0254,2022-11-30 19:27:19
38,"[{'imgObject': {}, 'id': 'Tribe humus pita', 'src': '/static/foodstim60/Tribe humus pita.jpg', 'key': 'u', 'origWidth': 411, 'origHeight': 411, 'width': 411, 'height': 411, 'widthPercent': 0.45, 'rescaleHeight': False, 'trialN': 38, 'loaded': True, 'loadedTime': 2989.2999999523163, 'positionName': 'LEFT', 'positionCoords': [245.64, 250.5], 'bid': 6.11}, {'imgObject': {}, 'id': 'apple slices', 'src': '/static/foodstim60/apple slices.jpg', 'key': 'i', 'origWidth': 409, 'origHeight': 410, 'width': 409, 'height': 410, 'widthPercent': 0.45, 'rescaleHeight': False, 'trialN': 38, 'loaded': True, 'loadedTime': 3050.4000000953674, 'positionName': 'RIGHT', 'positionCoords': [711.36, 251], 'bid': 8.45}]",77173.40000009537,1669836167177,Tribe humus pita,apple slices,6.11,8.45,2.339999999999999,apple slices,1460.2000000476837,1460,1460.3999998569489,True,i,79146.0,1972.5999999046326,1669836169150,1973,HRV,HRV_0254,2022-11-30 19:27:19
39,"[{'imgObject': {}, 'id': 'burrito', 'src': '/static/foodstim60/burrito.jpg', 'key': 'u', 'origWidth': 410, 'origHeight': 410, 'width': 410, 'height': 410, 'widthPercent': 0.45, 'rescaleHeight': False, 'trialN': 39, 'loaded': True, 'loadedTime': 3123, 'positionName': 'LEFT', 'positionCoords': [246.64, 251], 'bid': 3.9}, {'imgObject': {}, 'id': 'cheerios', 'src': '/static/foodstim60/cheerios.jpg', 'key': 'i', 'origWidth': 409, 'origHeight': 410, 'width': 409, 'height': 410, 'widthPercent': 0.45, 'rescaleHeight': False, 'trialN': 39, 'loaded': True, 'loadedTime': 3125.2999999523163, 'positionName': 'RIGHT', 'positionCoords': [711.36, 251], 'bid': 3.88}]",79146.40000009537,1669836169150,burrito,cheerios,3.9,3.88,-0.020000000000000018,cheerios,1411.5999999046326,1412,1412.0,True,i,81060.79999995232,1914.3999998569489,1669836171064,1914,HRV,HRV_0254,2022-11-30 19:27:19
40,"[{'imgObject': {}, 'id': 'chickenfingers', 'src': '/static/foodstim60/chickenfingers.jpg', 'key': 'u', 'origWidth': 410, 'origHeight': 410, 'width': 410, 'height': 410, 'widthPercent': 0.45, 'rescaleHeight': False, 'trialN': 40, 'loaded': True, 'loadedTime': 2998.7000000476837, 'positionName': 'LEFT', 'positionCoords': [246.64, 251], 'bid': 2.45}, {'imgObject': {}, 'id': 'luckycharms', 'src': '/static/foodstim60/luckycharms.jpg', 'key': 'i', 'origWidth': 410, 'origHeight': 409, 'width': 410, 'height': 409, 'widthPercent': 0.45, 'rescaleHeight': False, 'trialN': 40, 'loaded': True, 'loadedTime': 3107, 'positionName': 'RIGHT', 'positionCoords': [711.36, 251.5], 'bid': 1.28}]",81061.0,1669836171065,chickenfingers,luckycharms,2.45,1.28,-1.1700000000000002,chickenfingers,1882.2000000476837,1882,1882.5,True,u,83451.70000004768,2390.7000000476837,1669836173455,2390,HRV,HRV_0254,2022-11-30 19:27:19
41,"[{'imgObject': {}, 'id': 'burrito', 'src': '/static/foodstim60/burrito.jpg', 'key': 'u', 'origWidth': 410, 'origHeight': 410, 'width': 410, 'height': 410, 'widthPercent': 0.45, 'rescaleHeight': False, 'trialN': 41, 'loaded': True, 'loadedTime': 3124.4000000953674, 'positionName': 'LEFT', 'positionCoords': [246.64, 251], 'bid': 3.9}, {'imgObject': {}, 'id': 'apple slices', 'src': '/static/foodstim60/apple slices.jpg', 'key': 'i', 'origWidth': 409, 'origHeight': 410, 'width': 409, 'height': 410, 'widthPercent': 0.45, 'rescaleHeight': False, 'trialN': 41, 'loaded': True, 'loadedTime': 3050.600000143051, 'positionName': 'RIGHT', 'positionCoords': [711.36, 251], 'bid': 8.45}]",83451.90000009537,1669836173456,burrito,apple slices,3.9,8.45,4.549999999999999,apple slices,1321.7000000476837,1322,1322.2000000476837,True,i,85280.90000009537,1829.0,1669836175285,1829,HRV,HRV_0254,2022-11-30 19:27:19
42,"[{'imgObject': {}, 'id': 'steak', 'src': '/static/foodstim60/steak.jpg', 'key': 'u', 'origWidth': 410, 'origHeight': 410, 'width': 410, 'height': 410, 'widthPercent': 0.45, 'rescaleHeight': False, 'trialN': 42, 'loaded': True, 'loadedTime': 3097.7000000476837, 'positionName': 'LEFT', 'positionCoords': [246.64, 251], 'bid': 2.89}, {'imgObject': {}, 'id': 'hotdog w must', 'src': '/static/foodstim60/hotdog w must.jpg', 'key': 'i', 'origWidth': 409, 'origHeight': 409, 'width': 409, 'height': 409, 'widthPercent': 0.45, 'rescaleHeight': False, 'trialN': 42, 'loaded': True, 'loadedTime': 2978.7999999523163, 'positionName': 'RIGHT', 'positionCoords': [711.36, 251.5], 'bid': 3.68}]",85281.10000014305,1669836175285,steak,hotdog w must,2.89,3.68,0.79,hotdog w must,1373.6999998092651,1374,1373.8999998569489,True,i,87179.0,1897.8999998569489,1669836177183,1898,HRV,HRV_0254,2022-11-30 19:27:19
43,"[{'imgObject': {}, 'id': 'Grapes', 'src': '/static/foodstim60/Grapes.jpg', 'key': 'u', 'origWidth': 411, 'origHeight': 411, 'width': 411, 'height': 411, 'widthPercent': 0.45, 'rescaleHeight': False, 'trialN': 43, 'loaded': True, 'loadedTime': 2896.4000000953674, 'positionName': 'LEFT', 'positionCoords': [245.64, 250.5], 'bid': 8.61}, {'imgObject': {}, 'id': 'salad w chicken', 'src': '/static/foodstim60/salad w chicken.jpg', 'key': 'i', 'origWidth': 411, 'origHeight': 411, 'width': 411, 'height': 411, 'widthPercent': 0.45, 'rescaleHeight': False, 'trialN': 43, 'loaded': True, 'loadedTime': 3034.2999999523163, 'positionName': 'RIGHT', 'positionCoords': [711.36, 250.5], 'bid': 7.26}]",87179.20000004768,1669836177183,Grapes,salad w chicken,8.61,7.26,-1.3499999999999996,Grapes,1379.0999999046326,1379,1379.4000000953674,True,u,89064.60000014305,1885.4000000953674,1669836179068,1885,HRV,HRV_0254,2022-11-30 19:27:19
44,"[{'imgObject': {}, 'id': 'salmon', 'src': '/static/foodstim60/salmon.jpg', 'key': 'u', 'origWidth': 410, 'origHeight': 409, 'width': 410, 'height': 409, 'widthPercent': 0.45, 'rescaleHeight': False, 'trialN': 44, 'loaded': True, 'loadedTime': 3125.7000000476837, 'positionName': 'LEFT', 'positionCoords': [246.64, 251.5], 'bid': 5.89}, {'imgObject': {}, 'id': 'cheerios', 'src': '/static/foodstim60/cheerios.jpg', 'key': 'i', 'origWidth': 409, 'origHeight': 410, 'width': 409, 'height': 410, 'widthPercent': 0.45, 'rescaleHeight': False, 'trialN': 44, 'loaded': True, 'loadedTime': 3125.5, 'positionName': 'RIGHT', 'positionCoords': [711.36, 251], 'bid': 3.88}]",89064.79999995232,1669836179068,salmon,cheerios,5.89,3.88,-2.01,salmon,1490.2000000476837,1491,1490.8000001907349,True,u,91065.0,2000.2000000476837,1669836181069,2001,HRV,HRV_0254,2022-11-30 19:27:19
45,"[{'imgObject': {}, 'id': 'eggs', 'src': '/static/foodstim60/eggs.jpg', 'key': 'u', 'origWidth': 409, 'origHeight': 409, 'width': 409, 'height': 409, 'widthPercent': 0.45, 'rescaleHeight': False, 'trialN': 45, 'loaded': True, 'loadedTime': 3115.600000143051, 'positionName': 'LEFT', 'positionCoords': [247.64, 251.5], 'bid': 5.86}, {'imgObject': {}, 'id': 'grilled chicken strips', 'src': '/static/foodstim60/grilled chicken strips.jpg', 'key': 'i', 'origWidth': 410, 'origHeight': 411, 'width': 410, 'height': 411, 'widthPercent': 0.45, 'rescaleHeight': False, 'trialN': 45, 'loaded': True, 'loadedTime': 3088.100000143051, 'positionName': 'RIGHT', 'positionCoords': [711.36, 250.5], 'bid': 6.19}]",91065.29999995232,1669836181069,eggs,grilled chicken strips,5.86,6.19,0.33000000000000007,eggs,1216.8000001907349,1217,1217.2000000476837,True,u,92787.79999995232,1722.5,1669836182791,1722,HRV,HRV_0254,2022-11-30 19:27:19
46,"[{'imgObject': {}, 'id': 'chicken nuggets2', 'src': '/static/foodstim60/chicken nuggets2.jpg', 'key': 'u', 'origWidth': 410, 'origHeight': 409, 'width': 410, 'height': 409, 'widthPercent': 0.45, 'rescaleHeight': False, 'trialN': 46, 'loaded': True, 'loadedTime': 3108.9000000953674, 'positionName': 'LEFT', 'positionCoords': [246.64, 251.5], 'bid': 1.49}, {'imgObject': {}, 'id': 'luckycharms', 'src': '/static/foodstim60/luckycharms.jpg', 'key': 'i', 'origWidth': 410, 'origHeight': 409, 'width': 410, 'height': 409, 'widthPercent': 0.45, 'rescaleHeight': False, 'trialN': 46, 'loaded': True, 'loadedTime': 3106.7000000476837, 'positionName': 'RIGHT', 'positionCoords': [711.36, 251.5], 'bid': 1.28}]",92788.10000014305,1669836182792,chicken nuggets2,luckycharms,1.49,1.28,-0.20999999999999996,luckycharms,2270.199999809265,2270,2270.699999809265,True,i,95570.70000004768,2782.5999999046326,1669836185574,2782,HRV,HRV_0254,2022-11-30 19:27:19
47,"[{'imgObject': {}, 'id': 'cherries', 'src': '/static/foodstim60/cherries.jpg', 'key': 'u', 'origWidth': 410, 'origHeight': 411, 'width': 410, 'height': 411, 'widthPercent': 0.45, 'rescaleHeight': False, 'trialN': 47, 'loaded': True, 'loadedTime': 3135.100000143051, 'positionName': 'LEFT', 'positionCoords': [246.64, 250.5], 'bid': 8.53}, {'imgObject': {}, 'id': 'hashbrowns', 'src': '/static/foodstim60/hashbrowns.jpg', 'key': 'i', 'origWidth': 411, 'origHeight': 410, 'width': 411, 'height': 410, 'widthPercent': 0.45, 'rescaleHeight': False, 'trialN': 47, 'loaded': True, 'loadedTime': 3116.5, 'positionName': 'RIGHT', 'positionCoords': [711.36, 251], 'bid': 5.36}]",95570.90000009537,1669836185574,cherries,hashbrowns,8.53,5.36,-3.169999999999999,cherries,1681.0999999046326,1682,1681.5,True,u,97761.20000004768,2190.2999999523163,1669836187765,2191,HRV,HRV_0254,2022-11-30 19:27:19
48,"[{'imgObject': {}, 'id': 'bagel and cc', 'src': '/static/foodstim60/bagel and cc.jpg', 'key': 'u', 'origWidth': 410, 'origHeight': 410, 'width': 410, 'height': 410, 'widthPercent': 0.45, 'rescaleHeight': False, 'trialN': 48, 'loaded': True, 'loadedTime': 3048.600000143051, 'positionName': 'LEFT', 'positionCoords': [246.64, 251], 'bid': 3.62}, {'imgObject': {}, 'id': 'sweetpotato', 'src': '/static/foodstim60/sweetpotato.jpg', 'key': 'i', 'origWidth': 410, 'origHeight': 410, 'width': 410, 'height': 410, 'widthPercent': 0.45, 'rescaleHeight': False, 'trialN': 48, 'loaded': True, 'loadedTime': 3056.7999999523163, 'positionName': 'RIGHT', 'positionCoords': [711.36, 251], 'bid': 3.91}]",97761.29999995232,1669836187765,bagel and cc,sweetpotato,3.62,3.91,0.29000000000000004,bagel and cc,1719,1719,1719.2000000476837,True,u,99998.70000004768,2237.4000000953674,1669836190002,2237,HRV,HRV_0254,2022-11-30 19:27:19
49,"[{'imgObject': {}, 'id': 'rigatoni', 'src': '/static/foodstim60/rigatoni.jpg', 'key': 'u', 'origWidth': 411, 'origHeight': 411, 'width': 411, 'height': 411, 'widthPercent': 0.45, 'rescaleHeight': False, 'trialN': 49, 'loaded': True, 'loadedTime': 3011.2000000476837, 'positionName': 'LEFT', 'positionCoords': [245.64, 250.5], 'bid': 2.63}, {'imgObject': {}, 'id': 'avocado', 'src': '/static/foodstim60/avocado.jpg', 'key': 'i', 'origWidth': 409, 'origHeight': 409, 'width': 409, 'height': 409, 'widthPercent': 0.45, 'rescaleHeight': False, 'trialN': 49, 'loaded': True, 'loadedTime': 3135.2999999523163, 'positionName': 'RIGHT', 'positionCoords': [711.36, 251.5], 'bid': 3.66}]",99998.90000009537,1669836190003,rigatoni,avocado,2.63,3.66,1.0300000000000002,avocado,1497.0999999046326,1497,1497.5,True,i,102008.79999995232,2009.8999998569489,1669836192012,2009,HRV,HRV_0254,2022-11-30 19:27:19
50,"[{'imgObject': {}, 'id': 'orange slices', 'src': '/static/foodstim60/orange slices.jpg', 'key': 'u', 'origWidth': 409, 'origHeight': 410, 'width': 409, 'height': 410, 'widthPercent': 0.45, 'rescaleHeight': False, 'trialN': 50, 'loaded': True, 'loadedTime': 3136.7999999523163, 'positionName': 'LEFT', 'positionCoords': [247.64, 251], 'bid': 8.66}, {'imgObject': {}, 'id': 'ice cream sundae 002', 'src': '/static/foodstim60/ice cream sundae 002.jpg', 'key': 'i', 'origWidth': 409, 'origHeight': 409, 'width': 409, 'height': 409, 'widthPercent': 0.45, 'rescaleHeight': False, 'trialN': 50, 'loaded': True, 'loadedTime': 3143.7999999523163, 'positionName': 'RIGHT', 'positionCoords': [711.36, 251.5], 'bid': 7.41}]",102009.10000014305,1669836192013,orange slices,ice cream sundae 002,8.66,7.41,-1.25,orange slices,1293.1999998092651,1293,1293.5999999046326,True,u,103808.5,1799.3999998569489,1669836193812,1799,HRV,HRV_0254,2022-11-30 19:27:19
51,"[{'imgObject': {}, 'id': 'blackbeanswithrice', 'src': '/static/foodstim60/blackbeanswithrice.jpg', 'key': 'u', 'origWidth': 410, 'origHeight': 410, 'width': 410, 'height': 410, 'widthPercent': 0.45, 'rescaleHeight': False, 'trialN': 51, 'loaded': True, 'loadedTime': 3094.2999999523163, 'positionName': 'LEFT', 'positionCoords': [246.64, 251], 'bid': 6.28}, {'imgObject': {}, 'id': 'cocktailshrimp', 'src': '/static/foodstim60/cocktailshrimp.jpg', 'key': 'i', 'origWidth': 410, 'origHeight': 410, 'width': 410, 'height': 410, 'widthPercent': 0.45, 'rescaleHeight': False, 'trialN': 51, 'loaded': True, 'loadedTime': 3144.2000000476837, 'positionName': 'RIGHT', 'positionCoords': [711.36, 251], 'bid': 8.09}]",103808.70000004768,1669836193812,blackbeanswithrice,cocktailshrimp,6.28,8.09,1.8099999999999996,cocktailshrimp,1394.7999999523163,1395,1395.2000000476837,True,i,105709.0,1900.2999999523163,1669836195713,1901,HRV,HRV_0254,2022-11-30 19:27:19
52,"[{'imgObject': {}, 'id': 'sushi w_condiments', 'src': '/static/foodstim60/sushi w_condiments.jpg', 'key': 'u', 'origWidth': 410, 'origHeight': 410, 'width': 410, 'height': 410, 'widthPercent': 0.45, 'rescaleHeight': False, 'trialN': 52, 'loaded': True, 'loadedTime': 3096.600000143051, 'positionName': 'LEFT', 'positionCoords': [246.64, 251], 'bid': 2.9}, {'imgObject': {}, 'id': 'grilled chicken strips', 'src': '/static/foodstim60/grilled chicken strips.jpg', 'key': 'i', 'origWidth': 410, 'origHeight': 411, 'width': 410, 'height': 411, 'widthPercent': 0.45, 'rescaleHeight': False, 'trialN': 52, 'loaded': True, 'loadedTime': 3088.2000000476837, 'positionName': 'RIGHT', 'positionCoords': [711.36, 250.5], 'bid': 6.19}]",105709.20000004768,1669836195713,sushi w_condiments,grilled chicken strips,2.9,6.19,3.2900000000000005,grilled chicken strips,1646.5,1647,1646.9000000953674,True,i,107860.60000014305,2151.4000000953674,1669836197870,2157,HRV,HRV_0254,2022-11-30 19:27:19
53,"[{'imgObject': {}, 'id': 'lox', 'src': '/static/foodstim60/lox.jpg', 'key': 'u', 'origWidth': 410, 'origHeight': 411, 'width': 410, 'height': 411, 'widthPercent': 0.45, 'rescaleHeight': False, 'trialN': 53, 'loaded': True, 'loadedTime': 2978.2999999523163, 'positionName': 'LEFT', 'positionCoords': [246.64, 250.5], 'bid': 1.81}, {'imgObject': {}, 'id': 'froot loops w milk', 'src': '/static/foodstim60/froot loops w milk.jpg', 'key': 'i', 'origWidth': 410, 'origHeight': 410, 'width': 410, 'height': 410, 'widthPercent': 0.45, 'rescaleHeight': False, 'trialN': 53, 'loaded': True, 'loadedTime': 3103.2999999523163, 'positionName': 'RIGHT', 'positionCoords': [711.36, 251], 'bid': 1.76}]",107860.70000004768,1669836197870,lox,froot loops w milk,1.81,1.76,-0.050000000000000044,froot loops w milk,1201.5,1202,1201.7999999523163,True,i,109568.40000009537,1707.7000000476837,1669836199578,1708,HRV,HRV_0254,2022-11-30 19:27:19
54,"[{'imgObject': {}, 'id': 'bagel plain', 'src': '/static/foodstim60/bagel plain.jpg', 'key': 'u', 'origWidth': 410, 'origHeight': 410, 'width': 410, 'height': 410, 'widthPercent': 0.45, 'rescaleHeight': False, 'trialN': 54, 'loaded': True, 'loadedTime': 3038.7999999523163, 'positionName': 'LEFT', 'positionCoords': [246.64, 251], 'bid': 3.46}, {'imgObject': {}, 'id': 'fried eggs', 'src': '/static/foodstim60/fried eggs.jpg', 'key': 'i', 'origWidth': 410, 'origHeight': 410, 'width': 410, 'height': 410, 'widthPercent': 0.45, 'rescaleHeight': False, 'trialN': 54, 'loaded': True, 'loadedTime': 3095.5, 'positionName': 'RIGHT', 'positionCoords': [711.36, 251], 'bid': 3.37}]",109568.70000004768,1669836199578,bagel plain,fried eggs,3.46,3.37,-0.08999999999999986,bagel plain,1247.2999999523163,1248,1247.5999999046326,True,u,111330.79999995232,1762.0999999046326,1669836201340,1762,HRV,HRV_0254,2022-11-30 19:27:19
55,"[{'imgObject': {}, 'id': 'orange slices', 'src': '/static/foodstim60/orange slices.jpg', 'key': 'u', 'origWidth': 409, 'origHeight': 410, 'width': 409, 'height': 410, 'widthPercent': 0.45, 'rescaleHeight': False, 'trialN': 55, 'loaded': True, 'loadedTime': 3142.600000143051, 'positionName': 'LEFT', 'positionCoords': [247.64, 251], 'bid': 8.66}, {'imgObject': {}, 'id': 'cherries', 'src': '/static/foodstim60/cherries.jpg', 'key': 'i', 'origWidth': 410, 'origHeight': 411, 'width': 410, 'height': 411, 'widthPercent': 0.45, 'rescaleHeight': False, 'trialN': 55, 'loaded': True, 'loadedTime': 3134.2000000476837, 'positionName': 'RIGHT', 'positionCoords': [711.36, 250.5], 'bid': 8.53}]",111330.90000009537,1669836201340,orange slices,cherries,8.66,8.53,-0.13000000000000078,orange slices,1056.2999999523163,1057,1056.5999999046326,True,u,112898.79999995232,1567.8999998569489,1669836202908,1568,HRV,HRV_0254,2022-11-30 19:27:19
56,"[{'imgObject': {}, 'id': 'eggs', 'src': '/static/foodstim60/eggs.jpg', 'key': 'u', 'origWidth': 409, 'origHeight': 409, 'width': 409, 'height': 409, 'widthPercent': 0.45, 'rescaleHeight': False, 'trialN': 56, 'loaded': True, 'loadedTime': 3115.600000143051, 'positionName': 'LEFT', 'positionCoords': [247.64, 251.5], 'bid': 5.86}, {'imgObject': {}, 'id': 'turkeysandwich', 'src': '/static/foodstim60/turkeysandwich.jpg', 'key': 'i', 'origWidth': 409, 'origHeight': 409, 'width': 409, 'height': 409, 'widthPercent': 0.45, 'rescaleHeight': False, 'trialN': 56, 'loaded': True, 'loadedTime': 3059.100000143051, 'positionName': 'RIGHT', 'positionCoords': [711.36, 251.5], 'bid': 5.84}]",112899.10000014305,1669836202908,eggs,turkeysandwich,5.86,5.84,-0.020000000000000462,eggs,1298.3999998569489,1299,1298.6999998092651,True,u,114700.29999995232,1801.1999998092651,1669836204710,1802,HRV,HRV_0254,2022-11-30 19:27:19
57,"[{'imgObject': {}, 'id': 'chickenfingers', 'src': '/static/foodstim60/chickenfingers.jpg', 'key': 'u', 'origWidth': 410, 'origHeight': 410, 'width': 410, 'height': 410, 'widthPercent': 0.45, 'rescaleHeight': False, 'trialN': 57, 'loaded': True, 'loadedTime': 2997.600000143051, 'positionName': 'LEFT', 'positionCoords': [246.64, 251], 'bid': 2.45}, {'imgObject': {}, 'id': 'kiwi', 'src': '/static/foodstim60/kiwi.jpg', 'key': 'i', 'origWidth': 410, 'origHeight': 410, 'width': 410, 'height': 410, 'widthPercent': 0.45, 'rescaleHeight': False, 'trialN': 57, 'loaded': True, 'loadedTime': 3043.7000000476837, 'positionName': 'RIGHT', 'positionCoords': [711.36, 251], 'bid': 2.19}]",114700.5,1669836204710,chickenfingers,kiwi,2.45,2.19,-0.26000000000000023,kiwi,1260.1000001430511,1260,1260.4000000953674,True,i,116482.29999995232,1781.7999999523163,1669836206492,1782,HRV,HRV_0254,2022-11-30 19:27:19
58,"[{'imgObject': {}, 'id': 'cantaloupe', 'src': '/static/foodstim60/cantaloupe.jpg', 'key': 'u', 'origWidth': 409, 'origHeight': 409, 'width': 409, 'height': 409, 'widthPercent': 0.45, 'rescaleHeight': False, 'trialN': 58, 'loaded': True, 'loadedTime': 3078.4000000953674, 'positionName': 'LEFT', 'positionCoords': [247.64, 251.5], 'bid': 8.97}, {'imgObject': {}, 'id': 'salad w chicken', 'src': '/static/foodstim60/salad w chicken.jpg', 'key': 'i', 'origWidth': 411, 'origHeight': 411, 'width': 411, 'height': 411, 'widthPercent': 0.45, 'rescaleHeight': False, 'trialN': 58, 'loaded': True, 'loadedTime': 3036.7000000476837, 'positionName': 'RIGHT', 'positionCoords': [711.36, 250.5], 'bid': 7.26}]",116482.5,1669836206492,cantaloupe,salad w chicken,8.97,7.26,-1.7100000000000009,cantaloupe,1023.7000000476837,1024,1024.0,True,u,118011.90000009537,1529.4000000953674,1669836208021,1529,HRV,HRV_0254,2022-11-30 19:27:19
59,"[{'imgObject': {}, 'id': 'blueberries', 'src': '/static/foodstim60/blueberries.jpg', 'key': 'u', 'origWidth': 411, 'origHeight': 411, 'width': 411, 'height': 411, 'widthPercent': 0.45, 'rescaleHeight': False, 'trialN': 59, 'loaded': True, 'loadedTime': 3055, 'positionName': 'LEFT', 'positionCoords': [245.64, 250.5], 'bid': 6.5}, {'imgObject': {}, 'id': 'burger', 'src': '/static/foodstim60/burger.jpg', 'key': 'i', 'origWidth': 409, 'origHeight': 409, 'width': 409, 'height': 409, 'widthPercent': 0.45, 'rescaleHeight': False, 'trialN': 59, 'loaded': True, 'loadedTime': 3071.5, 'positionName': 'RIGHT', 'positionCoords': [711.36, 251.5], 'bid': 7.140000000000001}]",118012.29999995232,1669836208022,blueberries,burger,6.5,7.140000000000001,0.6400000000000006,burger,1132.1000001430511,1132,1132.4000000953674,True,i,119658.79999995232,1646.5,1669836209668,1646,HRV,HRV_0254,2022-11-30 19:27:19
60,"[{'imgObject': {}, 'id': 'cocktailshrimp', 'src': '/static/foodstim60/cocktailshrimp.jpg', 'key': 'u', 'origWidth': 410, 'origHeight': 410, 'width': 410, 'height': 410, 'widthPercent': 0.45, 'rescaleHeight': False, 'trialN': 60, 'loaded': True, 'loadedTime': 3145.100000143051, 'positionName': 'LEFT', 'positionCoords': [246.64, 251], 'bid': 8.09}, {'imgObject': {}, 'id': 'bagel and cc', 'src': '/static/foodstim60/bagel and cc.jpg', 'key': 'i', 'origWidth': 410, 'origHeight': 410, 'width': 410, 'height': 410, 'widthPercent': 0.45, 'rescaleHeight': False, 'trialN': 60, 'loaded': True, 'loadedTime': 3048.600000143051, 'positionName': 'RIGHT', 'positionCoords': [711.36, 251], 'bid': 3.62}]",119659.0,1669836209668,cocktailshrimp,bagel and cc,8.09,3.62,-4.47,bagel and cc,1660.7000000476837,1661,1660.9000000953674,True,i,121838.90000009537,2179.9000000953674,1669836211848,2180,HRV,HRV_0254,2022-11-30 19:27:19
61,"[{'imgObject': {}, 'id': 'salad w chicken', 'src': '/static/foodstim60/salad w chicken.jpg', 'key': 'u', 'origWidth': 411, 'origHeight': 411, 'width': 411, 'height': 411, 'widthPercent': 0.45, 'rescaleHeight': False, 'trialN': 61, 'loaded': True, 'loadedTime': 3032.7000000476837, 'positionName': 'LEFT', 'positionCoords': [245.64, 250.5], 'bid': 7.26}, {'imgObject': {}, 'id': 'cocktailshrimp', 'src': '/static/foodstim60/cocktailshrimp.jpg', 'key': 'i', 'origWidth': 410, 'origHeight': 410, 'width': 410, 'height': 410, 'widthPercent': 0.45, 'rescaleHeight': False, 'trialN': 61, 'loaded': True, 'loadedTime': 3144.9000000953674, 'positionName': 'RIGHT', 'positionCoords': [711.36, 251], 'bid': 8.09}]",121839.10000014305,1669836211848,salad w chicken,cocktailshrimp,7.26,8.09,0.8300000000000001,salad w chicken,1540.6999998092651,1541,1541.0,True,u,123887.5,2048.399999856949,1669836213897,2049,HRV,HRV_0254,2022-11-30 19:27:19
62,"[{'imgObject': {}, 'id': 'kiwi', 'src': '/static/foodstim60/kiwi.jpg', 'key': 'u', 'origWidth': 410, 'origHeight': 410, 'width': 410, 'height': 410, 'widthPercent': 0.45, 'rescaleHeight': False, 'trialN': 62, 'loaded': True, 'loadedTime': 3043.7999999523163, 'positionName': 'LEFT', 'positionCoords': [246.64, 251], 'bid': 2.19}, {'imgObject': {}, 'id': 'corn cob', 'src': '/static/foodstim60/corn cob.jpg', 'key': 'i', 'origWidth': 411, 'origHeight': 411, 'width': 411, 'height': 411, 'widthPercent': 0.45, 'rescaleHeight': False, 'trialN': 62, 'loaded': True, 'loadedTime': 3068.7000000476837, 'positionName': 'RIGHT', 'positionCoords': [711.36, 250.5], 'bid': 2.92}]",123887.79999995232,1669836213897,kiwi,corn cob,2.19,2.92,0.73,corn cob,1173,1174,1173.4000000953674,True,i,125568.79999995232,1681.0,1669836215578,1681,HRV,HRV_0254,2022-11-30 19:27:19
63,"[{'imgObject': {}, 'id': 'cherries', 'src': '/static/foodstim60/cherries.jpg', 'key': 'u', 'origWidth': 410, 'origHeight': 411, 'width': 410, 'height': 411, 'widthPercent': 0.45, 'rescaleHeight': False, 'trialN': 63, 'loaded': True, 'loadedTime': 3135.2000000476837, 'positionName': 'LEFT', 'positionCoords': [246.64, 250.5], 'bid': 8.53}, {'imgObject': {}, 'id': 'edamame', 'src': '/static/foodstim60/edamame.jpg', 'key': 'i', 'origWidth': 409, 'origHeight': 410, 'width': 409, 'height': 410, 'widthPercent': 0.45, 'rescaleHeight': False, 'trialN': 63, 'loaded': True, 'loadedTime': 3145.100000143051, 'positionName': 'RIGHT', 'positionCoords': [711.36, 251], 'bid': 6.15}]",125569.0,1669836215578,cherries,edamame,8.53,6.15,-2.379999999999999,cherries,1415.2000000476837,1416,1415.5,True,u,127506.70000004768,1937.7000000476837,1669836217516,1938,HRV,HRV_0254,2022-11-30 19:27:19
64,"[{'imgObject': {}, 'id': 'mango', 'src': '/static/foodstim60/mango.jpg', 'key': 'u', 'origWidth': 411, 'origHeight': 411, 'width': 411, 'height': 411, 'widthPercent': 0.45, 'rescaleHeight': False, 'trialN': 64, 'loaded': True, 'loadedTime': 2913.5, 'positionName': 'LEFT', 'positionCoords': [245.64, 250.5], 'bid': 8.31}, {'imgObject': {}, 'id': 'Grapes', 'src': '/static/foodstim60/Grapes.jpg', 'key': 'i', 'origWidth': 411, 'origHeight': 411, 'width': 411, 'height': 411, 'widthPercent': 0.45, 'rescaleHeight': False, 'trialN': 64, 'loaded': True, 'loadedTime': 2895, 'positionName': 'RIGHT', 'positionCoords': [711.36, 250.5], 'bid': 8.61}]",127507.0,1669836217516,mango,Grapes,8.31,8.61,0.29999999999999893,mango,1349.9000000953674,1350,1350.1000001430511,True,u,129364.90000009537,1857.9000000953674,1669836219374,1858,HRV,HRV_0254,2022-11-30 19:27:19
65,"[{'imgObject': {}, 'id': 'eggsalad', 'src': '/static/foodstim60/eggsalad.jpg', 'key': 'u', 'origWidth': 410, 'origHeight': 409, 'width': 410, 'height': 409, 'widthPercent': 0.45, 'rescaleHeight': False, 'trialN': 65, 'loaded': True, 'loadedTime': 3146.600000143051, 'positionName': 'LEFT', 'positionCoords': [246.64, 251.5], 'bid': 5.89}, {'imgObject': {}, 'id': 'salmon', 'src': '/static/foodstim60/salmon.jpg', 'key': 'i', 'origWidth': 410, 'origHeight': 409, 'width': 410, 'height': 409, 'widthPercent': 0.45, 'rescaleHeight': False, 'trialN': 65, 'loaded': True, 'loadedTime': 3126.9000000953674, 'positionName': 'RIGHT', 'positionCoords': [711.36, 251.5], 'bid': 5.89}]",129365.20000004768,1669836219374,eggsalad,salmon,5.89,5.89,0.0,eggsalad,1481.7000000476837,1483,1482.0,True,u,131365.0,1999.7999999523163,1669836221374,2000,HRV,HRV_0254,2022-11-30 19:27:19
66,"[{'imgObject': {}, 'id': 'shreddedwheatwithmilk', 'src': '/static/foodstim60/shreddedwheatwithmilk.jpg', 'key': 'u', 'origWidth': 410, 'origHeight': 410, 'width': 410, 'height': 410, 'widthPercent': 0.45, 'rescaleHeight': False, 'trialN': 66, 'loaded': True, 'loadedTime': 2937.7000000476837, 'positionName': 'LEFT', 'positionCoords': [246.64, 251], 'bid': 5.83}, {'imgObject': {}, 'id': 'tacos', 'src': '/static/foodstim60/tacos.jpg', 'key': 'i', 'origWidth': 411, 'origHeight': 411, 'width': 411, 'height': 411, 'widthPercent': 0.45, 'rescaleHeight': False, 'trialN': 66, 'loaded': True, 'loadedTime': 3065.100000143051, 'positionName': 'RIGHT', 'positionCoords': [711.36, 250.5], 'bid': 5.62}]",131365.10000014305,1669836221374,shreddedwheatwithmilk,tacos,5.83,5.62,-0.20999999999999996,shreddedwheatwithmilk,1551.8999998569489,1553,1552.2999999523163,True,u,133430.79999995232,2065.699999809265,1669836223440,2066,HRV,HRV_0254,2022-11-30 19:27:19
67,"[{'imgObject': {}, 'id': 'mashed potato', 'src': '/static/foodstim60/mashed potato.jpg', 'key': 'u', 'origWidth': 409, 'origHeight': 409, 'width': 409, 'height': 409, 'widthPercent': 0.45, 'rescaleHeight': False, 'trialN': 67, 'loaded': True, 'loadedTime': 3071.600000143051, 'positionName': 'LEFT', 'positionCoords': [247.64, 251.5], 'bid': 6.0200000000000005}, {'imgObject': {}, 'id': 'strawberries', 'src': '/static/foodstim60/strawberries.jpg', 'key': 'i', 'origWidth': 410, 'origHeight': 410, 'width': 410, 'height': 410, 'widthPercent': 0.45, 'rescaleHeight': False, 'trialN': 67, 'loaded': True, 'loadedTime': 3114.5, 'positionName': 'RIGHT', 'positionCoords': [711.36, 251], 'bid': 8.43}]",133431.10000014305,1669836223440,mashed potato,strawberries,6.0200000000000005,8.43,2.4099999999999993,strawberries,1116.8999998569489,1118,1117.0999999046326,True,i,135051.40000009537,1620.2999999523163,1669836225061,1621,HRV,HRV_0254,2022-11-30 19:27:19
68,"[{'imgObject': {}, 'id': 'ice cream sundae 002', 'src': '/static/foodstim60/ice cream sundae 002.jpg', 'key': 'u', 'origWidth': 409, 'origHeight': 409, 'width': 409, 'height': 409, 'widthPercent': 0.45, 'rescaleHeight': False, 'trialN': 68, 'loaded': True, 'loadedTime': 3143.9000000953674, 'positionName': 'LEFT', 'positionCoords': [247.64, 251.5], 'bid': 7.41}, {'imgObject': {}, 'id': 'rigatoni and sauce', 'src': '/static/foodstim60/rigatoni and sauce.jpg', 'key': 'i', 'origWidth': 410, 'origHeight': 411, 'width': 410, 'height': 411, 'widthPercent': 0.45, 'rescaleHeight': False, 'trialN': 68, 'loaded': True, 'loadedTime': 3147.7000000476837, 'positionName': 'RIGHT', 'positionCoords': [711.36, 250.5], 'bid': 3.53}]",135051.60000014305,1669836225061,ice cream sundae 002,rigatoni and sauce,7.41,3.53,-3.8800000000000003,ice cream sundae 002,1157.6999998092651,1158,1158.0,True,u,136717.10000014305,1665.5,1669836226726,1665,HRV,HRV_0254,2022-11-30 19:27:19
69,"[{'imgObject': {}, 'id': 'edamame', 'src': '/static/foodstim60/edamame.jpg', 'key': 'u', 'origWidth': 409, 'origHeight': 410, 'width': 409, 'height': 410, 'widthPercent': 0.45, 'rescaleHeight': False, 'trialN': 69, 'loaded': True, 'loadedTime': 3145.7000000476837, 'positionName': 'LEFT', 'positionCoords': [247.64, 251], 'bid': 6.15}, {'imgObject': {}, 'id': 'grilled chicken strips', 'src': '/static/foodstim60/grilled chicken strips.jpg', 'key': 'i', 'origWidth': 410, 'origHeight': 411, 'width': 410, 'height': 411, 'widthPercent': 0.45, 'rescaleHeight': False, 'trialN': 69, 'loaded': True, 'loadedTime': 3088.2000000476837, 'positionName': 'RIGHT', 'positionCoords': [711.36, 250.5], 'bid': 6.19}]",136717.40000009537,1669836226727,edamame,grilled chicken strips,6.15,6.19,0.040000000000000036,edamame,1562.2999999523163,1562,1562.5999999046326,True,u,138802.60000014305,2085.2000000476837,1669836228812,2085,HRV,HRV_0254,2022-11-30 19:27:19
70,"[{'imgObject': {}, 'id': 'cocktailshrimp', 'src': '/static/foodstim60/cocktailshrimp.jpg', 'key': 'u', 'origWidth': 410, 'origHeight': 410, 'width': 410, 'height': 410, 'widthPercent': 0.45, 'rescaleHeight': False, 'trialN': 70, 'loaded': True, 'loadedTime': 3144.9000000953674, 'positionName': 'LEFT', 'positionCoords': [246.64, 251], 'bid': 8.09}, {'imgObject': {}, 'id': 'eggsalad', 'src': '/static/foodstim60/eggsalad.jpg', 'key': 'i', 'origWidth': 410, 'origHeight': 409, 'width': 410, 'height': 409, 'widthPercent': 0.45, 'rescaleHeight': False, 'trialN': 70, 'loaded': True, 'loadedTime': 3146.5, 'positionName': 'RIGHT', 'positionCoords': [711.36, 251.5], 'bid': 5.89}]",138802.90000009537,1669836228812,cocktailshrimp,eggsalad,8.09,5.89,-2.2,cocktailshrimp,1150,1151,1150.3999998569489,True,u,140472.90000009537,1670.0,1669836230482,1670,HRV,HRV_0254,2022-11-30 19:27:19
71,"[{'imgObject': {}, 'id': 'steak', 'src': '/static/foodstim60/steak.jpg', 'key': 'u', 'origWidth': 410, 'origHeight': 410, 'width': 410, 'height': 410, 'widthPercent': 0.45, 'rescaleHeight': False, 'trialN': 71, 'loaded': True, 'loadedTime': 3097.4000000953674, 'positionName': 'LEFT', 'positionCoords': [246.64, 251], 'bid': 2.89}, {'imgObject': {}, 'id': 'froot loops w milk', 'src': '/static/foodstim60/froot loops w milk.jpg', 'key': 'i', 'origWidth': 410, 'origHeight': 410, 'width': 410, 'height': 410, 'widthPercent': 0.45, 'rescaleHeight': False, 'trialN': 71, 'loaded': True, 'loadedTime': 3103.2000000476837, 'positionName': 'RIGHT', 'positionCoords': [711.36, 251], 'bid': 1.76}]",140473.10000014305,1669836230482,steak,froot loops w milk,2.89,1.76,-1.1300000000000001,steak,1479.3999998569489,1480,1479.5999999046326,True,u,142473.0,1999.8999998569489,1669836232482,2000,HRV,HRV_0254,2022-11-30 19:27:19
72,"[{'imgObject': {}, 'id': 'roastedpotatoes', 'src': '/static/foodstim60/roastedpotatoes.jpg', 'key': 'u', 'origWidth': 409, 'origHeight': 410, 'width': 409, 'height': 410, 'widthPercent': 0.45, 'rescaleHeight': False, 'trialN': 72, 'loaded': True, 'loadedTime': 3047.2000000476837, 'positionName': 'LEFT', 'positionCoords': [247.64, 251], 'bid': 2.33}, {'imgObject': {}, 'id': 'rigatoni and sauce', 'src': '/static/foodstim60/rigatoni and sauce.jpg', 'key': 'i', 'origWidth': 410, 'origHeight': 411, 'width': 410, 'height': 411, 'widthPercent': 0.45, 'rescaleHeight': False, 'trialN': 72, 'loaded': True, 'loadedTime': 3146.7000000476837, 'positionName': 'RIGHT', 'positionCoords': [711.36, 250.5], 'bid': 3.53}]",142473.20000004768,1669836232483,roastedpotatoes,rigatoni and sauce,2.33,3.53,1.1999999999999997,rigatoni and sauce,1848,1848,1848.2999999523163,True,i,144836.0,2362.7999999523163,1669836234845,2362,HRV,HRV_0254,2022-11-30 19:27:19
73,"[{'imgObject': {}, 'id': 'shreddedwheatwithmilk', 'src': '/static/foodstim60/shreddedwheatwithmilk.jpg', 'key': 'u', 'origWidth': 410, 'origHeight': 410, 'width': 410, 'height': 410, 'widthPercent': 0.45, 'rescaleHeight': False, 'trialN': 73, 'loaded': True, 'loadedTime': 2937.7999999523163, 'positionName': 'LEFT', 'positionCoords': [246.64, 251], 'bid': 5.83}, {'imgObject': {}, 'id': 'raisin bran w milk', 'src': '/static/foodstim60/raisin bran w milk.jpg', 'key': 'i', 'origWidth': 411, 'origHeight': 411, 'width': 411, 'height': 411, 'widthPercent': 0.45, 'rescaleHeight': False, 'trialN': 73, 'loaded': True, 'loadedTime': 3061.7999999523163, 'positionName': 'RIGHT', 'positionCoords': [711.36, 250.5], 'bid': 5.73}]",144836.20000004768,1669836234846,shreddedwheatwithmilk,raisin bran w milk,5.83,5.73,-0.09999999999999964,raisin bran w milk,2219.5,2219,2219.7999999523163,True,i,147572.5,2736.2999999523163,1669836237582,2736,HRV,HRV_0254,2022-11-30 19:27:19
74,"[{'imgObject': {}, 'id': 'turkeysandwich', 'src': '/static/foodstim60/turkeysandwich.jpg', 'key': 'u', 'origWidth': 409, 'origHeight': 409, 'width': 409, 'height': 409, 'widthPercent': 0.45, 'rescaleHeight': False, 'trialN': 74, 'loaded': True, 'loadedTime': 3060.100000143051, 'positionName': 'LEFT', 'positionCoords': [247.64, 251.5], 'bid': 5.84}, {'imgObject': {}, 'id': 'edamame', 'src': '/static/foodstim60/edamame.jpg', 'key': 'i', 'origWidth': 409, 'origHeight': 410, 'width': 409, 'height': 410, 'widthPercent': 0.45, 'rescaleHeight': False, 'trialN': 74, 'loaded': True, 'loadedTime': 3145.7999999523163, 'positionName': 'RIGHT', 'positionCoords': [711.36, 251], 'bid': 6.15}]",147572.60000014305,1669836237582,turkeysandwich,edamame,5.84,6.15,0.3100000000000005,edamame,1493.0999999046326,1493,1493.5,True,i,149572.29999995232,1999.6999998092651,1669836239582,2000,HRV,HRV_0254,2022-11-30 19:27:19
75,"[{'imgObject': {}, 'id': 'roastedpotatoes', 'src': '/static/foodstim60/roastedpotatoes.jpg', 'key': 'u', 'origWidth': 409, 'origHeight': 410, 'width': 409, 'height': 410, 'widthPercent': 0.45, 'rescaleHeight': False, 'trialN': 75, 'loaded': True, 'loadedTime': 3047.4000000953674, 'positionName': 'LEFT', 'positionCoords': [247.64, 251], 'bid': 2.33}, {'imgObject': {}, 'id': 'mashed potato', 'src': '/static/foodstim60/mashed potato.jpg', 'key': 'i', 'origWidth': 409, 'origHeight': 409, 'width': 409, 'height': 409, 'widthPercent': 0.45, 'rescaleHeight': False, 'trialN': 75, 'loaded': True, 'loadedTime': 3078, 'positionName': 'RIGHT', 'positionCoords': [711.36, 251.5], 'bid': 6.0200000000000005}]",149572.60000014305,1669836239582,roastedpotatoes,mashed potato,2.33,6.0200000000000005,3.6900000000000004,mashed potato,1424.0999999046326,1424,1424.3999998569489,True,i,151512.0,1939.3999998569489,1669836241521,1939,HRV,HRV_0254,2022-11-30 19:27:19
76,"[{'imgObject': {}, 'id': 'fruitsalad', 'src': '/static/foodstim60/fruitsalad.jpg', 'key': 'u', 'origWidth': 410, 'origHeight': 410, 'width': 410, 'height': 410, 'widthPercent': 0.45, 'rescaleHeight': False, 'trialN': 76, 'loaded': True, 'loadedTime': 3041.2999999523163, 'positionName': 'LEFT', 'positionCoords': [246.64, 251], 'bid': 8.33}, {'imgObject': {}, 'id': 'orange slices', 'src': '/static/foodstim60/orange slices.jpg', 'key': 'i', 'origWidth': 409, 'origHeight': 410, 'width': 409, 'height': 410, 'widthPercent': 0.45, 'rescaleHeight': False, 'trialN': 76, 'loaded': True, 'loadedTime': 3136.7999999523163, 'positionName': 'RIGHT', 'positionCoords': [711.36, 251], 'bid': 8.66}]",151512.20000004768,1669836241521,fruitsalad,orange slices,8.33,8.66,0.33000000000000007,orange slices,1126,1127,1126.2999999523163,True,i,153142.29999995232,1630.0999999046326,1669836243152,1631,HRV,HRV_0254,2022-11-30 19:27:19
77,"[{'imgObject': {}, 'id': 'steak', 'src': '/static/foodstim60/steak.jpg', 'key': 'u', 'origWidth': 410, 'origHeight': 410, 'width': 410, 'height': 410, 'widthPercent': 0.45, 'rescaleHeight': False, 'trialN': 77, 'loaded': True, 'loadedTime': 3097.5, 'positionName': 'LEFT', 'positionCoords': [246.64, 251], 'bid': 2.89}, {'imgObject': {}, 'id': 'edamame', 'src': '/static/foodstim60/edamame.jpg', 'key': 'i', 'origWidth': 409, 'origHeight': 410, 'width': 409, 'height': 410, 'widthPercent': 0.45, 'rescaleHeight': False, 'trialN': 77, 'loaded': True, 'loadedTime': 3145.9000000953674, 'positionName': 'RIGHT', 'positionCoords': [711.36, 251], 'bid': 6.15}]",153142.60000014305,1669836243152,steak,edamame,2.89,6.15,3.2600000000000002,edamame,1117.5999999046326,1118,1117.8999998569489,True,i,154773.79999995232,1631.1999998092651,1669836244783,1631,HRV,HRV_0254,2022-11-30 19:27:19
78,"[{'imgObject': {}, 'id': 'turkey sandwich', 'src': '/static/foodstim60/turkey sandwich.jpg', 'key': 'u', 'origWidth': 409, 'origHeight': 409, 'width': 409, 'height': 409, 'widthPercent': 0.45, 'rescaleHeight': False, 'trialN': 78, 'loaded': True, 'loadedTime': 3052.9000000953674, 'positionName': 'LEFT', 'positionCoords': [247.64, 251.5], 'bid': 6.5}, {'imgObject': {}, 'id': 'raspberries', 'src': '/static/foodstim60/raspberries.jpg', 'key': 'i', 'origWidth': 411, 'origHeight': 411, 'width': 411, 'height': 411, 'widthPercent': 0.45, 'rescaleHeight': False, 'trialN': 78, 'loaded': True, 'loadedTime': 2959, 'positionName': 'RIGHT', 'positionCoords': [711.36, 250.5], 'bid': 8.31}]",154774.10000014305,1669836244783,turkey sandwich,raspberries,6.5,8.31,1.8100000000000005,raspberries,1659.2999999523163,1660,1659.6999998092651,True,i,156947.29999995232,2173.199999809265,1669836246957,2174,HRV,HRV_0254,2022-11-30 19:27:19
79,"[{'imgObject': {}, 'id': 'luckycharms', 'src': '/static/foodstim60/luckycharms.jpg', 'key': 'u', 'origWidth': 410, 'origHeight': 409, 'width': 410, 'height': 409, 'widthPercent': 0.45, 'rescaleHeight': False, 'trialN': 79, 'loaded': True, 'loadedTime': 3107.100000143051, 'positionName': 'LEFT', 'positionCoords': [246.64, 251.5], 'bid': 1.28}, {'imgObject': {}, 'id': 'corn cob', 'src': '/static/foodstim60/corn cob.jpg', 'key': 'i', 'origWidth': 411, 'origHeight': 411, 'width': 411, 'height': 411, 'widthPercent': 0.45, 'rescaleHeight': False, 'trialN': 79, 'loaded': True, 'loadedTime': 3070.2000000476837, 'positionName': 'RIGHT', 'positionCoords': [711.36, 250.5], 'bid': 2.92}]",156947.5,1669836246957,luckycharms,corn cob,1.28,2.92,1.64,corn cob,1427.2999999523163,1427,1427.6000001430511,True,i,158884.90000009537,1937.4000000953674,1669836248894,1937,HRV,HRV_0254,2022-11-30 19:27:19
80,"[{'imgObject': {}, 'id': 'mac & cheese', 'src': '/static/foodstim60/mac & cheese.jpg', 'key': 'u', 'origWidth': 410, 'origHeight': 410, 'width': 410, 'height': 410, 'widthPercent': 0.45, 'rescaleHeight': False, 'trialN': 80, 'loaded': True, 'loadedTime': 3042.2999999523163, 'positionName': 'LEFT', 'positionCoords': [246.64, 251], 'bid': 5.99}, {'imgObject': {}, 'id': 'mashed potato', 'src': '/static/foodstim60/mashed potato.jpg', 'key': 'i', 'origWidth': 409, 'origHeight': 409, 'width': 409, 'height': 409, 'widthPercent': 0.45, 'rescaleHeight': False, 'trialN': 80, 'loaded': True, 'loadedTime': 3077.7999999523163, 'positionName': 'RIGHT', 'positionCoords': [711.36, 251.5], 'bid': 6.0200000000000005}]",158885.10000014305,1669836248894,mac & cheese,mashed potato,5.99,6.0200000000000005,0.03000000000000025,mashed potato,1518.7999999523163,1520,1519.1999998092651,True,i,160907.20000004768,2022.0999999046326,1669836250916,2022,HRV,HRV_0254,2022-11-30 19:27:19
81,"[{'imgObject': {}, 'id': 'sushi w_condiments', 'src': '/static/foodstim60/sushi w_condiments.jpg', 'key': 'u', 'origWidth': 410, 'origHeight': 410, 'width': 410, 'height': 410, 'widthPercent': 0.45, 'rescaleHeight': False, 'trialN': 81, 'loaded': True, 'loadedTime': 3096.600000143051, 'positionName': 'LEFT', 'positionCoords': [246.64, 251], 'bid': 2.9}, {'imgObject': {}, 'id': 'seaweed', 'src': '/static/foodstim60/seaweed.jpg', 'key': 'i', 'origWidth': 410, 'origHeight': 410, 'width': 410, 'height': 410, 'widthPercent': 0.45, 'rescaleHeight': False, 'trialN': 81, 'loaded': True, 'loadedTime': 3044.2999999523163, 'positionName': 'RIGHT', 'positionCoords': [711.36, 251], 'bid': 3.21}]",160907.40000009537,1669836250917,sushi w_condiments,seaweed,2.9,3.21,0.31000000000000005,seaweed,1556.0999999046326,1556,1556.3999998569489,True,i,162982.0,2074.5999999046326,1669836252991,2074,HRV,HRV_0254,2022-11-30 19:27:19
82,"[{'imgObject': {}, 'id': 'chicken nuggets2', 'src': '/static/foodstim60/chicken nuggets2.jpg', 'key': 'u', 'origWidth': 410, 'origHeight': 409, 'width': 410, 'height': 409, 'widthPercent': 0.45, 'rescaleHeight': False, 'trialN': 82, 'loaded': True, 'loadedTime': 3108.7999999523163, 'positionName': 'LEFT', 'positionCoords': [246.64, 251.5], 'bid': 1.49}, {'imgObject': {}, 'id': 'rigatoni', 'src': '/static/foodstim60/rigatoni.jpg', 'key': 'i', 'origWidth': 411, 'origHeight': 411, 'width': 411, 'height': 411, 'widthPercent': 0.45, 'rescaleHeight': False, 'trialN': 82, 'loaded': True, 'loadedTime': 3018.9000000953674, 'positionName': 'RIGHT', 'positionCoords': [711.36, 250.5], 'bid': 2.63}]",162982.29999995232,1669836252992,chicken nuggets2,rigatoni,1.49,2.63,1.14,rigatoni,1671.7000000476837,1672,1672.0,True,i,165168.70000004768,2186.4000000953674,1669836255178,2186,HRV,HRV_0254,2022-11-30 19:27:19
83,"[{'imgObject': {}, 'id': 'cantaloupe', 'src': '/static/foodstim60/cantaloupe.jpg', 'key': 'u', 'origWidth': 409, 'origHeight': 409, 'width': 409, 'height': 409, 'widthPercent': 0.45, 'rescaleHeight': False, 'trialN': 83, 'loaded': True, 'loadedTime': 3079.5, 'positionName': 'LEFT', 'positionCoords': [247.64, 251.5], 'bid': 8.97}, {'imgObject': {}, 'id': 'cherries', 'src': '/static/foodstim60/cherries.jpg', 'key': 'i', 'origWidth': 410, 'origHeight': 411, 'width': 410, 'height': 411, 'widthPercent': 0.45, 'rescaleHeight': False, 'trialN': 83, 'loaded': True, 'loadedTime': 3135, 'positionName': 'RIGHT', 'positionCoords': [711.36, 250.5], 'bid': 8.53}]",165169.10000014305,1669836255178,cantaloupe,cherries,8.97,8.53,-0.4400000000000013,cantaloupe,1326,1327,1326.1999998092651,True,u,167003.70000004768,1834.5999999046326,1669836257013,1835,HRV,HRV_0254,2022-11-30 19:27:19
84,"[{'imgObject': {}, 'id': 'sweetpotato', 'src': '/static/foodstim60/sweetpotato.jpg', 'key': 'u', 'origWidth': 410, 'origHeight': 410, 'width': 410, 'height': 410, 'widthPercent': 0.45, 'rescaleHeight': False, 'trialN': 84, 'loaded': True, 'loadedTime': 3056.9000000953674, 'positionName': 'LEFT', 'positionCoords': [246.64, 251], 'bid': 3.91}, {'imgObject': {}, 'id': 'rigatoni', 'src': '/static/foodstim60/rigatoni.jpg', 'key': 'i', 'origWidth': 411, 'origHeight': 411, 'width': 411, 'height': 411, 'widthPercent': 0.45, 'rescaleHeight': False, 'trialN': 84, 'loaded': True, 'loadedTime': 3018.5, 'positionName': 'RIGHT', 'positionCoords': [711.36, 250.5], 'bid': 2.63}]",167004.0,1669836257013,sweetpotato,rigatoni,3.91,2.63,-1.2800000000000002,rigatoni,1311.9000000953674,1305,1312.2000000476837,True,i,168820.20000004768,1816.2000000476837,1669836258822,1809,HRV,HRV_0254,2022-11-30 19:27:19
85,"[{'imgObject': {}, 'id': 'veggieswithdip', 'src': '/static/foodstim60/veggieswithdip.jpg', 'key': 'u', 'origWidth': 409, 'origHeight': 409, 'width': 409, 'height': 409, 'widthPercent': 0.45, 'rescaleHeight': False, 'trialN': 85, 'loaded': True, 'loadedTime': 3079.7000000476837, 'positionName': 'LEFT', 'positionCoords': [247.64, 251.5], 'bid': 8.75}, {'imgObject': {}, 'id': 'pear', 'src': '/static/foodstim60/pear.jpg', 'key': 'i', 'origWidth': 411, 'origHeight': 410, 'width': 411, 'height': 410, 'widthPercent': 0.45, 'rescaleHeight': False, 'trialN': 85, 'loaded': True, 'loadedTime': 2926.2000000476837, 'positionName': 'RIGHT', 'positionCoords': [711.36, 251], 'bid': 8.870000000000001}]",168820.40000009537,1669836258822,veggieswithdip,pear,8.75,8.870000000000001,0.120000000000001,veggieswithdip,1196.7999999523163,1197,1197.2000000476837,True,u,170530.90000009537,1710.5,1669836260533,1711,HRV,HRV_0254,2022-11-30 19:27:19
86,"[{'imgObject': {}, 'id': 'raspberries', 'src': '/static/foodstim60/raspberries.jpg', 'key': 'u', 'origWidth': 411, 'origHeight': 411, 'width': 411, 'height': 411, 'widthPercent': 0.45, 'rescaleHeight': False, 'trialN': 86, 'loaded': True, 'loadedTime': 2957.7000000476837, 'positionName': 'LEFT', 'positionCoords': [245.64, 250.5], 'bid': 8.31}, {'imgObject': {}, 'id': 'cocktailshrimp', 'src': '/static/foodstim60/cocktailshrimp.jpg', 'key': 'i', 'origWidth': 410, 'origHeight': 410, 'width': 410, 'height': 410, 'widthPercent': 0.45, 'rescaleHeight': False, 'trialN': 86, 'loaded': True, 'loadedTime': 3144.9000000953674, 'positionName': 'RIGHT', 'positionCoords': [711.36, 251], 'bid': 8.09}]",170531.10000014305,1669836260533,raspberries,cocktailshrimp,8.31,8.09,-0.22000000000000064,raspberries,1843.2999999523163,1844,1843.6999998092651,True,u,172893.29999995232,2362.199999809265,1669836262895,2362,HRV,HRV_0254,2022-11-30 19:27:19
87,"[{'imgObject': {}, 'id': 'chicken nuggets2', 'src': '/static/foodstim60/chicken nuggets2.jpg', 'key': 'u', 'origWidth': 410, 'origHeight': 409, 'width': 410, 'height': 409, 'widthPercent': 0.45, 'rescaleHeight': False, 'trialN': 87, 'loaded': True, 'loadedTime': 3108.600000143051, 'positionName': 'LEFT', 'positionCoords': [246.64, 251.5], 'bid': 1.49}, {'imgObject': {}, 'id': 'bagel and cc', 'src': '/static/foodstim60/bagel and cc.jpg', 'key': 'i', 'origWidth': 410, 'origHeight': 410, 'width': 410, 'height': 410, 'widthPercent': 0.45, 'rescaleHeight': False, 'trialN': 87, 'loaded': True, 'loadedTime': 3048.2999999523163, 'positionName': 'RIGHT', 'positionCoords': [711.36, 251], 'bid': 3.62}]",172893.60000014305,1669836262895,chicken nuggets2,bagel and cc,1.49,3.62,2.13,bagel and cc,1144.0999999046326,1145,1144.2999999523163,True,i,174551.60000014305,1658.0,1669836264553,1658,HRV,HRV_0254,2022-11-30 19:27:19
88,"[{'imgObject': {}, 'id': 'bagel and cc', 'src': '/static/foodstim60/bagel and cc.jpg', 'key': 'u', 'origWidth': 410, 'origHeight': 410, 'width': 410, 'height': 410, 'widthPercent': 0.45, 'rescaleHeight': False, 'trialN': 88, 'loaded': True, 'loadedTime': 3048.5, 'positionName': 'LEFT', 'positionCoords': [246.64, 251], 'bid': 3.62}, {'imgObject': {}, 'id': 'hotdog w must', 'src': '/static/foodstim60/hotdog w must.jpg', 'key': 'i', 'origWidth': 409, 'origHeight': 409, 'width': 409, 'height': 409, 'widthPercent': 0.45, 'rescaleHeight': False, 'trialN': 88, 'loaded': True, 'loadedTime': 2987.9000000953674, 'positionName': 'RIGHT', 'positionCoords': [711.36, 251.5], 'bid': 3.68}]",174551.90000009537,1669836264554,bagel and cc,hotdog w must,3.62,3.68,0.06000000000000005,hotdog w must,1225.5,1225,1225.7000000476837,True,i,176294.79999995232,1742.8999998569489,1669836266297,1743,HRV,HRV_0254,2022-11-30 19:27:19
89,"[{'imgObject': {}, 'id': 'eggsalad', 'src': '/static/foodstim60/eggsalad.jpg', 'key': 'u', 'origWidth': 410, 'origHeight': 409, 'width': 410, 'height': 409, 'widthPercent': 0.45, 'rescaleHeight': False, 'trialN': 89, 'loaded': True, 'loadedTime': 3146.5, 'positionName': 'LEFT', 'positionCoords': [246.64, 251.5], 'bid': 5.89}, {'imgObject': {}, 'id': 'chicken nuggets2', 'src': '/static/foodstim60/chicken nuggets2.jpg', 'key': 'i', 'origWidth': 410, 'origHeight': 409, 'width': 410, 'height': 409, 'widthPercent': 0.45, 'rescaleHeight': False, 'trialN': 89, 'loaded': True, 'loadedTime': 3108.7000000476837, 'positionName': 'RIGHT', 'positionCoords': [711.36, 251.5], 'bid': 1.49}]",176295.10000014305,1669836266297,eggsalad,chicken nuggets2,5.89,1.49,-4.3999999999999995,eggsalad,1275.8999998569489,1276,1276.1999998092651,True,u,178078.90000009537,1783.7999999523163,1669836268081,1784,HRV,HRV_0254,2022-11-30 19:27:19
90,"[{'imgObject': {}, 'id': 'steak', 'src': '/static/foodstim60/steak.jpg', 'key': 'u', 'origWidth': 410, 'origHeight': 410, 'width': 410, 'height': 410, 'widthPercent': 0.45, 'rescaleHeight': False, 'trialN': 90, 'loaded': True, 'loadedTime': 3097.5, 'positionName': 'LEFT', 'positionCoords': [246.64, 251], 'bid': 2.89}, {'imgObject': {}, 'id': 'hashbrowns', 'src': '/static/foodstim60/hashbrowns.jpg', 'key': 'i', 'origWidth': 411, 'origHeight': 410, 'width': 411, 'height': 410, 'widthPercent': 0.45, 'rescaleHeight': False, 'trialN': 90, 'loaded': True, 'loadedTime': 3116.5, 'positionName': 'RIGHT', 'positionCoords': [711.36, 251], 'bid': 5.36}]",181411.79999995232,1669836271414,steak,hashbrowns,2.89,5.36,2.47,NaN,NaN,NaN,,False,NaN,185431.0,4019.2000000476837,1669836275433,4019,HRV,HRV_0254,2022-11-30 19:27:19
91,"[{'imgObject': {}, 'id': 'luckycharms', 'src': '/static/foodstim60/luckycharms.jpg', 'key': 'u', 'origWidth': 410, 'origHeight': 409, 'width': 410, 'height': 409, 'widthPercent': 0.45, 'rescaleHeight': False, 'trialN': 91, 'loaded': True, 'loadedTime': 3105.2000000476837, 'positionName': 'LEFT', 'positionCoords': [246.64, 251.5], 'bid': 1.28}, {'imgObject': {}, 'id': 'salmon', 'src': '/static/foodstim60/salmon.jpg', 'key': 'i', 'origWidth': 410, 'origHeight': 409, 'width': 410, 'height': 409, 'widthPercent': 0.45, 'rescaleHeight': False, 'trialN': 91, 'loaded': True, 'loadedTime': 3134.100000143051, 'positionName': 'RIGHT', 'positionCoords': [711.36, 251.5], 'bid': 5.89}]",185431.29999995232,1669836275433,luckycharms,salmon,1.28,5.89,4.609999999999999,luckycharms,428.2000000476837,429,428.40000009536743,True,u,186364.70000004768,933.4000000953674,1669836276366,933,HRV,HRV_0254,2022-11-30 19:27:19
92,"[{'imgObject': {}, 'id': 'Grapes', 'src': '/static/foodstim60/Grapes.jpg', 'key': 'u', 'origWidth': 411, 'origHeight': 411, 'width': 411, 'height': 411, 'widthPercent': 0.45, 'rescaleHeight': False, 'trialN': 92, 'loaded': True, 'loadedTime': 2896.2999999523163, 'positionName': 'LEFT', 'positionCoords': [245.64, 250.5], 'bid': 8.61}, {'imgObject': {}, 'id': 'yogurt no spoon', 'src': '/static/foodstim60/yogurt no spoon.jpg', 'key': 'i', 'origWidth': 411, 'origHeight': 410, 'width': 411, 'height': 410, 'widthPercent': 0.45, 'rescaleHeight': False, 'trialN': 92, 'loaded': True, 'loadedTime': 3147.9000000953674, 'positionName': 'RIGHT', 'positionCoords': [711.36, 251], 'bid': 5.54}]",186364.90000009537,1669836276367,Grapes,yogurt no spoon,8.61,5.54,-3.0699999999999994,Grapes,1198.0999999046326,1198,1198.2000000476837,True,u,188070.10000014305,1705.2000000476837,1669836278072,1705,HRV,HRV_0254,2022-11-30 19:27:19
93,"[{'imgObject': {}, 'id': 'cantaloupe', 'src': '/static/foodstim60/cantaloupe.jpg', 'key': 'u', 'origWidth': 409, 'origHeight': 409, 'width': 409, 'height': 409, 'widthPercent': 0.45, 'rescaleHeight': False, 'trialN': 93, 'loaded': True, 'loadedTime': 3079.600000143051, 'positionName': 'LEFT', 'positionCoords': [247.64, 251.5], 'bid': 8.97}, {'imgObject': {}, 'id': 'cherry tomato', 'src': '/static/foodstim60/cherry tomato.jpg', 'key': 'i', 'origWidth': 410, 'origHeight': 410, 'width': 410, 'height': 410, 'widthPercent': 0.45, 'rescaleHeight': False, 'trialN': 93, 'loaded': True, 'loadedTime': 2957.4000000953674, 'positionName': 'RIGHT', 'positionCoords': [711.36, 251], 'bid': 8.77}]",188070.29999995232,1669836278072,cantaloupe,cherry tomato,8.97,8.77,-0.20000000000000107,cantaloupe,922,922,922.3000001907349,True,u,189504.20000004768,1433.9000000953674,1669836279506,1434,HRV,HRV_0254,2022-11-30 19:27:19
94,"[{'imgObject': {}, 'id': 'olives', 'src': '/static/foodstim60/olives.jpg', 'key': 'u', 'origWidth': 410, 'origHeight': 410, 'width': 410, 'height': 410, 'widthPercent': 0.45, 'rescaleHeight': False, 'trialN': 94, 'loaded': True, 'loadedTime': 3031.4000000953674, 'positionName': 'LEFT', 'positionCoords': [246.64, 251], 'bid': 6.11}, {'imgObject': {}, 'id': 'burger', 'src': '/static/foodstim60/burger.jpg', 'key': 'i', 'origWidth': 409, 'origHeight': 409, 'width': 409, 'height': 409, 'widthPercent': 0.45, 'rescaleHeight': False, 'trialN': 94, 'loaded': True, 'loadedTime': 3071.600000143051, 'positionName': 'RIGHT', 'positionCoords': [711.36, 251.5], 'bid': 7.140000000000001}]",189504.29999995232,1669836279506,olives,burger,6.11,7.140000000000001,1.0300000000000002,olives,1568.7000000476837,1569,1569.1000001430511,True,u,191586.79999995232,2082.5,1669836281589,2083,HRV,HRV_0254,2022-11-30 19:27:19
95,"[{'imgObject': {}, 'id': 'hashbrowns', 'src': '/static/foodstim60/hashbrowns.jpg', 'key': 'u', 'origWidth': 411, 'origHeight': 410, 'width': 411, 'height': 410, 'widthPercent': 0.45, 'rescaleHeight': False, 'trialN': 95, 'loaded': True, 'loadedTime': 3116.600000143051, 'positionName': 'LEFT', 'positionCoords': [245.64, 251], 'bid': 5.36}, {'imgObject': {}, 'id': 'avocado', 'src': '/static/foodstim60/avocado.jpg', 'key': 'i', 'origWidth': 409, 'origHeight': 409, 'width': 409, 'height': 409, 'widthPercent': 0.45, 'rescaleHeight': False, 'trialN': 95, 'loaded': True, 'loadedTime': 3135.9000000953674, 'positionName': 'RIGHT', 'positionCoords': [711.36, 251.5], 'bid': 3.66}]",191587.0,1669836281589,hashbrowns,avocado,5.36,3.66,-1.7000000000000002,hashbrowns,1405.9000000953674,1406,1406.2000000476837,True,u,193508.40000009537,1921.4000000953674,1669836283510,1921,HRV,HRV_0254,2022-11-30 19:27:19
96,"[{'imgObject': {}, 'id': 'pear', 'src': '/static/foodstim60/pear.jpg', 'key': 'u', 'origWidth': 411, 'origHeight': 410, 'width': 411, 'height': 410, 'widthPercent': 0.45, 'rescaleHeight': False, 'trialN': 96, 'loaded': True, 'loadedTime': 2933.2999999523163, 'positionName': 'LEFT', 'positionCoords': [245.64, 251], 'bid': 8.870000000000001}, {'imgObject': {}, 'id': 'banana', 'src': '/static/foodstim60/banana.jpg', 'key': 'i', 'origWidth': 410, 'origHeight': 410, 'width': 410, 'height': 410, 'widthPercent': 0.45, 'rescaleHeight': False, 'trialN': 96, 'loaded': True, 'loadedTime': 2913, 'positionName': 'RIGHT', 'positionCoords': [711.36, 251], 'bid': 8.49}]",193508.70000004768,1669836283510,pear,banana,8.870000000000001,8.49,-0.3800000000000008,banana,1306.4000000953674,1307,1306.7999999523163,True,i,195326.79999995232,1818.0999999046326,1669836285329,1819,HRV,HRV_0254,2022-11-30 19:27:19
97,"[{'imgObject': {}, 'id': 'veggieswithdip', 'src': '/static/foodstim60/veggieswithdip.jpg', 'key': 'u', 'origWidth': 409, 'origHeight': 409, 'width': 409, 'height': 409, 'widthPercent': 0.45, 'rescaleHeight': False, 'trialN': 97, 'loaded': True, 'loadedTime': 3080.9000000953674, 'positionName': 'LEFT', 'positionCoords': [247.64, 251.5], 'bid': 8.75}, {'imgObject': {}, 'id': 'cherry tomato', 'src': '/static/foodstim60/cherry tomato.jpg', 'key': 'i', 'origWidth': 410, 'origHeight': 410, 'width': 410, 'height': 410, 'widthPercent': 0.45, 'rescaleHeight': False, 'trialN': 97, 'loaded': True, 'loadedTime': 2949.4000000953674, 'positionName': 'RIGHT', 'positionCoords': [711.36, 251], 'bid': 8.77}]",195327.20000004768,1669836285329,veggieswithdip,cherry tomato,8.75,8.77,0.019999999999999574,veggieswithdip,1159.7999999523163,1160,1160.0,True,u,197009.90000009537,1682.7000000476837,1669836287012,1683,HRV,HRV_0254,2022-11-30 19:27:19
98,"[{'imgObject': {}, 'id': 'lox', 'src': '/static/foodstim60/lox.jpg', 'key': 'u', 'origWidth': 410, 'origHeight': 411, 'width': 410, 'height': 411, 'widthPercent': 0.45, 'rescaleHeight': False, 'trialN': 98, 'loaded': True, 'loadedTime': 2969.9000000953674, 'positionName': 'LEFT', 'positionCoords': [246.64, 250.5], 'bid': 1.81}, {'imgObject': {}, 'id': 'baked potato', 'src': '/static/foodstim60/baked potato.jpg', 'key': 'i', 'origWidth': 409, 'origHeight': 410, 'width': 409, 'height': 410, 'widthPercent': 0.45, 'rescaleHeight': False, 'trialN': 98, 'loaded': True, 'loadedTime': 3058.4000000953674, 'positionName': 'RIGHT', 'positionCoords': [711.36, 251], 'bid': 3.46}]",197010.10000014305,1669836287012,lox,baked potato,1.81,3.46,1.65,baked potato,1956,1956,1956.2999999523163,True,i,199478.90000009537,2468.7999999523163,1669836289481,2469,HRV,HRV_0254,2022-11-30 19:27:19
99,"[{'imgObject': {}, 'id': 'sushi w_condiments', 'src': '/static/foodstim60/sushi w_condiments.jpg', 'key': 'u', 'origWidth': 410, 'origHeight': 410, 'width': 410, 'height': 410, 'widthPercent': 0.45, 'rescaleHeight': False, 'trialN': 99, 'loaded': True, 'loadedTime': 3096.600000143051, 'positionName': 'LEFT', 'positionCoords': [246.64, 251], 'bid': 2.9}, {'imgObject': {}, 'id': 'lox', 'src': '/static/foodstim60/lox.jpg', 'key': 'i', 'origWidth': 410, 'origHeight': 411, 'width': 410, 'height': 411, 'widthPercent': 0.45, 'rescaleHeight': False, 'trialN': 99, 'loaded': True, 'loadedTime': 2970.9000000953674, 'positionName': 'RIGHT', 'positionCoords': [711.36, 250.5], 'bid': 1.81}]",199479.10000014305,1669836289481,sushi w_condiments,lox,2.9,1.81,-1.0899999999999999,lox,1649.0999999046326,1649,1649.5,True,i,201645.0,2165.899999856949,1669836291647,2166,HRV,HRV_0254,2022-11-30 19:27:19
100,"[{'imgObject': {}, 'id': 'blueberries', 'src': '/static/foodstim60/blueberries.jpg', 'key': 'u', 'origWidth': 411, 'origHeight': 411, 'width': 411, 'height': 411, 'widthPercent': 0.45, 'rescaleHeight': False, 'trialN': 100, 'loaded': True, 'loadedTime': 3055.2000000476837, 'positionName': 'LEFT', 'positionCoords': [245.64, 250.5], 'bid': 6.5}, {'imgObject': {}, 'id': 'fried eggs', 'src': '/static/foodstim60/fried eggs.jpg', 'key': 'i', 'origWidth': 410, 'origHeight': 410, 'width': 410, 'height': 410, 'widthPercent': 0.45, 'rescaleHeight': False, 'trialN': 100, 'loaded': True, 'loadedTime': 3095.600000143051, 'positionName': 'RIGHT', 'positionCoords': [711.36, 251], 'bid': 3.37}]",201645.29999995232,1669836291647,blueberries,fried eggs,6.5,3.37,-3.13,blueberries,1108,1108,1108.4000000953674,True,u,203274.29999995232,1629.0,1669836293276,1629,HRV,HRV_0254,2022-11-30 19:27:19
101,"[{'imgObject': {}, 'id': 'Tribe humus pita', 'src': '/static/foodstim60/Tribe humus pita.jpg', 'key': 'u', 'origWidth': 411, 'origHeight': 411, 'width': 411, 'height': 411, 'widthPercent': 0.45, 'rescaleHeight': False, 'trialN': 101, 'loaded': True, 'loadedTime': 2997.5, 'positionName': 'LEFT', 'positionCoords': [245.64, 250.5], 'bid': 6.11}, {'imgObject': {}, 'id': 'blueberries', 'src': '/static/foodstim60/blueberries.jpg', 'key': 'i', 'origWidth': 411, 'origHeight': 411, 'width': 411, 'height': 411, 'widthPercent': 0.45, 'rescaleHeight': False, 'trialN': 101, 'loaded': True, 'loadedTime': 3055.4000000953674, 'positionName': 'RIGHT', 'positionCoords': [711.36, 250.5], 'bid': 6.5}]",203274.60000014305,1669836293276,Tribe humus pita,blueberries,6.11,6.5,0.3899999999999997,blueberries,1299.2999999523163,1300,1299.7999999523163,True,i,205076.29999995232,1801.6999998092651,1669836295078,1802,HRV,HRV_0254,2022-11-30 19:27:19
102,"[{'imgObject': {}, 'id': 'granola w milk', 'src': '/static/foodstim60/granola w milk.jpg', 'key': 'u', 'origWidth': 410, 'origHeight': 410, 'width': 410, 'height': 410, 'widthPercent': 0.45, 'rescaleHeight': False, 'trialN': 102, 'loaded': True, 'loadedTime': 3062.5, 'positionName': 'LEFT', 'positionCoords': [246.64, 251], 'bid': 5.93}, {'imgObject': {}, 'id': 'mac & cheese', 'src': '/static/foodstim60/mac & cheese.jpg', 'key': 'i', 'origWidth': 410, 'origHeight': 410, 'width': 410, 'height': 410, 'widthPercent': 0.45, 'rescaleHeight': False, 'trialN': 102, 'loaded': True, 'loadedTime': 3042.7000000476837, 'positionName': 'RIGHT', 'positionCoords': [711.36, 251], 'bid': 5.99}]",205076.5,1669836295078,granola w milk,mac & cheese,5.93,5.99,0.0600000000000005,granola w milk,1368.2000000476837,1369,1368.6000001430511,True,u,206960.20000004768,1883.7000000476837,1669836296962,1884,HRV,HRV_0254,2022-11-30 19:27:19
103,"[{'imgObject': {}, 'id': 'ice cream sundae 002', 'src': '/static/foodstim60/ice cream sundae 002.jpg', 'key': 'u', 'origWidth': 409, 'origHeight': 409, 'width': 409, 'height': 409, 'widthPercent': 0.45, 'rescaleHeight': False, 'trialN': 103, 'loaded': True, 'loadedTime': 3144.100000143051, 'positionName': 'LEFT', 'positionCoords': [247.64, 251.5], 'bid': 7.41}, {'imgObject': {}, 'id': 'grilled chicken strips', 'src': '/static/foodstim60/grilled chicken strips.jpg', 'key': 'i', 'origWidth': 410, 'origHeight': 411, 'width': 410, 'height': 411, 'widthPercent': 0.45, 'rescaleHeight': False, 'trialN': 103, 'loaded': True, 'loadedTime': 3086.5, 'positionName': 'RIGHT', 'positionCoords': [711.36, 250.5], 'bid': 6.19}]",206960.60000014305,1669836296962,ice cream sundae 002,grilled chicken strips,7.41,6.19,-1.2199999999999998,ice cream sundae 002,1066,1067,1066.1999998092651,True,u,208540.60000014305,1580.0,1669836298542,1580,HRV,HRV_0254,2022-11-30 19:27:19
104,"[{'imgObject': {}, 'id': 'raisin bran w milk', 'src': '/static/foodstim60/raisin bran w milk.jpg', 'key': 'u', 'origWidth': 411, 'origHeight': 411, 'width': 411, 'height': 411, 'widthPercent': 0.45, 'rescaleHeight': False, 'trialN': 104, 'loaded': True, 'loadedTime': 3061.7000000476837, 'positionName': 'LEFT', 'positionCoords': [245.64, 250.5], 'bid': 5.73}, {'imgObject': {}, 'id': 'Tribe humus pita', 'src': '/static/foodstim60/Tribe humus pita.jpg', 'key': 'i', 'origWidth': 411, 'origHeight': 411, 'width': 411, 'height': 411, 'widthPercent': 0.45, 'rescaleHeight': False, 'trialN': 104, 'loaded': True, 'loadedTime': 2989.5, 'positionName': 'RIGHT', 'positionCoords': [711.36, 250.5], 'bid': 6.11}]",208540.90000009537,1669836298543,raisin bran w milk,Tribe humus pita,5.73,6.11,0.3799999999999999,raisin bran w milk,1282.0999999046326,1282,1282.2999999523163,True,u,210333.40000009537,1792.5,1669836300335,1792,HRV,HRV_0254,2022-11-30 19:27:19
105,"[{'imgObject': {}, 'id': 'rigatoni and sauce', 'src': '/static/foodstim60/rigatoni and sauce.jpg', 'key': 'u', 'origWidth': 410, 'origHeight': 411, 'width': 410, 'height': 411, 'widthPercent': 0.45, 'rescaleHeight': False, 'trialN': 105, 'loaded': True, 'loadedTime': 3147.7999999523163, 'positionName': 'LEFT', 'positionCoords': [246.64, 250.5], 'bid': 3.53}, {'imgObject': {}, 'id': 'burrito', 'src': '/static/foodstim60/burrito.jpg', 'key': 'i', 'origWidth': 410, 'origHeight': 410, 'width': 410, 'height': 410, 'widthPercent': 0.45, 'rescaleHeight': False, 'trialN': 105, 'loaded': True, 'loadedTime': 3124.2000000476837, 'positionName': 'RIGHT', 'positionCoords': [711.36, 251], 'bid': 3.9}]",210333.70000004768,1669836300336,rigatoni and sauce,burrito,3.53,3.9,0.3700000000000001,rigatoni and sauce,1914.7000000476837,1915,1915.0999999046326,True,u,212755.0,2421.2999999523163,1669836302757,2421,HRV,HRV_0254,2022-11-30 19:27:19
106,"[{'imgObject': {}, 'id': 'yogurt no spoon', 'src': '/static/foodstim60/yogurt no spoon.jpg', 'key': 'u', 'origWidth': 411, 'origHeight': 410, 'width': 411, 'height': 410, 'widthPercent': 0.45, 'rescaleHeight': False, 'trialN': 106, 'loaded': True, 'loadedTime': 3149.100000143051, 'positionName': 'LEFT', 'positionCoords': [245.64, 251], 'bid': 5.54}, {'imgObject': {}, 'id': 'raisin bran w milk', 'src': '/static/foodstim60/raisin bran w milk.jpg', 'key': 'i', 'origWidth': 411, 'origHeight': 411, 'width': 411, 'height': 411, 'widthPercent': 0.45, 'rescaleHeight': False, 'trialN': 106, 'loaded': True, 'loadedTime': 3061.7000000476837, 'positionName': 'RIGHT', 'positionCoords': [711.36, 250.5], 'bid': 5.73}]",212755.20000004768,1669836302757,yogurt no spoon,raisin bran w milk,5.54,5.73,0.1900000000000004,raisin bran w milk,1763.9000000953674,1764,1764.2999999523163,True,i,215038.5,2283.2999999523163,1669836305040,2283,HRV,HRV_0254,2022-11-30 19:27:19
107,"[{'imgObject': {}, 'id': 'avocado', 'src': '/static/foodstim60/avocado.jpg', 'key': 'u', 'origWidth': 409, 'origHeight': 409, 'width': 409, 'height': 409, 'widthPercent': 0.45, 'rescaleHeight': False, 'trialN': 107, 'loaded': True, 'loadedTime': 3136, 'positionName': 'LEFT', 'positionCoords': [247.64, 251.5], 'bid': 3.66}, {'imgObject': {}, 'id': 'bagel and cc', 'src': '/static/foodstim60/bagel and cc.jpg', 'key': 'i', 'origWidth': 410, 'origHeight': 410, 'width': 410, 'height': 410, 'widthPercent': 0.45, 'rescaleHeight': False, 'trialN': 107, 'loaded': True, 'loadedTime': 3048.7999999523163, 'positionName': 'RIGHT', 'positionCoords': [711.36, 251], 'bid': 3.62}]",215038.70000004768,1669836305040,avocado,bagel and cc,3.66,3.62,-0.040000000000000036,bagel and cc,1150.5,1151,1150.7999999523163,True,i,216695.60000014305,1656.9000000953674,1669836306697,1657,HRV,HRV_0254,2022-11-30 19:27:19
