success,trial_type,trial_index,time_elapsed,internal_node_id,Block,TrialNumber,TrialTime,trialTimeDiff,FPS_avg,FPS_med,FPS_mode,TrialDur,winResizeTime,rt,block,button_pressed,missTrial,missTrialMsg,MotCoh,MotDir,ColCoh,Color,ChoiceKey,Choice,Accuracy,RT,nFrames,FPS,PPD,onsetDelay,fullScreenExitTime,canvCenter,TrialType,Score,BlockTrial,stimulus,button_labels,exp,subjectId,date
True,fullscreen,0,2585,0.0-0.0,0.0,1.0,,,,,,,,,,,,,,,,,,,,,,,,,,,,,,,,HRV,HRV_0254,2022-11-30 19:56:27
,wl-check-fps,1,7581,0.0-1.0,0.0,2.0,"[3200.7, 3208.2, 3222.1, 3239.1, 3255.9, 3272.8, 3288.8, 3305.7, 3322.3, 3339.1, 3356.5, 3373.9, 3388.9, 3405.5, 3423.1, 3439.7, 3455.7, 3473.1, 3489.6, 3506.1, 3522.4, 3539, 3556.4, 3572.6, 3589.2, 3606.1, 3622.9, 3639.7, 3656.5, 3672.7, 3689.7, 3706, 3722.6, 3739.2, 3755.9, 3772.8, 3789.7, 3806.5, 3824.1, 3839.5, 3855.9, 3872.5, 3889.3, 3906, 3922.6, 3939.6, 3956, 3972.4, 3989.4, 4006.7, 4022.8, 4040, 4056.9, 4072.8, 4089.9, 4106.2, 4122, 4138.7, 4155.4, 4172.3, 4188.9, 4205.3, 4222.3, 4238.8, 4255.6, 4272.3, 4289, 4305.7, 4322.4, 4339, 4355.7, 4372.3, 4388.9, 4405.5, 4422.7, 4438.9, 4455.8, 4472.7, 4489.6, 4506.2, 4523.2, 4540.4, 4557, 4573.4, 4590.4, 4607.3, 4623.7, 4640.6, 4656.7, 4673.6, 4690.3, 4706.9, 4723.5, 4740.2, 4757.3, 4773.8, 4790.3, 4807, 4824.1, 4840.2, 4856.8, 4873.2, 4889.9, 4906.9, 4923.4, 4940.5, 4957.2, 4973.8, 4990.4, 5006.9, 5024.3, 5040.1, 5057.1, 5073.7, 5090, 5107.3, 5124.1, 5140.2, 5157.2, 5173.9, 5190.5, 5207.5, 5224.3, 5240.4, 5257.4, 5274.1, 5290.1, 5307, 5323.9, 5340.7, 5357.3, 5374, 5390.8, 5407, 5423.7, 5440.8, 5457.3, 5474, 5490.3, 5507.2, 5524.1, 5541, 5558.1, 5574.2, 5590.6, 5607.4, 5624.2, 5640.3, 5657.3, 5674.4, 5691.1, 5707.7, 5723.8, 5740.5, 5757.1, 5774.6, 5790.8, 5807.1, 5825.6, 5840.8, 5857.4, 5874, 5891.4, 5907.7, 5924.7, 5941.3, 5958.2, 5974.8, 5990.9, 6008.9, 6023.8, 6041.4, 6056.7, 6074.6, 6091.4, 6107.8, 6124.8, 6141.5, 6157.8, 6174.8, 6190.7, 6207.8, 6224.3, 6240.8, 6257.7, 6274.5, 6291.3, 6307.9, 6325.2, 6341.5, 6357.6, 6374.6, 6391.5, 6407.8, 6425.2, 6441.5, 6458.1, 6474.5, 6491.5, 6508.3, 6524.6, 6541.1, 6558, 6575.2, 6591.4, 6607.8, 6624.8, 6641.7, 6658.3, 6674.5, 6691, 6707.9, 6724.4, 6741.6, 6757.8, 6774.6, 6791.6, 6808.2, 6824.7, 6841.9, 6858.3, 6875.3, 6892, 6908.6, 6925.1, 6941.8, 6958.4, 6975.3, 6993, 7008.6, 7024.8, 7041.6, 7058.1, 7075.2, 7092, 7108.1, 7125.1, 7141.7, 7158.5, 7175.2, 7192.2, 7208.3, 7227.1, 7241.8, 7258.1, 7275.2, 7291.8, 7308, 7325.6, 7342.1, 7358.4, 7375.6, 7391.6, 7408.1, 7425, 7441.8, 7458.5, 7475.7, 7491.6, 7508.4, 7525.4, 7542, 7558.5, 7575.5, 7592.1, 7608.4, 7625.3, 7642.5, 7658.8, 7675.4, 7692.4, 7708.9, 7725.3, 7741.8, 7758.6, 7775.6, 7792.9, 7808.8, 7825, 7842.3, 7858.5, 7875.6, 7892.1, 7909.2, 7925.8, 7942.5, 7958.8, 7975.9, 7992.8, 8009.1, 8025.1, 8042.8, 8058.3, 8075.6, 8092, 8108.9, 8126.2, 8142.8, 8159.8, 8175.7]","[1, 7.5, 13.9, 17, 16.8, 16.9, 16, 16.9, 16.6, 16.8, 17.4, 17.4, 15, 16.6, 17.6, 16.6, 16, 17.4, 16.5, 16.5, 16.3, 16.6, 17.4, 16.2, 16.6, 16.9, 16.8, 16.8, 16.8, 16.2, 17, 16.3, 16.6, 16.6, 16.7, 16.9, 16.9, 16.8, 17.6, 15.4, 16.4, 16.6, 16.8, 16.7, 16.6, 17, 16.4, 16.4, 17, 17.3, 16.1, 17.2, 16.9, 15.9, 17.1, 16.3, 15.8, 16.7, 16.7, 16.9, 16.6, 16.4, 17, 16.5, 16.8, 16.7, 16.7, 16.7, 16.7, 16.6, 16.7, 16.6, 16.6, 16.6, 17.2, 16.2, 16.9, 16.9, 16.9, 16.6, 17, 17.2, 16.6, 16.4, 17, 16.9, 16.4, 16.9, 16.1, 16.9, 16.7, 16.6, 16.6, 16.7, 17.1, 16.5, 16.5, 16.7, 17.1, 16.1, 16.6, 16.4, 16.7, 17, 16.5, 17.1, 16.7, 16.6, 16.6, 16.5, 17.4, 15.8, 17, 16.6, 16.3, 17.3, 16.8, 16.1, 17, 16.7, 16.6, 17, 16.8, 16.1, 17, 16.7, 16, 16.9, 16.9, 16.8, 16.6, 16.7, 16.8, 16.2, 16.7, 17.1, 16.5, 16.7, 16.3, 16.9, 16.9, 16.9, 17.1, 16.1, 16.4, 16.8, 16.8, 16.1, 17, 17.1, 16.7, 16.6, 16.1, 16.7, 16.6, 17.5, 16.2, 16.3, 18.5, 15.2, 16.6, 16.6, 17.4, 16.3, 17, 16.6, 16.9, 16.6, 16.1, 18, 14.9, 17.6, 15.3, 17.9, 16.8, 16.4, 17, 16.7, 16.3, 17, 15.9, 17.1, 16.5, 16.5, 16.9, 16.8, 16.8, 16.6, 17.3, 16.3, 16.1, 17, 16.9, 16.3, 17.4, 16.3, 16.6, 16.4, 17, 16.8, 16.3, 16.5, 16.9, 17.2, 16.2, 16.4, 17, 16.9, 16.6, 16.2, 16.5, 16.9, 16.5, 17.2, 16.2, 16.8, 17, 16.6, 16.5, 17.2, 16.4, 17, 16.7, 16.6, 16.5, 16.7, 16.6, 16.9, 17.7, 15.6, 16.2, 16.8, 16.5, 17.1, 16.8, 16.1, 17, 16.6, 16.8, 16.7, 17, 16.1, 18.8, 14.7, 16.3, 17.1, 16.6, 16.2, 17.6, 16.5, 16.3, 17.2, 16, 16.5, 16.9, 16.8, 16.7, 17.2, 15.9, 16.8, 17, 16.6, 16.5, 17, 16.6, 16.3, 16.9, 17.2, 16.3, 16.6, 17, 16.5, 16.4, 16.5, 16.8, 17, 17.3, 15.9, 16.2, 17.3, 16.2, 17.1, 16.5, 17.1, 16.6, 16.7, 16.3, 17.1, 16.9, 16.3, 16, 17.7, 15.5, 17.3, 16.4, 16.9, 17.3, 16.6, 17, 15.9]",60.0,59.0,60.0,4992.4,[],,,,,,,,,,,,,,,,,,,,,,,,,HRV,HRV_0254,2022-11-30 19:56:27
,wl-html-keyboard-response,2,25157,0.0-2.0-0.0,0.0,2.0,,,,,,,,15565.900000095367,0.0,0,True,undefinedblurEvent ,,,,,,,,,,,,,,,,,,,,HRV,HRV_0254,2022-11-30 19:56:27
,wl-rdm,3,33698,0.0-3.0-0.0,0.0,3.0,,,,,,,[],,,,False,,0.0,0.0,87.9,0.0,u,0.0,True,2976.600000143051,179.0,60.0,40.0,3000.0,[],"[684, 456]",ColorTask_Demo,,,,,HRV,HRV_0254,2022-11-30 19:56:27
,wl-rdm,4,41220,0.0-3.0-1.0,0.0,4.0,,,,,,,[],,,,False,,0.0,0.0,87.9,1.0,i,1.0,True,3461.2999999523163,208.0,60.0,40.0,2000.0,[],"[684, 456]",ColorTask_Demo,,,,,HRV,HRV_0254,2022-11-30 19:56:27
,wl-html-keyboard-response,5,45818,0.0-3.0-2.0,0.0,5.0,,,,,,,,,0.0,0,,,,,,,,,,,,,,,,,,,,,,HRV,HRV_0254,2022-11-30 19:56:27
,wl-rdm,6,52611,0.0-3.1-0.1,0.0,3.0,,,,,,,[],,,,False,,0.0,0.0,87.9,0.0,u,0.0,True,1218.2000000476837,74.0,60.0,40.0,3000.0,[],"[684, 456]",ColorTask_Demo,,,,,HRV,HRV_0254,2022-11-30 19:56:27
,wl-rdm,7,57798,0.0-3.1-1.1,0.0,4.0,,,,,,,[],,,,False,,0.0,0.0,87.9,1.0,i,1.0,True,1128.4999997615814,68.0,60.0,40.0,2000.0,[],"[684, 456]",ColorTask_Demo,,,,,HRV,HRV_0254,2022-11-30 19:56:27
,wl-html-keyboard-response,8,63809,0.0-3.1-2.1,0.0,5.0,,,,,,,,,0.0,0,,,,,,,,,,,,,,,,,,,,,,HRV,HRV_0254,2022-11-30 19:56:27
,wl-rdm,9,70656,0.0-3.2-0.2,0.0,3.0,,,,,,,[],,,,False,,0.0,0.0,87.9,0.0,u,0.0,True,1282.2000000476837,77.0,60.0,40.0,3000.0,[],"[684, 456]",ColorTask_Demo,,,,,HRV,HRV_0254,2022-11-30 19:56:27
,wl-rdm,10,75676,0.0-3.2-1.2,0.0,4.0,,,,,,,[],,,,False,,0.0,0.0,87.9,1.0,i,1.0,True,965.4000000953674,58.0,60.0,40.0,2000.0,[],"[684, 456]",ColorTask_Demo,,,,,HRV,HRV_0254,2022-11-30 19:56:27
,wl-html-keyboard-response,11,82834,0.0-3.2-2.2,0.0,5.0,,,,,,,,5150.700000047684,0.0,1,,,,,,,,,,,,,,,,,,,,,,HRV,HRV_0254,2022-11-30 19:56:27
,wl-html-keyboard-response,12,95553,0.0-4.0-0.0,0.0,6.0,,,,,,,,10714.400000095367,0.0,0,,,,,,,,,,,,,,,,,,,,,,HRV,HRV_0254,2022-11-30 19:56:27
,wl-html-keyboard-response,13,106913,0.0-5.0-0.0,0.0,7.0,,,,,,,,9351.099999904633,0.0,0,,,,,,,,,,,,,,,,,,,,,,HRV,HRV_0254,2022-11-30 19:56:27
,wl-rdm,14,109433,0.0-6.0-0.0,0.0,8.0,,,,,,,[],,,,False,,,,53.2,0.0,u,0.0,True,1142.0,69.0,60.0,40.0,303.97676229531066,[],"[684, 456]",ColorTask,1.0,1.0,,,HRV,HRV_0254,2022-11-30 19:56:27
,wl-rdm,15,112201,0.0-6.1-0.1,0.0,9.0,,,,,,,[],,,,False,,,,56.4,0.0,u,0.0,True,1432.0999999046326,86.0,60.0,40.0,270.79048867247803,[],"[684, 456]",ColorTask,2.0,2.0,,,HRV,HRV_0254,2022-11-30 19:56:27
,wl-rdm,16,114303,0.0-6.2-0.2,0.0,10.0,,,,,,,[],,,,False,,,,56.4,0.0,u,0.0,True,831.9999997615814,50.0,60.0,40.0,214.9458754211939,[],"[684, 456]",ColorTask,3.0,3.0,,,HRV,HRV_0254,2022-11-30 19:56:27
,wl-rdm,17,116471,0.0-6.3-0.3,0.0,11.0,,,,,,,[],,,,False,,,,50.0,0.0,u,0.0,True,813.1999998092651,49.0,60.0,40.0,291.64377529374656,[],"[684, 456]",ColorTask,4.0,4.0,,,HRV,HRV_0254,2022-11-30 19:56:27
,wl-rdm,18,118739,0.0-6.4-0.4,0.0,12.0,,,,,,,[],,,,False,,,,62.5,1.0,u,0.0,False,816.7999999523163,49.0,60.0,40.0,392.3768413901528,[],"[684, 456]",ColorTask,3.0,5.0,,,HRV,HRV_0254,2022-11-30 19:56:27
,wl-rdm,19,120857,0.0-6.5-0.5,0.0,13.0,,,,,,,[],,,,False,,,,56.4,1.0,i,1.0,True,830.8000001907349,50.0,60.0,40.0,225.22182616051106,[],"[684, 456]",ColorTask,4.0,6.0,,,HRV,HRV_0254,2022-11-30 19:56:27
,wl-rdm,20,123093,0.0-6.6-0.6,0.0,14.0,,,,,,,[],,,,False,,,,50.0,1.0,i,1.0,True,906.1999998092651,55.0,60.0,40.0,261.49182107572966,[],"[684, 456]",ColorTask,5.0,7.0,,,HRV,HRV_0254,2022-11-30 19:56:27
,wl-rdm,21,125060,0.0-6.7-0.7,0.0,15.0,,,,,,,[],,,,False,,,,73.6,1.0,i,1.0,True,690.2000000476837,42.0,60.0,40.0,215.4460234871859,[],"[684, 456]",ColorTask,6.0,8.0,,,HRV,HRV_0254,2022-11-30 19:56:27
,wl-rdm,22,127261,0.0-6.8-0.8,0.0,16.0,,,,,,,[],,,,False,,,,87.9,0.0,u,0.0,True,874.8999998569489,53.0,60.0,40.0,245.41751910350632,[],"[684, 456]",ColorTask,7.0,9.0,,,HRV,HRV_0254,2022-11-30 19:56:27
,wl-rdm,23,129663,0.0-6.9-0.9,0.0,17.0,,,,,,,[],,,,False,,,,53.2,0.0,i,1.0,False,1007.2999999523163,61.0,60.0,40.0,317.70975501422134,[],"[684, 456]",ColorTask,6.0,10.0,,,HRV,HRV_0254,2022-11-30 19:56:27
,wl-rdm,24,131748,0.0-6.10-0.10,0.0,18.0,,,,,,,[],,,,False,,,,53.2,0.0,i,1.0,False,797.2000000476837,48.0,60.0,40.0,229.13123934175195,[],"[684, 456]",ColorTask,5.0,11.0,,,HRV,HRV_0254,2022-11-30 19:56:27
,wl-rdm,25,134067,0.0-6.11-0.11,0.0,19.0,,,,,,,[],,,,False,,,,62.5,0.0,i,1.0,False,1029.8000001907349,62.0,60.0,40.0,221.94121296978915,[],"[684, 456]",ColorTask,4.0,12.0,,,HRV,HRV_0254,2022-11-30 19:56:27
,wl-rdm,26,136384,0.0-6.12-0.12,0.0,20.0,,,,,,,[],,,,False,,,,50.0,0.0,u,0.0,True,919.7000000476837,56.0,60.0,40.0,317.0954094419618,[],"[684, 456]",ColorTask,5.0,13.0,,,HRV,HRV_0254,2022-11-30 19:56:27
,wl-rdm,27,138736,0.0-6.13-0.13,0.0,21.0,,,,,,,[],,,,False,,,,87.9,1.0,i,1.0,True,1066.2999999523163,64.0,60.0,40.0,222.39114145157643,[],"[684, 456]",ColorTask,6.0,14.0,,,HRV,HRV_0254,2022-11-30 19:56:27
,wl-rdm,28,141071,0.0-6.14-0.14,0.0,22.0,,,,,,,[],,,,False,,,,87.9,0.0,u,0.0,True,971.0,59.0,60.0,40.0,291.76203434656605,[],"[684, 456]",ColorTask,7.0,15.0,,,HRV,HRV_0254,2022-11-30 19:56:27
,wl-rdm,29,143389,0.0-6.15-0.15,0.0,23.0,,,,,,,[],,,,False,,,,73.6,0.0,u,0.0,True,891.4000000953674,54.0,60.0,40.0,350.9289407195748,[],"[684, 456]",ColorTask,8.0,16.0,,,HRV,HRV_0254,2022-11-30 19:56:27
,wl-rdm,30,145975,0.0-6.16-0.16,0.0,24.0,,,,,,,[],,,,False,,,,62.5,0.0,u,0.0,True,1292.0,78.0,60.0,40.0,218.67883888083034,[],"[684, 456]",ColorTask,9.0,17.0,,,HRV,HRV_0254,2022-11-30 19:56:27
,wl-rdm,31,148393,0.0-6.17-0.17,0.0,25.0,,,,,,,[],,,,False,,,,87.9,1.0,i,1.0,True,1009.5999999046326,61.0,60.0,40.0,349.6494692414467,[],"[684, 456]",ColorTask,10.0,18.0,,,HRV,HRV_0254,2022-11-30 19:56:27
,wl-rdm,32,150711,0.0-6.18-0.18,0.0,26.0,,,,,,,[],,,,False,,,,73.6,0.0,u,0.0,True,924.2000000476837,56.0,60.0,40.0,323.46769487931516,[],"[684, 456]",ColorTask,11.0,19.0,,,HRV,HRV_0254,2022-11-30 19:56:27
,wl-rdm,33,153146,0.0-6.19-0.19,0.0,27.0,,,,,,,[],,,,False,,,,53.2,1.0,i,1.0,True,1074.5999999046326,65.0,60.0,40.0,289.6591273513489,[],"[684, 456]",ColorTask,12.0,20.0,,,HRV,HRV_0254,2022-11-30 19:56:27
,wl-rdm,34,155464,0.0-6.20-0.20,0.0,28.0,,,,,,,[],,,,False,,,,56.4,0.0,u,0.0,True,1026.3999998569489,62.0,60.0,40.0,224.52355482254265,[],"[684, 456]",ColorTask,13.0,21.0,,,HRV,HRV_0254,2022-11-30 19:56:27
,wl-rdm,35,157899,0.0-6.21-0.21,0.0,29.0,,,,,,,[],,,,False,,,,56.4,1.0,u,0.0,False,1003.5,61.0,60.0,40.0,364.8176891951007,[],"[684, 456]",ColorTask,12.0,22.0,,,HRV,HRV_0254,2022-11-30 19:56:27
,wl-rdm,36,160334,0.0-6.22-0.22,0.0,30.0,,,,,,,[],,,,False,,,,56.4,1.0,u,0.0,False,988.0999999046326,60.0,60.0,40.0,378.1143467260717,[],"[684, 456]",ColorTask,11.0,23.0,,,HRV,HRV_0254,2022-11-30 19:56:27
,wl-rdm,37,162552,0.0-6.23-0.23,0.0,31.0,,,,,,,[],,,,False,,,,53.2,1.0,i,1.0,True,944.5999999046326,57.0,60.0,40.0,206.08675905680929,[],"[684, 456]",ColorTask,12.0,24.0,,,HRV,HRV_0254,2022-11-30 19:56:27
,wl-rdm,38,165255,0.0-6.24-0.24,0.0,32.0,,,,,,,[],,,,False,,,,56.4,0.0,i,1.0,False,1307.3999998569489,79.0,60.0,40.0,301.66666818238616,[],"[684, 456]",ColorTask,11.0,25.0,,,HRV,HRV_0254,2022-11-30 19:56:27
,wl-rdm,39,167573,0.0-6.25-0.25,0.0,33.0,,,,,,,[],,,,False,,,,62.5,1.0,i,1.0,True,1006.6999998092651,61.0,60.0,40.0,241.92353208093968,[],"[684, 456]",ColorTask,12.0,26.0,,,HRV,HRV_0254,2022-11-30 19:56:27
,wl-rdm,40,170040,0.0-6.26-0.26,0.0,34.0,,,,,,,[],,,,False,,,,50.0,0.0,u,0.0,True,1022.7999999523163,62.0,60.0,40.0,367.86524224008093,[],"[684, 456]",ColorTask,13.0,27.0,,,HRV,HRV_0254,2022-11-30 19:56:27
,wl-rdm,41,172325,0.0-6.27-0.27,0.0,35.0,,,,,,,[],,,,False,,,,50.0,1.0,i,1.0,True,970.1999998092651,59.0,60.0,40.0,220.1393379071832,[],"[684, 456]",ColorTask,14.0,28.0,,,HRV,HRV_0254,2022-11-30 19:56:27
,wl-rdm,42,174677,0.0-6.28-0.28,0.0,36.0,,,,,,,[],,,,False,,,,62.5,1.0,i,1.0,True,925.8000001907349,56.0,60.0,40.0,353.3736632038494,[],"[684, 456]",ColorTask,15.0,29.0,,,HRV,HRV_0254,2022-11-30 19:56:27
,wl-rdm,43,177195,0.0-6.29-0.29,0.0,37.0,,,,,,,[],,,,False,,,,50.0,0.0,i,1.0,False,1190.7999999523163,72.0,60.0,40.0,256.30916917606515,[],"[684, 456]",ColorTask,14.0,30.0,,,HRV,HRV_0254,2022-11-30 19:56:27
,wl-rdm,44,179314,0.0-6.30-0.30,0.0,38.0,,,,,,,[],,,,False,,,,73.6,1.0,i,1.0,True,842.0000002384186,51.0,60.0,40.0,206.28944024439576,[],"[684, 456]",ColorTask,15.0,31.0,,,HRV,HRV_0254,2022-11-30 19:56:27
,wl-rdm,45,181599,0.0-6.31-0.31,0.0,39.0,,,,,,,[],,,,False,,,,73.6,1.0,i,1.0,True,849.3999998569489,51.0,60.0,40.0,368.0750149348951,[],"[684, 456]",ColorTask,16.0,32.0,,,HRV,HRV_0254,2022-11-30 19:56:27
,wl-rdm,46,184184,0.0-6.32-0.32,0.0,40.0,,,,,,,[],,,,False,,,,56.4,1.0,i,1.0,True,1290.9000000953674,78.0,60.0,40.0,226.8666911658957,[],"[684, 456]",ColorTask,17.0,33.0,,,HRV,HRV_0254,2022-11-30 19:56:27
,wl-rdm,47,186485,0.0-6.33-0.33,0.0,41.0,,,,,,,[],,,,False,,,,62.5,0.0,u,0.0,True,1027.7999999523163,62.0,60.0,40.0,201.23815314263365,[],"[684, 456]",ColorTask,18.0,34.0,,,HRV,HRV_0254,2022-11-30 19:56:27
,wl-rdm,48,188970,0.0-6.34-0.34,0.0,42.0,,,,,,,[],,,,False,,,,50.0,1.0,u,0.0,False,1192.0999999046326,72.0,60.0,40.0,222.52257844957575,[],"[684, 456]",ColorTask,17.0,35.0,,,HRV,HRV_0254,2022-11-30 19:56:27
,wl-rdm,49,191339,0.0-6.35-0.35,0.0,43.0,,,,,,,[],,,,False,,,,87.9,1.0,i,1.0,True,1023.6999998092651,62.0,60.0,40.0,270.72650411425013,[],"[684, 456]",ColorTask,18.0,36.0,,,HRV,HRV_0254,2022-11-30 19:56:27
,wl-rdm,50,193573,0.0-6.36-0.36,0.0,44.0,,,,,,,[],,,,False,,,,87.9,1.0,i,1.0,True,899.4000000953674,54.0,60.0,40.0,281.8386635083024,[],"[684, 456]",ColorTask,19.0,37.0,,,HRV,HRV_0254,2022-11-30 19:56:27
,wl-rdm,51,195975,0.0-6.37-0.37,0.0,45.0,,,,,,,[],,,,False,,,,73.6,0.0,u,0.0,True,1020.2000000476837,62.0,60.0,40.0,305.79801864637204,[],"[684, 456]",ColorTask,20.0,38.0,,,HRV,HRV_0254,2022-11-30 19:56:27
,wl-rdm,52,198093,0.0-6.38-0.38,0.0,46.0,,,,,,,[],,,,False,,,,50.0,0.0,i,1.0,False,810.0999999046326,49.0,60.0,40.0,237.57802299306059,[],"[684, 456]",ColorTask,19.0,39.0,,,HRV,HRV_0254,2022-11-30 19:56:27
,wl-rdm,53,200462,0.0-6.39-0.39,0.0,47.0,,,,,,,[],,,,False,,,,73.6,1.0,i,1.0,True,1033.0,62.0,60.0,40.0,281.9326693454943,[],"[684, 456]",ColorTask,20.0,40.0,,,HRV,HRV_0254,2022-11-30 19:56:27
,wl-rdm,54,202830,0.0-6.40-0.40,0.0,48.0,,,,,,,[],,,,False,,,,73.6,1.0,i,1.0,True,919.5,56.0,60.0,40.0,363.31240860611774,[],"[684, 456]",ColorTask,21.0,41.0,,,HRV,HRV_0254,2022-11-30 19:56:27
,wl-rdm,55,205181,0.0-6.41-0.41,0.0,49.0,,,,,,,[],,,,False,,,,56.4,0.0,u,0.0,True,1017.8000001907349,62.0,60.0,40.0,253.86863154326113,[],"[684, 456]",ColorTask,22.0,42.0,,,HRV,HRV_0254,2022-11-30 19:56:27
,wl-rdm,56,207400,0.0-6.42-0.42,0.0,50.0,,,,,,,[],,,,False,,,,87.9,1.0,i,1.0,True,871.7999999523163,53.0,60.0,40.0,267.952804746196,[],"[684, 456]",ColorTask,23.0,43.0,,,HRV,HRV_0254,2022-11-30 19:56:27
,wl-rdm,57,209451,0.0-6.43-0.43,0.0,51.0,,,,,,,[],,,,False,,,,87.9,1.0,i,1.0,True,730.7999999523163,44.0,60.0,40.0,266.9873548084665,[],"[684, 456]",ColorTask,24.0,44.0,,,HRV,HRV_0254,2022-11-30 19:56:27
,wl-rdm,58,212020,0.0-6.44-0.44,0.0,52.0,,,,,,,[],,,,False,,,,50.0,0.0,u,0.0,True,1110.7000000476837,67.0,60.0,40.0,396.9458957960628,[],"[684, 456]",ColorTask,25.0,45.0,,,HRV,HRV_0254,2022-11-30 19:56:27
,wl-rdm,59,214253,0.0-6.45-0.45,0.0,53.0,,,,,,,[],,,,False,,,,53.2,0.0,u,0.0,True,920.0999999046326,56.0,60.0,40.0,236.78584881957667,[],"[684, 456]",ColorTask,26.0,46.0,,,HRV,HRV_0254,2022-11-30 19:56:27
,wl-rdm,60,217140,0.0-6.46-0.46,0.0,54.0,,,,,,,[],,,,False,,,,56.4,1.0,u,0.0,False,1409.2000000476837,85.0,60.0,40.0,384.8542729566975,[],"[684, 456]",ColorTask,25.0,47.0,,,HRV,HRV_0254,2022-11-30 19:56:27
,wl-rdm,61,219724,0.0-6.47-0.47,0.0,55.0,,,,,,,[],,,,False,,,,50.0,0.0,u,0.0,True,1287.4999997615814,78.0,60.0,40.0,225.49959245200702,[],"[684, 456]",ColorTask,26.0,48.0,,,HRV,HRV_0254,2022-11-30 19:56:27
,wl-rdm,62,221926,0.0-6.48-0.48,0.0,56.0,,,,,,,[],,,,False,,,,62.5,0.0,i,1.0,False,886.7000000476837,54.0,60.0,40.0,239.71519891640887,[],"[684, 456]",ColorTask,25.0,49.0,,,HRV,HRV_0254,2022-11-30 19:56:27
,wl-rdm,63,224361,0.0-6.49-0.49,0.0,57.0,,,,,,,[],,,,False,,,,62.5,0.0,u,0.0,True,1046.2999999523163,63.0,60.0,40.0,324.4093931366425,[],"[684, 456]",ColorTask,26.0,50.0,,,HRV,HRV_0254,2022-11-30 19:56:27
,wl-rdm,64,226795,0.0-6.50-0.50,0.0,58.0,,,,,,,[],,,,False,,,,56.4,1.0,u,0.0,False,1114.0999999046326,67.0,60.0,40.0,260.8267263910529,[],"[684, 456]",ColorTask,25.0,51.0,,,HRV,HRV_0254,2022-11-30 19:56:27
,wl-rdm,65,229215,0.0-6.51-0.51,0.0,59.0,,,,,,,[],,,,False,,,,87.9,0.0,u,0.0,True,1119.7999997138977,68.0,60.0,40.0,222.48260454777977,[],"[684, 456]",ColorTask,26.0,52.0,,,HRV,HRV_0254,2022-11-30 19:56:27
,wl-rdm,66,232450,0.0-6.52-0.52,0.0,60.0,,,,,,,[],,,,False,,,,53.2,1.0,i,1.0,True,1860.5000002384186,112.0,60.0,40.0,315.68098965315005,[],"[684, 456]",ColorTask,27.0,53.0,,,HRV,HRV_0254,2022-11-30 19:56:27
,wl-rdm,67,234985,0.0-6.53-0.53,0.0,61.0,,,,,,,[],,,,False,,,,62.5,0.0,u,0.0,True,1191.2999999523163,72.0,60.0,40.0,274.91813793279766,[],"[684, 456]",ColorTask,28.0,54.0,,,HRV,HRV_0254,2022-11-30 19:56:27
,wl-rdm,68,237536,0.0-6.54-0.54,0.0,62.0,,,,,,,[],,,,False,,,,73.6,0.0,u,0.0,True,1176.6999998092651,71.0,60.0,40.0,308.2000872619616,[],"[684, 456]",ColorTask,29.0,55.0,,,HRV,HRV_0254,2022-11-30 19:56:27
,wl-rdm,69,240305,0.0-6.55-0.55,0.0,63.0,,,,,,,[],,,,False,,,,53.2,1.0,i,1.0,True,1453.400000333786,88.0,60.0,40.0,241.03440604845292,[],"[684, 456]",ColorTask,30.0,56.0,,,HRV,HRV_0254,2022-11-30 19:56:27
,wl-rdm,70,243040,0.0-6.56-0.56,0.0,64.0,,,,,,,[],,,,False,,,,56.4,1.0,i,1.0,True,1428.0,86.0,60.0,40.0,241.86974623159648,[],"[684, 456]",ColorTask,31.0,57.0,,,HRV,HRV_0254,2022-11-30 19:56:27
,wl-rdm,71,245858,0.0-6.57-0.57,0.0,65.0,,,,,,,[],,,,False,,,,62.5,1.0,i,1.0,True,1380.7000000476837,83.0,60.0,40.0,380.2318207291105,[],"[684, 456]",ColorTask,32.0,58.0,,,HRV,HRV_0254,2022-11-30 19:56:27
,wl-rdm,72,248493,0.0-6.58-0.58,0.0,66.0,,,,,,,[],,,,False,,,,87.9,0.0,u,0.0,True,1172.7999999523163,71.0,60.0,40.0,387.0754738802509,[],"[684, 456]",ColorTask,33.0,59.0,,,HRV,HRV_0254,2022-11-30 19:56:27
,wl-rdm,73,252129,0.0-6.59-0.59,0.0,67.0,,,,,,,[],,,,False,,,,56.4,1.0,i,1.0,True,2329.399999856949,140.0,60.0,40.0,246.50022564878162,[],"[684, 456]",ColorTask,34.0,60.0,,,HRV,HRV_0254,2022-11-30 19:56:27
,wl-rdm,74,254831,0.0-6.60-0.60,0.0,68.0,,,,,,,[],,,,False,,,,87.9,0.0,u,0.0,True,1382.3999998569489,83.0,60.0,40.0,250.18108354375707,[],"[684, 456]",ColorTask,35.0,61.0,,,HRV,HRV_0254,2022-11-30 19:56:27
,wl-rdm,75,257166,0.0-6.61-0.61,0.0,69.0,,,,,,,[],,,,False,,,,87.9,0.0,u,0.0,True,1015.9000000953674,61.0,60.0,40.0,251.00163300519506,[],"[684, 456]",ColorTask,36.0,62.0,,,HRV,HRV_0254,2022-11-30 19:56:27
,wl-rdm,76,260185,0.0-6.62-0.62,0.0,70.0,,,,,,,[],,,,False,,,,50.0,1.0,i,1.0,True,1742.9999997615814,105.0,60.0,40.0,211.05567819588302,[],"[684, 456]",ColorTask,37.0,63.0,,,HRV,HRV_0254,2022-11-30 19:56:27
,wl-rdm,77,263021,0.0-6.63-0.63,0.0,71.0,,,,,,,[],,,,False,,,,53.2,1.0,i,1.0,True,1457.5,88.0,60.0,40.0,314.0555473539524,[],"[684, 456]",ColorTask,38.0,64.0,,,HRV,HRV_0254,2022-11-30 19:56:27
,wl-rdm,78,265322,0.0-6.64-0.64,0.0,72.0,,,,,,,[],,,,False,,,,73.6,1.0,i,1.0,True,901.8999998569489,55.0,60.0,40.0,328.95261643215326,[],"[684, 456]",ColorTask,39.0,65.0,,,HRV,HRV_0254,2022-11-30 19:56:27
,wl-rdm,79,267857,0.0-6.65-0.65,0.0,73.0,,,,,,,[],,,,False,,,,73.6,1.0,i,1.0,True,1162.7000000476837,70.0,60.0,40.0,300.3798591130339,[],"[684, 456]",ColorTask,40.0,66.0,,,HRV,HRV_0254,2022-11-30 19:56:27
,wl-rdm,80,270125,0.0-6.66-0.66,0.0,74.0,,,,,,,[],,,,False,,,,62.5,1.0,i,1.0,True,907.2000000476837,55.0,60.0,40.0,286.9091103658413,[],"[684, 456]",ColorTask,41.0,67.0,,,HRV,HRV_0254,2022-11-30 19:56:27
,wl-rdm,81,272676,0.0-6.67-0.67,0.0,75.0,,,,,,,[],,,,False,,,,53.2,1.0,i,1.0,True,1130.5999999046326,68.0,60.0,40.0,367.8330309610585,[],"[684, 456]",ColorTask,42.0,68.0,,,HRV,HRV_0254,2022-11-30 19:56:27
,wl-rdm,82,275095,0.0-6.68-0.68,0.0,76.0,,,,,,,[],,,,False,,,,50.0,1.0,i,1.0,True,978.7999999523163,59.0,60.0,40.0,378.6494769734891,[],"[684, 456]",ColorTask,43.0,69.0,,,HRV,HRV_0254,2022-11-30 19:56:27
,wl-rdm,83,277430,0.0-6.69-0.69,0.0,77.0,,,,,,,[],,,,False,,,,87.9,0.0,u,0.0,True,988.1000001430511,60.0,60.0,40.0,282.49834517430816,[],"[684, 456]",ColorTask,44.0,70.0,,,HRV,HRV_0254,2022-11-30 19:56:27
,wl-rdm,84,279698,0.0-6.70-0.70,0.0,78.0,,,,,,,[],,,,False,,,,73.6,0.0,u,0.0,True,976.5,59.0,60.0,40.0,224.85998787137245,[],"[684, 456]",ColorTask,45.0,71.0,,,HRV,HRV_0254,2022-11-30 19:56:27
,wl-rdm,85,282850,0.0-6.71-0.71,0.0,79.0,,,,,,,[],,,,False,,,,62.5,1.0,i,1.0,True,1709.0000002384186,103.0,60.0,40.0,380.34689587357,[],"[684, 456]",ColorTask,46.0,72.0,,,HRV,HRV_0254,2022-11-30 19:56:27
,wl-rdm,86,285352,0.0-6.72-0.72,0.0,80.0,,,,,,,[],,,,False,,,,50.0,1.0,i,1.0,True,1072.0,65.0,60.0,40.0,354.33093846639076,[],"[684, 456]",ColorTask,47.0,73.0,,,HRV,HRV_0254,2022-11-30 19:56:27
,wl-rdm,87,288204,0.0-6.73-0.73,0.0,81.0,,,,,,,[],,,,False,,,,53.2,0.0,i,1.0,False,1483.2000000476837,89.0,60.0,40.0,303.9044209212272,[],"[684, 456]",ColorTask,46.0,74.0,,,HRV,HRV_0254,2022-11-30 19:56:27
,wl-rdm,88,290939,0.0-6.74-0.74,0.0,82.0,,,,,,,[],,,,False,,,,73.6,0.0,u,0.0,True,1365.9000000953674,82.0,60.0,40.0,302.1804037954506,[],"[684, 456]",ColorTask,47.0,75.0,,,HRV,HRV_0254,2022-11-30 19:56:27
,wl-rdm,89,293991,0.0-6.75-0.75,0.0,83.0,,,,,,,[],,,,False,,,,53.2,1.0,i,1.0,True,1680.5999999046326,101.0,60.0,40.0,310.79672802675714,[],"[684, 456]",ColorTask,48.0,76.0,,,HRV,HRV_0254,2022-11-30 19:56:27
,wl-rdm,90,297128,0.0-6.76-0.76,0.0,84.0,,,,,,,[],,,,False,,,,56.4,0.0,u,0.0,True,1862.8999998569489,112.0,60.0,40.0,214.41672430355783,[],"[684, 456]",ColorTask,49.0,77.0,,,HRV,HRV_0254,2022-11-30 19:56:27
,wl-rdm,91,299296,0.0-6.77-0.77,0.0,85.0,,,,,,,[],,,,False,,,,87.9,0.0,u,0.0,True,899.3999998569489,54.0,60.0,40.0,202.76831238556693,[],"[684, 456]",ColorTask,50.0,78.0,,,HRV,HRV_0254,2022-11-30 19:56:27
,wl-rdm,92,302414,0.0-6.78-0.78,0.0,86.0,,,,,,,[],,,,False,,,,62.5,0.0,u,0.0,True,1830.3000001907349,110.0,60.0,40.0,219.29997972824694,[],"[684, 456]",ColorTask,51.0,79.0,,,HRV,HRV_0254,2022-11-30 19:56:27
,wl-rdm,93,304866,0.0-6.79-0.79,0.0,87.0,,,,,,,[],,,,False,,,,73.6,0.0,u,0.0,True,1161.5999999046326,70.0,60.0,40.0,226.18848466699228,[],"[684, 456]",ColorTask,52.0,80.0,,,HRV,HRV_0254,2022-11-30 19:56:27
,wl-rdm,94,307401,0.0-6.80-0.80,0.0,88.0,,,,,,,[],,,,False,,,,56.4,0.0,i,1.0,False,1229.6000001430511,74.0,60.0,40.0,242.55865883630548,[],"[684, 456]",ColorTask,51.0,81.0,,,HRV,HRV_0254,2022-11-30 19:56:27
,wl-rdm,95,310002,0.0-6.81-0.81,0.0,89.0,,,,,,,[],,,,False,,,,62.5,0.0,u,0.0,True,1211.8999998569489,73.0,60.0,40.0,331.08213543954344,[],"[684, 456]",ColorTask,52.0,82.0,,,HRV,HRV_0254,2022-11-30 19:56:27
,wl-rdm,96,313089,0.0-6.82-0.82,0.0,90.0,,,,,,,[],,,,False,,,,53.2,0.0,i,1.0,False,1791.9999997615814,108.0,60.0,40.0,222.22668579049576,[],"[684, 456]",ColorTask,51.0,83.0,,,HRV,HRV_0254,2022-11-30 19:56:27
,wl-rdm,97,315423,0.0-6.83-0.83,0.0,91.0,,,,,,,[],,,,False,,,,87.9,0.0,u,0.0,True,1042.0000002384186,63.0,60.0,40.0,231.3926271229158,[],"[684, 456]",ColorTask,52.0,84.0,,,HRV,HRV_0254,2022-11-30 19:56:27
,wl-rdm,98,317491,0.0-6.84-0.84,0.0,92.0,,,,,,,[],,,,False,,,,73.6,0.0,u,0.0,True,703.2999999523163,43.0,60.0,40.0,299.45925640180803,[],"[684, 456]",ColorTask,53.0,85.0,,,HRV,HRV_0254,2022-11-30 19:56:27
,wl-rdm,99,319626,0.0-6.85-0.85,0.0,93.0,,,,,,,[],,,,False,,,,50.0,0.0,u,0.0,True,854.2000000476837,52.0,60.0,40.0,216.30568707631784,[],"[684, 456]",ColorTask,54.0,86.0,,,HRV,HRV_0254,2022-11-30 19:56:27
,wl-rdm,100,321961,0.0-6.86-0.86,0.0,94.0,,,,,,,[],,,,False,,,,87.9,1.0,i,1.0,True,910.7999997138977,55.0,60.0,40.0,365.0850644313588,[],"[684, 456]",ColorTask,55.0,87.0,,,HRV,HRV_0254,2022-11-30 19:56:27
,wl-rdm,101,324046,0.0-6.87-0.87,0.0,95.0,,,,,,,[],,,,False,,,,73.6,1.0,i,1.0,True,694.8999998569489,42.0,60.0,40.0,317.47974794291906,[],"[684, 456]",ColorTask,56.0,88.0,,,HRV,HRV_0254,2022-11-30 19:56:27
,wl-rdm,102,326197,0.0-6.88-0.88,0.0,96.0,,,,,,,[],,,,False,,,,56.4,0.0,i,1.0,False,761.7000000476837,46.0,60.0,40.0,327.7511106234763,[],"[684, 456]",ColorTask,55.0,89.0,,,HRV,HRV_0254,2022-11-30 19:56:27
,wl-rdm,103,329366,0.0-6.89-0.89,0.0,97.0,,,,,,,[],,,,False,,,,53.2,0.0,u,0.0,True,1858.4999997615814,112.0,60.0,40.0,241.4545586752497,[],"[684, 456]",ColorTask,56.0,90.0,,,HRV,HRV_0254,2022-11-30 19:56:27
,wl-rdm,104,332035,0.0-6.90-0.90,0.0,98.0,,,,,,,[],,,,False,,,,53.2,0.0,u,0.0,True,1342.6999998092651,81.0,60.0,40.0,262.813729371996,[],"[684, 456]",ColorTask,57.0,91.0,,,HRV,HRV_0254,2022-11-30 19:56:27
,wl-rdm,105,334953,0.0-6.91-0.91,0.0,99.0,,,,,,,[],,,,False,,,,56.4,1.0,i,1.0,True,1606.5,97.0,60.0,40.0,236.34751899144817,[],"[684, 456]",ColorTask,58.0,92.0,,,HRV,HRV_0254,2022-11-30 19:56:27
,wl-rdm,106,337188,0.0-6.92-0.92,0.0,100.0,,,,,,,[],,,,False,,,,87.9,1.0,i,1.0,True,889.0,54.0,60.0,40.0,265.3315030350124,[],"[684, 456]",ColorTask,59.0,93.0,,,HRV,HRV_0254,2022-11-30 19:56:27
,wl-rdm,107,341441,0.0-6.93-0.93,0.0,101.0,,,,,,,[],,,,False,,,,50.0,1.0,u,0.0,False,2908.2000000476837,175.0,60.0,40.0,271.0889212128226,[],"[684, 456]",ColorTask,58.0,94.0,,,HRV,HRV_0254,2022-11-30 19:56:27
,wl-rdm,108,343976,0.0-6.94-0.94,0.0,102.0,,,,,,,[],,,,False,,,,73.6,1.0,i,1.0,True,1266.4000000953674,76.0,60.0,40.0,203.51508607632735,[],"[684, 456]",ColorTask,59.0,95.0,,,HRV,HRV_0254,2022-11-30 19:56:27
,wl-rdm,109,346378,0.0-6.95-0.95,0.0,103.0,,,,,,,[],,,,False,,,,62.5,1.0,i,1.0,True,1065.8000001907349,64.0,60.0,40.0,267.9542874672177,[],"[684, 456]",ColorTask,60.0,96.0,,,HRV,HRV_0254,2022-11-30 19:56:27
,wl-rdm,110,348379,0.0-6.96-0.96,0.0,104.0,,,,,,,[],,,,False,,,,87.9,1.0,i,1.0,True,607.9000000953674,37.0,60.0,40.0,331.65638707941173,[],"[684, 456]",ColorTask,61.0,97.0,,,HRV,HRV_0254,2022-11-30 19:56:27
,wl-rdm,111,351131,0.0-6.97-0.97,0.0,105.0,,,,,,,[],,,,False,,,,53.2,0.0,i,1.0,False,1360.8999998569489,82.0,60.0,40.0,329.96947613785005,[],"[684, 456]",ColorTask,60.0,98.0,,,HRV,HRV_0254,2022-11-30 19:56:27
,wl-rdm,112,353332,0.0-6.98-0.98,0.0,106.0,,,,,,,[],,,,False,,,,56.4,0.0,i,1.0,False,840.2999999523163,51.0,60.0,40.0,285.3038546046091,[],"[684, 456]",ColorTask,59.0,99.0,,,HRV,HRV_0254,2022-11-30 19:56:27
,wl-rdm,113,356251,0.0-6.99-0.99,0.0,107.0,,,,,,,[],,,,False,,,,62.5,1.0,i,1.0,True,1608.9000000953674,97.0,60.0,40.0,243.2501126817786,[],"[684, 456]",ColorTask,60.0,100.0,,,HRV,HRV_0254,2022-11-30 19:56:27
,wl-rdm,114,358802,0.0-6.100-0.100,0.0,108.0,,,,,,,[],,,,False,,,,62.5,1.0,i,1.0,True,1111.2999999523163,67.0,60.0,40.0,372.28741033014296,[],"[684, 456]",ColorTask,61.0,101.0,,,HRV,HRV_0254,2022-11-30 19:56:27
,wl-rdm,115,362022,0.0-6.101-0.101,0.0,109.0,,,,,,,[],,,,False,,,,50.0,1.0,u,0.0,False,1791.9000000953674,108.0,60.0,40.0,355.5952115849011,[],"[684, 456]",ColorTask,60.0,102.0,,,HRV,HRV_0254,2022-11-30 19:56:27
,wl-rdm,116,364474,0.0-6.102-0.102,0.0,110.0,,,,,,,[],,,,False,,,,73.6,0.0,u,0.0,True,1125.8999998569489,68.0,60.0,40.0,265.38196642445143,[],"[684, 456]",ColorTask,61.0,103.0,,,HRV,HRV_0254,2022-11-30 19:56:27
,wl-rdm,117,367125,0.0-6.103-0.103,0.0,111.0,,,,,,,[],,,,False,,,,53.2,1.0,i,1.0,True,1319.0,80.0,60.0,40.0,259.7246122926746,[],"[684, 456]",ColorTask,62.0,104.0,,,HRV,HRV_0254,2022-11-30 19:56:27
,wl-rdm,118,370211,0.0-6.104-0.104,0.0,112.0,,,,,,,[],,,,False,,,,50.0,1.0,i,1.0,True,1747.0,105.0,60.0,40.0,271.4707795360748,[],"[684, 456]",ColorTask,63.0,105.0,,,HRV,HRV_0254,2022-11-30 19:56:27
,wl-rdm,119,373046,0.0-6.105-0.105,0.0,113.0,,,,,,,[],,,,False,,,,53.2,1.0,i,1.0,True,1539.0,93.0,60.0,40.0,221.7460569865776,[],"[684, 456]",ColorTask,64.0,106.0,,,HRV,HRV_0254,2022-11-30 19:56:27
,wl-rdm,120,375498,0.0-6.106-0.106,0.0,114.0,,,,,,,[],,,,False,,,,50.0,0.0,i,1.0,False,1141.5,69.0,60.0,40.0,243.044135375802,[],"[684, 456]",ColorTask,63.0,107.0,,,HRV,HRV_0254,2022-11-30 19:56:27
,wl-rdm,121,378550,0.0-6.107-0.107,0.0,115.0,,,,,,,[],,,,False,,,,62.5,0.0,u,0.0,True,1767.5,106.0,60.0,40.0,207.8300662135171,[],"[684, 456]",ColorTask,64.0,108.0,,,HRV,HRV_0254,2022-11-30 19:56:27
,wl-html-keyboard-response,122,392473,0.0-7.0-0.0,1.0,116.0,,,,,,,,11913.200000047684,1.0,0,,,,,,,,,,,,,,,,,,,,,,HRV,HRV_0254,2022-11-30 19:56:27
,wl-rdm,123,395895,0.0-8.0-0.0,1.0,117.0,,,,,,,[],,,,False,,,,62.5,1.0,i,1.0,True,2041.8999998569489,123.0,60.0,40.0,305.5004565912659,[],"[684, 456]",ColorTask,65.0,1.0,,,HRV,HRV_0254,2022-11-30 19:56:27
,wl-rdm,124,399080,0.0-8.1-0.1,1.0,118.0,,,,,,,[],,,,False,,,,62.5,0.0,u,0.0,True,1740.6999998092651,105.0,60.0,40.0,369.7727825897701,[],"[684, 456]",ColorTask,66.0,2.0,,,HRV,HRV_0254,2022-11-30 19:56:27
,wl-rdm,125,402633,0.0-8.2-0.2,1.0,119.0,,,,,,,[],,,,False,,,,53.2,1.0,i,1.0,True,2132.2999999523163,128.0,60.0,40.0,357.53828646289696,[],"[684, 456]",ColorTask,67.0,3.0,,,HRV,HRV_0254,2022-11-30 19:56:27
,wl-rdm,126,404702,0.0-8.3-0.3,1.0,120.0,,,,,,,[],,,,False,,,,87.9,1.0,i,1.0,True,640.5,39.0,60.0,40.0,360.649053684721,[],"[684, 456]",ColorTask,68.0,4.0,,,HRV,HRV_0254,2022-11-30 19:56:27
,wl-rdm,127,406703,0.0-8.4-0.4,1.0,121.0,,,,,,,[],,,,False,,,,56.4,1.0,i,1.0,True,670.5,41.0,60.0,40.0,265.25461371537415,[],"[684, 456]",ColorTask,69.0,5.0,,,HRV,HRV_0254,2022-11-30 19:56:27
,wl-rdm,128,409054,0.0-8.5-0.5,1.0,122.0,,,,,,,[],,,,False,,,,62.5,1.0,i,1.0,True,1031.7000000476837,62.0,60.0,40.0,262.08635590074823,[],"[684, 456]",ColorTask,70.0,6.0,,,HRV,HRV_0254,2022-11-30 19:56:27
,wl-rdm,129,411340,0.0-8.6-0.6,1.0,123.0,,,,,,,[],,,,False,,,,73.6,1.0,i,1.0,True,856.5,52.0,60.0,40.0,354.1162048506816,[],"[684, 456]",ColorTask,71.0,7.0,,,HRV,HRV_0254,2022-11-30 19:56:27
,wl-rdm,130,413941,0.0-8.7-0.7,1.0,124.0,,,,,,,[],,,,False,,,,50.0,1.0,i,1.0,True,1309.3000001907349,79.0,60.0,40.0,218.03868895722565,[],"[684, 456]",ColorTask,72.0,8.0,,,HRV,HRV_0254,2022-11-30 19:56:27
,wl-rdm,131,415892,0.0-8.8-0.8,1.0,125.0,,,,,,,[],,,,False,,,,56.4,0.0,i,1.0,False,674.7999999523163,41.0,60.0,40.0,210.62386033831734,[],"[684, 456]",ColorTask,71.0,9.0,,,HRV,HRV_0254,2022-11-30 19:56:27
,wl-rdm,132,418293,0.0-8.9-0.9,1.0,126.0,,,,,,,[],,,,False,,,,62.5,0.0,i,1.0,False,992.2000000476837,60.0,60.0,40.0,346.8434147627929,[],"[684, 456]",ColorTask,70.0,10.0,,,HRV,HRV_0254,2022-11-30 19:56:27
,wl-rdm,133,420879,0.0-8.10-0.10,1.0,127.0,,,,,,,[],,,,False,,,,87.9,0.0,u,0.0,True,1165.6999998092651,70.0,60.0,40.0,351.07040939545936,[],"[684, 456]",ColorTask,71.0,11.0,,,HRV,HRV_0254,2022-11-30 19:56:27
,wl-rdm,134,424449,0.0-8.11-0.11,1.0,128.0,,,,,,,[],,,,False,,,,53.2,1.0,i,1.0,True,2148.7000002861023,129.0,60.0,40.0,352.61598623018426,[],"[684, 456]",ColorTask,72.0,12.0,,,HRV,HRV_0254,2022-11-30 19:56:27
,wl-rdm,135,427033,0.0-8.12-0.12,1.0,129.0,,,,,,,[],,,,False,,,,56.4,1.0,i,1.0,True,1265.1999998092651,76.0,60.0,40.0,258.9217533607944,[],"[684, 456]",ColorTask,73.0,13.0,,,HRV,HRV_0254,2022-11-30 19:56:27
,wl-rdm,136,429566,0.0-8.13-0.13,1.0,130.0,,,,,,,[],,,,False,,,,56.4,1.0,i,1.0,True,1240.1000001430511,75.0,60.0,40.0,207.42608503913254,[],"[684, 456]",ColorTask,74.0,14.0,,,HRV,HRV_0254,2022-11-30 19:56:27
,wl-rdm,137,432488,0.0-8.14-0.14,1.0,131.0,,,,,,,[],,,,False,,,,73.6,0.0,u,0.0,True,1539.0,93.0,60.0,40.0,308.1771839639421,[],"[684, 456]",ColorTask,75.0,15.0,,,HRV,HRV_0254,2022-11-30 19:56:27
,wl-rdm,138,435922,0.0-8.15-0.15,1.0,132.0,,,,,,,[],,,,False,,,,53.2,0.0,u,0.0,True,2162.0000002384186,130.0,60.0,40.0,206.37809626965674,[],"[684, 456]",ColorTask,76.0,16.0,,,HRV,HRV_0254,2022-11-30 19:56:27
,wl-rdm,139,438373,0.0-8.16-0.16,1.0,133.0,,,,,,,[],,,,False,,,,73.6,0.0,u,0.0,True,1056.0,64.0,60.0,40.0,328.14068978772576,[],"[684, 456]",ColorTask,77.0,17.0,,,HRV,HRV_0254,2022-11-30 19:56:27
,wl-rdm,140,441760,0.0-8.17-0.17,1.0,134.0,,,,,,,[],,,,False,,,,62.5,1.0,i,1.0,True,2080.7999999523163,125.0,60.0,40.0,238.59455590565454,[],"[684, 456]",ColorTask,78.0,18.0,,,HRV,HRV_0254,2022-11-30 19:56:27
,wl-rdm,141,443894,0.0-8.18-0.18,1.0,135.0,,,,,,,[],,,,False,,,,87.9,1.0,i,1.0,True,790.4000000953674,48.0,60.0,40.0,259.9774742321291,[],"[684, 456]",ColorTask,79.0,19.0,,,HRV,HRV_0254,2022-11-30 19:56:27
,wl-rdm,142,447096,0.0-8.19-0.19,1.0,136.0,,,,,,,[],,,,False,,,,50.0,1.0,i,1.0,True,1838.3999998569489,111.0,60.0,40.0,295.40191396645,[],"[684, 456]",ColorTask,80.0,20.0,,,HRV,HRV_0254,2022-11-30 19:56:27
,wl-rdm,143,449481,0.0-8.20-0.20,1.0,137.0,,,,,,,[],,,,False,,,,50.0,0.0,i,1.0,False,989.5000002384186,60.0,60.0,40.0,318.92264752480696,[],"[684, 456]",ColorTask,79.0,21.0,,,HRV,HRV_0254,2022-11-30 19:56:27
,wl-rdm,144,452049,0.0-8.21-0.21,1.0,138.0,,,,,,,[],,,,False,,,,50.0,1.0,i,1.0,True,1259.6000001430511,76.0,60.0,40.0,233.80414088795476,[],"[684, 456]",ColorTask,80.0,22.0,,,HRV,HRV_0254,2022-11-30 19:56:27
,wl-rdm,145,455035,0.0-8.22-0.22,1.0,139.0,,,,,,,[],,,,False,,,,56.4,1.0,i,1.0,True,1526.0999999046326,92.0,60.0,40.0,397.32791475322165,[],"[684, 456]",ColorTask,81.0,23.0,,,HRV,HRV_0254,2022-11-30 19:56:27
,wl-rdm,146,458004,0.0-8.23-0.23,1.0,140.0,,,,,,,[],,,,False,,,,73.6,1.0,i,1.0,True,1615.0999999046326,97.0,60.0,40.0,294.63559064243447,[],"[684, 456]",ColorTask,82.0,24.0,,,HRV,HRV_0254,2022-11-30 19:56:27
,wl-rdm,147,460906,0.0-8.24-0.24,1.0,141.0,,,,,,,[],,,,False,,,,50.0,1.0,i,1.0,True,1439.2999999523163,87.0,60.0,40.0,393.6891851779805,[],"[684, 456]",ColorTask,83.0,25.0,,,HRV,HRV_0254,2022-11-30 19:56:27
,wl-rdm,148,464892,0.0-8.25-0.25,1.0,142.0,,,,,,,[],,,,False,,,,50.0,0.0,u,0.0,True,2577.2000000476837,155.0,60.0,40.0,336.625885987881,[],"[684, 456]",ColorTask,84.0,26.0,,,HRV,HRV_0254,2022-11-30 19:56:27
,wl-rdm,149,466976,0.0-8.26-0.26,1.0,143.0,,,,,,,[],,,,False,,,,62.5,0.0,u,0.0,True,778.9000000953674,47.0,60.0,40.0,237.3214101456411,[],"[684, 456]",ColorTask,85.0,27.0,,,HRV,HRV_0254,2022-11-30 19:56:27
,wl-rdm,150,469828,0.0-8.27-0.27,1.0,144.0,,,,,,,[],,,,False,,,,50.0,0.0,u,0.0,True,1449.2999999523163,87.0,60.0,40.0,346.8751981835443,[],"[684, 456]",ColorTask,86.0,28.0,,,HRV,HRV_0254,2022-11-30 19:56:27
,wl-rdm,151,472313,0.0-8.28-0.28,1.0,145.0,,,,,,,[],,,,False,,,,87.9,1.0,i,1.0,True,1214.7999999523163,73.0,60.0,40.0,216.62587915342868,[],"[684, 456]",ColorTask,87.0,29.0,,,HRV,HRV_0254,2022-11-30 19:56:27
,wl-rdm,152,475399,0.0-8.29-0.29,1.0,146.0,,,,,,,[],,,,False,,,,50.0,1.0,i,1.0,True,1781.4000000953674,107.0,60.0,40.0,236.93334089598974,[],"[684, 456]",ColorTask,88.0,30.0,,,HRV,HRV_0254,2022-11-30 19:56:27
,wl-rdm,153,478151,0.0-8.30-0.30,1.0,147.0,,,,,,,[],,,,False,,,,73.6,0.0,u,0.0,True,1414.5,85.0,60.0,40.0,252.625820682584,[],"[684, 456]",ColorTask,89.0,31.0,,,HRV,HRV_0254,2022-11-30 19:56:27
,wl-rdm,154,481087,0.0-8.31-0.31,1.0,148.0,,,,,,,[],,,,False,,,,53.2,0.0,u,0.0,True,1558.3000001907349,94.0,60.0,40.0,311.95417973457484,[],"[684, 456]",ColorTask,90.0,32.0,,,HRV,HRV_0254,2022-11-30 19:56:27
,wl-rdm,155,483805,0.0-8.32-0.32,1.0,149.0,,,,,,,[],,,,False,,,,53.2,1.0,i,1.0,True,1379.5999999046326,83.0,60.0,40.0,269.41265718670564,[],"[684, 456]",ColorTask,91.0,33.0,,,HRV,HRV_0254,2022-11-30 19:56:27
,wl-rdm,156,486207,0.0-8.33-0.33,1.0,150.0,,,,,,,[],,,,False,,,,87.9,0.0,u,0.0,True,1056.7000000476837,64.0,60.0,40.0,277.3902875841616,[],"[684, 456]",ColorTask,92.0,34.0,,,HRV,HRV_0254,2022-11-30 19:56:27
,wl-rdm,157,488442,0.0-8.34-0.34,1.0,151.0,,,,,,,[],,,,False,,,,53.2,0.0,u,0.0,True,824.0000002384186,50.0,60.0,40.0,335.01222266437867,[],"[684, 456]",ColorTask,93.0,35.0,,,HRV,HRV_0254,2022-11-30 19:56:27
,wl-rdm,158,490976,0.0-8.35-0.35,1.0,152.0,,,,,,,[],,,,False,,,,73.6,0.0,u,0.0,True,1195.7000000476837,72.0,60.0,40.0,271.9687947999115,[],"[684, 456]",ColorTask,94.0,36.0,,,HRV,HRV_0254,2022-11-30 19:56:27
,wl-rdm,159,493361,0.0-8.36-0.36,1.0,153.0,,,,,,,[],,,,False,,,,73.6,0.0,u,0.0,True,1104.7000000476837,67.0,60.0,40.0,210.0149074946439,[],"[684, 456]",ColorTask,95.0,37.0,,,HRV,HRV_0254,2022-11-30 19:56:27
,wl-rdm,160,496947,0.0-8.37-0.37,1.0,154.0,,,,,,,[],,,,False,,,,53.2,0.0,i,1.0,False,2192.7999999523163,132.0,60.0,40.0,318.8132305095049,[],"[684, 456]",ColorTask,94.0,38.0,,,HRV,HRV_0254,2022-11-30 19:56:27
,wl-rdm,161,499032,0.0-8.38-0.38,1.0,155.0,,,,,,,[],,,,False,,,,56.4,0.0,i,1.0,False,723.7999997138977,44.0,60.0,40.0,275.3771680486161,[],"[684, 456]",ColorTask,93.0,39.0,,,HRV,HRV_0254,2022-11-30 19:56:27
,wl-rdm,162,502651,0.0-8.39-0.39,1.0,156.0,,,,,,,[],,,,False,,,,53.2,1.0,i,1.0,True,2308.2999999523163,139.0,60.0,40.0,238.8258656621194,[],"[684, 456]",ColorTask,94.0,40.0,,,HRV,HRV_0254,2022-11-30 19:56:27
,wl-rdm,163,505053,0.0-8.40-0.40,1.0,157.0,,,,,,,[],,,,False,,,,73.6,0.0,u,0.0,True,1060.5999999046326,64.0,60.0,40.0,278.35496034330146,[],"[684, 456]",ColorTask,95.0,41.0,,,HRV,HRV_0254,2022-11-30 19:56:27
,wl-rdm,164,507688,0.0-8.41-0.41,1.0,158.0,,,,,,,[],,,,False,,,,87.9,1.0,i,1.0,True,1193.2000000476837,72.0,60.0,40.0,371.4050952505987,[],"[684, 456]",ColorTask,96.0,42.0,,,HRV,HRV_0254,2022-11-30 19:56:27
,wl-rdm,165,510390,0.0-8.42-0.42,1.0,159.0,,,,,,,[],,,,False,,,,56.4,1.0,u,0.0,False,1338.7999999523163,81.0,60.0,40.0,284.51201274616875,[],"[684, 456]",ColorTask,95.0,43.0,,,HRV,HRV_0254,2022-11-30 19:56:27
,wl-rdm,166,512942,0.0-8.43-0.43,1.0,160.0,,,,,,,[],,,,False,,,,87.9,0.0,u,0.0,True,1139.2999999523163,69.0,60.0,40.0,320.12102570412617,[],"[684, 456]",ColorTask,96.0,44.0,,,HRV,HRV_0254,2022-11-30 19:56:27
,wl-rdm,167,515260,0.0-8.44-0.44,1.0,161.0,,,,,,,[],,,,False,,,,73.6,1.0,i,1.0,True,1036.5999999046326,63.0,60.0,40.0,215.64398061958488,[],"[684, 456]",ColorTask,97.0,45.0,,,HRV,HRV_0254,2022-11-30 19:56:27
,wl-rdm,168,519112,0.0-8.45-0.45,1.0,162.0,,,,,,,[],,,,False,,,,53.2,1.0,i,1.0,True,2428.4000000953674,146.0,60.0,40.0,354.76777719189545,[],"[684, 456]",ColorTask,98.0,46.0,,,HRV,HRV_0254,2022-11-30 19:56:27
,wl-rdm,169,523232,0.0-8.46-0.46,1.0,163.0,,,,,,,[],,,,False,,,,53.2,0.0,i,1.0,False,2716.5,163.0,60.0,40.0,343.81872712007083,[],"[684, 456]",ColorTask,97.0,47.0,,,HRV,HRV_0254,2022-11-30 19:56:27
,wl-rdm,170,525533,0.0-8.47-0.47,1.0,164.0,,,,,,,[],,,,False,,,,62.5,1.0,i,1.0,True,971.0999999046326,59.0,60.0,40.0,243.40147393372408,[],"[684, 456]",ColorTask,98.0,48.0,,,HRV,HRV_0254,2022-11-30 19:56:27
,wl-rdm,171,529403,0.0-8.48-0.48,1.0,165.0,,,,,,,[],,,,False,,,,56.4,1.0,i,1.0,True,2528.399999856949,152.0,60.0,40.0,281.03689652652463,[],"[684, 456]",ColorTask,99.0,49.0,,,HRV,HRV_0254,2022-11-30 19:56:27
,wl-rdm,172,532205,0.0-8.49-0.49,1.0,166.0,,,,,,,[],,,,False,,,,53.2,1.0,i,1.0,True,1514.0,91.0,60.0,40.0,223.1841005990061,[],"[684, 456]",ColorTask,100.0,50.0,,,HRV,HRV_0254,2022-11-30 19:56:27
,wl-rdm,173,535274,0.0-8.50-0.50,1.0,167.0,,,,,,,[],,,,False,,,,50.0,1.0,u,0.0,False,1676.4000000953674,101.0,60.0,40.0,330.880678186021,[],"[684, 456]",ColorTask,99.0,51.0,,,HRV,HRV_0254,2022-11-30 19:56:27
,wl-rdm,174,538108,0.0-8.51-0.51,1.0,168.0,,,,,,,[],,,,False,,,,62.5,0.0,u,0.0,True,1393.8000001907349,84.0,60.0,40.0,377.1328751187274,[],"[684, 456]",ColorTask,100.0,52.0,,,HRV,HRV_0254,2022-11-30 19:56:27
,wl-rdm,175,541778,0.0-8.52-0.52,1.0,169.0,,,,,,,[],,,,False,,,,56.4,0.0,i,1.0,False,2330.100000143051,140.0,60.0,40.0,269.65930755627073,[],"[684, 456]",ColorTask,99.0,53.0,,,HRV,HRV_0254,2022-11-30 19:56:27
,wl-rdm,176,544264,0.0-8.53-0.53,1.0,170.0,,,,,,,[],,,,False,,,,87.9,0.0,u,0.0,True,1048.1000001430511,63.0,60.0,40.0,376.33255169221104,[],"[684, 456]",ColorTask,100.0,54.0,,,HRV,HRV_0254,2022-11-30 19:56:27
,wl-rdm,177,547716,0.0-8.54-0.54,1.0,171.0,,,,,,,[],,,,False,,,,53.2,0.0,u,0.0,True,2125.2000000476837,128.0,60.0,40.0,259.13100255046595,[],"[684, 456]",ColorTask,101.0,55.0,,,HRV,HRV_0254,2022-11-30 19:56:27
,wl-rdm,178,550801,0.0-8.55-0.55,1.0,172.0,,,,,,,[],,,,False,,,,53.2,1.0,u,0.0,False,1710.2999999523163,103.0,60.0,40.0,305.58916537775923,[],"[684, 456]",ColorTask,100.0,56.0,,,HRV,HRV_0254,2022-11-30 19:56:27
,wl-rdm,179,553053,0.0-8.56-0.56,1.0,173.0,,,,,,,[],,,,False,,,,62.5,1.0,i,1.0,True,965.7000002861023,58.0,60.0,40.0,219.5176785058918,[],"[684, 456]",ColorTask,101.0,57.0,,,HRV,HRV_0254,2022-11-30 19:56:27
,wl-rdm,180,555671,0.0-8.57-0.57,1.0,174.0,,,,,,,[],,,,False,,,,56.4,0.0,u,0.0,True,1313.7000000476837,79.0,60.0,40.0,243.71216403324138,[],"[684, 456]",ColorTask,102.0,58.0,,,HRV,HRV_0254,2022-11-30 19:56:27
,wl-rdm,181,557973,0.0-8.58-0.58,1.0,175.0,,,,,,,[],,,,False,,,,87.9,0.0,u,0.0,True,959.0,58.0,60.0,40.0,276.693910118582,[],"[684, 456]",ColorTask,103.0,59.0,,,HRV,HRV_0254,2022-11-30 19:56:27
,wl-rdm,182,561360,0.0-8.59-0.59,1.0,176.0,,,,,,,[],,,,False,,,,56.4,1.0,u,0.0,False,1980.6000001430511,119.0,60.0,40.0,330.86558381080783,[],"[684, 456]",ColorTask,102.0,60.0,,,HRV,HRV_0254,2022-11-30 19:56:27
,wl-rdm,183,563659,0.0-8.60-0.60,1.0,177.0,,,,,,,[],,,,False,,,,62.5,1.0,i,1.0,True,1026.7999999523163,62.0,60.0,40.0,213.2173372582555,[],"[684, 456]",ColorTask,103.0,61.0,,,HRV,HRV_0254,2022-11-30 19:56:27
,wl-rdm,184,565912,0.0-8.61-0.61,1.0,178.0,,,,,,,[],,,,False,,,,87.9,1.0,i,1.0,True,915.0,55.0,60.0,40.0,276.7750017097724,[],"[684, 456]",ColorTask,104.0,62.0,,,HRV,HRV_0254,2022-11-30 19:56:27
,wl-rdm,185,568412,0.0-8.62-0.62,1.0,179.0,,,,,,,[],,,,False,,,,73.6,1.0,i,1.0,True,1191.6000001430511,72.0,60.0,40.0,249.89199563589025,[],"[684, 456]",ColorTask,105.0,63.0,,,HRV,HRV_0254,2022-11-30 19:56:27
,wl-rdm,186,570732,0.0-8.63-0.63,1.0,180.0,,,,,,,[],,,,False,,,,73.6,0.0,u,0.0,True,1030.1000001430511,62.0,60.0,40.0,213.65277634185585,[],"[684, 456]",ColorTask,106.0,64.0,,,HRV,HRV_0254,2022-11-30 19:56:27
,wl-rdm,187,573850,0.0-8.64-0.64,1.0,181.0,,,,,,,[],,,,False,,,,56.4,0.0,u,0.0,True,1818.1999998092651,110.0,60.0,40.0,218.39474518784758,[],"[684, 456]",ColorTask,107.0,65.0,,,HRV,HRV_0254,2022-11-30 19:56:27
,wl-rdm,188,576602,0.0-8.65-0.65,1.0,182.0,,,,,,,[],,,,False,,,,56.4,0.0,u,0.0,True,1424.5999999046326,86.0,60.0,40.0,245.55013779168303,[],"[684, 456]",ColorTask,108.0,66.0,,,HRV,HRV_0254,2022-11-30 19:56:27
,wl-rdm,189,579421,0.0-8.66-0.66,1.0,183.0,,,,,,,[],,,,False,,,,73.6,0.0,u,0.0,True,1507.0999999046326,91.0,60.0,40.0,227.00113622437104,[],"[684, 456]",ColorTask,109.0,67.0,,,HRV,HRV_0254,2022-11-30 19:56:27
,wl-rdm,190,582372,0.0-8.67-0.67,1.0,184.0,,,,,,,[],,,,False,,,,53.2,0.0,u,0.0,True,1682.9000000953674,101.0,60.0,40.0,206.60113105987523,[],"[684, 456]",ColorTask,110.0,68.0,,,HRV,HRV_0254,2022-11-30 19:56:27
,wl-rdm,191,585992,0.0-8.68-0.68,1.0,185.0,,,,,,,[],,,,False,,,,50.0,1.0,i,1.0,True,2157.5,130.0,60.0,40.0,374.2874145662865,[],"[684, 456]",ColorTask,111.0,69.0,,,HRV,HRV_0254,2022-11-30 19:56:27
,wl-rdm,192,588527,0.0-8.69-0.69,1.0,186.0,,,,,,,[],,,,False,,,,50.0,1.0,i,1.0,True,1232.5,74.0,60.0,40.0,236.8879271962034,[],"[684, 456]",ColorTask,112.0,70.0,,,HRV,HRV_0254,2022-11-30 19:56:27
,wl-rdm,193,591779,0.0-8.70-0.70,1.0,187.0,,,,,,,[],,,,False,,,,53.2,0.0,u,0.0,True,1876.7999999523163,113.0,60.0,40.0,299.87320134534167,[],"[684, 456]",ColorTask,113.0,71.0,,,HRV,HRV_0254,2022-11-30 19:56:27
,wl-rdm,194,594148,0.0-8.71-0.71,1.0,188.0,,,,,,,[],,,,False,,,,87.9,0.0,u,0.0,True,1041.2000000476837,63.0,60.0,40.0,261.24746085906776,[],"[684, 456]",ColorTask,114.0,72.0,,,HRV,HRV_0254,2022-11-30 19:56:27
,wl-rdm,195,597850,0.0-8.72-0.72,1.0,189.0,,,,,,,[],,,,False,,,,62.5,0.0,u,0.0,True,2379.5999999046326,143.0,60.0,40.0,264.6739059215943,[],"[684, 456]",ColorTask,115.0,73.0,,,HRV,HRV_0254,2022-11-30 19:56:27
,wl-rdm,196,600586,0.0-8.73-0.73,1.0,190.0,,,,,,,[],,,,False,,,,73.6,1.0,i,1.0,True,1278.2000002861023,77.0,60.0,40.0,386.0754883602551,[],"[684, 456]",ColorTask,116.0,74.0,,,HRV,HRV_0254,2022-11-30 19:56:27
,wl-rdm,197,602721,0.0-8.74-0.74,1.0,191.0,,,,,,,[],,,,False,,,,87.9,1.0,i,1.0,True,864.7000000476837,52.0,60.0,40.0,205.39268368594418,[],"[684, 456]",ColorTask,117.0,75.0,,,HRV,HRV_0254,2022-11-30 19:56:27
,wl-rdm,198,606772,0.0-8.75-0.75,1.0,192.0,,,,,,,[],,,,False,,,,56.4,0.0,u,0.0,True,2672.899999856949,161.0,60.0,40.0,311.1117880912848,[],"[684, 456]",ColorTask,118.0,76.0,,,HRV,HRV_0254,2022-11-30 19:56:27
,wl-rdm,199,609158,0.0-8.76-0.76,1.0,193.0,,,,,,,[],,,,False,,,,87.9,0.0,u,0.0,True,910.3999998569489,55.0,60.0,40.0,391.2098287955357,[],"[684, 456]",ColorTask,119.0,77.0,,,HRV,HRV_0254,2022-11-30 19:56:27
,wl-rdm,200,611993,0.0-8.77-0.77,1.0,194.0,,,,,,,[],,,,False,,,,50.0,0.0,i,1.0,False,1509.8999998569489,91.0,60.0,40.0,251.69592095504635,[],"[684, 456]",ColorTask,118.0,78.0,,,HRV,HRV_0254,2022-11-30 19:56:27
,wl-rdm,201,614078,0.0-8.78-0.78,1.0,195.0,,,,,,,[],,,,False,,,,50.0,0.0,i,1.0,False,736.1000001430511,45.0,60.0,40.0,275.6306808426295,[],"[684, 456]",ColorTask,117.0,79.0,,,HRV,HRV_0254,2022-11-30 19:56:27
,wl-rdm,202,617014,0.0-8.79-0.79,1.0,196.0,,,,,,,[],,,,False,,,,50.0,0.0,u,0.0,True,1500.2000000476837,90.0,60.0,40.0,366.10565313353266,[],"[684, 456]",ColorTask,118.0,80.0,,,HRV,HRV_0254,2022-11-30 19:56:27
,wl-rdm,203,619582,0.0-8.80-0.80,1.0,197.0,,,,,,,[],,,,False,,,,62.5,1.0,i,1.0,True,1207.1000001430511,73.0,60.0,40.0,285.47706022652153,[],"[684, 456]",ColorTask,119.0,81.0,,,HRV,HRV_0254,2022-11-30 19:56:27
,wl-rdm,204,622033,0.0-8.81-0.81,1.0,198.0,,,,,,,[],,,,False,,,,73.6,1.0,i,1.0,True,1140.8999998569489,69.0,60.0,40.0,247.0217098910978,[],"[684, 456]",ColorTask,120.0,82.0,,,HRV,HRV_0254,2022-11-30 19:56:27
,wl-rdm,205,624985,0.0-8.82-0.82,1.0,199.0,,,,,,,[],,,,False,,,,62.5,0.0,u,0.0,True,1594.3999998569489,96.0,60.0,40.0,290.66325830828197,[],"[684, 456]",ColorTask,121.0,83.0,,,HRV,HRV_0254,2022-11-30 19:56:27
,wl-rdm,206,627503,0.0-8.83-0.83,1.0,200.0,,,,,,,[],,,,False,,,,73.6,1.0,i,1.0,True,1124.6000001430511,68.0,60.0,40.0,317.2997324820502,[],"[684, 456]",ColorTask,122.0,84.0,,,HRV,HRV_0254,2022-11-30 19:56:27
,wl-rdm,207,631072,0.0-8.84-0.84,1.0,201.0,,,,,,,[],,,,False,,,,62.5,0.0,u,0.0,True,2194.7000000476837,132.0,60.0,40.0,301.4296206561961,[],"[684, 456]",ColorTask,123.0,85.0,,,HRV,HRV_0254,2022-11-30 19:56:27
,wl-rdm,208,633457,0.0-8.85-0.85,1.0,202.0,,,,,,,[],,,,False,,,,87.9,1.0,i,1.0,True,994.3000001907349,60.0,60.0,40.0,323.0207397185053,[],"[684, 456]",ColorTask,124.0,86.0,,,HRV,HRV_0254,2022-11-30 19:56:27
,wl-rdm,209,635692,0.0-8.86-0.86,1.0,203.0,,,,,,,[],,,,False,,,,73.6,1.0,i,1.0,True,937.4000000953674,57.0,60.0,40.0,223.59524621934764,[],"[684, 456]",ColorTask,125.0,87.0,,,HRV,HRV_0254,2022-11-30 19:56:27
,wl-rdm,210,638912,0.0-8.87-0.87,1.0,204.0,,,,,,,[],,,,False,,,,62.5,1.0,i,1.0,True,1911.3000001907349,115.0,60.0,40.0,226.35953984515163,[],"[684, 456]",ColorTask,126.0,88.0,,,HRV,HRV_0254,2022-11-30 19:56:27
,wl-rdm,211,641614,0.0-8.88-0.88,1.0,205.0,,,,,,,[],,,,False,,,,62.5,0.0,i,1.0,False,1297.1000001430511,78.0,60.0,40.0,317.05330965814545,[],"[684, 456]",ColorTask,125.0,89.0,,,HRV,HRV_0254,2022-11-30 19:56:27
,wl-rdm,212,644232,0.0-8.89-0.89,1.0,206.0,,,,,,,[],,,,False,,,,73.6,0.0,u,0.0,True,1152.5,70.0,60.0,40.0,378.0115290087524,[],"[684, 456]",ColorTask,126.0,90.0,,,HRV,HRV_0254,2022-11-30 19:56:27
,wl-rdm,213,647584,0.0-8.90-0.90,1.0,207.0,,,,,,,[],,,,False,,,,53.2,0.0,u,0.0,True,1949.1000001430511,117.0,60.0,40.0,339.59360472686524,[],"[684, 456]",ColorTask,127.0,91.0,,,HRV,HRV_0254,2022-11-30 19:56:27
,wl-rdm,214,649885,0.0-8.91-0.91,1.0,208.0,,,,,,,[],,,,False,,,,50.0,1.0,i,1.0,True,1001.7999999523163,61.0,60.0,40.0,230.11362197445018,[],"[684, 456]",ColorTask,128.0,92.0,,,HRV,HRV_0254,2022-11-30 19:56:27
,wl-rdm,215,652221,0.0-8.92-0.92,1.0,209.0,,,,,,,[],,,,False,,,,87.9,0.0,u,0.0,True,1067.0999999046326,64.0,60.0,40.0,203.7095742402139,[],"[684, 456]",ColorTask,129.0,93.0,,,HRV,HRV_0254,2022-11-30 19:56:27
,wl-rdm,216,654772,0.0-8.93-0.93,1.0,210.0,,,,,,,[],,,,False,,,,73.6,1.0,i,1.0,True,1160.0999999046326,70.0,60.0,40.0,331.63462524352997,[],"[684, 456]",ColorTask,130.0,94.0,,,HRV,HRV_0254,2022-11-30 19:56:27
,wl-rdm,217,657891,0.0-8.94-0.94,1.0,211.0,,,,,,,[],,,,False,,,,56.4,0.0,i,1.0,False,1713.7999999523163,103.0,60.0,40.0,321.5571377366908,[],"[684, 456]",ColorTask,129.0,95.0,,,HRV,HRV_0254,2022-11-30 19:56:27
,wl-rdm,218,661310,0.0-8.95-0.95,1.0,212.0,,,,,,,[],,,,False,,,,50.0,0.0,i,1.0,False,1958.7000000476837,118.0,60.0,40.0,379.89869428427437,[],"[684, 456]",ColorTask,128.0,96.0,,,HRV,HRV_0254,2022-11-30 19:56:27
,wl-rdm,219,663912,0.0-8.96-0.96,1.0,213.0,,,,,,,[],,,,False,,,,56.4,0.0,u,0.0,True,1278.0999999046326,77.0,60.0,40.0,245.28397908151277,[],"[684, 456]",ColorTask,129.0,97.0,,,HRV,HRV_0254,2022-11-30 19:56:27
,wl-rdm,220,666964,0.0-8.97-0.97,1.0,214.0,,,,,,,[],,,,False,,,,62.5,0.0,u,0.0,True,1674.5999999046326,101.0,60.0,40.0,311.30412473592327,[],"[684, 456]",ColorTask,130.0,98.0,,,HRV,HRV_0254,2022-11-30 19:56:27
,wl-rdm,221,669265,0.0-8.98-0.98,1.0,215.0,,,,,,,[],,,,False,,,,87.9,0.0,u,0.0,True,957.8999998569489,58.0,60.0,40.0,254.9185173604184,[],"[684, 456]",ColorTask,131.0,99.0,,,HRV,HRV_0254,2022-11-30 19:56:27
,wl-rdm,222,672268,0.0-8.99-0.99,1.0,216.0,,,,,,,[],,,,False,,,,53.2,1.0,i,1.0,True,1624.2999999523163,98.0,60.0,40.0,308.083334887527,[],"[684, 456]",ColorTask,132.0,100.0,,,HRV,HRV_0254,2022-11-30 19:56:27
,wl-rdm,223,675286,0.0-8.100-0.100,1.0,217.0,,,,,,,[],,,,False,,,,53.2,1.0,i,1.0,True,1669.5999999046326,101.0,60.0,40.0,281.3310325605844,[],"[684, 456]",ColorTask,133.0,101.0,,,HRV,HRV_0254,2022-11-30 19:56:27
,wl-rdm,224,677971,0.0-8.101-0.101,1.0,218.0,,,,,,,[],,,,False,,,,56.4,1.0,i,1.0,True,1393.0,84.0,60.0,40.0,225.9752383734403,[],"[684, 456]",ColorTask,134.0,102.0,,,HRV,HRV_0254,2022-11-30 19:56:27
,wl-rdm,225,680523,0.0-8.102-0.102,1.0,219.0,,,,,,,[],,,,False,,,,50.0,0.0,i,1.0,False,1193.0,72.0,60.0,40.0,268.61491451337383,[],"[684, 456]",ColorTask,133.0,103.0,,,HRV,HRV_0254,2022-11-30 19:56:27
,wl-rdm,226,682842,0.0-8.103-0.103,1.0,220.0,,,,,,,[],,,,False,,,,87.9,1.0,i,1.0,True,987.0999999046326,60.0,60.0,40.0,256.4517826275898,[],"[684, 456]",ColorTask,134.0,104.0,,,HRV,HRV_0254,2022-11-30 19:56:27
,wl-rdm,227,685160,0.0-8.104-0.104,1.0,221.0,,,,,,,[],,,,False,,,,62.5,1.0,i,1.0,True,942.7000000476837,57.0,60.0,40.0,308.74481354449085,[],"[684, 456]",ColorTask,135.0,105.0,,,HRV,HRV_0254,2022-11-30 19:56:27
,wl-rdm,228,688312,0.0-8.105-0.105,1.0,222.0,,,,,,,[],,,,False,,,,56.4,1.0,i,1.0,True,1709.8999998569489,103.0,60.0,40.0,375.8681046061577,[],"[684, 456]",ColorTask,136.0,106.0,,,HRV,HRV_0254,2022-11-30 19:56:27
,wl-rdm,229,692565,0.0-8.106-0.106,1.0,223.0,,,,,,,[],,,,False,,,,50.0,0.0,i,1.0,False,2922.5,176.0,60.0,40.0,235.78106462997118,[],"[684, 456]",ColorTask,135.0,107.0,,,HRV,HRV_0254,2022-11-30 19:56:27
,wl-rdm,230,694983,0.0-8.107-0.107,1.0,224.0,,,,,,,[],,,,False,,,,87.9,1.0,i,1.0,True,1065.4000000953674,64.0,60.0,40.0,290.9571058252423,[],"[684, 456]",ColorTask,136.0,108.0,,,HRV,HRV_0254,2022-11-30 19:56:27
,wl-html-button-response,231,697220,0.0-9.0-0.0,,,,,,,,,,2232.0999999046326,,0,,,,,,,,,,,,,,,,,,,,<h3>End of this session. Thank you!</h3><br>,['Close window'],HRV,HRV_0254,2022-11-30 19:56:27
