trialN,stimuli,trialStartTime,trialStartTime_UNIX,stimulus1,stimulus2,stimulus1Bid,stimulus2Bid,delta,selected,rt,rt_UNIX,rt_perfnow,receivedResponse,rsp,trialEndTime,trialDuration,trialEndTime_UNIX,trialDuration_UNIX,exp,subjectId,date
0,"[{'imgObject': {}, 'id': 'turkey sandwich', 'src': '/static/foodstim60/turkey sandwich.jpg', 'key': 'u', 'origWidth': 409, 'origHeight': 409, 'width': 409, 'height': 409, 'widthPercent': 0.45, 'rescaleHeight': False, 'trialN': 0, 'loaded': True, 'loadedTime': 3480.7999999970198, 'positionName': 'LEFT', 'positionCoords': [246.68, 179.5], 'bid': 7.18}, {'imgObject': {}, 'id': 'turkeysandwich', 'src': '/static/foodstim60/turkeysandwich.jpg', 'key': 'i', 'origWidth': 409, 'origHeight': 409, 'width': 409, 'height': 409, 'widthPercent': 0.45, 'rescaleHeight': False, 'trialN': 0, 'loaded': True, 'loadedTime': 3503.4000000059605, 'positionName': 'RIGHT', 'positionCoords': [710.32, 179.5], 'bid': 6.5600000000000005}]",3980.4000000059605,1669830252986,turkey sandwich,turkeysandwich,7.18,6.5600000000000005,-0.6199999999999992,turkey sandwich,1016.8999999910593,1018,1018.0999999940395,True,u,5504.0,1523.5999999940395,1669830254510,1524,HRV,HRV_0122,2022-11-30 17:49:10
1,"[{'imgObject': {}, 'id': 'strawberries', 'src': '/static/foodstim60/strawberries.jpg', 'key': 'u', 'origWidth': 410, 'origHeight': 410, 'width': 410, 'height': 410, 'widthPercent': 0.45, 'rescaleHeight': False, 'trialN': 1, 'loaded': True, 'loadedTime': 3509, 'positionName': 'LEFT', 'positionCoords': [245.68, 179], 'bid': 5}, {'imgObject': {}, 'id': 'turkey sandwich', 'src': '/static/foodstim60/turkey sandwich.jpg', 'key': 'i', 'origWidth': 409, 'origHeight': 409, 'width': 409, 'height': 409, 'widthPercent': 0.45, 'rescaleHeight': False, 'trialN': 1, 'loaded': True, 'loadedTime': 3474.7000000029802, 'positionName': 'RIGHT', 'positionCoords': [710.32, 179.5], 'bid': 7.18}]",5504.29999999702,1669830254510,strawberries,turkey sandwich,5.0,7.18,2.1799999999999997,turkey sandwich,792.7000000029802,794,793.3000000119209,True,i,6806.0,1301.7000000029802,1669830255812,1302,HRV,HRV_0122,2022-11-30 17:49:10
2,"[{'imgObject': {}, 'id': 'raspberries', 'src': '/static/foodstim60/raspberries.jpg', 'key': 'u', 'origWidth': 411, 'origHeight': 411, 'width': 411, 'height': 411, 'widthPercent': 0.45, 'rescaleHeight': False, 'trialN': 2, 'loaded': True, 'loadedTime': 3521, 'positionName': 'LEFT', 'positionCoords': [244.68, 178.5], 'bid': 7.26}, {'imgObject': {}, 'id': 'bagel and cc', 'src': '/static/foodstim60/bagel and cc.jpg', 'key': 'i', 'origWidth': 410, 'origHeight': 410, 'width': 410, 'height': 410, 'widthPercent': 0.45, 'rescaleHeight': False, 'trialN': 2, 'loaded': True, 'loadedTime': 3537.6000000089407, 'positionName': 'RIGHT', 'positionCoords': [710.32, 179], 'bid': 5}]",6806.29999999702,1669830255812,raspberries,bagel and cc,7.26,5.0,-2.26,bagel and cc,917.4000000059605,918,917.9000000059605,True,i,8228.20000000298,1421.9000000059605,1669830257234,1422,HRV,HRV_0122,2022-11-30 17:49:10
3,"[{'imgObject': {}, 'id': 'fruitsalad', 'src': '/static/foodstim60/fruitsalad.jpg', 'key': 'u', 'origWidth': 410, 'origHeight': 410, 'width': 410, 'height': 410, 'widthPercent': 0.45, 'rescaleHeight': False, 'trialN': 3, 'loaded': True, 'loadedTime': 3546.2999999970198, 'positionName': 'LEFT', 'positionCoords': [245.68, 179], 'bid': 5.16}, {'imgObject': {}, 'id': 'cherry tomato', 'src': '/static/foodstim60/cherry tomato.jpg', 'key': 'i', 'origWidth': 410, 'origHeight': 410, 'width': 410, 'height': 410, 'widthPercent': 0.45, 'rescaleHeight': False, 'trialN': 3, 'loaded': True, 'loadedTime': 3557.2000000029802, 'positionName': 'RIGHT', 'positionCoords': [710.32, 179], 'bid': 4.82}]",8228.5,1669830257234,fruitsalad,cherry tomato,5.16,4.82,-0.33999999999999986,fruitsalad,750.7000000029802,752,751.2000000029802,True,u,9496.70000000298,1268.2000000029802,1669830258503,1269,HRV,HRV_0122,2022-11-30 17:49:10
4,"[{'imgObject': {}, 'id': 'raisin bran w milk', 'src': '/static/foodstim60/raisin bran w milk.jpg', 'key': 'u', 'origWidth': 411, 'origHeight': 411, 'width': 411, 'height': 411, 'widthPercent': 0.45, 'rescaleHeight': False, 'trialN': 4, 'loaded': True, 'loadedTime': 3564.6000000089407, 'positionName': 'LEFT', 'positionCoords': [244.68, 178.5], 'bid': 0.3}, {'imgObject': {}, 'id': 'hotdog w must', 'src': '/static/foodstim60/hotdog w must.jpg', 'key': 'i', 'origWidth': 409, 'origHeight': 409, 'width': 409, 'height': 409, 'widthPercent': 0.45, 'rescaleHeight': False, 'trialN': 4, 'loaded': True, 'loadedTime': 3574.4000000059605, 'positionName': 'RIGHT', 'positionCoords': [710.32, 179.5], 'bid': 0.31}]",9496.90000000596,1669830258503,raisin bran w milk,hotdog w must,0.3,0.31,0.010000000000000009,hotdog w must,1147.7999999970198,1148,1148.2999999970198,True,i,11160.20000000298,1663.2999999970198,1669830260166,1663,HRV,HRV_0122,2022-11-30 17:49:10
5,"[{'imgObject': {}, 'id': 'raisin bran w milk', 'src': '/static/foodstim60/raisin bran w milk.jpg', 'key': 'u', 'origWidth': 411, 'origHeight': 411, 'width': 411, 'height': 411, 'widthPercent': 0.45, 'rescaleHeight': False, 'trialN': 5, 'loaded': True, 'loadedTime': 3568.2000000029802, 'positionName': 'LEFT', 'positionCoords': [244.68, 178.5], 'bid': 0.3}, {'imgObject': {}, 'id': 'edamame', 'src': '/static/foodstim60/edamame.jpg', 'key': 'i', 'origWidth': 409, 'origHeight': 410, 'width': 409, 'height': 410, 'widthPercent': 0.45, 'rescaleHeight': False, 'trialN': 5, 'loaded': True, 'loadedTime': 3590.2000000029802, 'positionName': 'RIGHT', 'positionCoords': [710.32, 179], 'bid': 0.32}]",11160.29999999702,1669830260166,raisin bran w milk,edamame,0.3,0.32,0.020000000000000018,raisin bran w milk,1082.6000000089407,1083,1083.1000000089407,True,u,12754.29999999702,1594.0,1669830261760,1594,HRV,HRV_0122,2022-11-30 17:49:10
6,"[{'imgObject': {}, 'id': 'cheerios', 'src': '/static/foodstim60/cheerios.jpg', 'key': 'u', 'origWidth': 409, 'origHeight': 410, 'width': 409, 'height': 410, 'widthPercent': 0.45, 'rescaleHeight': False, 'trialN': 6, 'loaded': True, 'loadedTime': 3605.2999999970198, 'positionName': 'LEFT', 'positionCoords': [246.68, 179], 'bid': 0.25}, {'imgObject': {}, 'id': 'pear', 'src': '/static/foodstim60/pear.jpg', 'key': 'i', 'origWidth': 411, 'origHeight': 410, 'width': 411, 'height': 410, 'widthPercent': 0.45, 'rescaleHeight': False, 'trialN': 6, 'loaded': True, 'loadedTime': 3615, 'positionName': 'RIGHT', 'positionCoords': [710.32, 179], 'bid': 4.03}]",12754.5,1669830261760,cheerios,pear,0.25,4.03,3.7800000000000002,pear,901.5,903,902.1000000089407,True,i,14176.20000000298,1421.7000000029802,1669830263182,1422,HRV,HRV_0122,2022-11-30 17:49:10
7,"[{'imgObject': {}, 'id': 'mac & cheese', 'src': '/static/foodstim60/mac & cheese.jpg', 'key': 'u', 'origWidth': 410, 'origHeight': 410, 'width': 410, 'height': 410, 'widthPercent': 0.45, 'rescaleHeight': False, 'trialN': 7, 'loaded': True, 'loadedTime': 3619.1000000089407, 'positionName': 'LEFT', 'positionCoords': [245.68, 179], 'bid': 5.16}, {'imgObject': {}, 'id': 'Grapes', 'src': '/static/foodstim60/Grapes.jpg', 'key': 'i', 'origWidth': 411, 'origHeight': 411, 'width': 411, 'height': 411, 'widthPercent': 0.45, 'rescaleHeight': False, 'trialN': 7, 'loaded': True, 'loadedTime': 3642.2000000029802, 'positionName': 'RIGHT', 'positionCoords': [710.32, 178.5], 'bid': 5.17}]",14176.40000000596,1669830263182,mac & cheese,Grapes,5.16,5.17,0.009999999999999787,Grapes,810.5,811,811.0,True,i,15505.79999999702,1329.3999999910593,1669830264512,1330,HRV,HRV_0122,2022-11-30 17:49:10
8,"[{'imgObject': {}, 'id': 'burrito', 'src': '/static/foodstim60/burrito.jpg', 'key': 'u', 'origWidth': 410, 'origHeight': 410, 'width': 410, 'height': 410, 'widthPercent': 0.45, 'rescaleHeight': False, 'trialN': 8, 'loaded': True, 'loadedTime': 3648.1000000089407, 'positionName': 'LEFT', 'positionCoords': [245.68, 179], 'bid': 1.89}, {'imgObject': {}, 'id': 'pear', 'src': '/static/foodstim60/pear.jpg', 'key': 'i', 'origWidth': 411, 'origHeight': 410, 'width': 411, 'height': 410, 'widthPercent': 0.45, 'rescaleHeight': False, 'trialN': 8, 'loaded': True, 'loadedTime': 3607.2000000029802, 'positionName': 'RIGHT', 'positionCoords': [710.32, 179], 'bid': 4.03}]",15506.10000000894,1669830264512,burrito,pear,1.89,4.03,2.1400000000000006,pear,1073.699999988079,1074,1074.0999999940395,True,i,17099.0,1592.8999999910593,1669830266105,1593,HRV,HRV_0122,2022-11-30 17:49:10
9,"[{'imgObject': {}, 'id': 'shreddedwheatwithmilk', 'src': '/static/foodstim60/shreddedwheatwithmilk.jpg', 'key': 'u', 'origWidth': 410, 'origHeight': 410, 'width': 410, 'height': 410, 'widthPercent': 0.45, 'rescaleHeight': False, 'trialN': 9, 'loaded': True, 'loadedTime': 3677.1000000089407, 'positionName': 'LEFT', 'positionCoords': [245.68, 179], 'bid': 0.38}, {'imgObject': {}, 'id': 'cocktailshrimp', 'src': '/static/foodstim60/cocktailshrimp.jpg', 'key': 'i', 'origWidth': 410, 'origHeight': 410, 'width': 410, 'height': 410, 'widthPercent': 0.45, 'rescaleHeight': False, 'trialN': 9, 'loaded': True, 'loadedTime': 3683.6000000089407, 'positionName': 'RIGHT', 'positionCoords': [710.32, 179], 'bid': 0.46}]",17099.20000000298,1669830266105,shreddedwheatwithmilk,cocktailshrimp,0.38,0.46,0.08000000000000002,shreddedwheatwithmilk,1090.4000000059605,1091,1090.9000000059605,True,u,18696.60000000894,1597.4000000059605,1669830267702,1597,HRV,HRV_0122,2022-11-30 17:49:10
10,"[{'imgObject': {}, 'id': 'cantaloupe', 'src': '/static/foodstim60/cantaloupe.jpg', 'key': 'u', 'origWidth': 409, 'origHeight': 409, 'width': 409, 'height': 409, 'widthPercent': 0.45, 'rescaleHeight': False, 'trialN': 10, 'loaded': True, 'loadedTime': 3689.9000000059605, 'positionName': 'LEFT', 'positionCoords': [246.68, 179.5], 'bid': 4.8500000000000005}, {'imgObject': {}, 'id': 'yogurt no spoon', 'src': '/static/foodstim60/yogurt no spoon.jpg', 'key': 'i', 'origWidth': 411, 'origHeight': 410, 'width': 411, 'height': 410, 'widthPercent': 0.45, 'rescaleHeight': False, 'trialN': 10, 'loaded': True, 'loadedTime': 3701.7999999970198, 'positionName': 'RIGHT', 'positionCoords': [710.32, 179], 'bid': 4.8}]",18696.79999999702,1669830267703,cantaloupe,yogurt no spoon,4.8500000000000005,4.8,-0.05000000000000071,cantaloupe,918.2000000029802,918,918.6000000089407,True,u,20120.40000000596,1423.6000000089407,1669830269126,1423,HRV,HRV_0122,2022-11-30 17:49:10
11,"[{'imgObject': {}, 'id': 'banana', 'src': '/static/foodstim60/banana.jpg', 'key': 'u', 'origWidth': 410, 'origHeight': 410, 'width': 410, 'height': 410, 'widthPercent': 0.45, 'rescaleHeight': False, 'trialN': 11, 'loaded': True, 'loadedTime': 3702, 'positionName': 'LEFT', 'positionCoords': [245.68, 179], 'bid': 6.61}, {'imgObject': {}, 'id': 'salad w chicken', 'src': '/static/foodstim60/salad w chicken.jpg', 'key': 'i', 'origWidth': 411, 'origHeight': 411, 'width': 411, 'height': 411, 'widthPercent': 0.45, 'rescaleHeight': False, 'trialN': 11, 'loaded': True, 'loadedTime': 3716.7000000029802, 'positionName': 'RIGHT', 'positionCoords': [710.32, 178.5], 'bid': 5}]",20120.5,1669830269126,banana,salad w chicken,6.61,5.0,-1.6100000000000003,banana,772.1000000089407,773,772.6000000089407,True,u,21401.20000000298,1280.7000000029802,1669830270407,1281,HRV,HRV_0122,2022-11-30 17:49:10
12,"[{'imgObject': {}, 'id': 'cantaloupe', 'src': '/static/foodstim60/cantaloupe.jpg', 'key': 'u', 'origWidth': 409, 'origHeight': 409, 'width': 409, 'height': 409, 'widthPercent': 0.45, 'rescaleHeight': False, 'trialN': 12, 'loaded': True, 'loadedTime': 3689.7999999970198, 'positionName': 'LEFT', 'positionCoords': [246.68, 179.5], 'bid': 4.8500000000000005}, {'imgObject': {}, 'id': 'Grapes', 'src': '/static/foodstim60/Grapes.jpg', 'key': 'i', 'origWidth': 411, 'origHeight': 411, 'width': 411, 'height': 411, 'widthPercent': 0.45, 'rescaleHeight': False, 'trialN': 12, 'loaded': True, 'loadedTime': 3644.4000000059605, 'positionName': 'RIGHT', 'positionCoords': [710.32, 178.5], 'bid': 5.17}]",21401.40000000596,1669830270407,cantaloupe,Grapes,4.8500000000000005,5.17,0.3199999999999994,Grapes,1098.2000000029802,1099,1098.7999999970198,True,i,23010.5,1609.0999999940395,1669830272016,1609,HRV,HRV_0122,2022-11-30 17:49:10
13,"[{'imgObject': {}, 'id': 'Grapes', 'src': '/static/foodstim60/Grapes.jpg', 'key': 'u', 'origWidth': 411, 'origHeight': 411, 'width': 411, 'height': 411, 'widthPercent': 0.45, 'rescaleHeight': False, 'trialN': 13, 'loaded': True, 'loadedTime': 3639.2999999970198, 'positionName': 'LEFT', 'positionCoords': [244.68, 178.5], 'bid': 5.17}, {'imgObject': {}, 'id': 'cherries', 'src': '/static/foodstim60/cherries.jpg', 'key': 'i', 'origWidth': 410, 'origHeight': 411, 'width': 410, 'height': 411, 'widthPercent': 0.45, 'rescaleHeight': False, 'trialN': 13, 'loaded': True, 'loadedTime': 3724, 'positionName': 'RIGHT', 'positionCoords': [710.32, 178.5], 'bid': 5.1000000000000005}]",23010.79999999702,1669830272017,Grapes,cherries,5.17,5.1000000000000005,-0.0699999999999994,cherries,680.7000000029802,681,681.2000000029802,True,i,24197.29999999702,1186.5,1669830273203,1186,HRV,HRV_0122,2022-11-30 17:49:10
14,"[{'imgObject': {}, 'id': 'blueberries', 'src': '/static/foodstim60/blueberries.jpg', 'key': 'u', 'origWidth': 411, 'origHeight': 411, 'width': 411, 'height': 411, 'widthPercent': 0.45, 'rescaleHeight': False, 'trialN': 14, 'loaded': True, 'loadedTime': 3736.7000000029802, 'positionName': 'LEFT', 'positionCoords': [244.68, 178.5], 'bid': 5.05}, {'imgObject': {}, 'id': 'omelette', 'src': '/static/foodstim60/omelette.jpg', 'key': 'i', 'origWidth': 410, 'origHeight': 409, 'width': 410, 'height': 409, 'widthPercent': 0.45, 'rescaleHeight': False, 'trialN': 14, 'loaded': True, 'loadedTime': 3748, 'positionName': 'RIGHT', 'positionCoords': [710.32, 179.5], 'bid': 0.43}]",24197.5,1669830273203,blueberries,omelette,5.05,0.43,-4.62,blueberries,847.6000000089407,848,848.1000000089407,True,u,25563.60000000894,1366.1000000089407,1669830274570,1367,HRV,HRV_0122,2022-11-30 17:49:10
15,"[{'imgObject': {}, 'id': 'hotdog w must', 'src': '/static/foodstim60/hotdog w must.jpg', 'key': 'u', 'origWidth': 409, 'origHeight': 409, 'width': 409, 'height': 409, 'widthPercent': 0.45, 'rescaleHeight': False, 'trialN': 15, 'loaded': True, 'loadedTime': 3580.4000000059605, 'positionName': 'LEFT', 'positionCoords': [246.68, 179.5], 'bid': 0.31}, {'imgObject': {}, 'id': 'cantaloupe', 'src': '/static/foodstim60/cantaloupe.jpg', 'key': 'i', 'origWidth': 409, 'origHeight': 409, 'width': 409, 'height': 409, 'widthPercent': 0.45, 'rescaleHeight': False, 'trialN': 15, 'loaded': True, 'loadedTime': 3689.6000000089407, 'positionName': 'RIGHT', 'positionCoords': [710.32, 179.5], 'bid': 4.8500000000000005}]",25563.79999999702,1669830274570,hotdog w must,cantaloupe,0.31,4.8500000000000005,4.540000000000001,cantaloupe,1521.0,1521,1521.5,True,i,27594.29999999702,2030.5,1669830276600,2030,HRV,HRV_0122,2022-11-30 17:49:10
16,"[{'imgObject': {}, 'id': 'sushi w_condiments', 'src': '/static/foodstim60/sushi w_condiments.jpg', 'key': 'u', 'origWidth': 410, 'origHeight': 410, 'width': 410, 'height': 410, 'widthPercent': 0.45, 'rescaleHeight': False, 'trialN': 16, 'loaded': True, 'loadedTime': 3763.6000000089407, 'positionName': 'LEFT', 'positionCoords': [245.68, 179], 'bid': 0.13}, {'imgObject': {}, 'id': 'seaweed', 'src': '/static/foodstim60/seaweed.jpg', 'key': 'i', 'origWidth': 410, 'origHeight': 410, 'width': 410, 'height': 410, 'widthPercent': 0.45, 'rescaleHeight': False, 'trialN': 16, 'loaded': True, 'loadedTime': 3771.7000000029802, 'positionName': 'RIGHT', 'positionCoords': [710.32, 179], 'bid': 0.32}]",27594.40000000596,1669830276600,sushi w_condiments,seaweed,0.13,0.32,0.19,seaweed,1675.8999999910593,1677,1676.2999999970198,True,i,29780.70000000298,2186.2999999970198,1669830278787,2187,HRV,HRV_0122,2022-11-30 17:49:10
17,"[{'imgObject': {}, 'id': 'chicken nuggets2', 'src': '/static/foodstim60/chicken nuggets2.jpg', 'key': 'u', 'origWidth': 410, 'origHeight': 409, 'width': 410, 'height': 409, 'widthPercent': 0.45, 'rescaleHeight': False, 'trialN': 17, 'loaded': True, 'loadedTime': 3780.5, 'positionName': 'LEFT', 'positionCoords': [245.68, 179.5], 'bid': 0.37}, {'imgObject': {}, 'id': 'mango', 'src': '/static/foodstim60/mango.jpg', 'key': 'i', 'origWidth': 411, 'origHeight': 411, 'width': 411, 'height': 411, 'widthPercent': 0.45, 'rescaleHeight': False, 'trialN': 17, 'loaded': True, 'loadedTime': 3788.5, 'positionName': 'RIGHT', 'positionCoords': [710.32, 178.5], 'bid': 5.0200000000000005}]",29780.79999999702,1669830278787,chicken nuggets2,mango,0.37,5.0200000000000005,4.65,mango,1793.4000000059605,1794,1793.9000000059605,True,i,32090.60000000894,2309.800000011921,1669830281097,2310,HRV,HRV_0122,2022-11-30 17:49:10
18,"[{'imgObject': {}, 'id': 'roastedpotatoes', 'src': '/static/foodstim60/roastedpotatoes.jpg', 'key': 'u', 'origWidth': 409, 'origHeight': 410, 'width': 409, 'height': 410, 'widthPercent': 0.45, 'rescaleHeight': False, 'trialN': 18, 'loaded': True, 'loadedTime': 3790.2999999970198, 'positionName': 'LEFT', 'positionCoords': [246.68, 179], 'bid': 5.1000000000000005}, {'imgObject': {}, 'id': 'fried eggs', 'src': '/static/foodstim60/fried eggs.jpg', 'key': 'i', 'origWidth': 410, 'origHeight': 410, 'width': 410, 'height': 410, 'widthPercent': 0.45, 'rescaleHeight': False, 'trialN': 18, 'loaded': True, 'loadedTime': 3808.2000000029802, 'positionName': 'RIGHT', 'positionCoords': [710.32, 179], 'bid': 0.47}]",32090.79999999702,1669830281097,roastedpotatoes,fried eggs,5.1000000000000005,0.47,-4.630000000000001,roastedpotatoes,1133.2000000029802,1134,1133.800000011921,True,u,33741.79999999702,1651.0,1669830282748,1651,HRV,HRV_0122,2022-11-30 17:49:10
19,"[{'imgObject': {}, 'id': 'Tribe humus pita', 'src': '/static/foodstim60/Tribe humus pita.jpg', 'key': 'u', 'origWidth': 411, 'origHeight': 411, 'width': 411, 'height': 411, 'widthPercent': 0.45, 'rescaleHeight': False, 'trialN': 19, 'loaded': True, 'loadedTime': 3812.2000000029802, 'positionName': 'LEFT', 'positionCoords': [244.68, 178.5], 'bid': 0.3}, {'imgObject': {}, 'id': 'orange slices', 'src': '/static/foodstim60/orange slices.jpg', 'key': 'i', 'origWidth': 409, 'origHeight': 410, 'width': 409, 'height': 410, 'widthPercent': 0.45, 'rescaleHeight': False, 'trialN': 19, 'loaded': True, 'loadedTime': 3817.9000000059605, 'positionName': 'RIGHT', 'positionCoords': [710.32, 179], 'bid': 4.79}]",33742.0,1669830282748,Tribe humus pita,orange slices,0.3,4.79,4.49,orange slices,1558.1000000089407,1559,1558.6000000089407,True,i,35818.5,2076.5,1669830284824,2076,HRV,HRV_0122,2022-11-30 17:49:10
20,"[{'imgObject': {}, 'id': 'pear', 'src': '/static/foodstim60/pear.jpg', 'key': 'u', 'origWidth': 411, 'origHeight': 410, 'width': 411, 'height': 410, 'widthPercent': 0.45, 'rescaleHeight': False, 'trialN': 20, 'loaded': True, 'loadedTime': 3609.9000000059605, 'positionName': 'LEFT', 'positionCoords': [244.68, 179], 'bid': 4.03}, {'imgObject': {}, 'id': 'froot loops w milk', 'src': '/static/foodstim60/froot loops w milk.jpg', 'key': 'i', 'origWidth': 410, 'origHeight': 410, 'width': 410, 'height': 410, 'widthPercent': 0.45, 'rescaleHeight': False, 'trialN': 20, 'loaded': True, 'loadedTime': 3827, 'positionName': 'RIGHT', 'positionCoords': [710.32, 179], 'bid': 0.53}]",35819.10000000894,1669830284825,pear,froot loops w milk,4.03,0.53,-3.5,pear,905.7999999970198,906,906.1999999880791,True,u,37237.5,1418.3999999910593,1669830286243,1418,HRV,HRV_0122,2022-11-30 17:49:10
21,"[{'imgObject': {}, 'id': 'orange slices', 'src': '/static/foodstim60/orange slices.jpg', 'key': 'u', 'origWidth': 409, 'origHeight': 410, 'width': 409, 'height': 410, 'widthPercent': 0.45, 'rescaleHeight': False, 'trialN': 21, 'loaded': True, 'loadedTime': 3820.9000000059605, 'positionName': 'LEFT', 'positionCoords': [246.68, 179], 'bid': 4.79}, {'imgObject': {}, 'id': 'bagel plain', 'src': '/static/foodstim60/bagel plain.jpg', 'key': 'i', 'origWidth': 410, 'origHeight': 410, 'width': 410, 'height': 410, 'widthPercent': 0.45, 'rescaleHeight': False, 'trialN': 21, 'loaded': True, 'loadedTime': 3835.4000000059605, 'positionName': 'RIGHT', 'positionCoords': [710.32, 179], 'bid': 5.13}]",37237.60000000894,1669830286244,orange slices,bagel plain,4.79,5.13,0.33999999999999986,orange slices,1218.5999999940395,1219,1219.0,True,u,38971.20000000298,1733.5999999940395,1669830287977,1733,HRV,HRV_0122,2022-11-30 17:49:10
22,"[{'imgObject': {}, 'id': 'luckycharms', 'src': '/static/foodstim60/luckycharms.jpg', 'key': 'u', 'origWidth': 410, 'origHeight': 409, 'width': 410, 'height': 409, 'widthPercent': 0.45, 'rescaleHeight': False, 'trialN': 22, 'loaded': True, 'loadedTime': 3837.2000000029802, 'positionName': 'LEFT', 'positionCoords': [245.68, 179.5], 'bid': 0.65}, {'imgObject': {}, 'id': 'popsicles', 'src': '/static/foodstim60/popsicles.jpg', 'key': 'i', 'origWidth': 410, 'origHeight': 410, 'width': 410, 'height': 410, 'widthPercent': 0.45, 'rescaleHeight': False, 'trialN': 22, 'loaded': True, 'loadedTime': 3853.6000000089407, 'positionName': 'RIGHT', 'positionCoords': [710.32, 179], 'bid': 0.05}]",38971.29999999702,1669830287977,luckycharms,popsicles,0.65,0.05,-0.6,luckycharms,1699.2000000029802,1690,1699.7000000029802,True,u,41186.60000000894,2215.300000011921,1669830290182,2205,HRV,HRV_0122,2022-11-30 17:49:10
23,"[{'imgObject': {}, 'id': 'rigatoni', 'src': '/static/foodstim60/rigatoni.jpg', 'key': 'u', 'origWidth': 411, 'origHeight': 411, 'width': 411, 'height': 411, 'widthPercent': 0.45, 'rescaleHeight': False, 'trialN': 23, 'loaded': True, 'loadedTime': 3862.1000000089407, 'positionName': 'LEFT', 'positionCoords': [244.68, 178.5], 'bid': 0.34}, {'imgObject': {}, 'id': 'steak', 'src': '/static/foodstim60/steak.jpg', 'key': 'i', 'origWidth': 410, 'origHeight': 410, 'width': 410, 'height': 410, 'widthPercent': 0.45, 'rescaleHeight': False, 'trialN': 23, 'loaded': True, 'loadedTime': 3867.2999999970198, 'positionName': 'RIGHT', 'positionCoords': [710.32, 179], 'bid': 0.37}]",41186.70000000298,1669830290183,rigatoni,steak,0.34,0.37,0.02999999999999997,steak,1282.5,1283,1283.0,True,i,42980.0,1793.2999999970198,1669830291976,1793,HRV,HRV_0122,2022-11-30 17:49:10
24,"[{'imgObject': {}, 'id': 'orange slices', 'src': '/static/foodstim60/orange slices.jpg', 'key': 'u', 'origWidth': 409, 'origHeight': 410, 'width': 409, 'height': 410, 'widthPercent': 0.45, 'rescaleHeight': False, 'trialN': 24, 'loaded': True, 'loadedTime': 3819.2999999970198, 'positionName': 'LEFT', 'positionCoords': [246.68, 179], 'bid': 4.79}, {'imgObject': {}, 'id': 'veggieswithdip', 'src': '/static/foodstim60/veggieswithdip.jpg', 'key': 'i', 'origWidth': 409, 'origHeight': 409, 'width': 409, 'height': 409, 'widthPercent': 0.45, 'rescaleHeight': False, 'trialN': 24, 'loaded': True, 'loadedTime': 3872.2999999970198, 'positionName': 'RIGHT', 'positionCoords': [710.32, 179.5], 'bid': 0.54}]",42980.20000000298,1669830291976,orange slices,veggieswithdip,4.79,0.54,-4.25,veggieswithdip,1112.0999999940395,1113,1112.7000000029802,True,i,44599.20000000298,1619.0,1669830293595,1619,HRV,HRV_0122,2022-11-30 17:49:10
25,"[{'imgObject': {}, 'id': 'mashed potato', 'src': '/static/foodstim60/mashed potato.jpg', 'key': 'u', 'origWidth': 409, 'origHeight': 409, 'width': 409, 'height': 409, 'widthPercent': 0.45, 'rescaleHeight': False, 'trialN': 25, 'loaded': True, 'loadedTime': 3878.9000000059605, 'positionName': 'LEFT', 'positionCoords': [246.68, 179.5], 'bid': 0.51}, {'imgObject': {}, 'id': 'olives', 'src': '/static/foodstim60/olives.jpg', 'key': 'i', 'origWidth': 410, 'origHeight': 410, 'width': 410, 'height': 410, 'widthPercent': 0.45, 'rescaleHeight': False, 'trialN': 25, 'loaded': True, 'loadedTime': 3881.1000000089407, 'positionName': 'RIGHT', 'positionCoords': [710.32, 179], 'bid': 0.3}]",44599.29999999702,1669830293595,mashed potato,olives,0.51,0.3,-0.21000000000000002,mashed potato,1425.0,1426,1425.5,True,u,46541.70000000298,1942.4000000059605,1669830295538,1943,HRV,HRV_0122,2022-11-30 17:49:10
26,"[{'imgObject': {}, 'id': 'eggsalad', 'src': '/static/foodstim60/eggsalad.jpg', 'key': 'u', 'origWidth': 410, 'origHeight': 409, 'width': 410, 'height': 409, 'widthPercent': 0.45, 'rescaleHeight': False, 'trialN': 26, 'loaded': True, 'loadedTime': 3887.6000000089407, 'positionName': 'LEFT', 'positionCoords': [245.68, 179.5], 'bid': 0.62}, {'imgObject': {}, 'id': 'grilled chicken strips', 'src': '/static/foodstim60/grilled chicken strips.jpg', 'key': 'i', 'origWidth': 410, 'origHeight': 411, 'width': 410, 'height': 411, 'widthPercent': 0.45, 'rescaleHeight': False, 'trialN': 26, 'loaded': True, 'loadedTime': 3901.4000000059605, 'positionName': 'RIGHT', 'positionCoords': [710.32, 178.5], 'bid': 0.71}]",46541.90000000596,1669830295538,eggsalad,grilled chicken strips,0.62,0.71,0.08999999999999997,eggsalad,1803.5,1804,1803.8999999910593,True,u,48862.0,2320.0999999940395,1669830297858,2320,HRV,HRV_0122,2022-11-30 17:49:10
27,"[{'imgObject': {}, 'id': 'mashed potato', 'src': '/static/foodstim60/mashed potato.jpg', 'key': 'u', 'origWidth': 409, 'origHeight': 409, 'width': 409, 'height': 409, 'widthPercent': 0.45, 'rescaleHeight': False, 'trialN': 27, 'loaded': True, 'loadedTime': 3877.2000000029802, 'positionName': 'LEFT', 'positionCoords': [246.68, 179.5], 'bid': 0.51}, {'imgObject': {}, 'id': 'eggs', 'src': '/static/foodstim60/eggs.jpg', 'key': 'i', 'origWidth': 409, 'origHeight': 409, 'width': 409, 'height': 409, 'widthPercent': 0.45, 'rescaleHeight': False, 'trialN': 27, 'loaded': True, 'loadedTime': 3909.2000000029802, 'positionName': 'RIGHT', 'positionCoords': [710.32, 179.5], 'bid': 0.49}]",48862.20000000298,1669830297858,mashed potato,eggs,0.51,0.49,-0.020000000000000018,mashed potato,1399.7999999970198,1400,1400.2000000029802,True,u,50776.79999999702,1914.5999999940395,1669830299773,1915,HRV,HRV_0122,2022-11-30 17:49:10
28,"[{'imgObject': {}, 'id': 'Grapes', 'src': '/static/foodstim60/Grapes.jpg', 'key': 'u', 'origWidth': 411, 'origHeight': 411, 'width': 411, 'height': 411, 'widthPercent': 0.45, 'rescaleHeight': False, 'trialN': 28, 'loaded': True, 'loadedTime': 3644.2000000029802, 'positionName': 'LEFT', 'positionCoords': [244.68, 178.5], 'bid': 5.17}, {'imgObject': {}, 'id': 'bagel and cc', 'src': '/static/foodstim60/bagel and cc.jpg', 'key': 'i', 'origWidth': 410, 'origHeight': 410, 'width': 410, 'height': 410, 'widthPercent': 0.45, 'rescaleHeight': False, 'trialN': 28, 'loaded': True, 'loadedTime': 3539.5, 'positionName': 'RIGHT', 'positionCoords': [710.32, 179], 'bid': 5}]",50777.10000000894,1669830299773,Grapes,bagel and cc,5.17,5.0,-0.16999999999999993,Grapes,1741.199999988079,1742,1741.699999988079,True,u,53026.5,2249.3999999910593,1669830302022,2249,HRV,HRV_0122,2022-11-30 17:49:10
29,"[{'imgObject': {}, 'id': 'mashed potato', 'src': '/static/foodstim60/mashed potato.jpg', 'key': 'u', 'origWidth': 409, 'origHeight': 409, 'width': 409, 'height': 409, 'widthPercent': 0.45, 'rescaleHeight': False, 'trialN': 29, 'loaded': True, 'loadedTime': 3874.5, 'positionName': 'LEFT', 'positionCoords': [246.68, 179.5], 'bid': 0.51}, {'imgObject': {}, 'id': 'blackbeanswithrice', 'src': '/static/foodstim60/blackbeanswithrice.jpg', 'key': 'i', 'origWidth': 410, 'origHeight': 410, 'width': 410, 'height': 410, 'widthPercent': 0.45, 'rescaleHeight': False, 'trialN': 29, 'loaded': True, 'loadedTime': 3918.1000000089407, 'positionName': 'RIGHT', 'positionCoords': [710.32, 179], 'bid': 0.51}]",53026.60000000894,1669830302023,mashed potato,blackbeanswithrice,0.51,0.51,0.0,mashed potato,1163.5,1163,1163.8999999910593,True,u,54701.10000000894,1674.5,1669830303697,1674,HRV,HRV_0122,2022-11-30 17:49:10
30,"[{'imgObject': {}, 'id': 'granola w milk', 'src': '/static/foodstim60/granola w milk.jpg', 'key': 'u', 'origWidth': 410, 'origHeight': 410, 'width': 410, 'height': 410, 'widthPercent': 0.45, 'rescaleHeight': False, 'trialN': 30, 'loaded': True, 'loadedTime': 3920.9000000059605, 'positionName': 'LEFT', 'positionCoords': [245.68, 179], 'bid': 0.53}, {'imgObject': {}, 'id': 'rigatoni and sauce', 'src': '/static/foodstim60/rigatoni and sauce.jpg', 'key': 'i', 'origWidth': 410, 'origHeight': 411, 'width': 410, 'height': 411, 'widthPercent': 0.45, 'rescaleHeight': False, 'trialN': 30, 'loaded': True, 'loadedTime': 3927.2000000029802, 'positionName': 'RIGHT', 'positionCoords': [710.32, 178.5], 'bid': 5.24}]",54701.20000000298,1669830303697,granola w milk,rigatoni and sauce,0.53,5.24,4.71,rigatoni and sauce,1127.5999999940395,1128,1128.0,True,i,56333.29999999702,1632.0999999940395,1669830305329,1632,HRV,HRV_0122,2022-11-30 17:49:10
31,"[{'imgObject': {}, 'id': 'hotdog w must', 'src': '/static/foodstim60/hotdog w must.jpg', 'key': 'u', 'origWidth': 409, 'origHeight': 409, 'width': 409, 'height': 409, 'widthPercent': 0.45, 'rescaleHeight': False, 'trialN': 31, 'loaded': True, 'loadedTime': 3578.4000000059605, 'positionName': 'LEFT', 'positionCoords': [246.68, 179.5], 'bid': 0.31}, {'imgObject': {}, 'id': 'lox', 'src': '/static/foodstim60/lox.jpg', 'key': 'i', 'origWidth': 410, 'origHeight': 411, 'width': 410, 'height': 411, 'widthPercent': 0.45, 'rescaleHeight': False, 'trialN': 31, 'loaded': True, 'loadedTime': 3930.2999999970198, 'positionName': 'RIGHT', 'positionCoords': [710.32, 178.5], 'bid': 0.21}]",56333.40000000596,1669830305329,hotdog w must,lox,0.31,0.21,-0.1,hotdog w must,906.5,907,906.8999999910593,True,u,57749.5,1416.0999999940395,1669830306745,1416,HRV,HRV_0122,2022-11-30 17:49:10
32,"[{'imgObject': {}, 'id': 'blueberries', 'src': '/static/foodstim60/blueberries.jpg', 'key': 'u', 'origWidth': 411, 'origHeight': 411, 'width': 411, 'height': 411, 'widthPercent': 0.45, 'rescaleHeight': False, 'trialN': 32, 'loaded': True, 'loadedTime': 3734.5, 'positionName': 'LEFT', 'positionCoords': [244.68, 178.5], 'bid': 5.05}, {'imgObject': {}, 'id': 'mango', 'src': '/static/foodstim60/mango.jpg', 'key': 'i', 'origWidth': 411, 'origHeight': 411, 'width': 411, 'height': 411, 'widthPercent': 0.45, 'rescaleHeight': False, 'trialN': 32, 'loaded': True, 'loadedTime': 3788.2999999970198, 'positionName': 'RIGHT', 'positionCoords': [710.32, 178.5], 'bid': 5.0200000000000005}]",57749.60000000894,1669830306745,blueberries,mango,5.05,5.0200000000000005,-0.02999999999999936,mango,1576.5999999940395,1578,1577.0999999940395,True,i,59842.60000000894,2093.0,1669830308838,2093,HRV,HRV_0122,2022-11-30 17:49:10
33,"[{'imgObject': {}, 'id': 'popsicles', 'src': '/static/foodstim60/popsicles.jpg', 'key': 'u', 'origWidth': 410, 'origHeight': 410, 'width': 410, 'height': 410, 'widthPercent': 0.45, 'rescaleHeight': False, 'trialN': 33, 'loaded': True, 'loadedTime': 3856.7999999970198, 'positionName': 'LEFT', 'positionCoords': [245.68, 179], 'bid': 0.05}, {'imgObject': {}, 'id': 'edamame', 'src': '/static/foodstim60/edamame.jpg', 'key': 'i', 'origWidth': 409, 'origHeight': 410, 'width': 409, 'height': 410, 'widthPercent': 0.45, 'rescaleHeight': False, 'trialN': 33, 'loaded': True, 'loadedTime': 3594, 'positionName': 'RIGHT', 'positionCoords': [710.32, 179], 'bid': 0.32}]",59842.79999999702,1669830308839,popsicles,edamame,0.05,0.32,0.27,popsicles,1517.7000000029802,1518,1518.300000011921,True,u,61877.40000000596,2034.6000000089407,1669830310873,2034,HRV,HRV_0122,2022-11-30 17:49:10
34,"[{'imgObject': {}, 'id': 'mango', 'src': '/static/foodstim60/mango.jpg', 'key': 'u', 'origWidth': 411, 'origHeight': 411, 'width': 411, 'height': 411, 'widthPercent': 0.45, 'rescaleHeight': False, 'trialN': 34, 'loaded': True, 'loadedTime': 3785.7000000029802, 'positionName': 'LEFT', 'positionCoords': [244.68, 178.5], 'bid': 5.0200000000000005}, {'imgObject': {}, 'id': 'luckycharms', 'src': '/static/foodstim60/luckycharms.jpg', 'key': 'i', 'origWidth': 410, 'origHeight': 409, 'width': 410, 'height': 409, 'widthPercent': 0.45, 'rescaleHeight': False, 'trialN': 34, 'loaded': True, 'loadedTime': 3851.4000000059605, 'positionName': 'RIGHT', 'positionCoords': [710.32, 179.5], 'bid': 0.65}]",61877.60000000894,1669830310873,mango,luckycharms,5.0200000000000005,0.65,-4.37,mango,1180.8999999910593,1182,1181.2999999970198,True,u,63577.60000000894,1700.0,1669830312574,1701,HRV,HRV_0122,2022-11-30 17:49:10
35,"[{'imgObject': {}, 'id': 'apple slices', 'src': '/static/foodstim60/apple slices.jpg', 'key': 'u', 'origWidth': 409, 'origHeight': 410, 'width': 409, 'height': 410, 'widthPercent': 0.45, 'rescaleHeight': False, 'trialN': 35, 'loaded': True, 'loadedTime': 3943.5, 'positionName': 'LEFT', 'positionCoords': [246.68, 179], 'bid': 5.13}, {'imgObject': {}, 'id': 'eggs', 'src': '/static/foodstim60/eggs.jpg', 'key': 'i', 'origWidth': 409, 'origHeight': 409, 'width': 409, 'height': 409, 'widthPercent': 0.45, 'rescaleHeight': False, 'trialN': 35, 'loaded': True, 'loadedTime': 3909.2999999970198, 'positionName': 'RIGHT', 'positionCoords': [710.32, 179.5], 'bid': 0.49}]",63577.90000000596,1669830312574,apple slices,eggs,5.13,0.49,-4.64,apple slices,1705.7999999970198,1706,1706.2999999970198,True,u,65789.5,2211.5999999940395,1669830314785,2211,HRV,HRV_0122,2022-11-30 17:49:10
36,"[{'imgObject': {}, 'id': 'sushi w_condiments', 'src': '/static/foodstim60/sushi w_condiments.jpg', 'key': 'u', 'origWidth': 410, 'origHeight': 410, 'width': 410, 'height': 410, 'widthPercent': 0.45, 'rescaleHeight': False, 'trialN': 36, 'loaded': True, 'loadedTime': 3760.6000000089407, 'positionName': 'LEFT', 'positionCoords': [245.68, 179], 'bid': 0.13}, {'imgObject': {}, 'id': 'shreddedwheatwithmilk', 'src': '/static/foodstim60/shreddedwheatwithmilk.jpg', 'key': 'i', 'origWidth': 410, 'origHeight': 410, 'width': 410, 'height': 410, 'widthPercent': 0.45, 'rescaleHeight': False, 'trialN': 36, 'loaded': True, 'loadedTime': 3665.7999999970198, 'positionName': 'RIGHT', 'positionCoords': [710.32, 179], 'bid': 0.38}]",65789.70000000298,1669830314786,sushi w_condiments,shreddedwheatwithmilk,0.13,0.38,0.25,shreddedwheatwithmilk,1304.7999999970198,1305,1305.2000000029802,True,i,67606.5,1816.7999999970198,1669830316602,1816,HRV,HRV_0122,2022-11-30 17:49:10
37,"[{'imgObject': {}, 'id': 'omelette', 'src': '/static/foodstim60/omelette.jpg', 'key': 'u', 'origWidth': 410, 'origHeight': 409, 'width': 410, 'height': 409, 'widthPercent': 0.45, 'rescaleHeight': False, 'trialN': 37, 'loaded': True, 'loadedTime': 3744.1000000089407, 'positionName': 'LEFT', 'positionCoords': [245.68, 179.5], 'bid': 0.43}, {'imgObject': {}, 'id': 'olives', 'src': '/static/foodstim60/olives.jpg', 'key': 'i', 'origWidth': 410, 'origHeight': 410, 'width': 410, 'height': 410, 'widthPercent': 0.45, 'rescaleHeight': False, 'trialN': 37, 'loaded': True, 'loadedTime': 3884.5, 'positionName': 'RIGHT', 'positionCoords': [710.32, 179], 'bid': 0.3}]",67606.70000000298,1669830316602,omelette,olives,0.43,0.3,-0.13,omelette,951.0999999940395,952,951.5999999940395,True,u,69067.29999999702,1460.5999999940395,1669830318063,1461,HRV,HRV_0122,2022-11-30 17:49:10
38,"[{'imgObject': {}, 'id': 'froot loops w milk', 'src': '/static/foodstim60/froot loops w milk.jpg', 'key': 'u', 'origWidth': 410, 'origHeight': 410, 'width': 410, 'height': 410, 'widthPercent': 0.45, 'rescaleHeight': False, 'trialN': 38, 'loaded': True, 'loadedTime': 3827.1000000089407, 'positionName': 'LEFT', 'positionCoords': [245.68, 179], 'bid': 0.53}, {'imgObject': {}, 'id': 'granola w milk', 'src': '/static/foodstim60/granola w milk.jpg', 'key': 'i', 'origWidth': 410, 'origHeight': 410, 'width': 410, 'height': 410, 'widthPercent': 0.45, 'rescaleHeight': False, 'trialN': 38, 'loaded': True, 'loadedTime': 3919.2000000029802, 'positionName': 'RIGHT', 'positionCoords': [710.32, 179], 'bid': 0.53}]",69067.5,1669830318063,froot loops w milk,granola w milk,0.53,0.53,0.0,granola w milk,2629.5,2630,2629.9000000059605,True,i,72217.5,3150.0,1669830321213,3150,HRV,HRV_0122,2022-11-30 17:49:10
39,"[{'imgObject': {}, 'id': 'edamame', 'src': '/static/foodstim60/edamame.jpg', 'key': 'u', 'origWidth': 409, 'origHeight': 410, 'width': 409, 'height': 410, 'widthPercent': 0.45, 'rescaleHeight': False, 'trialN': 39, 'loaded': True, 'loadedTime': 3595.7000000029802, 'positionName': 'LEFT', 'positionCoords': [246.68, 179], 'bid': 0.32}, {'imgObject': {}, 'id': 'corn cob', 'src': '/static/foodstim60/corn cob.jpg', 'key': 'i', 'origWidth': 411, 'origHeight': 411, 'width': 411, 'height': 411, 'widthPercent': 0.45, 'rescaleHeight': False, 'trialN': 39, 'loaded': True, 'loadedTime': 3953.2000000029802, 'positionName': 'RIGHT', 'positionCoords': [710.32, 178.5], 'bid': 4.89}]",72217.70000000298,1669830321214,edamame,corn cob,0.32,4.89,4.569999999999999,corn cob,728.7999999970198,729,729.4000000059605,True,i,73466.29999999702,1248.5999999940395,1669830322462,1248,HRV,HRV_0122,2022-11-30 17:49:10
40,"[{'imgObject': {}, 'id': 'cheerios', 'src': '/static/foodstim60/cheerios.jpg', 'key': 'u', 'origWidth': 409, 'origHeight': 410, 'width': 409, 'height': 410, 'widthPercent': 0.45, 'rescaleHeight': False, 'trialN': 40, 'loaded': True, 'loadedTime': 3600.4000000059605, 'positionName': 'LEFT', 'positionCoords': [246.68, 179], 'bid': 0.25}, {'imgObject': {}, 'id': 'Tribe humus pita', 'src': '/static/foodstim60/Tribe humus pita.jpg', 'key': 'i', 'origWidth': 411, 'origHeight': 411, 'width': 411, 'height': 411, 'widthPercent': 0.45, 'rescaleHeight': False, 'trialN': 40, 'loaded': True, 'loadedTime': 3814, 'positionName': 'RIGHT', 'positionCoords': [710.32, 178.5], 'bid': 0.3}]",73466.5,1669830322462,cheerios,Tribe humus pita,0.25,0.3,0.04999999999999999,Tribe humus pita,1119.7999999970198,1121,1120.4000000059605,True,i,75093.20000000298,1626.7000000029802,1669830324089,1627,HRV,HRV_0122,2022-11-30 17:49:10
41,"[{'imgObject': {}, 'id': 'strawberries', 'src': '/static/foodstim60/strawberries.jpg', 'key': 'u', 'origWidth': 410, 'origHeight': 410, 'width': 410, 'height': 410, 'widthPercent': 0.45, 'rescaleHeight': False, 'trialN': 41, 'loaded': True, 'loadedTime': 3513.2999999970198, 'positionName': 'LEFT', 'positionCoords': [245.68, 179], 'bid': 5}, {'imgObject': {}, 'id': 'salad w chicken', 'src': '/static/foodstim60/salad w chicken.jpg', 'key': 'i', 'origWidth': 411, 'origHeight': 411, 'width': 411, 'height': 411, 'widthPercent': 0.45, 'rescaleHeight': False, 'trialN': 41, 'loaded': True, 'loadedTime': 3720.6000000089407, 'positionName': 'RIGHT', 'positionCoords': [710.32, 178.5], 'bid': 5}]",75093.40000000596,1669830324089,strawberries,salad w chicken,5.0,5.0,0.0,salad w chicken,1117.7999999970198,1118,1118.2999999970198,True,i,76721.79999999702,1628.3999999910593,1669830325718,1629,HRV,HRV_0122,2022-11-30 17:49:10
42,"[{'imgObject': {}, 'id': 'strawberries', 'src': '/static/foodstim60/strawberries.jpg', 'key': 'u', 'origWidth': 410, 'origHeight': 410, 'width': 410, 'height': 410, 'widthPercent': 0.45, 'rescaleHeight': False, 'trialN': 42, 'loaded': True, 'loadedTime': 3517.1000000089407, 'positionName': 'LEFT', 'positionCoords': [245.68, 179], 'bid': 5}, {'imgObject': {}, 'id': 'yogurt no spoon', 'src': '/static/foodstim60/yogurt no spoon.jpg', 'key': 'i', 'origWidth': 411, 'origHeight': 410, 'width': 411, 'height': 410, 'widthPercent': 0.45, 'rescaleHeight': False, 'trialN': 42, 'loaded': True, 'loadedTime': 3693.2999999970198, 'positionName': 'RIGHT', 'positionCoords': [710.32, 179], 'bid': 4.8}]",76722.0,1669830325718,strawberries,yogurt no spoon,5.0,4.8,-0.20000000000000018,strawberries,1385.9000000059605,1386,1386.4000000059605,True,u,78612.5,1890.5,1669830327608,1890,HRV,HRV_0122,2022-11-30 17:49:10
43,"[{'imgObject': {}, 'id': 'tacos', 'src': '/static/foodstim60/tacos.jpg', 'key': 'u', 'origWidth': 411, 'origHeight': 411, 'width': 411, 'height': 411, 'widthPercent': 0.45, 'rescaleHeight': False, 'trialN': 43, 'loaded': True, 'loadedTime': 3954.7000000029802, 'positionName': 'LEFT', 'positionCoords': [244.68, 178.5], 'bid': 5.04}, {'imgObject': {}, 'id': 'bagel and cc', 'src': '/static/foodstim60/bagel and cc.jpg', 'key': 'i', 'origWidth': 410, 'origHeight': 410, 'width': 410, 'height': 410, 'widthPercent': 0.45, 'rescaleHeight': False, 'trialN': 43, 'loaded': True, 'loadedTime': 3541, 'positionName': 'RIGHT', 'positionCoords': [710.32, 179], 'bid': 5}]",78612.70000000298,1669830327609,tacos,bagel and cc,5.04,5.0,-0.040000000000000036,tacos,1001.4000000059605,1001,1001.9000000059605,True,u,80122.60000000894,1509.9000000059605,1669830329118,1509,HRV,HRV_0122,2022-11-30 17:49:10
44,"[{'imgObject': {}, 'id': 'avocado', 'src': '/static/foodstim60/avocado.jpg', 'key': 'u', 'origWidth': 409, 'origHeight': 409, 'width': 409, 'height': 409, 'widthPercent': 0.45, 'rescaleHeight': False, 'trialN': 44, 'loaded': True, 'loadedTime': 3956.2000000029802, 'positionName': 'LEFT', 'positionCoords': [246.68, 179.5], 'bid': 0.5}, {'imgObject': {}, 'id': 'Tribe humus pita', 'src': '/static/foodstim60/Tribe humus pita.jpg', 'key': 'i', 'origWidth': 411, 'origHeight': 411, 'width': 411, 'height': 411, 'widthPercent': 0.45, 'rescaleHeight': False, 'trialN': 44, 'loaded': True, 'loadedTime': 3814.2000000029802, 'positionName': 'RIGHT', 'positionCoords': [710.32, 178.5], 'bid': 0.3}]",80122.70000000298,1669830329119,avocado,Tribe humus pita,0.5,0.3,-0.2,Tribe humus pita,1234.5999999940395,1235,1235.0999999940395,True,i,81860.5,1737.7999999970198,1669830330856,1737,HRV,HRV_0122,2022-11-30 17:49:10
45,"[{'imgObject': {}, 'id': 'cherries', 'src': '/static/foodstim60/cherries.jpg', 'key': 'u', 'origWidth': 410, 'origHeight': 411, 'width': 410, 'height': 411, 'widthPercent': 0.45, 'rescaleHeight': False, 'trialN': 45, 'loaded': True, 'loadedTime': 3726.7000000029802, 'positionName': 'LEFT', 'positionCoords': [245.68, 178.5], 'bid': 5.1000000000000005}, {'imgObject': {}, 'id': 'roastedpotatoes', 'src': '/static/foodstim60/roastedpotatoes.jpg', 'key': 'i', 'origWidth': 409, 'origHeight': 410, 'width': 409, 'height': 410, 'widthPercent': 0.45, 'rescaleHeight': False, 'trialN': 45, 'loaded': True, 'loadedTime': 3804.2999999970198, 'positionName': 'RIGHT', 'positionCoords': [710.32, 179], 'bid': 5.1000000000000005}]",81860.60000000894,1669830330856,cherries,roastedpotatoes,5.1000000000000005,5.1000000000000005,0.0,cherries,966.5,967,966.8999999910593,True,u,83338.60000000894,1478.0,1669830332335,1479,HRV,HRV_0122,2022-11-30 17:49:10
46,"[{'imgObject': {}, 'id': 'sushi w_condiments', 'src': '/static/foodstim60/sushi w_condiments.jpg', 'key': 'u', 'origWidth': 410, 'origHeight': 410, 'width': 410, 'height': 410, 'widthPercent': 0.45, 'rescaleHeight': False, 'trialN': 46, 'loaded': True, 'loadedTime': 3761, 'positionName': 'LEFT', 'positionCoords': [245.68, 179], 'bid': 0.13}, {'imgObject': {}, 'id': 'grilled chicken strips', 'src': '/static/foodstim60/grilled chicken strips.jpg', 'key': 'i', 'origWidth': 410, 'origHeight': 411, 'width': 410, 'height': 411, 'widthPercent': 0.45, 'rescaleHeight': False, 'trialN': 46, 'loaded': True, 'loadedTime': 3899.1000000089407, 'positionName': 'RIGHT', 'positionCoords': [710.32, 178.5], 'bid': 0.71}]",83338.79999999702,1669830332335,sushi w_condiments,grilled chicken strips,0.13,0.71,0.58,grilled chicken strips,1106.4000000059605,1107,1106.9000000059605,True,i,84960.10000000894,1621.300000011921,1669830333956,1621,HRV,HRV_0122,2022-11-30 17:49:10
47,"[{'imgObject': {}, 'id': 'turkey sandwich', 'src': '/static/foodstim60/turkey sandwich.jpg', 'key': 'u', 'origWidth': 409, 'origHeight': 409, 'width': 409, 'height': 409, 'widthPercent': 0.45, 'rescaleHeight': False, 'trialN': 47, 'loaded': True, 'loadedTime': 3471.9000000059605, 'positionName': 'LEFT', 'positionCoords': [246.68, 179.5], 'bid': 7.18}, {'imgObject': {}, 'id': 'cherries', 'src': '/static/foodstim60/cherries.jpg', 'key': 'i', 'origWidth': 410, 'origHeight': 411, 'width': 410, 'height': 411, 'widthPercent': 0.45, 'rescaleHeight': False, 'trialN': 47, 'loaded': True, 'loadedTime': 3725, 'positionName': 'RIGHT', 'positionCoords': [710.32, 178.5], 'bid': 5.1000000000000005}]",84960.29999999702,1669830333956,turkey sandwich,cherries,7.18,5.1000000000000005,-2.079999999999999,turkey sandwich,844.7000000029802,845,845.1000000089407,True,u,86319.60000000894,1359.300000011921,1669830335315,1359,HRV,HRV_0122,2022-11-30 17:49:10
48,"[{'imgObject': {}, 'id': 'burger', 'src': '/static/foodstim60/burger.jpg', 'key': 'u', 'origWidth': 409, 'origHeight': 409, 'width': 409, 'height': 409, 'widthPercent': 0.45, 'rescaleHeight': False, 'trialN': 48, 'loaded': True, 'loadedTime': 3958.2000000029802, 'positionName': 'LEFT', 'positionCoords': [246.68, 179.5], 'bid': 4.26}, {'imgObject': {}, 'id': 'apple slices', 'src': '/static/foodstim60/apple slices.jpg', 'key': 'i', 'origWidth': 409, 'origHeight': 410, 'width': 409, 'height': 410, 'widthPercent': 0.45, 'rescaleHeight': False, 'trialN': 48, 'loaded': True, 'loadedTime': 3943.9000000059605, 'positionName': 'RIGHT', 'positionCoords': [710.32, 179], 'bid': 5.13}]",86319.79999999702,1669830335316,burger,apple slices,4.26,5.13,0.8700000000000001,apple slices,1097.0,1097,1097.300000011921,True,i,87924.70000000298,1604.9000000059605,1669830336921,1605,HRV,HRV_0122,2022-11-30 17:49:10
49,"[{'imgObject': {}, 'id': 'salmon', 'src': '/static/foodstim60/salmon.jpg', 'key': 'u', 'origWidth': 410, 'origHeight': 409, 'width': 410, 'height': 409, 'widthPercent': 0.45, 'rescaleHeight': False, 'trialN': 49, 'loaded': True, 'loadedTime': 3961.5, 'positionName': 'LEFT', 'positionCoords': [245.68, 179.5], 'bid': 0.37}, {'imgObject': {}, 'id': 'chickenfingers', 'src': '/static/foodstim60/chickenfingers.jpg', 'key': 'i', 'origWidth': 410, 'origHeight': 410, 'width': 410, 'height': 410, 'widthPercent': 0.45, 'rescaleHeight': False, 'trialN': 49, 'loaded': True, 'loadedTime': 3967.5, 'positionName': 'RIGHT', 'positionCoords': [710.32, 179], 'bid': 0.62}]",87924.90000000596,1669830336921,salmon,chickenfingers,0.37,0.62,0.25,chickenfingers,1678.3999999910593,1679,1679.0,True,i,90118.5,2193.5999999940395,1669830339114,2193,HRV,HRV_0122,2022-11-30 17:49:10
50,"[{'imgObject': {}, 'id': 'luckycharms', 'src': '/static/foodstim60/luckycharms.jpg', 'key': 'u', 'origWidth': 410, 'origHeight': 409, 'width': 410, 'height': 409, 'widthPercent': 0.45, 'rescaleHeight': False, 'trialN': 50, 'loaded': True, 'loadedTime': 3848.9000000059605, 'positionName': 'LEFT', 'positionCoords': [245.68, 179.5], 'bid': 0.65}, {'imgObject': {}, 'id': 'chickenfingers', 'src': '/static/foodstim60/chickenfingers.jpg', 'key': 'i', 'origWidth': 410, 'origHeight': 410, 'width': 410, 'height': 410, 'widthPercent': 0.45, 'rescaleHeight': False, 'trialN': 50, 'loaded': True, 'loadedTime': 3965, 'positionName': 'RIGHT', 'positionCoords': [710.32, 179], 'bid': 0.62}]",90118.70000000298,1669830339115,luckycharms,chickenfingers,0.65,0.62,-0.030000000000000027,chickenfingers,1801.9000000059605,1802,1802.4000000059605,True,i,92433.90000000596,2315.2000000029802,1669830341430,2315,HRV,HRV_0122,2022-11-30 17:49:10
51,"[{'imgObject': {}, 'id': 'steak', 'src': '/static/foodstim60/steak.jpg', 'key': 'u', 'origWidth': 410, 'origHeight': 410, 'width': 410, 'height': 410, 'widthPercent': 0.45, 'rescaleHeight': False, 'trialN': 51, 'loaded': True, 'loadedTime': 3871.1000000089407, 'positionName': 'LEFT', 'positionCoords': [245.68, 179], 'bid': 0.37}, {'imgObject': {}, 'id': 'cheerios', 'src': '/static/foodstim60/cheerios.jpg', 'key': 'i', 'origWidth': 409, 'origHeight': 410, 'width': 409, 'height': 410, 'widthPercent': 0.45, 'rescaleHeight': False, 'trialN': 51, 'loaded': True, 'loadedTime': 3602.1000000089407, 'positionName': 'RIGHT', 'positionCoords': [710.32, 179], 'bid': 0.25}]",92434.10000000894,1669830341430,steak,cheerios,0.37,0.25,-0.12,steak,1347.199999988079,1348,1347.5999999940395,True,u,94296.10000000894,1862.0,1669830343292,1862,HRV,HRV_0122,2022-11-30 17:49:10
52,"[{'imgObject': {}, 'id': 'bagel plain', 'src': '/static/foodstim60/bagel plain.jpg', 'key': 'u', 'origWidth': 410, 'origHeight': 410, 'width': 410, 'height': 410, 'widthPercent': 0.45, 'rescaleHeight': False, 'trialN': 52, 'loaded': True, 'loadedTime': 3830.9000000059605, 'positionName': 'LEFT', 'positionCoords': [245.68, 179], 'bid': 5.13}, {'imgObject': {}, 'id': 'avocado', 'src': '/static/foodstim60/avocado.jpg', 'key': 'i', 'origWidth': 409, 'origHeight': 409, 'width': 409, 'height': 409, 'widthPercent': 0.45, 'rescaleHeight': False, 'trialN': 52, 'loaded': True, 'loadedTime': 3956.2999999970198, 'positionName': 'RIGHT', 'positionCoords': [710.32, 179.5], 'bid': 0.5}]",94296.29999999702,1669830343292,bagel plain,avocado,5.13,0.5,-4.63,bagel plain,1285.1000000089407,1286,1285.5,True,u,96094.79999999702,1798.5,1669830345091,1799,HRV,HRV_0122,2022-11-30 17:49:10
53,"[{'imgObject': {}, 'id': 'popsicles', 'src': '/static/foodstim60/popsicles.jpg', 'key': 'u', 'origWidth': 410, 'origHeight': 410, 'width': 410, 'height': 410, 'widthPercent': 0.45, 'rescaleHeight': False, 'trialN': 53, 'loaded': True, 'loadedTime': 3856.4000000059605, 'positionName': 'LEFT', 'positionCoords': [245.68, 179], 'bid': 0.05}, {'imgObject': {}, 'id': 'chicken nuggets2', 'src': '/static/foodstim60/chicken nuggets2.jpg', 'key': 'i', 'origWidth': 410, 'origHeight': 409, 'width': 410, 'height': 409, 'widthPercent': 0.45, 'rescaleHeight': False, 'trialN': 53, 'loaded': True, 'loadedTime': 3782.5, 'positionName': 'RIGHT', 'positionCoords': [710.32, 179.5], 'bid': 0.37}]",96095.0,1669830345091,popsicles,chicken nuggets2,0.05,0.37,0.32,chicken nuggets2,907.4000000059605,908,907.9000000059605,True,i,97508.20000000298,1413.2000000029802,1669830346504,1413,HRV,HRV_0122,2022-11-30 17:49:10
54,"[{'imgObject': {}, 'id': 'strawberries', 'src': '/static/foodstim60/strawberries.jpg', 'key': 'u', 'origWidth': 410, 'origHeight': 410, 'width': 410, 'height': 410, 'widthPercent': 0.45, 'rescaleHeight': False, 'trialN': 54, 'loaded': True, 'loadedTime': 3515.2999999970198, 'positionName': 'LEFT', 'positionCoords': [245.68, 179], 'bid': 5}, {'imgObject': {}, 'id': 'fruitsalad', 'src': '/static/foodstim60/fruitsalad.jpg', 'key': 'i', 'origWidth': 410, 'origHeight': 410, 'width': 410, 'height': 410, 'widthPercent': 0.45, 'rescaleHeight': False, 'trialN': 54, 'loaded': True, 'loadedTime': 3548.2000000029802, 'positionName': 'RIGHT', 'positionCoords': [710.32, 179], 'bid': 5.16}]",97508.40000000596,1669830346504,strawberries,fruitsalad,5.0,5.16,0.16000000000000014,fruitsalad,955.2999999970198,956,955.7000000029802,True,i,98979.20000000298,1470.7999999970198,1669830347975,1471,HRV,HRV_0122,2022-11-30 17:49:10
55,"[{'imgObject': {}, 'id': 'rigatoni and sauce', 'src': '/static/foodstim60/rigatoni and sauce.jpg', 'key': 'u', 'origWidth': 410, 'origHeight': 411, 'width': 410, 'height': 411, 'widthPercent': 0.45, 'rescaleHeight': False, 'trialN': 55, 'loaded': True, 'loadedTime': 3927.4000000059605, 'positionName': 'LEFT', 'positionCoords': [245.68, 178.5], 'bid': 5.24}, {'imgObject': {}, 'id': 'mango', 'src': '/static/foodstim60/mango.jpg', 'key': 'i', 'origWidth': 411, 'origHeight': 411, 'width': 411, 'height': 411, 'widthPercent': 0.45, 'rescaleHeight': False, 'trialN': 55, 'loaded': True, 'loadedTime': 3788.7000000029802, 'positionName': 'RIGHT', 'positionCoords': [710.32, 178.5], 'bid': 5.0200000000000005}]",98979.29999999702,1669830347975,rigatoni and sauce,mango,5.24,5.0200000000000005,-0.21999999999999975,mango,1018.1000000089407,1019,1018.6000000089407,True,i,100506.79999999702,1527.5,1669830349503,1528,HRV,HRV_0122,2022-11-30 17:49:10
56,"[{'imgObject': {}, 'id': 'banana', 'src': '/static/foodstim60/banana.jpg', 'key': 'u', 'origWidth': 410, 'origHeight': 410, 'width': 410, 'height': 410, 'widthPercent': 0.45, 'rescaleHeight': False, 'trialN': 56, 'loaded': True, 'loadedTime': 3704.5, 'positionName': 'LEFT', 'positionCoords': [245.68, 179], 'bid': 6.61}, {'imgObject': {}, 'id': 'raspberries', 'src': '/static/foodstim60/raspberries.jpg', 'key': 'i', 'origWidth': 411, 'origHeight': 411, 'width': 411, 'height': 411, 'widthPercent': 0.45, 'rescaleHeight': False, 'trialN': 56, 'loaded': True, 'loadedTime': 3524.2999999970198, 'positionName': 'RIGHT', 'positionCoords': [710.32, 178.5], 'bid': 7.26}]",100507.0,1669830349503,banana,raspberries,6.61,7.26,0.6499999999999995,banana,885.7000000029802,887,886.1000000089407,True,u,101906.20000000298,1399.2000000029802,1669830350903,1400,HRV,HRV_0122,2022-11-30 17:49:10
57,"[{'imgObject': {}, 'id': 'eggsalad', 'src': '/static/foodstim60/eggsalad.jpg', 'key': 'u', 'origWidth': 410, 'origHeight': 409, 'width': 410, 'height': 409, 'widthPercent': 0.45, 'rescaleHeight': False, 'trialN': 57, 'loaded': True, 'loadedTime': 3885.7999999970198, 'positionName': 'LEFT', 'positionCoords': [245.68, 179.5], 'bid': 0.62}, {'imgObject': {}, 'id': 'cantaloupe', 'src': '/static/foodstim60/cantaloupe.jpg', 'key': 'i', 'origWidth': 409, 'origHeight': 409, 'width': 409, 'height': 409, 'widthPercent': 0.45, 'rescaleHeight': False, 'trialN': 57, 'loaded': True, 'loadedTime': 3691.6000000089407, 'positionName': 'RIGHT', 'positionCoords': [710.32, 179.5], 'bid': 4.8500000000000005}]",101906.29999999702,1669830350903,eggsalad,cantaloupe,0.62,4.8500000000000005,4.23,cantaloupe,1240.0,1241,1240.4000000059605,True,i,103655.20000000298,1748.9000000059605,1669830352652,1749,HRV,HRV_0122,2022-11-30 17:49:10
58,"[{'imgObject': {}, 'id': 'froot loops w milk', 'src': '/static/foodstim60/froot loops w milk.jpg', 'key': 'u', 'origWidth': 410, 'origHeight': 410, 'width': 410, 'height': 410, 'widthPercent': 0.45, 'rescaleHeight': False, 'trialN': 58, 'loaded': True, 'loadedTime': 3828.7999999970198, 'positionName': 'LEFT', 'positionCoords': [245.68, 179], 'bid': 0.53}, {'imgObject': {}, 'id': 'veggieswithdip', 'src': '/static/foodstim60/veggieswithdip.jpg', 'key': 'i', 'origWidth': 409, 'origHeight': 409, 'width': 409, 'height': 409, 'widthPercent': 0.45, 'rescaleHeight': False, 'trialN': 58, 'loaded': True, 'loadedTime': 3874.1000000089407, 'positionName': 'RIGHT', 'positionCoords': [710.32, 179.5], 'bid': 0.54}]",103655.40000000596,1669830352652,froot loops w milk,veggieswithdip,0.53,0.54,0.010000000000000009,veggieswithdip,798.2999999970198,799,798.7000000029802,True,i,104957.5,1302.0999999940395,1669830353955,1303,HRV,HRV_0122,2022-11-30 17:49:10
59,"[{'imgObject': {}, 'id': 'tacos', 'src': '/static/foodstim60/tacos.jpg', 'key': 'u', 'origWidth': 411, 'origHeight': 411, 'width': 411, 'height': 411, 'widthPercent': 0.45, 'rescaleHeight': False, 'trialN': 59, 'loaded': True, 'loadedTime': 3954.7999999970198, 'positionName': 'LEFT', 'positionCoords': [244.68, 178.5], 'bid': 5.04}, {'imgObject': {}, 'id': 'turkeysandwich', 'src': '/static/foodstim60/turkeysandwich.jpg', 'key': 'i', 'origWidth': 409, 'origHeight': 409, 'width': 409, 'height': 409, 'widthPercent': 0.45, 'rescaleHeight': False, 'trialN': 59, 'loaded': True, 'loadedTime': 3505.2999999970198, 'positionName': 'RIGHT', 'positionCoords': [710.32, 179.5], 'bid': 6.5600000000000005}]",104957.70000000298,1669830353955,tacos,turkeysandwich,5.04,6.5600000000000005,1.5200000000000005,tacos,665.5999999940395,666,666.0,True,u,106135.29999999702,1177.5999999940395,1669830355132,1177,HRV,HRV_0122,2022-11-30 17:49:10
60,"[{'imgObject': {}, 'id': 'burrito', 'src': '/static/foodstim60/burrito.jpg', 'key': 'u', 'origWidth': 410, 'origHeight': 410, 'width': 410, 'height': 410, 'widthPercent': 0.45, 'rescaleHeight': False, 'trialN': 60, 'loaded': True, 'loadedTime': 3651.7000000029802, 'positionName': 'LEFT', 'positionCoords': [245.68, 179], 'bid': 1.89}, {'imgObject': {}, 'id': 'baked potato', 'src': '/static/foodstim60/baked potato.jpg', 'key': 'i', 'origWidth': 409, 'origHeight': 410, 'width': 409, 'height': 410, 'widthPercent': 0.45, 'rescaleHeight': False, 'trialN': 60, 'loaded': True, 'loadedTime': 3970.4000000059605, 'positionName': 'RIGHT', 'positionCoords': [710.32, 179], 'bid': 2.37}]",106135.5,1669830355133,burrito,baked potato,1.89,2.37,0.4800000000000002,burrito,1239.6000000089407,1240,1240.1000000089407,True,u,107898.5,1763.0,1669830356896,1763,HRV,HRV_0122,2022-11-30 17:49:10
61,"[{'imgObject': {}, 'id': 'rigatoni and sauce', 'src': '/static/foodstim60/rigatoni and sauce.jpg', 'key': 'u', 'origWidth': 410, 'origHeight': 411, 'width': 410, 'height': 411, 'widthPercent': 0.45, 'rescaleHeight': False, 'trialN': 61, 'loaded': True, 'loadedTime': 3926.9000000059605, 'positionName': 'LEFT', 'positionCoords': [245.68, 178.5], 'bid': 5.24}, {'imgObject': {}, 'id': 'roastedpotatoes', 'src': '/static/foodstim60/roastedpotatoes.jpg', 'key': 'i', 'origWidth': 409, 'origHeight': 410, 'width': 409, 'height': 410, 'widthPercent': 0.45, 'rescaleHeight': False, 'trialN': 61, 'loaded': True, 'loadedTime': 3801.7000000029802, 'positionName': 'RIGHT', 'positionCoords': [710.32, 179], 'bid': 5.1000000000000005}]",107898.70000000298,1669830356896,rigatoni and sauce,roastedpotatoes,5.24,5.1000000000000005,-0.13999999999999968,rigatoni and sauce,981.0,981,981.4000000059605,True,u,109389.79999999702,1491.0999999940395,1669830358387,1491,HRV,HRV_0122,2022-11-30 17:49:10
62,"[{'imgObject': {}, 'id': 'turkey sandwich', 'src': '/static/foodstim60/turkey sandwich.jpg', 'key': 'u', 'origWidth': 409, 'origHeight': 409, 'width': 409, 'height': 409, 'widthPercent': 0.45, 'rescaleHeight': False, 'trialN': 62, 'loaded': True, 'loadedTime': 3435, 'positionName': 'LEFT', 'positionCoords': [246.68, 179.5], 'bid': 7.18}, {'imgObject': {}, 'id': 'raspberries', 'src': '/static/foodstim60/raspberries.jpg', 'key': 'i', 'origWidth': 411, 'origHeight': 411, 'width': 411, 'height': 411, 'widthPercent': 0.45, 'rescaleHeight': False, 'trialN': 62, 'loaded': True, 'loadedTime': 3531.1000000089407, 'positionName': 'RIGHT', 'positionCoords': [710.32, 178.5], 'bid': 7.26}]",109389.90000000596,1669830358387,turkey sandwich,raspberries,7.18,7.26,0.08000000000000007,turkey sandwich,711.3999999910593,712,711.8999999910593,True,u,110615.70000000298,1225.7999999970198,1669830359613,1226,HRV,HRV_0122,2022-11-30 17:49:10
63,"[{'imgObject': {}, 'id': 'cherries', 'src': '/static/foodstim60/cherries.jpg', 'key': 'u', 'origWidth': 410, 'origHeight': 411, 'width': 410, 'height': 411, 'widthPercent': 0.45, 'rescaleHeight': False, 'trialN': 63, 'loaded': True, 'loadedTime': 3725.1000000089407, 'positionName': 'LEFT', 'positionCoords': [245.68, 178.5], 'bid': 5.1000000000000005}, {'imgObject': {}, 'id': 'apple slices', 'src': '/static/foodstim60/apple slices.jpg', 'key': 'i', 'origWidth': 409, 'origHeight': 410, 'width': 409, 'height': 410, 'widthPercent': 0.45, 'rescaleHeight': False, 'trialN': 63, 'loaded': True, 'loadedTime': 3943.7000000029802, 'positionName': 'RIGHT', 'positionCoords': [710.32, 179], 'bid': 5.13}]",110615.79999999702,1669830359613,cherries,apple slices,5.1000000000000005,5.13,0.02999999999999936,cherries,946.2000000029802,947,946.7000000029802,True,u,112080.0,1464.2000000029802,1669830361077,1464,HRV,HRV_0122,2022-11-30 17:49:10
64,"[{'imgObject': {}, 'id': 'veggieswithdip', 'src': '/static/foodstim60/veggieswithdip.jpg', 'key': 'u', 'origWidth': 409, 'origHeight': 409, 'width': 409, 'height': 409, 'widthPercent': 0.45, 'rescaleHeight': False, 'trialN': 64, 'loaded': True, 'loadedTime': 3874.2000000029802, 'positionName': 'LEFT', 'positionCoords': [246.68, 179.5], 'bid': 0.54}, {'imgObject': {}, 'id': 'burrito', 'src': '/static/foodstim60/burrito.jpg', 'key': 'i', 'origWidth': 410, 'origHeight': 410, 'width': 410, 'height': 410, 'widthPercent': 0.45, 'rescaleHeight': False, 'trialN': 64, 'loaded': True, 'loadedTime': 3655.2999999970198, 'positionName': 'RIGHT', 'positionCoords': [710.32, 179], 'bid': 1.89}]",112080.20000000298,1669830361077,veggieswithdip,burrito,0.54,1.89,1.3499999999999999,veggieswithdip,1198.2999999970198,1199,1198.9000000059605,True,u,113793.70000000298,1713.5,1669830362791,1714,HRV,HRV_0122,2022-11-30 17:49:10
65,"[{'imgObject': {}, 'id': 'rigatoni', 'src': '/static/foodstim60/rigatoni.jpg', 'key': 'u', 'origWidth': 411, 'origHeight': 411, 'width': 411, 'height': 411, 'widthPercent': 0.45, 'rescaleHeight': False, 'trialN': 65, 'loaded': True, 'loadedTime': 3860.5, 'positionName': 'LEFT', 'positionCoords': [244.68, 178.5], 'bid': 0.34}, {'imgObject': {}, 'id': 'kiwi', 'src': '/static/foodstim60/kiwi.jpg', 'key': 'i', 'origWidth': 410, 'origHeight': 410, 'width': 410, 'height': 410, 'widthPercent': 0.45, 'rescaleHeight': False, 'trialN': 65, 'loaded': True, 'loadedTime': 3972.4000000059605, 'positionName': 'RIGHT', 'positionCoords': [710.32, 179], 'bid': 0.16}]",113794.0,1669830362791,rigatoni,kiwi,0.34,0.16,-0.18000000000000002,rigatoni,1813.2000000029802,1814,1813.6000000089407,True,u,116125.20000000298,2331.2000000029802,1669830365122,2331,HRV,HRV_0122,2022-11-30 17:49:10
66,"[{'imgObject': {}, 'id': 'hashbrowns', 'src': '/static/foodstim60/hashbrowns.jpg', 'key': 'u', 'origWidth': 411, 'origHeight': 410, 'width': 411, 'height': 410, 'widthPercent': 0.45, 'rescaleHeight': False, 'trialN': 66, 'loaded': True, 'loadedTime': 3973.5, 'positionName': 'LEFT', 'positionCoords': [244.68, 179], 'bid': 0.28}, {'imgObject': {}, 'id': 'burger', 'src': '/static/foodstim60/burger.jpg', 'key': 'i', 'origWidth': 409, 'origHeight': 409, 'width': 409, 'height': 409, 'widthPercent': 0.45, 'rescaleHeight': False, 'trialN': 66, 'loaded': True, 'loadedTime': 3959.9000000059605, 'positionName': 'RIGHT', 'positionCoords': [710.32, 179.5], 'bid': 4.26}]",116125.29999999702,1669830365122,hashbrowns,burger,0.28,4.26,3.9799999999999995,burger,1012.5,1013,1013.1000000089407,True,i,117644.5,1519.2000000029802,1669830366642,1520,HRV,HRV_0122,2022-11-30 17:49:10
67,"[{'imgObject': {}, 'id': 'cocktailshrimp', 'src': '/static/foodstim60/cocktailshrimp.jpg', 'key': 'u', 'origWidth': 410, 'origHeight': 410, 'width': 410, 'height': 410, 'widthPercent': 0.45, 'rescaleHeight': False, 'trialN': 67, 'loaded': True, 'loadedTime': 3681.7999999970198, 'positionName': 'LEFT', 'positionCoords': [245.68, 179], 'bid': 0.46}, {'imgObject': {}, 'id': 'lox', 'src': '/static/foodstim60/lox.jpg', 'key': 'i', 'origWidth': 410, 'origHeight': 411, 'width': 410, 'height': 411, 'widthPercent': 0.45, 'rescaleHeight': False, 'trialN': 67, 'loaded': True, 'loadedTime': 3932.5, 'positionName': 'RIGHT', 'positionCoords': [710.32, 178.5], 'bid': 0.21}]",117644.79999999702,1669830366642,cocktailshrimp,lox,0.46,0.21,-0.25,cocktailshrimp,1282.1000000089407,1282,1282.4000000059605,True,u,119431.0,1786.2000000029802,1669830368428,1786,HRV,HRV_0122,2022-11-30 17:49:10
68,"[{'imgObject': {}, 'id': 'steak', 'src': '/static/foodstim60/steak.jpg', 'key': 'u', 'origWidth': 410, 'origHeight': 410, 'width': 410, 'height': 410, 'widthPercent': 0.45, 'rescaleHeight': False, 'trialN': 68, 'loaded': True, 'loadedTime': 3867.2000000029802, 'positionName': 'LEFT', 'positionCoords': [245.68, 179], 'bid': 0.37}, {'imgObject': {}, 'id': 'bagel and cc', 'src': '/static/foodstim60/bagel and cc.jpg', 'key': 'i', 'origWidth': 410, 'origHeight': 410, 'width': 410, 'height': 410, 'widthPercent': 0.45, 'rescaleHeight': False, 'trialN': 68, 'loaded': True, 'loadedTime': 3533, 'positionName': 'RIGHT', 'positionCoords': [710.32, 179], 'bid': 5}]",119431.20000000298,1669830368428,steak,bagel and cc,0.37,5.0,4.63,bagel and cc,2106.4000000059605,2107,2106.9000000059605,True,i,122057.90000000596,2626.7000000029802,1669830371055,2627,HRV,HRV_0122,2022-11-30 17:49:10
69,"[{'imgObject': {}, 'id': 'burrito', 'src': '/static/foodstim60/burrito.jpg', 'key': 'u', 'origWidth': 410, 'origHeight': 410, 'width': 410, 'height': 410, 'widthPercent': 0.45, 'rescaleHeight': False, 'trialN': 69, 'loaded': True, 'loadedTime': 3657.1000000089407, 'positionName': 'LEFT', 'positionCoords': [245.68, 179], 'bid': 1.89}, {'imgObject': {}, 'id': 'mashed potato', 'src': '/static/foodstim60/mashed potato.jpg', 'key': 'i', 'origWidth': 409, 'origHeight': 409, 'width': 409, 'height': 409, 'widthPercent': 0.45, 'rescaleHeight': False, 'trialN': 69, 'loaded': True, 'loadedTime': 3878.7999999970198, 'positionName': 'RIGHT', 'positionCoords': [710.32, 179.5], 'bid': 0.51}]",122058.20000000298,1669830371055,burrito,mashed potato,1.89,0.51,-1.38,mashed potato,1252.5999999940395,1253,1253.0999999940395,True,i,123819.0,1760.7999999970198,1669830372816,1761,HRV,HRV_0122,2022-11-30 17:49:10
70,"[{'imgObject': {}, 'id': 'bagel and cc', 'src': '/static/foodstim60/bagel and cc.jpg', 'key': 'u', 'origWidth': 410, 'origHeight': 410, 'width': 410, 'height': 410, 'widthPercent': 0.45, 'rescaleHeight': False, 'trialN': 70, 'loaded': True, 'loadedTime': 3537.7999999970198, 'positionName': 'LEFT', 'positionCoords': [245.68, 179], 'bid': 5}, {'imgObject': {}, 'id': 'mango', 'src': '/static/foodstim60/mango.jpg', 'key': 'i', 'origWidth': 411, 'origHeight': 411, 'width': 411, 'height': 411, 'widthPercent': 0.45, 'rescaleHeight': False, 'trialN': 70, 'loaded': True, 'loadedTime': 3788.1000000089407, 'positionName': 'RIGHT', 'positionCoords': [710.32, 178.5], 'bid': 5.0200000000000005}]",123819.20000000298,1669830372816,bagel and cc,mango,5.0,5.0200000000000005,0.020000000000000462,mango,1045.0,1046,1045.5,True,i,125382.70000000298,1563.5,1669830374380,1564,HRV,HRV_0122,2022-11-30 17:49:10
71,"[{'imgObject': {}, 'id': 'fried eggs', 'src': '/static/foodstim60/fried eggs.jpg', 'key': 'u', 'origWidth': 410, 'origHeight': 410, 'width': 410, 'height': 410, 'widthPercent': 0.45, 'rescaleHeight': False, 'trialN': 71, 'loaded': True, 'loadedTime': 3805.7999999970198, 'positionName': 'LEFT', 'positionCoords': [245.68, 179], 'bid': 0.47}, {'imgObject': {}, 'id': 'cocktailshrimp', 'src': '/static/foodstim60/cocktailshrimp.jpg', 'key': 'i', 'origWidth': 410, 'origHeight': 410, 'width': 410, 'height': 410, 'widthPercent': 0.45, 'rescaleHeight': False, 'trialN': 71, 'loaded': True, 'loadedTime': 3683.9000000059605, 'positionName': 'RIGHT', 'positionCoords': [710.32, 179], 'bid': 0.46}]",125382.90000000596,1669830374380,fried eggs,cocktailshrimp,0.47,0.46,-0.009999999999999953,fried eggs,1060.0999999940395,1060,1060.5,True,u,126951.60000000894,1568.7000000029802,1669830375949,1569,HRV,HRV_0122,2022-11-30 17:49:10
72,"[{'imgObject': {}, 'id': 'hashbrowns', 'src': '/static/foodstim60/hashbrowns.jpg', 'key': 'u', 'origWidth': 411, 'origHeight': 410, 'width': 411, 'height': 410, 'widthPercent': 0.45, 'rescaleHeight': False, 'trialN': 72, 'loaded': True, 'loadedTime': 3973.6000000089407, 'positionName': 'LEFT', 'positionCoords': [244.68, 179], 'bid': 0.28}, {'imgObject': {}, 'id': 'olives', 'src': '/static/foodstim60/olives.jpg', 'key': 'i', 'origWidth': 410, 'origHeight': 410, 'width': 410, 'height': 410, 'widthPercent': 0.45, 'rescaleHeight': False, 'trialN': 72, 'loaded': True, 'loadedTime': 3882.1000000089407, 'positionName': 'RIGHT', 'positionCoords': [710.32, 179], 'bid': 0.3}]",126951.79999999702,1669830375949,hashbrowns,olives,0.28,0.3,0.019999999999999962,hashbrowns,1191.7000000029802,1192,1192.1000000089407,True,u,128658.90000000596,1707.1000000089407,1669830377656,1707,HRV,HRV_0122,2022-11-30 17:49:10
73,"[{'imgObject': {}, 'id': 'steak', 'src': '/static/foodstim60/steak.jpg', 'key': 'u', 'origWidth': 410, 'origHeight': 410, 'width': 410, 'height': 410, 'widthPercent': 0.45, 'rescaleHeight': False, 'trialN': 73, 'loaded': True, 'loadedTime': 3866.1000000089407, 'positionName': 'LEFT', 'positionCoords': [245.68, 179], 'bid': 0.37}, {'imgObject': {}, 'id': 'chicken nuggets2', 'src': '/static/foodstim60/chicken nuggets2.jpg', 'key': 'i', 'origWidth': 410, 'origHeight': 409, 'width': 410, 'height': 409, 'widthPercent': 0.45, 'rescaleHeight': False, 'trialN': 73, 'loaded': True, 'loadedTime': 3777, 'positionName': 'RIGHT', 'positionCoords': [710.32, 179.5], 'bid': 0.37}]",128659.10000000894,1669830377656,steak,chicken nuggets2,0.37,0.37,0.0,chicken nuggets2,1066.0999999940395,1067,1066.5999999940395,True,i,130228.0,1568.8999999910593,1669830379225,1569,HRV,HRV_0122,2022-11-30 17:49:10
74,"[{'imgObject': {}, 'id': 'salmon', 'src': '/static/foodstim60/salmon.jpg', 'key': 'u', 'origWidth': 410, 'origHeight': 409, 'width': 410, 'height': 409, 'widthPercent': 0.45, 'rescaleHeight': False, 'trialN': 74, 'loaded': True, 'loadedTime': 3964.7000000029802, 'positionName': 'LEFT', 'positionCoords': [245.68, 179.5], 'bid': 0.37}, {'imgObject': {}, 'id': 'lox', 'src': '/static/foodstim60/lox.jpg', 'key': 'i', 'origWidth': 410, 'origHeight': 411, 'width': 410, 'height': 411, 'widthPercent': 0.45, 'rescaleHeight': False, 'trialN': 74, 'loaded': True, 'loadedTime': 3930.5, 'positionName': 'RIGHT', 'positionCoords': [710.32, 178.5], 'bid': 0.21}]",130228.29999999702,1669830379225,salmon,lox,0.37,0.21,-0.16,salmon,1204.300000011921,1205,1204.800000011921,True,u,131943.90000000596,1715.6000000089407,1669830380941,1716,HRV,HRV_0122,2022-11-30 17:49:10
75,"[{'imgObject': {}, 'id': 'salmon', 'src': '/static/foodstim60/salmon.jpg', 'key': 'u', 'origWidth': 410, 'origHeight': 409, 'width': 410, 'height': 409, 'widthPercent': 0.45, 'rescaleHeight': False, 'trialN': 75, 'loaded': True, 'loadedTime': 3964.2000000029802, 'positionName': 'LEFT', 'positionCoords': [245.68, 179.5], 'bid': 0.37}, {'imgObject': {}, 'id': 'strawberries', 'src': '/static/foodstim60/strawberries.jpg', 'key': 'i', 'origWidth': 410, 'origHeight': 410, 'width': 410, 'height': 410, 'widthPercent': 0.45, 'rescaleHeight': False, 'trialN': 75, 'loaded': True, 'loadedTime': 3519.1000000089407, 'positionName': 'RIGHT', 'positionCoords': [710.32, 179], 'bid': 5}]",131944.29999999702,1669830380941,salmon,strawberries,0.37,5.0,4.63,strawberries,1141.7000000029802,1143,1142.2000000029802,True,i,133591.90000000596,1647.6000000089407,1669830382589,1648,HRV,HRV_0122,2022-11-30 17:49:10
76,"[{'imgObject': {}, 'id': 'hotdog w must', 'src': '/static/foodstim60/hotdog w must.jpg', 'key': 'u', 'origWidth': 409, 'origHeight': 409, 'width': 409, 'height': 409, 'widthPercent': 0.45, 'rescaleHeight': False, 'trialN': 76, 'loaded': True, 'loadedTime': 3574.6000000089407, 'positionName': 'LEFT', 'positionCoords': [246.68, 179.5], 'bid': 0.31}, {'imgObject': {}, 'id': 'fried eggs', 'src': '/static/foodstim60/fried eggs.jpg', 'key': 'i', 'origWidth': 410, 'origHeight': 410, 'width': 410, 'height': 410, 'widthPercent': 0.45, 'rescaleHeight': False, 'trialN': 76, 'loaded': True, 'loadedTime': 3804.4000000059605, 'positionName': 'RIGHT', 'positionCoords': [710.32, 179], 'bid': 0.47}]",133592.0,1669830382589,hotdog w must,fried eggs,0.31,0.47,0.15999999999999998,fried eggs,1126.5,1127,1127.0,True,i,135226.10000000894,1634.1000000089407,1669830384223,1634,HRV,HRV_0122,2022-11-30 17:49:10
77,"[{'imgObject': {}, 'id': 'blackbeanswithrice', 'src': '/static/foodstim60/blackbeanswithrice.jpg', 'key': 'u', 'origWidth': 410, 'origHeight': 410, 'width': 410, 'height': 410, 'widthPercent': 0.45, 'rescaleHeight': False, 'trialN': 77, 'loaded': True, 'loadedTime': 3916.1000000089407, 'positionName': 'LEFT', 'positionCoords': [245.68, 179], 'bid': 0.51}, {'imgObject': {}, 'id': 'baked potato', 'src': '/static/foodstim60/baked potato.jpg', 'key': 'i', 'origWidth': 409, 'origHeight': 410, 'width': 409, 'height': 410, 'widthPercent': 0.45, 'rescaleHeight': False, 'trialN': 77, 'loaded': True, 'loadedTime': 3970.5, 'positionName': 'RIGHT', 'positionCoords': [710.32, 179], 'bid': 2.37}]",135226.29999999702,1669830384223,blackbeanswithrice,baked potato,0.51,2.37,1.86,baked potato,2065.1000000089407,2066,2065.5,True,i,137809.20000000298,2582.9000000059605,1669830386806,2583,HRV,HRV_0122,2022-11-30 17:49:10
78,"[{'imgObject': {}, 'id': 'froot loops w milk', 'src': '/static/foodstim60/froot loops w milk.jpg', 'key': 'u', 'origWidth': 410, 'origHeight': 410, 'width': 410, 'height': 410, 'widthPercent': 0.45, 'rescaleHeight': False, 'trialN': 78, 'loaded': True, 'loadedTime': 3823.4000000059605, 'positionName': 'LEFT', 'positionCoords': [245.68, 179], 'bid': 0.53}, {'imgObject': {}, 'id': 'luckycharms', 'src': '/static/foodstim60/luckycharms.jpg', 'key': 'i', 'origWidth': 410, 'origHeight': 409, 'width': 410, 'height': 409, 'widthPercent': 0.45, 'rescaleHeight': False, 'trialN': 78, 'loaded': True, 'loadedTime': 3851.6000000089407, 'positionName': 'RIGHT', 'positionCoords': [710.32, 179.5], 'bid': 0.65}]",137809.60000000894,1669830386807,froot loops w milk,luckycharms,0.53,0.65,0.12,luckycharms,1674.7999999970198,1675,1675.2999999970198,True,i,140002.0,2192.3999999910593,1669830388999,2192,HRV,HRV_0122,2022-11-30 17:49:10
79,"[{'imgObject': {}, 'id': 'blueberries', 'src': '/static/foodstim60/blueberries.jpg', 'key': 'u', 'origWidth': 411, 'origHeight': 411, 'width': 411, 'height': 411, 'widthPercent': 0.45, 'rescaleHeight': False, 'trialN': 79, 'loaded': True, 'loadedTime': 3731.4000000059605, 'positionName': 'LEFT', 'positionCoords': [244.68, 178.5], 'bid': 5.05}, {'imgObject': {}, 'id': 'burrito', 'src': '/static/foodstim60/burrito.jpg', 'key': 'i', 'origWidth': 410, 'origHeight': 410, 'width': 410, 'height': 410, 'widthPercent': 0.45, 'rescaleHeight': False, 'trialN': 79, 'loaded': True, 'loadedTime': 3649.2000000029802, 'positionName': 'RIGHT', 'positionCoords': [710.32, 179], 'bid': 1.89}]",140002.29999999702,1669830388999,blueberries,burrito,5.05,1.89,-3.16,burrito,1002.0,1003,1002.6000000089407,True,i,141518.70000000298,1516.4000000059605,1669830390516,1517,HRV,HRV_0122,2022-11-30 17:49:10
80,"[{'imgObject': {}, 'id': 'sushi w_condiments', 'src': '/static/foodstim60/sushi w_condiments.jpg', 'key': 'u', 'origWidth': 410, 'origHeight': 410, 'width': 410, 'height': 410, 'widthPercent': 0.45, 'rescaleHeight': False, 'trialN': 80, 'loaded': True, 'loadedTime': 3748.2999999970198, 'positionName': 'LEFT', 'positionCoords': [245.68, 179], 'bid': 0.13}, {'imgObject': {}, 'id': 'popsicles', 'src': '/static/foodstim60/popsicles.jpg', 'key': 'i', 'origWidth': 410, 'origHeight': 410, 'width': 410, 'height': 410, 'widthPercent': 0.45, 'rescaleHeight': False, 'trialN': 80, 'loaded': True, 'loadedTime': 3856.5, 'positionName': 'RIGHT', 'positionCoords': [710.32, 179], 'bid': 0.05}]",141519.0,1669830390516,sushi w_condiments,popsicles,0.13,0.05,-0.08,popsicles,1548.0,1549,1548.5,True,i,143583.29999999702,2064.2999999970198,1669830392580,2064,HRV,HRV_0122,2022-11-30 17:49:10
81,"[{'imgObject': {}, 'id': 'Grapes', 'src': '/static/foodstim60/Grapes.jpg', 'key': 'u', 'origWidth': 411, 'origHeight': 411, 'width': 411, 'height': 411, 'widthPercent': 0.45, 'rescaleHeight': False, 'trialN': 81, 'loaded': True, 'loadedTime': 3646.1000000089407, 'positionName': 'LEFT', 'positionCoords': [244.68, 178.5], 'bid': 5.17}, {'imgObject': {}, 'id': 'froot loops w milk', 'src': '/static/foodstim60/froot loops w milk.jpg', 'key': 'i', 'origWidth': 410, 'origHeight': 410, 'width': 410, 'height': 410, 'widthPercent': 0.45, 'rescaleHeight': False, 'trialN': 81, 'loaded': True, 'loadedTime': 3830.6000000089407, 'positionName': 'RIGHT', 'positionCoords': [710.32, 179], 'bid': 0.53}]",143583.60000000894,1669830392581,Grapes,froot loops w milk,5.17,0.53,-4.64,Grapes,831.2999999970198,832,832.0999999940395,True,u,144934.90000000596,1351.2999999970198,1669830393932,1351,HRV,HRV_0122,2022-11-30 17:49:10
82,"[{'imgObject': {}, 'id': 'salad w chicken', 'src': '/static/foodstim60/salad w chicken.jpg', 'key': 'u', 'origWidth': 411, 'origHeight': 411, 'width': 411, 'height': 411, 'widthPercent': 0.45, 'rescaleHeight': False, 'trialN': 82, 'loaded': True, 'loadedTime': 3718.7999999970198, 'positionName': 'LEFT', 'positionCoords': [244.68, 178.5], 'bid': 5}, {'imgObject': {}, 'id': 'corn cob', 'src': '/static/foodstim60/corn cob.jpg', 'key': 'i', 'origWidth': 411, 'origHeight': 411, 'width': 411, 'height': 411, 'widthPercent': 0.45, 'rescaleHeight': False, 'trialN': 82, 'loaded': True, 'loadedTime': 3948.4000000059605, 'positionName': 'RIGHT', 'positionCoords': [710.32, 178.5], 'bid': 4.89}]",144935.10000000894,1669830393932,salad w chicken,corn cob,5.0,4.89,-0.11000000000000032,salad w chicken,817.3999999910593,818,818.0,True,u,146262.90000000596,1327.7999999970198,1669830395260,1328,HRV,HRV_0122,2022-11-30 17:49:10
83,"[{'imgObject': {}, 'id': 'burger', 'src': '/static/foodstim60/burger.jpg', 'key': 'u', 'origWidth': 409, 'origHeight': 409, 'width': 409, 'height': 409, 'widthPercent': 0.45, 'rescaleHeight': False, 'trialN': 83, 'loaded': True, 'loadedTime': 3958.1000000089407, 'positionName': 'LEFT', 'positionCoords': [246.68, 179.5], 'bid': 4.26}, {'imgObject': {}, 'id': 'eggsalad', 'src': '/static/foodstim60/eggsalad.jpg', 'key': 'i', 'origWidth': 410, 'origHeight': 409, 'width': 410, 'height': 409, 'widthPercent': 0.45, 'rescaleHeight': False, 'trialN': 83, 'loaded': True, 'loadedTime': 3886.1000000089407, 'positionName': 'RIGHT', 'positionCoords': [710.32, 179.5], 'bid': 0.62}]",146263.10000000894,1669830395260,burger,eggsalad,4.26,0.62,-3.6399999999999997,eggsalad,1286.3999999910593,1287,1286.8999999910593,True,i,148059.90000000596,1796.7999999970198,1669830397057,1797,HRV,HRV_0122,2022-11-30 17:49:10
84,"[{'imgObject': {}, 'id': 'corn cob', 'src': '/static/foodstim60/corn cob.jpg', 'key': 'u', 'origWidth': 411, 'origHeight': 411, 'width': 411, 'height': 411, 'widthPercent': 0.45, 'rescaleHeight': False, 'trialN': 84, 'loaded': True, 'loadedTime': 3953.2999999970198, 'positionName': 'LEFT', 'positionCoords': [244.68, 178.5], 'bid': 4.89}, {'imgObject': {}, 'id': 'apple slices', 'src': '/static/foodstim60/apple slices.jpg', 'key': 'i', 'origWidth': 409, 'origHeight': 410, 'width': 409, 'height': 410, 'widthPercent': 0.45, 'rescaleHeight': False, 'trialN': 84, 'loaded': True, 'loadedTime': 3945.7999999970198, 'positionName': 'RIGHT', 'positionCoords': [710.32, 179], 'bid': 5.13}]",148060.10000000894,1669830397057,corn cob,apple slices,4.89,5.13,0.2400000000000002,corn cob,1088.199999988079,1089,1088.5999999940395,True,u,149661.0,1600.8999999910593,1669830398658,1601,HRV,HRV_0122,2022-11-30 17:49:10
85,"[{'imgObject': {}, 'id': 'yogurt no spoon', 'src': '/static/foodstim60/yogurt no spoon.jpg', 'key': 'u', 'origWidth': 411, 'origHeight': 410, 'width': 411, 'height': 410, 'widthPercent': 0.45, 'rescaleHeight': False, 'trialN': 85, 'loaded': True, 'loadedTime': 3701.7000000029802, 'positionName': 'LEFT', 'positionCoords': [244.68, 179], 'bid': 4.8}, {'imgObject': {}, 'id': 'mac & cheese', 'src': '/static/foodstim60/mac & cheese.jpg', 'key': 'i', 'origWidth': 410, 'origHeight': 410, 'width': 410, 'height': 410, 'widthPercent': 0.45, 'rescaleHeight': False, 'trialN': 85, 'loaded': True, 'loadedTime': 3637.5, 'positionName': 'RIGHT', 'positionCoords': [710.32, 179], 'bid': 5.16}]",149661.10000000894,1669830398658,yogurt no spoon,mac & cheese,4.8,5.16,0.3600000000000003,mac & cheese,879.5,880,880.0999999940395,True,i,151048.10000000894,1387.0,1669830400045,1387,HRV,HRV_0122,2022-11-30 17:49:10
86,"[{'imgObject': {}, 'id': 'olives', 'src': '/static/foodstim60/olives.jpg', 'key': 'u', 'origWidth': 410, 'origHeight': 410, 'width': 410, 'height': 410, 'widthPercent': 0.45, 'rescaleHeight': False, 'trialN': 86, 'loaded': True, 'loadedTime': 3884.2000000029802, 'positionName': 'LEFT', 'positionCoords': [245.68, 179], 'bid': 0.3}, {'imgObject': {}, 'id': 'yogurt no spoon', 'src': '/static/foodstim60/yogurt no spoon.jpg', 'key': 'i', 'origWidth': 411, 'origHeight': 410, 'width': 411, 'height': 410, 'widthPercent': 0.45, 'rescaleHeight': False, 'trialN': 86, 'loaded': True, 'loadedTime': 3699.9000000059605, 'positionName': 'RIGHT', 'positionCoords': [710.32, 179], 'bid': 4.8}]",151048.5,1669830400046,olives,yogurt no spoon,0.3,4.8,4.5,yogurt no spoon,749.6000000089407,750,750.1000000089407,True,i,152306.40000000596,1257.9000000059605,1669830401303,1257,HRV,HRV_0122,2022-11-30 17:49:10
87,"[{'imgObject': {}, 'id': 'veggieswithdip', 'src': '/static/foodstim60/veggieswithdip.jpg', 'key': 'u', 'origWidth': 409, 'origHeight': 409, 'width': 409, 'height': 409, 'widthPercent': 0.45, 'rescaleHeight': False, 'trialN': 87, 'loaded': True, 'loadedTime': 3872.5, 'positionName': 'LEFT', 'positionCoords': [246.68, 179.5], 'bid': 0.54}, {'imgObject': {}, 'id': 'ice cream sundae 002', 'src': '/static/foodstim60/ice cream sundae 002.jpg', 'key': 'i', 'origWidth': 409, 'origHeight': 409, 'width': 409, 'height': 409, 'widthPercent': 0.45, 'rescaleHeight': False, 'trialN': 87, 'loaded': True, 'loadedTime': 3975.6000000089407, 'positionName': 'RIGHT', 'positionCoords': [710.32, 179.5], 'bid': 0.59}]",152306.60000000894,1669830401304,veggieswithdip,ice cream sundae 002,0.54,0.59,0.04999999999999993,veggieswithdip,759.2999999970198,760,759.8999999910593,True,u,153575.5,1268.8999999910593,1669830402573,1269,HRV,HRV_0122,2022-11-30 17:49:10
88,"[{'imgObject': {}, 'id': 'fried eggs', 'src': '/static/foodstim60/fried eggs.jpg', 'key': 'u', 'origWidth': 410, 'origHeight': 410, 'width': 410, 'height': 410, 'widthPercent': 0.45, 'rescaleHeight': False, 'trialN': 88, 'loaded': True, 'loadedTime': 3805.5, 'positionName': 'LEFT', 'positionCoords': [245.68, 179], 'bid': 0.47}, {'imgObject': {}, 'id': 'omelette', 'src': '/static/foodstim60/omelette.jpg', 'key': 'i', 'origWidth': 410, 'origHeight': 409, 'width': 410, 'height': 409, 'widthPercent': 0.45, 'rescaleHeight': False, 'trialN': 88, 'loaded': True, 'loadedTime': 3742.2999999970198, 'positionName': 'RIGHT', 'positionCoords': [710.32, 179.5], 'bid': 0.43}]",153575.70000000298,1669830402573,fried eggs,omelette,0.47,0.43,-0.03999999999999998,omelette,899.4000000059605,900,900.0,True,i,154988.5,1412.7999999970198,1669830403986,1413,HRV,HRV_0122,2022-11-30 17:49:10
89,"[{'imgObject': {}, 'id': 'sweetpotato', 'src': '/static/foodstim60/sweetpotato.jpg', 'key': 'u', 'origWidth': 410, 'origHeight': 410, 'width': 410, 'height': 410, 'widthPercent': 0.45, 'rescaleHeight': False, 'trialN': 89, 'loaded': True, 'loadedTime': 3976.9000000059605, 'positionName': 'LEFT', 'positionCoords': [245.68, 179], 'bid': 4.95}, {'imgObject': {}, 'id': 'turkeysandwich', 'src': '/static/foodstim60/turkeysandwich.jpg', 'key': 'i', 'origWidth': 409, 'origHeight': 409, 'width': 409, 'height': 409, 'widthPercent': 0.45, 'rescaleHeight': False, 'trialN': 89, 'loaded': True, 'loadedTime': 3496.6000000089407, 'positionName': 'RIGHT', 'positionCoords': [710.32, 179.5], 'bid': 6.5600000000000005}]",154988.60000000894,1669830403986,sweetpotato,turkeysandwich,4.95,6.5600000000000005,1.6100000000000003,turkeysandwich,1283.8999999910593,1284,1284.3999999910593,True,i,156791.29999999702,1802.699999988079,1669830405788,1802,HRV,HRV_0122,2022-11-30 17:49:10
90,"[{'imgObject': {}, 'id': 'salmon', 'src': '/static/foodstim60/salmon.jpg', 'key': 'u', 'origWidth': 410, 'origHeight': 409, 'width': 410, 'height': 409, 'widthPercent': 0.45, 'rescaleHeight': False, 'trialN': 90, 'loaded': True, 'loadedTime': 3964.9000000059605, 'positionName': 'LEFT', 'positionCoords': [245.68, 179.5], 'bid': 0.37}, {'imgObject': {}, 'id': 'rigatoni', 'src': '/static/foodstim60/rigatoni.jpg', 'key': 'i', 'origWidth': 411, 'origHeight': 411, 'width': 411, 'height': 411, 'widthPercent': 0.45, 'rescaleHeight': False, 'trialN': 90, 'loaded': True, 'loadedTime': 3858.9000000059605, 'positionName': 'RIGHT', 'positionCoords': [710.32, 178.5], 'bid': 0.34}]",162285.10000000894,1669830411291,salmon,rigatoni,0.37,0.34,-0.02999999999999997,rigatoni,1463.199999988079,1464,1463.7999999970198,True,i,164266.60000000894,1981.5,1669830413273,1982,HRV,HRV_0122,2022-11-30 17:49:10
91,"[{'imgObject': {}, 'id': 'corn cob', 'src': '/static/foodstim60/corn cob.jpg', 'key': 'u', 'origWidth': 411, 'origHeight': 411, 'width': 411, 'height': 411, 'widthPercent': 0.45, 'rescaleHeight': False, 'trialN': 91, 'loaded': True, 'loadedTime': 3953, 'positionName': 'LEFT', 'positionCoords': [244.68, 178.5], 'bid': 4.89}, {'imgObject': {}, 'id': 'rigatoni and sauce', 'src': '/static/foodstim60/rigatoni and sauce.jpg', 'key': 'i', 'origWidth': 410, 'origHeight': 411, 'width': 410, 'height': 411, 'widthPercent': 0.45, 'rescaleHeight': False, 'trialN': 91, 'loaded': True, 'loadedTime': 3924.2999999970198, 'positionName': 'RIGHT', 'positionCoords': [710.32, 178.5], 'bid': 5.24}]",164266.79999999702,1669830413273,corn cob,rigatoni and sauce,4.89,5.24,0.35000000000000053,rigatoni and sauce,668.7000000029802,669,669.0,True,i,165444.10000000894,1177.300000011921,1669830414450,1177,HRV,HRV_0122,2022-11-30 17:49:10
92,"[{'imgObject': {}, 'id': 'seaweed', 'src': '/static/foodstim60/seaweed.jpg', 'key': 'u', 'origWidth': 410, 'origHeight': 410, 'width': 410, 'height': 410, 'widthPercent': 0.45, 'rescaleHeight': False, 'trialN': 92, 'loaded': True, 'loadedTime': 3773.7000000029802, 'positionName': 'LEFT', 'positionCoords': [245.68, 179], 'bid': 0.32}, {'imgObject': {}, 'id': 'hotdog w must', 'src': '/static/foodstim60/hotdog w must.jpg', 'key': 'i', 'origWidth': 409, 'origHeight': 409, 'width': 409, 'height': 409, 'widthPercent': 0.45, 'rescaleHeight': False, 'trialN': 92, 'loaded': True, 'loadedTime': 3576.5, 'positionName': 'RIGHT', 'positionCoords': [710.32, 179.5], 'bid': 0.31}]",165444.20000000298,1669830414450,seaweed,hotdog w must,0.32,0.31,-0.010000000000000009,hotdog w must,1131.9000000059605,1132,1132.2000000029802,True,i,167086.29999999702,1642.0999999940395,1669830416092,1642,HRV,HRV_0122,2022-11-30 17:49:10
93,"[{'imgObject': {}, 'id': 'baked potato', 'src': '/static/foodstim60/baked potato.jpg', 'key': 'u', 'origWidth': 409, 'origHeight': 410, 'width': 409, 'height': 410, 'widthPercent': 0.45, 'rescaleHeight': False, 'trialN': 93, 'loaded': True, 'loadedTime': 3967.7000000029802, 'positionName': 'LEFT', 'positionCoords': [246.68, 179], 'bid': 2.37}, {'imgObject': {}, 'id': 'burger', 'src': '/static/foodstim60/burger.jpg', 'key': 'i', 'origWidth': 409, 'origHeight': 409, 'width': 409, 'height': 409, 'widthPercent': 0.45, 'rescaleHeight': False, 'trialN': 93, 'loaded': True, 'loadedTime': 3958.2999999970198, 'positionName': 'RIGHT', 'positionCoords': [710.32, 179.5], 'bid': 4.26}]",167086.40000000596,1669830416093,baked potato,burger,2.37,4.26,1.8899999999999997,burger,1171.2999999970198,1171,1171.7000000029802,True,i,168778.20000000298,1691.7999999970198,1669830417784,1691,HRV,HRV_0122,2022-11-30 17:49:10
94,"[{'imgObject': {}, 'id': 'burger', 'src': '/static/foodstim60/burger.jpg', 'key': 'u', 'origWidth': 409, 'origHeight': 409, 'width': 409, 'height': 409, 'widthPercent': 0.45, 'rescaleHeight': False, 'trialN': 94, 'loaded': True, 'loadedTime': 3957.7999999970198, 'positionName': 'LEFT', 'positionCoords': [246.68, 179.5], 'bid': 4.26}, {'imgObject': {}, 'id': 'granola w milk', 'src': '/static/foodstim60/granola w milk.jpg', 'key': 'i', 'origWidth': 410, 'origHeight': 410, 'width': 410, 'height': 410, 'widthPercent': 0.45, 'rescaleHeight': False, 'trialN': 94, 'loaded': True, 'loadedTime': 3922.5, 'positionName': 'RIGHT', 'positionCoords': [710.32, 179], 'bid': 0.53}]",168778.40000000596,1669830417784,burger,granola w milk,4.26,0.53,-3.7299999999999995,burger,1148.2999999970198,1149,1148.7999999970198,True,u,170431.0,1652.5999999940395,1669830419437,1653,HRV,HRV_0122,2022-11-30 17:49:10
95,"[{'imgObject': {}, 'id': 'chickenfingers', 'src': '/static/foodstim60/chickenfingers.jpg', 'key': 'u', 'origWidth': 410, 'origHeight': 410, 'width': 410, 'height': 410, 'widthPercent': 0.45, 'rescaleHeight': False, 'trialN': 95, 'loaded': True, 'loadedTime': 3966.9000000059605, 'positionName': 'LEFT', 'positionCoords': [245.68, 179], 'bid': 0.62}, {'imgObject': {}, 'id': 'eggsalad', 'src': '/static/foodstim60/eggsalad.jpg', 'key': 'i', 'origWidth': 410, 'origHeight': 409, 'width': 410, 'height': 409, 'widthPercent': 0.45, 'rescaleHeight': False, 'trialN': 95, 'loaded': True, 'loadedTime': 3896.6000000089407, 'positionName': 'RIGHT', 'positionCoords': [710.32, 179.5], 'bid': 0.62}]",170431.20000000298,1669830419437,chickenfingers,eggsalad,0.62,0.62,0.0,chickenfingers,1106.4000000059605,1107,1106.7999999970198,True,u,172055.0,1623.7999999970198,1669830421061,1624,HRV,HRV_0122,2022-11-30 17:49:10
96,"[{'imgObject': {}, 'id': 'turkey sandwich', 'src': '/static/foodstim60/turkey sandwich.jpg', 'key': 'u', 'origWidth': 409, 'origHeight': 409, 'width': 409, 'height': 409, 'widthPercent': 0.45, 'rescaleHeight': False, 'trialN': 96, 'loaded': True, 'loadedTime': 3483.1000000089407, 'positionName': 'LEFT', 'positionCoords': [246.68, 179.5], 'bid': 7.18}, {'imgObject': {}, 'id': 'chickenfingers', 'src': '/static/foodstim60/chickenfingers.jpg', 'key': 'i', 'origWidth': 410, 'origHeight': 410, 'width': 410, 'height': 410, 'widthPercent': 0.45, 'rescaleHeight': False, 'trialN': 96, 'loaded': True, 'loadedTime': 3967.2000000029802, 'positionName': 'RIGHT', 'positionCoords': [710.32, 179], 'bid': 0.62}]",172055.29999999702,1669830421061,turkey sandwich,chickenfingers,7.18,0.62,-6.56,turkey sandwich,935.0,936,935.5,True,u,173502.90000000596,1447.6000000089407,1669830422509,1448,HRV,HRV_0122,2022-11-30 17:49:10
97,"[{'imgObject': {}, 'id': 'mashed potato', 'src': '/static/foodstim60/mashed potato.jpg', 'key': 'u', 'origWidth': 409, 'origHeight': 409, 'width': 409, 'height': 409, 'widthPercent': 0.45, 'rescaleHeight': False, 'trialN': 97, 'loaded': True, 'loadedTime': 3877, 'positionName': 'LEFT', 'positionCoords': [246.68, 179.5], 'bid': 0.51}, {'imgObject': {}, 'id': 'shreddedwheatwithmilk', 'src': '/static/foodstim60/shreddedwheatwithmilk.jpg', 'key': 'i', 'origWidth': 410, 'origHeight': 410, 'width': 410, 'height': 410, 'widthPercent': 0.45, 'rescaleHeight': False, 'trialN': 97, 'loaded': True, 'loadedTime': 3663.7000000029802, 'positionName': 'RIGHT', 'positionCoords': [710.32, 179], 'bid': 0.38}]",173503.10000000894,1669830422509,mashed potato,shreddedwheatwithmilk,0.51,0.38,-0.13,shreddedwheatwithmilk,1215.2999999970198,1216,1215.8999999910593,True,i,175222.5,1719.3999999910593,1669830424229,1720,HRV,HRV_0122,2022-11-30 17:49:10
98,"[{'imgObject': {}, 'id': 'cherries', 'src': '/static/foodstim60/cherries.jpg', 'key': 'u', 'origWidth': 410, 'origHeight': 411, 'width': 410, 'height': 411, 'widthPercent': 0.45, 'rescaleHeight': False, 'trialN': 98, 'loaded': True, 'loadedTime': 3729.1000000089407, 'positionName': 'LEFT', 'positionCoords': [245.68, 178.5], 'bid': 5.1000000000000005}, {'imgObject': {}, 'id': 'baked potato', 'src': '/static/foodstim60/baked potato.jpg', 'key': 'i', 'origWidth': 409, 'origHeight': 410, 'width': 409, 'height': 410, 'widthPercent': 0.45, 'rescaleHeight': False, 'trialN': 98, 'loaded': True, 'loadedTime': 3970.7000000029802, 'positionName': 'RIGHT', 'positionCoords': [710.32, 179], 'bid': 2.37}]",175222.70000000298,1669830424229,cherries,baked potato,5.1000000000000005,2.37,-2.7300000000000004,cherries,770.0999999940395,770,770.5999999940395,True,u,176500.40000000596,1277.7000000029802,1669830425506,1277,HRV,HRV_0122,2022-11-30 17:49:10
99,"[{'imgObject': {}, 'id': 'lox', 'src': '/static/foodstim60/lox.jpg', 'key': 'u', 'origWidth': 410, 'origHeight': 411, 'width': 410, 'height': 411, 'widthPercent': 0.45, 'rescaleHeight': False, 'trialN': 99, 'loaded': True, 'loadedTime': 3932.7000000029802, 'positionName': 'LEFT', 'positionCoords': [245.68, 178.5], 'bid': 0.21}, {'imgObject': {}, 'id': 'kiwi', 'src': '/static/foodstim60/kiwi.jpg', 'key': 'i', 'origWidth': 410, 'origHeight': 410, 'width': 410, 'height': 410, 'widthPercent': 0.45, 'rescaleHeight': False, 'trialN': 99, 'loaded': True, 'loadedTime': 3971.9000000059605, 'positionName': 'RIGHT', 'positionCoords': [710.32, 179], 'bid': 0.16}]",176500.60000000894,1669830425507,lox,kiwi,0.21,0.16,-0.04999999999999999,kiwi,987.8999999910593,988,988.2999999970198,True,i,177999.0,1498.3999999910593,1669830427005,1498,HRV,HRV_0122,2022-11-30 17:49:10
100,"[{'imgObject': {}, 'id': 'blueberries', 'src': '/static/foodstim60/blueberries.jpg', 'key': 'u', 'origWidth': 411, 'origHeight': 411, 'width': 411, 'height': 411, 'widthPercent': 0.45, 'rescaleHeight': False, 'trialN': 100, 'loaded': True, 'loadedTime': 3738.2000000029802, 'positionName': 'LEFT', 'positionCoords': [244.68, 178.5], 'bid': 5.05}, {'imgObject': {}, 'id': 'sweetpotato', 'src': '/static/foodstim60/sweetpotato.jpg', 'key': 'i', 'origWidth': 410, 'origHeight': 410, 'width': 410, 'height': 410, 'widthPercent': 0.45, 'rescaleHeight': False, 'trialN': 100, 'loaded': True, 'loadedTime': 3975.7000000029802, 'positionName': 'RIGHT', 'positionCoords': [710.32, 179], 'bid': 4.95}]",177999.20000000298,1669830427005,blueberries,sweetpotato,5.05,4.95,-0.09999999999999964,sweetpotato,1047.0999999940395,1048,1047.7000000029802,True,i,179548.20000000298,1549.0,1669830428554,1549,HRV,HRV_0122,2022-11-30 17:49:10
101,"[{'imgObject': {}, 'id': 'chicken nuggets2', 'src': '/static/foodstim60/chicken nuggets2.jpg', 'key': 'u', 'origWidth': 410, 'origHeight': 409, 'width': 410, 'height': 409, 'widthPercent': 0.45, 'rescaleHeight': False, 'trialN': 101, 'loaded': True, 'loadedTime': 3778.6000000089407, 'positionName': 'LEFT', 'positionCoords': [245.68, 179.5], 'bid': 0.37}, {'imgObject': {}, 'id': 'avocado', 'src': '/static/foodstim60/avocado.jpg', 'key': 'i', 'origWidth': 409, 'origHeight': 409, 'width': 409, 'height': 409, 'widthPercent': 0.45, 'rescaleHeight': False, 'trialN': 101, 'loaded': True, 'loadedTime': 3956.7000000029802, 'positionName': 'RIGHT', 'positionCoords': [710.32, 179.5], 'bid': 0.5}]",179548.5,1669830428554,chicken nuggets2,avocado,0.37,0.5,0.13,chicken nuggets2,871.6000000089407,873,872.1000000089407,True,u,180936.0,1387.5,1669830429942,1388,HRV,HRV_0122,2022-11-30 17:49:10
102,"[{'imgObject': {}, 'id': 'avocado', 'src': '/static/foodstim60/avocado.jpg', 'key': 'u', 'origWidth': 409, 'origHeight': 409, 'width': 409, 'height': 409, 'widthPercent': 0.45, 'rescaleHeight': False, 'trialN': 102, 'loaded': True, 'loadedTime': 3956.4000000059605, 'positionName': 'LEFT', 'positionCoords': [246.68, 179.5], 'bid': 0.5}, {'imgObject': {}, 'id': 'eggs', 'src': '/static/foodstim60/eggs.jpg', 'key': 'i', 'origWidth': 409, 'origHeight': 409, 'width': 409, 'height': 409, 'widthPercent': 0.45, 'rescaleHeight': False, 'trialN': 102, 'loaded': True, 'loadedTime': 3906.4000000059605, 'positionName': 'RIGHT', 'positionCoords': [710.32, 179.5], 'bid': 0.49}]",180936.29999999702,1669830429942,avocado,eggs,0.5,0.49,-0.010000000000000009,eggs,1299.5,1300,1299.9000000059605,True,i,182743.0,1806.7000000029802,1669830431749,1807,HRV,HRV_0122,2022-11-30 17:49:10
103,"[{'imgObject': {}, 'id': 'pear', 'src': '/static/foodstim60/pear.jpg', 'key': 'u', 'origWidth': 411, 'origHeight': 410, 'width': 411, 'height': 410, 'widthPercent': 0.45, 'rescaleHeight': False, 'trialN': 103, 'loaded': True, 'loadedTime': 3615.2000000029802, 'positionName': 'LEFT', 'positionCoords': [244.68, 179], 'bid': 4.03}, {'imgObject': {}, 'id': 'burger', 'src': '/static/foodstim60/burger.jpg', 'key': 'i', 'origWidth': 409, 'origHeight': 409, 'width': 409, 'height': 409, 'widthPercent': 0.45, 'rescaleHeight': False, 'trialN': 103, 'loaded': True, 'loadedTime': 3956.7999999970198, 'positionName': 'RIGHT', 'positionCoords': [710.32, 179.5], 'bid': 4.26}]",182743.20000000298,1669830431749,pear,burger,4.03,4.26,0.22999999999999954,burger,1491.0999999940395,1492,1491.5999999940395,True,i,184749.60000000894,2006.4000000059605,1669830433756,2007,HRV,HRV_0122,2022-11-30 17:49:10
104,"[{'imgObject': {}, 'id': 'chickenfingers', 'src': '/static/foodstim60/chickenfingers.jpg', 'key': 'u', 'origWidth': 410, 'origHeight': 410, 'width': 410, 'height': 410, 'widthPercent': 0.45, 'rescaleHeight': False, 'trialN': 104, 'loaded': True, 'loadedTime': 3967.1000000089407, 'positionName': 'LEFT', 'positionCoords': [245.68, 179], 'bid': 0.62}, {'imgObject': {}, 'id': 'pear', 'src': '/static/foodstim60/pear.jpg', 'key': 'i', 'origWidth': 411, 'origHeight': 410, 'width': 411, 'height': 410, 'widthPercent': 0.45, 'rescaleHeight': False, 'trialN': 104, 'loaded': True, 'loadedTime': 3611.7000000029802, 'positionName': 'RIGHT', 'positionCoords': [710.32, 179], 'bid': 4.03}]",184749.70000000298,1669830433756,chickenfingers,pear,0.62,4.03,3.41,pear,1217.5999999940395,1218,1218.0999999940395,True,i,186490.20000000298,1740.5,1669830435496,1740,HRV,HRV_0122,2022-11-30 17:49:10
105,"[{'imgObject': {}, 'id': 'sushi w_condiments', 'src': '/static/foodstim60/sushi w_condiments.jpg', 'key': 'u', 'origWidth': 410, 'origHeight': 410, 'width': 410, 'height': 410, 'widthPercent': 0.45, 'rescaleHeight': False, 'trialN': 105, 'loaded': True, 'loadedTime': 3765.5, 'positionName': 'LEFT', 'positionCoords': [245.68, 179], 'bid': 0.13}, {'imgObject': {}, 'id': 'lox', 'src': '/static/foodstim60/lox.jpg', 'key': 'i', 'origWidth': 410, 'origHeight': 411, 'width': 410, 'height': 411, 'widthPercent': 0.45, 'rescaleHeight': False, 'trialN': 105, 'loaded': True, 'loadedTime': 3930.1000000089407, 'positionName': 'RIGHT', 'positionCoords': [710.32, 178.5], 'bid': 0.21}]",186490.40000000596,1669830435497,sushi w_condiments,lox,0.13,0.21,0.07999999999999999,sushi w_condiments,1443.5,1443,1444.0,True,u,188439.29999999702,1948.8999999910593,1669830437445,1948,HRV,HRV_0122,2022-11-30 17:49:10
106,"[{'imgObject': {}, 'id': 'omelette', 'src': '/static/foodstim60/omelette.jpg', 'key': 'u', 'origWidth': 410, 'origHeight': 409, 'width': 410, 'height': 409, 'widthPercent': 0.45, 'rescaleHeight': False, 'trialN': 106, 'loaded': True, 'loadedTime': 3746, 'positionName': 'LEFT', 'positionCoords': [245.68, 179.5], 'bid': 0.43}, {'imgObject': {}, 'id': 'blackbeanswithrice', 'src': '/static/foodstim60/blackbeanswithrice.jpg', 'key': 'i', 'origWidth': 410, 'origHeight': 410, 'width': 410, 'height': 410, 'widthPercent': 0.45, 'rescaleHeight': False, 'trialN': 106, 'loaded': True, 'loadedTime': 3915.9000000059605, 'positionName': 'RIGHT', 'positionCoords': [710.32, 179], 'bid': 0.51}]",188439.60000000894,1669830437446,omelette,blackbeanswithrice,0.43,0.51,0.08000000000000002,omelette,1224.0999999940395,1224,1224.5999999940395,True,u,190186.90000000596,1747.2999999970198,1669830439193,1747,HRV,HRV_0122,2022-11-30 17:49:10
107,"[{'imgObject': {}, 'id': 'bagel plain', 'src': '/static/foodstim60/bagel plain.jpg', 'key': 'u', 'origWidth': 410, 'origHeight': 410, 'width': 410, 'height': 410, 'widthPercent': 0.45, 'rescaleHeight': False, 'trialN': 107, 'loaded': True, 'loadedTime': 3833.5, 'positionName': 'LEFT', 'positionCoords': [245.68, 179], 'bid': 5.13}, {'imgObject': {}, 'id': 'banana', 'src': '/static/foodstim60/banana.jpg', 'key': 'i', 'origWidth': 410, 'origHeight': 410, 'width': 410, 'height': 410, 'widthPercent': 0.45, 'rescaleHeight': False, 'trialN': 107, 'loaded': True, 'loadedTime': 3706.2000000029802, 'positionName': 'RIGHT', 'positionCoords': [710.32, 179], 'bid': 6.61}]",190187.10000000894,1669830439193,bagel plain,banana,5.13,6.61,1.4800000000000004,banana,1284.5999999940395,1285,1285.199999988079,True,i,191985.40000000596,1798.2999999970198,1669830440991,1798,HRV,HRV_0122,2022-11-30 17:49:10
108,"[{'imgObject': {}, 'id': 'tacos', 'src': '/static/foodstim60/tacos.jpg', 'key': 'u', 'origWidth': 411, 'origHeight': 411, 'width': 411, 'height': 411, 'widthPercent': 0.45, 'rescaleHeight': False, 'trialN': 108, 'loaded': True, 'loadedTime': 3953.5, 'positionName': 'LEFT', 'positionCoords': [244.68, 178.5], 'bid': 5.04}, {'imgObject': {}, 'id': 'blueberries', 'src': '/static/foodstim60/blueberries.jpg', 'key': 'i', 'origWidth': 411, 'origHeight': 411, 'width': 411, 'height': 411, 'widthPercent': 0.45, 'rescaleHeight': False, 'trialN': 108, 'loaded': True, 'loadedTime': 3732.6000000089407, 'positionName': 'RIGHT', 'positionCoords': [710.32, 178.5], 'bid': 5.05}]",191985.60000000894,1669830440992,tacos,blueberries,5.04,5.05,0.009999999999999787,tacos,731.6999999880791,732,732.0,True,u,193220.10000000894,1234.5,1669830442226,1234,HRV,HRV_0122,2022-11-30 17:49:10
