success,trial_type,trial_index,time_elapsed,internal_node_id,Block,TrialNumber,TrialTime,trialTimeDiff,FPS_avg,FPS_med,FPS_mode,TrialDur,winResizeTime,rt,block,button_pressed,MotCoh,MotDir,ColCoh,Color,ChoiceKey,Choice,Accuracy,RT,nFrames,FPS,PPD,missTrial,missTrialMsg,onsetDelay,fullScreenExitTime,canvCenter,TrialType,Score,BlockTrial,stimulus,button_labels,exp,subjectId,date
True,fullscreen,0,2832,0.0-0.0,0.0,1.0,,,,,,,,,,,,,,,,,,,,,,,,,,,,,,,,HRV,HRV_0122,2022-11-30 18:14:54
,wl-check-fps,1,7814,0.0-1.0,0.0,2.0,"[4054.6, 4055.7, 4068.4, 4086.3, 4102, 4118.8, 4135.1, 4152.7, 4169.8, 4186, 4201.9, 4218.5, 4235.2, 4252.9, 4268.2, 4286.2, 4301.4, 4319.5, 4336.4, 4352, 4367.9, 4384.6, 4402.9, 4419.8, 4435.5, 4452.6, 4468.3, 4484.8, 4501.7, 4518.7, 4535.6, 4551.5, 4568.4, 4584.6, 4601.3, 4618.4, 4635.7, 4651.1, 4669.4, 4685.4, 4701.2, 4719.3, 4735.2, 4751, 4767.8, 4785.3, 4800.8, 4818.1, 4834.8, 4850.7, 4869, 4884.6, 4902, 4917.7, 4936, 4952.4, 4967.5, 4985.8, 5000.8, 5018.2, 5033.8, 5051.1, 5067.2, 5083.9, 5100.8, 5117.4, 5134.5, 5151.2, 5167.9, 5184.7, 5201.6, 5218.4, 5235.8, 5251.9, 5268.7, 5285.1, 5302.3, 5317.8, 5333.6, 5352, 5368.8, 5385.5, 5401.7, 5417.2, 5435, 5451.3, 5467.5, 5484.2, 5500.1, 5518.4, 5534.1, 5551.5, 5568.3, 5585, 5600.7, 5616.9, 5634.8, 5650, 5667.2, 5683.4, 5699.9, 5717, 5734, 5750.9, 5767, 5784.2, 5801.1, 5816.8, 5834, 5850.1, 5867.2, 5883.6, 5899.7, 5916.9, 5933.2, 5950.3, 5966.5, 5983, 6000.4, 6016.9, 6034.7, 6050.3, 6068.2, 6083.1, 6101.3, 6116.2, 6133.4, 6150, 6166.1, 6184.8, 6199.8, 6216.9, 6233, 6250, 6267.2, 6283.3, 6301.4, 6316.6, 6333.1, 6349.9, 6366.2, 6383, 6399.4, 6416.5, 6432.8, 6450, 6466.2, 6483, 6500.4, 6516.4, 6534.1, 6549.4, 6566.6, 6582.7, 6600, 6616.3, 6632.7, 6649.9, 6666.2, 6682.9, 6699.9, 6715.6, 6732.9, 6749.3, 6766.4, 6782.7, 6799.7, 6815.8, 6832.9, 6849, 6866.2, 6882.4, 6899.6, 6915.6, 6932.8, 6949, 6966.5, 6983.4, 7000.4, 7016, 7033, 7048.9, 7066.1, 7082.4, 7099.7, 7115.7, 7131.9, 7149.2, 7165.5, 7182.8, 7200.3, 7215.4, 7233, 7248.9, 7266.1, 7283.1, 7299.1, 7315.4, 7332.7, 7348.7, 7366.8, 7382.5, 7399.3, 7415, 7433, 7449, 7465.5, 7482.1, 7500, 7515.8, 7532.5, 7548.7, 7565, 7582.7, 7599.6, 7615.4, 7632.3, 7648.6, 7666.8, 7681.8, 7698.2, 7715.5, 7732.7, 7748.3, 7765.9, 7783, 7799.3, 7815.1, 7833.1, 7848, 7865, 7881.2, 7898.1, 7916.4, 7931.6, 7949, 7965, 7982.1, 7998.2, 8015.8, 8031.5, 8047.8, 8064.7, 8082, 8098, 8115.2, 8132.1, 8148.6, 8165, 8181, 8198.9, 8214.2, 8232.2, 8247.6, 8264.9, 8281.8, 8298.3, 8315.1, 8331.8, 8347.9, 8364.8, 8381.8, 8397.8, 8414.9, 8432.1, 8449.3, 8465.3, 8481.6, 8498, 8515.8, 8530.9, 8547.8, 8565, 8582.1, 8598.2, 8614.1, 8631.3, 8647.6, 8664.2, 8681.2, 8697.4, 8714.4, 8731.2, 8747.4, 8764.8, 8781.4, 8797.3, 8814.1, 8831.7, 8847.3, 8864, 8880.3, 8897.7, 8914.5, 8930.7, 8947.8, 8964.9, 8982.4, 8996.8, 9015.1]","[4.6, 1.1, 12.7, 17.9, 15.7, 16.8, 16.3, 17.6, 17.1, 16.2, 15.9, 16.6, 16.7, 17.7, 15.3, 18, 15.2, 18.1, 16.9, 15.6, 15.9, 16.7, 18.3, 16.9, 15.7, 17.1, 15.7, 16.5, 16.9, 17, 16.9, 15.9, 16.9, 16.2, 16.7, 17.1, 17.3, 15.4, 18.3, 16, 15.8, 18.1, 15.9, 15.8, 16.8, 17.5, 15.5, 17.3, 16.7, 15.9, 18.3, 15.6, 17.4, 15.7, 18.3, 16.4, 15.1, 18.3, 15, 17.4, 15.6, 17.3, 16.1, 16.7, 16.9, 16.6, 17.1, 16.7, 16.7, 16.8, 16.9, 16.8, 17.4, 16.1, 16.8, 16.4, 17.2, 15.5, 15.8, 18.4, 16.8, 16.7, 16.2, 15.5, 17.8, 16.3, 16.2, 16.7, 15.9, 18.3, 15.7, 17.4, 16.8, 16.7, 15.7, 16.2, 17.9, 15.2, 17.2, 16.2, 16.5, 17.1, 17, 16.9, 16.1, 17.2, 16.9, 15.7, 17.2, 16.1, 17.1, 16.4, 16.1, 17.2, 16.3, 17.1, 16.2, 16.5, 17.4, 16.5, 17.8, 15.6, 17.9, 14.9, 18.2, 14.9, 17.2, 16.6, 16.1, 18.7, 15, 17.1, 16.1, 17, 17.2, 16.1, 18.1, 15.2, 16.5, 16.8, 16.3, 16.8, 16.4, 17.1, 16.3, 17.2, 16.2, 16.8, 17.4, 16, 17.7, 15.3, 17.2, 16.1, 17.3, 16.3, 16.4, 17.2, 16.3, 16.7, 17, 15.7, 17.3, 16.4, 17.1, 16.3, 17, 16.1, 17.1, 16.1, 17.2, 16.2, 17.2, 16, 17.2, 16.2, 17.5, 16.9, 17, 15.6, 17, 15.9, 17.2, 16.3, 17.3, 16, 16.2, 17.3, 16.3, 17.3, 17.5, 15.1, 17.6, 15.9, 17.2, 17, 16, 16.3, 17.3, 16, 18.1, 15.7, 16.8, 15.7, 18, 16, 16.5, 16.6, 17.9, 15.8, 16.7, 16.2, 16.3, 17.7, 16.9, 15.8, 16.9, 16.3, 18.2, 15, 16.4, 17.3, 17.2, 15.6, 17.6, 17.1, 16.3, 15.8, 18, 14.9, 17, 16.2, 16.9, 18.3, 15.2, 17.4, 16, 17.1, 16.1, 17.6, 15.7, 16.3, 16.9, 17.3, 16, 17.2, 16.9, 16.5, 16.4, 16, 17.9, 15.3, 18, 15.4, 17.3, 16.9, 16.5, 16.8, 16.7, 16.1, 16.9, 17, 16, 17.1, 17.2, 17.2, 16, 16.3, 16.4, 17.8, 15.1, 16.9, 17.2, 17.1, 16.1, 15.9, 17.2, 16.3, 16.6, 17, 16.2, 17, 16.8, 16.2, 17.4, 16.6, 15.9, 16.8, 17.6, 15.6, 16.7, 16.3, 17.4, 16.8, 16.2, 17.1, 17.1, 17.5, 14.4, 18.3]",60.0,59.0,58.0,4980.1,[],,,,,,,,,,,,,,,,,,,,,,,,,HRV,HRV_0122,2022-11-30 18:14:54
,wl-html-keyboard-response,2,30775,0.0-2.0-0.0,0.0,3.0,,,,,,,,20947.0,0.0,0,,,,,,,,,,,,,,,,,,,,,,HRV,HRV_0122,2022-11-30 18:14:54
,wl-rdm,3,38469,0.0-3.0-0.0,0.0,4.0,,,,,,,[],,,,0.0,0.0,87.9,0.0,u,0.0,True,2103.0999999940395,127.0,58.0,40.0,False,,3000.0,[],"[683, 384]",ColorTask_Demo,,,,,HRV,HRV_0122,2022-11-30 18:14:54
,wl-rdm,4,43348,0.0-3.0-1.0,0.0,5.0,,,,,,,[],,,,0.0,0.0,87.9,1.0,i,1.0,True,796.3999999910593,48.0,58.0,40.0,False,,2000.0,[],"[683, 384]",ColorTask_Demo,,,,,HRV,HRV_0122,2022-11-30 18:14:54
,wl-html-keyboard-response,5,51859,0.0-3.0-2.0,0.0,6.0,,,,,,,,6503.79999999702,0.0,1,,,,,,,,,,,,,,,,,,,,,,HRV,HRV_0122,2022-11-30 18:14:54
,wl-html-keyboard-response,6,65148,0.0-4.0-0.0,0.0,7.0,,,,,,,,11284.70000000298,0.0,0,,,,,,,,,,,,,,,,,,,,,,HRV,HRV_0122,2022-11-30 18:14:54
,wl-html-keyboard-response,7,87843,0.0-5.0-0.0,0.0,8.0,,,,,,,,20685.90000000596,0.0,0,,,,,,,,,,,,,,,,,,,,,,HRV,HRV_0122,2022-11-30 18:14:54
,wl-rdm,8,90634,0.0-6.0-0.0,0.0,9.0,,,,,,,[],,,,,,87.9,0.0,u,0.0,True,1371.0999999940395,83.0,58.0,40.0,False,,353.26151243317116,[],"[683, 384]",ColorTask,1.0,1.0,,,HRV,HRV_0122,2022-11-30 18:14:54
,wl-rdm,9,92798,0.0-6.1-0.1,0.0,10.0,,,,,,,[],,,,,,73.6,1.0,i,1.0,True,873.1000000089407,53.0,58.0,40.0,False,,223.52853436831836,[],"[683, 384]",ColorTask,2.0,2.0,,,HRV,HRV_0122,2022-11-30 18:14:54
,wl-rdm,10,95095,0.0-6.2-0.2,0.0,11.0,,,,,,,[],,,,,,53.2,0.0,i,1.0,False,1014.2000000178814,61.0,58.0,40.0,False,,212.36581970737743,[],"[683, 384]",ColorTask,1.0,3.0,,,HRV,HRV_0122,2022-11-30 18:14:54
,wl-rdm,11,97428,0.0-6.3-0.3,0.0,12.0,,,,,,,[],,,,,,56.4,1.0,i,1.0,True,938.0999999940395,57.0,58.0,40.0,False,,299.98972237795635,[],"[683, 384]",ColorTask,2.0,4.0,,,HRV,HRV_0122,2022-11-30 18:14:54
,wl-rdm,12,99891,0.0-6.4-0.4,0.0,13.0,,,,,,,[],,,,,,53.2,1.0,i,1.0,True,1022.0,62.0,58.0,40.0,False,,362.9380815997799,[],"[683, 384]",ColorTask,3.0,5.0,,,HRV,HRV_0122,2022-11-30 18:14:54
,wl-rdm,13,102290,0.0-6.5-0.5,0.0,14.0,,,,,,,[],,,,,,50.0,1.0,u,0.0,False,979.4000000059605,59.0,58.0,40.0,False,,343.69153419080465,[],"[683, 384]",ColorTask,2.0,6.0,,,HRV,HRV_0122,2022-11-30 18:14:54
,wl-rdm,14,104804,0.0-6.6-0.6,0.0,15.0,,,,,,,[],,,,,,53.2,0.0,u,0.0,True,1187.4000000059605,72.0,58.0,40.0,False,,241.51368001028868,[],"[683, 384]",ColorTask,3.0,7.0,,,HRV,HRV_0122,2022-11-30 18:14:54
,wl-rdm,15,106951,0.0-6.7-0.7,0.0,16.0,,,,,,,[],,,,,,73.6,1.0,i,1.0,True,859.0,52.0,58.0,40.0,False,,201.24888223471697,[],"[683, 384]",ColorTask,4.0,8.0,,,HRV,HRV_0122,2022-11-30 18:14:54
,wl-rdm,16,109681,0.0-6.8-0.8,0.0,17.0,,,,,,,[],,,,,,62.5,1.0,i,1.0,True,1396.300000011921,84.0,58.0,40.0,False,,256.21545317838604,[],"[683, 384]",ColorTask,5.0,9.0,,,HRV,HRV_0122,2022-11-30 18:14:54
,wl-rdm,17,112446,0.0-6.9-0.9,0.0,18.0,,,,,,,[],,,,,,87.9,0.0,u,0.0,True,1287.800000011921,78.0,58.0,40.0,False,,386.03015195143576,[],"[683, 384]",ColorTask,6.0,10.0,,,HRV,HRV_0122,2022-11-30 18:14:54
,wl-rdm,18,115177,0.0-6.10-0.10,0.0,19.0,,,,,,,[],,,,,,73.6,0.0,u,0.0,True,1362.5000000149012,82.0,58.0,40.0,False,,299.2717980986247,[],"[683, 384]",ColorTask,7.0,11.0,,,HRV,HRV_0122,2022-11-30 18:14:54
,wl-rdm,19,117591,0.0-6.11-0.11,0.0,20.0,,,,,,,[],,,,,,56.4,0.0,i,1.0,False,1109.7000000029802,67.0,58.0,40.0,False,,228.40097622783523,[],"[683, 384]",ColorTask,6.0,12.0,,,HRV,HRV_0122,2022-11-30 18:14:54
,wl-rdm,20,120139,0.0-6.12-0.12,0.0,21.0,,,,,,,[],,,,,,87.9,1.0,i,1.0,True,1137.300000011921,69.0,58.0,40.0,False,,317.835835733139,[],"[683, 384]",ColorTask,7.0,13.0,,,HRV,HRV_0122,2022-11-30 18:14:54
,wl-rdm,21,122669,0.0-6.13-0.13,0.0,22.0,,,,,,,[],,,,,,62.5,0.0,u,0.0,True,1171.0999999940395,71.0,58.0,40.0,False,,270.8163732541252,[],"[683, 384]",ColorTask,8.0,14.0,,,HRV,HRV_0122,2022-11-30 18:14:54
,wl-rdm,22,125517,0.0-6.14-0.14,0.0,23.0,,,,,,,[],,,,,,50.0,0.0,u,0.0,True,1578.0000000149012,95.0,58.0,40.0,False,,200.16334019251235,[],"[683, 384]",ColorTask,9.0,15.0,,,HRV,HRV_0122,2022-11-30 18:14:54
,wl-rdm,23,128081,0.0-6.15-0.15,0.0,24.0,,,,,,,[],,,,,,53.2,0.0,u,0.0,True,1177.5,71.0,58.0,40.0,False,,309.34782569234983,[],"[683, 384]",ColorTask,10.0,16.0,,,HRV,HRV_0122,2022-11-30 18:14:54
,wl-rdm,24,130612,0.0-6.16-0.16,0.0,25.0,,,,,,,[],,,,,,56.4,0.0,u,0.0,True,1253.7999999970198,76.0,58.0,40.0,False,,208.99045830510613,[],"[683, 384]",ColorTask,11.0,17.0,,,HRV,HRV_0122,2022-11-30 18:14:54
,wl-rdm,25,133060,0.0-6.17-0.17,0.0,26.0,,,,,,,[],,,,,,62.5,0.0,u,0.0,True,1130.5,68.0,58.0,40.0,False,,234.99704418224243,[],"[683, 384]",ColorTask,12.0,18.0,,,HRV,HRV_0122,2022-11-30 18:14:54
,wl-rdm,26,135292,0.0-6.18-0.18,0.0,27.0,,,,,,,[],,,,,,50.0,0.0,i,1.0,False,938.0999999940395,57.0,58.0,40.0,False,,221.0455024162741,[],"[683, 384]",ColorTask,11.0,19.0,,,HRV,HRV_0122,2022-11-30 18:14:54
,wl-rdm,27,137639,0.0-6.19-0.19,0.0,28.0,,,,,,,[],,,,,,53.2,1.0,i,1.0,True,1003.9999999850988,61.0,58.0,40.0,False,,274.15246793256927,[],"[683, 384]",ColorTask,12.0,20.0,,,HRV,HRV_0122,2022-11-30 18:14:54
,wl-rdm,28,140271,0.0-6.20-0.20,0.0,29.0,,,,,,,[],,,,,,50.0,0.0,u,0.0,True,1343.0000000149012,81.0,58.0,40.0,False,,221.93325168492544,[],"[683, 384]",ColorTask,13.0,21.0,,,HRV,HRV_0122,2022-11-30 18:14:54
,wl-rdm,29,142734,0.0-6.21-0.21,0.0,30.0,,,,,,,[],,,,,,50.0,0.0,u,0.0,True,1175.2999999970198,71.0,58.0,40.0,False,,209.13755098979135,[],"[683, 384]",ColorTask,14.0,22.0,,,HRV,HRV_0122,2022-11-30 18:14:54
,wl-rdm,30,145514,0.0-6.22-0.22,0.0,31.0,,,,,,,[],,,,,,50.0,1.0,u,0.0,False,1407.4000000059605,85.0,58.0,40.0,False,,299.5351902987698,[],"[683, 384]",ColorTask,13.0,23.0,,,HRV,HRV_0122,2022-11-30 18:14:54
,wl-rdm,31,148146,0.0-6.23-0.23,0.0,32.0,,,,,,,[],,,,,,73.6,0.0,i,1.0,False,1348.5,81.0,58.0,40.0,False,,208.43192051677798,[],"[683, 384]",ColorTask,12.0,24.0,,,HRV,HRV_0122,2022-11-30 18:14:54
,wl-rdm,32,151490,0.0-6.24-0.24,0.0,33.0,,,,,,,[],,,,,,73.6,1.0,i,1.0,True,2040.0999999940395,123.0,58.0,40.0,False,,230.05245940119084,[],"[683, 384]",ColorTask,13.0,25.0,,,HRV,HRV_0122,2022-11-30 18:14:54
,wl-rdm,33,155853,0.0-6.25-0.25,0.0,33.0,,,,,,,[],,,,,,56.4,1.0,i,,,3257.2000000029802,173.0,58.0,40.0,True,RT_timeout ,264.37708544501754,[],"[683, 384]",ColorTask,12.0,26.0,,,HRV,HRV_0122,2022-11-30 18:14:54
,wl-rdm,34,158301,0.0-6.26-0.26,0.0,34.0,,,,,,,[],,,,,,62.5,0.0,u,0.0,True,1109.2000000178814,67.0,58.0,40.0,False,,262.70226518505706,[],"[683, 384]",ColorTask,13.0,27.0,,,HRV,HRV_0122,2022-11-30 18:14:54
,wl-rdm,35,161348,0.0-6.27-0.27,0.0,35.0,,,,,,,[],,,,,,87.9,0.0,u,0.0,True,1610.4000000059605,97.0,58.0,40.0,False,,367.0893949398478,[],"[683, 384]",ColorTask,14.0,28.0,,,HRV,HRV_0122,2022-11-30 18:14:54
,wl-rdm,36,163546,0.0-6.28-0.28,0.0,36.0,,,,,,,[],,,,,,87.9,0.0,u,0.0,True,905.2999999970198,55.0,58.0,40.0,False,,222.73070455448843,[],"[683, 384]",ColorTask,15.0,29.0,,,HRV,HRV_0122,2022-11-30 18:14:54
,wl-rdm,37,166041,0.0-6.29-0.29,0.0,37.0,,,,,,,[],,,,,,62.5,0.0,u,0.0,True,1216.8999999910593,73.0,58.0,40.0,False,,214.28713840381573,[],"[683, 384]",ColorTask,16.0,30.0,,,HRV,HRV_0122,2022-11-30 18:14:54
,wl-rdm,38,168192,0.0-6.30-0.30,0.0,38.0,,,,,,,[],,,,,,53.2,1.0,i,1.0,True,721.3999999910593,44.0,58.0,40.0,False,,346.2140386751654,[],"[683, 384]",ColorTask,17.0,31.0,,,HRV,HRV_0122,2022-11-30 18:14:54
,wl-rdm,39,170824,0.0-6.31-0.31,0.0,39.0,,,,,,,[],,,,,,56.4,1.0,u,0.0,False,1330.7999999821186,80.0,58.0,40.0,False,,229.97998680952827,[],"[683, 384]",ColorTask,16.0,32.0,,,HRV,HRV_0122,2022-11-30 18:14:54
,wl-rdm,40,173484,0.0-6.32-0.32,0.0,40.0,,,,,,,[],,,,,,50.0,0.0,u,0.0,True,1337.0,81.0,58.0,40.0,False,,235.66840979507128,[],"[683, 384]",ColorTask,17.0,33.0,,,HRV,HRV_0122,2022-11-30 18:14:54
,wl-rdm,41,175694,0.0-6.33-0.33,0.0,41.0,,,,,,,[],,,,,,87.9,0.0,u,0.0,True,805.3000000119209,50.0,58.0,40.0,False,,336.9515292430123,[],"[683, 384]",ColorTask,18.0,34.0,,,HRV,HRV_0122,2022-11-30 18:14:54
,wl-rdm,42,177687,0.0-6.34-0.34,0.0,42.0,,,,,,,[],,,,,,62.5,1.0,i,1.0,True,686.8000000119209,42.0,58.0,40.0,False,,226.23048084874955,[],"[683, 384]",ColorTask,19.0,35.0,,,HRV,HRV_0122,2022-11-30 18:14:54
,wl-rdm,43,179982,0.0-6.35-0.35,0.0,43.0,,,,,,,[],,,,,,50.0,1.0,i,1.0,True,1038.6000000089407,62.0,58.0,40.0,False,,202.30769314520327,[],"[683, 384]",ColorTask,20.0,36.0,,,HRV,HRV_0122,2022-11-30 18:14:54
,wl-rdm,44,182429,0.0-6.36-0.36,0.0,44.0,,,,,,,[],,,,,,53.2,1.0,i,1.0,True,1154.3999999910593,70.0,58.0,40.0,False,,249.39793845777228,[],"[683, 384]",ColorTask,21.0,37.0,,,HRV,HRV_0122,2022-11-30 18:14:54
,wl-rdm,45,184893,0.0-6.37-0.37,0.0,45.0,,,,,,,[],,,,,,56.4,0.0,u,0.0,True,1011.5999999940395,61.0,58.0,40.0,False,,386.24278419747185,[],"[683, 384]",ColorTask,22.0,38.0,,,HRV,HRV_0122,2022-11-30 18:14:54
,wl-rdm,46,187175,0.0-6.38-0.38,0.0,46.0,,,,,,,[],,,,,,73.6,0.0,u,0.0,True,948.7000000029802,57.0,58.0,40.0,False,,261.1561325442736,[],"[683, 384]",ColorTask,23.0,39.0,,,HRV,HRV_0122,2022-11-30 18:14:54
,wl-rdm,47,189655,0.0-6.39-0.39,0.0,47.0,,,,,,,[],,,,,,50.0,1.0,u,0.0,False,1053.1000000089407,64.0,58.0,40.0,False,,366.20947664858613,[],"[683, 384]",ColorTask,22.0,40.0,,,HRV,HRV_0122,2022-11-30 18:14:54
,wl-rdm,48,192402,0.0-6.40-0.40,0.0,48.0,,,,,,,[],,,,,,73.6,0.0,u,0.0,True,1453.0999999940395,88.0,58.0,40.0,False,,208.75623161741075,[],"[683, 384]",ColorTask,23.0,41.0,,,HRV,HRV_0122,2022-11-30 18:14:54
,wl-rdm,49,194567,0.0-6.41-0.41,0.0,49.0,,,,,,,[],,,,,,62.5,0.0,i,1.0,False,837.0,51.0,58.0,40.0,False,,233.46236921033076,[],"[683, 384]",ColorTask,22.0,42.0,,,HRV,HRV_0122,2022-11-30 18:14:54
,wl-rdm,50,196799,0.0-6.42-0.42,0.0,50.0,,,,,,,[],,,,,,73.6,1.0,i,1.0,True,872.2000000029802,53.0,58.0,40.0,False,,271.47504121793,[],"[683, 384]",ColorTask,23.0,43.0,,,HRV,HRV_0122,2022-11-30 18:14:54
,wl-rdm,51,198996,0.0-6.43-0.43,0.0,51.0,,,,,,,[],,,,,,73.6,0.0,u,0.0,True,888.3999999910593,54.0,58.0,40.0,False,,221.41273444855466,[],"[683, 384]",ColorTask,24.0,44.0,,,HRV,HRV_0122,2022-11-30 18:14:54
,wl-rdm,52,202009,0.0-6.44-0.44,0.0,52.0,,,,,,,[],,,,,,62.5,1.0,u,0.0,False,1587.2000000029802,96.0,58.0,40.0,False,,334.47478202061995,[],"[683, 384]",ColorTask,23.0,45.0,,,HRV,HRV_0122,2022-11-30 18:14:54
,wl-rdm,53,205239,0.0-6.45-0.45,0.0,53.0,,,,,,,[],,,,,,62.5,1.0,i,1.0,True,1768.699999988079,107.0,58.0,40.0,False,,380.6644852886426,[],"[683, 384]",ColorTask,24.0,46.0,,,HRV,HRV_0122,2022-11-30 18:14:54
,wl-rdm,54,207687,0.0-6.46-0.46,0.0,54.0,,,,,,,[],,,,,,50.0,0.0,u,0.0,True,1097.1000000089407,66.0,58.0,40.0,False,,271.17635608881835,[],"[683, 384]",ColorTask,25.0,47.0,,,HRV,HRV_0122,2022-11-30 18:14:54
,wl-rdm,55,210168,0.0-6.47-0.47,0.0,55.0,,,,,,,[],,,,,,73.6,1.0,i,1.0,True,1004.5999999940395,61.0,58.0,40.0,False,,396.2845216344439,[],"[683, 384]",ColorTask,26.0,48.0,,,HRV,HRV_0122,2022-11-30 18:14:54
,wl-rdm,56,212233,0.0-6.48-0.48,0.0,56.0,,,,,,,[],,,,,,73.6,0.0,u,0.0,True,715.8000000119209,43.0,58.0,40.0,False,,276.6954937146893,[],"[683, 384]",ColorTask,27.0,49.0,,,HRV,HRV_0122,2022-11-30 18:14:54
,wl-rdm,57,214364,0.0-6.49-0.49,0.0,57.0,,,,,,,[],,,,,,73.6,1.0,i,1.0,True,825.2999999970198,50.0,58.0,40.0,False,,224.1200021907235,[],"[683, 384]",ColorTask,28.0,50.0,,,HRV,HRV_0122,2022-11-30 18:14:54
,wl-rdm,58,216761,0.0-6.50-0.50,0.0,58.0,,,,,,,[],,,,,,62.5,1.0,i,1.0,True,927.2000000029802,56.0,58.0,40.0,False,,394.9549949514508,[],"[683, 384]",ColorTask,29.0,51.0,,,HRV,HRV_0122,2022-11-30 18:14:54
,wl-rdm,59,219025,0.0-6.51-0.51,0.0,59.0,,,,,,,[],,,,,,73.6,1.0,i,1.0,True,872.3999999910593,53.0,58.0,40.0,False,,311.5527968131704,[],"[683, 384]",ColorTask,30.0,52.0,,,HRV,HRV_0122,2022-11-30 18:14:54
,wl-rdm,60,221440,0.0-6.52-0.52,0.0,60.0,,,,,,,[],,,,,,53.2,0.0,u,0.0,True,1027.3999999910593,62.0,58.0,40.0,False,,301.57286142635076,[],"[683, 384]",ColorTask,31.0,53.0,,,HRV,HRV_0122,2022-11-30 18:14:54
,wl-rdm,61,224471,0.0-6.53-0.53,0.0,61.0,,,,,,,[],,,,,,53.2,0.0,u,0.0,True,1737.1000000089407,105.0,58.0,40.0,False,,208.97397211795302,[],"[683, 384]",ColorTask,32.0,54.0,,,HRV,HRV_0122,2022-11-30 18:14:54
,wl-rdm,62,227002,0.0-6.54-0.54,0.0,62.0,,,,,,,[],,,,,,62.5,0.0,u,0.0,True,1082.3999999910593,65.0,58.0,40.0,False,,373.2007441406745,[],"[683, 384]",ColorTask,33.0,55.0,,,HRV,HRV_0122,2022-11-30 18:14:54
,wl-rdm,63,229200,0.0-6.55-0.55,0.0,63.0,,,,,,,[],,,,,,87.9,0.0,u,0.0,True,902.7000000029802,55.0,58.0,40.0,False,,203.6206113828246,[],"[683, 384]",ColorTask,34.0,56.0,,,HRV,HRV_0122,2022-11-30 18:14:54
,wl-rdm,64,231430,0.0-6.56-0.56,0.0,64.0,,,,,,,[],,,,,,62.5,1.0,i,1.0,True,805.5,49.0,58.0,40.0,False,,347.1754067798769,[],"[683, 384]",ColorTask,35.0,57.0,,,HRV,HRV_0122,2022-11-30 18:14:54
,wl-rdm,65,234178,0.0-6.57-0.57,0.0,65.0,,,,,,,[],,,,,,50.0,1.0,u,0.0,False,1461.4000000208616,88.0,58.0,40.0,False,,207.14289077153524,[],"[683, 384]",ColorTask,34.0,58.0,,,HRV,HRV_0122,2022-11-30 18:14:54
,wl-rdm,66,236459,0.0-6.58-0.58,0.0,66.0,,,,,,,[],,,,,,87.9,1.0,i,1.0,True,839.0,51.0,58.0,40.0,False,,361.3575067852396,[],"[683, 384]",ColorTask,35.0,59.0,,,HRV,HRV_0122,2022-11-30 18:14:54
,wl-rdm,67,239389,0.0-6.59-0.59,0.0,67.0,,,,,,,[],,,,,,53.2,0.0,u,0.0,True,1504.300000011921,91.0,58.0,40.0,False,,341.68487011785885,[],"[683, 384]",ColorTask,36.0,60.0,,,HRV,HRV_0122,2022-11-30 18:14:54
,wl-rdm,68,241937,0.0-6.60-0.60,0.0,68.0,,,,,,,[],,,,,,56.4,1.0,i,1.0,True,1165.9000000059605,70.0,58.0,40.0,False,,312.4225666353646,[],"[683, 384]",ColorTask,37.0,61.0,,,HRV,HRV_0122,2022-11-30 18:14:54
,wl-rdm,69,244136,0.0-6.61-0.61,0.0,69.0,,,,,,,[],,,,,,87.9,0.0,u,0.0,True,853.7999999821186,52.0,58.0,40.0,False,,273.3034187595857,[],"[683, 384]",ColorTask,38.0,62.0,,,HRV,HRV_0122,2022-11-30 18:14:54
,wl-rdm,70,246916,0.0-6.62-0.62,0.0,70.0,,,,,,,[],,,,,,53.2,0.0,i,1.0,False,1422.7999999970198,86.0,58.0,40.0,False,,280.6433428875118,[],"[683, 384]",ColorTask,37.0,63.0,,,HRV,HRV_0122,2022-11-30 18:14:54
,wl-rdm,71,249130,0.0-6.63-0.63,0.0,71.0,,,,,,,[],,,,,,56.4,1.0,u,0.0,False,907.0000000149012,55.0,58.0,40.0,False,,226.80011504059382,[],"[683, 384]",ColorTask,36.0,64.0,,,HRV,HRV_0122,2022-11-30 18:14:54
,wl-rdm,72,251477,0.0-6.64-0.64,0.0,72.0,,,,,,,[],,,,,,87.9,1.0,i,1.0,True,905.2999999970198,55.0,58.0,40.0,False,,353.40365711610525,[],"[683, 384]",ColorTask,37.0,65.0,,,HRV,HRV_0122,2022-11-30 18:14:54
,wl-rdm,73,254591,0.0-6.65-0.65,0.0,73.0,,,,,,,[],,,,,,53.2,1.0,i,1.0,True,1785.2999999970198,108.0,58.0,40.0,False,,237.43746144836211,[],"[683, 384]",ColorTask,38.0,66.0,,,HRV,HRV_0122,2022-11-30 18:14:54
,wl-rdm,74,257257,0.0-6.66-0.66,0.0,74.0,,,,,,,[],,,,,,50.0,1.0,u,0.0,False,1310.5,79.0,58.0,40.0,False,,279.8255766828813,[],"[683, 384]",ColorTask,37.0,67.0,,,HRV,HRV_0122,2022-11-30 18:14:54
,wl-rdm,75,259654,0.0-6.67-0.67,0.0,75.0,,,,,,,[],,,,,,50.0,0.0,i,1.0,False,1103.7000000029802,67.0,58.0,40.0,False,,212.4180752881897,[],"[683, 384]",ColorTask,36.0,68.0,,,HRV,HRV_0122,2022-11-30 18:14:54
,wl-rdm,76,262085,0.0-6.68-0.68,0.0,76.0,,,,,,,[],,,,,,53.2,0.0,i,1.0,False,1031.1000000089407,62.0,58.0,40.0,False,,337.29662832863073,[],"[683, 384]",ColorTask,35.0,69.0,,,HRV,HRV_0122,2022-11-30 18:14:54
,wl-rdm,77,264417,0.0-6.69-0.69,0.0,77.0,,,,,,,[],,,,,,56.4,1.0,i,1.0,True,973.2000000029802,59.0,58.0,40.0,False,,273.37542656711787,[],"[683, 384]",ColorTask,36.0,70.0,,,HRV,HRV_0122,2022-11-30 18:14:54
,wl-rdm,78,267181,0.0-6.70-0.70,0.0,78.0,,,,,,,[],,,,,,50.0,1.0,i,1.0,True,1443.7999999970198,87.0,58.0,40.0,False,,238.05558458624188,[],"[683, 384]",ColorTask,37.0,71.0,,,HRV,HRV_0122,2022-11-30 18:14:54
,wl-rdm,79,269645,0.0-6.71-0.71,0.0,79.0,,,,,,,[],,,,,,50.0,1.0,u,0.0,False,1021.0999999940395,62.0,58.0,40.0,False,,363.6187722369316,[],"[683, 384]",ColorTask,36.0,72.0,,,HRV,HRV_0122,2022-11-30 18:14:54
,wl-rdm,80,272326,0.0-6.72-0.72,0.0,80.0,,,,,,,[],,,,,,62.5,1.0,i,1.0,True,1245.5999999791384,75.0,58.0,40.0,False,,359.04668919267647,[],"[683, 384]",ColorTask,37.0,73.0,,,HRV,HRV_0122,2022-11-30 18:14:54
,wl-rdm,81,274856,0.0-6.73-0.73,0.0,81.0,,,,,,,[],,,,,,62.5,1.0,i,1.0,True,1173.6000000089407,71.0,58.0,40.0,False,,273.42030063185,[],"[683, 384]",ColorTask,38.0,74.0,,,HRV,HRV_0122,2022-11-30 18:14:54
,wl-rdm,82,277170,0.0-6.74-0.74,0.0,82.0,,,,,,,[],,,,,,62.5,0.0,u,0.0,True,1013.5999999940395,61.0,58.0,40.0,False,,230.75531715711602,[],"[683, 384]",ColorTask,39.0,75.0,,,HRV,HRV_0122,2022-11-30 18:14:54
,wl-rdm,83,279668,0.0-6.75-0.75,0.0,83.0,,,,,,,[],,,,,,56.4,1.0,i,1.0,True,1203.300000011921,73.0,58.0,40.0,False,,207.40177980558363,[],"[683, 384]",ColorTask,40.0,76.0,,,HRV,HRV_0122,2022-11-30 18:14:54
,wl-rdm,84,281699,0.0-6.76-0.76,0.0,84.0,,,,,,,[],,,,,,87.9,1.0,i,1.0,True,746.0999999940395,45.0,58.0,40.0,False,,215.28947123937584,[],"[683, 384]",ColorTask,41.0,77.0,,,HRV,HRV_0122,2022-11-30 18:14:54
,wl-rdm,85,283998,0.0-6.77-0.77,0.0,85.0,,,,,,,[],,,,,,73.6,1.0,i,1.0,True,873.7000000029802,53.0,58.0,40.0,False,,346.7258972169289,[],"[683, 384]",ColorTask,42.0,78.0,,,HRV,HRV_0122,2022-11-30 18:14:54
,wl-rdm,86,286279,0.0-6.78-0.78,0.0,86.0,,,,,,,[],,,,,,50.0,1.0,i,1.0,True,959.9000000059605,58.0,58.0,40.0,False,,241.09827132224177,[],"[683, 384]",ColorTask,43.0,79.0,,,HRV,HRV_0122,2022-11-30 18:14:54
,wl-rdm,87,288277,0.0-6.79-0.79,0.0,87.0,,,,,,,[],,,,,,87.9,0.0,u,0.0,True,671.4000000059605,41.0,58.0,40.0,False,,242.15557822414152,[],"[683, 384]",ColorTask,44.0,80.0,,,HRV,HRV_0122,2022-11-30 18:14:54
,wl-rdm,88,290957,0.0-6.80-0.80,0.0,88.0,,,,,,,[],,,,,,50.0,0.0,i,1.0,False,1255.4000000059605,76.0,58.0,40.0,False,,347.4270904869467,[],"[683, 384]",ColorTask,43.0,81.0,,,HRV,HRV_0122,2022-11-30 18:14:54
,wl-rdm,89,293306,0.0-6.81-0.81,0.0,89.0,,,,,,,[],,,,,,87.9,0.0,u,0.0,True,920.6999999880791,56.0,58.0,40.0,False,,339.1007495149297,[],"[683, 384]",ColorTask,44.0,82.0,,,HRV,HRV_0122,2022-11-30 18:14:54
,wl-rdm,90,295854,0.0-6.82-0.82,0.0,90.0,,,,,,,[],,,,,,53.2,1.0,u,0.0,False,1128.2000000029802,68.0,58.0,40.0,False,,339.1123506770822,[],"[683, 384]",ColorTask,43.0,83.0,,,HRV,HRV_0122,2022-11-30 18:14:54
,wl-rdm,91,298616,0.0-6.83-0.83,0.0,91.0,,,,,,,[],,,,,,87.9,1.0,i,1.0,True,1438.5000000149012,87.0,58.0,40.0,False,,247.11338681018717,[],"[683, 384]",ColorTask,44.0,84.0,,,HRV,HRV_0122,2022-11-30 18:14:54
,wl-rdm,92,300864,0.0-6.84-0.84,0.0,92.0,,,,,,,[],,,,,,73.6,0.0,u,0.0,True,896.9000000059605,54.0,58.0,40.0,False,,272.44326942321067,[],"[683, 384]",ColorTask,45.0,85.0,,,HRV,HRV_0122,2022-11-30 18:14:54
,wl-rdm,93,303263,0.0-6.85-0.85,0.0,93.0,,,,,,,[],,,,,,56.4,0.0,i,1.0,False,1103.8999999910593,67.0,58.0,40.0,False,,213.3418631898736,[],"[683, 384]",ColorTask,44.0,86.0,,,HRV,HRV_0122,2022-11-30 18:14:54
,wl-rdm,94,305592,0.0-6.86-0.86,0.0,94.0,,,,,,,[],,,,,,73.6,0.0,u,0.0,True,1024.0999999940395,62.0,58.0,40.0,False,,243.63248292442552,[],"[683, 384]",ColorTask,45.0,87.0,,,HRV,HRV_0122,2022-11-30 18:14:54
,wl-rdm,95,308274,0.0-6.87-0.87,0.0,95.0,,,,,,,[],,,,,,56.4,1.0,i,1.0,True,1253.699999988079,76.0,58.0,40.0,False,,360.9610676987668,[],"[683, 384]",ColorTask,46.0,88.0,,,HRV,HRV_0122,2022-11-30 18:14:54
,wl-rdm,96,310772,0.0-6.88-0.88,0.0,96.0,,,,,,,[],,,,,,53.2,0.0,i,1.0,False,1071.0999999940395,65.0,58.0,40.0,False,,335.20940534392906,[],"[683, 384]",ColorTask,45.0,89.0,,,HRV,HRV_0122,2022-11-30 18:14:54
,wl-rdm,97,313119,0.0-6.89-0.89,0.0,97.0,,,,,,,[],,,,,,62.5,0.0,u,0.0,True,1022.0,62.0,58.0,40.0,False,,256.22750690186166,[],"[683, 384]",ColorTask,46.0,90.0,,,HRV,HRV_0122,2022-11-30 18:14:54
,wl-rdm,98,315416,0.0-6.90-0.90,0.0,98.0,,,,,,,[],,,,,,87.9,1.0,i,1.0,True,852.9000000059605,52.0,58.0,40.0,False,,362.9947111841484,[],"[683, 384]",ColorTask,47.0,91.0,,,HRV,HRV_0122,2022-11-30 18:14:54
,wl-rdm,99,317780,0.0-6.91-0.91,0.0,99.0,,,,,,,[],,,,,,87.9,1.0,i,1.0,True,1064.4000000208616,64.0,58.0,40.0,False,,231.8073480185259,[],"[683, 384]",ColorTask,48.0,92.0,,,HRV,HRV_0122,2022-11-30 18:14:54
,wl-rdm,100,320928,0.0-6.92-0.92,0.0,100.0,,,,,,,[],,,,,,53.2,1.0,u,0.0,False,1804.2000000029802,109.0,58.0,40.0,False,,255.0553759713706,[],"[683, 384]",ColorTask,47.0,93.0,,,HRV,HRV_0122,2022-11-30 18:14:54
,wl-rdm,101,323109,0.0-6.93-0.93,0.0,101.0,,,,,,,[],,,,,,73.6,1.0,i,1.0,True,754.4000000059605,46.0,58.0,40.0,False,,350.04210763470803,[],"[683, 384]",ColorTask,48.0,94.0,,,HRV,HRV_0122,2022-11-30 18:14:54
,wl-rdm,102,325457,0.0-6.94-0.94,0.0,102.0,,,,,,,[],,,,,,62.5,0.0,u,0.0,True,1011.7999999970198,61.0,58.0,40.0,False,,263.36942502156444,[],"[683, 384]",ColorTask,49.0,95.0,,,HRV,HRV_0122,2022-11-30 18:14:54
,wl-rdm,103,327722,0.0-6.95-0.95,0.0,103.0,,,,,,,[],,,,,,87.9,1.0,i,1.0,True,996.2999999821186,60.0,58.0,40.0,False,,215.52633133133153,[],"[683, 384]",ColorTask,50.0,96.0,,,HRV,HRV_0122,2022-11-30 18:14:54
,wl-rdm,104,330202,0.0-6.96-0.96,0.0,104.0,,,,,,,[],,,,,,56.4,0.0,i,1.0,False,1020.2000000029802,62.0,58.0,40.0,False,,382.78132863757236,[],"[683, 384]",ColorTask,49.0,97.0,,,HRV,HRV_0122,2022-11-30 18:14:54
,wl-rdm,105,332316,0.0-6.97-0.97,0.0,105.0,,,,,,,[],,,,,,56.4,1.0,u,0.0,False,775.9000000059605,47.0,58.0,40.0,False,,255.82344148897408,[],"[683, 384]",ColorTask,48.0,98.0,,,HRV,HRV_0122,2022-11-30 18:14:54
,wl-rdm,106,334414,0.0-6.98-0.98,0.0,106.0,,,,,,,[],,,,,,53.2,1.0,u,0.0,False,654.0999999940395,40.0,58.0,40.0,False,,362.3790056582596,[],"[683, 384]",ColorTask,47.0,99.0,,,HRV,HRV_0122,2022-11-30 18:14:54
,wl-rdm,107,337212,0.0-6.99-0.99,0.0,107.0,,,,,,,[],,,,,,56.4,0.0,i,1.0,False,1453.0000000149012,88.0,58.0,40.0,False,,259.4898165006037,[],"[683, 384]",ColorTask,46.0,100.0,,,HRV,HRV_0122,2022-11-30 18:14:54
,wl-rdm,108,339809,0.0-6.100-0.100,0.0,108.0,,,,,,,[],,,,,,73.6,0.0,u,0.0,True,1324.0,80.0,58.0,40.0,False,,213.55944650635396,[],"[683, 384]",ColorTask,47.0,101.0,,,HRV,HRV_0122,2022-11-30 18:14:54
,wl-rdm,109,342357,0.0-6.101-0.101,0.0,109.0,,,,,,,[],,,,,,62.5,1.0,i,1.0,True,1230.5,74.0,58.0,40.0,False,,238.7582160147331,[],"[683, 384]",ColorTask,48.0,102.0,,,HRV,HRV_0122,2022-11-30 18:14:54
,wl-rdm,110,344587,0.0-6.102-0.102,0.0,110.0,,,,,,,[],,,,,,56.4,0.0,u,0.0,True,945.7999999821186,57.0,58.0,40.0,False,,200.1517179141502,[],"[683, 384]",ColorTask,49.0,103.0,,,HRV,HRV_0122,2022-11-30 18:14:54
,wl-rdm,111,346985,0.0-6.103-0.103,0.0,111.0,,,,,,,[],,,,,,50.0,0.0,u,0.0,True,1115.2000000029802,67.0,58.0,40.0,False,,208.7229044092216,[],"[683, 384]",ColorTask,50.0,104.0,,,HRV,HRV_0122,2022-11-30 18:14:54
,wl-rdm,112,349316,0.0-6.104-0.104,0.0,112.0,,,,,,,[],,,,,,56.4,1.0,i,1.0,True,924.5,56.0,58.0,40.0,False,,329.1873151727939,[],"[683, 384]",ColorTask,51.0,105.0,,,HRV,HRV_0122,2022-11-30 18:14:54
,wl-rdm,113,351830,0.0-6.105-0.105,0.0,113.0,,,,,,,[],,,,,,56.4,0.0,u,0.0,True,1081.300000011921,65.0,58.0,40.0,False,,362.83497100206773,[],"[683, 384]",ColorTask,52.0,106.0,,,HRV,HRV_0122,2022-11-30 18:14:54
,wl-rdm,114,354461,0.0-6.106-0.106,0.0,114.0,,,,,,,[],,,,,,56.4,0.0,u,0.0,True,1320.1000000089407,80.0,58.0,40.0,False,,231.28328258324393,[],"[683, 384]",ColorTask,53.0,107.0,,,HRV,HRV_0122,2022-11-30 18:14:54
,wl-rdm,115,356776,0.0-6.107-0.107,0.0,115.0,,,,,,,[],,,,,,53.2,1.0,i,1.0,True,840.4000000059605,51.0,58.0,40.0,False,,398.0054301776197,[],"[683, 384]",ColorTask,54.0,108.0,,,HRV,HRV_0122,2022-11-30 18:14:54
,wl-rdm,116,359007,0.0-6.108-0.108,0.0,116.0,,,,,,,[],,,,,,87.9,1.0,i,1.0,True,856.8999999910593,52.0,58.0,40.0,False,,287.54943118437023,[],"[683, 384]",ColorTask,55.0,109.0,,,HRV,HRV_0122,2022-11-30 18:14:54
,wl-html-keyboard-response,117,378298,0.0-7.0-0.0,1.0,117.0,,,,,,,,17281.09999999404,1.0,0,,,,,,,,,,,,,,,,,,,,,,HRV,HRV_0122,2022-11-30 18:14:54
,wl-rdm,118,380471,0.0-8.0-0.0,1.0,118.0,,,,,,,[],,,,,,50.0,0.0,i,1.0,False,854.0000000149012,52.0,58.0,40.0,False,,264.45368239673655,[],"[683, 384]",ColorTask,54.0,1.0,,,HRV,HRV_0122,2022-11-30 18:14:54
,wl-rdm,119,382685,0.0-8.1-0.1,1.0,119.0,,,,,,,[],,,,,,62.5,1.0,i,1.0,True,820.7999999970198,50.0,58.0,40.0,False,,308.418000403742,[],"[683, 384]",ColorTask,55.0,2.0,,,HRV,HRV_0122,2022-11-30 18:14:54
,wl-rdm,120,384898,0.0-8.2-0.2,1.0,120.0,,,,,,,[],,,,,,56.4,1.0,i,1.0,True,850.7999999970198,51.0,58.0,40.0,False,,297.11293284179413,[],"[683, 384]",ColorTask,56.0,3.0,,,HRV,HRV_0122,2022-11-30 18:14:54
,wl-rdm,121,387297,0.0-8.3-0.3,1.0,121.0,,,,,,,[],,,,,,56.4,0.0,i,1.0,False,1081.8999999910593,65.0,58.0,40.0,False,,234.1772721600334,[],"[683, 384]",ColorTask,55.0,4.0,,,HRV,HRV_0122,2022-11-30 18:14:54
,wl-rdm,122,389578,0.0-8.4-0.4,1.0,122.0,,,,,,,[],,,,,,87.9,1.0,i,1.0,True,987.2999999970198,60.0,58.0,40.0,False,,209.96032049361708,[],"[683, 384]",ColorTask,56.0,5.0,,,HRV,HRV_0122,2022-11-30 18:14:54
,wl-rdm,123,391875,0.0-8.5-0.5,1.0,123.0,,,,,,,[],,,,,,73.6,0.0,u,0.0,True,880.6000000089407,53.0,58.0,40.0,False,,341.6608298547568,[],"[683, 384]",ColorTask,57.0,6.0,,,HRV,HRV_0122,2022-11-30 18:14:54
,wl-rdm,124,394240,0.0-8.6-0.6,1.0,124.0,,,,,,,[],,,,,,62.5,1.0,i,1.0,True,954.5,58.0,58.0,40.0,False,,319.2604662382621,[],"[683, 384]",ColorTask,58.0,7.0,,,HRV,HRV_0122,2022-11-30 18:14:54
,wl-rdm,125,396837,0.0-8.7-0.7,1.0,125.0,,,,,,,[],,,,,,56.4,0.0,u,0.0,True,1146.1000000089407,69.0,58.0,40.0,False,,378.5750894331404,[],"[683, 384]",ColorTask,59.0,8.0,,,HRV,HRV_0122,2022-11-30 18:14:54
,wl-rdm,126,399269,0.0-8.8-0.8,1.0,126.0,,,,,,,[],,,,,,53.2,1.0,i,1.0,True,1037.2999999970198,63.0,58.0,40.0,False,,329.18337395854564,[],"[683, 384]",ColorTask,60.0,9.0,,,HRV,HRV_0122,2022-11-30 18:14:54
,wl-rdm,127,401632,0.0-8.9-0.9,1.0,127.0,,,,,,,[],,,,,,56.4,0.0,u,0.0,True,1079.0000000149012,65.0,58.0,40.0,False,,232.57578640813705,[],"[683, 384]",ColorTask,61.0,10.0,,,HRV,HRV_0122,2022-11-30 18:14:54
,wl-rdm,128,404181,0.0-8.10-0.10,1.0,128.0,,,,,,,[],,,,,,87.9,0.0,u,0.0,True,1131.5,68.0,58.0,40.0,False,,362.56918243894324,[],"[683, 384]",ColorTask,62.0,11.0,,,HRV,HRV_0122,2022-11-30 18:14:54
,wl-rdm,129,406428,0.0-8.11-0.11,1.0,129.0,,,,,,,[],,,,,,50.0,1.0,i,1.0,True,955.1000000089407,58.0,58.0,40.0,False,,205.99111733435993,[],"[683, 384]",ColorTask,63.0,12.0,,,HRV,HRV_0122,2022-11-30 18:14:54
,wl-rdm,130,408842,0.0-8.12-0.12,1.0,130.0,,,,,,,[],,,,,,73.6,0.0,u,0.0,True,987.1999999880791,60.0,58.0,40.0,False,,362.5819737863967,[],"[683, 384]",ColorTask,64.0,13.0,,,HRV,HRV_0122,2022-11-30 18:14:54
,wl-rdm,131,411308,0.0-8.13-0.13,1.0,131.0,,,,,,,[],,,,,,50.0,0.0,i,1.0,False,987.0999999940395,60.0,58.0,40.0,False,,385.4781893213665,[],"[683, 384]",ColorTask,63.0,14.0,,,HRV,HRV_0122,2022-11-30 18:14:54
,wl-rdm,132,413504,0.0-8.14-0.14,1.0,132.0,,,,,,,[],,,,,,87.9,1.0,i,1.0,True,852.6000000089407,52.0,58.0,40.0,False,,252.81115757682554,[],"[683, 384]",ColorTask,64.0,15.0,,,HRV,HRV_0122,2022-11-30 18:14:54
,wl-rdm,133,416102,0.0-8.15-0.15,1.0,133.0,,,,,,,[],,,,,,87.9,0.0,u,0.0,True,1260.7000000029802,76.0,58.0,40.0,False,,263.31842166405175,[],"[683, 384]",ColorTask,65.0,16.0,,,HRV,HRV_0122,2022-11-30 18:14:54
,wl-rdm,134,418433,0.0-8.16-0.16,1.0,134.0,,,,,,,[],,,,,,62.5,1.0,i,1.0,True,1041.6000000089407,63.0,58.0,40.0,False,,212.49593116000017,[],"[683, 384]",ColorTask,66.0,17.0,,,HRV,HRV_0122,2022-11-30 18:14:54
,wl-rdm,135,420731,0.0-8.17-0.17,1.0,135.0,,,,,,,[],,,,,,87.9,1.0,i,1.0,True,856.1000000089407,52.0,58.0,40.0,False,,363.6699596493229,[],"[683, 384]",ColorTask,67.0,18.0,,,HRV,HRV_0122,2022-11-30 18:14:54
,wl-rdm,136,423062,0.0-8.18-0.18,1.0,136.0,,,,,,,[],,,,,,87.9,0.0,u,0.0,True,939.2000000029802,57.0,58.0,40.0,False,,326.9516924557756,[],"[683, 384]",ColorTask,68.0,19.0,,,HRV,HRV_0122,2022-11-30 18:14:54
,wl-rdm,137,426009,0.0-8.19-0.19,1.0,137.0,,,,,,,[],,,,,,53.2,0.0,u,0.0,True,1492.3999999910593,90.0,58.0,40.0,False,,381.0847520327792,[],"[683, 384]",ColorTask,69.0,20.0,,,HRV,HRV_0122,2022-11-30 18:14:54
,wl-rdm,138,428956,0.0-8.20-0.20,1.0,138.0,,,,,,,[],,,,,,50.0,1.0,i,1.0,True,1536.199999988079,93.0,58.0,40.0,False,,319.51950054810015,[],"[683, 384]",ColorTask,70.0,21.0,,,HRV,HRV_0122,2022-11-30 18:14:54
,wl-rdm,139,431870,0.0-8.21-0.21,1.0,139.0,,,,,,,[],,,,,,56.4,0.0,u,0.0,True,1526.0999999940395,92.0,58.0,40.0,False,,309.693202385406,[],"[683, 384]",ColorTask,71.0,22.0,,,HRV,HRV_0122,2022-11-30 18:14:54
,wl-rdm,140,434518,0.0-8.22-0.22,1.0,140.0,,,,,,,[],,,,,,53.2,0.0,u,0.0,True,1310.4000000059605,79.0,58.0,40.0,False,,268.18960006513953,[],"[683, 384]",ColorTask,72.0,23.0,,,HRV,HRV_0122,2022-11-30 18:14:54
,wl-rdm,141,436949,0.0-8.23-0.23,1.0,141.0,,,,,,,[],,,,,,73.6,0.0,u,0.0,True,1044.9000000059605,63.0,58.0,40.0,False,,321.91356984868656,[],"[683, 384]",ColorTask,73.0,24.0,,,HRV,HRV_0122,2022-11-30 18:14:54
,wl-rdm,142,439464,0.0-8.24-0.24,1.0,142.0,,,,,,,[],,,,,,62.5,0.0,u,0.0,True,1136.2999999970198,69.0,58.0,40.0,False,,283.79146458487713,[],"[683, 384]",ColorTask,74.0,25.0,,,HRV,HRV_0122,2022-11-30 18:14:54
,wl-rdm,143,442244,0.0-8.25-0.25,1.0,143.0,,,,,,,[],,,,,,50.0,1.0,u,0.0,False,1356.2999999970198,82.0,58.0,40.0,False,,345.0860292645862,[],"[683, 384]",ColorTask,73.0,26.0,,,HRV,HRV_0122,2022-11-30 18:14:54
,wl-rdm,144,444758,0.0-8.26-0.26,1.0,144.0,,,,,,,[],,,,,,56.4,0.0,u,0.0,True,1053.3999999910593,64.0,58.0,40.0,False,,374.4041594642471,[],"[683, 384]",ColorTask,74.0,27.0,,,HRV,HRV_0122,2022-11-30 18:14:54
,wl-rdm,145,446872,0.0-8.27-0.27,1.0,145.0,,,,,,,[],,,,,,50.0,0.0,i,1.0,False,778.9000000059605,47.0,58.0,40.0,False,,254.98326530261608,[],"[683, 384]",ColorTask,73.0,28.0,,,HRV,HRV_0122,2022-11-30 18:14:54
,wl-rdm,146,449470,0.0-8.28-0.28,1.0,146.0,,,,,,,[],,,,,,56.4,0.0,i,1.0,False,1287.1000000089407,78.0,58.0,40.0,False,,218.91863348624574,[],"[683, 384]",ColorTask,72.0,29.0,,,HRV,HRV_0122,2022-11-30 18:14:54
,wl-rdm,147,451502,0.0-8.29-0.29,1.0,147.0,,,,,,,[],,,,,,87.9,1.0,i,1.0,True,738.0999999940395,45.0,58.0,40.0,False,,209.91894834876157,[],"[683, 384]",ColorTask,73.0,30.0,,,HRV,HRV_0122,2022-11-30 18:14:54
,wl-rdm,148,453749,0.0-8.30-0.30,1.0,148.0,,,,,,,[],,,,,,87.9,0.0,u,0.0,True,902.6000000089407,55.0,58.0,40.0,False,,253.64933426170512,[],"[683, 384]",ColorTask,74.0,31.0,,,HRV,HRV_0122,2022-11-30 18:14:54
,wl-rdm,149,456014,0.0-8.31-0.31,1.0,149.0,,,,,,,[],,,,,,73.6,0.0,u,0.0,True,869.1000000089407,53.0,58.0,40.0,False,,301.8399207676713,[],"[683, 384]",ColorTask,75.0,32.0,,,HRV,HRV_0122,2022-11-30 18:14:54
,wl-rdm,150,458713,0.0-8.32-0.32,1.0,150.0,,,,,,,[],,,,,,56.4,1.0,i,1.0,True,1337.3999999910593,81.0,58.0,40.0,False,,291.9755892697699,[],"[683, 384]",ColorTask,76.0,33.0,,,HRV,HRV_0122,2022-11-30 18:14:54
,wl-rdm,151,460927,0.0-8.33-0.33,1.0,151.0,,,,,,,[],,,,,,56.4,1.0,i,1.0,True,907.8000000119209,55.0,58.0,40.0,False,,233.85534152990346,[],"[683, 384]",ColorTask,77.0,34.0,,,HRV,HRV_0122,2022-11-30 18:14:54
,wl-rdm,152,463523,0.0-8.34-0.34,1.0,152.0,,,,,,,[],,,,,,50.0,1.0,u,0.0,False,1196.1000000089407,72.0,58.0,40.0,False,,329.0879762624115,[],"[683, 384]",ColorTask,76.0,35.0,,,HRV,HRV_0122,2022-11-30 18:14:54
,wl-rdm,153,465804,0.0-8.35-0.35,1.0,153.0,,,,,,,[],,,,,,62.5,1.0,i,1.0,True,908.7000000029802,55.0,58.0,40.0,False,,293.2911315698832,[],"[683, 384]",ColorTask,77.0,36.0,,,HRV,HRV_0122,2022-11-30 18:14:54
,wl-rdm,154,467853,0.0-8.36-0.36,1.0,154.0,,,,,,,[],,,,,,73.6,0.0,u,0.0,True,744.9000000059605,45.0,58.0,40.0,False,,225.53695029301974,[],"[683, 384]",ColorTask,78.0,37.0,,,HRV,HRV_0122,2022-11-30 18:14:54
,wl-rdm,155,470601,0.0-8.37-0.37,1.0,155.0,,,,,,,[],,,,,,56.4,1.0,u,0.0,False,1337.1000000089407,81.0,58.0,40.0,False,,325.9034523291052,[],"[683, 384]",ColorTask,77.0,38.0,,,HRV,HRV_0122,2022-11-30 18:14:54
,wl-rdm,156,472980,0.0-8.38-0.38,1.0,156.0,,,,,,,[],,,,,,50.0,1.0,i,1.0,True,978.9000000059605,59.0,58.0,40.0,False,,329.6318425702882,[],"[683, 384]",ColorTask,78.0,39.0,,,HRV,HRV_0122,2022-11-30 18:14:54
,wl-rdm,157,475262,0.0-8.39-0.39,1.0,157.0,,,,,,,[],,,,,,87.9,1.0,i,1.0,True,913.5999999940395,55.0,58.0,40.0,False,,293.8130010299834,[],"[683, 384]",ColorTask,79.0,40.0,,,HRV,HRV_0122,2022-11-30 18:14:54
,wl-rdm,158,477359,0.0-8.40-0.40,1.0,158.0,,,,,,,[],,,,,,73.6,1.0,i,1.0,True,829.5999999940395,50.0,58.0,40.0,False,,215.704608839317,[],"[683, 384]",ColorTask,80.0,41.0,,,HRV,HRV_0122,2022-11-30 18:14:54
,wl-rdm,159,479674,0.0-8.41-0.41,1.0,159.0,,,,,,,[],,,,,,50.0,0.0,i,1.0,False,864.7999999970198,52.0,58.0,40.0,False,,368.2234358550239,[],"[683, 384]",ColorTask,79.0,42.0,,,HRV,HRV_0122,2022-11-30 18:14:54
,wl-rdm,160,481972,0.0-8.42-0.42,1.0,160.0,,,,,,,[],,,,,,53.2,0.0,u,0.0,True,1020.8999999910593,62.0,58.0,40.0,False,,201.87806371948923,[],"[683, 384]",ColorTask,80.0,43.0,,,HRV,HRV_0122,2022-11-30 18:14:54
,wl-rdm,161,484320,0.0-8.43-0.43,1.0,161.0,,,,,,,[],,,,,,73.6,1.0,i,1.0,True,1054.0,64.0,58.0,40.0,False,,225.64618745503458,[],"[683, 384]",ColorTask,81.0,44.0,,,HRV,HRV_0122,2022-11-30 18:14:54
,wl-rdm,162,487018,0.0-8.44-0.44,1.0,162.0,,,,,,,[],,,,,,53.2,1.0,i,1.0,True,1427.6000000089407,86.0,58.0,40.0,False,,202.8898763930454,[],"[683, 384]",ColorTask,82.0,45.0,,,HRV,HRV_0122,2022-11-30 18:14:54
,wl-rdm,163,489648,0.0-8.45-0.45,1.0,163.0,,,,,,,[],,,,,,56.4,0.0,i,1.0,False,1319.699999988079,80.0,58.0,40.0,False,,222.24121984372906,[],"[683, 384]",ColorTask,81.0,46.0,,,HRV,HRV_0122,2022-11-30 18:14:54
,wl-rdm,164,492579,0.0-8.46-0.46,1.0,164.0,,,,,,,[],,,,,,53.2,1.0,u,0.0,False,1604.7999999970198,97.0,58.0,40.0,False,,245.53559204548105,[],"[683, 384]",ColorTask,80.0,47.0,,,HRV,HRV_0122,2022-11-30 18:14:54
,wl-rdm,165,494842,0.0-8.47-0.47,1.0,165.0,,,,,,,[],,,,,,87.9,1.0,i,1.0,True,854.9000000059605,52.0,58.0,40.0,False,,327.3588608868468,[],"[683, 384]",ColorTask,81.0,48.0,,,HRV,HRV_0122,2022-11-30 18:14:54
,wl-rdm,166,497024,0.0-8.48-0.48,1.0,166.0,,,,,,,[],,,,,,53.2,1.0,i,1.0,True,825.2999999970198,50.0,58.0,40.0,False,,280.7075164959146,[],"[683, 384]",ColorTask,82.0,49.0,,,HRV,HRV_0122,2022-11-30 18:14:54
,wl-rdm,167,499288,0.0-8.49-0.49,1.0,167.0,,,,,,,[],,,,,,53.2,0.0,i,1.0,False,887.6999999880791,54.0,58.0,40.0,False,,289.6690083230372,[],"[683, 384]",ColorTask,81.0,50.0,,,HRV,HRV_0122,2022-11-30 18:14:54
,wl-rdm,168,501919,0.0-8.50-0.50,1.0,168.0,,,,,,,[],,,,,,53.2,1.0,i,1.0,True,1338.7000000029802,81.0,58.0,40.0,False,,204.6617740840224,[],"[683, 384]",ColorTask,82.0,51.0,,,HRV,HRV_0122,2022-11-30 18:14:54
,wl-rdm,169,504667,0.0-8.51-0.51,1.0,169.0,,,,,,,[],,,,,,50.0,0.0,u,0.0,True,1472.300000011921,89.0,58.0,40.0,False,,210.99386435081516,[],"[683, 384]",ColorTask,83.0,52.0,,,HRV,HRV_0122,2022-11-30 18:14:54
,wl-rdm,170,507264,0.0-8.52-0.52,1.0,170.0,,,,,,,[],,,,,,56.4,0.0,u,0.0,True,1264.1000000089407,76.0,58.0,40.0,False,,257.9638616680149,[],"[683, 384]",ColorTask,84.0,53.0,,,HRV,HRV_0122,2022-11-30 18:14:54
,wl-rdm,171,509745,0.0-8.53-0.53,1.0,171.0,,,,,,,[],,,,,,62.5,0.0,u,0.0,True,1153.2999999970198,70.0,58.0,40.0,False,,235.74836163440068,[],"[683, 384]",ColorTask,85.0,54.0,,,HRV,HRV_0122,2022-11-30 18:14:54
,wl-rdm,172,511743,0.0-8.54-0.54,1.0,172.0,,,,,,,[],,,,,,50.0,0.0,i,1.0,False,687.4000000059605,42.0,58.0,40.0,False,,224.62323784556946,[],"[683, 384]",ColorTask,84.0,55.0,,,HRV,HRV_0122,2022-11-30 18:14:54
,wl-rdm,173,514607,0.0-8.55-0.55,1.0,173.0,,,,,,,[],,,,,,73.6,0.0,u,0.0,True,1553.0,94.0,58.0,40.0,False,,221.78418545105873,[],"[683, 384]",ColorTask,85.0,56.0,,,HRV,HRV_0122,2022-11-30 18:14:54
,wl-rdm,174,516905,0.0-8.56-0.56,1.0,174.0,,,,,,,[],,,,,,56.4,1.0,i,1.0,True,986.5,60.0,58.0,40.0,False,,230.75951189183183,[],"[683, 384]",ColorTask,86.0,57.0,,,HRV,HRV_0122,2022-11-30 18:14:54
,wl-rdm,175,519836,0.0-8.57-0.57,1.0,175.0,,,,,,,[],,,,,,56.4,0.0,u,0.0,True,1451.7999999970198,88.0,58.0,40.0,False,,390.7581009750587,[],"[683, 384]",ColorTask,87.0,58.0,,,HRV,HRV_0122,2022-11-30 18:14:54
,wl-rdm,176,522183,0.0-8.58-0.58,1.0,176.0,,,,,,,[],,,,,,50.0,1.0,u,0.0,False,941.4000000059605,57.0,58.0,40.0,False,,321.7566130196915,[],"[683, 384]",ColorTask,86.0,59.0,,,HRV,HRV_0122,2022-11-30 18:14:54
,wl-rdm,177,524581,0.0-8.59-0.59,1.0,177.0,,,,,,,[],,,,,,53.2,0.0,i,1.0,False,982.5999999940395,59.0,58.0,40.0,False,,335.16039849625963,[],"[683, 384]",ColorTask,85.0,60.0,,,HRV,HRV_0122,2022-11-30 18:14:54
,wl-rdm,178,527046,0.0-8.60-0.60,1.0,178.0,,,,,,,[],,,,,,53.2,0.0,i,1.0,False,1024.7000000029802,62.0,58.0,40.0,False,,360.8337118299419,[],"[683, 384]",ColorTask,84.0,61.0,,,HRV,HRV_0122,2022-11-30 18:14:54
,wl-rdm,179,529343,0.0-8.61-0.61,1.0,179.0,,,,,,,[],,,,,,87.9,0.0,u,0.0,True,874.6999999880791,53.0,58.0,40.0,False,,342.84565204640165,[],"[683, 384]",ColorTask,85.0,62.0,,,HRV,HRV_0122,2022-11-30 18:14:54
,wl-rdm,180,531774,0.0-8.62-0.62,1.0,180.0,,,,,,,[],,,,,,50.0,0.0,i,1.0,False,1070.800000011921,65.0,58.0,40.0,False,,280.6156792647615,[],"[683, 384]",ColorTask,84.0,63.0,,,HRV,HRV_0122,2022-11-30 18:14:54
,wl-rdm,181,534156,0.0-8.63-0.63,1.0,181.0,,,,,,,[],,,,,,73.6,0.0,u,0.0,True,1037.0999999940395,63.0,58.0,40.0,False,,266.6957998683439,[],"[683, 384]",ColorTask,85.0,64.0,,,HRV,HRV_0122,2022-11-30 18:14:54
,wl-rdm,182,536469,0.0-8.64-0.64,1.0,182.0,,,,,,,[],,,,,,56.4,1.0,i,1.0,True,999.2999999970198,60.0,58.0,40.0,False,,238.91307147007416,[],"[683, 384]",ColorTask,86.0,65.0,,,HRV,HRV_0122,2022-11-30 18:14:54
,wl-rdm,183,538750,0.0-8.65-0.65,1.0,183.0,,,,,,,[],,,,,,62.5,0.0,u,0.0,True,955.0999999940395,58.0,58.0,40.0,False,,234.86593345946608,[],"[683, 384]",ColorTask,87.0,66.0,,,HRV,HRV_0122,2022-11-30 18:14:54
,wl-rdm,184,541414,0.0-8.66-0.66,1.0,184.0,,,,,,,[],,,,,,53.2,0.0,u,0.0,True,1308.2000000029802,79.0,58.0,40.0,False,,289.47512535637134,[],"[683, 384]",ColorTask,88.0,67.0,,,HRV,HRV_0122,2022-11-30 18:14:54
,wl-rdm,185,543878,0.0-8.67-0.67,1.0,185.0,,,,,,,[],,,,,,50.0,0.0,u,0.0,True,1039.800000011921,63.0,58.0,40.0,False,,346.9647121072235,[],"[683, 384]",ColorTask,89.0,68.0,,,HRV,HRV_0122,2022-11-30 18:14:54
,wl-rdm,186,546693,0.0-8.68-0.68,1.0,186.0,,,,,,,[],,,,,,73.6,0.0,u,0.0,True,1493.3999999910593,90.0,58.0,40.0,False,,256.3611543247754,[],"[683, 384]",ColorTask,90.0,69.0,,,HRV,HRV_0122,2022-11-30 18:14:54
,wl-rdm,187,549174,0.0-8.69-0.69,1.0,187.0,,,,,,,[],,,,,,62.5,0.0,u,0.0,True,1062.0,64.0,58.0,40.0,False,,335.9629554999251,[],"[683, 384]",ColorTask,91.0,70.0,,,HRV,HRV_0122,2022-11-30 18:14:54
,wl-rdm,188,551688,0.0-8.70-0.70,1.0,188.0,,,,,,,[],,,,,,62.5,0.0,u,0.0,True,1047.0000000149012,63.0,58.0,40.0,False,,388.7555499888523,[],"[683, 384]",ColorTask,92.0,71.0,,,HRV,HRV_0122,2022-11-30 18:14:54
,wl-rdm,189,553819,0.0-8.71-0.71,1.0,189.0,,,,,,,[],,,,,,62.5,0.0,u,0.0,True,845.8999999910593,51.0,58.0,40.0,False,,202.64518938262387,[],"[683, 384]",ColorTask,93.0,72.0,,,HRV,HRV_0122,2022-11-30 18:14:54
,wl-rdm,190,556100,0.0-8.72-0.72,1.0,190.0,,,,,,,[],,,,,,73.6,1.0,i,1.0,True,927.0999999940395,56.0,58.0,40.0,False,,285.88477931173384,[],"[683, 384]",ColorTask,94.0,73.0,,,HRV,HRV_0122,2022-11-30 18:14:54
,wl-rdm,191,558464,0.0-8.73-0.73,1.0,191.0,,,,,,,[],,,,,,87.9,0.0,u,0.0,True,962.2999999970198,58.0,58.0,40.0,False,,330.2646130927726,[],"[683, 384]",ColorTask,95.0,74.0,,,HRV,HRV_0122,2022-11-30 18:14:54
,wl-rdm,192,561029,0.0-8.74-0.74,1.0,192.0,,,,,,,[],,,,,,62.5,1.0,i,1.0,True,1136.0999999940395,69.0,58.0,40.0,False,,349.32885869358245,[],"[683, 384]",ColorTask,96.0,75.0,,,HRV,HRV_0122,2022-11-30 18:14:54
,wl-rdm,193,563694,0.0-8.75-0.75,1.0,193.0,,,,,,,[],,,,,,53.2,0.0,i,1.0,False,1325.5,80.0,58.0,40.0,False,,270.96003048536477,[],"[683, 384]",ColorTask,95.0,76.0,,,HRV,HRV_0122,2022-11-30 18:14:54
,wl-rdm,194,565925,0.0-8.76-0.76,1.0,194.0,,,,,,,[],,,,,,73.6,1.0,i,1.0,True,943.6000000089407,57.0,58.0,40.0,False,,202.23081439517688,[],"[683, 384]",ColorTask,96.0,77.0,,,HRV,HRV_0122,2022-11-30 18:14:54
,wl-rdm,195,568038,0.0-8.77-0.77,1.0,195.0,,,,,,,[],,,,,,62.5,0.0,u,0.0,True,788.5,48.0,58.0,40.0,False,,265.7867691555844,[],"[683, 384]",ColorTask,97.0,78.0,,,HRV,HRV_0122,2022-11-30 18:14:54
,wl-rdm,196,570220,0.0-8.78-0.78,1.0,196.0,,,,,,,[],,,,,,56.4,1.0,u,0.0,False,854.0999999940395,52.0,58.0,40.0,False,,234.53406613702086,[],"[683, 384]",ColorTask,96.0,79.0,,,HRV,HRV_0122,2022-11-30 18:14:54
,wl-rdm,197,572385,0.0-8.79-0.79,1.0,197.0,,,,,,,[],,,,,,62.5,1.0,u,0.0,False,753.9000000059605,46.0,58.0,40.0,False,,320.80951736411566,[],"[683, 384]",ColorTask,95.0,80.0,,,HRV,HRV_0122,2022-11-30 18:14:54
,wl-rdm,198,574716,0.0-8.80-0.80,1.0,198.0,,,,,,,[],,,,,,62.5,1.0,i,1.0,True,1014.7999999970198,61.0,58.0,40.0,False,,241.8912297116214,[],"[683, 384]",ColorTask,96.0,81.0,,,HRV,HRV_0122,2022-11-30 18:14:54
,wl-rdm,199,577912,0.0-8.81-0.81,1.0,199.0,,,,,,,[],,,,,,62.5,0.0,i,1.0,False,1821.2999999970198,110.0,58.0,40.0,False,,288.71405214058484,[],"[683, 384]",ColorTask,95.0,82.0,,,HRV,HRV_0122,2022-11-30 18:14:54
,wl-rdm,200,580261,0.0-8.82-0.82,1.0,200.0,,,,,,,[],,,,,,50.0,1.0,u,0.0,False,994.6999999880791,60.0,58.0,40.0,False,,267.868447954165,[],"[683, 384]",ColorTask,94.0,83.0,,,HRV,HRV_0122,2022-11-30 18:14:54
,wl-rdm,201,583274,0.0-8.83-0.83,1.0,201.0,,,,,,,[],,,,,,53.2,0.0,i,1.0,False,1566.5,94.0,58.0,40.0,False,,377.55732682767155,[],"[683, 384]",ColorTask,93.0,84.0,,,HRV,HRV_0122,2022-11-30 18:14:54
,wl-rdm,202,585539,0.0-8.84-0.84,1.0,202.0,,,,,,,[],,,,,,73.6,0.0,u,0.0,True,872.1000000089407,53.0,58.0,40.0,False,,331.6409005391664,[],"[683, 384]",ColorTask,94.0,85.0,,,HRV,HRV_0122,2022-11-30 18:14:54
,wl-rdm,203,587936,0.0-8.85-0.85,1.0,203.0,,,,,,,[],,,,,,87.9,1.0,i,1.0,True,928.7000000029802,56.0,58.0,40.0,False,,392.44632078914776,[],"[683, 384]",ColorTask,95.0,86.0,,,HRV,HRV_0122,2022-11-30 18:14:54
,wl-rdm,204,590383,0.0-8.86-0.86,1.0,204.0,,,,,,,[],,,,,,87.9,0.0,u,0.0,True,988.5999999940395,60.0,58.0,40.0,False,,396.2776365899873,[],"[683, 384]",ColorTask,96.0,87.0,,,HRV,HRV_0122,2022-11-30 18:14:54
,wl-rdm,205,592548,0.0-8.87-0.87,1.0,205.0,,,,,,,[],,,,,,50.0,1.0,i,1.0,True,892.5999999940395,54.0,58.0,40.0,False,,210.5078252647939,[],"[683, 384]",ColorTask,97.0,88.0,,,HRV,HRV_0122,2022-11-30 18:14:54
,wl-rdm,206,595012,0.0-8.88-0.88,1.0,206.0,,,,,,,[],,,,,,73.6,1.0,i,1.0,True,1161.2000000178814,70.0,58.0,40.0,False,,225.0675999670463,[],"[683, 384]",ColorTask,98.0,89.0,,,HRV,HRV_0122,2022-11-30 18:14:54
,wl-rdm,207,597843,0.0-8.89-0.89,1.0,207.0,,,,,,,[],,,,,,87.9,0.0,i,1.0,False,1373.7000000029802,83.0,58.0,40.0,False,,376.75385379641534,[],"[683, 384]",ColorTask,97.0,90.0,,,HRV,HRV_0122,2022-11-30 18:14:54
,wl-rdm,208,599958,0.0-8.90-0.90,1.0,208.0,,,,,,,[],,,,,,87.9,0.0,u,0.0,True,770.7000000029802,47.0,58.0,40.0,False,,249.8931483689469,[],"[683, 384]",ColorTask,98.0,91.0,,,HRV,HRV_0122,2022-11-30 18:14:54
,wl-rdm,209,602055,0.0-8.91-0.91,1.0,209.0,,,,,,,[],,,,,,87.9,1.0,i,1.0,True,803.2000000029802,49.0,58.0,40.0,False,,213.58689433155232,[],"[683, 384]",ColorTask,99.0,92.0,,,HRV,HRV_0122,2022-11-30 18:14:54
,wl-rdm,210,604771,0.0-8.92-0.92,1.0,210.0,,,,,,,[],,,,,,62.5,0.0,i,1.0,False,1425.0000000149012,86.0,58.0,40.0,False,,210.60992066830326,[],"[683, 384]",ColorTask,98.0,93.0,,,HRV,HRV_0122,2022-11-30 18:14:54
,wl-rdm,211,607051,0.0-8.93-0.93,1.0,211.0,,,,,,,[],,,,,,56.4,1.0,i,1.0,True,827.0,50.0,58.0,40.0,False,,370.95242038484764,[],"[683, 384]",ColorTask,99.0,94.0,,,HRV,HRV_0122,2022-11-30 18:14:54
,wl-rdm,212,609065,0.0-8.94-0.94,1.0,212.0,,,,,,,[],,,,,,73.6,1.0,u,0.0,False,629.0,38.0,58.0,40.0,False,,314.72783203929873,[],"[683, 384]",ColorTask,98.0,95.0,,,HRV,HRV_0122,2022-11-30 18:14:54
,wl-rdm,213,611497,0.0-8.95-0.95,1.0,213.0,,,,,,,[],,,,,,73.6,1.0,i,1.0,True,978.7000000029802,59.0,58.0,40.0,False,,378.5143019748783,[],"[683, 384]",ColorTask,99.0,96.0,,,HRV,HRV_0122,2022-11-30 18:14:54
,wl-rdm,214,613878,0.0-8.96-0.96,1.0,214.0,,,,,,,[],,,,,,53.2,1.0,u,0.0,False,1032.7999999970198,62.0,58.0,40.0,False,,278.2930933913889,[],"[683, 384]",ColorTask,98.0,97.0,,,HRV,HRV_0122,2022-11-30 18:14:54
,wl-rdm,215,616259,0.0-8.97-0.97,1.0,215.0,,,,,,,[],,,,,,62.5,1.0,i,1.0,True,923.0999999940395,56.0,58.0,40.0,False,,379.1115772927284,[],"[683, 384]",ColorTask,99.0,98.0,,,HRV,HRV_0122,2022-11-30 18:14:54
,wl-rdm,216,618756,0.0-8.98-0.98,1.0,216.0,,,,,,,[],,,,,,73.6,1.0,u,0.0,False,1195.2000000178814,72.0,58.0,40.0,False,,231.23656249055864,[],"[683, 384]",ColorTask,98.0,99.0,,,HRV,HRV_0122,2022-11-30 18:14:54
,wl-rdm,217,621436,0.0-8.99-0.99,1.0,217.0,,,,,,,[],,,,,,50.0,0.0,i,1.0,False,1305.3999999910593,79.0,58.0,40.0,False,,289.9944701983921,[],"[683, 384]",ColorTask,97.0,100.0,,,HRV,HRV_0122,2022-11-30 18:14:54
,wl-rdm,218,623884,0.0-8.100-0.100,1.0,218.0,,,,,,,[],,,,,,73.6,1.0,i,1.0,True,1082.2999999970198,65.0,58.0,40.0,False,,282.6392969806226,[],"[683, 384]",ColorTask,98.0,101.0,,,HRV,HRV_0122,2022-11-30 18:14:54
,wl-rdm,219,626215,0.0-8.101-0.101,1.0,219.0,,,,,,,[],,,,,,62.5,1.0,i,1.0,True,895.7999999970198,54.0,58.0,40.0,False,,350.4601441162149,[],"[683, 384]",ColorTask,99.0,102.0,,,HRV,HRV_0122,2022-11-30 18:14:54
,wl-rdm,220,628347,0.0-8.102-0.102,1.0,220.0,,,,,,,[],,,,,,53.2,1.0,i,1.0,True,807.2999999970198,49.0,58.0,40.0,False,,243.8843916419268,[],"[683, 384]",ColorTask,100.0,103.0,,,HRV,HRV_0122,2022-11-30 18:14:54
,wl-rdm,221,630528,0.0-8.103-0.103,1.0,221.0,,,,,,,[],,,,,,53.2,1.0,i,1.0,True,755.5999999940395,46.0,58.0,40.0,False,,339.5300924360101,[],"[683, 384]",ColorTask,101.0,104.0,,,HRV,HRV_0122,2022-11-30 18:14:54
,wl-rdm,222,632975,0.0-8.104-0.104,1.0,222.0,,,,,,,[],,,,,,53.2,1.0,u,0.0,False,1114.699999988079,67.0,58.0,40.0,False,,268.0385351408203,[],"[683, 384]",ColorTask,100.0,105.0,,,HRV,HRV_0122,2022-11-30 18:14:54
,wl-rdm,223,635622,0.0-8.105-0.105,1.0,223.0,,,,,,,[],,,,,,56.4,1.0,i,1.0,True,1189.2000000029802,72.0,58.0,40.0,False,,399.67342488614685,[],"[683, 384]",ColorTask,101.0,106.0,,,HRV,HRV_0122,2022-11-30 18:14:54
,wl-rdm,224,637656,0.0-8.106-0.106,1.0,224.0,,,,,,,[],,,,,,50.0,1.0,i,1.0,True,698.1000000089407,42.0,58.0,40.0,False,,267.6178123333709,[],"[683, 384]",ColorTask,102.0,107.0,,,HRV,HRV_0122,2022-11-30 18:14:54
,wl-rdm,225,639652,0.0-8.107-0.107,1.0,225.0,,,,,,,[],,,,,,87.9,1.0,i,1.0,True,677.7000000029802,41.0,58.0,40.0,False,,247.04958687339507,[],"[683, 384]",ColorTask,103.0,108.0,,,HRV,HRV_0122,2022-11-30 18:14:54
,wl-html-button-response,226,641476,0.0-9.0-0.0,,,,,,,,,,1819.7000000029802,,0,,,,,,,,,,,,,,,,,,,,<h3>End of this session. Thank you!</h3><br>,['Close window'],HRV,HRV_0122,2022-11-30 18:14:54
