success,trial_type,trial_index,time_elapsed,internal_node_id,Block,TrialNumber,TrialTime,trialTimeDiff,FPS_avg,FPS_med,FPS_mode,TrialDur,winResizeTime,rt,block,button_pressed,MotCoh,MotDir,ColCoh,Color,ChoiceKey,Choice,Accuracy,RT,nFrames,FPS,PPD,missTrial,missTrialMsg,onsetDelay,fullScreenExitTime,canvCenter,TrialType,Score,BlockTrial,stimulus,button_labels,exp,subjectId,date
True,fullscreen,0,4797,0.0-0.0,0.0,1.0,,,,,,,,,,,,,,,,,,,,,,,,,,,,,,,,HRV,HRV_0263,2022-11-30 20:07:27
,wl-check-fps,1,9791,0.0-1.0,0.0,2.0,"[5312.5, 5314.6, 5323.7, 5340.2, 5356.5, 5373.1, 5389.4, 5406.1, 5423.5, 5440.3, 5457.5, 5473.4, 5490.1, 5506.4, 5524.4, 5540.4, 5556.6, 5573.2, 5590.4, 5606.5, 5623.7, 5640.6, 5658.5, 5674.4, 5690.1, 5707.6, 5724, 5741.6, 5756.3, 5773.8, 5791.9, 5806.7, 5823.3, 5839.6, 5857.5, 5873.6, 5890.6, 5907.4, 5924.5, 5940.7, 5958.1, 5973.7, 5990.1, 6006.7, 6023.6, 6040.1, 6057.5, 6074.4, 6089.8, 6106.2, 6122.9, 6139.5, 6156.8, 6173.8, 6190, 6207.7, 6223.4, 6239.7, 6256.4, 6273.1, 6290.1, 6306.2, 6323.2, 6339.8, 6356.5, 6373.3, 6390.2, 6406.5, 6423.1, 6440, 6456.9, 6473.2, 6489.8, 6506.6, 6523.4, 6539.8, 6556.9, 6573.1, 6590.3, 6606.9, 6623.8, 6643.7, 6657.8, 6673.3, 6689.9, 6707.5, 6724.3, 6740.4, 6757.7, 6773.5, 6790.6, 6807.1, 6823.2, 6840.3, 6857.6, 6873.3, 6889.6, 6906.1, 6923.2, 6939.8, 6957.2, 6973.2, 6990.4, 7006.4, 7023.6, 7040.1, 7057, 7073, 7089.8, 7106.4, 7132.7, 7141.1, 7156.6, 7172.8, 7189.6, 7206.7, 7223.2, 7239.6, 7256.4, 7272.8, 7289.8, 7306.6, 7324.5, 7339.9, 7356.2, 7372.7, 7389.6, 7406.1, 7423, 7439.6, 7456.3, 7473.3, 7490.6, 7507.6, 7524.3, 7540.4, 7556.7, 7573.1, 7590.4, 7606.5, 7623.2, 7640.5, 7656.6, 7673.2, 7690.4, 7706.5, 7723.6, 7740.5, 7756.6, 7774.3, 7790.4, 7806.6, 7823.8, 7839.8, 7857.5, 7873.6, 7890.2, 7906.5, 7924, 7941.4, 7956.3, 7973.1, 7989.5, 8006.4, 8023.5, 8040, 8056.6, 8073.3, 8089.7, 8106.6, 8123.6, 8139.7, 8156.5, 8174.1, 8192, 8213.1, 8225, 8239.4, 8256.2, 8272.8, 8289.7, 8306.3, 8323.3, 8340, 8356.5, 8373.5, 8390.8, 8406.9, 8423.4, 8439.7, 8457.1, 8473.1, 8490.2, 8506.9, 8524.3, 8540.3, 8556.7, 8573.6, 8589.7, 8607.1, 8623.2, 8639.7, 8657.3, 8679.2, 8695.7, 8711.5, 8724.6, 8739.5, 8756.4, 8773.1, 8789.6, 8807.3, 8823.8, 8840.5, 8856.5, 8873.7, 8890.1, 8906.6, 8923.7, 8940.9, 8958.2, 8973.9, 8989.9, 9007.3, 9023.4, 9040.3, 9056.3, 9072.7, 9089.7, 9107.6, 9123.6, 9140.4, 9157.1, 9173.2, 9190.4, 9206.6, 9223.3, 9240, 9257.4, 9274.6, 9289.9, 9306.2, 9323.2, 9341.5, 9361.9, 9379.5, 9392.6, 9406.3, 9423.3, 9439.4, 9456.5, 9472.7, 9489.4, 9508.8, 9524.4, 9541.9, 9557.8, 9573.1, 9590.6, 9606.2, 9622.9, 9640.6, 9656.2, 9672.8, 9689.3, 9706.1, 9723, 9740.4, 9758.7, 9775.3, 9791.8, 9806.9, 9823.5, 9840.7, 9857.6, 9874.7, 9891.8, 9908.7, 9923.4, 9939.4, 9956.2, 9973.8, 9991.7, 10008, 10023.4, 10042.6, 10061.2, 10074.3, 10102.4, 10106.6, 10123, 10139.8, 10156.4, 10173.5, 10190.7, 10208.1, 10223.8, 10240.4, 10258, 10274.6]","[7.1, 2.1, 9.1, 16.5, 16.3, 16.6, 16.3, 16.7, 17.4, 16.8, 17.2, 15.9, 16.7, 16.3, 18, 16, 16.2, 16.6, 17.2, 16.1, 17.2, 16.9, 17.9, 15.9, 15.7, 17.5, 16.4, 17.6, 14.7, 17.5, 18.1, 14.8, 16.6, 16.3, 17.9, 16.1, 17, 16.8, 17.1, 16.2, 17.4, 15.6, 16.4, 16.6, 16.9, 16.5, 17.4, 16.9, 15.4, 16.4, 16.7, 16.6, 17.3, 17, 16.2, 17.7, 15.7, 16.3, 16.7, 16.7, 17, 16.1, 17, 16.6, 16.7, 16.8, 16.9, 16.3, 16.6, 16.9, 16.9, 16.3, 16.6, 16.8, 16.8, 16.4, 17.1, 16.2, 17.2, 16.6, 16.9, 19.9, 14.1, 15.5, 16.6, 17.6, 16.8, 16.1, 17.3, 15.8, 17.1, 16.5, 16.1, 17.1, 17.3, 15.7, 16.3, 16.5, 17.1, 16.6, 17.4, 16, 17.2, 16, 17.2, 16.5, 16.9, 16, 16.8, 16.6, 26.3, 8.4, 15.5, 16.2, 16.8, 17.1, 16.5, 16.4, 16.8, 16.4, 17, 16.8, 17.9, 15.4, 16.3, 16.5, 16.9, 16.5, 16.9, 16.6, 16.7, 17, 17.3, 17, 16.7, 16.1, 16.3, 16.4, 17.3, 16.1, 16.7, 17.3, 16.1, 16.6, 17.2, 16.1, 17.1, 16.9, 16.1, 17.7, 16.1, 16.2, 17.2, 16, 17.7, 16.1, 16.6, 16.3, 17.5, 17.4, 14.9, 16.8, 16.4, 16.9, 17.1, 16.5, 16.6, 16.7, 16.4, 16.9, 17, 16.1, 16.8, 17.6, 17.9, 21.1, 11.9, 14.4, 16.8, 16.6, 16.9, 16.6, 17, 16.7, 16.5, 17, 17.3, 16.1, 16.5, 16.3, 17.4, 16, 17.1, 16.7, 17.4, 16, 16.4, 16.9, 16.1, 17.4, 16.1, 16.5, 17.6, 21.9, 16.5, 15.8, 13.1, 14.9, 16.9, 16.7, 16.5, 17.7, 16.5, 16.7, 16, 17.2, 16.4, 16.5, 17.1, 17.2, 17.3, 15.7, 16, 17.4, 16.1, 16.9, 16, 16.4, 17, 17.9, 16, 16.8, 16.7, 16.1, 17.2, 16.2, 16.7, 16.7, 17.4, 17.2, 15.3, 16.3, 17, 18.3, 20.4, 17.6, 13.1, 13.7, 17, 16.1, 17.1, 16.2, 16.7, 19.4, 15.6, 17.5, 15.9, 15.3, 17.5, 15.6, 16.7, 17.7, 15.6, 16.6, 16.5, 16.8, 16.9, 17.4, 18.3, 16.6, 16.5, 15.1, 16.6, 17.2, 16.9, 17.1, 17.1, 16.9, 14.7, 16, 16.8, 17.6, 17.9, 16.3, 15.4, 19.2, 18.6, 13.1, 28.1, 4.2, 16.4, 16.8, 16.6, 17.1, 17.2, 17.4, 15.7, 16.6, 17.6, 16.6]",60.0,59.0,60.0,4985.5,[],,,,,,,,,,,,,,,,,,,,,,,,,HRV,HRV_0263,2022-11-30 20:07:27
,wl-html-keyboard-response,2,27410,0.0-2.0-0.0,0.0,3.0,,,,,,,,15598.899999976158,0.0,0,,,,,,,,,,,,,,,,,,,,,,HRV,HRV_0263,2022-11-30 20:07:27
,wl-rdm,3,34203,0.0-3.0-0.0,0.0,4.0,,,,,,,[],,,,0.0,0.0,87.9,0.0,u,0.0,True,1198.7999999523163,72.0,60.0,40.0,False,,3000.0,[],"[960, 540]",ColorTask_Demo,,,,,HRV,HRV_0263,2022-11-30 20:07:27
,wl-rdm,4,39471,0.0-3.0-1.0,0.0,5.0,,,,,,,[],,,,0.0,0.0,87.9,1.0,i,1.0,True,1191.8999999761581,72.0,60.0,40.0,False,,2000.0,[],"[960, 540]",ColorTask_Demo,,,,,HRV,HRV_0263,2022-11-30 20:07:27
,wl-html-keyboard-response,5,48421,0.0-3.0-2.0,0.0,6.0,,,,,,,,6942.100000023842,0.0,1,,,,,,,,,,,,,,,,,,,,,,HRV,HRV_0263,2022-11-30 20:07:27
,wl-html-keyboard-response,6,73147,0.0-4.0-0.0,0.0,7.0,,,,,,,,22716.899999976158,0.0,0,,,,,,,,,,,,,,,,,,,,,,HRV,HRV_0263,2022-11-30 20:07:27
,wl-html-keyboard-response,7,94133,0.0-5.0-0.0,0.0,8.0,,,,,,,,18975.0,0.0,0,,,,,,,,,,,,,,,,,,,,,,HRV,HRV_0263,2022-11-30 20:07:27
,wl-rdm,8,98586,0.0-6.0-0.0,0.0,8.0,,,,,,,[],,,,,,50.0,0.0,u,,,3359.399999976158,179.0,60.0,40.0,True,RT_timeout ,347.1971012483258,[],"[960, 540]",ColorTask,-1.0,1.0,,,HRV,HRV_0263,2022-11-30 20:07:27
,wl-rdm,9,101154,0.0-6.1-0.1,0.0,9.0,,,,,,,[],,,,,,53.2,0.0,u,0.0,True,1256.3000000715256,76.0,60.0,40.0,False,,244.4401774002071,[],"[960, 540]",ColorTask,0.0,2.0,,,HRV,HRV_0263,2022-11-30 20:07:27
,wl-rdm,10,103736,0.0-6.2-0.2,0.0,10.0,,,,,,,[],,,,,,62.5,0.0,u,0.0,True,1181.2999999523163,71.0,60.0,40.0,False,,321.14043965941073,[],"[960, 540]",ColorTask,1.0,3.0,,,HRV,HRV_0263,2022-11-30 20:07:27
,wl-rdm,11,106269,0.0-6.3-0.3,0.0,11.0,,,,,,,[],,,,,,73.6,0.0,u,0.0,True,1127.1999999284744,68.0,60.0,40.0,False,,321.64448177084785,[],"[960, 540]",ColorTask,2.0,4.0,,,HRV,HRV_0263,2022-11-30 20:07:27
,wl-rdm,12,108652,0.0-6.4-0.4,0.0,12.0,,,,,,,[],,,,,,73.6,1.0,i,1.0,True,942.5,57.0,60.0,40.0,False,,354.1111069044114,[],"[960, 540]",ColorTask,3.0,5.0,,,HRV,HRV_0263,2022-11-30 20:07:27
,wl-rdm,13,111086,0.0-6.5-0.5,0.0,13.0,,,,,,,[],,,,,,56.4,0.0,i,1.0,False,967.3000000715256,59.0,60.0,40.0,False,,370.14940550235747,[],"[960, 540]",ColorTask,2.0,6.0,,,HRV,HRV_0263,2022-11-30 20:07:27
,wl-rdm,14,113269,0.0-6.6-0.6,0.0,14.0,,,,,,,[],,,,,,73.6,1.0,i,1.0,True,872.9000000953674,53.0,60.0,40.0,False,,227.2141374039308,[],"[960, 540]",ColorTask,3.0,7.0,,,HRV,HRV_0263,2022-11-30 20:07:27
,wl-rdm,15,115752,0.0-6.7-0.7,0.0,15.0,,,,,,,[],,,,,,56.4,0.0,u,0.0,True,1159.1000000238419,70.0,60.0,40.0,False,,238.6901857233124,[],"[960, 540]",ColorTask,4.0,8.0,,,HRV,HRV_0263,2022-11-30 20:07:27
,wl-rdm,16,118354,0.0-6.8-0.8,0.0,16.0,,,,,,,[],,,,,,50.0,1.0,u,0.0,False,1173.4000000953674,71.0,60.0,40.0,False,,365.4693169917481,[],"[960, 540]",ColorTask,3.0,9.0,,,HRV,HRV_0263,2022-11-30 20:07:27
,wl-rdm,17,122018,0.0-6.9-0.9,0.0,17.0,,,,,,,[],,,,,,73.6,0.0,u,0.0,True,2255.899999976158,136.0,60.0,40.0,False,,348.757160832428,[],"[960, 540]",ColorTask,4.0,10.0,,,HRV,HRV_0263,2022-11-30 20:07:27
,wl-rdm,18,124969,0.0-6.10-0.10,0.0,18.0,,,,,,,[],,,,,,53.2,1.0,i,1.0,True,1480.1000000238419,89.0,60.0,40.0,False,,387.07764378667525,[],"[960, 540]",ColorTask,5.0,11.0,,,HRV,HRV_0263,2022-11-30 20:07:27
,wl-rdm,19,127719,0.0-6.11-0.11,0.0,19.0,,,,,,,[],,,,,,56.4,0.0,u,0.0,True,1373.9999998807907,83.0,60.0,40.0,False,,310.71306812609384,[],"[960, 540]",ColorTask,6.0,12.0,,,HRV,HRV_0263,2022-11-30 20:07:27
,wl-rdm,20,130701,0.0-6.12-0.12,0.0,20.0,,,,,,,[],,,,,,53.2,1.0,u,0.0,False,1614.8999999761581,97.0,60.0,40.0,False,,294.3795076729212,[],"[960, 540]",ColorTask,5.0,13.0,,,HRV,HRV_0263,2022-11-30 20:07:27
,wl-rdm,21,133235,0.0-6.13-0.13,0.0,21.0,,,,,,,[],,,,,,53.2,1.0,u,0.0,False,1244.2999999523163,75.0,60.0,40.0,False,,206.08476011354185,[],"[960, 540]",ColorTask,4.0,14.0,,,HRV,HRV_0263,2022-11-30 20:07:27
,wl-rdm,22,136068,0.0-6.14-0.14,0.0,22.0,,,,,,,[],,,,,,73.6,0.0,u,0.0,True,1525.799999833107,92.0,60.0,40.0,False,,217.46073134220723,[],"[960, 540]",ColorTask,5.0,15.0,,,HRV,HRV_0263,2022-11-30 20:07:27
,wl-rdm,23,138685,0.0-6.15-0.15,0.0,23.0,,,,,,,[],,,,,,50.0,0.0,i,1.0,False,1258.7999999523163,76.0,60.0,40.0,False,,286.4523532567788,[],"[960, 540]",ColorTask,4.0,16.0,,,HRV,HRV_0263,2022-11-30 20:07:27
,wl-rdm,24,141486,0.0-6.16-0.16,0.0,24.0,,,,,,,[],,,,,,62.5,0.0,u,0.0,True,1497.1000000238419,90.0,60.0,40.0,False,,249.69425684862188,[],"[960, 540]",ColorTask,5.0,17.0,,,HRV,HRV_0263,2022-11-30 20:07:27
,wl-rdm,25,144085,0.0-6.17-0.17,0.0,25.0,,,,,,,[],,,,,,53.2,1.0,u,0.0,False,1157.7000000476837,70.0,60.0,40.0,False,,361.21610213998304,[],"[960, 540]",ColorTask,4.0,18.0,,,HRV,HRV_0263,2022-11-30 20:07:27
,wl-rdm,26,147052,0.0-6.18-0.18,0.0,26.0,,,,,,,[],,,,,,53.2,1.0,i,1.0,True,1659.8999999761581,100.0,60.0,40.0,False,,220.81902009237876,[],"[960, 540]",ColorTask,5.0,19.0,,,HRV,HRV_0263,2022-11-30 20:07:27
,wl-rdm,27,149572,0.0-6.19-0.19,0.0,27.0,,,,,,,[],,,,,,73.6,0.0,u,0.0,True,1144.6000000238419,69.0,60.0,40.0,False,,303.23047054864736,[],"[960, 540]",ColorTask,6.0,20.0,,,HRV,HRV_0263,2022-11-30 20:07:27
,wl-rdm,28,152403,0.0-6.20-0.20,0.0,28.0,,,,,,,[],,,,,,56.4,0.0,i,1.0,False,1452.6000000238419,88.0,60.0,40.0,False,,292.61820847599023,[],"[960, 540]",ColorTask,5.0,21.0,,,HRV,HRV_0263,2022-11-30 20:07:27
,wl-rdm,29,155471,0.0-6.21-0.21,0.0,29.0,,,,,,,[],,,,,,62.5,1.0,i,1.0,True,1683.3999999761581,102.0,60.0,40.0,False,,312.9124026183536,[],"[960, 540]",ColorTask,6.0,22.0,,,HRV,HRV_0263,2022-11-30 20:07:27
,wl-rdm,30,158136,0.0-6.22-0.22,0.0,30.0,,,,,,,[],,,,,,62.5,1.0,i,1.0,True,1264.1999999284744,76.0,60.0,40.0,False,,323.2263576820153,[],"[960, 540]",ColorTask,7.0,23.0,,,HRV,HRV_0263,2022-11-30 20:07:27
,wl-rdm,31,160919,0.0-6.23-0.23,0.0,31.0,,,,,,,[],,,,,,53.2,1.0,i,1.0,True,1408.0,85.0,60.0,40.0,False,,287.93768305778775,[],"[960, 540]",ColorTask,8.0,24.0,,,HRV,HRV_0263,2022-11-30 20:07:27
,wl-rdm,32,163870,0.0-6.24-0.24,0.0,32.0,,,,,,,[],,,,,,56.4,0.0,u,0.0,True,1516.7000000476837,91.0,60.0,40.0,False,,371.893350855665,[],"[960, 540]",ColorTask,9.0,25.0,,,HRV,HRV_0263,2022-11-30 20:07:27
,wl-rdm,33,166136,0.0-6.25-0.25,0.0,33.0,,,,,,,[],,,,,,87.9,1.0,i,1.0,True,963.8000000715256,58.0,60.0,40.0,False,,233.0330700117003,[],"[960, 540]",ColorTask,10.0,26.0,,,HRV,HRV_0263,2022-11-30 20:07:27
,wl-rdm,34,168721,0.0-6.26-0.26,0.0,34.0,,,,,,,[],,,,,,56.4,1.0,i,1.0,True,1222.8000000715256,74.0,60.0,40.0,False,,288.4475118873762,[],"[960, 540]",ColorTask,11.0,27.0,,,HRV,HRV_0263,2022-11-30 20:07:27
,wl-rdm,35,171169,0.0-6.27-0.27,0.0,35.0,,,,,,,[],,,,,,73.6,0.0,u,0.0,True,1128.8999999761581,68.0,60.0,40.0,False,,235.26593331186825,[],"[960, 540]",ColorTask,12.0,28.0,,,HRV,HRV_0263,2022-11-30 20:07:27
,wl-rdm,36,174186,0.0-6.28-0.28,0.0,36.0,,,,,,,[],,,,,,50.0,1.0,u,0.0,False,1578.8999999761581,95.0,60.0,40.0,False,,382.73503155932303,[],"[960, 540]",ColorTask,11.0,29.0,,,HRV,HRV_0263,2022-11-30 20:07:27
,wl-rdm,37,176804,0.0-6.29-0.29,0.0,37.0,,,,,,,[],,,,,,73.6,1.0,i,1.0,True,1245.2000000476837,75.0,60.0,40.0,False,,299.87783843343493,[],"[960, 540]",ColorTask,12.0,30.0,,,HRV,HRV_0263,2022-11-30 20:07:27
,wl-rdm,38,179736,0.0-6.30-0.30,0.0,38.0,,,,,,,[],,,,,,50.0,0.0,i,1.0,False,1548.0,93.0,60.0,40.0,False,,311.96595189442985,[],"[960, 540]",ColorTask,11.0,31.0,,,HRV,HRV_0263,2022-11-30 20:07:27
,wl-rdm,39,182369,0.0-6.31-0.31,0.0,39.0,,,,,,,[],,,,,,56.4,1.0,i,1.0,True,1295.1999999284744,78.0,60.0,40.0,False,,277.58771163711947,[],"[960, 540]",ColorTask,12.0,32.0,,,HRV,HRV_0263,2022-11-30 20:07:27
,wl-rdm,40,184653,0.0-6.32-0.32,0.0,40.0,,,,,,,[],,,,,,73.6,1.0,i,1.0,True,938.0,57.0,60.0,40.0,False,,251.62321961113446,[],"[960, 540]",ColorTask,13.0,33.0,,,HRV,HRV_0263,2022-11-30 20:07:27
,wl-rdm,41,187452,0.0-6.33-0.33,0.0,41.0,,,,,,,[],,,,,,56.4,0.0,i,1.0,False,1494.0999999046326,90.0,60.0,40.0,False,,223.16769864063352,[],"[960, 540]",ColorTask,12.0,34.0,,,HRV,HRV_0263,2022-11-30 20:07:27
,wl-rdm,42,190236,0.0-6.34-0.34,0.0,42.0,,,,,,,[],,,,,,53.2,0.0,u,0.0,True,1452.7000000476837,88.0,60.0,40.0,False,,248.3508753173641,[],"[960, 540]",ColorTask,13.0,35.0,,,HRV,HRV_0263,2022-11-30 20:07:27
,wl-rdm,43,192769,0.0-6.35-0.35,0.0,43.0,,,,,,,[],,,,,,87.9,0.0,u,0.0,True,1212.0,73.0,60.0,40.0,False,,252.32586922577138,[],"[960, 540]",ColorTask,14.0,36.0,,,HRV,HRV_0263,2022-11-30 20:07:27
,wl-rdm,44,195237,0.0-6.36-0.36,0.0,44.0,,,,,,,[],,,,,,73.6,0.0,u,0.0,True,1151.7000000476837,70.0,60.0,40.0,False,,245.70680520865565,[],"[960, 540]",ColorTask,15.0,37.0,,,HRV,HRV_0263,2022-11-30 20:07:27
,wl-rdm,45,198325,0.0-6.37-0.37,0.0,45.0,,,,,,,[],,,,,,62.5,0.0,u,0.0,True,1698.3999999761581,102.0,60.0,40.0,False,,318.46264005698674,[],"[960, 540]",ColorTask,16.0,38.0,,,HRV,HRV_0263,2022-11-30 20:07:27
,wl-rdm,46,200954,0.0-6.38-0.38,0.0,46.0,,,,,,,[],,,,,,73.6,1.0,i,1.0,True,1196.8000000715256,72.0,60.0,40.0,False,,360.63325149077605,[],"[960, 540]",ColorTask,17.0,39.0,,,HRV,HRV_0263,2022-11-30 20:07:27
,wl-rdm,47,203636,0.0-6.39-0.39,0.0,47.0,,,,,,,[],,,,,,62.5,1.0,i,1.0,True,1252.6000000238419,76.0,60.0,40.0,False,,350.35177155377806,[],"[960, 540]",ColorTask,18.0,40.0,,,HRV,HRV_0263,2022-11-30 20:07:27
,wl-rdm,48,206205,0.0-6.40-0.40,0.0,48.0,,,,,,,[],,,,,,50.0,1.0,i,1.0,True,1227.1000000238419,74.0,60.0,40.0,False,,272.9513638442401,[],"[960, 540]",ColorTask,19.0,41.0,,,HRV,HRV_0263,2022-11-30 20:07:27
,wl-rdm,49,208969,0.0-6.41-0.41,0.0,49.0,,,,,,,[],,,,,,50.0,1.0,u,0.0,False,1311.9000000953674,79.0,60.0,40.0,False,,370.7627692928478,[],"[960, 540]",ColorTask,18.0,42.0,,,HRV,HRV_0263,2022-11-30 20:07:27
,wl-rdm,50,211722,0.0-6.42-0.42,0.0,50.0,,,,,,,[],,,,,,50.0,0.0,i,1.0,False,1473.3999999761581,89.0,60.0,40.0,False,,205.58710327533635,[],"[960, 540]",ColorTask,17.0,43.0,,,HRV,HRV_0263,2022-11-30 20:07:27
,wl-rdm,51,214403,0.0-6.43-0.43,0.0,51.0,,,,,,,[],,,,,,62.5,1.0,i,1.0,True,1344.6999999284744,82.0,60.0,40.0,False,,259.0463226776611,[],"[960, 540]",ColorTask,18.0,44.0,,,HRV,HRV_0263,2022-11-30 20:07:27
,wl-rdm,52,217204,0.0-6.44-0.44,0.0,52.0,,,,,,,[],,,,,,62.5,1.0,i,1.0,True,1377.8999999761581,83.0,60.0,40.0,False,,348.75360966793295,[],"[960, 540]",ColorTask,19.0,45.0,,,HRV,HRV_0263,2022-11-30 20:07:27
,wl-rdm,53,220536,0.0-6.45-0.45,0.0,53.0,,,,,,,[],,,,,,56.4,1.0,i,1.0,True,1905.5,115.0,60.0,40.0,False,,357.934275941322,[],"[960, 540]",ColorTask,20.0,46.0,,,HRV,HRV_0263,2022-11-30 20:07:27
,wl-rdm,54,222903,0.0-6.46-0.46,0.0,54.0,,,,,,,[],,,,,,87.9,1.0,i,1.0,True,975.3999999761581,59.0,60.0,40.0,False,,300.75649414542096,[],"[960, 540]",ColorTask,21.0,47.0,,,HRV,HRV_0263,2022-11-30 20:07:27
,wl-rdm,55,225502,0.0-6.47-0.47,0.0,55.0,,,,,,,[],,,,,,53.2,1.0,i,1.0,True,1309.4999998807907,79.0,60.0,40.0,False,,228.9410883926129,[],"[960, 540]",ColorTask,22.0,48.0,,,HRV,HRV_0263,2022-11-30 20:07:27
,wl-rdm,56,227968,0.0-6.48-0.48,0.0,56.0,,,,,,,[],,,,,,87.9,1.0,i,1.0,True,1014.7000000476837,61.0,60.0,40.0,False,,379.38285535915463,[],"[960, 540]",ColorTask,23.0,49.0,,,HRV,HRV_0263,2022-11-30 20:07:27
,wl-rdm,57,230954,0.0-6.49-0.49,0.0,57.0,,,,,,,[],,,,,,50.0,0.0,i,1.0,False,1656.1000000238419,100.0,60.0,40.0,False,,251.50046138156958,[],"[960, 540]",ColorTask,22.0,50.0,,,HRV,HRV_0263,2022-11-30 20:07:27
,wl-rdm,58,233401,0.0-6.50-0.50,0.0,58.0,,,,,,,[],,,,,,87.9,1.0,i,1.0,True,1069.0,65.0,60.0,40.0,False,,292.5921345534602,[],"[960, 540]",ColorTask,23.0,51.0,,,HRV,HRV_0263,2022-11-30 20:07:27
,wl-rdm,59,235952,0.0-6.51-0.51,0.0,59.0,,,,,,,[],,,,,,56.4,1.0,i,1.0,True,1156.5,70.0,60.0,40.0,False,,330.2552539670875,[],"[960, 540]",ColorTask,24.0,52.0,,,HRV,HRV_0263,2022-11-30 20:07:27
,wl-rdm,60,238524,0.0-6.52-0.52,0.0,60.0,,,,,,,[],,,,,,73.6,1.0,i,1.0,True,1266.3000000715256,76.0,60.0,40.0,False,,242.25245359057737,[],"[960, 540]",ColorTask,25.0,53.0,,,HRV,HRV_0263,2022-11-30 20:07:27
,wl-rdm,61,240987,0.0-6.53-0.53,0.0,61.0,,,,,,,[],,,,,,87.9,0.0,u,0.0,True,1088.5,66.0,60.0,40.0,False,,291.7076889586737,[],"[960, 540]",ColorTask,26.0,54.0,,,HRV,HRV_0263,2022-11-30 20:07:27
,wl-rdm,62,243836,0.0-6.54-0.54,0.0,62.0,,,,,,,[],,,,,,53.2,0.0,i,1.0,False,1544.3999999761581,93.0,60.0,40.0,False,,224.092464115703,[],"[960, 540]",ColorTask,25.0,55.0,,,HRV,HRV_0263,2022-11-30 20:07:27
,wl-rdm,63,246918,0.0-6.55-0.55,0.0,63.0,,,,,,,[],,,,,,56.4,0.0,i,1.0,False,1749.7000000476837,105.0,60.0,40.0,False,,252.17664711974237,[],"[960, 540]",ColorTask,24.0,56.0,,,HRV,HRV_0263,2022-11-30 20:07:27
,wl-rdm,64,249686,0.0-6.56-0.56,0.0,64.0,,,,,,,[],,,,,,50.0,0.0,i,1.0,False,1383.6999999284744,83.0,60.0,40.0,False,,302.722291556171,[],"[960, 540]",ColorTask,23.0,57.0,,,HRV,HRV_0263,2022-11-30 20:07:27
,wl-rdm,65,252552,0.0-6.57-0.57,0.0,65.0,,,,,,,[],,,,,,56.4,0.0,i,1.0,False,1480.3000000715256,89.0,60.0,40.0,False,,323.43595842846594,[],"[960, 540]",ColorTask,22.0,58.0,,,HRV,HRV_0263,2022-11-30 20:07:27
,wl-rdm,66,255485,0.0-6.58-0.58,0.0,66.0,,,,,,,[],,,,,,53.2,1.0,u,0.0,False,1633.5,98.0,60.0,40.0,False,,248.62254955615862,[],"[960, 540]",ColorTask,21.0,59.0,,,HRV,HRV_0263,2022-11-30 20:07:27
,wl-rdm,67,258004,0.0-6.59-0.59,0.0,67.0,,,,,,,[],,,,,,62.5,1.0,i,1.0,True,1054.3999998569489,64.0,60.0,40.0,False,,381.9035012228335,[],"[960, 540]",ColorTask,22.0,60.0,,,HRV,HRV_0263,2022-11-30 20:07:27
,wl-rdm,68,260852,0.0-6.60-0.60,0.0,68.0,,,,,,,[],,,,,,50.0,1.0,u,0.0,False,1378.2999999523163,83.0,60.0,40.0,False,,372.79145687033775,[],"[960, 540]",ColorTask,21.0,61.0,,,HRV,HRV_0263,2022-11-30 20:07:27
,wl-rdm,69,263669,0.0-6.61-0.61,0.0,69.0,,,,,,,[],,,,,,73.6,0.0,u,0.0,True,1389.2000000476837,83.0,60.0,40.0,False,,352.1051137922458,[],"[960, 540]",ColorTask,22.0,62.0,,,HRV,HRV_0263,2022-11-30 20:07:27
,wl-rdm,70,267085,0.0-6.62-0.62,0.0,70.0,,,,,,,[],,,,,,62.5,0.0,i,1.0,False,2108.4999998807907,127.0,60.0,40.0,False,,233.55613723200307,[],"[960, 540]",ColorTask,21.0,63.0,,,HRV,HRV_0263,2022-11-30 20:07:27
,wl-rdm,71,270504,0.0-6.63-0.63,0.0,71.0,,,,,,,[],,,,,,56.4,0.0,i,1.0,False,2100.600000023842,126.0,60.0,40.0,False,,241.51894694392035,[],"[960, 540]",ColorTask,20.0,64.0,,,HRV,HRV_0263,2022-11-30 20:07:27
,wl-rdm,72,274002,0.0-6.64-0.64,0.0,72.0,,,,,,,[],,,,,,50.0,1.0,u,0.0,False,2094.0,126.0,60.0,40.0,False,,340.52997208123315,[],"[960, 540]",ColorTask,19.0,65.0,,,HRV,HRV_0263,2022-11-30 20:07:27
,wl-rdm,73,276270,0.0-6.65-0.65,0.0,73.0,,,,,,,[],,,,,,87.9,0.0,u,0.0,True,993.0000001192093,60.0,60.0,40.0,False,,211.5652818843345,[],"[960, 540]",ColorTask,20.0,66.0,,,HRV,HRV_0263,2022-11-30 20:07:27
,wl-rdm,74,278652,0.0-6.66-0.66,0.0,74.0,,,,,,,[],,,,,,87.9,0.0,u,0.0,True,1094.6000000238419,66.0,60.0,40.0,False,,216.04884577669839,[],"[960, 540]",ColorTask,21.0,67.0,,,HRV,HRV_0263,2022-11-30 20:07:27
,wl-rdm,75,281219,0.0-6.67-0.67,0.0,75.0,,,,,,,[],,,,,,87.9,1.0,i,1.0,True,1137.7999999523163,69.0,60.0,40.0,False,,341.67650222709796,[],"[960, 540]",ColorTask,22.0,68.0,,,HRV,HRV_0263,2022-11-30 20:07:27
,wl-rdm,76,284119,0.0-6.68-0.68,0.0,76.0,,,,,,,[],,,,,,50.0,1.0,u,0.0,False,1457.3000000715256,88.0,60.0,40.0,False,,372.6073508903516,[],"[960, 540]",ColorTask,21.0,69.0,,,HRV,HRV_0263,2022-11-30 20:07:27
,wl-rdm,77,287004,0.0-6.69-0.69,0.0,77.0,,,,,,,[],,,,,,56.4,1.0,u,0.0,False,1443.9000000953674,87.0,60.0,40.0,False,,371.0676766594942,[],"[960, 540]",ColorTask,20.0,70.0,,,HRV,HRV_0263,2022-11-30 20:07:27
,wl-rdm,78,289918,0.0-6.70-0.70,0.0,78.0,,,,,,,[],,,,,,50.0,0.0,i,1.0,False,1575.5,95.0,60.0,40.0,False,,256.44311821084796,[],"[960, 540]",ColorTask,19.0,71.0,,,HRV,HRV_0263,2022-11-30 20:07:27
,wl-rdm,79,292451,0.0-6.71-0.71,0.0,79.0,,,,,,,[],,,,,,73.6,1.0,i,1.0,True,1084.6000000238419,66.0,60.0,40.0,False,,362.21423824130693,[],"[960, 540]",ColorTask,20.0,72.0,,,HRV,HRV_0263,2022-11-30 20:07:27
,wl-rdm,80,295201,0.0-6.72-0.72,0.0,80.0,,,,,,,[],,,,,,53.2,1.0,u,0.0,False,1438.5,87.0,60.0,40.0,False,,228.61419403408246,[],"[960, 540]",ColorTask,19.0,73.0,,,HRV,HRV_0263,2022-11-30 20:07:27
,wl-rdm,81,297420,0.0-6.73-0.73,0.0,81.0,,,,,,,[],,,,,,87.9,0.0,u,0.0,True,901.2000000476837,55.0,60.0,40.0,False,,248.91154610723478,[],"[960, 540]",ColorTask,20.0,74.0,,,HRV,HRV_0263,2022-11-30 20:07:27
,wl-rdm,82,300487,0.0-6.74-0.74,0.0,82.0,,,,,,,[],,,,,,73.6,0.0,u,0.0,True,1641.5000001192093,99.0,60.0,40.0,False,,335.3342926139886,[],"[960, 540]",ColorTask,21.0,75.0,,,HRV,HRV_0263,2022-11-30 20:07:27
,wl-rdm,83,303388,0.0-6.75-0.75,0.0,83.0,,,,,,,[],,,,,,53.2,0.0,i,1.0,False,1544.0999999046326,93.0,60.0,40.0,False,,269.2380974951411,[],"[960, 540]",ColorTask,20.0,76.0,,,HRV,HRV_0263,2022-11-30 20:07:27
,wl-rdm,84,306152,0.0-6.76-0.76,0.0,84.0,,,,,,,[],,,,,,53.2,0.0,u,0.0,True,1497.5,90.0,60.0,40.0,False,,206.42876106022302,[],"[960, 540]",ColorTask,21.0,77.0,,,HRV,HRV_0263,2022-11-30 20:07:27
,wl-rdm,85,308918,0.0-6.77-0.77,0.0,85.0,,,,,,,[],,,,,,62.5,0.0,u,0.0,True,1423.0999999046326,86.0,60.0,40.0,False,,267.109268304398,[],"[960, 540]",ColorTask,22.0,78.0,,,HRV,HRV_0263,2022-11-30 20:07:27
,wl-rdm,86,311868,0.0-6.78-0.78,0.0,86.0,,,,,,,[],,,,,,62.5,0.0,u,0.0,True,1591.9999998807907,97.0,60.0,40.0,False,,272.03004443602504,[],"[960, 540]",ColorTask,23.0,79.0,,,HRV,HRV_0263,2022-11-30 20:07:27
,wl-rdm,87,314803,0.0-6.79-0.79,0.0,87.0,,,,,,,[],,,,,,56.4,1.0,u,0.0,False,1511.2000000476837,91.0,60.0,40.0,False,,358.9779593788262,[],"[960, 540]",ColorTask,22.0,80.0,,,HRV,HRV_0263,2022-11-30 20:07:27
,wl-rdm,88,317670,0.0-6.80-0.80,0.0,88.0,,,,,,,[],,,,,,56.4,1.0,i,1.0,True,1456.6999999284744,88.0,60.0,40.0,False,,344.97888019810364,[],"[960, 540]",ColorTask,23.0,81.0,,,HRV,HRV_0263,2022-11-30 20:07:27
,wl-rdm,89,320501,0.0-6.81-0.81,0.0,89.0,,,,,,,[],,,,,,62.5,0.0,u,0.0,True,1465.7000000476837,88.0,60.0,40.0,False,,290.97945214529705,[],"[960, 540]",ColorTask,24.0,82.0,,,HRV,HRV_0263,2022-11-30 20:07:27
,wl-rdm,90,323170,0.0-6.82-0.82,0.0,90.0,,,,,,,[],,,,,,53.2,0.0,u,0.0,True,1370.1000000238419,83.0,60.0,40.0,False,,223.30150979786413,[],"[960, 540]",ColorTask,25.0,83.0,,,HRV,HRV_0263,2022-11-30 20:07:27
,wl-rdm,91,325803,0.0-6.83-0.83,0.0,91.0,,,,,,,[],,,,,,87.9,1.0,i,1.0,True,1262.8999999761581,76.0,60.0,40.0,False,,294.88016371987555,[],"[960, 540]",ColorTask,26.0,84.0,,,HRV,HRV_0263,2022-11-30 20:07:27
,wl-rdm,92,328035,0.0-6.84-0.84,0.0,92.0,,,,,,,[],,,,,,87.9,1.0,i,1.0,True,878.6000000238419,53.0,60.0,40.0,False,,271.25939231362906,[],"[960, 540]",ColorTask,27.0,85.0,,,HRV,HRV_0263,2022-11-30 20:07:27
,wl-rdm,93,331424,0.0-6.85-0.85,0.0,93.0,,,,,,,[],,,,,,50.0,0.0,u,0.0,True,1909.7000000476837,115.0,60.0,40.0,False,,391.3811098595287,[],"[960, 540]",ColorTask,28.0,86.0,,,HRV,HRV_0263,2022-11-30 20:07:27
,wl-rdm,94,334201,0.0-6.86-0.86,0.0,94.0,,,,,,,[],,,,,,73.6,1.0,i,1.0,True,1310.6999999284744,79.0,60.0,40.0,False,,397.484048772444,[],"[960, 540]",ColorTask,29.0,87.0,,,HRV,HRV_0263,2022-11-30 20:07:27
,wl-rdm,95,336400,0.0-6.87-0.87,0.0,95.0,,,,,,,[],,,,,,87.9,0.0,u,0.0,True,905.5,55.0,60.0,40.0,False,,202.20066133546416,[],"[960, 540]",ColorTask,30.0,88.0,,,HRV,HRV_0263,2022-11-30 20:07:27
,wl-rdm,96,338767,0.0-6.88-0.88,0.0,96.0,,,,,,,[],,,,,,87.9,0.0,u,0.0,True,914.0,55.0,60.0,40.0,False,,390.9375630063356,[],"[960, 540]",ColorTask,31.0,89.0,,,HRV,HRV_0263,2022-11-30 20:07:27
,wl-rdm,97,341436,0.0-6.89-0.89,0.0,97.0,,,,,,,[],,,,,,50.0,1.0,u,0.0,False,1322.3000000715256,76.0,60.0,40.0,False,,276.7828760299143,[],"[960, 540]",ColorTask,30.0,90.0,,,HRV,HRV_0263,2022-11-30 20:07:27
,wl-rdm,98,343850,0.0-6.90-0.90,0.0,98.0,,,,,,,[],,,,,,62.5,0.0,u,0.0,True,1043.3000000715256,63.0,60.0,40.0,False,,313.8115527987266,[],"[960, 540]",ColorTask,31.0,91.0,,,HRV,HRV_0263,2022-11-30 20:07:27
,wl-rdm,99,346934,0.0-6.91-0.91,0.0,99.0,,,,,,,[],,,,,,50.0,0.0,u,0.0,True,1757.2000000476837,106.0,60.0,40.0,False,,257.46898870932415,[],"[960, 540]",ColorTask,32.0,92.0,,,HRV,HRV_0263,2022-11-30 20:07:27
,wl-rdm,100,349568,0.0-6.92-0.92,0.0,100.0,,,,,,,[],,,,,,56.4,1.0,i,1.0,True,1247.1000000238419,75.0,60.0,40.0,False,,321.8389691119919,[],"[960, 540]",ColorTask,33.0,93.0,,,HRV,HRV_0263,2022-11-30 20:07:27
,wl-rdm,101,352218,0.0-6.93-0.93,0.0,101.0,,,,,,,[],,,,,,53.2,0.0,i,1.0,False,1311.2000000476837,79.0,60.0,40.0,False,,259.34376545401193,[],"[960, 540]",ColorTask,32.0,94.0,,,HRV,HRV_0263,2022-11-30 20:07:27
,wl-rdm,102,354701,0.0-6.94-0.94,0.0,102.0,,,,,,,[],,,,,,73.6,1.0,i,1.0,True,1077.1000000238419,65.0,60.0,40.0,False,,324.3181376435591,[],"[960, 540]",ColorTask,33.0,95.0,,,HRV,HRV_0263,2022-11-30 20:07:27
,wl-rdm,103,356900,0.0-6.95-0.95,0.0,103.0,,,,,,,[],,,,,,73.6,0.0,u,0.0,True,893.2999999523163,54.0,60.0,40.0,False,,225.42024164604334,[],"[960, 540]",ColorTask,34.0,96.0,,,HRV,HRV_0263,2022-11-30 20:07:27
,wl-rdm,104,359734,0.0-6.96-0.96,0.0,104.0,,,,,,,[],,,,,,50.0,0.0,i,1.0,False,1486.3999999761581,89.0,60.0,40.0,False,,274.6547002532477,[],"[960, 540]",ColorTask,33.0,97.0,,,HRV,HRV_0263,2022-11-30 20:07:27
,wl-rdm,105,362118,0.0-6.97-0.97,0.0,105.0,,,,,,,[],,,,,,62.5,1.0,i,1.0,True,1050.7000000476837,64.0,60.0,40.0,False,,257.3438449572358,[],"[960, 540]",ColorTask,34.0,98.0,,,HRV,HRV_0263,2022-11-30 20:07:27
,wl-rdm,106,364250,0.0-6.98-0.98,0.0,106.0,,,,,,,[],,,,,,87.9,0.0,u,0.0,True,802.0,49.0,60.0,40.0,False,,242.49591615816666,[],"[960, 540]",ColorTask,35.0,99.0,,,HRV,HRV_0263,2022-11-30 20:07:27
,wl-rdm,107,367252,0.0-6.99-0.99,0.0,107.0,,,,,,,[],,,,,,53.2,0.0,i,1.0,False,1710.7999999523163,103.0,60.0,40.0,False,,214.0313681822229,[],"[960, 540]",ColorTask,34.0,100.0,,,HRV,HRV_0263,2022-11-30 20:07:27
,wl-rdm,108,370100,0.0-6.100-0.100,0.0,108.0,,,,,,,[],,,,,,50.0,1.0,i,1.0,True,1365.8000000715256,83.0,60.0,40.0,False,,392.19423717156695,[],"[960, 540]",ColorTask,35.0,101.0,,,HRV,HRV_0263,2022-11-30 20:07:27
,wl-rdm,109,372352,0.0-6.101-0.101,0.0,109.0,,,,,,,[],,,,,,87.9,1.0,i,1.0,True,873.6000000238419,53.0,60.0,40.0,False,,314.067815779239,[],"[960, 540]",ColorTask,36.0,102.0,,,HRV,HRV_0263,2022-11-30 20:07:27
,wl-rdm,110,374917,0.0-6.102-0.102,0.0,110.0,,,,,,,[],,,,,,62.5,1.0,i,1.0,True,1246.0999999046326,75.0,60.0,40.0,False,,268.5874195048402,[],"[960, 540]",ColorTask,37.0,103.0,,,HRV,HRV_0263,2022-11-30 20:07:27
,wl-rdm,111,377900,0.0-6.103-0.103,0.0,111.0,,,,,,,[],,,,,,56.4,1.0,u,0.0,False,1626.7999999523163,98.0,60.0,40.0,False,,269.8270825825497,[],"[960, 540]",ColorTask,36.0,104.0,,,HRV,HRV_0263,2022-11-30 20:07:27
,wl-rdm,112,380750,0.0-6.104-0.104,0.0,112.0,,,,,,,[],,,,,,62.5,0.0,u,0.0,True,1573.9999998807907,95.0,60.0,40.0,False,,208.46731237154737,[],"[960, 540]",ColorTask,37.0,105.0,,,HRV,HRV_0263,2022-11-30 20:07:27
,wl-rdm,113,383683,0.0-6.105-0.105,0.0,113.0,,,,,,,[],,,,,,53.2,0.0,u,0.0,True,1552.6999999284744,94.0,60.0,40.0,False,,296.92222416210126,[],"[960, 540]",ColorTask,38.0,106.0,,,HRV,HRV_0263,2022-11-30 20:07:27
,wl-rdm,114,386217,0.0-6.106-0.106,0.0,114.0,,,,,,,[],,,,,,87.9,0.0,u,0.0,True,1129.3999999761581,68.0,60.0,40.0,False,,329.5835716030677,[],"[960, 540]",ColorTask,39.0,107.0,,,HRV,HRV_0263,2022-11-30 20:07:27
,wl-rdm,115,388500,0.0-6.107-0.107,0.0,115.0,,,,,,,[],,,,,,87.9,1.0,i,1.0,True,883.2000000476837,54.0,60.0,40.0,False,,312.63498693374845,[],"[960, 540]",ColorTask,40.0,108.0,,,HRV,HRV_0263,2022-11-30 20:07:27
,wl-rdm,116,390802,0.0-6.108-0.108,0.0,116.0,,,,,,,[],,,,,,62.5,1.0,i,1.0,True,962.6000000238419,58.0,60.0,40.0,False,,292.9859636380935,[],"[960, 540]",ColorTask,41.0,109.0,,,HRV,HRV_0263,2022-11-30 20:07:27
,wl-html-keyboard-response,117,403517,0.0-7.0-0.0,1.0,117.0,,,,,,,,10704.899999976158,1.0,0,,,,,,,,,,,,,,,,,,,,,,HRV,HRV_0263,2022-11-30 20:07:27
,wl-rdm,118,406066,0.0-8.0-0.0,1.0,118.0,,,,,,,[],,,,,,56.4,1.0,i,1.0,True,1220.5999999046326,74.0,60.0,40.0,False,,248.5578910076457,[],"[960, 540]",ColorTask,42.0,1.0,,,HRV,HRV_0263,2022-11-30 20:07:27
,wl-rdm,119,408383,0.0-8.1-0.1,1.0,119.0,,,,,,,[],,,,,,87.9,0.0,u,0.0,True,923.0,56.0,60.0,40.0,False,,330.9768941565199,[],"[960, 540]",ColorTask,43.0,2.0,,,HRV,HRV_0263,2022-11-30 20:07:27
,wl-rdm,120,410533,0.0-8.2-0.2,1.0,120.0,,,,,,,[],,,,,,87.9,1.0,i,1.0,True,843.2000000476837,51.0,60.0,40.0,False,,235.4278506379025,[],"[960, 540]",ColorTask,44.0,3.0,,,HRV,HRV_0263,2022-11-30 20:07:27
,wl-rdm,121,412766,0.0-8.3-0.3,1.0,121.0,,,,,,,[],,,,,,62.5,1.0,i,1.0,True,817.0,49.0,60.0,40.0,False,,336.5194980507869,[],"[960, 540]",ColorTask,45.0,4.0,,,HRV,HRV_0263,2022-11-30 20:07:27
,wl-rdm,122,414934,0.0-8.4-0.4,1.0,122.0,,,,,,,[],,,,,,73.6,0.0,u,0.0,True,809.3999999761581,49.0,60.0,40.0,False,,288.3703153641759,[],"[960, 540]",ColorTask,46.0,5.0,,,HRV,HRV_0263,2022-11-30 20:07:27
,wl-rdm,123,417250,0.0-8.5-0.5,1.0,123.0,,,,,,,[],,,,,,62.5,0.0,u,0.0,True,1028.5999999046326,62.0,60.0,40.0,False,,204.06172567887398,[],"[960, 540]",ColorTask,47.0,6.0,,,HRV,HRV_0263,2022-11-30 20:07:27
,wl-rdm,124,420434,0.0-8.6-0.6,1.0,124.0,,,,,,,[],,,,,,56.4,1.0,i,1.0,True,1707.0,103.0,60.0,40.0,False,,398.481758457543,[],"[960, 540]",ColorTask,48.0,7.0,,,HRV,HRV_0263,2022-11-30 20:07:27
,wl-rdm,125,422499,0.0-8.7-0.7,1.0,125.0,,,,,,,[],,,,,,87.9,1.0,i,1.0,True,771.7000000476837,47.0,60.0,40.0,False,,229.82981215898945,[],"[960, 540]",ColorTask,49.0,8.0,,,HRV,HRV_0263,2022-11-30 20:07:27
,wl-rdm,126,425133,0.0-8.8-0.8,1.0,126.0,,,,,,,[],,,,,,53.2,0.0,u,0.0,True,1291.4999998807907,78.0,60.0,40.0,False,,262.96152066417756,[],"[960, 540]",ColorTask,50.0,9.0,,,HRV,HRV_0263,2022-11-30 20:07:27
,wl-rdm,127,427866,0.0-8.9-0.9,1.0,127.0,,,,,,,[],,,,,,50.0,1.0,i,1.0,True,1388.8999999761581,84.0,60.0,40.0,False,,249.7195172756556,[],"[960, 540]",ColorTask,51.0,10.0,,,HRV,HRV_0263,2022-11-30 20:07:27
,wl-rdm,128,429950,0.0-8.10-0.10,1.0,128.0,,,,,,,[],,,,,,73.6,0.0,u,0.0,True,790.8999999761581,48.0,60.0,40.0,False,,219.7528833366252,[],"[960, 540]",ColorTask,52.0,11.0,,,HRV,HRV_0263,2022-11-30 20:07:27
,wl-rdm,129,432735,0.0-8.11-0.11,1.0,129.0,,,,,,,[],,,,,,50.0,0.0,i,1.0,False,1385.8999999761581,84.0,60.0,40.0,False,,307.87975178311575,[],"[960, 540]",ColorTask,51.0,12.0,,,HRV,HRV_0263,2022-11-30 20:07:27
,wl-rdm,130,435233,0.0-8.12-0.12,1.0,130.0,,,,,,,[],,,,,,50.0,1.0,i,1.0,True,1213.5999999046326,73.0,60.0,40.0,False,,204.94406086011062,[],"[960, 540]",ColorTask,52.0,13.0,,,HRV,HRV_0263,2022-11-30 20:07:27
,wl-rdm,131,437399,0.0-8.13-0.13,1.0,131.0,,,,,,,[],,,,,,73.6,1.0,i,1.0,True,881.6000000238419,53.0,60.0,40.0,False,,211.94675204856478,[],"[960, 540]",ColorTask,53.0,14.0,,,HRV,HRV_0263,2022-11-30 20:07:27
,wl-rdm,132,439782,0.0-8.14-0.14,1.0,132.0,,,,,,,[],,,,,,50.0,1.0,u,0.0,False,1075.2000000476837,65.0,60.0,40.0,False,,226.6890408374346,[],"[960, 540]",ColorTask,52.0,15.0,,,HRV,HRV_0263,2022-11-30 20:07:27
,wl-rdm,133,442583,0.0-8.15-0.15,1.0,133.0,,,,,,,[],,,,,,62.5,1.0,i,1.0,True,1414.3999999761581,85.0,60.0,40.0,False,,332.79555974787166,[],"[960, 540]",ColorTask,53.0,16.0,,,HRV,HRV_0263,2022-11-30 20:07:27
,wl-rdm,134,445550,0.0-8.16-0.16,1.0,134.0,,,,,,,[],,,,,,62.5,0.0,u,0.0,True,1600.2000000476837,96.0,60.0,40.0,False,,298.9222571882378,[],"[960, 540]",ColorTask,54.0,17.0,,,HRV,HRV_0263,2022-11-30 20:07:27
,wl-rdm,135,448783,0.0-8.17-0.17,1.0,135.0,,,,,,,[],,,,,,53.2,0.0,i,1.0,False,1880.3000000715256,113.0,60.0,40.0,False,,286.16704760126646,[],"[960, 540]",ColorTask,53.0,18.0,,,HRV,HRV_0263,2022-11-30 20:07:27
,wl-rdm,136,451349,0.0-8.18-0.18,1.0,136.0,,,,,,,[],,,,,,62.5,1.0,i,1.0,True,1251.6000000238419,75.0,60.0,40.0,False,,245.07265314155006,[],"[960, 540]",ColorTask,54.0,19.0,,,HRV,HRV_0263,2022-11-30 20:07:27
,wl-rdm,137,454149,0.0-8.19-0.19,1.0,137.0,,,,,,,[],,,,,,53.2,0.0,u,0.0,True,1517.1999999284744,91.0,60.0,40.0,False,,200.65308828929537,[],"[960, 540]",ColorTask,55.0,20.0,,,HRV,HRV_0263,2022-11-30 20:07:27
,wl-rdm,138,457016,0.0-8.20-0.20,1.0,138.0,,,,,,,[],,,,,,56.4,0.0,u,0.0,True,1507.5,91.0,60.0,40.0,False,,280.352345516509,[],"[960, 540]",ColorTask,56.0,21.0,,,HRV,HRV_0263,2022-11-30 20:07:27
,wl-rdm,139,459266,0.0-8.21-0.21,1.0,139.0,,,,,,,[],,,,,,73.6,1.0,i,1.0,True,891.6000000238419,54.0,60.0,40.0,False,,286.48320682866347,[],"[960, 540]",ColorTask,57.0,22.0,,,HRV,HRV_0263,2022-11-30 20:07:27
,wl-rdm,140,461782,0.0-8.22-0.22,1.0,140.0,,,,,,,[],,,,,,73.6,0.0,u,0.0,True,1192.1000000238419,72.0,60.0,40.0,False,,249.32515166234708,[],"[960, 540]",ColorTask,58.0,23.0,,,HRV,HRV_0263,2022-11-30 20:07:27
,wl-rdm,141,464566,0.0-8.23-0.23,1.0,141.0,,,,,,,[],,,,,,53.2,0.0,u,0.0,True,1405.8999999761581,85.0,60.0,40.0,False,,298.275683326733,[],"[960, 540]",ColorTask,59.0,24.0,,,HRV,HRV_0263,2022-11-30 20:07:27
,wl-rdm,142,467532,0.0-8.24-0.24,1.0,142.0,,,,,,,[],,,,,,56.4,1.0,i,1.0,True,1578.2999999523163,95.0,60.0,40.0,False,,304.6945183842751,[],"[960, 540]",ColorTask,60.0,25.0,,,HRV,HRV_0263,2022-11-30 20:07:27
,wl-rdm,143,469633,0.0-8.25-0.25,1.0,143.0,,,,,,,[],,,,,,87.9,1.0,i,1.0,True,789.799999833107,48.0,60.0,40.0,False,,245.51400554433656,[],"[960, 540]",ColorTask,61.0,26.0,,,HRV,HRV_0263,2022-11-30 20:07:27
,wl-rdm,144,472316,0.0-8.26-0.26,1.0,144.0,,,,,,,[],,,,,,50.0,1.0,u,0.0,False,1319.8000000715256,80.0,60.0,40.0,False,,275.1687162832045,[],"[960, 540]",ColorTask,60.0,27.0,,,HRV,HRV_0263,2022-11-30 20:07:27
,wl-rdm,145,474883,0.0-8.27-0.27,1.0,145.0,,,,,,,[],,,,,,62.5,0.0,u,0.0,True,1294.9000000953674,78.0,60.0,40.0,False,,201.81512847778328,[],"[960, 540]",ColorTask,61.0,28.0,,,HRV,HRV_0263,2022-11-30 20:07:27
,wl-rdm,146,477033,0.0-8.28-0.28,1.0,146.0,,,,,,,[],,,,,,87.9,0.0,u,0.0,True,771.7000000476837,47.0,60.0,40.0,False,,304.7238029202448,[],"[960, 540]",ColorTask,62.0,29.0,,,HRV,HRV_0263,2022-11-30 20:07:27
,wl-rdm,147,479748,0.0-8.29-0.29,1.0,147.0,,,,,,,[],,,,,,53.2,1.0,u,0.0,False,1358.0999999046326,82.0,60.0,40.0,False,,287.9722326792567,[],"[960, 540]",ColorTask,61.0,30.0,,,HRV,HRV_0263,2022-11-30 20:07:27
,wl-rdm,148,482733,0.0-8.30-0.30,1.0,148.0,,,,,,,[],,,,,,50.0,0.0,i,1.0,False,1706.8999999761581,103.0,60.0,40.0,False,,207.7097722276534,[],"[960, 540]",ColorTask,60.0,31.0,,,HRV,HRV_0263,2022-11-30 20:07:27
,wl-rdm,149,485099,0.0-8.31-0.31,1.0,149.0,,,,,,,[],,,,,,62.5,1.0,i,1.0,True,954.5,58.0,60.0,40.0,False,,331.25752900035263,[],"[960, 540]",ColorTask,61.0,32.0,,,HRV,HRV_0263,2022-11-30 20:07:27
,wl-rdm,150,488015,0.0-8.32-0.32,1.0,150.0,,,,,,,[],,,,,,56.4,0.0,u,0.0,True,1624.7000000476837,98.0,60.0,40.0,False,,206.34514002056733,[],"[960, 540]",ColorTask,62.0,33.0,,,HRV,HRV_0263,2022-11-30 20:07:27
,wl-rdm,151,490899,0.0-8.33-0.33,1.0,151.0,,,,,,,[],,,,,,53.2,0.0,u,0.0,True,1537.6000000238419,93.0,60.0,40.0,False,,275.2955412141255,[],"[960, 540]",ColorTask,63.0,34.0,,,HRV,HRV_0263,2022-11-30 20:07:27
,wl-rdm,152,494133,0.0-8.34-0.34,1.0,152.0,,,,,,,[],,,,,,62.5,1.0,i,1.0,True,1791.8999999761581,108.0,60.0,40.0,False,,373.3785077582416,[],"[960, 540]",ColorTask,64.0,35.0,,,HRV,HRV_0263,2022-11-30 20:07:27
,wl-rdm,153,496716,0.0-8.35-0.35,1.0,153.0,,,,,,,[],,,,,,56.4,0.0,u,0.0,True,1204.8999998569489,73.0,60.0,40.0,False,,303.84659433150466,[],"[960, 540]",ColorTask,65.0,36.0,,,HRV,HRV_0263,2022-11-30 20:07:27
,wl-rdm,154,499867,0.0-8.36-0.36,1.0,154.0,,,,,,,[],,,,,,50.0,0.0,u,0.0,True,1763.6000001430511,106.0,60.0,40.0,False,,306.0173107622218,[],"[960, 540]",ColorTask,66.0,37.0,,,HRV,HRV_0263,2022-11-30 20:07:27
,wl-rdm,155,502850,0.0-8.37-0.37,1.0,155.0,,,,,,,[],,,,,,56.4,0.0,i,1.0,False,1713.1999999284744,103.0,60.0,40.0,False,,212.9453277888224,[],"[960, 540]",ColorTask,65.0,38.0,,,HRV,HRV_0263,2022-11-30 20:07:27
,wl-rdm,156,506400,0.0-8.38-0.38,1.0,156.0,,,,,,,[],,,,,,50.0,0.0,u,0.0,True,2108.0999999046326,127.0,60.0,40.0,False,,363.5860540872973,[],"[960, 540]",ColorTask,66.0,39.0,,,HRV,HRV_0263,2022-11-30 20:07:27
,wl-rdm,157,508765,0.0-8.39-0.39,1.0,157.0,,,,,,,[],,,,,,87.9,0.0,u,0.0,True,1089.6000000238419,66.0,60.0,40.0,False,,210.0568393480257,[],"[960, 540]",ColorTask,67.0,40.0,,,HRV,HRV_0263,2022-11-30 20:07:27
,wl-rdm,158,511115,0.0-8.40-0.40,1.0,158.0,,,,,,,[],,,,,,87.9,1.0,i,1.0,True,1069.2000000476837,65.0,60.0,40.0,False,,209.2524784381219,[],"[960, 540]",ColorTask,68.0,41.0,,,HRV,HRV_0263,2022-11-30 20:07:27
,wl-rdm,159,514449,0.0-8.41-0.41,1.0,159.0,,,,,,,[],,,,,,53.2,0.0,u,0.0,True,1997.7000000476837,120.0,60.0,40.0,False,,269.1353272844308,[],"[960, 540]",ColorTask,69.0,42.0,,,HRV,HRV_0263,2022-11-30 20:07:27
,wl-rdm,160,517565,0.0-8.42-0.42,1.0,160.0,,,,,,,[],,,,,,50.0,1.0,i,1.0,True,1833.8999999761581,111.0,60.0,40.0,False,,206.68380387584483,[],"[960, 540]",ColorTask,70.0,43.0,,,HRV,HRV_0263,2022-11-30 20:07:27
,wl-rdm,161,520148,0.0-8.43-0.43,1.0,161.0,,,,,,,[],,,,,,87.9,1.0,i,1.0,True,1136.6999999284744,69.0,60.0,40.0,False,,354.06083703833644,[],"[960, 540]",ColorTask,71.0,44.0,,,HRV,HRV_0263,2022-11-30 20:07:27
,wl-rdm,162,523765,0.0-8.44-0.44,1.0,162.0,,,,,,,[],,,,,,56.4,1.0,u,0.0,False,2184.3000000715256,132.0,60.0,40.0,False,,347.1749372444889,[],"[960, 540]",ColorTask,70.0,45.0,,,HRV,HRV_0263,2022-11-30 20:07:27
,wl-rdm,163,525948,0.0-8.45-0.45,1.0,163.0,,,,,,,[],,,,,,87.9,1.0,i,1.0,True,841.3999999761581,51.0,60.0,40.0,False,,255.35978631535244,[],"[960, 540]",ColorTask,71.0,46.0,,,HRV,HRV_0263,2022-11-30 20:07:27
,wl-rdm,164,528650,0.0-8.46-0.46,1.0,164.0,,,,,,,[],,,,,,73.6,1.0,i,1.0,True,1372.8999999761581,83.0,60.0,40.0,False,,245.09518047273926,[],"[960, 540]",ColorTask,72.0,47.0,,,HRV,HRV_0263,2022-11-30 20:07:27
,wl-rdm,165,532399,0.0-8.47-0.47,1.0,165.0,,,,,,,[],,,,,,53.2,0.0,u,0.0,True,2298.100000023842,138.0,60.0,40.0,False,,379.52283191125196,[],"[960, 540]",ColorTask,73.0,48.0,,,HRV,HRV_0263,2022-11-30 20:07:27
,wl-rdm,166,535398,0.0-8.48-0.48,1.0,166.0,,,,,,,[],,,,,,53.2,0.0,i,1.0,False,1707.299999833107,103.0,60.0,40.0,False,,215.98987644752597,[],"[960, 540]",ColorTask,72.0,49.0,,,HRV,HRV_0263,2022-11-30 20:07:27
,wl-rdm,167,537598,0.0-8.49-0.49,1.0,167.0,,,,,,,[],,,,,,73.6,1.0,i,1.0,True,872.0,53.0,60.0,40.0,False,,263.25154392995273,[],"[960, 540]",ColorTask,73.0,50.0,,,HRV,HRV_0263,2022-11-30 20:07:27
,wl-rdm,168,540235,0.0-8.50-0.50,1.0,168.0,,,,,,,[],,,,,,50.0,0.0,u,0.0,True,1364.2000000476837,82.0,60.0,40.0,False,,204.04842133423725,[],"[960, 540]",ColorTask,74.0,51.0,,,HRV,HRV_0263,2022-11-30 20:07:27
,wl-rdm,169,542748,0.0-8.51-0.51,1.0,169.0,,,,,,,[],,,,,,62.5,0.0,u,0.0,True,1117.9999998807907,68.0,60.0,40.0,False,,330.9190447137212,[],"[960, 540]",ColorTask,75.0,52.0,,,HRV,HRV_0263,2022-11-30 20:07:27
,wl-rdm,170,544916,0.0-8.52-0.52,1.0,170.0,,,,,,,[],,,,,,87.9,0.0,u,0.0,True,803.5,49.0,60.0,40.0,False,,276.09015308274036,[],"[960, 540]",ColorTask,76.0,53.0,,,HRV,HRV_0263,2022-11-30 20:07:27
,wl-rdm,171,547715,0.0-8.53-0.53,1.0,171.0,,,,,,,[],,,,,,56.4,0.0,u,0.0,True,1492.0,90.0,60.0,40.0,False,,227.3041457242011,[],"[960, 540]",ColorTask,77.0,54.0,,,HRV,HRV_0263,2022-11-30 20:07:27
,wl-rdm,172,550165,0.0-8.54-0.54,1.0,172.0,,,,,,,[],,,,,,73.6,0.0,u,0.0,True,1125.5000001192093,68.0,60.0,40.0,False,,264.3957689695184,[],"[960, 540]",ColorTask,78.0,55.0,,,HRV,HRV_0263,2022-11-30 20:07:27
,wl-rdm,173,553916,0.0-8.55-0.55,1.0,173.0,,,,,,,[],,,,,,53.2,1.0,i,1.0,True,2307.100000023842,139.0,60.0,40.0,False,,357.40017735513135,[],"[960, 540]",ColorTask,79.0,56.0,,,HRV,HRV_0263,2022-11-30 20:07:27
,wl-rdm,174,557098,0.0-8.56-0.56,1.0,174.0,,,,,,,[],,,,,,73.6,1.0,i,1.0,True,1828.8999999761581,110.0,60.0,40.0,False,,271.1537844736706,[],"[960, 540]",ColorTask,80.0,57.0,,,HRV,HRV_0263,2022-11-30 20:07:27
,wl-rdm,175,560215,0.0-8.57-0.57,1.0,175.0,,,,,,,[],,,,,,50.0,1.0,u,0.0,False,1723.2000000476837,104.0,60.0,40.0,False,,320.87089752871253,[],"[960, 540]",ColorTask,79.0,58.0,,,HRV,HRV_0263,2022-11-30 20:07:27
,wl-rdm,176,562832,0.0-8.58-0.58,1.0,176.0,,,,,,,[],,,,,,73.6,0.0,u,0.0,True,1156.2999999523163,70.0,60.0,40.0,False,,371.9995561444679,[],"[960, 540]",ColorTask,80.0,59.0,,,HRV,HRV_0263,2022-11-30 20:07:27
,wl-rdm,177,566299,0.0-8.59-0.59,1.0,177.0,,,,,,,[],,,,,,53.2,1.0,i,1.0,True,2087.600000023842,126.0,60.0,40.0,False,,304.94988987248365,[],"[960, 540]",ColorTask,81.0,60.0,,,HRV,HRV_0263,2022-11-30 20:07:27
,wl-rdm,178,569666,0.0-8.60-0.60,1.0,178.0,,,,,,,[],,,,,,50.0,0.0,i,1.0,False,2047.5,123.0,60.0,40.0,False,,247.57791620546584,[],"[960, 540]",ColorTask,80.0,61.0,,,HRV,HRV_0263,2022-11-30 20:07:27
,wl-rdm,179,572183,0.0-8.61-0.61,1.0,179.0,,,,,,,[],,,,,,87.9,1.0,i,1.0,True,1149.0999999046326,69.0,60.0,40.0,False,,315.0280732174148,[],"[960, 540]",ColorTask,81.0,62.0,,,HRV,HRV_0263,2022-11-30 20:07:27
,wl-rdm,180,575282,0.0-8.62-0.62,1.0,180.0,,,,,,,[],,,,,,53.2,1.0,u,0.0,False,1678.8999999761581,101.0,60.0,40.0,False,,343.30375735217683,[],"[960, 540]",ColorTask,80.0,63.0,,,HRV,HRV_0263,2022-11-30 20:07:27
,wl-rdm,181,577749,0.0-8.63-0.63,1.0,181.0,,,,,,,[],,,,,,73.6,0.0,u,0.0,True,1084.9000000953674,66.0,60.0,40.0,False,,315.2628126005086,[],"[960, 540]",ColorTask,81.0,64.0,,,HRV,HRV_0263,2022-11-30 20:07:27
,wl-rdm,182,579966,0.0-8.64-0.64,1.0,182.0,,,,,,,[],,,,,,73.6,0.0,u,0.0,True,900.6000000238419,54.0,60.0,40.0,False,,241.80028740043932,[],"[960, 540]",ColorTask,82.0,65.0,,,HRV,HRV_0263,2022-11-30 20:07:27
,wl-rdm,183,582415,0.0-8.65-0.65,1.0,183.0,,,,,,,[],,,,,,73.6,1.0,i,1.0,True,1107.7000000476837,67.0,60.0,40.0,False,,257.1365281130347,[],"[960, 540]",ColorTask,83.0,66.0,,,HRV,HRV_0263,2022-11-30 20:07:27
,wl-rdm,184,585765,0.0-8.66-0.66,1.0,184.0,,,,,,,[],,,,,,62.5,0.0,u,0.0,True,1989.1000000238419,120.0,60.0,40.0,False,,277.9038465326872,[],"[960, 540]",ColorTask,84.0,67.0,,,HRV,HRV_0263,2022-11-30 20:07:27
,wl-rdm,185,588801,0.0-8.67-0.67,1.0,185.0,,,,,,,[],,,,,,56.4,0.0,u,0.0,True,1640.7000000476837,99.0,60.0,40.0,False,,310.65516120324463,[],"[960, 540]",ColorTask,85.0,68.0,,,HRV,HRV_0263,2022-11-30 20:07:27
,wl-rdm,186,591465,0.0-8.68-0.68,1.0,186.0,,,,,,,[],,,,,,73.6,1.0,i,1.0,True,1363.5,82.0,60.0,40.0,False,,228.20628896335649,[],"[960, 540]",ColorTask,86.0,69.0,,,HRV,HRV_0263,2022-11-30 20:07:27
,wl-rdm,187,594648,0.0-8.69-0.69,1.0,187.0,,,,,,,[],,,,,,53.2,1.0,i,1.0,True,1814.7000000476837,109.0,60.0,40.0,False,,291.778952708771,[],"[960, 540]",ColorTask,87.0,70.0,,,HRV,HRV_0263,2022-11-30 20:07:27
,wl-rdm,188,598399,0.0-8.70-0.70,1.0,188.0,,,,,,,[],,,,,,53.2,1.0,u,0.0,False,2342.0,141.0,60.0,40.0,False,,319.5368758655413,[],"[960, 540]",ColorTask,86.0,71.0,,,HRV,HRV_0263,2022-11-30 20:07:27
,wl-rdm,189,601368,0.0-8.71-0.71,1.0,189.0,,,,,,,[],,,,,,62.5,0.0,u,0.0,True,1616.9000000953674,96.0,60.0,40.0,False,,293.9020774899543,[],"[960, 540]",ColorTask,87.0,72.0,,,HRV,HRV_0263,2022-11-30 20:07:27
,wl-rdm,190,604432,0.0-8.72-0.72,1.0,190.0,,,,,,,[],,,,,,62.5,0.0,u,0.0,True,1721.1999999284744,104.0,60.0,40.0,False,,273.7836941487408,[],"[960, 540]",ColorTask,88.0,73.0,,,HRV,HRV_0263,2022-11-30 20:07:27
,wl-rdm,191,607383,0.0-8.73-0.73,1.0,191.0,,,,,,,[],,,,,,53.2,0.0,u,0.0,True,1583.3000000715256,95.0,60.0,40.0,False,,296.18283489674167,[],"[960, 540]",ColorTask,89.0,74.0,,,HRV,HRV_0263,2022-11-30 20:07:27
,wl-rdm,192,610301,0.0-8.74-0.74,1.0,192.0,,,,,,,[],,,,,,62.5,1.0,u,0.0,False,1627.3999999761581,98.0,60.0,40.0,False,,209.12910808022025,[],"[960, 540]",ColorTask,88.0,75.0,,,HRV,HRV_0263,2022-11-30 20:07:27
,wl-rdm,193,613449,0.0-8.75-0.75,1.0,193.0,,,,,,,[],,,,,,73.6,1.0,u,0.0,False,1810.8999999761581,109.0,60.0,40.0,False,,283.5103045827574,[],"[960, 540]",ColorTask,87.0,76.0,,,HRV,HRV_0263,2022-11-30 20:07:27
,wl-rdm,194,616419,0.0-8.76-0.76,1.0,194.0,,,,,,,[],,,,,,56.4,0.0,u,0.0,True,1536.8000000715256,93.0,60.0,40.0,False,,334.76495659354555,[],"[960, 540]",ColorTask,88.0,77.0,,,HRV,HRV_0263,2022-11-30 20:07:27
,wl-rdm,195,618715,0.0-8.77-0.77,1.0,195.0,,,,,,,[],,,,,,73.6,0.0,u,0.0,True,1009.8999999761581,61.0,60.0,40.0,False,,219.27801199560042,[],"[960, 540]",ColorTask,89.0,78.0,,,HRV,HRV_0263,2022-11-30 20:07:27
,wl-rdm,196,621866,0.0-8.78-0.78,1.0,196.0,,,,,,,[],,,,,,56.4,0.0,u,0.0,True,1834.6000000238419,111.0,60.0,40.0,False,,249.69968593589874,[],"[960, 540]",ColorTask,90.0,79.0,,,HRV,HRV_0263,2022-11-30 20:07:27
,wl-rdm,197,624032,0.0-8.79-0.79,1.0,197.0,,,,,,,[],,,,,,87.9,0.0,u,0.0,True,865.1000000238419,52.0,60.0,40.0,False,,219.5546020868267,[],"[960, 540]",ColorTask,91.0,80.0,,,HRV,HRV_0263,2022-11-30 20:07:27
,wl-rdm,198,627749,0.0-8.80-0.80,1.0,198.0,,,,,,,[],,,,,,56.4,1.0,i,1.0,True,2392.5,144.0,60.0,40.0,False,,245.77185064190726,[],"[960, 540]",ColorTask,92.0,81.0,,,HRV,HRV_0263,2022-11-30 20:07:27
,wl-rdm,199,630031,0.0-8.81-0.81,1.0,199.0,,,,,,,[],,,,,,87.9,0.0,u,0.0,True,989.1999999284744,60.0,60.0,40.0,False,,229.55352821979307,[],"[960, 540]",ColorTask,93.0,82.0,,,HRV,HRV_0263,2022-11-30 20:07:27
,wl-rdm,200,633798,0.0-8.82-0.82,1.0,200.0,,,,,,,[],,,,,,56.4,1.0,i,1.0,True,2431.0,146.0,60.0,40.0,False,,262.29030173482965,[],"[960, 540]",ColorTask,94.0,83.0,,,HRV,HRV_0263,2022-11-30 20:07:27
,wl-rdm,201,637931,0.0-8.83-0.83,1.0,201.0,,,,,,,[],,,,,,62.5,1.0,i,1.0,True,2760.5999999046326,166.0,60.0,40.0,False,,295.8867717682127,[],"[960, 540]",ColorTask,95.0,84.0,,,HRV,HRV_0263,2022-11-30 20:07:27
,wl-rdm,202,641315,0.0-8.84-0.84,1.0,202.0,,,,,,,[],,,,,,62.5,0.0,u,0.0,True,1986.1000000238419,120.0,60.0,40.0,False,,347.6313327545365,[],"[960, 540]",ColorTask,96.0,85.0,,,HRV,HRV_0263,2022-11-30 20:07:27
,wl-rdm,203,645148,0.0-8.85-0.85,1.0,203.0,,,,,,,[],,,,,,56.4,1.0,u,0.0,False,2376.100000023842,143.0,60.0,40.0,False,,365.9209130427853,[],"[960, 540]",ColorTask,95.0,86.0,,,HRV,HRV_0263,2022-11-30 20:07:27
,wl-rdm,204,647499,0.0-8.86-0.86,1.0,204.0,,,,,,,[],,,,,,87.9,0.0,u,0.0,True,977.0,59.0,60.0,40.0,False,,315.50645160547276,[],"[960, 540]",ColorTask,96.0,87.0,,,HRV,HRV_0263,2022-11-30 20:07:27
,wl-rdm,205,649665,0.0-8.87-0.87,1.0,205.0,,,,,,,[],,,,,,87.9,1.0,i,1.0,True,846.3999999761581,51.0,60.0,40.0,False,,248.08521460043167,[],"[960, 540]",ColorTask,97.0,88.0,,,HRV,HRV_0263,2022-11-30 20:07:27
,wl-rdm,206,653231,0.0-8.88-0.88,1.0,206.0,,,,,,,[],,,,,,53.2,1.0,i,1.0,True,2231.5,134.0,60.0,40.0,False,,256.7818601568111,[],"[960, 540]",ColorTask,98.0,89.0,,,HRV,HRV_0263,2022-11-30 20:07:27
,wl-rdm,207,656131,0.0-8.89-0.89,1.0,207.0,,,,,,,[],,,,,,73.6,1.0,i,1.0,True,1585.8000000715256,96.0,60.0,40.0,False,,231.28272890310316,[],"[960, 540]",ColorTask,99.0,90.0,,,HRV,HRV_0263,2022-11-30 20:07:27
,wl-rdm,208,658548,0.0-8.90-0.90,1.0,208.0,,,,,,,[],,,,,,87.9,1.0,i,1.0,True,1108.3999999761581,67.0,60.0,40.0,False,,238.42552517118403,[],"[960, 540]",ColorTask,100.0,91.0,,,HRV,HRV_0263,2022-11-30 20:07:27
,wl-rdm,209,661934,0.0-8.91-0.91,1.0,209.0,,,,,,,[],,,,,,50.0,1.0,u,0.0,False,2077.2999999523163,125.0,60.0,40.0,False,,223.1623792329404,[],"[960, 540]",ColorTask,99.0,92.0,,,HRV,HRV_0263,2022-11-30 20:07:27
,wl-rdm,210,664348,0.0-8.92-0.92,1.0,210.0,,,,,,,[],,,,,,50.0,1.0,u,0.0,False,1153.1999999284744,70.0,60.0,40.0,False,,201.33210467846865,[],"[960, 540]",ColorTask,98.0,93.0,,,HRV,HRV_0263,2022-11-30 20:07:27
,wl-rdm,211,667798,0.0-8.93-0.93,1.0,211.0,,,,,,,[],,,,,,56.4,0.0,i,1.0,False,2132.8000000715256,128.0,60.0,40.0,False,,243.32250456835402,[],"[960, 540]",ColorTask,97.0,94.0,,,HRV,HRV_0263,2022-11-30 20:07:27
,wl-rdm,212,670898,0.0-8.94-0.94,1.0,212.0,,,,,,,[],,,,,,50.0,0.0,i,1.0,False,1819.6000000238419,110.0,60.0,40.0,False,,200.23675292594172,[],"[960, 540]",ColorTask,96.0,95.0,,,HRV,HRV_0263,2022-11-30 20:07:27
,wl-rdm,213,673498,0.0-8.95-0.95,1.0,213.0,,,,,,,[],,,,,,62.5,1.0,i,1.0,True,1195.1000000238419,72.0,60.0,40.0,False,,335.3944424273878,[],"[960, 540]",ColorTask,97.0,96.0,,,HRV,HRV_0263,2022-11-30 20:07:27
,wl-rdm,214,676414,0.0-8.96-0.96,1.0,214.0,,,,,,,[],,,,,,50.0,0.0,i,1.0,False,1543.7000000476837,93.0,60.0,40.0,False,,314.1906200055493,[],"[960, 540]",ColorTask,96.0,97.0,,,HRV,HRV_0263,2022-11-30 20:07:27
,wl-rdm,215,678984,0.0-8.97-0.97,1.0,215.0,,,,,,,[],,,,,,62.5,1.0,i,1.0,True,1232.799999833107,74.0,60.0,40.0,False,,248.25085759183753,[],"[960, 540]",ColorTask,97.0,98.0,,,HRV,HRV_0263,2022-11-30 20:07:27
,wl-rdm,216,682598,0.0-8.98-0.98,1.0,216.0,,,,,,,[],,,,,,53.2,1.0,u,0.0,False,2185.0,132.0,60.0,40.0,False,,339.52384388343773,[],"[960, 540]",ColorTask,96.0,99.0,,,HRV,HRV_0263,2022-11-30 20:07:27
,wl-rdm,217,686197,0.0-8.99-0.99,1.0,217.0,,,,,,,[],,,,,,53.2,1.0,u,0.0,False,2233.3000000715256,134.0,60.0,40.0,False,,287.2962952505859,[],"[960, 540]",ColorTask,95.0,100.0,,,HRV,HRV_0263,2022-11-30 20:07:27
,wl-rdm,218,690599,0.0-8.100-0.100,1.0,217.0,,,,,,,[],,,,,,56.4,1.0,,,,,179.0,60.0,40.0,True,RT_timeout ,302.30885964530995,[],"[960, 540]",ColorTask,94.0,101.0,,,HRV,HRV_0263,2022-11-30 20:07:27
,wl-rdm,219,693267,0.0-8.101-0.101,1.0,218.0,,,,,,,[],,,,,,50.0,0.0,i,1.0,False,1236.8000000715256,75.0,60.0,40.0,False,,342.367322829884,[],"[960, 540]",ColorTask,93.0,102.0,,,HRV,HRV_0263,2022-11-30 20:07:27
,wl-rdm,220,695387,0.0-8.102-0.102,1.0,219.0,,,,,,,[],,,,,,73.6,0.0,u,0.0,True,841.7999999523163,51.0,60.0,40.0,False,,204.3092089251082,[],"[960, 540]",ColorTask,94.0,103.0,,,HRV,HRV_0263,2022-11-30 20:07:27
,wl-rdm,221,698332,0.0-8.103-0.103,1.0,220.0,,,,,,,[],,,,,,56.4,1.0,i,1.0,True,1651.6000000238419,100.0,60.0,40.0,False,,221.0089755301614,[],"[960, 540]",ColorTask,95.0,104.0,,,HRV,HRV_0263,2022-11-30 20:07:27
,wl-rdm,222,700932,0.0-8.104-0.104,1.0,221.0,,,,,,,[],,,,,,62.5,0.0,u,0.0,True,1276.5,77.0,60.0,40.0,False,,266.97309116107994,[],"[960, 540]",ColorTask,96.0,105.0,,,HRV,HRV_0263,2022-11-30 20:07:27
,wl-rdm,223,704132,0.0-8.105-0.105,1.0,222.0,,,,,,,[],,,,,,50.0,1.0,u,0.0,False,1862.1000000238419,112.0,60.0,40.0,False,,260.18941488567793,[],"[960, 540]",ColorTask,95.0,106.0,,,HRV,HRV_0263,2022-11-30 20:07:27
,wl-rdm,224,707566,0.0-8.106-0.106,1.0,223.0,,,,,,,[],,,,,,56.4,1.0,i,1.0,True,2141.7999999523163,129.0,60.0,40.0,False,,233.19521627262003,[],"[960, 540]",ColorTask,96.0,107.0,,,HRV,HRV_0263,2022-11-30 20:07:27
,wl-rdm,225,709898,0.0-8.107-0.107,1.0,224.0,,,,,,,[],,,,,,87.9,0.0,u,0.0,True,912.5,55.0,60.0,40.0,False,,333.8521215713746,[],"[960, 540]",ColorTask,97.0,108.0,,,HRV,HRV_0263,2022-11-30 20:07:27
,wl-rdm,226,712164,0.0-8.108-0.108,1.0,225.0,,,,,,,[],,,,,,87.9,0.0,u,0.0,True,918.6000000238419,56.0,60.0,40.0,False,,257.0498467069809,[],"[960, 540]",ColorTask,98.0,109.0,,,HRV,HRV_0263,2022-11-30 20:07:27
,wl-html-button-response,227,715348,0.0-9.0-0.0,,,,,,,,,,3181.0,,0,,,,,,,,,,,,,,,,,,,,<h3>End of this session. Thank you!</h3><br>,['Close window'],HRV,HRV_0263,2022-11-30 20:07:27
