trialN,stimuli,trialStartTime,trialStartTime_UNIX,stimulus1,stimulus2,stimulus1Bid,stimulus2Bid,delta,selected,rt,rt_UNIX,rt_perfnow,receivedResponse,rsp,trialEndTime,trialDuration,trialEndTime_UNIX,trialDuration_UNIX,exp,subjectId,date
0,"[{'imgObject': {}, 'id': 'hotdog w must', 'src': '/static/foodstim60/hotdog w must.jpg', 'key': 'u', 'origWidth': 409, 'origHeight': 409, 'width': 409, 'height': 409, 'widthPercent': 0.45, 'rescaleHeight': False, 'trialN': 0, 'loaded': True, 'loadedTime': 3512.2999999523163, 'positionName': 'LEFT', 'positionCoords': [512.6, 335.5], 'bid': 5.86}, {'imgObject': {}, 'id': 'burger', 'src': '/static/foodstim60/burger.jpg', 'key': 'i', 'origWidth': 409, 'origHeight': 409, 'width': 409, 'height': 409, 'widthPercent': 0.45, 'rescaleHeight': False, 'trialN': 0, 'loaded': True, 'loadedTime': 3618.6999999284744, 'positionName': 'RIGHT', 'positionCoords': [998.4, 335.5], 'bid': 6.62}]",3862.5,1669837752150,hotdog w must,burger,5.86,6.62,0.7599999999999998,hotdog w must,1073.1999999284744,1074,1073.8999999761581,True,u,5445.899999976158,1583.3999999761581,1669837753733,1583,HRV,HRV_0263,2022-11-30 19:55:27
1,"[{'imgObject': {}, 'id': 'banana', 'src': '/static/foodstim60/banana.jpg', 'key': 'u', 'origWidth': 410, 'origHeight': 410, 'width': 410, 'height': 410, 'widthPercent': 0.45, 'rescaleHeight': False, 'trialN': 1, 'loaded': True, 'loadedTime': 3622.2999999523163, 'positionName': 'LEFT', 'positionCoords': [511.6, 335], 'bid': 3.34}, {'imgObject': {}, 'id': 'pear', 'src': '/static/foodstim60/pear.jpg', 'key': 'i', 'origWidth': 411, 'origHeight': 410, 'width': 411, 'height': 410, 'widthPercent': 0.45, 'rescaleHeight': False, 'trialN': 1, 'loaded': True, 'loadedTime': 3623.5999999046326, 'positionName': 'RIGHT', 'positionCoords': [998.4, 335], 'bid': 2.44}]",5447.399999976158,1669837753735,banana,pear,3.34,2.44,-0.8999999999999999,banana,1247.7999999523163,1248,1248.1999999284744,True,u,7212.299999952316,1764.8999999761581,1669837755500,1765,HRV,HRV_0263,2022-11-30 19:55:27
2,"[{'imgObject': {}, 'id': 'bagel plain', 'src': '/static/foodstim60/bagel plain.jpg', 'key': 'u', 'origWidth': 410, 'origHeight': 410, 'width': 410, 'height': 410, 'widthPercent': 0.45, 'rescaleHeight': False, 'trialN': 2, 'loaded': True, 'loadedTime': 3623.6999999284744, 'positionName': 'LEFT', 'positionCoords': [511.6, 335], 'bid': 2.16}, {'imgObject': {}, 'id': 'strawberries', 'src': '/static/foodstim60/strawberries.jpg', 'key': 'i', 'origWidth': 410, 'origHeight': 410, 'width': 410, 'height': 410, 'widthPercent': 0.45, 'rescaleHeight': False, 'trialN': 2, 'loaded': True, 'loadedTime': 3625.7999999523163, 'positionName': 'RIGHT', 'positionCoords': [998.4, 335], 'bid': 3}]",7212.399999976158,1669837755500,bagel plain,strawberries,2.16,3.0,0.8399999999999999,strawberries,1138.8999999761581,1139,1139.1000000238419,True,i,8866.899999976158,1654.5,1669837757154,1654,HRV,HRV_0263,2022-11-30 19:55:27
3,"[{'imgObject': {}, 'id': 'banana', 'src': '/static/foodstim60/banana.jpg', 'key': 'u', 'origWidth': 410, 'origHeight': 410, 'width': 410, 'height': 410, 'widthPercent': 0.45, 'rescaleHeight': False, 'trialN': 3, 'loaded': True, 'loadedTime': 3622.5, 'positionName': 'LEFT', 'positionCoords': [511.6, 335], 'bid': 3.34}, {'imgObject': {}, 'id': 'veggieswithdip', 'src': '/static/foodstim60/veggieswithdip.jpg', 'key': 'i', 'origWidth': 409, 'origHeight': 409, 'width': 409, 'height': 409, 'widthPercent': 0.45, 'rescaleHeight': False, 'trialN': 3, 'loaded': True, 'loadedTime': 3626.1999999284744, 'positionName': 'RIGHT', 'positionCoords': [998.4, 335.5], 'bid': 0.4}]",8867.199999928474,1669837757155,banana,veggieswithdip,3.34,0.4,-2.94,banana,1020.0,1020,1020.2000000476837,True,u,10401.5,1534.3000000715256,1669837758689,1534,HRV,HRV_0263,2022-11-30 19:55:27
4,"[{'imgObject': {}, 'id': 'bagel plain', 'src': '/static/foodstim60/bagel plain.jpg', 'key': 'u', 'origWidth': 410, 'origHeight': 410, 'width': 410, 'height': 410, 'widthPercent': 0.45, 'rescaleHeight': False, 'trialN': 4, 'loaded': True, 'loadedTime': 3624.6999999284744, 'positionName': 'LEFT', 'positionCoords': [511.6, 335], 'bid': 2.16}, {'imgObject': {}, 'id': 'sweetpotato', 'src': '/static/foodstim60/sweetpotato.jpg', 'key': 'i', 'origWidth': 410, 'origHeight': 410, 'width': 410, 'height': 410, 'widthPercent': 0.45, 'rescaleHeight': False, 'trialN': 4, 'loaded': True, 'loadedTime': 3629.1999999284744, 'positionName': 'RIGHT', 'positionCoords': [998.4, 335], 'bid': 0.75}]",10401.599999904633,1669837758689,bagel plain,sweetpotato,2.16,0.75,-1.4100000000000001,bagel plain,1102.5,1103,1102.8000000715256,True,u,12012.899999976158,1611.3000000715256,1669837760300,1611,HRV,HRV_0263,2022-11-30 19:55:27
5,"[{'imgObject': {}, 'id': 'sweetpotato', 'src': '/static/foodstim60/sweetpotato.jpg', 'key': 'u', 'origWidth': 410, 'origHeight': 410, 'width': 410, 'height': 410, 'widthPercent': 0.45, 'rescaleHeight': False, 'trialN': 5, 'loaded': True, 'loadedTime': 3628.2999999523163, 'positionName': 'LEFT', 'positionCoords': [511.6, 335], 'bid': 0.75}, {'imgObject': {}, 'id': 'raisin bran w milk', 'src': '/static/foodstim60/raisin bran w milk.jpg', 'key': 'i', 'origWidth': 411, 'origHeight': 411, 'width': 411, 'height': 411, 'widthPercent': 0.45, 'rescaleHeight': False, 'trialN': 5, 'loaded': True, 'loadedTime': 3632, 'positionName': 'RIGHT', 'positionCoords': [998.4, 334.5], 'bid': 1.93}]",12013.099999904633,1669837760301,sweetpotato,raisin bran w milk,0.75,1.93,1.18,raisin bran w milk,1339.0,1339,1339.6000000238419,True,i,13863.399999976158,1850.3000000715256,1669837762151,1850,HRV,HRV_0263,2022-11-30 19:55:27
6,"[{'imgObject': {}, 'id': 'fried eggs', 'src': '/static/foodstim60/fried eggs.jpg', 'key': 'u', 'origWidth': 410, 'origHeight': 410, 'width': 410, 'height': 410, 'widthPercent': 0.45, 'rescaleHeight': False, 'trialN': 6, 'loaded': True, 'loadedTime': 3636.5999999046326, 'positionName': 'LEFT', 'positionCoords': [511.6, 335], 'bid': 6.61}, {'imgObject': {}, 'id': 'sushi w_condiments', 'src': '/static/foodstim60/sushi w_condiments.jpg', 'key': 'i', 'origWidth': 410, 'origHeight': 410, 'width': 410, 'height': 410, 'widthPercent': 0.45, 'rescaleHeight': False, 'trialN': 6, 'loaded': True, 'loadedTime': 3636.7999999523163, 'positionName': 'RIGHT', 'positionCoords': [998.4, 335], 'bid': 6.78}]",13864.0,1669837762152,fried eggs,sushi w_condiments,6.61,6.78,0.16999999999999993,fried eggs,1519.5999999046326,1520,1520.0999999046326,True,u,15895.5,2031.5,1669837764183,2031,HRV,HRV_0263,2022-11-30 19:55:27
7,"[{'imgObject': {}, 'id': 'salmon', 'src': '/static/foodstim60/salmon.jpg', 'key': 'u', 'origWidth': 410, 'origHeight': 409, 'width': 410, 'height': 409, 'widthPercent': 0.45, 'rescaleHeight': False, 'trialN': 7, 'loaded': True, 'loadedTime': 3641.0999999046326, 'positionName': 'LEFT', 'positionCoords': [511.6, 335.5], 'bid': 6.32}, {'imgObject': {}, 'id': 'rigatoni and sauce', 'src': '/static/foodstim60/rigatoni and sauce.jpg', 'key': 'i', 'origWidth': 410, 'origHeight': 411, 'width': 410, 'height': 411, 'widthPercent': 0.45, 'rescaleHeight': False, 'trialN': 7, 'loaded': True, 'loadedTime': 3663.899999976158, 'positionName': 'RIGHT', 'positionCoords': [998.4, 334.5], 'bid': 5.4}]",15896.899999976158,1669837764184,salmon,rigatoni and sauce,6.32,5.4,-0.9199999999999999,salmon,1430.2999999523163,1432,1431.1000000238419,True,u,17850.5,1953.6000000238419,1669837766138,1954,HRV,HRV_0263,2022-11-30 19:55:27
8,"[{'imgObject': {}, 'id': 'pear', 'src': '/static/foodstim60/pear.jpg', 'key': 'u', 'origWidth': 411, 'origHeight': 410, 'width': 411, 'height': 410, 'widthPercent': 0.45, 'rescaleHeight': False, 'trialN': 8, 'loaded': True, 'loadedTime': 3623.2999999523163, 'positionName': 'LEFT', 'positionCoords': [510.6, 335], 'bid': 2.44}, {'imgObject': {}, 'id': 'lox', 'src': '/static/foodstim60/lox.jpg', 'key': 'i', 'origWidth': 410, 'origHeight': 411, 'width': 410, 'height': 411, 'widthPercent': 0.45, 'rescaleHeight': False, 'trialN': 8, 'loaded': True, 'loadedTime': 3665.6999999284744, 'positionName': 'RIGHT', 'positionCoords': [998.4, 334.5], 'bid': 6.22}]",17851.299999952316,1669837766139,pear,lox,2.44,6.22,3.78,lox,1011.8999999761581,1012,1012.0,True,i,19366.399999976158,1515.1000000238419,1669837767654,1515,HRV,HRV_0263,2022-11-30 19:55:27
9,"[{'imgObject': {}, 'id': 'kiwi', 'src': '/static/foodstim60/kiwi.jpg', 'key': 'u', 'origWidth': 410, 'origHeight': 410, 'width': 410, 'height': 410, 'widthPercent': 0.45, 'rescaleHeight': False, 'trialN': 9, 'loaded': True, 'loadedTime': 3667.7999999523163, 'positionName': 'LEFT', 'positionCoords': [511.6, 335], 'bid': 1.71}, {'imgObject': {}, 'id': 'luckycharms', 'src': '/static/foodstim60/luckycharms.jpg', 'key': 'i', 'origWidth': 410, 'origHeight': 409, 'width': 410, 'height': 409, 'widthPercent': 0.45, 'rescaleHeight': False, 'trialN': 9, 'loaded': True, 'loadedTime': 3671.1999999284744, 'positionName': 'RIGHT', 'positionCoords': [998.4, 335.5], 'bid': 1.8}]",19367.0,1669837767655,kiwi,luckycharms,1.71,1.8,0.09000000000000008,kiwi,1608.1999999284744,1608,1608.5,True,u,21489.399999976158,2122.399999976158,1669837769777,2122,HRV,HRV_0263,2022-11-30 19:55:27
10,"[{'imgObject': {}, 'id': 'popsicles', 'src': '/static/foodstim60/popsicles.jpg', 'key': 'u', 'origWidth': 410, 'origHeight': 410, 'width': 410, 'height': 410, 'widthPercent': 0.45, 'rescaleHeight': False, 'trialN': 10, 'loaded': True, 'loadedTime': 3858.6999999284744, 'positionName': 'LEFT', 'positionCoords': [511.6, 335], 'bid': 0.58}, {'imgObject': {}, 'id': 'Grapes', 'src': '/static/foodstim60/Grapes.jpg', 'key': 'i', 'origWidth': 411, 'origHeight': 411, 'width': 411, 'height': 411, 'widthPercent': 0.45, 'rescaleHeight': False, 'trialN': 10, 'loaded': True, 'loadedTime': 3676, 'positionName': 'RIGHT', 'positionCoords': [998.4, 334.5], 'bid': 2.09}]",21489.5,1669837769777,popsicles,Grapes,0.58,2.09,1.5099999999999998,Grapes,1230.6999999284744,1231,1231.0999999046326,True,i,23240.699999928474,1751.1999999284744,1669837771528,1751,HRV,HRV_0263,2022-11-30 19:55:27
11,"[{'imgObject': {}, 'id': 'tacos', 'src': '/static/foodstim60/tacos.jpg', 'key': 'u', 'origWidth': 411, 'origHeight': 411, 'width': 411, 'height': 411, 'widthPercent': 0.45, 'rescaleHeight': False, 'trialN': 11, 'loaded': True, 'loadedTime': 3681.5999999046326, 'positionName': 'LEFT', 'positionCoords': [510.6, 334.5], 'bid': 6.2}, {'imgObject': {}, 'id': 'cherries', 'src': '/static/foodstim60/cherries.jpg', 'key': 'i', 'origWidth': 410, 'origHeight': 411, 'width': 410, 'height': 411, 'widthPercent': 0.45, 'rescaleHeight': False, 'trialN': 11, 'loaded': True, 'loadedTime': 3694.899999976158, 'positionName': 'RIGHT', 'positionCoords': [998.4, 334.5], 'bid': 2.25}]",23241.099999904633,1669837771529,tacos,cherries,6.2,2.25,-3.95,tacos,998.7000000476837,999,999.6000000238419,True,u,24762.0,1520.9000000953674,1669837773050,1521,HRV,HRV_0263,2022-11-30 19:55:27
12,"[{'imgObject': {}, 'id': 'avocado', 'src': '/static/foodstim60/avocado.jpg', 'key': 'u', 'origWidth': 409, 'origHeight': 409, 'width': 409, 'height': 409, 'widthPercent': 0.45, 'rescaleHeight': False, 'trialN': 12, 'loaded': True, 'loadedTime': 3718.6999999284744, 'positionName': 'LEFT', 'positionCoords': [512.6, 335.5], 'bid': 1.87}, {'imgObject': {}, 'id': 'Grapes', 'src': '/static/foodstim60/Grapes.jpg', 'key': 'i', 'origWidth': 411, 'origHeight': 411, 'width': 411, 'height': 411, 'widthPercent': 0.45, 'rescaleHeight': False, 'trialN': 12, 'loaded': True, 'loadedTime': 3673.6999999284744, 'positionName': 'RIGHT', 'positionCoords': [998.4, 334.5], 'bid': 2.09}]",24762.199999928474,1669837773050,avocado,Grapes,1.87,2.09,0.21999999999999975,Grapes,1445.6000000238419,1446,1446.1000000238419,True,i,26716.399999976158,1954.2000000476837,1669837775004,1954,HRV,HRV_0263,2022-11-30 19:55:27
13,"[{'imgObject': {}, 'id': 'shreddedwheatwithmilk', 'src': '/static/foodstim60/shreddedwheatwithmilk.jpg', 'key': 'u', 'origWidth': 410, 'origHeight': 410, 'width': 410, 'height': 410, 'widthPercent': 0.45, 'rescaleHeight': False, 'trialN': 13, 'loaded': True, 'loadedTime': 3718.899999976158, 'positionName': 'LEFT', 'positionCoords': [511.6, 335], 'bid': 2.08}, {'imgObject': {}, 'id': 'froot loops w milk', 'src': '/static/foodstim60/froot loops w milk.jpg', 'key': 'i', 'origWidth': 410, 'origHeight': 410, 'width': 410, 'height': 410, 'widthPercent': 0.45, 'rescaleHeight': False, 'trialN': 13, 'loaded': True, 'loadedTime': 3737.6999999284744, 'positionName': 'RIGHT', 'positionCoords': [998.4, 335], 'bid': 1.81}]",26716.899999976158,1669837775004,shreddedwheatwithmilk,froot loops w milk,2.08,1.81,-0.27,shreddedwheatwithmilk,1498.3999999761581,1499,1498.6999999284744,True,u,28733.099999904633,2016.1999999284744,1669837777021,2017,HRV,HRV_0263,2022-11-30 19:55:27
14,"[{'imgObject': {}, 'id': 'steak', 'src': '/static/foodstim60/steak.jpg', 'key': 'u', 'origWidth': 410, 'origHeight': 410, 'width': 410, 'height': 410, 'widthPercent': 0.45, 'rescaleHeight': False, 'trialN': 14, 'loaded': True, 'loadedTime': 3739.7999999523163, 'positionName': 'LEFT', 'positionCoords': [511.6, 335], 'bid': 6.91}, {'imgObject': {}, 'id': 'granola w milk', 'src': '/static/foodstim60/granola w milk.jpg', 'key': 'i', 'origWidth': 410, 'origHeight': 410, 'width': 410, 'height': 410, 'widthPercent': 0.45, 'rescaleHeight': False, 'trialN': 14, 'loaded': True, 'loadedTime': 3740.2999999523163, 'positionName': 'RIGHT', 'positionCoords': [998.4, 335], 'bid': 2.89}]",28733.299999952316,1669837777021,steak,granola w milk,6.91,2.89,-4.02,steak,1202.2999999523163,1202,1202.6000000238419,True,u,30452.899999976158,1719.6000000238419,1669837778740,1719,HRV,HRV_0263,2022-11-30 19:55:27
15,"[{'imgObject': {}, 'id': 'tacos', 'src': '/static/foodstim60/tacos.jpg', 'key': 'u', 'origWidth': 411, 'origHeight': 411, 'width': 411, 'height': 411, 'widthPercent': 0.45, 'rescaleHeight': False, 'trialN': 15, 'loaded': True, 'loadedTime': 3681.5, 'positionName': 'LEFT', 'positionCoords': [510.6, 334.5], 'bid': 6.2}, {'imgObject': {}, 'id': 'lox', 'src': '/static/foodstim60/lox.jpg', 'key': 'i', 'origWidth': 410, 'origHeight': 411, 'width': 410, 'height': 411, 'widthPercent': 0.45, 'rescaleHeight': False, 'trialN': 15, 'loaded': True, 'loadedTime': 3664.7999999523163, 'positionName': 'RIGHT', 'positionCoords': [998.4, 334.5], 'bid': 6.22}]",30452.899999976158,1669837778741,tacos,lox,6.2,6.22,0.019999999999999574,tacos,1338.8999999761581,1339,1339.6000000238419,True,u,32305.199999928474,1852.2999999523163,1669837780593,1852,HRV,HRV_0263,2022-11-30 19:55:27
16,"[{'imgObject': {}, 'id': 'omelette', 'src': '/static/foodstim60/omelette.jpg', 'key': 'u', 'origWidth': 410, 'origHeight': 409, 'width': 410, 'height': 409, 'widthPercent': 0.45, 'rescaleHeight': False, 'trialN': 16, 'loaded': True, 'loadedTime': 3749.899999976158, 'positionName': 'LEFT', 'positionCoords': [511.6, 335.5], 'bid': 5.76}, {'imgObject': {}, 'id': 'Tribe humus pita', 'src': '/static/foodstim60/Tribe humus pita.jpg', 'key': 'i', 'origWidth': 411, 'origHeight': 411, 'width': 411, 'height': 411, 'widthPercent': 0.45, 'rescaleHeight': False, 'trialN': 16, 'loaded': True, 'loadedTime': 3767.1999999284744, 'positionName': 'RIGHT', 'positionCoords': [998.4, 334.5], 'bid': 4.46}]",32305.599999904633,1669837780593,omelette,Tribe humus pita,5.76,4.46,-1.2999999999999998,omelette,1933.7000000476837,1934,1933.9000000953674,True,u,34753.09999990463,2447.5,1669837783041,2448,HRV,HRV_0263,2022-11-30 19:55:27
17,"[{'imgObject': {}, 'id': 'fruitsalad', 'src': '/static/foodstim60/fruitsalad.jpg', 'key': 'u', 'origWidth': 410, 'origHeight': 410, 'width': 410, 'height': 410, 'widthPercent': 0.45, 'rescaleHeight': False, 'trialN': 17, 'loaded': True, 'loadedTime': 3767.899999976158, 'positionName': 'LEFT', 'positionCoords': [511.6, 335], 'bid': 2.6}, {'imgObject': {}, 'id': 'cantaloupe', 'src': '/static/foodstim60/cantaloupe.jpg', 'key': 'i', 'origWidth': 409, 'origHeight': 409, 'width': 409, 'height': 409, 'widthPercent': 0.45, 'rescaleHeight': False, 'trialN': 17, 'loaded': True, 'loadedTime': 3795.1999999284744, 'positionName': 'RIGHT', 'positionCoords': [998.4, 335.5], 'bid': 2.58}]",34753.39999997616,1669837783041,fruitsalad,cantaloupe,2.6,2.58,-0.020000000000000018,fruitsalad,1653.6999999284744,1654,1654.1000000238419,True,u,36923.5,2170.100000023842,1669837785211,2170,HRV,HRV_0263,2022-11-30 19:55:27
18,"[{'imgObject': {}, 'id': 'granola w milk', 'src': '/static/foodstim60/granola w milk.jpg', 'key': 'u', 'origWidth': 410, 'origHeight': 410, 'width': 410, 'height': 410, 'widthPercent': 0.45, 'rescaleHeight': False, 'trialN': 18, 'loaded': True, 'loadedTime': 3740.899999976158, 'positionName': 'LEFT', 'positionCoords': [511.6, 335], 'bid': 2.89}, {'imgObject': {}, 'id': 'ice cream sundae 002', 'src': '/static/foodstim60/ice cream sundae 002.jpg', 'key': 'i', 'origWidth': 409, 'origHeight': 409, 'width': 409, 'height': 409, 'widthPercent': 0.45, 'rescaleHeight': False, 'trialN': 18, 'loaded': True, 'loadedTime': 3826.399999976158, 'positionName': 'RIGHT', 'positionCoords': [998.4, 335.5], 'bid': 3.22}]",36924.0,1669837785211,granola w milk,ice cream sundae 002,2.89,3.22,0.33000000000000007,ice cream sundae 002,1147.3999999761581,1148,1147.6999999284744,True,i,38582.0,1658.0,1669837786870,1659,HRV,HRV_0263,2022-11-30 19:55:27
19,"[{'imgObject': {}, 'id': 'veggieswithdip', 'src': '/static/foodstim60/veggieswithdip.jpg', 'key': 'u', 'origWidth': 409, 'origHeight': 409, 'width': 409, 'height': 409, 'widthPercent': 0.45, 'rescaleHeight': False, 'trialN': 19, 'loaded': True, 'loadedTime': 3628, 'positionName': 'LEFT', 'positionCoords': [512.6, 335.5], 'bid': 0.4}, {'imgObject': {}, 'id': 'shreddedwheatwithmilk', 'src': '/static/foodstim60/shreddedwheatwithmilk.jpg', 'key': 'i', 'origWidth': 410, 'origHeight': 410, 'width': 410, 'height': 410, 'widthPercent': 0.45, 'rescaleHeight': False, 'trialN': 19, 'loaded': True, 'loadedTime': 3736.5999999046326, 'positionName': 'RIGHT', 'positionCoords': [998.4, 335], 'bid': 2.08}]",38582.09999990463,1669837786870,veggieswithdip,shreddedwheatwithmilk,0.4,2.08,1.6800000000000002,shreddedwheatwithmilk,1089.3000000715256,1089,1089.5,True,i,40190.299999952316,1608.2000000476837,1669837788478,1608,HRV,HRV_0263,2022-11-30 19:55:27
20,"[{'imgObject': {}, 'id': 'chickenfingers', 'src': '/static/foodstim60/chickenfingers.jpg', 'key': 'u', 'origWidth': 410, 'origHeight': 410, 'width': 410, 'height': 410, 'widthPercent': 0.45, 'rescaleHeight': False, 'trialN': 20, 'loaded': True, 'loadedTime': 3829.1999999284744, 'positionName': 'LEFT', 'positionCoords': [511.6, 335], 'bid': 6.140000000000001}, {'imgObject': {}, 'id': 'corn cob', 'src': '/static/foodstim60/corn cob.jpg', 'key': 'i', 'origWidth': 411, 'origHeight': 411, 'width': 411, 'height': 411, 'widthPercent': 0.45, 'rescaleHeight': False, 'trialN': 20, 'loaded': True, 'loadedTime': 3830.5, 'positionName': 'RIGHT', 'positionCoords': [998.4, 334.5], 'bid': 2.18}]",40190.39999997616,1669837788478,chickenfingers,corn cob,6.140000000000001,2.18,-3.9600000000000004,chickenfingers,1089.6000000238419,1091,1090.7999999523163,True,u,41791.799999952316,1601.3999999761581,1669837790079,1601,HRV,HRV_0263,2022-11-30 19:55:27
21,"[{'imgObject': {}, 'id': 'blueberries', 'src': '/static/foodstim60/blueberries.jpg', 'key': 'u', 'origWidth': 411, 'origHeight': 411, 'width': 411, 'height': 411, 'widthPercent': 0.45, 'rescaleHeight': False, 'trialN': 21, 'loaded': True, 'loadedTime': 3842.1999999284744, 'positionName': 'LEFT', 'positionCoords': [510.6, 334.5], 'bid': 1.88}, {'imgObject': {}, 'id': 'bagel plain', 'src': '/static/foodstim60/bagel plain.jpg', 'key': 'i', 'origWidth': 410, 'origHeight': 410, 'width': 410, 'height': 410, 'widthPercent': 0.45, 'rescaleHeight': False, 'trialN': 21, 'loaded': True, 'loadedTime': 3624.2999999523163, 'positionName': 'RIGHT', 'positionCoords': [998.4, 335], 'bid': 2.16}]",41791.89999997616,1669837790079,blueberries,bagel plain,1.88,2.16,0.28000000000000025,blueberries,1343.5,1344,1343.6999999284744,True,u,43659.09999990463,1867.1999999284744,1669837791947,1868,HRV,HRV_0263,2022-11-30 19:55:27
22,"[{'imgObject': {}, 'id': 'popsicles', 'src': '/static/foodstim60/popsicles.jpg', 'key': 'u', 'origWidth': 410, 'origHeight': 410, 'width': 410, 'height': 410, 'widthPercent': 0.45, 'rescaleHeight': False, 'trialN': 22, 'loaded': True, 'loadedTime': 3859.5, 'positionName': 'LEFT', 'positionCoords': [511.6, 335], 'bid': 0.58}, {'imgObject': {}, 'id': 'rigatoni', 'src': '/static/foodstim60/rigatoni.jpg', 'key': 'i', 'origWidth': 411, 'origHeight': 411, 'width': 411, 'height': 411, 'widthPercent': 0.45, 'rescaleHeight': False, 'trialN': 22, 'loaded': True, 'loadedTime': 3843.2999999523163, 'positionName': 'RIGHT', 'positionCoords': [998.4, 334.5], 'bid': 1.76}]",43659.199999928474,1669837791947,popsicles,rigatoni,0.58,1.76,1.1800000000000002,rigatoni,1052.2000000476837,1052,1052.5,True,i,45229.199999928474,1570.0,1669837793517,1570,HRV,HRV_0263,2022-11-30 19:55:27
23,"[{'imgObject': {}, 'id': 'corn cob', 'src': '/static/foodstim60/corn cob.jpg', 'key': 'u', 'origWidth': 411, 'origHeight': 411, 'width': 411, 'height': 411, 'widthPercent': 0.45, 'rescaleHeight': False, 'trialN': 23, 'loaded': True, 'loadedTime': 3830.399999976158, 'positionName': 'LEFT', 'positionCoords': [510.6, 334.5], 'bid': 2.18}, {'imgObject': {}, 'id': 'bagel plain', 'src': '/static/foodstim60/bagel plain.jpg', 'key': 'i', 'origWidth': 410, 'origHeight': 410, 'width': 410, 'height': 410, 'widthPercent': 0.45, 'rescaleHeight': False, 'trialN': 23, 'loaded': True, 'loadedTime': 3624.5999999046326, 'positionName': 'RIGHT', 'positionCoords': [998.4, 335], 'bid': 2.16}]",45229.39999997616,1669837793517,corn cob,bagel plain,2.18,2.16,-0.020000000000000018,bagel plain,1785.7999999523163,1786,1786.0,True,i,47529.0,2299.600000023842,1669837795817,2300,HRV,HRV_0263,2022-11-30 19:55:27
24,"[{'imgObject': {}, 'id': 'cherries', 'src': '/static/foodstim60/cherries.jpg', 'key': 'u', 'origWidth': 410, 'origHeight': 411, 'width': 410, 'height': 411, 'widthPercent': 0.45, 'rescaleHeight': False, 'trialN': 24, 'loaded': True, 'loadedTime': 3681.7999999523163, 'positionName': 'LEFT', 'positionCoords': [511.6, 334.5], 'bid': 2.25}, {'imgObject': {}, 'id': 'bagel plain', 'src': '/static/foodstim60/bagel plain.jpg', 'key': 'i', 'origWidth': 410, 'origHeight': 410, 'width': 410, 'height': 410, 'widthPercent': 0.45, 'rescaleHeight': False, 'trialN': 24, 'loaded': True, 'loadedTime': 3624.5, 'positionName': 'RIGHT', 'positionCoords': [998.4, 335], 'bid': 2.16}]",47529.199999928474,1669837795817,cherries,bagel plain,2.25,2.16,-0.08999999999999986,bagel plain,1766.7000000476837,1769,1769.5,True,i,49810.799999952316,2281.600000023842,1669837798098,2281,HRV,HRV_0263,2022-11-30 19:55:27
25,"[{'imgObject': {}, 'id': 'orange slices', 'src': '/static/foodstim60/orange slices.jpg', 'key': 'u', 'origWidth': 409, 'origHeight': 410, 'width': 409, 'height': 410, 'widthPercent': 0.45, 'rescaleHeight': False, 'trialN': 25, 'loaded': True, 'loadedTime': 3570.1999999284744, 'positionName': 'LEFT', 'positionCoords': [512.6, 335], 'bid': 2.67}, {'imgObject': {}, 'id': 'blackbeanswithrice', 'src': '/static/foodstim60/blackbeanswithrice.jpg', 'key': 'i', 'origWidth': 410, 'origHeight': 410, 'width': 410, 'height': 410, 'widthPercent': 0.45, 'rescaleHeight': False, 'trialN': 25, 'loaded': True, 'loadedTime': 3588.2999999523163, 'positionName': 'RIGHT', 'positionCoords': [998.4, 335], 'bid': 3.72}]",49811.0,1669837798098,orange slices,blackbeanswithrice,2.67,3.72,1.0500000000000003,blackbeanswithrice,1836.1999999284744,1836,1836.2999999523163,True,i,52156.89999997616,2345.899999976158,1669837800444,2346,HRV,HRV_0263,2022-11-30 19:55:27
26,"[{'imgObject': {}, 'id': 'fruitsalad', 'src': '/static/foodstim60/fruitsalad.jpg', 'key': 'u', 'origWidth': 410, 'origHeight': 410, 'width': 410, 'height': 410, 'widthPercent': 0.45, 'rescaleHeight': False, 'trialN': 26, 'loaded': True, 'loadedTime': 3768, 'positionName': 'LEFT', 'positionCoords': [511.6, 335], 'bid': 2.6}, {'imgObject': {}, 'id': 'froot loops w milk', 'src': '/static/foodstim60/froot loops w milk.jpg', 'key': 'i', 'origWidth': 410, 'origHeight': 410, 'width': 410, 'height': 410, 'widthPercent': 0.45, 'rescaleHeight': False, 'trialN': 26, 'loaded': True, 'loadedTime': 3737.899999976158, 'positionName': 'RIGHT', 'positionCoords': [998.4, 335], 'bid': 1.81}]",52157.09999990463,1669837800444,fruitsalad,froot loops w milk,2.6,1.81,-0.79,fruitsalad,1874.1000000238419,1874,1874.3000000715256,True,u,54541.09999990463,2384.0,1669837802828,2384,HRV,HRV_0263,2022-11-30 19:55:27
27,"[{'imgObject': {}, 'id': 'chicken nuggets2', 'src': '/static/foodstim60/chicken nuggets2.jpg', 'key': 'u', 'origWidth': 410, 'origHeight': 409, 'width': 410, 'height': 409, 'widthPercent': 0.45, 'rescaleHeight': False, 'trialN': 27, 'loaded': True, 'loadedTime': 3592.7999999523163, 'positionName': 'LEFT', 'positionCoords': [511.6, 335.5], 'bid': 4.3500000000000005}, {'imgObject': {}, 'id': 'fruitsalad', 'src': '/static/foodstim60/fruitsalad.jpg', 'key': 'i', 'origWidth': 410, 'origHeight': 410, 'width': 410, 'height': 410, 'widthPercent': 0.45, 'rescaleHeight': False, 'trialN': 27, 'loaded': True, 'loadedTime': 3767.2999999523163, 'positionName': 'RIGHT', 'positionCoords': [998.4, 335], 'bid': 2.6}]",54541.299999952316,1669837802828,chicken nuggets2,fruitsalad,4.3500000000000005,2.6,-1.7500000000000004,chicken nuggets2,1179.6000000238419,1180,1180.0,True,u,56239.0,1697.7000000476837,1669837804526,1698,HRV,HRV_0263,2022-11-30 19:55:27
28,"[{'imgObject': {}, 'id': 'cocktailshrimp', 'src': '/static/foodstim60/cocktailshrimp.jpg', 'key': 'u', 'origWidth': 410, 'origHeight': 410, 'width': 410, 'height': 410, 'widthPercent': 0.45, 'rescaleHeight': False, 'trialN': 28, 'loaded': True, 'loadedTime': 3599.1999999284744, 'positionName': 'LEFT', 'positionCoords': [511.6, 335], 'bid': 6.07}, {'imgObject': {}, 'id': 'eggsalad', 'src': '/static/foodstim60/eggsalad.jpg', 'key': 'i', 'origWidth': 410, 'origHeight': 409, 'width': 410, 'height': 409, 'widthPercent': 0.45, 'rescaleHeight': False, 'trialN': 28, 'loaded': True, 'loadedTime': 3606.2999999523163, 'positionName': 'RIGHT', 'positionCoords': [998.4, 335.5], 'bid': 3.85}]",56239.299999952316,1669837804526,cocktailshrimp,eggsalad,6.07,3.85,-2.22,cocktailshrimp,1673.0,1675,1675.0,True,u,58422.59999990463,2183.2999999523163,1669837806710,2184,HRV,HRV_0263,2022-11-30 19:55:27
29,"[{'imgObject': {}, 'id': 'sweetpotato', 'src': '/static/foodstim60/sweetpotato.jpg', 'key': 'u', 'origWidth': 410, 'origHeight': 410, 'width': 410, 'height': 410, 'widthPercent': 0.45, 'rescaleHeight': False, 'trialN': 29, 'loaded': True, 'loadedTime': 3629.0999999046326, 'positionName': 'LEFT', 'positionCoords': [511.6, 335], 'bid': 0.75}, {'imgObject': {}, 'id': 'mango', 'src': '/static/foodstim60/mango.jpg', 'key': 'i', 'origWidth': 411, 'origHeight': 411, 'width': 411, 'height': 411, 'widthPercent': 0.45, 'rescaleHeight': False, 'trialN': 29, 'loaded': True, 'loadedTime': 3610.0999999046326, 'positionName': 'RIGHT', 'positionCoords': [998.4, 334.5], 'bid': 1.16}]",58423.0,1669837806710,sweetpotato,mango,0.75,1.16,0.4099999999999999,mango,1056.8999999761581,1058,1058.3999999761581,True,i,60002.199999928474,1579.1999999284744,1669837808289,1579,HRV,HRV_0263,2022-11-30 19:55:27
30,"[{'imgObject': {}, 'id': 'froot loops w milk', 'src': '/static/foodstim60/froot loops w milk.jpg', 'key': 'u', 'origWidth': 410, 'origHeight': 410, 'width': 410, 'height': 410, 'widthPercent': 0.45, 'rescaleHeight': False, 'trialN': 30, 'loaded': True, 'loadedTime': 3737.2999999523163, 'positionName': 'LEFT', 'positionCoords': [511.6, 335], 'bid': 1.81}, {'imgObject': {}, 'id': 'blueberries', 'src': '/static/foodstim60/blueberries.jpg', 'key': 'i', 'origWidth': 411, 'origHeight': 411, 'width': 411, 'height': 411, 'widthPercent': 0.45, 'rescaleHeight': False, 'trialN': 30, 'loaded': True, 'loadedTime': 3832.5, 'positionName': 'RIGHT', 'positionCoords': [998.4, 334.5], 'bid': 1.88}]",60002.299999952316,1669837808289,froot loops w milk,blueberries,1.81,1.88,0.06999999999999984,blueberries,1685.1000000238419,1686,1685.5,True,i,62196.39999997616,2194.100000023842,1669837810483,2194,HRV,HRV_0263,2022-11-30 19:55:27
31,"[{'imgObject': {}, 'id': 'yogurt no spoon', 'src': '/static/foodstim60/yogurt no spoon.jpg', 'key': 'u', 'origWidth': 411, 'origHeight': 410, 'width': 411, 'height': 410, 'widthPercent': 0.45, 'rescaleHeight': False, 'trialN': 31, 'loaded': True, 'loadedTime': 3613.899999976158, 'positionName': 'LEFT', 'positionCoords': [510.6, 335], 'bid': 4.33}, {'imgObject': {}, 'id': 'mashed potato', 'src': '/static/foodstim60/mashed potato.jpg', 'key': 'i', 'origWidth': 409, 'origHeight': 409, 'width': 409, 'height': 409, 'widthPercent': 0.45, 'rescaleHeight': False, 'trialN': 31, 'loaded': True, 'loadedTime': 3617.5999999046326, 'positionName': 'RIGHT', 'positionCoords': [998.4, 335.5], 'bid': 4.8}]",62196.5,1669837810483,yogurt no spoon,mashed potato,4.33,4.8,0.46999999999999975,mashed potato,1458.8999999761581,1460,1459.0999999046326,True,i,64164.299999952316,1967.7999999523163,1669837812451,1968,HRV,HRV_0263,2022-11-30 19:55:27
32,"[{'imgObject': {}, 'id': 'apple slices', 'src': '/static/foodstim60/apple slices.jpg', 'key': 'u', 'origWidth': 409, 'origHeight': 410, 'width': 409, 'height': 410, 'widthPercent': 0.45, 'rescaleHeight': False, 'trialN': 32, 'loaded': True, 'loadedTime': 3621.1999999284744, 'positionName': 'LEFT', 'positionCoords': [512.6, 335], 'bid': 2.5}, {'imgObject': {}, 'id': 'ice cream sundae 002', 'src': '/static/foodstim60/ice cream sundae 002.jpg', 'key': 'i', 'origWidth': 409, 'origHeight': 409, 'width': 409, 'height': 409, 'widthPercent': 0.45, 'rescaleHeight': False, 'trialN': 32, 'loaded': True, 'loadedTime': 3826.1999999284744, 'positionName': 'RIGHT', 'positionCoords': [998.4, 335.5], 'bid': 3.22}]",64164.59999990463,1669837812452,apple slices,ice cream sundae 002,2.5,3.22,0.7200000000000002,ice cream sundae 002,1435.3000000715256,1435,1435.9000000953674,True,i,66114.29999995232,1949.7000000476837,1669837814401,1949,HRV,HRV_0263,2022-11-30 19:55:27
33,"[{'imgObject': {}, 'id': 'salad w chicken', 'src': '/static/foodstim60/salad w chicken.jpg', 'key': 'u', 'origWidth': 411, 'origHeight': 411, 'width': 411, 'height': 411, 'widthPercent': 0.45, 'rescaleHeight': False, 'trialN': 33, 'loaded': True, 'loadedTime': 3630.399999976158, 'positionName': 'LEFT', 'positionCoords': [510.6, 334.5], 'bid': 5.3500000000000005}, {'imgObject': {}, 'id': 'sushi w_condiments', 'src': '/static/foodstim60/sushi w_condiments.jpg', 'key': 'i', 'origWidth': 410, 'origHeight': 410, 'width': 410, 'height': 410, 'widthPercent': 0.45, 'rescaleHeight': False, 'trialN': 33, 'loaded': True, 'loadedTime': 3637.5999999046326, 'positionName': 'RIGHT', 'positionCoords': [998.4, 335], 'bid': 6.78}]",66114.5,1669837814401,salad w chicken,sushi w_condiments,5.3500000000000005,6.78,1.4299999999999997,sushi w_condiments,1148.7999999523163,1150,1149.0999999046326,True,i,67773.0,1658.5,1669837816060,1659,HRV,HRV_0263,2022-11-30 19:55:27
34,"[{'imgObject': {}, 'id': 'turkey sandwich', 'src': '/static/foodstim60/turkey sandwich.jpg', 'key': 'u', 'origWidth': 409, 'origHeight': 409, 'width': 409, 'height': 409, 'widthPercent': 0.45, 'rescaleHeight': False, 'trialN': 34, 'loaded': True, 'loadedTime': 3631.6999999284744, 'positionName': 'LEFT', 'positionCoords': [512.6, 335.5], 'bid': 5.83}, {'imgObject': {}, 'id': 'fried eggs', 'src': '/static/foodstim60/fried eggs.jpg', 'key': 'i', 'origWidth': 410, 'origHeight': 410, 'width': 410, 'height': 410, 'widthPercent': 0.45, 'rescaleHeight': False, 'trialN': 34, 'loaded': True, 'loadedTime': 3636.399999976158, 'positionName': 'RIGHT', 'positionCoords': [998.4, 335], 'bid': 6.61}]",67773.39999997616,1669837816060,turkey sandwich,fried eggs,5.83,6.61,0.7800000000000002,fried eggs,1297.7999999523163,1298,1298.0,True,i,69580.89999997616,1807.5,1669837817868,1808,HRV,HRV_0263,2022-11-30 19:55:27
35,"[{'imgObject': {}, 'id': 'lox', 'src': '/static/foodstim60/lox.jpg', 'key': 'u', 'origWidth': 410, 'origHeight': 411, 'width': 410, 'height': 411, 'widthPercent': 0.45, 'rescaleHeight': False, 'trialN': 35, 'loaded': True, 'loadedTime': 3664.0999999046326, 'positionName': 'LEFT', 'positionCoords': [511.6, 334.5], 'bid': 6.22}, {'imgObject': {}, 'id': 'eggs', 'src': '/static/foodstim60/eggs.jpg', 'key': 'i', 'origWidth': 409, 'origHeight': 409, 'width': 409, 'height': 409, 'widthPercent': 0.45, 'rescaleHeight': False, 'trialN': 35, 'loaded': True, 'loadedTime': 3634.5, 'positionName': 'RIGHT', 'positionCoords': [998.4, 335.5], 'bid': 4.37}]",69581.0,1669837817868,lox,eggs,6.22,4.37,-1.8499999999999996,lox,1482.2999999523163,1482,1482.5999999046326,True,u,71581.59999990463,2000.5999999046326,1669837819869,2001,HRV,HRV_0263,2022-11-30 19:55:27
36,"[{'imgObject': {}, 'id': 'blackbeanswithrice', 'src': '/static/foodstim60/blackbeanswithrice.jpg', 'key': 'u', 'origWidth': 410, 'origHeight': 410, 'width': 410, 'height': 410, 'widthPercent': 0.45, 'rescaleHeight': False, 'trialN': 36, 'loaded': True, 'loadedTime': 3589.5, 'positionName': 'LEFT', 'positionCoords': [511.6, 335], 'bid': 3.72}, {'imgObject': {}, 'id': 'raspberries', 'src': '/static/foodstim60/raspberries.jpg', 'key': 'i', 'origWidth': 411, 'origHeight': 411, 'width': 411, 'height': 411, 'widthPercent': 0.45, 'rescaleHeight': False, 'trialN': 36, 'loaded': True, 'loadedTime': 3635.5, 'positionName': 'RIGHT', 'positionCoords': [998.4, 334.5], 'bid': 2.45}]",71581.79999995232,1669837819869,blackbeanswithrice,raspberries,3.72,2.45,-1.27,blackbeanswithrice,1377.7000000476837,1378,1377.8999999761581,True,u,73482.09999990463,1900.2999999523163,1669837821769,1900,HRV,HRV_0263,2022-11-30 19:55:27
37,"[{'imgObject': {}, 'id': 'salad w chicken', 'src': '/static/foodstim60/salad w chicken.jpg', 'key': 'u', 'origWidth': 411, 'origHeight': 411, 'width': 411, 'height': 411, 'widthPercent': 0.45, 'rescaleHeight': False, 'trialN': 37, 'loaded': True, 'loadedTime': 3629.5999999046326, 'positionName': 'LEFT', 'positionCoords': [510.6, 334.5], 'bid': 5.3500000000000005}, {'imgObject': {}, 'id': 'chicken nuggets2', 'src': '/static/foodstim60/chicken nuggets2.jpg', 'key': 'i', 'origWidth': 410, 'origHeight': 409, 'width': 410, 'height': 409, 'widthPercent': 0.45, 'rescaleHeight': False, 'trialN': 37, 'loaded': True, 'loadedTime': 3593.0999999046326, 'positionName': 'RIGHT', 'positionCoords': [998.4, 335.5], 'bid': 4.3500000000000005}]",73482.19999992847,1669837821769,salad w chicken,chicken nuggets2,5.3500000000000005,4.3500000000000005,-1.0,salad w chicken,1869.1000000238419,1870,1869.5,True,u,75861.0,2378.8000000715256,1669837824148,2379,HRV,HRV_0263,2022-11-30 19:55:27
38,"[{'imgObject': {}, 'id': 'corn cob', 'src': '/static/foodstim60/corn cob.jpg', 'key': 'u', 'origWidth': 411, 'origHeight': 411, 'width': 411, 'height': 411, 'widthPercent': 0.45, 'rescaleHeight': False, 'trialN': 38, 'loaded': True, 'loadedTime': 3830.6999999284744, 'positionName': 'LEFT', 'positionCoords': [510.6, 334.5], 'bid': 2.18}, {'imgObject': {}, 'id': 'ice cream sundae 002', 'src': '/static/foodstim60/ice cream sundae 002.jpg', 'key': 'i', 'origWidth': 409, 'origHeight': 409, 'width': 409, 'height': 409, 'widthPercent': 0.45, 'rescaleHeight': False, 'trialN': 38, 'loaded': True, 'loadedTime': 3814.5999999046326, 'positionName': 'RIGHT', 'positionCoords': [998.4, 335.5], 'bid': 3.22}]",75861.59999990463,1669837824149,corn cob,ice cream sundae 002,2.18,3.22,1.04,ice cream sundae 002,1907.2000000476837,1907,1907.7000000476837,True,i,78285.5,2423.9000000953674,1669837826573,2424,HRV,HRV_0263,2022-11-30 19:55:27
39,"[{'imgObject': {}, 'id': 'ice cream sundae 002', 'src': '/static/foodstim60/ice cream sundae 002.jpg', 'key': 'u', 'origWidth': 409, 'origHeight': 409, 'width': 409, 'height': 409, 'widthPercent': 0.45, 'rescaleHeight': False, 'trialN': 39, 'loaded': True, 'loadedTime': 3826.2999999523163, 'positionName': 'LEFT', 'positionCoords': [512.6, 335.5], 'bid': 3.22}, {'imgObject': {}, 'id': 'turkey sandwich', 'src': '/static/foodstim60/turkey sandwich.jpg', 'key': 'i', 'origWidth': 409, 'origHeight': 409, 'width': 409, 'height': 409, 'widthPercent': 0.45, 'rescaleHeight': False, 'trialN': 39, 'loaded': True, 'loadedTime': 3631.7999999523163, 'positionName': 'RIGHT', 'positionCoords': [998.4, 335.5], 'bid': 5.83}]",78285.79999995232,1669837826573,ice cream sundae 002,turkey sandwich,3.22,5.83,2.61,turkey sandwich,1105.7999999523163,1106,1106.0,True,i,79912.39999997616,1626.6000000238419,1669837828199,1626,HRV,HRV_0263,2022-11-30 19:55:27
40,"[{'imgObject': {}, 'id': 'steak', 'src': '/static/foodstim60/steak.jpg', 'key': 'u', 'origWidth': 410, 'origHeight': 410, 'width': 410, 'height': 410, 'widthPercent': 0.45, 'rescaleHeight': False, 'trialN': 40, 'loaded': True, 'loadedTime': 3738.2999999523163, 'positionName': 'LEFT', 'positionCoords': [511.6, 335], 'bid': 6.91}, {'imgObject': {}, 'id': 'lox', 'src': '/static/foodstim60/lox.jpg', 'key': 'i', 'origWidth': 410, 'origHeight': 411, 'width': 410, 'height': 411, 'widthPercent': 0.45, 'rescaleHeight': False, 'trialN': 40, 'loaded': True, 'loadedTime': 3665.1999999284744, 'positionName': 'RIGHT', 'positionCoords': [998.4, 334.5], 'bid': 6.22}]",79912.59999990463,1669837828200,steak,lox,6.91,6.22,-0.6900000000000004,steak,1390.4000000953674,1390,1390.6000000238419,True,u,81816.5,1903.9000000953674,1669837830103,1903,HRV,HRV_0263,2022-11-30 19:55:27
41,"[{'imgObject': {}, 'id': 'cheerios', 'src': '/static/foodstim60/cheerios.jpg', 'key': 'u', 'origWidth': 409, 'origHeight': 410, 'width': 409, 'height': 410, 'widthPercent': 0.45, 'rescaleHeight': False, 'trialN': 41, 'loaded': True, 'loadedTime': 3669.7999999523163, 'positionName': 'LEFT', 'positionCoords': [512.6, 335], 'bid': 1.57}, {'imgObject': {}, 'id': 'rigatoni', 'src': '/static/foodstim60/rigatoni.jpg', 'key': 'i', 'origWidth': 411, 'origHeight': 411, 'width': 411, 'height': 411, 'widthPercent': 0.45, 'rescaleHeight': False, 'trialN': 41, 'loaded': True, 'loadedTime': 3842.5, 'positionName': 'RIGHT', 'positionCoords': [998.4, 334.5], 'bid': 1.76}]",81816.69999992847,1669837830104,cheerios,rigatoni,1.57,1.76,0.18999999999999995,rigatoni,1663.2000000476837,1665,1665.0,True,i,84000.5,2183.8000000715256,1669837832287,2183,HRV,HRV_0263,2022-11-30 19:55:27
42,"[{'imgObject': {}, 'id': 'raspberries', 'src': '/static/foodstim60/raspberries.jpg', 'key': 'u', 'origWidth': 411, 'origHeight': 411, 'width': 411, 'height': 411, 'widthPercent': 0.45, 'rescaleHeight': False, 'trialN': 42, 'loaded': True, 'loadedTime': 3635.5999999046326, 'positionName': 'LEFT', 'positionCoords': [510.6, 334.5], 'bid': 2.45}, {'imgObject': {}, 'id': 'apple slices', 'src': '/static/foodstim60/apple slices.jpg', 'key': 'i', 'origWidth': 409, 'origHeight': 410, 'width': 409, 'height': 410, 'widthPercent': 0.45, 'rescaleHeight': False, 'trialN': 42, 'loaded': True, 'loadedTime': 3620.899999976158, 'positionName': 'RIGHT', 'positionCoords': [998.4, 335], 'bid': 2.5}]",84000.79999995232,1669837832288,raspberries,apple slices,2.45,2.5,0.04999999999999982,apple slices,1583.5,1584,1584.2999999523163,True,i,86092.69999992847,2091.899999976158,1669837834380,2092,HRV,HRV_0263,2022-11-30 19:55:27
43,"[{'imgObject': {}, 'id': 'mac & cheese', 'src': '/static/foodstim60/mac & cheese.jpg', 'key': 'u', 'origWidth': 410, 'origHeight': 410, 'width': 410, 'height': 410, 'widthPercent': 0.45, 'rescaleHeight': False, 'trialN': 43, 'loaded': True, 'loadedTime': 3672.6999999284744, 'positionName': 'LEFT', 'positionCoords': [511.6, 335], 'bid': 4.68}, {'imgObject': {}, 'id': 'chickenfingers', 'src': '/static/foodstim60/chickenfingers.jpg', 'key': 'i', 'origWidth': 410, 'origHeight': 410, 'width': 410, 'height': 410, 'widthPercent': 0.45, 'rescaleHeight': False, 'trialN': 43, 'loaded': True, 'loadedTime': 3829, 'positionName': 'RIGHT', 'positionCoords': [998.4, 335], 'bid': 6.140000000000001}]",86093.19999992847,1669837834380,mac & cheese,chickenfingers,4.68,6.140000000000001,1.4600000000000009,chickenfingers,1530.7000000476837,1531,1531.1000000238419,True,i,88146.5,2053.3000000715256,1669837836434,2054,HRV,HRV_0263,2022-11-30 19:55:27
44,"[{'imgObject': {}, 'id': 'omelette', 'src': '/static/foodstim60/omelette.jpg', 'key': 'u', 'origWidth': 410, 'origHeight': 409, 'width': 410, 'height': 409, 'widthPercent': 0.45, 'rescaleHeight': False, 'trialN': 44, 'loaded': True, 'loadedTime': 3751.899999976158, 'positionName': 'LEFT', 'positionCoords': [511.6, 335.5], 'bid': 5.76}, {'imgObject': {}, 'id': 'strawberries', 'src': '/static/foodstim60/strawberries.jpg', 'key': 'i', 'origWidth': 410, 'origHeight': 410, 'width': 410, 'height': 410, 'widthPercent': 0.45, 'rescaleHeight': False, 'trialN': 44, 'loaded': True, 'loadedTime': 3624.899999976158, 'positionName': 'RIGHT', 'positionCoords': [998.4, 335], 'bid': 3}]",88147.19999992847,1669837836434,omelette,strawberries,5.76,3.0,-2.76,omelette,1196.3999999761581,1198,1197.5,True,u,89853.5,1706.3000000715256,1669837838141,1707,HRV,HRV_0263,2022-11-30 19:55:27
45,"[{'imgObject': {}, 'id': 'bagel and cc', 'src': '/static/foodstim60/bagel and cc.jpg', 'key': 'u', 'origWidth': 410, 'origHeight': 410, 'width': 410, 'height': 410, 'widthPercent': 0.45, 'rescaleHeight': False, 'trialN': 45, 'loaded': True, 'loadedTime': 3695.0999999046326, 'positionName': 'LEFT', 'positionCoords': [511.6, 335], 'bid': 2.08}, {'imgObject': {}, 'id': 'hotdog w must', 'src': '/static/foodstim60/hotdog w must.jpg', 'key': 'i', 'origWidth': 409, 'origHeight': 409, 'width': 409, 'height': 409, 'widthPercent': 0.45, 'rescaleHeight': False, 'trialN': 45, 'loaded': True, 'loadedTime': 3535.0999999046326, 'positionName': 'RIGHT', 'positionCoords': [998.4, 335.5], 'bid': 5.86}]",89854.0,1669837838141,bagel and cc,hotdog w must,2.08,5.86,3.7800000000000002,hotdog w must,1194.3999999761581,1195,1195.1999999284744,True,i,91569.79999995232,1715.7999999523163,1669837839857,1716,HRV,HRV_0263,2022-11-30 19:55:27
46,"[{'imgObject': {}, 'id': 'cherries', 'src': '/static/foodstim60/cherries.jpg', 'key': 'u', 'origWidth': 410, 'origHeight': 411, 'width': 410, 'height': 411, 'widthPercent': 0.45, 'rescaleHeight': False, 'trialN': 46, 'loaded': True, 'loadedTime': 3694.7999999523163, 'positionName': 'LEFT', 'positionCoords': [511.6, 334.5], 'bid': 2.25}, {'imgObject': {}, 'id': 'pear', 'src': '/static/foodstim60/pear.jpg', 'key': 'i', 'origWidth': 411, 'origHeight': 410, 'width': 411, 'height': 410, 'widthPercent': 0.45, 'rescaleHeight': False, 'trialN': 46, 'loaded': True, 'loadedTime': 3623.1999999284744, 'positionName': 'RIGHT', 'positionCoords': [998.4, 335], 'bid': 2.44}]",91570.0,1669837839857,cherries,pear,2.25,2.44,0.18999999999999995,pear,1693.5,1694,1694.0999999046326,True,i,93773.59999990463,2203.5999999046326,1669837842061,2204,HRV,HRV_0263,2022-11-30 19:55:27
47,"[{'imgObject': {}, 'id': 'popsicles', 'src': '/static/foodstim60/popsicles.jpg', 'key': 'u', 'origWidth': 410, 'origHeight': 410, 'width': 410, 'height': 410, 'widthPercent': 0.45, 'rescaleHeight': False, 'trialN': 47, 'loaded': True, 'loadedTime': 3859.5999999046326, 'positionName': 'LEFT', 'positionCoords': [511.6, 335], 'bid': 0.58}, {'imgObject': {}, 'id': 'blueberries', 'src': '/static/foodstim60/blueberries.jpg', 'key': 'i', 'origWidth': 411, 'origHeight': 411, 'width': 411, 'height': 411, 'widthPercent': 0.45, 'rescaleHeight': False, 'trialN': 47, 'loaded': True, 'loadedTime': 3832.5999999046326, 'positionName': 'RIGHT', 'positionCoords': [998.4, 334.5], 'bid': 1.88}]",93773.89999997616,1669837842061,popsicles,blueberries,0.58,1.88,1.2999999999999998,blueberries,1105.8999999761581,1106,1106.1999999284744,True,i,95399.0,1625.1000000238419,1669837843686,1625,HRV,HRV_0263,2022-11-30 19:55:27
48,"[{'imgObject': {}, 'id': 'orange slices', 'src': '/static/foodstim60/orange slices.jpg', 'key': 'u', 'origWidth': 409, 'origHeight': 410, 'width': 409, 'height': 410, 'widthPercent': 0.45, 'rescaleHeight': False, 'trialN': 48, 'loaded': True, 'loadedTime': 3571.0999999046326, 'positionName': 'LEFT', 'positionCoords': [512.6, 335], 'bid': 2.67}, {'imgObject': {}, 'id': 'strawberries', 'src': '/static/foodstim60/strawberries.jpg', 'key': 'i', 'origWidth': 410, 'origHeight': 410, 'width': 410, 'height': 410, 'widthPercent': 0.45, 'rescaleHeight': False, 'trialN': 48, 'loaded': True, 'loadedTime': 3625.6999999284744, 'positionName': 'RIGHT', 'positionCoords': [998.4, 335], 'bid': 3}]",95399.09999990463,1669837843686,orange slices,strawberries,2.67,3.0,0.33000000000000007,strawberries,1112.1000000238419,1112,1112.4000000953674,True,i,97028.5,1629.4000000953674,1669837845315,1629,HRV,HRV_0263,2022-11-30 19:55:27
49,"[{'imgObject': {}, 'id': 'steak', 'src': '/static/foodstim60/steak.jpg', 'key': 'u', 'origWidth': 410, 'origHeight': 410, 'width': 410, 'height': 410, 'widthPercent': 0.45, 'rescaleHeight': False, 'trialN': 49, 'loaded': True, 'loadedTime': 3739.2999999523163, 'positionName': 'LEFT', 'positionCoords': [511.6, 335], 'bid': 6.91}, {'imgObject': {}, 'id': 'grilled chicken strips', 'src': '/static/foodstim60/grilled chicken strips.jpg', 'key': 'i', 'origWidth': 410, 'origHeight': 411, 'width': 410, 'height': 411, 'widthPercent': 0.45, 'rescaleHeight': False, 'trialN': 49, 'loaded': True, 'loadedTime': 3749.2999999523163, 'positionName': 'RIGHT', 'positionCoords': [998.4, 334.5], 'bid': 5.96}]",97028.59999990463,1669837845315,steak,grilled chicken strips,6.91,5.96,-0.9500000000000002,steak,1306.5,1307,1306.6000000238419,True,u,98844.0,1815.4000000953674,1669837847131,1816,HRV,HRV_0263,2022-11-30 19:55:27
50,"[{'imgObject': {}, 'id': 'mashed potato', 'src': '/static/foodstim60/mashed potato.jpg', 'key': 'u', 'origWidth': 409, 'origHeight': 409, 'width': 409, 'height': 409, 'widthPercent': 0.45, 'rescaleHeight': False, 'trialN': 50, 'loaded': True, 'loadedTime': 3616.1999999284744, 'positionName': 'LEFT', 'positionCoords': [512.6, 335.5], 'bid': 4.8}, {'imgObject': {}, 'id': 'roastedpotatoes', 'src': '/static/foodstim60/roastedpotatoes.jpg', 'key': 'i', 'origWidth': 409, 'origHeight': 410, 'width': 409, 'height': 410, 'widthPercent': 0.45, 'rescaleHeight': False, 'trialN': 50, 'loaded': True, 'loadedTime': 3766, 'positionName': 'RIGHT', 'positionCoords': [998.4, 335], 'bid': 4.59}]",98844.5,1669837847131,mashed potato,roastedpotatoes,4.8,4.59,-0.20999999999999996,mashed potato,2123.0999999046326,2124,2123.1999999284744,True,u,101486.5,2642.0,1669837849774,2643,HRV,HRV_0263,2022-11-30 19:55:27
51,"[{'imgObject': {}, 'id': 'roastedpotatoes', 'src': '/static/foodstim60/roastedpotatoes.jpg', 'key': 'u', 'origWidth': 409, 'origHeight': 410, 'width': 409, 'height': 410, 'widthPercent': 0.45, 'rescaleHeight': False, 'trialN': 51, 'loaded': True, 'loadedTime': 3752.899999976158, 'positionName': 'LEFT', 'positionCoords': [512.6, 335], 'bid': 4.59}, {'imgObject': {}, 'id': 'rigatoni', 'src': '/static/foodstim60/rigatoni.jpg', 'key': 'i', 'origWidth': 411, 'origHeight': 411, 'width': 411, 'height': 411, 'widthPercent': 0.45, 'rescaleHeight': False, 'trialN': 51, 'loaded': True, 'loadedTime': 3843.1999999284744, 'positionName': 'RIGHT', 'positionCoords': [998.4, 334.5], 'bid': 1.76}]",101486.89999997616,1669837849774,roastedpotatoes,rigatoni,4.59,1.76,-2.83,roastedpotatoes,2025.1000000238419,2026,2026.5,True,u,104030.19999992847,2543.2999999523163,1669837852317,2543,HRV,HRV_0263,2022-11-30 19:55:27
52,"[{'imgObject': {}, 'id': 'chicken nuggets2', 'src': '/static/foodstim60/chicken nuggets2.jpg', 'key': 'u', 'origWidth': 410, 'origHeight': 409, 'width': 410, 'height': 409, 'widthPercent': 0.45, 'rescaleHeight': False, 'trialN': 52, 'loaded': True, 'loadedTime': 3593.1999999284744, 'positionName': 'LEFT', 'positionCoords': [511.6, 335.5], 'bid': 4.3500000000000005}, {'imgObject': {}, 'id': 'yogurt no spoon', 'src': '/static/foodstim60/yogurt no spoon.jpg', 'key': 'i', 'origWidth': 411, 'origHeight': 410, 'width': 411, 'height': 410, 'widthPercent': 0.45, 'rescaleHeight': False, 'trialN': 52, 'loaded': True, 'loadedTime': 3614.1999999284744, 'positionName': 'RIGHT', 'positionCoords': [998.4, 335], 'bid': 4.33}]",104031.79999995232,1669837852319,chicken nuggets2,yogurt no spoon,4.3500000000000005,4.33,-0.020000000000000462,chicken nuggets2,1312.1000000238419,1313,1313.3999999761581,True,u,105861.59999990463,1829.7999999523163,1669837854149,1830,HRV,HRV_0263,2022-11-30 19:55:27
53,"[{'imgObject': {}, 'id': 'yogurt no spoon', 'src': '/static/foodstim60/yogurt no spoon.jpg', 'key': 'u', 'origWidth': 411, 'origHeight': 410, 'width': 411, 'height': 410, 'widthPercent': 0.45, 'rescaleHeight': False, 'trialN': 53, 'loaded': True, 'loadedTime': 3614.5999999046326, 'positionName': 'LEFT', 'positionCoords': [510.6, 335], 'bid': 4.33}, {'imgObject': {}, 'id': 'cherry tomato', 'src': '/static/foodstim60/cherry tomato.jpg', 'key': 'i', 'origWidth': 410, 'origHeight': 410, 'width': 410, 'height': 410, 'widthPercent': 0.45, 'rescaleHeight': False, 'trialN': 53, 'loaded': True, 'loadedTime': 3768.6999999284744, 'positionName': 'RIGHT', 'positionCoords': [998.4, 335], 'bid': 1.15}]",105862.5,1669837854150,yogurt no spoon,cherry tomato,4.33,1.15,-3.18,yogurt no spoon,1184.8999999761581,1185,1185.5,True,u,107552.79999995232,1690.2999999523163,1669837855840,1690,HRV,HRV_0263,2022-11-30 19:55:27
54,"[{'imgObject': {}, 'id': 'sushi w_condiments', 'src': '/static/foodstim60/sushi w_condiments.jpg', 'key': 'u', 'origWidth': 410, 'origHeight': 410, 'width': 410, 'height': 410, 'widthPercent': 0.45, 'rescaleHeight': False, 'trialN': 54, 'loaded': True, 'loadedTime': 3637.399999976158, 'positionName': 'LEFT', 'positionCoords': [511.6, 335], 'bid': 6.78}, {'imgObject': {}, 'id': 'steak', 'src': '/static/foodstim60/steak.jpg', 'key': 'i', 'origWidth': 410, 'origHeight': 410, 'width': 410, 'height': 410, 'widthPercent': 0.45, 'rescaleHeight': False, 'trialN': 54, 'loaded': True, 'loadedTime': 3739.1999999284744, 'positionName': 'RIGHT', 'positionCoords': [998.4, 335], 'bid': 6.91}]",107552.79999995232,1669837855840,sushi w_condiments,steak,6.78,6.91,0.1299999999999999,steak,1343.2999999523163,1346,1346.2999999523163,True,i,109408.79999995232,1856.0,1669837857696,1856,HRV,HRV_0263,2022-11-30 19:55:27
55,"[{'imgObject': {}, 'id': 'raisin bran w milk', 'src': '/static/foodstim60/raisin bran w milk.jpg', 'key': 'u', 'origWidth': 411, 'origHeight': 411, 'width': 411, 'height': 411, 'widthPercent': 0.45, 'rescaleHeight': False, 'trialN': 55, 'loaded': True, 'loadedTime': 3633.1999999284744, 'positionName': 'LEFT', 'positionCoords': [510.6, 334.5], 'bid': 1.93}, {'imgObject': {}, 'id': 'omelette', 'src': '/static/foodstim60/omelette.jpg', 'key': 'i', 'origWidth': 410, 'origHeight': 409, 'width': 410, 'height': 409, 'widthPercent': 0.45, 'rescaleHeight': False, 'trialN': 55, 'loaded': True, 'loadedTime': 3752, 'positionName': 'RIGHT', 'positionCoords': [998.4, 335.5], 'bid': 5.76}]",109409.09999990463,1669837857697,raisin bran w milk,omelette,1.93,5.76,3.83,omelette,1118.1000000238419,1119,1119.4000000953674,True,i,111042.79999995232,1633.7000000476837,1669837859330,1633,HRV,HRV_0263,2022-11-30 19:55:27
56,"[{'imgObject': {}, 'id': 'kiwi', 'src': '/static/foodstim60/kiwi.jpg', 'key': 'u', 'origWidth': 410, 'origHeight': 410, 'width': 410, 'height': 410, 'widthPercent': 0.45, 'rescaleHeight': False, 'trialN': 56, 'loaded': True, 'loadedTime': 3666, 'positionName': 'LEFT', 'positionCoords': [511.6, 335], 'bid': 1.71}, {'imgObject': {}, 'id': 'Grapes', 'src': '/static/foodstim60/Grapes.jpg', 'key': 'i', 'origWidth': 411, 'origHeight': 411, 'width': 411, 'height': 411, 'widthPercent': 0.45, 'rescaleHeight': False, 'trialN': 56, 'loaded': True, 'loadedTime': 3675.899999976158, 'positionName': 'RIGHT', 'positionCoords': [998.4, 334.5], 'bid': 2.09}]",111043.09999990463,1669837859331,kiwi,Grapes,1.71,2.09,0.3799999999999999,Grapes,1588.3000000715256,1588,1588.5,True,i,113152.79999995232,2109.7000000476837,1669837861440,2109,HRV,HRV_0263,2022-11-30 19:55:27
57,"[{'imgObject': {}, 'id': 'eggs', 'src': '/static/foodstim60/eggs.jpg', 'key': 'u', 'origWidth': 409, 'origHeight': 409, 'width': 409, 'height': 409, 'widthPercent': 0.45, 'rescaleHeight': False, 'trialN': 57, 'loaded': True, 'loadedTime': 3634.399999976158, 'positionName': 'LEFT', 'positionCoords': [512.6, 335.5], 'bid': 4.37}, {'imgObject': {}, 'id': 'rigatoni and sauce', 'src': '/static/foodstim60/rigatoni and sauce.jpg', 'key': 'i', 'origWidth': 410, 'origHeight': 411, 'width': 410, 'height': 411, 'widthPercent': 0.45, 'rescaleHeight': False, 'trialN': 57, 'loaded': True, 'loadedTime': 3663.899999976158, 'positionName': 'RIGHT', 'positionCoords': [998.4, 334.5], 'bid': 5.4}]",113153.09999990463,1669837861441,eggs,rigatoni and sauce,4.37,5.4,1.0300000000000002,rigatoni and sauce,1270.6000000238419,1271,1271.1000000238419,True,i,114940.19999992847,1787.1000000238419,1669837863228,1787,HRV,HRV_0263,2022-11-30 19:55:27
58,"[{'imgObject': {}, 'id': 'corn cob', 'src': '/static/foodstim60/corn cob.jpg', 'key': 'u', 'origWidth': 411, 'origHeight': 411, 'width': 411, 'height': 411, 'widthPercent': 0.45, 'rescaleHeight': False, 'trialN': 58, 'loaded': True, 'loadedTime': 3830.1999999284744, 'positionName': 'LEFT', 'positionCoords': [510.6, 334.5], 'bid': 2.18}, {'imgObject': {}, 'id': 'cherry tomato', 'src': '/static/foodstim60/cherry tomato.jpg', 'key': 'i', 'origWidth': 410, 'origHeight': 410, 'width': 410, 'height': 410, 'widthPercent': 0.45, 'rescaleHeight': False, 'trialN': 58, 'loaded': True, 'loadedTime': 3768.899999976158, 'positionName': 'RIGHT', 'positionCoords': [998.4, 335], 'bid': 1.15}]",114940.5,1669837863228,corn cob,cherry tomato,2.18,1.15,-1.0300000000000002,corn cob,1347.5999999046326,1348,1348.1999999284744,True,u,116800.59999990463,1860.0999999046326,1669837865088,1860,HRV,HRV_0263,2022-11-30 19:55:27
59,"[{'imgObject': {}, 'id': 'eggs', 'src': '/static/foodstim60/eggs.jpg', 'key': 'u', 'origWidth': 409, 'origHeight': 409, 'width': 409, 'height': 409, 'widthPercent': 0.45, 'rescaleHeight': False, 'trialN': 59, 'loaded': True, 'loadedTime': 3634.0999999046326, 'positionName': 'LEFT', 'positionCoords': [512.6, 335.5], 'bid': 4.37}, {'imgObject': {}, 'id': 'orange slices', 'src': '/static/foodstim60/orange slices.jpg', 'key': 'i', 'origWidth': 409, 'origHeight': 410, 'width': 409, 'height': 410, 'widthPercent': 0.45, 'rescaleHeight': False, 'trialN': 59, 'loaded': True, 'loadedTime': 3587.6999999284744, 'positionName': 'RIGHT', 'positionCoords': [998.4, 335], 'bid': 2.67}]",116800.69999992847,1669837865088,eggs,orange slices,4.37,2.67,-1.7000000000000002,eggs,1278.7000000476837,1279,1279.0,True,u,118594.19999992847,1793.5,1669837866882,1794,HRV,HRV_0263,2022-11-30 19:55:27
60,"[{'imgObject': {}, 'id': 'rigatoni', 'src': '/static/foodstim60/rigatoni.jpg', 'key': 'u', 'origWidth': 411, 'origHeight': 411, 'width': 411, 'height': 411, 'widthPercent': 0.45, 'rescaleHeight': False, 'trialN': 60, 'loaded': True, 'loadedTime': 3843.399999976158, 'positionName': 'LEFT', 'positionCoords': [510.6, 334.5], 'bid': 1.76}, {'imgObject': {}, 'id': 'olives', 'src': '/static/foodstim60/olives.jpg', 'key': 'i', 'origWidth': 410, 'origHeight': 410, 'width': 410, 'height': 410, 'widthPercent': 0.45, 'rescaleHeight': False, 'trialN': 60, 'loaded': True, 'loadedTime': 3796.399999976158, 'positionName': 'RIGHT', 'positionCoords': [998.4, 335], 'bid': 0.19}]",118594.39999997616,1669837866882,rigatoni,olives,1.76,0.19,-1.57,rigatoni,1165.1000000238419,1165,1165.6000000238419,True,u,120268.29999995232,1673.8999999761581,1669837868556,1674,HRV,HRV_0263,2022-11-30 19:55:27
61,"[{'imgObject': {}, 'id': 'cantaloupe', 'src': '/static/foodstim60/cantaloupe.jpg', 'key': 'u', 'origWidth': 409, 'origHeight': 409, 'width': 409, 'height': 409, 'widthPercent': 0.45, 'rescaleHeight': False, 'trialN': 61, 'loaded': True, 'loadedTime': 3795.1999999284744, 'positionName': 'LEFT', 'positionCoords': [512.6, 335.5], 'bid': 2.58}, {'imgObject': {}, 'id': 'luckycharms', 'src': '/static/foodstim60/luckycharms.jpg', 'key': 'i', 'origWidth': 410, 'origHeight': 409, 'width': 410, 'height': 409, 'widthPercent': 0.45, 'rescaleHeight': False, 'trialN': 61, 'loaded': True, 'loadedTime': 3671.5999999046326, 'positionName': 'RIGHT', 'positionCoords': [998.4, 335.5], 'bid': 1.8}]",120268.59999990463,1669837868556,cantaloupe,luckycharms,2.58,1.8,-0.78,cantaloupe,1243.9000000953674,1248,1248.2000000476837,True,u,122022.79999995232,1754.2000000476837,1669837870310,1754,HRV,HRV_0263,2022-11-30 19:55:27
62,"[{'imgObject': {}, 'id': 'edamame', 'src': '/static/foodstim60/edamame.jpg', 'key': 'u', 'origWidth': 409, 'origHeight': 410, 'width': 409, 'height': 410, 'widthPercent': 0.45, 'rescaleHeight': False, 'trialN': 62, 'loaded': True, 'loadedTime': 3827.5999999046326, 'positionName': 'LEFT', 'positionCoords': [512.6, 335], 'bid': 0.32}, {'imgObject': {}, 'id': 'olives', 'src': '/static/foodstim60/olives.jpg', 'key': 'i', 'origWidth': 410, 'origHeight': 410, 'width': 410, 'height': 410, 'widthPercent': 0.45, 'rescaleHeight': False, 'trialN': 62, 'loaded': True, 'loadedTime': 3796.1999999284744, 'positionName': 'RIGHT', 'positionCoords': [998.4, 335], 'bid': 0.19}]",122023.0,1669837870311,edamame,olives,0.32,0.19,-0.13,edamame,1776.7999999523163,1777,1777.0,True,u,124314.79999995232,2291.7999999523163,1669837872602,2291,HRV,HRV_0263,2022-11-30 19:55:27
63,"[{'imgObject': {}, 'id': 'banana', 'src': '/static/foodstim60/banana.jpg', 'key': 'u', 'origWidth': 410, 'origHeight': 410, 'width': 410, 'height': 410, 'widthPercent': 0.45, 'rescaleHeight': False, 'trialN': 63, 'loaded': True, 'loadedTime': 3621.1999999284744, 'positionName': 'LEFT', 'positionCoords': [511.6, 335], 'bid': 3.34}, {'imgObject': {}, 'id': 'eggsalad', 'src': '/static/foodstim60/eggsalad.jpg', 'key': 'i', 'origWidth': 410, 'origHeight': 409, 'width': 410, 'height': 409, 'widthPercent': 0.45, 'rescaleHeight': False, 'trialN': 63, 'loaded': True, 'loadedTime': 3607.1999999284744, 'positionName': 'RIGHT', 'positionCoords': [998.4, 335.5], 'bid': 3.85}]",124314.89999997616,1669837872602,banana,eggsalad,3.34,3.85,0.5100000000000002,eggsalad,1636.3999999761581,1637,1636.6000000238419,True,i,126460.89999997616,2146.0,1669837874748,2146,HRV,HRV_0263,2022-11-30 19:55:27
64,"[{'imgObject': {}, 'id': 'rigatoni and sauce', 'src': '/static/foodstim60/rigatoni and sauce.jpg', 'key': 'u', 'origWidth': 410, 'origHeight': 411, 'width': 410, 'height': 411, 'widthPercent': 0.45, 'rescaleHeight': False, 'trialN': 64, 'loaded': True, 'loadedTime': 3663.6999999284744, 'positionName': 'LEFT', 'positionCoords': [511.6, 334.5], 'bid': 5.4}, {'imgObject': {}, 'id': 'blueberries', 'src': '/static/foodstim60/blueberries.jpg', 'key': 'i', 'origWidth': 411, 'origHeight': 411, 'width': 411, 'height': 411, 'widthPercent': 0.45, 'rescaleHeight': False, 'trialN': 64, 'loaded': True, 'loadedTime': 3831.7999999523163, 'positionName': 'RIGHT', 'positionCoords': [998.4, 334.5], 'bid': 1.88}]",126461.09999990463,1669837874749,rigatoni and sauce,blueberries,5.4,1.88,-3.5200000000000005,rigatoni and sauce,1170.4000000953674,1170,1170.6000000238419,True,u,128145.0,1683.9000000953674,1669837876432,1683,HRV,HRV_0263,2022-11-30 19:55:27
65,"[{'imgObject': {}, 'id': 'salmon', 'src': '/static/foodstim60/salmon.jpg', 'key': 'u', 'origWidth': 410, 'origHeight': 409, 'width': 410, 'height': 409, 'widthPercent': 0.45, 'rescaleHeight': False, 'trialN': 65, 'loaded': True, 'loadedTime': 3637.7999999523163, 'positionName': 'LEFT', 'positionCoords': [511.6, 335.5], 'bid': 6.32}, {'imgObject': {}, 'id': 'burrito', 'src': '/static/foodstim60/burrito.jpg', 'key': 'i', 'origWidth': 410, 'origHeight': 410, 'width': 410, 'height': 410, 'widthPercent': 0.45, 'rescaleHeight': False, 'trialN': 65, 'loaded': True, 'loadedTime': 3831.6999999284744, 'positionName': 'RIGHT', 'positionCoords': [998.4, 335], 'bid': 6.47}]",128145.0,1669837876433,salmon,burrito,6.32,6.47,0.14999999999999947,burrito,1390.0999999046326,1390,1390.3999999761581,True,i,130046.79999995232,1901.7999999523163,1669837878334,1901,HRV,HRV_0263,2022-11-30 19:55:27
66,"[{'imgObject': {}, 'id': 'seaweed', 'src': '/static/foodstim60/seaweed.jpg', 'key': 'u', 'origWidth': 410, 'origHeight': 410, 'width': 410, 'height': 410, 'widthPercent': 0.45, 'rescaleHeight': False, 'trialN': 66, 'loaded': True, 'loadedTime': 3844.6999999284744, 'positionName': 'LEFT', 'positionCoords': [511.6, 335], 'bid': 0.23}, {'imgObject': {}, 'id': 'ice cream sundae 002', 'src': '/static/foodstim60/ice cream sundae 002.jpg', 'key': 'i', 'origWidth': 409, 'origHeight': 409, 'width': 409, 'height': 409, 'widthPercent': 0.45, 'rescaleHeight': False, 'trialN': 66, 'loaded': True, 'loadedTime': 3813.1999999284744, 'positionName': 'RIGHT', 'positionCoords': [998.4, 335.5], 'bid': 3.22}]",130046.89999997616,1669837878334,seaweed,ice cream sundae 002,0.23,3.22,2.99,ice cream sundae 002,1360.3999999761581,1361,1360.6000000238419,True,i,131920.19999992847,1873.2999999523163,1669837880208,1874,HRV,HRV_0263,2022-11-30 19:55:27
67,"[{'imgObject': {}, 'id': 'rigatoni', 'src': '/static/foodstim60/rigatoni.jpg', 'key': 'u', 'origWidth': 411, 'origHeight': 411, 'width': 411, 'height': 411, 'widthPercent': 0.45, 'rescaleHeight': False, 'trialN': 67, 'loaded': True, 'loadedTime': 3843.399999976158, 'positionName': 'LEFT', 'positionCoords': [510.6, 334.5], 'bid': 1.76}, {'imgObject': {}, 'id': 'apple slices', 'src': '/static/foodstim60/apple slices.jpg', 'key': 'i', 'origWidth': 409, 'origHeight': 410, 'width': 409, 'height': 410, 'widthPercent': 0.45, 'rescaleHeight': False, 'trialN': 67, 'loaded': True, 'loadedTime': 3620.899999976158, 'positionName': 'RIGHT', 'positionCoords': [998.4, 335], 'bid': 2.5}]",131920.29999995232,1669837880208,rigatoni,apple slices,1.76,2.5,0.74,apple slices,1287.1000000238419,1287,1287.2999999523163,True,i,133730.19999992847,1809.8999999761581,1669837882018,1810,HRV,HRV_0263,2022-11-30 19:55:27
68,"[{'imgObject': {}, 'id': 'burrito', 'src': '/static/foodstim60/burrito.jpg', 'key': 'u', 'origWidth': 410, 'origHeight': 410, 'width': 410, 'height': 410, 'widthPercent': 0.45, 'rescaleHeight': False, 'trialN': 68, 'loaded': True, 'loadedTime': 3830.6999999284744, 'positionName': 'LEFT', 'positionCoords': [511.6, 335], 'bid': 6.47}, {'imgObject': {}, 'id': 'roastedpotatoes', 'src': '/static/foodstim60/roastedpotatoes.jpg', 'key': 'i', 'origWidth': 409, 'origHeight': 410, 'width': 409, 'height': 410, 'widthPercent': 0.45, 'rescaleHeight': False, 'trialN': 68, 'loaded': True, 'loadedTime': 3752.1999999284744, 'positionName': 'RIGHT', 'positionCoords': [998.4, 335], 'bid': 4.59}]",133730.29999995232,1669837882018,burrito,roastedpotatoes,6.47,4.59,-1.88,burrito,1293.2000000476837,1293,1293.2999999523163,True,u,135541.79999995232,1811.5,1669837883829,1811,HRV,HRV_0263,2022-11-30 19:55:27
69,"[{'imgObject': {}, 'id': 'steak', 'src': '/static/foodstim60/steak.jpg', 'key': 'u', 'origWidth': 410, 'origHeight': 410, 'width': 410, 'height': 410, 'widthPercent': 0.45, 'rescaleHeight': False, 'trialN': 69, 'loaded': True, 'loadedTime': 3739, 'positionName': 'LEFT', 'positionCoords': [511.6, 335], 'bid': 6.91}, {'imgObject': {}, 'id': 'burger', 'src': '/static/foodstim60/burger.jpg', 'key': 'i', 'origWidth': 409, 'origHeight': 409, 'width': 409, 'height': 409, 'widthPercent': 0.45, 'rescaleHeight': False, 'trialN': 69, 'loaded': True, 'loadedTime': 3618.899999976158, 'positionName': 'RIGHT', 'positionCoords': [998.4, 335.5], 'bid': 6.62}]",135541.89999997616,1669837883829,steak,burger,6.91,6.62,-0.29000000000000004,steak,1265.6000000238419,1266,1265.7999999523163,True,u,137322.39999997616,1780.5,1669837885610,1781,HRV,HRV_0263,2022-11-30 19:55:27
70,"[{'imgObject': {}, 'id': 'shreddedwheatwithmilk', 'src': '/static/foodstim60/shreddedwheatwithmilk.jpg', 'key': 'u', 'origWidth': 410, 'origHeight': 410, 'width': 410, 'height': 410, 'widthPercent': 0.45, 'rescaleHeight': False, 'trialN': 70, 'loaded': True, 'loadedTime': 3719.5, 'positionName': 'LEFT', 'positionCoords': [511.6, 335], 'bid': 2.08}, {'imgObject': {}, 'id': 'cheerios', 'src': '/static/foodstim60/cheerios.jpg', 'key': 'i', 'origWidth': 409, 'origHeight': 410, 'width': 409, 'height': 410, 'widthPercent': 0.45, 'rescaleHeight': False, 'trialN': 70, 'loaded': True, 'loadedTime': 3669.2999999523163, 'positionName': 'RIGHT', 'positionCoords': [998.4, 335], 'bid': 1.57}]",137322.59999990463,1669837885610,shreddedwheatwithmilk,cheerios,2.08,1.57,-0.51,shreddedwheatwithmilk,1844.6000000238419,1845,1844.7000000476837,True,u,139670.09999990463,2347.5,1669837887958,2348,HRV,HRV_0263,2022-11-30 19:55:27
71,"[{'imgObject': {}, 'id': 'popsicles', 'src': '/static/foodstim60/popsicles.jpg', 'key': 'u', 'origWidth': 410, 'origHeight': 410, 'width': 410, 'height': 410, 'widthPercent': 0.45, 'rescaleHeight': False, 'trialN': 71, 'loaded': True, 'loadedTime': 3859.399999976158, 'positionName': 'LEFT', 'positionCoords': [511.6, 335], 'bid': 0.58}, {'imgObject': {}, 'id': 'blackbeanswithrice', 'src': '/static/foodstim60/blackbeanswithrice.jpg', 'key': 'i', 'origWidth': 410, 'origHeight': 410, 'width': 410, 'height': 410, 'widthPercent': 0.45, 'rescaleHeight': False, 'trialN': 71, 'loaded': True, 'loadedTime': 3589.0999999046326, 'positionName': 'RIGHT', 'positionCoords': [998.4, 335], 'bid': 3.72}]",139670.19999992847,1669837887958,popsicles,blackbeanswithrice,0.58,3.72,3.14,blackbeanswithrice,1097.0,1097,1097.2000000476837,True,i,141283.19999992847,1613.0,1669837889571,1613,HRV,HRV_0263,2022-11-30 19:55:27
72,"[{'imgObject': {}, 'id': 'eggsalad', 'src': '/static/foodstim60/eggsalad.jpg', 'key': 'u', 'origWidth': 410, 'origHeight': 409, 'width': 410, 'height': 409, 'widthPercent': 0.45, 'rescaleHeight': False, 'trialN': 72, 'loaded': True, 'loadedTime': 3607.399999976158, 'positionName': 'LEFT', 'positionCoords': [511.6, 335.5], 'bid': 3.85}, {'imgObject': {}, 'id': 'apple slices', 'src': '/static/foodstim60/apple slices.jpg', 'key': 'i', 'origWidth': 409, 'origHeight': 410, 'width': 409, 'height': 410, 'widthPercent': 0.45, 'rescaleHeight': False, 'trialN': 72, 'loaded': True, 'loadedTime': 3621, 'positionName': 'RIGHT', 'positionCoords': [998.4, 335], 'bid': 2.5}]",141283.79999995232,1669837889571,eggsalad,apple slices,3.85,2.5,-1.35,eggsalad,1076.1000000238419,1078,1077.2999999523163,True,u,142878.19999992847,1594.3999999761581,1669837891166,1595,HRV,HRV_0263,2022-11-30 19:55:27
73,"[{'imgObject': {}, 'id': 'baked potato', 'src': '/static/foodstim60/baked potato.jpg', 'key': 'u', 'origWidth': 409, 'origHeight': 410, 'width': 409, 'height': 410, 'widthPercent': 0.45, 'rescaleHeight': False, 'trialN': 73, 'loaded': True, 'loadedTime': 3845, 'positionName': 'LEFT', 'positionCoords': [512.6, 335], 'bid': 3.26}, {'imgObject': {}, 'id': 'hotdog w must', 'src': '/static/foodstim60/hotdog w must.jpg', 'key': 'i', 'origWidth': 409, 'origHeight': 409, 'width': 409, 'height': 409, 'widthPercent': 0.45, 'rescaleHeight': False, 'trialN': 73, 'loaded': True, 'loadedTime': 3535.2999999523163, 'positionName': 'RIGHT', 'positionCoords': [998.4, 335.5], 'bid': 5.86}]",142879.59999990463,1669837891167,baked potato,hotdog w must,3.26,5.86,2.6000000000000005,hotdog w must,1144.0,1144,1144.4000000953674,True,i,144540.89999997616,1661.3000000715256,1669837892828,1661,HRV,HRV_0263,2022-11-30 19:55:27
74,"[{'imgObject': {}, 'id': 'froot loops w milk', 'src': '/static/foodstim60/froot loops w milk.jpg', 'key': 'u', 'origWidth': 410, 'origHeight': 410, 'width': 410, 'height': 410, 'widthPercent': 0.45, 'rescaleHeight': False, 'trialN': 74, 'loaded': True, 'loadedTime': 3737.7999999523163, 'positionName': 'LEFT', 'positionCoords': [511.6, 335], 'bid': 1.81}, {'imgObject': {}, 'id': 'mashed potato', 'src': '/static/foodstim60/mashed potato.jpg', 'key': 'i', 'origWidth': 409, 'origHeight': 409, 'width': 409, 'height': 409, 'widthPercent': 0.45, 'rescaleHeight': False, 'trialN': 74, 'loaded': True, 'loadedTime': 3616.5, 'positionName': 'RIGHT', 'positionCoords': [998.4, 335.5], 'bid': 4.8}]",144541.29999995232,1669837892829,froot loops w milk,mashed potato,1.81,4.8,2.9899999999999998,mashed potato,1051.3999999761581,1052,1052.3999999761581,True,i,146105.09999990463,1563.7999999523163,1669837894393,1564,HRV,HRV_0263,2022-11-30 19:55:27
75,"[{'imgObject': {}, 'id': 'granola w milk', 'src': '/static/foodstim60/granola w milk.jpg', 'key': 'u', 'origWidth': 410, 'origHeight': 410, 'width': 410, 'height': 410, 'widthPercent': 0.45, 'rescaleHeight': False, 'trialN': 75, 'loaded': True, 'loadedTime': 3741.399999976158, 'positionName': 'LEFT', 'positionCoords': [511.6, 335], 'bid': 2.89}, {'imgObject': {}, 'id': 'Tribe humus pita', 'src': '/static/foodstim60/Tribe humus pita.jpg', 'key': 'i', 'origWidth': 411, 'origHeight': 411, 'width': 411, 'height': 411, 'widthPercent': 0.45, 'rescaleHeight': False, 'trialN': 75, 'loaded': True, 'loadedTime': 3766.0999999046326, 'positionName': 'RIGHT', 'positionCoords': [998.4, 334.5], 'bid': 4.46}]",146105.59999990463,1669837894393,granola w milk,Tribe humus pita,2.89,4.46,1.5699999999999998,Tribe humus pita,1117.5,1118,1117.6000000238419,True,i,147738.29999995232,1632.7000000476837,1669837896026,1633,HRV,HRV_0263,2022-11-30 19:55:27
76,"[{'imgObject': {}, 'id': 'pear', 'src': '/static/foodstim60/pear.jpg', 'key': 'u', 'origWidth': 411, 'origHeight': 410, 'width': 411, 'height': 410, 'widthPercent': 0.45, 'rescaleHeight': False, 'trialN': 76, 'loaded': True, 'loadedTime': 3623.5, 'positionName': 'LEFT', 'positionCoords': [510.6, 335], 'bid': 2.44}, {'imgObject': {}, 'id': 'cheerios', 'src': '/static/foodstim60/cheerios.jpg', 'key': 'i', 'origWidth': 409, 'origHeight': 410, 'width': 409, 'height': 410, 'widthPercent': 0.45, 'rescaleHeight': False, 'trialN': 76, 'loaded': True, 'loadedTime': 3668.399999976158, 'positionName': 'RIGHT', 'positionCoords': [998.4, 335], 'bid': 1.57}]",147738.39999997616,1669837896026,pear,cheerios,2.44,1.57,-0.8699999999999999,cheerios,1948.8999999761581,1949,1949.1000000238419,True,i,150206.79999995232,2468.399999976158,1669837898494,2468,HRV,HRV_0263,2022-11-30 19:55:27
77,"[{'imgObject': {}, 'id': 'salad w chicken', 'src': '/static/foodstim60/salad w chicken.jpg', 'key': 'u', 'origWidth': 411, 'origHeight': 411, 'width': 411, 'height': 411, 'widthPercent': 0.45, 'rescaleHeight': False, 'trialN': 77, 'loaded': True, 'loadedTime': 3630.6999999284744, 'positionName': 'LEFT', 'positionCoords': [510.6, 334.5], 'bid': 5.3500000000000005}, {'imgObject': {}, 'id': 'avocado', 'src': '/static/foodstim60/avocado.jpg', 'key': 'i', 'origWidth': 409, 'origHeight': 409, 'width': 409, 'height': 409, 'widthPercent': 0.45, 'rescaleHeight': False, 'trialN': 77, 'loaded': True, 'loadedTime': 3717.7999999523163, 'positionName': 'RIGHT', 'positionCoords': [998.4, 335.5], 'bid': 1.87}]",150207.09999990463,1669837898495,salad w chicken,avocado,5.3500000000000005,1.87,-3.4800000000000004,salad w chicken,1264.9000000953674,1265,1265.4000000953674,True,u,151985.59999990463,1778.5,1669837900273,1778,HRV,HRV_0263,2022-11-30 19:55:27
78,"[{'imgObject': {}, 'id': 'cherry tomato', 'src': '/static/foodstim60/cherry tomato.jpg', 'key': 'u', 'origWidth': 410, 'origHeight': 410, 'width': 410, 'height': 410, 'widthPercent': 0.45, 'rescaleHeight': False, 'trialN': 78, 'loaded': True, 'loadedTime': 3768.1999999284744, 'positionName': 'LEFT', 'positionCoords': [511.6, 335], 'bid': 1.15}, {'imgObject': {}, 'id': 'mango', 'src': '/static/foodstim60/mango.jpg', 'key': 'i', 'origWidth': 411, 'origHeight': 411, 'width': 411, 'height': 411, 'widthPercent': 0.45, 'rescaleHeight': False, 'trialN': 78, 'loaded': True, 'loadedTime': 3609.7999999523163, 'positionName': 'RIGHT', 'positionCoords': [998.4, 334.5], 'bid': 1.16}]",151986.19999992847,1669837900274,cherry tomato,mango,1.15,1.16,0.010000000000000009,mango,2133.3000000715256,2133,2133.7000000476837,True,i,154640.79999995232,2654.600000023842,1669837902928,2654,HRV,HRV_0263,2022-11-30 19:55:27
79,"[{'imgObject': {}, 'id': 'raspberries', 'src': '/static/foodstim60/raspberries.jpg', 'key': 'u', 'origWidth': 411, 'origHeight': 411, 'width': 411, 'height': 411, 'widthPercent': 0.45, 'rescaleHeight': False, 'trialN': 79, 'loaded': True, 'loadedTime': 3635.6999999284744, 'positionName': 'LEFT', 'positionCoords': [510.6, 334.5], 'bid': 2.45}, {'imgObject': {}, 'id': 'kiwi', 'src': '/static/foodstim60/kiwi.jpg', 'key': 'i', 'origWidth': 410, 'origHeight': 410, 'width': 410, 'height': 410, 'widthPercent': 0.45, 'rescaleHeight': False, 'trialN': 79, 'loaded': True, 'loadedTime': 3667.6999999284744, 'positionName': 'RIGHT', 'positionCoords': [998.4, 335], 'bid': 1.71}]",154641.09999990463,1669837902929,raspberries,kiwi,2.45,1.71,-0.7400000000000002,kiwi,2054.8000000715256,2055,2055.100000023842,True,i,157209.39999997616,2568.3000000715256,1669837905497,2568,HRV,HRV_0263,2022-11-30 19:55:27
80,"[{'imgObject': {}, 'id': 'orange slices', 'src': '/static/foodstim60/orange slices.jpg', 'key': 'u', 'origWidth': 409, 'origHeight': 410, 'width': 409, 'height': 410, 'widthPercent': 0.45, 'rescaleHeight': False, 'trialN': 80, 'loaded': True, 'loadedTime': 3570.899999976158, 'positionName': 'LEFT', 'positionCoords': [512.6, 335], 'bid': 2.67}, {'imgObject': {}, 'id': 'avocado', 'src': '/static/foodstim60/avocado.jpg', 'key': 'i', 'origWidth': 409, 'origHeight': 409, 'width': 409, 'height': 409, 'widthPercent': 0.45, 'rescaleHeight': False, 'trialN': 80, 'loaded': True, 'loadedTime': 3718.5, 'positionName': 'RIGHT', 'positionCoords': [998.4, 335.5], 'bid': 1.87}]",157209.69999992847,1669837905497,orange slices,avocado,2.67,1.87,-0.7999999999999998,avocado,2693.5,2694,2693.5,True,i,160405.39999997616,3195.7000000476837,1669837908693,3196,HRV,HRV_0263,2022-11-30 19:55:27
81,"[{'imgObject': {}, 'id': 'grilled chicken strips', 'src': '/static/foodstim60/grilled chicken strips.jpg', 'key': 'u', 'origWidth': 410, 'origHeight': 411, 'width': 410, 'height': 411, 'widthPercent': 0.45, 'rescaleHeight': False, 'trialN': 81, 'loaded': True, 'loadedTime': 3742.2999999523163, 'positionName': 'LEFT', 'positionCoords': [511.6, 334.5], 'bid': 5.96}, {'imgObject': {}, 'id': 'Grapes', 'src': '/static/foodstim60/Grapes.jpg', 'key': 'i', 'origWidth': 411, 'origHeight': 411, 'width': 411, 'height': 411, 'widthPercent': 0.45, 'rescaleHeight': False, 'trialN': 81, 'loaded': True, 'loadedTime': 3680.399999976158, 'positionName': 'RIGHT', 'positionCoords': [998.4, 334.5], 'bid': 2.09}]",160405.5,1669837908693,grilled chicken strips,Grapes,5.96,2.09,-3.87,grilled chicken strips,1889.8999999761581,1890,1890.5,True,u,162805.59999990463,2400.0999999046326,1669837911093,2400,HRV,HRV_0263,2022-11-30 19:55:27
82,"[{'imgObject': {}, 'id': 'Tribe humus pita', 'src': '/static/foodstim60/Tribe humus pita.jpg', 'key': 'u', 'origWidth': 411, 'origHeight': 411, 'width': 411, 'height': 411, 'widthPercent': 0.45, 'rescaleHeight': False, 'trialN': 82, 'loaded': True, 'loadedTime': 3767.1999999284744, 'positionName': 'LEFT', 'positionCoords': [510.6, 334.5], 'bid': 4.46}, {'imgObject': {}, 'id': 'kiwi', 'src': '/static/foodstim60/kiwi.jpg', 'key': 'i', 'origWidth': 410, 'origHeight': 410, 'width': 410, 'height': 410, 'widthPercent': 0.45, 'rescaleHeight': False, 'trialN': 82, 'loaded': True, 'loadedTime': 3667.0999999046326, 'positionName': 'RIGHT', 'positionCoords': [998.4, 335], 'bid': 1.71}]",162806.19999992847,1669837911094,Tribe humus pita,kiwi,4.46,1.71,-2.75,Tribe humus pita,1297.8000000715256,1298,1298.1000000238419,True,u,164621.69999992847,1815.5,1669837912909,1815,HRV,HRV_0263,2022-11-30 19:55:27
83,"[{'imgObject': {}, 'id': 'grilled chicken strips', 'src': '/static/foodstim60/grilled chicken strips.jpg', 'key': 'u', 'origWidth': 410, 'origHeight': 411, 'width': 410, 'height': 411, 'widthPercent': 0.45, 'rescaleHeight': False, 'trialN': 83, 'loaded': True, 'loadedTime': 3749.1999999284744, 'positionName': 'LEFT', 'positionCoords': [511.6, 334.5], 'bid': 5.96}, {'imgObject': {}, 'id': 'chickenfingers', 'src': '/static/foodstim60/chickenfingers.jpg', 'key': 'i', 'origWidth': 410, 'origHeight': 410, 'width': 410, 'height': 410, 'widthPercent': 0.45, 'rescaleHeight': False, 'trialN': 83, 'loaded': True, 'loadedTime': 3828.6999999284744, 'positionName': 'RIGHT', 'positionCoords': [998.4, 335], 'bid': 6.140000000000001}]",164621.89999997616,1669837912909,grilled chicken strips,chickenfingers,5.96,6.140000000000001,0.1800000000000006,chickenfingers,2001.8999999761581,2003,2002.3999999761581,True,i,167137.19999992847,2515.2999999523163,1669837915425,2516,HRV,HRV_0263,2022-11-30 19:55:27
84,"[{'imgObject': {}, 'id': 'eggs', 'src': '/static/foodstim60/eggs.jpg', 'key': 'u', 'origWidth': 409, 'origHeight': 409, 'width': 409, 'height': 409, 'widthPercent': 0.45, 'rescaleHeight': False, 'trialN': 84, 'loaded': True, 'loadedTime': 3633.5, 'positionName': 'LEFT', 'positionCoords': [512.6, 335.5], 'bid': 4.37}, {'imgObject': {}, 'id': 'cheerios', 'src': '/static/foodstim60/cheerios.jpg', 'key': 'i', 'origWidth': 409, 'origHeight': 410, 'width': 409, 'height': 410, 'widthPercent': 0.45, 'rescaleHeight': False, 'trialN': 84, 'loaded': True, 'loadedTime': 3670.1999999284744, 'positionName': 'RIGHT', 'positionCoords': [998.4, 335], 'bid': 1.57}]",167137.59999990463,1669837915425,eggs,cheerios,4.37,1.57,-2.8,eggs,1893.8000000715256,1894,1894.1000000238419,True,u,169545.79999995232,2408.2000000476837,1669837917833,2408,HRV,HRV_0263,2022-11-30 19:55:27
85,"[{'imgObject': {}, 'id': 'blackbeanswithrice', 'src': '/static/foodstim60/blackbeanswithrice.jpg', 'key': 'u', 'origWidth': 410, 'origHeight': 410, 'width': 410, 'height': 410, 'widthPercent': 0.45, 'rescaleHeight': False, 'trialN': 85, 'loaded': True, 'loadedTime': 3590, 'positionName': 'LEFT', 'positionCoords': [511.6, 335], 'bid': 3.72}, {'imgObject': {}, 'id': 'baked potato', 'src': '/static/foodstim60/baked potato.jpg', 'key': 'i', 'origWidth': 409, 'origHeight': 410, 'width': 409, 'height': 410, 'widthPercent': 0.45, 'rescaleHeight': False, 'trialN': 85, 'loaded': True, 'loadedTime': 3845.899999976158, 'positionName': 'RIGHT', 'positionCoords': [998.4, 335], 'bid': 3.26}]",169545.89999997616,1669837917833,blackbeanswithrice,baked potato,3.72,3.26,-0.4600000000000004,blackbeanswithrice,1861.2999999523163,1862,1861.6000000238419,True,u,171916.89999997616,2371.0,1669837920204,2371,HRV,HRV_0263,2022-11-30 19:55:27
86,"[{'imgObject': {}, 'id': 'cherry tomato', 'src': '/static/foodstim60/cherry tomato.jpg', 'key': 'u', 'origWidth': 410, 'origHeight': 410, 'width': 410, 'height': 410, 'widthPercent': 0.45, 'rescaleHeight': False, 'trialN': 86, 'loaded': True, 'loadedTime': 3769, 'positionName': 'LEFT', 'positionCoords': [511.6, 335], 'bid': 1.15}, {'imgObject': {}, 'id': 'popsicles', 'src': '/static/foodstim60/popsicles.jpg', 'key': 'i', 'origWidth': 410, 'origHeight': 410, 'width': 410, 'height': 410, 'widthPercent': 0.45, 'rescaleHeight': False, 'trialN': 86, 'loaded': True, 'loadedTime': 3859.5, 'positionName': 'RIGHT', 'positionCoords': [998.4, 335], 'bid': 0.58}]",171916.89999997616,1669837920205,cherry tomato,popsicles,1.15,0.58,-0.57,cherry tomato,1178.2999999523163,1178,1178.5,True,u,173616.09999990463,1699.1999999284744,1669837921904,1699,HRV,HRV_0263,2022-11-30 19:55:27
87,"[{'imgObject': {}, 'id': 'raisin bran w milk', 'src': '/static/foodstim60/raisin bran w milk.jpg', 'key': 'u', 'origWidth': 411, 'origHeight': 411, 'width': 411, 'height': 411, 'widthPercent': 0.45, 'rescaleHeight': False, 'trialN': 87, 'loaded': True, 'loadedTime': 3633.2999999523163, 'positionName': 'LEFT', 'positionCoords': [510.6, 334.5], 'bid': 1.93}, {'imgObject': {}, 'id': 'avocado', 'src': '/static/foodstim60/avocado.jpg', 'key': 'i', 'origWidth': 409, 'origHeight': 409, 'width': 409, 'height': 409, 'widthPercent': 0.45, 'rescaleHeight': False, 'trialN': 87, 'loaded': True, 'loadedTime': 3718.6999999284744, 'positionName': 'RIGHT', 'positionCoords': [998.4, 335.5], 'bid': 1.87}]",173616.29999995232,1669837921904,raisin bran w milk,avocado,1.93,1.87,-0.05999999999999983,raisin bran w milk,1471.0,1471,1471.1000000238419,True,u,175609.39999997616,1993.1000000238419,1669837923897,1993,HRV,HRV_0263,2022-11-30 19:55:27
88,"[{'imgObject': {}, 'id': 'mango', 'src': '/static/foodstim60/mango.jpg', 'key': 'u', 'origWidth': 411, 'origHeight': 411, 'width': 411, 'height': 411, 'widthPercent': 0.45, 'rescaleHeight': False, 'trialN': 88, 'loaded': True, 'loadedTime': 3609.399999976158, 'positionName': 'LEFT', 'positionCoords': [510.6, 334.5], 'bid': 1.16}, {'imgObject': {}, 'id': 'chicken nuggets2', 'src': '/static/foodstim60/chicken nuggets2.jpg', 'key': 'i', 'origWidth': 410, 'origHeight': 409, 'width': 410, 'height': 409, 'widthPercent': 0.45, 'rescaleHeight': False, 'trialN': 88, 'loaded': True, 'loadedTime': 3591.7999999523163, 'positionName': 'RIGHT', 'positionCoords': [998.4, 335.5], 'bid': 4.3500000000000005}]",175609.69999992847,1669837923897,mango,chicken nuggets2,1.16,4.3500000000000005,3.1900000000000004,chicken nuggets2,1325.6000000238419,1326,1325.8000000715256,True,i,177449.79999995232,1840.1000000238419,1669837925737,1840,HRV,HRV_0263,2022-11-30 19:55:27
89,"[{'imgObject': {}, 'id': 'cherry tomato', 'src': '/static/foodstim60/cherry tomato.jpg', 'key': 'u', 'origWidth': 410, 'origHeight': 410, 'width': 410, 'height': 410, 'widthPercent': 0.45, 'rescaleHeight': False, 'trialN': 89, 'loaded': True, 'loadedTime': 3781.899999976158, 'positionName': 'LEFT', 'positionCoords': [511.6, 335], 'bid': 1.15}, {'imgObject': {}, 'id': 'hashbrowns', 'src': '/static/foodstim60/hashbrowns.jpg', 'key': 'i', 'origWidth': 411, 'origHeight': 410, 'width': 411, 'height': 410, 'widthPercent': 0.45, 'rescaleHeight': False, 'trialN': 89, 'loaded': True, 'loadedTime': 3847.2999999523163, 'positionName': 'RIGHT', 'positionCoords': [998.4, 335], 'bid': 1.93}]",177449.79999995232,1669837925737,cherry tomato,hashbrowns,1.15,1.93,0.78,cherry tomato,2382.2000000476837,2383,2382.5,True,u,180348.69999992847,2898.899999976158,1669837928636,2899,HRV,HRV_0263,2022-11-30 19:55:27
90,"[{'imgObject': {}, 'id': 'cantaloupe', 'src': '/static/foodstim60/cantaloupe.jpg', 'key': 'u', 'origWidth': 409, 'origHeight': 409, 'width': 409, 'height': 409, 'widthPercent': 0.45, 'rescaleHeight': False, 'trialN': 90, 'loaded': True, 'loadedTime': 3795.2999999523163, 'positionName': 'LEFT', 'positionCoords': [512.6, 335.5], 'bid': 2.58}, {'imgObject': {}, 'id': 'baked potato', 'src': '/static/foodstim60/baked potato.jpg', 'key': 'i', 'origWidth': 409, 'origHeight': 410, 'width': 409, 'height': 410, 'widthPercent': 0.45, 'rescaleHeight': False, 'trialN': 90, 'loaded': True, 'loadedTime': 3846, 'positionName': 'RIGHT', 'positionCoords': [998.4, 335], 'bid': 3.26}]",186564.19999992847,1669837934852,cantaloupe,baked potato,2.58,3.26,0.6799999999999997,baked potato,1859.1000000238419,1859,1859.3000000715256,True,i,188939.0,2374.8000000715256,1669837937227,2375,HRV,HRV_0263,2022-11-30 19:55:27
91,"[{'imgObject': {}, 'id': 'veggieswithdip', 'src': '/static/foodstim60/veggieswithdip.jpg', 'key': 'u', 'origWidth': 409, 'origHeight': 409, 'width': 409, 'height': 409, 'widthPercent': 0.45, 'rescaleHeight': False, 'trialN': 91, 'loaded': True, 'loadedTime': 3627.899999976158, 'positionName': 'LEFT', 'positionCoords': [512.6, 335.5], 'bid': 0.4}, {'imgObject': {}, 'id': 'kiwi', 'src': '/static/foodstim60/kiwi.jpg', 'key': 'i', 'origWidth': 410, 'origHeight': 410, 'width': 410, 'height': 410, 'widthPercent': 0.45, 'rescaleHeight': False, 'trialN': 91, 'loaded': True, 'loadedTime': 3667, 'positionName': 'RIGHT', 'positionCoords': [998.4, 335], 'bid': 1.71}]",188939.19999992847,1669837937227,veggieswithdip,kiwi,0.4,1.71,1.31,kiwi,1236.3999999761581,1237,1236.7000000476837,True,i,190698.39999997616,1759.2000000476837,1669837938986,1759,HRV,HRV_0263,2022-11-30 19:55:27
92,"[{'imgObject': {}, 'id': 'burger', 'src': '/static/foodstim60/burger.jpg', 'key': 'u', 'origWidth': 409, 'origHeight': 409, 'width': 409, 'height': 409, 'widthPercent': 0.45, 'rescaleHeight': False, 'trialN': 92, 'loaded': True, 'loadedTime': 3618.6999999284744, 'positionName': 'LEFT', 'positionCoords': [512.6, 335.5], 'bid': 6.62}, {'imgObject': {}, 'id': 'fried eggs', 'src': '/static/foodstim60/fried eggs.jpg', 'key': 'i', 'origWidth': 410, 'origHeight': 410, 'width': 410, 'height': 410, 'widthPercent': 0.45, 'rescaleHeight': False, 'trialN': 92, 'loaded': True, 'loadedTime': 3636.5999999046326, 'positionName': 'RIGHT', 'positionCoords': [998.4, 335], 'bid': 6.61}]",190698.39999997616,1669837938986,burger,fried eggs,6.62,6.61,-0.009999999999999787,fried eggs,1396.7999999523163,1397,1396.8999999761581,True,i,192600.69999992847,1902.2999999523163,1669837940888,1902,HRV,HRV_0263,2022-11-30 19:55:27
93,"[{'imgObject': {}, 'id': 'roastedpotatoes', 'src': '/static/foodstim60/roastedpotatoes.jpg', 'key': 'u', 'origWidth': 409, 'origHeight': 410, 'width': 409, 'height': 410, 'widthPercent': 0.45, 'rescaleHeight': False, 'trialN': 93, 'loaded': True, 'loadedTime': 3766, 'positionName': 'LEFT', 'positionCoords': [512.6, 335], 'bid': 4.59}, {'imgObject': {}, 'id': 'cocktailshrimp', 'src': '/static/foodstim60/cocktailshrimp.jpg', 'key': 'i', 'origWidth': 410, 'origHeight': 410, 'width': 410, 'height': 410, 'widthPercent': 0.45, 'rescaleHeight': False, 'trialN': 93, 'loaded': True, 'loadedTime': 3599.5999999046326, 'positionName': 'RIGHT', 'positionCoords': [998.4, 335], 'bid': 6.07}]",192600.79999995232,1669837940888,roastedpotatoes,cocktailshrimp,4.59,6.07,1.4800000000000004,cocktailshrimp,1446.5,1447,1446.7999999523163,True,i,194558.59999990463,1957.7999999523163,1669837942846,1958,HRV,HRV_0263,2022-11-30 19:55:27
94,"[{'imgObject': {}, 'id': 'blackbeanswithrice', 'src': '/static/foodstim60/blackbeanswithrice.jpg', 'key': 'u', 'origWidth': 410, 'origHeight': 410, 'width': 410, 'height': 410, 'widthPercent': 0.45, 'rescaleHeight': False, 'trialN': 94, 'loaded': True, 'loadedTime': 3590.6999999284744, 'positionName': 'LEFT', 'positionCoords': [511.6, 335], 'bid': 3.72}, {'imgObject': {}, 'id': 'grilled chicken strips', 'src': '/static/foodstim60/grilled chicken strips.jpg', 'key': 'i', 'origWidth': 410, 'origHeight': 411, 'width': 410, 'height': 411, 'widthPercent': 0.45, 'rescaleHeight': False, 'trialN': 94, 'loaded': True, 'loadedTime': 3749.1999999284744, 'positionName': 'RIGHT', 'positionCoords': [998.4, 334.5], 'bid': 5.96}]",194558.69999992847,1669837942846,blackbeanswithrice,grilled chicken strips,3.72,5.96,2.2399999999999998,grilled chicken strips,1360.7000000476837,1361,1361.1000000238419,True,i,196440.69999992847,1882.0,1669837944728,1882,HRV,HRV_0263,2022-11-30 19:55:27
95,"[{'imgObject': {}, 'id': 'turkeysandwich', 'src': '/static/foodstim60/turkeysandwich.jpg', 'key': 'u', 'origWidth': 409, 'origHeight': 409, 'width': 409, 'height': 409, 'widthPercent': 0.45, 'rescaleHeight': False, 'trialN': 95, 'loaded': True, 'loadedTime': 3848.1999999284744, 'positionName': 'LEFT', 'positionCoords': [512.6, 335.5], 'bid': 5.91}, {'imgObject': {}, 'id': 'shreddedwheatwithmilk', 'src': '/static/foodstim60/shreddedwheatwithmilk.jpg', 'key': 'i', 'origWidth': 410, 'origHeight': 410, 'width': 410, 'height': 410, 'widthPercent': 0.45, 'rescaleHeight': False, 'trialN': 95, 'loaded': True, 'loadedTime': 3719.6999999284744, 'positionName': 'RIGHT', 'positionCoords': [998.4, 335], 'bid': 2.08}]",196440.79999995232,1669837944728,turkeysandwich,shreddedwheatwithmilk,5.91,2.08,-3.83,turkeysandwich,974.3999999761581,975,974.6000000238419,True,u,197926.09999990463,1485.2999999523163,1669837946214,1486,HRV,HRV_0263,2022-11-30 19:55:27
96,"[{'imgObject': {}, 'id': 'rigatoni', 'src': '/static/foodstim60/rigatoni.jpg', 'key': 'u', 'origWidth': 411, 'origHeight': 411, 'width': 411, 'height': 411, 'widthPercent': 0.45, 'rescaleHeight': False, 'trialN': 96, 'loaded': True, 'loadedTime': 3843.2999999523163, 'positionName': 'LEFT', 'positionCoords': [510.6, 334.5], 'bid': 1.76}, {'imgObject': {}, 'id': 'luckycharms', 'src': '/static/foodstim60/luckycharms.jpg', 'key': 'i', 'origWidth': 410, 'origHeight': 409, 'width': 410, 'height': 409, 'widthPercent': 0.45, 'rescaleHeight': False, 'trialN': 96, 'loaded': True, 'loadedTime': 3670.1999999284744, 'positionName': 'RIGHT', 'positionCoords': [998.4, 335.5], 'bid': 1.8}]",197927.29999995232,1669837946215,rigatoni,luckycharms,1.76,1.8,0.040000000000000036,rigatoni,2704.2000000476837,2704,2704.399999976158,True,u,201147.09999990463,3219.7999999523163,1669837949435,3220,HRV,HRV_0263,2022-11-30 19:55:27
97,"[{'imgObject': {}, 'id': 'hashbrowns', 'src': '/static/foodstim60/hashbrowns.jpg', 'key': 'u', 'origWidth': 411, 'origHeight': 410, 'width': 411, 'height': 410, 'widthPercent': 0.45, 'rescaleHeight': False, 'trialN': 97, 'loaded': True, 'loadedTime': 3846.399999976158, 'positionName': 'LEFT', 'positionCoords': [510.6, 335], 'bid': 1.93}, {'imgObject': {}, 'id': 'shreddedwheatwithmilk', 'src': '/static/foodstim60/shreddedwheatwithmilk.jpg', 'key': 'i', 'origWidth': 410, 'origHeight': 410, 'width': 410, 'height': 410, 'widthPercent': 0.45, 'rescaleHeight': False, 'trialN': 97, 'loaded': True, 'loadedTime': 3733.399999976158, 'positionName': 'RIGHT', 'positionCoords': [998.4, 335], 'bid': 2.08}]",201147.29999995232,1669837949435,hashbrowns,shreddedwheatwithmilk,1.93,2.08,0.15000000000000013,shreddedwheatwithmilk,1468.8999999761581,1469,1469.2999999523163,True,i,203134.59999990463,1987.2999999523163,1669837951422,1987,HRV,HRV_0263,2022-11-30 19:55:27
98,"[{'imgObject': {}, 'id': 'eggsalad', 'src': '/static/foodstim60/eggsalad.jpg', 'key': 'u', 'origWidth': 410, 'origHeight': 409, 'width': 410, 'height': 409, 'widthPercent': 0.45, 'rescaleHeight': False, 'trialN': 98, 'loaded': True, 'loadedTime': 3608, 'positionName': 'LEFT', 'positionCoords': [511.6, 335.5], 'bid': 3.85}, {'imgObject': {}, 'id': 'sweetpotato', 'src': '/static/foodstim60/sweetpotato.jpg', 'key': 'i', 'origWidth': 410, 'origHeight': 410, 'width': 410, 'height': 410, 'widthPercent': 0.45, 'rescaleHeight': False, 'trialN': 98, 'loaded': True, 'loadedTime': 3629.399999976158, 'positionName': 'RIGHT', 'positionCoords': [998.4, 335], 'bid': 0.75}]",203135.19999992847,1669837951423,eggsalad,sweetpotato,3.85,0.75,-3.1,eggsalad,1200.6000000238419,1201,1201.0,True,u,204853.39999997616,1718.2000000476837,1669837953141,1718,HRV,HRV_0263,2022-11-30 19:55:27
99,"[{'imgObject': {}, 'id': 'eggs', 'src': '/static/foodstim60/eggs.jpg', 'key': 'u', 'origWidth': 409, 'origHeight': 409, 'width': 409, 'height': 409, 'widthPercent': 0.45, 'rescaleHeight': False, 'trialN': 99, 'loaded': True, 'loadedTime': 3634.1999999284744, 'positionName': 'LEFT', 'positionCoords': [512.6, 335.5], 'bid': 4.37}, {'imgObject': {}, 'id': 'Tribe humus pita', 'src': '/static/foodstim60/Tribe humus pita.jpg', 'key': 'i', 'origWidth': 411, 'origHeight': 411, 'width': 411, 'height': 411, 'widthPercent': 0.45, 'rescaleHeight': False, 'trialN': 99, 'loaded': True, 'loadedTime': 3767.0999999046326, 'positionName': 'RIGHT', 'positionCoords': [998.4, 334.5], 'bid': 4.46}]",204853.69999992847,1669837953141,eggs,Tribe humus pita,4.37,4.46,0.08999999999999986,Tribe humus pita,1058.3999999761581,1060,1059.8000000715256,True,i,206432.89999997616,1579.2000000476837,1669837954720,1579,HRV,HRV_0263,2022-11-30 19:55:27
100,"[{'imgObject': {}, 'id': 'salmon', 'src': '/static/foodstim60/salmon.jpg', 'key': 'u', 'origWidth': 410, 'origHeight': 409, 'width': 410, 'height': 409, 'widthPercent': 0.45, 'rescaleHeight': False, 'trialN': 100, 'loaded': True, 'loadedTime': 3638.399999976158, 'positionName': 'LEFT', 'positionCoords': [511.6, 335.5], 'bid': 6.32}, {'imgObject': {}, 'id': 'Tribe humus pita', 'src': '/static/foodstim60/Tribe humus pita.jpg', 'key': 'i', 'origWidth': 411, 'origHeight': 411, 'width': 411, 'height': 411, 'widthPercent': 0.45, 'rescaleHeight': False, 'trialN': 100, 'loaded': True, 'loadedTime': 3766.6999999284744, 'positionName': 'RIGHT', 'positionCoords': [998.4, 334.5], 'bid': 4.46}]",206433.09999990463,1669837954721,salmon,Tribe humus pita,6.32,4.46,-1.8600000000000003,salmon,1238.5,1239,1238.9000000953674,True,u,208183.0,1749.9000000953674,1669837956471,1750,HRV,HRV_0263,2022-11-30 19:55:27
101,"[{'imgObject': {}, 'id': 'mango', 'src': '/static/foodstim60/mango.jpg', 'key': 'u', 'origWidth': 411, 'origHeight': 411, 'width': 411, 'height': 411, 'widthPercent': 0.45, 'rescaleHeight': False, 'trialN': 101, 'loaded': True, 'loadedTime': 3609.5, 'positionName': 'LEFT', 'positionCoords': [510.6, 334.5], 'bid': 1.16}, {'imgObject': {}, 'id': 'seaweed', 'src': '/static/foodstim60/seaweed.jpg', 'key': 'i', 'origWidth': 410, 'origHeight': 410, 'width': 410, 'height': 410, 'widthPercent': 0.45, 'rescaleHeight': False, 'trialN': 101, 'loaded': True, 'loadedTime': 3844.7999999523163, 'positionName': 'RIGHT', 'positionCoords': [998.4, 335], 'bid': 0.23}]",208183.09999990463,1669837956471,mango,seaweed,1.16,0.23,-0.9299999999999999,mango,1064.6000000238419,1064,1064.8000000715256,True,u,209770.09999990463,1587.0,1669837958058,1587,HRV,HRV_0263,2022-11-30 19:55:27
102,"[{'imgObject': {}, 'id': 'cocktailshrimp', 'src': '/static/foodstim60/cocktailshrimp.jpg', 'key': 'u', 'origWidth': 410, 'origHeight': 410, 'width': 410, 'height': 410, 'widthPercent': 0.45, 'rescaleHeight': False, 'trialN': 102, 'loaded': True, 'loadedTime': 3600.0999999046326, 'positionName': 'LEFT', 'positionCoords': [511.6, 335], 'bid': 6.07}, {'imgObject': {}, 'id': 'bagel plain', 'src': '/static/foodstim60/bagel plain.jpg', 'key': 'i', 'origWidth': 410, 'origHeight': 410, 'width': 410, 'height': 410, 'widthPercent': 0.45, 'rescaleHeight': False, 'trialN': 102, 'loaded': True, 'loadedTime': 3624.7999999523163, 'positionName': 'RIGHT', 'positionCoords': [998.4, 335], 'bid': 2.16}]",209770.29999995232,1669837958058,cocktailshrimp,bagel plain,6.07,2.16,-3.91,cocktailshrimp,1054.6000000238419,1056,1056.0,True,u,211343.5,1573.2000000476837,1669837959631,1573,HRV,HRV_0263,2022-11-30 19:55:27
103,"[{'imgObject': {}, 'id': 'fried eggs', 'src': '/static/foodstim60/fried eggs.jpg', 'key': 'u', 'origWidth': 410, 'origHeight': 410, 'width': 410, 'height': 410, 'widthPercent': 0.45, 'rescaleHeight': False, 'trialN': 103, 'loaded': True, 'loadedTime': 3636.7999999523163, 'positionName': 'LEFT', 'positionCoords': [511.6, 335], 'bid': 6.61}, {'imgObject': {}, 'id': 'cocktailshrimp', 'src': '/static/foodstim60/cocktailshrimp.jpg', 'key': 'i', 'origWidth': 410, 'origHeight': 410, 'width': 410, 'height': 410, 'widthPercent': 0.45, 'rescaleHeight': False, 'trialN': 103, 'loaded': True, 'loadedTime': 3603, 'positionName': 'RIGHT', 'positionCoords': [998.4, 335], 'bid': 6.07}]",211343.79999995232,1669837959631,fried eggs,cocktailshrimp,6.61,6.07,-0.54,fried eggs,991.2999999523163,992,991.5,True,u,212843.5,1499.7000000476837,1669837961131,1500,HRV,HRV_0263,2022-11-30 19:55:27
104,"[{'imgObject': {}, 'id': 'bagel and cc', 'src': '/static/foodstim60/bagel and cc.jpg', 'key': 'u', 'origWidth': 410, 'origHeight': 410, 'width': 410, 'height': 410, 'widthPercent': 0.45, 'rescaleHeight': False, 'trialN': 104, 'loaded': True, 'loadedTime': 3696.0999999046326, 'positionName': 'LEFT', 'positionCoords': [511.6, 335], 'bid': 2.08}, {'imgObject': {}, 'id': 'edamame', 'src': '/static/foodstim60/edamame.jpg', 'key': 'i', 'origWidth': 409, 'origHeight': 410, 'width': 409, 'height': 410, 'widthPercent': 0.45, 'rescaleHeight': False, 'trialN': 104, 'loaded': True, 'loadedTime': 3826.5, 'positionName': 'RIGHT', 'positionCoords': [998.4, 335], 'bid': 0.32}]",212843.79999995232,1669837961131,bagel and cc,edamame,2.08,0.32,-1.76,bagel and cc,1220.3999999761581,1221,1221.1000000238419,True,u,214577.19999992847,1733.3999999761581,1669837962865,1734,HRV,HRV_0263,2022-11-30 19:55:27
105,"[{'imgObject': {}, 'id': 'luckycharms', 'src': '/static/foodstim60/luckycharms.jpg', 'key': 'u', 'origWidth': 410, 'origHeight': 409, 'width': 410, 'height': 409, 'widthPercent': 0.45, 'rescaleHeight': False, 'trialN': 105, 'loaded': True, 'loadedTime': 3671, 'positionName': 'LEFT', 'positionCoords': [511.6, 335.5], 'bid': 1.8}, {'imgObject': {}, 'id': 'mac & cheese', 'src': '/static/foodstim60/mac & cheese.jpg', 'key': 'i', 'origWidth': 410, 'origHeight': 410, 'width': 410, 'height': 410, 'widthPercent': 0.45, 'rescaleHeight': False, 'trialN': 105, 'loaded': True, 'loadedTime': 3672.5999999046326, 'positionName': 'RIGHT', 'positionCoords': [998.4, 335], 'bid': 4.68}]",214577.39999997616,1669837962865,luckycharms,mac & cheese,1.8,4.68,2.88,mac & cheese,1318.1999999284744,1318,1318.5,True,i,216418.79999995232,1841.3999999761581,1669837964706,1841,HRV,HRV_0263,2022-11-30 19:55:27
106,"[{'imgObject': {}, 'id': 'salad w chicken', 'src': '/static/foodstim60/salad w chicken.jpg', 'key': 'u', 'origWidth': 411, 'origHeight': 411, 'width': 411, 'height': 411, 'widthPercent': 0.45, 'rescaleHeight': False, 'trialN': 106, 'loaded': True, 'loadedTime': 3630.7999999523163, 'positionName': 'LEFT', 'positionCoords': [510.6, 334.5], 'bid': 5.3500000000000005}, {'imgObject': {}, 'id': 'lox', 'src': '/static/foodstim60/lox.jpg', 'key': 'i', 'origWidth': 410, 'origHeight': 411, 'width': 410, 'height': 411, 'widthPercent': 0.45, 'rescaleHeight': False, 'trialN': 106, 'loaded': True, 'loadedTime': 3665.5999999046326, 'positionName': 'RIGHT', 'positionCoords': [998.4, 334.5], 'bid': 6.22}]",216419.09999990463,1669837964707,salad w chicken,lox,5.3500000000000005,6.22,0.8699999999999992,lox,2180.3000000715256,2180,2180.600000023842,True,i,219114.69999992847,2695.600000023842,1669837967402,2695,HRV,HRV_0263,2022-11-30 19:55:27
107,"[{'imgObject': {}, 'id': 'chickenfingers', 'src': '/static/foodstim60/chickenfingers.jpg', 'key': 'u', 'origWidth': 410, 'origHeight': 410, 'width': 410, 'height': 410, 'widthPercent': 0.45, 'rescaleHeight': False, 'trialN': 107, 'loaded': True, 'loadedTime': 3829.0999999046326, 'positionName': 'LEFT', 'positionCoords': [511.6, 335], 'bid': 6.140000000000001}, {'imgObject': {}, 'id': 'yogurt no spoon', 'src': '/static/foodstim60/yogurt no spoon.jpg', 'key': 'i', 'origWidth': 411, 'origHeight': 410, 'width': 411, 'height': 410, 'widthPercent': 0.45, 'rescaleHeight': False, 'trialN': 107, 'loaded': True, 'loadedTime': 3612.5, 'positionName': 'RIGHT', 'positionCoords': [998.4, 335], 'bid': 4.33}]",219114.79999995232,1669837967402,chickenfingers,yogurt no spoon,6.140000000000001,4.33,-1.8100000000000005,chickenfingers,1277.0,1279,1278.2999999523163,True,u,220911.39999997616,1796.6000000238419,1669837969199,1797,HRV,HRV_0263,2022-11-30 19:55:27
108,"[{'imgObject': {}, 'id': 'burger', 'src': '/static/foodstim60/burger.jpg', 'key': 'u', 'origWidth': 409, 'origHeight': 409, 'width': 409, 'height': 409, 'widthPercent': 0.45, 'rescaleHeight': False, 'trialN': 108, 'loaded': True, 'loadedTime': 3619.1999999284744, 'positionName': 'LEFT', 'positionCoords': [512.6, 335.5], 'bid': 6.62}, {'imgObject': {}, 'id': 'fruitsalad', 'src': '/static/foodstim60/fruitsalad.jpg', 'key': 'i', 'origWidth': 410, 'origHeight': 410, 'width': 410, 'height': 410, 'widthPercent': 0.45, 'rescaleHeight': False, 'trialN': 108, 'loaded': True, 'loadedTime': 3768.0999999046326, 'positionName': 'RIGHT', 'positionCoords': [998.4, 335], 'bid': 2.6}]",220911.5,1669837969199,burger,fruitsalad,6.62,2.6,-4.02,burger,985.5,986,986.3999999761581,True,u,222411.89999997616,1500.3999999761581,1669837970699,1500,HRV,HRV_0263,2022-11-30 19:55:27
