trialN,stimuli,question,trialStartTime,trialStartTime_UNIX,stimulus1,rt,receivedResponse,rating,trialEndTime,trialDuration,stimulus1Loaded,exp,subjectId,date
0,"[{'imgObject': {}, 'id': 'roastedpotatoes', 'src': '/static/foodstim60/roastedpotatoes.jpg', 'key': 'NaN', 'origWidth': 409, 'origHeight': 410, 'width': 409, 'height': 410, 'widthPercent': 0.8, 'rescaleHeight': True, 'trialN': 0, 'loaded': True, 'loadedTime': 2759.5999999046326, 'positionName': 'CENTER', 'positionCoords': [515.5, 245]}]",Rate how much you want to eat this food from 0 (least) to 10 (most).,2998.199999809265,1669834856515,roastedpotatoes,2298.7000000476837,True,8.55,5296.899999856949,2298.7000000476837,True,HRV,HRV_0242,2022-11-30 19:03:08
1,"[{'imgObject': {}, 'id': 'salad w chicken', 'src': '/static/foodstim60/salad w chicken.jpg', 'key': 'NaN', 'origWidth': 411, 'origHeight': 411, 'width': 411, 'height': 411, 'widthPercent': 0.8, 'rescaleHeight': True, 'trialN': 1, 'loaded': True, 'loadedTime': 2772.7999999523163, 'positionName': 'CENTER', 'positionCoords': [514.5, 244.5]}]",Rate how much you want to eat this food from 0 (least) to 10 (most).,5313.299999952316,1669834858830,salad w chicken,1952.0,True,9.790000000000001,7265.299999952316,1952.0,True,HRV,HRV_0242,2022-11-30 19:03:08
2,"[{'imgObject': {}, 'id': 'baked potato', 'src': '/static/foodstim60/baked potato.jpg', 'key': 'NaN', 'origWidth': 409, 'origHeight': 410, 'width': 409, 'height': 410, 'widthPercent': 0.8, 'rescaleHeight': True, 'trialN': 2, 'loaded': True, 'loadedTime': 2769.399999856949, 'positionName': 'CENTER', 'positionCoords': [515.5, 245]}]",Rate how much you want to eat this food from 0 (least) to 10 (most).,7276.599999904633,1669834860793,baked potato,2214.5,True,7.7700000000000005,9491.099999904633,2214.5,True,HRV,HRV_0242,2022-11-30 19:03:08
3,"[{'imgObject': {}, 'id': 'edamame', 'src': '/static/foodstim60/edamame.jpg', 'key': 'NaN', 'origWidth': 409, 'origHeight': 410, 'width': 409, 'height': 410, 'widthPercent': 0.8, 'rescaleHeight': True, 'trialN': 3, 'loaded': True, 'loadedTime': 2771.0999999046326, 'positionName': 'CENTER', 'positionCoords': [515.5, 245]}]",Rate how much you want to eat this food from 0 (least) to 10 (most).,9503.099999904633,1669834863020,edamame,2536.4000000953674,True,0.76,12039.5,2536.4000000953674,True,HRV,HRV_0242,2022-11-30 19:03:08
4,"[{'imgObject': {}, 'id': 'burger', 'src': '/static/foodstim60/burger.jpg', 'key': 'NaN', 'origWidth': 409, 'origHeight': 409, 'width': 409, 'height': 409, 'widthPercent': 0.8, 'rescaleHeight': True, 'trialN': 4, 'loaded': True, 'loadedTime': 2806.899999856949, 'positionName': 'CENTER', 'positionCoords': [515.5, 245.5]}]",Rate how much you want to eat this food from 0 (least) to 10 (most).,12050.399999856949,1669834865567,burger,2177.7000000476837,True,9.88,14228.099999904633,2177.7000000476837,True,HRV,HRV_0242,2022-11-30 19:03:08
5,"[{'imgObject': {}, 'id': 'shreddedwheatwithmilk', 'src': '/static/foodstim60/shreddedwheatwithmilk.jpg', 'key': 'NaN', 'origWidth': 410, 'origHeight': 410, 'width': 410, 'height': 410, 'widthPercent': 0.8, 'rescaleHeight': True, 'trialN': 5, 'loaded': True, 'loadedTime': 2816.2999999523163, 'positionName': 'CENTER', 'positionCoords': [515, 245]}]",Rate how much you want to eat this food from 0 (least) to 10 (most).,14245.099999904633,1669834867761,shreddedwheatwithmilk,2194.7000000476837,True,1.09,16439.799999952316,2194.7000000476837,True,HRV,HRV_0242,2022-11-30 19:03:08
6,"[{'imgObject': {}, 'id': 'bagel plain', 'src': '/static/foodstim60/bagel plain.jpg', 'key': 'NaN', 'origWidth': 410, 'origHeight': 410, 'width': 410, 'height': 410, 'widthPercent': 0.8, 'rescaleHeight': True, 'trialN': 6, 'loaded': True, 'loadedTime': 2818.699999809265, 'positionName': 'CENTER', 'positionCoords': [515, 245]}]",Rate how much you want to eat this food from 0 (least) to 10 (most).,16454.599999904633,1669834869971,bagel plain,2057.2000000476837,True,5.76,18511.799999952316,2057.2000000476837,True,HRV,HRV_0242,2022-11-30 19:03:08
7,"[{'imgObject': {}, 'id': 'banana', 'src': '/static/foodstim60/banana.jpg', 'key': 'NaN', 'origWidth': 410, 'origHeight': 410, 'width': 410, 'height': 410, 'widthPercent': 0.8, 'rescaleHeight': True, 'trialN': 7, 'loaded': True, 'loadedTime': 2817.7999999523163, 'positionName': 'CENTER', 'positionCoords': [515, 245]}]",Rate how much you want to eat this food from 0 (least) to 10 (most).,18532.39999985695,1669834872049,banana,1651.2000000476837,True,2.0100000000000002,20183.599999904633,1651.2000000476837,True,HRV,HRV_0242,2022-11-30 19:03:08
8,"[{'imgObject': {}, 'id': 'raspberries', 'src': '/static/foodstim60/raspberries.jpg', 'key': 'NaN', 'origWidth': 411, 'origHeight': 411, 'width': 411, 'height': 411, 'widthPercent': 0.8, 'rescaleHeight': True, 'trialN': 8, 'loaded': True, 'loadedTime': 2819.5999999046326, 'positionName': 'CENTER', 'positionCoords': [514.5, 244.5]}]",Rate how much you want to eat this food from 0 (least) to 10 (most).,20201.199999809265,1669834873717,raspberries,1522.1000001430511,True,1.26,21723.299999952316,1522.1000001430511,True,HRV,HRV_0242,2022-11-30 19:03:08
9,"[{'imgObject': {}, 'id': 'omelette', 'src': '/static/foodstim60/omelette.jpg', 'key': 'NaN', 'origWidth': 410, 'origHeight': 409, 'width': 410, 'height': 409, 'widthPercent': 0.8, 'rescaleHeight': True, 'trialN': 9, 'loaded': True, 'loadedTime': 2820.699999809265, 'positionName': 'CENTER', 'positionCoords': [515, 245.5]}]",Rate how much you want to eat this food from 0 (least) to 10 (most).,21740.299999952316,1669834875256,omelette,1858.2000000476837,True,0.59,23598.5,1858.2000000476837,True,HRV,HRV_0242,2022-11-30 19:03:08
10,"[{'imgObject': {}, 'id': 'froot loops w milk', 'src': '/static/foodstim60/froot loops w milk.jpg', 'key': 'NaN', 'origWidth': 410, 'origHeight': 410, 'width': 410, 'height': 410, 'widthPercent': 0.8, 'rescaleHeight': True, 'trialN': 10, 'loaded': True, 'loadedTime': 2829.2999999523163, 'positionName': 'CENTER', 'positionCoords': [515, 245]}]",Rate how much you want to eat this food from 0 (least) to 10 (most).,23621.699999809265,1669834877138,froot loops w milk,1607.3000001907349,True,4.09,25229.0,1607.3000001907349,True,HRV,HRV_0242,2022-11-30 19:03:08
11,"[{'imgObject': {}, 'id': 'rigatoni', 'src': '/static/foodstim60/rigatoni.jpg', 'key': 'NaN', 'origWidth': 411, 'origHeight': 411, 'width': 411, 'height': 411, 'widthPercent': 0.8, 'rescaleHeight': True, 'trialN': 11, 'loaded': True, 'loadedTime': 2830.7999999523163, 'positionName': 'CENTER', 'positionCoords': [514.5, 244.5]}]",Rate how much you want to eat this food from 0 (least) to 10 (most).,25253.299999952316,1669834878769,rigatoni,1863.2999999523163,True,2.58,27116.599999904633,1863.2999999523163,True,HRV,HRV_0242,2022-11-30 19:03:08
12,"[{'imgObject': {}, 'id': 'fried eggs', 'src': '/static/foodstim60/fried eggs.jpg', 'key': 'NaN', 'origWidth': 410, 'origHeight': 410, 'width': 410, 'height': 410, 'widthPercent': 0.8, 'rescaleHeight': True, 'trialN': 12, 'loaded': True, 'loadedTime': 2832.5, 'positionName': 'CENTER', 'positionCoords': [515, 245]}]",Rate how much you want to eat this food from 0 (least) to 10 (most).,27128.0,1669834880644,fried eggs,1448.5,True,8.44,28576.5,1448.5,True,HRV,HRV_0242,2022-11-30 19:03:08
13,"[{'imgObject': {}, 'id': 'pear', 'src': '/static/foodstim60/pear.jpg', 'key': 'NaN', 'origWidth': 411, 'origHeight': 410, 'width': 411, 'height': 410, 'widthPercent': 0.8, 'rescaleHeight': True, 'trialN': 13, 'loaded': True, 'loadedTime': 2833.7999999523163, 'positionName': 'CENTER', 'positionCoords': [514.5, 245]}]",Rate how much you want to eat this food from 0 (least) to 10 (most).,28592.89999985695,1669834882108,pear,2670.5,True,2.54,31263.39999985695,2670.5,True,HRV,HRV_0242,2022-11-30 19:03:08
14,"[{'imgObject': {}, 'id': 'Grapes', 'src': '/static/foodstim60/Grapes.jpg', 'key': 'NaN', 'origWidth': 411, 'origHeight': 411, 'width': 411, 'height': 411, 'widthPercent': 0.8, 'rescaleHeight': True, 'trialN': 14, 'loaded': True, 'loadedTime': 2835, 'positionName': 'CENTER', 'positionCoords': [514.5, 244.5]}]",Rate how much you want to eat this food from 0 (least) to 10 (most).,31275.599999904633,1669834884791,Grapes,1891.2999999523163,True,3.48,33166.89999985695,1891.2999999523163,True,HRV,HRV_0242,2022-11-30 19:03:08
15,"[{'imgObject': {}, 'id': 'blackbeanswithrice', 'src': '/static/foodstim60/blackbeanswithrice.jpg', 'key': 'NaN', 'origWidth': 410, 'origHeight': 410, 'width': 410, 'height': 410, 'widthPercent': 0.8, 'rescaleHeight': True, 'trialN': 15, 'loaded': True, 'loadedTime': 2836.399999856949, 'positionName': 'CENTER', 'positionCoords': [515, 245]}]",Rate how much you want to eat this food from 0 (least) to 10 (most).,33179.39999985695,1669834886695,blackbeanswithrice,1875.0,True,7.13,35054.39999985695,1875.0,True,HRV,HRV_0242,2022-11-30 19:03:08
16,"[{'imgObject': {}, 'id': 'lox', 'src': '/static/foodstim60/lox.jpg', 'key': 'NaN', 'origWidth': 410, 'origHeight': 411, 'width': 410, 'height': 411, 'widthPercent': 0.8, 'rescaleHeight': True, 'trialN': 16, 'loaded': True, 'loadedTime': 2837.899999856949, 'positionName': 'CENTER', 'positionCoords': [515, 244.5]}]",Rate how much you want to eat this food from 0 (least) to 10 (most).,35068.699999809265,1669834888584,lox,1829.1000001430511,True,9.83,36897.799999952316,1829.1000001430511,True,HRV,HRV_0242,2022-11-30 19:03:08
17,"[{'imgObject': {}, 'id': 'orange slices', 'src': '/static/foodstim60/orange slices.jpg', 'key': 'NaN', 'origWidth': 409, 'origHeight': 410, 'width': 409, 'height': 410, 'widthPercent': 0.8, 'rescaleHeight': True, 'trialN': 17, 'loaded': True, 'loadedTime': 2838.7999999523163, 'positionName': 'CENTER', 'positionCoords': [515.5, 245]}]",Rate how much you want to eat this food from 0 (least) to 10 (most).,36910.5,1669834890426,orange slices,2407.0999999046326,True,1.6500000000000001,39317.59999990463,2407.0999999046326,True,HRV,HRV_0242,2022-11-30 19:03:08
18,"[{'imgObject': {}, 'id': 'raisin bran w milk', 'src': '/static/foodstim60/raisin bran w milk.jpg', 'key': 'NaN', 'origWidth': 411, 'origHeight': 411, 'width': 411, 'height': 411, 'widthPercent': 0.8, 'rescaleHeight': True, 'trialN': 18, 'loaded': True, 'loadedTime': 2840.0999999046326, 'positionName': 'CENTER', 'positionCoords': [514.5, 244.5]}]",Rate how much you want to eat this food from 0 (least) to 10 (most).,39331.299999952316,1669834892846,raisin bran w milk,2133.5,True,1.1500000000000001,41464.799999952316,2133.5,True,HRV,HRV_0242,2022-11-30 19:03:08
19,"[{'imgObject': {}, 'id': 'granola w milk', 'src': '/static/foodstim60/granola w milk.jpg', 'key': 'NaN', 'origWidth': 410, 'origHeight': 410, 'width': 410, 'height': 410, 'widthPercent': 0.8, 'rescaleHeight': True, 'trialN': 19, 'loaded': True, 'loadedTime': 2841.5, 'positionName': 'CENTER', 'positionCoords': [515, 245]}]",Rate how much you want to eat this food from 0 (least) to 10 (most).,41489.09999990463,1669834895004,granola w milk,1922.7000000476837,True,0.87,43411.799999952316,1922.7000000476837,True,HRV,HRV_0242,2022-11-30 19:03:08
20,"[{'imgObject': {}, 'id': 'mashed potato', 'src': '/static/foodstim60/mashed potato.jpg', 'key': 'NaN', 'origWidth': 409, 'origHeight': 409, 'width': 409, 'height': 409, 'widthPercent': 0.8, 'rescaleHeight': True, 'trialN': 20, 'loaded': True, 'loadedTime': 2842.5, 'positionName': 'CENTER', 'positionCoords': [515.5, 245.5]}]",Rate how much you want to eat this food from 0 (least) to 10 (most).,43438.299999952316,1669834896953,mashed potato,1910.0999999046326,True,7.44,45348.39999985695,1910.0999999046326,True,HRV,HRV_0242,2022-11-30 19:03:08
21,"[{'imgObject': {}, 'id': 'cantaloupe', 'src': '/static/foodstim60/cantaloupe.jpg', 'key': 'NaN', 'origWidth': 409, 'origHeight': 409, 'width': 409, 'height': 409, 'widthPercent': 0.8, 'rescaleHeight': True, 'trialN': 21, 'loaded': True, 'loadedTime': 2843.699999809265, 'positionName': 'CENTER', 'positionCoords': [515.5, 245.5]}]",Rate how much you want to eat this food from 0 (least) to 10 (most).,45367.799999952316,1669834898883,cantaloupe,2182.0,True,2.38,47549.799999952316,2182.0,True,HRV,HRV_0242,2022-11-30 19:03:08
22,"[{'imgObject': {}, 'id': 'popsicles', 'src': '/static/foodstim60/popsicles.jpg', 'key': 'NaN', 'origWidth': 410, 'origHeight': 410, 'width': 410, 'height': 410, 'widthPercent': 0.8, 'rescaleHeight': True, 'trialN': 22, 'loaded': True, 'loadedTime': 2850.199999809265, 'positionName': 'CENTER', 'positionCoords': [515, 245]}]",Rate how much you want to eat this food from 0 (least) to 10 (most).,47562.199999809265,1669834901077,popsicles,1596.4000000953674,True,1.37,49158.59999990463,1596.4000000953674,True,HRV,HRV_0242,2022-11-30 19:03:08
23,"[{'imgObject': {}, 'id': 'cheerios', 'src': '/static/foodstim60/cheerios.jpg', 'key': 'NaN', 'origWidth': 409, 'origHeight': 410, 'width': 409, 'height': 410, 'widthPercent': 0.8, 'rescaleHeight': True, 'trialN': 23, 'loaded': True, 'loadedTime': 2852.199999809265, 'positionName': 'CENTER', 'positionCoords': [515.5, 245]}]",Rate how much you want to eat this food from 0 (least) to 10 (most).,49173.299999952316,1669834902688,cheerios,2128.7999999523163,True,5.59,51302.09999990463,2128.7999999523163,True,HRV,HRV_0242,2022-11-30 19:03:08
24,"[{'imgObject': {}, 'id': 'grilled chicken strips', 'src': '/static/foodstim60/grilled chicken strips.jpg', 'key': 'NaN', 'origWidth': 410, 'origHeight': 411, 'width': 410, 'height': 411, 'widthPercent': 0.8, 'rescaleHeight': True, 'trialN': 24, 'loaded': True, 'loadedTime': 2872.5999999046326, 'positionName': 'CENTER', 'positionCoords': [515, 244.5]}]",Rate how much you want to eat this food from 0 (least) to 10 (most).,51326.39999985695,1669834904841,grilled chicken strips,1847.7999999523163,True,7.9,53174.199999809265,1847.7999999523163,True,HRV,HRV_0242,2022-11-30 19:03:08
25,"[{'imgObject': {}, 'id': 'mac & cheese', 'src': '/static/foodstim60/mac & cheese.jpg', 'key': 'NaN', 'origWidth': 410, 'origHeight': 410, 'width': 410, 'height': 410, 'widthPercent': 0.8, 'rescaleHeight': True, 'trialN': 25, 'loaded': True, 'loadedTime': 2896.899999856949, 'positionName': 'CENTER', 'positionCoords': [515, 245]}]",Rate how much you want to eat this food from 0 (least) to 10 (most).,53196.799999952316,1669834906711,mac & cheese,1634.3999998569489,True,7.15,54831.199999809265,1634.3999998569489,True,HRV,HRV_0242,2022-11-30 19:03:08
26,"[{'imgObject': {}, 'id': 'turkey sandwich', 'src': '/static/foodstim60/turkey sandwich.jpg', 'key': 'NaN', 'origWidth': 409, 'origHeight': 409, 'width': 409, 'height': 409, 'widthPercent': 0.8, 'rescaleHeight': True, 'trialN': 26, 'loaded': True, 'loadedTime': 2875.2999999523163, 'positionName': 'CENTER', 'positionCoords': [515.5, 245.5]}]",Rate how much you want to eat this food from 0 (least) to 10 (most).,54843.699999809265,1669834908358,turkey sandwich,1511.6000001430511,True,8.59,56355.299999952316,1511.6000001430511,True,HRV,HRV_0242,2022-11-30 19:03:08
27,"[{'imgObject': {}, 'id': 'olives', 'src': '/static/foodstim60/olives.jpg', 'key': 'NaN', 'origWidth': 410, 'origHeight': 410, 'width': 410, 'height': 410, 'widthPercent': 0.8, 'rescaleHeight': True, 'trialN': 27, 'loaded': True, 'loadedTime': 2876.699999809265, 'positionName': 'CENTER', 'positionCoords': [515, 245]}]",Rate how much you want to eat this food from 0 (least) to 10 (most).,56378.5,1669834909893,olives,3110.5,True,0.73,59489.0,3110.5,True,HRV,HRV_0242,2022-11-30 19:03:08
28,"[{'imgObject': {}, 'id': 'seaweed', 'src': '/static/foodstim60/seaweed.jpg', 'key': 'NaN', 'origWidth': 410, 'origHeight': 410, 'width': 410, 'height': 410, 'widthPercent': 0.8, 'rescaleHeight': True, 'trialN': 28, 'loaded': True, 'loadedTime': 2899, 'positionName': 'CENTER', 'positionCoords': [515, 245]}]",Rate how much you want to eat this food from 0 (least) to 10 (most).,59504.199999809265,1669834913018,seaweed,1732.6000001430511,True,9.51,61236.799999952316,1732.6000001430511,True,HRV,HRV_0242,2022-11-30 19:03:08
29,"[{'imgObject': {}, 'id': 'steak', 'src': '/static/foodstim60/steak.jpg', 'key': 'NaN', 'origWidth': 410, 'origHeight': 410, 'width': 410, 'height': 410, 'widthPercent': 0.8, 'rescaleHeight': True, 'trialN': 29, 'loaded': True, 'loadedTime': 2900.199999809265, 'positionName': 'CENTER', 'positionCoords': [515, 245]}]",Rate how much you want to eat this food from 0 (least) to 10 (most).,61257.5,1669834914772,steak,1849.0,True,9.86,63106.5,1849.0,True,HRV,HRV_0242,2022-11-30 19:03:08
30,"[{'imgObject': {}, 'id': 'ice cream sundae 002', 'src': '/static/foodstim60/ice cream sundae 002.jpg', 'key': 'NaN', 'origWidth': 409, 'origHeight': 409, 'width': 409, 'height': 409, 'widthPercent': 0.8, 'rescaleHeight': True, 'trialN': 30, 'loaded': True, 'loadedTime': 2901.5, 'positionName': 'CENTER', 'positionCoords': [515.5, 245.5]}]",Rate how much you want to eat this food from 0 (least) to 10 (most).,63119.09999990463,1669834916633,ice cream sundae 002,2323.7000000476837,True,7.58,65442.799999952316,2323.7000000476837,True,HRV,HRV_0242,2022-11-30 19:03:08
31,"[{'imgObject': {}, 'id': 'kiwi', 'src': '/static/foodstim60/kiwi.jpg', 'key': 'NaN', 'origWidth': 410, 'origHeight': 410, 'width': 410, 'height': 410, 'widthPercent': 0.8, 'rescaleHeight': True, 'trialN': 31, 'loaded': True, 'loadedTime': 2902.5999999046326, 'positionName': 'CENTER', 'positionCoords': [515, 245]}]",Rate how much you want to eat this food from 0 (least) to 10 (most).,65466.39999985695,1669834918980,kiwi,2355.2000000476837,True,6.55,67821.59999990463,2355.2000000476837,True,HRV,HRV_0242,2022-11-30 19:03:08
32,"[{'imgObject': {}, 'id': 'fruitsalad', 'src': '/static/foodstim60/fruitsalad.jpg', 'key': 'NaN', 'origWidth': 410, 'origHeight': 410, 'width': 410, 'height': 410, 'widthPercent': 0.8, 'rescaleHeight': True, 'trialN': 32, 'loaded': True, 'loadedTime': 2918.5, 'positionName': 'CENTER', 'positionCoords': [515, 245]}]",Rate how much you want to eat this food from 0 (least) to 10 (most).,67834.89999985695,1669834921349,fruitsalad,2369.600000143051,True,6.87,70204.5,2369.600000143051,True,HRV,HRV_0242,2022-11-30 19:03:08
33,"[{'imgObject': {}, 'id': 'sweetpotato', 'src': '/static/foodstim60/sweetpotato.jpg', 'key': 'NaN', 'origWidth': 410, 'origHeight': 410, 'width': 410, 'height': 410, 'widthPercent': 0.8, 'rescaleHeight': True, 'trialN': 33, 'loaded': True, 'loadedTime': 2920.2999999523163, 'positionName': 'CENTER', 'positionCoords': [515, 245]}]",Rate how much you want to eat this food from 0 (least) to 10 (most).,70223.69999980927,1669834923737,sweetpotato,1947.6000001430511,True,7.91,72171.29999995232,1947.6000001430511,True,HRV,HRV_0242,2022-11-30 19:03:08
34,"[{'imgObject': {}, 'id': 'chickenfingers', 'src': '/static/foodstim60/chickenfingers.jpg', 'key': 'NaN', 'origWidth': 410, 'origHeight': 410, 'width': 410, 'height': 410, 'widthPercent': 0.8, 'rescaleHeight': True, 'trialN': 34, 'loaded': True, 'loadedTime': 2921.2999999523163, 'positionName': 'CENTER', 'positionCoords': [515, 245]}]",Rate how much you want to eat this food from 0 (least) to 10 (most).,72184.89999985695,1669834925699,chickenfingers,2384.0,True,9.77,74568.89999985695,2384.0,True,HRV,HRV_0242,2022-11-30 19:03:08
35,"[{'imgObject': {}, 'id': 'veggieswithdip', 'src': '/static/foodstim60/veggieswithdip.jpg', 'key': 'NaN', 'origWidth': 409, 'origHeight': 409, 'width': 409, 'height': 409, 'widthPercent': 0.8, 'rescaleHeight': True, 'trialN': 35, 'loaded': True, 'loadedTime': 2922.0999999046326, 'positionName': 'CENTER', 'positionCoords': [515.5, 245.5]}]",Rate how much you want to eat this food from 0 (least) to 10 (most).,74592.39999985695,1669834928106,veggieswithdip,2028.0,True,2.56,76620.39999985695,2028.0,True,HRV,HRV_0242,2022-11-30 19:03:08
36,"[{'imgObject': {}, 'id': 'tacos', 'src': '/static/foodstim60/tacos.jpg', 'key': 'NaN', 'origWidth': 411, 'origHeight': 411, 'width': 411, 'height': 411, 'widthPercent': 0.8, 'rescaleHeight': True, 'trialN': 36, 'loaded': True, 'loadedTime': 2923.0999999046326, 'positionName': 'CENTER', 'positionCoords': [514.5, 244.5]}]",Rate how much you want to eat this food from 0 (least) to 10 (most).,76634.0,1669834930147,tacos,1849.6999998092651,True,8.05,78483.69999980927,1849.6999998092651,True,HRV,HRV_0242,2022-11-30 19:03:08
37,"[{'imgObject': {}, 'id': 'luckycharms', 'src': '/static/foodstim60/luckycharms.jpg', 'key': 'NaN', 'origWidth': 410, 'origHeight': 409, 'width': 410, 'height': 409, 'widthPercent': 0.8, 'rescaleHeight': True, 'trialN': 37, 'loaded': True, 'loadedTime': 2932.2999999523163, 'positionName': 'CENTER', 'positionCoords': [515, 245.5]}]",Rate how much you want to eat this food from 0 (least) to 10 (most).,78500.59999990463,1669834932014,luckycharms,1886.9000000953674,True,3.29,80387.5,1886.9000000953674,True,HRV,HRV_0242,2022-11-30 19:03:08
38,"[{'imgObject': {}, 'id': 'salmon', 'src': '/static/foodstim60/salmon.jpg', 'key': 'NaN', 'origWidth': 410, 'origHeight': 409, 'width': 410, 'height': 409, 'widthPercent': 0.8, 'rescaleHeight': True, 'trialN': 38, 'loaded': True, 'loadedTime': 2933.2999999523163, 'positionName': 'CENTER', 'positionCoords': [515, 245.5]}]",Rate how much you want to eat this food from 0 (least) to 10 (most).,80408.29999995232,1669834933922,salmon,4588.899999856949,True,6.01,84997.19999980927,4588.899999856949,True,HRV,HRV_0242,2022-11-30 19:03:08
39,"[{'imgObject': {}, 'id': 'burrito', 'src': '/static/foodstim60/burrito.jpg', 'key': 'NaN', 'origWidth': 410, 'origHeight': 410, 'width': 410, 'height': 410, 'widthPercent': 0.8, 'rescaleHeight': True, 'trialN': 39, 'loaded': True, 'loadedTime': 2934.199999809265, 'positionName': 'CENTER', 'positionCoords': [515, 245]}]",Rate how much you want to eat this food from 0 (least) to 10 (most).,85017.5,1669834938531,burrito,1747.5,True,8.0,86765.0,1747.5,True,HRV,HRV_0242,2022-11-30 19:03:08
40,"[{'imgObject': {}, 'id': 'mango', 'src': '/static/foodstim60/mango.jpg', 'key': 'NaN', 'origWidth': 411, 'origHeight': 411, 'width': 411, 'height': 411, 'widthPercent': 0.8, 'rescaleHeight': True, 'trialN': 40, 'loaded': True, 'loadedTime': 2935, 'positionName': 'CENTER', 'positionCoords': [514.5, 244.5]}]",Rate how much you want to eat this food from 0 (least) to 10 (most).,86782.09999990463,1669834940295,mango,1954.2000000476837,True,6.62,88736.29999995232,1954.2000000476837,True,HRV,HRV_0242,2022-11-30 19:03:08
41,"[{'imgObject': {}, 'id': 'eggs', 'src': '/static/foodstim60/eggs.jpg', 'key': 'NaN', 'origWidth': 409, 'origHeight': 409, 'width': 409, 'height': 409, 'widthPercent': 0.8, 'rescaleHeight': True, 'trialN': 41, 'loaded': True, 'loadedTime': 2935.699999809265, 'positionName': 'CENTER', 'positionCoords': [515.5, 245.5]}]",Rate how much you want to eat this food from 0 (least) to 10 (most).,88748.79999995232,1669834942262,eggs,2430.5,True,4.61,91179.29999995232,2430.5,True,HRV,HRV_0242,2022-11-30 19:03:08
42,"[{'imgObject': {}, 'id': 'bagel and cc', 'src': '/static/foodstim60/bagel and cc.jpg', 'key': 'NaN', 'origWidth': 410, 'origHeight': 410, 'width': 410, 'height': 410, 'widthPercent': 0.8, 'rescaleHeight': True, 'trialN': 42, 'loaded': True, 'loadedTime': 2946.199999809265, 'positionName': 'CENTER', 'positionCoords': [515, 245]}]",Rate how much you want to eat this food from 0 (least) to 10 (most).,91191.5,1669834944704,bagel and cc,2386.699999809265,True,9.02,93578.19999980927,2386.699999809265,True,HRV,HRV_0242,2022-11-30 19:03:08
43,"[{'imgObject': {}, 'id': 'eggsalad', 'src': '/static/foodstim60/eggsalad.jpg', 'key': 'NaN', 'origWidth': 410, 'origHeight': 409, 'width': 410, 'height': 409, 'widthPercent': 0.8, 'rescaleHeight': True, 'trialN': 43, 'loaded': True, 'loadedTime': 2947.2999999523163, 'positionName': 'CENTER', 'positionCoords': [515, 245.5]}]",Rate how much you want to eat this food from 0 (least) to 10 (most).,93595.69999980927,1669834947108,eggsalad,2202.5,True,2.29,95798.19999980927,2202.5,True,HRV,HRV_0242,2022-11-30 19:03:08
44,"[{'imgObject': {}, 'id': 'hashbrowns', 'src': '/static/foodstim60/hashbrowns.jpg', 'key': 'NaN', 'origWidth': 411, 'origHeight': 410, 'width': 411, 'height': 410, 'widthPercent': 0.8, 'rescaleHeight': True, 'trialN': 44, 'loaded': True, 'loadedTime': 2948.0999999046326, 'positionName': 'CENTER', 'positionCoords': [514.5, 245]}]",Rate how much you want to eat this food from 0 (least) to 10 (most).,95813.0,1669834949326,hashbrowns,2556.399999856949,True,6.51,98369.39999985695,2556.399999856949,True,HRV,HRV_0242,2022-11-30 19:03:08
45,"[{'imgObject': {}, 'id': 'cocktailshrimp', 'src': '/static/foodstim60/cocktailshrimp.jpg', 'key': 'NaN', 'origWidth': 410, 'origHeight': 410, 'width': 410, 'height': 410, 'widthPercent': 0.8, 'rescaleHeight': True, 'trialN': 45, 'loaded': True, 'loadedTime': 2949, 'positionName': 'CENTER', 'positionCoords': [515, 245]}]",Rate how much you want to eat this food from 0 (least) to 10 (most).,98389.79999995232,1669834951902,cocktailshrimp,2485.2999999523163,True,9.16,100875.09999990463,2485.2999999523163,True,HRV,HRV_0242,2022-11-30 19:03:08
46,"[{'imgObject': {}, 'id': 'chicken nuggets2', 'src': '/static/foodstim60/chicken nuggets2.jpg', 'key': 'NaN', 'origWidth': 410, 'origHeight': 409, 'width': 410, 'height': 409, 'widthPercent': 0.8, 'rescaleHeight': True, 'trialN': 46, 'loaded': True, 'loadedTime': 2949.7999999523163, 'positionName': 'CENTER', 'positionCoords': [515, 245.5]}]",Rate how much you want to eat this food from 0 (least) to 10 (most).,100886.5,1669834954399,chicken nuggets2,1545.6999998092651,True,9.52,102432.19999980927,1545.6999998092651,True,HRV,HRV_0242,2022-11-30 19:03:08
47,"[{'imgObject': {}, 'id': 'cherries', 'src': '/static/foodstim60/cherries.jpg', 'key': 'NaN', 'origWidth': 410, 'origHeight': 411, 'width': 410, 'height': 411, 'widthPercent': 0.8, 'rescaleHeight': True, 'trialN': 47, 'loaded': True, 'loadedTime': 2958.899999856949, 'positionName': 'CENTER', 'positionCoords': [515, 244.5]}]",Rate how much you want to eat this food from 0 (least) to 10 (most).,102452.5,1669834955965,cherries,2829.0,True,1.55,105281.5,2829.0,True,HRV,HRV_0242,2022-11-30 19:03:08
48,"[{'imgObject': {}, 'id': 'corn cob', 'src': '/static/foodstim60/corn cob.jpg', 'key': 'NaN', 'origWidth': 411, 'origHeight': 411, 'width': 411, 'height': 411, 'widthPercent': 0.8, 'rescaleHeight': True, 'trialN': 48, 'loaded': True, 'loadedTime': 2960.399999856949, 'positionName': 'CENTER', 'positionCoords': [514.5, 244.5]}]",Rate how much you want to eat this food from 0 (least) to 10 (most).,105296.29999995232,1669834958808,corn cob,2271.5,True,5.8,107567.79999995232,2271.5,True,HRV,HRV_0242,2022-11-30 19:03:08
49,"[{'imgObject': {}, 'id': 'rigatoni and sauce', 'src': '/static/foodstim60/rigatoni and sauce.jpg', 'key': 'NaN', 'origWidth': 410, 'origHeight': 411, 'width': 410, 'height': 411, 'widthPercent': 0.8, 'rescaleHeight': True, 'trialN': 49, 'loaded': True, 'loadedTime': 2961.2999999523163, 'positionName': 'CENTER', 'positionCoords': [515, 244.5]}]",Rate how much you want to eat this food from 0 (least) to 10 (most).,107580.79999995232,1669834961093,rigatoni and sauce,2037.8999998569489,True,9.36,109618.69999980927,2037.8999998569489,True,HRV,HRV_0242,2022-11-30 19:03:08
50,"[{'imgObject': {}, 'id': 'hotdog w must', 'src': '/static/foodstim60/hotdog w must.jpg', 'key': 'NaN', 'origWidth': 409, 'origHeight': 409, 'width': 409, 'height': 409, 'widthPercent': 0.8, 'rescaleHeight': True, 'trialN': 50, 'loaded': True, 'loadedTime': 2971.399999856949, 'positionName': 'CENTER', 'positionCoords': [515.5, 245.5]}]",Rate how much you want to eat this food from 0 (least) to 10 (most).,109633.79999995232,1669834963146,hotdog w must,1672.2000000476837,True,9.0,111306.0,1672.2000000476837,True,HRV,HRV_0242,2022-11-30 19:03:08
51,"[{'imgObject': {}, 'id': 'yogurt no spoon', 'src': '/static/foodstim60/yogurt no spoon.jpg', 'key': 'NaN', 'origWidth': 411, 'origHeight': 410, 'width': 411, 'height': 410, 'widthPercent': 0.8, 'rescaleHeight': True, 'trialN': 51, 'loaded': True, 'loadedTime': 2972.399999856949, 'positionName': 'CENTER', 'positionCoords': [514.5, 245]}]",Rate how much you want to eat this food from 0 (least) to 10 (most).,111318.5,1669834964830,yogurt no spoon,5394.299999952316,True,5.55,116712.79999995232,5394.299999952316,True,HRV,HRV_0242,2022-11-30 19:03:08
52,"[{'imgObject': {}, 'id': 'cherry tomato', 'src': '/static/foodstim60/cherry tomato.jpg', 'key': 'NaN', 'origWidth': 410, 'origHeight': 410, 'width': 410, 'height': 410, 'widthPercent': 0.8, 'rescaleHeight': True, 'trialN': 52, 'loaded': True, 'loadedTime': 2973.199999809265, 'positionName': 'CENTER', 'positionCoords': [515, 245]}]",Rate how much you want to eat this food from 0 (least) to 10 (most).,116737.69999980927,1669834970249,cherry tomato,3151.9000000953674,True,4.87,119889.59999990463,3151.9000000953674,True,HRV,HRV_0242,2022-11-30 19:03:08
53,"[{'imgObject': {}, 'id': 'strawberries', 'src': '/static/foodstim60/strawberries.jpg', 'key': 'NaN', 'origWidth': 410, 'origHeight': 410, 'width': 410, 'height': 410, 'widthPercent': 0.8, 'rescaleHeight': True, 'trialN': 53, 'loaded': True, 'loadedTime': 2973.899999856949, 'positionName': 'CENTER', 'positionCoords': [515, 245]}]",Rate how much you want to eat this food from 0 (least) to 10 (most).,119903.79999995232,1669834973415,strawberries,1835.0,True,6.25,121738.79999995232,1835.0,True,HRV,HRV_0242,2022-11-30 19:03:08
54,"[{'imgObject': {}, 'id': 'turkeysandwich', 'src': '/static/foodstim60/turkeysandwich.jpg', 'key': 'NaN', 'origWidth': 409, 'origHeight': 409, 'width': 409, 'height': 409, 'widthPercent': 0.8, 'rescaleHeight': True, 'trialN': 54, 'loaded': True, 'loadedTime': 2974.899999856949, 'positionName': 'CENTER', 'positionCoords': [515.5, 245.5]}]",Rate how much you want to eat this food from 0 (least) to 10 (most).,121752.69999980927,1669834975264,turkeysandwich,1643.5,True,8.13,123396.19999980927,1643.5,True,HRV,HRV_0242,2022-11-30 19:03:08
55,"[{'imgObject': {}, 'id': 'Tribe humus pita', 'src': '/static/foodstim60/Tribe humus pita.jpg', 'key': 'NaN', 'origWidth': 411, 'origHeight': 411, 'width': 411, 'height': 411, 'widthPercent': 0.8, 'rescaleHeight': True, 'trialN': 55, 'loaded': True, 'loadedTime': 2983.5999999046326, 'positionName': 'CENTER', 'positionCoords': [514.5, 244.5]}]",Rate how much you want to eat this food from 0 (least) to 10 (most).,123408.59999990463,1669834976920,Tribe humus pita,3387.7000000476837,True,8.73,126796.29999995232,3387.7000000476837,True,HRV,HRV_0242,2022-11-30 19:03:08
56,"[{'imgObject': {}, 'id': 'avocado', 'src': '/static/foodstim60/avocado.jpg', 'key': 'NaN', 'origWidth': 409, 'origHeight': 409, 'width': 409, 'height': 409, 'widthPercent': 0.8, 'rescaleHeight': True, 'trialN': 56, 'loaded': True, 'loadedTime': 2985.899999856949, 'positionName': 'CENTER', 'positionCoords': [515.5, 245.5]}]",Rate how much you want to eat this food from 0 (least) to 10 (most).,126815.5,1669834980327,avocado,1536.0999999046326,True,6.97,128351.59999990463,1536.0999999046326,True,HRV,HRV_0242,2022-11-30 19:03:08
57,"[{'imgObject': {}, 'id': 'sushi w_condiments', 'src': '/static/foodstim60/sushi w_condiments.jpg', 'key': 'NaN', 'origWidth': 410, 'origHeight': 410, 'width': 410, 'height': 410, 'widthPercent': 0.8, 'rescaleHeight': True, 'trialN': 57, 'loaded': True, 'loadedTime': 2986.699999809265, 'positionName': 'CENTER', 'positionCoords': [515, 245]}]",Rate how much you want to eat this food from 0 (least) to 10 (most).,128368.09999990463,1669834981879,sushi w_condiments,1917.4000000953674,True,9.88,130285.5,1917.4000000953674,True,HRV,HRV_0242,2022-11-30 19:03:08
58,"[{'imgObject': {}, 'id': 'apple slices', 'src': '/static/foodstim60/apple slices.jpg', 'key': 'NaN', 'origWidth': 409, 'origHeight': 410, 'width': 409, 'height': 410, 'widthPercent': 0.8, 'rescaleHeight': True, 'trialN': 58, 'loaded': True, 'loadedTime': 2987.5999999046326, 'positionName': 'CENTER', 'positionCoords': [515.5, 245]}]",Rate how much you want to eat this food from 0 (least) to 10 (most).,130302.79999995232,1669834983814,apple slices,2152.7000000476837,True,2.37,132455.5,2152.7000000476837,True,HRV,HRV_0242,2022-11-30 19:03:08
59,"[{'imgObject': {}, 'id': 'blueberries', 'src': '/static/foodstim60/blueberries.jpg', 'key': 'NaN', 'origWidth': 411, 'origHeight': 411, 'width': 411, 'height': 411, 'widthPercent': 0.8, 'rescaleHeight': True, 'trialN': 59, 'loaded': True, 'loadedTime': 2988.5, 'positionName': 'CENTER', 'positionCoords': [514.5, 244.5]}]",Rate how much you want to eat this food from 0 (least) to 10 (most).,132472.5,1669834985983,blueberries,2147.7999999523163,True,5.7,134620.29999995232,2147.7999999523163,True,HRV,HRV_0242,2022-11-30 19:03:08
