trialN,stimuli,trialStartTime,trialStartTime_UNIX,stimulus1,stimulus2,stimulus1Bid,stimulus2Bid,delta,selected,rt,rt_UNIX,rt_perfnow,receivedResponse,rsp,trialEndTime,trialDuration,trialEndTime_UNIX,trialDuration_UNIX,exp,subjectId,date
0,"[{'imgObject': {}, 'id': 'salad w chicken', 'src': '/static/foodstim60/salad w chicken.jpg', 'key': 'u', 'origWidth': 411, 'origHeight': 411, 'width': 411, 'height': 411, 'widthPercent': 0.45, 'rescaleHeight': False, 'trialN': 0, 'loaded': True, 'loadedTime': 3067.5999999046326, 'positionName': 'LEFT', 'positionCoords': [280.2, 244.5], 'bid': 9.79}, {'imgObject': {}, 'id': 'roastedpotatoes', 'src': '/static/foodstim60/roastedpotatoes.jpg', 'key': 'i', 'origWidth': 409, 'origHeight': 410, 'width': 409, 'height': 410, 'widthPercent': 0.45, 'rescaleHeight': False, 'trialN': 0, 'loaded': True, 'loadedTime': 3095.2000000476837, 'positionName': 'RIGHT', 'positionCoords': [748.8, 245], 'bid': 8.55}]",3402.899999856949,1669835063750,salad w chicken,roastedpotatoes,9.79,8.55,-1.2399999999999984,salad w chicken,1123.2000000476837,1128,1128.8000001907349,True,u,5033.0,1630.1000001430511,1669835065380,1630,HRV,HRV_0242,2022-11-30 19:09:30
1,"[{'imgObject': {}, 'id': 'turkey sandwich', 'src': '/static/foodstim60/turkey sandwich.jpg', 'key': 'u', 'origWidth': 409, 'origHeight': 409, 'width': 409, 'height': 409, 'widthPercent': 0.45, 'rescaleHeight': False, 'trialN': 1, 'loaded': True, 'loadedTime': 3101.2999999523163, 'positionName': 'LEFT', 'positionCoords': [282.2, 245.5], 'bid': 8.59}, {'imgObject': {}, 'id': 'fried eggs', 'src': '/static/foodstim60/fried eggs.jpg', 'key': 'i', 'origWidth': 410, 'origHeight': 410, 'width': 410, 'height': 410, 'widthPercent': 0.45, 'rescaleHeight': False, 'trialN': 1, 'loaded': True, 'loadedTime': 3111.0999999046326, 'positionName': 'RIGHT', 'positionCoords': [748.8, 245], 'bid': 8.44}]",5033.399999856949,1669835065380,turkey sandwich,fried eggs,8.59,8.44,-0.15000000000000036,turkey sandwich,1004.6000001430511,1010,1009.8000001907349,True,u,6548.5,1515.1000001430511,1669835066895,1515,HRV,HRV_0242,2022-11-30 19:09:30
2,"[{'imgObject': {}, 'id': 'froot loops w milk', 'src': '/static/foodstim60/froot loops w milk.jpg', 'key': 'u', 'origWidth': 410, 'origHeight': 410, 'width': 410, 'height': 410, 'widthPercent': 0.45, 'rescaleHeight': False, 'trialN': 2, 'loaded': True, 'loadedTime': 3115.2000000476837, 'positionName': 'LEFT', 'positionCoords': [281.2, 245], 'bid': 4.09}, {'imgObject': {}, 'id': 'Grapes', 'src': '/static/foodstim60/Grapes.jpg', 'key': 'i', 'origWidth': 411, 'origHeight': 411, 'width': 411, 'height': 411, 'widthPercent': 0.45, 'rescaleHeight': False, 'trialN': 2, 'loaded': True, 'loadedTime': 3119.5, 'positionName': 'RIGHT', 'positionCoords': [748.8, 244.5], 'bid': 3.48}]",6548.899999856949,1669835066895,froot loops w milk,Grapes,4.09,3.48,-0.6099999999999999,Grapes,1445.0,1451,1450.2000000476837,True,i,8506.299999952316,1957.4000000953674,1669835068853,1958,HRV,HRV_0242,2022-11-30 19:09:30
3,"[{'imgObject': {}, 'id': 'eggsalad', 'src': '/static/foodstim60/eggsalad.jpg', 'key': 'u', 'origWidth': 410, 'origHeight': 409, 'width': 410, 'height': 409, 'widthPercent': 0.45, 'rescaleHeight': False, 'trialN': 3, 'loaded': True, 'loadedTime': 3124.399999856949, 'positionName': 'LEFT', 'positionCoords': [281.2, 245.5], 'bid': 2.29}, {'imgObject': {}, 'id': 'banana', 'src': '/static/foodstim60/banana.jpg', 'key': 'i', 'origWidth': 410, 'origHeight': 410, 'width': 410, 'height': 410, 'widthPercent': 0.45, 'rescaleHeight': False, 'trialN': 3, 'loaded': True, 'loadedTime': 3128.0999999046326, 'positionName': 'RIGHT', 'positionCoords': [748.8, 245], 'bid': 2.01}]",8506.599999904633,1669835068853,eggsalad,banana,2.29,2.01,-0.28000000000000025,eggsalad,1499.4000000953674,1505,1504.9000000953674,True,u,10518.5,2011.9000000953674,1669835070865,2012,HRV,HRV_0242,2022-11-30 19:09:30
4,"[{'imgObject': {}, 'id': 'corn cob', 'src': '/static/foodstim60/corn cob.jpg', 'key': 'u', 'origWidth': 411, 'origHeight': 411, 'width': 411, 'height': 411, 'widthPercent': 0.45, 'rescaleHeight': False, 'trialN': 4, 'loaded': True, 'loadedTime': 3128.2999999523163, 'positionName': 'LEFT', 'positionCoords': [280.2, 244.5], 'bid': 5.8}, {'imgObject': {}, 'id': 'mashed potato', 'src': '/static/foodstim60/mashed potato.jpg', 'key': 'i', 'origWidth': 409, 'origHeight': 409, 'width': 409, 'height': 409, 'widthPercent': 0.45, 'rescaleHeight': False, 'trialN': 4, 'loaded': True, 'loadedTime': 3133.0999999046326, 'positionName': 'RIGHT', 'positionCoords': [748.8, 245.5], 'bid': 7.44}]",10518.899999856949,1669835070865,corn cob,mashed potato,5.8,7.44,1.6400000000000006,mashed potato,1332.0,1338,1337.5,True,i,12363.700000047684,1844.8000001907349,1669835072710,1845,HRV,HRV_0242,2022-11-30 19:09:30
5,"[{'imgObject': {}, 'id': 'eggs', 'src': '/static/foodstim60/eggs.jpg', 'key': 'u', 'origWidth': 409, 'origHeight': 409, 'width': 409, 'height': 409, 'widthPercent': 0.45, 'rescaleHeight': False, 'trialN': 5, 'loaded': True, 'loadedTime': 3135.2000000476837, 'positionName': 'LEFT', 'positionCoords': [282.2, 245.5], 'bid': 4.61}, {'imgObject': {}, 'id': 'cherry tomato', 'src': '/static/foodstim60/cherry tomato.jpg', 'key': 'i', 'origWidth': 410, 'origHeight': 410, 'width': 410, 'height': 410, 'widthPercent': 0.45, 'rescaleHeight': False, 'trialN': 5, 'loaded': True, 'loadedTime': 3137, 'positionName': 'RIGHT', 'positionCoords': [748.8, 245], 'bid': 4.87}]",12364.099999904633,1669835072710,eggs,cherry tomato,4.61,4.87,0.2599999999999998,cherry tomato,1416.7999999523163,1422,1422.1000001430511,True,i,14291.399999856949,1927.2999999523163,1669835074638,1928,HRV,HRV_0242,2022-11-30 19:09:30
6,"[{'imgObject': {}, 'id': 'raspberries', 'src': '/static/foodstim60/raspberries.jpg', 'key': 'u', 'origWidth': 411, 'origHeight': 411, 'width': 411, 'height': 411, 'widthPercent': 0.45, 'rescaleHeight': False, 'trialN': 6, 'loaded': True, 'loadedTime': 3139.7999999523163, 'positionName': 'LEFT', 'positionCoords': [280.2, 244.5], 'bid': 1.26}, {'imgObject': {}, 'id': 'cherry tomato', 'src': '/static/foodstim60/cherry tomato.jpg', 'key': 'i', 'origWidth': 410, 'origHeight': 410, 'width': 410, 'height': 410, 'widthPercent': 0.45, 'rescaleHeight': False, 'trialN': 6, 'loaded': True, 'loadedTime': 3137.5999999046326, 'positionName': 'RIGHT', 'positionCoords': [748.8, 245], 'bid': 4.87}]",14291.700000047684,1669835074638,raspberries,cherry tomato,1.26,4.87,3.6100000000000003,cherry tomato,1049.0999999046326,1054,1054.1999998092651,True,i,15849.899999856949,1558.1999998092651,1669835076196,1558,HRV,HRV_0242,2022-11-30 19:09:30
7,"[{'imgObject': {}, 'id': 'Grapes', 'src': '/static/foodstim60/Grapes.jpg', 'key': 'u', 'origWidth': 411, 'origHeight': 411, 'width': 411, 'height': 411, 'widthPercent': 0.45, 'rescaleHeight': False, 'trialN': 7, 'loaded': True, 'loadedTime': 3120, 'positionName': 'LEFT', 'positionCoords': [280.2, 244.5], 'bid': 3.48}, {'imgObject': {}, 'id': 'cherries', 'src': '/static/foodstim60/cherries.jpg', 'key': 'i', 'origWidth': 410, 'origHeight': 411, 'width': 410, 'height': 411, 'widthPercent': 0.45, 'rescaleHeight': False, 'trialN': 7, 'loaded': True, 'loadedTime': 3141.7999999523163, 'positionName': 'RIGHT', 'positionCoords': [748.8, 244.5], 'bid': 1.55}]",15850.200000047684,1669835076196,Grapes,cherries,3.48,1.55,-1.93,Grapes,1358.5999999046326,1364,1363.8999998569489,True,u,17718.599999904633,1868.3999998569489,1669835078065,1869,HRV,HRV_0242,2022-11-30 19:09:30
8,"[{'imgObject': {}, 'id': 'cantaloupe', 'src': '/static/foodstim60/cantaloupe.jpg', 'key': 'u', 'origWidth': 409, 'origHeight': 409, 'width': 409, 'height': 409, 'widthPercent': 0.45, 'rescaleHeight': False, 'trialN': 8, 'loaded': True, 'loadedTime': 3145.399999856949, 'positionName': 'LEFT', 'positionCoords': [282.2, 245.5], 'bid': 2.38}, {'imgObject': {}, 'id': 'froot loops w milk', 'src': '/static/foodstim60/froot loops w milk.jpg', 'key': 'i', 'origWidth': 410, 'origHeight': 410, 'width': 410, 'height': 410, 'widthPercent': 0.45, 'rescaleHeight': False, 'trialN': 8, 'loaded': True, 'loadedTime': 3116.7999999523163, 'positionName': 'RIGHT', 'positionCoords': [748.8, 245], 'bid': 4.09}]",17718.89999985695,1669835078065,cantaloupe,froot loops w milk,2.38,4.09,1.71,froot loops w milk,1254.9000000953674,1260,1260.1000001430511,True,i,19486.200000047684,1767.3000001907349,1669835079832,1767,HRV,HRV_0242,2022-11-30 19:09:30
9,"[{'imgObject': {}, 'id': 'mashed potato', 'src': '/static/foodstim60/mashed potato.jpg', 'key': 'u', 'origWidth': 409, 'origHeight': 409, 'width': 409, 'height': 409, 'widthPercent': 0.45, 'rescaleHeight': False, 'trialN': 9, 'loaded': True, 'loadedTime': 3132.2999999523163, 'positionName': 'LEFT', 'positionCoords': [282.2, 245.5], 'bid': 7.44}, {'imgObject': {}, 'id': 'ice cream sundae 002', 'src': '/static/foodstim60/ice cream sundae 002.jpg', 'key': 'i', 'origWidth': 409, 'origHeight': 409, 'width': 409, 'height': 409, 'widthPercent': 0.45, 'rescaleHeight': False, 'trialN': 9, 'loaded': True, 'loadedTime': 3170, 'positionName': 'RIGHT', 'positionCoords': [748.8, 245.5], 'bid': 7.58}]",19486.5,1669835079832,mashed potato,ice cream sundae 002,7.44,7.58,0.13999999999999968,mashed potato,1635.7999999523163,1641,1640.8999998569489,True,u,21631.0,2144.5,1669835081977,2145,HRV,HRV_0242,2022-11-30 19:09:30
10,"[{'imgObject': {}, 'id': 'yogurt no spoon', 'src': '/static/foodstim60/yogurt no spoon.jpg', 'key': 'u', 'origWidth': 411, 'origHeight': 410, 'width': 411, 'height': 410, 'widthPercent': 0.45, 'rescaleHeight': False, 'trialN': 10, 'loaded': True, 'loadedTime': 3172.399999856949, 'positionName': 'LEFT', 'positionCoords': [280.2, 245], 'bid': 5.55}, {'imgObject': {}, 'id': 'fruitsalad', 'src': '/static/foodstim60/fruitsalad.jpg', 'key': 'i', 'origWidth': 410, 'origHeight': 410, 'width': 410, 'height': 410, 'widthPercent': 0.45, 'rescaleHeight': False, 'trialN': 10, 'loaded': True, 'loadedTime': 3183.399999856949, 'positionName': 'RIGHT', 'positionCoords': [748.8, 245], 'bid': 6.87}]",21631.299999952316,1669835081977,yogurt no spoon,fruitsalad,5.55,6.87,1.3200000000000003,yogurt no spoon,1810.2999999523163,1816,1815.9000000953674,True,u,23949.799999952316,2318.5,1669835084296,2319,HRV,HRV_0242,2022-11-30 19:09:30
11,"[{'imgObject': {}, 'id': 'rigatoni', 'src': '/static/foodstim60/rigatoni.jpg', 'key': 'u', 'origWidth': 411, 'origHeight': 411, 'width': 411, 'height': 411, 'widthPercent': 0.45, 'rescaleHeight': False, 'trialN': 11, 'loaded': True, 'loadedTime': 3194.5, 'positionName': 'LEFT', 'positionCoords': [280.2, 244.5], 'bid': 2.58}, {'imgObject': {}, 'id': 'olives', 'src': '/static/foodstim60/olives.jpg', 'key': 'i', 'origWidth': 410, 'origHeight': 410, 'width': 410, 'height': 410, 'widthPercent': 0.45, 'rescaleHeight': False, 'trialN': 11, 'loaded': True, 'loadedTime': 3203.7000000476837, 'positionName': 'RIGHT', 'positionCoords': [748.8, 245], 'bid': 0.73}]",23950.099999904633,1669835084296,rigatoni,olives,2.58,0.73,-1.85,rigatoni,1446.5,1452,1451.9000000953674,True,u,25909.200000047684,1959.1000001430511,1669835086255,1959,HRV,HRV_0242,2022-11-30 19:09:30
12,"[{'imgObject': {}, 'id': 'orange slices', 'src': '/static/foodstim60/orange slices.jpg', 'key': 'u', 'origWidth': 409, 'origHeight': 410, 'width': 409, 'height': 410, 'widthPercent': 0.45, 'rescaleHeight': False, 'trialN': 12, 'loaded': True, 'loadedTime': 3211.7999999523163, 'positionName': 'LEFT', 'positionCoords': [282.2, 245], 'bid': 1.65}, {'imgObject': {}, 'id': 'eggsalad', 'src': '/static/foodstim60/eggsalad.jpg', 'key': 'i', 'origWidth': 410, 'origHeight': 409, 'width': 410, 'height': 409, 'widthPercent': 0.45, 'rescaleHeight': False, 'trialN': 12, 'loaded': True, 'loadedTime': 3124.7000000476837, 'positionName': 'RIGHT', 'positionCoords': [748.8, 245.5], 'bid': 2.29}]",25909.5,1669835086255,orange slices,eggsalad,1.65,2.29,0.6400000000000001,eggsalad,1753.7999999523163,1759,1758.7999999523163,True,i,28173.5,2264.0,1669835088519,2264,HRV,HRV_0242,2022-11-30 19:09:30
13,"[{'imgObject': {}, 'id': 'fried eggs', 'src': '/static/foodstim60/fried eggs.jpg', 'key': 'u', 'origWidth': 410, 'origHeight': 410, 'width': 410, 'height': 410, 'widthPercent': 0.45, 'rescaleHeight': False, 'trialN': 13, 'loaded': True, 'loadedTime': 3105.2000000476837, 'positionName': 'LEFT', 'positionCoords': [281.2, 245], 'bid': 8.44}, {'imgObject': {}, 'id': 'roastedpotatoes', 'src': '/static/foodstim60/roastedpotatoes.jpg', 'key': 'i', 'origWidth': 409, 'origHeight': 410, 'width': 409, 'height': 410, 'widthPercent': 0.45, 'rescaleHeight': False, 'trialN': 13, 'loaded': True, 'loadedTime': 3096.399999856949, 'positionName': 'RIGHT', 'positionCoords': [748.8, 245], 'bid': 8.55}]",28173.89999985695,1669835088519,fried eggs,roastedpotatoes,8.44,8.55,0.11000000000000121,roastedpotatoes,1707.6000001430511,1713,1712.9000000953674,True,i,30390.299999952316,2216.4000000953674,1669835090736,2217,HRV,HRV_0242,2022-11-30 19:09:30
14,"[{'imgObject': {}, 'id': 'steak', 'src': '/static/foodstim60/steak.jpg', 'key': 'u', 'origWidth': 410, 'origHeight': 410, 'width': 410, 'height': 410, 'widthPercent': 0.45, 'rescaleHeight': False, 'trialN': 14, 'loaded': True, 'loadedTime': 3213.5, 'positionName': 'LEFT', 'positionCoords': [281.2, 245], 'bid': 9.86}, {'imgObject': {}, 'id': 'rigatoni and sauce', 'src': '/static/foodstim60/rigatoni and sauce.jpg', 'key': 'i', 'origWidth': 410, 'origHeight': 411, 'width': 410, 'height': 411, 'widthPercent': 0.45, 'rescaleHeight': False, 'trialN': 14, 'loaded': True, 'loadedTime': 3222.899999856949, 'positionName': 'RIGHT', 'positionCoords': [748.8, 244.5], 'bid': 9.36}]",30390.700000047684,1669835090736,steak,rigatoni and sauce,9.86,9.36,-0.5,steak,826.5999999046326,832,832.0,True,u,31723.099999904633,1332.3999998569489,1669835092069,1333,HRV,HRV_0242,2022-11-30 19:09:30
15,"[{'imgObject': {}, 'id': 'lox', 'src': '/static/foodstim60/lox.jpg', 'key': 'u', 'origWidth': 410, 'origHeight': 411, 'width': 410, 'height': 411, 'widthPercent': 0.45, 'rescaleHeight': False, 'trialN': 15, 'loaded': True, 'loadedTime': 3232.7000000476837, 'positionName': 'LEFT', 'positionCoords': [281.2, 244.5], 'bid': 9.83}, {'imgObject': {}, 'id': 'turkey sandwich', 'src': '/static/foodstim60/turkey sandwich.jpg', 'key': 'i', 'origWidth': 409, 'origHeight': 409, 'width': 409, 'height': 409, 'widthPercent': 0.45, 'rescaleHeight': False, 'trialN': 15, 'loaded': True, 'loadedTime': 3102.7000000476837, 'positionName': 'RIGHT', 'positionCoords': [748.8, 245.5], 'bid': 8.59}]",31723.5,1669835092069,lox,turkey sandwich,9.83,8.59,-1.2400000000000002,lox,984.7000000476837,990,990.0999999046326,True,u,33218.299999952316,1494.7999999523163,1669835093564,1495,HRV,HRV_0242,2022-11-30 19:09:30
16,"[{'imgObject': {}, 'id': 'lox', 'src': '/static/foodstim60/lox.jpg', 'key': 'u', 'origWidth': 410, 'origHeight': 411, 'width': 410, 'height': 411, 'widthPercent': 0.45, 'rescaleHeight': False, 'trialN': 16, 'loaded': True, 'loadedTime': 3232.7000000476837, 'positionName': 'LEFT', 'positionCoords': [281.2, 244.5], 'bid': 9.83}, {'imgObject': {}, 'id': 'cocktailshrimp', 'src': '/static/foodstim60/cocktailshrimp.jpg', 'key': 'i', 'origWidth': 410, 'origHeight': 410, 'width': 410, 'height': 410, 'widthPercent': 0.45, 'rescaleHeight': False, 'trialN': 16, 'loaded': True, 'loadedTime': 3242, 'positionName': 'RIGHT', 'positionCoords': [748.8, 245], 'bid': 9.16}]",33218.59999990463,1669835093564,lox,cocktailshrimp,9.83,9.16,-0.6699999999999999,lox,908.4000000953674,914,913.7000000476837,True,u,34635.700000047684,1417.1000001430511,1669835094981,1417,HRV,HRV_0242,2022-11-30 19:09:30
17,"[{'imgObject': {}, 'id': 'baked potato', 'src': '/static/foodstim60/baked potato.jpg', 'key': 'u', 'origWidth': 409, 'origHeight': 410, 'width': 409, 'height': 410, 'widthPercent': 0.45, 'rescaleHeight': False, 'trialN': 17, 'loaded': True, 'loadedTime': 3242.899999856949, 'positionName': 'LEFT', 'positionCoords': [282.2, 245], 'bid': 7.77}, {'imgObject': {}, 'id': 'mashed potato', 'src': '/static/foodstim60/mashed potato.jpg', 'key': 'i', 'origWidth': 409, 'origHeight': 409, 'width': 409, 'height': 409, 'widthPercent': 0.45, 'rescaleHeight': False, 'trialN': 17, 'loaded': True, 'loadedTime': 3131.2999999523163, 'positionName': 'RIGHT', 'positionCoords': [748.8, 245.5], 'bid': 7.44}]",34636.09999990463,1669835094981,baked potato,mashed potato,7.77,7.44,-0.3299999999999992,mashed potato,1295.1000001430511,1301,1300.9000000953674,True,i,36440.89999985695,1804.7999999523163,1669835096786,1805,HRV,HRV_0242,2022-11-30 19:09:30
18,"[{'imgObject': {}, 'id': 'blackbeanswithrice', 'src': '/static/foodstim60/blackbeanswithrice.jpg', 'key': 'u', 'origWidth': 410, 'origHeight': 410, 'width': 410, 'height': 410, 'widthPercent': 0.45, 'rescaleHeight': False, 'trialN': 18, 'loaded': True, 'loadedTime': 3259.7000000476837, 'positionName': 'LEFT', 'positionCoords': [281.2, 245], 'bid': 7.13}, {'imgObject': {}, 'id': 'fruitsalad', 'src': '/static/foodstim60/fruitsalad.jpg', 'key': 'i', 'origWidth': 410, 'origHeight': 410, 'width': 410, 'height': 410, 'widthPercent': 0.45, 'rescaleHeight': False, 'trialN': 18, 'loaded': True, 'loadedTime': 3193.5, 'positionName': 'RIGHT', 'positionCoords': [748.8, 245], 'bid': 6.87}]",36441.299999952316,1669835096786,blackbeanswithrice,fruitsalad,7.13,6.87,-0.2599999999999998,blackbeanswithrice,1116.7000000476837,1122,1121.7000000476837,True,u,38070.299999952316,1629.0,1669835098415,1629,HRV,HRV_0242,2022-11-30 19:09:30
19,"[{'imgObject': {}, 'id': 'bagel plain', 'src': '/static/foodstim60/bagel plain.jpg', 'key': 'u', 'origWidth': 410, 'origHeight': 410, 'width': 410, 'height': 410, 'widthPercent': 0.45, 'rescaleHeight': False, 'trialN': 19, 'loaded': True, 'loadedTime': 3261.2999999523163, 'positionName': 'LEFT', 'positionCoords': [281.2, 245], 'bid': 5.76}, {'imgObject': {}, 'id': 'salad w chicken', 'src': '/static/foodstim60/salad w chicken.jpg', 'key': 'i', 'origWidth': 411, 'origHeight': 411, 'width': 411, 'height': 411, 'widthPercent': 0.45, 'rescaleHeight': False, 'trialN': 19, 'loaded': True, 'loadedTime': 3068, 'positionName': 'RIGHT', 'positionCoords': [748.8, 244.5], 'bid': 9.79}]",38070.59999990463,1669835098416,bagel plain,salad w chicken,5.76,9.79,4.029999999999999,salad w chicken,1069.2000000476837,1074,1074.4000000953674,True,i,39651.799999952316,1581.2000000476837,1669835099997,1581,HRV,HRV_0242,2022-11-30 19:09:30
20,"[{'imgObject': {}, 'id': 'mango', 'src': '/static/foodstim60/mango.jpg', 'key': 'u', 'origWidth': 411, 'origHeight': 411, 'width': 411, 'height': 411, 'widthPercent': 0.45, 'rescaleHeight': False, 'trialN': 20, 'loaded': True, 'loadedTime': 3268.899999856949, 'positionName': 'LEFT', 'positionCoords': [280.2, 244.5], 'bid': 6.62}, {'imgObject': {}, 'id': 'cherry tomato', 'src': '/static/foodstim60/cherry tomato.jpg', 'key': 'i', 'origWidth': 410, 'origHeight': 410, 'width': 410, 'height': 410, 'widthPercent': 0.45, 'rescaleHeight': False, 'trialN': 20, 'loaded': True, 'loadedTime': 3137.2000000476837, 'positionName': 'RIGHT', 'positionCoords': [748.8, 245], 'bid': 4.87}]",39652.09999990463,1669835099997,mango,cherry tomato,6.62,4.87,-1.75,mango,1197.7000000476837,1203,1202.6000001430511,True,u,41355.5,1703.4000000953674,1669835101701,1704,HRV,HRV_0242,2022-11-30 19:09:30
21,"[{'imgObject': {}, 'id': 'cherries', 'src': '/static/foodstim60/cherries.jpg', 'key': 'u', 'origWidth': 410, 'origHeight': 411, 'width': 410, 'height': 411, 'widthPercent': 0.45, 'rescaleHeight': False, 'trialN': 21, 'loaded': True, 'loadedTime': 3141.899999856949, 'positionName': 'LEFT', 'positionCoords': [281.2, 244.5], 'bid': 1.55}, {'imgObject': {}, 'id': 'banana', 'src': '/static/foodstim60/banana.jpg', 'key': 'i', 'origWidth': 410, 'origHeight': 410, 'width': 410, 'height': 410, 'widthPercent': 0.45, 'rescaleHeight': False, 'trialN': 21, 'loaded': True, 'loadedTime': 3126.2999999523163, 'positionName': 'RIGHT', 'positionCoords': [748.8, 245], 'bid': 2.01}]",41355.799999952316,1669835101701,cherries,banana,1.55,2.01,0.45999999999999974,banana,1214.0,1219,1219.2999999523163,True,i,43082.09999990463,1726.2999999523163,1669835103427,1726,HRV,HRV_0242,2022-11-30 19:09:30
22,"[{'imgObject': {}, 'id': 'mac & cheese', 'src': '/static/foodstim60/mac & cheese.jpg', 'key': 'u', 'origWidth': 410, 'origHeight': 410, 'width': 410, 'height': 410, 'widthPercent': 0.45, 'rescaleHeight': False, 'trialN': 22, 'loaded': True, 'loadedTime': 3279, 'positionName': 'LEFT', 'positionCoords': [281.2, 245], 'bid': 7.15}, {'imgObject': {}, 'id': 'blackbeanswithrice', 'src': '/static/foodstim60/blackbeanswithrice.jpg', 'key': 'i', 'origWidth': 410, 'origHeight': 410, 'width': 410, 'height': 410, 'widthPercent': 0.45, 'rescaleHeight': False, 'trialN': 22, 'loaded': True, 'loadedTime': 3252, 'positionName': 'RIGHT', 'positionCoords': [748.8, 245], 'bid': 7.13}]",43082.39999985695,1669835103427,mac & cheese,blackbeanswithrice,7.15,7.13,-0.020000000000000462,blackbeanswithrice,1654.6000001430511,1661,1660.5,True,i,45249.5,2167.100000143051,1669835105594,2167,HRV,HRV_0242,2022-11-30 19:09:30
23,"[{'imgObject': {}, 'id': 'salad w chicken', 'src': '/static/foodstim60/salad w chicken.jpg', 'key': 'u', 'origWidth': 411, 'origHeight': 411, 'width': 411, 'height': 411, 'widthPercent': 0.45, 'rescaleHeight': False, 'trialN': 23, 'loaded': True, 'loadedTime': 3034.7999999523163, 'positionName': 'LEFT', 'positionCoords': [280.2, 244.5], 'bid': 9.79}, {'imgObject': {}, 'id': 'sweetpotato', 'src': '/static/foodstim60/sweetpotato.jpg', 'key': 'i', 'origWidth': 410, 'origHeight': 410, 'width': 410, 'height': 410, 'widthPercent': 0.45, 'rescaleHeight': False, 'trialN': 23, 'loaded': True, 'loadedTime': 3282.2999999523163, 'positionName': 'RIGHT', 'positionCoords': [748.8, 245], 'bid': 7.91}]",45249.799999952316,1669835105595,salad w chicken,sweetpotato,9.79,7.91,-1.879999999999999,salad w chicken,758.0999999046326,763,763.4000000953674,True,u,46520.39999985695,1270.5999999046326,1669835106865,1270,HRV,HRV_0242,2022-11-30 19:09:30
24,"[{'imgObject': {}, 'id': 'orange slices', 'src': '/static/foodstim60/orange slices.jpg', 'key': 'u', 'origWidth': 409, 'origHeight': 410, 'width': 409, 'height': 410, 'widthPercent': 0.45, 'rescaleHeight': False, 'trialN': 24, 'loaded': True, 'loadedTime': 3204.5999999046326, 'positionName': 'LEFT', 'positionCoords': [282.2, 245], 'bid': 1.65}, {'imgObject': {}, 'id': 'blueberries', 'src': '/static/foodstim60/blueberries.jpg', 'key': 'i', 'origWidth': 411, 'origHeight': 411, 'width': 411, 'height': 411, 'widthPercent': 0.45, 'rescaleHeight': False, 'trialN': 24, 'loaded': True, 'loadedTime': 3288.2000000476837, 'positionName': 'RIGHT', 'positionCoords': [748.8, 244.5], 'bid': 5.7}]",46520.700000047684,1669835106865,orange slices,blueberries,1.65,5.7,4.050000000000001,blueberries,1195.3999998569489,1202,1201.1999998092651,True,i,48229.200000047684,1708.5,1669835108574,1709,HRV,HRV_0242,2022-11-30 19:09:30
25,"[{'imgObject': {}, 'id': 'eggs', 'src': '/static/foodstim60/eggs.jpg', 'key': 'u', 'origWidth': 409, 'origHeight': 409, 'width': 409, 'height': 409, 'widthPercent': 0.45, 'rescaleHeight': False, 'trialN': 25, 'loaded': True, 'loadedTime': 3135.7999999523163, 'positionName': 'LEFT', 'positionCoords': [282.2, 245.5], 'bid': 4.61}, {'imgObject': {}, 'id': 'cocktailshrimp', 'src': '/static/foodstim60/cocktailshrimp.jpg', 'key': 'i', 'origWidth': 410, 'origHeight': 410, 'width': 410, 'height': 410, 'widthPercent': 0.45, 'rescaleHeight': False, 'trialN': 25, 'loaded': True, 'loadedTime': 3241.7999999523163, 'positionName': 'RIGHT', 'positionCoords': [748.8, 245], 'bid': 9.16}]",48229.5,1669835108574,eggs,cocktailshrimp,4.61,9.16,4.55,cocktailshrimp,1101.5999999046326,1107,1107.0999999046326,True,i,49842.200000047684,1612.7000000476837,1669835110187,1613,HRV,HRV_0242,2022-11-30 19:09:30
26,"[{'imgObject': {}, 'id': 'Tribe humus pita', 'src': '/static/foodstim60/Tribe humus pita.jpg', 'key': 'u', 'origWidth': 411, 'origHeight': 411, 'width': 411, 'height': 411, 'widthPercent': 0.45, 'rescaleHeight': False, 'trialN': 26, 'loaded': True, 'loadedTime': 3288.2999999523163, 'positionName': 'LEFT', 'positionCoords': [280.2, 244.5], 'bid': 8.73}, {'imgObject': {}, 'id': 'turkey sandwich', 'src': '/static/foodstim60/turkey sandwich.jpg', 'key': 'i', 'origWidth': 409, 'origHeight': 409, 'width': 409, 'height': 409, 'widthPercent': 0.45, 'rescaleHeight': False, 'trialN': 26, 'loaded': True, 'loadedTime': 3100.7000000476837, 'positionName': 'RIGHT', 'positionCoords': [748.8, 245.5], 'bid': 8.59}]",49842.5,1669835110187,Tribe humus pita,turkey sandwich,8.73,8.59,-0.14000000000000057,Tribe humus pita,1130.2999999523163,1136,1135.5999999046326,True,u,51485.299999952316,1642.7999999523163,1669835111830,1643,HRV,HRV_0242,2022-11-30 19:09:30
27,"[{'imgObject': {}, 'id': 'mango', 'src': '/static/foodstim60/mango.jpg', 'key': 'u', 'origWidth': 411, 'origHeight': 411, 'width': 411, 'height': 411, 'widthPercent': 0.45, 'rescaleHeight': False, 'trialN': 27, 'loaded': True, 'loadedTime': 3270.0999999046326, 'positionName': 'LEFT', 'positionCoords': [280.2, 244.5], 'bid': 6.62}, {'imgObject': {}, 'id': 'turkey sandwich', 'src': '/static/foodstim60/turkey sandwich.jpg', 'key': 'i', 'origWidth': 409, 'origHeight': 409, 'width': 409, 'height': 409, 'widthPercent': 0.45, 'rescaleHeight': False, 'trialN': 27, 'loaded': True, 'loadedTime': 3100, 'positionName': 'RIGHT', 'positionCoords': [748.8, 245.5], 'bid': 8.59}]",51485.59999990463,1669835111830,mango,turkey sandwich,6.62,8.59,1.9699999999999998,turkey sandwich,1247.2000000476837,1253,1252.6000001430511,True,i,53245.39999985695,1759.7999999523163,1669835113590,1760,HRV,HRV_0242,2022-11-30 19:09:30
28,"[{'imgObject': {}, 'id': 'shreddedwheatwithmilk', 'src': '/static/foodstim60/shreddedwheatwithmilk.jpg', 'key': 'u', 'origWidth': 410, 'origHeight': 410, 'width': 410, 'height': 410, 'widthPercent': 0.45, 'rescaleHeight': False, 'trialN': 28, 'loaded': True, 'loadedTime': 3297.7999999523163, 'positionName': 'LEFT', 'positionCoords': [281.2, 245], 'bid': 1.09}, {'imgObject': {}, 'id': 'blackbeanswithrice', 'src': '/static/foodstim60/blackbeanswithrice.jpg', 'key': 'i', 'origWidth': 410, 'origHeight': 410, 'width': 410, 'height': 410, 'widthPercent': 0.45, 'rescaleHeight': False, 'trialN': 28, 'loaded': True, 'loadedTime': 3252.2999999523163, 'positionName': 'RIGHT', 'positionCoords': [748.8, 245], 'bid': 7.13}]",53245.700000047684,1669835113590,shreddedwheatwithmilk,blackbeanswithrice,1.09,7.13,6.04,blackbeanswithrice,1135.0,1140,1140.0999999046326,True,i,54891.09999990463,1645.3999998569489,1669835115235,1645,HRV,HRV_0242,2022-11-30 19:09:30
29,"[{'imgObject': {}, 'id': 'sushi w_condiments', 'src': '/static/foodstim60/sushi w_condiments.jpg', 'key': 'u', 'origWidth': 410, 'origHeight': 410, 'width': 410, 'height': 410, 'widthPercent': 0.45, 'rescaleHeight': False, 'trialN': 29, 'loaded': True, 'loadedTime': 3307.2999999523163, 'positionName': 'LEFT', 'positionCoords': [281.2, 245], 'bid': 9.88}, {'imgObject': {}, 'id': 'fried eggs', 'src': '/static/foodstim60/fried eggs.jpg', 'key': 'i', 'origWidth': 410, 'origHeight': 410, 'width': 410, 'height': 410, 'widthPercent': 0.45, 'rescaleHeight': False, 'trialN': 29, 'loaded': True, 'loadedTime': 3112.7999999523163, 'positionName': 'RIGHT', 'positionCoords': [748.8, 245], 'bid': 8.44}]",54891.39999985695,1669835115236,sushi w_condiments,fried eggs,9.88,8.44,-1.4400000000000013,sushi w_condiments,781.9000000953674,787,787.6000001430511,True,u,56179.5,1288.1000001430511,1669835116524,1288,HRV,HRV_0242,2022-11-30 19:09:30
30,"[{'imgObject': {}, 'id': 'froot loops w milk', 'src': '/static/foodstim60/froot loops w milk.jpg', 'key': 'u', 'origWidth': 410, 'origHeight': 410, 'width': 410, 'height': 410, 'widthPercent': 0.45, 'rescaleHeight': False, 'trialN': 30, 'loaded': True, 'loadedTime': 3113.899999856949, 'positionName': 'LEFT', 'positionCoords': [281.2, 245], 'bid': 4.09}, {'imgObject': {}, 'id': 'bagel and cc', 'src': '/static/foodstim60/bagel and cc.jpg', 'key': 'i', 'origWidth': 410, 'origHeight': 410, 'width': 410, 'height': 410, 'widthPercent': 0.45, 'rescaleHeight': False, 'trialN': 30, 'loaded': True, 'loadedTime': 3305.7000000476837, 'positionName': 'RIGHT', 'positionCoords': [748.8, 245], 'bid': 9.02}]",56179.799999952316,1669835116524,froot loops w milk,bagel and cc,4.09,9.02,4.93,bagel and cc,1432.5,1438,1437.7000000476837,True,i,58121.09999990463,1941.2999999523163,1669835118465,1941,HRV,HRV_0242,2022-11-30 19:09:30
31,"[{'imgObject': {}, 'id': 'blackbeanswithrice', 'src': '/static/foodstim60/blackbeanswithrice.jpg', 'key': 'u', 'origWidth': 410, 'origHeight': 410, 'width': 410, 'height': 410, 'widthPercent': 0.45, 'rescaleHeight': False, 'trialN': 31, 'loaded': True, 'loadedTime': 3259.5, 'positionName': 'LEFT', 'positionCoords': [281.2, 245], 'bid': 7.13}, {'imgObject': {}, 'id': 'bagel and cc', 'src': '/static/foodstim60/bagel and cc.jpg', 'key': 'i', 'origWidth': 410, 'origHeight': 410, 'width': 410, 'height': 410, 'widthPercent': 0.45, 'rescaleHeight': False, 'trialN': 31, 'loaded': True, 'loadedTime': 3306.5999999046326, 'positionName': 'RIGHT', 'positionCoords': [748.8, 245], 'bid': 9.02}]",58121.39999985695,1669835118466,blackbeanswithrice,bagel and cc,7.13,9.02,1.8899999999999997,bagel and cc,971.1000001430511,976,976.4000000953674,True,i,59605.0,1483.6000001430511,1669835119949,1483,HRV,HRV_0242,2022-11-30 19:09:30
32,"[{'imgObject': {}, 'id': 'steak', 'src': '/static/foodstim60/steak.jpg', 'key': 'u', 'origWidth': 410, 'origHeight': 410, 'width': 410, 'height': 410, 'widthPercent': 0.45, 'rescaleHeight': False, 'trialN': 32, 'loaded': True, 'loadedTime': 3221.5999999046326, 'positionName': 'LEFT', 'positionCoords': [281.2, 245], 'bid': 9.86}, {'imgObject': {}, 'id': 'salmon', 'src': '/static/foodstim60/salmon.jpg', 'key': 'i', 'origWidth': 410, 'origHeight': 409, 'width': 410, 'height': 409, 'widthPercent': 0.45, 'rescaleHeight': False, 'trialN': 32, 'loaded': True, 'loadedTime': 3316.2999999523163, 'positionName': 'RIGHT', 'positionCoords': [748.8, 245.5], 'bid': 6.01}]",59605.299999952316,1669835119949,steak,salmon,9.86,6.01,-3.8499999999999996,steak,675.2000000476837,681,680.5999999046326,True,u,60787.0,1181.7000000476837,1669835121131,1182,HRV,HRV_0242,2022-11-30 19:09:30
33,"[{'imgObject': {}, 'id': 'granola w milk', 'src': '/static/foodstim60/granola w milk.jpg', 'key': 'u', 'origWidth': 410, 'origHeight': 410, 'width': 410, 'height': 410, 'widthPercent': 0.45, 'rescaleHeight': False, 'trialN': 33, 'loaded': True, 'loadedTime': 3319, 'positionName': 'LEFT', 'positionCoords': [281.2, 245], 'bid': 0.87}, {'imgObject': {}, 'id': 'orange slices', 'src': '/static/foodstim60/orange slices.jpg', 'key': 'i', 'origWidth': 409, 'origHeight': 410, 'width': 409, 'height': 410, 'widthPercent': 0.45, 'rescaleHeight': False, 'trialN': 33, 'loaded': True, 'loadedTime': 3204.7000000476837, 'positionName': 'RIGHT', 'positionCoords': [748.8, 245], 'bid': 1.65}]",60787.299999952316,1669835121131,granola w milk,orange slices,0.87,1.65,0.7799999999999999,orange slices,1729.2000000476837,1735,1734.2999999523163,True,i,63026.799999952316,2239.5,1669835123371,2240,HRV,HRV_0242,2022-11-30 19:09:30
34,"[{'imgObject': {}, 'id': 'tacos', 'src': '/static/foodstim60/tacos.jpg', 'key': 'u', 'origWidth': 411, 'origHeight': 411, 'width': 411, 'height': 411, 'widthPercent': 0.45, 'rescaleHeight': False, 'trialN': 34, 'loaded': True, 'loadedTime': 3328.2999999523163, 'positionName': 'LEFT', 'positionCoords': [280.2, 244.5], 'bid': 8.05}, {'imgObject': {}, 'id': 'mashed potato', 'src': '/static/foodstim60/mashed potato.jpg', 'key': 'i', 'origWidth': 409, 'origHeight': 409, 'width': 409, 'height': 409, 'widthPercent': 0.45, 'rescaleHeight': False, 'trialN': 34, 'loaded': True, 'loadedTime': 3132.7999999523163, 'positionName': 'RIGHT', 'positionCoords': [748.8, 245.5], 'bid': 7.44}]",63027.09999990463,1669835123371,tacos,mashed potato,8.05,7.44,-0.6100000000000003,tacos,769.2000000476837,775,774.5,True,u,64302.200000047684,1275.1000001430511,1669835124646,1275,HRV,HRV_0242,2022-11-30 19:09:30
35,"[{'imgObject': {}, 'id': 'granola w milk', 'src': '/static/foodstim60/granola w milk.jpg', 'key': 'u', 'origWidth': 410, 'origHeight': 410, 'width': 410, 'height': 410, 'widthPercent': 0.45, 'rescaleHeight': False, 'trialN': 35, 'loaded': True, 'loadedTime': 3319.0999999046326, 'positionName': 'LEFT', 'positionCoords': [281.2, 245], 'bid': 0.87}, {'imgObject': {}, 'id': 'Grapes', 'src': '/static/foodstim60/Grapes.jpg', 'key': 'i', 'origWidth': 411, 'origHeight': 411, 'width': 411, 'height': 411, 'widthPercent': 0.45, 'rescaleHeight': False, 'trialN': 35, 'loaded': True, 'loadedTime': 3119.5999999046326, 'positionName': 'RIGHT', 'positionCoords': [748.8, 244.5], 'bid': 3.48}]",64302.59999990463,1669835124646,granola w milk,Grapes,0.87,3.48,2.61,Grapes,1524.5,1527,1526.7999999523163,True,i,66334.70000004768,2032.1000001430511,1669835126679,2033,HRV,HRV_0242,2022-11-30 19:09:30
36,"[{'imgObject': {}, 'id': 'rigatoni', 'src': '/static/foodstim60/rigatoni.jpg', 'key': 'u', 'origWidth': 411, 'origHeight': 411, 'width': 411, 'height': 411, 'widthPercent': 0.45, 'rescaleHeight': False, 'trialN': 36, 'loaded': True, 'loadedTime': 3194.7999999523163, 'positionName': 'LEFT', 'positionCoords': [280.2, 244.5], 'bid': 2.58}, {'imgObject': {}, 'id': 'luckycharms', 'src': '/static/foodstim60/luckycharms.jpg', 'key': 'i', 'origWidth': 410, 'origHeight': 409, 'width': 410, 'height': 409, 'widthPercent': 0.45, 'rescaleHeight': False, 'trialN': 36, 'loaded': True, 'loadedTime': 3338.5999999046326, 'positionName': 'RIGHT', 'positionCoords': [748.8, 245.5], 'bid': 3.29}]",66335.0,1669835126679,rigatoni,luckycharms,2.58,3.29,0.71,luckycharms,1083.2999999523163,1088,1088.5,True,i,67930.79999995232,1595.7999999523163,1669835128275,1596,HRV,HRV_0242,2022-11-30 19:09:30
37,"[{'imgObject': {}, 'id': 'granola w milk', 'src': '/static/foodstim60/granola w milk.jpg', 'key': 'u', 'origWidth': 410, 'origHeight': 410, 'width': 410, 'height': 410, 'widthPercent': 0.45, 'rescaleHeight': False, 'trialN': 37, 'loaded': True, 'loadedTime': 3319.2000000476837, 'positionName': 'LEFT', 'positionCoords': [281.2, 245], 'bid': 0.87}, {'imgObject': {}, 'id': 'avocado', 'src': '/static/foodstim60/avocado.jpg', 'key': 'i', 'origWidth': 409, 'origHeight': 409, 'width': 409, 'height': 409, 'widthPercent': 0.45, 'rescaleHeight': False, 'trialN': 37, 'loaded': True, 'loadedTime': 3329.7000000476837, 'positionName': 'RIGHT', 'positionCoords': [748.8, 245.5], 'bid': 6.97}]",67931.20000004768,1669835128275,granola w milk,avocado,0.87,6.97,6.1,avocado,1114.5,1116,1116.5999999046326,True,i,69551.89999985695,1620.6999998092651,1669835129896,1621,HRV,HRV_0242,2022-11-30 19:09:30
38,"[{'imgObject': {}, 'id': 'steak', 'src': '/static/foodstim60/steak.jpg', 'key': 'u', 'origWidth': 410, 'origHeight': 410, 'width': 410, 'height': 410, 'widthPercent': 0.45, 'rescaleHeight': False, 'trialN': 38, 'loaded': True, 'loadedTime': 3213.5, 'positionName': 'LEFT', 'positionCoords': [281.2, 245], 'bid': 9.86}, {'imgObject': {}, 'id': 'Tribe humus pita', 'src': '/static/foodstim60/Tribe humus pita.jpg', 'key': 'i', 'origWidth': 411, 'origHeight': 411, 'width': 411, 'height': 411, 'widthPercent': 0.45, 'rescaleHeight': False, 'trialN': 38, 'loaded': True, 'loadedTime': 3296.2000000476837, 'positionName': 'RIGHT', 'positionCoords': [748.8, 244.5], 'bid': 8.73}]",69552.20000004768,1669835129896,steak,Tribe humus pita,9.86,8.73,-1.129999999999999,steak,598.6999998092651,604,604.0,True,u,70663.29999995232,1111.0999999046326,1669835131007,1111,HRV,HRV_0242,2022-11-30 19:09:30
39,"[{'imgObject': {}, 'id': 'raspberries', 'src': '/static/foodstim60/raspberries.jpg', 'key': 'u', 'origWidth': 411, 'origHeight': 411, 'width': 411, 'height': 411, 'widthPercent': 0.45, 'rescaleHeight': False, 'trialN': 39, 'loaded': True, 'loadedTime': 3139.5999999046326, 'positionName': 'LEFT', 'positionCoords': [280.2, 244.5], 'bid': 1.26}, {'imgObject': {}, 'id': 'shreddedwheatwithmilk', 'src': '/static/foodstim60/shreddedwheatwithmilk.jpg', 'key': 'i', 'origWidth': 410, 'origHeight': 410, 'width': 410, 'height': 410, 'widthPercent': 0.45, 'rescaleHeight': False, 'trialN': 39, 'loaded': True, 'loadedTime': 3297.7000000476837, 'positionName': 'RIGHT', 'positionCoords': [748.8, 245], 'bid': 1.09}]",70663.59999990463,1669835131007,raspberries,shreddedwheatwithmilk,1.26,1.09,-0.16999999999999993,raspberries,1400.5,1406,1405.9000000953674,True,u,72576.70000004768,1913.1000001430511,1669835132920,1913,HRV,HRV_0242,2022-11-30 19:09:30
40,"[{'imgObject': {}, 'id': 'chicken nuggets2', 'src': '/static/foodstim60/chicken nuggets2.jpg', 'key': 'u', 'origWidth': 410, 'origHeight': 409, 'width': 410, 'height': 409, 'widthPercent': 0.45, 'rescaleHeight': False, 'trialN': 40, 'loaded': True, 'loadedTime': 3348, 'positionName': 'LEFT', 'positionCoords': [281.2, 245.5], 'bid': 9.52}, {'imgObject': {}, 'id': 'baked potato', 'src': '/static/foodstim60/baked potato.jpg', 'key': 'i', 'origWidth': 409, 'origHeight': 410, 'width': 409, 'height': 410, 'widthPercent': 0.45, 'rescaleHeight': False, 'trialN': 40, 'loaded': True, 'loadedTime': 3243.0999999046326, 'positionName': 'RIGHT', 'positionCoords': [748.8, 245], 'bid': 7.77}]",72577.0,1669835132921,chicken nuggets2,baked potato,9.52,7.77,-1.75,chicken nuggets2,1007.8999998569489,1013,1013.2000000476837,True,u,74092.70000004768,1515.7000000476837,1669835134436,1515,HRV,HRV_0242,2022-11-30 19:09:30
41,"[{'imgObject': {}, 'id': 'sweetpotato', 'src': '/static/foodstim60/sweetpotato.jpg', 'key': 'u', 'origWidth': 410, 'origHeight': 410, 'width': 410, 'height': 410, 'widthPercent': 0.45, 'rescaleHeight': False, 'trialN': 41, 'loaded': True, 'loadedTime': 3282.0999999046326, 'positionName': 'LEFT', 'positionCoords': [281.2, 245], 'bid': 7.91}, {'imgObject': {}, 'id': 'tacos', 'src': '/static/foodstim60/tacos.jpg', 'key': 'i', 'origWidth': 411, 'origHeight': 411, 'width': 411, 'height': 411, 'widthPercent': 0.45, 'rescaleHeight': False, 'trialN': 41, 'loaded': True, 'loadedTime': 3328.399999856949, 'positionName': 'RIGHT', 'positionCoords': [748.8, 244.5], 'bid': 8.05}]",74092.79999995232,1669835134436,sweetpotato,tacos,7.91,8.05,0.14000000000000057,tacos,1036.2000000476837,1042,1041.5,True,i,75641.59999990463,1548.7999999523163,1669835135985,1549,HRV,HRV_0242,2022-11-30 19:09:30
42,"[{'imgObject': {}, 'id': 'popsicles', 'src': '/static/foodstim60/popsicles.jpg', 'key': 'u', 'origWidth': 410, 'origHeight': 410, 'width': 410, 'height': 410, 'widthPercent': 0.45, 'rescaleHeight': False, 'trialN': 42, 'loaded': True, 'loadedTime': 3401.899999856949, 'positionName': 'LEFT', 'positionCoords': [281.2, 245], 'bid': 1.37}, {'imgObject': {}, 'id': 'luckycharms', 'src': '/static/foodstim60/luckycharms.jpg', 'key': 'i', 'origWidth': 410, 'origHeight': 409, 'width': 410, 'height': 409, 'widthPercent': 0.45, 'rescaleHeight': False, 'trialN': 42, 'loaded': True, 'loadedTime': 3330.2999999523163, 'positionName': 'RIGHT', 'positionCoords': [748.8, 245.5], 'bid': 3.29}]",75641.89999985695,1669835135985,popsicles,luckycharms,1.37,3.29,1.92,luckycharms,1100.2000000476837,1106,1106.0,True,i,77248.5,1606.6000001430511,1669835137592,1607,HRV,HRV_0242,2022-11-30 19:09:30
43,"[{'imgObject': {}, 'id': 'mac & cheese', 'src': '/static/foodstim60/mac & cheese.jpg', 'key': 'u', 'origWidth': 410, 'origHeight': 410, 'width': 410, 'height': 410, 'widthPercent': 0.45, 'rescaleHeight': False, 'trialN': 43, 'loaded': True, 'loadedTime': 3271.7000000476837, 'positionName': 'LEFT', 'positionCoords': [281.2, 245], 'bid': 7.15}, {'imgObject': {}, 'id': 'avocado', 'src': '/static/foodstim60/avocado.jpg', 'key': 'i', 'origWidth': 409, 'origHeight': 409, 'width': 409, 'height': 409, 'widthPercent': 0.45, 'rescaleHeight': False, 'trialN': 43, 'loaded': True, 'loadedTime': 3328.399999856949, 'positionName': 'RIGHT', 'positionCoords': [748.8, 245.5], 'bid': 6.97}]",77248.79999995232,1669835137592,mac & cheese,avocado,7.15,6.97,-0.1800000000000006,mac & cheese,1108.2000000476837,1113,1113.0999999046326,True,u,78869.29999995232,1620.5,1669835139213,1621,HRV,HRV_0242,2022-11-30 19:09:30
44,"[{'imgObject': {}, 'id': 'luckycharms', 'src': '/static/foodstim60/luckycharms.jpg', 'key': 'u', 'origWidth': 410, 'origHeight': 409, 'width': 410, 'height': 409, 'widthPercent': 0.45, 'rescaleHeight': False, 'trialN': 44, 'loaded': True, 'loadedTime': 3338.399999856949, 'positionName': 'LEFT', 'positionCoords': [281.2, 245.5], 'bid': 3.29}, {'imgObject': {}, 'id': 'edamame', 'src': '/static/foodstim60/edamame.jpg', 'key': 'i', 'origWidth': 409, 'origHeight': 410, 'width': 409, 'height': 410, 'widthPercent': 0.45, 'rescaleHeight': False, 'trialN': 44, 'loaded': True, 'loadedTime': 3349.2000000476837, 'positionName': 'RIGHT', 'positionCoords': [748.8, 245], 'bid': 0.76}]",78869.59999990463,1669835139213,luckycharms,edamame,3.29,0.76,-2.5300000000000002,luckycharms,1257.4000000953674,1263,1262.7999999523163,True,u,80639.59999990463,1770.0,1669835140983,1770,HRV,HRV_0242,2022-11-30 19:09:30
45,"[{'imgObject': {}, 'id': 'bagel plain', 'src': '/static/foodstim60/bagel plain.jpg', 'key': 'u', 'origWidth': 410, 'origHeight': 410, 'width': 410, 'height': 410, 'widthPercent': 0.45, 'rescaleHeight': False, 'trialN': 45, 'loaded': True, 'loadedTime': 3261.2999999523163, 'positionName': 'LEFT', 'positionCoords': [281.2, 245], 'bid': 5.76}, {'imgObject': {}, 'id': 'mac & cheese', 'src': '/static/foodstim60/mac & cheese.jpg', 'key': 'i', 'origWidth': 410, 'origHeight': 410, 'width': 410, 'height': 410, 'widthPercent': 0.45, 'rescaleHeight': False, 'trialN': 45, 'loaded': True, 'loadedTime': 3271.5999999046326, 'positionName': 'RIGHT', 'positionCoords': [748.8, 245], 'bid': 7.15}]",80639.89999985695,1669835140983,bagel plain,mac & cheese,5.76,7.15,1.3900000000000006,mac & cheese,1094.0,1099,1099.1000001430511,True,i,82242.5,1602.6000001430511,1669835142586,1603,HRV,HRV_0242,2022-11-30 19:09:30
46,"[{'imgObject': {}, 'id': 'corn cob', 'src': '/static/foodstim60/corn cob.jpg', 'key': 'u', 'origWidth': 411, 'origHeight': 411, 'width': 411, 'height': 411, 'widthPercent': 0.45, 'rescaleHeight': False, 'trialN': 46, 'loaded': True, 'loadedTime': 3129.899999856949, 'positionName': 'LEFT', 'positionCoords': [280.2, 244.5], 'bid': 5.8}, {'imgObject': {}, 'id': 'salmon', 'src': '/static/foodstim60/salmon.jpg', 'key': 'i', 'origWidth': 410, 'origHeight': 409, 'width': 410, 'height': 409, 'widthPercent': 0.45, 'rescaleHeight': False, 'trialN': 46, 'loaded': True, 'loadedTime': 3317.399999856949, 'positionName': 'RIGHT', 'positionCoords': [748.8, 245.5], 'bid': 6.01}]",82242.79999995232,1669835142586,corn cob,salmon,5.8,6.01,0.20999999999999996,salmon,1461.9000000953674,1467,1467.2999999523163,True,i,84215.09999990463,1972.2999999523163,1669835144558,1972,HRV,HRV_0242,2022-11-30 19:09:30
47,"[{'imgObject': {}, 'id': 'ice cream sundae 002', 'src': '/static/foodstim60/ice cream sundae 002.jpg', 'key': 'u', 'origWidth': 409, 'origHeight': 409, 'width': 409, 'height': 409, 'widthPercent': 0.45, 'rescaleHeight': False, 'trialN': 47, 'loaded': True, 'loadedTime': 3154.7000000476837, 'positionName': 'LEFT', 'positionCoords': [282.2, 245.5], 'bid': 7.58}, {'imgObject': {}, 'id': 'seaweed', 'src': '/static/foodstim60/seaweed.jpg', 'key': 'i', 'origWidth': 410, 'origHeight': 410, 'width': 410, 'height': 410, 'widthPercent': 0.45, 'rescaleHeight': False, 'trialN': 47, 'loaded': True, 'loadedTime': 3351.2000000476837, 'positionName': 'RIGHT', 'positionCoords': [748.8, 245], 'bid': 9.51}]",84215.39999985695,1669835144558,ice cream sundae 002,seaweed,7.58,9.51,1.9299999999999997,seaweed,1344.0,1350,1349.4000000953674,True,i,86065.09999990463,1849.7000000476837,1669835146408,1850,HRV,HRV_0242,2022-11-30 19:09:30
48,"[{'imgObject': {}, 'id': 'froot loops w milk', 'src': '/static/foodstim60/froot loops w milk.jpg', 'key': 'u', 'origWidth': 410, 'origHeight': 410, 'width': 410, 'height': 410, 'widthPercent': 0.45, 'rescaleHeight': False, 'trialN': 48, 'loaded': True, 'loadedTime': 3115.899999856949, 'positionName': 'LEFT', 'positionCoords': [281.2, 245], 'bid': 4.09}, {'imgObject': {}, 'id': 'luckycharms', 'src': '/static/foodstim60/luckycharms.jpg', 'key': 'i', 'origWidth': 410, 'origHeight': 409, 'width': 410, 'height': 409, 'widthPercent': 0.45, 'rescaleHeight': False, 'trialN': 48, 'loaded': True, 'loadedTime': 3338.7999999523163, 'positionName': 'RIGHT', 'positionCoords': [748.8, 245.5], 'bid': 3.29}]",86065.39999985695,1669835146408,froot loops w milk,luckycharms,4.09,3.29,-0.7999999999999998,luckycharms,1648.0,1654,1653.5,True,i,88223.5,2158.100000143051,1669835148566,2158,HRV,HRV_0242,2022-11-30 19:09:30
49,"[{'imgObject': {}, 'id': 'turkeysandwich', 'src': '/static/foodstim60/turkeysandwich.jpg', 'key': 'u', 'origWidth': 409, 'origHeight': 409, 'width': 409, 'height': 409, 'widthPercent': 0.45, 'rescaleHeight': False, 'trialN': 49, 'loaded': True, 'loadedTime': 3363.2000000476837, 'positionName': 'LEFT', 'positionCoords': [282.2, 245.5], 'bid': 8.13}, {'imgObject': {}, 'id': 'burrito', 'src': '/static/foodstim60/burrito.jpg', 'key': 'i', 'origWidth': 410, 'origHeight': 410, 'width': 410, 'height': 410, 'widthPercent': 0.45, 'rescaleHeight': False, 'trialN': 49, 'loaded': True, 'loadedTime': 3352.399999856949, 'positionName': 'RIGHT', 'positionCoords': [748.8, 245], 'bid': 8}]",88223.79999995232,1669835148567,turkeysandwich,burrito,8.13,8.0,-0.13000000000000078,burrito,1109.0,1114,1114.0,True,i,89845.09999990463,1621.2999999523163,1669835150188,1621,HRV,HRV_0242,2022-11-30 19:09:30
50,"[{'imgObject': {}, 'id': 'apple slices', 'src': '/static/foodstim60/apple slices.jpg', 'key': 'u', 'origWidth': 409, 'origHeight': 410, 'width': 409, 'height': 410, 'widthPercent': 0.45, 'rescaleHeight': False, 'trialN': 50, 'loaded': True, 'loadedTime': 3361.5999999046326, 'positionName': 'LEFT', 'positionCoords': [282.2, 245], 'bid': 2.37}, {'imgObject': {}, 'id': 'tacos', 'src': '/static/foodstim60/tacos.jpg', 'key': 'i', 'origWidth': 411, 'origHeight': 411, 'width': 411, 'height': 411, 'widthPercent': 0.45, 'rescaleHeight': False, 'trialN': 50, 'loaded': True, 'loadedTime': 3319.5999999046326, 'positionName': 'RIGHT', 'positionCoords': [748.8, 244.5], 'bid': 8.05}]",89845.29999995232,1669835150188,apple slices,tacos,2.37,8.05,5.680000000000001,tacos,1021.2999999523163,1027,1026.5,True,i,91375.09999990463,1529.7999999523163,1669835151718,1530,HRV,HRV_0242,2022-11-30 19:09:30
51,"[{'imgObject': {}, 'id': 'grilled chicken strips', 'src': '/static/foodstim60/grilled chicken strips.jpg', 'key': 'u', 'origWidth': 410, 'origHeight': 411, 'width': 410, 'height': 411, 'widthPercent': 0.45, 'rescaleHeight': False, 'trialN': 51, 'loaded': True, 'loadedTime': 3364.7999999523163, 'positionName': 'LEFT', 'positionCoords': [281.2, 244.5], 'bid': 7.9}, {'imgObject': {}, 'id': 'chickenfingers', 'src': '/static/foodstim60/chickenfingers.jpg', 'key': 'i', 'origWidth': 410, 'origHeight': 410, 'width': 410, 'height': 410, 'widthPercent': 0.45, 'rescaleHeight': False, 'trialN': 51, 'loaded': True, 'loadedTime': 3372.7999999523163, 'positionName': 'RIGHT', 'positionCoords': [748.8, 245], 'bid': 9.77}]",91375.39999985695,1669835151718,grilled chicken strips,chickenfingers,7.9,9.77,1.8699999999999992,chickenfingers,1275.2000000476837,1280,1280.4000000953674,True,i,93160.89999985695,1785.5,1669835153504,1786,HRV,HRV_0242,2022-11-30 19:09:30
52,"[{'imgObject': {}, 'id': 'mango', 'src': '/static/foodstim60/mango.jpg', 'key': 'u', 'origWidth': 411, 'origHeight': 411, 'width': 411, 'height': 411, 'widthPercent': 0.45, 'rescaleHeight': False, 'trialN': 52, 'loaded': True, 'loadedTime': 3270, 'positionName': 'LEFT', 'positionCoords': [280.2, 244.5], 'bid': 6.62}, {'imgObject': {}, 'id': 'olives', 'src': '/static/foodstim60/olives.jpg', 'key': 'i', 'origWidth': 410, 'origHeight': 410, 'width': 410, 'height': 410, 'widthPercent': 0.45, 'rescaleHeight': False, 'trialN': 52, 'loaded': True, 'loadedTime': 3203.5, 'positionName': 'RIGHT', 'positionCoords': [748.8, 245], 'bid': 0.73}]",93161.20000004768,1669835153504,mango,olives,6.62,0.73,-5.890000000000001,mango,1055.5,1060,1060.5,True,u,94729.0,1567.7999999523163,1669835155072,1568,HRV,HRV_0242,2022-11-30 19:09:30
53,"[{'imgObject': {}, 'id': 'salmon', 'src': '/static/foodstim60/salmon.jpg', 'key': 'u', 'origWidth': 410, 'origHeight': 409, 'width': 410, 'height': 409, 'widthPercent': 0.45, 'rescaleHeight': False, 'trialN': 53, 'loaded': True, 'loadedTime': 3317.5999999046326, 'positionName': 'LEFT', 'positionCoords': [281.2, 245.5], 'bid': 6.01}, {'imgObject': {}, 'id': 'apple slices', 'src': '/static/foodstim60/apple slices.jpg', 'key': 'i', 'origWidth': 409, 'origHeight': 410, 'width': 409, 'height': 410, 'widthPercent': 0.45, 'rescaleHeight': False, 'trialN': 53, 'loaded': True, 'loadedTime': 3361.899999856949, 'positionName': 'RIGHT', 'positionCoords': [748.8, 245], 'bid': 2.37}]",94729.29999995232,1669835155072,salmon,apple slices,6.01,2.37,-3.6399999999999997,salmon,1252.5,1258,1257.9000000953674,True,u,96490.20000004768,1760.9000000953674,1669835156833,1761,HRV,HRV_0242,2022-11-30 19:09:30
54,"[{'imgObject': {}, 'id': 'seaweed', 'src': '/static/foodstim60/seaweed.jpg', 'key': 'u', 'origWidth': 410, 'origHeight': 410, 'width': 410, 'height': 410, 'widthPercent': 0.45, 'rescaleHeight': False, 'trialN': 54, 'loaded': True, 'loadedTime': 3351.2999999523163, 'positionName': 'LEFT', 'positionCoords': [281.2, 245], 'bid': 9.51}, {'imgObject': {}, 'id': 'chickenfingers', 'src': '/static/foodstim60/chickenfingers.jpg', 'key': 'i', 'origWidth': 410, 'origHeight': 410, 'width': 410, 'height': 410, 'widthPercent': 0.45, 'rescaleHeight': False, 'trialN': 54, 'loaded': True, 'loadedTime': 3372.7999999523163, 'positionName': 'RIGHT', 'positionCoords': [748.8, 245], 'bid': 9.77}]",96490.39999985695,1669835156833,seaweed,chickenfingers,9.51,9.77,0.2599999999999998,chickenfingers,1142.3000001907349,1147,1147.5,True,i,98143.20000004768,1652.8000001907349,1669835158486,1653,HRV,HRV_0242,2022-11-30 19:09:30
55,"[{'imgObject': {}, 'id': 'rigatoni and sauce', 'src': '/static/foodstim60/rigatoni and sauce.jpg', 'key': 'u', 'origWidth': 410, 'origHeight': 411, 'width': 410, 'height': 411, 'widthPercent': 0.45, 'rescaleHeight': False, 'trialN': 55, 'loaded': True, 'loadedTime': 3230.7000000476837, 'positionName': 'LEFT', 'positionCoords': [281.2, 244.5], 'bid': 9.36}, {'imgObject': {}, 'id': 'mashed potato', 'src': '/static/foodstim60/mashed potato.jpg', 'key': 'i', 'origWidth': 409, 'origHeight': 409, 'width': 409, 'height': 409, 'widthPercent': 0.45, 'rescaleHeight': False, 'trialN': 55, 'loaded': True, 'loadedTime': 3132.7000000476837, 'positionName': 'RIGHT', 'positionCoords': [748.8, 245.5], 'bid': 7.44}]",98143.5,1669835158486,rigatoni and sauce,mashed potato,9.36,7.44,-1.919999999999999,rigatoni and sauce,903.3999998569489,908,908.2999999523163,True,u,99553.39999985695,1409.8999998569489,1669835159896,1410,HRV,HRV_0242,2022-11-30 19:09:30
56,"[{'imgObject': {}, 'id': 'edamame', 'src': '/static/foodstim60/edamame.jpg', 'key': 'u', 'origWidth': 409, 'origHeight': 410, 'width': 409, 'height': 410, 'widthPercent': 0.45, 'rescaleHeight': False, 'trialN': 56, 'loaded': True, 'loadedTime': 3348.399999856949, 'positionName': 'LEFT', 'positionCoords': [282.2, 245], 'bid': 0.76}, {'imgObject': {}, 'id': 'granola w milk', 'src': '/static/foodstim60/granola w milk.jpg', 'key': 'i', 'origWidth': 410, 'origHeight': 410, 'width': 410, 'height': 410, 'widthPercent': 0.45, 'rescaleHeight': False, 'trialN': 56, 'loaded': True, 'loadedTime': 3319.2999999523163, 'positionName': 'RIGHT', 'positionCoords': [748.8, 245], 'bid': 0.87}]",99553.70000004768,1669835159896,edamame,granola w milk,0.76,0.87,0.10999999999999999,edamame,1320.8999998569489,1326,1326.3999998569489,True,u,101385.79999995232,1832.0999999046326,1669835161728,1832,HRV,HRV_0242,2022-11-30 19:09:30
57,"[{'imgObject': {}, 'id': 'popsicles', 'src': '/static/foodstim60/popsicles.jpg', 'key': 'u', 'origWidth': 410, 'origHeight': 410, 'width': 410, 'height': 410, 'widthPercent': 0.45, 'rescaleHeight': False, 'trialN': 57, 'loaded': True, 'loadedTime': 3402.0999999046326, 'positionName': 'LEFT', 'positionCoords': [281.2, 245], 'bid': 1.37}, {'imgObject': {}, 'id': 'raspberries', 'src': '/static/foodstim60/raspberries.jpg', 'key': 'i', 'origWidth': 411, 'origHeight': 411, 'width': 411, 'height': 411, 'widthPercent': 0.45, 'rescaleHeight': False, 'trialN': 57, 'loaded': True, 'loadedTime': 3140, 'positionName': 'RIGHT', 'positionCoords': [748.8, 244.5], 'bid': 1.26}]",101386.20000004768,1669835161728,popsicles,raspberries,1.37,1.26,-0.1100000000000001,raspberries,1562.7999999523163,1569,1568.1999998092651,True,i,103454.70000004768,2068.5,1669835163797,2069,HRV,HRV_0242,2022-11-30 19:09:30
58,"[{'imgObject': {}, 'id': 'luckycharms', 'src': '/static/foodstim60/luckycharms.jpg', 'key': 'u', 'origWidth': 410, 'origHeight': 409, 'width': 410, 'height': 409, 'widthPercent': 0.45, 'rescaleHeight': False, 'trialN': 58, 'loaded': True, 'loadedTime': 3338.0999999046326, 'positionName': 'LEFT', 'positionCoords': [281.2, 245.5], 'bid': 3.29}, {'imgObject': {}, 'id': 'cheerios', 'src': '/static/foodstim60/cheerios.jpg', 'key': 'i', 'origWidth': 409, 'origHeight': 410, 'width': 409, 'height': 410, 'widthPercent': 0.45, 'rescaleHeight': False, 'trialN': 58, 'loaded': True, 'loadedTime': 3373.7999999523163, 'positionName': 'RIGHT', 'positionCoords': [748.8, 245], 'bid': 5.59}]",103455.0,1669835163797,luckycharms,cheerios,3.29,5.59,2.3,luckycharms,799.2999999523163,805,804.3999998569489,True,u,104766.59999990463,1311.5999999046326,1669835165109,1312,HRV,HRV_0242,2022-11-30 19:09:30
59,"[{'imgObject': {}, 'id': 'raisin bran w milk', 'src': '/static/foodstim60/raisin bran w milk.jpg', 'key': 'u', 'origWidth': 411, 'origHeight': 411, 'width': 411, 'height': 411, 'widthPercent': 0.45, 'rescaleHeight': False, 'trialN': 59, 'loaded': True, 'loadedTime': 3375.2999999523163, 'positionName': 'LEFT', 'positionCoords': [280.2, 244.5], 'bid': 1.15}, {'imgObject': {}, 'id': 'eggsalad', 'src': '/static/foodstim60/eggsalad.jpg', 'key': 'i', 'origWidth': 410, 'origHeight': 409, 'width': 410, 'height': 409, 'widthPercent': 0.45, 'rescaleHeight': False, 'trialN': 59, 'loaded': True, 'loadedTime': 3125, 'positionName': 'RIGHT', 'positionCoords': [748.8, 245.5], 'bid': 2.29}]",104766.79999995232,1669835165109,raisin bran w milk,eggsalad,1.15,2.29,1.1400000000000001,raisin bran w milk,1714.5,1719,1719.5999999046326,True,u,106993.59999990463,2226.7999999523163,1669835167336,2227,HRV,HRV_0242,2022-11-30 19:09:30
60,"[{'imgObject': {}, 'id': 'turkeysandwich', 'src': '/static/foodstim60/turkeysandwich.jpg', 'key': 'u', 'origWidth': 409, 'origHeight': 409, 'width': 409, 'height': 409, 'widthPercent': 0.45, 'rescaleHeight': False, 'trialN': 60, 'loaded': True, 'loadedTime': 3363.2999999523163, 'positionName': 'LEFT', 'positionCoords': [282.2, 245.5], 'bid': 8.13}, {'imgObject': {}, 'id': 'burger', 'src': '/static/foodstim60/burger.jpg', 'key': 'i', 'origWidth': 409, 'origHeight': 409, 'width': 409, 'height': 409, 'widthPercent': 0.45, 'rescaleHeight': False, 'trialN': 60, 'loaded': True, 'loadedTime': 3376.5, 'positionName': 'RIGHT', 'positionCoords': [748.8, 245.5], 'bid': 9.88}]",106993.79999995232,1669835167336,turkeysandwich,burger,8.13,9.88,1.75,burger,1201.2999999523163,1206,1206.4000000953674,True,i,108703.29999995232,1709.5,1669835169045,1709,HRV,HRV_0242,2022-11-30 19:09:30
61,"[{'imgObject': {}, 'id': 'sushi w_condiments', 'src': '/static/foodstim60/sushi w_condiments.jpg', 'key': 'u', 'origWidth': 410, 'origHeight': 410, 'width': 410, 'height': 410, 'widthPercent': 0.45, 'rescaleHeight': False, 'trialN': 61, 'loaded': True, 'loadedTime': 3308.899999856949, 'positionName': 'LEFT', 'positionCoords': [281.2, 245], 'bid': 9.88}, {'imgObject': {}, 'id': 'chicken nuggets2', 'src': '/static/foodstim60/chicken nuggets2.jpg', 'key': 'i', 'origWidth': 410, 'origHeight': 409, 'width': 410, 'height': 409, 'widthPercent': 0.45, 'rescaleHeight': False, 'trialN': 61, 'loaded': True, 'loadedTime': 3339.0999999046326, 'positionName': 'RIGHT', 'positionCoords': [748.8, 245.5], 'bid': 9.52}]",108703.59999990463,1669835169046,sushi w_condiments,chicken nuggets2,9.88,9.52,-0.3600000000000012,sushi w_condiments,788.7999999523163,794,794.4000000953674,True,u,110005.20000004768,1301.6000001430511,1669835170347,1301,HRV,HRV_0242,2022-11-30 19:09:30
62,"[{'imgObject': {}, 'id': 'burrito', 'src': '/static/foodstim60/burrito.jpg', 'key': 'u', 'origWidth': 410, 'origHeight': 410, 'width': 410, 'height': 410, 'widthPercent': 0.45, 'rescaleHeight': False, 'trialN': 62, 'loaded': True, 'loadedTime': 3360.2999999523163, 'positionName': 'LEFT', 'positionCoords': [281.2, 245], 'bid': 8}, {'imgObject': {}, 'id': 'Tribe humus pita', 'src': '/static/foodstim60/Tribe humus pita.jpg', 'key': 'i', 'origWidth': 411, 'origHeight': 411, 'width': 411, 'height': 411, 'widthPercent': 0.45, 'rescaleHeight': False, 'trialN': 62, 'loaded': True, 'loadedTime': 3289.0999999046326, 'positionName': 'RIGHT', 'positionCoords': [748.8, 244.5], 'bid': 8.73}]",110005.5,1669835170347,burrito,Tribe humus pita,8.0,8.73,0.7300000000000004,burrito,943.2000000476837,947,947.0999999046326,True,u,111459.79999995232,1454.2999999523163,1669835171802,1455,HRV,HRV_0242,2022-11-30 19:09:30
63,"[{'imgObject': {}, 'id': 'grilled chicken strips', 'src': '/static/foodstim60/grilled chicken strips.jpg', 'key': 'u', 'origWidth': 410, 'origHeight': 411, 'width': 410, 'height': 411, 'widthPercent': 0.45, 'rescaleHeight': False, 'trialN': 63, 'loaded': True, 'loadedTime': 3363.5, 'positionName': 'LEFT', 'positionCoords': [281.2, 244.5], 'bid': 7.9}, {'imgObject': {}, 'id': 'ice cream sundae 002', 'src': '/static/foodstim60/ice cream sundae 002.jpg', 'key': 'i', 'origWidth': 409, 'origHeight': 409, 'width': 409, 'height': 409, 'widthPercent': 0.45, 'rescaleHeight': False, 'trialN': 63, 'loaded': True, 'loadedTime': 3170.399999856949, 'positionName': 'RIGHT', 'positionCoords': [748.8, 245.5], 'bid': 7.58}]",111460.09999990463,1669835171802,grilled chicken strips,ice cream sundae 002,7.9,7.58,-0.3200000000000003,grilled chicken strips,1023.0,1028,1028.2999999523163,True,u,112995.70000004768,1535.6000001430511,1669835173337,1535,HRV,HRV_0242,2022-11-30 19:09:30
64,"[{'imgObject': {}, 'id': 'sweetpotato', 'src': '/static/foodstim60/sweetpotato.jpg', 'key': 'u', 'origWidth': 410, 'origHeight': 410, 'width': 410, 'height': 410, 'widthPercent': 0.45, 'rescaleHeight': False, 'trialN': 64, 'loaded': True, 'loadedTime': 3282.399999856949, 'positionName': 'LEFT', 'positionCoords': [281.2, 245], 'bid': 7.91}, {'imgObject': {}, 'id': 'banana', 'src': '/static/foodstim60/banana.jpg', 'key': 'i', 'origWidth': 410, 'origHeight': 410, 'width': 410, 'height': 410, 'widthPercent': 0.45, 'rescaleHeight': False, 'trialN': 64, 'loaded': True, 'loadedTime': 3127.2999999523163, 'positionName': 'RIGHT', 'positionCoords': [748.8, 245], 'bid': 2.01}]",112996.0,1669835173338,sweetpotato,banana,7.91,2.01,-5.9,sweetpotato,1134.8999998569489,1140,1139.8999998569489,True,u,114643.29999995232,1647.2999999523163,1669835174985,1647,HRV,HRV_0242,2022-11-30 19:09:30
65,"[{'imgObject': {}, 'id': 'orange slices', 'src': '/static/foodstim60/orange slices.jpg', 'key': 'u', 'origWidth': 409, 'origHeight': 410, 'width': 409, 'height': 410, 'widthPercent': 0.45, 'rescaleHeight': False, 'trialN': 65, 'loaded': True, 'loadedTime': 3212, 'positionName': 'LEFT', 'positionCoords': [282.2, 245], 'bid': 1.65}, {'imgObject': {}, 'id': 'froot loops w milk', 'src': '/static/foodstim60/froot loops w milk.jpg', 'key': 'i', 'origWidth': 410, 'origHeight': 410, 'width': 410, 'height': 410, 'widthPercent': 0.45, 'rescaleHeight': False, 'trialN': 65, 'loaded': True, 'loadedTime': 3116.5, 'positionName': 'RIGHT', 'positionCoords': [748.8, 245], 'bid': 4.09}]",114643.5,1669835174985,orange slices,froot loops w milk,1.65,4.09,2.44,froot loops w milk,1278.3999998569489,1284,1283.7000000476837,True,i,116427.5,1784.0,1669835176769,1784,HRV,HRV_0242,2022-11-30 19:09:30
66,"[{'imgObject': {}, 'id': 'Tribe humus pita', 'src': '/static/foodstim60/Tribe humus pita.jpg', 'key': 'u', 'origWidth': 411, 'origHeight': 411, 'width': 411, 'height': 411, 'widthPercent': 0.45, 'rescaleHeight': False, 'trialN': 66, 'loaded': True, 'loadedTime': 3289.0999999046326, 'positionName': 'LEFT', 'positionCoords': [280.2, 244.5], 'bid': 8.73}, {'imgObject': {}, 'id': 'roastedpotatoes', 'src': '/static/foodstim60/roastedpotatoes.jpg', 'key': 'i', 'origWidth': 409, 'origHeight': 410, 'width': 409, 'height': 410, 'widthPercent': 0.45, 'rescaleHeight': False, 'trialN': 66, 'loaded': True, 'loadedTime': 3096.5, 'positionName': 'RIGHT', 'positionCoords': [748.8, 245], 'bid': 8.55}]",116427.79999995232,1669835176769,Tribe humus pita,roastedpotatoes,8.73,8.55,-0.17999999999999972,Tribe humus pita,819.0,825,824.2000000476837,True,u,117755.70000004768,1327.9000000953674,1669835178097,1328,HRV,HRV_0242,2022-11-30 19:09:30
67,"[{'imgObject': {}, 'id': 'tacos', 'src': '/static/foodstim60/tacos.jpg', 'key': 'u', 'origWidth': 411, 'origHeight': 411, 'width': 411, 'height': 411, 'widthPercent': 0.45, 'rescaleHeight': False, 'trialN': 67, 'loaded': True, 'loadedTime': 3328.2000000476837, 'positionName': 'LEFT', 'positionCoords': [280.2, 244.5], 'bid': 8.05}, {'imgObject': {}, 'id': 'steak', 'src': '/static/foodstim60/steak.jpg', 'key': 'i', 'origWidth': 410, 'origHeight': 410, 'width': 410, 'height': 410, 'widthPercent': 0.45, 'rescaleHeight': False, 'trialN': 67, 'loaded': True, 'loadedTime': 3213.399999856949, 'positionName': 'RIGHT', 'positionCoords': [748.8, 245], 'bid': 9.86}]",117755.89999985695,1669835178097,tacos,steak,8.05,9.86,1.8099999999999987,steak,927.9000000953674,934,933.2000000476837,True,i,119191.39999985695,1435.5,1669835179533,1436,HRV,HRV_0242,2022-11-30 19:09:30
68,"[{'imgObject': {}, 'id': 'bagel plain', 'src': '/static/foodstim60/bagel plain.jpg', 'key': 'u', 'origWidth': 410, 'origHeight': 410, 'width': 410, 'height': 410, 'widthPercent': 0.45, 'rescaleHeight': False, 'trialN': 68, 'loaded': True, 'loadedTime': 3261.399999856949, 'positionName': 'LEFT', 'positionCoords': [281.2, 245], 'bid': 5.76}, {'imgObject': {}, 'id': 'salmon', 'src': '/static/foodstim60/salmon.jpg', 'key': 'i', 'origWidth': 410, 'origHeight': 409, 'width': 410, 'height': 409, 'widthPercent': 0.45, 'rescaleHeight': False, 'trialN': 68, 'loaded': True, 'loadedTime': 3317.2999999523163, 'positionName': 'RIGHT', 'positionCoords': [748.8, 245.5], 'bid': 6.01}]",119191.70000004768,1669835179533,bagel plain,salmon,5.76,6.01,0.25,salmon,1096.0999999046326,1102,1101.8999998569489,True,i,120800.89999985695,1609.1999998092651,1669835181142,1609,HRV,HRV_0242,2022-11-30 19:09:30
69,"[{'imgObject': {}, 'id': 'cocktailshrimp', 'src': '/static/foodstim60/cocktailshrimp.jpg', 'key': 'u', 'origWidth': 410, 'origHeight': 410, 'width': 410, 'height': 410, 'widthPercent': 0.45, 'rescaleHeight': False, 'trialN': 69, 'loaded': True, 'loadedTime': 3241.899999856949, 'positionName': 'LEFT', 'positionCoords': [281.2, 245], 'bid': 9.16}, {'imgObject': {}, 'id': 'hotdog w must', 'src': '/static/foodstim60/hotdog w must.jpg', 'key': 'i', 'origWidth': 409, 'origHeight': 409, 'width': 409, 'height': 409, 'widthPercent': 0.45, 'rescaleHeight': False, 'trialN': 69, 'loaded': True, 'loadedTime': 3377.899999856949, 'positionName': 'RIGHT', 'positionCoords': [748.8, 245.5], 'bid': 9}]",120801.20000004768,1669835181142,cocktailshrimp,hotdog w must,9.16,9.0,-0.16000000000000014,hotdog w must,1062.5999999046326,1068,1067.5999999046326,True,i,122376.09999990463,1574.8999998569489,1669835182717,1575,HRV,HRV_0242,2022-11-30 19:09:30
70,"[{'imgObject': {}, 'id': 'cantaloupe', 'src': '/static/foodstim60/cantaloupe.jpg', 'key': 'u', 'origWidth': 409, 'origHeight': 409, 'width': 409, 'height': 409, 'widthPercent': 0.45, 'rescaleHeight': False, 'trialN': 70, 'loaded': True, 'loadedTime': 3152.899999856949, 'positionName': 'LEFT', 'positionCoords': [282.2, 245.5], 'bid': 2.38}, {'imgObject': {}, 'id': 'turkeysandwich', 'src': '/static/foodstim60/turkeysandwich.jpg', 'key': 'i', 'origWidth': 409, 'origHeight': 409, 'width': 409, 'height': 409, 'widthPercent': 0.45, 'rescaleHeight': False, 'trialN': 70, 'loaded': True, 'loadedTime': 3362.0999999046326, 'positionName': 'RIGHT', 'positionCoords': [748.8, 245.5], 'bid': 8.13}]",122376.39999985695,1669835182718,cantaloupe,turkeysandwich,2.38,8.13,5.750000000000001,turkeysandwich,896.9000000953674,902,902.4000000953674,True,i,123784.0,1407.6000001430511,1669835184125,1407,HRV,HRV_0242,2022-11-30 19:09:30
71,"[{'imgObject': {}, 'id': 'hotdog w must', 'src': '/static/foodstim60/hotdog w must.jpg', 'key': 'u', 'origWidth': 409, 'origHeight': 409, 'width': 409, 'height': 409, 'widthPercent': 0.45, 'rescaleHeight': False, 'trialN': 71, 'loaded': True, 'loadedTime': 3377.7999999523163, 'positionName': 'LEFT', 'positionCoords': [282.2, 245.5], 'bid': 9}, {'imgObject': {}, 'id': 'Grapes', 'src': '/static/foodstim60/Grapes.jpg', 'key': 'i', 'origWidth': 411, 'origHeight': 411, 'width': 411, 'height': 411, 'widthPercent': 0.45, 'rescaleHeight': False, 'trialN': 71, 'loaded': True, 'loadedTime': 3118.7999999523163, 'positionName': 'RIGHT', 'positionCoords': [748.8, 244.5], 'bid': 3.48}]",123784.29999995232,1669835184126,hotdog w must,Grapes,9.0,3.48,-5.52,hotdog w must,773.2999999523163,778,778.5999999046326,True,u,125070.09999990463,1285.7999999523163,1669835185411,1285,HRV,HRV_0242,2022-11-30 19:09:30
72,"[{'imgObject': {}, 'id': 'cheerios', 'src': '/static/foodstim60/cheerios.jpg', 'key': 'u', 'origWidth': 409, 'origHeight': 410, 'width': 409, 'height': 410, 'widthPercent': 0.45, 'rescaleHeight': False, 'trialN': 72, 'loaded': True, 'loadedTime': 3373.7999999523163, 'positionName': 'LEFT', 'positionCoords': [282.2, 245], 'bid': 5.59}, {'imgObject': {}, 'id': 'chicken nuggets2', 'src': '/static/foodstim60/chicken nuggets2.jpg', 'key': 'i', 'origWidth': 410, 'origHeight': 409, 'width': 410, 'height': 409, 'widthPercent': 0.45, 'rescaleHeight': False, 'trialN': 72, 'loaded': True, 'loadedTime': 3340.2000000476837, 'positionName': 'RIGHT', 'positionCoords': [748.8, 245.5], 'bid': 9.52}]",125070.39999985695,1669835185411,cheerios,chicken nuggets2,5.59,9.52,3.9299999999999997,chicken nuggets2,839.6000001430511,845,844.8000001907349,True,i,126416.79999995232,1346.4000000953674,1669835186758,1347,HRV,HRV_0242,2022-11-30 19:09:30
73,"[{'imgObject': {}, 'id': 'yogurt no spoon', 'src': '/static/foodstim60/yogurt no spoon.jpg', 'key': 'u', 'origWidth': 411, 'origHeight': 410, 'width': 411, 'height': 410, 'widthPercent': 0.45, 'rescaleHeight': False, 'trialN': 73, 'loaded': True, 'loadedTime': 3171.399999856949, 'positionName': 'LEFT', 'positionCoords': [280.2, 245], 'bid': 5.55}, {'imgObject': {}, 'id': 'cheerios', 'src': '/static/foodstim60/cheerios.jpg', 'key': 'i', 'origWidth': 409, 'origHeight': 410, 'width': 409, 'height': 410, 'widthPercent': 0.45, 'rescaleHeight': False, 'trialN': 73, 'loaded': True, 'loadedTime': 3373.7999999523163, 'positionName': 'RIGHT', 'positionCoords': [748.8, 245], 'bid': 5.59}]",126417.09999990463,1669835186758,yogurt no spoon,cheerios,5.55,5.59,0.040000000000000036,yogurt no spoon,897.5,903,902.7999999523163,True,u,127827.0,1409.9000000953674,1669835188168,1410,HRV,HRV_0242,2022-11-30 19:09:30
74,"[{'imgObject': {}, 'id': 'edamame', 'src': '/static/foodstim60/edamame.jpg', 'key': 'u', 'origWidth': 409, 'origHeight': 410, 'width': 409, 'height': 410, 'widthPercent': 0.45, 'rescaleHeight': False, 'trialN': 74, 'loaded': True, 'loadedTime': 3349.399999856949, 'positionName': 'LEFT', 'positionCoords': [282.2, 245], 'bid': 0.76}, {'imgObject': {}, 'id': 'omelette', 'src': '/static/foodstim60/omelette.jpg', 'key': 'i', 'origWidth': 410, 'origHeight': 409, 'width': 410, 'height': 409, 'widthPercent': 0.45, 'rescaleHeight': False, 'trialN': 74, 'loaded': True, 'loadedTime': 3379.2000000476837, 'positionName': 'RIGHT', 'positionCoords': [748.8, 245.5], 'bid': 0.59}]",127827.39999985695,1669835188168,edamame,omelette,0.76,0.59,-0.17000000000000004,omelette,1068.1000001430511,1074,1073.2000000476837,True,i,129406.39999985695,1579.0,1669835189747,1579,HRV,HRV_0242,2022-11-30 19:09:30
75,"[{'imgObject': {}, 'id': 'strawberries', 'src': '/static/foodstim60/strawberries.jpg', 'key': 'u', 'origWidth': 410, 'origHeight': 410, 'width': 410, 'height': 410, 'widthPercent': 0.45, 'rescaleHeight': False, 'trialN': 75, 'loaded': True, 'loadedTime': 3387.7999999523163, 'positionName': 'LEFT', 'positionCoords': [281.2, 245], 'bid': 6.25}, {'imgObject': {}, 'id': 'baked potato', 'src': '/static/foodstim60/baked potato.jpg', 'key': 'i', 'origWidth': 409, 'origHeight': 410, 'width': 409, 'height': 410, 'widthPercent': 0.45, 'rescaleHeight': False, 'trialN': 75, 'loaded': True, 'loadedTime': 3250.7000000476837, 'positionName': 'RIGHT', 'positionCoords': [748.8, 245], 'bid': 7.77}]",129406.70000004768,1669835189748,strawberries,baked potato,6.25,7.77,1.5199999999999996,baked potato,1338.8999998569489,1344,1344.5999999046326,True,i,131258.59999990463,1851.8999998569489,1669835191599,1851,HRV,HRV_0242,2022-11-30 19:09:30
76,"[{'imgObject': {}, 'id': 'rigatoni and sauce', 'src': '/static/foodstim60/rigatoni and sauce.jpg', 'key': 'u', 'origWidth': 410, 'origHeight': 411, 'width': 410, 'height': 411, 'widthPercent': 0.45, 'rescaleHeight': False, 'trialN': 76, 'loaded': True, 'loadedTime': 3221.7000000476837, 'positionName': 'LEFT', 'positionCoords': [281.2, 244.5], 'bid': 9.36}, {'imgObject': {}, 'id': 'bagel and cc', 'src': '/static/foodstim60/bagel and cc.jpg', 'key': 'i', 'origWidth': 410, 'origHeight': 410, 'width': 410, 'height': 410, 'widthPercent': 0.45, 'rescaleHeight': False, 'trialN': 76, 'loaded': True, 'loadedTime': 3306.5999999046326, 'positionName': 'RIGHT', 'positionCoords': [748.8, 245], 'bid': 9.02}]",131258.79999995232,1669835191600,rigatoni and sauce,bagel and cc,9.36,9.02,-0.33999999999999986,rigatoni and sauce,850.0,855,855.5,True,u,132619.5,1360.7000000476837,1669835192960,1360,HRV,HRV_0242,2022-11-30 19:09:30
77,"[{'imgObject': {}, 'id': 'pear', 'src': '/static/foodstim60/pear.jpg', 'key': 'u', 'origWidth': 411, 'origHeight': 410, 'width': 411, 'height': 410, 'widthPercent': 0.45, 'rescaleHeight': False, 'trialN': 77, 'loaded': True, 'loadedTime': 3389.2000000476837, 'positionName': 'LEFT', 'positionCoords': [280.2, 245], 'bid': 2.54}, {'imgObject': {}, 'id': 'hashbrowns', 'src': '/static/foodstim60/hashbrowns.jpg', 'key': 'i', 'origWidth': 411, 'origHeight': 410, 'width': 411, 'height': 410, 'widthPercent': 0.45, 'rescaleHeight': False, 'trialN': 77, 'loaded': True, 'loadedTime': 3398.0999999046326, 'positionName': 'RIGHT', 'positionCoords': [748.8, 245], 'bid': 6.51}]",132619.79999995232,1669835192961,pear,hashbrowns,2.54,6.51,3.9699999999999998,hashbrowns,1433.9000000953674,1439,1439.0,True,i,134564.0,1944.2000000476837,1669835194905,1944,HRV,HRV_0242,2022-11-30 19:09:30
78,"[{'imgObject': {}, 'id': 'fruitsalad', 'src': '/static/foodstim60/fruitsalad.jpg', 'key': 'u', 'origWidth': 410, 'origHeight': 410, 'width': 410, 'height': 410, 'widthPercent': 0.45, 'rescaleHeight': False, 'trialN': 78, 'loaded': True, 'loadedTime': 3182.5999999046326, 'positionName': 'LEFT', 'positionCoords': [281.2, 245], 'bid': 6.87}, {'imgObject': {}, 'id': 'corn cob', 'src': '/static/foodstim60/corn cob.jpg', 'key': 'i', 'origWidth': 411, 'origHeight': 411, 'width': 411, 'height': 411, 'widthPercent': 0.45, 'rescaleHeight': False, 'trialN': 78, 'loaded': True, 'loadedTime': 3130.5, 'positionName': 'RIGHT', 'positionCoords': [748.8, 244.5], 'bid': 5.8}]",134564.20000004768,1669835194905,fruitsalad,corn cob,6.87,5.8,-1.0700000000000003,fruitsalad,923.8999998569489,929,929.2999999523163,True,u,135996.0,1431.7999999523163,1669835196337,1432,HRV,HRV_0242,2022-11-30 19:09:30
79,"[{'imgObject': {}, 'id': 'raspberries', 'src': '/static/foodstim60/raspberries.jpg', 'key': 'u', 'origWidth': 411, 'origHeight': 411, 'width': 411, 'height': 411, 'widthPercent': 0.45, 'rescaleHeight': False, 'trialN': 79, 'loaded': True, 'loadedTime': 3140.399999856949, 'positionName': 'LEFT', 'positionCoords': [280.2, 244.5], 'bid': 1.26}, {'imgObject': {}, 'id': 'rigatoni', 'src': '/static/foodstim60/rigatoni.jpg', 'key': 'i', 'origWidth': 411, 'origHeight': 411, 'width': 411, 'height': 411, 'widthPercent': 0.45, 'rescaleHeight': False, 'trialN': 79, 'loaded': True, 'loadedTime': 3194.5999999046326, 'positionName': 'RIGHT', 'positionCoords': [748.8, 244.5], 'bid': 2.58}]",135996.29999995232,1669835196337,raspberries,rigatoni,1.26,2.58,1.32,raspberries,1226.0,1231,1231.2999999523163,True,u,137735.0,1738.7000000476837,1669835198076,1739,HRV,HRV_0242,2022-11-30 19:09:30
80,"[{'imgObject': {}, 'id': 'cherries', 'src': '/static/foodstim60/cherries.jpg', 'key': 'u', 'origWidth': 410, 'origHeight': 411, 'width': 410, 'height': 411, 'widthPercent': 0.45, 'rescaleHeight': False, 'trialN': 80, 'loaded': True, 'loadedTime': 3142, 'positionName': 'LEFT', 'positionCoords': [281.2, 244.5], 'bid': 1.55}, {'imgObject': {}, 'id': 'cheerios', 'src': '/static/foodstim60/cheerios.jpg', 'key': 'i', 'origWidth': 409, 'origHeight': 410, 'width': 409, 'height': 410, 'widthPercent': 0.45, 'rescaleHeight': False, 'trialN': 80, 'loaded': True, 'loadedTime': 3373.7999999523163, 'positionName': 'RIGHT', 'positionCoords': [748.8, 245], 'bid': 5.59}]",137735.29999995232,1669835198076,cherries,cheerios,1.55,5.59,4.04,cheerios,847.0,852,852.2999999523163,True,i,139089.20000004768,1353.9000000953674,1669835199430,1354,HRV,HRV_0242,2022-11-30 19:09:30
81,"[{'imgObject': {}, 'id': 'pear', 'src': '/static/foodstim60/pear.jpg', 'key': 'u', 'origWidth': 411, 'origHeight': 410, 'width': 411, 'height': 410, 'widthPercent': 0.45, 'rescaleHeight': False, 'trialN': 81, 'loaded': True, 'loadedTime': 3389.399999856949, 'positionName': 'LEFT', 'positionCoords': [280.2, 245], 'bid': 2.54}, {'imgObject': {}, 'id': 'veggieswithdip', 'src': '/static/foodstim60/veggieswithdip.jpg', 'key': 'i', 'origWidth': 409, 'origHeight': 409, 'width': 409, 'height': 409, 'widthPercent': 0.45, 'rescaleHeight': False, 'trialN': 81, 'loaded': True, 'loadedTime': 3398.2000000476837, 'positionName': 'RIGHT', 'positionCoords': [748.8, 245.5], 'bid': 2.56}]",139089.5,1669835199430,pear,veggieswithdip,2.54,2.56,0.020000000000000018,veggieswithdip,1100.8999998569489,1106,1106.0999999046326,True,i,140702.89999985695,1613.3999998569489,1669835201043,1613,HRV,HRV_0242,2022-11-30 19:09:30
82,"[{'imgObject': {}, 'id': 'roastedpotatoes', 'src': '/static/foodstim60/roastedpotatoes.jpg', 'key': 'u', 'origWidth': 409, 'origHeight': 410, 'width': 409, 'height': 410, 'widthPercent': 0.45, 'rescaleHeight': False, 'trialN': 82, 'loaded': True, 'loadedTime': 3097.0999999046326, 'positionName': 'LEFT', 'positionCoords': [282.2, 245], 'bid': 8.55}, {'imgObject': {}, 'id': 'kiwi', 'src': '/static/foodstim60/kiwi.jpg', 'key': 'i', 'origWidth': 410, 'origHeight': 410, 'width': 410, 'height': 410, 'widthPercent': 0.45, 'rescaleHeight': False, 'trialN': 82, 'loaded': True, 'loadedTime': 3400.2999999523163, 'positionName': 'RIGHT', 'positionCoords': [748.8, 245], 'bid': 6.55}]",140703.09999990463,1669835201044,roastedpotatoes,kiwi,8.55,6.55,-2.000000000000001,roastedpotatoes,730.1000001430511,735,735.9000000953674,True,u,141946.29999995232,1243.2000000476837,1669835202287,1243,HRV,HRV_0242,2022-11-30 19:09:30
83,"[{'imgObject': {}, 'id': 'banana', 'src': '/static/foodstim60/banana.jpg', 'key': 'u', 'origWidth': 410, 'origHeight': 410, 'width': 410, 'height': 410, 'widthPercent': 0.45, 'rescaleHeight': False, 'trialN': 83, 'loaded': True, 'loadedTime': 3126.7999999523163, 'positionName': 'LEFT', 'positionCoords': [281.2, 245], 'bid': 2.01}, {'imgObject': {}, 'id': 'omelette', 'src': '/static/foodstim60/omelette.jpg', 'key': 'i', 'origWidth': 410, 'origHeight': 409, 'width': 410, 'height': 409, 'widthPercent': 0.45, 'rescaleHeight': False, 'trialN': 83, 'loaded': True, 'loadedTime': 3378.0999999046326, 'positionName': 'RIGHT', 'positionCoords': [748.8, 245.5], 'bid': 0.59}]",141946.59999990463,1669835202287,banana,omelette,2.01,0.59,-1.42,omelette,1286.5,1292,1291.9000000953674,True,i,143743.79999995232,1797.2000000476837,1669835204084,1797,HRV,HRV_0242,2022-11-30 19:09:30
84,"[{'imgObject': {}, 'id': 'apple slices', 'src': '/static/foodstim60/apple slices.jpg', 'key': 'u', 'origWidth': 409, 'origHeight': 410, 'width': 409, 'height': 410, 'widthPercent': 0.45, 'rescaleHeight': False, 'trialN': 84, 'loaded': True, 'loadedTime': 3361.5, 'positionName': 'LEFT', 'positionCoords': [282.2, 245], 'bid': 2.37}, {'imgObject': {}, 'id': 'Grapes', 'src': '/static/foodstim60/Grapes.jpg', 'key': 'i', 'origWidth': 411, 'origHeight': 411, 'width': 411, 'height': 411, 'widthPercent': 0.45, 'rescaleHeight': False, 'trialN': 84, 'loaded': True, 'loadedTime': 3120.5, 'positionName': 'RIGHT', 'positionCoords': [748.8, 244.5], 'bid': 3.48}]",143744.09999990463,1669835204084,apple slices,Grapes,2.37,3.48,1.1099999999999999,Grapes,1684.0,1690,1689.2999999523163,True,i,145940.5,2196.4000000953674,1669835206281,2197,HRV,HRV_0242,2022-11-30 19:09:30
85,"[{'imgObject': {}, 'id': 'raspberries', 'src': '/static/foodstim60/raspberries.jpg', 'key': 'u', 'origWidth': 411, 'origHeight': 411, 'width': 411, 'height': 411, 'widthPercent': 0.45, 'rescaleHeight': False, 'trialN': 85, 'loaded': True, 'loadedTime': 3137.899999856949, 'positionName': 'LEFT', 'positionCoords': [280.2, 244.5], 'bid': 1.26}, {'imgObject': {}, 'id': 'omelette', 'src': '/static/foodstim60/omelette.jpg', 'key': 'i', 'origWidth': 410, 'origHeight': 409, 'width': 410, 'height': 409, 'widthPercent': 0.45, 'rescaleHeight': False, 'trialN': 85, 'loaded': True, 'loadedTime': 3378.899999856949, 'positionName': 'RIGHT', 'positionCoords': [748.8, 245.5], 'bid': 0.59}]",145940.79999995232,1669835206281,raspberries,omelette,1.26,0.59,-0.67,omelette,922.0999999046326,927,927.4000000953674,True,i,147369.89999985695,1429.0999999046326,1669835207710,1429,HRV,HRV_0242,2022-11-30 19:09:30
86,"[{'imgObject': {}, 'id': 'edamame', 'src': '/static/foodstim60/edamame.jpg', 'key': 'u', 'origWidth': 409, 'origHeight': 410, 'width': 409, 'height': 410, 'widthPercent': 0.45, 'rescaleHeight': False, 'trialN': 86, 'loaded': True, 'loadedTime': 3349.2999999523163, 'positionName': 'LEFT', 'positionCoords': [282.2, 245], 'bid': 0.76}, {'imgObject': {}, 'id': 'fruitsalad', 'src': '/static/foodstim60/fruitsalad.jpg', 'key': 'i', 'origWidth': 410, 'origHeight': 410, 'width': 410, 'height': 410, 'widthPercent': 0.45, 'rescaleHeight': False, 'trialN': 86, 'loaded': True, 'loadedTime': 3193.0999999046326, 'positionName': 'RIGHT', 'positionCoords': [748.8, 245], 'bid': 6.87}]",147370.09999990463,1669835207710,edamame,fruitsalad,0.76,6.87,6.11,fruitsalad,1059.7999999523163,1065,1065.0,True,i,148940.39999985695,1570.2999999523163,1669835209281,1571,HRV,HRV_0242,2022-11-30 19:09:30
87,"[{'imgObject': {}, 'id': 'seaweed', 'src': '/static/foodstim60/seaweed.jpg', 'key': 'u', 'origWidth': 410, 'origHeight': 410, 'width': 410, 'height': 410, 'widthPercent': 0.45, 'rescaleHeight': False, 'trialN': 87, 'loaded': True, 'loadedTime': 3351.0999999046326, 'positionName': 'LEFT', 'positionCoords': [281.2, 245], 'bid': 9.51}, {'imgObject': {}, 'id': 'tacos', 'src': '/static/foodstim60/tacos.jpg', 'key': 'i', 'origWidth': 411, 'origHeight': 411, 'width': 411, 'height': 411, 'widthPercent': 0.45, 'rescaleHeight': False, 'trialN': 87, 'loaded': True, 'loadedTime': 3328.2000000476837, 'positionName': 'RIGHT', 'positionCoords': [748.8, 244.5], 'bid': 8.05}]",148940.70000004768,1669835209281,seaweed,tacos,9.51,8.05,-1.459999999999999,tacos,1057.0999999046326,1062,1062.5,True,i,150503.5,1562.7999999523163,1669835210844,1563,HRV,HRV_0242,2022-11-30 19:09:30
88,"[{'imgObject': {}, 'id': 'burrito', 'src': '/static/foodstim60/burrito.jpg', 'key': 'u', 'origWidth': 410, 'origHeight': 410, 'width': 410, 'height': 410, 'widthPercent': 0.45, 'rescaleHeight': False, 'trialN': 88, 'loaded': True, 'loadedTime': 3360.5999999046326, 'positionName': 'LEFT', 'positionCoords': [281.2, 245], 'bid': 8}, {'imgObject': {}, 'id': 'rigatoni and sauce', 'src': '/static/foodstim60/rigatoni and sauce.jpg', 'key': 'i', 'origWidth': 410, 'origHeight': 411, 'width': 410, 'height': 411, 'widthPercent': 0.45, 'rescaleHeight': False, 'trialN': 88, 'loaded': True, 'loadedTime': 3223.399999856949, 'positionName': 'RIGHT', 'positionCoords': [748.8, 244.5], 'bid': 9.36}]",150503.70000004768,1669835210844,burrito,rigatoni and sauce,8.0,9.36,1.3599999999999994,burrito,1237.1999998092651,1242,1242.7999999523163,True,u,152250.79999995232,1747.0999999046326,1669835212591,1747,HRV,HRV_0242,2022-11-30 19:09:30
89,"[{'imgObject': {}, 'id': 'cherries', 'src': '/static/foodstim60/cherries.jpg', 'key': 'u', 'origWidth': 410, 'origHeight': 411, 'width': 410, 'height': 411, 'widthPercent': 0.45, 'rescaleHeight': False, 'trialN': 89, 'loaded': True, 'loadedTime': 3140.5999999046326, 'positionName': 'LEFT', 'positionCoords': [281.2, 244.5], 'bid': 1.55}, {'imgObject': {}, 'id': 'orange slices', 'src': '/static/foodstim60/orange slices.jpg', 'key': 'i', 'origWidth': 409, 'origHeight': 410, 'width': 409, 'height': 410, 'widthPercent': 0.45, 'rescaleHeight': False, 'trialN': 89, 'loaded': True, 'loadedTime': 3203.7000000476837, 'positionName': 'RIGHT', 'positionCoords': [748.8, 245], 'bid': 1.65}]",152251.09999990463,1669835212591,cherries,orange slices,1.55,1.65,0.09999999999999987,orange slices,1456.7000000476837,1462,1461.9000000953674,True,i,154220.29999995232,1969.2000000476837,1669835214560,1969,HRV,HRV_0242,2022-11-30 19:09:30
90,"[{'imgObject': {}, 'id': 'avocado', 'src': '/static/foodstim60/avocado.jpg', 'key': 'u', 'origWidth': 409, 'origHeight': 409, 'width': 409, 'height': 409, 'widthPercent': 0.45, 'rescaleHeight': False, 'trialN': 90, 'loaded': True, 'loadedTime': 3330, 'positionName': 'LEFT', 'positionCoords': [282.2, 245.5], 'bid': 6.97}, {'imgObject': {}, 'id': 'salmon', 'src': '/static/foodstim60/salmon.jpg', 'key': 'i', 'origWidth': 410, 'origHeight': 409, 'width': 410, 'height': 409, 'widthPercent': 0.45, 'rescaleHeight': False, 'trialN': 90, 'loaded': True, 'loadedTime': 3317.5, 'positionName': 'RIGHT', 'positionCoords': [748.8, 245.5], 'bid': 6.01}]",164270.79999995232,1669835224610,avocado,salmon,6.97,6.01,-0.96,avocado,1568.9000000953674,1574,1574.0999999046326,True,u,166351.79999995232,2081.0,1669835226691,2081,HRV,HRV_0242,2022-11-30 19:09:30
91,"[{'imgObject': {}, 'id': 'rigatoni and sauce', 'src': '/static/foodstim60/rigatoni and sauce.jpg', 'key': 'u', 'origWidth': 410, 'origHeight': 411, 'width': 410, 'height': 411, 'widthPercent': 0.45, 'rescaleHeight': False, 'trialN': 91, 'loaded': True, 'loadedTime': 3223.399999856949, 'positionName': 'LEFT', 'positionCoords': [281.2, 244.5], 'bid': 9.36}, {'imgObject': {}, 'id': 'cherry tomato', 'src': '/static/foodstim60/cherry tomato.jpg', 'key': 'i', 'origWidth': 410, 'origHeight': 410, 'width': 410, 'height': 410, 'widthPercent': 0.45, 'rescaleHeight': False, 'trialN': 91, 'loaded': True, 'loadedTime': 3137.5, 'positionName': 'RIGHT', 'positionCoords': [748.8, 245], 'bid': 4.87}]",166352.20000004768,1669835226691,rigatoni and sauce,cherry tomato,9.36,4.87,-4.489999999999999,rigatoni and sauce,660.1999998092651,666,665.2999999523163,True,u,167524.79999995232,1172.5999999046326,1669835227864,1173,HRV,HRV_0242,2022-11-30 19:09:30
92,"[{'imgObject': {}, 'id': 'veggieswithdip', 'src': '/static/foodstim60/veggieswithdip.jpg', 'key': 'u', 'origWidth': 409, 'origHeight': 409, 'width': 409, 'height': 409, 'widthPercent': 0.45, 'rescaleHeight': False, 'trialN': 92, 'loaded': True, 'loadedTime': 3399.2000000476837, 'positionName': 'LEFT', 'positionCoords': [282.2, 245.5], 'bid': 2.56}, {'imgObject': {}, 'id': 'raisin bran w milk', 'src': '/static/foodstim60/raisin bran w milk.jpg', 'key': 'i', 'origWidth': 411, 'origHeight': 411, 'width': 411, 'height': 411, 'widthPercent': 0.45, 'rescaleHeight': False, 'trialN': 92, 'loaded': True, 'loadedTime': 3374.7000000476837, 'positionName': 'RIGHT', 'positionCoords': [748.8, 244.5], 'bid': 1.15}]",167525.0,1669835227864,veggieswithdip,raisin bran w milk,2.56,1.15,-1.4100000000000001,veggieswithdip,1058.5999999046326,1064,1063.8999998569489,True,u,169090.59999990463,1565.5999999046326,1669835229430,1566,HRV,HRV_0242,2022-11-30 19:09:30
93,"[{'imgObject': {}, 'id': 'eggs', 'src': '/static/foodstim60/eggs.jpg', 'key': 'u', 'origWidth': 409, 'origHeight': 409, 'width': 409, 'height': 409, 'widthPercent': 0.45, 'rescaleHeight': False, 'trialN': 93, 'loaded': True, 'loadedTime': 3135.5999999046326, 'positionName': 'LEFT', 'positionCoords': [282.2, 245.5], 'bid': 4.61}, {'imgObject': {}, 'id': 'raisin bran w milk', 'src': '/static/foodstim60/raisin bran w milk.jpg', 'key': 'i', 'origWidth': 411, 'origHeight': 411, 'width': 411, 'height': 411, 'widthPercent': 0.45, 'rescaleHeight': False, 'trialN': 93, 'loaded': True, 'loadedTime': 3373.899999856949, 'positionName': 'RIGHT', 'positionCoords': [748.8, 244.5], 'bid': 1.15}]",169091.0,1669835229430,eggs,raisin bran w milk,4.61,1.15,-3.4600000000000004,eggs,1079.5999999046326,1085,1084.8999998569489,True,u,170683.09999990463,1592.0999999046326,1669835231022,1592,HRV,HRV_0242,2022-11-30 19:09:30
94,"[{'imgObject': {}, 'id': 'seaweed', 'src': '/static/foodstim60/seaweed.jpg', 'key': 'u', 'origWidth': 410, 'origHeight': 410, 'width': 410, 'height': 410, 'widthPercent': 0.45, 'rescaleHeight': False, 'trialN': 94, 'loaded': True, 'loadedTime': 3351.399999856949, 'positionName': 'LEFT', 'positionCoords': [281.2, 245], 'bid': 9.51}, {'imgObject': {}, 'id': 'chicken nuggets2', 'src': '/static/foodstim60/chicken nuggets2.jpg', 'key': 'i', 'origWidth': 410, 'origHeight': 409, 'width': 410, 'height': 409, 'widthPercent': 0.45, 'rescaleHeight': False, 'trialN': 94, 'loaded': True, 'loadedTime': 3340.7000000476837, 'positionName': 'RIGHT', 'positionCoords': [748.8, 245.5], 'bid': 9.52}]",170683.39999985695,1669835231022,seaweed,chicken nuggets2,9.51,9.52,0.009999999999999787,chicken nuggets2,1162.2000000476837,1168,1167.6000001430511,True,i,172351.89999985695,1668.5,1669835232691,1669,HRV,HRV_0242,2022-11-30 19:09:30
95,"[{'imgObject': {}, 'id': 'blueberries', 'src': '/static/foodstim60/blueberries.jpg', 'key': 'u', 'origWidth': 411, 'origHeight': 411, 'width': 411, 'height': 411, 'widthPercent': 0.45, 'rescaleHeight': False, 'trialN': 95, 'loaded': True, 'loadedTime': 3288.0999999046326, 'positionName': 'LEFT', 'positionCoords': [280.2, 244.5], 'bid': 5.7}, {'imgObject': {}, 'id': 'bagel plain', 'src': '/static/foodstim60/bagel plain.jpg', 'key': 'i', 'origWidth': 410, 'origHeight': 410, 'width': 410, 'height': 410, 'widthPercent': 0.45, 'rescaleHeight': False, 'trialN': 95, 'loaded': True, 'loadedTime': 3260.2000000476837, 'positionName': 'RIGHT', 'positionCoords': [748.8, 245], 'bid': 5.76}]",172352.20000004768,1669835232691,blueberries,bagel plain,5.7,5.76,0.05999999999999961,bagel plain,1133.2999999523163,1139,1138.7999999523163,True,i,173992.70000004768,1640.5,1669835234332,1641,HRV,HRV_0242,2022-11-30 19:09:30
96,"[{'imgObject': {}, 'id': 'corn cob', 'src': '/static/foodstim60/corn cob.jpg', 'key': 'u', 'origWidth': 411, 'origHeight': 411, 'width': 411, 'height': 411, 'widthPercent': 0.45, 'rescaleHeight': False, 'trialN': 96, 'loaded': True, 'loadedTime': 3130.2000000476837, 'positionName': 'LEFT', 'positionCoords': [280.2, 244.5], 'bid': 5.8}, {'imgObject': {}, 'id': 'blueberries', 'src': '/static/foodstim60/blueberries.jpg', 'key': 'i', 'origWidth': 411, 'origHeight': 411, 'width': 411, 'height': 411, 'widthPercent': 0.45, 'rescaleHeight': False, 'trialN': 96, 'loaded': True, 'loadedTime': 3288.0999999046326, 'positionName': 'RIGHT', 'positionCoords': [748.8, 244.5], 'bid': 5.7}]",173992.89999985695,1669835234332,corn cob,blueberries,5.8,5.7,-0.09999999999999964,blueberries,959.6000001430511,965,965.2000000476837,True,i,175465.39999985695,1472.5,1669835235804,1472,HRV,HRV_0242,2022-11-30 19:09:30
97,"[{'imgObject': {}, 'id': 'olives', 'src': '/static/foodstim60/olives.jpg', 'key': 'u', 'origWidth': 410, 'origHeight': 410, 'width': 410, 'height': 410, 'widthPercent': 0.45, 'rescaleHeight': False, 'trialN': 97, 'loaded': True, 'loadedTime': 3203.0999999046326, 'positionName': 'LEFT', 'positionCoords': [281.2, 245], 'bid': 0.73}, {'imgObject': {}, 'id': 'granola w milk', 'src': '/static/foodstim60/granola w milk.jpg', 'key': 'i', 'origWidth': 410, 'origHeight': 410, 'width': 410, 'height': 410, 'widthPercent': 0.45, 'rescaleHeight': False, 'trialN': 97, 'loaded': True, 'loadedTime': 3317.7000000476837, 'positionName': 'RIGHT', 'positionCoords': [748.8, 245], 'bid': 0.87}]",175465.70000004768,1669835235805,olives,granola w milk,0.73,0.87,0.14,granola w milk,946.5,951,951.6999998092651,True,i,176922.0,1456.2999999523163,1669835237261,1456,HRV,HRV_0242,2022-11-30 19:09:30
98,"[{'imgObject': {}, 'id': 'blackbeanswithrice', 'src': '/static/foodstim60/blackbeanswithrice.jpg', 'key': 'u', 'origWidth': 410, 'origHeight': 410, 'width': 410, 'height': 410, 'widthPercent': 0.45, 'rescaleHeight': False, 'trialN': 98, 'loaded': True, 'loadedTime': 3251.899999856949, 'positionName': 'LEFT', 'positionCoords': [281.2, 245], 'bid': 7.13}, {'imgObject': {}, 'id': 'strawberries', 'src': '/static/foodstim60/strawberries.jpg', 'key': 'i', 'origWidth': 410, 'origHeight': 410, 'width': 410, 'height': 410, 'widthPercent': 0.45, 'rescaleHeight': False, 'trialN': 98, 'loaded': True, 'loadedTime': 3387.899999856949, 'positionName': 'RIGHT', 'positionCoords': [748.8, 245], 'bid': 6.25}]",176922.20000004768,1669835237261,blackbeanswithrice,strawberries,7.13,6.25,-0.8799999999999999,blackbeanswithrice,1036.8999998569489,1042,1041.8999998569489,True,u,178471.29999995232,1549.0999999046326,1669835238810,1549,HRV,HRV_0242,2022-11-30 19:09:30
99,"[{'imgObject': {}, 'id': 'hashbrowns', 'src': '/static/foodstim60/hashbrowns.jpg', 'key': 'u', 'origWidth': 411, 'origHeight': 410, 'width': 411, 'height': 410, 'widthPercent': 0.45, 'rescaleHeight': False, 'trialN': 99, 'loaded': True, 'loadedTime': 3396.7000000476837, 'positionName': 'LEFT', 'positionCoords': [280.2, 245], 'bid': 6.51}, {'imgObject': {}, 'id': 'mango', 'src': '/static/foodstim60/mango.jpg', 'key': 'i', 'origWidth': 411, 'origHeight': 411, 'width': 411, 'height': 411, 'widthPercent': 0.45, 'rescaleHeight': False, 'trialN': 99, 'loaded': True, 'loadedTime': 3270, 'positionName': 'RIGHT', 'positionCoords': [748.8, 244.5], 'bid': 6.62}]",178471.70000004768,1669835238810,hashbrowns,mango,6.51,6.62,0.11000000000000032,hashbrowns,1054.1999998092651,1060,1059.2999999523163,True,u,180038.29999995232,1566.5999999046326,1669835240377,1567,HRV,HRV_0242,2022-11-30 19:09:30
100,"[{'imgObject': {}, 'id': 'popsicles', 'src': '/static/foodstim60/popsicles.jpg', 'key': 'u', 'origWidth': 410, 'origHeight': 410, 'width': 410, 'height': 410, 'widthPercent': 0.45, 'rescaleHeight': False, 'trialN': 100, 'loaded': True, 'loadedTime': 3402, 'positionName': 'LEFT', 'positionCoords': [281.2, 245], 'bid': 1.37}, {'imgObject': {}, 'id': 'yogurt no spoon', 'src': '/static/foodstim60/yogurt no spoon.jpg', 'key': 'i', 'origWidth': 411, 'origHeight': 410, 'width': 411, 'height': 410, 'widthPercent': 0.45, 'rescaleHeight': False, 'trialN': 100, 'loaded': True, 'loadedTime': 3182.5, 'positionName': 'RIGHT', 'positionCoords': [748.8, 245], 'bid': 5.55}]",180038.5,1669835240377,popsicles,yogurt no spoon,1.37,5.55,4.18,yogurt no spoon,979.7999999523163,985,985.2000000476837,True,i,181524.09999990463,1485.5999999046326,1669835241863,1486,HRV,HRV_0242,2022-11-30 19:09:30
101,"[{'imgObject': {}, 'id': 'cantaloupe', 'src': '/static/foodstim60/cantaloupe.jpg', 'key': 'u', 'origWidth': 409, 'origHeight': 409, 'width': 409, 'height': 409, 'widthPercent': 0.45, 'rescaleHeight': False, 'trialN': 101, 'loaded': True, 'loadedTime': 3151.5, 'positionName': 'LEFT', 'positionCoords': [282.2, 245.5], 'bid': 2.38}, {'imgObject': {}, 'id': 'veggieswithdip', 'src': '/static/foodstim60/veggieswithdip.jpg', 'key': 'i', 'origWidth': 409, 'origHeight': 409, 'width': 409, 'height': 409, 'widthPercent': 0.45, 'rescaleHeight': False, 'trialN': 101, 'loaded': True, 'loadedTime': 3399.2999999523163, 'positionName': 'RIGHT', 'positionCoords': [748.8, 245.5], 'bid': 2.56}]",181524.39999985695,1669835241863,cantaloupe,veggieswithdip,2.38,2.56,0.18000000000000016,veggieswithdip,917.9000000953674,923,923.1000001430511,True,i,182948.20000004768,1423.8000001907349,1669835243287,1424,HRV,HRV_0242,2022-11-30 19:09:30
102,"[{'imgObject': {}, 'id': 'salad w chicken', 'src': '/static/foodstim60/salad w chicken.jpg', 'key': 'u', 'origWidth': 411, 'origHeight': 411, 'width': 411, 'height': 411, 'widthPercent': 0.45, 'rescaleHeight': False, 'trialN': 102, 'loaded': True, 'loadedTime': 3067.899999856949, 'positionName': 'LEFT', 'positionCoords': [280.2, 244.5], 'bid': 9.79}, {'imgObject': {}, 'id': 'chickenfingers', 'src': '/static/foodstim60/chickenfingers.jpg', 'key': 'i', 'origWidth': 410, 'origHeight': 410, 'width': 410, 'height': 410, 'widthPercent': 0.45, 'rescaleHeight': False, 'trialN': 102, 'loaded': True, 'loadedTime': 3372.7999999523163, 'positionName': 'RIGHT', 'positionCoords': [748.8, 245], 'bid': 9.77}]",182948.5,1669835243287,salad w chicken,chickenfingers,9.79,9.77,-0.019999999999999574,salad w chicken,760.3999998569489,766,765.5999999046326,True,u,184221.29999995232,1272.7999999523163,1669835244560,1273,HRV,HRV_0242,2022-11-30 19:09:30
103,"[{'imgObject': {}, 'id': 'roastedpotatoes', 'src': '/static/foodstim60/roastedpotatoes.jpg', 'key': 'u', 'origWidth': 409, 'origHeight': 410, 'width': 409, 'height': 410, 'widthPercent': 0.45, 'rescaleHeight': False, 'trialN': 103, 'loaded': True, 'loadedTime': 3096.7000000476837, 'positionName': 'LEFT', 'positionCoords': [282.2, 245], 'bid': 8.55}, {'imgObject': {}, 'id': 'grilled chicken strips', 'src': '/static/foodstim60/grilled chicken strips.jpg', 'key': 'i', 'origWidth': 410, 'origHeight': 411, 'width': 410, 'height': 411, 'widthPercent': 0.45, 'rescaleHeight': False, 'trialN': 103, 'loaded': True, 'loadedTime': 3364.7999999523163, 'positionName': 'RIGHT', 'positionCoords': [748.8, 244.5], 'bid': 7.9}]",184221.59999990463,1669835244560,roastedpotatoes,grilled chicken strips,8.55,7.9,-0.6500000000000004,roastedpotatoes,1312.6000001430511,1318,1318.4000000953674,True,u,186046.79999995232,1825.2000000476837,1669835246385,1825,HRV,HRV_0242,2022-11-30 19:09:30
104,"[{'imgObject': {}, 'id': 'yogurt no spoon', 'src': '/static/foodstim60/yogurt no spoon.jpg', 'key': 'u', 'origWidth': 411, 'origHeight': 410, 'width': 411, 'height': 410, 'widthPercent': 0.45, 'rescaleHeight': False, 'trialN': 104, 'loaded': True, 'loadedTime': 3181.899999856949, 'positionName': 'LEFT', 'positionCoords': [280.2, 245], 'bid': 5.55}, {'imgObject': {}, 'id': 'rigatoni', 'src': '/static/foodstim60/rigatoni.jpg', 'key': 'i', 'origWidth': 411, 'origHeight': 411, 'width': 411, 'height': 411, 'widthPercent': 0.45, 'rescaleHeight': False, 'trialN': 104, 'loaded': True, 'loadedTime': 3193.5999999046326, 'positionName': 'RIGHT', 'positionCoords': [748.8, 244.5], 'bid': 2.58}]",186047.0,1669835246385,yogurt no spoon,rigatoni,5.55,2.58,-2.9699999999999998,yogurt no spoon,1055.2000000476837,1063,1062.5999999046326,True,u,187616.89999985695,1569.8999998569489,1669835247955,1570,HRV,HRV_0242,2022-11-30 19:09:30
105,"[{'imgObject': {}, 'id': 'hashbrowns', 'src': '/static/foodstim60/hashbrowns.jpg', 'key': 'u', 'origWidth': 411, 'origHeight': 410, 'width': 411, 'height': 410, 'widthPercent': 0.45, 'rescaleHeight': False, 'trialN': 105, 'loaded': True, 'loadedTime': 3398, 'positionName': 'LEFT', 'positionCoords': [280.2, 245], 'bid': 6.51}, {'imgObject': {}, 'id': 'mac & cheese', 'src': '/static/foodstim60/mac & cheese.jpg', 'key': 'i', 'origWidth': 410, 'origHeight': 410, 'width': 410, 'height': 410, 'widthPercent': 0.45, 'rescaleHeight': False, 'trialN': 105, 'loaded': True, 'loadedTime': 3270.2000000476837, 'positionName': 'RIGHT', 'positionCoords': [748.8, 245], 'bid': 7.15}]",187617.20000004768,1669835247956,hashbrowns,mac & cheese,6.51,7.15,0.6400000000000006,mac & cheese,1297.8999998569489,1303,1303.0999999046326,True,i,189424.59999990463,1807.3999998569489,1669835249763,1807,HRV,HRV_0242,2022-11-30 19:09:30
106,"[{'imgObject': {}, 'id': 'hotdog w must', 'src': '/static/foodstim60/hotdog w must.jpg', 'key': 'u', 'origWidth': 409, 'origHeight': 409, 'width': 409, 'height': 409, 'widthPercent': 0.45, 'rescaleHeight': False, 'trialN': 106, 'loaded': True, 'loadedTime': 3378, 'positionName': 'LEFT', 'positionCoords': [282.2, 245.5], 'bid': 9}, {'imgObject': {}, 'id': 'bagel and cc', 'src': '/static/foodstim60/bagel and cc.jpg', 'key': 'i', 'origWidth': 410, 'origHeight': 410, 'width': 410, 'height': 410, 'widthPercent': 0.45, 'rescaleHeight': False, 'trialN': 106, 'loaded': True, 'loadedTime': 3306.7000000476837, 'positionName': 'RIGHT', 'positionCoords': [748.8, 245], 'bid': 9.02}]",189424.79999995232,1669835249763,hotdog w must,bagel and cc,9.0,9.02,0.019999999999999574,bagel and cc,1216.0,1221,1221.0999999046326,True,i,191151.79999995232,1727.0,1669835251490,1727,HRV,HRV_0242,2022-11-30 19:09:30
107,"[{'imgObject': {}, 'id': 'raisin bran w milk', 'src': '/static/foodstim60/raisin bran w milk.jpg', 'key': 'u', 'origWidth': 411, 'origHeight': 411, 'width': 411, 'height': 411, 'widthPercent': 0.45, 'rescaleHeight': False, 'trialN': 107, 'loaded': True, 'loadedTime': 3375.0999999046326, 'positionName': 'LEFT', 'positionCoords': [280.2, 244.5], 'bid': 1.15}, {'imgObject': {}, 'id': 'popsicles', 'src': '/static/foodstim60/popsicles.jpg', 'key': 'i', 'origWidth': 410, 'origHeight': 410, 'width': 410, 'height': 410, 'widthPercent': 0.45, 'rescaleHeight': False, 'trialN': 107, 'loaded': True, 'loadedTime': 3401, 'positionName': 'RIGHT', 'positionCoords': [748.8, 245], 'bid': 1.37}]",191152.20000004768,1669835251490,raisin bran w milk,popsicles,1.15,1.37,0.2200000000000002,raisin bran w milk,1153.0999999046326,1158,1158.0,True,u,192815.59999990463,1663.3999998569489,1669835253154,1664,HRV,HRV_0242,2022-11-30 19:09:30
108,"[{'imgObject': {}, 'id': 'grilled chicken strips', 'src': '/static/foodstim60/grilled chicken strips.jpg', 'key': 'u', 'origWidth': 410, 'origHeight': 411, 'width': 410, 'height': 411, 'widthPercent': 0.45, 'rescaleHeight': False, 'trialN': 108, 'loaded': True, 'loadedTime': 3364.5999999046326, 'positionName': 'LEFT', 'positionCoords': [281.2, 244.5], 'bid': 7.9}, {'imgObject': {}, 'id': 'hashbrowns', 'src': '/static/foodstim60/hashbrowns.jpg', 'key': 'i', 'origWidth': 411, 'origHeight': 410, 'width': 411, 'height': 410, 'widthPercent': 0.45, 'rescaleHeight': False, 'trialN': 108, 'loaded': True, 'loadedTime': 3397.899999856949, 'positionName': 'RIGHT', 'positionCoords': [748.8, 245], 'bid': 6.51}]",192815.79999995232,1669835253154,grilled chicken strips,hashbrowns,7.9,6.51,-1.3900000000000006,grilled chicken strips,1300.7999999523163,1306,1305.7999999523163,True,u,194626.79999995232,1811.0,1669835254965,1811,HRV,HRV_0242,2022-11-30 19:09:30
