success,trial_type,trial_index,time_elapsed,internal_node_id,Block,TrialNumber,TrialTime,trialTimeDiff,FPS_avg,FPS_med,FPS_mode,TrialDur,winResizeTime,rt,block,button_pressed,MotCoh,MotDir,ColCoh,Color,ChoiceKey,Choice,Accuracy,RT,nFrames,FPS,PPD,missTrial,missTrialMsg,onsetDelay,fullScreenExitTime,canvCenter,TrialType,Score,BlockTrial,stimulus,button_labels,exp,subjectId,date
True,fullscreen,0,3918,0.0-0.0,0.0,1.0,,,,,,,,,,,,,,,,,,,,,,,,,,,,,,,,HRV,HRV_0242,2022-11-30 19:35:17
,wl-check-fps,1,8905,0.0-1.0,0.0,2.0,"[4317.3, 4318.8, 4331.2, 4348.8, 4365.1, 4381.7, 4399.5, 4415.1, 4432.6, 4448.4, 4465.7, 4481.4, 4498.4, 4516.1, 4532.6, 4548.9, 4566.3, 4582.6, 4598.8, 4615.3, 4631.6, 4649.5, 4664.8, 4681.4, 4697.9, 4714.3, 4731.6, 4748.3, 4765.4, 4781.6, 4797.3, 4815, 4831.4, 4849.3, 4865.5, 4882, 4898.7, 4915.8, 4932.5, 4947.9, 4965.6, 4981.8, 4998.7, 5015.4, 5031.8, 5048.6, 5064.9, 5082.2, 5097.6, 5115.4, 5132.1, 5148.8, 5164.6, 5182.4, 5199.1, 5215.1, 5231.9, 5248.8, 5265.5, 5282.1, 5298.3, 5315.1, 5331.1, 5348.9, 5364.9, 5382.1, 5398.9, 5414.8, 5431.4, 5448.1, 5464.9, 5481.8, 5498.2, 5515.2, 5532.1, 5548.1, 5564.5, 5581.2, 5597.7, 5614.5, 5631.4, 5648.3, 5665.3, 5681.6, 5698.5, 5715.3, 5732, 5747.7, 5764.7, 5781.8, 5798, 5815.2, 5831.8, 5848.6, 5864.5, 5881.5, 5897.8, 5915, 5930.9, 5948.1, 5964.8, 5981.8, 5997.6, 6014.6, 6033.6, 6047.7, 6064.7, 6081.6, 6098.5, 6114.4, 6131.2, 6147.9, 6164.7, 6181.5, 6197.5, 6214.6, 6230.7, 6247.7, 6264.6, 6281.5, 6298.2, 6314.3, 6330.8, 6347.7, 6364.4, 6381.3, 6398.4, 6414.2, 6430.2, 6447.8, 6464.7, 6481.4, 6497.4, 6514.6, 6531.5, 6546.3, 6564.4, 6581.3, 6597.9, 6614.6, 6630.6, 6646.8, 6663.2, 6681.4, 6696.4, 6714.2, 6731, 6747.6, 6764.6, 6779.6, 6797.7, 6814.3, 6830.1, 6847.9, 6863.9, 6880.8, 6897.5, 6914.3, 6931.1, 6946.3, 6963.6, 6979.5, 6996.4, 7014.5, 7029.4, 7046.1, 7064.2, 7081, 7097.7, 7113, 7130.6, 7147.9, 7164.4, 7179.4, 7197.3, 7214.3, 7231.1, 7246.1, 7262.9, 7280.7, 7297.5, 7312.7, 7329.7, 7347.6, 7362.7, 7379.6, 7397.6, 7412.6, 7429.4, 7446.9, 7462.9, 7480.7, 7497.4, 7513, 7529.6, 7547.5, 7562.7, 7580.6, 7597.4, 7612.9, 7629.8, 7646.1, 7663.9, 7679.8, 7695.8, 7712.7, 7729.4, 7745.8, 7762.8, 7780.6, 7796, 7812.9, 7829.3, 7846.7, 7862.9, 7879, 7896.1, 7912.9, 7929.4, 7946.8, 7963.3, 7980.2, 7996.2, 8012.8, 8029.7, 8046.3, 8062, 8078.9, 8095.8, 8113.1, 8129.3, 8146.1, 8163, 8179.8, 8195.8, 8213.3, 8229.4, 8245.2, 8263.5, 8279.8, 8297.7, 8313.5, 8330.3, 8345.6, 8362.9, 8379.8, 8396.4, 8412.2, 8429.7, 8446.3, 8463.1, 8479.6, 8496, 8512.5, 8529.2, 8545.8, 8563.1, 8579.9, 8596.6, 8612.1, 8629, 8645.2, 8662.9, 8679.3, 8695.1, 8712.1, 8729.7, 8746.3, 8762.1, 8778.6, 8796.3, 8812.1, 8828.1, 8845.9, 8862.8, 8878.8, 8895.9, 8912.7, 8932.7, 8945.5, 8962.8, 8979.8, 8995.5, 9012.3, 9029.6, 9045.6, 9062.4, 9079.3, 9095, 9111.1, 9128.9, 9145, 9162.9, 9179.6, 9195.8, 9212.1, 9228.2, 9246, 9263, 9278.8]","[2.8, 1.5, 12.4, 17.6, 16.3, 16.6, 17.8, 15.6, 17.5, 15.8, 17.3, 15.7, 17, 17.7, 16.5, 16.3, 17.4, 16.3, 16.2, 16.5, 16.3, 17.9, 15.3, 16.6, 16.5, 16.4, 17.3, 16.7, 17.1, 16.2, 15.7, 17.7, 16.4, 17.9, 16.2, 16.5, 16.7, 17.1, 16.7, 15.4, 17.7, 16.2, 16.9, 16.7, 16.4, 16.8, 16.3, 17.3, 15.4, 17.8, 16.7, 16.7, 15.8, 17.8, 16.7, 16, 16.8, 16.9, 16.7, 16.6, 16.2, 16.8, 16, 17.8, 16, 17.2, 16.8, 15.9, 16.6, 16.7, 16.8, 16.9, 16.4, 17, 16.9, 16, 16.4, 16.7, 16.5, 16.8, 16.9, 16.9, 17, 16.3, 16.9, 16.8, 16.7, 15.7, 17, 17.1, 16.2, 17.2, 16.6, 16.8, 15.9, 17, 16.3, 17.2, 15.9, 17.2, 16.7, 17, 15.8, 17, 19, 14.1, 17, 16.9, 16.9, 15.9, 16.8, 16.7, 16.8, 16.8, 16, 17.1, 16.1, 17, 16.9, 16.9, 16.7, 16.1, 16.5, 16.9, 16.7, 16.9, 17.1, 15.8, 16, 17.6, 16.9, 16.7, 16, 17.2, 16.9, 14.8, 18.1, 16.9, 16.6, 16.7, 16, 16.2, 16.4, 18.2, 15, 17.8, 16.8, 16.6, 17, 15, 18.1, 16.6, 15.8, 17.8, 16, 16.9, 16.7, 16.8, 16.8, 15.2, 17.3, 15.9, 16.9, 18.1, 14.9, 16.7, 18.1, 16.8, 16.7, 15.3, 17.6, 17.3, 16.5, 15, 17.9, 17, 16.8, 15, 16.8, 17.8, 16.8, 15.2, 17, 17.9, 15.1, 16.9, 18, 15, 16.8, 17.5, 16, 17.8, 16.7, 15.6, 16.6, 17.9, 15.2, 17.9, 16.8, 15.5, 16.9, 16.3, 17.8, 15.9, 16, 16.9, 16.7, 16.4, 17, 17.8, 15.4, 16.9, 16.4, 17.4, 16.2, 16.1, 17.1, 16.8, 16.5, 17.4, 16.5, 16.9, 16, 16.6, 16.9, 16.6, 15.7, 16.9, 16.9, 17.3, 16.2, 16.8, 16.9, 16.8, 16, 17.5, 16.1, 15.8, 18.3, 16.3, 17.9, 15.8, 16.8, 15.3, 17.3, 16.9, 16.6, 15.8, 17.5, 16.6, 16.8, 16.5, 16.4, 16.5, 16.7, 16.6, 17.3, 16.8, 16.7, 15.5, 16.9, 16.2, 17.7, 16.4, 15.8, 17, 17.6, 16.6, 15.8, 16.5, 17.7, 15.8, 16, 17.8, 16.9, 16, 17.1, 16.8, 20, 12.8, 17.3, 17, 15.7, 16.8, 17.3, 16, 16.8, 16.9, 15.7, 16.1, 17.8, 16.1, 17.9, 16.7, 16.2, 16.3, 16.1, 17.8, 17, 15.8]",60.0,60.0,59.0,4980.9,[],,,,,,,,,,,,,,,,,,,,,,,,,HRV,HRV_0242,2022-11-30 19:35:17
,wl-html-keyboard-response,2,26702,0.0-2.0-0.0,0.0,3.0,,,,,,,,15789.900000095367,0.0,0,,,,,,,,,,,,,,,,,,,,,,HRV,HRV_0242,2022-11-30 19:35:17
,wl-rdm,3,33835,0.0-3.0-0.0,0.0,4.0,,,,,,,[],,,,0.0,0.0,87.9,0.0,u,0.0,True,1540.2999999523163,93.0,59.0,40.0,False,,3000.0,[],"[720, 450]",ColorTask_Demo,,,,,HRV,HRV_0242,2022-11-30 19:35:17
,wl-rdm,4,38715,0.0-3.0-1.0,0.0,5.0,,,,,,,[],,,,0.0,0.0,87.9,1.0,i,1.0,True,787.1999998092651,48.0,59.0,40.0,False,,2000.0,[],"[720, 450]",ColorTask_Demo,,,,,HRV,HRV_0242,2022-11-30 19:35:17
,wl-html-keyboard-response,5,44167,0.0-3.0-2.0,0.0,6.0,,,,,,,,3447.399999856949,0.0,1,,,,,,,,,,,,,,,,,,,,,,HRV,HRV_0242,2022-11-30 19:35:17
,wl-html-keyboard-response,6,52137,0.0-4.0-0.0,0.0,7.0,,,,,,,,5959.799999952316,0.0,0,,,,,,,,,,,,,,,,,,,,,,HRV,HRV_0242,2022-11-30 19:35:17
,wl-html-keyboard-response,7,70267,0.0-5.0-0.0,0.0,8.0,,,,,,,,16123.200000047684,0.0,0,,,,,,,,,,,,,,,,,,,,,,HRV,HRV_0242,2022-11-30 19:35:17
,wl-rdm,8,72740,0.0-6.0-0.0,0.0,9.0,,,,,,,[],,,,,,73.6,0.0,u,0.0,True,1018.9000000953674,62.0,59.0,40.0,False,,389.3423497674814,[],"[720, 450]",ColorTask,1.0,1.0,,,HRV,HRV_0242,2022-11-30 19:35:17
,wl-rdm,9,74723,0.0-6.1-0.1,0.0,10.0,,,,,,,[],,,,,,87.9,1.0,i,1.0,True,668.6000001430511,41.0,59.0,40.0,False,,222.19354726903907,[],"[720, 450]",ColorTask,2.0,2.0,,,HRV,HRV_0242,2022-11-30 19:35:17
,wl-rdm,10,76988,0.0-6.2-0.2,0.0,11.0,,,,,,,[],,,,,,53.2,0.0,u,0.0,True,873.2999999523163,53.0,59.0,40.0,False,,331.5257592848368,[],"[720, 450]",ColorTask,3.0,3.0,,,HRV,HRV_0242,2022-11-30 19:35:17
,wl-rdm,11,79318,0.0-6.3-0.3,0.0,12.0,,,,,,,[],,,,,,73.6,0.0,u,0.0,True,939.2000000476837,57.0,59.0,40.0,False,,316.1219266833537,[],"[720, 450]",ColorTask,4.0,4.0,,,HRV,HRV_0242,2022-11-30 19:35:17
,wl-rdm,12,81534,0.0-6.4-0.4,0.0,13.0,,,,,,,[],,,,,,50.0,0.0,u,0.0,True,922.7000000476837,56.0,59.0,40.0,False,,209.48089797229594,[],"[720, 450]",ColorTask,5.0,5.0,,,HRV,HRV_0242,2022-11-30 19:35:17
,wl-rdm,13,83682,0.0-6.5-0.5,0.0,14.0,,,,,,,[],,,,,,62.5,0.0,u,0.0,True,699.0999999046326,42.0,59.0,40.0,False,,382.1741216045492,[],"[720, 450]",ColorTask,6.0,6.0,,,HRV,HRV_0242,2022-11-30 19:35:17
,wl-rdm,14,85664,0.0-6.6-0.6,0.0,15.0,,,,,,,[],,,,,,50.0,0.0,u,0.0,True,631.2999999523163,38.0,59.0,40.0,False,,288.2927052740589,[],"[720, 450]",ColorTask,7.0,7.0,,,HRV,HRV_0242,2022-11-30 19:35:17
,wl-rdm,15,87696,0.0-6.7-0.7,0.0,16.0,,,,,,,[],,,,,,62.5,0.0,u,0.0,True,722.7000000476837,44.0,59.0,40.0,False,,218.994403769656,[],"[720, 450]",ColorTask,8.0,8.0,,,HRV,HRV_0242,2022-11-30 19:35:17
,wl-rdm,16,89761,0.0-6.8-0.8,0.0,17.0,,,,,,,[],,,,,,87.9,0.0,i,1.0,False,659.6000001430511,40.0,59.0,40.0,False,,318.6368892454227,[],"[720, 450]",ColorTask,7.0,9.0,,,HRV,HRV_0242,2022-11-30 19:35:17
,wl-rdm,17,91926,0.0-6.9-0.9,0.0,18.0,,,,,,,[],,,,,,87.9,0.0,u,0.0,True,703.1000001430511,43.0,59.0,40.0,False,,380.22744894253833,[],"[720, 450]",ColorTask,8.0,10.0,,,HRV,HRV_0242,2022-11-30 19:35:17
,wl-rdm,18,94258,0.0-6.10-0.10,0.0,19.0,,,,,,,[],,,,,,53.2,0.0,i,1.0,False,1031.5999999046326,62.0,59.0,40.0,False,,242.49391509622927,[],"[720, 450]",ColorTask,7.0,11.0,,,HRV,HRV_0242,2022-11-30 19:35:17
,wl-rdm,19,96373,0.0-6.11-0.11,0.0,20.0,,,,,,,[],,,,,,87.9,0.0,u,0.0,True,738.2999999523163,45.0,59.0,40.0,False,,285.7937128903268,[],"[720, 450]",ColorTask,8.0,12.0,,,HRV,HRV_0242,2022-11-30 19:35:17
,wl-rdm,20,98938,0.0-6.12-0.12,0.0,21.0,,,,,,,[],,,,,,50.0,1.0,u,0.0,False,1227.3000001907349,74.0,59.0,40.0,False,,267.55708043924574,[],"[720, 450]",ColorTask,7.0,13.0,,,HRV,HRV_0242,2022-11-30 19:35:17
,wl-rdm,21,101619,0.0-6.13-0.13,0.0,22.0,,,,,,,[],,,,,,53.2,1.0,i,1.0,True,1310.7000000476837,79.0,59.0,40.0,False,,285.15609166970535,[],"[720, 450]",ColorTask,8.0,14.0,,,HRV,HRV_0242,2022-11-30 19:35:17
,wl-rdm,22,103950,0.0-6.14-0.14,0.0,23.0,,,,,,,[],,,,,,62.5,1.0,i,1.0,True,913.5999999046326,55.0,59.0,40.0,False,,358.53287433586274,[],"[720, 450]",ColorTask,9.0,15.0,,,HRV,HRV_0242,2022-11-30 19:35:17
,wl-rdm,23,106266,0.0-6.15-0.15,0.0,24.0,,,,,,,[],,,,,,62.5,1.0,i,1.0,True,972.7999999523163,59.0,59.0,40.0,False,,271.6211494545113,[],"[720, 450]",ColorTask,10.0,16.0,,,HRV,HRV_0242,2022-11-30 19:35:17
,wl-rdm,24,108431,0.0-6.16-0.16,0.0,25.0,,,,,,,[],,,,,,87.9,0.0,u,0.0,True,785.2000000476837,48.0,59.0,40.0,False,,314.59784542388206,[],"[720, 450]",ColorTask,11.0,17.0,,,HRV,HRV_0242,2022-11-30 19:35:17
,wl-rdm,25,110797,0.0-6.17-0.17,0.0,26.0,,,,,,,[],,,,,,73.6,0.0,u,0.0,True,1039.5999999046326,63.0,59.0,40.0,False,,234.24093791636543,[],"[720, 450]",ColorTask,12.0,18.0,,,HRV,HRV_0242,2022-11-30 19:35:17
,wl-rdm,26,113212,0.0-6.18-0.18,0.0,27.0,,,,,,,[],,,,,,53.2,0.0,u,0.0,True,1060.9000000953674,64.0,59.0,40.0,False,,281.9154209292926,[],"[720, 450]",ColorTask,13.0,19.0,,,HRV,HRV_0242,2022-11-30 19:35:17
,wl-rdm,27,115793,0.0-6.19-0.19,0.0,28.0,,,,,,,[],,,,,,50.0,0.0,u,0.0,True,1204.7000000476837,73.0,59.0,40.0,False,,290.07009656621244,[],"[720, 450]",ColorTask,14.0,20.0,,,HRV,HRV_0242,2022-11-30 19:35:17
,wl-rdm,28,117924,0.0-6.20-0.20,0.0,29.0,,,,,,,[],,,,,,73.6,1.0,i,1.0,True,747.7000000476837,45.0,59.0,40.0,False,,319.5427292671094,[],"[720, 450]",ColorTask,15.0,21.0,,,HRV,HRV_0242,2022-11-30 19:35:17
,wl-rdm,29,120539,0.0-6.21-0.21,0.0,30.0,,,,,,,[],,,,,,56.4,1.0,u,0.0,False,1293.8999998569489,78.0,59.0,40.0,False,,248.8509067260315,[],"[720, 450]",ColorTask,14.0,22.0,,,HRV,HRV_0242,2022-11-30 19:35:17
,wl-rdm,30,122904,0.0-6.22-0.22,0.0,31.0,,,,,,,[],,,,,,53.2,1.0,u,0.0,False,1082.2000000476837,65.0,59.0,40.0,False,,200.83119497009352,[],"[720, 450]",ColorTask,13.0,23.0,,,HRV,HRV_0242,2022-11-30 19:35:17
,wl-rdm,31,125168,0.0-6.23-0.23,0.0,32.0,,,,,,,[],,,,,,73.6,0.0,u,0.0,True,956.1000001430511,58.0,59.0,40.0,False,,228.8293287435724,[],"[720, 450]",ColorTask,14.0,24.0,,,HRV,HRV_0242,2022-11-30 19:35:17
,wl-rdm,32,127767,0.0-6.24-0.24,0.0,33.0,,,,,,,[],,,,,,56.4,1.0,u,0.0,False,1269.3999998569489,77.0,59.0,40.0,False,,238.88505735391624,[],"[720, 450]",ColorTask,13.0,25.0,,,HRV,HRV_0242,2022-11-30 19:35:17
,wl-rdm,33,130149,0.0-6.25-0.25,0.0,34.0,,,,,,,[],,,,,,62.5,0.0,u,0.0,True,1091.2999999523163,66.0,59.0,40.0,False,,227.23924837743238,[],"[720, 450]",ColorTask,14.0,26.0,,,HRV,HRV_0242,2022-11-30 19:35:17
,wl-rdm,34,132763,0.0-6.26-0.26,0.0,35.0,,,,,,,[],,,,,,56.4,0.0,u,0.0,True,1234.4000000953674,75.0,59.0,40.0,False,,302.83209729445986,[],"[720, 450]",ColorTask,15.0,27.0,,,HRV,HRV_0242,2022-11-30 19:35:17
,wl-rdm,35,134796,0.0-6.27-0.27,0.0,36.0,,,,,,,[],,,,,,56.4,1.0,i,1.0,True,655.4000000953674,40.0,59.0,40.0,False,,284.39683023511753,[],"[720, 450]",ColorTask,16.0,28.0,,,HRV,HRV_0242,2022-11-30 19:35:17
,wl-rdm,36,136826,0.0-6.28-0.28,0.0,37.0,,,,,,,[],,,,,,62.5,1.0,i,1.0,True,721.0999999046326,44.0,59.0,40.0,False,,218.31757842850536,[],"[720, 450]",ColorTask,17.0,29.0,,,HRV,HRV_0242,2022-11-30 19:35:17
,wl-rdm,37,138892,0.0-6.29-0.29,0.0,38.0,,,,,,,[],,,,,,87.9,0.0,u,0.0,True,718.2000000476837,44.0,59.0,40.0,False,,256.0557525143858,[],"[720, 450]",ColorTask,18.0,30.0,,,HRV,HRV_0242,2022-11-30 19:35:17
,wl-rdm,38,140957,0.0-6.30-0.30,0.0,39.0,,,,,,,[],,,,,,73.6,1.0,i,1.0,True,641.3999998569489,39.0,59.0,40.0,False,,339.310971396914,[],"[720, 450]",ColorTask,19.0,31.0,,,HRV,HRV_0242,2022-11-30 19:35:17
,wl-rdm,39,143156,0.0-6.31-0.31,0.0,40.0,,,,,,,[],,,,,,62.5,0.0,u,0.0,True,813.7999999523163,49.0,59.0,40.0,False,,331.6612605080926,[],"[720, 450]",ColorTask,20.0,32.0,,,HRV,HRV_0242,2022-11-30 19:35:17
,wl-rdm,40,145205,0.0-6.32-0.32,0.0,41.0,,,,,,,[],,,,,,73.6,1.0,i,1.0,True,636.1000001430511,39.0,59.0,40.0,False,,325.0269822492557,[],"[720, 450]",ColorTask,21.0,33.0,,,HRV,HRV_0242,2022-11-30 19:35:17
,wl-rdm,41,147836,0.0-6.33-0.33,0.0,42.0,,,,,,,[],,,,,,50.0,1.0,i,1.0,True,1301.7000000476837,79.0,59.0,40.0,False,,261.5333086910856,[],"[720, 450]",ColorTask,22.0,34.0,,,HRV,HRV_0242,2022-11-30 19:35:17
,wl-rdm,42,150267,0.0-6.34-0.34,0.0,43.0,,,,,,,[],,,,,,62.5,0.0,i,1.0,False,1145.2999999523163,69.0,59.0,40.0,False,,215.35877425352126,[],"[720, 450]",ColorTask,21.0,35.0,,,HRV,HRV_0242,2022-11-30 19:35:17
,wl-rdm,43,152649,0.0-6.35-0.35,0.0,44.0,,,,,,,[],,,,,,53.2,1.0,u,0.0,False,1089.2000000476837,66.0,59.0,40.0,False,,202.68967348558846,[],"[720, 450]",ColorTask,20.0,36.0,,,HRV,HRV_0242,2022-11-30 19:35:17
,wl-rdm,44,155081,0.0-6.36-0.36,0.0,45.0,,,,,,,[],,,,,,50.0,0.0,u,0.0,True,1070.6999998092651,65.0,59.0,40.0,False,,273.4486277754771,[],"[720, 450]",ColorTask,21.0,37.0,,,HRV,HRV_0242,2022-11-30 19:35:17
,wl-rdm,45,157412,0.0-6.37-0.37,0.0,46.0,,,,,,,[],,,,,,56.4,1.0,i,1.0,True,927.7999999523163,56.0,59.0,40.0,False,,342.7205527886649,[],"[720, 450]",ColorTask,22.0,38.0,,,HRV,HRV_0242,2022-11-30 19:35:17
,wl-rdm,46,159678,0.0-6.38-0.38,0.0,47.0,,,,,,,[],,,,,,73.6,1.0,i,1.0,True,874.900000333786,53.0,59.0,40.0,False,,315.7028290392812,[],"[720, 450]",ColorTask,23.0,39.0,,,HRV,HRV_0242,2022-11-30 19:35:17
,wl-rdm,47,161943,0.0-6.39-0.39,0.0,48.0,,,,,,,[],,,,,,87.9,1.0,i,1.0,True,941.3000001907349,57.0,59.0,40.0,False,,232.77437174016427,[],"[720, 450]",ColorTask,24.0,40.0,,,HRV,HRV_0242,2022-11-30 19:35:17
,wl-rdm,48,164324,0.0-6.40-0.40,0.0,49.0,,,,,,,[],,,,,,56.4,1.0,i,1.0,True,1024.2999999523163,62.0,59.0,40.0,False,,281.3807211983835,[],"[720, 450]",ColorTask,25.0,41.0,,,HRV,HRV_0242,2022-11-30 19:35:17
,wl-rdm,49,166590,0.0-6.41-0.41,0.0,50.0,,,,,,,[],,,,,,73.6,1.0,i,1.0,True,972.1999998092651,59.0,59.0,40.0,False,,215.12435774185124,[],"[720, 450]",ColorTask,26.0,42.0,,,HRV,HRV_0242,2022-11-30 19:35:17
,wl-rdm,50,169221,0.0-6.42-0.42,0.0,51.0,,,,,,,[],,,,,,53.2,1.0,u,0.0,False,1184.9000000953674,72.0,59.0,40.0,False,,354.1938436701256,[],"[720, 450]",ColorTask,25.0,43.0,,,HRV,HRV_0242,2022-11-30 19:35:17
,wl-rdm,51,171635,0.0-6.43-0.43,0.0,52.0,,,,,,,[],,,,,,53.2,1.0,u,0.0,False,1000.5999999046326,61.0,59.0,40.0,False,,318.8980071788151,[],"[720, 450]",ColorTask,24.0,44.0,,,HRV,HRV_0242,2022-11-30 19:35:17
,wl-rdm,52,173734,0.0-6.44-0.44,0.0,53.0,,,,,,,[],,,,,,53.2,1.0,i,1.0,True,809.0,49.0,59.0,40.0,False,,224.38908624478609,[],"[720, 450]",ColorTask,25.0,45.0,,,HRV,HRV_0242,2022-11-30 19:35:17
,wl-rdm,53,176215,0.0-6.45-0.45,0.0,54.0,,,,,,,[],,,,,,56.4,0.0,u,0.0,True,1147.0999999046326,69.0,59.0,40.0,False,,265.360169394511,[],"[720, 450]",ColorTask,26.0,46.0,,,HRV,HRV_0242,2022-11-30 19:35:17
,wl-rdm,54,178414,0.0-6.46-0.46,0.0,55.0,,,,,,,[],,,,,,73.6,0.0,u,0.0,True,880.1999998092651,53.0,59.0,40.0,False,,263.836620535832,[],"[720, 450]",ColorTask,27.0,47.0,,,HRV,HRV_0242,2022-11-30 19:35:17
,wl-rdm,55,180712,0.0-6.47-0.47,0.0,56.0,,,,,,,[],,,,,,62.5,1.0,i,1.0,True,894.5,54.0,59.0,40.0,False,,331.29398712005957,[],"[720, 450]",ColorTask,28.0,48.0,,,HRV,HRV_0242,2022-11-30 19:35:17
,wl-rdm,56,182978,0.0-6.48-0.48,0.0,57.0,,,,,,,[],,,,,,53.2,0.0,i,1.0,False,978.0,59.0,59.0,40.0,False,,209.48514806249347,[],"[720, 450]",ColorTask,27.0,49.0,,,HRV,HRV_0242,2022-11-30 19:35:17
,wl-rdm,57,185292,0.0-6.49-0.49,0.0,58.0,,,,,,,[],,,,,,62.5,1.0,i,1.0,True,900.0,55.0,59.0,40.0,False,,319.4119863977249,[],"[720, 450]",ColorTask,28.0,50.0,,,HRV,HRV_0242,2022-11-30 19:35:17
,wl-rdm,58,187858,0.0-6.50-0.50,0.0,59.0,,,,,,,[],,,,,,56.4,0.0,i,1.0,False,1140.7999999523163,69.0,59.0,40.0,False,,354.02545283543884,[],"[720, 450]",ColorTask,27.0,51.0,,,HRV,HRV_0242,2022-11-30 19:35:17
,wl-rdm,59,190323,0.0-6.51-0.51,0.0,60.0,,,,,,,[],,,,,,62.5,0.0,u,0.0,True,999.1000001430511,60.0,59.0,40.0,False,,393.7115177813265,[],"[720, 450]",ColorTask,28.0,52.0,,,HRV,HRV_0242,2022-11-30 19:35:17
,wl-rdm,60,192487,0.0-6.52-0.52,0.0,61.0,,,,,,,[],,,,,,87.9,1.0,i,1.0,True,858.0,52.0,59.0,40.0,False,,219.28677394753646,[],"[720, 450]",ColorTask,29.0,53.0,,,HRV,HRV_0242,2022-11-30 19:35:17
,wl-rdm,61,194820,0.0-6.53-0.53,0.0,62.0,,,,,,,[],,,,,,56.4,1.0,i,1.0,True,922.1000001430511,56.0,59.0,40.0,False,,337.9222503630736,[],"[720, 450]",ColorTask,30.0,54.0,,,HRV,HRV_0242,2022-11-30 19:35:17
,wl-rdm,62,197134,0.0-6.54-0.54,0.0,63.0,,,,,,,[],,,,,,73.6,0.0,u,0.0,True,902.7000000476837,55.0,59.0,40.0,False,,328.7701357760452,[],"[720, 450]",ColorTask,31.0,55.0,,,HRV,HRV_0242,2022-11-30 19:35:17
,wl-rdm,63,199599,0.0-6.55-0.55,0.0,64.0,,,,,,,[],,,,,,73.6,1.0,i,1.0,True,1023.4000000953674,62.0,59.0,40.0,False,,356.7346149417501,[],"[720, 450]",ColorTask,32.0,56.0,,,HRV,HRV_0242,2022-11-30 19:35:17
,wl-rdm,64,202163,0.0-6.56-0.56,0.0,65.0,,,,,,,[],,,,,,53.2,0.0,i,1.0,False,1260.2000000476837,76.0,59.0,40.0,False,,225.86723917356971,[],"[720, 450]",ColorTask,31.0,57.0,,,HRV,HRV_0242,2022-11-30 19:35:17
,wl-rdm,65,204810,0.0-6.57-0.57,0.0,66.0,,,,,,,[],,,,,,56.4,0.0,u,0.0,True,1362.2999999523163,82.0,59.0,40.0,False,,207.45799278956946,[],"[720, 450]",ColorTask,32.0,58.0,,,HRV,HRV_0242,2022-11-30 19:35:17
,wl-rdm,66,207326,0.0-6.58-0.58,0.0,67.0,,,,,,,[],,,,,,53.2,1.0,u,0.0,False,1189.9000000953674,72.0,59.0,40.0,False,,235.72697068301872,[],"[720, 450]",ColorTask,31.0,59.0,,,HRV,HRV_0242,2022-11-30 19:35:17
,wl-rdm,67,209875,0.0-6.59-0.59,0.0,68.0,,,,,,,[],,,,,,50.0,1.0,i,1.0,True,1182.5,72.0,59.0,40.0,False,,297.44803131707215,[],"[720, 450]",ColorTask,32.0,60.0,,,HRV,HRV_0242,2022-11-30 19:35:17
,wl-rdm,68,212339,0.0-6.60-0.60,0.0,69.0,,,,,,,[],,,,,,62.5,1.0,i,1.0,True,1117.1000001430511,67.0,59.0,40.0,False,,275.76635758978546,[],"[720, 450]",ColorTask,33.0,61.0,,,HRV,HRV_0242,2022-11-30 19:35:17
,wl-rdm,69,214838,0.0-6.61-0.61,0.0,70.0,,,,,,,[],,,,,,50.0,0.0,u,0.0,True,1121.5,68.0,59.0,40.0,False,,294.2664959112035,[],"[720, 450]",ColorTask,34.0,62.0,,,HRV,HRV_0242,2022-11-30 19:35:17
,wl-rdm,70,217553,0.0-6.62-0.62,0.0,71.0,,,,,,,[],,,,,,50.0,1.0,u,0.0,False,1303.0999999046326,79.0,59.0,40.0,False,,320.66070767366944,[],"[720, 450]",ColorTask,33.0,63.0,,,HRV,HRV_0242,2022-11-30 19:35:17
,wl-rdm,71,219733,0.0-6.63-0.63,0.0,72.0,,,,,,,[],,,,,,87.9,1.0,i,1.0,True,865.1000001430511,52.0,59.0,40.0,False,,251.5133211721389,[],"[720, 450]",ColorTask,34.0,64.0,,,HRV,HRV_0242,2022-11-30 19:35:17
,wl-rdm,72,221882,0.0-6.64-0.64,0.0,73.0,,,,,,,[],,,,,,87.9,0.0,u,0.0,True,823.7999999523163,50.0,59.0,40.0,False,,266.98573298666736,[],"[720, 450]",ColorTask,35.0,65.0,,,HRV,HRV_0242,2022-11-30 19:35:17
,wl-rdm,73,224114,0.0-6.65-0.65,0.0,74.0,,,,,,,[],,,,,,53.2,1.0,u,0.0,False,866.7999999523163,53.0,59.0,40.0,False,,296.736209209654,[],"[720, 450]",ColorTask,34.0,66.0,,,HRV,HRV_0242,2022-11-30 19:35:17
,wl-rdm,74,226413,0.0-6.66-0.66,0.0,75.0,,,,,,,[],,,,,,62.5,0.0,u,0.0,True,891.7000002861023,54.0,59.0,40.0,False,,339.697850340842,[],"[720, 450]",ColorTask,35.0,67.0,,,HRV,HRV_0242,2022-11-30 19:35:17
,wl-rdm,75,228545,0.0-6.67-0.67,0.0,76.0,,,,,,,[],,,,,,73.6,0.0,u,0.0,True,748.0,45.0,59.0,40.0,False,,299.5458242426898,[],"[720, 450]",ColorTask,36.0,68.0,,,HRV,HRV_0242,2022-11-30 19:35:17
,wl-rdm,76,231109,0.0-6.68-0.68,0.0,77.0,,,,,,,[],,,,,,56.4,0.0,u,0.0,True,1236.5999999046326,75.0,59.0,40.0,False,,243.8240733206306,[],"[720, 450]",ColorTask,37.0,69.0,,,HRV,HRV_0242,2022-11-30 19:35:17
,wl-rdm,77,233175,0.0-6.69-0.69,0.0,78.0,,,,,,,[],,,,,,87.9,1.0,i,1.0,True,777.7999999523163,47.0,59.0,40.0,False,,202.69605887799744,[],"[720, 450]",ColorTask,38.0,70.0,,,HRV,HRV_0242,2022-11-30 19:35:17
,wl-rdm,78,235639,0.0-6.70-0.70,0.0,79.0,,,,,,,[],,,,,,56.4,1.0,i,1.0,True,1131.6000001430511,68.0,59.0,40.0,False,,272.0612752255375,[],"[720, 450]",ColorTask,39.0,71.0,,,HRV,HRV_0242,2022-11-30 19:35:17
,wl-rdm,79,238304,0.0-6.71-0.71,0.0,80.0,,,,,,,[],,,,,,50.0,0.0,u,0.0,True,1237.7999999523163,75.0,59.0,40.0,False,,344.70579865711284,[],"[720, 450]",ColorTask,40.0,72.0,,,HRV,HRV_0242,2022-11-30 19:35:17
,wl-rdm,80,240769,0.0-6.72-0.72,0.0,81.0,,,,,,,[],,,,,,73.6,1.0,i,1.0,True,1118.6000001430511,68.0,59.0,40.0,False,,282.616975470902,[],"[720, 450]",ColorTask,41.0,73.0,,,HRV,HRV_0242,2022-11-30 19:35:17
,wl-rdm,81,243200,0.0-6.73-0.73,0.0,82.0,,,,,,,[],,,,,,56.4,0.0,u,0.0,True,1137.3999998569489,69.0,59.0,40.0,False,,211.31501863950712,[],"[720, 450]",ColorTask,42.0,74.0,,,HRV,HRV_0242,2022-11-30 19:35:17
,wl-rdm,82,245782,0.0-6.74-0.74,0.0,83.0,,,,,,,[],,,,,,62.5,1.0,i,1.0,True,1281.6999998092651,77.0,59.0,40.0,False,,230.69364523563232,[],"[720, 450]",ColorTask,43.0,75.0,,,HRV,HRV_0242,2022-11-30 19:35:17
,wl-rdm,83,248130,0.0-6.75-0.75,0.0,84.0,,,,,,,[],,,,,,87.9,1.0,i,1.0,True,1055.4000000953674,64.0,59.0,40.0,False,,215.3741338731276,[],"[720, 450]",ColorTask,44.0,76.0,,,HRV,HRV_0242,2022-11-30 19:35:17
,wl-rdm,84,250662,0.0-6.76-0.76,0.0,85.0,,,,,,,[],,,,,,53.2,0.0,u,0.0,True,1183.3999998569489,72.0,59.0,40.0,False,,259.4421269086266,[],"[720, 450]",ColorTask,45.0,77.0,,,HRV,HRV_0242,2022-11-30 19:35:17
,wl-rdm,85,253294,0.0-6.77-0.77,0.0,86.0,,,,,,,[],,,,,,53.2,1.0,i,1.0,True,1244.1000001430511,75.0,59.0,40.0,False,,315.1686955357401,[],"[720, 450]",ColorTask,46.0,78.0,,,HRV,HRV_0242,2022-11-30 19:35:17
,wl-rdm,86,256025,0.0-6.78-0.78,0.0,87.0,,,,,,,[],,,,,,56.4,0.0,u,0.0,True,1384.1999998092651,84.0,59.0,40.0,False,,275.42807362939465,[],"[720, 450]",ColorTask,47.0,79.0,,,HRV,HRV_0242,2022-11-30 19:35:17
,wl-rdm,87,258639,0.0-6.79-0.79,0.0,88.0,,,,,,,[],,,,,,50.0,1.0,u,0.0,False,1245.2999999523163,75.0,59.0,40.0,False,,286.61051042737324,[],"[720, 450]",ColorTask,46.0,80.0,,,HRV,HRV_0242,2022-11-30 19:35:17
,wl-rdm,88,261005,0.0-6.80-0.80,0.0,89.0,,,,,,,[],,,,,,50.0,0.0,i,1.0,False,967.9000000953674,59.0,59.0,40.0,False,,327.8680122147557,[],"[720, 450]",ColorTask,45.0,81.0,,,HRV,HRV_0242,2022-11-30 19:35:17
,wl-rdm,89,263835,0.0-6.81-0.81,0.0,90.0,,,,,,,[],,,,,,53.2,0.0,u,0.0,True,1503.7000000476837,91.0,59.0,40.0,False,,237.19237078456422,[],"[720, 450]",ColorTask,46.0,82.0,,,HRV,HRV_0242,2022-11-30 19:35:17
,wl-rdm,90,266183,0.0-6.82-0.82,0.0,91.0,,,,,,,[],,,,,,73.6,0.0,u,0.0,True,1029.9999997615814,62.0,59.0,40.0,False,,255.38225459291635,[],"[720, 450]",ColorTask,47.0,83.0,,,HRV,HRV_0242,2022-11-30 19:35:17
,wl-rdm,91,268649,0.0-6.83-0.83,0.0,92.0,,,,,,,[],,,,,,62.5,0.0,u,0.0,True,1128.9000000953674,68.0,59.0,40.0,False,,273.97222935385514,[],"[720, 450]",ColorTask,48.0,84.0,,,HRV,HRV_0242,2022-11-30 19:35:17
,wl-rdm,92,271298,0.0-6.84-0.84,0.0,93.0,,,,,,,[],,,,,,87.9,0.0,u,0.0,True,1249.0,75.0,59.0,40.0,False,,318.0351255384072,[],"[720, 450]",ColorTask,49.0,85.0,,,HRV,HRV_0242,2022-11-30 19:35:17
,wl-rdm,93,274095,0.0-6.85-0.85,0.0,94.0,,,,,,,[],,,,,,53.2,0.0,i,1.0,False,1354.6999998092651,82.0,59.0,40.0,False,,360.248329589741,[],"[720, 450]",ColorTask,48.0,86.0,,,HRV,HRV_0242,2022-11-30 19:35:17
,wl-rdm,94,276560,0.0-6.86-0.86,0.0,95.0,,,,,,,[],,,,,,73.6,1.0,i,1.0,True,1140.0,69.0,59.0,40.0,False,,248.83283661249834,[],"[720, 450]",ColorTask,49.0,87.0,,,HRV,HRV_0242,2022-11-30 19:35:17
,wl-rdm,95,279141,0.0-6.87-0.87,0.0,96.0,,,,,,,[],,,,,,62.5,1.0,i,1.0,True,1242.0,75.0,59.0,40.0,False,,253.6679475012625,[],"[720, 450]",ColorTask,50.0,88.0,,,HRV,HRV_0242,2022-11-30 19:35:17
,wl-rdm,96,281773,0.0-6.88-0.88,0.0,97.0,,,,,,,[],,,,,,87.9,1.0,i,1.0,True,1233.9000000953674,75.0,59.0,40.0,False,,302.14419136445633,[],"[720, 450]",ColorTask,51.0,89.0,,,HRV,HRV_0242,2022-11-30 19:35:17
,wl-rdm,97,284338,0.0-6.89-0.89,0.0,98.0,,,,,,,[],,,,,,87.9,0.0,u,0.0,True,1156.7000000476837,70.0,59.0,40.0,False,,340.7390393599178,[],"[720, 450]",ColorTask,52.0,90.0,,,HRV,HRV_0242,2022-11-30 19:35:17
,wl-rdm,98,287220,0.0-6.90-0.90,0.0,99.0,,,,,,,[],,,,,,62.5,1.0,i,1.0,True,1455.8000001907349,88.0,59.0,40.0,False,,348.7453242977817,[],"[720, 450]",ColorTask,53.0,91.0,,,HRV,HRV_0242,2022-11-30 19:35:17
,wl-rdm,99,289502,0.0-6.91-0.91,0.0,100.0,,,,,,,[],,,,,,73.6,0.0,u,0.0,True,847.0,51.0,59.0,40.0,False,,352.895723548868,[],"[720, 450]",ColorTask,54.0,92.0,,,HRV,HRV_0242,2022-11-30 19:35:17
,wl-rdm,100,292233,0.0-6.92-0.92,0.0,101.0,,,,,,,[],,,,,,56.4,1.0,i,1.0,True,1298.2000000476837,78.0,59.0,40.0,False,,366.0609948503658,[],"[720, 450]",ColorTask,55.0,93.0,,,HRV,HRV_0242,2022-11-30 19:35:17
,wl-rdm,101,295063,0.0-6.93-0.93,0.0,102.0,,,,,,,[],,,,,,53.2,0.0,u,0.0,True,1505.8999998569489,91.0,59.0,40.0,False,,255.05430743539637,[],"[720, 450]",ColorTask,56.0,94.0,,,HRV,HRV_0242,2022-11-30 19:35:17
,wl-rdm,102,297778,0.0-6.94-0.94,0.0,103.0,,,,,,,[],,,,,,50.0,0.0,u,0.0,True,1390.4000000953674,84.0,59.0,40.0,False,,234.3493313510216,[],"[720, 450]",ColorTask,57.0,95.0,,,HRV,HRV_0242,2022-11-30 19:35:17
,wl-rdm,103,300359,0.0-6.95-0.95,0.0,104.0,,,,,,,[],,,,,,50.0,1.0,u,0.0,False,1269.1000001430511,77.0,59.0,40.0,False,,223.71459028533138,[],"[720, 450]",ColorTask,56.0,96.0,,,HRV,HRV_0242,2022-11-30 19:35:17
,wl-rdm,104,303057,0.0-6.96-0.96,0.0,105.0,,,,,,,[],,,,,,50.0,1.0,i,1.0,True,1343.2999999523163,81.0,59.0,40.0,False,,286.5726695748949,[],"[720, 450]",ColorTask,57.0,97.0,,,HRV,HRV_0242,2022-11-30 19:35:17
,wl-rdm,105,306070,0.0-6.97-0.97,0.0,106.0,,,,,,,[],,,,,,56.4,0.0,u,0.0,True,1692.5999999046326,102.0,59.0,40.0,False,,238.97882381255198,[],"[720, 450]",ColorTask,58.0,98.0,,,HRV,HRV_0242,2022-11-30 19:35:17
,wl-rdm,106,308654,0.0-6.98-0.98,0.0,107.0,,,,,,,[],,,,,,50.0,1.0,u,0.0,False,1145.9000000953674,69.0,59.0,40.0,False,,365.8825107403988,[],"[720, 450]",ColorTask,57.0,99.0,,,HRV,HRV_0242,2022-11-30 19:35:17
,wl-rdm,107,311151,0.0-6.99-0.99,0.0,108.0,,,,,,,[],,,,,,87.9,0.0,u,0.0,True,1191.1000001430511,72.0,59.0,40.0,False,,227.16538668000834,[],"[720, 450]",ColorTask,58.0,100.0,,,HRV,HRV_0242,2022-11-30 19:35:17
,wl-rdm,108,313734,0.0-6.100-0.100,0.0,109.0,,,,,,,[],,,,,,56.4,0.0,u,0.0,True,1258.7999999523163,76.0,59.0,40.0,False,,245.2448993221617,[],"[720, 450]",ColorTask,59.0,101.0,,,HRV,HRV_0242,2022-11-30 19:35:17
,wl-rdm,109,316114,0.0-6.101-0.101,0.0,110.0,,,,,,,[],,,,,,73.6,1.0,i,1.0,True,1013.0999999046326,61.0,59.0,40.0,False,,295.15048872285297,[],"[720, 450]",ColorTask,60.0,102.0,,,HRV,HRV_0242,2022-11-30 19:35:17
,wl-rdm,110,318229,0.0-6.102-0.102,0.0,111.0,,,,,,,[],,,,,,87.9,1.0,i,1.0,True,681.9999997615814,41.0,59.0,40.0,False,,380.0151497703706,[],"[720, 450]",ColorTask,61.0,103.0,,,HRV,HRV_0242,2022-11-30 19:35:17
,wl-rdm,111,320644,0.0-6.103-0.103,0.0,112.0,,,,,,,[],,,,,,50.0,0.0,u,0.0,True,1016.4000000953674,62.0,59.0,40.0,False,,323.4865972532439,[],"[720, 450]",ColorTask,62.0,104.0,,,HRV,HRV_0242,2022-11-30 19:35:17
,wl-rdm,112,323159,0.0-6.104-0.104,0.0,113.0,,,,,,,[],,,,,,62.5,0.0,u,0.0,True,1166.0,70.0,59.0,40.0,False,,288.777991730188,[],"[720, 450]",ColorTask,63.0,105.0,,,HRV,HRV_0242,2022-11-30 19:35:17
,wl-rdm,113,325741,0.0-6.105-0.105,0.0,114.0,,,,,,,[],,,,,,50.0,1.0,i,1.0,True,1222.1000001430511,74.0,59.0,40.0,False,,279.60887914557736,[],"[720, 450]",ColorTask,64.0,106.0,,,HRV,HRV_0242,2022-11-30 19:35:17
,wl-rdm,114,327873,0.0-6.106-0.106,0.0,115.0,,,,,,,[],,,,,,87.9,1.0,i,1.0,True,854.7999999523163,52.0,59.0,40.0,False,,213.95606099617936,[],"[720, 450]",ColorTask,65.0,107.0,,,HRV,HRV_0242,2022-11-30 19:35:17
,wl-rdm,115,330455,0.0-6.107-0.107,0.0,116.0,,,,,,,[],,,,,,56.4,1.0,u,0.0,False,1220.9999997615814,74.0,59.0,40.0,False,,290.4863818662476,[],"[720, 450]",ColorTask,64.0,108.0,,,HRV,HRV_0242,2022-11-30 19:35:17
,wl-html-keyboard-response,116,353133,0.0-7.0-0.0,1.0,117.0,,,,,,,,20671.200000047684,1.0,0,,,,,,,,,,,,,,,,,,,,,,HRV,HRV_0242,2022-11-30 19:35:17
,wl-rdm,117,355369,0.0-8.0-0.0,1.0,118.0,,,,,,,[],,,,,,56.4,0.0,u,0.0,True,886.4000000953674,54.0,59.0,40.0,False,,253.33419438928638,[],"[720, 450]",ColorTask,65.0,1.0,,,HRV,HRV_0242,2022-11-30 19:35:17
,wl-rdm,118,357402,0.0-8.1-0.1,1.0,119.0,,,,,,,[],,,,,,87.9,1.0,i,1.0,True,729.7999999523163,44.0,59.0,40.0,False,,227.01432101463482,[],"[720, 450]",ColorTask,66.0,2.0,,,HRV,HRV_0242,2022-11-30 19:35:17
,wl-rdm,119,360001,0.0-8.2-0.2,1.0,120.0,,,,,,,[],,,,,,56.4,0.0,u,0.0,True,1224.8000001907349,74.0,59.0,40.0,False,,289.8620301104288,[],"[720, 450]",ColorTask,67.0,3.0,,,HRV,HRV_0242,2022-11-30 19:35:17
,wl-rdm,120,362582,0.0-8.3-0.3,1.0,121.0,,,,,,,[],,,,,,53.2,1.0,i,1.0,True,1277.7000000476837,77.0,59.0,40.0,False,,238.72216564610954,[],"[720, 450]",ColorTask,68.0,4.0,,,HRV,HRV_0242,2022-11-30 19:35:17
,wl-rdm,121,365079,0.0-8.4-0.4,1.0,122.0,,,,,,,[],,,,,,50.0,1.0,u,0.0,False,1109.0999999046326,67.0,59.0,40.0,False,,311.32293317638306,[],"[720, 450]",ColorTask,67.0,5.0,,,HRV,HRV_0242,2022-11-30 19:35:17
,wl-rdm,122,367595,0.0-8.5-0.5,1.0,123.0,,,,,,,[],,,,,,62.5,0.0,u,0.0,True,1168.7999999523163,71.0,59.0,40.0,False,,273.81939422138123,[],"[720, 450]",ColorTask,68.0,6.0,,,HRV,HRV_0242,2022-11-30 19:35:17
,wl-rdm,123,369925,0.0-8.6-0.6,1.0,124.0,,,,,,,[],,,,,,87.9,0.0,u,0.0,True,957.6000001430511,58.0,59.0,40.0,False,,283.8936824929217,[],"[720, 450]",ColorTask,69.0,7.0,,,HRV,HRV_0242,2022-11-30 19:35:17
,wl-rdm,124,372124,0.0-8.7-0.7,1.0,125.0,,,,,,,[],,,,,,87.9,0.0,u,0.0,True,905.0,55.0,59.0,40.0,False,,210.87405340860056,[],"[720, 450]",ColorTask,70.0,8.0,,,HRV,HRV_0242,2022-11-30 19:35:17
,wl-rdm,125,374506,0.0-8.8-0.8,1.0,126.0,,,,,,,[],,,,,,62.5,0.0,u,0.0,True,1089.0999999046326,66.0,59.0,40.0,False,,213.72641644256998,[],"[720, 450]",ColorTask,71.0,9.0,,,HRV,HRV_0242,2022-11-30 19:35:17
,wl-rdm,126,376655,0.0-8.9-0.9,1.0,127.0,,,,,,,[],,,,,,87.9,0.0,u,0.0,True,846.5,51.0,59.0,40.0,False,,230.56375628525885,[],"[720, 450]",ColorTask,72.0,10.0,,,HRV,HRV_0242,2022-11-30 19:35:17
,wl-rdm,127,378969,0.0-8.10-0.10,1.0,128.0,,,,,,,[],,,,,,50.0,1.0,u,0.0,False,945.7000000476837,57.0,59.0,40.0,False,,286.1611458877594,[],"[720, 450]",ColorTask,71.0,11.0,,,HRV,HRV_0242,2022-11-30 19:35:17
,wl-rdm,128,381102,0.0-8.11-0.11,1.0,129.0,,,,,,,[],,,,,,73.6,1.0,i,1.0,True,744.5999999046326,45.0,59.0,40.0,False,,310.8709809223467,[],"[720, 450]",ColorTask,72.0,12.0,,,HRV,HRV_0242,2022-11-30 19:35:17
,wl-rdm,129,383633,0.0-8.12-0.12,1.0,130.0,,,,,,,[],,,,,,50.0,1.0,u,0.0,False,1247.4000000953674,75.0,59.0,40.0,False,,231.80133619826907,[],"[720, 450]",ColorTask,71.0,13.0,,,HRV,HRV_0242,2022-11-30 19:35:17
,wl-rdm,130,386214,0.0-8.13-0.13,1.0,131.0,,,,,,,[],,,,,,50.0,0.0,u,0.0,True,1171.7000000476837,71.0,59.0,40.0,False,,322.44298399757156,[],"[720, 450]",ColorTask,72.0,14.0,,,HRV,HRV_0242,2022-11-30 19:35:17
,wl-rdm,131,388745,0.0-8.14-0.14,1.0,132.0,,,,,,,[],,,,,,53.2,0.0,u,0.0,True,1138.3999998569489,69.0,59.0,40.0,False,,328.40452851149166,[],"[720, 450]",ColorTask,73.0,15.0,,,HRV,HRV_0242,2022-11-30 19:35:17
,wl-rdm,132,391627,0.0-8.15-0.15,1.0,133.0,,,,,,,[],,,,,,50.0,0.0,u,0.0,True,1455.8999998569489,88.0,59.0,40.0,False,,361.94029668801517,[],"[720, 450]",ColorTask,74.0,16.0,,,HRV,HRV_0242,2022-11-30 19:35:17
,wl-rdm,133,394141,0.0-8.16-0.16,1.0,134.0,,,,,,,[],,,,,,53.2,1.0,u,0.0,False,1214.5999999046326,73.0,59.0,40.0,False,,217.18277929452196,[],"[720, 450]",ColorTask,73.0,17.0,,,HRV,HRV_0242,2022-11-30 19:35:17
,wl-rdm,134,396473,0.0-8.17-0.17,1.0,135.0,,,,,,,[],,,,,,62.5,1.0,i,1.0,True,928.3000001907349,56.0,59.0,40.0,False,,332.84295620790647,[],"[720, 450]",ColorTask,74.0,18.0,,,HRV,HRV_0242,2022-11-30 19:35:17
,wl-rdm,135,399022,0.0-8.18-0.18,1.0,136.0,,,,,,,[],,,,,,62.5,1.0,i,1.0,True,1255.5,76.0,59.0,40.0,False,,200.63253169160794,[],"[720, 450]",ColorTask,75.0,19.0,,,HRV,HRV_0242,2022-11-30 19:35:17
,wl-rdm,136,401304,0.0-8.19-0.19,1.0,137.0,,,,,,,[],,,,,,56.4,0.0,u,0.0,True,953.5,58.0,59.0,40.0,False,,245.91813127827345,[],"[720, 450]",ColorTask,76.0,20.0,,,HRV,HRV_0242,2022-11-30 19:35:17
,wl-rdm,137,403835,0.0-8.20-0.20,1.0,138.0,,,,,,,[],,,,,,50.0,0.0,u,0.0,True,1197.1999998092651,72.0,59.0,40.0,False,,276.2057512253704,[],"[720, 450]",ColorTask,77.0,21.0,,,HRV,HRV_0242,2022-11-30 19:35:17
,wl-rdm,138,406167,0.0-8.21-0.21,1.0,139.0,,,,,,,[],,,,,,73.6,1.0,i,1.0,True,1044.6000001430511,63.0,59.0,40.0,False,,211.38785968504695,[],"[720, 450]",ColorTask,78.0,22.0,,,HRV,HRV_0242,2022-11-30 19:35:17
,wl-rdm,139,408398,0.0-8.22-0.22,1.0,140.0,,,,,,,[],,,,,,73.6,1.0,i,1.0,True,868.0999999046326,53.0,59.0,40.0,False,,277.1971364827919,[],"[720, 450]",ColorTask,79.0,23.0,,,HRV,HRV_0242,2022-11-30 19:35:17
,wl-rdm,140,410380,0.0-8.23-0.23,1.0,141.0,,,,,,,[],,,,,,87.9,1.0,i,1.0,True,652.5999999046326,40.0,59.0,40.0,False,,245.04167365676886,[],"[720, 450]",ColorTask,80.0,24.0,,,HRV,HRV_0242,2022-11-30 19:35:17
,wl-rdm,141,412512,0.0-8.24-0.24,1.0,142.0,,,,,,,[],,,,,,87.9,1.0,i,1.0,True,658.8999998569489,40.0,59.0,40.0,False,,387.19142545141926,[],"[720, 450]",ColorTask,81.0,25.0,,,HRV,HRV_0242,2022-11-30 19:35:17
,wl-rdm,142,414527,0.0-8.25-0.25,1.0,143.0,,,,,,,[],,,,,,87.9,1.0,i,1.0,True,583.7999999523163,36.0,59.0,40.0,False,,339.94654152097496,[],"[720, 450]",ColorTask,82.0,26.0,,,HRV,HRV_0242,2022-11-30 19:35:17
,wl-rdm,143,416692,0.0-8.26-0.26,1.0,144.0,,,,,,,[],,,,,,87.9,1.0,i,1.0,True,721.6000001430511,44.0,59.0,40.0,False,,359.05364784581354,[],"[720, 450]",ColorTask,83.0,27.0,,,HRV,HRV_0242,2022-11-30 19:35:17
,wl-rdm,144,418908,0.0-8.27-0.27,1.0,145.0,,,,,,,[],,,,,,50.0,0.0,u,0.0,True,843.0,51.0,59.0,40.0,False,,293.29436270094664,[],"[720, 450]",ColorTask,84.0,28.0,,,HRV,HRV_0242,2022-11-30 19:35:17
,wl-rdm,145,421039,0.0-8.28-0.28,1.0,146.0,,,,,,,[],,,,,,73.6,0.0,i,1.0,False,699.7999999523163,42.0,59.0,40.0,False,,363.16727218161054,[],"[720, 450]",ColorTask,83.0,29.0,,,HRV,HRV_0242,2022-11-30 19:35:17
,wl-rdm,146,423189,0.0-8.29-0.29,1.0,147.0,,,,,,,[],,,,,,50.0,1.0,u,0.0,False,773.0,47.0,59.0,40.0,False,,294.52742846445176,[],"[720, 450]",ColorTask,82.0,30.0,,,HRV,HRV_0242,2022-11-30 19:35:17
,wl-rdm,147,425951,0.0-8.30-0.30,1.0,148.0,,,,,,,[],,,,,,53.2,0.0,u,0.0,True,1355.4000000953674,82.0,59.0,40.0,False,,339.09181847866245,[],"[720, 450]",ColorTask,83.0,31.0,,,HRV,HRV_0242,2022-11-30 19:35:17
,wl-rdm,148,428418,0.0-8.31-0.31,1.0,149.0,,,,,,,[],,,,,,53.2,0.0,u,0.0,True,1090.6999998092651,66.0,59.0,40.0,False,,292.8026524286764,[],"[720, 450]",ColorTask,84.0,32.0,,,HRV,HRV_0242,2022-11-30 19:35:17
,wl-rdm,149,430882,0.0-8.32-0.32,1.0,150.0,,,,,,,[],,,,,,53.2,1.0,u,0.0,False,1079.5,65.0,59.0,40.0,False,,312.83900084126947,[],"[720, 450]",ColorTask,83.0,33.0,,,HRV,HRV_0242,2022-11-30 19:35:17
,wl-rdm,150,433547,0.0-8.33-0.33,1.0,151.0,,,,,,,[],,,,,,50.0,0.0,u,0.0,True,1243.7999999523163,75.0,59.0,40.0,False,,337.38249975613724,[],"[720, 450]",ColorTask,84.0,34.0,,,HRV,HRV_0242,2022-11-30 19:35:17
,wl-rdm,151,435678,0.0-8.34-0.34,1.0,152.0,,,,,,,[],,,,,,87.9,0.0,u,0.0,True,800.5999999046326,49.0,59.0,40.0,False,,243.44102408762288,[],"[720, 450]",ColorTask,85.0,35.0,,,HRV,HRV_0242,2022-11-30 19:35:17
,wl-rdm,152,438344,0.0-8.35-0.35,1.0,153.0,,,,,,,[],,,,,,50.0,0.0,u,0.0,True,1377.9000000953674,83.0,59.0,40.0,False,,203.43744856228264,[],"[720, 450]",ColorTask,86.0,36.0,,,HRV,HRV_0242,2022-11-30 19:35:17
,wl-rdm,153,441024,0.0-8.36-0.36,1.0,154.0,,,,,,,[],,,,,,53.2,0.0,u,0.0,True,1384.6000001430511,84.0,59.0,40.0,False,,209.88017044566652,[],"[720, 450]",ColorTask,87.0,37.0,,,HRV,HRV_0242,2022-11-30 19:35:17
,wl-rdm,154,443723,0.0-8.37-0.37,1.0,155.0,,,,,,,[],,,,,,56.4,1.0,i,1.0,True,1369.2000000476837,83.0,59.0,40.0,False,,246.5627755604366,[],"[720, 450]",ColorTask,88.0,38.0,,,HRV,HRV_0242,2022-11-30 19:35:17
,wl-rdm,155,446638,0.0-8.38-0.38,1.0,156.0,,,,,,,[],,,,,,50.0,1.0,u,0.0,False,1449.1000001430511,88.0,59.0,40.0,False,,369.1734754430403,[],"[720, 450]",ColorTask,87.0,39.0,,,HRV,HRV_0242,2022-11-30 19:35:17
,wl-rdm,156,448786,0.0-8.39-0.39,1.0,157.0,,,,,,,[],,,,,,73.6,1.0,i,1.0,True,802.0999999046326,49.0,59.0,40.0,False,,263.30798733829266,[],"[720, 450]",ColorTask,88.0,40.0,,,HRV,HRV_0242,2022-11-30 19:35:17
,wl-rdm,157,451167,0.0-8.40-0.40,1.0,158.0,,,,,,,[],,,,,,56.4,1.0,i,1.0,True,1071.7999999523163,65.0,59.0,40.0,False,,231.90829493808943,[],"[720, 450]",ColorTask,89.0,41.0,,,HRV,HRV_0242,2022-11-30 19:35:17
,wl-rdm,158,453498,0.0-8.41-0.41,1.0,159.0,,,,,,,[],,,,,,73.6,0.0,u,0.0,True,1039.5000002384186,63.0,59.0,40.0,False,,215.0475753092434,[],"[720, 450]",ColorTask,90.0,42.0,,,HRV,HRV_0242,2022-11-30 19:35:17
,wl-rdm,159,456579,0.0-8.42-0.42,1.0,160.0,,,,,,,[],,,,,,62.5,1.0,u,0.0,False,1822.1000001430511,110.0,59.0,40.0,False,,200.0288705601893,[],"[720, 450]",ColorTask,89.0,43.0,,,HRV,HRV_0242,2022-11-30 19:35:17
,wl-rdm,160,459296,0.0-8.43-0.43,1.0,161.0,,,,,,,[],,,,,,56.4,1.0,i,1.0,True,1289.4000000953674,78.0,59.0,40.0,False,,348.1723119168189,[],"[720, 450]",ColorTask,90.0,44.0,,,HRV,HRV_0242,2022-11-30 19:35:17
,wl-rdm,161,461544,0.0-8.44-0.44,1.0,162.0,,,,,,,[],,,,,,87.9,0.0,u,0.0,True,840.0,51.0,59.0,40.0,False,,329.24460269922815,[],"[720, 450]",ColorTask,91.0,45.0,,,HRV,HRV_0242,2022-11-30 19:35:17
,wl-rdm,162,464024,0.0-8.45-0.45,1.0,163.0,,,,,,,[],,,,,,62.5,1.0,i,1.0,True,1006.0,61.0,59.0,40.0,False,,396.16828109876,[],"[720, 450]",ColorTask,92.0,46.0,,,HRV,HRV_0242,2022-11-30 19:35:17
,wl-rdm,163,466373,0.0-8.46-0.46,1.0,164.0,,,,,,,[],,,,,,53.2,1.0,u,0.0,False,996.8999998569489,60.0,59.0,40.0,False,,289.5529903674334,[],"[720, 450]",ColorTask,91.0,47.0,,,HRV,HRV_0242,2022-11-30 19:35:17
,wl-rdm,164,468988,0.0-8.47-0.47,1.0,165.0,,,,,,,[],,,,,,56.4,0.0,u,0.0,True,1217.2999999523163,74.0,59.0,40.0,False,,312.5525071808419,[],"[720, 450]",ColorTask,92.0,48.0,,,HRV,HRV_0242,2022-11-30 19:35:17
,wl-rdm,165,471735,0.0-8.48-0.48,1.0,166.0,,,,,,,[],,,,,,53.2,0.0,u,0.0,True,1405.4000000953674,85.0,59.0,40.0,False,,259.9221488365615,[],"[720, 450]",ColorTask,93.0,49.0,,,HRV,HRV_0242,2022-11-30 19:35:17
,wl-rdm,166,474150,0.0-8.49-0.49,1.0,167.0,,,,,,,[],,,,,,87.9,1.0,i,1.0,True,951.2000002861023,58.0,59.0,40.0,False,,387.1753692476267,[],"[720, 450]",ColorTask,94.0,50.0,,,HRV,HRV_0242,2022-11-30 19:35:17
,wl-rdm,167,476732,0.0-8.50-0.50,1.0,168.0,,,,,,,[],,,,,,56.4,0.0,u,0.0,True,1208.9000000953674,73.0,59.0,40.0,False,,309.18330445755544,[],"[720, 450]",ColorTask,95.0,51.0,,,HRV,HRV_0242,2022-11-30 19:35:17
,wl-rdm,168,479030,0.0-8.51-0.51,1.0,169.0,,,,,,,[],,,,,,62.5,0.0,u,0.0,True,985.5999999046326,60.0,59.0,40.0,False,,227.2341261816231,[],"[720, 450]",ColorTask,96.0,52.0,,,HRV,HRV_0242,2022-11-30 19:35:17
,wl-rdm,169,481329,0.0-8.52-0.52,1.0,170.0,,,,,,,[],,,,,,87.9,0.0,u,0.0,True,873.2999999523163,53.0,59.0,40.0,False,,337.2363584186051,[],"[720, 450]",ColorTask,97.0,53.0,,,HRV,HRV_0242,2022-11-30 19:35:17
,wl-rdm,170,483510,0.0-8.53-0.53,1.0,171.0,,,,,,,[],,,,,,73.6,0.0,u,0.0,True,789.5000002384186,48.0,59.0,40.0,False,,307.82562645047983,[],"[720, 450]",ColorTask,98.0,54.0,,,HRV,HRV_0242,2022-11-30 19:35:17
,wl-rdm,171,485742,0.0-8.54-0.54,1.0,172.0,,,,,,,[],,,,,,73.6,1.0,i,1.0,True,939.5999999046326,57.0,59.0,40.0,False,,221.6302876553578,[],"[720, 450]",ColorTask,99.0,55.0,,,HRV,HRV_0242,2022-11-30 19:35:17
,wl-rdm,172,488156,0.0-8.55-0.55,1.0,173.0,,,,,,,[],,,,,,53.2,0.0,u,0.0,True,1059.0,64.0,59.0,40.0,False,,277.2066529957651,[],"[720, 450]",ColorTask,100.0,56.0,,,HRV,HRV_0242,2022-11-30 19:35:17
,wl-rdm,173,490438,0.0-8.56-0.56,1.0,174.0,,,,,,,[],,,,,,50.0,1.0,u,0.0,False,963.6000001430511,58.0,59.0,40.0,False,,248.5360946858971,[],"[720, 450]",ColorTask,99.0,57.0,,,HRV,HRV_0242,2022-11-30 19:35:17
,wl-rdm,174,492803,0.0-8.57-0.57,1.0,175.0,,,,,,,[],,,,,,53.2,1.0,u,0.0,False,996.7999999523163,60.0,59.0,40.0,False,,283.7386588302138,[],"[720, 450]",ColorTask,98.0,58.0,,,HRV,HRV_0242,2022-11-30 19:35:17
,wl-rdm,175,496051,0.0-8.58-0.58,1.0,176.0,,,,,,,[],,,,,,53.2,0.0,u,0.0,True,1838.7000000476837,111.0,59.0,40.0,False,,332.12001067314185,[],"[720, 450]",ColorTask,99.0,59.0,,,HRV,HRV_0242,2022-11-30 19:35:17
,wl-rdm,176,498400,0.0-8.59-0.59,1.0,177.0,,,,,,,[],,,,,,62.5,1.0,i,1.0,True,1020.7000000476837,62.0,59.0,40.0,False,,239.8792014906032,[],"[720, 450]",ColorTask,100.0,60.0,,,HRV,HRV_0242,2022-11-30 19:35:17
,wl-rdm,177,500864,0.0-8.60-0.60,1.0,178.0,,,,,,,[],,,,,,62.5,0.0,u,0.0,True,1164.0,70.0,59.0,40.0,False,,245.34035503649383,[],"[720, 450]",ColorTask,101.0,61.0,,,HRV,HRV_0242,2022-11-30 19:35:17
,wl-rdm,178,503296,0.0-8.61-0.61,1.0,179.0,,,,,,,[],,,,,,62.5,0.0,u,0.0,True,1088.5,66.0,59.0,40.0,False,,256.12336806717286,[],"[720, 450]",ColorTask,102.0,62.0,,,HRV,HRV_0242,2022-11-30 19:35:17
,wl-rdm,179,505628,0.0-8.62-0.62,1.0,180.0,,,,,,,[],,,,,,73.6,1.0,i,1.0,True,890.5,54.0,59.0,40.0,False,,361.60699321193675,[],"[720, 450]",ColorTask,103.0,63.0,,,HRV,HRV_0242,2022-11-30 19:35:17
,wl-rdm,180,508426,0.0-8.63-0.63,1.0,181.0,,,,,,,[],,,,,,56.4,0.0,u,0.0,True,1316.5999999046326,80.0,59.0,40.0,False,,388.7057220652439,[],"[720, 450]",ColorTask,104.0,64.0,,,HRV,HRV_0242,2022-11-30 19:35:17
,wl-rdm,181,510841,0.0-8.64-0.64,1.0,182.0,,,,,,,[],,,,,,87.9,0.0,i,1.0,False,1018.2000000476837,62.0,59.0,40.0,False,,306.36735786807395,[],"[720, 450]",ColorTask,103.0,65.0,,,HRV,HRV_0242,2022-11-30 19:35:17
,wl-rdm,182,513738,0.0-8.65-0.65,1.0,183.0,,,,,,,[],,,,,,53.2,0.0,u,0.0,True,1449.4999997615814,88.0,59.0,40.0,False,,358.65350884081715,[],"[720, 450]",ColorTask,104.0,66.0,,,HRV,HRV_0242,2022-11-30 19:35:17
,wl-rdm,183,516221,0.0-8.66-0.66,1.0,184.0,,,,,,,[],,,,,,87.9,0.0,u,0.0,True,1054.4999997615814,64.0,59.0,40.0,False,,338.373111704601,[],"[720, 450]",ColorTask,105.0,67.0,,,HRV,HRV_0242,2022-11-30 19:35:17
,wl-rdm,184,518720,0.0-8.67-0.67,1.0,185.0,,,,,,,[],,,,,,62.5,0.0,u,0.0,True,1129.2000000476837,68.0,59.0,40.0,False,,293.3764057832685,[],"[720, 450]",ColorTask,106.0,68.0,,,HRV,HRV_0242,2022-11-30 19:35:17
,wl-rdm,185,521284,0.0-8.68-0.68,1.0,186.0,,,,,,,[],,,,,,50.0,1.0,u,0.0,False,1138.7999999523163,69.0,59.0,40.0,False,,335.2211440433108,[],"[720, 450]",ColorTask,105.0,69.0,,,HRV,HRV_0242,2022-11-30 19:35:17
,wl-rdm,186,523799,0.0-8.69-0.69,1.0,187.0,,,,,,,[],,,,,,62.5,1.0,u,0.0,False,1117.2000000476837,68.0,59.0,40.0,False,,331.867698221192,[],"[720, 450]",ColorTask,104.0,70.0,,,HRV,HRV_0242,2022-11-30 19:35:17
,wl-rdm,187,526363,0.0-8.70-0.70,1.0,188.0,,,,,,,[],,,,,,62.5,1.0,u,0.0,False,1174.8999998569489,71.0,59.0,40.0,False,,308.2050839981973,[],"[720, 450]",ColorTask,103.0,71.0,,,HRV,HRV_0242,2022-11-30 19:35:17
,wl-rdm,188,528612,0.0-8.71-0.71,1.0,189.0,,,,,,,[],,,,,,87.9,1.0,i,1.0,True,805.9000000953674,49.0,59.0,40.0,False,,351.96264260527073,[],"[720, 450]",ColorTask,104.0,72.0,,,HRV,HRV_0242,2022-11-30 19:35:17
,wl-rdm,189,531959,0.0-8.72-0.72,1.0,190.0,,,,,,,[],,,,,,50.0,0.0,u,0.0,True,1968.8999998569489,119.0,59.0,40.0,False,,288.5444381479099,[],"[720, 450]",ColorTask,105.0,73.0,,,HRV,HRV_0242,2022-11-30 19:35:17
,wl-rdm,190,535157,0.0-8.73-0.73,1.0,191.0,,,,,,,[],,,,,,50.0,1.0,u,0.0,False,1878.3000001907349,113.0,59.0,40.0,False,,249.10827968236114,[],"[720, 450]",ColorTask,104.0,74.0,,,HRV,HRV_0242,2022-11-30 19:35:17
,wl-rdm,191,537439,0.0-8.74-0.74,1.0,192.0,,,,,,,[],,,,,,56.4,1.0,i,1.0,True,983.7999999523163,60.0,59.0,40.0,False,,216.3209315543307,[],"[720, 450]",ColorTask,105.0,75.0,,,HRV,HRV_0242,2022-11-30 19:35:17
,wl-rdm,192,540087,0.0-8.75-0.75,1.0,193.0,,,,,,,[],,,,,,53.2,0.0,i,1.0,False,1280.1000001430511,77.0,59.0,40.0,False,,296.54649049739675,[],"[720, 450]",ColorTask,104.0,76.0,,,HRV,HRV_0242,2022-11-30 19:35:17
,wl-rdm,193,542335,0.0-8.76-0.76,1.0,194.0,,,,,,,[],,,,,,56.4,0.0,u,0.0,True,974.1000001430511,59.0,59.0,40.0,False,,202.03051414974973,[],"[720, 450]",ColorTask,105.0,77.0,,,HRV,HRV_0242,2022-11-30 19:35:17
,wl-rdm,194,544716,0.0-8.77-0.77,1.0,195.0,,,,,,,[],,,,,,73.6,0.0,u,0.0,True,1088.3999998569489,66.0,59.0,40.0,False,,221.36375777773097,[],"[720, 450]",ColorTask,106.0,78.0,,,HRV,HRV_0242,2022-11-30 19:35:17
,wl-rdm,195,547631,0.0-8.78-0.78,1.0,196.0,,,,,,,[],,,,,,50.0,1.0,i,1.0,True,1521.5999999046326,92.0,59.0,40.0,False,,323.2338815842869,[],"[720, 450]",ColorTask,107.0,79.0,,,HRV,HRV_0242,2022-11-30 19:35:17
,wl-rdm,196,549880,0.0-8.79-0.79,1.0,197.0,,,,,,,[],,,,,,73.6,0.0,u,0.0,True,956.0999999046326,58.0,59.0,40.0,False,,212.66795472411403,[],"[720, 450]",ColorTask,108.0,80.0,,,HRV,HRV_0242,2022-11-30 19:35:17
,wl-rdm,197,552011,0.0-8.80-0.80,1.0,198.0,,,,,,,[],,,,,,73.6,1.0,i,1.0,True,792.6999998092651,48.0,59.0,40.0,False,,250.92355788422208,[],"[720, 450]",ColorTask,109.0,81.0,,,HRV,HRV_0242,2022-11-30 19:35:17
,wl-rdm,198,554477,0.0-8.81-0.81,1.0,199.0,,,,,,,[],,,,,,62.5,1.0,i,1.0,True,1012.0999999046326,61.0,59.0,40.0,False,,373.9331697991871,[],"[720, 450]",ColorTask,110.0,82.0,,,HRV,HRV_0242,2022-11-30 19:35:17
,wl-rdm,199,556741,0.0-8.82-0.82,1.0,200.0,,,,,,,[],,,,,,73.6,1.0,i,1.0,True,964.9000000953674,58.0,59.0,40.0,False,,242.98829916130342,[],"[720, 450]",ColorTask,111.0,83.0,,,HRV,HRV_0242,2022-11-30 19:35:17
,wl-rdm,200,559473,0.0-8.83-0.83,1.0,201.0,,,,,,,[],,,,,,56.4,1.0,i,1.0,True,1428.1999998092651,86.0,59.0,40.0,False,,219.41221289345526,[],"[720, 450]",ColorTask,112.0,84.0,,,HRV,HRV_0242,2022-11-30 19:35:17
,wl-rdm,201,561839,0.0-8.84-0.84,1.0,202.0,,,,,,,[],,,,,,62.5,0.0,u,0.0,True,979.5999999046326,59.0,59.0,40.0,False,,314.0980321106432,[],"[720, 450]",ColorTask,113.0,85.0,,,HRV,HRV_0242,2022-11-30 19:35:17
,wl-rdm,202,564636,0.0-8.85-0.85,1.0,203.0,,,,,,,[],,,,,,62.5,0.0,u,0.0,True,1418.2999999523163,86.0,59.0,40.0,False,,286.01282879532016,[],"[720, 450]",ColorTask,114.0,86.0,,,HRV,HRV_0242,2022-11-30 19:35:17
,wl-rdm,203,567017,0.0-8.86-0.86,1.0,204.0,,,,,,,[],,,,,,62.5,1.0,i,1.0,True,1077.8000001907349,65.0,59.0,40.0,False,,237.21605829272167,[],"[720, 450]",ColorTask,115.0,87.0,,,HRV,HRV_0242,2022-11-30 19:35:17
,wl-rdm,204,569583,0.0-8.87-0.87,1.0,205.0,,,,,,,[],,,,,,73.6,0.0,u,0.0,True,1170.3999998569489,71.0,59.0,40.0,False,,303.6164095587872,[],"[720, 450]",ColorTask,116.0,88.0,,,HRV,HRV_0242,2022-11-30 19:35:17
,wl-rdm,205,572796,0.0-8.88-0.88,1.0,206.0,,,,,,,[],,,,,,53.2,1.0,i,1.0,True,1738.2999997138977,105.0,59.0,40.0,False,,399.90670270804253,[],"[720, 450]",ColorTask,117.0,89.0,,,HRV,HRV_0242,2022-11-30 19:35:17
,wl-rdm,206,575311,0.0-8.89-0.89,1.0,207.0,,,,,,,[],,,,,,87.9,0.0,u,0.0,True,1058.3999998569489,64.0,59.0,40.0,False,,373.80460537632786,[],"[720, 450]",ColorTask,118.0,90.0,,,HRV,HRV_0242,2022-11-30 19:35:17
,wl-rdm,207,577659,0.0-8.90-0.90,1.0,208.0,,,,,,,[],,,,,,73.6,1.0,i,1.0,True,943.7000002861023,57.0,59.0,40.0,False,,339.6056154737829,[],"[720, 450]",ColorTask,119.0,91.0,,,HRV,HRV_0242,2022-11-30 19:35:17
,wl-rdm,208,580042,0.0-8.91-0.91,1.0,209.0,,,,,,,[],,,,,,53.2,1.0,i,1.0,True,1006.5,61.0,59.0,40.0,False,,284.53173763183304,[],"[720, 450]",ColorTask,120.0,92.0,,,HRV,HRV_0242,2022-11-30 19:35:17
,wl-rdm,209,582456,0.0-8.92-0.92,1.0,210.0,,,,,,,[],,,,,,56.4,0.0,u,0.0,True,1096.1999998092651,66.0,59.0,40.0,False,,249.70953773019517,[],"[720, 450]",ColorTask,121.0,93.0,,,HRV,HRV_0242,2022-11-30 19:35:17
,wl-rdm,210,584821,0.0-8.93-0.93,1.0,211.0,,,,,,,[],,,,,,87.9,1.0,i,1.0,True,963.5,58.0,59.0,40.0,False,,322.6048121983486,[],"[720, 450]",ColorTask,122.0,94.0,,,HRV,HRV_0242,2022-11-30 19:35:17
,wl-rdm,211,587520,0.0-8.94-0.94,1.0,212.0,,,,,,,[],,,,,,56.4,1.0,i,1.0,True,1382.6000001430511,84.0,59.0,40.0,False,,228.72521666703327,[],"[720, 450]",ColorTask,123.0,95.0,,,HRV,HRV_0242,2022-11-30 19:35:17
,wl-rdm,212,590034,0.0-8.95-0.95,1.0,213.0,,,,,,,[],,,,,,53.2,1.0,i,1.0,True,1187.2999999523163,72.0,59.0,40.0,False,,240.39458313451178,[],"[720, 450]",ColorTask,124.0,96.0,,,HRV,HRV_0242,2022-11-30 19:35:17
,wl-rdm,213,592699,0.0-8.96-0.96,1.0,214.0,,,,,,,[],,,,,,73.6,0.0,u,0.0,True,1300.8999998569489,78.0,59.0,40.0,False,,267.2252130000875,[],"[720, 450]",ColorTask,125.0,97.0,,,HRV,HRV_0242,2022-11-30 19:35:17
,wl-rdm,214,595513,0.0-8.97-0.97,1.0,215.0,,,,,,,[],,,,,,50.0,0.0,u,0.0,True,1522.7999999523163,92.0,59.0,40.0,False,,218.2376418403972,[],"[720, 450]",ColorTask,126.0,98.0,,,HRV,HRV_0242,2022-11-30 19:35:17
,wl-rdm,215,598195,0.0-8.98-0.98,1.0,216.0,,,,,,,[],,,,,,56.4,0.0,u,0.0,True,1304.7999997138977,79.0,59.0,40.0,False,,294.84233202147607,[],"[720, 450]",ColorTask,127.0,99.0,,,HRV,HRV_0242,2022-11-30 19:35:17
,wl-rdm,216,600910,0.0-8.99-0.99,1.0,217.0,,,,,,,[],,,,,,56.4,1.0,u,0.0,False,1338.4000000953674,81.0,59.0,40.0,False,,307.0155214834915,[],"[720, 450]",ColorTask,126.0,100.0,,,HRV,HRV_0242,2022-11-30 19:35:17
,wl-rdm,217,603292,0.0-8.100-0.100,1.0,218.0,,,,,,,[],,,,,,73.6,0.0,u,0.0,True,1042.2999997138977,63.0,59.0,40.0,False,,259.7799528388252,[],"[720, 450]",ColorTask,127.0,101.0,,,HRV,HRV_0242,2022-11-30 19:35:17
,wl-rdm,218,605606,0.0-8.101-0.101,1.0,219.0,,,,,,,[],,,,,,56.4,1.0,i,1.0,True,926.5,56.0,59.0,40.0,False,,330.0591245160709,[],"[720, 450]",ColorTask,128.0,102.0,,,HRV,HRV_0242,2022-11-30 19:35:17
,wl-rdm,219,608121,0.0-8.102-0.102,1.0,220.0,,,,,,,[],,,,,,53.2,1.0,i,1.0,True,1123.2999999523163,68.0,59.0,40.0,False,,311.79069779161284,[],"[720, 450]",ColorTask,129.0,103.0,,,HRV,HRV_0242,2022-11-30 19:35:17
,wl-rdm,220,610469,0.0-8.103-0.103,1.0,221.0,,,,,,,[],,,,,,62.5,0.0,u,0.0,True,925.8000001907349,56.0,59.0,40.0,False,,345.5305123785173,[],"[720, 450]",ColorTask,130.0,104.0,,,HRV,HRV_0242,2022-11-30 19:35:17
,wl-rdm,221,613116,0.0-8.104-0.104,1.0,222.0,,,,,,,[],,,,,,73.6,0.0,u,0.0,True,1320.5999999046326,80.0,59.0,40.0,False,,235.92989752507592,[],"[720, 450]",ColorTask,131.0,105.0,,,HRV,HRV_0242,2022-11-30 19:35:17
,wl-rdm,222,615598,0.0-8.105-0.105,1.0,223.0,,,,,,,[],,,,,,56.4,1.0,u,0.0,False,1060.5,64.0,59.0,40.0,False,,335.2895669264773,[],"[720, 450]",ColorTask,130.0,106.0,,,HRV,HRV_0242,2022-11-30 19:35:17
,wl-rdm,223,618281,0.0-8.106-0.106,1.0,224.0,,,,,,,[],,,,,,50.0,0.0,i,1.0,False,1399.0,84.0,59.0,40.0,False,,221.95416125188706,[],"[720, 450]",ColorTask,129.0,107.0,,,HRV,HRV_0242,2022-11-30 19:35:17
,wl-rdm,224,620380,0.0-8.107-0.107,1.0,225.0,,,,,,,[],,,,,,87.9,1.0,i,1.0,True,804.0,49.0,59.0,40.0,False,,224.3722357394939,[],"[720, 450]",ColorTask,130.0,108.0,,,HRV,HRV_0242,2022-11-30 19:35:17
,wl-html-button-response,225,623046,0.0-9.0-0.0,,,,,,,,,,2660.2000000476837,,0,,,,,,,,,,,,,,,,,,,,<h3>End of this session. Thank you!</h3><br>,['Close window'],HRV,HRV_0242,2022-11-30 19:35:17
