trialN,stimuli,trialStartTime,trialStartTime_UNIX,stimulus1,stimulus2,stimulus1Bid,stimulus2Bid,delta,selected,rt,rt_UNIX,rt_perfnow,receivedResponse,rsp,trialEndTime,trialDuration,trialEndTime_UNIX,trialDuration_UNIX,exp,subjectId,date
0,"[{'imgObject': {}, 'id': 'hotdog w must', 'src': '/static/foodstim60/hotdog w must.jpg', 'key': 'u', 'origWidth': 409, 'origHeight': 409, 'width': 409, 'height': 409, 'widthPercent': 0.45, 'rescaleHeight': False, 'trialN': 0, 'loaded': True, 'loadedTime': 3269.399999976158, 'positionName': 'LEFT', 'positionCoords': [512.6, 335.5], 'bid': 3.98}, {'imgObject': {}, 'id': 'eggs', 'src': '/static/foodstim60/eggs.jpg', 'key': 'i', 'origWidth': 409, 'origHeight': 409, 'width': 409, 'height': 409, 'widthPercent': 0.45, 'rescaleHeight': False, 'trialN': 0, 'loaded': True, 'loadedTime': 3299.3000000715256, 'positionName': 'RIGHT', 'positionCoords': [998.4, 335.5], 'bid': 3.28}]",4492.899999976158,1669844709658,hotdog w must,eggs,3.98,3.28,-0.7000000000000002,hotdog w must,905.8000000715256,907,906.6000000238419,True,u,5906.600000023842,1413.7000000476837,1669844711072,1414,HRV,HRV_0309,2022-11-30 22:03:52
1,"[{'imgObject': {}, 'id': 'fruitsalad', 'src': '/static/foodstim60/fruitsalad.jpg', 'key': 'u', 'origWidth': 410, 'origHeight': 410, 'width': 410, 'height': 410, 'widthPercent': 0.45, 'rescaleHeight': False, 'trialN': 1, 'loaded': True, 'loadedTime': 3328.600000023842, 'positionName': 'LEFT', 'positionCoords': [511.6, 335], 'bid': 7.12}, {'imgObject': {}, 'id': 'blackbeanswithrice', 'src': '/static/foodstim60/blackbeanswithrice.jpg', 'key': 'i', 'origWidth': 410, 'origHeight': 410, 'width': 410, 'height': 410, 'widthPercent': 0.45, 'rescaleHeight': False, 'trialN': 1, 'loaded': True, 'loadedTime': 3366.2000000476837, 'positionName': 'RIGHT', 'positionCoords': [998.4, 335], 'bid': 6.16}]",5907.100000023842,1669844711073,fruitsalad,blackbeanswithrice,7.12,6.16,-0.96,blackbeanswithrice,1083.7000000476837,1084,1083.8999999761581,True,i,7498.700000047684,1591.6000000238419,1669844712664,1591,HRV,HRV_0309,2022-11-30 22:03:52
2,"[{'imgObject': {}, 'id': 'popsicles', 'src': '/static/foodstim60/popsicles.jpg', 'key': 'u', 'origWidth': 410, 'origHeight': 410, 'width': 410, 'height': 410, 'widthPercent': 0.45, 'rescaleHeight': False, 'trialN': 2, 'loaded': True, 'loadedTime': 3410.8000000715256, 'positionName': 'LEFT', 'positionCoords': [511.6, 335], 'bid': 1.78}, {'imgObject': {}, 'id': 'avocado', 'src': '/static/foodstim60/avocado.jpg', 'key': 'i', 'origWidth': 409, 'origHeight': 409, 'width': 409, 'height': 409, 'widthPercent': 0.45, 'rescaleHeight': False, 'trialN': 2, 'loaded': True, 'loadedTime': 3426.7000000476837, 'positionName': 'RIGHT', 'positionCoords': [998.4, 335.5], 'bid': 1.38}]",7499.100000023842,1669844712665,popsicles,avocado,1.78,1.38,-0.40000000000000013,avocado,819.7000000476837,820,819.7999999523163,True,i,8825.700000047684,1326.6000000238419,1669844713992,1327,HRV,HRV_0309,2022-11-30 22:03:52
3,"[{'imgObject': {}, 'id': 'burrito', 'src': '/static/foodstim60/burrito.jpg', 'key': 'u', 'origWidth': 410, 'origHeight': 410, 'width': 410, 'height': 410, 'widthPercent': 0.45, 'rescaleHeight': False, 'trialN': 3, 'loaded': True, 'loadedTime': 3447.7000000476837, 'positionName': 'LEFT', 'positionCoords': [511.6, 335], 'bid': 7}, {'imgObject': {}, 'id': 'rigatoni and sauce', 'src': '/static/foodstim60/rigatoni and sauce.jpg', 'key': 'i', 'origWidth': 410, 'origHeight': 411, 'width': 410, 'height': 411, 'widthPercent': 0.45, 'rescaleHeight': False, 'trialN': 3, 'loaded': True, 'loadedTime': 3480.3000000715256, 'positionName': 'RIGHT', 'positionCoords': [998.4, 334.5], 'bid': 3.56}]",8826.100000023842,1669844713992,burrito,rigatoni and sauce,7.0,3.56,-3.44,burrito,588.3999999761581,588,588.6000000238419,True,u,9914.899999976158,1088.7999999523163,1669844715081,1089,HRV,HRV_0309,2022-11-30 22:03:52
4,"[{'imgObject': {}, 'id': 'granola w milk', 'src': '/static/foodstim60/granola w milk.jpg', 'key': 'u', 'origWidth': 410, 'origHeight': 410, 'width': 410, 'height': 410, 'widthPercent': 0.45, 'rescaleHeight': False, 'trialN': 4, 'loaded': True, 'loadedTime': 3519.100000023842, 'positionName': 'LEFT', 'positionCoords': [511.6, 335], 'bid': 0.48}, {'imgObject': {}, 'id': 'cherry tomato', 'src': '/static/foodstim60/cherry tomato.jpg', 'key': 'i', 'origWidth': 410, 'origHeight': 410, 'width': 410, 'height': 410, 'widthPercent': 0.45, 'rescaleHeight': False, 'trialN': 4, 'loaded': True, 'loadedTime': 3554.600000023842, 'positionName': 'RIGHT', 'positionCoords': [998.4, 335], 'bid': 0.84}]",9915.100000023842,1669844715081,granola w milk,cherry tomato,0.48,0.84,0.36,cherry tomato,771.6000000238419,772,771.8999999761581,True,i,11194.600000023842,1279.5,1669844716360,1279,HRV,HRV_0309,2022-11-30 22:03:52
5,"[{'imgObject': {}, 'id': 'hashbrowns', 'src': '/static/foodstim60/hashbrowns.jpg', 'key': 'u', 'origWidth': 411, 'origHeight': 410, 'width': 411, 'height': 410, 'widthPercent': 0.45, 'rescaleHeight': False, 'trialN': 5, 'loaded': True, 'loadedTime': 3555.2000000476837, 'positionName': 'LEFT', 'positionCoords': [510.6, 335], 'bid': 5.7}, {'imgObject': {}, 'id': 'cheerios', 'src': '/static/foodstim60/cheerios.jpg', 'key': 'i', 'origWidth': 409, 'origHeight': 410, 'width': 409, 'height': 410, 'widthPercent': 0.45, 'rescaleHeight': False, 'trialN': 5, 'loaded': True, 'loadedTime': 3590.600000023842, 'positionName': 'RIGHT', 'positionCoords': [998.4, 335], 'bid': 6.75}]",11194.800000071526,1669844716361,hashbrowns,cheerios,5.7,6.75,1.0499999999999998,hashbrowns,811.3999999761581,811,811.6999999284744,True,u,12515.5,1320.6999999284744,1669844717681,1320,HRV,HRV_0309,2022-11-30 22:03:52
6,"[{'imgObject': {}, 'id': 'froot loops w milk', 'src': '/static/foodstim60/froot loops w milk.jpg', 'key': 'u', 'origWidth': 410, 'origHeight': 410, 'width': 410, 'height': 410, 'widthPercent': 0.45, 'rescaleHeight': False, 'trialN': 6, 'loaded': True, 'loadedTime': 3632.2000000476837, 'positionName': 'LEFT', 'positionCoords': [511.6, 335], 'bid': 5.54}, {'imgObject': {}, 'id': 'tacos', 'src': '/static/foodstim60/tacos.jpg', 'key': 'i', 'origWidth': 411, 'origHeight': 411, 'width': 411, 'height': 411, 'widthPercent': 0.45, 'rescaleHeight': False, 'trialN': 6, 'loaded': True, 'loadedTime': 3647.399999976158, 'positionName': 'RIGHT', 'positionCoords': [998.4, 334.5], 'bid': 6.57}]",12516.0,1669844717682,froot loops w milk,tacos,5.54,6.57,1.0300000000000002,tacos,770.7000000476837,771,770.8000000715256,True,i,13794.600000023842,1278.6000000238419,1669844718960,1278,HRV,HRV_0309,2022-11-30 22:03:52
7,"[{'imgObject': {}, 'id': 'burger', 'src': '/static/foodstim60/burger.jpg', 'key': 'u', 'origWidth': 409, 'origHeight': 409, 'width': 409, 'height': 409, 'widthPercent': 0.45, 'rescaleHeight': False, 'trialN': 7, 'loaded': True, 'loadedTime': 3676.7000000476837, 'positionName': 'LEFT', 'positionCoords': [512.6, 335.5], 'bid': 6.48}, {'imgObject': {}, 'id': 'chickenfingers', 'src': '/static/foodstim60/chickenfingers.jpg', 'key': 'i', 'origWidth': 410, 'origHeight': 410, 'width': 410, 'height': 410, 'widthPercent': 0.45, 'rescaleHeight': False, 'trialN': 7, 'loaded': True, 'loadedTime': 3720.600000023842, 'positionName': 'RIGHT', 'positionCoords': [998.4, 335], 'bid': 6.62}]",13795.0,1669844718961,burger,chickenfingers,6.48,6.62,0.13999999999999968,chickenfingers,883.3999999761581,883,883.7000000476837,True,i,15186.600000023842,1391.6000000238419,1669844720352,1391,HRV,HRV_0309,2022-11-30 22:03:52
8,"[{'imgObject': {}, 'id': 'pear', 'src': '/static/foodstim60/pear.jpg', 'key': 'u', 'origWidth': 411, 'origHeight': 410, 'width': 411, 'height': 410, 'widthPercent': 0.45, 'rescaleHeight': False, 'trialN': 8, 'loaded': True, 'loadedTime': 3736.3000000715256, 'positionName': 'LEFT', 'positionCoords': [510.6, 335], 'bid': 7.82}, {'imgObject': {}, 'id': 'roastedpotatoes', 'src': '/static/foodstim60/roastedpotatoes.jpg', 'key': 'i', 'origWidth': 409, 'origHeight': 410, 'width': 409, 'height': 410, 'widthPercent': 0.45, 'rescaleHeight': False, 'trialN': 8, 'loaded': True, 'loadedTime': 3764.2000000476837, 'positionName': 'RIGHT', 'positionCoords': [998.4, 335], 'bid': 8.75}]",15186.899999976158,1669844720353,pear,roastedpotatoes,7.82,8.75,0.9299999999999997,roastedpotatoes,675.4000000953674,675,675.6000000238419,True,i,16370.600000023842,1183.7000000476837,1669844721536,1183,HRV,HRV_0309,2022-11-30 22:03:52
9,"[{'imgObject': {}, 'id': 'olives', 'src': '/static/foodstim60/olives.jpg', 'key': 'u', 'origWidth': 410, 'origHeight': 410, 'width': 410, 'height': 410, 'widthPercent': 0.45, 'rescaleHeight': False, 'trialN': 9, 'loaded': True, 'loadedTime': 3783.399999976158, 'positionName': 'LEFT', 'positionCoords': [511.6, 335], 'bid': 0.25}, {'imgObject': {}, 'id': 'cherries', 'src': '/static/foodstim60/cherries.jpg', 'key': 'i', 'origWidth': 410, 'origHeight': 411, 'width': 410, 'height': 411, 'widthPercent': 0.45, 'rescaleHeight': False, 'trialN': 9, 'loaded': True, 'loadedTime': 3831.5, 'positionName': 'RIGHT', 'positionCoords': [998.4, 334.5], 'bid': 3.67}]",16370.800000071526,1669844721537,olives,cherries,0.25,3.67,3.42,cherries,1267.5999999046326,1267,1267.8999999761581,True,i,18147.5,1776.6999999284744,1669844723313,1776,HRV,HRV_0309,2022-11-30 22:03:52
10,"[{'imgObject': {}, 'id': 'tacos', 'src': '/static/foodstim60/tacos.jpg', 'key': 'u', 'origWidth': 411, 'origHeight': 411, 'width': 411, 'height': 411, 'widthPercent': 0.45, 'rescaleHeight': False, 'trialN': 10, 'loaded': True, 'loadedTime': 3647.7000000476837, 'positionName': 'LEFT', 'positionCoords': [510.6, 334.5], 'bid': 6.57}, {'imgObject': {}, 'id': 'bagel plain', 'src': '/static/foodstim60/bagel plain.jpg', 'key': 'i', 'origWidth': 410, 'origHeight': 410, 'width': 410, 'height': 410, 'widthPercent': 0.45, 'rescaleHeight': False, 'trialN': 10, 'loaded': True, 'loadedTime': 3853.100000023842, 'positionName': 'RIGHT', 'positionCoords': [998.4, 335], 'bid': 6.1000000000000005}]",18147.800000071526,1669844723313,tacos,bagel plain,6.57,6.1000000000000005,-0.46999999999999975,tacos,778.7999999523163,780,779.0,True,u,19435.5,1287.6999999284744,1669844724601,1288,HRV,HRV_0309,2022-11-30 22:03:52
11,"[{'imgObject': {}, 'id': 'raisin bran w milk', 'src': '/static/foodstim60/raisin bran w milk.jpg', 'key': 'u', 'origWidth': 411, 'origHeight': 411, 'width': 411, 'height': 411, 'widthPercent': 0.45, 'rescaleHeight': False, 'trialN': 11, 'loaded': True, 'loadedTime': 3878.100000023842, 'positionName': 'LEFT', 'positionCoords': [510.6, 334.5], 'bid': 0}, {'imgObject': {}, 'id': 'granola w milk', 'src': '/static/foodstim60/granola w milk.jpg', 'key': 'i', 'origWidth': 410, 'origHeight': 410, 'width': 410, 'height': 410, 'widthPercent': 0.45, 'rescaleHeight': False, 'trialN': 11, 'loaded': True, 'loadedTime': 3508.600000023842, 'positionName': 'RIGHT', 'positionCoords': [998.4, 335], 'bid': 0.48}]",19435.800000071526,1669844724602,raisin bran w milk,granola w milk,0.0,0.48,0.48,granola w milk,1730.3999999761581,1730,1730.5999999046326,True,i,21674.399999976158,2238.5999999046326,1669844726840,2238,HRV,HRV_0309,2022-11-30 22:03:52
12,"[{'imgObject': {}, 'id': 'cherry tomato', 'src': '/static/foodstim60/cherry tomato.jpg', 'key': 'u', 'origWidth': 410, 'origHeight': 410, 'width': 410, 'height': 410, 'widthPercent': 0.45, 'rescaleHeight': False, 'trialN': 12, 'loaded': True, 'loadedTime': 3533.8000000715256, 'positionName': 'LEFT', 'positionCoords': [511.6, 335], 'bid': 0.84}, {'imgObject': {}, 'id': 'eggs', 'src': '/static/foodstim60/eggs.jpg', 'key': 'i', 'origWidth': 409, 'origHeight': 409, 'width': 409, 'height': 409, 'widthPercent': 0.45, 'rescaleHeight': False, 'trialN': 12, 'loaded': True, 'loadedTime': 3310.3000000715256, 'positionName': 'RIGHT', 'positionCoords': [998.4, 335.5], 'bid': 3.28}]",21674.700000047684,1669844726840,cherry tomato,eggs,0.84,3.28,2.44,eggs,1291.0,1292,1291.3999999761581,True,i,23466.5,1791.7999999523163,1669844728632,1792,HRV,HRV_0309,2022-11-30 22:03:52
13,"[{'imgObject': {}, 'id': 'Tribe humus pita', 'src': '/static/foodstim60/Tribe humus pita.jpg', 'key': 'u', 'origWidth': 411, 'origHeight': 411, 'width': 411, 'height': 411, 'widthPercent': 0.45, 'rescaleHeight': False, 'trialN': 13, 'loaded': True, 'loadedTime': 3891.3000000715256, 'positionName': 'LEFT', 'positionCoords': [510.6, 334.5], 'bid': 6.13}, {'imgObject': {}, 'id': 'blackbeanswithrice', 'src': '/static/foodstim60/blackbeanswithrice.jpg', 'key': 'i', 'origWidth': 410, 'origHeight': 410, 'width': 410, 'height': 410, 'widthPercent': 0.45, 'rescaleHeight': False, 'trialN': 13, 'loaded': True, 'loadedTime': 3375.899999976158, 'positionName': 'RIGHT', 'positionCoords': [998.4, 335], 'bid': 6.16}]",23466.800000071526,1669844728633,Tribe humus pita,blackbeanswithrice,6.13,6.16,0.03000000000000025,blackbeanswithrice,723.0999999046326,723,723.2999999523163,True,i,24690.5,1223.6999999284744,1669844729856,1223,HRV,HRV_0309,2022-11-30 22:03:52
14,"[{'imgObject': {}, 'id': 'sushi w_condiments', 'src': '/static/foodstim60/sushi w_condiments.jpg', 'key': 'u', 'origWidth': 410, 'origHeight': 410, 'width': 410, 'height': 410, 'widthPercent': 0.45, 'rescaleHeight': False, 'trialN': 14, 'loaded': True, 'loadedTime': 3907.7000000476837, 'positionName': 'LEFT', 'positionCoords': [511.6, 335], 'bid': 3.93}, {'imgObject': {}, 'id': 'hotdog w must', 'src': '/static/foodstim60/hotdog w must.jpg', 'key': 'i', 'origWidth': 409, 'origHeight': 409, 'width': 409, 'height': 409, 'widthPercent': 0.45, 'rescaleHeight': False, 'trialN': 14, 'loaded': True, 'loadedTime': 3262.8000000715256, 'positionName': 'RIGHT', 'positionCoords': [998.4, 335.5], 'bid': 3.98}]",24690.800000071526,1669844729857,sushi w_condiments,hotdog w must,3.93,3.98,0.04999999999999982,hotdog w must,931.7999999523163,932,932.0,True,i,26131.5,1440.6999999284744,1669844731297,1440,HRV,HRV_0309,2022-11-30 22:03:52
15,"[{'imgObject': {}, 'id': 'eggsalad', 'src': '/static/foodstim60/eggsalad.jpg', 'key': 'u', 'origWidth': 410, 'origHeight': 409, 'width': 410, 'height': 409, 'widthPercent': 0.45, 'rescaleHeight': False, 'trialN': 15, 'loaded': True, 'loadedTime': 3926.5, 'positionName': 'LEFT', 'positionCoords': [511.6, 335.5], 'bid': 2.11}, {'imgObject': {}, 'id': 'rigatoni', 'src': '/static/foodstim60/rigatoni.jpg', 'key': 'i', 'origWidth': 411, 'origHeight': 411, 'width': 411, 'height': 411, 'widthPercent': 0.45, 'rescaleHeight': False, 'trialN': 15, 'loaded': True, 'loadedTime': 3944.5, 'positionName': 'RIGHT', 'positionCoords': [998.4, 334.5], 'bid': 2.46}]",26131.899999976158,1669844731298,eggsalad,rigatoni,2.11,2.46,0.3500000000000001,rigatoni,1330.7000000476837,1331,1331.0,True,i,27970.700000047684,1838.8000000715256,1669844733136,1838,HRV,HRV_0309,2022-11-30 22:03:52
16,"[{'imgObject': {}, 'id': 'omelette', 'src': '/static/foodstim60/omelette.jpg', 'key': 'u', 'origWidth': 410, 'origHeight': 409, 'width': 410, 'height': 409, 'widthPercent': 0.45, 'rescaleHeight': False, 'trialN': 16, 'loaded': True, 'loadedTime': 3962.8000000715256, 'positionName': 'LEFT', 'positionCoords': [511.6, 335.5], 'bid': 3.77}, {'imgObject': {}, 'id': 'hotdog w must', 'src': '/static/foodstim60/hotdog w must.jpg', 'key': 'i', 'origWidth': 409, 'origHeight': 409, 'width': 409, 'height': 409, 'widthPercent': 0.45, 'rescaleHeight': False, 'trialN': 16, 'loaded': True, 'loadedTime': 3284.600000023842, 'positionName': 'RIGHT', 'positionCoords': [998.4, 335.5], 'bid': 3.98}]",27970.899999976158,1669844733137,omelette,hotdog w must,3.77,3.98,0.20999999999999996,hotdog w must,659.4000000953674,659,659.7000000476837,True,i,29138.700000047684,1167.8000000715256,1669844734304,1167,HRV,HRV_0309,2022-11-30 22:03:52
17,"[{'imgObject': {}, 'id': 'corn cob', 'src': '/static/foodstim60/corn cob.jpg', 'key': 'u', 'origWidth': 411, 'origHeight': 411, 'width': 411, 'height': 411, 'widthPercent': 0.45, 'rescaleHeight': False, 'trialN': 17, 'loaded': True, 'loadedTime': 3985, 'positionName': 'LEFT', 'positionCoords': [510.6, 334.5], 'bid': 6.890000000000001}, {'imgObject': {}, 'id': 'edamame', 'src': '/static/foodstim60/edamame.jpg', 'key': 'i', 'origWidth': 409, 'origHeight': 410, 'width': 409, 'height': 410, 'widthPercent': 0.45, 'rescaleHeight': False, 'trialN': 17, 'loaded': True, 'loadedTime': 3999.399999976158, 'positionName': 'RIGHT', 'positionCoords': [998.4, 335], 'bid': 5.73}]",29138.899999976158,1669844734305,corn cob,edamame,6.890000000000001,5.73,-1.1600000000000001,corn cob,778.8000000715256,779,779.1000000238419,True,u,30419.5,1280.6000000238419,1669844735585,1280,HRV,HRV_0309,2022-11-30 22:03:52
18,"[{'imgObject': {}, 'id': 'sweetpotato', 'src': '/static/foodstim60/sweetpotato.jpg', 'key': 'u', 'origWidth': 410, 'origHeight': 410, 'width': 410, 'height': 410, 'widthPercent': 0.45, 'rescaleHeight': False, 'trialN': 18, 'loaded': True, 'loadedTime': 4013.8000000715256, 'positionName': 'LEFT', 'positionCoords': [511.6, 335], 'bid': 5.0600000000000005}, {'imgObject': {}, 'id': 'omelette', 'src': '/static/foodstim60/omelette.jpg', 'key': 'i', 'origWidth': 410, 'origHeight': 409, 'width': 410, 'height': 409, 'widthPercent': 0.45, 'rescaleHeight': False, 'trialN': 18, 'loaded': True, 'loadedTime': 3955.7000000476837, 'positionName': 'RIGHT', 'positionCoords': [998.4, 335.5], 'bid': 3.77}]",30419.800000071526,1669844735586,sweetpotato,omelette,5.0600000000000005,3.77,-1.2900000000000005,sweetpotato,834.2999999523163,834,834.5,True,u,31754.800000071526,1335.0,1669844736920,1334,HRV,HRV_0309,2022-11-30 22:03:52
19,"[{'imgObject': {}, 'id': 'bagel and cc', 'src': '/static/foodstim60/bagel and cc.jpg', 'key': 'u', 'origWidth': 410, 'origHeight': 410, 'width': 410, 'height': 410, 'widthPercent': 0.45, 'rescaleHeight': False, 'trialN': 19, 'loaded': True, 'loadedTime': 4053.100000023842, 'positionName': 'LEFT', 'positionCoords': [511.6, 335], 'bid': 8.120000000000001}, {'imgObject': {}, 'id': 'fruitsalad', 'src': '/static/foodstim60/fruitsalad.jpg', 'key': 'i', 'origWidth': 410, 'origHeight': 410, 'width': 410, 'height': 410, 'widthPercent': 0.45, 'rescaleHeight': False, 'trialN': 19, 'loaded': True, 'loadedTime': 3342, 'positionName': 'RIGHT', 'positionCoords': [998.4, 335], 'bid': 7.12}]",31755.200000047684,1669844736921,bagel and cc,fruitsalad,8.120000000000001,7.12,-1.0000000000000009,bagel and cc,899.2999999523163,899,899.5,True,u,33155.0,1399.7999999523163,1669844738321,1400,HRV,HRV_0309,2022-11-30 22:03:52
20,"[{'imgObject': {}, 'id': 'cocktailshrimp', 'src': '/static/foodstim60/cocktailshrimp.jpg', 'key': 'u', 'origWidth': 410, 'origHeight': 410, 'width': 410, 'height': 410, 'widthPercent': 0.45, 'rescaleHeight': False, 'trialN': 20, 'loaded': True, 'loadedTime': 4053.600000023842, 'positionName': 'LEFT', 'positionCoords': [511.6, 335], 'bid': 6.22}, {'imgObject': {}, 'id': 'fried eggs', 'src': '/static/foodstim60/fried eggs.jpg', 'key': 'i', 'origWidth': 410, 'origHeight': 410, 'width': 410, 'height': 410, 'widthPercent': 0.45, 'rescaleHeight': False, 'trialN': 20, 'loaded': True, 'loadedTime': 4077.8000000715256, 'positionName': 'RIGHT', 'positionCoords': [998.4, 335], 'bid': 7.27}]",33155.10000002384,1669844738321,cocktailshrimp,fried eggs,6.22,7.27,1.0499999999999998,fried eggs,851.5,852,851.7000000476837,True,i,34514.0,1358.8999999761581,1669844739680,1359,HRV,HRV_0309,2022-11-30 22:03:52
21,"[{'imgObject': {}, 'id': 'mango', 'src': '/static/foodstim60/mango.jpg', 'key': 'u', 'origWidth': 411, 'origHeight': 411, 'width': 411, 'height': 411, 'widthPercent': 0.45, 'rescaleHeight': False, 'trialN': 21, 'loaded': True, 'loadedTime': 4094.100000023842, 'positionName': 'LEFT', 'positionCoords': [510.6, 334.5], 'bid': 7.72}, {'imgObject': {}, 'id': 'pear', 'src': '/static/foodstim60/pear.jpg', 'key': 'i', 'origWidth': 411, 'origHeight': 410, 'width': 411, 'height': 410, 'widthPercent': 0.45, 'rescaleHeight': False, 'trialN': 21, 'loaded': True, 'loadedTime': 3745.7000000476837, 'positionName': 'RIGHT', 'positionCoords': [998.4, 335], 'bid': 7.82}]",34514.300000071526,1669844739680,mango,pear,7.72,7.82,0.10000000000000053,mango,1636.1999999284744,1636,1636.2999999523163,True,u,36658.60000002384,2144.2999999523163,1669844741824,2144,HRV,HRV_0309,2022-11-30 22:03:52
22,"[{'imgObject': {}, 'id': 'apple slices', 'src': '/static/foodstim60/apple slices.jpg', 'key': 'u', 'origWidth': 409, 'origHeight': 410, 'width': 409, 'height': 410, 'widthPercent': 0.45, 'rescaleHeight': False, 'trialN': 22, 'loaded': True, 'loadedTime': 4120.300000071526, 'positionName': 'LEFT', 'positionCoords': [512.6, 335], 'bid': 7.11}, {'imgObject': {}, 'id': 'mashed potato', 'src': '/static/foodstim60/mashed potato.jpg', 'key': 'i', 'origWidth': 409, 'origHeight': 409, 'width': 409, 'height': 409, 'widthPercent': 0.45, 'rescaleHeight': False, 'trialN': 22, 'loaded': True, 'loadedTime': 4149.5, 'positionName': 'RIGHT', 'positionCoords': [998.4, 335.5], 'bid': 3.61}]",36659.0,1669844741825,apple slices,mashed potato,7.11,3.61,-3.5000000000000004,apple slices,747.3999999761581,747,747.6000000238419,True,u,37915.300000071526,1256.3000000715256,1669844743081,1256,HRV,HRV_0309,2022-11-30 22:03:52
23,"[{'imgObject': {}, 'id': 'Grapes', 'src': '/static/foodstim60/Grapes.jpg', 'key': 'u', 'origWidth': 411, 'origHeight': 411, 'width': 411, 'height': 411, 'widthPercent': 0.45, 'rescaleHeight': False, 'trialN': 23, 'loaded': True, 'loadedTime': 4162.800000071526, 'positionName': 'LEFT', 'positionCoords': [510.6, 334.5], 'bid': 6.15}, {'imgObject': {}, 'id': 'blackbeanswithrice', 'src': '/static/foodstim60/blackbeanswithrice.jpg', 'key': 'i', 'origWidth': 410, 'origHeight': 410, 'width': 410, 'height': 410, 'widthPercent': 0.45, 'rescaleHeight': False, 'trialN': 23, 'loaded': True, 'loadedTime': 3360.5, 'positionName': 'RIGHT', 'positionCoords': [998.4, 335], 'bid': 6.16}]",37915.60000002384,1669844743081,Grapes,blackbeanswithrice,6.15,6.16,0.009999999999999787,blackbeanswithrice,731.0,732,731.2000000476837,True,i,39155.5,1239.8999999761581,1669844744321,1240,HRV,HRV_0309,2022-11-30 22:03:52
24,"[{'imgObject': {}, 'id': 'burrito', 'src': '/static/foodstim60/burrito.jpg', 'key': 'u', 'origWidth': 410, 'origHeight': 410, 'width': 410, 'height': 410, 'widthPercent': 0.45, 'rescaleHeight': False, 'trialN': 24, 'loaded': True, 'loadedTime': 3441.600000023842, 'positionName': 'LEFT', 'positionCoords': [511.6, 335], 'bid': 7}, {'imgObject': {}, 'id': 'salad w chicken', 'src': '/static/foodstim60/salad w chicken.jpg', 'key': 'i', 'origWidth': 411, 'origHeight': 411, 'width': 411, 'height': 411, 'widthPercent': 0.45, 'rescaleHeight': False, 'trialN': 24, 'loaded': True, 'loadedTime': 4169.5, 'positionName': 'RIGHT', 'positionCoords': [998.4, 334.5], 'bid': 7.63}]",39155.89999997616,1669844744322,burrito,salad w chicken,7.0,7.63,0.6299999999999999,burrito,618.5,618,618.8000000715256,True,u,40282.5,1126.6000000238419,1669844745448,1126,HRV,HRV_0309,2022-11-30 22:03:52
25,"[{'imgObject': {}, 'id': 'hotdog w must', 'src': '/static/foodstim60/hotdog w must.jpg', 'key': 'u', 'origWidth': 409, 'origHeight': 409, 'width': 409, 'height': 409, 'widthPercent': 0.45, 'rescaleHeight': False, 'trialN': 25, 'loaded': True, 'loadedTime': 3275.100000023842, 'positionName': 'LEFT', 'positionCoords': [512.6, 335.5], 'bid': 3.98}, {'imgObject': {}, 'id': 'grilled chicken strips', 'src': '/static/foodstim60/grilled chicken strips.jpg', 'key': 'i', 'origWidth': 410, 'origHeight': 411, 'width': 410, 'height': 411, 'widthPercent': 0.45, 'rescaleHeight': False, 'trialN': 25, 'loaded': True, 'loadedTime': 4184.700000047684, 'positionName': 'RIGHT', 'positionCoords': [998.4, 334.5], 'bid': 7.33}]",40282.700000047684,1669844745448,hotdog w must,grilled chicken strips,3.98,7.33,3.35,hotdog w must,851.5,852,851.6999999284744,True,u,41635.300000071526,1352.6000000238419,1669844746801,1353,HRV,HRV_0309,2022-11-30 22:03:52
26,"[{'imgObject': {}, 'id': 'strawberries', 'src': '/static/foodstim60/strawberries.jpg', 'key': 'u', 'origWidth': 410, 'origHeight': 410, 'width': 410, 'height': 410, 'widthPercent': 0.45, 'rescaleHeight': False, 'trialN': 26, 'loaded': True, 'loadedTime': 4230.600000023842, 'positionName': 'LEFT', 'positionCoords': [511.6, 335], 'bid': 7.27}, {'imgObject': {}, 'id': 'grilled chicken strips', 'src': '/static/foodstim60/grilled chicken strips.jpg', 'key': 'i', 'origWidth': 410, 'origHeight': 411, 'width': 410, 'height': 411, 'widthPercent': 0.45, 'rescaleHeight': False, 'trialN': 26, 'loaded': True, 'loadedTime': 4186.600000023842, 'positionName': 'RIGHT', 'positionCoords': [998.4, 334.5], 'bid': 7.33}]",41635.5,1669844746801,strawberries,grilled chicken strips,7.27,7.33,0.0600000000000005,grilled chicken strips,635.6000000238419,636,635.7000000476837,True,i,42778.5,1143.0,1669844747944,1143,HRV,HRV_0309,2022-11-30 22:03:52
27,"[{'imgObject': {}, 'id': 'hashbrowns', 'src': '/static/foodstim60/hashbrowns.jpg', 'key': 'u', 'origWidth': 411, 'origHeight': 410, 'width': 411, 'height': 410, 'widthPercent': 0.45, 'rescaleHeight': False, 'trialN': 27, 'loaded': True, 'loadedTime': 3577.899999976158, 'positionName': 'LEFT', 'positionCoords': [510.6, 335], 'bid': 5.7}, {'imgObject': {}, 'id': 'bagel and cc', 'src': '/static/foodstim60/bagel and cc.jpg', 'key': 'i', 'origWidth': 410, 'origHeight': 410, 'width': 410, 'height': 410, 'widthPercent': 0.45, 'rescaleHeight': False, 'trialN': 27, 'loaded': True, 'loadedTime': 4052.600000023842, 'positionName': 'RIGHT', 'positionCoords': [998.4, 335], 'bid': 8.120000000000001}]",42778.89999997616,1669844747945,hashbrowns,bagel and cc,5.7,8.120000000000001,2.420000000000001,bagel and cc,1539.8000000715256,1540,1540.0,True,i,44819.5,2040.6000000238419,1669844749985,2040,HRV,HRV_0309,2022-11-30 22:03:52
28,"[{'imgObject': {}, 'id': 'omelette', 'src': '/static/foodstim60/omelette.jpg', 'key': 'u', 'origWidth': 410, 'origHeight': 409, 'width': 410, 'height': 409, 'widthPercent': 0.45, 'rescaleHeight': False, 'trialN': 28, 'loaded': True, 'loadedTime': 3962.2000000476837, 'positionName': 'LEFT', 'positionCoords': [511.6, 335.5], 'bid': 3.77}, {'imgObject': {}, 'id': 'cherries', 'src': '/static/foodstim60/cherries.jpg', 'key': 'i', 'origWidth': 410, 'origHeight': 411, 'width': 410, 'height': 411, 'widthPercent': 0.45, 'rescaleHeight': False, 'trialN': 28, 'loaded': True, 'loadedTime': 3801.5, 'positionName': 'RIGHT', 'positionCoords': [998.4, 334.5], 'bid': 3.67}]",44819.800000071526,1669844749986,omelette,cherries,3.77,3.67,-0.10000000000000009,omelette,922.7999999523163,923,923.0999999046326,True,u,46250.5,1430.6999999284744,1669844751416,1430,HRV,HRV_0309,2022-11-30 22:03:52
29,"[{'imgObject': {}, 'id': 'seaweed', 'src': '/static/foodstim60/seaweed.jpg', 'key': 'u', 'origWidth': 410, 'origHeight': 410, 'width': 410, 'height': 410, 'widthPercent': 0.45, 'rescaleHeight': False, 'trialN': 29, 'loaded': True, 'loadedTime': 4243.700000047684, 'positionName': 'LEFT', 'positionCoords': [511.6, 335], 'bid': 5.0200000000000005}, {'imgObject': {}, 'id': 'sweetpotato', 'src': '/static/foodstim60/sweetpotato.jpg', 'key': 'i', 'origWidth': 410, 'origHeight': 410, 'width': 410, 'height': 410, 'widthPercent': 0.45, 'rescaleHeight': False, 'trialN': 29, 'loaded': True, 'loadedTime': 4026.399999976158, 'positionName': 'RIGHT', 'positionCoords': [998.4, 335], 'bid': 5.0600000000000005}]",46250.700000047684,1669844751417,seaweed,sweetpotato,5.0200000000000005,5.0600000000000005,0.040000000000000036,sweetpotato,763.6000000238419,763,764.0,True,i,47522.5,1271.7999999523163,1669844752688,1271,HRV,HRV_0309,2022-11-30 22:03:52
30,"[{'imgObject': {}, 'id': 'omelette', 'src': '/static/foodstim60/omelette.jpg', 'key': 'u', 'origWidth': 410, 'origHeight': 409, 'width': 410, 'height': 409, 'widthPercent': 0.45, 'rescaleHeight': False, 'trialN': 30, 'loaded': True, 'loadedTime': 3968.5, 'positionName': 'LEFT', 'positionCoords': [511.6, 335.5], 'bid': 3.77}, {'imgObject': {}, 'id': 'rigatoni', 'src': '/static/foodstim60/rigatoni.jpg', 'key': 'i', 'origWidth': 411, 'origHeight': 411, 'width': 411, 'height': 411, 'widthPercent': 0.45, 'rescaleHeight': False, 'trialN': 30, 'loaded': True, 'loadedTime': 3937.7000000476837, 'positionName': 'RIGHT', 'positionCoords': [998.4, 334.5], 'bid': 2.46}]",47522.89999997616,1669844752689,omelette,rigatoni,3.77,2.46,-1.31,rigatoni,723.7000000476837,724,723.9000000953674,True,i,48753.89999997616,1231.0,1669844753920,1231,HRV,HRV_0309,2022-11-30 22:03:52
31,"[{'imgObject': {}, 'id': 'omelette', 'src': '/static/foodstim60/omelette.jpg', 'key': 'u', 'origWidth': 410, 'origHeight': 409, 'width': 410, 'height': 409, 'widthPercent': 0.45, 'rescaleHeight': False, 'trialN': 31, 'loaded': True, 'loadedTime': 3963, 'positionName': 'LEFT', 'positionCoords': [511.6, 335.5], 'bid': 3.77}, {'imgObject': {}, 'id': 'fried eggs', 'src': '/static/foodstim60/fried eggs.jpg', 'key': 'i', 'origWidth': 410, 'origHeight': 410, 'width': 410, 'height': 410, 'widthPercent': 0.45, 'rescaleHeight': False, 'trialN': 31, 'loaded': True, 'loadedTime': 4066.3000000715256, 'positionName': 'RIGHT', 'positionCoords': [998.4, 335], 'bid': 7.27}]",48754.200000047684,1669844753920,omelette,fried eggs,3.77,7.27,3.4999999999999996,fried eggs,708.1000000238419,708,708.2999999523163,True,i,49963.300000071526,1209.1000000238419,1669844755129,1209,HRV,HRV_0309,2022-11-30 22:03:52
32,"[{'imgObject': {}, 'id': 'sushi w_condiments', 'src': '/static/foodstim60/sushi w_condiments.jpg', 'key': 'u', 'origWidth': 410, 'origHeight': 410, 'width': 410, 'height': 410, 'widthPercent': 0.45, 'rescaleHeight': False, 'trialN': 32, 'loaded': True, 'loadedTime': 3908.100000023842, 'positionName': 'LEFT', 'positionCoords': [511.6, 335], 'bid': 3.93}, {'imgObject': {}, 'id': 'cantaloupe', 'src': '/static/foodstim60/cantaloupe.jpg', 'key': 'i', 'origWidth': 409, 'origHeight': 409, 'width': 409, 'height': 409, 'widthPercent': 0.45, 'rescaleHeight': False, 'trialN': 32, 'loaded': True, 'loadedTime': 4250.899999976158, 'positionName': 'RIGHT', 'positionCoords': [998.4, 335.5], 'bid': 2.83}]",49963.5,1669844755129,sushi w_condiments,cantaloupe,3.93,2.83,-1.1,cantaloupe,786.7000000476837,787,786.8999999761581,True,i,51250.700000047684,1287.2000000476837,1669844756416,1287,HRV,HRV_0309,2022-11-30 22:03:52
33,"[{'imgObject': {}, 'id': 'turkeysandwich', 'src': '/static/foodstim60/turkeysandwich.jpg', 'key': 'u', 'origWidth': 409, 'origHeight': 409, 'width': 409, 'height': 409, 'widthPercent': 0.45, 'rescaleHeight': False, 'trialN': 33, 'loaded': True, 'loadedTime': 4262.600000023842, 'positionName': 'LEFT', 'positionCoords': [512.6, 335.5], 'bid': 7.95}, {'imgObject': {}, 'id': 'grilled chicken strips', 'src': '/static/foodstim60/grilled chicken strips.jpg', 'key': 'i', 'origWidth': 410, 'origHeight': 411, 'width': 410, 'height': 411, 'widthPercent': 0.45, 'rescaleHeight': False, 'trialN': 33, 'loaded': True, 'loadedTime': 4191.600000023842, 'positionName': 'RIGHT', 'positionCoords': [998.4, 334.5], 'bid': 7.33}]",51251.10000002384,1669844756417,turkeysandwich,grilled chicken strips,7.95,7.33,-0.6200000000000001,grilled chicken strips,851.2999999523163,851,851.6000000238419,True,i,52609.200000047684,1358.1000000238419,1669844757775,1358,HRV,HRV_0309,2022-11-30 22:03:52
34,"[{'imgObject': {}, 'id': 'seaweed', 'src': '/static/foodstim60/seaweed.jpg', 'key': 'u', 'origWidth': 410, 'origHeight': 410, 'width': 410, 'height': 410, 'widthPercent': 0.45, 'rescaleHeight': False, 'trialN': 34, 'loaded': True, 'loadedTime': 4243.399999976158, 'positionName': 'LEFT', 'positionCoords': [511.6, 335], 'bid': 5.0200000000000005}, {'imgObject': {}, 'id': 'mango', 'src': '/static/foodstim60/mango.jpg', 'key': 'i', 'origWidth': 411, 'origHeight': 411, 'width': 411, 'height': 411, 'widthPercent': 0.45, 'rescaleHeight': False, 'trialN': 34, 'loaded': True, 'loadedTime': 4078.100000023842, 'positionName': 'RIGHT', 'positionCoords': [998.4, 334.5], 'bid': 7.72}]",52610.10000002384,1669844757776,seaweed,mango,5.0200000000000005,7.72,2.6999999999999993,mango,1212.7000000476837,1213,1212.8999999761581,True,i,54330.700000047684,1720.6000000238419,1669844759496,1720,HRV,HRV_0309,2022-11-30 22:03:52
35,"[{'imgObject': {}, 'id': 'raspberries', 'src': '/static/foodstim60/raspberries.jpg', 'key': 'u', 'origWidth': 411, 'origHeight': 411, 'width': 411, 'height': 411, 'widthPercent': 0.45, 'rescaleHeight': False, 'trialN': 35, 'loaded': True, 'loadedTime': 4275.300000071526, 'positionName': 'LEFT', 'positionCoords': [510.6, 334.5], 'bid': 3.42}, {'imgObject': {}, 'id': 'kiwi', 'src': '/static/foodstim60/kiwi.jpg', 'key': 'i', 'origWidth': 410, 'origHeight': 410, 'width': 410, 'height': 410, 'widthPercent': 0.45, 'rescaleHeight': False, 'trialN': 35, 'loaded': True, 'loadedTime': 4315, 'positionName': 'RIGHT', 'positionCoords': [998.4, 335], 'bid': 5.66}]",54331.10000002384,1669844759497,raspberries,kiwi,3.42,5.66,2.24,raspberries,1531.5,1532,1531.7999999523163,True,u,56370.60000002384,2039.5,1669844761536,2039,HRV,HRV_0309,2022-11-30 22:03:52
36,"[{'imgObject': {}, 'id': 'granola w milk', 'src': '/static/foodstim60/granola w milk.jpg', 'key': 'u', 'origWidth': 410, 'origHeight': 410, 'width': 410, 'height': 410, 'widthPercent': 0.45, 'rescaleHeight': False, 'trialN': 36, 'loaded': True, 'loadedTime': 3523.8000000715256, 'positionName': 'LEFT', 'positionCoords': [511.6, 335], 'bid': 0.48}, {'imgObject': {}, 'id': 'cocktailshrimp', 'src': '/static/foodstim60/cocktailshrimp.jpg', 'key': 'i', 'origWidth': 410, 'origHeight': 410, 'width': 410, 'height': 410, 'widthPercent': 0.45, 'rescaleHeight': False, 'trialN': 36, 'loaded': True, 'loadedTime': 4066, 'positionName': 'RIGHT', 'positionCoords': [998.4, 335], 'bid': 6.22}]",56371.0,1669844761537,granola w milk,cocktailshrimp,0.48,6.22,5.74,cocktailshrimp,819.5,819,819.7000000476837,True,i,57691.0,1320.0,1669844762857,1320,HRV,HRV_0309,2022-11-30 22:03:52
37,"[{'imgObject': {}, 'id': 'shreddedwheatwithmilk', 'src': '/static/foodstim60/shreddedwheatwithmilk.jpg', 'key': 'u', 'origWidth': 410, 'origHeight': 410, 'width': 410, 'height': 410, 'widthPercent': 0.45, 'rescaleHeight': False, 'trialN': 37, 'loaded': True, 'loadedTime': 4321.700000047684, 'positionName': 'LEFT', 'positionCoords': [511.6, 335], 'bid': 3.5700000000000003}, {'imgObject': {}, 'id': 'sushi w_condiments', 'src': '/static/foodstim60/sushi w_condiments.jpg', 'key': 'i', 'origWidth': 410, 'origHeight': 410, 'width': 410, 'height': 410, 'widthPercent': 0.45, 'rescaleHeight': False, 'trialN': 37, 'loaded': True, 'loadedTime': 3899.3000000715256, 'positionName': 'RIGHT', 'positionCoords': [998.4, 335], 'bid': 3.93}]",57691.10000002384,1669844762857,shreddedwheatwithmilk,sushi w_condiments,3.5700000000000003,3.93,0.3599999999999999,sushi w_condiments,971.6000000238419,972,971.7999999523163,True,i,59170.60000002384,1479.5,1669844764336,1479,HRV,HRV_0309,2022-11-30 22:03:52
38,"[{'imgObject': {}, 'id': 'salad w chicken', 'src': '/static/foodstim60/salad w chicken.jpg', 'key': 'u', 'origWidth': 411, 'origHeight': 411, 'width': 411, 'height': 411, 'widthPercent': 0.45, 'rescaleHeight': False, 'trialN': 38, 'loaded': True, 'loadedTime': 4169.800000071526, 'positionName': 'LEFT', 'positionCoords': [510.6, 334.5], 'bid': 7.63}, {'imgObject': {}, 'id': 'cheerios', 'src': '/static/foodstim60/cheerios.jpg', 'key': 'i', 'origWidth': 409, 'origHeight': 410, 'width': 409, 'height': 410, 'widthPercent': 0.45, 'rescaleHeight': False, 'trialN': 38, 'loaded': True, 'loadedTime': 3605.8000000715256, 'positionName': 'RIGHT', 'positionCoords': [998.4, 335], 'bid': 6.75}]",59170.89999997616,1669844764337,salad w chicken,cheerios,7.63,6.75,-0.8799999999999999,cheerios,955.5,955,955.7000000476837,True,i,60633.700000047684,1462.8000000715256,1669844765799,1462,HRV,HRV_0309,2022-11-30 22:03:52
39,"[{'imgObject': {}, 'id': 'avocado', 'src': '/static/foodstim60/avocado.jpg', 'key': 'u', 'origWidth': 409, 'origHeight': 409, 'width': 409, 'height': 409, 'widthPercent': 0.45, 'rescaleHeight': False, 'trialN': 39, 'loaded': True, 'loadedTime': 3427, 'positionName': 'LEFT', 'positionCoords': [512.6, 335.5], 'bid': 1.38}, {'imgObject': {}, 'id': 'tacos', 'src': '/static/foodstim60/tacos.jpg', 'key': 'i', 'origWidth': 411, 'origHeight': 411, 'width': 411, 'height': 411, 'widthPercent': 0.45, 'rescaleHeight': False, 'trialN': 39, 'loaded': True, 'loadedTime': 3647.2000000476837, 'positionName': 'RIGHT', 'positionCoords': [998.4, 334.5], 'bid': 6.57}]",60634.0,1669844765800,avocado,tacos,1.38,6.57,5.19,tacos,700.5,701,700.8000000715256,True,i,61842.60000002384,1208.6000000238419,1669844767008,1208,HRV,HRV_0309,2022-11-30 22:03:52
40,"[{'imgObject': {}, 'id': 'chicken nuggets2', 'src': '/static/foodstim60/chicken nuggets2.jpg', 'key': 'u', 'origWidth': 410, 'origHeight': 409, 'width': 410, 'height': 409, 'widthPercent': 0.45, 'rescaleHeight': False, 'trialN': 40, 'loaded': True, 'loadedTime': 4339.100000023842, 'positionName': 'LEFT', 'positionCoords': [511.6, 335.5], 'bid': 8.72}, {'imgObject': {}, 'id': 'strawberries', 'src': '/static/foodstim60/strawberries.jpg', 'key': 'i', 'origWidth': 410, 'origHeight': 410, 'width': 410, 'height': 410, 'widthPercent': 0.45, 'rescaleHeight': False, 'trialN': 40, 'loaded': True, 'loadedTime': 4197, 'positionName': 'RIGHT', 'positionCoords': [998.4, 335], 'bid': 7.27}]",61843.0,1669844767009,chicken nuggets2,strawberries,8.72,7.27,-1.450000000000001,chicken nuggets2,723.2000000476837,723,723.3999999761581,True,u,63075.39999997616,1232.3999999761581,1669844768241,1232,HRV,HRV_0309,2022-11-30 22:03:52
41,"[{'imgObject': {}, 'id': 'burger', 'src': '/static/foodstim60/burger.jpg', 'key': 'u', 'origWidth': 409, 'origHeight': 409, 'width': 409, 'height': 409, 'widthPercent': 0.45, 'rescaleHeight': False, 'trialN': 41, 'loaded': True, 'loadedTime': 3685.899999976158, 'positionName': 'LEFT', 'positionCoords': [512.6, 335.5], 'bid': 6.48}, {'imgObject': {}, 'id': 'edamame', 'src': '/static/foodstim60/edamame.jpg', 'key': 'i', 'origWidth': 409, 'origHeight': 410, 'width': 409, 'height': 410, 'widthPercent': 0.45, 'rescaleHeight': False, 'trialN': 41, 'loaded': True, 'loadedTime': 3999.899999976158, 'positionName': 'RIGHT', 'positionCoords': [998.4, 335], 'bid': 5.73}]",63075.60000002384,1669844768241,burger,edamame,6.48,5.73,-0.75,burger,1011.0,1012,1011.2999999523163,True,u,64587.60000002384,1512.0,1669844769753,1512,HRV,HRV_0309,2022-11-30 22:03:52
42,"[{'imgObject': {}, 'id': 'mango', 'src': '/static/foodstim60/mango.jpg', 'key': 'u', 'origWidth': 411, 'origHeight': 411, 'width': 411, 'height': 411, 'widthPercent': 0.45, 'rescaleHeight': False, 'trialN': 42, 'loaded': True, 'loadedTime': 4083.899999976158, 'positionName': 'LEFT', 'positionCoords': [510.6, 334.5], 'bid': 7.72}, {'imgObject': {}, 'id': 'chicken nuggets2', 'src': '/static/foodstim60/chicken nuggets2.jpg', 'key': 'i', 'origWidth': 410, 'origHeight': 409, 'width': 410, 'height': 409, 'widthPercent': 0.45, 'rescaleHeight': False, 'trialN': 42, 'loaded': True, 'loadedTime': 4333.5, 'positionName': 'RIGHT', 'positionCoords': [998.4, 335.5], 'bid': 8.72}]",64588.0,1669844769754,mango,chicken nuggets2,7.72,8.72,1.0000000000000009,chicken nuggets2,810.3999999761581,810,810.6000000238419,True,i,65899.5,1311.5,1669844771065,1311,HRV,HRV_0309,2022-11-30 22:03:52
43,"[{'imgObject': {}, 'id': 'avocado', 'src': '/static/foodstim60/avocado.jpg', 'key': 'u', 'origWidth': 409, 'origHeight': 409, 'width': 409, 'height': 409, 'widthPercent': 0.45, 'rescaleHeight': False, 'trialN': 43, 'loaded': True, 'loadedTime': 3421.2000000476837, 'positionName': 'LEFT', 'positionCoords': [512.6, 335.5], 'bid': 1.38}, {'imgObject': {}, 'id': 'eggsalad', 'src': '/static/foodstim60/eggsalad.jpg', 'key': 'i', 'origWidth': 410, 'origHeight': 409, 'width': 410, 'height': 409, 'widthPercent': 0.45, 'rescaleHeight': False, 'trialN': 43, 'loaded': True, 'loadedTime': 3937.100000023842, 'positionName': 'RIGHT', 'positionCoords': [998.4, 335.5], 'bid': 2.11}]",65899.70000004768,1669844771066,avocado,eggsalad,1.38,2.11,0.73,avocado,1074.7999999523163,1075,1075.1000000238419,True,u,67475.60000002384,1575.8999999761581,1669844772641,1575,HRV,HRV_0309,2022-11-30 22:03:52
44,"[{'imgObject': {}, 'id': 'corn cob', 'src': '/static/foodstim60/corn cob.jpg', 'key': 'u', 'origWidth': 411, 'origHeight': 411, 'width': 411, 'height': 411, 'widthPercent': 0.45, 'rescaleHeight': False, 'trialN': 44, 'loaded': True, 'loadedTime': 3968.8000000715256, 'positionName': 'LEFT', 'positionCoords': [510.6, 334.5], 'bid': 6.890000000000001}, {'imgObject': {}, 'id': 'cheerios', 'src': '/static/foodstim60/cheerios.jpg', 'key': 'i', 'origWidth': 409, 'origHeight': 410, 'width': 409, 'height': 410, 'widthPercent': 0.45, 'rescaleHeight': False, 'trialN': 44, 'loaded': True, 'loadedTime': 3611.3000000715256, 'positionName': 'RIGHT', 'positionCoords': [998.4, 335], 'bid': 6.75}]",67475.89999997616,1669844772642,corn cob,cheerios,6.890000000000001,6.75,-0.14000000000000057,corn cob,746.7000000476837,747,746.9000000953674,True,u,68730.60000002384,1254.7000000476837,1669844773896,1254,HRV,HRV_0309,2022-11-30 22:03:52
45,"[{'imgObject': {}, 'id': 'blackbeanswithrice', 'src': '/static/foodstim60/blackbeanswithrice.jpg', 'key': 'u', 'origWidth': 410, 'origHeight': 410, 'width': 410, 'height': 410, 'widthPercent': 0.45, 'rescaleHeight': False, 'trialN': 45, 'loaded': True, 'loadedTime': 3371.100000023842, 'positionName': 'LEFT', 'positionCoords': [511.6, 335], 'bid': 6.16}, {'imgObject': {}, 'id': 'mac & cheese', 'src': '/static/foodstim60/mac & cheese.jpg', 'key': 'i', 'origWidth': 410, 'origHeight': 410, 'width': 410, 'height': 410, 'widthPercent': 0.45, 'rescaleHeight': False, 'trialN': 45, 'loaded': True, 'loadedTime': 4341.700000047684, 'positionName': 'RIGHT', 'positionCoords': [998.4, 335], 'bid': 4.94}]",68731.0,1669844773897,blackbeanswithrice,mac & cheese,6.16,4.94,-1.2199999999999998,blackbeanswithrice,603.8000000715256,604,604.0,True,u,69835.5,1104.5,1669844775001,1104,HRV,HRV_0309,2022-11-30 22:03:52
46,"[{'imgObject': {}, 'id': 'tacos', 'src': '/static/foodstim60/tacos.jpg', 'key': 'u', 'origWidth': 411, 'origHeight': 411, 'width': 411, 'height': 411, 'widthPercent': 0.45, 'rescaleHeight': False, 'trialN': 46, 'loaded': True, 'loadedTime': 3641.5, 'positionName': 'LEFT', 'positionCoords': [510.6, 334.5], 'bid': 6.57}, {'imgObject': {}, 'id': 'chickenfingers', 'src': '/static/foodstim60/chickenfingers.jpg', 'key': 'i', 'origWidth': 410, 'origHeight': 410, 'width': 410, 'height': 410, 'widthPercent': 0.45, 'rescaleHeight': False, 'trialN': 46, 'loaded': True, 'loadedTime': 3715.3000000715256, 'positionName': 'RIGHT', 'positionCoords': [998.4, 335], 'bid': 6.62}]",69835.70000004768,1669844775002,tacos,chickenfingers,6.57,6.62,0.04999999999999982,tacos,667.1000000238419,667,667.3999999761581,True,u,71003.5,1167.7999999523163,1669844776169,1167,HRV,HRV_0309,2022-11-30 22:03:52
47,"[{'imgObject': {}, 'id': 'ice cream sundae 002', 'src': '/static/foodstim60/ice cream sundae 002.jpg', 'key': 'u', 'origWidth': 409, 'origHeight': 409, 'width': 409, 'height': 409, 'widthPercent': 0.45, 'rescaleHeight': False, 'trialN': 47, 'loaded': True, 'loadedTime': 4354.700000047684, 'positionName': 'LEFT', 'positionCoords': [512.6, 335.5], 'bid': 4.93}, {'imgObject': {}, 'id': 'orange slices', 'src': '/static/foodstim60/orange slices.jpg', 'key': 'i', 'origWidth': 409, 'origHeight': 410, 'width': 409, 'height': 410, 'widthPercent': 0.45, 'rescaleHeight': False, 'trialN': 47, 'loaded': True, 'loadedTime': 4361.5, 'positionName': 'RIGHT', 'positionCoords': [998.4, 335], 'bid': 7.44}]",71003.80000007153,1669844776170,ice cream sundae 002,orange slices,4.93,7.44,2.5100000000000007,orange slices,1530.6999999284744,1531,1530.8999999761581,True,i,73042.5,2038.6999999284744,1669844778208,2038,HRV,HRV_0309,2022-11-30 22:03:52
48,"[{'imgObject': {}, 'id': 'baked potato', 'src': '/static/foodstim60/baked potato.jpg', 'key': 'u', 'origWidth': 409, 'origHeight': 410, 'width': 409, 'height': 410, 'widthPercent': 0.45, 'rescaleHeight': False, 'trialN': 48, 'loaded': True, 'loadedTime': 4403.399999976158, 'positionName': 'LEFT', 'positionCoords': [512.6, 335], 'bid': 7.05}, {'imgObject': {}, 'id': 'corn cob', 'src': '/static/foodstim60/corn cob.jpg', 'key': 'i', 'origWidth': 411, 'origHeight': 411, 'width': 411, 'height': 411, 'widthPercent': 0.45, 'rescaleHeight': False, 'trialN': 48, 'loaded': True, 'loadedTime': 3974.8000000715256, 'positionName': 'RIGHT', 'positionCoords': [998.4, 334.5], 'bid': 6.890000000000001}]",73042.89999997616,1669844778209,baked potato,corn cob,7.05,6.890000000000001,-0.15999999999999925,corn cob,1323.7000000476837,1324,1324.0,True,i,74874.5,1831.6000000238419,1669844780040,1831,HRV,HRV_0309,2022-11-30 22:03:52
49,"[{'imgObject': {}, 'id': 'raisin bran w milk', 'src': '/static/foodstim60/raisin bran w milk.jpg', 'key': 'u', 'origWidth': 411, 'origHeight': 411, 'width': 411, 'height': 411, 'widthPercent': 0.45, 'rescaleHeight': False, 'trialN': 49, 'loaded': True, 'loadedTime': 3878.5, 'positionName': 'LEFT', 'positionCoords': [510.6, 334.5], 'bid': 0}, {'imgObject': {}, 'id': 'mashed potato', 'src': '/static/foodstim60/mashed potato.jpg', 'key': 'i', 'origWidth': 409, 'origHeight': 409, 'width': 409, 'height': 409, 'widthPercent': 0.45, 'rescaleHeight': False, 'trialN': 49, 'loaded': True, 'loadedTime': 4155.100000023842, 'positionName': 'RIGHT', 'positionCoords': [998.4, 335.5], 'bid': 3.61}]",74874.89999997616,1669844780041,raisin bran w milk,mashed potato,0.0,3.61,3.61,mashed potato,1483.9000000953674,1484,1484.1000000238419,True,i,76867.20000004768,1992.3000000715256,1669844782033,1992,HRV,HRV_0309,2022-11-30 22:03:52
50,"[{'imgObject': {}, 'id': 'baked potato', 'src': '/static/foodstim60/baked potato.jpg', 'key': 'u', 'origWidth': 409, 'origHeight': 410, 'width': 409, 'height': 410, 'widthPercent': 0.45, 'rescaleHeight': False, 'trialN': 50, 'loaded': True, 'loadedTime': 4397.700000047684, 'positionName': 'LEFT', 'positionCoords': [512.6, 335], 'bid': 7.05}, {'imgObject': {}, 'id': 'chicken nuggets2', 'src': '/static/foodstim60/chicken nuggets2.jpg', 'key': 'i', 'origWidth': 410, 'origHeight': 409, 'width': 410, 'height': 409, 'widthPercent': 0.45, 'rescaleHeight': False, 'trialN': 50, 'loaded': True, 'loadedTime': 4334.200000047684, 'positionName': 'RIGHT', 'positionCoords': [998.4, 335.5], 'bid': 8.72}]",76867.70000004768,1669844782034,baked potato,chicken nuggets2,7.05,8.72,1.6700000000000008,chicken nuggets2,954.6000000238419,954,954.8999999761581,True,i,78331.39999997616,1463.6999999284744,1669844783497,1463,HRV,HRV_0309,2022-11-30 22:03:52
51,"[{'imgObject': {}, 'id': 'sweetpotato', 'src': '/static/foodstim60/sweetpotato.jpg', 'key': 'u', 'origWidth': 410, 'origHeight': 410, 'width': 410, 'height': 410, 'widthPercent': 0.45, 'rescaleHeight': False, 'trialN': 51, 'loaded': True, 'loadedTime': 4012.3000000715256, 'positionName': 'LEFT', 'positionCoords': [511.6, 335], 'bid': 5.0600000000000005}, {'imgObject': {}, 'id': 'pear', 'src': '/static/foodstim60/pear.jpg', 'key': 'i', 'origWidth': 411, 'origHeight': 410, 'width': 411, 'height': 410, 'widthPercent': 0.45, 'rescaleHeight': False, 'trialN': 51, 'loaded': True, 'loadedTime': 3726.899999976158, 'positionName': 'RIGHT', 'positionCoords': [998.4, 335], 'bid': 7.82}]",78331.70000004768,1669844783498,sweetpotato,pear,5.0600000000000005,7.82,2.76,sweetpotato,754.0,754,754.2999999523163,True,u,79594.5,1262.7999999523163,1669844784760,1262,HRV,HRV_0309,2022-11-30 22:03:52
52,"[{'imgObject': {}, 'id': 'bagel plain', 'src': '/static/foodstim60/bagel plain.jpg', 'key': 'u', 'origWidth': 410, 'origHeight': 410, 'width': 410, 'height': 410, 'widthPercent': 0.45, 'rescaleHeight': False, 'trialN': 52, 'loaded': True, 'loadedTime': 3853.399999976158, 'positionName': 'LEFT', 'positionCoords': [511.6, 335], 'bid': 6.1000000000000005}, {'imgObject': {}, 'id': 'chicken nuggets2', 'src': '/static/foodstim60/chicken nuggets2.jpg', 'key': 'i', 'origWidth': 410, 'origHeight': 409, 'width': 410, 'height': 409, 'widthPercent': 0.45, 'rescaleHeight': False, 'trialN': 52, 'loaded': True, 'loadedTime': 4339.5, 'positionName': 'RIGHT', 'positionCoords': [998.4, 335.5], 'bid': 8.72}]",79595.0,1669844784761,bagel plain,chicken nuggets2,6.1000000000000005,8.72,2.62,chicken nuggets2,1339.5,1340,1339.8000000715256,True,i,81435.60000002384,1840.6000000238419,1669844786601,1840,HRV,HRV_0309,2022-11-30 22:03:52
53,"[{'imgObject': {}, 'id': 'rigatoni', 'src': '/static/foodstim60/rigatoni.jpg', 'key': 'u', 'origWidth': 411, 'origHeight': 411, 'width': 411, 'height': 411, 'widthPercent': 0.45, 'rescaleHeight': False, 'trialN': 53, 'loaded': True, 'loadedTime': 3955.3000000715256, 'positionName': 'LEFT', 'positionCoords': [510.6, 334.5], 'bid': 2.46}, {'imgObject': {}, 'id': 'popsicles', 'src': '/static/foodstim60/popsicles.jpg', 'key': 'i', 'origWidth': 410, 'origHeight': 410, 'width': 410, 'height': 410, 'widthPercent': 0.45, 'rescaleHeight': False, 'trialN': 53, 'loaded': True, 'loadedTime': 3390.7000000476837, 'positionName': 'RIGHT', 'positionCoords': [998.4, 335], 'bid': 1.78}]",81435.89999997616,1669844786602,rigatoni,popsicles,2.46,1.78,-0.6799999999999999,rigatoni,874.7000000476837,875,874.9000000953674,True,u,82818.80000007153,1382.9000000953674,1669844787985,1383,HRV,HRV_0309,2022-11-30 22:03:52
54,"[{'imgObject': {}, 'id': 'rigatoni and sauce', 'src': '/static/foodstim60/rigatoni and sauce.jpg', 'key': 'u', 'origWidth': 410, 'origHeight': 411, 'width': 410, 'height': 411, 'widthPercent': 0.45, 'rescaleHeight': False, 'trialN': 54, 'loaded': True, 'loadedTime': 3482.2000000476837, 'positionName': 'LEFT', 'positionCoords': [511.6, 334.5], 'bid': 3.56}, {'imgObject': {}, 'id': 'raspberries', 'src': '/static/foodstim60/raspberries.jpg', 'key': 'i', 'origWidth': 411, 'origHeight': 411, 'width': 411, 'height': 411, 'widthPercent': 0.45, 'rescaleHeight': False, 'trialN': 54, 'loaded': True, 'loadedTime': 4273.200000047684, 'positionName': 'RIGHT', 'positionCoords': [998.4, 334.5], 'bid': 3.42}]",82819.10000002384,1669844787985,rigatoni and sauce,raspberries,3.56,3.42,-0.14000000000000012,rigatoni and sauce,611.5,612,611.7000000476837,True,u,83938.39999997616,1119.2999999523163,1669844789104,1119,HRV,HRV_0309,2022-11-30 22:03:52
55,"[{'imgObject': {}, 'id': 'corn cob', 'src': '/static/foodstim60/corn cob.jpg', 'key': 'u', 'origWidth': 411, 'origHeight': 411, 'width': 411, 'height': 411, 'widthPercent': 0.45, 'rescaleHeight': False, 'trialN': 55, 'loaded': True, 'loadedTime': 3970, 'positionName': 'LEFT', 'positionCoords': [510.6, 334.5], 'bid': 6.890000000000001}, {'imgObject': {}, 'id': 'mango', 'src': '/static/foodstim60/mango.jpg', 'key': 'i', 'origWidth': 411, 'origHeight': 411, 'width': 411, 'height': 411, 'widthPercent': 0.45, 'rescaleHeight': False, 'trialN': 55, 'loaded': True, 'loadedTime': 4088.8000000715256, 'positionName': 'RIGHT', 'positionCoords': [998.4, 334.5], 'bid': 7.72}]",83938.70000004768,1669844789105,corn cob,mango,6.890000000000001,7.72,0.8299999999999992,corn cob,620.1999999284744,620,620.3999999761581,True,u,85066.60000002384,1127.8999999761581,1669844790232,1127,HRV,HRV_0309,2022-11-30 22:03:52
56,"[{'imgObject': {}, 'id': 'mashed potato', 'src': '/static/foodstim60/mashed potato.jpg', 'key': 'u', 'origWidth': 409, 'origHeight': 409, 'width': 409, 'height': 409, 'widthPercent': 0.45, 'rescaleHeight': False, 'trialN': 56, 'loaded': True, 'loadedTime': 4150, 'positionName': 'LEFT', 'positionCoords': [512.6, 335.5], 'bid': 3.61}, {'imgObject': {}, 'id': 'lox', 'src': '/static/foodstim60/lox.jpg', 'key': 'i', 'origWidth': 410, 'origHeight': 411, 'width': 410, 'height': 411, 'widthPercent': 0.45, 'rescaleHeight': False, 'trialN': 56, 'loaded': True, 'loadedTime': 4406.399999976158, 'positionName': 'RIGHT', 'positionCoords': [998.4, 334.5], 'bid': 3.5700000000000003}]",85066.89999997616,1669844790233,mashed potato,lox,3.61,3.5700000000000003,-0.03999999999999959,mashed potato,1051.8000000715256,1052,1051.9000000953674,True,u,86619.5,1552.6000000238419,1669844791785,1552,HRV,HRV_0309,2022-11-30 22:03:52
57,"[{'imgObject': {}, 'id': 'lox', 'src': '/static/foodstim60/lox.jpg', 'key': 'u', 'origWidth': 410, 'origHeight': 411, 'width': 410, 'height': 411, 'widthPercent': 0.45, 'rescaleHeight': False, 'trialN': 57, 'loaded': True, 'loadedTime': 4406.100000023842, 'positionName': 'LEFT', 'positionCoords': [511.6, 334.5], 'bid': 3.5700000000000003}, {'imgObject': {}, 'id': 'shreddedwheatwithmilk', 'src': '/static/foodstim60/shreddedwheatwithmilk.jpg', 'key': 'i', 'origWidth': 410, 'origHeight': 410, 'width': 410, 'height': 410, 'widthPercent': 0.45, 'rescaleHeight': False, 'trialN': 57, 'loaded': True, 'loadedTime': 4322, 'positionName': 'RIGHT', 'positionCoords': [998.4, 335], 'bid': 3.5700000000000003}]",86619.89999997616,1669844791786,lox,shreddedwheatwithmilk,3.5700000000000003,3.5700000000000003,0.0,lox,914.6000000238419,915,914.8000000715256,True,u,88042.5,1422.6000000238419,1669844793208,1422,HRV,HRV_0309,2022-11-30 22:03:52
58,"[{'imgObject': {}, 'id': 'chickenfingers', 'src': '/static/foodstim60/chickenfingers.jpg', 'key': 'u', 'origWidth': 410, 'origHeight': 410, 'width': 410, 'height': 410, 'widthPercent': 0.45, 'rescaleHeight': False, 'trialN': 58, 'loaded': True, 'loadedTime': 3721, 'positionName': 'LEFT', 'positionCoords': [511.6, 335], 'bid': 6.62}, {'imgObject': {}, 'id': 'popsicles', 'src': '/static/foodstim60/popsicles.jpg', 'key': 'i', 'origWidth': 410, 'origHeight': 410, 'width': 410, 'height': 410, 'widthPercent': 0.45, 'rescaleHeight': False, 'trialN': 58, 'loaded': True, 'loadedTime': 3385.100000023842, 'positionName': 'RIGHT', 'positionCoords': [998.4, 335], 'bid': 1.78}]",88042.80000007153,1669844793209,chickenfingers,popsicles,6.62,1.78,-4.84,chickenfingers,562.7999999523163,563,563.1999999284744,True,u,89115.5,1072.6999999284744,1669844794281,1072,HRV,HRV_0309,2022-11-30 22:03:52
59,"[{'imgObject': {}, 'id': 'yogurt no spoon', 'src': '/static/foodstim60/yogurt no spoon.jpg', 'key': 'u', 'origWidth': 411, 'origHeight': 410, 'width': 411, 'height': 410, 'widthPercent': 0.45, 'rescaleHeight': False, 'trialN': 59, 'loaded': True, 'loadedTime': 4413.600000023842, 'positionName': 'LEFT', 'positionCoords': [510.6, 335], 'bid': 3.61}, {'imgObject': {}, 'id': 'shreddedwheatwithmilk', 'src': '/static/foodstim60/shreddedwheatwithmilk.jpg', 'key': 'i', 'origWidth': 410, 'origHeight': 410, 'width': 410, 'height': 410, 'widthPercent': 0.45, 'rescaleHeight': False, 'trialN': 59, 'loaded': True, 'loadedTime': 4315.600000023842, 'positionName': 'RIGHT', 'positionCoords': [998.4, 335], 'bid': 3.5700000000000003}]",89115.80000007153,1669844794282,yogurt no spoon,shreddedwheatwithmilk,3.61,3.5700000000000003,-0.03999999999999959,shreddedwheatwithmilk,1242.7999999523163,1243,1243.0999999046326,True,i,90867.5,1751.6999999284744,1669844796033,1751,HRV,HRV_0309,2022-11-30 22:03:52
60,"[{'imgObject': {}, 'id': 'luckycharms', 'src': '/static/foodstim60/luckycharms.jpg', 'key': 'u', 'origWidth': 410, 'origHeight': 409, 'width': 410, 'height': 409, 'widthPercent': 0.45, 'rescaleHeight': False, 'trialN': 60, 'loaded': True, 'loadedTime': 4415.800000071526, 'positionName': 'LEFT', 'positionCoords': [511.6, 335.5], 'bid': 7.04}, {'imgObject': {}, 'id': 'cheerios', 'src': '/static/foodstim60/cheerios.jpg', 'key': 'i', 'origWidth': 409, 'origHeight': 410, 'width': 409, 'height': 410, 'widthPercent': 0.45, 'rescaleHeight': False, 'trialN': 60, 'loaded': True, 'loadedTime': 3591.8000000715256, 'positionName': 'RIGHT', 'positionCoords': [998.4, 335], 'bid': 6.75}]",90868.0,1669844796034,luckycharms,cheerios,7.04,6.75,-0.29000000000000004,cheerios,650.3999999761581,650,650.6000000238419,True,i,92019.5,1151.5,1669844797185,1151,HRV,HRV_0309,2022-11-30 22:03:52
61,"[{'imgObject': {}, 'id': 'raspberries', 'src': '/static/foodstim60/raspberries.jpg', 'key': 'u', 'origWidth': 411, 'origHeight': 411, 'width': 411, 'height': 411, 'widthPercent': 0.45, 'rescaleHeight': False, 'trialN': 61, 'loaded': True, 'loadedTime': 4275, 'positionName': 'LEFT', 'positionCoords': [510.6, 334.5], 'bid': 3.42}, {'imgObject': {}, 'id': 'cantaloupe', 'src': '/static/foodstim60/cantaloupe.jpg', 'key': 'i', 'origWidth': 409, 'origHeight': 409, 'width': 409, 'height': 409, 'widthPercent': 0.45, 'rescaleHeight': False, 'trialN': 61, 'loaded': True, 'loadedTime': 4246.100000023842, 'positionName': 'RIGHT', 'positionCoords': [998.4, 335.5], 'bid': 2.83}]",92019.89999997616,1669844797186,raspberries,cantaloupe,3.42,2.83,-0.5899999999999999,raspberries,746.0,746,746.2000000476837,True,u,93266.80000007153,1246.9000000953674,1669844798433,1247,HRV,HRV_0309,2022-11-30 22:03:52
62,"[{'imgObject': {}, 'id': 'cocktailshrimp', 'src': '/static/foodstim60/cocktailshrimp.jpg', 'key': 'u', 'origWidth': 410, 'origHeight': 410, 'width': 410, 'height': 410, 'widthPercent': 0.45, 'rescaleHeight': False, 'trialN': 62, 'loaded': True, 'loadedTime': 4059.5, 'positionName': 'LEFT', 'positionCoords': [511.6, 335], 'bid': 6.22}, {'imgObject': {}, 'id': 'tacos', 'src': '/static/foodstim60/tacos.jpg', 'key': 'i', 'origWidth': 411, 'origHeight': 411, 'width': 411, 'height': 411, 'widthPercent': 0.45, 'rescaleHeight': False, 'trialN': 62, 'loaded': True, 'loadedTime': 3664.100000023842, 'positionName': 'RIGHT', 'positionCoords': [998.4, 334.5], 'bid': 6.57}]",93267.0,1669844798433,cocktailshrimp,tacos,6.22,6.57,0.35000000000000053,tacos,690.7000000476837,691,691.0,True,i,94458.60000002384,1191.6000000238419,1669844799624,1191,HRV,HRV_0309,2022-11-30 22:03:52
63,"[{'imgObject': {}, 'id': 'omelette', 'src': '/static/foodstim60/omelette.jpg', 'key': 'u', 'origWidth': 410, 'origHeight': 409, 'width': 410, 'height': 409, 'widthPercent': 0.45, 'rescaleHeight': False, 'trialN': 63, 'loaded': True, 'loadedTime': 3962.399999976158, 'positionName': 'LEFT', 'positionCoords': [511.6, 335.5], 'bid': 3.77}, {'imgObject': {}, 'id': 'granola w milk', 'src': '/static/foodstim60/granola w milk.jpg', 'key': 'i', 'origWidth': 410, 'origHeight': 410, 'width': 410, 'height': 410, 'widthPercent': 0.45, 'rescaleHeight': False, 'trialN': 63, 'loaded': True, 'loadedTime': 3528.899999976158, 'positionName': 'RIGHT', 'positionCoords': [998.4, 335], 'bid': 0.48}]",94458.80000007153,1669844799625,omelette,granola w milk,3.77,0.48,-3.29,omelette,900.0,900,900.1999999284744,True,u,95866.70000004768,1407.8999999761581,1669844801033,1408,HRV,HRV_0309,2022-11-30 22:03:52
64,"[{'imgObject': {}, 'id': 'burger', 'src': '/static/foodstim60/burger.jpg', 'key': 'u', 'origWidth': 409, 'origHeight': 409, 'width': 409, 'height': 409, 'widthPercent': 0.45, 'rescaleHeight': False, 'trialN': 64, 'loaded': True, 'loadedTime': 3669.399999976158, 'positionName': 'LEFT', 'positionCoords': [512.6, 335.5], 'bid': 6.48}, {'imgObject': {}, 'id': 'sweetpotato', 'src': '/static/foodstim60/sweetpotato.jpg', 'key': 'i', 'origWidth': 410, 'origHeight': 410, 'width': 410, 'height': 410, 'widthPercent': 0.45, 'rescaleHeight': False, 'trialN': 64, 'loaded': True, 'loadedTime': 4031.899999976158, 'positionName': 'RIGHT', 'positionCoords': [998.4, 335], 'bid': 5.0600000000000005}]",95867.0,1669844801033,burger,sweetpotato,6.48,5.0600000000000005,-1.42,sweetpotato,819.7000000476837,820,819.8999999761581,True,i,97195.5,1328.5,1669844802361,1328,HRV,HRV_0309,2022-11-30 22:03:52
65,"[{'imgObject': {}, 'id': 'cocktailshrimp', 'src': '/static/foodstim60/cocktailshrimp.jpg', 'key': 'u', 'origWidth': 410, 'origHeight': 410, 'width': 410, 'height': 410, 'widthPercent': 0.45, 'rescaleHeight': False, 'trialN': 65, 'loaded': True, 'loadedTime': 4065.7000000476837, 'positionName': 'LEFT', 'positionCoords': [511.6, 335], 'bid': 6.22}, {'imgObject': {}, 'id': 'burger', 'src': '/static/foodstim60/burger.jpg', 'key': 'i', 'origWidth': 409, 'origHeight': 409, 'width': 409, 'height': 409, 'widthPercent': 0.45, 'rescaleHeight': False, 'trialN': 65, 'loaded': True, 'loadedTime': 3691.100000023842, 'positionName': 'RIGHT', 'positionCoords': [998.4, 335.5], 'bid': 6.48}]",97195.89999997616,1669844802362,cocktailshrimp,burger,6.22,6.48,0.2600000000000007,burger,674.6000000238419,675,674.9000000953674,True,i,98371.60000002384,1175.7000000476837,1669844803537,1175,HRV,HRV_0309,2022-11-30 22:03:52
66,"[{'imgObject': {}, 'id': 'cantaloupe', 'src': '/static/foodstim60/cantaloupe.jpg', 'key': 'u', 'origWidth': 409, 'origHeight': 409, 'width': 409, 'height': 409, 'widthPercent': 0.45, 'rescaleHeight': False, 'trialN': 66, 'loaded': True, 'loadedTime': 4245.800000071526, 'positionName': 'LEFT', 'positionCoords': [512.6, 335.5], 'bid': 2.83}, {'imgObject': {}, 'id': 'sweetpotato', 'src': '/static/foodstim60/sweetpotato.jpg', 'key': 'i', 'origWidth': 410, 'origHeight': 410, 'width': 410, 'height': 410, 'widthPercent': 0.45, 'rescaleHeight': False, 'trialN': 66, 'loaded': True, 'loadedTime': 4014.3000000715256, 'positionName': 'RIGHT', 'positionCoords': [998.4, 335], 'bid': 5.0600000000000005}]",98372.0,1669844803538,cantaloupe,sweetpotato,2.83,5.0600000000000005,2.2300000000000004,sweetpotato,1411.0,1411,1411.2000000476837,True,i,100283.30000007153,1911.3000000715256,1669844805449,1911,HRV,HRV_0309,2022-11-30 22:03:52
67,"[{'imgObject': {}, 'id': 'rigatoni and sauce', 'src': '/static/foodstim60/rigatoni and sauce.jpg', 'key': 'u', 'origWidth': 410, 'origHeight': 411, 'width': 410, 'height': 411, 'widthPercent': 0.45, 'rescaleHeight': False, 'trialN': 67, 'loaded': True, 'loadedTime': 3489.5, 'positionName': 'LEFT', 'positionCoords': [511.6, 334.5], 'bid': 3.56}, {'imgObject': {}, 'id': 'olives', 'src': '/static/foodstim60/olives.jpg', 'key': 'i', 'origWidth': 410, 'origHeight': 410, 'width': 410, 'height': 410, 'widthPercent': 0.45, 'rescaleHeight': False, 'trialN': 67, 'loaded': True, 'loadedTime': 3789.2000000476837, 'positionName': 'RIGHT', 'positionCoords': [998.4, 335], 'bid': 0.25}]",100283.70000004768,1669844805450,rigatoni and sauce,olives,3.56,0.25,-3.31,rigatoni and sauce,698.8999999761581,699,699.1999999284744,True,u,101490.60000002384,1206.8999999761581,1669844806656,1206,HRV,HRV_0309,2022-11-30 22:03:52
68,"[{'imgObject': {}, 'id': 'hotdog w must', 'src': '/static/foodstim60/hotdog w must.jpg', 'key': 'u', 'origWidth': 409, 'origHeight': 409, 'width': 409, 'height': 409, 'widthPercent': 0.45, 'rescaleHeight': False, 'trialN': 68, 'loaded': True, 'loadedTime': 3232.2000000476837, 'positionName': 'LEFT', 'positionCoords': [512.6, 335.5], 'bid': 3.98}, {'imgObject': {}, 'id': 'avocado', 'src': '/static/foodstim60/avocado.jpg', 'key': 'i', 'origWidth': 409, 'origHeight': 409, 'width': 409, 'height': 409, 'widthPercent': 0.45, 'rescaleHeight': False, 'trialN': 68, 'loaded': True, 'loadedTime': 3441.3000000715256, 'positionName': 'RIGHT', 'positionCoords': [998.4, 335.5], 'bid': 1.38}]",101490.89999997616,1669844806657,hotdog w must,avocado,3.98,1.38,-2.6,hotdog w must,643.5,644,643.8000000715256,True,u,102635.60000002384,1144.7000000476837,1669844807801,1144,HRV,HRV_0309,2022-11-30 22:03:52
69,"[{'imgObject': {}, 'id': 'eggsalad', 'src': '/static/foodstim60/eggsalad.jpg', 'key': 'u', 'origWidth': 410, 'origHeight': 409, 'width': 410, 'height': 409, 'widthPercent': 0.45, 'rescaleHeight': False, 'trialN': 69, 'loaded': True, 'loadedTime': 3937.399999976158, 'positionName': 'LEFT', 'positionCoords': [511.6, 335.5], 'bid': 2.11}, {'imgObject': {}, 'id': 'cherries', 'src': '/static/foodstim60/cherries.jpg', 'key': 'i', 'origWidth': 410, 'origHeight': 411, 'width': 410, 'height': 411, 'widthPercent': 0.45, 'rescaleHeight': False, 'trialN': 69, 'loaded': True, 'loadedTime': 3826.3000000715256, 'positionName': 'RIGHT', 'positionCoords': [998.4, 334.5], 'bid': 3.67}]",102635.70000004768,1669844807802,eggsalad,cherries,2.11,3.67,1.56,cherries,1002.6999999284744,1003,1002.8999999761581,True,i,104139.5,1503.7999999523163,1669844809305,1503,HRV,HRV_0309,2022-11-30 22:03:52
70,"[{'imgObject': {}, 'id': 'popsicles', 'src': '/static/foodstim60/popsicles.jpg', 'key': 'u', 'origWidth': 410, 'origHeight': 410, 'width': 410, 'height': 410, 'widthPercent': 0.45, 'rescaleHeight': False, 'trialN': 70, 'loaded': True, 'loadedTime': 3416.399999976158, 'positionName': 'LEFT', 'positionCoords': [511.6, 335], 'bid': 1.78}, {'imgObject': {}, 'id': 'rigatoni and sauce', 'src': '/static/foodstim60/rigatoni and sauce.jpg', 'key': 'i', 'origWidth': 410, 'origHeight': 411, 'width': 410, 'height': 411, 'widthPercent': 0.45, 'rescaleHeight': False, 'trialN': 70, 'loaded': True, 'loadedTime': 3488.899999976158, 'positionName': 'RIGHT', 'positionCoords': [998.4, 334.5], 'bid': 3.56}]",104139.80000007153,1669844809306,popsicles,rigatoni and sauce,1.78,3.56,1.78,rigatoni and sauce,842.3999999761581,842,842.6999999284744,True,i,105483.60000002384,1343.7999999523163,1669844810649,1343,HRV,HRV_0309,2022-11-30 22:03:52
71,"[{'imgObject': {}, 'id': 'lox', 'src': '/static/foodstim60/lox.jpg', 'key': 'u', 'origWidth': 410, 'origHeight': 411, 'width': 410, 'height': 411, 'widthPercent': 0.45, 'rescaleHeight': False, 'trialN': 71, 'loaded': True, 'loadedTime': 4405.600000023842, 'positionName': 'LEFT', 'positionCoords': [511.6, 334.5], 'bid': 3.5700000000000003}, {'imgObject': {}, 'id': 'hotdog w must', 'src': '/static/foodstim60/hotdog w must.jpg', 'key': 'i', 'origWidth': 409, 'origHeight': 409, 'width': 409, 'height': 409, 'widthPercent': 0.45, 'rescaleHeight': False, 'trialN': 71, 'loaded': True, 'loadedTime': 3279.8000000715256, 'positionName': 'RIGHT', 'positionCoords': [998.4, 335.5], 'bid': 3.98}]",105483.80000007153,1669844810650,lox,hotdog w must,3.5700000000000003,3.98,0.4099999999999997,hotdog w must,675.0999999046326,675,675.2999999523163,True,i,106667.20000004768,1183.3999999761581,1669844811833,1183,HRV,HRV_0309,2022-11-30 22:03:52
72,"[{'imgObject': {}, 'id': 'turkeysandwich', 'src': '/static/foodstim60/turkeysandwich.jpg', 'key': 'u', 'origWidth': 409, 'origHeight': 409, 'width': 409, 'height': 409, 'widthPercent': 0.45, 'rescaleHeight': False, 'trialN': 72, 'loaded': True, 'loadedTime': 4256.600000023842, 'positionName': 'LEFT', 'positionCoords': [512.6, 335.5], 'bid': 7.95}, {'imgObject': {}, 'id': 'turkey sandwich', 'src': '/static/foodstim60/turkey sandwich.jpg', 'key': 'i', 'origWidth': 409, 'origHeight': 409, 'width': 409, 'height': 409, 'widthPercent': 0.45, 'rescaleHeight': False, 'trialN': 72, 'loaded': True, 'loadedTime': 4433.5, 'positionName': 'RIGHT', 'positionCoords': [998.4, 335.5], 'bid': 7.890000000000001}]",106667.5,1669844811833,turkeysandwich,turkey sandwich,7.95,7.890000000000001,-0.05999999999999961,turkey sandwich,907.2000000476837,908,907.6000000238419,True,i,108082.60000002384,1415.1000000238419,1669844813248,1415,HRV,HRV_0309,2022-11-30 22:03:52
73,"[{'imgObject': {}, 'id': 'salad w chicken', 'src': '/static/foodstim60/salad w chicken.jpg', 'key': 'u', 'origWidth': 411, 'origHeight': 411, 'width': 411, 'height': 411, 'widthPercent': 0.45, 'rescaleHeight': False, 'trialN': 73, 'loaded': True, 'loadedTime': 4163.399999976158, 'positionName': 'LEFT', 'positionCoords': [510.6, 334.5], 'bid': 7.63}, {'imgObject': {}, 'id': 'orange slices', 'src': '/static/foodstim60/orange slices.jpg', 'key': 'i', 'origWidth': 409, 'origHeight': 410, 'width': 409, 'height': 410, 'widthPercent': 0.45, 'rescaleHeight': False, 'trialN': 73, 'loaded': True, 'loadedTime': 4359.600000023842, 'positionName': 'RIGHT', 'positionCoords': [998.4, 335], 'bid': 7.44}]",108082.89999997616,1669844813249,salad w chicken,orange slices,7.63,7.44,-0.1899999999999995,salad w chicken,635.2000000476837,635,635.4000000953674,True,u,109218.5,1135.6000000238419,1669844814384,1135,HRV,HRV_0309,2022-11-30 22:03:52
74,"[{'imgObject': {}, 'id': 'granola w milk', 'src': '/static/foodstim60/granola w milk.jpg', 'key': 'u', 'origWidth': 410, 'origHeight': 410, 'width': 410, 'height': 410, 'widthPercent': 0.45, 'rescaleHeight': False, 'trialN': 74, 'loaded': True, 'loadedTime': 3499.399999976158, 'positionName': 'LEFT', 'positionCoords': [511.6, 335], 'bid': 0.48}, {'imgObject': {}, 'id': 'shreddedwheatwithmilk', 'src': '/static/foodstim60/shreddedwheatwithmilk.jpg', 'key': 'i', 'origWidth': 410, 'origHeight': 410, 'width': 410, 'height': 410, 'widthPercent': 0.45, 'rescaleHeight': False, 'trialN': 74, 'loaded': True, 'loadedTime': 4326.800000071526, 'positionName': 'RIGHT', 'positionCoords': [998.4, 335], 'bid': 3.5700000000000003}]",109218.89999997616,1669844814385,granola w milk,shreddedwheatwithmilk,0.48,3.5700000000000003,3.0900000000000003,shreddedwheatwithmilk,931.0,931,931.3000000715256,True,i,110650.5,1431.6000000238419,1669844815816,1431,HRV,HRV_0309,2022-11-30 22:03:52
75,"[{'imgObject': {}, 'id': 'Grapes', 'src': '/static/foodstim60/Grapes.jpg', 'key': 'u', 'origWidth': 411, 'origHeight': 411, 'width': 411, 'height': 411, 'widthPercent': 0.45, 'rescaleHeight': False, 'trialN': 75, 'loaded': True, 'loadedTime': 4155.800000071526, 'positionName': 'LEFT', 'positionCoords': [510.6, 334.5], 'bid': 6.15}, {'imgObject': {}, 'id': 'froot loops w milk', 'src': '/static/foodstim60/froot loops w milk.jpg', 'key': 'i', 'origWidth': 410, 'origHeight': 410, 'width': 410, 'height': 410, 'widthPercent': 0.45, 'rescaleHeight': False, 'trialN': 75, 'loaded': True, 'loadedTime': 3627.7000000476837, 'positionName': 'RIGHT', 'positionCoords': [998.4, 335], 'bid': 5.54}]",110650.80000007153,1669844815817,Grapes,froot loops w milk,6.15,5.54,-0.6100000000000003,Grapes,732.0999999046326,732,732.2999999523163,True,u,111883.5,1232.6999999284744,1669844817049,1232,HRV,HRV_0309,2022-11-30 22:03:52
76,"[{'imgObject': {}, 'id': 'roastedpotatoes', 'src': '/static/foodstim60/roastedpotatoes.jpg', 'key': 'u', 'origWidth': 409, 'origHeight': 410, 'width': 409, 'height': 410, 'widthPercent': 0.45, 'rescaleHeight': False, 'trialN': 76, 'loaded': True, 'loadedTime': 3750.5, 'positionName': 'LEFT', 'positionCoords': [512.6, 335], 'bid': 8.75}, {'imgObject': {}, 'id': 'chicken nuggets2', 'src': '/static/foodstim60/chicken nuggets2.jpg', 'key': 'i', 'origWidth': 410, 'origHeight': 409, 'width': 410, 'height': 409, 'widthPercent': 0.45, 'rescaleHeight': False, 'trialN': 76, 'loaded': True, 'loadedTime': 4333.800000071526, 'positionName': 'RIGHT', 'positionCoords': [998.4, 335.5], 'bid': 8.72}]",111883.89999997616,1669844817050,roastedpotatoes,chicken nuggets2,8.75,8.72,-0.02999999999999936,roastedpotatoes,610.7000000476837,611,610.8000000715256,True,u,113002.5,1118.6000000238419,1669844818168,1118,HRV,HRV_0309,2022-11-30 22:03:52
77,"[{'imgObject': {}, 'id': 'froot loops w milk', 'src': '/static/foodstim60/froot loops w milk.jpg', 'key': 'u', 'origWidth': 410, 'origHeight': 410, 'width': 410, 'height': 410, 'widthPercent': 0.45, 'rescaleHeight': False, 'trialN': 77, 'loaded': True, 'loadedTime': 3623, 'positionName': 'LEFT', 'positionCoords': [511.6, 335], 'bid': 5.54}, {'imgObject': {}, 'id': 'kiwi', 'src': '/static/foodstim60/kiwi.jpg', 'key': 'i', 'origWidth': 410, 'origHeight': 410, 'width': 410, 'height': 410, 'widthPercent': 0.45, 'rescaleHeight': False, 'trialN': 77, 'loaded': True, 'loadedTime': 4314.5, 'positionName': 'RIGHT', 'positionCoords': [998.4, 335], 'bid': 5.66}]",113003.0,1669844818169,froot loops w milk,kiwi,5.54,5.66,0.1200000000000001,froot loops w milk,2051.8000000715256,2052,2052.100000023842,True,u,115562.5,2559.5,1669844820728,2559,HRV,HRV_0309,2022-11-30 22:03:52
78,"[{'imgObject': {}, 'id': 'banana', 'src': '/static/foodstim60/banana.jpg', 'key': 'u', 'origWidth': 410, 'origHeight': 410, 'width': 410, 'height': 410, 'widthPercent': 0.45, 'rescaleHeight': False, 'trialN': 78, 'loaded': True, 'loadedTime': 4446.700000047684, 'positionName': 'LEFT', 'positionCoords': [511.6, 335], 'bid': 6.93}, {'imgObject': {}, 'id': 'salmon', 'src': '/static/foodstim60/salmon.jpg', 'key': 'i', 'origWidth': 410, 'origHeight': 409, 'width': 410, 'height': 409, 'widthPercent': 0.45, 'rescaleHeight': False, 'trialN': 78, 'loaded': True, 'loadedTime': 4477.600000023842, 'positionName': 'RIGHT', 'positionCoords': [998.4, 335.5], 'bid': 7.08}]",115562.89999997616,1669844820729,banana,salmon,6.93,7.08,0.15000000000000036,salmon,603.7000000476837,604,604.0,True,i,116674.60000002384,1111.7000000476837,1669844821840,1111,HRV,HRV_0309,2022-11-30 22:03:52
79,"[{'imgObject': {}, 'id': 'fruitsalad', 'src': '/static/foodstim60/fruitsalad.jpg', 'key': 'u', 'origWidth': 410, 'origHeight': 410, 'width': 410, 'height': 410, 'widthPercent': 0.45, 'rescaleHeight': False, 'trialN': 79, 'loaded': True, 'loadedTime': 3346.600000023842, 'positionName': 'LEFT', 'positionCoords': [511.6, 335], 'bid': 7.12}, {'imgObject': {}, 'id': 'fried eggs', 'src': '/static/foodstim60/fried eggs.jpg', 'key': 'i', 'origWidth': 410, 'origHeight': 410, 'width': 410, 'height': 410, 'widthPercent': 0.45, 'rescaleHeight': False, 'trialN': 79, 'loaded': True, 'loadedTime': 4077.5, 'positionName': 'RIGHT', 'positionCoords': [998.4, 335], 'bid': 7.27}]",116674.89999997616,1669844821841,fruitsalad,fried eggs,7.12,7.27,0.14999999999999947,fried eggs,748.1000000238419,748,748.4000000953674,True,i,117931.60000002384,1256.7000000476837,1669844823097,1256,HRV,HRV_0309,2022-11-30 22:03:52
80,"[{'imgObject': {}, 'id': 'luckycharms', 'src': '/static/foodstim60/luckycharms.jpg', 'key': 'u', 'origWidth': 410, 'origHeight': 409, 'width': 410, 'height': 409, 'widthPercent': 0.45, 'rescaleHeight': False, 'trialN': 80, 'loaded': True, 'loadedTime': 4416, 'positionName': 'LEFT', 'positionCoords': [511.6, 335.5], 'bid': 7.04}, {'imgObject': {}, 'id': 'steak', 'src': '/static/foodstim60/steak.jpg', 'key': 'i', 'origWidth': 410, 'origHeight': 410, 'width': 410, 'height': 410, 'widthPercent': 0.45, 'rescaleHeight': False, 'trialN': 80, 'loaded': True, 'loadedTime': 4481.899999976158, 'positionName': 'RIGHT', 'positionCoords': [998.4, 335], 'bid': 8.15}]",117931.89999997616,1669844823098,luckycharms,steak,7.04,8.15,1.1100000000000003,steak,649.9000000953674,650,650.1000000238419,True,i,119082.70000004768,1150.8000000715256,1669844824249,1151,HRV,HRV_0309,2022-11-30 22:03:52
81,"[{'imgObject': {}, 'id': 'luckycharms', 'src': '/static/foodstim60/luckycharms.jpg', 'key': 'u', 'origWidth': 410, 'origHeight': 409, 'width': 410, 'height': 409, 'widthPercent': 0.45, 'rescaleHeight': False, 'trialN': 81, 'loaded': True, 'loadedTime': 4426.200000047684, 'positionName': 'LEFT', 'positionCoords': [511.6, 335.5], 'bid': 7.04}, {'imgObject': {}, 'id': 'shreddedwheatwithmilk', 'src': '/static/foodstim60/shreddedwheatwithmilk.jpg', 'key': 'i', 'origWidth': 410, 'origHeight': 410, 'width': 410, 'height': 410, 'widthPercent': 0.45, 'rescaleHeight': False, 'trialN': 81, 'loaded': True, 'loadedTime': 4327.200000047684, 'positionName': 'RIGHT', 'positionCoords': [998.4, 335], 'bid': 3.5700000000000003}]",119083.10000002384,1669844824249,luckycharms,shreddedwheatwithmilk,7.04,3.5700000000000003,-3.4699999999999998,shreddedwheatwithmilk,1499.3999999761581,1500,1499.5,True,i,121091.10000002384,2008.0,1669844826257,2008,HRV,HRV_0309,2022-11-30 22:03:52
82,"[{'imgObject': {}, 'id': 'turkey sandwich', 'src': '/static/foodstim60/turkey sandwich.jpg', 'key': 'u', 'origWidth': 409, 'origHeight': 409, 'width': 409, 'height': 409, 'widthPercent': 0.45, 'rescaleHeight': False, 'trialN': 82, 'loaded': True, 'loadedTime': 4434.200000047684, 'positionName': 'LEFT', 'positionCoords': [512.6, 335.5], 'bid': 7.890000000000001}, {'imgObject': {}, 'id': 'salmon', 'src': '/static/foodstim60/salmon.jpg', 'key': 'i', 'origWidth': 410, 'origHeight': 409, 'width': 410, 'height': 409, 'widthPercent': 0.45, 'rescaleHeight': False, 'trialN': 82, 'loaded': True, 'loadedTime': 4478, 'positionName': 'RIGHT', 'positionCoords': [998.4, 335.5], 'bid': 7.08}]",121091.30000007153,1669844826257,turkey sandwich,salmon,7.890000000000001,7.08,-0.8100000000000005,turkey sandwich,938.2999999523163,939,938.5,True,u,122531.70000004768,1440.3999999761581,1669844827698,1441,HRV,HRV_0309,2022-11-30 22:03:52
83,"[{'imgObject': {}, 'id': 'blueberries', 'src': '/static/foodstim60/blueberries.jpg', 'key': 'u', 'origWidth': 411, 'origHeight': 411, 'width': 411, 'height': 411, 'widthPercent': 0.45, 'rescaleHeight': False, 'trialN': 83, 'loaded': True, 'loadedTime': 4484.200000047684, 'positionName': 'LEFT', 'positionCoords': [510.6, 334.5], 'bid': 6.98}, {'imgObject': {}, 'id': 'fruitsalad', 'src': '/static/foodstim60/fruitsalad.jpg', 'key': 'i', 'origWidth': 410, 'origHeight': 410, 'width': 410, 'height': 410, 'widthPercent': 0.45, 'rescaleHeight': False, 'trialN': 83, 'loaded': True, 'loadedTime': 3351.2000000476837, 'positionName': 'RIGHT', 'positionCoords': [998.4, 335], 'bid': 7.12}]",122532.10000002384,1669844827698,blueberries,fruitsalad,6.98,7.12,0.13999999999999968,blueberries,1850.7000000476837,1851,1850.8999999761581,True,u,124891.30000007153,2359.2000000476837,1669844830057,2359,HRV,HRV_0309,2022-11-30 22:03:52
84,"[{'imgObject': {}, 'id': 'froot loops w milk', 'src': '/static/foodstim60/froot loops w milk.jpg', 'key': 'u', 'origWidth': 410, 'origHeight': 410, 'width': 410, 'height': 410, 'widthPercent': 0.45, 'rescaleHeight': False, 'trialN': 84, 'loaded': True, 'loadedTime': 3621.100000023842, 'positionName': 'LEFT', 'positionCoords': [511.6, 335], 'bid': 5.54}, {'imgObject': {}, 'id': 'eggs', 'src': '/static/foodstim60/eggs.jpg', 'key': 'i', 'origWidth': 409, 'origHeight': 409, 'width': 409, 'height': 409, 'widthPercent': 0.45, 'rescaleHeight': False, 'trialN': 84, 'loaded': True, 'loadedTime': 3316.399999976158, 'positionName': 'RIGHT', 'positionCoords': [998.4, 335.5], 'bid': 3.28}]",124891.70000004768,1669844830058,froot loops w milk,eggs,5.54,3.28,-2.2600000000000002,froot loops w milk,1618.8999999761581,1618,1619.1000000238419,True,u,127018.60000002384,2126.899999976158,1669844832184,2126,HRV,HRV_0309,2022-11-30 22:03:52
85,"[{'imgObject': {}, 'id': 'mango', 'src': '/static/foodstim60/mango.jpg', 'key': 'u', 'origWidth': 411, 'origHeight': 411, 'width': 411, 'height': 411, 'widthPercent': 0.45, 'rescaleHeight': False, 'trialN': 85, 'loaded': True, 'loadedTime': 4089.3000000715256, 'positionName': 'LEFT', 'positionCoords': [510.6, 334.5], 'bid': 7.72}, {'imgObject': {}, 'id': 'turkey sandwich', 'src': '/static/foodstim60/turkey sandwich.jpg', 'key': 'i', 'origWidth': 409, 'origHeight': 409, 'width': 409, 'height': 409, 'widthPercent': 0.45, 'rescaleHeight': False, 'trialN': 85, 'loaded': True, 'loadedTime': 4433.899999976158, 'positionName': 'RIGHT', 'positionCoords': [998.4, 335.5], 'bid': 7.890000000000001}]",127019.10000002384,1669844832185,mango,turkey sandwich,7.72,7.890000000000001,0.17000000000000082,turkey sandwich,611.7000000476837,611,611.8999999761581,True,i,128138.60000002384,1119.5,1669844833304,1119,HRV,HRV_0309,2022-11-30 22:03:52
86,"[{'imgObject': {}, 'id': 'steak', 'src': '/static/foodstim60/steak.jpg', 'key': 'u', 'origWidth': 410, 'origHeight': 410, 'width': 410, 'height': 410, 'widthPercent': 0.45, 'rescaleHeight': False, 'trialN': 86, 'loaded': True, 'loadedTime': 4481.600000023842, 'positionName': 'LEFT', 'positionCoords': [511.6, 335], 'bid': 8.15}, {'imgObject': {}, 'id': 'fried eggs', 'src': '/static/foodstim60/fried eggs.jpg', 'key': 'i', 'origWidth': 410, 'origHeight': 410, 'width': 410, 'height': 410, 'widthPercent': 0.45, 'rescaleHeight': False, 'trialN': 86, 'loaded': True, 'loadedTime': 4067.5, 'positionName': 'RIGHT', 'positionCoords': [998.4, 335], 'bid': 7.27}]",128138.89999997616,1669844833304,steak,fried eggs,8.15,7.27,-0.8800000000000008,fried eggs,579.6000000238419,580,579.8000000715256,True,i,129226.60000002384,1087.7000000476837,1669844834392,1088,HRV,HRV_0309,2022-11-30 22:03:52
87,"[{'imgObject': {}, 'id': 'rigatoni', 'src': '/static/foodstim60/rigatoni.jpg', 'key': 'u', 'origWidth': 411, 'origHeight': 411, 'width': 411, 'height': 411, 'widthPercent': 0.45, 'rescaleHeight': False, 'trialN': 87, 'loaded': True, 'loadedTime': 3949.899999976158, 'positionName': 'LEFT', 'positionCoords': [510.6, 334.5], 'bid': 2.46}, {'imgObject': {}, 'id': 'olives', 'src': '/static/foodstim60/olives.jpg', 'key': 'i', 'origWidth': 410, 'origHeight': 410, 'width': 410, 'height': 410, 'widthPercent': 0.45, 'rescaleHeight': False, 'trialN': 87, 'loaded': True, 'loadedTime': 3796, 'positionName': 'RIGHT', 'positionCoords': [998.4, 335], 'bid': 0.25}]",129226.80000007153,1669844834392,rigatoni,olives,2.46,0.25,-2.21,rigatoni,899.8999999761581,900,900.0999999046326,True,u,130634.89999997616,1408.0999999046326,1669844835800,1408,HRV,HRV_0309,2022-11-30 22:03:52
88,"[{'imgObject': {}, 'id': 'pear', 'src': '/static/foodstim60/pear.jpg', 'key': 'u', 'origWidth': 411, 'origHeight': 410, 'width': 411, 'height': 410, 'widthPercent': 0.45, 'rescaleHeight': False, 'trialN': 88, 'loaded': True, 'loadedTime': 3721.3000000715256, 'positionName': 'LEFT', 'positionCoords': [510.6, 335], 'bid': 7.82}, {'imgObject': {}, 'id': 'banana', 'src': '/static/foodstim60/banana.jpg', 'key': 'i', 'origWidth': 410, 'origHeight': 410, 'width': 410, 'height': 410, 'widthPercent': 0.45, 'rescaleHeight': False, 'trialN': 88, 'loaded': True, 'loadedTime': 4441, 'positionName': 'RIGHT', 'positionCoords': [998.4, 335], 'bid': 6.93}]",130635.0,1669844835801,pear,banana,7.82,6.93,-0.8900000000000006,pear,707.3999999761581,707,707.6000000238419,True,u,131842.60000002384,1207.6000000238419,1669844837008,1207,HRV,HRV_0309,2022-11-30 22:03:52
89,"[{'imgObject': {}, 'id': 'turkeysandwich', 'src': '/static/foodstim60/turkeysandwich.jpg', 'key': 'u', 'origWidth': 409, 'origHeight': 409, 'width': 409, 'height': 409, 'widthPercent': 0.45, 'rescaleHeight': False, 'trialN': 89, 'loaded': True, 'loadedTime': 4267.800000071526, 'positionName': 'LEFT', 'positionCoords': [512.6, 335.5], 'bid': 7.95}, {'imgObject': {}, 'id': 'apple slices', 'src': '/static/foodstim60/apple slices.jpg', 'key': 'i', 'origWidth': 409, 'origHeight': 410, 'width': 409, 'height': 410, 'widthPercent': 0.45, 'rescaleHeight': False, 'trialN': 89, 'loaded': True, 'loadedTime': 4100.300000071526, 'positionName': 'RIGHT', 'positionCoords': [998.4, 335], 'bid': 7.11}]",131842.89999997616,1669844837008,turkeysandwich,apple slices,7.95,7.11,-0.8399999999999999,turkeysandwich,811.6000000238419,812,811.8000000715256,True,u,133162.0,1319.1000000238419,1669844838327,1319,HRV,HRV_0309,2022-11-30 22:03:52
90,"[{'imgObject': {}, 'id': 'turkeysandwich', 'src': '/static/foodstim60/turkeysandwich.jpg', 'key': 'u', 'origWidth': 409, 'origHeight': 409, 'width': 409, 'height': 409, 'widthPercent': 0.45, 'rescaleHeight': False, 'trialN': 90, 'loaded': True, 'loadedTime': 4262.899999976158, 'positionName': 'LEFT', 'positionCoords': [512.6, 335.5], 'bid': 7.95}, {'imgObject': {}, 'id': 'blueberries', 'src': '/static/foodstim60/blueberries.jpg', 'key': 'i', 'origWidth': 411, 'origHeight': 411, 'width': 411, 'height': 411, 'widthPercent': 0.45, 'rescaleHeight': False, 'trialN': 90, 'loaded': True, 'loadedTime': 4484.700000047684, 'positionName': 'RIGHT', 'positionCoords': [998.4, 334.5], 'bid': 6.98}]",998540.0,1669845703706,turkeysandwich,blueberries,7.95,6.98,-0.9699999999999998,turkeysandwich,3425.2000000476837,3425,3425.399999976158,True,u,1002467.5,3927.5,1669845707633,3927,HRV,HRV_0309,2022-11-30 22:03:52
91,"[{'imgObject': {}, 'id': 'mashed potato', 'src': '/static/foodstim60/mashed potato.jpg', 'key': 'u', 'origWidth': 409, 'origHeight': 409, 'width': 409, 'height': 409, 'widthPercent': 0.45, 'rescaleHeight': False, 'trialN': 91, 'loaded': True, 'loadedTime': 4140.800000071526, 'positionName': 'LEFT', 'positionCoords': [512.6, 335.5], 'bid': 3.61}, {'imgObject': {}, 'id': 'yogurt no spoon', 'src': '/static/foodstim60/yogurt no spoon.jpg', 'key': 'i', 'origWidth': 411, 'origHeight': 410, 'width': 411, 'height': 410, 'widthPercent': 0.45, 'rescaleHeight': False, 'trialN': 91, 'loaded': True, 'loadedTime': 4413.399999976158, 'positionName': 'RIGHT', 'positionCoords': [998.4, 335], 'bid': 3.61}]",1002468.0,1669845707634,mashed potato,yogurt no spoon,3.61,3.61,0.0,mashed potato,1289.8000000715256,1290,1290.0,True,u,1004258.7000000477,1790.7000000476837,1669845709424,1790,HRV,HRV_0309,2022-11-30 22:03:52
92,"[{'imgObject': {}, 'id': 'raspberries', 'src': '/static/foodstim60/raspberries.jpg', 'key': 'u', 'origWidth': 411, 'origHeight': 411, 'width': 411, 'height': 411, 'widthPercent': 0.45, 'rescaleHeight': False, 'trialN': 92, 'loaded': True, 'loadedTime': 4303.800000071526, 'positionName': 'LEFT', 'positionCoords': [510.6, 334.5], 'bid': 3.42}, {'imgObject': {}, 'id': 'blueberries', 'src': '/static/foodstim60/blueberries.jpg', 'key': 'i', 'origWidth': 411, 'origHeight': 411, 'width': 411, 'height': 411, 'widthPercent': 0.45, 'rescaleHeight': False, 'trialN': 92, 'loaded': True, 'loadedTime': 4482.700000047684, 'positionName': 'RIGHT', 'positionCoords': [998.4, 334.5], 'bid': 6.98}]",1004259.2000000477,1669845709425,raspberries,blueberries,3.42,6.98,3.5600000000000005,raspberries,745.8999999761581,746,746.1000000238419,True,u,1005506.6000000238,1247.3999999761581,1669845710672,1247,HRV,HRV_0309,2022-11-30 22:03:52
93,"[{'imgObject': {}, 'id': 'cherry tomato', 'src': '/static/foodstim60/cherry tomato.jpg', 'key': 'u', 'origWidth': 410, 'origHeight': 410, 'width': 410, 'height': 410, 'widthPercent': 0.45, 'rescaleHeight': False, 'trialN': 93, 'loaded': True, 'loadedTime': 3544.5, 'positionName': 'LEFT', 'positionCoords': [511.6, 335], 'bid': 0.84}, {'imgObject': {}, 'id': 'lox', 'src': '/static/foodstim60/lox.jpg', 'key': 'i', 'origWidth': 410, 'origHeight': 411, 'width': 410, 'height': 411, 'widthPercent': 0.45, 'rescaleHeight': False, 'trialN': 93, 'loaded': True, 'loadedTime': 4404.200000047684, 'positionName': 'RIGHT', 'positionCoords': [998.4, 334.5], 'bid': 3.5700000000000003}]",1005507.0,1669845710673,cherry tomato,lox,0.84,3.5700000000000003,2.7300000000000004,lox,1394.6000000238419,1395,1394.8000000715256,True,i,1007402.5,1895.5,1669845712568,1895,HRV,HRV_0309,2022-11-30 22:03:52
94,"[{'imgObject': {}, 'id': 'blackbeanswithrice', 'src': '/static/foodstim60/blackbeanswithrice.jpg', 'key': 'u', 'origWidth': 410, 'origHeight': 410, 'width': 410, 'height': 410, 'widthPercent': 0.45, 'rescaleHeight': False, 'trialN': 94, 'loaded': True, 'loadedTime': 3366.600000023842, 'positionName': 'LEFT', 'positionCoords': [511.6, 335], 'bid': 6.16}, {'imgObject': {}, 'id': 'olives', 'src': '/static/foodstim60/olives.jpg', 'key': 'i', 'origWidth': 410, 'origHeight': 410, 'width': 410, 'height': 410, 'widthPercent': 0.45, 'rescaleHeight': False, 'trialN': 94, 'loaded': True, 'loadedTime': 3801.2000000476837, 'positionName': 'RIGHT', 'positionCoords': [998.4, 335], 'bid': 0.25}]",1007403.0,1669845712569,blackbeanswithrice,olives,6.16,0.25,-5.91,blackbeanswithrice,874.7000000476837,875,875.0,True,u,1008779.6000000238,1376.6000000238419,1669845713945,1376,HRV,HRV_0309,2022-11-30 22:03:52
95,"[{'imgObject': {}, 'id': 'rigatoni', 'src': '/static/foodstim60/rigatoni.jpg', 'key': 'u', 'origWidth': 411, 'origHeight': 411, 'width': 411, 'height': 411, 'widthPercent': 0.45, 'rescaleHeight': False, 'trialN': 95, 'loaded': True, 'loadedTime': 3944.899999976158, 'positionName': 'LEFT', 'positionCoords': [510.6, 334.5], 'bid': 2.46}, {'imgObject': {}, 'id': 'corn cob', 'src': '/static/foodstim60/corn cob.jpg', 'key': 'i', 'origWidth': 411, 'origHeight': 411, 'width': 411, 'height': 411, 'widthPercent': 0.45, 'rescaleHeight': False, 'trialN': 95, 'loaded': True, 'loadedTime': 3984.7000000476837, 'positionName': 'RIGHT', 'positionCoords': [998.4, 334.5], 'bid': 6.890000000000001}]",1008780.1000000238,1669845713946,rigatoni,corn cob,2.46,6.890000000000001,4.430000000000001,corn cob,857.2999999523163,857,857.5,True,i,1010138.6000000238,1358.5,1669845715304,1358,HRV,HRV_0309,2022-11-30 22:03:52
96,"[{'imgObject': {}, 'id': 'raisin bran w milk', 'src': '/static/foodstim60/raisin bran w milk.jpg', 'key': 'u', 'origWidth': 411, 'origHeight': 411, 'width': 411, 'height': 411, 'widthPercent': 0.45, 'rescaleHeight': False, 'trialN': 96, 'loaded': True, 'loadedTime': 3858.399999976158, 'positionName': 'LEFT', 'positionCoords': [510.6, 334.5], 'bid': 0}, {'imgObject': {}, 'id': 'olives', 'src': '/static/foodstim60/olives.jpg', 'key': 'i', 'origWidth': 410, 'origHeight': 410, 'width': 410, 'height': 410, 'widthPercent': 0.45, 'rescaleHeight': False, 'trialN': 96, 'loaded': True, 'loadedTime': 3789.600000023842, 'positionName': 'RIGHT', 'positionCoords': [998.4, 335], 'bid': 0.25}]",1010138.8999999762,1669845715305,raisin bran w milk,olives,0.0,0.25,0.25,olives,938.4000000953674,938,938.6000000238419,True,i,1011578.7000000477,1439.8000000715256,1669845716744,1439,HRV,HRV_0309,2022-11-30 22:03:52
97,"[{'imgObject': {}, 'id': 'luckycharms', 'src': '/static/foodstim60/luckycharms.jpg', 'key': 'u', 'origWidth': 410, 'origHeight': 409, 'width': 410, 'height': 409, 'widthPercent': 0.45, 'rescaleHeight': False, 'trialN': 97, 'loaded': True, 'loadedTime': 4425.800000071526, 'positionName': 'LEFT', 'positionCoords': [511.6, 335.5], 'bid': 7.04}, {'imgObject': {}, 'id': 'baked potato', 'src': '/static/foodstim60/baked potato.jpg', 'key': 'i', 'origWidth': 409, 'origHeight': 410, 'width': 409, 'height': 410, 'widthPercent': 0.45, 'rescaleHeight': False, 'trialN': 97, 'loaded': True, 'loadedTime': 4390.899999976158, 'positionName': 'RIGHT', 'positionCoords': [998.4, 335], 'bid': 7.05}]",1011579.1000000238,1669845716745,luckycharms,baked potato,7.04,7.05,0.009999999999999787,baked potato,914.3999999761581,914,914.5,True,i,1012995.5,1416.3999999761581,1669845718161,1416,HRV,HRV_0309,2022-11-30 22:03:52
98,"[{'imgObject': {}, 'id': 'orange slices', 'src': '/static/foodstim60/orange slices.jpg', 'key': 'u', 'origWidth': 409, 'origHeight': 410, 'width': 409, 'height': 410, 'widthPercent': 0.45, 'rescaleHeight': False, 'trialN': 98, 'loaded': True, 'loadedTime': 4360.800000071526, 'positionName': 'LEFT', 'positionCoords': [512.6, 335], 'bid': 7.44}, {'imgObject': {}, 'id': 'bagel and cc', 'src': '/static/foodstim60/bagel and cc.jpg', 'key': 'i', 'origWidth': 410, 'origHeight': 410, 'width': 410, 'height': 410, 'widthPercent': 0.45, 'rescaleHeight': False, 'trialN': 98, 'loaded': True, 'loadedTime': 4032.3000000715256, 'positionName': 'RIGHT', 'positionCoords': [998.4, 335], 'bid': 8.120000000000001}]",1012995.8000000715,1669845718162,orange slices,bagel and cc,7.44,8.120000000000001,0.6800000000000006,orange slices,785.5999999046326,785,785.7999999523163,True,u,1014282.6000000238,1286.7999999523163,1669845719448,1286,HRV,HRV_0309,2022-11-30 22:03:52
99,"[{'imgObject': {}, 'id': 'steak', 'src': '/static/foodstim60/steak.jpg', 'key': 'u', 'origWidth': 410, 'origHeight': 410, 'width': 410, 'height': 410, 'widthPercent': 0.45, 'rescaleHeight': False, 'trialN': 99, 'loaded': True, 'loadedTime': 4481.200000047684, 'positionName': 'LEFT', 'positionCoords': [511.6, 335], 'bid': 8.15}, {'imgObject': {}, 'id': 'bagel and cc', 'src': '/static/foodstim60/bagel and cc.jpg', 'key': 'i', 'origWidth': 410, 'origHeight': 410, 'width': 410, 'height': 410, 'widthPercent': 0.45, 'rescaleHeight': False, 'trialN': 99, 'loaded': True, 'loadedTime': 4038.600000023842, 'positionName': 'RIGHT', 'positionCoords': [998.4, 335], 'bid': 8.120000000000001}]",1014283.1000000238,1669845719449,steak,bagel and cc,8.15,8.120000000000001,-0.02999999999999936,steak,874.3999999761581,874,874.5,True,u,1015658.1000000238,1375.0,1669845720824,1375,HRV,HRV_0309,2022-11-30 22:03:52
100,"[{'imgObject': {}, 'id': 'eggs', 'src': '/static/foodstim60/eggs.jpg', 'key': 'u', 'origWidth': 409, 'origHeight': 409, 'width': 409, 'height': 409, 'widthPercent': 0.45, 'rescaleHeight': False, 'trialN': 100, 'loaded': True, 'loadedTime': 3300.5, 'positionName': 'LEFT', 'positionCoords': [512.6, 335.5], 'bid': 3.28}, {'imgObject': {}, 'id': 'rigatoni and sauce', 'src': '/static/foodstim60/rigatoni and sauce.jpg', 'key': 'i', 'origWidth': 410, 'origHeight': 411, 'width': 410, 'height': 411, 'widthPercent': 0.45, 'rescaleHeight': False, 'trialN': 100, 'loaded': True, 'loadedTime': 3489.2000000476837, 'positionName': 'RIGHT', 'positionCoords': [998.4, 334.5], 'bid': 3.56}]",1015658.5,1669845720824,eggs,rigatoni and sauce,3.28,3.56,0.28000000000000025,rigatoni and sauce,835.0,835,835.1000000238419,True,i,1016994.6000000238,1336.1000000238419,1669845722160,1336,HRV,HRV_0309,2022-11-30 22:03:52
101,"[{'imgObject': {}, 'id': 'hashbrowns', 'src': '/static/foodstim60/hashbrowns.jpg', 'key': 'u', 'origWidth': 411, 'origHeight': 410, 'width': 411, 'height': 410, 'widthPercent': 0.45, 'rescaleHeight': False, 'trialN': 101, 'loaded': True, 'loadedTime': 3584.899999976158, 'positionName': 'LEFT', 'positionCoords': [510.6, 335], 'bid': 5.7}, {'imgObject': {}, 'id': 'froot loops w milk', 'src': '/static/foodstim60/froot loops w milk.jpg', 'key': 'i', 'origWidth': 410, 'origHeight': 410, 'width': 410, 'height': 410, 'widthPercent': 0.45, 'rescaleHeight': False, 'trialN': 101, 'loaded': True, 'loadedTime': 3622.8000000715256, 'positionName': 'RIGHT', 'positionCoords': [998.4, 335], 'bid': 5.54}]",1016995.0,1669845722161,hashbrowns,froot loops w milk,5.7,5.54,-0.16000000000000014,hashbrowns,985.8000000715256,986,985.8999999761581,True,u,1018482.6000000238,1487.6000000238419,1669845723648,1487,HRV,HRV_0309,2022-11-30 22:03:52
102,"[{'imgObject': {}, 'id': 'turkey sandwich', 'src': '/static/foodstim60/turkey sandwich.jpg', 'key': 'u', 'origWidth': 409, 'origHeight': 409, 'width': 409, 'height': 409, 'widthPercent': 0.45, 'rescaleHeight': False, 'trialN': 102, 'loaded': True, 'loadedTime': 4426.5, 'positionName': 'LEFT', 'positionCoords': [512.6, 335.5], 'bid': 7.890000000000001}, {'imgObject': {}, 'id': 'strawberries', 'src': '/static/foodstim60/strawberries.jpg', 'key': 'i', 'origWidth': 410, 'origHeight': 410, 'width': 410, 'height': 410, 'widthPercent': 0.45, 'rescaleHeight': False, 'trialN': 102, 'loaded': True, 'loadedTime': 4224.5, 'positionName': 'RIGHT', 'positionCoords': [998.4, 335], 'bid': 7.27}]",1018482.8999999762,1669845723649,turkey sandwich,strawberries,7.890000000000001,7.27,-0.620000000000001,turkey sandwich,771.0,771,771.2000000476837,True,u,1019754.5,1271.6000000238419,1669845724920,1271,HRV,HRV_0309,2022-11-30 22:03:52
103,"[{'imgObject': {}, 'id': 'mashed potato', 'src': '/static/foodstim60/mashed potato.jpg', 'key': 'u', 'origWidth': 409, 'origHeight': 409, 'width': 409, 'height': 409, 'widthPercent': 0.45, 'rescaleHeight': False, 'trialN': 103, 'loaded': True, 'loadedTime': 4155.5, 'positionName': 'LEFT', 'positionCoords': [512.6, 335.5], 'bid': 3.61}, {'imgObject': {}, 'id': 'popsicles', 'src': '/static/foodstim60/popsicles.jpg', 'key': 'i', 'origWidth': 410, 'origHeight': 410, 'width': 410, 'height': 410, 'widthPercent': 0.45, 'rescaleHeight': False, 'trialN': 103, 'loaded': True, 'loadedTime': 3395.399999976158, 'positionName': 'RIGHT', 'positionCoords': [998.4, 335], 'bid': 1.78}]",1019755.0,1669845724921,mashed potato,popsicles,3.61,1.78,-1.8299999999999998,mashed potato,978.2000000476837,978,978.3000000715256,True,u,1021234.7000000477,1479.7000000476837,1669845726400,1479,HRV,HRV_0309,2022-11-30 22:03:52
104,"[{'imgObject': {}, 'id': 'raisin bran w milk', 'src': '/static/foodstim60/raisin bran w milk.jpg', 'key': 'u', 'origWidth': 411, 'origHeight': 411, 'width': 411, 'height': 411, 'widthPercent': 0.45, 'rescaleHeight': False, 'trialN': 104, 'loaded': True, 'loadedTime': 3865, 'positionName': 'LEFT', 'positionCoords': [510.6, 334.5], 'bid': 0}, {'imgObject': {}, 'id': 'eggsalad', 'src': '/static/foodstim60/eggsalad.jpg', 'key': 'i', 'origWidth': 410, 'origHeight': 409, 'width': 410, 'height': 409, 'widthPercent': 0.45, 'rescaleHeight': False, 'trialN': 104, 'loaded': True, 'loadedTime': 3919.600000023842, 'positionName': 'RIGHT', 'positionCoords': [998.4, 335.5], 'bid': 2.11}]",1021235.1000000238,1669845726401,raisin bran w milk,eggsalad,0.0,2.11,2.11,eggsalad,1074.5,1074,1074.7000000476837,True,i,1022810.6000000238,1575.5,1669845727976,1575,HRV,HRV_0309,2022-11-30 22:03:52
105,"[{'imgObject': {}, 'id': 'cherry tomato', 'src': '/static/foodstim60/cherry tomato.jpg', 'key': 'u', 'origWidth': 410, 'origHeight': 410, 'width': 410, 'height': 410, 'widthPercent': 0.45, 'rescaleHeight': False, 'trialN': 105, 'loaded': True, 'loadedTime': 3549.3000000715256, 'positionName': 'LEFT', 'positionCoords': [511.6, 335], 'bid': 0.84}, {'imgObject': {}, 'id': 'olives', 'src': '/static/foodstim60/olives.jpg', 'key': 'i', 'origWidth': 410, 'origHeight': 410, 'width': 410, 'height': 410, 'widthPercent': 0.45, 'rescaleHeight': False, 'trialN': 105, 'loaded': True, 'loadedTime': 3781.8000000715256, 'positionName': 'RIGHT', 'positionCoords': [998.4, 335], 'bid': 0.25}]",1022811.0,1669845727977,cherry tomato,olives,0.84,0.25,-0.59,cherry tomato,1666.3999999761581,1666,1666.6000000238419,True,u,1024979.6000000238,2168.600000023842,1669845730145,2168,HRV,HRV_0309,2022-11-30 22:03:52
106,"[{'imgObject': {}, 'id': 'banana', 'src': '/static/foodstim60/banana.jpg', 'key': 'u', 'origWidth': 410, 'origHeight': 410, 'width': 410, 'height': 410, 'widthPercent': 0.45, 'rescaleHeight': False, 'trialN': 106, 'loaded': True, 'loadedTime': 4439.600000023842, 'positionName': 'LEFT', 'positionCoords': [511.6, 335], 'bid': 6.93}, {'imgObject': {}, 'id': 'bagel plain', 'src': '/static/foodstim60/bagel plain.jpg', 'key': 'i', 'origWidth': 410, 'origHeight': 410, 'width': 410, 'height': 410, 'widthPercent': 0.45, 'rescaleHeight': False, 'trialN': 106, 'loaded': True, 'loadedTime': 3831.8000000715256, 'positionName': 'RIGHT', 'positionCoords': [998.4, 335], 'bid': 6.1000000000000005}]",1024980.1000000238,1669845730146,banana,bagel plain,6.93,6.1000000000000005,-0.8299999999999992,bagel plain,961.5,962,961.7999999523163,True,i,1026442.6000000238,1462.5,1669845731608,1462,HRV,HRV_0309,2022-11-30 22:03:52
107,"[{'imgObject': {}, 'id': 'salad w chicken', 'src': '/static/foodstim60/salad w chicken.jpg', 'key': 'u', 'origWidth': 411, 'origHeight': 411, 'width': 411, 'height': 411, 'widthPercent': 0.45, 'rescaleHeight': False, 'trialN': 107, 'loaded': True, 'loadedTime': 4170.100000023842, 'positionName': 'LEFT', 'positionCoords': [510.6, 334.5], 'bid': 7.63}, {'imgObject': {}, 'id': 'mac & cheese', 'src': '/static/foodstim60/mac & cheese.jpg', 'key': 'i', 'origWidth': 410, 'origHeight': 410, 'width': 410, 'height': 410, 'widthPercent': 0.45, 'rescaleHeight': False, 'trialN': 107, 'loaded': True, 'loadedTime': 4346.899999976158, 'positionName': 'RIGHT', 'positionCoords': [998.4, 335], 'bid': 4.94}]",1026443.1000000238,1669845731609,salad w chicken,mac & cheese,7.63,4.94,-2.6899999999999995,salad w chicken,986.6000000238419,987,986.7999999523163,True,u,1027931.5,1488.3999999761581,1669845733097,1488,HRV,HRV_0309,2022-11-30 22:03:52
108,"[{'imgObject': {}, 'id': 'cantaloupe', 'src': '/static/foodstim60/cantaloupe.jpg', 'key': 'u', 'origWidth': 409, 'origHeight': 409, 'width': 409, 'height': 409, 'widthPercent': 0.45, 'rescaleHeight': False, 'trialN': 108, 'loaded': True, 'loadedTime': 4251.200000047684, 'positionName': 'LEFT', 'positionCoords': [512.6, 335.5], 'bid': 2.83}, {'imgObject': {}, 'id': 'banana', 'src': '/static/foodstim60/banana.jpg', 'key': 'i', 'origWidth': 410, 'origHeight': 410, 'width': 410, 'height': 410, 'widthPercent': 0.45, 'rescaleHeight': False, 'trialN': 108, 'loaded': True, 'loadedTime': 4475.800000071526, 'positionName': 'RIGHT', 'positionCoords': [998.4, 335], 'bid': 6.93}]",1027931.8999999762,1669845733098,cantaloupe,banana,2.83,6.93,4.1,cantaloupe,945.2000000476837,945,945.4000000953674,True,u,1029378.6000000238,1446.7000000476837,1669845734544,1446,HRV,HRV_0309,2022-11-30 22:03:52
