success,trial_type,trial_index,time_elapsed,internal_node_id,Block,TrialNumber,TrialTime,trialTimeDiff,FPS_avg,FPS_med,FPS_mode,TrialDur,winResizeTime,rt,block,button_pressed,MotCoh,MotDir,ColCoh,Color,ChoiceKey,Choice,Accuracy,RT,nFrames,FPS,PPD,missTrial,missTrialMsg,onsetDelay,fullScreenExitTime,canvCenter,TrialType,Score,BlockTrial,stimulus,button_labels,exp,subjectId,date
True,fullscreen,0,2445,0.0-0.0,0.0,1.0,,,,,,,,,,,,,,,,,,,,,,,,,,,,,,,,HRV,HRV_0309,2022-11-30 22:23:52
,wl-check-fps,1,7444,0.0-1.0,0.0,2.0,"[3041.5, 3052, 3069, 3082, 3099, 3115.1, 3131.9, 3150.1, 3165.9, 3182, 3198.7, 3216.7, 3232.6, 3249.6, 3266.4, 3281.6, 3299.6, 3316.1, 3333, 3350, 3366.8, 3382.1, 3398.7, 3415.7, 3431.6, 3448.6, 3466.5, 3482, 3500.1, 3515, 3533.2, 3550.1, 3565.1, 3582.2, 3599.2, 3615.4, 3631.6, 3649.4, 3665.1, 3682.1, 3699.1, 3716, 3731.9, 3749.8, 3766.8, 3782.1, 3799, 3816.1, 3833.2, 3849.1, 3866.1, 3882, 3900.1, 3915, 3933.1, 3948.7, 3966.7, 3981.8, 3999.9, 4016.7, 4031.7, 4049.7, 4066.6, 4082, 4100.1, 4115.9, 4132, 4148.8, 4164.9, 4182.7, 4198.6, 4214.8, 4232.7, 4249.7, 4265.7, 4283, 4299.9, 4315.9, 4331.9, 4348.5, 4365, 4383, 4400.2, 4415, 4433.1, 4448.6, 4467.3, 4482, 4499.1, 4515.1, 4533.4, 4549.7, 4566.5, 4582.6, 4599.7, 4616.6, 4631.5, 4649.6, 4666.5, 4682, 4699.1, 4716.1, 4732, 4750.1, 4765.2, 4782, 4799.9, 4814.9, 4833, 4850, 4865, 4882.8, 4899.1, 4914.8, 4933, 4948.4, 4965.6, 4983.5, 4999.5, 5015.5, 5031.9, 5050, 5064.9, 5083, 5099, 5115, 5132, 5149, 5165.9, 5182.9, 5198.8, 5215.7, 5232, 5249.9, 5269, 5282.8, 5299.7, 5315.7, 5331.7, 5349.6, 5366.6, 5381.6, 5399.6, 5416.5, 5432, 5449.1, 5466.1, 5482, 5498.5, 5515.1, 5533.1, 5548.9, 5566, 5583.1, 5599.3, 5616, 5632, 5650.2, 5665.1, 5682.2, 5700.2, 5715.9, 5732, 5750, 5765.1, 5783.4, 5799.9, 5814.8, 5831.8, 5849.9, 5866.7, 5882.9, 5898.7, 5915.6, 5932.6, 5949.6, 5964.9, 5982.9, 5999, 6015.5, 6031.6, 6049.8, 6066.6, 6082, 6099.1, 6116.1, 6132.1, 6148.9, 6165, 6182.1, 6200.1, 6216.1, 6233, 6249.5, 6265.4, 6282.9, 6299.9, 6315.7, 6331.8, 6349.8, 6366.7, 6382, 6399, 6415.7, 6431.8, 6449.7, 6466.6, 6483.6, 6499.6, 6516.5, 6533.5, 6549.5, 6568.5, 6582.4, 6599.5, 6615.2, 6633.2, 6648.9, 6665, 6681.9, 6699.9, 6715.3, 6732, 6749, 6765, 6782, 6799.1, 6815, 6832.2, 6849.7, 6865, 6881.6, 6899.2, 6915.2, 6933.3, 6949.1, 6966.1, 6983, 7000.1, 7016.1, 7033.5, 7049, 7065.5, 7082.7, 7100.1, 7115, 7132, 7148.5, 7166.5, 7182.5, 7199.6, 7216.5, 7233.6, 7250, 7266.9, 7282.8, 7299, 7315.9, 7331.9, 7350, 7366.8, 7382, 7400, 7415.4, 7432.4, 7448.6, 7465.5, 7482.5, 7500.1, 7516.1, 7532, 7550.2, 7565.3, 7583.4, 7599, 7615.7, 7632, 7649.9, 7666.8, 7682.9, 7698.3, 7716.4, 7733.7, 7749.6, 7766.5, 7782.6, 7799, 7815, 7833, 7849, 7865.1, 7882, 7899, 7917.1, 7931.9, 7950.1, 7967, 7982.7, 7999.7, 8016.5]","[5.6, 10.5, 17, 13, 17, 16.1, 16.8, 18.2, 15.8, 16.1, 16.7, 18, 15.9, 17, 16.8, 15.2, 18, 16.5, 16.9, 17, 16.8, 15.3, 16.6, 17, 15.9, 17, 17.9, 15.5, 18.1, 14.9, 18.2, 16.9, 15, 17.1, 17, 16.2, 16.2, 17.8, 15.7, 17, 17, 16.9, 15.9, 17.9, 17, 15.3, 16.9, 17.1, 17.1, 15.9, 17, 15.9, 18.1, 14.9, 18.1, 15.6, 18, 15.1, 18.1, 16.8, 15, 18, 16.9, 15.4, 18.1, 15.8, 16.1, 16.8, 16.1, 17.8, 15.9, 16.2, 17.9, 17, 16, 17.3, 16.9, 16, 16, 16.6, 16.5, 18, 17.2, 14.8, 18.1, 15.5, 18.7, 14.7, 17.1, 16, 18.3, 16.3, 16.8, 16.1, 17.1, 16.9, 14.9, 18.1, 16.9, 15.5, 17.1, 17, 15.9, 18.1, 15.1, 16.8, 17.9, 15, 18.1, 17, 15, 17.8, 16.3, 15.7, 18.2, 15.4, 17.2, 17.9, 16, 16, 16.4, 18.1, 14.9, 18.1, 16, 16, 17, 17, 16.9, 17, 15.9, 16.9, 16.3, 17.9, 19.1, 13.8, 16.9, 16, 16, 17.9, 17, 15, 18, 16.9, 15.5, 17.1, 17, 15.9, 16.5, 16.6, 18, 15.8, 17.1, 17.1, 16.2, 16.7, 16, 18.2, 14.9, 17.1, 18, 15.7, 16.1, 18, 15.1, 18.3, 16.5, 14.9, 17, 18.1, 16.8, 16.2, 15.8, 16.9, 17, 17, 15.3, 18, 16.1, 16.5, 16.1, 18.2, 16.8, 15.4, 17.1, 17, 16, 16.8, 16.1, 17.1, 18, 16, 16.9, 16.5, 15.9, 17.5, 17, 15.8, 16.1, 18, 16.9, 15.3, 17, 16.7, 16.1, 17.9, 16.9, 17, 16, 16.9, 17, 16, 19, 13.9, 17.1, 15.7, 18, 15.7, 16.1, 16.9, 18, 15.4, 16.7, 17, 16, 17, 17.1, 15.9, 17.2, 17.5, 15.3, 16.6, 17.6, 16, 18.1, 15.8, 17, 16.9, 17.1, 16, 17.4, 15.5, 16.5, 17.2, 17.4, 14.9, 17, 16.5, 18, 16, 17.1, 16.9, 17.1, 16.4, 16.9, 15.9, 16.2, 16.9, 16, 18.1, 16.8, 15.2, 18, 15.4, 17, 16.2, 16.9, 17, 17.6, 16, 15.9, 18.2, 15.1, 18.1, 15.6, 16.7, 16.3, 17.9, 16.9, 16.1, 15.4, 18.1, 17.3, 15.9, 16.9, 16.1, 16.4, 16, 18, 16, 16.1, 16.9, 17, 18.1, 14.8, 18.2, 16.9, 15.7, 17, 16.8]",60.0,58.0,59.0,4997.7,[],,,,,,,,,,,,,,,,,,,,,,,,,HRV,HRV_0309,2022-11-30 22:23:52
,wl-html-keyboard-response,2,23230,0.0-2.0-0.0,0.0,3.0,,,,,,,,13778.800000071526,0.0,0,,,,,,,,,,,,,,,,,,,,,,HRV,HRV_0309,2022-11-30 22:23:52
,wl-rdm,3,32962,0.0-3.0-0.0,0.0,4.0,,,,,,,[],,,,0.0,0.0,87.9,0.0,u,0.0,True,4160.0,250.0,59.0,40.0,False,,3000.0,[],"[960, 540]",ColorTask_Demo,,,,,HRV,HRV_0309,2022-11-30 22:23:52
,wl-rdm,4,38763,0.0-3.0-1.0,0.0,5.0,,,,,,,[],,,,0.0,0.0,87.9,1.0,i,1.0,True,1711.5999999046326,103.0,59.0,40.0,False,,2000.0,[],"[960, 540]",ColorTask_Demo,,,,,HRV,HRV_0309,2022-11-30 22:23:52
,wl-html-keyboard-response,5,45366,0.0-3.0-2.0,0.0,6.0,,,,,,,,4596.100000023842,0.0,1,,,,,,,,,,,,,,,,,,,,,,HRV,HRV_0309,2022-11-30 22:23:52
,wl-html-keyboard-response,6,54829,0.0-4.0-0.0,0.0,7.0,,,,,,,,7458.200000047684,0.0,0,,,,,,,,,,,,,,,,,,,,,,HRV,HRV_0309,2022-11-30 22:23:52
,wl-html-keyboard-response,7,77061,0.0-5.0-0.0,0.0,8.0,,,,,,,,20226.800000071526,0.0,0,,,,,,,,,,,,,,,,,,,,,,HRV,HRV_0309,2022-11-30 22:23:52
,wl-rdm,8,80547,0.0-6.0-0.0,0.0,9.0,,,,,,,[],,,,,,50.0,1.0,i,1.0,True,2044.0,123.0,59.0,40.0,False,,368.47248497606256,[],"[960, 540]",ColorTask,1.0,1.0,,,HRV,HRV_0309,2022-11-30 22:23:52
,wl-rdm,9,83231,0.0-6.1-0.1,0.0,10.0,,,,,,,[],,,,,,50.0,0.0,i,1.0,False,1283.0,77.0,59.0,40.0,False,,322.0510551530725,[],"[960, 540]",ColorTask,0.0,2.0,,,HRV,HRV_0309,2022-11-30 22:23:52
,wl-rdm,10,86515,0.0-6.2-0.2,0.0,11.0,,,,,,,[],,,,,,56.4,0.0,i,1.0,False,1995.3000000715256,120.0,59.0,40.0,False,,229.3623528575241,[],"[960, 540]",ColorTask,-1.0,3.0,,,HRV,HRV_0309,2022-11-30 22:23:52
,wl-rdm,11,89131,0.0-6.3-0.3,0.0,12.0,,,,,,,[],,,,,,50.0,1.0,i,1.0,True,1242.6999999284744,75.0,59.0,40.0,False,,315.77907979882804,[],"[960, 540]",ColorTask,0.0,4.0,,,HRV,HRV_0309,2022-11-30 22:23:52
,wl-rdm,12,91231,0.0-6.4-0.4,0.0,13.0,,,,,,,[],,,,,,73.6,0.0,u,0.0,True,788.1000000238419,48.0,59.0,40.0,False,,245.53974637212295,[],"[960, 540]",ColorTask,1.0,5.0,,,HRV,HRV_0309,2022-11-30 22:23:52
,wl-rdm,13,94881,0.0-6.5-0.5,0.0,14.0,,,,,,,[],,,,,,53.2,0.0,i,1.0,False,2378.7000000476837,143.0,59.0,40.0,False,,214.18202452073223,[],"[960, 540]",ColorTask,0.0,6.0,,,HRV,HRV_0309,2022-11-30 22:23:52
,wl-rdm,14,97265,0.0-6.6-0.6,0.0,15.0,,,,,,,[],,,,,,53.2,1.0,i,1.0,True,1062.1000000238419,64.0,59.0,40.0,False,,264.83737515370075,[],"[960, 540]",ColorTask,1.0,7.0,,,HRV,HRV_0309,2022-11-30 22:23:52
,wl-rdm,15,99515,0.0-6.7-0.7,0.0,16.0,,,,,,,[],,,,,,73.6,1.0,i,1.0,True,822.8999999761581,50.0,59.0,40.0,False,,339.35924401841754,[],"[960, 540]",ColorTask,2.0,8.0,,,HRV,HRV_0309,2022-11-30 22:23:52
,wl-rdm,16,103449,0.0-6.8-0.8,0.0,17.0,,,,,,,[],,,,,,56.4,0.0,u,0.0,True,2521.899999976158,152.0,59.0,40.0,False,,327.4193808777489,[],"[960, 540]",ColorTask,3.0,9.0,,,HRV,HRV_0309,2022-11-30 22:23:52
,wl-rdm,17,105633,0.0-6.9-0.9,0.0,18.0,,,,,,,[],,,,,,56.4,1.0,i,1.0,True,838.799999833107,51.0,59.0,40.0,False,,276.4732246623074,[],"[960, 540]",ColorTask,4.0,10.0,,,HRV,HRV_0309,2022-11-30 22:23:52
,wl-rdm,18,107798,0.0-6.10-0.10,0.0,19.0,,,,,,,[],,,,,,53.2,1.0,i,1.0,True,782.0,47.0,59.0,40.0,False,,327.0638049204793,[],"[960, 540]",ColorTask,5.0,11.0,,,HRV,HRV_0309,2022-11-30 22:23:52
,wl-rdm,19,110400,0.0-6.11-0.11,0.0,20.0,,,,,,,[],,,,,,73.6,1.0,i,1.0,True,1173.5,71.0,59.0,40.0,False,,361.89328533639,[],"[960, 540]",ColorTask,6.0,12.0,,,HRV,HRV_0309,2022-11-30 22:23:52
,wl-rdm,20,113283,0.0-6.12-0.12,0.0,21.0,,,,,,,[],,,,,,56.4,0.0,u,0.0,True,1504.3999999761581,91.0,59.0,40.0,False,,306.0911479836957,[],"[960, 540]",ColorTask,7.0,13.0,,,HRV,HRV_0309,2022-11-30 22:23:52
,wl-rdm,21,115515,0.0-6.13-0.13,0.0,22.0,,,,,,,[],,,,,,73.6,0.0,u,0.0,True,958.1000000238419,58.0,59.0,40.0,False,,203.3179300107432,[],"[960, 540]",ColorTask,8.0,14.0,,,HRV,HRV_0309,2022-11-30 22:23:52
,wl-rdm,22,118384,0.0-6.14-0.14,0.0,23.0,,,,,,,[],,,,,,56.4,0.0,u,0.0,True,1406.1000000238419,85.0,59.0,40.0,False,,395.03127905907064,[],"[960, 540]",ColorTask,9.0,15.0,,,HRV,HRV_0309,2022-11-30 22:23:52
,wl-rdm,23,120967,0.0-6.15-0.15,0.0,24.0,,,,,,,[],,,,,,50.0,1.0,i,1.0,True,1240.2999999523163,75.0,59.0,40.0,False,,271.3122131616688,[],"[960, 540]",ColorTask,10.0,16.0,,,HRV,HRV_0309,2022-11-30 22:23:52
,wl-rdm,24,123550,0.0-6.16-0.16,0.0,25.0,,,,,,,[],,,,,,53.2,0.0,u,0.0,True,1263.5,76.0,59.0,40.0,False,,253.68924455758037,[],"[960, 540]",ColorTask,11.0,17.0,,,HRV,HRV_0309,2022-11-30 22:23:52
,wl-rdm,25,126216,0.0-6.17-0.17,0.0,26.0,,,,,,,[],,,,,,53.2,1.0,i,1.0,True,1287.6999999284744,78.0,59.0,40.0,False,,308.2455744534291,[],"[960, 540]",ColorTask,12.0,18.0,,,HRV,HRV_0309,2022-11-30 22:23:52
,wl-rdm,26,129067,0.0-6.18-0.18,0.0,27.0,,,,,,,[],,,,,,56.4,1.0,u,0.0,False,1495.1000000238419,90.0,59.0,40.0,False,,289.31528208739155,[],"[960, 540]",ColorTask,11.0,19.0,,,HRV,HRV_0309,2022-11-30 22:23:52
,wl-rdm,27,132184,0.0-6.19-0.19,0.0,28.0,,,,,,,[],,,,,,62.5,0.0,u,0.0,True,1830.1999999284744,110.0,59.0,40.0,False,,231.5686343846915,[],"[960, 540]",ColorTask,12.0,20.0,,,HRV,HRV_0309,2022-11-30 22:23:52
,wl-rdm,28,134718,0.0-6.20-0.20,0.0,29.0,,,,,,,[],,,,,,73.6,0.0,i,1.0,False,1171.6999999284744,71.0,59.0,40.0,False,,290.62496073089613,[],"[960, 540]",ColorTask,11.0,21.0,,,HRV,HRV_0309,2022-11-30 22:23:52
,wl-rdm,29,137235,0.0-6.21-0.21,0.0,30.0,,,,,,,[],,,,,,50.0,0.0,u,0.0,True,1211.7000000476837,73.0,59.0,40.0,False,,229.3967487425526,[],"[960, 540]",ColorTask,12.0,22.0,,,HRV,HRV_0309,2022-11-30 22:23:52
,wl-rdm,30,139151,0.0-6.22-0.22,0.0,31.0,,,,,,,[],,,,,,87.9,1.0,i,1.0,True,607.2000000476837,37.0,59.0,40.0,False,,242.73988505946346,[],"[960, 540]",ColorTask,13.0,23.0,,,HRV,HRV_0309,2022-11-30 22:23:52
,wl-rdm,31,141485,0.0-6.23-0.23,0.0,32.0,,,,,,,[],,,,,,87.9,0.0,u,0.0,True,1024.3999999761581,62.0,59.0,40.0,False,,243.80084290617293,[],"[960, 540]",ColorTask,14.0,24.0,,,HRV,HRV_0309,2022-11-30 22:23:52
,wl-rdm,32,144419,0.0-6.24-0.24,0.0,33.0,,,,,,,[],,,,,,53.2,1.0,i,1.0,True,1488.0999999046326,90.0,59.0,40.0,False,,371.7856916764025,[],"[960, 540]",ColorTask,15.0,25.0,,,HRV,HRV_0309,2022-11-30 22:23:52
,wl-rdm,33,147520,0.0-6.25-0.25,0.0,34.0,,,,,,,[],,,,,,56.4,1.0,i,1.0,True,1758.1000000238419,106.0,59.0,40.0,False,,252.29765951493948,[],"[960, 540]",ColorTask,16.0,26.0,,,HRV,HRV_0309,2022-11-30 22:23:52
,wl-rdm,34,150036,0.0-6.26-0.26,0.0,35.0,,,,,,,[],,,,,,73.6,1.0,i,1.0,True,1192.8999999761581,72.0,59.0,40.0,False,,260.2258281033283,[],"[960, 540]",ColorTask,17.0,27.0,,,HRV,HRV_0309,2022-11-30 22:23:52
,wl-rdm,35,152820,0.0-6.27-0.27,0.0,36.0,,,,,,,[],,,,,,50.0,0.0,i,1.0,False,1461.5999999046326,88.0,59.0,40.0,False,,263.98212544080445,[],"[960, 540]",ColorTask,16.0,28.0,,,HRV,HRV_0309,2022-11-30 22:23:52
,wl-rdm,36,155137,0.0-6.28-0.28,0.0,37.0,,,,,,,[],,,,,,62.5,1.0,i,1.0,True,981.5999999046326,59.0,59.0,40.0,False,,258.54640703887475,[],"[960, 540]",ColorTask,17.0,29.0,,,HRV,HRV_0309,2022-11-30 22:23:52
,wl-rdm,37,157769,0.0-6.29-0.29,0.0,38.0,,,,,,,[],,,,,,50.0,0.0,u,0.0,True,1229.3999999761581,74.0,59.0,40.0,False,,322.1642451989814,[],"[960, 540]",ColorTask,18.0,30.0,,,HRV,HRV_0309,2022-11-30 22:23:52
,wl-rdm,38,160586,0.0-6.30-0.30,0.0,39.0,,,,,,,[],,,,,,50.0,1.0,u,0.0,False,1420.5,86.0,59.0,40.0,False,,333.1247274790177,[],"[960, 540]",ColorTask,17.0,31.0,,,HRV,HRV_0309,2022-11-30 22:23:52
,wl-rdm,39,163219,0.0-6.31-0.31,0.0,40.0,,,,,,,[],,,,,,87.9,0.0,u,0.0,True,1176.6000000238419,71.0,59.0,40.0,False,,389.2148670980737,[],"[960, 540]",ColorTask,18.0,32.0,,,HRV,HRV_0309,2022-11-30 22:23:52
,wl-rdm,40,165354,0.0-6.32-0.32,0.0,41.0,,,,,,,[],,,,,,73.6,1.0,i,1.0,True,739.0,45.0,59.0,40.0,False,,322.27342768638255,[],"[960, 540]",ColorTask,19.0,33.0,,,HRV,HRV_0309,2022-11-30 22:23:52
,wl-rdm,41,168553,0.0-6.33-0.33,0.0,42.0,,,,,,,[],,,,,,62.5,0.0,u,0.0,True,1746.7999999523163,105.0,59.0,40.0,False,,373.1456423231275,[],"[960, 540]",ColorTask,20.0,34.0,,,HRV,HRV_0309,2022-11-30 22:23:52
,wl-rdm,42,171321,0.0-6.34-0.34,0.0,43.0,,,,,,,[],,,,,,62.5,1.0,i,1.0,True,1290.6000000238419,78.0,59.0,40.0,False,,393.7732472406878,[],"[960, 540]",ColorTask,21.0,35.0,,,HRV,HRV_0309,2022-11-30 22:23:52
,wl-rdm,43,173804,0.0-6.35-0.35,0.0,44.0,,,,,,,[],,,,,,56.4,1.0,i,1.0,True,1155.2000000476837,70.0,59.0,40.0,False,,265.224269647345,[],"[960, 540]",ColorTask,22.0,36.0,,,HRV,HRV_0309,2022-11-30 22:23:52
,wl-rdm,44,176520,0.0-6.36-0.36,0.0,45.0,,,,,,,[],,,,,,73.6,1.0,i,1.0,True,1273.5,77.0,59.0,40.0,False,,360.0370127740006,[],"[960, 540]",ColorTask,23.0,37.0,,,HRV,HRV_0309,2022-11-30 22:23:52
,wl-rdm,45,179038,0.0-6.37-0.37,0.0,46.0,,,,,,,[],,,,,,56.4,1.0,i,1.0,True,1205.3000000715256,73.0,59.0,40.0,False,,224.5936789602587,[],"[960, 540]",ColorTask,24.0,38.0,,,HRV,HRV_0309,2022-11-30 22:23:52
,wl-rdm,46,181687,0.0-6.38-0.38,0.0,47.0,,,,,,,[],,,,,,73.6,0.0,u,0.0,True,1315.1000000238419,79.0,59.0,40.0,False,,251.89966409543868,[],"[960, 540]",ColorTask,25.0,39.0,,,HRV,HRV_0309,2022-11-30 22:23:52
,wl-rdm,47,184604,0.0-6.39-0.39,0.0,48.0,,,,,,,[],,,,,,73.6,0.0,u,0.0,True,1589.6000000238419,96.0,59.0,40.0,False,,261.7539708911205,[],"[960, 540]",ColorTask,26.0,40.0,,,HRV,HRV_0309,2022-11-30 22:23:52
,wl-rdm,48,187889,0.0-6.40-0.40,0.0,49.0,,,,,,,[],,,,,,53.2,1.0,i,1.0,True,2013.2999999523163,121.0,59.0,40.0,False,,215.09261730323655,[],"[960, 540]",ColorTask,27.0,41.0,,,HRV,HRV_0309,2022-11-30 22:23:52
,wl-rdm,49,190955,0.0-6.41-0.41,0.0,50.0,,,,,,,[],,,,,,73.6,1.0,i,1.0,True,1778.1000000238419,107.0,59.0,40.0,False,,218.5207643479528,[],"[960, 540]",ColorTask,28.0,42.0,,,HRV,HRV_0309,2022-11-30 22:23:52
,wl-rdm,50,193922,0.0-6.42-0.42,0.0,51.0,,,,,,,[],,,,,,62.5,0.0,u,0.0,True,1678.7999999523163,101.0,59.0,40.0,False,,216.8113867412777,[],"[960, 540]",ColorTask,29.0,43.0,,,HRV,HRV_0309,2022-11-30 22:23:52
,wl-rdm,51,197072,0.0-6.43-0.43,0.0,52.0,,,,,,,[],,,,,,50.0,0.0,i,1.0,False,1705.6000000238419,103.0,59.0,40.0,False,,369.7120967485249,[],"[960, 540]",ColorTask,28.0,44.0,,,HRV,HRV_0309,2022-11-30 22:23:52
,wl-rdm,52,200271,0.0-6.44-0.44,0.0,53.0,,,,,,,[],,,,,,87.9,1.0,i,1.0,True,1831.1000000238419,110.0,59.0,40.0,False,,309.45468091224143,[],"[960, 540]",ColorTask,29.0,45.0,,,HRV,HRV_0309,2022-11-30 22:23:52
,wl-rdm,53,203172,0.0-6.45-0.45,0.0,54.0,,,,,,,[],,,,,,87.9,1.0,i,1.0,True,1543.0,93.0,59.0,40.0,False,,298.0598390204265,[],"[960, 540]",ColorTask,30.0,46.0,,,HRV,HRV_0309,2022-11-30 22:23:52
,wl-rdm,54,205839,0.0-6.46-0.46,0.0,55.0,,,,,,,[],,,,,,56.4,1.0,u,0.0,False,1364.7999999523163,82.0,59.0,40.0,False,,221.86217041191432,[],"[960, 540]",ColorTask,29.0,47.0,,,HRV,HRV_0309,2022-11-30 22:23:52
,wl-rdm,55,208389,0.0-6.47-0.47,0.0,56.0,,,,,,,[],,,,,,73.6,1.0,i,1.0,True,1091.3000000715256,66.0,59.0,40.0,False,,392.41042548376805,[],"[960, 540]",ColorTask,30.0,48.0,,,HRV,HRV_0309,2022-11-30 22:23:52
,wl-rdm,56,211106,0.0-6.48-0.48,0.0,57.0,,,,,,,[],,,,,,73.6,0.0,u,0.0,True,1327.3999999761581,80.0,59.0,40.0,False,,332.72899414568985,[],"[960, 540]",ColorTask,31.0,49.0,,,HRV,HRV_0309,2022-11-30 22:23:52
,wl-rdm,57,214038,0.0-6.49-0.49,0.0,58.0,,,,,,,[],,,,,,56.4,0.0,u,0.0,True,1548.0999999046326,93.0,59.0,40.0,False,,303.8897345521913,[],"[960, 540]",ColorTask,32.0,50.0,,,HRV,HRV_0309,2022-11-30 22:23:52
,wl-rdm,58,217156,0.0-6.50-0.50,0.0,59.0,,,,,,,[],,,,,,53.2,0.0,u,0.0,True,1704.5,103.0,59.0,40.0,False,,321.0606505181681,[],"[960, 540]",ColorTask,33.0,51.0,,,HRV,HRV_0309,2022-11-30 22:23:52
,wl-rdm,59,220239,0.0-6.51-0.51,0.0,60.0,,,,,,,[],,,,,,62.5,1.0,i,1.0,True,1705.6000000238419,103.0,59.0,40.0,False,,284.80512251369095,[],"[960, 540]",ColorTask,34.0,52.0,,,HRV,HRV_0309,2022-11-30 22:23:52
,wl-rdm,60,223007,0.0-6.52-0.52,0.0,61.0,,,,,,,[],,,,,,62.5,1.0,i,1.0,True,1490.1000000238419,90.0,59.0,40.0,False,,202.13098916896826,[],"[960, 540]",ColorTask,35.0,53.0,,,HRV,HRV_0309,2022-11-30 22:23:52
,wl-rdm,61,225839,0.0-6.53-0.53,0.0,62.0,,,,,,,[],,,,,,56.4,1.0,i,1.0,True,1431.1000000238419,86.0,59.0,40.0,False,,331.7233434112925,[],"[960, 540]",ColorTask,36.0,54.0,,,HRV,HRV_0309,2022-11-30 22:23:52
,wl-rdm,62,228957,0.0-6.54-0.54,0.0,63.0,,,,,,,[],,,,,,56.4,0.0,u,0.0,True,1821.7999999523163,110.0,59.0,40.0,False,,215.35358410680308,[],"[960, 540]",ColorTask,37.0,55.0,,,HRV,HRV_0309,2022-11-30 22:23:52
,wl-rdm,63,231573,0.0-6.55-0.55,0.0,64.0,,,,,,,[],,,,,,73.6,0.0,u,0.0,True,1155.2999999523163,70.0,59.0,40.0,False,,372.58611033559765,[],"[960, 540]",ColorTask,38.0,56.0,,,HRV,HRV_0309,2022-11-30 22:23:52
,wl-rdm,64,234124,0.0-6.56-0.56,0.0,65.0,,,,,,,[],,,,,,87.9,0.0,u,0.0,True,1221.8999999761581,74.0,59.0,40.0,False,,246.5707218118302,[],"[960, 540]",ColorTask,39.0,57.0,,,HRV,HRV_0309,2022-11-30 22:23:52
,wl-rdm,65,236640,0.0-6.57-0.57,0.0,66.0,,,,,,,[],,,,,,62.5,1.0,i,1.0,True,1223.3999999761581,74.0,59.0,40.0,False,,214.0991545556924,[],"[960, 540]",ColorTask,40.0,58.0,,,HRV,HRV_0309,2022-11-30 22:23:52
,wl-rdm,66,239491,0.0-6.58-0.58,0.0,67.0,,,,,,,[],,,,,,62.5,0.0,u,0.0,True,1422.5999999046326,86.0,59.0,40.0,False,,343.50921590803114,[],"[960, 540]",ColorTask,41.0,59.0,,,HRV,HRV_0309,2022-11-30 22:23:52
,wl-rdm,67,242123,0.0-6.59-0.59,0.0,68.0,,,,,,,[],,,,,,62.5,1.0,i,1.0,True,1187.5,72.0,59.0,40.0,False,,356.739461336673,[],"[960, 540]",ColorTask,42.0,60.0,,,HRV,HRV_0309,2022-11-30 22:23:52
,wl-rdm,68,244808,0.0-6.60-0.60,0.0,69.0,,,,,,,[],,,,,,50.0,1.0,u,0.0,False,1314.5,79.0,59.0,40.0,False,,302.6624306509373,[],"[960, 540]",ColorTask,41.0,61.0,,,HRV,HRV_0309,2022-11-30 22:23:52
,wl-rdm,69,247491,0.0-6.61-0.61,0.0,70.0,,,,,,,[],,,,,,50.0,1.0,i,1.0,True,1294.5,78.0,59.0,40.0,False,,301.43091115586446,[],"[960, 540]",ColorTask,42.0,62.0,,,HRV,HRV_0309,2022-11-30 22:23:52
,wl-rdm,70,250008,0.0-6.62-0.62,0.0,71.0,,,,,,,[],,,,,,87.9,0.0,u,0.0,True,1071.6000000238419,65.0,59.0,40.0,False,,361.74861034225864,[],"[960, 540]",ColorTask,43.0,63.0,,,HRV,HRV_0309,2022-11-30 22:23:52
,wl-rdm,71,252542,0.0-6.63-0.63,0.0,72.0,,,,,,,[],,,,,,56.4,0.0,u,0.0,True,1116.0,67.0,59.0,40.0,False,,338.19614446796606,[],"[960, 540]",ColorTask,44.0,64.0,,,HRV,HRV_0309,2022-11-30 22:23:52
,wl-rdm,72,254875,0.0-6.64-0.64,0.0,73.0,,,,,,,[],,,,,,53.2,1.0,i,1.0,True,860.8999999761581,52.0,59.0,40.0,False,,399.1676860440557,[],"[960, 540]",ColorTask,45.0,65.0,,,HRV,HRV_0309,2022-11-30 22:23:52
,wl-rdm,73,257007,0.0-6.65-0.65,0.0,74.0,,,,,,,[],,,,,,87.9,1.0,i,1.0,True,839.0,51.0,59.0,40.0,False,,204.01967941084303,[],"[960, 540]",ColorTask,46.0,66.0,,,HRV,HRV_0309,2022-11-30 22:23:52
,wl-rdm,74,259425,0.0-6.66-0.66,0.0,75.0,,,,,,,[],,,,,,53.2,1.0,i,1.0,True,978.2999999523163,59.0,59.0,40.0,False,,380.1190300667684,[],"[960, 540]",ColorTask,47.0,67.0,,,HRV,HRV_0309,2022-11-30 22:23:52
,wl-rdm,75,263091,0.0-6.67-0.67,0.0,76.0,,,,,,,[],,,,,,62.5,0.0,u,0.0,True,2243.5999999046326,135.0,59.0,40.0,False,,354.2749401277737,[],"[960, 540]",ColorTask,48.0,68.0,,,HRV,HRV_0309,2022-11-30 22:23:52
,wl-rdm,76,265275,0.0-6.68-0.68,0.0,77.0,,,,,,,[],,,,,,62.5,1.0,i,1.0,True,805.2000000476837,49.0,59.0,40.0,False,,311.4838415578451,[],"[960, 540]",ColorTask,49.0,69.0,,,HRV,HRV_0309,2022-11-30 22:23:52
,wl-rdm,77,267693,0.0-6.69-0.69,0.0,78.0,,,,,,,[],,,,,,53.2,0.0,u,0.0,True,1004.7000000476837,61.0,59.0,40.0,False,,327.52795313713494,[],"[960, 540]",ColorTask,50.0,70.0,,,HRV,HRV_0309,2022-11-30 22:23:52
,wl-rdm,78,269958,0.0-6.70-0.70,0.0,79.0,,,,,,,[],,,,,,87.9,0.0,u,0.0,True,832.0,50.0,59.0,40.0,False,,373.131054898058,[],"[960, 540]",ColorTask,51.0,71.0,,,HRV,HRV_0309,2022-11-30 22:23:52
,wl-rdm,79,272108,0.0-6.71-0.71,0.0,80.0,,,,,,,[],,,,,,87.9,1.0,i,1.0,True,669.8999999761581,41.0,59.0,40.0,False,,388.3118449740472,[],"[960, 540]",ColorTask,52.0,72.0,,,HRV,HRV_0309,2022-11-30 22:23:52
,wl-rdm,80,274609,0.0-6.72-0.72,0.0,81.0,,,,,,,[],,,,,,53.2,1.0,u,0.0,False,1189.1000000238419,72.0,59.0,40.0,False,,219.73260287539938,[],"[960, 540]",ColorTask,51.0,73.0,,,HRV,HRV_0309,2022-11-30 22:23:52
,wl-rdm,81,277325,0.0-6.73-0.73,0.0,82.0,,,,,,,[],,,,,,56.4,1.0,i,1.0,True,1390.1000000238419,84.0,59.0,40.0,False,,258.5152589833924,[],"[960, 540]",ColorTask,52.0,74.0,,,HRV,HRV_0309,2022-11-30 22:23:52
,wl-rdm,82,279709,0.0-6.74-0.74,0.0,83.0,,,,,,,[],,,,,,50.0,0.0,i,1.0,False,990.8000000715256,60.0,59.0,40.0,False,,332.59653883733074,[],"[960, 540]",ColorTask,51.0,75.0,,,HRV,HRV_0309,2022-11-30 22:23:52
,wl-rdm,83,282092,0.0-6.75-0.75,0.0,84.0,,,,,,,[],,,,,,87.9,0.0,u,0.0,True,949.0,57.0,59.0,40.0,False,,378.59777048414276,[],"[960, 540]",ColorTask,52.0,76.0,,,HRV,HRV_0309,2022-11-30 22:23:52
,wl-rdm,84,284576,0.0-6.76-0.76,0.0,85.0,,,,,,,[],,,,,,56.4,0.0,i,1.0,False,1129.1000000238419,68.0,59.0,40.0,False,,283.15110788039215,[],"[960, 540]",ColorTask,51.0,77.0,,,HRV,HRV_0309,2022-11-30 22:23:52
,wl-rdm,85,287327,0.0-6.77-0.77,0.0,86.0,,,,,,,[],,,,,,53.2,0.0,i,1.0,False,1464.3000000715256,88.0,59.0,40.0,False,,210.16126694795625,[],"[960, 540]",ColorTask,50.0,78.0,,,HRV,HRV_0309,2022-11-30 22:23:52
,wl-rdm,86,289877,0.0-6.78-0.78,0.0,87.0,,,,,,,[],,,,,,50.0,0.0,u,0.0,True,1183.1000000238419,71.0,59.0,40.0,False,,293.2511964107692,[],"[960, 540]",ColorTask,51.0,79.0,,,HRV,HRV_0309,2022-11-30 22:23:52
,wl-rdm,87,292126,0.0-6.79-0.79,0.0,88.0,,,,,,,[],,,,,,62.5,0.0,u,0.0,True,980.3000000715256,59.0,59.0,40.0,False,,211.94090268585668,[],"[960, 540]",ColorTask,52.0,80.0,,,HRV,HRV_0309,2022-11-30 22:23:52
,wl-rdm,88,294278,0.0-6.80-0.80,0.0,89.0,,,,,,,[],,,,,,73.6,1.0,i,1.0,True,833.5,50.0,59.0,40.0,False,,256.34443901886993,[],"[960, 540]",ColorTask,53.0,81.0,,,HRV,HRV_0309,2022-11-30 22:23:52
,wl-rdm,89,297377,0.0-6.81-0.81,0.0,90.0,,,,,,,[],,,,,,62.5,0.0,u,0.0,True,1796.3000000715256,108.0,59.0,40.0,False,,242.26122508861795,[],"[960, 540]",ColorTask,54.0,82.0,,,HRV,HRV_0309,2022-11-30 22:23:52
,wl-rdm,90,299645,0.0-6.82-0.82,0.0,91.0,,,,,,,[],,,,,,87.9,1.0,i,1.0,True,956.3000000715256,58.0,59.0,40.0,False,,230.7410510324947,[],"[960, 540]",ColorTask,55.0,83.0,,,HRV,HRV_0309,2022-11-30 22:23:52
,wl-rdm,91,302360,0.0-6.83-0.83,0.0,92.0,,,,,,,[],,,,,,56.4,1.0,u,0.0,False,1312.2000000476837,79.0,59.0,40.0,False,,334.3142372633988,[],"[960, 540]",ColorTask,54.0,84.0,,,HRV,HRV_0309,2022-11-30 22:23:52
,wl-rdm,92,304895,0.0-6.84-0.84,0.0,93.0,,,,,,,[],,,,,,53.2,0.0,i,1.0,False,1240.0,75.0,59.0,40.0,False,,216.8849095291186,[],"[960, 540]",ColorTask,53.0,85.0,,,HRV,HRV_0309,2022-11-30 22:23:52
,wl-rdm,93,307845,0.0-6.85-0.85,0.0,94.0,,,,,,,[],,,,,,50.0,0.0,u,0.0,True,1625.6000000238419,98.0,59.0,40.0,False,,243.7461233680889,[],"[960, 540]",ColorTask,54.0,86.0,,,HRV,HRV_0309,2022-11-30 22:23:52
,wl-rdm,94,310478,0.0-6.86-0.86,0.0,95.0,,,,,,,[],,,,,,62.5,0.0,i,1.0,False,1332.8000000715256,80.0,59.0,40.0,False,,225.87723319213902,[],"[960, 540]",ColorTask,53.0,87.0,,,HRV,HRV_0309,2022-11-30 22:23:52
,wl-rdm,95,314444,0.0-6.87-0.87,0.0,96.0,,,,,,,[],,,,,,50.0,1.0,u,0.0,False,2674.0,161.0,59.0,40.0,False,,232.73323299589765,[],"[960, 540]",ColorTask,52.0,88.0,,,HRV,HRV_0309,2022-11-30 22:23:52
,wl-rdm,96,316862,0.0-6.88-0.88,0.0,97.0,,,,,,,[],,,,,,87.9,1.0,i,1.0,True,1006.0,61.0,59.0,40.0,False,,348.8894791828847,[],"[960, 540]",ColorTask,53.0,89.0,,,HRV,HRV_0309,2022-11-30 22:23:52
,wl-rdm,97,320978,0.0-6.89-0.89,0.0,98.0,,,,,,,[],,,,,,50.0,1.0,u,0.0,False,2821.2000000476837,170.0,59.0,40.0,False,,200.87535776358055,[],"[960, 540]",ColorTask,52.0,90.0,,,HRV,HRV_0309,2022-11-30 22:23:52
,wl-rdm,98,324179,0.0-6.90-0.90,0.0,99.0,,,,,,,[],,,,,,50.0,0.0,u,0.0,True,1910.3999999761581,115.0,59.0,40.0,False,,207.7751013573325,[],"[960, 540]",ColorTask,53.0,91.0,,,HRV,HRV_0309,2022-11-30 22:23:52
,wl-rdm,99,326446,0.0-6.91-0.91,0.0,100.0,,,,,,,[],,,,,,87.9,0.0,u,0.0,True,982.6000000238419,59.0,59.0,40.0,False,,210.9073471153646,[],"[960, 540]",ColorTask,54.0,92.0,,,HRV,HRV_0309,2022-11-30 22:23:52
,wl-rdm,100,328730,0.0-6.92-0.92,0.0,101.0,,,,,,,[],,,,,,87.9,0.0,u,0.0,True,929.9000000953674,56.0,59.0,40.0,False,,272.88027555609733,[],"[960, 540]",ColorTask,55.0,93.0,,,HRV,HRV_0309,2022-11-30 22:23:52
,wl-rdm,101,331813,0.0-6.93-0.93,0.0,102.0,,,,,,,[],,,,,,56.4,0.0,u,0.0,True,1782.2000000476837,107.0,59.0,40.0,False,,234.51192188303938,[],"[960, 540]",ColorTask,56.0,94.0,,,HRV,HRV_0309,2022-11-30 22:23:52
,wl-rdm,102,335797,0.0-6.94-0.94,0.0,103.0,,,,,,,[],,,,,,53.2,1.0,u,0.0,False,2589.100000023842,156.0,59.0,40.0,False,,305.27888028131133,[],"[960, 540]",ColorTask,55.0,95.0,,,HRV,HRV_0309,2022-11-30 22:23:52
,wl-rdm,103,338463,0.0-6.95-0.95,0.0,104.0,,,,,,,[],,,,,,73.6,0.0,u,0.0,True,1365.3999999761581,82.0,59.0,40.0,False,,223.3533192004714,[],"[960, 540]",ColorTask,56.0,96.0,,,HRV,HRV_0309,2022-11-30 22:23:52
,wl-rdm,104,341047,0.0-6.96-0.96,0.0,105.0,,,,,,,[],,,,,,62.5,1.0,i,1.0,True,1289.8999999761581,78.0,59.0,40.0,False,,202.76912504668604,[],"[960, 540]",ColorTask,57.0,97.0,,,HRV,HRV_0309,2022-11-30 22:23:52
,wl-rdm,105,343279,0.0-6.97-0.97,0.0,106.0,,,,,,,[],,,,,,87.9,0.0,u,0.0,True,840.0,51.0,59.0,40.0,False,,309.5895590952218,[],"[960, 540]",ColorTask,58.0,98.0,,,HRV,HRV_0309,2022-11-30 22:23:52
,wl-rdm,106,346081,0.0-6.98-0.98,0.0,107.0,,,,,,,[],,,,,,62.5,1.0,i,1.0,True,1397.3000000715256,84.0,59.0,40.0,False,,331.76673561614126,[],"[960, 540]",ColorTask,59.0,99.0,,,HRV,HRV_0309,2022-11-30 22:23:52
,wl-rdm,107,348763,0.0-6.99-0.99,0.0,108.0,,,,,,,[],,,,,,62.5,0.0,u,0.0,True,1408.2000000476837,85.0,59.0,40.0,False,,212.47695548719807,[],"[960, 540]",ColorTask,60.0,100.0,,,HRV,HRV_0309,2022-11-30 22:23:52
,wl-rdm,108,353097,0.0-6.100-0.100,0.0,108.0,,,,,,,[],,,,,,53.2,0.0,u,,,3044.7000000476837,176.0,59.0,40.0,True,RT_timeout ,231.44970351370478,[],"[960, 540]",ColorTask,59.0,101.0,,,HRV,HRV_0309,2022-11-30 22:23:52
,wl-rdm,109,355080,0.0-6.101-0.101,0.0,109.0,,,,,,,[],,,,,,73.6,1.0,i,1.0,True,678.7999999523163,41.0,59.0,40.0,False,,216.98928294366053,[],"[960, 540]",ColorTask,60.0,102.0,,,HRV,HRV_0309,2022-11-30 22:23:52
,wl-rdm,110,357297,0.0-6.102-0.102,0.0,110.0,,,,,,,[],,,,,,53.2,0.0,u,0.0,True,938.8999998569489,57.0,59.0,40.0,False,,201.08524612050778,[],"[960, 540]",ColorTask,61.0,103.0,,,HRV,HRV_0309,2022-11-30 22:23:52
,wl-rdm,111,359730,0.0-6.103-0.103,0.0,111.0,,,,,,,[],,,,,,53.2,0.0,u,0.0,True,1104.7000000476837,67.0,59.0,40.0,False,,256.24724041590855,[],"[960, 540]",ColorTask,62.0,104.0,,,HRV,HRV_0309,2022-11-30 22:23:52
,wl-rdm,112,361797,0.0-6.104-0.104,0.0,112.0,,,,,,,[],,,,,,87.9,1.0,i,1.0,True,632.0,38.0,59.0,40.0,False,,381.22220913536097,[],"[960, 540]",ColorTask,63.0,105.0,,,HRV,HRV_0309,2022-11-30 22:23:52
,wl-rdm,113,363830,0.0-6.105-0.105,0.0,113.0,,,,,,,[],,,,,,73.6,0.0,u,0.0,True,697.2000000476837,42.0,59.0,40.0,False,,267.3834661402834,[],"[960, 540]",ColorTask,64.0,106.0,,,HRV,HRV_0309,2022-11-30 22:23:52
,wl-rdm,114,366514,0.0-6.106-0.106,0.0,114.0,,,,,,,[],,,,,,53.2,0.0,i,1.0,False,1339.0,81.0,59.0,40.0,False,,273.45016509978336,[],"[960, 540]",ColorTask,63.0,107.0,,,HRV,HRV_0309,2022-11-30 22:23:52
,wl-rdm,115,368765,0.0-6.107-0.107,0.0,115.0,,,,,,,[],,,,,,50.0,1.0,i,1.0,True,908.5,55.0,59.0,40.0,False,,277.7639111488011,[],"[960, 540]",ColorTask,64.0,108.0,,,HRV,HRV_0309,2022-11-30 22:23:52
,wl-rdm,116,371065,0.0-6.108-0.108,0.0,116.0,,,,,,,[],,,,,,87.9,1.0,i,1.0,True,870.0,53.0,59.0,40.0,False,,350.7319112691447,[],"[960, 540]",ColorTask,65.0,109.0,,,HRV,HRV_0309,2022-11-30 22:23:52
,wl-html-keyboard-response,117,925654,0.0-7.0-0.0,1.0,117.0,,,,,,,,552580.1000000238,1.0,0,,,,,,,,,,,,,,,,,,,,,,HRV,HRV_0309,2022-11-30 22:23:52
,wl-rdm,118,928250,0.0-8.0-0.0,1.0,118.0,,,,,,,[],,,,,,73.6,0.0,i,1.0,False,1172.7000000476837,71.0,59.0,40.0,False,,365.9036130377543,[],"[960, 540]",ColorTask,64.0,1.0,,,HRV,HRV_0309,2022-11-30 22:23:52
,wl-rdm,119,932268,0.0-8.1-0.1,1.0,119.0,,,,,,,[],,,,,,56.4,1.0,i,1.0,True,2621.899999976158,158.0,59.0,40.0,False,,324.90571574860326,[],"[960, 540]",ColorTask,65.0,2.0,,,HRV,HRV_0309,2022-11-30 22:23:52
,wl-rdm,120,934584,0.0-8.2-0.2,1.0,120.0,,,,,,,[],,,,,,50.0,1.0,u,0.0,False,1037.7000000476837,63.0,59.0,40.0,False,,210.61453910853695,[],"[960, 540]",ColorTask,64.0,3.0,,,HRV,HRV_0309,2022-11-30 22:23:52
,wl-rdm,121,936834,0.0-8.3-0.3,1.0,121.0,,,,,,,[],,,,,,56.4,1.0,i,1.0,True,878.7999999523163,53.0,59.0,40.0,False,,284.0871614991707,[],"[960, 540]",ColorTask,65.0,4.0,,,HRV,HRV_0309,2022-11-30 22:23:52
,wl-rdm,122,938902,0.0-8.4-0.4,1.0,122.0,,,,,,,[],,,,,,87.9,0.0,u,0.0,True,724.5,44.0,59.0,40.0,False,,278.1782680164425,[],"[960, 540]",ColorTask,66.0,5.0,,,HRV,HRV_0309,2022-11-30 22:23:52
,wl-rdm,123,940884,0.0-8.5-0.5,1.0,123.0,,,,,,,[],,,,,,87.9,0.0,u,0.0,True,684.2000000476837,41.0,59.0,40.0,False,,220.1997203093475,[],"[960, 540]",ColorTask,67.0,6.0,,,HRV,HRV_0309,2022-11-30 22:23:52
,wl-rdm,124,943335,0.0-8.6-0.6,1.0,124.0,,,,,,,[],,,,,,73.6,0.0,u,0.0,True,997.8999999761581,60.0,59.0,40.0,False,,395.8655560057548,[],"[960, 540]",ColorTask,68.0,7.0,,,HRV,HRV_0309,2022-11-30 22:23:52
,wl-rdm,125,945769,0.0-8.7-0.7,1.0,125.0,,,,,,,[],,,,,,53.2,0.0,i,1.0,False,1005.5,61.0,59.0,40.0,False,,333.9644416239522,[],"[960, 540]",ColorTask,67.0,8.0,,,HRV,HRV_0309,2022-11-30 22:23:52
,wl-rdm,126,948669,0.0-8.8-0.8,1.0,126.0,,,,,,,[],,,,,,53.2,0.0,u,0.0,True,1622.2000000476837,98.0,59.0,40.0,False,,205.84628046192702,[],"[960, 540]",ColorTask,68.0,9.0,,,HRV,HRV_0309,2022-11-30 22:23:52
,wl-rdm,127,951686,0.0-8.9-0.9,1.0,127.0,,,,,,,[],,,,,,56.4,0.0,i,1.0,False,1741.7999999523163,105.0,59.0,40.0,False,,201.79043467028336,[],"[960, 540]",ColorTask,67.0,10.0,,,HRV,HRV_0309,2022-11-30 22:23:52
,wl-rdm,128,954085,0.0-8.10-0.10,1.0,128.0,,,,,,,[],,,,,,73.6,0.0,u,0.0,True,1131.0,68.0,59.0,40.0,False,,208.97286821076148,[],"[960, 540]",ColorTask,68.0,11.0,,,HRV,HRV_0309,2022-11-30 22:23:52
,wl-rdm,129,956268,0.0-8.11-0.11,1.0,129.0,,,,,,,[],,,,,,50.0,1.0,i,1.0,True,840.0,51.0,59.0,40.0,False,,269.4004858890679,[],"[960, 540]",ColorTask,69.0,12.0,,,HRV,HRV_0309,2022-11-30 22:23:52
,wl-rdm,130,958468,0.0-8.12-0.12,1.0,130.0,,,,,,,[],,,,,,62.5,0.0,u,0.0,True,857.5,52.0,59.0,40.0,False,,269.71331186988573,[],"[960, 540]",ColorTask,70.0,13.0,,,HRV,HRV_0309,2022-11-30 22:23:52
,wl-rdm,131,960920,0.0-8.13-0.13,1.0,131.0,,,,,,,[],,,,,,73.6,0.0,u,0.0,True,1147.5999999046326,69.0,59.0,40.0,False,,244.88510992186866,[],"[960, 540]",ColorTask,71.0,14.0,,,HRV,HRV_0309,2022-11-30 22:23:52
,wl-rdm,132,963220,0.0-8.14-0.14,1.0,132.0,,,,,,,[],,,,,,50.0,0.0,i,1.0,False,887.8999999761581,54.0,59.0,40.0,False,,347.8008724541313,[],"[960, 540]",ColorTask,70.0,15.0,,,HRV,HRV_0309,2022-11-30 22:23:52
,wl-rdm,133,965470,0.0-8.15-0.15,1.0,133.0,,,,,,,[],,,,,,62.5,1.0,i,1.0,True,915.7999999523163,55.0,59.0,40.0,False,,278.8600788906966,[],"[960, 540]",ColorTask,71.0,16.0,,,HRV,HRV_0309,2022-11-30 22:23:52
,wl-rdm,134,969136,0.0-8.16-0.16,1.0,134.0,,,,,,,[],,,,,,50.0,0.0,i,1.0,False,2289.2999999523163,138.0,59.0,40.0,False,,296.5167030850206,[],"[960, 540]",ColorTask,70.0,17.0,,,HRV,HRV_0309,2022-11-30 22:23:52
,wl-rdm,135,972135,0.0-8.17-0.17,1.0,135.0,,,,,,,[],,,,,,56.4,0.0,i,1.0,False,1621.2999999523163,98.0,59.0,40.0,False,,304.53295956286706,[],"[960, 540]",ColorTask,69.0,18.0,,,HRV,HRV_0309,2022-11-30 22:23:52
,wl-rdm,136,974220,0.0-8.18-0.18,1.0,136.0,,,,,,,[],,,,,,53.2,0.0,i,1.0,False,773.0,47.0,59.0,40.0,False,,246.2724436565198,[],"[960, 540]",ColorTask,68.0,19.0,,,HRV,HRV_0309,2022-11-30 22:23:52
,wl-rdm,137,978270,0.0-8.19-0.19,1.0,137.0,,,,,,,[],,,,,,50.0,1.0,u,0.0,False,2657.7000000476837,160.0,59.0,40.0,False,,301.1652647269782,[],"[960, 540]",ColorTask,67.0,20.0,,,HRV,HRV_0309,2022-11-30 22:23:52
,wl-rdm,138,982670,0.0-8.20-0.20,1.0,137.0,,,,,,,[],,,,,,56.4,0.0,u,,,3360.3000000715256,176.0,59.0,40.0,True,RT_timeout ,302.02899534702016,[],"[960, 540]",ColorTask,66.0,21.0,,,HRV,HRV_0309,2022-11-30 22:23:52
,wl-rdm,139,985454,0.0-8.21-0.21,1.0,138.0,,,,,,,[],,,,,,53.2,0.0,u,0.0,True,1369.6000000238419,83.0,59.0,40.0,False,,322.43585979480883,[],"[960, 540]",ColorTask,67.0,22.0,,,HRV,HRV_0309,2022-11-30 22:23:52
,wl-rdm,140,987354,0.0-8.22-0.22,1.0,139.0,,,,,,,[],,,,,,87.9,0.0,u,0.0,True,604.7999999523163,37.0,59.0,40.0,False,,218.03896729638748,[],"[960, 540]",ColorTask,68.0,23.0,,,HRV,HRV_0309,2022-11-30 22:23:52
,wl-rdm,141,989920,0.0-8.23-0.23,1.0,140.0,,,,,,,[],,,,,,53.2,1.0,u,0.0,False,1162.1000000238419,70.0,59.0,40.0,False,,340.018738647289,[],"[960, 540]",ColorTask,67.0,24.0,,,HRV,HRV_0309,2022-11-30 22:23:52
,wl-rdm,142,992354,0.0-8.24-0.24,1.0,141.0,,,,,,,[],,,,,,56.4,1.0,i,1.0,True,1104.7000000476837,67.0,59.0,40.0,False,,260.02422446740303,[],"[960, 540]",ColorTask,68.0,25.0,,,HRV,HRV_0309,2022-11-30 22:23:52
,wl-rdm,143,994538,0.0-8.25-0.25,1.0,142.0,,,,,,,[],,,,,,87.9,0.0,u,0.0,True,787.6999999284744,48.0,59.0,40.0,False,,326.42709487413896,[],"[960, 540]",ColorTask,69.0,26.0,,,HRV,HRV_0309,2022-11-30 22:23:52
,wl-rdm,144,996554,0.0-8.26-0.26,1.0,143.0,,,,,,,[],,,,,,62.5,1.0,i,1.0,True,693.6999999284744,42.0,59.0,40.0,False,,237.49326393411138,[],"[960, 540]",ColorTask,70.0,27.0,,,HRV,HRV_0309,2022-11-30 22:23:52
,wl-rdm,145,998805,0.0-8.27-0.27,1.0,144.0,,,,,,,[],,,,,,62.5,0.0,i,1.0,False,899.4999998807907,54.0,59.0,40.0,False,,279.7793275250682,[],"[960, 540]",ColorTask,69.0,28.0,,,HRV,HRV_0309,2022-11-30 22:23:52
,wl-rdm,146,1001039,0.0-8.28-0.28,1.0,145.0,,,,,,,[],,,,,,73.6,1.0,i,1.0,True,957.2000000476837,58.0,59.0,40.0,False,,203.74825755523264,[],"[960, 540]",ColorTask,70.0,29.0,,,HRV,HRV_0309,2022-11-30 22:23:52
,wl-rdm,147,1003204,0.0-8.29-0.29,1.0,146.0,,,,,,,[],,,,,,87.9,0.0,u,0.0,True,839.8999999761581,51.0,59.0,40.0,False,,251.3218430834878,[],"[960, 540]",ColorTask,71.0,30.0,,,HRV,HRV_0309,2022-11-30 22:23:52
,wl-rdm,148,1005306,0.0-8.30-0.30,1.0,147.0,,,,,,,[],,,,,,73.6,1.0,i,1.0,True,745.3000000715256,45.0,59.0,40.0,False,,283.1956019517604,[],"[960, 540]",ColorTask,72.0,31.0,,,HRV,HRV_0309,2022-11-30 22:23:52
,wl-rdm,149,1008004,0.0-8.31-0.31,1.0,148.0,,,,,,,[],,,,,,62.5,1.0,i,1.0,True,1249.5,75.0,59.0,40.0,False,,391.8023652521083,[],"[960, 540]",ColorTask,73.0,32.0,,,HRV,HRV_0309,2022-11-30 22:23:52
,wl-rdm,150,1010339,0.0-8.32-0.32,1.0,149.0,,,,,,,[],,,,,,73.6,1.0,i,1.0,True,926.6999999284744,56.0,59.0,40.0,False,,336.37332614296827,[],"[960, 540]",ColorTask,74.0,33.0,,,HRV,HRV_0309,2022-11-30 22:23:52
,wl-rdm,151,1012655,0.0-8.33-0.33,1.0,150.0,,,,,,,[],,,,,,50.0,0.0,i,1.0,False,972.2999999523163,59.0,59.0,40.0,False,,267.33216059478576,[],"[960, 540]",ColorTask,73.0,34.0,,,HRV,HRV_0309,2022-11-30 22:23:52
,wl-rdm,152,1014990,0.0-8.34-0.34,1.0,151.0,,,,,,,[],,,,,,53.2,1.0,u,0.0,False,908.2000000476837,55.0,59.0,40.0,False,,339.5944944770267,[],"[960, 540]",ColorTask,72.0,35.0,,,HRV,HRV_0309,2022-11-30 22:23:52
,wl-rdm,153,1017440,0.0-8.35-0.35,1.0,152.0,,,,,,,[],,,,,,50.0,1.0,i,1.0,True,1023.7000000476837,62.0,59.0,40.0,False,,339.1747002291438,[],"[960, 540]",ColorTask,73.0,36.0,,,HRV,HRV_0309,2022-11-30 22:23:52
,wl-rdm,154,1020689,0.0-8.36-0.36,1.0,153.0,,,,,,,[],,,,,,56.4,0.0,u,0.0,True,1977.7999999523163,119.0,59.0,40.0,False,,210.32976470802694,[],"[960, 540]",ColorTask,74.0,37.0,,,HRV,HRV_0309,2022-11-30 22:23:52
,wl-rdm,155,1023105,0.0-8.37-0.37,1.0,154.0,,,,,,,[],,,,,,87.9,0.0,u,0.0,True,1021.1000000238419,62.0,59.0,40.0,False,,316.5043955161964,[],"[960, 540]",ColorTask,75.0,38.0,,,HRV,HRV_0309,2022-11-30 22:23:52
,wl-rdm,156,1025656,0.0-8.38-0.38,1.0,155.0,,,,,,,[],,,,,,53.2,1.0,i,1.0,True,1279.0999999046326,77.0,59.0,40.0,False,,200.72237413492402,[],"[960, 540]",ColorTask,76.0,39.0,,,HRV,HRV_0309,2022-11-30 22:23:52
,wl-rdm,157,1028340,0.0-8.39-0.39,1.0,156.0,,,,,,,[],,,,,,50.0,0.0,i,1.0,False,1287.7999999523163,78.0,59.0,40.0,False,,299.20033807928286,[],"[960, 540]",ColorTask,75.0,40.0,,,HRV,HRV_0309,2022-11-30 22:23:52
,wl-rdm,158,1031474,0.0-8.40-0.40,1.0,157.0,,,,,,,[],,,,,,53.2,0.0,u,0.0,True,1706.6999999284744,103.0,59.0,40.0,False,,355.3874893438029,[],"[960, 540]",ColorTask,76.0,41.0,,,HRV,HRV_0309,2022-11-30 22:23:52
,wl-rdm,159,1034906,0.0-8.41-0.41,1.0,158.0,,,,,,,[],,,,,,56.4,1.0,u,0.0,False,2006.5,121.0,59.0,40.0,False,,344.82047144103433,[],"[960, 540]",ColorTask,75.0,42.0,,,HRV,HRV_0309,2022-11-30 22:23:52
,wl-rdm,160,1037122,0.0-8.42-0.42,1.0,159.0,,,,,,,[],,,,,,62.5,1.0,i,1.0,True,909.7000000476837,55.0,59.0,40.0,False,,230.50216518831962,[],"[960, 540]",ColorTask,76.0,43.0,,,HRV,HRV_0309,2022-11-30 22:23:52
,wl-rdm,161,1040139,0.0-8.43-0.43,1.0,160.0,,,,,,,[],,,,,,50.0,1.0,i,1.0,True,1733.8999999761581,104.0,59.0,40.0,False,,228.7945963844764,[],"[960, 540]",ColorTask,77.0,44.0,,,HRV,HRV_0309,2022-11-30 22:23:52
,wl-rdm,162,1043240,0.0-8.44-0.44,1.0,161.0,,,,,,,[],,,,,,56.4,1.0,u,0.0,False,1812.1999998092651,109.0,59.0,40.0,False,,225.39087126594336,[],"[960, 540]",ColorTask,76.0,45.0,,,HRV,HRV_0309,2022-11-30 22:23:52
,wl-rdm,163,1045591,0.0-8.45-0.45,1.0,162.0,,,,,,,[],,,,,,62.5,1.0,i,1.0,True,981.3999999761581,59.0,59.0,40.0,False,,310.45424682813774,[],"[960, 540]",ColorTask,77.0,46.0,,,HRV,HRV_0309,2022-11-30 22:23:52
,wl-rdm,164,1048390,0.0-8.46-0.46,1.0,163.0,,,,,,,[],,,,,,56.4,0.0,u,0.0,True,1514.1999999284744,91.0,59.0,40.0,False,,200.58216961251355,[],"[960, 540]",ColorTask,78.0,47.0,,,HRV,HRV_0309,2022-11-30 22:23:52
,wl-rdm,165,1050824,0.0-8.47-0.47,1.0,164.0,,,,,,,[],,,,,,73.6,1.0,i,1.0,True,1022.0,62.0,59.0,40.0,False,,348.75028761365775,[],"[960, 540]",ColorTask,79.0,48.0,,,HRV,HRV_0309,2022-11-30 22:23:52
,wl-rdm,166,1053208,0.0-8.48-0.48,1.0,165.0,,,,,,,[],,,,,,62.5,0.0,u,0.0,True,1105.6000000238419,67.0,59.0,40.0,False,,214.36661336523426,[],"[960, 540]",ColorTask,80.0,49.0,,,HRV,HRV_0309,2022-11-30 22:23:52
,wl-rdm,167,1055757,0.0-8.49-0.49,1.0,166.0,,,,,,,[],,,,,,56.4,0.0,u,0.0,True,1198.1000000238419,72.0,59.0,40.0,False,,273.732205506259,[],"[960, 540]",ColorTask,81.0,50.0,,,HRV,HRV_0309,2022-11-30 22:23:52
,wl-rdm,168,1058057,0.0-8.50-0.50,1.0,167.0,,,,,,,[],,,,,,53.2,0.0,u,0.0,True,937.0,57.0,59.0,40.0,False,,275.8611361245016,[],"[960, 540]",ColorTask,82.0,51.0,,,HRV,HRV_0309,2022-11-30 22:23:52
,wl-rdm,169,1060058,0.0-8.51-0.51,1.0,168.0,,,,,,,[],,,,,,50.0,1.0,u,0.0,False,693.5,42.0,59.0,40.0,False,,221.7388040596078,[],"[960, 540]",ColorTask,81.0,52.0,,,HRV,HRV_0309,2022-11-30 22:23:52
,wl-rdm,170,1062308,0.0-8.52-0.52,1.0,169.0,,,,,,,[],,,,,,73.6,1.0,i,1.0,True,870.7999999523163,53.0,59.0,40.0,False,,291.277059932474,[],"[960, 540]",ColorTask,82.0,53.0,,,HRV,HRV_0309,2022-11-30 22:23:52
,wl-rdm,171,1064424,0.0-8.53-0.53,1.0,170.0,,,,,,,[],,,,,,87.9,0.0,u,0.0,True,728.7999999523163,44.0,59.0,40.0,False,,301.0064055783097,[],"[960, 540]",ColorTask,83.0,54.0,,,HRV,HRV_0309,2022-11-30 22:23:52
,wl-rdm,172,1066692,0.0-8.54-0.54,1.0,171.0,,,,,,,[],,,,,,62.5,0.0,u,0.0,True,893.6000000238419,54.0,59.0,40.0,False,,295.0127316820498,[],"[960, 540]",ColorTask,84.0,55.0,,,HRV,HRV_0309,2022-11-30 22:23:52
,wl-rdm,173,1068908,0.0-8.55-0.55,1.0,172.0,,,,,,,[],,,,,,50.0,0.0,i,1.0,False,833.0,50.0,59.0,40.0,False,,304.71786241434484,[],"[960, 540]",ColorTask,83.0,56.0,,,HRV,HRV_0309,2022-11-30 22:23:52
,wl-rdm,174,1071375,0.0-8.56-0.56,1.0,173.0,,,,,,,[],,,,,,53.2,1.0,i,1.0,True,997.3999999761581,60.0,59.0,40.0,False,,386.9358154776244,[],"[960, 540]",ColorTask,84.0,57.0,,,HRV,HRV_0309,2022-11-30 22:23:52
,wl-rdm,175,1074010,0.0-8.57-0.57,1.0,174.0,,,,,,,[],,,,,,62.5,0.0,u,0.0,True,1279.299999833107,77.0,59.0,40.0,False,,266.1918656434165,[],"[960, 540]",ColorTask,85.0,58.0,,,HRV,HRV_0309,2022-11-30 22:23:52
,wl-rdm,176,1076475,0.0-8.58-0.58,1.0,175.0,,,,,,,[],,,,,,62.5,1.0,i,1.0,True,1172.1000000238419,71.0,59.0,40.0,False,,208.74437530134054,[],"[960, 540]",ColorTask,86.0,59.0,,,HRV,HRV_0309,2022-11-30 22:23:52
,wl-rdm,177,1078659,0.0-8.59-0.59,1.0,176.0,,,,,,,[],,,,,,53.2,1.0,i,1.0,True,860.1000000238419,52.0,59.0,40.0,False,,248.39518018735805,[],"[960, 540]",ColorTask,87.0,60.0,,,HRV,HRV_0309,2022-11-30 22:23:52
,wl-rdm,178,1081126,0.0-8.60-0.60,1.0,177.0,,,,,,,[],,,,,,53.2,1.0,u,0.0,False,1015.7000000476837,61.0,59.0,40.0,False,,379.6186756444822,[],"[960, 540]",ColorTask,86.0,61.0,,,HRV,HRV_0309,2022-11-30 22:23:52
,wl-rdm,179,1083560,0.0-8.61-0.61,1.0,178.0,,,,,,,[],,,,,,73.6,0.0,u,0.0,True,1021.3999999761581,62.0,59.0,40.0,False,,323.19601224079486,[],"[960, 540]",ColorTask,87.0,62.0,,,HRV,HRV_0309,2022-11-30 22:23:52
,wl-rdm,180,1085926,0.0-8.62-0.62,1.0,179.0,,,,,,,[],,,,,,87.9,1.0,i,1.0,True,997.7999999523163,60.0,59.0,40.0,False,,310.13434338386503,[],"[960, 540]",ColorTask,88.0,63.0,,,HRV,HRV_0309,2022-11-30 22:23:52
,wl-rdm,181,1088477,0.0-8.63-0.63,1.0,180.0,,,,,,,[],,,,,,50.0,1.0,u,0.0,False,1207.4000000953674,73.0,59.0,40.0,False,,280.09688457632626,[],"[960, 540]",ColorTask,87.0,64.0,,,HRV,HRV_0309,2022-11-30 22:23:52
,wl-rdm,182,1090977,0.0-8.64-0.64,1.0,181.0,,,,,,,[],,,,,,87.9,1.0,i,1.0,True,1072.1000000238419,65.0,59.0,40.0,False,,337.30829555676894,[],"[960, 540]",ColorTask,88.0,65.0,,,HRV,HRV_0309,2022-11-30 22:23:52
,wl-rdm,183,1093659,0.0-8.65-0.65,1.0,182.0,,,,,,,[],,,,,,50.0,0.0,u,0.0,True,1341.6999999284744,81.0,59.0,40.0,False,,266.3673686223721,[],"[960, 540]",ColorTask,89.0,66.0,,,HRV,HRV_0309,2022-11-30 22:23:52
,wl-rdm,184,1096209,0.0-8.66-0.66,1.0,183.0,,,,,,,[],,,,,,62.5,0.0,u,0.0,True,1154.5,70.0,59.0,40.0,False,,310.8064044435455,[],"[960, 540]",ColorTask,90.0,67.0,,,HRV,HRV_0309,2022-11-30 22:23:52
,wl-rdm,185,1098443,0.0-8.67-0.67,1.0,184.0,,,,,,,[],,,,,,73.6,0.0,u,0.0,True,982.5,59.0,59.0,40.0,False,,200.09995722645743,[],"[960, 540]",ColorTask,91.0,68.0,,,HRV,HRV_0309,2022-11-30 22:23:52
,wl-rdm,186,1100644,0.0-8.68-0.68,1.0,185.0,,,,,,,[],,,,,,87.9,0.0,u,0.0,True,859.3999999761581,52.0,59.0,40.0,False,,275.72391671416227,[],"[960, 540]",ColorTask,92.0,69.0,,,HRV,HRV_0309,2022-11-30 22:23:52
,wl-rdm,187,1103393,0.0-8.69-0.69,1.0,186.0,,,,,,,[],,,,,,56.4,0.0,u,0.0,True,1270.6000000238419,77.0,59.0,40.0,False,,399.74355665522774,[],"[960, 540]",ColorTask,93.0,70.0,,,HRV,HRV_0309,2022-11-30 22:23:52
,wl-rdm,188,1105795,0.0-8.70-0.70,1.0,187.0,,,,,,,[],,,,,,62.5,0.0,u,0.0,True,989.2000000476837,60.0,59.0,40.0,False,,336.61289605837027,[],"[960, 540]",ColorTask,94.0,71.0,,,HRV,HRV_0309,2022-11-30 22:23:52
,wl-rdm,189,1107927,0.0-8.71-0.71,1.0,188.0,,,,,,,[],,,,,,73.6,1.0,i,1.0,True,763.8999998569489,46.0,59.0,40.0,False,,287.3944158282842,[],"[960, 540]",ColorTask,95.0,72.0,,,HRV,HRV_0309,2022-11-30 22:23:52
,wl-rdm,190,1110061,0.0-8.72-0.72,1.0,189.0,,,,,,,[],,,,,,87.9,0.0,u,0.0,True,755.1999999284744,46.0,59.0,40.0,False,,298.9758673702644,[],"[960, 540]",ColorTask,96.0,73.0,,,HRV,HRV_0309,2022-11-30 22:23:52
,wl-rdm,191,1112245,0.0-8.73-0.73,1.0,190.0,,,,,,,[],,,,,,53.2,0.0,i,1.0,False,907.6000000238419,55.0,59.0,40.0,False,,202.6607324133796,[],"[960, 540]",ColorTask,95.0,74.0,,,HRV,HRV_0309,2022-11-30 22:23:52
,wl-rdm,192,1114644,0.0-8.74-0.74,1.0,191.0,,,,,,,[],,,,,,87.9,1.0,i,1.0,True,940.7999999523163,57.0,59.0,40.0,False,,397.1203587279327,[],"[960, 540]",ColorTask,96.0,75.0,,,HRV,HRV_0309,2022-11-30 22:23:52
,wl-rdm,193,1116779,0.0-8.75-0.75,1.0,192.0,,,,,,,[],,,,,,53.2,1.0,i,1.0,True,844.2999999523163,51.0,59.0,40.0,False,,211.7654083578644,[],"[960, 540]",ColorTask,97.0,76.0,,,HRV,HRV_0309,2022-11-30 22:23:52
,wl-rdm,194,1119012,0.0-8.76-0.76,1.0,193.0,,,,,,,[],,,,,,62.5,1.0,i,1.0,True,937.7999999523163,57.0,59.0,40.0,False,,213.2417584624536,[],"[960, 540]",ColorTask,98.0,77.0,,,HRV,HRV_0309,2022-11-30 22:23:52
,wl-rdm,195,1121095,0.0-8.77-0.77,1.0,194.0,,,,,,,[],,,,,,87.9,1.0,i,1.0,True,723.0999999046326,44.0,59.0,40.0,False,,298.8862614286173,[],"[960, 540]",ColorTask,99.0,78.0,,,HRV,HRV_0309,2022-11-30 22:23:52
,wl-rdm,196,1123811,0.0-8.78-0.78,1.0,195.0,,,,,,,[],,,,,,50.0,1.0,u,0.0,False,1375.5,83.0,59.0,40.0,False,,263.6816835305659,[],"[960, 540]",ColorTask,98.0,79.0,,,HRV,HRV_0309,2022-11-30 22:23:52
,wl-rdm,197,1125946,0.0-8.79-0.79,1.0,196.0,,,,,,,[],,,,,,87.9,1.0,i,1.0,True,727.2999999523163,44.0,59.0,40.0,False,,338.09171901110113,[],"[960, 540]",ColorTask,99.0,80.0,,,HRV,HRV_0309,2022-11-30 22:23:52
,wl-rdm,198,1128261,0.0-8.80-0.80,1.0,197.0,,,,,,,[],,,,,,56.4,1.0,u,0.0,False,982.3999999761581,59.0,59.0,40.0,False,,252.7370329202678,[],"[960, 540]",ColorTask,98.0,81.0,,,HRV,HRV_0309,2022-11-30 22:23:52
,wl-rdm,199,1130479,0.0-8.81-0.81,1.0,198.0,,,,,,,[],,,,,,56.4,1.0,i,1.0,True,862.5999999046326,52.0,59.0,40.0,False,,291.33387811771104,[],"[960, 540]",ColorTask,99.0,82.0,,,HRV,HRV_0309,2022-11-30 22:23:52
,wl-rdm,200,1132696,0.0-8.82-0.82,1.0,199.0,,,,,,,[],,,,,,73.6,1.0,i,1.0,True,828.6999999284744,50.0,59.0,40.0,False,,314.82601341439204,[],"[960, 540]",ColorTask,100.0,83.0,,,HRV,HRV_0309,2022-11-30 22:23:52
,wl-rdm,201,1135014,0.0-8.83-0.83,1.0,200.0,,,,,,,[],,,,,,56.4,0.0,u,0.0,True,999.1999999284744,60.0,59.0,40.0,False,,261.4617287726841,[],"[960, 540]",ColorTask,101.0,84.0,,,HRV,HRV_0309,2022-11-30 22:23:52
,wl-rdm,202,1137862,0.0-8.84-0.84,1.0,201.0,,,,,,,[],,,,,,73.6,0.0,u,0.0,True,1480.5000001192093,89.0,59.0,40.0,False,,290.6393734259213,[],"[960, 540]",ColorTask,102.0,85.0,,,HRV,HRV_0309,2022-11-30 22:23:52
,wl-rdm,203,1139996,0.0-8.85-0.85,1.0,202.0,,,,,,,[],,,,,,73.6,1.0,i,1.0,True,783.0000001192093,47.0,59.0,40.0,False,,287.63473134496496,[],"[960, 540]",ColorTask,103.0,86.0,,,HRV,HRV_0309,2022-11-30 22:23:52
,wl-rdm,204,1142197,0.0-8.86-0.86,1.0,203.0,,,,,,,[],,,,,,56.4,1.0,i,1.0,True,750.6000000238419,45.0,59.0,40.0,False,,376.52548198515365,[],"[960, 540]",ColorTask,104.0,87.0,,,HRV,HRV_0309,2022-11-30 22:23:52
,wl-rdm,205,1144429,0.0-8.87-0.87,1.0,204.0,,,,,,,[],,,,,,56.4,0.0,i,1.0,False,839.0,51.0,59.0,40.0,False,,323.04127970170845,[],"[960, 540]",ColorTask,103.0,88.0,,,HRV,HRV_0309,2022-11-30 22:23:52
,wl-rdm,206,1146329,0.0-8.88-0.88,1.0,205.0,,,,,,,[],,,,,,50.0,0.0,u,0.0,True,543.0,33.0,59.0,40.0,False,,292.56861225344795,[],"[960, 540]",ColorTask,104.0,89.0,,,HRV,HRV_0309,2022-11-30 22:23:52
,wl-rdm,207,1148580,0.0-8.89-0.89,1.0,206.0,,,,,,,[],,,,,,87.9,1.0,i,1.0,True,887.0,54.0,59.0,40.0,False,,282.2415672060521,[],"[960, 540]",ColorTask,105.0,90.0,,,HRV,HRV_0309,2022-11-30 22:23:52
,wl-rdm,208,1150696,0.0-8.90-0.90,1.0,207.0,,,,,,,[],,,,,,73.6,1.0,i,1.0,True,804.7000000476837,49.0,59.0,40.0,False,,246.08716431975654,[],"[960, 540]",ColorTask,106.0,91.0,,,HRV,HRV_0309,2022-11-30 22:23:52
,wl-rdm,209,1152731,0.0-8.91-0.91,1.0,208.0,,,,,,,[],,,,,,62.5,1.0,i,1.0,True,621.6000000238419,38.0,59.0,40.0,False,,328.70179347163423,[],"[960, 540]",ColorTask,107.0,92.0,,,HRV,HRV_0309,2022-11-30 22:23:52
,wl-rdm,210,1154880,0.0-8.92-0.92,1.0,209.0,,,,,,,[],,,,,,50.0,1.0,i,1.0,True,795.1999999284744,48.0,59.0,40.0,False,,294.85188750309027,[],"[960, 540]",ColorTask,108.0,93.0,,,HRV,HRV_0309,2022-11-30 22:23:52
,wl-rdm,211,1157197,0.0-8.93-0.93,1.0,210.0,,,,,,,[],,,,,,62.5,0.0,u,0.0,True,906.7999999523163,55.0,59.0,40.0,False,,349.5112933790338,[],"[960, 540]",ColorTask,109.0,94.0,,,HRV,HRV_0309,2022-11-30 22:23:52
,wl-rdm,212,1159214,0.0-8.94-0.94,1.0,211.0,,,,,,,[],,,,,,87.9,1.0,i,1.0,True,680.3999999761581,41.0,59.0,40.0,False,,283.7084506514101,[],"[960, 540]",ColorTask,110.0,95.0,,,HRV,HRV_0309,2022-11-30 22:23:52
,wl-rdm,213,1161448,0.0-8.95-0.95,1.0,212.0,,,,,,,[],,,,,,56.4,0.0,u,0.0,True,854.5,52.0,59.0,40.0,False,,288.2343958744471,[],"[960, 540]",ColorTask,111.0,96.0,,,HRV,HRV_0309,2022-11-30 22:23:52
,wl-rdm,214,1163997,0.0-8.96-0.96,1.0,213.0,,,,,,,[],,,,,,62.5,1.0,i,1.0,True,1130.5,68.0,59.0,40.0,False,,366.3063288790927,[],"[960, 540]",ColorTask,112.0,97.0,,,HRV,HRV_0309,2022-11-30 22:23:52
,wl-rdm,215,1166230,0.0-8.97-0.97,1.0,214.0,,,,,,,[],,,,,,56.4,1.0,i,1.0,True,787.6000000238419,48.0,59.0,40.0,False,,362.50848374314205,[],"[960, 540]",ColorTask,113.0,98.0,,,HRV,HRV_0309,2022-11-30 22:23:52
,wl-rdm,216,1168415,0.0-8.98-0.98,1.0,215.0,,,,,,,[],,,,,,73.6,0.0,u,0.0,True,879.1000000238419,53.0,59.0,40.0,False,,239.65515402238287,[],"[960, 540]",ColorTask,114.0,99.0,,,HRV,HRV_0309,2022-11-30 22:23:52
,wl-rdm,217,1170714,0.0-8.99-0.99,1.0,216.0,,,,,,,[],,,,,,73.6,0.0,u,0.0,True,1006.1000000238419,61.0,59.0,40.0,False,,200.052907668853,[],"[960, 540]",ColorTask,115.0,100.0,,,HRV,HRV_0309,2022-11-30 22:23:52
,wl-rdm,218,1172648,0.0-8.100-0.100,1.0,217.0,,,,,,,[],,,,,,87.9,1.0,i,1.0,True,604.2999999523163,37.0,59.0,40.0,False,,237.7321340002683,[],"[960, 540]",ColorTask,116.0,101.0,,,HRV,HRV_0309,2022-11-30 22:23:52
,wl-rdm,219,1174915,0.0-8.101-0.101,1.0,218.0,,,,,,,[],,,,,,53.2,0.0,u,0.0,True,893.5,54.0,59.0,40.0,False,,294.9418779282616,[],"[960, 540]",ColorTask,117.0,102.0,,,HRV,HRV_0309,2022-11-30 22:23:52
,wl-rdm,220,1177014,0.0-8.102-0.102,1.0,219.0,,,,,,,[],,,,,,53.2,1.0,i,1.0,True,780.2000000476837,47.0,59.0,40.0,False,,258.0072811922379,[],"[960, 540]",ColorTask,118.0,103.0,,,HRV,HRV_0309,2022-11-30 22:23:52
,wl-rdm,221,1179364,0.0-8.103-0.103,1.0,220.0,,,,,,,[],,,,,,53.2,0.0,u,0.0,True,1041.4000000953674,63.0,59.0,40.0,False,,216.8831720646788,[],"[960, 540]",ColorTask,119.0,104.0,,,HRV,HRV_0309,2022-11-30 22:23:52
,wl-rdm,222,1181448,0.0-8.104-0.104,1.0,221.0,,,,,,,[],,,,,,62.5,0.0,u,0.0,True,811.5,49.0,59.0,40.0,False,,212.9306785817446,[],"[960, 540]",ColorTask,120.0,105.0,,,HRV,HRV_0309,2022-11-30 22:23:52
,wl-rdm,223,1183548,0.0-8.105-0.105,1.0,222.0,,,,,,,[],,,,,,87.9,1.0,i,1.0,True,783.3999999761581,47.0,59.0,40.0,False,,242.38695423415652,[],"[960, 540]",ColorTask,121.0,106.0,,,HRV,HRV_0309,2022-11-30 22:23:52
,wl-rdm,224,1186032,0.0-8.106-0.106,1.0,223.0,,,,,,,[],,,,,,53.2,1.0,u,0.0,False,1037.1000000238419,63.0,59.0,40.0,False,,371.68232574398405,[],"[960, 540]",ColorTask,120.0,107.0,,,HRV,HRV_0309,2022-11-30 22:23:52
,wl-rdm,225,1188298,0.0-8.107-0.107,1.0,224.0,,,,,,,[],,,,,,50.0,0.0,u,0.0,True,975.6000000238419,59.0,59.0,40.0,False,,216.7768946325339,[],"[960, 540]",ColorTask,121.0,108.0,,,HRV,HRV_0309,2022-11-30 22:23:52
,wl-rdm,226,1190549,0.0-8.108-0.108,1.0,225.0,,,,,,,[],,,,,,50.0,0.0,i,1.0,False,980.8999999761581,59.0,59.0,40.0,False,,208.53503473804557,[],"[960, 540]",ColorTask,120.0,109.0,,,HRV,HRV_0309,2022-11-30 22:23:52
,wl-html-button-response,227,1193783,0.0-9.0-0.0,,,,,,,,,,3231.2000000476837,,0,,,,,,,,,,,,,,,,,,,,<h3>End of this session. Thank you!</h3><br>,['Close window'],HRV,HRV_0309,2022-11-30 22:23:52
