trialN,stimuli,trialStartTime,trialStartTime_UNIX,stimulus1,stimulus2,stimulus1Bid,stimulus2Bid,delta,selected,rt,rt_UNIX,rt_perfnow,receivedResponse,rsp,trialEndTime,trialDuration,trialEndTime_UNIX,trialDuration_UNIX,exp,subjectId,date
0,"[{'imgObject': {}, 'id': 'blueberries', 'src': '/static/foodstim60/blueberries.jpg', 'key': 'u', 'origWidth': 411, 'origHeight': 411, 'width': 411, 'height': 411, 'widthPercent': 0.45, 'rescaleHeight': False, 'trialN': 0, 'loaded': True, 'loadedTime': 1922.2000000476837, 'positionName': 'LEFT', 'positionCoords': [510.6, 334.5], 'bid': 7.390000000000001}, {'imgObject': {}, 'id': 'raspberries', 'src': '/static/foodstim60/raspberries.jpg', 'key': 'i', 'origWidth': 411, 'origHeight': 411, 'width': 411, 'height': 411, 'widthPercent': 0.45, 'rescaleHeight': False, 'trialN': 0, 'loaded': True, 'loadedTime': 1977.5, 'positionName': 'RIGHT', 'positionCoords': [998.4, 334.5], 'bid': 9.93}]",2284.2999999523163,1669837044175,blueberries,raspberries,7.390000000000001,9.93,2.539999999999999,raspberries,1174.2999999523163,1175,1174.7999999523163,True,i,3972.0,1687.7000000476837,1669837045863,1688,HRV,HRV_0251,2022-11-30 19:42:25
1,"[{'imgObject': {}, 'id': 'orange slices', 'src': '/static/foodstim60/orange slices.jpg', 'key': 'u', 'origWidth': 409, 'origHeight': 410, 'width': 409, 'height': 410, 'widthPercent': 0.45, 'rescaleHeight': False, 'trialN': 1, 'loaded': True, 'loadedTime': 1984, 'positionName': 'LEFT', 'positionCoords': [512.6, 335], 'bid': 8.27}, {'imgObject': {}, 'id': 'cherries', 'src': '/static/foodstim60/cherries.jpg', 'key': 'i', 'origWidth': 410, 'origHeight': 411, 'width': 410, 'height': 411, 'widthPercent': 0.45, 'rescaleHeight': False, 'trialN': 1, 'loaded': True, 'loadedTime': 2008.5999999046326, 'positionName': 'RIGHT', 'positionCoords': [998.4, 334.5], 'bid': 8.03}]",3972.2000000476837,1669837045863,orange slices,cherries,8.27,8.03,-0.2400000000000002,cherries,2318.7999999523163,2319,2319.0999999046326,True,i,6807.700000047684,2835.5,1669837048698,2835,HRV,HRV_0251,2022-11-30 19:42:25
2,"[{'imgObject': {}, 'id': 'lox', 'src': '/static/foodstim60/lox.jpg', 'key': 'u', 'origWidth': 410, 'origHeight': 411, 'width': 410, 'height': 411, 'widthPercent': 0.45, 'rescaleHeight': False, 'trialN': 2, 'loaded': True, 'loadedTime': 2016.2999999523163, 'positionName': 'LEFT', 'positionCoords': [511.6, 334.5], 'bid': 2.41}, {'imgObject': {}, 'id': 'roastedpotatoes', 'src': '/static/foodstim60/roastedpotatoes.jpg', 'key': 'i', 'origWidth': 409, 'origHeight': 410, 'width': 409, 'height': 410, 'widthPercent': 0.45, 'rescaleHeight': False, 'trialN': 2, 'loaded': True, 'loadedTime': 2027.5999999046326, 'positionName': 'RIGHT', 'positionCoords': [998.4, 335], 'bid': 4.48}]",6807.900000095367,1669837048698,lox,roastedpotatoes,2.41,4.48,2.0700000000000003,roastedpotatoes,1443.0999999046326,1444,1443.5,True,i,8764.099999904633,1956.1999998092651,1669837050655,1957,HRV,HRV_0251,2022-11-30 19:42:25
3,"[{'imgObject': {}, 'id': 'Tribe humus pita', 'src': '/static/foodstim60/Tribe humus pita.jpg', 'key': 'u', 'origWidth': 411, 'origHeight': 411, 'width': 411, 'height': 411, 'widthPercent': 0.45, 'rescaleHeight': False, 'trialN': 3, 'loaded': True, 'loadedTime': 2029.7999999523163, 'positionName': 'LEFT', 'positionCoords': [510.6, 334.5], 'bid': 5.13}, {'imgObject': {}, 'id': 'sweetpotato', 'src': '/static/foodstim60/sweetpotato.jpg', 'key': 'i', 'origWidth': 410, 'origHeight': 410, 'width': 410, 'height': 410, 'widthPercent': 0.45, 'rescaleHeight': False, 'trialN': 3, 'loaded': True, 'loadedTime': 2033.9000000953674, 'positionName': 'RIGHT', 'positionCoords': [998.4, 335], 'bid': 4.95}]",8764.299999952316,1669837050655,Tribe humus pita,sweetpotato,5.13,4.95,-0.17999999999999972,sweetpotato,910.4000000953674,910,910.6000001430511,True,i,10178.200000047684,1413.9000000953674,1669837052069,1414,HRV,HRV_0251,2022-11-30 19:42:25
4,"[{'imgObject': {}, 'id': 'chickenfingers', 'src': '/static/foodstim60/chickenfingers.jpg', 'key': 'u', 'origWidth': 410, 'origHeight': 410, 'width': 410, 'height': 410, 'widthPercent': 0.45, 'rescaleHeight': False, 'trialN': 4, 'loaded': True, 'loadedTime': 2041.4000000953674, 'positionName': 'LEFT', 'positionCoords': [511.6, 335], 'bid': 1.61}, {'imgObject': {}, 'id': 'chicken nuggets2', 'src': '/static/foodstim60/chicken nuggets2.jpg', 'key': 'i', 'origWidth': 410, 'origHeight': 409, 'width': 410, 'height': 409, 'widthPercent': 0.45, 'rescaleHeight': False, 'trialN': 4, 'loaded': True, 'loadedTime': 2054, 'positionName': 'RIGHT', 'positionCoords': [998.4, 335.5], 'bid': 1.66}]",10178.400000095367,1669837052069,chickenfingers,chicken nuggets2,1.61,1.66,0.04999999999999982,chicken nuggets2,1544.8999998569489,1545,1545.3999998569489,True,i,12226.5,2048.0999999046326,1669837054117,2048,HRV,HRV_0251,2022-11-30 19:42:25
5,"[{'imgObject': {}, 'id': 'steak', 'src': '/static/foodstim60/steak.jpg', 'key': 'u', 'origWidth': 410, 'origHeight': 410, 'width': 410, 'height': 410, 'widthPercent': 0.45, 'rescaleHeight': False, 'trialN': 5, 'loaded': True, 'loadedTime': 2065.9000000953674, 'positionName': 'LEFT', 'positionCoords': [511.6, 335], 'bid': 0.59}, {'imgObject': {}, 'id': 'luckycharms', 'src': '/static/foodstim60/luckycharms.jpg', 'key': 'i', 'origWidth': 410, 'origHeight': 409, 'width': 410, 'height': 409, 'widthPercent': 0.45, 'rescaleHeight': False, 'trialN': 5, 'loaded': True, 'loadedTime': 2070.0999999046326, 'positionName': 'RIGHT', 'positionCoords': [998.4, 335.5], 'bid': 0.43}]",12226.799999952316,1669837054117,steak,luckycharms,0.59,0.43,-0.15999999999999998,steak,831.7000000476837,832,831.9000000953674,True,u,13563.900000095367,1337.1000001430511,1669837055455,1338,HRV,HRV_0251,2022-11-30 19:42:25
6,"[{'imgObject': {}, 'id': 'eggs', 'src': '/static/foodstim60/eggs.jpg', 'key': 'u', 'origWidth': 409, 'origHeight': 409, 'width': 409, 'height': 409, 'widthPercent': 0.45, 'rescaleHeight': False, 'trialN': 6, 'loaded': True, 'loadedTime': 2079.7000000476837, 'positionName': 'LEFT', 'positionCoords': [512.6, 335.5], 'bid': 5.38}, {'imgObject': {}, 'id': 'raspberries', 'src': '/static/foodstim60/raspberries.jpg', 'key': 'i', 'origWidth': 411, 'origHeight': 411, 'width': 411, 'height': 411, 'widthPercent': 0.45, 'rescaleHeight': False, 'trialN': 6, 'loaded': True, 'loadedTime': 1982.7000000476837, 'positionName': 'RIGHT', 'positionCoords': [998.4, 334.5], 'bid': 9.93}]",13564.200000047684,1669837055455,eggs,raspberries,5.38,9.93,4.55,raspberries,606.5999999046326,607,607.0,True,i,14686.5,1122.2999999523163,1669837056577,1122,HRV,HRV_0251,2022-11-30 19:42:25
7,"[{'imgObject': {}, 'id': 'tacos', 'src': '/static/foodstim60/tacos.jpg', 'key': 'u', 'origWidth': 411, 'origHeight': 411, 'width': 411, 'height': 411, 'widthPercent': 0.45, 'rescaleHeight': False, 'trialN': 7, 'loaded': True, 'loadedTime': 1946.7999999523163, 'positionName': 'LEFT', 'positionCoords': [510.6, 334.5], 'bid': 1.89}, {'imgObject': {}, 'id': 'baked potato', 'src': '/static/foodstim60/baked potato.jpg', 'key': 'i', 'origWidth': 409, 'origHeight': 410, 'width': 409, 'height': 410, 'widthPercent': 0.45, 'rescaleHeight': False, 'trialN': 7, 'loaded': True, 'loadedTime': 1971.2999999523163, 'positionName': 'RIGHT', 'positionCoords': [998.4, 335], 'bid': 4.29}]",14686.799999952316,1669837056577,tacos,baked potato,1.89,4.29,2.4000000000000004,baked potato,1076.1000001430511,1077,1076.4000000953674,True,i,16277.200000047684,1590.4000000953674,1669837058168,1591,HRV,HRV_0251,2022-11-30 19:42:25
8,"[{'imgObject': {}, 'id': 'tacos', 'src': '/static/foodstim60/tacos.jpg', 'key': 'u', 'origWidth': 411, 'origHeight': 411, 'width': 411, 'height': 411, 'widthPercent': 0.45, 'rescaleHeight': False, 'trialN': 8, 'loaded': True, 'loadedTime': 1940.7000000476837, 'positionName': 'LEFT', 'positionCoords': [510.6, 334.5], 'bid': 1.89}, {'imgObject': {}, 'id': 'lox', 'src': '/static/foodstim60/lox.jpg', 'key': 'i', 'origWidth': 410, 'origHeight': 411, 'width': 410, 'height': 411, 'widthPercent': 0.45, 'rescaleHeight': False, 'trialN': 8, 'loaded': True, 'loadedTime': 2009.0999999046326, 'positionName': 'RIGHT', 'positionCoords': [998.4, 334.5], 'bid': 2.41}]",16277.400000095367,1669837058168,tacos,lox,1.89,2.41,0.5200000000000002,tacos,1029.5,1030,1030.0,True,u,17817.099999904633,1539.6999998092651,1669837059708,1540,HRV,HRV_0251,2022-11-30 19:42:25
9,"[{'imgObject': {}, 'id': 'strawberries', 'src': '/static/foodstim60/strawberries.jpg', 'key': 'u', 'origWidth': 410, 'origHeight': 410, 'width': 410, 'height': 410, 'widthPercent': 0.45, 'rescaleHeight': False, 'trialN': 9, 'loaded': True, 'loadedTime': 1995.2000000476837, 'positionName': 'LEFT', 'positionCoords': [511.6, 335], 'bid': 9.56}, {'imgObject': {}, 'id': 'cantaloupe', 'src': '/static/foodstim60/cantaloupe.jpg', 'key': 'i', 'origWidth': 409, 'origHeight': 409, 'width': 409, 'height': 409, 'widthPercent': 0.45, 'rescaleHeight': False, 'trialN': 9, 'loaded': True, 'loadedTime': 2023.7000000476837, 'positionName': 'RIGHT', 'positionCoords': [998.4, 335.5], 'bid': 9.22}]",17817.299999952316,1669837059708,strawberries,cantaloupe,9.56,9.22,-0.33999999999999986,strawberries,1121.2999999523163,1122,1121.7000000476837,True,u,19445.5,1628.2000000476837,1669837061336,1628,HRV,HRV_0251,2022-11-30 19:42:25
10,"[{'imgObject': {}, 'id': 'bagel and cc', 'src': '/static/foodstim60/bagel and cc.jpg', 'key': 'u', 'origWidth': 410, 'origHeight': 410, 'width': 410, 'height': 410, 'widthPercent': 0.45, 'rescaleHeight': False, 'trialN': 10, 'loaded': True, 'loadedTime': 2068.0999999046326, 'positionName': 'LEFT', 'positionCoords': [511.6, 335], 'bid': 4.54}, {'imgObject': {}, 'id': 'kiwi', 'src': '/static/foodstim60/kiwi.jpg', 'key': 'i', 'origWidth': 410, 'origHeight': 410, 'width': 410, 'height': 410, 'widthPercent': 0.45, 'rescaleHeight': False, 'trialN': 10, 'loaded': True, 'loadedTime': 2085.9000000953674, 'positionName': 'RIGHT', 'positionCoords': [998.4, 335], 'bid': 9.15}]",19445.700000047684,1669837061336,bagel and cc,kiwi,4.54,9.15,4.61,kiwi,516.8999998569489,517,517.0999999046326,True,i,20474.299999952316,1028.5999999046326,1669837062365,1029,HRV,HRV_0251,2022-11-30 19:42:25
11,"[{'imgObject': {}, 'id': 'orange slices', 'src': '/static/foodstim60/orange slices.jpg', 'key': 'u', 'origWidth': 409, 'origHeight': 410, 'width': 409, 'height': 410, 'widthPercent': 0.45, 'rescaleHeight': False, 'trialN': 11, 'loaded': True, 'loadedTime': 1989.9000000953674, 'positionName': 'LEFT', 'positionCoords': [512.6, 335], 'bid': 8.27}, {'imgObject': {}, 'id': 'baked potato', 'src': '/static/foodstim60/baked potato.jpg', 'key': 'i', 'origWidth': 409, 'origHeight': 410, 'width': 409, 'height': 410, 'widthPercent': 0.45, 'rescaleHeight': False, 'trialN': 11, 'loaded': True, 'loadedTime': 1962.4000000953674, 'positionName': 'RIGHT', 'positionCoords': [998.4, 335], 'bid': 4.29}]",20474.5,1669837062365,orange slices,baked potato,8.27,4.29,-3.9799999999999995,orange slices,656.0999999046326,656,656.4000000953674,True,u,21644.200000047684,1169.7000000476837,1669837063535,1170,HRV,HRV_0251,2022-11-30 19:42:25
12,"[{'imgObject': {}, 'id': 'granola w milk', 'src': '/static/foodstim60/granola w milk.jpg', 'key': 'u', 'origWidth': 410, 'origHeight': 410, 'width': 410, 'height': 410, 'widthPercent': 0.45, 'rescaleHeight': False, 'trialN': 12, 'loaded': True, 'loadedTime': 2091.2000000476837, 'positionName': 'LEFT', 'positionCoords': [511.6, 335], 'bid': 0.11}, {'imgObject': {}, 'id': 'olives', 'src': '/static/foodstim60/olives.jpg', 'key': 'i', 'origWidth': 410, 'origHeight': 410, 'width': 410, 'height': 410, 'widthPercent': 0.45, 'rescaleHeight': False, 'trialN': 12, 'loaded': True, 'loadedTime': 2104.4000000953674, 'positionName': 'RIGHT', 'positionCoords': [998.4, 335], 'bid': 0.02}]",21644.299999952316,1669837063535,granola w milk,olives,0.11,0.02,-0.09,granola w milk,1350.7000000476837,1351,1351.0,True,u,23503.200000047684,1858.9000000953674,1669837065394,1859,HRV,HRV_0251,2022-11-30 19:42:25
13,"[{'imgObject': {}, 'id': 'bagel plain', 'src': '/static/foodstim60/bagel plain.jpg', 'key': 'u', 'origWidth': 410, 'origHeight': 410, 'width': 410, 'height': 410, 'widthPercent': 0.45, 'rescaleHeight': False, 'trialN': 13, 'loaded': True, 'loadedTime': 2110.2000000476837, 'positionName': 'LEFT', 'positionCoords': [511.6, 335], 'bid': 4.28}, {'imgObject': {}, 'id': 'omelette', 'src': '/static/foodstim60/omelette.jpg', 'key': 'i', 'origWidth': 410, 'origHeight': 409, 'width': 410, 'height': 409, 'widthPercent': 0.45, 'rescaleHeight': False, 'trialN': 13, 'loaded': True, 'loadedTime': 2121.2000000476837, 'positionName': 'RIGHT', 'positionCoords': [998.4, 335.5], 'bid': 3.3200000000000003}]",23503.400000095367,1669837065394,bagel plain,omelette,4.28,3.3200000000000003,-0.96,bagel plain,1883.5999999046326,1884,1884.0,True,u,25903.299999952316,2399.899999856949,1669837067794,2400,HRV,HRV_0251,2022-11-30 19:42:25
14,"[{'imgObject': {}, 'id': 'rigatoni', 'src': '/static/foodstim60/rigatoni.jpg', 'key': 'u', 'origWidth': 411, 'origHeight': 411, 'width': 411, 'height': 411, 'widthPercent': 0.45, 'rescaleHeight': False, 'trialN': 14, 'loaded': True, 'loadedTime': 2122.2999999523163, 'positionName': 'LEFT', 'positionCoords': [510.6, 334.5], 'bid': 0.14}, {'imgObject': {}, 'id': 'burrito', 'src': '/static/foodstim60/burrito.jpg', 'key': 'i', 'origWidth': 410, 'origHeight': 410, 'width': 410, 'height': 410, 'widthPercent': 0.45, 'rescaleHeight': False, 'trialN': 14, 'loaded': True, 'loadedTime': 2139.9000000953674, 'positionName': 'RIGHT', 'positionCoords': [998.4, 335], 'bid': 0.8300000000000001}]",25903.400000095367,1669837067794,rigatoni,burrito,0.14,0.8300000000000001,0.6900000000000001,burrito,1867.2999999523163,1867,1867.5999999046326,True,i,28275.700000047684,2372.2999999523163,1669837070166,2372,HRV,HRV_0251,2022-11-30 19:42:25
15,"[{'imgObject': {}, 'id': 'cheerios', 'src': '/static/foodstim60/cheerios.jpg', 'key': 'u', 'origWidth': 409, 'origHeight': 410, 'width': 409, 'height': 410, 'widthPercent': 0.45, 'rescaleHeight': False, 'trialN': 15, 'loaded': True, 'loadedTime': 2140.7999999523163, 'positionName': 'LEFT', 'positionCoords': [512.6, 335], 'bid': 0.34}, {'imgObject': {}, 'id': 'mac & cheese', 'src': '/static/foodstim60/mac & cheese.jpg', 'key': 'i', 'origWidth': 410, 'origHeight': 410, 'width': 410, 'height': 410, 'widthPercent': 0.45, 'rescaleHeight': False, 'trialN': 15, 'loaded': True, 'loadedTime': 2159.5999999046326, 'positionName': 'RIGHT', 'positionCoords': [998.4, 335], 'bid': 0}]",28275.900000095367,1669837070166,cheerios,mac & cheese,0.34,0.0,-0.34,cheerios,1038.8999998569489,1040,1039.0999999046326,True,u,29828.799999952316,1552.8999998569489,1669837071719,1553,HRV,HRV_0251,2022-11-30 19:42:25
16,"[{'imgObject': {}, 'id': 'roastedpotatoes', 'src': '/static/foodstim60/roastedpotatoes.jpg', 'key': 'u', 'origWidth': 409, 'origHeight': 410, 'width': 409, 'height': 410, 'widthPercent': 0.45, 'rescaleHeight': False, 'trialN': 16, 'loaded': True, 'loadedTime': 2024.5999999046326, 'positionName': 'LEFT', 'positionCoords': [512.6, 335], 'bid': 4.48}, {'imgObject': {}, 'id': 'Tribe humus pita', 'src': '/static/foodstim60/Tribe humus pita.jpg', 'key': 'i', 'origWidth': 411, 'origHeight': 411, 'width': 411, 'height': 411, 'widthPercent': 0.45, 'rescaleHeight': False, 'trialN': 16, 'loaded': True, 'loadedTime': 2030.7000000476837, 'positionName': 'RIGHT', 'positionCoords': [998.4, 334.5], 'bid': 5.13}]",29829.0,1669837071720,roastedpotatoes,Tribe humus pita,4.48,5.13,0.6499999999999995,roastedpotatoes,1438.0,1438,1438.2000000476837,True,u,31782.700000047684,1953.7000000476837,1669837073673,1953,HRV,HRV_0251,2022-11-30 19:42:25
17,"[{'imgObject': {}, 'id': 'sushi w_condiments', 'src': '/static/foodstim60/sushi w_condiments.jpg', 'key': 'u', 'origWidth': 410, 'origHeight': 410, 'width': 410, 'height': 410, 'widthPercent': 0.45, 'rescaleHeight': False, 'trialN': 17, 'loaded': True, 'loadedTime': 2160.9000000953674, 'positionName': 'LEFT', 'positionCoords': [511.6, 335], 'bid': 0.13}, {'imgObject': {}, 'id': 'mashed potato', 'src': '/static/foodstim60/mashed potato.jpg', 'key': 'i', 'origWidth': 409, 'origHeight': 409, 'width': 409, 'height': 409, 'widthPercent': 0.45, 'rescaleHeight': False, 'trialN': 17, 'loaded': True, 'loadedTime': 2163.5999999046326, 'positionName': 'RIGHT', 'positionCoords': [998.4, 335.5], 'bid': 3.72}]",31782.900000095367,1669837073673,sushi w_condiments,mashed potato,0.13,3.72,3.5900000000000003,mashed potato,1516.1999998092651,1517,1516.3999998569489,True,i,33814.90000009537,2032.0,1669837075705,2032,HRV,HRV_0251,2022-11-30 19:42:25
18,"[{'imgObject': {}, 'id': 'popsicles', 'src': '/static/foodstim60/popsicles.jpg', 'key': 'u', 'origWidth': 410, 'origHeight': 410, 'width': 410, 'height': 410, 'widthPercent': 0.45, 'rescaleHeight': False, 'trialN': 18, 'loaded': True, 'loadedTime': 2283.5, 'positionName': 'LEFT', 'positionCoords': [511.6, 335], 'bid': 0.22}, {'imgObject': {}, 'id': 'sushi w_condiments', 'src': '/static/foodstim60/sushi w_condiments.jpg', 'key': 'i', 'origWidth': 410, 'origHeight': 410, 'width': 410, 'height': 410, 'widthPercent': 0.45, 'rescaleHeight': False, 'trialN': 18, 'loaded': True, 'loadedTime': 2159.7000000476837, 'positionName': 'RIGHT', 'positionCoords': [998.4, 335], 'bid': 0.13}]",33815.09999990463,1669837075706,popsicles,sushi w_condiments,0.22,0.13,-0.09,popsicles,1076.3000001907349,1076,1076.6000001430511,True,u,35401.09999990463,1586.0,1669837077292,1586,HRV,HRV_0251,2022-11-30 19:42:25
19,"[{'imgObject': {}, 'id': 'mac & cheese', 'src': '/static/foodstim60/mac & cheese.jpg', 'key': 'u', 'origWidth': 410, 'origHeight': 410, 'width': 410, 'height': 410, 'widthPercent': 0.45, 'rescaleHeight': False, 'trialN': 19, 'loaded': True, 'loadedTime': 2154.5999999046326, 'positionName': 'LEFT', 'positionCoords': [511.6, 335], 'bid': 0}, {'imgObject': {}, 'id': 'edamame', 'src': '/static/foodstim60/edamame.jpg', 'key': 'i', 'origWidth': 409, 'origHeight': 410, 'width': 409, 'height': 410, 'widthPercent': 0.45, 'rescaleHeight': False, 'trialN': 19, 'loaded': True, 'loadedTime': 2165.2999999523163, 'positionName': 'RIGHT', 'positionCoords': [998.4, 335], 'bid': 0.15}]",35401.200000047684,1669837077292,mac & cheese,edamame,0.0,0.15,0.15,mac & cheese,2649.2999999523163,2649,2649.5,True,u,38558.90000009537,3157.7000000476837,1669837080449,3157,HRV,HRV_0251,2022-11-30 19:42:25
20,"[{'imgObject': {}, 'id': 'edamame', 'src': '/static/foodstim60/edamame.jpg', 'key': 'u', 'origWidth': 409, 'origHeight': 410, 'width': 409, 'height': 410, 'widthPercent': 0.45, 'rescaleHeight': False, 'trialN': 20, 'loaded': True, 'loadedTime': 2164.5, 'positionName': 'LEFT', 'positionCoords': [512.6, 335], 'bid': 0.15}, {'imgObject': {}, 'id': 'rigatoni and sauce', 'src': '/static/foodstim60/rigatoni and sauce.jpg', 'key': 'i', 'origWidth': 410, 'origHeight': 411, 'width': 410, 'height': 411, 'widthPercent': 0.45, 'rescaleHeight': False, 'trialN': 20, 'loaded': True, 'loadedTime': 2166.9000000953674, 'positionName': 'RIGHT', 'positionCoords': [998.4, 334.5], 'bid': 0.16}]",38559.200000047684,1669837080450,edamame,rigatoni and sauce,0.15,0.16,0.010000000000000009,edamame,2035.5,2035,2035.7000000476837,True,u,41113.09999990463,2553.899999856949,1669837083004,2554,HRV,HRV_0251,2022-11-30 19:42:25
21,"[{'imgObject': {}, 'id': 'mango', 'src': '/static/foodstim60/mango.jpg', 'key': 'u', 'origWidth': 411, 'origHeight': 411, 'width': 411, 'height': 411, 'widthPercent': 0.45, 'rescaleHeight': False, 'trialN': 21, 'loaded': True, 'loadedTime': 2175, 'positionName': 'LEFT', 'positionCoords': [510.6, 334.5], 'bid': 7.03}, {'imgObject': {}, 'id': 'strawberries', 'src': '/static/foodstim60/strawberries.jpg', 'key': 'i', 'origWidth': 410, 'origHeight': 410, 'width': 410, 'height': 410, 'widthPercent': 0.45, 'rescaleHeight': False, 'trialN': 21, 'loaded': True, 'loadedTime': 1990.2999999523163, 'positionName': 'RIGHT', 'positionCoords': [998.4, 335], 'bid': 9.56}]",41113.200000047684,1669837083004,mango,strawberries,7.03,9.56,2.5300000000000002,strawberries,969.3999998569489,969,969.5999999046326,True,i,42592.200000047684,1479.0,1669837084483,1479,HRV,HRV_0251,2022-11-30 19:42:25
22,"[{'imgObject': {}, 'id': 'burger', 'src': '/static/foodstim60/burger.jpg', 'key': 'u', 'origWidth': 409, 'origHeight': 409, 'width': 409, 'height': 409, 'widthPercent': 0.45, 'rescaleHeight': False, 'trialN': 22, 'loaded': True, 'loadedTime': 2181.5, 'positionName': 'LEFT', 'positionCoords': [512.6, 335.5], 'bid': 2.86}, {'imgObject': {}, 'id': 'mashed potato', 'src': '/static/foodstim60/mashed potato.jpg', 'key': 'i', 'origWidth': 409, 'origHeight': 409, 'width': 409, 'height': 409, 'widthPercent': 0.45, 'rescaleHeight': False, 'trialN': 22, 'loaded': True, 'loadedTime': 2162.2999999523163, 'positionName': 'RIGHT', 'positionCoords': [998.4, 335.5], 'bid': 3.72}]",42592.40000009537,1669837084483,burger,mashed potato,2.86,3.72,0.8600000000000003,mashed potato,1139.0999999046326,1139,1139.5,True,i,44238.799999952316,1646.3999998569489,1669837086129,1646,HRV,HRV_0251,2022-11-30 19:42:25
23,"[{'imgObject': {}, 'id': 'avocado', 'src': '/static/foodstim60/avocado.jpg', 'key': 'u', 'origWidth': 409, 'origHeight': 409, 'width': 409, 'height': 409, 'widthPercent': 0.45, 'rescaleHeight': False, 'trialN': 23, 'loaded': True, 'loadedTime': 2189, 'positionName': 'LEFT', 'positionCoords': [512.6, 335.5], 'bid': 0.91}, {'imgObject': {}, 'id': 'cocktailshrimp', 'src': '/static/foodstim60/cocktailshrimp.jpg', 'key': 'i', 'origWidth': 410, 'origHeight': 410, 'width': 410, 'height': 410, 'widthPercent': 0.45, 'rescaleHeight': False, 'trialN': 23, 'loaded': True, 'loadedTime': 2199.7000000476837, 'positionName': 'RIGHT', 'positionCoords': [998.4, 335], 'bid': 1.12}]",44238.90000009537,1669837086129,avocado,cocktailshrimp,0.91,1.12,0.21000000000000008,avocado,1188.0999999046326,1189,1188.5,True,u,45934.40000009537,1695.5,1669837087825,1696,HRV,HRV_0251,2022-11-30 19:42:25
24,"[{'imgObject': {}, 'id': 'seaweed', 'src': '/static/foodstim60/seaweed.jpg', 'key': 'u', 'origWidth': 410, 'origHeight': 410, 'width': 410, 'height': 410, 'widthPercent': 0.45, 'rescaleHeight': False, 'trialN': 24, 'loaded': True, 'loadedTime': 2207.4000000953674, 'positionName': 'LEFT', 'positionCoords': [511.6, 335], 'bid': 0.16}, {'imgObject': {}, 'id': 'chickenfingers', 'src': '/static/foodstim60/chickenfingers.jpg', 'key': 'i', 'origWidth': 410, 'origHeight': 410, 'width': 410, 'height': 410, 'widthPercent': 0.45, 'rescaleHeight': False, 'trialN': 24, 'loaded': True, 'loadedTime': 2046.5999999046326, 'positionName': 'RIGHT', 'positionCoords': [998.4, 335], 'bid': 1.61}]",45934.59999990463,1669837087825,seaweed,chickenfingers,0.16,1.61,1.4500000000000002,chickenfingers,1244.0,1244,1244.2000000476837,True,i,47687.59999990463,1753.0,1669837089578,1753,HRV,HRV_0251,2022-11-30 19:42:25
25,"[{'imgObject': {}, 'id': 'blackbeanswithrice', 'src': '/static/foodstim60/blackbeanswithrice.jpg', 'key': 'u', 'origWidth': 410, 'origHeight': 410, 'width': 410, 'height': 410, 'widthPercent': 0.45, 'rescaleHeight': False, 'trialN': 25, 'loaded': True, 'loadedTime': 2208.2999999523163, 'positionName': 'LEFT', 'positionCoords': [511.6, 335], 'bid': 5.03}, {'imgObject': {}, 'id': 'Tribe humus pita', 'src': '/static/foodstim60/Tribe humus pita.jpg', 'key': 'i', 'origWidth': 411, 'origHeight': 411, 'width': 411, 'height': 411, 'widthPercent': 0.45, 'rescaleHeight': False, 'trialN': 25, 'loaded': True, 'loadedTime': 2030.2999999523163, 'positionName': 'RIGHT', 'positionCoords': [998.4, 334.5], 'bid': 5.13}]",47687.700000047684,1669837089578,blackbeanswithrice,Tribe humus pita,5.03,5.13,0.09999999999999964,blackbeanswithrice,1131.2999999523163,1132,1131.8999998569489,True,u,49334.59999990463,1646.8999998569489,1669837091225,1647,HRV,HRV_0251,2022-11-30 19:42:25
26,"[{'imgObject': {}, 'id': 'hotdog w must', 'src': '/static/foodstim60/hotdog w must.jpg', 'key': 'u', 'origWidth': 409, 'origHeight': 409, 'width': 409, 'height': 409, 'widthPercent': 0.45, 'rescaleHeight': False, 'trialN': 26, 'loaded': True, 'loadedTime': 2213.7000000476837, 'positionName': 'LEFT', 'positionCoords': [512.6, 335.5], 'bid': 0}, {'imgObject': {}, 'id': 'fried eggs', 'src': '/static/foodstim60/fried eggs.jpg', 'key': 'i', 'origWidth': 410, 'origHeight': 410, 'width': 410, 'height': 410, 'widthPercent': 0.45, 'rescaleHeight': False, 'trialN': 26, 'loaded': True, 'loadedTime': 2219, 'positionName': 'RIGHT', 'positionCoords': [998.4, 335], 'bid': 3.1}]",49334.59999990463,1669837091225,hotdog w must,fried eggs,0.0,3.1,3.1,fried eggs,1028.4000000953674,1029,1028.8000001907349,True,i,50877.09999990463,1542.5,1669837092768,1543,HRV,HRV_0251,2022-11-30 19:42:25
27,"[{'imgObject': {}, 'id': 'ice cream sundae 002', 'src': '/static/foodstim60/ice cream sundae 002.jpg', 'key': 'u', 'origWidth': 409, 'origHeight': 409, 'width': 409, 'height': 409, 'widthPercent': 0.45, 'rescaleHeight': False, 'trialN': 27, 'loaded': True, 'loadedTime': 2225.5999999046326, 'positionName': 'LEFT', 'positionCoords': [512.6, 335.5], 'bid': 4.51}, {'imgObject': {}, 'id': 'eggs', 'src': '/static/foodstim60/eggs.jpg', 'key': 'i', 'origWidth': 409, 'origHeight': 409, 'width': 409, 'height': 409, 'widthPercent': 0.45, 'rescaleHeight': False, 'trialN': 27, 'loaded': True, 'loadedTime': 2072.4000000953674, 'positionName': 'RIGHT', 'positionCoords': [998.4, 335.5], 'bid': 5.38}]",50877.299999952316,1669837092768,ice cream sundae 002,eggs,4.51,5.38,0.8700000000000001,eggs,1645.6000001430511,1646,1645.7999999523163,True,i,53036.700000047684,2159.4000000953674,1669837094927,2159,HRV,HRV_0251,2022-11-30 19:42:25
28,"[{'imgObject': {}, 'id': 'lox', 'src': '/static/foodstim60/lox.jpg', 'key': 'u', 'origWidth': 410, 'origHeight': 411, 'width': 410, 'height': 411, 'widthPercent': 0.45, 'rescaleHeight': False, 'trialN': 28, 'loaded': True, 'loadedTime': 2022.7000000476837, 'positionName': 'LEFT', 'positionCoords': [511.6, 334.5], 'bid': 2.41}, {'imgObject': {}, 'id': 'strawberries', 'src': '/static/foodstim60/strawberries.jpg', 'key': 'i', 'origWidth': 410, 'origHeight': 410, 'width': 410, 'height': 410, 'widthPercent': 0.45, 'rescaleHeight': False, 'trialN': 28, 'loaded': True, 'loadedTime': 1995.2999999523163, 'positionName': 'RIGHT', 'positionCoords': [998.4, 335], 'bid': 9.56}]",53036.799999952316,1669837094927,lox,strawberries,2.41,9.56,7.15,strawberries,574.1000001430511,575,574.5,True,i,54114.40000009537,1077.6000001430511,1669837096005,1078,HRV,HRV_0251,2022-11-30 19:42:25
29,"[{'imgObject': {}, 'id': 'steak', 'src': '/static/foodstim60/steak.jpg', 'key': 'u', 'origWidth': 410, 'origHeight': 410, 'width': 410, 'height': 410, 'widthPercent': 0.45, 'rescaleHeight': False, 'trialN': 29, 'loaded': True, 'loadedTime': 2065.7999999523163, 'positionName': 'LEFT', 'positionCoords': [511.6, 335], 'bid': 0.59}, {'imgObject': {}, 'id': 'blueberries', 'src': '/static/foodstim60/blueberries.jpg', 'key': 'i', 'origWidth': 411, 'origHeight': 411, 'width': 411, 'height': 411, 'widthPercent': 0.45, 'rescaleHeight': False, 'trialN': 29, 'loaded': True, 'loadedTime': 1929.2999999523163, 'positionName': 'RIGHT', 'positionCoords': [998.4, 334.5], 'bid': 7.390000000000001}]",54114.5,1669837096005,steak,blueberries,0.59,7.390000000000001,6.800000000000001,blueberries,632.9000000953674,633,633.2999999523163,True,i,55252.90000009537,1138.4000000953674,1669837097143,1138,HRV,HRV_0251,2022-11-30 19:42:25
30,"[{'imgObject': {}, 'id': 'avocado', 'src': '/static/foodstim60/avocado.jpg', 'key': 'u', 'origWidth': 409, 'origHeight': 409, 'width': 409, 'height': 409, 'widthPercent': 0.45, 'rescaleHeight': False, 'trialN': 30, 'loaded': True, 'loadedTime': 2187.9000000953674, 'positionName': 'LEFT', 'positionCoords': [512.6, 335.5], 'bid': 0.91}, {'imgObject': {}, 'id': 'cheerios', 'src': '/static/foodstim60/cheerios.jpg', 'key': 'i', 'origWidth': 409, 'origHeight': 410, 'width': 409, 'height': 410, 'widthPercent': 0.45, 'rescaleHeight': False, 'trialN': 30, 'loaded': True, 'loadedTime': 2148.5, 'positionName': 'RIGHT', 'positionCoords': [998.4, 335], 'bid': 0.34}]",55253.0,1669837097143,avocado,cheerios,0.91,0.34,-0.5700000000000001,cheerios,1005.5999999046326,1006,1005.7999999523163,True,i,56764.90000009537,1511.9000000953674,1669837098655,1512,HRV,HRV_0251,2022-11-30 19:42:25
31,"[{'imgObject': {}, 'id': 'mango', 'src': '/static/foodstim60/mango.jpg', 'key': 'u', 'origWidth': 411, 'origHeight': 411, 'width': 411, 'height': 411, 'widthPercent': 0.45, 'rescaleHeight': False, 'trialN': 31, 'loaded': True, 'loadedTime': 2174.5, 'positionName': 'LEFT', 'positionCoords': [510.6, 334.5], 'bid': 7.03}, {'imgObject': {}, 'id': 'sweetpotato', 'src': '/static/foodstim60/sweetpotato.jpg', 'key': 'i', 'origWidth': 410, 'origHeight': 410, 'width': 410, 'height': 410, 'widthPercent': 0.45, 'rescaleHeight': False, 'trialN': 31, 'loaded': True, 'loadedTime': 2040, 'positionName': 'RIGHT', 'positionCoords': [998.4, 335], 'bid': 4.95}]",56765.09999990463,1669837098656,mango,sweetpotato,7.03,4.95,-2.08,mango,902.0,902,902.4000000953674,True,u,58184.09999990463,1419.0,1669837100075,1419,HRV,HRV_0251,2022-11-30 19:42:25
32,"[{'imgObject': {}, 'id': 'rigatoni', 'src': '/static/foodstim60/rigatoni.jpg', 'key': 'u', 'origWidth': 411, 'origHeight': 411, 'width': 411, 'height': 411, 'widthPercent': 0.45, 'rescaleHeight': False, 'trialN': 32, 'loaded': True, 'loadedTime': 2128.2000000476837, 'positionName': 'LEFT', 'positionCoords': [510.6, 334.5], 'bid': 0.14}, {'imgObject': {}, 'id': 'rigatoni and sauce', 'src': '/static/foodstim60/rigatoni and sauce.jpg', 'key': 'i', 'origWidth': 410, 'origHeight': 411, 'width': 410, 'height': 411, 'widthPercent': 0.45, 'rescaleHeight': False, 'trialN': 32, 'loaded': True, 'loadedTime': 2166.7999999523163, 'positionName': 'RIGHT', 'positionCoords': [998.4, 334.5], 'bid': 0.16}]",58184.299999952316,1669837100075,rigatoni,rigatoni and sauce,0.14,0.16,0.01999999999999999,rigatoni and sauce,970.4000000953674,970,970.6000001430511,True,i,59658.90000009537,1474.6000001430511,1669837101549,1474,HRV,HRV_0251,2022-11-30 19:42:25
33,"[{'imgObject': {}, 'id': 'apple slices', 'src': '/static/foodstim60/apple slices.jpg', 'key': 'u', 'origWidth': 409, 'origHeight': 410, 'width': 409, 'height': 410, 'widthPercent': 0.45, 'rescaleHeight': False, 'trialN': 33, 'loaded': True, 'loadedTime': 2237.2000000476837, 'positionName': 'LEFT', 'positionCoords': [512.6, 335], 'bid': 7.36}, {'imgObject': {}, 'id': 'cherries', 'src': '/static/foodstim60/cherries.jpg', 'key': 'i', 'origWidth': 410, 'origHeight': 411, 'width': 410, 'height': 411, 'widthPercent': 0.45, 'rescaleHeight': False, 'trialN': 33, 'loaded': True, 'loadedTime': 2008.9000000953674, 'positionName': 'RIGHT', 'positionCoords': [998.4, 334.5], 'bid': 8.03}]",59659.0,1669837101550,apple slices,cherries,7.36,8.03,0.669999999999999,cherries,599.5999999046326,599,599.7000000476837,True,i,60768.200000047684,1109.2000000476837,1669837102659,1109,HRV,HRV_0251,2022-11-30 19:42:25
34,"[{'imgObject': {}, 'id': 'granola w milk', 'src': '/static/foodstim60/granola w milk.jpg', 'key': 'u', 'origWidth': 410, 'origHeight': 410, 'width': 410, 'height': 410, 'widthPercent': 0.45, 'rescaleHeight': False, 'trialN': 34, 'loaded': True, 'loadedTime': 2091, 'positionName': 'LEFT', 'positionCoords': [511.6, 335], 'bid': 0.11}, {'imgObject': {}, 'id': 'seaweed', 'src': '/static/foodstim60/seaweed.jpg', 'key': 'i', 'origWidth': 410, 'origHeight': 410, 'width': 410, 'height': 410, 'widthPercent': 0.45, 'rescaleHeight': False, 'trialN': 34, 'loaded': True, 'loadedTime': 2201.2000000476837, 'positionName': 'RIGHT', 'positionCoords': [998.4, 335], 'bid': 0.16}]",60768.299999952316,1669837102659,granola w milk,seaweed,0.11,0.16,0.05,granola w milk,1642.2999999523163,1642,1642.5,True,u,62925.09999990463,2156.7999999523163,1669837104816,2157,HRV,HRV_0251,2022-11-30 19:42:25
35,"[{'imgObject': {}, 'id': 'baked potato', 'src': '/static/foodstim60/baked potato.jpg', 'key': 'u', 'origWidth': 409, 'origHeight': 410, 'width': 409, 'height': 410, 'widthPercent': 0.45, 'rescaleHeight': False, 'trialN': 35, 'loaded': True, 'loadedTime': 1970.9000000953674, 'positionName': 'LEFT', 'positionCoords': [512.6, 335], 'bid': 4.29}, {'imgObject': {}, 'id': 'roastedpotatoes', 'src': '/static/foodstim60/roastedpotatoes.jpg', 'key': 'i', 'origWidth': 409, 'origHeight': 410, 'width': 409, 'height': 410, 'widthPercent': 0.45, 'rescaleHeight': False, 'trialN': 35, 'loaded': True, 'loadedTime': 2027.0999999046326, 'positionName': 'RIGHT', 'positionCoords': [998.4, 335], 'bid': 4.48}]",62925.200000047684,1669837104816,baked potato,roastedpotatoes,4.29,4.48,0.1900000000000004,roastedpotatoes,1269.3999998569489,1269,1269.7000000476837,True,i,64708.59999990463,1783.3999998569489,1669837106599,1783,HRV,HRV_0251,2022-11-30 19:42:25
36,"[{'imgObject': {}, 'id': 'kiwi', 'src': '/static/foodstim60/kiwi.jpg', 'key': 'u', 'origWidth': 410, 'origHeight': 410, 'width': 410, 'height': 410, 'widthPercent': 0.45, 'rescaleHeight': False, 'trialN': 36, 'loaded': True, 'loadedTime': 2080.2000000476837, 'positionName': 'LEFT', 'positionCoords': [511.6, 335], 'bid': 9.15}, {'imgObject': {}, 'id': 'banana', 'src': '/static/foodstim60/banana.jpg', 'key': 'i', 'origWidth': 410, 'origHeight': 410, 'width': 410, 'height': 410, 'widthPercent': 0.45, 'rescaleHeight': False, 'trialN': 36, 'loaded': True, 'loadedTime': 2238.7000000476837, 'positionName': 'RIGHT', 'positionCoords': [998.4, 335], 'bid': 8.91}]",64708.700000047684,1669837106599,kiwi,banana,9.15,8.91,-0.2400000000000002,banana,846.2999999523163,847,846.5999999046326,True,i,66066.29999995232,1357.5999999046326,1669837107957,1358,HRV,HRV_0251,2022-11-30 19:42:25
37,"[{'imgObject': {}, 'id': 'burrito', 'src': '/static/foodstim60/burrito.jpg', 'key': 'u', 'origWidth': 410, 'origHeight': 410, 'width': 410, 'height': 410, 'widthPercent': 0.45, 'rescaleHeight': False, 'trialN': 37, 'loaded': True, 'loadedTime': 2140.5, 'positionName': 'LEFT', 'positionCoords': [511.6, 335], 'bid': 0.8300000000000001}, {'imgObject': {}, 'id': 'shreddedwheatwithmilk', 'src': '/static/foodstim60/shreddedwheatwithmilk.jpg', 'key': 'i', 'origWidth': 410, 'origHeight': 410, 'width': 410, 'height': 410, 'widthPercent': 0.45, 'rescaleHeight': False, 'trialN': 37, 'loaded': True, 'loadedTime': 2245.4000000953674, 'positionName': 'RIGHT', 'positionCoords': [998.4, 335], 'bid': 0.29}]",66066.5,1669837107957,burrito,shreddedwheatwithmilk,0.8300000000000001,0.29,-0.54,shreddedwheatwithmilk,2024.2000000476837,2024,2024.5,True,i,68600.90000009537,2534.4000000953674,1669837110491,2534,HRV,HRV_0251,2022-11-30 19:42:25
38,"[{'imgObject': {}, 'id': 'rigatoni and sauce', 'src': '/static/foodstim60/rigatoni and sauce.jpg', 'key': 'u', 'origWidth': 410, 'origHeight': 411, 'width': 410, 'height': 411, 'widthPercent': 0.45, 'rescaleHeight': False, 'trialN': 38, 'loaded': True, 'loadedTime': 2167, 'positionName': 'LEFT', 'positionCoords': [511.6, 334.5], 'bid': 0.16}, {'imgObject': {}, 'id': 'hotdog w must', 'src': '/static/foodstim60/hotdog w must.jpg', 'key': 'i', 'origWidth': 409, 'origHeight': 409, 'width': 409, 'height': 409, 'widthPercent': 0.45, 'rescaleHeight': False, 'trialN': 38, 'loaded': True, 'loadedTime': 2214.5, 'positionName': 'RIGHT', 'positionCoords': [998.4, 335.5], 'bid': 0}]",68601.0,1669837110492,rigatoni and sauce,hotdog w must,0.16,0.0,-0.16,rigatoni and sauce,1545.5,1545,1545.7999999523163,True,u,70651.70000004768,2050.7000000476837,1669837112542,2050,HRV,HRV_0251,2022-11-30 19:42:25
39,"[{'imgObject': {}, 'id': 'turkey sandwich', 'src': '/static/foodstim60/turkey sandwich.jpg', 'key': 'u', 'origWidth': 409, 'origHeight': 409, 'width': 409, 'height': 409, 'widthPercent': 0.45, 'rescaleHeight': False, 'trialN': 39, 'loaded': True, 'loadedTime': 2246.5, 'positionName': 'LEFT', 'positionCoords': [512.6, 335.5], 'bid': 2.98}, {'imgObject': {}, 'id': 'burger', 'src': '/static/foodstim60/burger.jpg', 'key': 'i', 'origWidth': 409, 'origHeight': 409, 'width': 409, 'height': 409, 'widthPercent': 0.45, 'rescaleHeight': False, 'trialN': 39, 'loaded': True, 'loadedTime': 2181.0999999046326, 'positionName': 'RIGHT', 'positionCoords': [998.4, 335.5], 'bid': 2.86}]",70651.90000009537,1669837112542,turkey sandwich,burger,2.98,2.86,-0.1200000000000001,turkey sandwich,1895.1999998092651,1896,1895.5,True,u,73054.70000004768,2402.7999999523163,1669837114945,2403,HRV,HRV_0251,2022-11-30 19:42:25
40,"[{'imgObject': {}, 'id': 'kiwi', 'src': '/static/foodstim60/kiwi.jpg', 'key': 'u', 'origWidth': 410, 'origHeight': 410, 'width': 410, 'height': 410, 'widthPercent': 0.45, 'rescaleHeight': False, 'trialN': 40, 'loaded': True, 'loadedTime': 2086, 'positionName': 'LEFT', 'positionCoords': [511.6, 335], 'bid': 9.15}, {'imgObject': {}, 'id': 'veggieswithdip', 'src': '/static/foodstim60/veggieswithdip.jpg', 'key': 'i', 'origWidth': 409, 'origHeight': 409, 'width': 409, 'height': 409, 'widthPercent': 0.45, 'rescaleHeight': False, 'trialN': 40, 'loaded': True, 'loadedTime': 2246.5999999046326, 'positionName': 'RIGHT', 'positionCoords': [998.4, 335.5], 'bid': 5.69}]",73054.90000009537,1669837114945,kiwi,veggieswithdip,9.15,5.69,-3.46,kiwi,740.3999998569489,741,740.7999999523163,True,u,74301.90000009537,1247.0,1669837116192,1247,HRV,HRV_0251,2022-11-30 19:42:25
41,"[{'imgObject': {}, 'id': 'popsicles', 'src': '/static/foodstim60/popsicles.jpg', 'key': 'u', 'origWidth': 410, 'origHeight': 410, 'width': 410, 'height': 410, 'widthPercent': 0.45, 'rescaleHeight': False, 'trialN': 41, 'loaded': True, 'loadedTime': 2283.2999999523163, 'positionName': 'LEFT', 'positionCoords': [511.6, 335], 'bid': 0.22}, {'imgObject': {}, 'id': 'mac & cheese', 'src': '/static/foodstim60/mac & cheese.jpg', 'key': 'i', 'origWidth': 410, 'origHeight': 410, 'width': 410, 'height': 410, 'widthPercent': 0.45, 'rescaleHeight': False, 'trialN': 41, 'loaded': True, 'loadedTime': 2154.4000000953674, 'positionName': 'RIGHT', 'positionCoords': [998.4, 335], 'bid': 0}]",74301.90000009537,1669837116192,popsicles,mac & cheese,0.22,0.0,-0.22,popsicles,1445.5999999046326,1446,1446.0,True,u,76259.5,1957.5999999046326,1669837118150,1958,HRV,HRV_0251,2022-11-30 19:42:25
42,"[{'imgObject': {}, 'id': 'blueberries', 'src': '/static/foodstim60/blueberries.jpg', 'key': 'u', 'origWidth': 411, 'origHeight': 411, 'width': 411, 'height': 411, 'widthPercent': 0.45, 'rescaleHeight': False, 'trialN': 42, 'loaded': True, 'loadedTime': 1830.7999999523163, 'positionName': 'LEFT', 'positionCoords': [510.6, 334.5], 'bid': 7.390000000000001}, {'imgObject': {}, 'id': 'orange slices', 'src': '/static/foodstim60/orange slices.jpg', 'key': 'i', 'origWidth': 409, 'origHeight': 410, 'width': 409, 'height': 410, 'widthPercent': 0.45, 'rescaleHeight': False, 'trialN': 42, 'loaded': True, 'loadedTime': 1989.4000000953674, 'positionName': 'RIGHT', 'positionCoords': [998.4, 335], 'bid': 8.27}]",76259.70000004768,1669837118150,blueberries,orange slices,7.390000000000001,8.27,0.879999999999999,orange slices,663.2999999523163,664,663.7000000476837,True,i,77431.20000004768,1171.5,1669837119322,1172,HRV,HRV_0251,2022-11-30 19:42:25
43,"[{'imgObject': {}, 'id': 'turkey sandwich', 'src': '/static/foodstim60/turkey sandwich.jpg', 'key': 'u', 'origWidth': 409, 'origHeight': 409, 'width': 409, 'height': 409, 'widthPercent': 0.45, 'rescaleHeight': False, 'trialN': 43, 'loaded': True, 'loadedTime': 2246.4000000953674, 'positionName': 'LEFT', 'positionCoords': [512.6, 335.5], 'bid': 2.98}, {'imgObject': {}, 'id': 'mac & cheese', 'src': '/static/foodstim60/mac & cheese.jpg', 'key': 'i', 'origWidth': 410, 'origHeight': 410, 'width': 410, 'height': 410, 'widthPercent': 0.45, 'rescaleHeight': False, 'trialN': 43, 'loaded': True, 'loadedTime': 2159.2999999523163, 'positionName': 'RIGHT', 'positionCoords': [998.4, 335], 'bid': 0}]",77431.40000009537,1669837119322,turkey sandwich,mac & cheese,2.98,0.0,-2.98,turkey sandwich,1323.6999998092651,1324,1324.1999998092651,True,u,79268.70000004768,1837.2999999523163,1669837121159,1837,HRV,HRV_0251,2022-11-30 19:42:25
44,"[{'imgObject': {}, 'id': 'blackbeanswithrice', 'src': '/static/foodstim60/blackbeanswithrice.jpg', 'key': 'u', 'origWidth': 410, 'origHeight': 410, 'width': 410, 'height': 410, 'widthPercent': 0.45, 'rescaleHeight': False, 'trialN': 44, 'loaded': True, 'loadedTime': 2208.4000000953674, 'positionName': 'LEFT', 'positionCoords': [511.6, 335], 'bid': 5.03}, {'imgObject': {}, 'id': 'pear', 'src': '/static/foodstim60/pear.jpg', 'key': 'i', 'origWidth': 411, 'origHeight': 410, 'width': 411, 'height': 410, 'widthPercent': 0.45, 'rescaleHeight': False, 'trialN': 44, 'loaded': True, 'loadedTime': 2258.5, 'positionName': 'RIGHT', 'positionCoords': [998.4, 335], 'bid': 8.31}]",79268.79999995232,1669837121159,blackbeanswithrice,pear,5.03,8.31,3.2800000000000002,pear,614.4000000953674,615,614.7999999523163,True,i,80395.20000004768,1126.4000000953674,1669837122286,1127,HRV,HRV_0251,2022-11-30 19:42:25
45,"[{'imgObject': {}, 'id': 'Grapes', 'src': '/static/foodstim60/Grapes.jpg', 'key': 'u', 'origWidth': 411, 'origHeight': 411, 'width': 411, 'height': 411, 'widthPercent': 0.45, 'rescaleHeight': False, 'trialN': 45, 'loaded': True, 'loadedTime': 2259.7999999523163, 'positionName': 'LEFT', 'positionCoords': [510.6, 334.5], 'bid': 6.94}, {'imgObject': {}, 'id': 'fried eggs', 'src': '/static/foodstim60/fried eggs.jpg', 'key': 'i', 'origWidth': 410, 'origHeight': 410, 'width': 410, 'height': 410, 'widthPercent': 0.45, 'rescaleHeight': False, 'trialN': 45, 'loaded': True, 'loadedTime': 2219.9000000953674, 'positionName': 'RIGHT', 'positionCoords': [998.4, 335], 'bid': 3.1}]",80395.40000009537,1669837122286,Grapes,fried eggs,6.94,3.1,-3.8400000000000003,Grapes,735.5,736,735.7999999523163,True,u,81644.29999995232,1248.8999998569489,1669837123535,1249,HRV,HRV_0251,2022-11-30 19:42:25
46,"[{'imgObject': {}, 'id': 'olives', 'src': '/static/foodstim60/olives.jpg', 'key': 'u', 'origWidth': 410, 'origHeight': 410, 'width': 410, 'height': 410, 'widthPercent': 0.45, 'rescaleHeight': False, 'trialN': 46, 'loaded': True, 'loadedTime': 2097.9000000953674, 'positionName': 'LEFT', 'positionCoords': [511.6, 335], 'bid': 0.02}, {'imgObject': {}, 'id': 'eggsalad', 'src': '/static/foodstim60/eggsalad.jpg', 'key': 'i', 'origWidth': 410, 'origHeight': 409, 'width': 410, 'height': 409, 'widthPercent': 0.45, 'rescaleHeight': False, 'trialN': 46, 'loaded': True, 'loadedTime': 2260.7999999523163, 'positionName': 'RIGHT', 'positionCoords': [998.4, 335.5], 'bid': 0.26}]",81644.59999990463,1669837123535,olives,eggsalad,0.02,0.26,0.24000000000000002,eggsalad,814.1000001430511,814,814.3000001907349,True,i,82970.79999995232,1326.2000000476837,1669837124861,1326,HRV,HRV_0251,2022-11-30 19:42:25
47,"[{'imgObject': {}, 'id': 'rigatoni', 'src': '/static/foodstim60/rigatoni.jpg', 'key': 'u', 'origWidth': 411, 'origHeight': 411, 'width': 411, 'height': 411, 'widthPercent': 0.45, 'rescaleHeight': False, 'trialN': 47, 'loaded': True, 'loadedTime': 2122.2999999523163, 'positionName': 'LEFT', 'positionCoords': [510.6, 334.5], 'bid': 0.14}, {'imgObject': {}, 'id': 'sushi w_condiments', 'src': '/static/foodstim60/sushi w_condiments.jpg', 'key': 'i', 'origWidth': 410, 'origHeight': 410, 'width': 410, 'height': 410, 'widthPercent': 0.45, 'rescaleHeight': False, 'trialN': 47, 'loaded': True, 'loadedTime': 2161.5999999046326, 'positionName': 'RIGHT', 'positionCoords': [998.4, 335], 'bid': 0.13}]",82970.90000009537,1669837124861,rigatoni,sushi w_condiments,0.14,0.13,-0.010000000000000009,rigatoni,1648.2999999523163,1649,1648.5,True,u,85128.90000009537,2158.0,1669837127019,2158,HRV,HRV_0251,2022-11-30 19:42:25
48,"[{'imgObject': {}, 'id': 'edamame', 'src': '/static/foodstim60/edamame.jpg', 'key': 'u', 'origWidth': 409, 'origHeight': 410, 'width': 409, 'height': 410, 'widthPercent': 0.45, 'rescaleHeight': False, 'trialN': 48, 'loaded': True, 'loadedTime': 2163.9000000953674, 'positionName': 'LEFT', 'positionCoords': [512.6, 335], 'bid': 0.15}, {'imgObject': {}, 'id': 'baked potato', 'src': '/static/foodstim60/baked potato.jpg', 'key': 'i', 'origWidth': 409, 'origHeight': 410, 'width': 409, 'height': 410, 'widthPercent': 0.45, 'rescaleHeight': False, 'trialN': 48, 'loaded': True, 'loadedTime': 1963.4000000953674, 'positionName': 'RIGHT', 'positionCoords': [998.4, 335], 'bid': 4.29}]",85129.0,1669837127020,edamame,baked potato,0.15,4.29,4.14,baked potato,642.5,642,642.7999999523163,True,i,86286.79999995232,1157.7999999523163,1669837128177,1157,HRV,HRV_0251,2022-11-30 19:42:25
49,"[{'imgObject': {}, 'id': 'yogurt no spoon', 'src': '/static/foodstim60/yogurt no spoon.jpg', 'key': 'u', 'origWidth': 411, 'origHeight': 410, 'width': 411, 'height': 410, 'widthPercent': 0.45, 'rescaleHeight': False, 'trialN': 49, 'loaded': True, 'loadedTime': 2261.7999999523163, 'positionName': 'LEFT', 'positionCoords': [510.6, 335], 'bid': 8.57}, {'imgObject': {}, 'id': 'cocktailshrimp', 'src': '/static/foodstim60/cocktailshrimp.jpg', 'key': 'i', 'origWidth': 410, 'origHeight': 410, 'width': 410, 'height': 410, 'widthPercent': 0.45, 'rescaleHeight': False, 'trialN': 49, 'loaded': True, 'loadedTime': 2194.9000000953674, 'positionName': 'RIGHT', 'positionCoords': [998.4, 335], 'bid': 1.12}]",86286.90000009537,1669837128177,yogurt no spoon,cocktailshrimp,8.57,1.12,-7.45,yogurt no spoon,788.0999999046326,789,788.5999999046326,True,u,87582.59999990463,1295.6999998092651,1669837129473,1296,HRV,HRV_0251,2022-11-30 19:42:25
50,"[{'imgObject': {}, 'id': 'fruitsalad', 'src': '/static/foodstim60/fruitsalad.jpg', 'key': 'u', 'origWidth': 410, 'origHeight': 410, 'width': 410, 'height': 410, 'widthPercent': 0.45, 'rescaleHeight': False, 'trialN': 50, 'loaded': True, 'loadedTime': 2262.7999999523163, 'positionName': 'LEFT', 'positionCoords': [511.6, 335], 'bid': 9.73}, {'imgObject': {}, 'id': 'raspberries', 'src': '/static/foodstim60/raspberries.jpg', 'key': 'i', 'origWidth': 411, 'origHeight': 411, 'width': 411, 'height': 411, 'widthPercent': 0.45, 'rescaleHeight': False, 'trialN': 50, 'loaded': True, 'loadedTime': 1971.7999999523163, 'positionName': 'RIGHT', 'positionCoords': [998.4, 334.5], 'bid': 9.93}]",87582.79999995232,1669837129473,fruitsalad,raspberries,9.73,9.93,0.1999999999999993,raspberries,819.7999999523163,820,820.1000001430511,True,i,88904.20000004768,1321.4000000953674,1669837130795,1322,HRV,HRV_0251,2022-11-30 19:42:25
51,"[{'imgObject': {}, 'id': 'roastedpotatoes', 'src': '/static/foodstim60/roastedpotatoes.jpg', 'key': 'u', 'origWidth': 409, 'origHeight': 410, 'width': 409, 'height': 410, 'widthPercent': 0.45, 'rescaleHeight': False, 'trialN': 51, 'loaded': True, 'loadedTime': 2026.4000000953674, 'positionName': 'LEFT', 'positionCoords': [512.6, 335], 'bid': 4.48}, {'imgObject': {}, 'id': 'rigatoni and sauce', 'src': '/static/foodstim60/rigatoni and sauce.jpg', 'key': 'i', 'origWidth': 410, 'origHeight': 411, 'width': 410, 'height': 411, 'widthPercent': 0.45, 'rescaleHeight': False, 'trialN': 51, 'loaded': True, 'loadedTime': 2168.7999999523163, 'positionName': 'RIGHT', 'positionCoords': [998.4, 334.5], 'bid': 0.16}]",88904.29999995232,1669837130795,roastedpotatoes,rigatoni and sauce,4.48,0.16,-4.32,roastedpotatoes,970.7999999523163,971,971.1000001430511,True,u,90384.40000009537,1480.1000001430511,1669837132275,1480,HRV,HRV_0251,2022-11-30 19:42:25
52,"[{'imgObject': {}, 'id': 'tacos', 'src': '/static/foodstim60/tacos.jpg', 'key': 'u', 'origWidth': 411, 'origHeight': 411, 'width': 411, 'height': 411, 'widthPercent': 0.45, 'rescaleHeight': False, 'trialN': 52, 'loaded': True, 'loadedTime': 1946.2999999523163, 'positionName': 'LEFT', 'positionCoords': [510.6, 334.5], 'bid': 1.89}, {'imgObject': {}, 'id': 'chickenfingers', 'src': '/static/foodstim60/chickenfingers.jpg', 'key': 'i', 'origWidth': 410, 'origHeight': 410, 'width': 410, 'height': 410, 'widthPercent': 0.45, 'rescaleHeight': False, 'trialN': 52, 'loaded': True, 'loadedTime': 2041.2999999523163, 'positionName': 'RIGHT', 'positionCoords': [998.4, 335], 'bid': 1.61}]",90384.5,1669837132275,tacos,chickenfingers,1.89,1.61,-0.2799999999999998,chickenfingers,1066.2000000476837,1067,1066.4000000953674,True,i,91968.70000004768,1584.2000000476837,1669837133859,1584,HRV,HRV_0251,2022-11-30 19:42:25
53,"[{'imgObject': {}, 'id': 'omelette', 'src': '/static/foodstim60/omelette.jpg', 'key': 'u', 'origWidth': 410, 'origHeight': 409, 'width': 410, 'height': 409, 'widthPercent': 0.45, 'rescaleHeight': False, 'trialN': 53, 'loaded': True, 'loadedTime': 2116, 'positionName': 'LEFT', 'positionCoords': [511.6, 335.5], 'bid': 3.3200000000000003}, {'imgObject': {}, 'id': 'cocktailshrimp', 'src': '/static/foodstim60/cocktailshrimp.jpg', 'key': 'i', 'origWidth': 410, 'origHeight': 410, 'width': 410, 'height': 410, 'widthPercent': 0.45, 'rescaleHeight': False, 'trialN': 53, 'loaded': True, 'loadedTime': 2200.0999999046326, 'positionName': 'RIGHT', 'positionCoords': [998.4, 335], 'bid': 1.12}]",91968.79999995232,1669837133859,omelette,cocktailshrimp,3.3200000000000003,1.12,-2.2,omelette,818.2000000476837,819,818.6000001430511,True,u,93296.0,1327.2000000476837,1669837135187,1328,HRV,HRV_0251,2022-11-30 19:42:25
54,"[{'imgObject': {}, 'id': 'apple slices', 'src': '/static/foodstim60/apple slices.jpg', 'key': 'u', 'origWidth': 409, 'origHeight': 410, 'width': 409, 'height': 410, 'widthPercent': 0.45, 'rescaleHeight': False, 'trialN': 54, 'loaded': True, 'loadedTime': 2237.4000000953674, 'positionName': 'LEFT', 'positionCoords': [512.6, 335], 'bid': 7.36}, {'imgObject': {}, 'id': 'omelette', 'src': '/static/foodstim60/omelette.jpg', 'key': 'i', 'origWidth': 410, 'origHeight': 409, 'width': 410, 'height': 409, 'widthPercent': 0.45, 'rescaleHeight': False, 'trialN': 54, 'loaded': True, 'loadedTime': 2115.2000000476837, 'positionName': 'RIGHT', 'positionCoords': [998.4, 335.5], 'bid': 3.3200000000000003}]",93296.09999990463,1669837135187,apple slices,omelette,7.36,3.3200000000000003,-4.04,apple slices,707.2000000476837,707,707.5,True,u,94512.20000004768,1216.1000001430511,1669837136403,1216,HRV,HRV_0251,2022-11-30 19:42:25
55,"[{'imgObject': {}, 'id': 'avocado', 'src': '/static/foodstim60/avocado.jpg', 'key': 'u', 'origWidth': 409, 'origHeight': 409, 'width': 409, 'height': 409, 'widthPercent': 0.45, 'rescaleHeight': False, 'trialN': 55, 'loaded': True, 'loadedTime': 2189, 'positionName': 'LEFT', 'positionCoords': [512.6, 335.5], 'bid': 0.91}, {'imgObject': {}, 'id': 'edamame', 'src': '/static/foodstim60/edamame.jpg', 'key': 'i', 'origWidth': 409, 'origHeight': 410, 'width': 409, 'height': 410, 'widthPercent': 0.45, 'rescaleHeight': False, 'trialN': 55, 'loaded': True, 'loadedTime': 2165.4000000953674, 'positionName': 'RIGHT', 'positionCoords': [998.4, 335], 'bid': 0.15}]",94512.29999995232,1669837136403,avocado,edamame,0.91,0.15,-0.76,avocado,1315.1000001430511,1315,1315.4000000953674,True,u,96344.70000004768,1832.4000000953674,1669837138235,1832,HRV,HRV_0251,2022-11-30 19:42:25
56,"[{'imgObject': {}, 'id': 'hotdog w must', 'src': '/static/foodstim60/hotdog w must.jpg', 'key': 'u', 'origWidth': 409, 'origHeight': 409, 'width': 409, 'height': 409, 'widthPercent': 0.45, 'rescaleHeight': False, 'trialN': 56, 'loaded': True, 'loadedTime': 2214.5, 'positionName': 'LEFT', 'positionCoords': [512.6, 335.5], 'bid': 0}, {'imgObject': {}, 'id': 'granola w milk', 'src': '/static/foodstim60/granola w milk.jpg', 'key': 'i', 'origWidth': 410, 'origHeight': 410, 'width': 410, 'height': 410, 'widthPercent': 0.45, 'rescaleHeight': False, 'trialN': 56, 'loaded': True, 'loadedTime': 2096.7000000476837, 'positionName': 'RIGHT', 'positionCoords': [998.4, 335], 'bid': 0.11}]",96344.79999995232,1669837138235,hotdog w must,granola w milk,0.0,0.11,0.11,granola w milk,698.2999999523163,699,698.7999999523163,True,i,97546.29999995232,1201.5,1669837139437,1202,HRV,HRV_0251,2022-11-30 19:42:25
57,"[{'imgObject': {}, 'id': 'mango', 'src': '/static/foodstim60/mango.jpg', 'key': 'u', 'origWidth': 411, 'origHeight': 411, 'width': 411, 'height': 411, 'widthPercent': 0.45, 'rescaleHeight': False, 'trialN': 57, 'loaded': True, 'loadedTime': 2174.9000000953674, 'positionName': 'LEFT', 'positionCoords': [510.6, 334.5], 'bid': 7.03}, {'imgObject': {}, 'id': 'veggieswithdip', 'src': '/static/foodstim60/veggieswithdip.jpg', 'key': 'i', 'origWidth': 409, 'origHeight': 409, 'width': 409, 'height': 409, 'widthPercent': 0.45, 'rescaleHeight': False, 'trialN': 57, 'loaded': True, 'loadedTime': 2247.5999999046326, 'positionName': 'RIGHT', 'positionCoords': [998.4, 335.5], 'bid': 5.69}]",97546.40000009537,1669837139437,mango,veggieswithdip,7.03,5.69,-1.3399999999999999,mango,944.2999999523163,944,944.5,True,u,98996.70000004768,1450.2999999523163,1669837140887,1450,HRV,HRV_0251,2022-11-30 19:42:25
58,"[{'imgObject': {}, 'id': 'rigatoni', 'src': '/static/foodstim60/rigatoni.jpg', 'key': 'u', 'origWidth': 411, 'origHeight': 411, 'width': 411, 'height': 411, 'widthPercent': 0.45, 'rescaleHeight': False, 'trialN': 58, 'loaded': True, 'loadedTime': 2121.4000000953674, 'positionName': 'LEFT', 'positionCoords': [510.6, 334.5], 'bid': 0.14}, {'imgObject': {}, 'id': 'bagel plain', 'src': '/static/foodstim60/bagel plain.jpg', 'key': 'i', 'origWidth': 410, 'origHeight': 410, 'width': 410, 'height': 410, 'widthPercent': 0.45, 'rescaleHeight': False, 'trialN': 58, 'loaded': True, 'loadedTime': 2110.4000000953674, 'positionName': 'RIGHT', 'positionCoords': [998.4, 335], 'bid': 4.28}]",98996.90000009537,1669837140887,rigatoni,bagel plain,0.14,4.28,4.140000000000001,bagel plain,1086.0,1087,1086.5,True,i,100596.59999990463,1599.6999998092651,1669837142487,1600,HRV,HRV_0251,2022-11-30 19:42:25
59,"[{'imgObject': {}, 'id': 'fried eggs', 'src': '/static/foodstim60/fried eggs.jpg', 'key': 'u', 'origWidth': 410, 'origHeight': 410, 'width': 410, 'height': 410, 'widthPercent': 0.45, 'rescaleHeight': False, 'trialN': 59, 'loaded': True, 'loadedTime': 2220.2000000476837, 'positionName': 'LEFT', 'positionCoords': [511.6, 335], 'bid': 3.1}, {'imgObject': {}, 'id': 'turkey sandwich', 'src': '/static/foodstim60/turkey sandwich.jpg', 'key': 'i', 'origWidth': 409, 'origHeight': 409, 'width': 409, 'height': 409, 'widthPercent': 0.45, 'rescaleHeight': False, 'trialN': 59, 'loaded': True, 'loadedTime': 2246.5, 'positionName': 'RIGHT', 'positionCoords': [998.4, 335.5], 'bid': 2.98}]",100596.79999995232,1669837142487,fried eggs,turkey sandwich,3.1,2.98,-0.1200000000000001,fried eggs,973.9000000953674,974,974.1000001430511,True,u,102076.79999995232,1480.0,1669837143967,1480,HRV,HRV_0251,2022-11-30 19:42:25
60,"[{'imgObject': {}, 'id': 'cheerios', 'src': '/static/foodstim60/cheerios.jpg', 'key': 'u', 'origWidth': 409, 'origHeight': 410, 'width': 409, 'height': 410, 'widthPercent': 0.45, 'rescaleHeight': False, 'trialN': 60, 'loaded': True, 'loadedTime': 2148, 'positionName': 'LEFT', 'positionCoords': [512.6, 335], 'bid': 0.34}, {'imgObject': {}, 'id': 'rigatoni', 'src': '/static/foodstim60/rigatoni.jpg', 'key': 'i', 'origWidth': 411, 'origHeight': 411, 'width': 411, 'height': 411, 'widthPercent': 0.45, 'rescaleHeight': False, 'trialN': 60, 'loaded': True, 'loadedTime': 2128.5999999046326, 'positionName': 'RIGHT', 'positionCoords': [998.4, 334.5], 'bid': 0.14}]",102077.0,1669837143968,cheerios,rigatoni,0.34,0.14,-0.2,cheerios,2222.0999999046326,2222,2222.5,True,u,104806.0,2729.0,1669837146697,2729,HRV,HRV_0251,2022-11-30 19:42:25
61,"[{'imgObject': {}, 'id': 'seaweed', 'src': '/static/foodstim60/seaweed.jpg', 'key': 'u', 'origWidth': 410, 'origHeight': 410, 'width': 410, 'height': 410, 'widthPercent': 0.45, 'rescaleHeight': False, 'trialN': 61, 'loaded': True, 'loadedTime': 2201.4000000953674, 'positionName': 'LEFT', 'positionCoords': [511.6, 335], 'bid': 0.16}, {'imgObject': {}, 'id': 'cherry tomato', 'src': '/static/foodstim60/cherry tomato.jpg', 'key': 'i', 'origWidth': 410, 'origHeight': 410, 'width': 410, 'height': 410, 'widthPercent': 0.45, 'rescaleHeight': False, 'trialN': 61, 'loaded': True, 'loadedTime': 2268.9000000953674, 'positionName': 'RIGHT', 'positionCoords': [998.4, 335], 'bid': 0.23}]",104806.09999990463,1669837146697,seaweed,cherry tomato,0.16,0.23,0.07,cherry tomato,1621.4000000953674,1622,1621.9000000953674,True,i,106945.40000009537,2139.300000190735,1669837148836,2139,HRV,HRV_0251,2022-11-30 19:42:25
62,"[{'imgObject': {}, 'id': 'bagel and cc', 'src': '/static/foodstim60/bagel and cc.jpg', 'key': 'u', 'origWidth': 410, 'origHeight': 410, 'width': 410, 'height': 410, 'widthPercent': 0.45, 'rescaleHeight': False, 'trialN': 62, 'loaded': True, 'loadedTime': 2066.5, 'positionName': 'LEFT', 'positionCoords': [511.6, 335], 'bid': 4.54}, {'imgObject': {}, 'id': 'popsicles', 'src': '/static/foodstim60/popsicles.jpg', 'key': 'i', 'origWidth': 410, 'origHeight': 410, 'width': 410, 'height': 410, 'widthPercent': 0.45, 'rescaleHeight': False, 'trialN': 62, 'loaded': True, 'loadedTime': 2283.5, 'positionName': 'RIGHT', 'positionCoords': [998.4, 335], 'bid': 0.22}]",106945.40000009537,1669837148836,bagel and cc,popsicles,4.54,0.22,-4.32,popsicles,921.3999998569489,922,921.6999998092651,True,i,108377.90000009537,1432.5,1669837150268,1432,HRV,HRV_0251,2022-11-30 19:42:25
63,"[{'imgObject': {}, 'id': 'salmon', 'src': '/static/foodstim60/salmon.jpg', 'key': 'u', 'origWidth': 410, 'origHeight': 409, 'width': 410, 'height': 409, 'widthPercent': 0.45, 'rescaleHeight': False, 'trialN': 63, 'loaded': True, 'loadedTime': 2270.0999999046326, 'positionName': 'LEFT', 'positionCoords': [511.6, 335.5], 'bid': 0.93}, {'imgObject': {}, 'id': 'pear', 'src': '/static/foodstim60/pear.jpg', 'key': 'i', 'origWidth': 411, 'origHeight': 410, 'width': 411, 'height': 410, 'widthPercent': 0.45, 'rescaleHeight': False, 'trialN': 63, 'loaded': True, 'loadedTime': 2254.0999999046326, 'positionName': 'RIGHT', 'positionCoords': [998.4, 335], 'bid': 8.31}]",108378.0,1669837150269,salmon,pear,0.93,8.31,7.380000000000001,pear,793.0,793,793.5,True,i,109688.90000009537,1310.9000000953674,1669837151579,1310,HRV,HRV_0251,2022-11-30 19:42:25
64,"[{'imgObject': {}, 'id': 'ice cream sundae 002', 'src': '/static/foodstim60/ice cream sundae 002.jpg', 'key': 'u', 'origWidth': 409, 'origHeight': 409, 'width': 409, 'height': 409, 'widthPercent': 0.45, 'rescaleHeight': False, 'trialN': 64, 'loaded': True, 'loadedTime': 2226.5, 'positionName': 'LEFT', 'positionCoords': [512.6, 335.5], 'bid': 4.51}, {'imgObject': {}, 'id': 'corn cob', 'src': '/static/foodstim60/corn cob.jpg', 'key': 'i', 'origWidth': 411, 'origHeight': 411, 'width': 411, 'height': 411, 'widthPercent': 0.45, 'rescaleHeight': False, 'trialN': 64, 'loaded': True, 'loadedTime': 2271.2000000476837, 'positionName': 'RIGHT', 'positionCoords': [998.4, 334.5], 'bid': 0.16}]",109689.09999990463,1669837151580,ice cream sundae 002,corn cob,4.51,0.16,-4.35,ice cream sundae 002,641.5,641,641.7000000476837,True,u,110845.59999990463,1156.5,1669837152736,1156,HRV,HRV_0251,2022-11-30 19:42:25
65,"[{'imgObject': {}, 'id': 'eggs', 'src': '/static/foodstim60/eggs.jpg', 'key': 'u', 'origWidth': 409, 'origHeight': 409, 'width': 409, 'height': 409, 'widthPercent': 0.45, 'rescaleHeight': False, 'trialN': 65, 'loaded': True, 'loadedTime': 2073.4000000953674, 'positionName': 'LEFT', 'positionCoords': [512.6, 335.5], 'bid': 5.38}, {'imgObject': {}, 'id': 'shreddedwheatwithmilk', 'src': '/static/foodstim60/shreddedwheatwithmilk.jpg', 'key': 'i', 'origWidth': 410, 'origHeight': 410, 'width': 410, 'height': 410, 'widthPercent': 0.45, 'rescaleHeight': False, 'trialN': 65, 'loaded': True, 'loadedTime': 2238.7999999523163, 'positionName': 'RIGHT', 'positionCoords': [998.4, 335], 'bid': 0.29}]",110845.79999995232,1669837152736,eggs,shreddedwheatwithmilk,5.38,0.29,-5.09,eggs,941.2000000476837,942,941.5,True,u,112292.79999995232,1447.0,1669837154183,1447,HRV,HRV_0251,2022-11-30 19:42:25
66,"[{'imgObject': {}, 'id': 'cantaloupe', 'src': '/static/foodstim60/cantaloupe.jpg', 'key': 'u', 'origWidth': 409, 'origHeight': 409, 'width': 409, 'height': 409, 'widthPercent': 0.45, 'rescaleHeight': False, 'trialN': 66, 'loaded': True, 'loadedTime': 2024.0999999046326, 'positionName': 'LEFT', 'positionCoords': [512.6, 335.5], 'bid': 9.22}, {'imgObject': {}, 'id': 'Grapes', 'src': '/static/foodstim60/Grapes.jpg', 'key': 'i', 'origWidth': 411, 'origHeight': 411, 'width': 411, 'height': 411, 'widthPercent': 0.45, 'rescaleHeight': False, 'trialN': 66, 'loaded': True, 'loadedTime': 2259.7000000476837, 'positionName': 'RIGHT', 'positionCoords': [998.4, 334.5], 'bid': 6.94}]",112293.0,1669837154184,cantaloupe,Grapes,9.22,6.94,-2.2800000000000002,cantaloupe,1998.2000000476837,1998,1998.5,True,u,114804.40000009537,2511.4000000953674,1669837156695,2511,HRV,HRV_0251,2022-11-30 19:42:25
67,"[{'imgObject': {}, 'id': 'froot loops w milk', 'src': '/static/foodstim60/froot loops w milk.jpg', 'key': 'u', 'origWidth': 410, 'origHeight': 410, 'width': 410, 'height': 410, 'widthPercent': 0.45, 'rescaleHeight': False, 'trialN': 67, 'loaded': True, 'loadedTime': 2276.7999999523163, 'positionName': 'LEFT', 'positionCoords': [511.6, 335], 'bid': 0.36}, {'imgObject': {}, 'id': 'hotdog w must', 'src': '/static/foodstim60/hotdog w must.jpg', 'key': 'i', 'origWidth': 409, 'origHeight': 409, 'width': 409, 'height': 409, 'widthPercent': 0.45, 'rescaleHeight': False, 'trialN': 67, 'loaded': True, 'loadedTime': 2214.7000000476837, 'positionName': 'RIGHT', 'positionCoords': [998.4, 335.5], 'bid': 0}]",114804.59999990463,1669837156695,froot loops w milk,hotdog w must,0.36,0.0,-0.36,froot loops w milk,1382.3000001907349,1383,1382.5,True,u,116696.29999995232,1891.7000000476837,1669837158587,1892,HRV,HRV_0251,2022-11-30 19:42:25
68,"[{'imgObject': {}, 'id': 'raisin bran w milk', 'src': '/static/foodstim60/raisin bran w milk.jpg', 'key': 'u', 'origWidth': 411, 'origHeight': 411, 'width': 411, 'height': 411, 'widthPercent': 0.45, 'rescaleHeight': False, 'trialN': 68, 'loaded': True, 'loadedTime': 2277.7999999523163, 'positionName': 'LEFT', 'positionCoords': [510.6, 334.5], 'bid': 0.26}, {'imgObject': {}, 'id': 'cheerios', 'src': '/static/foodstim60/cheerios.jpg', 'key': 'i', 'origWidth': 409, 'origHeight': 410, 'width': 409, 'height': 410, 'widthPercent': 0.45, 'rescaleHeight': False, 'trialN': 68, 'loaded': True, 'loadedTime': 2141.5, 'positionName': 'RIGHT', 'positionCoords': [998.4, 335], 'bid': 0.34}]",116696.5,1669837158587,raisin bran w milk,cheerios,0.26,0.34,0.08000000000000002,cheerios,714.5999999046326,715,714.7999999523163,True,i,117927.29999995232,1230.7999999523163,1669837159818,1231,HRV,HRV_0251,2022-11-30 19:42:25
69,"[{'imgObject': {}, 'id': 'sweetpotato', 'src': '/static/foodstim60/sweetpotato.jpg', 'key': 'u', 'origWidth': 410, 'origHeight': 410, 'width': 410, 'height': 410, 'widthPercent': 0.45, 'rescaleHeight': False, 'trialN': 69, 'loaded': True, 'loadedTime': 2033.7999999523163, 'positionName': 'LEFT', 'positionCoords': [511.6, 335], 'bid': 4.95}, {'imgObject': {}, 'id': 'bagel and cc', 'src': '/static/foodstim60/bagel and cc.jpg', 'key': 'i', 'origWidth': 410, 'origHeight': 410, 'width': 410, 'height': 410, 'widthPercent': 0.45, 'rescaleHeight': False, 'trialN': 69, 'loaded': True, 'loadedTime': 2068.5999999046326, 'positionName': 'RIGHT', 'positionCoords': [998.4, 335], 'bid': 4.54}]",117927.5,1669837159818,sweetpotato,bagel and cc,4.95,4.54,-0.41000000000000014,sweetpotato,1019.0999999046326,1019,1019.4000000953674,True,u,119454.70000004768,1527.2000000476837,1669837161345,1527,HRV,HRV_0251,2022-11-30 19:42:25
70,"[{'imgObject': {}, 'id': 'kiwi', 'src': '/static/foodstim60/kiwi.jpg', 'key': 'u', 'origWidth': 410, 'origHeight': 410, 'width': 410, 'height': 410, 'widthPercent': 0.45, 'rescaleHeight': False, 'trialN': 70, 'loaded': True, 'loadedTime': 2086.0999999046326, 'positionName': 'LEFT', 'positionCoords': [511.6, 335], 'bid': 9.15}, {'imgObject': {}, 'id': 'blueberries', 'src': '/static/foodstim60/blueberries.jpg', 'key': 'i', 'origWidth': 411, 'origHeight': 411, 'width': 411, 'height': 411, 'widthPercent': 0.45, 'rescaleHeight': False, 'trialN': 70, 'loaded': True, 'loadedTime': 1928.2000000476837, 'positionName': 'RIGHT', 'positionCoords': [998.4, 334.5], 'bid': 7.390000000000001}]",119454.79999995232,1669837161345,kiwi,blueberries,9.15,7.390000000000001,-1.7599999999999998,kiwi,1796.2999999523163,1797,1796.7000000476837,True,u,121763.40000009537,2308.600000143051,1669837163654,2309,HRV,HRV_0251,2022-11-30 19:42:25
71,"[{'imgObject': {}, 'id': 'strawberries', 'src': '/static/foodstim60/strawberries.jpg', 'key': 'u', 'origWidth': 410, 'origHeight': 410, 'width': 410, 'height': 410, 'widthPercent': 0.45, 'rescaleHeight': False, 'trialN': 71, 'loaded': True, 'loadedTime': 2000.7999999523163, 'positionName': 'LEFT', 'positionCoords': [511.6, 335], 'bid': 9.56}, {'imgObject': {}, 'id': 'orange slices', 'src': '/static/foodstim60/orange slices.jpg', 'key': 'i', 'origWidth': 409, 'origHeight': 410, 'width': 409, 'height': 410, 'widthPercent': 0.45, 'rescaleHeight': False, 'trialN': 71, 'loaded': True, 'loadedTime': 1990.2000000476837, 'positionName': 'RIGHT', 'positionCoords': [998.4, 335], 'bid': 8.27}]",121763.5,1669837163654,strawberries,orange slices,9.56,8.27,-1.290000000000001,strawberries,719.2000000476837,719,719.4000000953674,True,u,122995.0,1231.5,1669837164886,1232,HRV,HRV_0251,2022-11-30 19:42:25
72,"[{'imgObject': {}, 'id': 'popsicles', 'src': '/static/foodstim60/popsicles.jpg', 'key': 'u', 'origWidth': 410, 'origHeight': 410, 'width': 410, 'height': 410, 'widthPercent': 0.45, 'rescaleHeight': False, 'trialN': 72, 'loaded': True, 'loadedTime': 2282.7000000476837, 'positionName': 'LEFT', 'positionCoords': [511.6, 335], 'bid': 0.22}, {'imgObject': {}, 'id': 'cherry tomato', 'src': '/static/foodstim60/cherry tomato.jpg', 'key': 'i', 'origWidth': 410, 'origHeight': 410, 'width': 410, 'height': 410, 'widthPercent': 0.45, 'rescaleHeight': False, 'trialN': 72, 'loaded': True, 'loadedTime': 2263.7000000476837, 'positionName': 'RIGHT', 'positionCoords': [998.4, 335], 'bid': 0.23}]",122995.20000004768,1669837164886,popsicles,cherry tomato,0.22,0.23,0.010000000000000009,cherry tomato,735.8999998569489,736,736.2000000476837,True,i,124244.09999990463,1248.8999998569489,1669837166135,1249,HRV,HRV_0251,2022-11-30 19:42:25
73,"[{'imgObject': {}, 'id': 'hashbrowns', 'src': '/static/foodstim60/hashbrowns.jpg', 'key': 'u', 'origWidth': 411, 'origHeight': 410, 'width': 411, 'height': 410, 'widthPercent': 0.45, 'rescaleHeight': False, 'trialN': 73, 'loaded': True, 'loadedTime': 2278, 'positionName': 'LEFT', 'positionCoords': [510.6, 335], 'bid': 0.37}, {'imgObject': {}, 'id': 'olives', 'src': '/static/foodstim60/olives.jpg', 'key': 'i', 'origWidth': 410, 'origHeight': 410, 'width': 410, 'height': 410, 'widthPercent': 0.45, 'rescaleHeight': False, 'trialN': 73, 'loaded': True, 'loadedTime': 2097.0999999046326, 'positionName': 'RIGHT', 'positionCoords': [998.4, 335], 'bid': 0.02}]",124244.29999995232,1669837166135,hashbrowns,olives,0.37,0.02,-0.35,hashbrowns,1046.7000000476837,1047,1047.0,True,u,125801.40000009537,1557.1000001430511,1669837167692,1557,HRV,HRV_0251,2022-11-30 19:42:25
74,"[{'imgObject': {}, 'id': 'kiwi', 'src': '/static/foodstim60/kiwi.jpg', 'key': 'u', 'origWidth': 410, 'origHeight': 410, 'width': 410, 'height': 410, 'widthPercent': 0.45, 'rescaleHeight': False, 'trialN': 74, 'loaded': True, 'loadedTime': 2086.2000000476837, 'positionName': 'LEFT', 'positionCoords': [511.6, 335], 'bid': 9.15}, {'imgObject': {}, 'id': 'yogurt no spoon', 'src': '/static/foodstim60/yogurt no spoon.jpg', 'key': 'i', 'origWidth': 411, 'origHeight': 410, 'width': 411, 'height': 410, 'widthPercent': 0.45, 'rescaleHeight': False, 'trialN': 74, 'loaded': True, 'loadedTime': 2261.7000000476837, 'positionName': 'RIGHT', 'positionCoords': [998.4, 335], 'bid': 8.57}]",125801.5,1669837167692,kiwi,yogurt no spoon,9.15,8.57,-0.5800000000000001,kiwi,1489.4000000953674,1490,1489.5999999046326,True,u,127805.20000004768,2003.7000000476837,1669837169696,2004,HRV,HRV_0251,2022-11-30 19:42:25
75,"[{'imgObject': {}, 'id': 'eggsalad', 'src': '/static/foodstim60/eggsalad.jpg', 'key': 'u', 'origWidth': 410, 'origHeight': 409, 'width': 410, 'height': 409, 'widthPercent': 0.45, 'rescaleHeight': False, 'trialN': 75, 'loaded': True, 'loadedTime': 2260.7000000476837, 'positionName': 'LEFT', 'positionCoords': [511.6, 335.5], 'bid': 0.26}, {'imgObject': {}, 'id': 'shreddedwheatwithmilk', 'src': '/static/foodstim60/shreddedwheatwithmilk.jpg', 'key': 'i', 'origWidth': 410, 'origHeight': 410, 'width': 410, 'height': 410, 'widthPercent': 0.45, 'rescaleHeight': False, 'trialN': 75, 'loaded': True, 'loadedTime': 2239.5, 'positionName': 'RIGHT', 'positionCoords': [998.4, 335], 'bid': 0.29}]",127805.40000009537,1669837169696,eggsalad,shreddedwheatwithmilk,0.26,0.29,0.02999999999999997,shreddedwheatwithmilk,1021.7999999523163,1022,1022.0,True,i,129344.59999990463,1539.1999998092651,1669837171235,1539,HRV,HRV_0251,2022-11-30 19:42:25
76,"[{'imgObject': {}, 'id': 'blackbeanswithrice', 'src': '/static/foodstim60/blackbeanswithrice.jpg', 'key': 'u', 'origWidth': 410, 'origHeight': 410, 'width': 410, 'height': 410, 'widthPercent': 0.45, 'rescaleHeight': False, 'trialN': 76, 'loaded': True, 'loadedTime': 2208.5, 'positionName': 'LEFT', 'positionCoords': [511.6, 335], 'bid': 5.03}, {'imgObject': {}, 'id': 'eggsalad', 'src': '/static/foodstim60/eggsalad.jpg', 'key': 'i', 'origWidth': 410, 'origHeight': 409, 'width': 410, 'height': 409, 'widthPercent': 0.45, 'rescaleHeight': False, 'trialN': 76, 'loaded': True, 'loadedTime': 2260.5999999046326, 'positionName': 'RIGHT', 'positionCoords': [998.4, 335.5], 'bid': 0.26}]",129344.79999995232,1669837171235,blackbeanswithrice,eggsalad,5.03,0.26,-4.7700000000000005,eggsalad,706.5,707,706.9000000953674,True,i,130562.20000004768,1217.4000000953674,1669837172453,1218,HRV,HRV_0251,2022-11-30 19:42:25
77,"[{'imgObject': {}, 'id': 'eggsalad', 'src': '/static/foodstim60/eggsalad.jpg', 'key': 'u', 'origWidth': 410, 'origHeight': 409, 'width': 410, 'height': 409, 'widthPercent': 0.45, 'rescaleHeight': False, 'trialN': 77, 'loaded': True, 'loadedTime': 2260.7999999523163, 'positionName': 'LEFT', 'positionCoords': [511.6, 335.5], 'bid': 0.26}, {'imgObject': {}, 'id': 'raisin bran w milk', 'src': '/static/foodstim60/raisin bran w milk.jpg', 'key': 'i', 'origWidth': 411, 'origHeight': 411, 'width': 411, 'height': 411, 'widthPercent': 0.45, 'rescaleHeight': False, 'trialN': 77, 'loaded': True, 'loadedTime': 2277.7000000476837, 'positionName': 'RIGHT', 'positionCoords': [998.4, 334.5], 'bid': 0.26}]",130562.29999995232,1669837172453,eggsalad,raisin bran w milk,0.26,0.26,0.0,eggsalad,640.6000001430511,641,640.9000000953674,True,u,131709.40000009537,1147.1000001430511,1669837173600,1147,HRV,HRV_0251,2022-11-30 19:42:25
78,"[{'imgObject': {}, 'id': 'tacos', 'src': '/static/foodstim60/tacos.jpg', 'key': 'u', 'origWidth': 411, 'origHeight': 411, 'width': 411, 'height': 411, 'widthPercent': 0.45, 'rescaleHeight': False, 'trialN': 78, 'loaded': True, 'loadedTime': 1946.7000000476837, 'positionName': 'LEFT', 'positionCoords': [510.6, 334.5], 'bid': 1.89}, {'imgObject': {}, 'id': 'cantaloupe', 'src': '/static/foodstim60/cantaloupe.jpg', 'key': 'i', 'origWidth': 409, 'origHeight': 409, 'width': 409, 'height': 409, 'widthPercent': 0.45, 'rescaleHeight': False, 'trialN': 78, 'loaded': True, 'loadedTime': 2023.9000000953674, 'positionName': 'RIGHT', 'positionCoords': [998.4, 335.5], 'bid': 9.22}]",131709.5,1669837173600,tacos,cantaloupe,1.89,9.22,7.330000000000001,cantaloupe,629.9000000953674,630,630.0999999046326,True,i,132856.59999990463,1147.0999999046326,1669837174747,1147,HRV,HRV_0251,2022-11-30 19:42:25
79,"[{'imgObject': {}, 'id': 'bagel and cc', 'src': '/static/foodstim60/bagel and cc.jpg', 'key': 'u', 'origWidth': 410, 'origHeight': 410, 'width': 410, 'height': 410, 'widthPercent': 0.45, 'rescaleHeight': False, 'trialN': 79, 'loaded': True, 'loadedTime': 2068.5999999046326, 'positionName': 'LEFT', 'positionCoords': [511.6, 335], 'bid': 4.54}, {'imgObject': {}, 'id': 'blackbeanswithrice', 'src': '/static/foodstim60/blackbeanswithrice.jpg', 'key': 'i', 'origWidth': 410, 'origHeight': 410, 'width': 410, 'height': 410, 'widthPercent': 0.45, 'rescaleHeight': False, 'trialN': 79, 'loaded': True, 'loadedTime': 2208.2999999523163, 'positionName': 'RIGHT', 'positionCoords': [998.4, 335], 'bid': 5.03}]",132856.79999995232,1669837174747,bagel and cc,blackbeanswithrice,4.54,5.03,0.4900000000000002,bagel and cc,1450.1000001430511,1451,1450.4000000953674,True,u,134813.40000009537,1956.6000001430511,1669837176704,1957,HRV,HRV_0251,2022-11-30 19:42:25
80,"[{'imgObject': {}, 'id': 'corn cob', 'src': '/static/foodstim60/corn cob.jpg', 'key': 'u', 'origWidth': 411, 'origHeight': 411, 'width': 411, 'height': 411, 'widthPercent': 0.45, 'rescaleHeight': False, 'trialN': 80, 'loaded': True, 'loadedTime': 2271, 'positionName': 'LEFT', 'positionCoords': [510.6, 334.5], 'bid': 0.16}, {'imgObject': {}, 'id': 'seaweed', 'src': '/static/foodstim60/seaweed.jpg', 'key': 'i', 'origWidth': 410, 'origHeight': 410, 'width': 410, 'height': 410, 'widthPercent': 0.45, 'rescaleHeight': False, 'trialN': 80, 'loaded': True, 'loadedTime': 2201.2000000476837, 'positionName': 'RIGHT', 'positionCoords': [998.4, 335], 'bid': 0.16}]",134813.5,1669837176704,corn cob,seaweed,0.16,0.16,0.0,corn cob,2261.5999999046326,2262,2261.9000000953674,True,u,137580.90000009537,2767.4000000953674,1669837179471,2767,HRV,HRV_0251,2022-11-30 19:42:25
81,"[{'imgObject': {}, 'id': 'apple slices', 'src': '/static/foodstim60/apple slices.jpg', 'key': 'u', 'origWidth': 409, 'origHeight': 410, 'width': 409, 'height': 410, 'widthPercent': 0.45, 'rescaleHeight': False, 'trialN': 81, 'loaded': True, 'loadedTime': 2232.4000000953674, 'positionName': 'LEFT', 'positionCoords': [512.6, 335], 'bid': 7.36}, {'imgObject': {}, 'id': 'fruitsalad', 'src': '/static/foodstim60/fruitsalad.jpg', 'key': 'i', 'origWidth': 410, 'origHeight': 410, 'width': 410, 'height': 410, 'widthPercent': 0.45, 'rescaleHeight': False, 'trialN': 81, 'loaded': True, 'loadedTime': 2262.7000000476837, 'positionName': 'RIGHT', 'positionCoords': [998.4, 335], 'bid': 9.73}]",137581.0,1669837179472,apple slices,fruitsalad,7.36,9.73,2.37,fruitsalad,909.7000000476837,909,909.9000000953674,True,i,138996.90000009537,1415.9000000953674,1669837180888,1416,HRV,HRV_0251,2022-11-30 19:42:25
82,"[{'imgObject': {}, 'id': 'mango', 'src': '/static/foodstim60/mango.jpg', 'key': 'u', 'origWidth': 411, 'origHeight': 411, 'width': 411, 'height': 411, 'widthPercent': 0.45, 'rescaleHeight': False, 'trialN': 82, 'loaded': True, 'loadedTime': 2169, 'positionName': 'LEFT', 'positionCoords': [510.6, 334.5], 'bid': 7.03}, {'imgObject': {}, 'id': 'turkeysandwich', 'src': '/static/foodstim60/turkeysandwich.jpg', 'key': 'i', 'origWidth': 409, 'origHeight': 409, 'width': 409, 'height': 409, 'widthPercent': 0.45, 'rescaleHeight': False, 'trialN': 82, 'loaded': True, 'loadedTime': 2279, 'positionName': 'RIGHT', 'positionCoords': [998.4, 335.5], 'bid': 3.13}]",138997.20000004768,1669837180888,mango,turkeysandwich,7.03,3.13,-3.9000000000000004,mango,790.2999999523163,790,790.5999999046326,True,u,140291.20000004768,1294.0,1669837182182,1294,HRV,HRV_0251,2022-11-30 19:42:25
83,"[{'imgObject': {}, 'id': 'luckycharms', 'src': '/static/foodstim60/luckycharms.jpg', 'key': 'u', 'origWidth': 410, 'origHeight': 409, 'width': 410, 'height': 409, 'widthPercent': 0.45, 'rescaleHeight': False, 'trialN': 83, 'loaded': True, 'loadedTime': 2070.9000000953674, 'positionName': 'LEFT', 'positionCoords': [511.6, 335.5], 'bid': 0.43}, {'imgObject': {}, 'id': 'froot loops w milk', 'src': '/static/foodstim60/froot loops w milk.jpg', 'key': 'i', 'origWidth': 410, 'origHeight': 410, 'width': 410, 'height': 410, 'widthPercent': 0.45, 'rescaleHeight': False, 'trialN': 83, 'loaded': True, 'loadedTime': 2275.7999999523163, 'positionName': 'RIGHT', 'positionCoords': [998.4, 335], 'bid': 0.36}]",140291.29999995232,1669837182182,luckycharms,froot loops w milk,0.43,0.36,-0.07,froot loops w milk,1560.0,1560,1560.4000000953674,True,i,142355.09999990463,2063.7999999523163,1669837184246,2064,HRV,HRV_0251,2022-11-30 19:42:25
84,"[{'imgObject': {}, 'id': 'eggsalad', 'src': '/static/foodstim60/eggsalad.jpg', 'key': 'u', 'origWidth': 410, 'origHeight': 409, 'width': 410, 'height': 409, 'widthPercent': 0.45, 'rescaleHeight': False, 'trialN': 84, 'loaded': True, 'loadedTime': 2260.7000000476837, 'positionName': 'LEFT', 'positionCoords': [511.6, 335.5], 'bid': 0.26}, {'imgObject': {}, 'id': 'luckycharms', 'src': '/static/foodstim60/luckycharms.jpg', 'key': 'i', 'origWidth': 410, 'origHeight': 409, 'width': 410, 'height': 409, 'widthPercent': 0.45, 'rescaleHeight': False, 'trialN': 84, 'loaded': True, 'loadedTime': 2070.7000000476837, 'positionName': 'RIGHT', 'positionCoords': [998.4, 335.5], 'bid': 0.43}]",142355.20000004768,1669837184246,eggsalad,luckycharms,0.26,0.43,0.16999999999999998,eggsalad,1263.5,1264,1263.7999999523163,True,u,144128.59999990463,1773.3999998569489,1669837186019,1773,HRV,HRV_0251,2022-11-30 19:42:25
85,"[{'imgObject': {}, 'id': 'banana', 'src': '/static/foodstim60/banana.jpg', 'key': 'u', 'origWidth': 410, 'origHeight': 410, 'width': 410, 'height': 410, 'widthPercent': 0.45, 'rescaleHeight': False, 'trialN': 85, 'loaded': True, 'loadedTime': 2238.7000000476837, 'positionName': 'LEFT', 'positionCoords': [511.6, 335], 'bid': 8.91}, {'imgObject': {}, 'id': 'eggs', 'src': '/static/foodstim60/eggs.jpg', 'key': 'i', 'origWidth': 409, 'origHeight': 409, 'width': 409, 'height': 409, 'widthPercent': 0.45, 'rescaleHeight': False, 'trialN': 85, 'loaded': True, 'loadedTime': 2080.0999999046326, 'positionName': 'RIGHT', 'positionCoords': [998.4, 335.5], 'bid': 5.38}]",144128.79999995232,1669837186019,banana,eggs,8.91,5.38,-3.5300000000000002,banana,650.2999999523163,651,650.7999999523163,True,u,145283.29999995232,1154.5,1669837187174,1155,HRV,HRV_0251,2022-11-30 19:42:25
86,"[{'imgObject': {}, 'id': 'burger', 'src': '/static/foodstim60/burger.jpg', 'key': 'u', 'origWidth': 409, 'origHeight': 409, 'width': 409, 'height': 409, 'widthPercent': 0.45, 'rescaleHeight': False, 'trialN': 86, 'loaded': True, 'loadedTime': 2175.0999999046326, 'positionName': 'LEFT', 'positionCoords': [512.6, 335.5], 'bid': 2.86}, {'imgObject': {}, 'id': 'grilled chicken strips', 'src': '/static/foodstim60/grilled chicken strips.jpg', 'key': 'i', 'origWidth': 410, 'origHeight': 411, 'width': 410, 'height': 411, 'widthPercent': 0.45, 'rescaleHeight': False, 'trialN': 86, 'loaded': True, 'loadedTime': 2280, 'positionName': 'RIGHT', 'positionCoords': [998.4, 334.5], 'bid': 2.97}]",145283.5,1669837187174,burger,grilled chicken strips,2.86,2.97,0.11000000000000032,grilled chicken strips,1311.2999999523163,1312,1311.5,True,i,147102.29999995232,1818.7999999523163,1669837188993,1819,HRV,HRV_0251,2022-11-30 19:42:25
87,"[{'imgObject': {}, 'id': 'baked potato', 'src': '/static/foodstim60/baked potato.jpg', 'key': 'u', 'origWidth': 409, 'origHeight': 410, 'width': 409, 'height': 410, 'widthPercent': 0.45, 'rescaleHeight': False, 'trialN': 87, 'loaded': True, 'loadedTime': 1971.5, 'positionName': 'LEFT', 'positionCoords': [512.6, 335], 'bid': 4.29}, {'imgObject': {}, 'id': 'ice cream sundae 002', 'src': '/static/foodstim60/ice cream sundae 002.jpg', 'key': 'i', 'origWidth': 409, 'origHeight': 409, 'width': 409, 'height': 409, 'widthPercent': 0.45, 'rescaleHeight': False, 'trialN': 87, 'loaded': True, 'loadedTime': 2226.2999999523163, 'positionName': 'RIGHT', 'positionCoords': [998.4, 335.5], 'bid': 4.51}]",147102.40000009537,1669837188993,baked potato,ice cream sundae 002,4.29,4.51,0.21999999999999975,baked potato,2428.399999856949,2429,2428.5,True,u,150041.29999995232,2938.899999856949,1669837191932,2939,HRV,HRV_0251,2022-11-30 19:42:25
88,"[{'imgObject': {}, 'id': 'burrito', 'src': '/static/foodstim60/burrito.jpg', 'key': 'u', 'origWidth': 410, 'origHeight': 410, 'width': 410, 'height': 410, 'widthPercent': 0.45, 'rescaleHeight': False, 'trialN': 88, 'loaded': True, 'loadedTime': 2140.5999999046326, 'positionName': 'LEFT', 'positionCoords': [511.6, 335], 'bid': 0.8300000000000001}, {'imgObject': {}, 'id': 'cherries', 'src': '/static/foodstim60/cherries.jpg', 'key': 'i', 'origWidth': 410, 'origHeight': 411, 'width': 410, 'height': 411, 'widthPercent': 0.45, 'rescaleHeight': False, 'trialN': 88, 'loaded': True, 'loadedTime': 2001, 'positionName': 'RIGHT', 'positionCoords': [998.4, 334.5], 'bid': 8.03}]",150041.5,1669837191932,burrito,cherries,0.8300000000000001,8.03,7.199999999999999,cherries,722.0999999046326,723,722.4000000953674,True,i,151274.09999990463,1232.5999999046326,1669837193165,1233,HRV,HRV_0251,2022-11-30 19:42:25
89,"[{'imgObject': {}, 'id': 'pear', 'src': '/static/foodstim60/pear.jpg', 'key': 'u', 'origWidth': 411, 'origHeight': 410, 'width': 411, 'height': 410, 'widthPercent': 0.45, 'rescaleHeight': False, 'trialN': 89, 'loaded': True, 'loadedTime': 2253.9000000953674, 'positionName': 'LEFT', 'positionCoords': [510.6, 335], 'bid': 8.31}, {'imgObject': {}, 'id': 'banana', 'src': '/static/foodstim60/banana.jpg', 'key': 'i', 'origWidth': 410, 'origHeight': 410, 'width': 410, 'height': 410, 'widthPercent': 0.45, 'rescaleHeight': False, 'trialN': 89, 'loaded': True, 'loadedTime': 2238.5, 'positionName': 'RIGHT', 'positionCoords': [998.4, 335], 'bid': 8.91}]",151274.20000004768,1669837193165,pear,banana,8.31,8.91,0.5999999999999996,banana,1184.7000000476837,1185,1184.7999999523163,True,i,152968.59999990463,1694.3999998569489,1669837194859,1694,HRV,HRV_0251,2022-11-30 19:42:25
90,"[{'imgObject': {}, 'id': 'chickenfingers', 'src': '/static/foodstim60/chickenfingers.jpg', 'key': 'u', 'origWidth': 410, 'origHeight': 410, 'width': 410, 'height': 410, 'widthPercent': 0.45, 'rescaleHeight': False, 'trialN': 90, 'loaded': True, 'loadedTime': 2046.2999999523163, 'positionName': 'LEFT', 'positionCoords': [511.6, 335], 'bid': 1.61}, {'imgObject': {}, 'id': 'mashed potato', 'src': '/static/foodstim60/mashed potato.jpg', 'key': 'i', 'origWidth': 409, 'origHeight': 409, 'width': 409, 'height': 409, 'widthPercent': 0.45, 'rescaleHeight': False, 'trialN': 90, 'loaded': True, 'loadedTime': 2163.7000000476837, 'positionName': 'RIGHT', 'positionCoords': [998.4, 335.5], 'bid': 3.72}]",166354.79999995232,1669837208246,chickenfingers,mashed potato,1.61,3.72,2.1100000000000003,chickenfingers,1120.4000000953674,1120,1120.7000000476837,True,u,167984.0,1629.2000000476837,1669837209875,1629,HRV,HRV_0251,2022-11-30 19:42:25
91,"[{'imgObject': {}, 'id': 'eggsalad', 'src': '/static/foodstim60/eggsalad.jpg', 'key': 'u', 'origWidth': 410, 'origHeight': 409, 'width': 410, 'height': 409, 'widthPercent': 0.45, 'rescaleHeight': False, 'trialN': 91, 'loaded': True, 'loadedTime': 2260, 'positionName': 'LEFT', 'positionCoords': [511.6, 335.5], 'bid': 0.26}, {'imgObject': {}, 'id': 'lox', 'src': '/static/foodstim60/lox.jpg', 'key': 'i', 'origWidth': 410, 'origHeight': 411, 'width': 410, 'height': 411, 'widthPercent': 0.45, 'rescaleHeight': False, 'trialN': 91, 'loaded': True, 'loadedTime': 2016.2000000476837, 'positionName': 'RIGHT', 'positionCoords': [998.4, 334.5], 'bid': 2.41}]",167984.20000004768,1669837209875,eggsalad,lox,0.26,2.41,2.1500000000000004,eggsalad,955.0,955,955.5,True,u,169446.0,1461.7999999523163,1669837211337,1462,HRV,HRV_0251,2022-11-30 19:42:25
92,"[{'imgObject': {}, 'id': 'chickenfingers', 'src': '/static/foodstim60/chickenfingers.jpg', 'key': 'u', 'origWidth': 410, 'origHeight': 410, 'width': 410, 'height': 410, 'widthPercent': 0.45, 'rescaleHeight': False, 'trialN': 92, 'loaded': True, 'loadedTime': 2046.5999999046326, 'positionName': 'LEFT', 'positionCoords': [511.6, 335], 'bid': 1.61}, {'imgObject': {}, 'id': 'banana', 'src': '/static/foodstim60/banana.jpg', 'key': 'i', 'origWidth': 410, 'origHeight': 410, 'width': 410, 'height': 410, 'widthPercent': 0.45, 'rescaleHeight': False, 'trialN': 92, 'loaded': True, 'loadedTime': 2238.5999999046326, 'positionName': 'RIGHT', 'positionCoords': [998.4, 335], 'bid': 8.91}]",169446.20000004768,1669837211337,chickenfingers,banana,1.61,8.91,7.3,banana,628.7000000476837,629,628.8999998569489,True,i,170584.90000009537,1138.7000000476837,1669837212476,1139,HRV,HRV_0251,2022-11-30 19:42:25
93,"[{'imgObject': {}, 'id': 'froot loops w milk', 'src': '/static/foodstim60/froot loops w milk.jpg', 'key': 'u', 'origWidth': 410, 'origHeight': 410, 'width': 410, 'height': 410, 'widthPercent': 0.45, 'rescaleHeight': False, 'trialN': 93, 'loaded': True, 'loadedTime': 2276.5999999046326, 'positionName': 'LEFT', 'positionCoords': [511.6, 335], 'bid': 0.36}, {'imgObject': {}, 'id': 'hashbrowns', 'src': '/static/foodstim60/hashbrowns.jpg', 'key': 'i', 'origWidth': 411, 'origHeight': 410, 'width': 411, 'height': 410, 'widthPercent': 0.45, 'rescaleHeight': False, 'trialN': 93, 'loaded': True, 'loadedTime': 2278.7000000476837, 'positionName': 'RIGHT', 'positionCoords': [998.4, 335], 'bid': 0.37}]",170585.09999990463,1669837212476,froot loops w milk,hashbrowns,0.36,0.37,0.010000000000000009,froot loops w milk,762.2000000476837,762,762.5,True,u,171860.59999990463,1275.5,1669837213751,1275,HRV,HRV_0251,2022-11-30 19:42:25
94,"[{'imgObject': {}, 'id': 'cherries', 'src': '/static/foodstim60/cherries.jpg', 'key': 'u', 'origWidth': 410, 'origHeight': 411, 'width': 410, 'height': 411, 'widthPercent': 0.45, 'rescaleHeight': False, 'trialN': 94, 'loaded': True, 'loadedTime': 2001.7999999523163, 'positionName': 'LEFT', 'positionCoords': [511.6, 334.5], 'bid': 8.03}, {'imgObject': {}, 'id': 'bagel and cc', 'src': '/static/foodstim60/bagel and cc.jpg', 'key': 'i', 'origWidth': 410, 'origHeight': 410, 'width': 410, 'height': 410, 'widthPercent': 0.45, 'rescaleHeight': False, 'trialN': 94, 'loaded': True, 'loadedTime': 2068.5, 'positionName': 'RIGHT', 'positionCoords': [998.4, 335], 'bid': 4.54}]",171860.70000004768,1669837213751,cherries,bagel and cc,8.03,4.54,-3.4899999999999993,cherries,534.3999998569489,535,534.5999999046326,True,u,172906.20000004768,1045.5,1669837214797,1046,HRV,HRV_0251,2022-11-30 19:42:25
95,"[{'imgObject': {}, 'id': 'fried eggs', 'src': '/static/foodstim60/fried eggs.jpg', 'key': 'u', 'origWidth': 410, 'origHeight': 410, 'width': 410, 'height': 410, 'widthPercent': 0.45, 'rescaleHeight': False, 'trialN': 95, 'loaded': True, 'loadedTime': 2220.0999999046326, 'positionName': 'LEFT', 'positionCoords': [511.6, 335], 'bid': 3.1}, {'imgObject': {}, 'id': 'chicken nuggets2', 'src': '/static/foodstim60/chicken nuggets2.jpg', 'key': 'i', 'origWidth': 410, 'origHeight': 409, 'width': 410, 'height': 409, 'widthPercent': 0.45, 'rescaleHeight': False, 'trialN': 95, 'loaded': True, 'loadedTime': 2054.0999999046326, 'positionName': 'RIGHT', 'positionCoords': [998.4, 335.5], 'bid': 1.66}]",172906.29999995232,1669837214797,fried eggs,chicken nuggets2,3.1,1.66,-1.4400000000000002,fried eggs,624.4000000953674,625,624.6000001430511,True,u,174048.40000009537,1142.1000001430511,1669837215939,1142,HRV,HRV_0251,2022-11-30 19:42:25
96,"[{'imgObject': {}, 'id': 'granola w milk', 'src': '/static/foodstim60/granola w milk.jpg', 'key': 'u', 'origWidth': 410, 'origHeight': 410, 'width': 410, 'height': 410, 'widthPercent': 0.45, 'rescaleHeight': False, 'trialN': 96, 'loaded': True, 'loadedTime': 2091.2000000476837, 'positionName': 'LEFT', 'positionCoords': [511.6, 335], 'bid': 0.11}, {'imgObject': {}, 'id': 'omelette', 'src': '/static/foodstim60/omelette.jpg', 'key': 'i', 'origWidth': 410, 'origHeight': 409, 'width': 410, 'height': 409, 'widthPercent': 0.45, 'rescaleHeight': False, 'trialN': 96, 'loaded': True, 'loadedTime': 2121, 'positionName': 'RIGHT', 'positionCoords': [998.4, 335.5], 'bid': 3.3200000000000003}]",174048.5,1669837215939,granola w milk,omelette,0.11,3.3200000000000003,3.2100000000000004,omelette,658.4000000953674,659,658.5999999046326,True,i,175218.09999990463,1169.5999999046326,1669837217109,1170,HRV,HRV_0251,2022-11-30 19:42:25
97,"[{'imgObject': {}, 'id': 'turkeysandwich', 'src': '/static/foodstim60/turkeysandwich.jpg', 'key': 'u', 'origWidth': 409, 'origHeight': 409, 'width': 409, 'height': 409, 'widthPercent': 0.45, 'rescaleHeight': False, 'trialN': 97, 'loaded': True, 'loadedTime': 2279.7999999523163, 'positionName': 'LEFT', 'positionCoords': [512.6, 335.5], 'bid': 3.13}, {'imgObject': {}, 'id': 'mashed potato', 'src': '/static/foodstim60/mashed potato.jpg', 'key': 'i', 'origWidth': 409, 'origHeight': 409, 'width': 409, 'height': 409, 'widthPercent': 0.45, 'rescaleHeight': False, 'trialN': 97, 'loaded': True, 'loadedTime': 2163.2999999523163, 'positionName': 'RIGHT', 'positionCoords': [998.4, 335.5], 'bid': 3.72}]",175218.29999995232,1669837217109,turkeysandwich,mashed potato,3.13,3.72,0.5900000000000003,mashed potato,1265.2000000476837,1265,1265.4000000953674,True,i,176989.40000009537,1771.1000001430511,1669837218880,1771,HRV,HRV_0251,2022-11-30 19:42:25
98,"[{'imgObject': {}, 'id': 'salad w chicken', 'src': '/static/foodstim60/salad w chicken.jpg', 'key': 'u', 'origWidth': 411, 'origHeight': 411, 'width': 411, 'height': 411, 'widthPercent': 0.45, 'rescaleHeight': False, 'trialN': 98, 'loaded': True, 'loadedTime': 2281, 'positionName': 'LEFT', 'positionCoords': [510.6, 334.5], 'bid': 4.54}, {'imgObject': {}, 'id': 'veggieswithdip', 'src': '/static/foodstim60/veggieswithdip.jpg', 'key': 'i', 'origWidth': 409, 'origHeight': 409, 'width': 409, 'height': 409, 'widthPercent': 0.45, 'rescaleHeight': False, 'trialN': 98, 'loaded': True, 'loadedTime': 2247.5999999046326, 'positionName': 'RIGHT', 'positionCoords': [998.4, 335.5], 'bid': 5.69}]",176989.59999990463,1669837218880,salad w chicken,veggieswithdip,4.54,5.69,1.1500000000000004,veggieswithdip,677.7000000476837,678,678.1000001430511,True,i,178174.09999990463,1184.5,1669837220065,1185,HRV,HRV_0251,2022-11-30 19:42:25
99,"[{'imgObject': {}, 'id': 'orange slices', 'src': '/static/foodstim60/orange slices.jpg', 'key': 'u', 'origWidth': 409, 'origHeight': 410, 'width': 409, 'height': 410, 'widthPercent': 0.45, 'rescaleHeight': False, 'trialN': 99, 'loaded': True, 'loadedTime': 1983, 'positionName': 'LEFT', 'positionCoords': [512.6, 335], 'bid': 8.27}, {'imgObject': {}, 'id': 'avocado', 'src': '/static/foodstim60/avocado.jpg', 'key': 'i', 'origWidth': 409, 'origHeight': 409, 'width': 409, 'height': 409, 'widthPercent': 0.45, 'rescaleHeight': False, 'trialN': 99, 'loaded': True, 'loadedTime': 2188.7000000476837, 'positionName': 'RIGHT', 'positionCoords': [998.4, 335.5], 'bid': 0.91}]",178174.29999995232,1669837220065,orange slices,avocado,8.27,0.91,-7.359999999999999,orange slices,620.6000001430511,621,620.7000000476837,True,u,179313.0,1138.7000000476837,1669837221204,1139,HRV,HRV_0251,2022-11-30 19:42:25
100,"[{'imgObject': {}, 'id': 'hashbrowns', 'src': '/static/foodstim60/hashbrowns.jpg', 'key': 'u', 'origWidth': 411, 'origHeight': 410, 'width': 411, 'height': 410, 'widthPercent': 0.45, 'rescaleHeight': False, 'trialN': 100, 'loaded': True, 'loadedTime': 2278.7000000476837, 'positionName': 'LEFT', 'positionCoords': [510.6, 335], 'bid': 0.37}, {'imgObject': {}, 'id': 'rigatoni and sauce', 'src': '/static/foodstim60/rigatoni and sauce.jpg', 'key': 'i', 'origWidth': 410, 'origHeight': 411, 'width': 410, 'height': 411, 'widthPercent': 0.45, 'rescaleHeight': False, 'trialN': 100, 'loaded': True, 'loadedTime': 2165.7999999523163, 'positionName': 'RIGHT', 'positionCoords': [998.4, 334.5], 'bid': 0.16}]",179313.0,1669837221204,hashbrowns,rigatoni and sauce,0.37,0.16,-0.21,hashbrowns,1393.7000000476837,1394,1394.0,True,u,181225.40000009537,1912.4000000953674,1669837223116,1912,HRV,HRV_0251,2022-11-30 19:42:25
101,"[{'imgObject': {}, 'id': 'mashed potato', 'src': '/static/foodstim60/mashed potato.jpg', 'key': 'u', 'origWidth': 409, 'origHeight': 409, 'width': 409, 'height': 409, 'widthPercent': 0.45, 'rescaleHeight': False, 'trialN': 101, 'loaded': True, 'loadedTime': 2163.7999999523163, 'positionName': 'LEFT', 'positionCoords': [512.6, 335.5], 'bid': 3.72}, {'imgObject': {}, 'id': 'bagel plain', 'src': '/static/foodstim60/bagel plain.jpg', 'key': 'i', 'origWidth': 410, 'origHeight': 410, 'width': 410, 'height': 410, 'widthPercent': 0.45, 'rescaleHeight': False, 'trialN': 101, 'loaded': True, 'loadedTime': 2114.9000000953674, 'positionName': 'RIGHT', 'positionCoords': [998.4, 335], 'bid': 4.28}]",181225.59999990463,1669837223116,mashed potato,bagel plain,3.72,4.28,0.56,bagel plain,721.3000001907349,722,721.7000000476837,True,i,182457.20000004768,1231.6000001430511,1669837224348,1232,HRV,HRV_0251,2022-11-30 19:42:25
102,"[{'imgObject': {}, 'id': 'turkey sandwich', 'src': '/static/foodstim60/turkey sandwich.jpg', 'key': 'u', 'origWidth': 409, 'origHeight': 409, 'width': 409, 'height': 409, 'widthPercent': 0.45, 'rescaleHeight': False, 'trialN': 102, 'loaded': True, 'loadedTime': 2245.5, 'positionName': 'LEFT', 'positionCoords': [512.6, 335.5], 'bid': 2.98}, {'imgObject': {}, 'id': 'burrito', 'src': '/static/foodstim60/burrito.jpg', 'key': 'i', 'origWidth': 410, 'origHeight': 410, 'width': 410, 'height': 410, 'widthPercent': 0.45, 'rescaleHeight': False, 'trialN': 102, 'loaded': True, 'loadedTime': 2134.9000000953674, 'positionName': 'RIGHT', 'positionCoords': [998.4, 335], 'bid': 0.8300000000000001}]",182457.29999995232,1669837224348,turkey sandwich,burrito,2.98,0.8300000000000001,-2.15,turkey sandwich,713.7000000476837,714,714.1000001430511,True,u,183689.79999995232,1232.5,1669837225581,1233,HRV,HRV_0251,2022-11-30 19:42:25
103,"[{'imgObject': {}, 'id': 'steak', 'src': '/static/foodstim60/steak.jpg', 'key': 'u', 'origWidth': 410, 'origHeight': 410, 'width': 410, 'height': 410, 'widthPercent': 0.45, 'rescaleHeight': False, 'trialN': 103, 'loaded': True, 'loadedTime': 2065.5, 'positionName': 'LEFT', 'positionCoords': [511.6, 335], 'bid': 0.59}, {'imgObject': {}, 'id': 'raisin bran w milk', 'src': '/static/foodstim60/raisin bran w milk.jpg', 'key': 'i', 'origWidth': 411, 'origHeight': 411, 'width': 411, 'height': 411, 'widthPercent': 0.45, 'rescaleHeight': False, 'trialN': 103, 'loaded': True, 'loadedTime': 2278, 'positionName': 'RIGHT', 'positionCoords': [998.4, 334.5], 'bid': 0.26}]",183689.90000009537,1669837225581,steak,raisin bran w milk,0.59,0.26,-0.32999999999999996,raisin bran w milk,841.2999999523163,841,841.6999998092651,True,i,185048.59999990463,1358.6999998092651,1669837226939,1358,HRV,HRV_0251,2022-11-30 19:42:25
104,"[{'imgObject': {}, 'id': 'chicken nuggets2', 'src': '/static/foodstim60/chicken nuggets2.jpg', 'key': 'u', 'origWidth': 410, 'origHeight': 409, 'width': 410, 'height': 409, 'widthPercent': 0.45, 'rescaleHeight': False, 'trialN': 104, 'loaded': True, 'loadedTime': 2053.7999999523163, 'positionName': 'LEFT', 'positionCoords': [511.6, 335.5], 'bid': 1.66}, {'imgObject': {}, 'id': 'kiwi', 'src': '/static/foodstim60/kiwi.jpg', 'key': 'i', 'origWidth': 410, 'origHeight': 410, 'width': 410, 'height': 410, 'widthPercent': 0.45, 'rescaleHeight': False, 'trialN': 104, 'loaded': True, 'loadedTime': 2085.5999999046326, 'positionName': 'RIGHT', 'positionCoords': [998.4, 335], 'bid': 9.15}]",185048.70000004768,1669837226939,chicken nuggets2,kiwi,1.66,9.15,7.49,kiwi,714.0999999046326,715,714.2999999523163,True,i,186267.59999990463,1218.8999998569489,1669837228158,1219,HRV,HRV_0251,2022-11-30 19:42:25
105,"[{'imgObject': {}, 'id': 'Grapes', 'src': '/static/foodstim60/Grapes.jpg', 'key': 'u', 'origWidth': 411, 'origHeight': 411, 'width': 411, 'height': 411, 'widthPercent': 0.45, 'rescaleHeight': False, 'trialN': 105, 'loaded': True, 'loadedTime': 2259.9000000953674, 'positionName': 'LEFT', 'positionCoords': [510.6, 334.5], 'bid': 6.94}, {'imgObject': {}, 'id': 'eggs', 'src': '/static/foodstim60/eggs.jpg', 'key': 'i', 'origWidth': 409, 'origHeight': 409, 'width': 409, 'height': 409, 'widthPercent': 0.45, 'rescaleHeight': False, 'trialN': 105, 'loaded': True, 'loadedTime': 2080, 'positionName': 'RIGHT', 'positionCoords': [998.4, 335.5], 'bid': 5.38}]",186267.70000004768,1669837228158,Grapes,eggs,6.94,5.38,-1.5600000000000005,Grapes,639.2999999523163,640,639.5,True,u,187421.29999995232,1153.5999999046326,1669837229312,1154,HRV,HRV_0251,2022-11-30 19:42:25
106,"[{'imgObject': {}, 'id': 'strawberries', 'src': '/static/foodstim60/strawberries.jpg', 'key': 'u', 'origWidth': 410, 'origHeight': 410, 'width': 410, 'height': 410, 'widthPercent': 0.45, 'rescaleHeight': False, 'trialN': 106, 'loaded': True, 'loadedTime': 1994.7999999523163, 'positionName': 'LEFT', 'positionCoords': [511.6, 335], 'bid': 9.56}, {'imgObject': {}, 'id': 'blackbeanswithrice', 'src': '/static/foodstim60/blackbeanswithrice.jpg', 'key': 'i', 'origWidth': 410, 'origHeight': 410, 'width': 410, 'height': 410, 'widthPercent': 0.45, 'rescaleHeight': False, 'trialN': 106, 'loaded': True, 'loadedTime': 2207.5, 'positionName': 'RIGHT', 'positionCoords': [998.4, 335], 'bid': 5.03}]",187421.5,1669837229312,strawberries,blackbeanswithrice,9.56,5.03,-4.53,strawberries,629.7999999523163,630,630.0999999046326,True,u,188560.5,1139.0,1669837230451,1139,HRV,HRV_0251,2022-11-30 19:42:25
107,"[{'imgObject': {}, 'id': 'bagel plain', 'src': '/static/foodstim60/bagel plain.jpg', 'key': 'u', 'origWidth': 410, 'origHeight': 410, 'width': 410, 'height': 410, 'widthPercent': 0.45, 'rescaleHeight': False, 'trialN': 107, 'loaded': True, 'loadedTime': 2110.5, 'positionName': 'LEFT', 'positionCoords': [511.6, 335], 'bid': 4.28}, {'imgObject': {}, 'id': 'cherries', 'src': '/static/foodstim60/cherries.jpg', 'key': 'i', 'origWidth': 410, 'origHeight': 411, 'width': 410, 'height': 411, 'widthPercent': 0.45, 'rescaleHeight': False, 'trialN': 107, 'loaded': True, 'loadedTime': 2008.7999999523163, 'positionName': 'RIGHT', 'positionCoords': [998.4, 334.5], 'bid': 8.03}]",188560.70000004768,1669837230451,bagel plain,cherries,4.28,8.03,3.749999999999999,cherries,466.2000000476837,467,466.5,True,i,189531.79999995232,971.0999999046326,1669837231423,972,HRV,HRV_0251,2022-11-30 19:42:25
108,"[{'imgObject': {}, 'id': 'seaweed', 'src': '/static/foodstim60/seaweed.jpg', 'key': 'u', 'origWidth': 410, 'origHeight': 410, 'width': 410, 'height': 410, 'widthPercent': 0.45, 'rescaleHeight': False, 'trialN': 108, 'loaded': True, 'loadedTime': 2200.2000000476837, 'positionName': 'LEFT', 'positionCoords': [511.6, 335], 'bid': 0.16}, {'imgObject': {}, 'id': 'steak', 'src': '/static/foodstim60/steak.jpg', 'key': 'i', 'origWidth': 410, 'origHeight': 410, 'width': 410, 'height': 410, 'widthPercent': 0.45, 'rescaleHeight': False, 'trialN': 108, 'loaded': True, 'loadedTime': 2059.7000000476837, 'positionName': 'RIGHT', 'positionCoords': [998.4, 335], 'bid': 0.59}]",189532.0,1669837231423,seaweed,steak,0.16,0.59,0.42999999999999994,steak,735.4000000953674,735,735.5999999046326,True,i,190779.20000004768,1247.2000000476837,1669837232670,1247,HRV,HRV_0251,2022-11-30 19:42:25
