success,trial_type,trial_index,time_elapsed,internal_node_id,Block,TrialNumber,TrialTime,trialTimeDiff,FPS_avg,FPS_med,FPS_mode,TrialDur,winResizeTime,rt,block,button_pressed,MotCoh,MotDir,ColCoh,Color,ChoiceKey,Choice,Accuracy,RT,nFrames,FPS,PPD,missTrial,missTrialMsg,onsetDelay,fullScreenExitTime,canvCenter,TrialType,Score,BlockTrial,stimulus,button_labels,exp,subjectId,date
True,fullscreen,0,2123,0.0-0.0,0.0,1.0,,,,,,,,,,,,,,,,,,,,,,,,,,,,,,,,HRV,HRV_0251,2022-11-30 19:54:17
,wl-check-fps,1,7119,0.0-1.0,0.0,2.0,"[4054.6, 4063.8, 4080.6, 4097.2, 4113.8, 4130.6, 4147.2, 4163.9, 4180.5, 4197.2, 4213.8, 4247.4, 4247.7, 4263.8, 4280.5, 4297.2, 4313.9, 4330.5, 4347.2, 4363.8, 4380.6, 4397.2, 4413.9, 4430.5, 4447.1, 4463.8, 4480.5, 4497.2, 4513.9, 4530.5, 4547.2, 4563.9, 4580.5, 4597.2, 4613.8, 4630.6, 4647.2, 4663.8, 4680.7, 4697.3, 4713.9, 4730.5, 4747.1, 4763.8, 4780.5, 4797.2, 4814.1, 4830.6, 4847.1, 4863.8, 4880.5, 4897.1, 4913.8, 4930.4, 4947.2, 4963.8, 4980.5, 4997.1, 5013.8, 5030.5, 5047, 5063.8, 5080.4, 5097.1, 5113.8, 5130.4, 5147.1, 5163.8, 5180.5, 5197.1, 5213.9, 5230.6, 5247.2, 5263.9, 5280.5, 5297.4, 5313.8, 5330.4, 5347.2, 5363.8, 5380.5, 5397.2, 5413.8, 5430.5, 5447.1, 5463.8, 5480.5, 5497.2, 5513.8, 5530.4, 5547.2, 5563.8, 5580.5, 5597.2, 5613.8, 5630.4, 5647.1, 5663.8, 5680.4, 5697.1, 5713.7, 5730.5, 5747.1, 5763.8, 5780.6, 5797.1, 5813.8, 5830.4, 5847.1, 5863.8, 5880.5, 5897.2, 5913.8, 5930.5, 5947.2, 5963.7, 5980.5, 5997, 6013.7, 6030.4, 6047.2, 6063.8, 6080.4, 6097.1, 6113.7, 6130.4, 6147.1, 6163.8, 6180.5, 6197.2, 6213.8, 6230.5, 6247.1, 6263.8, 6280.4, 6297.1, 6313.8, 6330.5, 6347.2, 6363.8, 6380.5, 6397.2, 6413.8, 6430.5, 6447.1, 6463.8, 6480.6, 6497.2, 6513.8, 6530.4, 6547.2, 6563.8, 6580.5, 6597.2, 6613.8, 6630.5, 6647.2, 6663.9, 6680.5, 6697.1, 6713.8, 6730.4, 6747, 6763.8, 6780.5, 6797.4, 6813.8, 6830.5, 6847.2, 6863.8, 6880.4, 6897.1, 6913.7, 6930.4, 6947.1, 6963.8, 6980.4, 6997.1, 7013.8, 7030.5, 7047, 7063.8, 7080.4, 7097, 7113.8, 7130.4, 7147, 7163.8, 7180.4, 7197.1, 7213.7, 7230.4, 7247.1, 7263.8, 7280.5, 7297.2, 7313.9, 7330.5, 7347.2, 7363.9, 7380.6, 7397.3, 7413.9, 7430.6, 7447.2, 7464.2, 7480.7, 7497.3, 7514, 7530.6, 7547.4, 7564.1, 7580.6, 7597.4, 7613.9, 7630.5, 7647.2, 7663.9, 7680.6, 7697.2, 7713.9, 7730.5, 7747.2, 7763.9, 7780.6, 7797.1, 7813.9, 7830.4, 7847.1, 7863.8, 7880.6, 7897.3, 7913.9, 7930.5, 7947.5, 7963.9, 7980.5, 7997.1, 8013.8, 8030.4, 8047.1, 8063.8, 8080.4, 8097.1, 8113.8, 8130.4, 8147.1, 8163.8, 8180.6, 8197.1, 8213.8, 8230.4, 8247.2, 8263.8, 8280.4, 8297.1, 8313.7, 8330.4, 8347.2, 8363.8, 8380.5, 8397.2, 8413.8, 8430.5, 8447.1, 8463.8, 8480.5, 8497.1, 8513.7, 8530.5, 8547.1, 8563.8, 8580.4, 8597.1, 8613.8, 8630.5, 8647.2, 8663.8, 8680.4, 8697.2, 8713.8, 8730.5, 8747.1, 8763.8, 8780.4, 8797.1, 8813.7, 8830.4, 8847.1, 8863.7, 8880.4, 8897, 8913.7, 8930.3, 8947.1, 8963.7, 8980.4, 8997, 9013.8, 9030.4]","[0.8, 9.2, 16.8, 16.6, 16.6, 16.8, 16.6, 16.7, 16.6, 16.7, 16.6, 33.6, 0.3, 16.1, 16.7, 16.7, 16.7, 16.6, 16.7, 16.6, 16.8, 16.6, 16.7, 16.6, 16.6, 16.7, 16.7, 16.7, 16.7, 16.6, 16.7, 16.7, 16.6, 16.7, 16.6, 16.8, 16.6, 16.6, 16.9, 16.6, 16.6, 16.6, 16.6, 16.7, 16.7, 16.7, 16.9, 16.5, 16.5, 16.7, 16.7, 16.6, 16.7, 16.6, 16.8, 16.6, 16.7, 16.6, 16.7, 16.7, 16.5, 16.8, 16.6, 16.7, 16.7, 16.6, 16.7, 16.7, 16.7, 16.6, 16.8, 16.7, 16.6, 16.7, 16.6, 16.9, 16.4, 16.6, 16.8, 16.6, 16.7, 16.7, 16.6, 16.7, 16.6, 16.7, 16.7, 16.7, 16.6, 16.6, 16.8, 16.6, 16.7, 16.7, 16.6, 16.6, 16.7, 16.7, 16.6, 16.7, 16.6, 16.8, 16.6, 16.7, 16.8, 16.5, 16.7, 16.6, 16.7, 16.7, 16.7, 16.7, 16.6, 16.7, 16.7, 16.5, 16.8, 16.5, 16.7, 16.7, 16.8, 16.6, 16.6, 16.7, 16.6, 16.7, 16.7, 16.7, 16.7, 16.7, 16.6, 16.7, 16.6, 16.7, 16.6, 16.7, 16.7, 16.7, 16.7, 16.6, 16.7, 16.7, 16.6, 16.7, 16.6, 16.7, 16.8, 16.6, 16.6, 16.6, 16.8, 16.6, 16.7, 16.7, 16.6, 16.7, 16.7, 16.7, 16.6, 16.6, 16.7, 16.6, 16.6, 16.8, 16.7, 16.9, 16.4, 16.7, 16.7, 16.6, 16.6, 16.7, 16.6, 16.7, 16.7, 16.7, 16.6, 16.7, 16.7, 16.7, 16.5, 16.8, 16.6, 16.6, 16.8, 16.6, 16.6, 16.8, 16.6, 16.7, 16.6, 16.7, 16.7, 16.7, 16.7, 16.7, 16.7, 16.6, 16.7, 16.7, 16.7, 16.7, 16.6, 16.7, 16.6, 17, 16.5, 16.6, 16.7, 16.6, 16.8, 16.7, 16.5, 16.8, 16.5, 16.6, 16.7, 16.7, 16.7, 16.6, 16.7, 16.6, 16.7, 16.7, 16.7, 16.5, 16.8, 16.5, 16.7, 16.7, 16.8, 16.7, 16.6, 16.6, 17, 16.4, 16.6, 16.6, 16.7, 16.6, 16.7, 16.7, 16.6, 16.7, 16.7, 16.6, 16.7, 16.7, 16.8, 16.5, 16.7, 16.6, 16.8, 16.6, 16.6, 16.7, 16.6, 16.7, 16.8, 16.6, 16.7, 16.7, 16.6, 16.7, 16.6, 16.7, 16.7, 16.6, 16.6, 16.8, 16.6, 16.7, 16.6, 16.7, 16.7, 16.7, 16.7, 16.6, 16.6, 16.8, 16.6, 16.7, 16.6, 16.7, 16.6, 16.7, 16.6, 16.7, 16.7, 16.6, 16.7, 16.6, 16.7, 16.6, 16.8, 16.6, 16.7, 16.6, 16.8, 16.6]",60.0,60.0,60.0,4993.3,[],,,,,,,,,,,,,,,,,,,,,,,,,HRV,HRV_0251,2022-11-30 19:54:17
,wl-html-keyboard-response,2,19214,0.0-2.0-0.0,0.0,3.0,,,,,,,,10085.899999856949,0.0,0,,,,,,,,,,,,,,,,,,,,,,HRV,HRV_0251,2022-11-30 19:54:17
,wl-rdm,3,28401,0.0-3.0-0.0,0.0,4.0,,,,,,,[],,,,0.0,0.0,87.9,0.0,u,0.0,True,3590.399999856949,216.0,60.0,40.0,False,,3000.0,[],"[960, 540]",ColorTask_Demo,,,,,HRV,HRV_0251,2022-11-30 19:54:17
,wl-rdm,4,34534,0.0-3.0-1.0,0.0,5.0,,,,,,,[],,,,0.0,0.0,87.9,1.0,i,1.0,True,2055.0999999046326,124.0,60.0,40.0,False,,2000.0,[],"[960, 540]",ColorTask_Demo,,,,,HRV,HRV_0251,2022-11-30 19:54:17
,wl-html-keyboard-response,5,43243,0.0-3.0-2.0,0.0,6.0,,,,,,,,6702.100000143051,0.0,1,,,,,,,,,,,,,,,,,,,,,,HRV,HRV_0251,2022-11-30 19:54:17
,wl-html-keyboard-response,6,53068,0.0-4.0-0.0,0.0,7.0,,,,,,,,7816.5,0.0,0,,,,,,,,,,,,,,,,,,,,,,HRV,HRV_0251,2022-11-30 19:54:17
,wl-html-keyboard-response,7,74900,0.0-5.0-0.0,0.0,8.0,,,,,,,,19823.699999809265,0.0,0,,,,,,,,,,,,,,,,,,,,,,HRV,HRV_0251,2022-11-30 19:54:17
,wl-rdm,8,78467,0.0-6.0-0.0,0.0,9.0,,,,,,,[],,,,,,50.0,1.0,u,0.0,False,2141.7999999523163,129.0,60.0,40.0,False,,333.81190328273027,[],"[960, 540]",ColorTask,-1.0,1.0,,,HRV,HRV_0251,2022-11-30 19:54:17
,wl-rdm,9,81267,0.0-6.1-0.1,0.0,10.0,,,,,,,[],,,,,,53.2,0.0,u,0.0,True,1467.5999999046326,89.0,60.0,40.0,False,,242.1321294969757,[],"[960, 540]",ColorTask,0.0,2.0,,,HRV,HRV_0251,2022-11-30 19:54:17
,wl-rdm,10,83883,0.0-6.2-0.2,0.0,11.0,,,,,,,[],,,,,,53.2,1.0,i,1.0,True,1158.1999998092651,70.0,60.0,40.0,False,,379.69605810587444,[],"[960, 540]",ColorTask,1.0,3.0,,,HRV,HRV_0251,2022-11-30 19:54:17
,wl-rdm,11,86483,0.0-6.3-0.3,0.0,12.0,,,,,,,[],,,,,,53.2,1.0,i,1.0,True,1316.1000001430511,79.0,60.0,40.0,False,,210.56385393343038,[],"[960, 540]",ColorTask,2.0,4.0,,,HRV,HRV_0251,2022-11-30 19:54:17
,wl-rdm,12,89200,0.0-6.4-0.4,0.0,13.0,,,,,,,[],,,,,,56.4,0.0,i,1.0,False,1311.4000000953674,79.0,60.0,40.0,False,,329.19182909757706,[],"[960, 540]",ColorTask,1.0,5.0,,,HRV,HRV_0251,2022-11-30 19:54:17
,wl-rdm,13,91867,0.0-6.5-0.5,0.0,14.0,,,,,,,[],,,,,,50.0,0.0,i,1.0,False,1265.8999998569489,76.0,60.0,40.0,False,,341.0669398971277,[],"[960, 540]",ColorTask,0.0,6.0,,,HRV,HRV_0251,2022-11-30 19:54:17
,wl-rdm,14,94216,0.0-6.6-0.6,0.0,15.0,,,,,,,[],,,,,,62.5,0.0,u,0.0,True,902.9000000953674,55.0,60.0,40.0,False,,352.61466457387723,[],"[960, 540]",ColorTask,1.0,7.0,,,HRV,HRV_0251,2022-11-30 19:54:17
,wl-rdm,15,96800,0.0-6.7-0.7,0.0,16.0,,,,,,,[],,,,,,87.9,0.0,u,0.0,True,1111.5,67.0,60.0,40.0,False,,384.227547102112,[],"[960, 540]",ColorTask,2.0,8.0,,,HRV,HRV_0251,2022-11-30 19:54:17
,wl-rdm,16,99383,0.0-6.8-0.8,0.0,17.0,,,,,,,[],,,,,,73.6,1.0,i,1.0,True,1254.0999999046326,76.0,60.0,40.0,False,,237.99862705290286,[],"[960, 540]",ColorTask,3.0,9.0,,,HRV,HRV_0251,2022-11-30 19:54:17
,wl-rdm,17,102483,0.0-6.9-0.9,0.0,18.0,,,,,,,[],,,,,,53.2,1.0,u,0.0,False,1784.1000001430511,108.0,60.0,40.0,False,,231.93597674735045,[],"[960, 540]",ColorTask,2.0,10.0,,,HRV,HRV_0251,2022-11-30 19:54:17
,wl-rdm,18,105049,0.0-6.10-0.10,0.0,19.0,,,,,,,[],,,,,,62.5,1.0,i,1.0,True,1259.9000000953674,76.0,60.0,40.0,False,,222.12575734267185,[],"[960, 540]",ColorTask,3.0,11.0,,,HRV,HRV_0251,2022-11-30 19:54:17
,wl-rdm,19,107666,0.0-6.11-0.11,0.0,20.0,,,,,,,[],,,,,,73.6,0.0,u,0.0,True,1258.8999998569489,76.0,60.0,40.0,False,,277.0827655298679,[],"[960, 540]",ColorTask,4.0,12.0,,,HRV,HRV_0251,2022-11-30 19:54:17
,wl-rdm,20,110649,0.0-6.12-0.12,0.0,21.0,,,,,,,[],,,,,,53.2,1.0,u,0.0,False,1659.0,100.0,60.0,40.0,False,,251.26459889478141,[],"[960, 540]",ColorTask,3.0,13.0,,,HRV,HRV_0251,2022-11-30 19:54:17
,wl-rdm,21,113816,0.0-6.13-0.13,0.0,22.0,,,,,,,[],,,,,,56.4,0.0,u,0.0,True,1844.5999999046326,111.0,60.0,40.0,False,,244.30887470537726,[],"[960, 540]",ColorTask,4.0,14.0,,,HRV,HRV_0251,2022-11-30 19:54:17
,wl-rdm,22,116916,0.0-6.14-0.14,0.0,23.0,,,,,,,[],,,,,,56.4,0.0,u,0.0,True,1673.3999998569489,101.0,60.0,40.0,False,,358.89075888579197,[],"[960, 540]",ColorTask,5.0,15.0,,,HRV,HRV_0251,2022-11-30 19:54:17
,wl-rdm,23,119599,0.0-6.15-0.15,0.0,24.0,,,,,,,[],,,,,,56.4,1.0,i,1.0,True,1344.4000000953674,81.0,60.0,40.0,False,,278.55659420249503,[],"[960, 540]",ColorTask,6.0,16.0,,,HRV,HRV_0251,2022-11-30 19:54:17
,wl-rdm,24,122682,0.0-6.16-0.16,0.0,25.0,,,,,,,[],,,,,,50.0,0.0,i,1.0,False,1700.7999999523163,103.0,60.0,40.0,False,,297.39341350542486,[],"[960, 540]",ColorTask,5.0,17.0,,,HRV,HRV_0251,2022-11-30 19:54:17
,wl-rdm,25,125099,0.0-6.17-0.17,0.0,26.0,,,,,,,[],,,,,,87.9,0.0,u,0.0,True,1099.0000002384186,66.0,60.0,40.0,False,,263.52355775753836,[],"[960, 540]",ColorTask,6.0,18.0,,,HRV,HRV_0251,2022-11-30 19:54:17
,wl-rdm,26,128532,0.0-6.18-0.18,0.0,27.0,,,,,,,[],,,,,,50.0,1.0,i,1.0,True,2006.8999998569489,121.0,60.0,40.0,False,,338.7520754943953,[],"[960, 540]",ColorTask,7.0,19.0,,,HRV,HRV_0251,2022-11-30 19:54:17
,wl-rdm,27,131116,0.0-6.19-0.19,0.0,28.0,,,,,,,[],,,,,,87.9,1.0,i,1.0,True,1207.6999998092651,73.0,60.0,40.0,False,,293.3241178111041,[],"[960, 540]",ColorTask,8.0,20.0,,,HRV,HRV_0251,2022-11-30 19:54:17
,wl-rdm,28,133899,0.0-6.20-0.20,0.0,29.0,,,,,,,[],,,,,,87.9,0.0,u,0.0,True,1383.7999999523163,84.0,60.0,40.0,False,,315.1062065851655,[],"[960, 540]",ColorTask,9.0,21.0,,,HRV,HRV_0251,2022-11-30 19:54:17
,wl-rdm,29,137215,0.0-6.21-0.21,0.0,30.0,,,,,,,[],,,,,,50.0,0.0,i,1.0,False,1961.0,118.0,60.0,40.0,False,,294.2762660819755,[],"[960, 540]",ColorTask,8.0,22.0,,,HRV,HRV_0251,2022-11-30 19:54:17
,wl-rdm,30,141099,0.0-6.22-0.22,0.0,31.0,,,,,,,[],,,,,,53.2,0.0,u,0.0,True,2492.2000002861023,150.0,60.0,40.0,False,,301.11401451624374,[],"[960, 540]",ColorTask,9.0,23.0,,,HRV,HRV_0251,2022-11-30 19:54:17
,wl-rdm,31,144649,0.0-6.23-0.23,0.0,32.0,,,,,,,[],,,,,,50.0,1.0,i,1.0,True,2093.7999999523163,126.0,60.0,40.0,False,,382.56621308215614,[],"[960, 540]",ColorTask,10.0,24.0,,,HRV,HRV_0251,2022-11-30 19:54:17
,wl-rdm,32,147915,0.0-6.24-0.24,0.0,33.0,,,,,,,[],,,,,,62.5,1.0,i,1.0,True,1924.5999999046326,116.0,60.0,40.0,False,,258.67372757699616,[],"[960, 540]",ColorTask,11.0,25.0,,,HRV,HRV_0251,2022-11-30 19:54:17
,wl-rdm,33,151598,0.0-6.25-0.25,0.0,34.0,,,,,,,[],,,,,,50.0,1.0,u,0.0,False,2304.9000000953674,139.0,60.0,40.0,False,,291.7182071007175,[],"[960, 540]",ColorTask,10.0,26.0,,,HRV,HRV_0251,2022-11-30 19:54:17
,wl-rdm,34,155148,0.0-6.26-0.26,0.0,35.0,,,,,,,[],,,,,,62.5,1.0,i,1.0,True,2122.7999999523163,128.0,60.0,40.0,False,,352.4667333852749,[],"[960, 540]",ColorTask,11.0,27.0,,,HRV,HRV_0251,2022-11-30 19:54:17
,wl-rdm,35,158598,0.0-6.27-0.27,0.0,36.0,,,,,,,[],,,,,,56.4,0.0,i,1.0,False,2104.7999999523163,127.0,60.0,40.0,False,,261.5677142540476,[],"[960, 540]",ColorTask,10.0,28.0,,,HRV,HRV_0251,2022-11-30 19:54:17
,wl-rdm,36,161498,0.0-6.28-0.28,0.0,37.0,,,,,,,[],,,,,,53.2,0.0,u,0.0,True,1601.0000002384186,97.0,60.0,40.0,False,,200.80264340796558,[],"[960, 540]",ColorTask,11.0,29.0,,,HRV,HRV_0251,2022-11-30 19:54:17
,wl-rdm,37,165165,0.0-6.29-0.29,0.0,38.0,,,,,,,[],,,,,,53.2,1.0,i,1.0,True,2397.0999999046326,144.0,60.0,40.0,False,,206.19088342814575,[],"[960, 540]",ColorTask,12.0,30.0,,,HRV,HRV_0251,2022-11-30 19:54:17
,wl-rdm,38,167982,0.0-6.30-0.30,0.0,39.0,,,,,,,[],,,,,,73.6,1.0,i,1.0,True,1388.3999998569489,84.0,60.0,40.0,False,,359.0740261395251,[],"[960, 540]",ColorTask,13.0,31.0,,,HRV,HRV_0251,2022-11-30 19:54:17
,wl-rdm,39,170448,0.0-6.31-0.31,0.0,40.0,,,,,,,[],,,,,,87.9,1.0,i,1.0,True,1160.3999998569489,70.0,60.0,40.0,False,,233.68437287373558,[],"[960, 540]",ColorTask,14.0,32.0,,,HRV,HRV_0251,2022-11-30 19:54:17
,wl-rdm,40,173915,0.0-6.32-0.32,0.0,41.0,,,,,,,[],,,,,,62.5,0.0,u,0.0,True,2017.5999999046326,122.0,60.0,40.0,False,,350.2763227685821,[],"[960, 540]",ColorTask,15.0,33.0,,,HRV,HRV_0251,2022-11-30 19:54:17
,wl-rdm,41,176915,0.0-6.33-0.33,0.0,42.0,,,,,,,[],,,,,,53.2,0.0,i,1.0,False,1634.3000001907349,99.0,60.0,40.0,False,,271.81349307866884,[],"[960, 540]",ColorTask,14.0,34.0,,,HRV,HRV_0251,2022-11-30 19:54:17
,wl-rdm,42,179665,0.0-6.34-0.34,0.0,43.0,,,,,,,[],,,,,,73.6,0.0,u,0.0,True,1310.4000000953674,79.0,60.0,40.0,False,,359.7012421666942,[],"[960, 540]",ColorTask,15.0,35.0,,,HRV,HRV_0251,2022-11-30 19:54:17
,wl-rdm,43,183231,0.0-6.35-0.35,0.0,44.0,,,,,,,[],,,,,,62.5,0.0,u,0.0,True,2254.0,136.0,60.0,40.0,False,,227.3347332938374,[],"[960, 540]",ColorTask,16.0,36.0,,,HRV,HRV_0251,2022-11-30 19:54:17
,wl-rdm,44,186248,0.0-6.36-0.36,0.0,45.0,,,,,,,[],,,,,,50.0,0.0,i,1.0,False,1728.0,104.0,60.0,40.0,False,,201.3690577549122,[],"[960, 540]",ColorTask,15.0,37.0,,,HRV,HRV_0251,2022-11-30 19:54:17
,wl-rdm,45,189698,0.0-6.37-0.37,0.0,46.0,,,,,,,[],,,,,,56.4,0.0,u,0.0,True,2109.7000000476837,127.0,60.0,40.0,False,,255.41536971844664,[],"[960, 540]",ColorTask,16.0,38.0,,,HRV,HRV_0251,2022-11-30 19:54:17
,wl-rdm,46,193614,0.0-6.38-0.38,0.0,47.0,,,,,,,[],,,,,,53.2,1.0,i,1.0,True,2438.199999809265,147.0,60.0,40.0,False,,386.05031266251507,[],"[960, 540]",ColorTask,17.0,39.0,,,HRV,HRV_0251,2022-11-30 19:54:17
,wl-rdm,47,196664,0.0-6.39-0.39,0.0,48.0,,,,,,,[],,,,,,50.0,0.0,u,0.0,True,1744.3999998569489,105.0,60.0,40.0,False,,226.41261531600517,[],"[960, 540]",ColorTask,18.0,40.0,,,HRV,HRV_0251,2022-11-30 19:54:17
,wl-rdm,48,200114,0.0-6.40-0.40,0.0,49.0,,,,,,,[],,,,,,73.6,0.0,u,0.0,True,2018.400000333786,122.0,60.0,40.0,False,,334.54010206172916,[],"[960, 540]",ColorTask,19.0,41.0,,,HRV,HRV_0251,2022-11-30 19:54:17
,wl-rdm,49,204564,0.0-6.41-0.41,0.0,49.0,,,,,,,[],,,,,,50.0,0.0,i,,,3167.7999999523163,179.0,60.0,40.0,True,RT_timeout ,336.6165662200268,[],"[960, 540]",ColorTask,18.0,42.0,,,HRV,HRV_0251,2022-11-30 19:54:17
,wl-rdm,50,207698,0.0-6.42-0.42,0.0,50.0,,,,,,,[],,,,,,73.6,0.0,i,1.0,False,1785.0999999046326,108.0,60.0,40.0,False,,259.9471922879592,[],"[960, 540]",ColorTask,17.0,43.0,,,HRV,HRV_0251,2022-11-30 19:54:17
,wl-rdm,51,210314,0.0-6.43-0.43,0.0,51.0,,,,,,,[],,,,,,50.0,0.0,u,0.0,True,1317.2999999523163,80.0,60.0,40.0,False,,226.75318441203507,[],"[960, 540]",ColorTask,18.0,44.0,,,HRV,HRV_0251,2022-11-30 19:54:17
,wl-rdm,52,213047,0.0-6.44-0.44,0.0,52.0,,,,,,,[],,,,,,87.9,1.0,i,1.0,True,1311.7000000476837,79.0,60.0,40.0,False,,333.6405177559408,[],"[960, 540]",ColorTask,19.0,45.0,,,HRV,HRV_0251,2022-11-30 19:54:17
,wl-rdm,53,215797,0.0-6.45-0.45,0.0,53.0,,,,,,,[],,,,,,87.9,1.0,i,1.0,True,1430.6999998092651,86.0,60.0,40.0,False,,249.09737639879023,[],"[960, 540]",ColorTask,20.0,46.0,,,HRV,HRV_0251,2022-11-30 19:54:17
,wl-rdm,54,218747,0.0-6.46-0.46,0.0,54.0,,,,,,,[],,,,,,50.0,0.0,u,0.0,True,1640.9000000953674,99.0,60.0,40.0,False,,234.96622499324926,[],"[960, 540]",ColorTask,21.0,47.0,,,HRV,HRV_0251,2022-11-30 19:54:17
,wl-rdm,55,221714,0.0-6.47-0.47,0.0,55.0,,,,,,,[],,,,,,87.9,1.0,i,1.0,True,1567.7000000476837,95.0,60.0,40.0,False,,319.91299073274376,[],"[960, 540]",ColorTask,22.0,48.0,,,HRV,HRV_0251,2022-11-30 19:54:17
,wl-rdm,56,225047,0.0-6.48-0.48,0.0,56.0,,,,,,,[],,,,,,62.5,1.0,u,0.0,False,1987.2000000476837,120.0,60.0,40.0,False,,257.5568694879378,[],"[960, 540]",ColorTask,21.0,49.0,,,HRV,HRV_0251,2022-11-30 19:54:17
,wl-rdm,57,227864,0.0-6.49-0.49,0.0,57.0,,,,,,,[],,,,,,53.2,1.0,i,1.0,True,1428.0999999046326,86.0,60.0,40.0,False,,314.72690364824683,[],"[960, 540]",ColorTask,22.0,50.0,,,HRV,HRV_0251,2022-11-30 19:54:17
,wl-rdm,58,230414,0.0-6.50-0.50,0.0,58.0,,,,,,,[],,,,,,73.6,1.0,i,1.0,True,1255.4000000953674,76.0,60.0,40.0,False,,206.75543438379827,[],"[960, 540]",ColorTask,23.0,51.0,,,HRV,HRV_0251,2022-11-30 19:54:17
,wl-rdm,59,233164,0.0-6.51-0.51,0.0,59.0,,,,,,,[],,,,,,62.5,1.0,i,1.0,True,1282.5,77.0,60.0,40.0,False,,392.80142609237157,[],"[960, 540]",ColorTask,24.0,52.0,,,HRV,HRV_0251,2022-11-30 19:54:17
,wl-rdm,60,236130,0.0-6.52-0.52,0.0,60.0,,,,,,,[],,,,,,73.6,0.0,u,0.0,True,1558.2999999523163,94.0,60.0,40.0,False,,337.9745197311522,[],"[960, 540]",ColorTask,25.0,53.0,,,HRV,HRV_0251,2022-11-30 19:54:17
,wl-rdm,61,239197,0.0-6.53-0.53,0.0,61.0,,,,,,,[],,,,,,50.0,1.0,u,0.0,False,1747.5999999046326,105.0,60.0,40.0,False,,248.0616825847361,[],"[960, 540]",ColorTask,24.0,54.0,,,HRV,HRV_0251,2022-11-30 19:54:17
,wl-rdm,62,242197,0.0-6.54-0.54,0.0,62.0,,,,,,,[],,,,,,56.4,1.0,i,1.0,True,1631.0,98.0,60.0,40.0,False,,291.7430705415846,[],"[960, 540]",ColorTask,25.0,55.0,,,HRV,HRV_0251,2022-11-30 19:54:17
,wl-rdm,63,244747,0.0-6.55-0.55,0.0,63.0,,,,,,,[],,,,,,73.6,1.0,i,1.0,True,1166.0,70.0,60.0,40.0,False,,327.5224553924049,[],"[960, 540]",ColorTask,26.0,56.0,,,HRV,HRV_0251,2022-11-30 19:54:17
,wl-rdm,64,247747,0.0-6.56-0.56,0.0,64.0,,,,,,,[],,,,,,56.4,1.0,i,1.0,True,1574.7000000476837,95.0,60.0,40.0,False,,364.5724420363907,[],"[960, 540]",ColorTask,27.0,57.0,,,HRV,HRV_0251,2022-11-30 19:54:17
,wl-rdm,65,250630,0.0-6.57-0.57,0.0,65.0,,,,,,,[],,,,,,62.5,0.0,u,0.0,True,1463.4000000953674,88.0,60.0,40.0,False,,348.34212567794424,[],"[960, 540]",ColorTask,28.0,58.0,,,HRV,HRV_0251,2022-11-30 19:54:17
,wl-rdm,66,253947,0.0-6.58-0.58,0.0,66.0,,,,,,,[],,,,,,56.4,1.0,i,1.0,True,2041.3999998569489,123.0,60.0,40.0,False,,205.3282689884073,[],"[960, 540]",ColorTask,29.0,59.0,,,HRV,HRV_0251,2022-11-30 19:54:17
,wl-rdm,67,256364,0.0-6.59-0.59,0.0,67.0,,,,,,,[],,,,,,87.9,0.0,u,0.0,True,949.5,57.0,60.0,40.0,False,,394.3806882188236,[],"[960, 540]",ColorTask,30.0,60.0,,,HRV,HRV_0251,2022-11-30 19:54:17
,wl-rdm,68,259047,0.0-6.60-0.60,0.0,68.0,,,,,,,[],,,,,,62.5,0.0,u,0.0,True,1304.7000000476837,79.0,60.0,40.0,False,,285.49157626603323,[],"[960, 540]",ColorTask,31.0,61.0,,,HRV,HRV_0251,2022-11-30 19:54:17
,wl-rdm,69,261947,0.0-6.61-0.61,0.0,69.0,,,,,,,[],,,,,,56.4,1.0,i,1.0,True,1417.3999998569489,86.0,60.0,40.0,False,,383.99759977745737,[],"[960, 540]",ColorTask,32.0,62.0,,,HRV,HRV_0251,2022-11-30 19:54:17
,wl-rdm,70,264530,0.0-6.62-0.62,0.0,70.0,,,,,,,[],,,,,,56.4,1.0,i,1.0,True,1242.7999999523163,75.0,60.0,40.0,False,,250.37454377786239,[],"[960, 540]",ColorTask,33.0,63.0,,,HRV,HRV_0251,2022-11-30 19:54:17
,wl-rdm,71,267147,0.0-6.63-0.63,0.0,71.0,,,,,,,[],,,,,,50.0,0.0,u,0.0,True,1316.5,79.0,60.0,40.0,False,,239.01641010666327,[],"[960, 540]",ColorTask,34.0,64.0,,,HRV,HRV_0251,2022-11-30 19:54:17
,wl-rdm,72,269763,0.0-6.64-0.64,0.0,72.0,,,,,,,[],,,,,,73.6,1.0,i,1.0,True,1249.0,75.0,60.0,40.0,False,,307.2966859604519,[],"[960, 540]",ColorTask,35.0,65.0,,,HRV,HRV_0251,2022-11-30 19:54:17
,wl-rdm,73,272380,0.0-6.65-0.65,0.0,73.0,,,,,,,[],,,,,,73.6,1.0,i,1.0,True,1274.3999998569489,77.0,60.0,40.0,False,,254.11435721904115,[],"[960, 540]",ColorTask,36.0,66.0,,,HRV,HRV_0251,2022-11-30 19:54:17
,wl-rdm,74,275247,0.0-6.66-0.66,0.0,74.0,,,,,,,[],,,,,,53.2,0.0,u,0.0,True,1563.1000001430511,94.0,60.0,40.0,False,,220.00626260385184,[],"[960, 540]",ColorTask,37.0,67.0,,,HRV,HRV_0251,2022-11-30 19:54:17
,wl-rdm,75,278013,0.0-6.67-0.67,0.0,75.0,,,,,,,[],,,,,,53.2,0.0,i,1.0,False,1356.7000000476837,82.0,60.0,40.0,False,,333.12520284949596,[],"[960, 540]",ColorTask,36.0,68.0,,,HRV,HRV_0251,2022-11-30 19:54:17
,wl-rdm,76,280546,0.0-6.68-0.68,0.0,76.0,,,,,,,[],,,,,,87.9,0.0,u,0.0,True,1159.1000001430511,70.0,60.0,40.0,False,,294.77468098460395,[],"[960, 540]",ColorTask,37.0,69.0,,,HRV,HRV_0251,2022-11-30 19:54:17
,wl-rdm,77,283263,0.0-6.69-0.69,0.0,77.0,,,,,,,[],,,,,,56.4,1.0,i,1.0,True,1321.2999999523163,80.0,60.0,40.0,False,,303.80460866595536,[],"[960, 540]",ColorTask,38.0,70.0,,,HRV,HRV_0251,2022-11-30 19:54:17
,wl-rdm,78,285796,0.0-6.70-0.70,0.0,78.0,,,,,,,[],,,,,,73.6,1.0,i,1.0,True,1215.2999999523163,73.0,60.0,40.0,False,,245.65780650022015,[],"[960, 540]",ColorTask,39.0,71.0,,,HRV,HRV_0251,2022-11-30 19:54:17
,wl-rdm,79,288296,0.0-6.71-0.71,0.0,79.0,,,,,,,[],,,,,,87.9,1.0,i,1.0,True,1211.4000000953674,73.0,60.0,40.0,False,,200.04583386692562,[],"[960, 540]",ColorTask,40.0,72.0,,,HRV,HRV_0251,2022-11-30 19:54:17
,wl-rdm,80,290813,0.0-6.72-0.72,0.0,80.0,,,,,,,[],,,,,,62.5,0.0,u,0.0,True,1231.2999999523163,74.0,60.0,40.0,False,,214.87393608522572,[],"[960, 540]",ColorTask,41.0,73.0,,,HRV,HRV_0251,2022-11-30 19:54:17
,wl-rdm,81,294213,0.0-6.73-0.73,0.0,81.0,,,,,,,[],,,,,,50.0,1.0,i,1.0,True,2031.5,122.0,60.0,40.0,False,,294.5396551577272,[],"[960, 540]",ColorTask,42.0,74.0,,,HRV,HRV_0251,2022-11-30 19:54:17
,wl-rdm,82,296813,0.0-6.74-0.74,0.0,82.0,,,,,,,[],,,,,,73.6,0.0,u,0.0,True,1131.4000000953674,68.0,60.0,40.0,False,,384.12804479184825,[],"[960, 540]",ColorTask,43.0,75.0,,,HRV,HRV_0251,2022-11-30 19:54:17
,wl-rdm,83,299413,0.0-6.75-0.75,0.0,83.0,,,,,,,[],,,,,,53.2,0.0,i,1.0,False,1123.9000000953674,68.0,60.0,40.0,False,,399.79519885856604,[],"[960, 540]",ColorTask,42.0,76.0,,,HRV,HRV_0251,2022-11-30 19:54:17
,wl-rdm,84,301913,0.0-6.76-0.76,0.0,84.0,,,,,,,[],,,,,,53.2,0.0,i,1.0,False,1185.3999998569489,72.0,60.0,40.0,False,,233.62288027646846,[],"[960, 540]",ColorTask,41.0,77.0,,,HRV,HRV_0251,2022-11-30 19:54:17
,wl-rdm,85,304663,0.0-6.77-0.77,0.0,85.0,,,,,,,[],,,,,,87.9,1.0,i,1.0,True,1362.3000001907349,82.0,60.0,40.0,False,,321.57156098342733,[],"[960, 540]",ColorTask,42.0,78.0,,,HRV,HRV_0251,2022-11-30 19:54:17
,wl-rdm,86,307763,0.0-6.78-0.78,0.0,86.0,,,,,,,[],,,,,,50.0,1.0,u,0.0,False,1717.8000001907349,104.0,60.0,40.0,False,,284.2378919420112,[],"[960, 540]",ColorTask,41.0,79.0,,,HRV,HRV_0251,2022-11-30 19:54:17
,wl-rdm,87,310713,0.0-6.79-0.79,0.0,87.0,,,,,,,[],,,,,,62.5,0.0,u,0.0,True,1636.7000000476837,99.0,60.0,40.0,False,,229.58137979278794,[],"[960, 540]",ColorTask,42.0,80.0,,,HRV,HRV_0251,2022-11-30 19:54:17
,wl-rdm,88,313913,0.0-6.80-0.80,0.0,88.0,,,,,,,[],,,,,,56.4,1.0,i,1.0,True,1761.2000000476837,106.0,60.0,40.0,False,,363.6575608317494,[],"[960, 540]",ColorTask,43.0,81.0,,,HRV,HRV_0251,2022-11-30 19:54:17
,wl-rdm,89,316812,0.0-6.81-0.81,0.0,89.0,,,,,,,[],,,,,,53.2,1.0,i,1.0,True,1431.7999999523163,86.0,60.0,40.0,False,,398.94439658117585,[],"[960, 540]",ColorTask,44.0,82.0,,,HRV,HRV_0251,2022-11-30 19:54:17
,wl-rdm,90,319829,0.0-6.82-0.82,0.0,90.0,,,,,,,[],,,,,,73.6,1.0,i,1.0,True,1640.1000001430511,99.0,60.0,40.0,False,,296.9298440961072,[],"[960, 540]",ColorTask,45.0,83.0,,,HRV,HRV_0251,2022-11-30 19:54:17
,wl-rdm,91,322579,0.0-6.83-0.83,0.0,91.0,,,,,,,[],,,,,,62.5,1.0,i,1.0,True,1317.9000000953674,80.0,60.0,40.0,False,,334.78399837133475,[],"[960, 540]",ColorTask,46.0,84.0,,,HRV,HRV_0251,2022-11-30 19:54:17
,wl-rdm,92,325095,0.0-6.84-0.84,0.0,92.0,,,,,,,[],,,,,,87.9,0.0,u,0.0,True,1095.2999999523163,66.0,60.0,40.0,False,,334.6061415398641,[],"[960, 540]",ColorTask,47.0,85.0,,,HRV,HRV_0251,2022-11-30 19:54:17
,wl-rdm,93,327995,0.0-6.85-0.85,0.0,93.0,,,,,,,[],,,,,,87.9,0.0,u,0.0,True,1541.3999998569489,93.0,60.0,40.0,False,,268.3691786046747,[],"[960, 540]",ColorTask,48.0,86.0,,,HRV,HRV_0251,2022-11-30 19:54:17
,wl-rdm,94,330729,0.0-6.86-0.86,0.0,94.0,,,,,,,[],,,,,,56.4,1.0,i,1.0,True,1386.2000000476837,84.0,60.0,40.0,False,,254.80264481011773,[],"[960, 540]",ColorTask,49.0,87.0,,,HRV,HRV_0251,2022-11-30 19:54:17
,wl-rdm,95,333479,0.0-6.87-0.87,0.0,95.0,,,,,,,[],,,,,,50.0,1.0,i,1.0,True,1338.5,81.0,60.0,40.0,False,,321.3634885102064,[],"[960, 540]",ColorTask,50.0,88.0,,,HRV,HRV_0251,2022-11-30 19:54:17
,wl-rdm,96,336112,0.0-6.88-0.88,0.0,96.0,,,,,,,[],,,,,,73.6,1.0,i,1.0,True,1320.5,80.0,60.0,40.0,False,,221.72369770987297,[],"[960, 540]",ColorTask,51.0,89.0,,,HRV,HRV_0251,2022-11-30 19:54:17
,wl-rdm,97,338812,0.0-6.89-0.89,0.0,97.0,,,,,,,[],,,,,,53.2,1.0,u,0.0,False,1357.5999999046326,82.0,60.0,40.0,False,,253.07420912568557,[],"[960, 540]",ColorTask,50.0,90.0,,,HRV,HRV_0251,2022-11-30 19:54:17
,wl-rdm,98,341728,0.0-6.90-0.90,0.0,98.0,,,,,,,[],,,,,,62.5,1.0,i,1.0,True,1544.4000000953674,93.0,60.0,40.0,False,,283.4158744318427,[],"[960, 540]",ColorTask,51.0,91.0,,,HRV,HRV_0251,2022-11-30 19:54:17
,wl-rdm,99,344262,0.0-6.91-0.91,0.0,99.0,,,,,,,[],,,,,,87.9,0.0,u,0.0,True,1180.5999999046326,71.0,60.0,40.0,False,,269.0218907944553,[],"[960, 540]",ColorTask,52.0,92.0,,,HRV,HRV_0251,2022-11-30 19:54:17
,wl-rdm,100,347078,0.0-6.92-0.92,0.0,100.0,,,,,,,[],,,,,,62.5,1.0,i,1.0,True,1438.5,87.0,60.0,40.0,False,,292.38398514069195,[],"[960, 540]",ColorTask,53.0,93.0,,,HRV,HRV_0251,2022-11-30 19:54:17
,wl-rdm,101,349828,0.0-6.93-0.93,0.0,101.0,,,,,,,[],,,,,,50.0,0.0,i,1.0,False,1357.2999999523163,82.0,60.0,40.0,False,,315.16032135788276,[],"[960, 540]",ColorTask,52.0,94.0,,,HRV,HRV_0251,2022-11-30 19:54:17
,wl-rdm,102,352362,0.0-6.94-0.94,0.0,102.0,,,,,,,[],,,,,,73.6,0.0,u,0.0,True,1135.400000333786,69.0,60.0,40.0,False,,315.4683820849804,[],"[960, 540]",ColorTask,53.0,95.0,,,HRV,HRV_0251,2022-11-30 19:54:17
,wl-rdm,103,355045,0.0-6.95-0.95,0.0,103.0,,,,,,,[],,,,,,87.9,0.0,u,0.0,True,1398.1999998092651,84.0,60.0,40.0,False,,210.4308678282593,[],"[960, 540]",ColorTask,54.0,96.0,,,HRV,HRV_0251,2022-11-30 19:54:17
,wl-rdm,104,357861,0.0-6.96-0.96,0.0,104.0,,,,,,,[],,,,,,73.6,0.0,u,0.0,True,1455.3000001907349,88.0,60.0,40.0,False,,287.17394395197897,[],"[960, 540]",ColorTask,55.0,97.0,,,HRV,HRV_0251,2022-11-30 19:54:17
,wl-rdm,105,360328,0.0-6.97-0.97,0.0,105.0,,,,,,,[],,,,,,87.9,1.0,i,1.0,True,1044.1000001430511,63.0,60.0,40.0,False,,352.15102639399527,[],"[960, 540]",ColorTask,56.0,98.0,,,HRV,HRV_0251,2022-11-30 19:54:17
,wl-rdm,106,363411,0.0-6.98-0.98,0.0,106.0,,,,,,,[],,,,,,53.2,0.0,i,1.0,False,1733.7999999523163,105.0,60.0,40.0,False,,252.84981473484052,[],"[960, 540]",ColorTask,55.0,99.0,,,HRV,HRV_0251,2022-11-30 19:54:17
,wl-rdm,107,366428,0.0-6.99-0.99,0.0,107.0,,,,,,,[],,,,,,56.4,0.0,u,0.0,True,1715.6999998092651,103.0,60.0,40.0,False,,224.6166142863259,[],"[960, 540]",ColorTask,56.0,100.0,,,HRV,HRV_0251,2022-11-30 19:54:17
,wl-rdm,108,369245,0.0-6.100-0.100,0.0,108.0,,,,,,,[],,,,,,62.5,0.0,u,0.0,True,1523.7000000476837,92.0,60.0,40.0,False,,204.80811691588502,[],"[960, 540]",ColorTask,57.0,101.0,,,HRV,HRV_0251,2022-11-30 19:54:17
,wl-rdm,109,372178,0.0-6.101-0.101,0.0,109.0,,,,,,,[],,,,,,56.4,0.0,u,0.0,True,1643.0,99.0,60.0,40.0,False,,213.89594096584455,[],"[960, 540]",ColorTask,58.0,102.0,,,HRV,HRV_0251,2022-11-30 19:54:17
,wl-rdm,110,375295,0.0-6.102-0.102,0.0,110.0,,,,,,,[],,,,,,62.5,1.0,u,0.0,False,1738.3000001907349,105.0,60.0,40.0,False,,285.7428644181348,[],"[960, 540]",ColorTask,57.0,103.0,,,HRV,HRV_0251,2022-11-30 19:54:17
,wl-rdm,111,378411,0.0-6.103-0.103,0.0,111.0,,,,,,,[],,,,,,62.5,0.0,u,0.0,True,1700.7999999523163,103.0,60.0,40.0,False,,333.42682281769453,[],"[960, 540]",ColorTask,58.0,104.0,,,HRV,HRV_0251,2022-11-30 19:54:17
,wl-rdm,112,381228,0.0-6.104-0.104,0.0,112.0,,,,,,,[],,,,,,87.9,1.0,i,1.0,True,1365.8000001907349,82.0,60.0,40.0,False,,375.78698465528066,[],"[960, 540]",ColorTask,59.0,105.0,,,HRV,HRV_0251,2022-11-30 19:54:17
,wl-rdm,113,384261,0.0-6.105-0.105,0.0,113.0,,,,,,,[],,,,,,50.0,1.0,i,1.0,True,1755.9000000953674,106.0,60.0,40.0,False,,206.74477871147784,[],"[960, 540]",ColorTask,60.0,106.0,,,HRV,HRV_0251,2022-11-30 19:54:17
,wl-rdm,114,387111,0.0-6.106-0.106,0.0,114.0,,,,,,,[],,,,,,56.4,0.0,u,0.0,True,1462.6000001430511,88.0,60.0,40.0,False,,310.51062484380464,[],"[960, 540]",ColorTask,61.0,107.0,,,HRV,HRV_0251,2022-11-30 19:54:17
,wl-rdm,115,389961,0.0-6.107-0.107,0.0,115.0,,,,,,,[],,,,,,73.6,0.0,u,0.0,True,1552.6999998092651,94.0,60.0,40.0,False,,202.83344599579718,[],"[960, 540]",ColorTask,62.0,108.0,,,HRV,HRV_0251,2022-11-30 19:54:17
,wl-rdm,116,392578,0.0-6.108-0.108,0.0,116.0,,,,,,,[],,,,,,56.4,0.0,u,0.0,True,1251.8999998569489,76.0,60.0,40.0,False,,275.3497327300429,[],"[960, 540]",ColorTask,63.0,109.0,,,HRV,HRV_0251,2022-11-30 19:54:17
,wl-html-keyboard-response,117,407836,0.0-7.0-0.0,1.0,117.0,,,,,,,,13250.799999952316,1.0,0,,,,,,,,,,,,,,,,,,,,,,HRV,HRV_0251,2022-11-30 19:54:17
,wl-rdm,118,410427,0.0-8.0-0.0,1.0,118.0,,,,,,,[],,,,,,73.6,1.0,i,1.0,True,1133.2999999523163,68.0,60.0,40.0,False,,398.72965267302135,[],"[960, 540]",ColorTask,64.0,1.0,,,HRV,HRV_0251,2022-11-30 19:54:17
,wl-rdm,119,412827,0.0-8.1-0.1,1.0,119.0,,,,,,,[],,,,,,87.9,0.0,u,0.0,True,1100.7000000476837,67.0,60.0,40.0,False,,216.33481741547152,[],"[960, 540]",ColorTask,65.0,2.0,,,HRV,HRV_0251,2022-11-30 19:54:17
,wl-rdm,120,415694,0.0-8.2-0.2,1.0,120.0,,,,,,,[],,,,,,62.5,0.0,u,0.0,True,1539.1000001430511,93.0,60.0,40.0,False,,247.50130752107722,[],"[960, 540]",ColorTask,66.0,3.0,,,HRV,HRV_0251,2022-11-30 19:54:17
,wl-rdm,121,418627,0.0-8.3-0.3,1.0,121.0,,,,,,,[],,,,,,50.0,1.0,i,1.0,True,1550.8999998569489,94.0,60.0,40.0,False,,287.9931136011934,[],"[960, 540]",ColorTask,67.0,4.0,,,HRV,HRV_0251,2022-11-30 19:54:17
,wl-rdm,122,421644,0.0-8.4-0.4,1.0,122.0,,,,,,,[],,,,,,53.2,1.0,u,0.0,False,1573.9000000953674,95.0,60.0,40.0,False,,372.83550956859995,[],"[960, 540]",ColorTask,66.0,5.0,,,HRV,HRV_0251,2022-11-30 19:54:17
,wl-rdm,123,424310,0.0-8.5-0.5,1.0,123.0,,,,,,,[],,,,,,50.0,0.0,i,1.0,False,1355.2000000476837,82.0,60.0,40.0,False,,224.75581075918052,[],"[960, 540]",ColorTask,65.0,6.0,,,HRV,HRV_0251,2022-11-30 19:54:17
,wl-rdm,124,427060,0.0-8.6-0.6,1.0,124.0,,,,,,,[],,,,,,62.5,0.0,u,0.0,True,1357.2999999523163,82.0,60.0,40.0,False,,302.01812863174166,[],"[960, 540]",ColorTask,66.0,7.0,,,HRV,HRV_0251,2022-11-30 19:54:17
,wl-rdm,125,430177,0.0-8.7-0.7,1.0,125.0,,,,,,,[],,,,,,56.4,1.0,i,1.0,True,1769.7000000476837,107.0,60.0,40.0,False,,264.2842070345655,[],"[960, 540]",ColorTask,67.0,8.0,,,HRV,HRV_0251,2022-11-30 19:54:17
,wl-rdm,126,433127,0.0-8.8-0.8,1.0,126.0,,,,,,,[],,,,,,56.4,1.0,i,1.0,True,1596.1000001430511,96.0,60.0,40.0,False,,281.02317400977967,[],"[960, 540]",ColorTask,68.0,9.0,,,HRV,HRV_0251,2022-11-30 19:54:17
,wl-rdm,127,436077,0.0-8.9-0.9,1.0,127.0,,,,,,,[],,,,,,53.2,0.0,i,1.0,False,1523.5,92.0,60.0,40.0,False,,343.8507827279778,[],"[960, 540]",ColorTask,67.0,10.0,,,HRV,HRV_0251,2022-11-30 19:54:17
,wl-rdm,128,439093,0.0-8.10-0.10,1.0,128.0,,,,,,,[],,,,,,53.2,1.0,u,0.0,False,1614.2000000476837,97.0,60.0,40.0,False,,317.9173899834795,[],"[960, 540]",ColorTask,66.0,11.0,,,HRV,HRV_0251,2022-11-30 19:54:17
,wl-rdm,129,441810,0.0-8.11-0.11,1.0,129.0,,,,,,,[],,,,,,53.2,0.0,i,1.0,False,1235.2999999523163,75.0,60.0,40.0,False,,393.6468914433913,[],"[960, 540]",ColorTask,65.0,12.0,,,HRV,HRV_0251,2022-11-30 19:54:17
,wl-rdm,130,444460,0.0-8.12-0.12,1.0,130.0,,,,,,,[],,,,,,56.4,1.0,i,1.0,True,1381.3000001907349,83.0,60.0,40.0,False,,202.63449710280346,[],"[960, 540]",ColorTask,66.0,13.0,,,HRV,HRV_0251,2022-11-30 19:54:17
,wl-rdm,131,447510,0.0-8.13-0.13,1.0,131.0,,,,,,,[],,,,,,53.2,1.0,u,0.0,False,1745.9000000953674,105.0,60.0,40.0,False,,238.25398725942728,[],"[960, 540]",ColorTask,65.0,14.0,,,HRV,HRV_0251,2022-11-30 19:54:17
,wl-rdm,132,450560,0.0-8.14-0.14,1.0,132.0,,,,,,,[],,,,,,50.0,1.0,i,1.0,True,1687.2000000476837,102.0,60.0,40.0,False,,268.6702325646215,[],"[960, 540]",ColorTask,66.0,15.0,,,HRV,HRV_0251,2022-11-30 19:54:17
,wl-rdm,133,453376,0.0-8.15-0.15,1.0,133.0,,,,,,,[],,,,,,53.2,0.0,i,1.0,False,1528.2000000476837,92.0,60.0,40.0,False,,203.9279781011075,[],"[960, 540]",ColorTask,65.0,16.0,,,HRV,HRV_0251,2022-11-30 19:54:17
,wl-rdm,134,456076,0.0-8.16-0.16,1.0,134.0,,,,,,,[],,,,,,53.2,1.0,i,1.0,True,1231.9000000953674,74.0,60.0,40.0,False,,392.7616432113676,[],"[960, 540]",ColorTask,66.0,17.0,,,HRV,HRV_0251,2022-11-30 19:54:17
,wl-rdm,135,458893,0.0-8.17-0.17,1.0,135.0,,,,,,,[],,,,,,56.4,0.0,u,0.0,True,1506.4000000953674,91.0,60.0,40.0,False,,233.4285701602072,[],"[960, 540]",ColorTask,67.0,18.0,,,HRV,HRV_0251,2022-11-30 19:54:17
,wl-rdm,136,461809,0.0-8.18-0.18,1.0,136.0,,,,,,,[],,,,,,62.5,1.0,u,0.0,False,1625.8000001907349,98.0,60.0,40.0,False,,233.19050503194984,[],"[960, 540]",ColorTask,66.0,19.0,,,HRV,HRV_0251,2022-11-30 19:54:17
,wl-rdm,137,464276,0.0-8.19-0.19,1.0,137.0,,,,,,,[],,,,,,56.4,0.0,u,0.0,True,1182.0999999046326,71.0,60.0,40.0,False,,215.34050517748827,[],"[960, 540]",ColorTask,67.0,20.0,,,HRV,HRV_0251,2022-11-30 19:54:17
,wl-rdm,138,467226,0.0-8.20-0.20,1.0,138.0,,,,,,,[],,,,,,56.4,1.0,i,1.0,True,1651.5999999046326,100.0,60.0,40.0,False,,207.44803555269402,[],"[960, 540]",ColorTask,68.0,21.0,,,HRV,HRV_0251,2022-11-30 19:54:17
,wl-rdm,139,469926,0.0-8.21-0.21,1.0,139.0,,,,,,,[],,,,,,73.6,1.0,i,1.0,True,1263.0,76.0,60.0,40.0,False,,376.5457004497578,[],"[960, 540]",ColorTask,69.0,22.0,,,HRV,HRV_0251,2022-11-30 19:54:17
,wl-rdm,140,472560,0.0-8.22-0.22,1.0,140.0,,,,,,,[],,,,,,87.9,1.0,i,1.0,True,1353.2000000476837,82.0,60.0,40.0,False,,211.8537369806148,[],"[960, 540]",ColorTask,70.0,23.0,,,HRV,HRV_0251,2022-11-30 19:54:17
,wl-rdm,141,475443,0.0-8.23-0.23,1.0,141.0,,,,,,,[],,,,,,87.9,1.0,i,1.0,True,1425.2999999523163,86.0,60.0,40.0,False,,390.2007827637026,[],"[960, 540]",ColorTask,71.0,24.0,,,HRV,HRV_0251,2022-11-30 19:54:17
,wl-rdm,142,478459,0.0-8.24-0.24,1.0,142.0,,,,,,,[],,,,,,56.4,0.0,u,0.0,True,1658.7000000476837,100.0,60.0,40.0,False,,273.84532307737277,[],"[960, 540]",ColorTask,72.0,25.0,,,HRV,HRV_0251,2022-11-30 19:54:17
,wl-rdm,143,481410,0.0-8.25-0.25,1.0,143.0,,,,,,,[],,,,,,87.9,0.0,u,0.0,True,1610.3000001907349,97.0,60.0,40.0,False,,265.970798084517,[],"[960, 540]",ColorTask,73.0,26.0,,,HRV,HRV_0251,2022-11-30 19:54:17
,wl-rdm,144,484259,0.0-8.26-0.26,1.0,144.0,,,,,,,[],,,,,,50.0,1.0,i,1.0,True,1367.7999999523163,83.0,60.0,40.0,False,,387.5236603040105,[],"[960, 540]",ColorTask,74.0,27.0,,,HRV,HRV_0251,2022-11-30 19:54:17
,wl-rdm,145,487009,0.0-8.27-0.27,1.0,145.0,,,,,,,[],,,,,,73.6,1.0,i,1.0,True,1319.5,80.0,60.0,40.0,False,,335.4795576561853,[],"[960, 540]",ColorTask,75.0,28.0,,,HRV,HRV_0251,2022-11-30 19:54:17
,wl-rdm,146,489743,0.0-8.28-0.28,1.0,146.0,,,,,,,[],,,,,,87.9,1.0,i,1.0,True,1370.8999998569489,83.0,60.0,40.0,False,,296.68566684055827,[],"[960, 540]",ColorTask,76.0,29.0,,,HRV,HRV_0251,2022-11-30 19:54:17
,wl-rdm,147,492593,0.0-8.29-0.29,1.0,147.0,,,,,,,[],,,,,,53.2,1.0,u,0.0,False,1486.5999999046326,90.0,60.0,40.0,False,,281.9565978714406,[],"[960, 540]",ColorTask,75.0,30.0,,,HRV,HRV_0251,2022-11-30 19:54:17
,wl-rdm,148,495576,0.0-8.30-0.30,1.0,148.0,,,,,,,[],,,,,,56.4,0.0,i,1.0,False,1678.7999999523163,101.0,60.0,40.0,False,,231.0134835719764,[],"[960, 540]",ColorTask,74.0,31.0,,,HRV,HRV_0251,2022-11-30 19:54:17
,wl-rdm,149,497793,0.0-8.31-0.31,1.0,149.0,,,,,,,[],,,,,,87.9,1.0,i,1.0,True,927.9000000953674,56.0,60.0,40.0,False,,223.97834285093197,[],"[960, 540]",ColorTask,75.0,32.0,,,HRV,HRV_0251,2022-11-30 19:54:17
,wl-rdm,150,500476,0.0-8.32-0.32,1.0,150.0,,,,,,,[],,,,,,50.0,1.0,u,0.0,False,1358.0999999046326,82.0,60.0,40.0,False,,244.14167622714294,[],"[960, 540]",ColorTask,74.0,33.0,,,HRV,HRV_0251,2022-11-30 19:54:17
,wl-rdm,151,503342,0.0-8.33-0.33,1.0,151.0,,,,,,,[],,,,,,53.2,1.0,u,0.0,False,1563.4000000953674,94.0,60.0,40.0,False,,230.90920274981252,[],"[960, 540]",ColorTask,73.0,34.0,,,HRV,HRV_0251,2022-11-30 19:54:17
,wl-rdm,152,506225,0.0-8.34-0.34,1.0,152.0,,,,,,,[],,,,,,62.5,0.0,u,0.0,True,1560.1999998092651,94.0,60.0,40.0,False,,238.60925960329592,[],"[960, 540]",ColorTask,74.0,35.0,,,HRV,HRV_0251,2022-11-30 19:54:17
,wl-rdm,153,509242,0.0-8.35-0.35,1.0,153.0,,,,,,,[],,,,,,56.4,1.0,i,1.0,True,1626.6000001430511,98.0,60.0,40.0,False,,308.6230442606233,[],"[960, 540]",ColorTask,75.0,36.0,,,HRV,HRV_0251,2022-11-30 19:54:17
,wl-rdm,154,512275,0.0-8.36-0.36,1.0,154.0,,,,,,,[],,,,,,56.4,0.0,i,1.0,False,1558.3999998569489,94.0,60.0,40.0,False,,385.6817916803949,[],"[960, 540]",ColorTask,74.0,37.0,,,HRV,HRV_0251,2022-11-30 19:54:17
,wl-rdm,155,515109,0.0-8.37-0.37,1.0,155.0,,,,,,,[],,,,,,50.0,0.0,i,1.0,False,1456.7999999523163,88.0,60.0,40.0,False,,290.2770890795816,[],"[960, 540]",ColorTask,73.0,38.0,,,HRV,HRV_0251,2022-11-30 19:54:17
,wl-rdm,156,517526,0.0-8.38-0.38,1.0,156.0,,,,,,,[],,,,,,87.9,1.0,i,1.0,True,1139.4000000953674,69.0,60.0,40.0,False,,205.31085539163698,[],"[960, 540]",ColorTask,74.0,39.0,,,HRV,HRV_0251,2022-11-30 19:54:17
,wl-rdm,157,520142,0.0-8.39-0.39,1.0,157.0,,,,,,,[],,,,,,62.5,0.0,u,0.0,True,1247.6000001430511,75.0,60.0,40.0,False,,293.0085269237065,[],"[960, 540]",ColorTask,75.0,40.0,,,HRV,HRV_0251,2022-11-30 19:54:17
,wl-rdm,158,523258,0.0-8.40-0.40,1.0,158.0,,,,,,,[],,,,,,62.5,1.0,u,0.0,False,1684.4000000953674,102.0,60.0,40.0,False,,335.7419906657823,[],"[960, 540]",ColorTask,74.0,41.0,,,HRV,HRV_0251,2022-11-30 19:54:17
,wl-rdm,159,526009,0.0-8.41-0.41,1.0,159.0,,,,,,,[],,,,,,56.4,1.0,i,1.0,True,1286.1000001430511,78.0,60.0,40.0,False,,387.2959372633028,[],"[960, 540]",ColorTask,75.0,42.0,,,HRV,HRV_0251,2022-11-30 19:54:17
,wl-rdm,160,529275,0.0-8.42-0.42,1.0,160.0,,,,,,,[],,,,,,53.2,0.0,u,0.0,True,1808.3999998569489,109.0,60.0,40.0,False,,371.13855383186154,[],"[960, 540]",ColorTask,76.0,43.0,,,HRV,HRV_0251,2022-11-30 19:54:17
,wl-rdm,161,532692,0.0-8.43-0.43,1.0,161.0,,,,,,,[],,,,,,56.4,1.0,i,1.0,True,1949.7999999523163,117.0,60.0,40.0,False,,396.1898661887952,[],"[960, 540]",ColorTask,77.0,44.0,,,HRV,HRV_0251,2022-11-30 19:54:17
,wl-rdm,162,535408,0.0-8.44-0.44,1.0,162.0,,,,,,,[],,,,,,87.9,0.0,u,0.0,True,1303.6000001430511,79.0,60.0,40.0,False,,320.96986790277856,[],"[960, 540]",ColorTask,78.0,45.0,,,HRV,HRV_0251,2022-11-30 19:54:17
,wl-rdm,163,537909,0.0-8.45-0.45,1.0,163.0,,,,,,,[],,,,,,87.9,0.0,u,0.0,True,1198.0999999046326,72.0,60.0,40.0,False,,241.12557727062682,[],"[960, 540]",ColorTask,79.0,46.0,,,HRV,HRV_0251,2022-11-30 19:54:17
,wl-rdm,164,540042,0.0-8.46-0.46,1.0,164.0,,,,,,,[],,,,,,87.9,0.0,u,0.0,True,785.1999998092651,48.0,60.0,40.0,False,,275.0381712373345,[],"[960, 540]",ColorTask,80.0,47.0,,,HRV,HRV_0251,2022-11-30 19:54:17
,wl-rdm,165,542658,0.0-8.47-0.47,1.0,165.0,,,,,,,[],,,,,,56.4,1.0,i,1.0,True,1318.2999999523163,80.0,60.0,40.0,False,,211.77246674063008,[],"[960, 540]",ColorTask,81.0,48.0,,,HRV,HRV_0251,2022-11-30 19:54:17
,wl-rdm,166,545575,0.0-8.48-0.48,1.0,166.0,,,,,,,[],,,,,,62.5,1.0,i,1.0,True,1480.0,89.0,60.0,40.0,False,,357.1324702222794,[],"[960, 540]",ColorTask,82.0,49.0,,,HRV,HRV_0251,2022-11-30 19:54:17
,wl-rdm,167,547675,0.0-8.49-0.49,1.0,167.0,,,,,,,[],,,,,,73.6,0.0,u,0.0,True,775.6999998092651,47.0,60.0,40.0,False,,245.9251227943986,[],"[960, 540]",ColorTask,83.0,50.0,,,HRV,HRV_0251,2022-11-30 19:54:17
,wl-rdm,168,550258,0.0-8.50-0.50,1.0,168.0,,,,,,,[],,,,,,53.2,0.0,i,1.0,False,1142.7000000476837,69.0,60.0,40.0,False,,370.97768469771677,[],"[960, 540]",ColorTask,82.0,51.0,,,HRV,HRV_0251,2022-11-30 19:54:17
,wl-rdm,169,552775,0.0-8.51-0.51,1.0,169.0,,,,,,,[],,,,,,50.0,1.0,u,0.0,False,1079.5999999046326,65.0,60.0,40.0,False,,357.45403812842017,[],"[960, 540]",ColorTask,81.0,52.0,,,HRV,HRV_0251,2022-11-30 19:54:17
,wl-rdm,170,555508,0.0-8.52-0.52,1.0,170.0,,,,,,,[],,,,,,56.4,0.0,u,0.0,True,1449.2999999523163,87.0,60.0,40.0,False,,212.51179612275777,[],"[960, 540]",ColorTask,82.0,53.0,,,HRV,HRV_0251,2022-11-30 19:54:17
,wl-rdm,171,557791,0.0-8.53-0.53,1.0,171.0,,,,,,,[],,,,,,73.6,1.0,i,1.0,True,846.2999999523163,51.0,60.0,40.0,False,,365.84097213707776,[],"[960, 540]",ColorTask,83.0,54.0,,,HRV,HRV_0251,2022-11-30 19:54:17
,wl-rdm,172,559941,0.0-8.54-0.54,1.0,172.0,,,,,,,[],,,,,,87.9,0.0,u,0.0,True,806.7999999523163,49.0,60.0,40.0,False,,256.1380627402962,[],"[960, 540]",ColorTask,84.0,55.0,,,HRV,HRV_0251,2022-11-30 19:54:17
,wl-rdm,173,562158,0.0-8.55-0.55,1.0,173.0,,,,,,,[],,,,,,73.6,1.0,i,1.0,True,905.5999999046326,55.0,60.0,40.0,False,,244.9734130406775,[],"[960, 540]",ColorTask,85.0,56.0,,,HRV,HRV_0251,2022-11-30 19:54:17
,wl-rdm,174,565025,0.0-8.56-0.56,1.0,174.0,,,,,,,[],,,,,,50.0,0.0,u,0.0,True,1553.0,94.0,60.0,40.0,False,,233.79729373276007,[],"[960, 540]",ColorTask,86.0,57.0,,,HRV,HRV_0251,2022-11-30 19:54:17
,wl-rdm,175,567674,0.0-8.57-0.57,1.0,175.0,,,,,,,[],,,,,,73.6,0.0,u,0.0,True,1267.7000000476837,77.0,60.0,40.0,False,,293.0208449107953,[],"[960, 540]",ColorTask,87.0,58.0,,,HRV,HRV_0251,2022-11-30 19:54:17
,wl-rdm,176,571108,0.0-8.58-0.58,1.0,176.0,,,,,,,[],,,,,,56.4,0.0,i,1.0,False,2041.4000000953674,123.0,60.0,40.0,False,,318.7946710976145,[],"[960, 540]",ColorTask,86.0,59.0,,,HRV,HRV_0251,2022-11-30 19:54:17
,wl-rdm,177,573958,0.0-8.59-0.59,1.0,177.0,,,,,,,[],,,,,,73.6,0.0,i,1.0,False,1438.9000000953674,87.0,60.0,40.0,False,,334.74719981470565,[],"[960, 540]",ColorTask,85.0,60.0,,,HRV,HRV_0251,2022-11-30 19:54:17
,wl-rdm,178,576857,0.0-8.60-0.60,1.0,178.0,,,,,,,[],,,,,,56.4,1.0,i,1.0,True,1593.8000001907349,96.0,60.0,40.0,False,,221.70879250298967,[],"[960, 540]",ColorTask,86.0,61.0,,,HRV,HRV_0251,2022-11-30 19:54:17
,wl-rdm,179,579141,0.0-8.61-0.61,1.0,179.0,,,,,,,[],,,,,,73.6,0.0,u,0.0,True,914.4000000953674,55.0,60.0,40.0,False,,302.42585324255634,[],"[960, 540]",ColorTask,87.0,62.0,,,HRV,HRV_0251,2022-11-30 19:54:17
,wl-rdm,180,582144,0.0-8.62-0.62,1.0,180.0,,,,,,,[],,,,,,53.2,1.0,u,0.0,False,1597.8000001907349,96.0,60.0,40.0,False,,347.11427227866596,[],"[960, 540]",ColorTask,86.0,63.0,,,HRV,HRV_0251,2022-11-30 19:54:17
,wl-rdm,181,584291,0.0-8.63-0.63,1.0,181.0,,,,,,,[],,,,,,87.9,1.0,i,1.0,True,867.1999998092651,53.0,60.0,40.0,False,,216.56416157164108,[],"[960, 540]",ColorTask,87.0,64.0,,,HRV,HRV_0251,2022-11-30 19:54:17
,wl-rdm,182,586941,0.0-8.64-0.64,1.0,182.0,,,,,,,[],,,,,,73.6,0.0,u,0.0,True,1190.3999998569489,72.0,60.0,40.0,False,,375.9496793207014,[],"[960, 540]",ColorTask,88.0,65.0,,,HRV,HRV_0251,2022-11-30 19:54:17
,wl-rdm,183,589057,0.0-8.65-0.65,1.0,183.0,,,,,,,[],,,,,,87.9,1.0,i,1.0,True,810.7000000476837,49.0,60.0,40.0,False,,227.53410269578364,[],"[960, 540]",ColorTask,89.0,66.0,,,HRV,HRV_0251,2022-11-30 19:54:17
,wl-rdm,184,591341,0.0-8.66-0.66,1.0,184.0,,,,,,,[],,,,,,87.9,0.0,u,0.0,True,998.0,60.0,60.0,40.0,False,,228.25646754423892,[],"[960, 540]",ColorTask,90.0,67.0,,,HRV,HRV_0251,2022-11-30 19:54:17
,wl-rdm,185,593874,0.0-8.67-0.67,1.0,185.0,,,,,,,[],,,,,,50.0,0.0,i,1.0,False,1143.3000001907349,69.0,60.0,40.0,False,,313.19069174123786,[],"[960, 540]",ColorTask,89.0,68.0,,,HRV,HRV_0251,2022-11-30 19:54:17
,wl-rdm,186,596124,0.0-8.68-0.68,1.0,186.0,,,,,,,[],,,,,,50.0,0.0,i,1.0,False,866.9000000953674,53.0,60.0,40.0,False,,289.8986813302801,[],"[960, 540]",ColorTask,88.0,69.0,,,HRV,HRV_0251,2022-11-30 19:54:17
,wl-rdm,187,599124,0.0-8.69-0.69,1.0,187.0,,,,,,,[],,,,,,53.2,0.0,u,0.0,True,1650.9000000953674,100.0,60.0,40.0,False,,256.803913001726,[],"[960, 540]",ColorTask,89.0,70.0,,,HRV,HRV_0251,2022-11-30 19:54:17
,wl-rdm,188,601724,0.0-8.70-0.70,1.0,188.0,,,,,,,[],,,,,,62.5,1.0,i,1.0,True,1199.4000000953674,72.0,60.0,40.0,False,,329.4876190388279,[],"[960, 540]",ColorTask,90.0,71.0,,,HRV,HRV_0251,2022-11-30 19:54:17
,wl-rdm,189,604057,0.0-8.71-0.71,1.0,189.0,,,,,,,[],,,,,,50.0,1.0,i,1.0,True,969.2000000476837,59.0,60.0,40.0,False,,291.7719888176167,[],"[960, 540]",ColorTask,91.0,72.0,,,HRV,HRV_0251,2022-11-30 19:54:17
,wl-rdm,190,606857,0.0-8.72-0.72,1.0,190.0,,,,,,,[],,,,,,53.2,0.0,i,1.0,False,1336.5,81.0,60.0,40.0,False,,378.6582037384859,[],"[960, 540]",ColorTask,90.0,73.0,,,HRV,HRV_0251,2022-11-30 19:54:17
,wl-rdm,191,609324,0.0-8.73-0.73,1.0,191.0,,,,,,,[],,,,,,73.6,1.0,i,1.0,True,1115.5999999046326,67.0,60.0,40.0,False,,288.3401718631209,[],"[960, 540]",ColorTask,91.0,74.0,,,HRV,HRV_0251,2022-11-30 19:54:17
,wl-rdm,192,611673,0.0-8.74-0.74,1.0,192.0,,,,,,,[],,,,,,73.6,0.0,u,0.0,True,977.0,59.0,60.0,40.0,False,,297.64679279612443,[],"[960, 540]",ColorTask,92.0,75.0,,,HRV,HRV_0251,2022-11-30 19:54:17
,wl-rdm,193,614157,0.0-8.75-0.75,1.0,193.0,,,,,,,[],,,,,,62.5,1.0,i,1.0,True,1024.0,62.0,60.0,40.0,False,,370.9723827175766,[],"[960, 540]",ColorTask,93.0,76.0,,,HRV,HRV_0251,2022-11-30 19:54:17
,wl-rdm,194,617123,0.0-8.76-0.76,1.0,194.0,,,,,,,[],,,,,,50.0,0.0,i,1.0,False,1525.2000000476837,92.0,60.0,40.0,False,,362.8740667072642,[],"[960, 540]",ColorTask,92.0,77.0,,,HRV,HRV_0251,2022-11-30 19:54:17
,wl-rdm,195,619907,0.0-8.77-0.77,1.0,195.0,,,,,,,[],,,,,,50.0,1.0,i,1.0,True,1308.7000000476837,79.0,60.0,40.0,False,,387.1476775195763,[],"[960, 540]",ColorTask,93.0,78.0,,,HRV,HRV_0251,2022-11-30 19:54:17
,wl-rdm,196,622373,0.0-8.78-0.78,1.0,196.0,,,,,,,[],,,,,,56.4,0.0,u,0.0,True,1139.2000000476837,69.0,60.0,40.0,False,,254.59232709746283,[],"[960, 540]",ColorTask,94.0,79.0,,,HRV,HRV_0251,2022-11-30 19:54:17
,wl-rdm,197,624773,0.0-8.79-0.79,1.0,197.0,,,,,,,[],,,,,,53.2,1.0,u,0.0,False,1006.9000000953674,61.0,60.0,40.0,False,,300.2325807425738,[],"[960, 540]",ColorTask,93.0,80.0,,,HRV,HRV_0251,2022-11-30 19:54:17
,wl-rdm,198,626956,0.0-8.80-0.80,1.0,198.0,,,,,,,[],,,,,,73.6,1.0,i,1.0,True,865.1999998092651,52.0,60.0,40.0,False,,240.1131879224427,[],"[960, 540]",ColorTask,94.0,81.0,,,HRV,HRV_0251,2022-11-30 19:54:17
,wl-rdm,199,629273,0.0-8.81-0.81,1.0,199.0,,,,,,,[],,,,,,87.9,1.0,i,1.0,True,936.0,57.0,60.0,40.0,False,,290.1582230312287,[],"[960, 540]",ColorTask,95.0,82.0,,,HRV,HRV_0251,2022-11-30 19:54:17
,wl-rdm,200,631690,0.0-8.82-0.82,1.0,200.0,,,,,,,[],,,,,,73.6,1.0,i,1.0,True,1134.9000000953674,69.0,60.0,40.0,False,,200.26556642515547,[],"[960, 540]",ColorTask,96.0,83.0,,,HRV,HRV_0251,2022-11-30 19:54:17
,wl-rdm,201,634140,0.0-8.83-0.83,1.0,201.0,,,,,,,[],,,,,,62.5,0.0,i,1.0,False,1015.7999999523163,61.0,60.0,40.0,False,,353.22797102002124,[],"[960, 540]",ColorTask,95.0,84.0,,,HRV,HRV_0251,2022-11-30 19:54:17
,wl-rdm,202,636840,0.0-8.84-0.84,1.0,202.0,,,,,,,[],,,,,,62.5,0.0,u,0.0,True,1245.7999999523163,75.0,60.0,40.0,False,,377.62036208868096,[],"[960, 540]",ColorTask,96.0,85.0,,,HRV,HRV_0251,2022-11-30 19:54:17
,wl-rdm,203,639006,0.0-8.85-0.85,1.0,203.0,,,,,,,[],,,,,,73.6,0.0,u,0.0,True,772.2000000476837,47.0,60.0,40.0,False,,316.1053740513526,[],"[960, 540]",ColorTask,97.0,86.0,,,HRV,HRV_0251,2022-11-30 19:54:17
,wl-rdm,204,641440,0.0-8.86-0.86,1.0,204.0,,,,,,,[],,,,,,62.5,1.0,i,1.0,True,1104.2999999523163,67.0,60.0,40.0,False,,248.88600782231978,[],"[960, 540]",ColorTask,98.0,87.0,,,HRV,HRV_0251,2022-11-30 19:54:17
,wl-rdm,205,643923,0.0-8.87-0.87,1.0,205.0,,,,,,,[],,,,,,87.9,1.0,i,1.0,True,1133.4000000953674,68.0,60.0,40.0,False,,272.8725098429826,[],"[960, 540]",ColorTask,99.0,88.0,,,HRV,HRV_0251,2022-11-30 19:54:17
,wl-rdm,206,646440,0.0-8.88-0.88,1.0,206.0,,,,,,,[],,,,,,50.0,1.0,i,1.0,True,1194.9000000953674,72.0,60.0,40.0,False,,255.241246313261,[],"[960, 540]",ColorTask,100.0,89.0,,,HRV,HRV_0251,2022-11-30 19:54:17
,wl-rdm,207,648806,0.0-8.89-0.89,1.0,207.0,,,,,,,[],,,,,,62.5,1.0,i,1.0,True,1080.7999999523163,65.0,60.0,40.0,False,,202.67956849047442,[],"[960, 540]",ColorTask,101.0,90.0,,,HRV,HRV_0251,2022-11-30 19:54:17
,wl-rdm,208,651457,0.0-8.90-0.90,1.0,208.0,,,,,,,[],,,,,,62.5,0.0,u,0.0,True,1211.0999999046326,73.0,60.0,40.0,False,,380.4863614244913,[],"[960, 540]",ColorTask,102.0,91.0,,,HRV,HRV_0251,2022-11-30 19:54:17
,wl-rdm,209,654089,0.0-8.91-0.91,1.0,209.0,,,,,,,[],,,,,,73.6,0.0,u,0.0,True,1243.5999999046326,75.0,60.0,40.0,False,,306.56283370214055,[],"[960, 540]",ColorTask,103.0,92.0,,,HRV,HRV_0251,2022-11-30 19:54:17
,wl-rdm,210,657356,0.0-8.92-0.92,1.0,210.0,,,,,,,[],,,,,,50.0,0.0,i,1.0,False,1965.5,118.0,60.0,40.0,False,,248.4066597685114,[],"[960, 540]",ColorTask,102.0,93.0,,,HRV,HRV_0251,2022-11-30 19:54:17
,wl-rdm,211,659989,0.0-8.93-0.93,1.0,211.0,,,,,,,[],,,,,,56.4,0.0,i,1.0,False,1257.2000000476837,76.0,60.0,40.0,False,,292.32239266698605,[],"[960, 540]",ColorTask,101.0,94.0,,,HRV,HRV_0251,2022-11-30 19:54:17
,wl-rdm,212,662489,0.0-8.94-0.94,1.0,212.0,,,,,,,[],,,,,,62.5,1.0,i,1.0,True,1177.0,71.0,60.0,40.0,False,,246.7682501218893,[],"[960, 540]",ColorTask,102.0,95.0,,,HRV,HRV_0251,2022-11-30 19:54:17
,wl-rdm,213,665089,0.0-8.95-0.95,1.0,213.0,,,,,,,[],,,,,,73.6,1.0,i,1.0,True,1169.7000000476837,71.0,60.0,40.0,False,,349.5309802336144,[],"[960, 540]",ColorTask,103.0,96.0,,,HRV,HRV_0251,2022-11-30 19:54:17
,wl-rdm,214,667872,0.0-8.96-0.96,1.0,214.0,,,,,,,[],,,,,,53.2,0.0,u,0.0,True,1470.1000001430511,89.0,60.0,40.0,False,,218.44594314163245,[],"[960, 540]",ColorTask,104.0,97.0,,,HRV,HRV_0251,2022-11-30 19:54:17
,wl-rdm,215,670389,0.0-8.97-0.97,1.0,215.0,,,,,,,[],,,,,,73.6,0.0,u,0.0,True,1114.7999999523163,67.0,60.0,40.0,False,,327.35328767152714,[],"[960, 540]",ColorTask,105.0,98.0,,,HRV,HRV_0251,2022-11-30 19:54:17
,wl-rdm,216,673589,0.0-8.98-0.98,1.0,216.0,,,,,,,[],,,,,,53.2,0.0,i,1.0,False,1756.2999999523163,106.0,60.0,40.0,False,,379.66024891741296,[],"[960, 540]",ColorTask,104.0,99.0,,,HRV,HRV_0251,2022-11-30 19:54:17
,wl-rdm,217,676556,0.0-8.99-0.99,1.0,217.0,,,,,,,[],,,,,,50.0,1.0,u,0.0,False,1699.0,102.0,60.0,40.0,False,,201.24416686940032,[],"[960, 540]",ColorTask,103.0,100.0,,,HRV,HRV_0251,2022-11-30 19:54:17
,wl-rdm,218,679239,0.0-8.100-0.100,1.0,218.0,,,,,,,[],,,,,,62.5,1.0,i,1.0,True,1212.9999997615814,73.0,60.0,40.0,False,,395.21318069238873,[],"[960, 540]",ColorTask,104.0,101.0,,,HRV,HRV_0251,2022-11-30 19:54:17
,wl-rdm,219,681823,0.0-8.101-0.101,1.0,219.0,,,,,,,[],,,,,,62.5,0.0,u,0.0,True,1255.3999998569489,76.0,60.0,40.0,False,,257.47494301079075,[],"[960, 540]",ColorTask,105.0,102.0,,,HRV,HRV_0251,2022-11-30 19:54:17
,wl-rdm,220,684522,0.0-8.102-0.102,1.0,220.0,,,,,,,[],,,,,,50.0,0.0,i,1.0,False,1334.9000000953674,81.0,60.0,40.0,False,,279.2768219307878,[],"[960, 540]",ColorTask,104.0,103.0,,,HRV,HRV_0251,2022-11-30 19:54:17
,wl-rdm,221,687622,0.0-8.103-0.103,1.0,221.0,,,,,,,[],,,,,,62.5,0.0,u,0.0,True,1779.9000000953674,107.0,60.0,40.0,False,,264.60080259548613,[],"[960, 540]",ColorTask,105.0,104.0,,,HRV,HRV_0251,2022-11-30 19:54:17
,wl-rdm,222,690289,0.0-8.104-0.104,1.0,222.0,,,,,,,[],,,,,,87.9,0.0,u,0.0,True,1320.2000000476837,80.0,60.0,40.0,False,,257.75563045128035,[],"[960, 540]",ColorTask,106.0,105.0,,,HRV,HRV_0251,2022-11-30 19:54:17
,wl-rdm,223,693089,0.0-8.105-0.105,1.0,223.0,,,,,,,[],,,,,,87.9,0.0,u,0.0,True,1461.6000001430511,88.0,60.0,40.0,False,,257.7143170101373,[],"[960, 540]",ColorTask,107.0,106.0,,,HRV,HRV_0251,2022-11-30 19:54:17
,wl-rdm,224,695889,0.0-8.106-0.106,1.0,224.0,,,,,,,[],,,,,,50.0,0.0,u,0.0,True,1493.7000000476837,90.0,60.0,40.0,False,,247.53761428294632,[],"[960, 540]",ColorTask,108.0,107.0,,,HRV,HRV_0251,2022-11-30 19:54:17
,wl-rdm,225,698706,0.0-8.107-0.107,1.0,225.0,,,,,,,[],,,,,,53.2,1.0,u,0.0,False,1518.8000001907349,92.0,60.0,40.0,False,,226.8745024442857,[],"[960, 540]",ColorTask,107.0,108.0,,,HRV,HRV_0251,2022-11-30 19:54:17
,wl-html-button-response,226,702789,0.0-9.0-0.0,,,,,,,,,,4081.2000000476837,,0,,,,,,,,,,,,,,,,,,,,<h3>End of this session. Thank you!</h3><br>,['Close window'],HRV,HRV_0251,2022-11-30 19:54:17
