trialN,stimuli,trialStartTime,trialStartTime_UNIX,stimulus1,stimulus2,stimulus1Bid,stimulus2Bid,delta,selected,rt,rt_UNIX,rt_perfnow,receivedResponse,rsp,trialEndTime,trialDuration,trialEndTime_UNIX,trialDuration_UNIX,exp,subjectId,date
0,"[{'imgObject': {}, 'id': 'blueberries', 'src': '/static/foodstim60/blueberries.jpg', 'key': 'u', 'origWidth': 411, 'origHeight': 411, 'width': 411, 'height': 411, 'widthPercent': 0.45, 'rescaleHeight': False, 'trialN': 0, 'loaded': True, 'loadedTime': 7427.9000000059605, 'positionName': 'LEFT', 'positionCoords': [326.28, 226.5], 'bid': 4.54}, {'imgObject': {}, 'id': 'roastedpotatoes', 'src': '/static/foodstim60/roastedpotatoes.jpg', 'key': 'i', 'origWidth': 409, 'origHeight': 410, 'width': 409, 'height': 410, 'widthPercent': 0.45, 'rescaleHeight': False, 'trialN': 0, 'loaded': True, 'loadedTime': 7636.100000023842, 'positionName': 'RIGHT', 'positionCoords': [798.72, 227], 'bid': 7.1000000000000005}]",9133.800000011921,1669834915768,blueberries,roastedpotatoes,4.54,7.1000000000000005,2.5600000000000005,blueberries,1587.199999988079,1589,1588.300000011921,True,u,11228.700000017881,2094.9000000059605,1669834917863,2095,HRV,HRV_0221,2022-11-30 19:07:45
1,"[{'imgObject': {}, 'id': 'chicken nuggets2', 'src': '/static/foodstim60/chicken nuggets2.jpg', 'key': 'u', 'origWidth': 410, 'origHeight': 409, 'width': 410, 'height': 409, 'widthPercent': 0.45, 'rescaleHeight': False, 'trialN': 1, 'loaded': True, 'loadedTime': 7696, 'positionName': 'LEFT', 'positionCoords': [327.28, 227.5], 'bid': 9.96}, {'imgObject': {}, 'id': 'eggsalad', 'src': '/static/foodstim60/eggsalad.jpg', 'key': 'i', 'origWidth': 410, 'origHeight': 409, 'width': 410, 'height': 409, 'widthPercent': 0.45, 'rescaleHeight': False, 'trialN': 1, 'loaded': True, 'loadedTime': 7711.5, 'positionName': 'RIGHT', 'positionCoords': [798.72, 227.5], 'bid': 0.14}]",11229.100000023842,1669834917864,chicken nuggets2,eggsalad,9.96,0.14,-9.82,chicken nuggets2,892.7999999821186,893,893.5999999940395,True,u,12627.600000023842,1398.5,1669834919262,1398,HRV,HRV_0221,2022-11-30 19:07:45
2,"[{'imgObject': {}, 'id': 'rigatoni and sauce', 'src': '/static/foodstim60/rigatoni and sauce.jpg', 'key': 'u', 'origWidth': 410, 'origHeight': 411, 'width': 410, 'height': 411, 'widthPercent': 0.45, 'rescaleHeight': False, 'trialN': 2, 'loaded': True, 'loadedTime': 7717.600000023842, 'positionName': 'LEFT', 'positionCoords': [327.28, 226.5], 'bid': 1.56}, {'imgObject': {}, 'id': 'hashbrowns', 'src': '/static/foodstim60/hashbrowns.jpg', 'key': 'i', 'origWidth': 411, 'origHeight': 410, 'width': 411, 'height': 410, 'widthPercent': 0.45, 'rescaleHeight': False, 'trialN': 2, 'loaded': True, 'loadedTime': 7951.100000023842, 'positionName': 'RIGHT', 'positionCoords': [798.72, 227], 'bid': 1.62}]",12628.0,1669834919262,rigatoni and sauce,hashbrowns,1.56,1.62,0.06000000000000005,rigatoni and sauce,1866.2000000178814,1868,1867.4000000059605,True,u,14996.600000023842,2368.600000023842,1669834921631,2369,HRV,HRV_0221,2022-11-30 19:07:45
3,"[{'imgObject': {}, 'id': 'froot loops w milk', 'src': '/static/foodstim60/froot loops w milk.jpg', 'key': 'u', 'origWidth': 410, 'origHeight': 410, 'width': 410, 'height': 410, 'widthPercent': 0.45, 'rescaleHeight': False, 'trialN': 3, 'loaded': True, 'loadedTime': 7986.300000011921, 'positionName': 'LEFT', 'positionCoords': [327.28, 227], 'bid': 0.11}, {'imgObject': {}, 'id': 'mac & cheese', 'src': '/static/foodstim60/mac & cheese.jpg', 'key': 'i', 'origWidth': 410, 'origHeight': 410, 'width': 410, 'height': 410, 'widthPercent': 0.45, 'rescaleHeight': False, 'trialN': 3, 'loaded': True, 'loadedTime': 8011.700000017881, 'positionName': 'RIGHT', 'positionCoords': [798.72, 227], 'bid': 0.2}]",14997.40000000596,1669834921632,froot loops w milk,mac & cheese,0.11,0.2,0.09000000000000001,mac & cheese,969.7000000178814,971,971.0,True,i,16475.70000001788,1478.300000011921,1669834923110,1478,HRV,HRV_0221,2022-11-30 19:07:45
4,"[{'imgObject': {}, 'id': 'bagel plain', 'src': '/static/foodstim60/bagel plain.jpg', 'key': 'u', 'origWidth': 410, 'origHeight': 410, 'width': 410, 'height': 410, 'widthPercent': 0.45, 'rescaleHeight': False, 'trialN': 4, 'loaded': True, 'loadedTime': 8014.300000011921, 'positionName': 'LEFT', 'positionCoords': [327.28, 227], 'bid': 9.8}, {'imgObject': {}, 'id': 'grilled chicken strips', 'src': '/static/foodstim60/grilled chicken strips.jpg', 'key': 'i', 'origWidth': 410, 'origHeight': 411, 'width': 410, 'height': 411, 'widthPercent': 0.45, 'rescaleHeight': False, 'trialN': 4, 'loaded': True, 'loadedTime': 8100.5, 'positionName': 'RIGHT', 'positionCoords': [798.72, 226.5], 'bid': 7.83}]",16476.30000001192,1669834923111,bagel plain,grilled chicken strips,9.8,7.83,-1.9700000000000006,grilled chicken strips,902.6999999880791,903,903.3000000119209,True,i,17884.600000023842,1408.300000011921,1669834924519,1408,HRV,HRV_0221,2022-11-30 19:07:45
5,"[{'imgObject': {}, 'id': 'baked potato', 'src': '/static/foodstim60/baked potato.jpg', 'key': 'u', 'origWidth': 409, 'origHeight': 410, 'width': 409, 'height': 410, 'widthPercent': 0.45, 'rescaleHeight': False, 'trialN': 5, 'loaded': True, 'loadedTime': 8161.4000000059605, 'positionName': 'LEFT', 'positionCoords': [328.28, 227], 'bid': 8.85}, {'imgObject': {}, 'id': 'veggieswithdip', 'src': '/static/foodstim60/veggieswithdip.jpg', 'key': 'i', 'origWidth': 409, 'origHeight': 409, 'width': 409, 'height': 409, 'widthPercent': 0.45, 'rescaleHeight': False, 'trialN': 5, 'loaded': True, 'loadedTime': 8264.700000017881, 'positionName': 'RIGHT', 'positionCoords': [798.72, 227.5], 'bid': 9.9}]",17885.0,1669834924519,baked potato,veggieswithdip,8.85,9.9,1.0500000000000007,veggieswithdip,746.6000000238419,748,747.3000000119209,True,i,19132.600000023842,1247.6000000238419,1669834925767,1248,HRV,HRV_0221,2022-11-30 19:07:45
6,"[{'imgObject': {}, 'id': 'mashed potato', 'src': '/static/foodstim60/mashed potato.jpg', 'key': 'u', 'origWidth': 409, 'origHeight': 409, 'width': 409, 'height': 409, 'widthPercent': 0.45, 'rescaleHeight': False, 'trialN': 6, 'loaded': True, 'loadedTime': 8281.40000000596, 'positionName': 'LEFT', 'positionCoords': [328.28, 227.5], 'bid': 6.87}, {'imgObject': {}, 'id': 'cantaloupe', 'src': '/static/foodstim60/cantaloupe.jpg', 'key': 'i', 'origWidth': 409, 'origHeight': 409, 'width': 409, 'height': 409, 'widthPercent': 0.45, 'rescaleHeight': False, 'trialN': 6, 'loaded': True, 'loadedTime': 8282.90000000596, 'positionName': 'RIGHT', 'positionCoords': [798.72, 227.5], 'bid': 0.2}]",19133.100000023842,1669834925768,mashed potato,cantaloupe,6.87,0.2,-6.67,mashed potato,1033,1034,1034.0,True,u,20668.5,1535.3999999761581,1669834927303,1535,HRV,HRV_0221,2022-11-30 19:07:45
7,"[{'imgObject': {}, 'id': 'mango', 'src': '/static/foodstim60/mango.jpg', 'key': 'u', 'origWidth': 411, 'origHeight': 411, 'width': 411, 'height': 411, 'widthPercent': 0.45, 'rescaleHeight': False, 'trialN': 7, 'loaded': True, 'loadedTime': 8305.90000000596, 'positionName': 'LEFT', 'positionCoords': [326.28, 226.5], 'bid': 0.1}, {'imgObject': {}, 'id': 'Grapes', 'src': '/static/foodstim60/Grapes.jpg', 'key': 'i', 'origWidth': 411, 'origHeight': 411, 'width': 411, 'height': 411, 'widthPercent': 0.45, 'rescaleHeight': False, 'trialN': 7, 'loaded': True, 'loadedTime': 8329, 'positionName': 'RIGHT', 'positionCoords': [798.72, 226.5], 'bid': 0.05}]",20668.70000001788,1669834927303,mango,Grapes,0.1,0.05,-0.05,Grapes,1244.0999999940395,1245,1244.699999988079,True,i,22420.600000023842,1751.9000000059605,1669834929055,1752,HRV,HRV_0221,2022-11-30 19:07:45
8,"[{'imgObject': {}, 'id': 'luckycharms', 'src': '/static/foodstim60/luckycharms.jpg', 'key': 'u', 'origWidth': 410, 'origHeight': 409, 'width': 410, 'height': 409, 'widthPercent': 0.45, 'rescaleHeight': False, 'trialN': 8, 'loaded': True, 'loadedTime': 8330.600000023842, 'positionName': 'LEFT', 'positionCoords': [327.28, 227.5], 'bid': 0}, {'imgObject': {}, 'id': 'hashbrowns', 'src': '/static/foodstim60/hashbrowns.jpg', 'key': 'i', 'origWidth': 411, 'origHeight': 410, 'width': 411, 'height': 410, 'widthPercent': 0.45, 'rescaleHeight': False, 'trialN': 8, 'loaded': True, 'loadedTime': 7956.100000023842, 'positionName': 'RIGHT', 'positionCoords': [798.72, 227], 'bid': 1.62}]",22420.80000001192,1669834929055,luckycharms,hashbrowns,0.0,1.62,1.62,luckycharms,856.1999999880791,857,857.0999999940395,True,u,23781.70000001788,1360.9000000059605,1669834930416,1361,HRV,HRV_0221,2022-11-30 19:07:45
9,"[{'imgObject': {}, 'id': 'roastedpotatoes', 'src': '/static/foodstim60/roastedpotatoes.jpg', 'key': 'u', 'origWidth': 409, 'origHeight': 410, 'width': 409, 'height': 410, 'widthPercent': 0.45, 'rescaleHeight': False, 'trialN': 9, 'loaded': True, 'loadedTime': 7632.200000017881, 'positionName': 'LEFT', 'positionCoords': [328.28, 227], 'bid': 7.1000000000000005}, {'imgObject': {}, 'id': 'turkeysandwich', 'src': '/static/foodstim60/turkeysandwich.jpg', 'key': 'i', 'origWidth': 409, 'origHeight': 409, 'width': 409, 'height': 409, 'widthPercent': 0.45, 'rescaleHeight': False, 'trialN': 9, 'loaded': True, 'loadedTime': 8382.300000011921, 'positionName': 'RIGHT', 'positionCoords': [798.72, 227.5], 'bid': 9.79}]",23782.0,1669834930416,roastedpotatoes,turkeysandwich,7.1000000000000005,9.79,2.6899999999999986,turkeysandwich,967.3000000119209,969,968.2000000178814,True,i,25252.80000001192,1470.800000011921,1669834931887,1471,HRV,HRV_0221,2022-11-30 19:07:45
10,"[{'imgObject': {}, 'id': 'sweetpotato', 'src': '/static/foodstim60/sweetpotato.jpg', 'key': 'u', 'origWidth': 410, 'origHeight': 410, 'width': 410, 'height': 410, 'widthPercent': 0.45, 'rescaleHeight': False, 'trialN': 10, 'loaded': True, 'loadedTime': 8390, 'positionName': 'LEFT', 'positionCoords': [327.28, 227], 'bid': 8.51}, {'imgObject': {}, 'id': 'baked potato', 'src': '/static/foodstim60/baked potato.jpg', 'key': 'i', 'origWidth': 409, 'origHeight': 410, 'width': 409, 'height': 410, 'widthPercent': 0.45, 'rescaleHeight': False, 'trialN': 10, 'loaded': True, 'loadedTime': 8158.800000011921, 'positionName': 'RIGHT', 'positionCoords': [798.72, 227], 'bid': 8.85}]",25253.100000023842,1669834931888,sweetpotato,baked potato,8.51,8.85,0.33999999999999986,sweetpotato,909.5999999940395,910,910.5,True,u,26667.90000000596,1414.7999999821186,1669834933302,1414,HRV,HRV_0221,2022-11-30 19:07:45
11,"[{'imgObject': {}, 'id': 'mac & cheese', 'src': '/static/foodstim60/mac & cheese.jpg', 'key': 'u', 'origWidth': 410, 'origHeight': 410, 'width': 410, 'height': 410, 'widthPercent': 0.45, 'rescaleHeight': False, 'trialN': 11, 'loaded': True, 'loadedTime': 8007.4000000059605, 'positionName': 'LEFT', 'positionCoords': [327.28, 227], 'bid': 0.2}, {'imgObject': {}, 'id': 'raisin bran w milk', 'src': '/static/foodstim60/raisin bran w milk.jpg', 'key': 'i', 'origWidth': 411, 'origHeight': 411, 'width': 411, 'height': 411, 'widthPercent': 0.45, 'rescaleHeight': False, 'trialN': 11, 'loaded': True, 'loadedTime': 8393.40000000596, 'positionName': 'RIGHT', 'positionCoords': [798.72, 226.5], 'bid': 0}]",26668.5,1669834933303,mac & cheese,raisin bran w milk,0.2,0.0,-0.2,mac & cheese,832,833,832.7000000178814,True,u,28004.30000001192,1335.800000011921,1669834934639,1336,HRV,HRV_0221,2022-11-30 19:07:45
12,"[{'imgObject': {}, 'id': 'granola w milk', 'src': '/static/foodstim60/granola w milk.jpg', 'key': 'u', 'origWidth': 410, 'origHeight': 410, 'width': 410, 'height': 410, 'widthPercent': 0.45, 'rescaleHeight': False, 'trialN': 12, 'loaded': True, 'loadedTime': 8460.90000000596, 'positionName': 'LEFT', 'positionCoords': [327.28, 227], 'bid': 0.07}, {'imgObject': {}, 'id': 'eggs', 'src': '/static/foodstim60/eggs.jpg', 'key': 'i', 'origWidth': 409, 'origHeight': 409, 'width': 409, 'height': 409, 'widthPercent': 0.45, 'rescaleHeight': False, 'trialN': 12, 'loaded': True, 'loadedTime': 8465.40000000596, 'positionName': 'RIGHT', 'positionCoords': [798.72, 227.5], 'bid': 0.02}]",28004.80000001192,1669834934639,granola w milk,eggs,0.07,0.02,-0.05,eggs,1161.5,1163,1162.9000000059605,True,i,29668.20000001788,1663.4000000059605,1669834936303,1664,HRV,HRV_0221,2022-11-30 19:07:45
13,"[{'imgObject': {}, 'id': 'kiwi', 'src': '/static/foodstim60/kiwi.jpg', 'key': 'u', 'origWidth': 410, 'origHeight': 410, 'width': 410, 'height': 410, 'widthPercent': 0.45, 'rescaleHeight': False, 'trialN': 13, 'loaded': True, 'loadedTime': 8666.100000023842, 'positionName': 'LEFT', 'positionCoords': [327.28, 227], 'bid': 0.11}, {'imgObject': {}, 'id': 'froot loops w milk', 'src': '/static/foodstim60/froot loops w milk.jpg', 'key': 'i', 'origWidth': 410, 'origHeight': 410, 'width': 410, 'height': 410, 'widthPercent': 0.45, 'rescaleHeight': False, 'trialN': 13, 'loaded': True, 'loadedTime': 7994.5, 'positionName': 'RIGHT', 'positionCoords': [798.72, 227], 'bid': 0.11}]",29669.100000023842,1669834936304,kiwi,froot loops w milk,0.11,0.11,0.0,froot loops w milk,1323.0999999940395,1324,1324.0999999940395,True,i,31499.80000001192,1830.699999988079,1669834938134,1830,HRV,HRV_0221,2022-11-30 19:07:45
14,"[{'imgObject': {}, 'id': 'mango', 'src': '/static/foodstim60/mango.jpg', 'key': 'u', 'origWidth': 411, 'origHeight': 411, 'width': 411, 'height': 411, 'widthPercent': 0.45, 'rescaleHeight': False, 'trialN': 14, 'loaded': True, 'loadedTime': 8310.40000000596, 'positionName': 'LEFT', 'positionCoords': [326.28, 226.5], 'bid': 0.1}, {'imgObject': {}, 'id': 'banana', 'src': '/static/foodstim60/banana.jpg', 'key': 'i', 'origWidth': 410, 'origHeight': 410, 'width': 410, 'height': 410, 'widthPercent': 0.45, 'rescaleHeight': False, 'trialN': 14, 'loaded': True, 'loadedTime': 8709.90000000596, 'positionName': 'RIGHT', 'positionCoords': [798.72, 227], 'bid': 0.01}]",31500.30000001192,1669834938135,mango,banana,0.1,0.01,-0.09000000000000001,mango,1721.5999999940395,1722,1722.4000000059605,True,u,33723.60000002384,2223.300000011921,1669834940358,2223,HRV,HRV_0221,2022-11-30 19:07:45
15,"[{'imgObject': {}, 'id': 'Tribe humus pita', 'src': '/static/foodstim60/Tribe humus pita.jpg', 'key': 'u', 'origWidth': 411, 'origHeight': 411, 'width': 411, 'height': 411, 'widthPercent': 0.45, 'rescaleHeight': False, 'trialN': 15, 'loaded': True, 'loadedTime': 8724, 'positionName': 'LEFT', 'positionCoords': [326.28, 226.5], 'bid': 0.1}, {'imgObject': {}, 'id': 'turkeysandwich', 'src': '/static/foodstim60/turkeysandwich.jpg', 'key': 'i', 'origWidth': 409, 'origHeight': 409, 'width': 409, 'height': 409, 'widthPercent': 0.45, 'rescaleHeight': False, 'trialN': 15, 'loaded': True, 'loadedTime': 8372.700000017881, 'positionName': 'RIGHT', 'positionCoords': [798.72, 227.5], 'bid': 9.79}]",33724.30000001192,1669834940359,Tribe humus pita,turkeysandwich,0.1,9.79,9.69,turkeysandwich,1030.199999988079,1031,1030.9000000059605,True,i,35260.80000001192,1536.5,1669834941895,1536,HRV,HRV_0221,2022-11-30 19:07:45
16,"[{'imgObject': {}, 'id': 'blackbeanswithrice', 'src': '/static/foodstim60/blackbeanswithrice.jpg', 'key': 'u', 'origWidth': 410, 'origHeight': 410, 'width': 410, 'height': 410, 'widthPercent': 0.45, 'rescaleHeight': False, 'trialN': 16, 'loaded': True, 'loadedTime': 8812.600000023842, 'positionName': 'LEFT', 'positionCoords': [327.28, 227], 'bid': 0.13}, {'imgObject': {}, 'id': 'kiwi', 'src': '/static/foodstim60/kiwi.jpg', 'key': 'i', 'origWidth': 410, 'origHeight': 410, 'width': 410, 'height': 410, 'widthPercent': 0.45, 'rescaleHeight': False, 'trialN': 16, 'loaded': True, 'loadedTime': 8667, 'positionName': 'RIGHT', 'positionCoords': [798.72, 227], 'bid': 0.11}]",35261.10000002384,1669834941896,blackbeanswithrice,kiwi,0.13,0.11,-0.020000000000000004,blackbeanswithrice,1122.199999988079,1123,1123.0999999940395,True,u,36887.90000000596,1626.7999999821186,1669834943522,1626,HRV,HRV_0221,2022-11-30 19:07:45
17,"[{'imgObject': {}, 'id': 'Grapes', 'src': '/static/foodstim60/Grapes.jpg', 'key': 'u', 'origWidth': 411, 'origHeight': 411, 'width': 411, 'height': 411, 'widthPercent': 0.45, 'rescaleHeight': False, 'trialN': 17, 'loaded': True, 'loadedTime': 8330.100000023842, 'positionName': 'LEFT', 'positionCoords': [326.28, 226.5], 'bid': 0.05}, {'imgObject': {}, 'id': 'baked potato', 'src': '/static/foodstim60/baked potato.jpg', 'key': 'i', 'origWidth': 409, 'origHeight': 410, 'width': 409, 'height': 410, 'widthPercent': 0.45, 'rescaleHeight': False, 'trialN': 17, 'loaded': True, 'loadedTime': 8156.800000011921, 'positionName': 'RIGHT', 'positionCoords': [798.72, 227], 'bid': 8.85}]",36891.20000001788,1669834943526,Grapes,baked potato,0.05,8.85,8.799999999999999,Grapes,1021,1022,1021.9000000059605,True,u,38420.70000001788,1529.5,1669834945055,1529,HRV,HRV_0221,2022-11-30 19:07:45
18,"[{'imgObject': {}, 'id': 'tacos', 'src': '/static/foodstim60/tacos.jpg', 'key': 'u', 'origWidth': 411, 'origHeight': 411, 'width': 411, 'height': 411, 'widthPercent': 0.45, 'rescaleHeight': False, 'trialN': 18, 'loaded': True, 'loadedTime': 8835.100000023842, 'positionName': 'LEFT', 'positionCoords': [326.28, 226.5], 'bid': 0}, {'imgObject': {}, 'id': 'blueberries', 'src': '/static/foodstim60/blueberries.jpg', 'key': 'i', 'origWidth': 411, 'origHeight': 411, 'width': 411, 'height': 411, 'widthPercent': 0.45, 'rescaleHeight': False, 'trialN': 18, 'loaded': True, 'loadedTime': 7433.300000011921, 'positionName': 'RIGHT', 'positionCoords': [798.72, 226.5], 'bid': 4.54}]",38421.30000001192,1669834945056,tacos,blueberries,0.0,4.54,4.54,tacos,1457.5999999940395,1459,1458.699999988079,True,u,40388.10000002384,1966.800000011921,1669834947023,1967,HRV,HRV_0221,2022-11-30 19:07:45
19,"[{'imgObject': {}, 'id': 'avocado', 'src': '/static/foodstim60/avocado.jpg', 'key': 'u', 'origWidth': 409, 'origHeight': 409, 'width': 409, 'height': 409, 'widthPercent': 0.45, 'rescaleHeight': False, 'trialN': 19, 'loaded': True, 'loadedTime': 8845.40000000596, 'positionName': 'LEFT', 'positionCoords': [328.28, 227.5], 'bid': 0.11}, {'imgObject': {}, 'id': 'shreddedwheatwithmilk', 'src': '/static/foodstim60/shreddedwheatwithmilk.jpg', 'key': 'i', 'origWidth': 410, 'origHeight': 410, 'width': 410, 'height': 410, 'widthPercent': 0.45, 'rescaleHeight': False, 'trialN': 19, 'loaded': True, 'loadedTime': 8857.5, 'positionName': 'RIGHT', 'positionCoords': [798.72, 227], 'bid': 0.93}]",40388.70000001788,1669834947023,avocado,shreddedwheatwithmilk,0.11,0.93,0.8200000000000001,shreddedwheatwithmilk,1018.1999999880791,1019,1019.1999999880791,True,i,41916.0,1527.2999999821186,1669834948550,1527,HRV,HRV_0221,2022-11-30 19:07:45
20,"[{'imgObject': {}, 'id': 'yogurt no spoon', 'src': '/static/foodstim60/yogurt no spoon.jpg', 'key': 'u', 'origWidth': 411, 'origHeight': 410, 'width': 411, 'height': 410, 'widthPercent': 0.45, 'rescaleHeight': False, 'trialN': 20, 'loaded': True, 'loadedTime': 8867.700000017881, 'positionName': 'LEFT', 'positionCoords': [326.28, 227], 'bid': 0}, {'imgObject': {}, 'id': 'eggs', 'src': '/static/foodstim60/eggs.jpg', 'key': 'i', 'origWidth': 409, 'origHeight': 409, 'width': 409, 'height': 409, 'widthPercent': 0.45, 'rescaleHeight': False, 'trialN': 20, 'loaded': True, 'loadedTime': 8473.700000017881, 'positionName': 'RIGHT', 'positionCoords': [798.72, 227.5], 'bid': 0.02}]",41916.40000000596,1669834948551,yogurt no spoon,eggs,0.0,0.02,0.02,yogurt no spoon,1817.4000000059605,1818,1818.2000000178814,True,u,44237.30000001192,2320.9000000059605,1669834950872,2321,HRV,HRV_0221,2022-11-30 19:07:45
21,"[{'imgObject': {}, 'id': 'banana', 'src': '/static/foodstim60/banana.jpg', 'key': 'u', 'origWidth': 410, 'origHeight': 410, 'width': 410, 'height': 410, 'widthPercent': 0.45, 'rescaleHeight': False, 'trialN': 21, 'loaded': True, 'loadedTime': 8676.300000011921, 'positionName': 'LEFT', 'positionCoords': [327.28, 227], 'bid': 0.01}, {'imgObject': {}, 'id': 'fried eggs', 'src': '/static/foodstim60/fried eggs.jpg', 'key': 'i', 'origWidth': 410, 'origHeight': 410, 'width': 410, 'height': 410, 'widthPercent': 0.45, 'rescaleHeight': False, 'trialN': 21, 'loaded': True, 'loadedTime': 8878.200000017881, 'positionName': 'RIGHT', 'positionCoords': [798.72, 227], 'bid': 0.01}]",44237.70000001788,1669834950872,banana,fried eggs,0.01,0.01,0.0,fried eggs,1461.5,1462,1462.0999999940395,True,i,46204.30000001192,1966.5999999940395,1669834952839,1967,HRV,HRV_0221,2022-11-30 19:07:45
22,"[{'imgObject': {}, 'id': 'popsicles', 'src': '/static/foodstim60/popsicles.jpg', 'key': 'u', 'origWidth': 410, 'origHeight': 410, 'width': 410, 'height': 410, 'widthPercent': 0.45, 'rescaleHeight': False, 'trialN': 22, 'loaded': True, 'loadedTime': 9110.100000023842, 'positionName': 'LEFT', 'positionCoords': [327.28, 227], 'bid': 0.09}, {'imgObject': {}, 'id': 'chickenfingers', 'src': '/static/foodstim60/chickenfingers.jpg', 'key': 'i', 'origWidth': 410, 'origHeight': 410, 'width': 410, 'height': 410, 'widthPercent': 0.45, 'rescaleHeight': False, 'trialN': 22, 'loaded': True, 'loadedTime': 8890.700000017881, 'positionName': 'RIGHT', 'positionCoords': [798.72, 227], 'bid': 9.77}]",46204.80000001192,1669834952839,popsicles,chickenfingers,0.09,9.77,9.68,chickenfingers,780.9000000059605,782,782.0,True,i,47492.10000002384,1287.300000011921,1669834954127,1288,HRV,HRV_0221,2022-11-30 19:07:45
23,"[{'imgObject': {}, 'id': 'seaweed', 'src': '/static/foodstim60/seaweed.jpg', 'key': 'u', 'origWidth': 410, 'origHeight': 410, 'width': 410, 'height': 410, 'widthPercent': 0.45, 'rescaleHeight': False, 'trialN': 23, 'loaded': True, 'loadedTime': 8909.800000011921, 'positionName': 'LEFT', 'positionCoords': [327.28, 227], 'bid': 0.02}, {'imgObject': {}, 'id': 'luckycharms', 'src': '/static/foodstim60/luckycharms.jpg', 'key': 'i', 'origWidth': 410, 'origHeight': 409, 'width': 410, 'height': 409, 'widthPercent': 0.45, 'rescaleHeight': False, 'trialN': 23, 'loaded': True, 'loadedTime': 8334.300000011921, 'positionName': 'RIGHT', 'positionCoords': [798.72, 227.5], 'bid': 0}]",47492.20000001788,1669834954127,seaweed,luckycharms,0.02,0.0,-0.02,luckycharms,1132,1132,1132.5999999940395,True,i,49132.0,1639.7999999821186,1669834955766,1639,HRV,HRV_0221,2022-11-30 19:07:45
24,"[{'imgObject': {}, 'id': 'raisin bran w milk', 'src': '/static/foodstim60/raisin bran w milk.jpg', 'key': 'u', 'origWidth': 411, 'origHeight': 411, 'width': 411, 'height': 411, 'widthPercent': 0.45, 'rescaleHeight': False, 'trialN': 24, 'loaded': True, 'loadedTime': 8397.800000011921, 'positionName': 'LEFT', 'positionCoords': [326.28, 226.5], 'bid': 0}, {'imgObject': {}, 'id': 'fried eggs', 'src': '/static/foodstim60/fried eggs.jpg', 'key': 'i', 'origWidth': 410, 'origHeight': 410, 'width': 410, 'height': 410, 'widthPercent': 0.45, 'rescaleHeight': False, 'trialN': 24, 'loaded': True, 'loadedTime': 8869.200000017881, 'positionName': 'RIGHT', 'positionCoords': [798.72, 227], 'bid': 0.01}]",49132.40000000596,1669834955767,raisin bran w milk,fried eggs,0.0,0.01,0.01,raisin bran w milk,1479.7000000178814,1481,1481.0999999940395,True,u,51116.0,1983.5999999940395,1669834957751,1984,HRV,HRV_0221,2022-11-30 19:07:45
25,"[{'imgObject': {}, 'id': 'strawberries', 'src': '/static/foodstim60/strawberries.jpg', 'key': 'u', 'origWidth': 410, 'origHeight': 410, 'width': 410, 'height': 410, 'widthPercent': 0.45, 'rescaleHeight': False, 'trialN': 25, 'loaded': True, 'loadedTime': 8943.5, 'positionName': 'LEFT', 'positionCoords': [327.28, 227], 'bid': 4.89}, {'imgObject': {}, 'id': 'mashed potato', 'src': '/static/foodstim60/mashed potato.jpg', 'key': 'i', 'origWidth': 409, 'origHeight': 409, 'width': 409, 'height': 409, 'widthPercent': 0.45, 'rescaleHeight': False, 'trialN': 25, 'loaded': True, 'loadedTime': 8277.700000017881, 'positionName': 'RIGHT', 'positionCoords': [798.72, 227.5], 'bid': 6.87}]",51116.5,1669834957751,strawberries,mashed potato,4.89,6.87,1.9800000000000004,strawberries,814,816,815.1000000238419,True,u,52435.80000001192,1319.300000011921,1669834959071,1320,HRV,HRV_0221,2022-11-30 19:07:45
26,"[{'imgObject': {}, 'id': 'salmon', 'src': '/static/foodstim60/salmon.jpg', 'key': 'u', 'origWidth': 410, 'origHeight': 409, 'width': 410, 'height': 409, 'widthPercent': 0.45, 'rescaleHeight': False, 'trialN': 26, 'loaded': True, 'loadedTime': 8948.100000023842, 'positionName': 'LEFT', 'positionCoords': [327.28, 227.5], 'bid': 0.42}, {'imgObject': {}, 'id': 'mac & cheese', 'src': '/static/foodstim60/mac & cheese.jpg', 'key': 'i', 'origWidth': 410, 'origHeight': 410, 'width': 410, 'height': 410, 'widthPercent': 0.45, 'rescaleHeight': False, 'trialN': 26, 'loaded': True, 'loadedTime': 8010.4000000059605, 'positionName': 'RIGHT', 'positionCoords': [798.72, 227], 'bid': 0.2}]",52436.40000000596,1669834959071,salmon,mac & cheese,0.42,0.2,-0.21999999999999997,mac & cheese,872,873,873.2000000178814,True,i,53811.90000000596,1375.5,1669834960447,1376,HRV,HRV_0221,2022-11-30 19:07:45
27,"[{'imgObject': {}, 'id': 'rigatoni and sauce', 'src': '/static/foodstim60/rigatoni and sauce.jpg', 'key': 'u', 'origWidth': 410, 'origHeight': 411, 'width': 410, 'height': 411, 'widthPercent': 0.45, 'rescaleHeight': False, 'trialN': 27, 'loaded': True, 'loadedTime': 7729.5, 'positionName': 'LEFT', 'positionCoords': [327.28, 226.5], 'bid': 1.56}, {'imgObject': {}, 'id': 'froot loops w milk', 'src': '/static/foodstim60/froot loops w milk.jpg', 'key': 'i', 'origWidth': 410, 'origHeight': 410, 'width': 410, 'height': 410, 'widthPercent': 0.45, 'rescaleHeight': False, 'trialN': 27, 'loaded': True, 'loadedTime': 8000.5, 'positionName': 'RIGHT', 'positionCoords': [798.72, 227], 'bid': 0.11}]",53812.60000002384,1669834960447,rigatoni and sauce,froot loops w milk,1.56,0.11,-1.45,rigatoni and sauce,1091.8999999761581,1093,1092.5999999940395,True,u,55412.60000002384,1600.0,1669834962048,1601,HRV,HRV_0221,2022-11-30 19:07:45
28,"[{'imgObject': {}, 'id': 'cherry tomato', 'src': '/static/foodstim60/cherry tomato.jpg', 'key': 'u', 'origWidth': 410, 'origHeight': 410, 'width': 410, 'height': 410, 'widthPercent': 0.45, 'rescaleHeight': False, 'trialN': 28, 'loaded': True, 'loadedTime': 7500.800000011921, 'positionName': 'LEFT', 'positionCoords': [327.28, 227], 'bid': 0.01}, {'imgObject': {}, 'id': 'hotdog w must', 'src': '/static/foodstim60/hotdog w must.jpg', 'key': 'i', 'origWidth': 409, 'origHeight': 409, 'width': 409, 'height': 409, 'widthPercent': 0.45, 'rescaleHeight': False, 'trialN': 28, 'loaded': True, 'loadedTime': 7540.600000023842, 'positionName': 'RIGHT', 'positionCoords': [798.72, 227.5], 'bid': 0.01}]",55413.20000001788,1669834962048,cherry tomato,hotdog w must,0.01,0.01,0.0,cherry tomato,1453.699999988079,1455,1454.5,True,u,57371.70000001788,1958.5,1669834964007,1959,HRV,HRV_0221,2022-11-30 19:07:45
29,"[{'imgObject': {}, 'id': 'edamame', 'src': '/static/foodstim60/edamame.jpg', 'key': 'u', 'origWidth': 409, 'origHeight': 410, 'width': 409, 'height': 410, 'widthPercent': 0.45, 'rescaleHeight': False, 'trialN': 29, 'loaded': True, 'loadedTime': 7551.700000017881, 'positionName': 'LEFT', 'positionCoords': [328.28, 227], 'bid': 8.73}, {'imgObject': {}, 'id': 'salmon', 'src': '/static/foodstim60/salmon.jpg', 'key': 'i', 'origWidth': 410, 'origHeight': 409, 'width': 410, 'height': 409, 'widthPercent': 0.45, 'rescaleHeight': False, 'trialN': 29, 'loaded': True, 'loadedTime': 8948.5, 'positionName': 'RIGHT', 'positionCoords': [798.72, 227.5], 'bid': 0.42}]",57372.10000002384,1669834964007,edamame,salmon,8.73,0.42,-8.31,edamame,1148.699999988079,1149,1149.2999999821186,True,u,59028.0,1655.8999999761581,1669834965663,1656,HRV,HRV_0221,2022-11-30 19:07:45
30,"[{'imgObject': {}, 'id': 'orange slices', 'src': '/static/foodstim60/orange slices.jpg', 'key': 'u', 'origWidth': 409, 'origHeight': 410, 'width': 409, 'height': 410, 'widthPercent': 0.45, 'rescaleHeight': False, 'trialN': 30, 'loaded': True, 'loadedTime': 7563.4000000059605, 'positionName': 'LEFT', 'positionCoords': [328.28, 227], 'bid': 0.06}, {'imgObject': {}, 'id': 'omelette', 'src': '/static/foodstim60/omelette.jpg', 'key': 'i', 'origWidth': 410, 'origHeight': 409, 'width': 410, 'height': 409, 'widthPercent': 0.45, 'rescaleHeight': False, 'trialN': 30, 'loaded': True, 'loadedTime': 7596.4000000059605, 'positionName': 'RIGHT', 'positionCoords': [798.72, 227.5], 'bid': 0.05}]",59028.90000000596,1669834965664,orange slices,omelette,0.06,0.05,-0.009999999999999995,omelette,1383.300000011921,1384,1384.0999999940395,True,i,60916.20000001788,1887.300000011921,1669834967551,1887,HRV,HRV_0221,2022-11-30 19:07:45
31,"[{'imgObject': {}, 'id': 'cocktailshrimp', 'src': '/static/foodstim60/cocktailshrimp.jpg', 'key': 'u', 'origWidth': 410, 'origHeight': 410, 'width': 410, 'height': 410, 'widthPercent': 0.45, 'rescaleHeight': False, 'trialN': 31, 'loaded': True, 'loadedTime': 7655.300000011921, 'positionName': 'LEFT', 'positionCoords': [327.28, 227], 'bid': 9.03}, {'imgObject': {}, 'id': 'chickenfingers', 'src': '/static/foodstim60/chickenfingers.jpg', 'key': 'i', 'origWidth': 410, 'origHeight': 410, 'width': 410, 'height': 410, 'widthPercent': 0.45, 'rescaleHeight': False, 'trialN': 31, 'loaded': True, 'loadedTime': 8895.90000000596, 'positionName': 'RIGHT', 'positionCoords': [798.72, 227], 'bid': 9.77}]",60917.0,1669834967552,cocktailshrimp,chickenfingers,9.03,9.77,0.7400000000000002,chickenfingers,733.5,734,734.1000000238419,True,i,62155.80000001192,1238.800000011921,1669834968791,1239,HRV,HRV_0221,2022-11-30 19:07:45
32,"[{'imgObject': {}, 'id': 'Tribe humus pita', 'src': '/static/foodstim60/Tribe humus pita.jpg', 'key': 'u', 'origWidth': 411, 'origHeight': 411, 'width': 411, 'height': 411, 'widthPercent': 0.45, 'rescaleHeight': False, 'trialN': 32, 'loaded': True, 'loadedTime': 8726.5, 'positionName': 'LEFT', 'positionCoords': [326.28, 226.5], 'bid': 0.1}, {'imgObject': {}, 'id': 'mango', 'src': '/static/foodstim60/mango.jpg', 'key': 'i', 'origWidth': 411, 'origHeight': 411, 'width': 411, 'height': 411, 'widthPercent': 0.45, 'rescaleHeight': False, 'trialN': 32, 'loaded': True, 'loadedTime': 8311.700000017881, 'positionName': 'RIGHT', 'positionCoords': [798.72, 226.5], 'bid': 0.1}]",62156.10000002384,1669834968791,Tribe humus pita,mango,0.1,0.1,0.0,Tribe humus pita,1253.199999988079,1254,1253.8999999761581,True,u,63915.80000001192,1759.699999988079,1669834970551,1760,HRV,HRV_0221,2022-11-30 19:07:45
33,"[{'imgObject': {}, 'id': 'fruitsalad', 'src': '/static/foodstim60/fruitsalad.jpg', 'key': 'u', 'origWidth': 410, 'origHeight': 410, 'width': 410, 'height': 410, 'widthPercent': 0.45, 'rescaleHeight': False, 'trialN': 33, 'loaded': True, 'loadedTime': 7736.4000000059605, 'positionName': 'LEFT', 'positionCoords': [327.28, 227], 'bid': 0}, {'imgObject': {}, 'id': 'Grapes', 'src': '/static/foodstim60/Grapes.jpg', 'key': 'i', 'origWidth': 411, 'origHeight': 411, 'width': 411, 'height': 411, 'widthPercent': 0.45, 'rescaleHeight': False, 'trialN': 33, 'loaded': True, 'loadedTime': 8329.200000017881, 'positionName': 'RIGHT', 'positionCoords': [798.72, 226.5], 'bid': 0.05}]",63916.0,1669834970551,fruitsalad,Grapes,0.0,0.05,0.05,Grapes,1313.7000000178814,1315,1314.6000000238419,True,i,65732.5,1816.5,1669834972368,1817,HRV,HRV_0221,2022-11-30 19:07:45
34,"[{'imgObject': {}, 'id': 'salmon', 'src': '/static/foodstim60/salmon.jpg', 'key': 'u', 'origWidth': 410, 'origHeight': 409, 'width': 410, 'height': 409, 'widthPercent': 0.45, 'rescaleHeight': False, 'trialN': 34, 'loaded': True, 'loadedTime': 8946.200000017881, 'positionName': 'LEFT', 'positionCoords': [327.28, 227.5], 'bid': 0.42}, {'imgObject': {}, 'id': 'popsicles', 'src': '/static/foodstim60/popsicles.jpg', 'key': 'i', 'origWidth': 410, 'origHeight': 410, 'width': 410, 'height': 410, 'widthPercent': 0.45, 'rescaleHeight': False, 'trialN': 34, 'loaded': True, 'loadedTime': 9108.100000023842, 'positionName': 'RIGHT', 'positionCoords': [798.72, 227], 'bid': 0.09}]",65733.10000002384,1669834972368,salmon,popsicles,0.42,0.09,-0.32999999999999996,salmon,2091.7999999821186,2093,2092.5999999940395,True,u,68331.80000001192,2598.699999988079,1669834974967,2599,HRV,HRV_0221,2022-11-30 19:07:45
35,"[{'imgObject': {}, 'id': 'yogurt no spoon', 'src': '/static/foodstim60/yogurt no spoon.jpg', 'key': 'u', 'origWidth': 411, 'origHeight': 410, 'width': 411, 'height': 410, 'widthPercent': 0.45, 'rescaleHeight': False, 'trialN': 35, 'loaded': True, 'loadedTime': 8868.700000017881, 'positionName': 'LEFT', 'positionCoords': [326.28, 227], 'bid': 0}, {'imgObject': {}, 'id': 'tacos', 'src': '/static/foodstim60/tacos.jpg', 'key': 'i', 'origWidth': 411, 'origHeight': 411, 'width': 411, 'height': 411, 'widthPercent': 0.45, 'rescaleHeight': False, 'trialN': 35, 'loaded': True, 'loadedTime': 8827.800000011921, 'positionName': 'RIGHT', 'positionCoords': [798.72, 226.5], 'bid': 0}]",68332.0,1669834974967,yogurt no spoon,tacos,0.0,0.0,0.0,tacos,1496.4000000059605,1497,1497.0,True,i,70332.20000001788,2000.2000000178814,1669834976967,2000,HRV,HRV_0221,2022-11-30 19:07:45
36,"[{'imgObject': {}, 'id': 'corn cob', 'src': '/static/foodstim60/corn cob.jpg', 'key': 'u', 'origWidth': 411, 'origHeight': 411, 'width': 411, 'height': 411, 'widthPercent': 0.45, 'rescaleHeight': False, 'trialN': 36, 'loaded': True, 'loadedTime': 7812.4000000059605, 'positionName': 'LEFT', 'positionCoords': [326.28, 226.5], 'bid': 9.37}, {'imgObject': {}, 'id': 'burger', 'src': '/static/foodstim60/burger.jpg', 'key': 'i', 'origWidth': 409, 'origHeight': 409, 'width': 409, 'height': 409, 'widthPercent': 0.45, 'rescaleHeight': False, 'trialN': 36, 'loaded': True, 'loadedTime': 8007.200000017881, 'positionName': 'RIGHT', 'positionCoords': [798.72, 227.5], 'bid': 6.87}]",70332.70000001788,1669834976968,corn cob,burger,9.37,6.87,-2.499999999999999,burger,781.6999999880791,782,782.4000000059605,True,i,71620.80000001192,1288.0999999940395,1669834978256,1288,HRV,HRV_0221,2022-11-30 19:07:45
37,"[{'imgObject': {}, 'id': 'cantaloupe', 'src': '/static/foodstim60/cantaloupe.jpg', 'key': 'u', 'origWidth': 409, 'origHeight': 409, 'width': 409, 'height': 409, 'widthPercent': 0.45, 'rescaleHeight': False, 'trialN': 37, 'loaded': True, 'loadedTime': 8301.90000000596, 'positionName': 'LEFT', 'positionCoords': [328.28, 227.5], 'bid': 0.2}, {'imgObject': {}, 'id': 'eggs', 'src': '/static/foodstim60/eggs.jpg', 'key': 'i', 'origWidth': 409, 'origHeight': 409, 'width': 409, 'height': 409, 'widthPercent': 0.45, 'rescaleHeight': False, 'trialN': 37, 'loaded': True, 'loadedTime': 8663.800000011921, 'positionName': 'RIGHT', 'positionCoords': [798.72, 227.5], 'bid': 0.02}]",71621.40000000596,1669834978256,cantaloupe,eggs,0.2,0.02,-0.18000000000000002,cantaloupe,1022.0999999940395,1024,1023.3000000119209,True,u,73148.80000001192,1527.4000000059605,1669834979784,1528,HRV,HRV_0221,2022-11-30 19:07:45
38,"[{'imgObject': {}, 'id': 'seaweed', 'src': '/static/foodstim60/seaweed.jpg', 'key': 'u', 'origWidth': 410, 'origHeight': 410, 'width': 410, 'height': 410, 'widthPercent': 0.45, 'rescaleHeight': False, 'trialN': 38, 'loaded': True, 'loadedTime': 8906.40000000596, 'positionName': 'LEFT', 'positionCoords': [327.28, 227], 'bid': 0.02}, {'imgObject': {}, 'id': 'sweetpotato', 'src': '/static/foodstim60/sweetpotato.jpg', 'key': 'i', 'origWidth': 410, 'origHeight': 410, 'width': 410, 'height': 410, 'widthPercent': 0.45, 'rescaleHeight': False, 'trialN': 38, 'loaded': True, 'loadedTime': 8391.5, 'positionName': 'RIGHT', 'positionCoords': [798.72, 227], 'bid': 8.51}]",73149.0,1669834979784,seaweed,sweetpotato,0.02,8.51,8.49,sweetpotato,892.5,894,893.9000000059605,True,i,74548.70000001788,1399.7000000178814,1669834981184,1400,HRV,HRV_0221,2022-11-30 19:07:45
39,"[{'imgObject': {}, 'id': 'corn cob', 'src': '/static/foodstim60/corn cob.jpg', 'key': 'u', 'origWidth': 411, 'origHeight': 411, 'width': 411, 'height': 411, 'widthPercent': 0.45, 'rescaleHeight': False, 'trialN': 39, 'loaded': True, 'loadedTime': 7808.4000000059605, 'positionName': 'LEFT', 'positionCoords': [326.28, 226.5], 'bid': 9.37}, {'imgObject': {}, 'id': 'steak', 'src': '/static/foodstim60/steak.jpg', 'key': 'i', 'origWidth': 410, 'origHeight': 410, 'width': 410, 'height': 410, 'widthPercent': 0.45, 'rescaleHeight': False, 'trialN': 39, 'loaded': True, 'loadedTime': 8072.4000000059605, 'positionName': 'RIGHT', 'positionCoords': [798.72, 227], 'bid': 9.84}]",74549.20000001788,1669834981184,corn cob,steak,9.37,9.84,0.47000000000000064,steak,772.4000000059605,776,775.4000000059605,True,i,75828.70000001788,1279.5,1669834982464,1280,HRV,HRV_0221,2022-11-30 19:07:45
40,"[{'imgObject': {}, 'id': 'bagel plain', 'src': '/static/foodstim60/bagel plain.jpg', 'key': 'u', 'origWidth': 410, 'origHeight': 410, 'width': 410, 'height': 410, 'widthPercent': 0.45, 'rescaleHeight': False, 'trialN': 40, 'loaded': True, 'loadedTime': 8048.600000023842, 'positionName': 'LEFT', 'positionCoords': [327.28, 227], 'bid': 9.8}, {'imgObject': {}, 'id': 'mashed potato', 'src': '/static/foodstim60/mashed potato.jpg', 'key': 'i', 'origWidth': 409, 'origHeight': 409, 'width': 409, 'height': 409, 'widthPercent': 0.45, 'rescaleHeight': False, 'trialN': 40, 'loaded': True, 'loadedTime': 8274.5, 'positionName': 'RIGHT', 'positionCoords': [798.72, 227.5], 'bid': 6.87}]",75829.30000001192,1669834982464,bagel plain,mashed potato,9.8,6.87,-2.9300000000000006,bagel plain,701.9000000059605,703,702.5,True,u,77036.60000002384,1207.300000011921,1669834983672,1208,HRV,HRV_0221,2022-11-30 19:07:45
41,"[{'imgObject': {}, 'id': 'lox', 'src': '/static/foodstim60/lox.jpg', 'key': 'u', 'origWidth': 410, 'origHeight': 411, 'width': 410, 'height': 411, 'widthPercent': 0.45, 'rescaleHeight': False, 'trialN': 41, 'loaded': True, 'loadedTime': 8083.100000023842, 'positionName': 'LEFT', 'positionCoords': [327.28, 226.5], 'bid': 0.07}, {'imgObject': {}, 'id': 'cocktailshrimp', 'src': '/static/foodstim60/cocktailshrimp.jpg', 'key': 'i', 'origWidth': 410, 'origHeight': 410, 'width': 410, 'height': 410, 'widthPercent': 0.45, 'rescaleHeight': False, 'trialN': 41, 'loaded': True, 'loadedTime': 7658.200000017881, 'positionName': 'RIGHT', 'positionCoords': [798.72, 227], 'bid': 9.03}]",77036.90000000596,1669834983672,lox,cocktailshrimp,0.07,9.03,8.959999999999999,NaN,NaN,NaN,,False,NaN,81043.70000001788,4006.800000011921,1669834987679,4007,HRV,HRV_0221,2022-11-30 19:07:45
42,"[{'imgObject': {}, 'id': 'steak', 'src': '/static/foodstim60/steak.jpg', 'key': 'u', 'origWidth': 410, 'origHeight': 410, 'width': 410, 'height': 410, 'widthPercent': 0.45, 'rescaleHeight': False, 'trialN': 42, 'loaded': True, 'loadedTime': 8067.700000017881, 'positionName': 'LEFT', 'positionCoords': [327.28, 227], 'bid': 9.84}, {'imgObject': {}, 'id': 'olives', 'src': '/static/foodstim60/olives.jpg', 'key': 'i', 'origWidth': 410, 'origHeight': 410, 'width': 410, 'height': 410, 'widthPercent': 0.45, 'rescaleHeight': False, 'trialN': 42, 'loaded': True, 'loadedTime': 8088.9000000059605, 'positionName': 'RIGHT', 'positionCoords': [798.72, 227], 'bid': 6.94}]",81044.30000001192,1669834987679,steak,olives,9.84,6.94,-2.8999999999999995,steak,768.6999999880791,770,769.5,True,u,82316.30000001192,1272.0,1669834988951,1272,HRV,HRV_0221,2022-11-30 19:07:45
43,"[{'imgObject': {}, 'id': 'fruitsalad', 'src': '/static/foodstim60/fruitsalad.jpg', 'key': 'u', 'origWidth': 410, 'origHeight': 410, 'width': 410, 'height': 410, 'widthPercent': 0.45, 'rescaleHeight': False, 'trialN': 43, 'loaded': True, 'loadedTime': 7731.5, 'positionName': 'LEFT', 'positionCoords': [327.28, 227], 'bid': 0}, {'imgObject': {}, 'id': 'strawberries', 'src': '/static/foodstim60/strawberries.jpg', 'key': 'i', 'origWidth': 410, 'origHeight': 410, 'width': 410, 'height': 410, 'widthPercent': 0.45, 'rescaleHeight': False, 'trialN': 43, 'loaded': True, 'loadedTime': 8940.40000000596, 'positionName': 'RIGHT', 'positionCoords': [798.72, 227], 'bid': 4.89}]",82316.5,1669834988951,fruitsalad,strawberries,0.0,4.89,4.89,strawberries,793.3000000119209,795,794.2000000178814,True,i,83623.5,1307.0,1669834990258,1307,HRV,HRV_0221,2022-11-30 19:07:45
44,"[{'imgObject': {}, 'id': 'steak', 'src': '/static/foodstim60/steak.jpg', 'key': 'u', 'origWidth': 410, 'origHeight': 410, 'width': 410, 'height': 410, 'widthPercent': 0.45, 'rescaleHeight': False, 'trialN': 44, 'loaded': True, 'loadedTime': 8062.100000023842, 'positionName': 'LEFT', 'positionCoords': [327.28, 227], 'bid': 9.84}, {'imgObject': {}, 'id': 'chicken nuggets2', 'src': '/static/foodstim60/chicken nuggets2.jpg', 'key': 'i', 'origWidth': 410, 'origHeight': 409, 'width': 410, 'height': 409, 'widthPercent': 0.45, 'rescaleHeight': False, 'trialN': 44, 'loaded': True, 'loadedTime': 7699, 'positionName': 'RIGHT', 'positionCoords': [798.72, 227.5], 'bid': 9.96}]",83625.0,1669834990260,steak,chicken nuggets2,9.84,9.96,0.120000000000001,steak,1184.800000011921,1185,1185.4000000059605,True,u,85316.5,1691.5,1669834991951,1691,HRV,HRV_0221,2022-11-30 19:07:45
45,"[{'imgObject': {}, 'id': 'blackbeanswithrice', 'src': '/static/foodstim60/blackbeanswithrice.jpg', 'key': 'u', 'origWidth': 410, 'origHeight': 410, 'width': 410, 'height': 410, 'widthPercent': 0.45, 'rescaleHeight': False, 'trialN': 45, 'loaded': True, 'loadedTime': 8791.600000023842, 'positionName': 'LEFT', 'positionCoords': [327.28, 227], 'bid': 0.13}, {'imgObject': {}, 'id': 'avocado', 'src': '/static/foodstim60/avocado.jpg', 'key': 'i', 'origWidth': 409, 'origHeight': 409, 'width': 409, 'height': 409, 'widthPercent': 0.45, 'rescaleHeight': False, 'trialN': 45, 'loaded': True, 'loadedTime': 8844.40000000596, 'positionName': 'RIGHT', 'positionCoords': [798.72, 227.5], 'bid': 0.11}]",85316.80000001192,1669834991952,blackbeanswithrice,avocado,0.13,0.11,-0.020000000000000004,blackbeanswithrice,945.6999999880791,946,946.4000000059605,True,u,86763.5,1446.699999988079,1669834993398,1446,HRV,HRV_0221,2022-11-30 19:07:45
46,"[{'imgObject': {}, 'id': 'banana', 'src': '/static/foodstim60/banana.jpg', 'key': 'u', 'origWidth': 410, 'origHeight': 410, 'width': 410, 'height': 410, 'widthPercent': 0.45, 'rescaleHeight': False, 'trialN': 46, 'loaded': True, 'loadedTime': 8713, 'positionName': 'LEFT', 'positionCoords': [327.28, 227], 'bid': 0.01}, {'imgObject': {}, 'id': 'orange slices', 'src': '/static/foodstim60/orange slices.jpg', 'key': 'i', 'origWidth': 409, 'origHeight': 410, 'width': 409, 'height': 410, 'widthPercent': 0.45, 'rescaleHeight': False, 'trialN': 46, 'loaded': True, 'loadedTime': 7571.200000017881, 'positionName': 'RIGHT', 'positionCoords': [798.72, 227], 'bid': 0.06}]",86764.0,1669834993399,banana,orange slices,0.01,0.06,0.049999999999999996,orange slices,1015,1016,1016.3000000119209,True,i,88284.0,1520.0,1669834994919,1520,HRV,HRV_0221,2022-11-30 19:07:45
47,"[{'imgObject': {}, 'id': 'shreddedwheatwithmilk', 'src': '/static/foodstim60/shreddedwheatwithmilk.jpg', 'key': 'u', 'origWidth': 410, 'origHeight': 410, 'width': 410, 'height': 410, 'widthPercent': 0.45, 'rescaleHeight': False, 'trialN': 47, 'loaded': True, 'loadedTime': 8850.600000023842, 'positionName': 'LEFT', 'positionCoords': [327.28, 227], 'bid': 0.93}, {'imgObject': {}, 'id': 'baked potato', 'src': '/static/foodstim60/baked potato.jpg', 'key': 'i', 'origWidth': 409, 'origHeight': 410, 'width': 409, 'height': 410, 'widthPercent': 0.45, 'rescaleHeight': False, 'trialN': 47, 'loaded': True, 'loadedTime': 8150.300000011921, 'positionName': 'RIGHT', 'positionCoords': [798.72, 227], 'bid': 8.85}]",88284.70000001788,1669834994920,shreddedwheatwithmilk,baked potato,0.93,8.85,7.92,shreddedwheatwithmilk,1067.4000000059605,1068,1068.2999999821186,True,u,89860.40000000596,1575.699999988079,1669834996495,1575,HRV,HRV_0221,2022-11-30 19:07:45
48,"[{'imgObject': {}, 'id': 'sweetpotato', 'src': '/static/foodstim60/sweetpotato.jpg', 'key': 'u', 'origWidth': 410, 'origHeight': 410, 'width': 410, 'height': 410, 'widthPercent': 0.45, 'rescaleHeight': False, 'trialN': 48, 'loaded': True, 'loadedTime': 8390.300000011921, 'positionName': 'LEFT', 'positionCoords': [327.28, 227], 'bid': 8.51}, {'imgObject': {}, 'id': 'turkey sandwich', 'src': '/static/foodstim60/turkey sandwich.jpg', 'key': 'i', 'origWidth': 409, 'origHeight': 409, 'width': 409, 'height': 409, 'widthPercent': 0.45, 'rescaleHeight': False, 'trialN': 48, 'loaded': True, 'loadedTime': 8180.300000011921, 'positionName': 'RIGHT', 'positionCoords': [798.72, 227.5], 'bid': 9.84}]",89860.60000002384,1669834996496,sweetpotato,turkey sandwich,8.51,9.84,1.33,turkey sandwich,724.6999999880791,725,725.5,True,i,91092.0,1231.3999999761581,1669834997727,1231,HRV,HRV_0221,2022-11-30 19:07:45
49,"[{'imgObject': {}, 'id': 'chicken nuggets2', 'src': '/static/foodstim60/chicken nuggets2.jpg', 'key': 'u', 'origWidth': 410, 'origHeight': 409, 'width': 410, 'height': 409, 'widthPercent': 0.45, 'rescaleHeight': False, 'trialN': 49, 'loaded': True, 'loadedTime': 7686.9000000059605, 'positionName': 'LEFT', 'positionCoords': [327.28, 227.5], 'bid': 9.96}, {'imgObject': {}, 'id': 'turkeysandwich', 'src': '/static/foodstim60/turkeysandwich.jpg', 'key': 'i', 'origWidth': 409, 'origHeight': 409, 'width': 409, 'height': 409, 'widthPercent': 0.45, 'rescaleHeight': False, 'trialN': 49, 'loaded': True, 'loadedTime': 8381.40000000596, 'positionName': 'RIGHT', 'positionCoords': [798.72, 227.5], 'bid': 9.79}]",91092.5,1669834997727,chicken nuggets2,turkeysandwich,9.96,9.79,-0.1700000000000017,chicken nuggets2,671.8000000119209,673,672.7000000178814,True,u,92268.5,1176.0,1669834998903,1176,HRV,HRV_0221,2022-11-30 19:07:45
50,"[{'imgObject': {}, 'id': 'rigatoni and sauce', 'src': '/static/foodstim60/rigatoni and sauce.jpg', 'key': 'u', 'origWidth': 410, 'origHeight': 411, 'width': 410, 'height': 411, 'widthPercent': 0.45, 'rescaleHeight': False, 'trialN': 50, 'loaded': True, 'loadedTime': 7727.600000023842, 'positionName': 'LEFT', 'positionCoords': [327.28, 226.5], 'bid': 1.56}, {'imgObject': {}, 'id': 'shreddedwheatwithmilk', 'src': '/static/foodstim60/shreddedwheatwithmilk.jpg', 'key': 'i', 'origWidth': 410, 'origHeight': 410, 'width': 410, 'height': 410, 'widthPercent': 0.45, 'rescaleHeight': False, 'trialN': 50, 'loaded': True, 'loadedTime': 8850.90000000596, 'positionName': 'RIGHT', 'positionCoords': [798.72, 227], 'bid': 0.93}]",92268.90000000596,1669834998904,rigatoni and sauce,shreddedwheatwithmilk,1.56,0.93,-0.63,rigatoni and sauce,1012.4000000059605,1014,1013.7000000178814,True,u,93811.90000000596,1543.0,1669835000447,1543,HRV,HRV_0221,2022-11-30 19:07:45
51,"[{'imgObject': {}, 'id': 'raisin bran w milk', 'src': '/static/foodstim60/raisin bran w milk.jpg', 'key': 'u', 'origWidth': 411, 'origHeight': 411, 'width': 411, 'height': 411, 'widthPercent': 0.45, 'rescaleHeight': False, 'trialN': 51, 'loaded': True, 'loadedTime': 8404.100000023842, 'positionName': 'LEFT', 'positionCoords': [326.28, 226.5], 'bid': 0}, {'imgObject': {}, 'id': 'raspberries', 'src': '/static/foodstim60/raspberries.jpg', 'key': 'i', 'origWidth': 411, 'origHeight': 411, 'width': 411, 'height': 411, 'widthPercent': 0.45, 'rescaleHeight': False, 'trialN': 51, 'loaded': True, 'loadedTime': 8214.5, 'positionName': 'RIGHT', 'positionCoords': [798.72, 226.5], 'bid': 0}]",93812.30000001192,1669835000447,raisin bran w milk,raspberries,0.0,0.0,0.0,raisin bran w milk,1047.5,1049,1048.5999999940395,True,u,95364.5,1552.199999988079,1669835001999,1552,HRV,HRV_0221,2022-11-30 19:07:45
52,"[{'imgObject': {}, 'id': 'salad w chicken', 'src': '/static/foodstim60/salad w chicken.jpg', 'key': 'u', 'origWidth': 411, 'origHeight': 411, 'width': 411, 'height': 411, 'widthPercent': 0.45, 'rescaleHeight': False, 'trialN': 52, 'loaded': True, 'loadedTime': 8218.200000017881, 'positionName': 'LEFT', 'positionCoords': [326.28, 226.5], 'bid': 10}, {'imgObject': {}, 'id': 'cantaloupe', 'src': '/static/foodstim60/cantaloupe.jpg', 'key': 'i', 'origWidth': 409, 'origHeight': 409, 'width': 409, 'height': 409, 'widthPercent': 0.45, 'rescaleHeight': False, 'trialN': 52, 'loaded': True, 'loadedTime': 8305.40000000596, 'positionName': 'RIGHT', 'positionCoords': [798.72, 227.5], 'bid': 0.2}]",95365.0,1669835002000,salad w chicken,cantaloupe,10.0,0.2,-9.8,salad w chicken,924.3000000119209,925,925.3000000119209,True,u,96796.10000002384,1431.1000000238419,1669835003431,1431,HRV,HRV_0221,2022-11-30 19:07:45
53,"[{'imgObject': {}, 'id': 'pear', 'src': '/static/foodstim60/pear.jpg', 'key': 'u', 'origWidth': 411, 'origHeight': 410, 'width': 411, 'height': 410, 'widthPercent': 0.45, 'rescaleHeight': False, 'trialN': 53, 'loaded': True, 'loadedTime': 8253.5, 'positionName': 'LEFT', 'positionCoords': [326.28, 227], 'bid': 0}, {'imgObject': {}, 'id': 'fruitsalad', 'src': '/static/foodstim60/fruitsalad.jpg', 'key': 'i', 'origWidth': 410, 'origHeight': 410, 'width': 410, 'height': 410, 'widthPercent': 0.45, 'rescaleHeight': False, 'trialN': 53, 'loaded': True, 'loadedTime': 7777.5, 'positionName': 'RIGHT', 'positionCoords': [798.72, 227], 'bid': 0}]",96796.90000000596,1669835003432,pear,fruitsalad,0.0,0.0,0.0,pear,1478.5,1479,1479.300000011921,True,u,98779.70000001788,1982.800000011921,1669835005415,1983,HRV,HRV_0221,2022-11-30 19:07:45
54,"[{'imgObject': {}, 'id': 'strawberries', 'src': '/static/foodstim60/strawberries.jpg', 'key': 'u', 'origWidth': 410, 'origHeight': 410, 'width': 410, 'height': 410, 'widthPercent': 0.45, 'rescaleHeight': False, 'trialN': 54, 'loaded': True, 'loadedTime': 8942.5, 'positionName': 'LEFT', 'positionCoords': [327.28, 227], 'bid': 4.89}, {'imgObject': {}, 'id': 'burrito', 'src': '/static/foodstim60/burrito.jpg', 'key': 'i', 'origWidth': 410, 'origHeight': 410, 'width': 410, 'height': 410, 'widthPercent': 0.45, 'rescaleHeight': False, 'trialN': 54, 'loaded': True, 'loadedTime': 8272.700000017881, 'positionName': 'RIGHT', 'positionCoords': [798.72, 227], 'bid': 7.47}]",98780.40000000596,1669835005415,strawberries,burrito,4.89,7.47,2.58,strawberries,1339.800000011921,1341,1340.5,True,u,100628.40000000596,1848.0,1669835007263,1848,HRV,HRV_0221,2022-11-30 19:07:45
55,"[{'imgObject': {}, 'id': 'blackbeanswithrice', 'src': '/static/foodstim60/blackbeanswithrice.jpg', 'key': 'u', 'origWidth': 410, 'origHeight': 410, 'width': 410, 'height': 410, 'widthPercent': 0.45, 'rescaleHeight': False, 'trialN': 55, 'loaded': True, 'loadedTime': 8819, 'positionName': 'LEFT', 'positionCoords': [327.28, 227], 'bid': 0.13}, {'imgObject': {}, 'id': 'veggieswithdip', 'src': '/static/foodstim60/veggieswithdip.jpg', 'key': 'i', 'origWidth': 409, 'origHeight': 409, 'width': 409, 'height': 409, 'widthPercent': 0.45, 'rescaleHeight': False, 'trialN': 55, 'loaded': True, 'loadedTime': 8263.100000023842, 'positionName': 'RIGHT', 'positionCoords': [798.72, 227.5], 'bid': 9.9}]",100629.10000002384,1669835007264,blackbeanswithrice,veggieswithdip,0.13,9.9,9.77,veggieswithdip,1623.8999999761581,1625,1624.5999999940395,True,i,102756.30000001192,2127.199999988079,1669835009391,2127,HRV,HRV_0221,2022-11-30 19:07:45
56,"[{'imgObject': {}, 'id': 'sushi w_condiments', 'src': '/static/foodstim60/sushi w_condiments.jpg', 'key': 'u', 'origWidth': 410, 'origHeight': 410, 'width': 410, 'height': 410, 'widthPercent': 0.45, 'rescaleHeight': False, 'trialN': 56, 'loaded': True, 'loadedTime': 8316.600000023842, 'positionName': 'LEFT', 'positionCoords': [327.28, 227], 'bid': 9.79}, {'imgObject': {}, 'id': 'ice cream sundae 002', 'src': '/static/foodstim60/ice cream sundae 002.jpg', 'key': 'i', 'origWidth': 409, 'origHeight': 409, 'width': 409, 'height': 409, 'widthPercent': 0.45, 'rescaleHeight': False, 'trialN': 56, 'loaded': True, 'loadedTime': 8742.700000017881, 'positionName': 'RIGHT', 'positionCoords': [798.72, 227.5], 'bid': 5.2}]",102756.5,1669835009391,sushi w_condiments,ice cream sundae 002,9.79,5.2,-4.589999999999999,sushi w_condiments,1015.6000000238419,1017,1016.2000000178814,True,u,104277.40000000596,1520.9000000059605,1669835010912,1521,HRV,HRV_0221,2022-11-30 19:07:45
57,"[{'imgObject': {}, 'id': 'seaweed', 'src': '/static/foodstim60/seaweed.jpg', 'key': 'u', 'origWidth': 410, 'origHeight': 410, 'width': 410, 'height': 410, 'widthPercent': 0.45, 'rescaleHeight': False, 'trialN': 57, 'loaded': True, 'loadedTime': 8910.90000000596, 'positionName': 'LEFT', 'positionCoords': [327.28, 227], 'bid': 0.02}, {'imgObject': {}, 'id': 'cherries', 'src': '/static/foodstim60/cherries.jpg', 'key': 'i', 'origWidth': 410, 'origHeight': 411, 'width': 410, 'height': 411, 'widthPercent': 0.45, 'rescaleHeight': False, 'trialN': 57, 'loaded': True, 'loadedTime': 8774.800000011921, 'positionName': 'RIGHT', 'positionCoords': [798.72, 226.5], 'bid': 0.02}]",104277.60000002384,1669835010913,seaweed,cherries,0.02,0.02,0.0,seaweed,1117.3999999761581,1117,1117.8999999761581,True,u,105900.10000002384,1622.5,1669835012535,1622,HRV,HRV_0221,2022-11-30 19:07:45
58,"[{'imgObject': {}, 'id': 'raisin bran w milk', 'src': '/static/foodstim60/raisin bran w milk.jpg', 'key': 'u', 'origWidth': 411, 'origHeight': 411, 'width': 411, 'height': 411, 'widthPercent': 0.45, 'rescaleHeight': False, 'trialN': 58, 'loaded': True, 'loadedTime': 8403.200000017881, 'positionName': 'LEFT', 'positionCoords': [326.28, 226.5], 'bid': 0}, {'imgObject': {}, 'id': 'seaweed', 'src': '/static/foodstim60/seaweed.jpg', 'key': 'i', 'origWidth': 410, 'origHeight': 410, 'width': 410, 'height': 410, 'widthPercent': 0.45, 'rescaleHeight': False, 'trialN': 58, 'loaded': True, 'loadedTime': 8939.300000011921, 'positionName': 'RIGHT', 'positionCoords': [798.72, 227], 'bid': 0.02}]",105900.5,1669835012535,raisin bran w milk,seaweed,0.0,0.02,0.02,seaweed,1293.9000000059605,1295,1294.5,True,i,107700.20000001788,1799.7000000178814,1669835014335,1800,HRV,HRV_0221,2022-11-30 19:07:45
59,"[{'imgObject': {}, 'id': 'turkeysandwich', 'src': '/static/foodstim60/turkeysandwich.jpg', 'key': 'u', 'origWidth': 409, 'origHeight': 409, 'width': 409, 'height': 409, 'widthPercent': 0.45, 'rescaleHeight': False, 'trialN': 59, 'loaded': True, 'loadedTime': 8382.600000023842, 'positionName': 'LEFT', 'positionCoords': [328.28, 227.5], 'bid': 9.79}, {'imgObject': {}, 'id': 'sushi w_condiments', 'src': '/static/foodstim60/sushi w_condiments.jpg', 'key': 'i', 'origWidth': 410, 'origHeight': 410, 'width': 410, 'height': 410, 'widthPercent': 0.45, 'rescaleHeight': False, 'trialN': 59, 'loaded': True, 'loadedTime': 8322, 'positionName': 'RIGHT', 'positionCoords': [798.72, 227], 'bid': 9.79}]",107700.5,1669835014335,turkeysandwich,sushi w_condiments,9.79,9.79,0.0,turkeysandwich,631.4000000059605,632,632.0,True,u,108836.20000001788,1135.7000000178814,1669835015471,1136,HRV,HRV_0221,2022-11-30 19:07:45
60,"[{'imgObject': {}, 'id': 'veggieswithdip', 'src': '/static/foodstim60/veggieswithdip.jpg', 'key': 'u', 'origWidth': 409, 'origHeight': 409, 'width': 409, 'height': 409, 'widthPercent': 0.45, 'rescaleHeight': False, 'trialN': 60, 'loaded': True, 'loadedTime': 8265.300000011921, 'positionName': 'LEFT', 'positionCoords': [328.28, 227.5], 'bid': 9.9}, {'imgObject': {}, 'id': 'roastedpotatoes', 'src': '/static/foodstim60/roastedpotatoes.jpg', 'key': 'i', 'origWidth': 409, 'origHeight': 410, 'width': 409, 'height': 410, 'widthPercent': 0.45, 'rescaleHeight': False, 'trialN': 60, 'loaded': True, 'loadedTime': 7624.700000017881, 'positionName': 'RIGHT', 'positionCoords': [798.72, 227], 'bid': 7.1000000000000005}]",108836.70000001788,1669835015472,veggieswithdip,roastedpotatoes,9.9,7.1000000000000005,-2.8,veggieswithdip,1324.2999999821186,1325,1325.0999999940395,True,u,110668.80000001192,1832.0999999940395,1669835017304,1832,HRV,HRV_0221,2022-11-30 19:07:45
61,"[{'imgObject': {}, 'id': 'cherry tomato', 'src': '/static/foodstim60/cherry tomato.jpg', 'key': 'u', 'origWidth': 410, 'origHeight': 410, 'width': 410, 'height': 410, 'widthPercent': 0.45, 'rescaleHeight': False, 'trialN': 61, 'loaded': True, 'loadedTime': 7523, 'positionName': 'LEFT', 'positionCoords': [327.28, 227], 'bid': 0.01}, {'imgObject': {}, 'id': 'fried eggs', 'src': '/static/foodstim60/fried eggs.jpg', 'key': 'i', 'origWidth': 410, 'origHeight': 410, 'width': 410, 'height': 410, 'widthPercent': 0.45, 'rescaleHeight': False, 'trialN': 61, 'loaded': True, 'loadedTime': 8880.90000000596, 'positionName': 'RIGHT', 'positionCoords': [798.72, 227], 'bid': 0.01}]",110669.5,1669835017304,cherry tomato,fried eggs,0.01,0.01,0.0,cherry tomato,995.3000000119209,996,996.1000000238419,True,u,112171.70000001788,1502.2000000178814,1669835018806,1502,HRV,HRV_0221,2022-11-30 19:07:45
62,"[{'imgObject': {}, 'id': 'avocado', 'src': '/static/foodstim60/avocado.jpg', 'key': 'u', 'origWidth': 409, 'origHeight': 409, 'width': 409, 'height': 409, 'widthPercent': 0.45, 'rescaleHeight': False, 'trialN': 62, 'loaded': True, 'loadedTime': 8845.100000023842, 'positionName': 'LEFT', 'positionCoords': [328.28, 227.5], 'bid': 0.11}, {'imgObject': {}, 'id': 'steak', 'src': '/static/foodstim60/steak.jpg', 'key': 'i', 'origWidth': 410, 'origHeight': 410, 'width': 410, 'height': 410, 'widthPercent': 0.45, 'rescaleHeight': False, 'trialN': 62, 'loaded': True, 'loadedTime': 8070.600000023842, 'positionName': 'RIGHT', 'positionCoords': [798.72, 227], 'bid': 9.84}]",112171.90000000596,1669835018807,avocado,steak,0.11,9.84,9.73,steak,728.7000000178814,729,729.5999999940395,True,i,113404.30000001192,1232.4000000059605,1669835020039,1232,HRV,HRV_0221,2022-11-30 19:07:45
63,"[{'imgObject': {}, 'id': 'pear', 'src': '/static/foodstim60/pear.jpg', 'key': 'u', 'origWidth': 411, 'origHeight': 410, 'width': 411, 'height': 410, 'widthPercent': 0.45, 'rescaleHeight': False, 'trialN': 63, 'loaded': True, 'loadedTime': 8250.600000023842, 'positionName': 'LEFT', 'positionCoords': [326.28, 227], 'bid': 0}, {'imgObject': {}, 'id': 'salmon', 'src': '/static/foodstim60/salmon.jpg', 'key': 'i', 'origWidth': 410, 'origHeight': 409, 'width': 410, 'height': 409, 'widthPercent': 0.45, 'rescaleHeight': False, 'trialN': 63, 'loaded': True, 'loadedTime': 8948.90000000596, 'positionName': 'RIGHT', 'positionCoords': [798.72, 227.5], 'bid': 0.42}]",113405.0,1669835020040,pear,salmon,0.0,0.42,0.42,pear,987.5,988,988.4000000059605,True,u,114899.70000001788,1494.7000000178814,1669835021534,1494,HRV,HRV_0221,2022-11-30 19:07:45
64,"[{'imgObject': {}, 'id': 'chickenfingers', 'src': '/static/foodstim60/chickenfingers.jpg', 'key': 'u', 'origWidth': 410, 'origHeight': 410, 'width': 410, 'height': 410, 'widthPercent': 0.45, 'rescaleHeight': False, 'trialN': 64, 'loaded': True, 'loadedTime': 8897.5, 'positionName': 'LEFT', 'positionCoords': [327.28, 227], 'bid': 9.77}, {'imgObject': {}, 'id': 'olives', 'src': '/static/foodstim60/olives.jpg', 'key': 'i', 'origWidth': 410, 'origHeight': 410, 'width': 410, 'height': 410, 'widthPercent': 0.45, 'rescaleHeight': False, 'trialN': 64, 'loaded': True, 'loadedTime': 8091.4000000059605, 'positionName': 'RIGHT', 'positionCoords': [798.72, 227], 'bid': 6.94}]",114900.30000001192,1669835021535,chickenfingers,olives,9.77,6.94,-2.829999999999999,chickenfingers,880.0999999940395,881,881.0999999940395,True,u,116284.10000002384,1383.800000011921,1669835022919,1384,HRV,HRV_0221,2022-11-30 19:07:45
65,"[{'imgObject': {}, 'id': 'kiwi', 'src': '/static/foodstim60/kiwi.jpg', 'key': 'u', 'origWidth': 410, 'origHeight': 410, 'width': 410, 'height': 410, 'widthPercent': 0.45, 'rescaleHeight': False, 'trialN': 65, 'loaded': True, 'loadedTime': 8675.90000000596, 'positionName': 'LEFT', 'positionCoords': [327.28, 227], 'bid': 0.11}, {'imgObject': {}, 'id': 'hashbrowns', 'src': '/static/foodstim60/hashbrowns.jpg', 'key': 'i', 'origWidth': 411, 'origHeight': 410, 'width': 411, 'height': 410, 'widthPercent': 0.45, 'rescaleHeight': False, 'trialN': 65, 'loaded': True, 'loadedTime': 7953.9000000059605, 'positionName': 'RIGHT', 'positionCoords': [798.72, 227], 'bid': 1.62}]",116284.70000001788,1669835022919,kiwi,hashbrowns,0.11,1.62,1.51,hashbrowns,1405.5999999940395,1407,1406.5999999940395,True,i,118196.60000002384,1911.9000000059605,1669835024831,1912,HRV,HRV_0221,2022-11-30 19:07:45
66,"[{'imgObject': {}, 'id': 'cheerios', 'src': '/static/foodstim60/cheerios.jpg', 'key': 'u', 'origWidth': 409, 'origHeight': 410, 'width': 409, 'height': 410, 'widthPercent': 0.45, 'rescaleHeight': False, 'trialN': 66, 'loaded': True, 'loadedTime': 8973.700000017881, 'positionName': 'LEFT', 'positionCoords': [328.28, 227], 'bid': 0}, {'imgObject': {}, 'id': 'hotdog w must', 'src': '/static/foodstim60/hotdog w must.jpg', 'key': 'i', 'origWidth': 409, 'origHeight': 409, 'width': 409, 'height': 409, 'widthPercent': 0.45, 'rescaleHeight': False, 'trialN': 66, 'loaded': True, 'loadedTime': 7545.200000017881, 'positionName': 'RIGHT', 'positionCoords': [798.72, 227.5], 'bid': 0.01}]",118197.30000001192,1669835024832,cheerios,hotdog w must,0.0,0.01,0.01,hotdog w must,2088.199999988079,2090,2089.5999999940395,True,i,120789.20000001788,2591.9000000059605,1669835027424,2592,HRV,HRV_0221,2022-11-30 19:07:45
67,"[{'imgObject': {}, 'id': 'luckycharms', 'src': '/static/foodstim60/luckycharms.jpg', 'key': 'u', 'origWidth': 410, 'origHeight': 409, 'width': 410, 'height': 409, 'widthPercent': 0.45, 'rescaleHeight': False, 'trialN': 67, 'loaded': True, 'loadedTime': 8352.90000000596, 'positionName': 'LEFT', 'positionCoords': [327.28, 227.5], 'bid': 0}, {'imgObject': {}, 'id': 'cherry tomato', 'src': '/static/foodstim60/cherry tomato.jpg', 'key': 'i', 'origWidth': 410, 'origHeight': 410, 'width': 410, 'height': 410, 'widthPercent': 0.45, 'rescaleHeight': False, 'trialN': 67, 'loaded': True, 'loadedTime': 7527.800000011921, 'positionName': 'RIGHT', 'positionCoords': [798.72, 227], 'bid': 0.01}]",120789.60000002384,1669835027424,luckycharms,cherry tomato,0.0,0.01,0.01,luckycharms,904.5999999940395,909,908.6999999880791,True,u,122203.40000000596,1413.7999999821186,1669835028838,1414,HRV,HRV_0221,2022-11-30 19:07:45
68,"[{'imgObject': {}, 'id': 'fried eggs', 'src': '/static/foodstim60/fried eggs.jpg', 'key': 'u', 'origWidth': 410, 'origHeight': 410, 'width': 410, 'height': 410, 'widthPercent': 0.45, 'rescaleHeight': False, 'trialN': 68, 'loaded': True, 'loadedTime': 8882.700000017881, 'positionName': 'LEFT', 'positionCoords': [327.28, 227], 'bid': 0.01}, {'imgObject': {}, 'id': 'kiwi', 'src': '/static/foodstim60/kiwi.jpg', 'key': 'i', 'origWidth': 410, 'origHeight': 410, 'width': 410, 'height': 410, 'widthPercent': 0.45, 'rescaleHeight': False, 'trialN': 68, 'loaded': True, 'loadedTime': 8664, 'positionName': 'RIGHT', 'positionCoords': [798.72, 227], 'bid': 0.11}]",122204.20000001788,1669835028839,fried eggs,kiwi,0.01,0.11,0.1,kiwi,969.2999999821186,970,970.0,True,i,123676.0,1471.7999999821186,1669835030311,1472,HRV,HRV_0221,2022-11-30 19:07:45
69,"[{'imgObject': {}, 'id': 'tacos', 'src': '/static/foodstim60/tacos.jpg', 'key': 'u', 'origWidth': 411, 'origHeight': 411, 'width': 411, 'height': 411, 'widthPercent': 0.45, 'rescaleHeight': False, 'trialN': 69, 'loaded': True, 'loadedTime': 8825.700000017881, 'positionName': 'LEFT', 'positionCoords': [326.28, 226.5], 'bid': 0}, {'imgObject': {}, 'id': 'raisin bran w milk', 'src': '/static/foodstim60/raisin bran w milk.jpg', 'key': 'i', 'origWidth': 411, 'origHeight': 411, 'width': 411, 'height': 411, 'widthPercent': 0.45, 'rescaleHeight': False, 'trialN': 69, 'loaded': True, 'loadedTime': 8405.200000017881, 'positionName': 'RIGHT', 'positionCoords': [798.72, 226.5], 'bid': 0}]",123676.5,1669835030311,tacos,raisin bran w milk,0.0,0.0,0.0,tacos,2583.2000000178814,2584,2584.100000023842,True,u,126763.60000002384,3087.100000023842,1669835033398,3087,HRV,HRV_0221,2022-11-30 19:07:45
70,"[{'imgObject': {}, 'id': 'tacos', 'src': '/static/foodstim60/tacos.jpg', 'key': 'u', 'origWidth': 411, 'origHeight': 411, 'width': 411, 'height': 411, 'widthPercent': 0.45, 'rescaleHeight': False, 'trialN': 70, 'loaded': True, 'loadedTime': 8830.90000000596, 'positionName': 'LEFT', 'positionCoords': [326.28, 226.5], 'bid': 0}, {'imgObject': {}, 'id': 'popsicles', 'src': '/static/foodstim60/popsicles.jpg', 'key': 'i', 'origWidth': 410, 'origHeight': 410, 'width': 410, 'height': 410, 'widthPercent': 0.45, 'rescaleHeight': False, 'trialN': 70, 'loaded': True, 'loadedTime': 9110.40000000596, 'positionName': 'RIGHT', 'positionCoords': [798.72, 227], 'bid': 0.09}]",126764.0,1669835033399,tacos,popsicles,0.0,0.09,0.09,tacos,1494,1495,1494.800000011921,True,u,128764.5,2000.5,1669835035399,2000,HRV,HRV_0221,2022-11-30 19:07:45
71,"[{'imgObject': {}, 'id': 'salad w chicken', 'src': '/static/foodstim60/salad w chicken.jpg', 'key': 'u', 'origWidth': 411, 'origHeight': 411, 'width': 411, 'height': 411, 'widthPercent': 0.45, 'rescaleHeight': False, 'trialN': 71, 'loaded': True, 'loadedTime': 8229.90000000596, 'positionName': 'LEFT', 'positionCoords': [326.28, 226.5], 'bid': 10}, {'imgObject': {}, 'id': 'cocktailshrimp', 'src': '/static/foodstim60/cocktailshrimp.jpg', 'key': 'i', 'origWidth': 410, 'origHeight': 410, 'width': 410, 'height': 410, 'widthPercent': 0.45, 'rescaleHeight': False, 'trialN': 71, 'loaded': True, 'loadedTime': 7651.4000000059605, 'positionName': 'RIGHT', 'positionCoords': [798.72, 227], 'bid': 9.03}]",128765.0,1669835035400,salad w chicken,cocktailshrimp,10.0,9.03,-0.9700000000000006,salad w chicken,1052.300000011921,1053,1053.2000000178814,True,u,130324.30000001192,1559.300000011921,1669835036959,1559,HRV,HRV_0221,2022-11-30 19:07:45
72,"[{'imgObject': {}, 'id': 'shreddedwheatwithmilk', 'src': '/static/foodstim60/shreddedwheatwithmilk.jpg', 'key': 'u', 'origWidth': 410, 'origHeight': 410, 'width': 410, 'height': 410, 'widthPercent': 0.45, 'rescaleHeight': False, 'trialN': 72, 'loaded': True, 'loadedTime': 8856.800000011921, 'positionName': 'LEFT', 'positionCoords': [327.28, 227], 'bid': 0.93}, {'imgObject': {}, 'id': 'Tribe humus pita', 'src': '/static/foodstim60/Tribe humus pita.jpg', 'key': 'i', 'origWidth': 411, 'origHeight': 411, 'width': 411, 'height': 411, 'widthPercent': 0.45, 'rescaleHeight': False, 'trialN': 72, 'loaded': True, 'loadedTime': 8727, 'positionName': 'RIGHT', 'positionCoords': [798.72, 226.5], 'bid': 0.1}]",130324.70000001788,1669835036960,shreddedwheatwithmilk,Tribe humus pita,0.93,0.1,-0.8300000000000001,shreddedwheatwithmilk,2232.5,2233,2233.199999988079,True,u,133060.0,2735.2999999821186,1669835039695,2735,HRV,HRV_0221,2022-11-30 19:07:45
73,"[{'imgObject': {}, 'id': 'hotdog w must', 'src': '/static/foodstim60/hotdog w must.jpg', 'key': 'u', 'origWidth': 409, 'origHeight': 409, 'width': 409, 'height': 409, 'widthPercent': 0.45, 'rescaleHeight': False, 'trialN': 73, 'loaded': True, 'loadedTime': 7542.200000017881, 'positionName': 'LEFT', 'positionCoords': [328.28, 227.5], 'bid': 0.01}, {'imgObject': {}, 'id': 'banana', 'src': '/static/foodstim60/banana.jpg', 'key': 'i', 'origWidth': 410, 'origHeight': 410, 'width': 410, 'height': 410, 'widthPercent': 0.45, 'rescaleHeight': False, 'trialN': 73, 'loaded': True, 'loadedTime': 8712.300000011921, 'positionName': 'RIGHT', 'positionCoords': [798.72, 227], 'bid': 0.01}]",133061.30000001192,1669835039696,hotdog w must,banana,0.01,0.01,0.0,hotdog w must,1065.5999999940395,1067,1067.300000011921,True,u,134637.30000001192,1576.0,1669835041272,1576,HRV,HRV_0221,2022-11-30 19:07:45
74,"[{'imgObject': {}, 'id': 'raspberries', 'src': '/static/foodstim60/raspberries.jpg', 'key': 'u', 'origWidth': 411, 'origHeight': 411, 'width': 411, 'height': 411, 'widthPercent': 0.45, 'rescaleHeight': False, 'trialN': 74, 'loaded': True, 'loadedTime': 8198.600000023842, 'positionName': 'LEFT', 'positionCoords': [326.28, 226.5], 'bid': 0}, {'imgObject': {}, 'id': 'shreddedwheatwithmilk', 'src': '/static/foodstim60/shreddedwheatwithmilk.jpg', 'key': 'i', 'origWidth': 410, 'origHeight': 410, 'width': 410, 'height': 410, 'widthPercent': 0.45, 'rescaleHeight': False, 'trialN': 74, 'loaded': True, 'loadedTime': 8848.700000017881, 'positionName': 'RIGHT', 'positionCoords': [798.72, 227], 'bid': 0.93}]",134637.60000002384,1669835041272,raspberries,shreddedwheatwithmilk,0.0,0.93,0.93,shreddedwheatwithmilk,2356.5999999940395,2358,2357.399999976158,True,i,137500.70000001788,2863.0999999940395,1669835044135,2863,HRV,HRV_0221,2022-11-30 19:07:45
75,"[{'imgObject': {}, 'id': 'popsicles', 'src': '/static/foodstim60/popsicles.jpg', 'key': 'u', 'origWidth': 410, 'origHeight': 410, 'width': 410, 'height': 410, 'widthPercent': 0.45, 'rescaleHeight': False, 'trialN': 75, 'loaded': True, 'loadedTime': 9111, 'positionName': 'LEFT', 'positionCoords': [327.28, 227], 'bid': 0.09}, {'imgObject': {}, 'id': 'granola w milk', 'src': '/static/foodstim60/granola w milk.jpg', 'key': 'i', 'origWidth': 410, 'origHeight': 410, 'width': 410, 'height': 410, 'widthPercent': 0.45, 'rescaleHeight': False, 'trialN': 75, 'loaded': True, 'loadedTime': 8462.700000017881, 'positionName': 'RIGHT', 'positionCoords': [798.72, 227], 'bid': 0.07}]",137500.90000000596,1669835044136,popsicles,granola w milk,0.09,0.07,-0.01999999999999999,popsicles,1664.5999999940395,1666,1666.2000000178814,True,u,139668.5,2167.5999999940395,1669835046303,2167,HRV,HRV_0221,2022-11-30 19:07:45
76,"[{'imgObject': {}, 'id': 'granola w milk', 'src': '/static/foodstim60/granola w milk.jpg', 'key': 'u', 'origWidth': 410, 'origHeight': 410, 'width': 410, 'height': 410, 'widthPercent': 0.45, 'rescaleHeight': False, 'trialN': 76, 'loaded': True, 'loadedTime': 8463.5, 'positionName': 'LEFT', 'positionCoords': [327.28, 227], 'bid': 0.07}, {'imgObject': {}, 'id': 'corn cob', 'src': '/static/foodstim60/corn cob.jpg', 'key': 'i', 'origWidth': 411, 'origHeight': 411, 'width': 411, 'height': 411, 'widthPercent': 0.45, 'rescaleHeight': False, 'trialN': 76, 'loaded': True, 'loadedTime': 7811.5, 'positionName': 'RIGHT', 'positionCoords': [798.72, 226.5], 'bid': 9.37}]",139668.60000002384,1669835046303,granola w milk,corn cob,0.07,9.37,9.299999999999999,granola w milk,1631.199999988079,1633,1632.199999988079,True,u,141803.60000002384,2135.0,1669835048438,2135,HRV,HRV_0221,2022-11-30 19:07:45
77,"[{'imgObject': {}, 'id': 'salmon', 'src': '/static/foodstim60/salmon.jpg', 'key': 'u', 'origWidth': 410, 'origHeight': 409, 'width': 410, 'height': 409, 'widthPercent': 0.45, 'rescaleHeight': False, 'trialN': 77, 'loaded': True, 'loadedTime': 8948.700000017881, 'positionName': 'LEFT', 'positionCoords': [327.28, 227.5], 'bid': 0.42}, {'imgObject': {}, 'id': 'kiwi', 'src': '/static/foodstim60/kiwi.jpg', 'key': 'i', 'origWidth': 410, 'origHeight': 410, 'width': 410, 'height': 410, 'widthPercent': 0.45, 'rescaleHeight': False, 'trialN': 77, 'loaded': True, 'loadedTime': 8672.800000011921, 'positionName': 'RIGHT', 'positionCoords': [798.72, 227], 'bid': 0.11}]",141804.20000001788,1669835048439,salmon,kiwi,0.42,0.11,-0.31,kiwi,1679,1680,1680.0999999940395,True,i,143988.10000002384,2183.9000000059605,1669835050623,2184,HRV,HRV_0221,2022-11-30 19:07:45
78,"[{'imgObject': {}, 'id': 'grilled chicken strips', 'src': '/static/foodstim60/grilled chicken strips.jpg', 'key': 'u', 'origWidth': 410, 'origHeight': 411, 'width': 410, 'height': 411, 'widthPercent': 0.45, 'rescaleHeight': False, 'trialN': 78, 'loaded': True, 'loadedTime': 8119.800000011921, 'positionName': 'LEFT', 'positionCoords': [327.28, 226.5], 'bid': 7.83}, {'imgObject': {}, 'id': 'sweetpotato', 'src': '/static/foodstim60/sweetpotato.jpg', 'key': 'i', 'origWidth': 410, 'origHeight': 410, 'width': 410, 'height': 410, 'widthPercent': 0.45, 'rescaleHeight': False, 'trialN': 78, 'loaded': True, 'loadedTime': 8390.90000000596, 'positionName': 'RIGHT', 'positionCoords': [798.72, 227], 'bid': 8.51}]",143988.60000002384,1669835050623,grilled chicken strips,sweetpotato,7.83,8.51,0.6799999999999997,grilled chicken strips,904.8999999761581,906,905.5999999940395,True,u,145396.10000002384,1407.5,1669835052031,1408,HRV,HRV_0221,2022-11-30 19:07:45
79,"[{'imgObject': {}, 'id': 'edamame', 'src': '/static/foodstim60/edamame.jpg', 'key': 'u', 'origWidth': 409, 'origHeight': 410, 'width': 409, 'height': 410, 'widthPercent': 0.45, 'rescaleHeight': False, 'trialN': 79, 'loaded': True, 'loadedTime': 7546.600000023842, 'positionName': 'LEFT', 'positionCoords': [328.28, 227], 'bid': 8.73}, {'imgObject': {}, 'id': 'omelette', 'src': '/static/foodstim60/omelette.jpg', 'key': 'i', 'origWidth': 410, 'origHeight': 409, 'width': 410, 'height': 409, 'widthPercent': 0.45, 'rescaleHeight': False, 'trialN': 79, 'loaded': True, 'loadedTime': 7603, 'positionName': 'RIGHT', 'positionCoords': [798.72, 227.5], 'bid': 0.05}]",145396.70000001788,1669835052032,edamame,omelette,8.73,0.05,-8.68,edamame,1000.1999999880791,1000,1000.7999999821186,True,u,146900.30000001192,1503.5999999940395,1669835053535,1503,HRV,HRV_0221,2022-11-30 19:07:45
80,"[{'imgObject': {}, 'id': 'rigatoni', 'src': '/static/foodstim60/rigatoni.jpg', 'key': 'u', 'origWidth': 411, 'origHeight': 411, 'width': 411, 'height': 411, 'widthPercent': 0.45, 'rescaleHeight': False, 'trialN': 80, 'loaded': True, 'loadedTime': 8967.5, 'positionName': 'LEFT', 'positionCoords': [326.28, 226.5], 'bid': 1.56}, {'imgObject': {}, 'id': 'mango', 'src': '/static/foodstim60/mango.jpg', 'key': 'i', 'origWidth': 411, 'origHeight': 411, 'width': 411, 'height': 411, 'widthPercent': 0.45, 'rescaleHeight': False, 'trialN': 80, 'loaded': True, 'loadedTime': 8315.300000011921, 'positionName': 'RIGHT', 'positionCoords': [798.72, 226.5], 'bid': 0.1}]",146900.70000001788,1669835053535,rigatoni,mango,1.56,0.1,-1.46,rigatoni,1126.699999988079,1128,1127.2999999821186,True,u,148532.20000001788,1631.5,1669835055167,1632,HRV,HRV_0221,2022-11-30 19:07:45
81,"[{'imgObject': {}, 'id': 'burger', 'src': '/static/foodstim60/burger.jpg', 'key': 'u', 'origWidth': 409, 'origHeight': 409, 'width': 409, 'height': 409, 'widthPercent': 0.45, 'rescaleHeight': False, 'trialN': 81, 'loaded': True, 'loadedTime': 8005.700000017881, 'positionName': 'LEFT', 'positionCoords': [328.28, 227.5], 'bid': 6.87}, {'imgObject': {}, 'id': 'turkey sandwich', 'src': '/static/foodstim60/turkey sandwich.jpg', 'key': 'i', 'origWidth': 409, 'origHeight': 409, 'width': 409, 'height': 409, 'widthPercent': 0.45, 'rescaleHeight': False, 'trialN': 81, 'loaded': True, 'loadedTime': 8181.700000017881, 'positionName': 'RIGHT', 'positionCoords': [798.72, 227.5], 'bid': 9.84}]",148532.70000001788,1669835055168,burger,turkey sandwich,6.87,9.84,2.9699999999999998,burger,1661.199999988079,1661,1661.9000000059605,True,u,150700.10000002384,2167.4000000059605,1669835057335,2167,HRV,HRV_0221,2022-11-30 19:07:45
82,"[{'imgObject': {}, 'id': 'mashed potato', 'src': '/static/foodstim60/mashed potato.jpg', 'key': 'u', 'origWidth': 409, 'origHeight': 409, 'width': 409, 'height': 409, 'widthPercent': 0.45, 'rescaleHeight': False, 'trialN': 82, 'loaded': True, 'loadedTime': 8281.200000017881, 'positionName': 'LEFT', 'positionCoords': [328.28, 227.5], 'bid': 6.87}, {'imgObject': {}, 'id': 'hotdog w must', 'src': '/static/foodstim60/hotdog w must.jpg', 'key': 'i', 'origWidth': 409, 'origHeight': 409, 'width': 409, 'height': 409, 'widthPercent': 0.45, 'rescaleHeight': False, 'trialN': 82, 'loaded': True, 'loadedTime': 7537, 'positionName': 'RIGHT', 'positionCoords': [798.72, 227.5], 'bid': 0.01}]",150700.30000001192,1669835057335,mashed potato,hotdog w must,6.87,0.01,-6.86,mashed potato,973.9000000059605,975,974.8000000119209,True,u,152180.10000002384,1479.800000011921,1669835058815,1480,HRV,HRV_0221,2022-11-30 19:07:45
83,"[{'imgObject': {}, 'id': 'ice cream sundae 002', 'src': '/static/foodstim60/ice cream sundae 002.jpg', 'key': 'u', 'origWidth': 409, 'origHeight': 409, 'width': 409, 'height': 409, 'widthPercent': 0.45, 'rescaleHeight': False, 'trialN': 83, 'loaded': True, 'loadedTime': 8742.90000000596, 'positionName': 'LEFT', 'positionCoords': [328.28, 227.5], 'bid': 5.2}, {'imgObject': {}, 'id': 'banana', 'src': '/static/foodstim60/banana.jpg', 'key': 'i', 'origWidth': 410, 'origHeight': 410, 'width': 410, 'height': 410, 'widthPercent': 0.45, 'rescaleHeight': False, 'trialN': 83, 'loaded': True, 'loadedTime': 8714.300000011921, 'positionName': 'RIGHT', 'positionCoords': [798.72, 227], 'bid': 0.01}]",152180.90000000596,1669835058816,ice cream sundae 002,banana,5.2,0.01,-5.19,ice cream sundae 002,1314.2000000178814,1315,1315.0,True,u,154004.30000001192,1823.4000000059605,1669835060639,1823,HRV,HRV_0221,2022-11-30 19:07:45
84,"[{'imgObject': {}, 'id': 'fried eggs', 'src': '/static/foodstim60/fried eggs.jpg', 'key': 'u', 'origWidth': 410, 'origHeight': 410, 'width': 410, 'height': 410, 'widthPercent': 0.45, 'rescaleHeight': False, 'trialN': 84, 'loaded': True, 'loadedTime': 8885.90000000596, 'positionName': 'LEFT', 'positionCoords': [327.28, 227], 'bid': 0.01}, {'imgObject': {}, 'id': 'burger', 'src': '/static/foodstim60/burger.jpg', 'key': 'i', 'origWidth': 409, 'origHeight': 409, 'width': 409, 'height': 409, 'widthPercent': 0.45, 'rescaleHeight': False, 'trialN': 84, 'loaded': True, 'loadedTime': 8004.200000017881, 'positionName': 'RIGHT', 'positionCoords': [798.72, 227.5], 'bid': 6.87}]",154004.80000001192,1669835060640,fried eggs,burger,0.01,6.87,6.86,burger,926.8000000119209,927,927.6999999880791,True,i,155435.70000001788,1430.9000000059605,1669835062071,1431,HRV,HRV_0221,2022-11-30 19:07:45
85,"[{'imgObject': {}, 'id': 'cherry tomato', 'src': '/static/foodstim60/cherry tomato.jpg', 'key': 'u', 'origWidth': 410, 'origHeight': 410, 'width': 410, 'height': 410, 'widthPercent': 0.45, 'rescaleHeight': False, 'trialN': 85, 'loaded': True, 'loadedTime': 7504, 'positionName': 'LEFT', 'positionCoords': [327.28, 227], 'bid': 0.01}, {'imgObject': {}, 'id': 'olives', 'src': '/static/foodstim60/olives.jpg', 'key': 'i', 'origWidth': 410, 'origHeight': 410, 'width': 410, 'height': 410, 'widthPercent': 0.45, 'rescaleHeight': False, 'trialN': 85, 'loaded': True, 'loadedTime': 8087.200000017881, 'positionName': 'RIGHT', 'positionCoords': [798.72, 227], 'bid': 6.94}]",155436.10000002384,1669835062071,cherry tomato,olives,0.01,6.94,6.930000000000001,cherry tomato,795,796,795.6999999880791,True,u,156732.70000001788,1296.5999999940395,1669835063367,1296,HRV,HRV_0221,2022-11-30 19:07:45
86,"[{'imgObject': {}, 'id': 'grilled chicken strips', 'src': '/static/foodstim60/grilled chicken strips.jpg', 'key': 'u', 'origWidth': 410, 'origHeight': 411, 'width': 410, 'height': 411, 'widthPercent': 0.45, 'rescaleHeight': False, 'trialN': 86, 'loaded': True, 'loadedTime': 8098.5, 'positionName': 'LEFT', 'positionCoords': [327.28, 226.5], 'bid': 7.83}, {'imgObject': {}, 'id': 'eggs', 'src': '/static/foodstim60/eggs.jpg', 'key': 'i', 'origWidth': 409, 'origHeight': 409, 'width': 409, 'height': 409, 'widthPercent': 0.45, 'rescaleHeight': False, 'trialN': 86, 'loaded': True, 'loadedTime': 8663.40000000596, 'positionName': 'RIGHT', 'positionCoords': [798.72, 227.5], 'bid': 0.02}]",156733.0,1669835063368,grilled chicken strips,eggs,7.83,0.02,-7.8100000000000005,grilled chicken strips,797.8000000119209,799,798.9000000059605,True,u,158036.30000001192,1303.300000011921,1669835064671,1303,HRV,HRV_0221,2022-11-30 19:07:45
87,"[{'imgObject': {}, 'id': 'hotdog w must', 'src': '/static/foodstim60/hotdog w must.jpg', 'key': 'u', 'origWidth': 409, 'origHeight': 409, 'width': 409, 'height': 409, 'widthPercent': 0.45, 'rescaleHeight': False, 'trialN': 87, 'loaded': True, 'loadedTime': 7543.9000000059605, 'positionName': 'LEFT', 'positionCoords': [328.28, 227.5], 'bid': 0.01}, {'imgObject': {}, 'id': 'lox', 'src': '/static/foodstim60/lox.jpg', 'key': 'i', 'origWidth': 410, 'origHeight': 411, 'width': 410, 'height': 411, 'widthPercent': 0.45, 'rescaleHeight': False, 'trialN': 87, 'loaded': True, 'loadedTime': 8079.4000000059605, 'positionName': 'RIGHT', 'positionCoords': [798.72, 226.5], 'bid': 0.07}]",158036.70000001788,1669835064672,hotdog w must,lox,0.01,0.07,0.060000000000000005,lox,1083.7999999821186,1084,1084.4000000059605,True,i,159628.20000001788,1591.5,1669835066263,1591,HRV,HRV_0221,2022-11-30 19:07:45
88,"[{'imgObject': {}, 'id': 'eggsalad', 'src': '/static/foodstim60/eggsalad.jpg', 'key': 'u', 'origWidth': 410, 'origHeight': 409, 'width': 410, 'height': 409, 'widthPercent': 0.45, 'rescaleHeight': False, 'trialN': 88, 'loaded': True, 'loadedTime': 7716.4000000059605, 'positionName': 'LEFT', 'positionCoords': [327.28, 227.5], 'bid': 0.14}, {'imgObject': {}, 'id': 'ice cream sundae 002', 'src': '/static/foodstim60/ice cream sundae 002.jpg', 'key': 'i', 'origWidth': 409, 'origHeight': 409, 'width': 409, 'height': 409, 'widthPercent': 0.45, 'rescaleHeight': False, 'trialN': 88, 'loaded': True, 'loadedTime': 8742.300000011921, 'positionName': 'RIGHT', 'positionCoords': [798.72, 227.5], 'bid': 5.2}]",159628.70000001788,1669835066264,eggsalad,ice cream sundae 002,0.14,5.2,5.0600000000000005,NaN,NaN,NaN,,False,NaN,163637.90000000596,4009.199999988079,1669835070273,4009,HRV,HRV_0221,2022-11-30 19:07:45
89,"[{'imgObject': {}, 'id': 'steak', 'src': '/static/foodstim60/steak.jpg', 'key': 'u', 'origWidth': 410, 'origHeight': 410, 'width': 410, 'height': 410, 'widthPercent': 0.45, 'rescaleHeight': False, 'trialN': 89, 'loaded': True, 'loadedTime': 8066.4000000059605, 'positionName': 'LEFT', 'positionCoords': [327.28, 227], 'bid': 9.84}, {'imgObject': {}, 'id': 'veggieswithdip', 'src': '/static/foodstim60/veggieswithdip.jpg', 'key': 'i', 'origWidth': 409, 'origHeight': 409, 'width': 409, 'height': 409, 'widthPercent': 0.45, 'rescaleHeight': False, 'trialN': 89, 'loaded': True, 'loadedTime': 8265.600000023842, 'positionName': 'RIGHT', 'positionCoords': [798.72, 227.5], 'bid': 9.9}]",163638.20000001788,1669835070273,steak,veggieswithdip,9.84,9.9,0.0600000000000005,steak,673.5,674,674.1999999880791,True,u,164819.70000001788,1181.5,1669835071455,1182,HRV,HRV_0221,2022-11-30 19:07:45
90,"[{'imgObject': {}, 'id': 'mango', 'src': '/static/foodstim60/mango.jpg', 'key': 'u', 'origWidth': 411, 'origHeight': 411, 'width': 411, 'height': 411, 'widthPercent': 0.45, 'rescaleHeight': False, 'trialN': 90, 'loaded': True, 'loadedTime': 8313.90000000596, 'positionName': 'LEFT', 'positionCoords': [326.28, 226.5], 'bid': 0.1}, {'imgObject': {}, 'id': 'sushi w_condiments', 'src': '/static/foodstim60/sushi w_condiments.jpg', 'key': 'i', 'origWidth': 410, 'origHeight': 410, 'width': 410, 'height': 410, 'widthPercent': 0.45, 'rescaleHeight': False, 'trialN': 90, 'loaded': True, 'loadedTime': 8324.300000011921, 'positionName': 'RIGHT', 'positionCoords': [798.72, 227], 'bid': 9.79}]",190636.10000002384,1669835097271,mango,sushi w_condiments,0.1,9.79,9.69,sushi w_condiments,1952.0999999940395,1953,1953.199999988079,True,i,193092.40000000596,2456.2999999821186,1669835099727,2456,HRV,HRV_0221,2022-11-30 19:07:45
91,"[{'imgObject': {}, 'id': 'ice cream sundae 002', 'src': '/static/foodstim60/ice cream sundae 002.jpg', 'key': 'u', 'origWidth': 409, 'origHeight': 409, 'width': 409, 'height': 409, 'widthPercent': 0.45, 'rescaleHeight': False, 'trialN': 91, 'loaded': True, 'loadedTime': 8731.90000000596, 'positionName': 'LEFT', 'positionCoords': [328.28, 227.5], 'bid': 5.2}, {'imgObject': {}, 'id': 'blueberries', 'src': '/static/foodstim60/blueberries.jpg', 'key': 'i', 'origWidth': 411, 'origHeight': 411, 'width': 411, 'height': 411, 'widthPercent': 0.45, 'rescaleHeight': False, 'trialN': 91, 'loaded': True, 'loadedTime': 7430.600000023842, 'positionName': 'RIGHT', 'positionCoords': [798.72, 226.5], 'bid': 4.54}]",193092.70000001788,1669835099727,ice cream sundae 002,blueberries,5.2,4.54,-0.6600000000000001,ice cream sundae 002,1284.199999988079,1285,1284.9000000059605,True,u,194878.90000000596,1786.199999988079,1669835101514,1787,HRV,HRV_0221,2022-11-30 19:07:45
92,"[{'imgObject': {}, 'id': 'fruitsalad', 'src': '/static/foodstim60/fruitsalad.jpg', 'key': 'u', 'origWidth': 410, 'origHeight': 410, 'width': 410, 'height': 410, 'widthPercent': 0.45, 'rescaleHeight': False, 'trialN': 92, 'loaded': True, 'loadedTime': 7779.5, 'positionName': 'LEFT', 'positionCoords': [327.28, 227], 'bid': 0}, {'imgObject': {}, 'id': 'Tribe humus pita', 'src': '/static/foodstim60/Tribe humus pita.jpg', 'key': 'i', 'origWidth': 411, 'origHeight': 411, 'width': 411, 'height': 411, 'widthPercent': 0.45, 'rescaleHeight': False, 'trialN': 92, 'loaded': True, 'loadedTime': 8722.200000017881, 'positionName': 'RIGHT', 'positionCoords': [798.72, 226.5], 'bid': 0.1}]",194879.10000002384,1669835101514,fruitsalad,Tribe humus pita,0.0,0.1,0.1,Tribe humus pita,961.8999999761581,963,963.3999999761581,True,i,196348.30000001192,1469.199999988079,1669835102983,1469,HRV,HRV_0221,2022-11-30 19:07:45
93,"[{'imgObject': {}, 'id': 'chickenfingers', 'src': '/static/foodstim60/chickenfingers.jpg', 'key': 'u', 'origWidth': 410, 'origHeight': 410, 'width': 410, 'height': 410, 'widthPercent': 0.45, 'rescaleHeight': False, 'trialN': 93, 'loaded': True, 'loadedTime': 8888.40000000596, 'positionName': 'LEFT', 'positionCoords': [327.28, 227], 'bid': 9.77}, {'imgObject': {}, 'id': 'blueberries', 'src': '/static/foodstim60/blueberries.jpg', 'key': 'i', 'origWidth': 411, 'origHeight': 411, 'width': 411, 'height': 411, 'widthPercent': 0.45, 'rescaleHeight': False, 'trialN': 93, 'loaded': True, 'loadedTime': 7232.5, 'positionName': 'RIGHT', 'positionCoords': [798.72, 226.5], 'bid': 4.54}]",196348.80000001192,1669835102984,chickenfingers,blueberries,9.77,4.54,-5.2299999999999995,chickenfingers,780.5999999940395,781,781.4000000059605,True,u,197636.0,1287.199999988079,1669835104271,1287,HRV,HRV_0221,2022-11-30 19:07:45
94,"[{'imgObject': {}, 'id': 'burrito', 'src': '/static/foodstim60/burrito.jpg', 'key': 'u', 'origWidth': 410, 'origHeight': 410, 'width': 410, 'height': 410, 'widthPercent': 0.45, 'rescaleHeight': False, 'trialN': 94, 'loaded': True, 'loadedTime': 8271, 'positionName': 'LEFT', 'positionCoords': [327.28, 227], 'bid': 7.47}, {'imgObject': {}, 'id': 'olives', 'src': '/static/foodstim60/olives.jpg', 'key': 'i', 'origWidth': 410, 'origHeight': 410, 'width': 410, 'height': 410, 'widthPercent': 0.45, 'rescaleHeight': False, 'trialN': 94, 'loaded': True, 'loadedTime': 8093.5, 'positionName': 'RIGHT', 'positionCoords': [798.72, 227], 'bid': 6.94}]",197636.5,1669835104271,burrito,olives,7.47,6.94,-0.5299999999999994,burrito,908.5,909,909.2000000178814,True,u,199052.90000000596,1416.4000000059605,1669835105688,1417,HRV,HRV_0221,2022-11-30 19:07:45
95,"[{'imgObject': {}, 'id': 'mashed potato', 'src': '/static/foodstim60/mashed potato.jpg', 'key': 'u', 'origWidth': 409, 'origHeight': 409, 'width': 409, 'height': 409, 'widthPercent': 0.45, 'rescaleHeight': False, 'trialN': 95, 'loaded': True, 'loadedTime': 8279.100000023842, 'positionName': 'LEFT', 'positionCoords': [328.28, 227.5], 'bid': 6.87}, {'imgObject': {}, 'id': 'sweetpotato', 'src': '/static/foodstim60/sweetpotato.jpg', 'key': 'i', 'origWidth': 410, 'origHeight': 410, 'width': 410, 'height': 410, 'widthPercent': 0.45, 'rescaleHeight': False, 'trialN': 95, 'loaded': True, 'loadedTime': 8387.800000011921, 'positionName': 'RIGHT', 'positionCoords': [798.72, 227], 'bid': 8.51}]",199053.10000002384,1669835105688,mashed potato,sweetpotato,6.87,8.51,1.6399999999999997,mashed potato,747.6999999880791,748,748.5,True,u,200307.80000001192,1254.699999988079,1669835106943,1255,HRV,HRV_0221,2022-11-30 19:07:45
96,"[{'imgObject': {}, 'id': 'orange slices', 'src': '/static/foodstim60/orange slices.jpg', 'key': 'u', 'origWidth': 409, 'origHeight': 410, 'width': 409, 'height': 410, 'widthPercent': 0.45, 'rescaleHeight': False, 'trialN': 96, 'loaded': True, 'loadedTime': 7569.800000011921, 'positionName': 'LEFT', 'positionCoords': [328.28, 227], 'bid': 0.06}, {'imgObject': {}, 'id': 'apple slices', 'src': '/static/foodstim60/apple slices.jpg', 'key': 'i', 'origWidth': 409, 'origHeight': 410, 'width': 409, 'height': 410, 'widthPercent': 0.45, 'rescaleHeight': False, 'trialN': 96, 'loaded': True, 'loadedTime': 8980.5, 'positionName': 'RIGHT', 'positionCoords': [798.72, 227], 'bid': 0.02}]",200308.30000001192,1669835106943,orange slices,apple slices,0.06,0.02,-0.039999999999999994,orange slices,765.4000000059605,767,766.5999999940395,True,u,201580.0,1271.699999988079,1669835108215,1272,HRV,HRV_0221,2022-11-30 19:07:45
97,"[{'imgObject': {}, 'id': 'grilled chicken strips', 'src': '/static/foodstim60/grilled chicken strips.jpg', 'key': 'u', 'origWidth': 410, 'origHeight': 411, 'width': 410, 'height': 411, 'widthPercent': 0.45, 'rescaleHeight': False, 'trialN': 97, 'loaded': True, 'loadedTime': 8107.800000011921, 'positionName': 'LEFT', 'positionCoords': [327.28, 226.5], 'bid': 7.83}, {'imgObject': {}, 'id': 'ice cream sundae 002', 'src': '/static/foodstim60/ice cream sundae 002.jpg', 'key': 'i', 'origWidth': 409, 'origHeight': 409, 'width': 409, 'height': 409, 'widthPercent': 0.45, 'rescaleHeight': False, 'trialN': 97, 'loaded': True, 'loadedTime': 8741.200000017881, 'positionName': 'RIGHT', 'positionCoords': [798.72, 227.5], 'bid': 5.2}]",201580.5,1669835108215,grilled chicken strips,ice cream sundae 002,7.83,5.2,-2.63,grilled chicken strips,871.9000000059605,873,873.1000000238419,True,u,202956.0,1375.5,1669835109591,1376,HRV,HRV_0221,2022-11-30 19:07:45
98,"[{'imgObject': {}, 'id': 'edamame', 'src': '/static/foodstim60/edamame.jpg', 'key': 'u', 'origWidth': 409, 'origHeight': 410, 'width': 409, 'height': 410, 'widthPercent': 0.45, 'rescaleHeight': False, 'trialN': 98, 'loaded': True, 'loadedTime': 7556.600000023842, 'positionName': 'LEFT', 'positionCoords': [328.28, 227], 'bid': 8.73}, {'imgObject': {}, 'id': 'steak', 'src': '/static/foodstim60/steak.jpg', 'key': 'i', 'origWidth': 410, 'origHeight': 410, 'width': 410, 'height': 410, 'widthPercent': 0.45, 'rescaleHeight': False, 'trialN': 98, 'loaded': True, 'loadedTime': 8074.200000017881, 'positionName': 'RIGHT', 'positionCoords': [798.72, 227], 'bid': 9.84}]",202956.20000001788,1669835109591,edamame,steak,8.73,9.84,1.1099999999999994,edamame,718.0999999940395,719,718.7999999821186,True,u,204179.90000000596,1223.699999988079,1669835110815,1224,HRV,HRV_0221,2022-11-30 19:07:45
99,"[{'imgObject': {}, 'id': 'salad w chicken', 'src': '/static/foodstim60/salad w chicken.jpg', 'key': 'u', 'origWidth': 411, 'origHeight': 411, 'width': 411, 'height': 411, 'widthPercent': 0.45, 'rescaleHeight': False, 'trialN': 99, 'loaded': True, 'loadedTime': 8229.700000017881, 'positionName': 'LEFT', 'positionCoords': [326.28, 226.5], 'bid': 10}, {'imgObject': {}, 'id': 'chicken nuggets2', 'src': '/static/foodstim60/chicken nuggets2.jpg', 'key': 'i', 'origWidth': 410, 'origHeight': 409, 'width': 410, 'height': 409, 'widthPercent': 0.45, 'rescaleHeight': False, 'trialN': 99, 'loaded': True, 'loadedTime': 7701.600000023842, 'positionName': 'RIGHT', 'positionCoords': [798.72, 227.5], 'bid': 9.96}]",204180.5,1669835110815,salad w chicken,chicken nuggets2,10.0,9.96,-0.03999999999999915,salad w chicken,924.4000000059605,926,925.4000000059605,True,u,205612.10000002384,1431.6000000238419,1669835112247,1432,HRV,HRV_0221,2022-11-30 19:07:45
100,"[{'imgObject': {}, 'id': 'grilled chicken strips', 'src': '/static/foodstim60/grilled chicken strips.jpg', 'key': 'u', 'origWidth': 410, 'origHeight': 411, 'width': 410, 'height': 411, 'widthPercent': 0.45, 'rescaleHeight': False, 'trialN': 100, 'loaded': True, 'loadedTime': 8096.700000017881, 'positionName': 'LEFT', 'positionCoords': [327.28, 226.5], 'bid': 7.83}, {'imgObject': {}, 'id': 'edamame', 'src': '/static/foodstim60/edamame.jpg', 'key': 'i', 'origWidth': 409, 'origHeight': 410, 'width': 409, 'height': 410, 'widthPercent': 0.45, 'rescaleHeight': False, 'trialN': 100, 'loaded': True, 'loadedTime': 7554.9000000059605, 'positionName': 'RIGHT', 'positionCoords': [798.72, 227], 'bid': 8.73}]",205612.70000001788,1669835112247,grilled chicken strips,edamame,7.83,8.73,0.9000000000000004,grilled chicken strips,908.9000000059605,910,909.5999999940395,True,u,207028.40000000596,1415.699999988079,1669835113663,1416,HRV,HRV_0221,2022-11-30 19:07:45
101,"[{'imgObject': {}, 'id': 'apple slices', 'src': '/static/foodstim60/apple slices.jpg', 'key': 'u', 'origWidth': 409, 'origHeight': 410, 'width': 409, 'height': 410, 'widthPercent': 0.45, 'rescaleHeight': False, 'trialN': 101, 'loaded': True, 'loadedTime': 8979.800000011921, 'positionName': 'LEFT', 'positionCoords': [328.28, 227], 'bid': 0.02}, {'imgObject': {}, 'id': 'raspberries', 'src': '/static/foodstim60/raspberries.jpg', 'key': 'i', 'origWidth': 411, 'origHeight': 411, 'width': 411, 'height': 411, 'widthPercent': 0.45, 'rescaleHeight': False, 'trialN': 101, 'loaded': True, 'loadedTime': 8184.300000011921, 'positionName': 'RIGHT', 'positionCoords': [798.72, 226.5], 'bid': 0}]",207028.90000000596,1669835113664,apple slices,raspberries,0.02,0.0,-0.02,apple slices,863.5999999940395,864,864.2000000178814,True,u,208396.10000002384,1367.2000000178814,1669835115031,1367,HRV,HRV_0221,2022-11-30 19:07:45
102,"[{'imgObject': {}, 'id': 'mac & cheese', 'src': '/static/foodstim60/mac & cheese.jpg', 'key': 'u', 'origWidth': 410, 'origHeight': 410, 'width': 410, 'height': 410, 'widthPercent': 0.45, 'rescaleHeight': False, 'trialN': 102, 'loaded': True, 'loadedTime': 8013.100000023842, 'positionName': 'LEFT', 'positionCoords': [327.28, 227], 'bid': 0.2}, {'imgObject': {}, 'id': 'sweetpotato', 'src': '/static/foodstim60/sweetpotato.jpg', 'key': 'i', 'origWidth': 410, 'origHeight': 410, 'width': 410, 'height': 410, 'widthPercent': 0.45, 'rescaleHeight': False, 'trialN': 102, 'loaded': True, 'loadedTime': 8390.600000023842, 'positionName': 'RIGHT', 'positionCoords': [798.72, 227], 'bid': 8.51}]",208396.5,1669835115031,mac & cheese,sweetpotato,0.2,8.51,8.31,mac & cheese,939.6000000238419,941,940.4000000059605,True,u,209844.80000001192,1448.300000011921,1669835116480,1449,HRV,HRV_0221,2022-11-30 19:07:45
103,"[{'imgObject': {}, 'id': 'turkeysandwich', 'src': '/static/foodstim60/turkeysandwich.jpg', 'key': 'u', 'origWidth': 409, 'origHeight': 409, 'width': 409, 'height': 409, 'widthPercent': 0.45, 'rescaleHeight': False, 'trialN': 103, 'loaded': True, 'loadedTime': 8382, 'positionName': 'LEFT', 'positionCoords': [328.28, 227.5], 'bid': 9.79}, {'imgObject': {}, 'id': 'bagel plain', 'src': '/static/foodstim60/bagel plain.jpg', 'key': 'i', 'origWidth': 410, 'origHeight': 410, 'width': 410, 'height': 410, 'widthPercent': 0.45, 'rescaleHeight': False, 'trialN': 103, 'loaded': True, 'loadedTime': 8060.300000011921, 'positionName': 'RIGHT', 'positionCoords': [798.72, 227], 'bid': 9.8}]",209845.10000002384,1669835116480,turkeysandwich,bagel plain,9.79,9.8,0.010000000000001563,turkeysandwich,857.5999999940395,858,858.2999999821186,True,u,211203.80000001192,1358.699999988079,1669835117839,1359,HRV,HRV_0221,2022-11-30 19:07:45
104,"[{'imgObject': {}, 'id': 'blueberries', 'src': '/static/foodstim60/blueberries.jpg', 'key': 'u', 'origWidth': 411, 'origHeight': 411, 'width': 411, 'height': 411, 'widthPercent': 0.45, 'rescaleHeight': False, 'trialN': 104, 'loaded': True, 'loadedTime': 7430.200000017881, 'positionName': 'LEFT', 'positionCoords': [326.28, 226.5], 'bid': 4.54}, {'imgObject': {}, 'id': 'avocado', 'src': '/static/foodstim60/avocado.jpg', 'key': 'i', 'origWidth': 409, 'origHeight': 409, 'width': 409, 'height': 409, 'widthPercent': 0.45, 'rescaleHeight': False, 'trialN': 104, 'loaded': True, 'loadedTime': 8843.300000011921, 'positionName': 'RIGHT', 'positionCoords': [798.72, 227.5], 'bid': 0.11}]",211204.30000001192,1669835117839,blueberries,avocado,4.54,0.11,-4.43,blueberries,1392.4000000059605,1393,1392.9000000059605,True,u,213100.40000000596,1896.0999999940395,1669835119735,1896,HRV,HRV_0221,2022-11-30 19:07:45
105,"[{'imgObject': {}, 'id': 'veggieswithdip', 'src': '/static/foodstim60/veggieswithdip.jpg', 'key': 'u', 'origWidth': 409, 'origHeight': 409, 'width': 409, 'height': 409, 'widthPercent': 0.45, 'rescaleHeight': False, 'trialN': 105, 'loaded': True, 'loadedTime': 8254.600000023842, 'positionName': 'LEFT', 'positionCoords': [328.28, 227.5], 'bid': 9.9}, {'imgObject': {}, 'id': 'chickenfingers', 'src': '/static/foodstim60/chickenfingers.jpg', 'key': 'i', 'origWidth': 410, 'origHeight': 410, 'width': 410, 'height': 410, 'widthPercent': 0.45, 'rescaleHeight': False, 'trialN': 105, 'loaded': True, 'loadedTime': 8904, 'positionName': 'RIGHT', 'positionCoords': [798.72, 227], 'bid': 9.77}]",213101.0,1669835119736,veggieswithdip,chickenfingers,9.9,9.77,-0.13000000000000078,chickenfingers,1753.9000000059605,1754,1754.7000000178814,True,i,215356.0,2255.0,1669835121991,2255,HRV,HRV_0221,2022-11-30 19:07:45
106,"[{'imgObject': {}, 'id': 'roastedpotatoes', 'src': '/static/foodstim60/roastedpotatoes.jpg', 'key': 'u', 'origWidth': 409, 'origHeight': 410, 'width': 409, 'height': 410, 'widthPercent': 0.45, 'rescaleHeight': False, 'trialN': 106, 'loaded': True, 'loadedTime': 7638.800000011921, 'positionName': 'LEFT', 'positionCoords': [328.28, 227], 'bid': 7.1000000000000005}, {'imgObject': {}, 'id': 'apple slices', 'src': '/static/foodstim60/apple slices.jpg', 'key': 'i', 'origWidth': 409, 'origHeight': 410, 'width': 409, 'height': 410, 'widthPercent': 0.45, 'rescaleHeight': False, 'trialN': 106, 'loaded': True, 'loadedTime': 8976.40000000596, 'positionName': 'RIGHT', 'positionCoords': [798.72, 227], 'bid': 0.02}]",215356.60000002384,1669835121991,roastedpotatoes,apple slices,7.1000000000000005,0.02,-7.080000000000001,roastedpotatoes,1750,1751,1751.0999999940395,True,u,217612.30000001192,2255.699999988079,1669835124247,2256,HRV,HRV_0221,2022-11-30 19:07:45
107,"[{'imgObject': {}, 'id': 'grilled chicken strips', 'src': '/static/foodstim60/grilled chicken strips.jpg', 'key': 'u', 'origWidth': 410, 'origHeight': 411, 'width': 410, 'height': 411, 'widthPercent': 0.45, 'rescaleHeight': False, 'trialN': 107, 'loaded': True, 'loadedTime': 8121.100000023842, 'positionName': 'LEFT', 'positionCoords': [327.28, 226.5], 'bid': 7.83}, {'imgObject': {}, 'id': 'salad w chicken', 'src': '/static/foodstim60/salad w chicken.jpg', 'key': 'i', 'origWidth': 411, 'origHeight': 411, 'width': 411, 'height': 411, 'widthPercent': 0.45, 'rescaleHeight': False, 'trialN': 107, 'loaded': True, 'loadedTime': 8230.90000000596, 'positionName': 'RIGHT', 'positionCoords': [798.72, 226.5], 'bid': 10}]",217612.70000001788,1669835124247,grilled chicken strips,salad w chicken,7.83,10.0,2.17,grilled chicken strips,1503.699999988079,1506,1505.7999999821186,True,u,219621.0,2008.2999999821186,1669835126256,2009,HRV,HRV_0221,2022-11-30 19:07:45
108,"[{'imgObject': {}, 'id': 'luckycharms', 'src': '/static/foodstim60/luckycharms.jpg', 'key': 'u', 'origWidth': 410, 'origHeight': 409, 'width': 410, 'height': 409, 'widthPercent': 0.45, 'rescaleHeight': False, 'trialN': 108, 'loaded': True, 'loadedTime': 8370, 'positionName': 'LEFT', 'positionCoords': [327.28, 227.5], 'bid': 0}, {'imgObject': {}, 'id': 'fruitsalad', 'src': '/static/foodstim60/fruitsalad.jpg', 'key': 'i', 'origWidth': 410, 'origHeight': 410, 'width': 410, 'height': 410, 'widthPercent': 0.45, 'rescaleHeight': False, 'trialN': 108, 'loaded': True, 'loadedTime': 7734.4000000059605, 'positionName': 'RIGHT', 'positionCoords': [798.72, 227], 'bid': 0}]",219621.20000001788,1669835126256,luckycharms,fruitsalad,0.0,0.0,0.0,luckycharms,2973.2999999821186,2974,2974.0,True,u,223100.70000001788,3479.5,1669835129735,3479,HRV,HRV_0221,2022-11-30 19:07:45
109,"[{'imgObject': {}, 'id': 'luckycharms', 'src': '/static/foodstim60/luckycharms.jpg', 'key': 'u', 'origWidth': 410, 'origHeight': 409, 'width': 410, 'height': 409, 'widthPercent': 0.45, 'rescaleHeight': False, 'trialN': 109, 'loaded': True, 'loadedTime': 8353.5, 'positionName': 'LEFT', 'positionCoords': [327.28, 227.5], 'bid': 0}, {'imgObject': {}, 'id': 'granola w milk', 'src': '/static/foodstim60/granola w milk.jpg', 'key': 'i', 'origWidth': 410, 'origHeight': 410, 'width': 410, 'height': 410, 'widthPercent': 0.45, 'rescaleHeight': False, 'trialN': 109, 'loaded': True, 'loadedTime': 8458.200000017881, 'positionName': 'RIGHT', 'positionCoords': [798.72, 227], 'bid': 0.07}]",223100.90000000596,1669835129736,luckycharms,granola w milk,0.0,0.07,0.07,luckycharms,1195,1200,1200.4000000059605,True,u,224803.70000001788,1702.800000011921,1669835131438,1702,HRV,HRV_0221,2022-11-30 19:07:45
