success,trial_type,trial_index,time_elapsed,internal_node_id,Block,TrialNumber,TrialTime,trialTimeDiff,FPS_avg,FPS_med,FPS_mode,TrialDur,winResizeTime,rt,block,button_pressed,MotCoh,MotDir,ColCoh,Color,ChoiceKey,Choice,Accuracy,RT,nFrames,FPS,PPD,missTrial,missTrialMsg,onsetDelay,fullScreenExitTime,canvCenter,TrialType,Score,BlockTrial,stimulus,button_labels,exp,subjectId,date
True,fullscreen,0,2506,0.0-0.0,0.0,1.0,,,,,,,,,,,,,,,,,,,,,,,,,,,,,,,,HRV,HRV_0221,2022-11-30 19:18:30
,wl-check-fps,1,7522,0.0-1.0,0.0,2.0,"[3640.2, 3643, 3656, 3671, 3690.9, 3707.3, 3722.8, 3740.1, 3755.6, 3771.6, 3789.5, 3803.9, 3820.6, 3837.5, 3853.9, 3870.3, 3886.8, 3903.5, 3920.3, 3936.8, 3953.6, 3970.3, 3987.1, 4003.5, 4020.3, 4036.8, 4053.6, 4070.1, 4087.2, 4103.6, 4120.1, 4136.8, 4153.4, 4170, 4186.8, 4203.3, 4220, 4236.7, 4253.6, 4270.5, 4287.2, 4303.4, 4320.1, 4337, 4353.3, 4370.5, 4387.3, 4403.7, 4420.1, 4436.9, 4453.7, 4470.3, 4487, 4503.7, 4520.3, 4536.9, 4553.4, 4569.9, 4586.9, 4603.6, 4620.3, 4637, 4653.6, 4670.2, 4687, 4703.7, 4720, 4737.1, 4756.6, 4770.2, 4786.8, 4810.2, 4819.9, 4836.8, 4853.4, 4870.1, 4886.9, 4903.7, 4920.4, 4937, 4953.6, 4970.5, 4988.1, 5020.3, 5037.1, 5053.4, 5070.3, 5086.9, 5103.5, 5120.3, 5136.9, 5153.2, 5170.1, 5186.9, 5203.6, 5220, 5237.1, 5253.3, 5270.2, 5287, 5303.6, 5320.2, 5337, 5353.2, 5370, 5386.8, 5403.5, 5420.1, 5436.9, 5453.5, 5470.2, 5486.7, 5503.5, 5520.1, 5536.7, 5553.3, 5570.2, 5586.8, 5603.4, 5620, 5637, 5653.4, 5670, 5686.9, 5703.5, 5720.1, 5736.7, 5753.1, 5770, 5786.8, 5803.3, 5820, 5837, 5853.4, 5870.1, 5887, 5903.2, 5920, 5936.9, 5953, 5970.1, 5986.9, 6003.4, 6020.1, 6037, 6053.4, 6070.2, 6087, 6103.5, 6120.2, 6137, 6153.1, 6169.7, 6186.9, 6203.4, 6220, 6236.7, 6253.6, 6269.8, 6287.1, 6303.4, 6320.1, 6337, 6353.2, 6369.7, 6387, 6403.4, 6420.1, 6436.6, 6453.4, 6470.1, 6487, 6503.3, 6519.9, 6537, 6553.1, 6569.7, 6586.9, 6603.4, 6620, 6636.9, 6653.1, 6669.8, 6686.9, 6710.3, 6719.8, 6736.8, 6753.1, 6769.9, 6786.7, 6811.3, 6820, 6836.9, 6853, 6870.1, 6886.7, 6903.6, 6920, 6936.9, 6952.9, 6969.8, 6986.6, 7003.2, 7020.1, 7038.2, 7053.4, 7070, 7087, 7103.2, 7119.6, 7136.7, 7153.2, 7169.8, 7186.6, 7203.4, 7220, 7236.7, 7253.4, 7270, 7287.2, 7304.2, 7320.2, 7337.8, 7353, 7370.7, 7387.6, 7403.3, 7420.2, 7437.3, 7453.3, 7470.1, 7487.1, 7504.3, 7522.5, 7538.6, 7557.1, 7571.7, 7587.8, 7604.7, 7621, 7636.8, 7653.3, 7670.2, 7687, 7703.9, 7720, 7737.4, 7753.1, 7769.8, 7787.7, 7803.4, 7819.9, 7837.1, 7853.4, 7870, 7887.1, 7904.1, 7920.1, 7936.8, 7953.1, 7969.9, 7987.1, 8003.1, 8019.4, 8036.5, 8055.6, 8072.4, 8088.9, 8105.6, 8122.3, 8138.8, 8155.2, 8172.5, 8188.9, 8205.8, 8221.8, 8239.1, 8255.5, 8272.4, 8288.7, 8305.1, 8322.4, 8339.3, 8356.5, 8372.6, 8389.3, 8405.3, 8422.1, 8439, 8455.7, 8472.4, 8488.7, 8505.8, 8522.5, 8538.9, 8555.5, 8572.4, 8589, 8605.8, 8622]","[11.6, 2.8, 13, 15, 19.9, 16.4, 15.5, 17.3, 15.5, 16, 17.9, 14.4, 16.7, 16.9, 16.4, 16.4, 16.5, 16.7, 16.8, 16.5, 16.8, 16.7, 16.8, 16.4, 16.8, 16.5, 16.8, 16.5, 17.1, 16.4, 16.5, 16.7, 16.6, 16.6, 16.8, 16.5, 16.7, 16.7, 16.9, 16.9, 16.7, 16.2, 16.7, 16.9, 16.3, 17.2, 16.8, 16.4, 16.4, 16.8, 16.8, 16.6, 16.7, 16.7, 16.6, 16.6, 16.5, 16.5, 17, 16.7, 16.7, 16.7, 16.6, 16.6, 16.8, 16.7, 16.3, 17.1, 19.5, 13.6, 16.6, 23.4, 9.7, 16.9, 16.6, 16.7, 16.8, 16.8, 16.7, 16.6, 16.6, 16.9, 17.6, 32.2, 16.8, 16.3, 16.9, 16.6, 16.6, 16.8, 16.6, 16.3, 16.9, 16.8, 16.7, 16.4, 17.1, 16.2, 16.9, 16.8, 16.6, 16.6, 16.8, 16.2, 16.8, 16.8, 16.7, 16.6, 16.8, 16.6, 16.7, 16.5, 16.8, 16.6, 16.6, 16.6, 16.9, 16.6, 16.6, 16.6, 17, 16.4, 16.6, 16.9, 16.6, 16.6, 16.6, 16.4, 16.9, 16.8, 16.5, 16.7, 17, 16.4, 16.7, 16.9, 16.2, 16.8, 16.9, 16.1, 17.1, 16.8, 16.5, 16.7, 16.9, 16.4, 16.8, 16.8, 16.5, 16.7, 16.8, 16.1, 16.6, 17.2, 16.5, 16.6, 16.7, 16.9, 16.2, 17.3, 16.3, 16.7, 16.9, 16.2, 16.5, 17.3, 16.4, 16.7, 16.5, 16.8, 16.7, 16.9, 16.3, 16.6, 17.1, 16.1, 16.6, 17.2, 16.5, 16.6, 16.9, 16.2, 16.7, 17.1, 23.4, 9.5, 17, 16.3, 16.8, 16.8, 24.6, 8.7, 16.9, 16.1, 17.1, 16.6, 16.9, 16.4, 16.9, 16, 16.9, 16.8, 16.6, 16.9, 18.1, 15.2, 16.6, 17, 16.2, 16.4, 17.1, 16.5, 16.6, 16.8, 16.8, 16.6, 16.7, 16.7, 16.6, 17.2, 17, 16, 17.6, 15.2, 17.7, 16.9, 15.7, 16.9, 17.1, 16, 16.8, 17, 17.2, 18.2, 16.1, 18.5, 14.6, 16.1, 16.9, 16.3, 15.8, 16.5, 16.9, 16.8, 16.9, 16.1, 17.4, 15.7, 16.7, 17.9, 15.7, 16.5, 17.2, 16.3, 16.6, 17.1, 17, 16, 16.7, 16.3, 16.8, 17.2, 16, 16.3, 17.1, 19.1, 16.8, 16.5, 16.7, 16.7, 16.5, 16.4, 17.3, 16.4, 16.9, 16, 17.3, 16.4, 16.9, 16.3, 16.4, 17.3, 16.9, 17.2, 16.1, 16.7, 16, 16.8, 16.9, 16.7, 16.7, 16.3, 17.1, 16.7, 16.4, 16.6, 16.9, 16.6, 16.8, 16.2]",60.0,60.0,60.0,5010.4,[],,,,,,,,,,,,,,,,,,,,,,,,,HRV,HRV_0221,2022-11-30 19:18:30
,wl-html-keyboard-response,2,21882,0.0-2.0-0.0,0.0,3.0,,,,,,,,12348.299999982119,0.0,0,,,,,,,,,,,,,,,,,,,,,,HRV,HRV_0221,2022-11-30 19:18:30
,wl-rdm,3,29234,0.0-3.0-0.0,0.0,4.0,,,,,,,[],,,,0.0,0.0,87.9,0.0,u,0.0,True,1736.5999999940395,105.0,60.0,40.0,False,,3000.0,[],"[768, 432]",ColorTask_Demo,,,,,HRV,HRV_0221,2022-11-30 19:18:30
,wl-rdm,4,34082,0.0-3.0-1.0,0.0,5.0,,,,,,,[],,,,0.0,0.0,87.9,1.0,i,1.0,True,758.0,46.0,60.0,40.0,False,,2000.0,[],"[768, 432]",ColorTask_Demo,,,,,HRV,HRV_0221,2022-11-30 19:18:30
,wl-html-keyboard-response,5,38778,0.0-3.0-2.0,0.0,6.0,,,,,,,,2686.0,0.0,1,,,,,,,,,,,,,,,,,,,,,,HRV,HRV_0221,2022-11-30 19:18:30
,wl-html-keyboard-response,6,46065,0.0-4.0-0.0,0.0,7.0,,,,,,,,5279.0999999940395,0.0,0,,,,,,,,,,,,,,,,,,,,,,HRV,HRV_0221,2022-11-30 19:18:30
,wl-html-keyboard-response,7,67693,0.0-5.0-0.0,0.0,8.0,,,,,,,,19622.40000000596,0.0,0,,,,,,,,,,,,,,,,,,,,,,HRV,HRV_0221,2022-11-30 19:18:30
,wl-rdm,8,70245,0.0-6.0-0.0,0.0,9.0,,,,,,,[],,,,,,56.4,0.0,u,0.0,True,1161.0,70.0,60.0,40.0,False,,314.4782871943993,[],"[768, 432]",ColorTask,1.0,1.0,,,HRV,HRV_0221,2022-11-30 19:18:30
,wl-rdm,9,72644,0.0-6.1-0.1,0.0,10.0,,,,,,,[],,,,,,56.4,0.0,u,0.0,True,1106.5,67.0,60.0,40.0,False,,205.0091721759925,[],"[768, 432]",ColorTask,2.0,2.0,,,HRV,HRV_0221,2022-11-30 19:18:30
,wl-rdm,10,74894,0.0-6.2-0.2,0.0,11.0,,,,,,,[],,,,,,53.2,0.0,u,0.0,True,892.6999999880791,54.0,60.0,40.0,False,,266.7393925880083,[],"[768, 432]",ColorTask,3.0,3.0,,,HRV,HRV_0221,2022-11-30 19:18:30
,wl-rdm,11,76828,0.0-6.3-0.3,0.0,12.0,,,,,,,[],,,,,,50.0,1.0,u,0.0,False,654.0,40.0,60.0,40.0,False,,213.01077359354795,[],"[768, 432]",ColorTask,2.0,4.0,,,HRV,HRV_0221,2022-11-30 19:18:30
,wl-rdm,12,79227,0.0-6.4-0.4,0.0,13.0,,,,,,,[],,,,,,56.4,1.0,i,1.0,True,1079.800000011921,65.0,60.0,40.0,False,,259.2215602084508,[],"[768, 432]",ColorTask,3.0,5.0,,,HRV,HRV_0221,2022-11-30 19:18:30
,wl-rdm,13,81526,0.0-6.5-0.5,0.0,14.0,,,,,,,[],,,,,,56.4,1.0,i,1.0,True,1008.5,61.0,60.0,40.0,False,,215.11493097207594,[],"[768, 432]",ColorTask,4.0,6.0,,,HRV,HRV_0221,2022-11-30 19:18:30
,wl-rdm,14,83659,0.0-6.6-0.6,0.0,15.0,,,,,,,[],,,,,,73.6,0.0,u,0.0,True,776.1999999880791,43.0,60.0,40.0,False,,269.5807034306071,[],"[768, 432]",ColorTask,5.0,7.0,,,HRV,HRV_0221,2022-11-30 19:18:30
,wl-rdm,15,85774,0.0-6.7-0.7,0.0,16.0,,,,,,,[],,,,,,62.5,0.0,u,0.0,True,802.1000000238419,49.0,60.0,40.0,False,,228.7970374840731,[],"[768, 432]",ColorTask,6.0,8.0,,,HRV,HRV_0221,2022-11-30 19:18:30
,wl-rdm,16,88008,0.0-6.8-0.8,0.0,17.0,,,,,,,[],,,,,,53.2,0.0,u,0.0,True,956.8999999761581,58.0,60.0,40.0,False,,211.32536090771916,[],"[768, 432]",ColorTask,7.0,9.0,,,HRV,HRV_0221,2022-11-30 19:18:30
,wl-rdm,17,90057,0.0-6.9-0.9,0.0,18.0,,,,,,,[],,,,,,62.5,0.0,u,0.0,True,709.8999999761581,43.0,60.0,40.0,False,,274.5680915112919,[],"[768, 432]",ColorTask,8.0,10.0,,,HRV,HRV_0221,2022-11-30 19:18:30
,wl-rdm,18,92174,0.0-6.10-0.10,0.0,19.0,,,,,,,[],,,,,,53.2,1.0,u,0.0,False,727.1999999880791,44.0,60.0,40.0,False,,310.47525052295975,[],"[768, 432]",ColorTask,7.0,11.0,,,HRV,HRV_0221,2022-11-30 19:18:30
,wl-rdm,19,94591,0.0-6.11-0.11,0.0,20.0,,,,,,,[],,,,,,53.2,1.0,i,1.0,True,977.1999999880791,59.0,60.0,40.0,False,,357.19390770910036,[],"[768, 432]",ColorTask,8.0,12.0,,,HRV,HRV_0221,2022-11-30 19:18:30
,wl-rdm,20,96824,0.0-6.12-0.12,0.0,21.0,,,,,,,[],,,,,,62.5,1.0,i,1.0,True,889.6999999880791,54.0,60.0,40.0,False,,256.9377776756781,[],"[768, 432]",ColorTask,9.0,13.0,,,HRV,HRV_0221,2022-11-30 19:18:30
,wl-rdm,21,98973,0.0-6.13-0.13,0.0,22.0,,,,,,,[],,,,,,87.9,1.0,i,1.0,True,820.1999999880791,50.0,60.0,40.0,False,,242.68021811276418,[],"[768, 432]",ColorTask,10.0,14.0,,,HRV,HRV_0221,2022-11-30 19:18:30
,wl-rdm,22,101073,0.0-6.14-0.14,0.0,23.0,,,,,,,[],,,,,,62.5,0.0,i,1.0,False,814.3999999761581,49.0,60.0,40.0,False,,218.99958409418733,[],"[768, 432]",ColorTask,9.0,15.0,,,HRV,HRV_0221,2022-11-30 19:18:30
,wl-rdm,23,103357,0.0-6.15-0.15,0.0,24.0,,,,,,,[],,,,,,73.6,1.0,u,0.0,False,828.6000000238419,50.0,60.0,40.0,False,,382.55467879251444,[],"[768, 432]",ColorTask,8.0,16.0,,,HRV,HRV_0221,2022-11-30 19:18:30
,wl-rdm,24,105923,0.0-6.16-0.16,0.0,25.0,,,,,,,[],,,,,,56.4,1.0,i,1.0,True,1147.7999999821186,69.0,60.0,40.0,False,,361.2712458747975,[],"[768, 432]",ColorTask,9.0,17.0,,,HRV,HRV_0221,2022-11-30 19:18:30
,wl-rdm,25,108923,0.0-6.17-0.17,0.0,26.0,,,,,,,[],,,,,,53.2,1.0,i,1.0,True,1587.7000000178814,96.0,60.0,40.0,False,,336.538768581666,[],"[768, 432]",ColorTask,10.0,18.0,,,HRV,HRV_0221,2022-11-30 19:18:30
,wl-rdm,26,111206,0.0-6.18-0.18,0.0,27.0,,,,,,,[],,,,,,73.6,1.0,i,1.0,True,947.7000000476837,57.0,60.0,40.0,False,,272.4661770470962,[],"[768, 432]",ColorTask,11.0,19.0,,,HRV,HRV_0221,2022-11-30 19:18:30
,wl-rdm,27,113289,0.0-6.19-0.19,0.0,28.0,,,,,,,[],,,,,,53.2,0.0,u,0.0,True,788.5,48.0,60.0,40.0,False,,226.7879013516966,[],"[768, 432]",ColorTask,12.0,20.0,,,HRV,HRV_0221,2022-11-30 19:18:30
,wl-rdm,28,115688,0.0-6.20-0.20,0.0,29.0,,,,,,,[],,,,,,50.0,1.0,i,1.0,True,1105.7999999821186,67.0,60.0,40.0,False,,205.2812732654405,[],"[768, 432]",ColorTask,13.0,21.0,,,HRV,HRV_0221,2022-11-30 19:18:30
,wl-rdm,29,118022,0.0-6.21-0.21,0.0,30.0,,,,,,,[],,,,,,50.0,0.0,u,0.0,True,937.0999999940395,57.0,60.0,40.0,False,,307.6098263612165,[],"[768, 432]",ColorTask,14.0,22.0,,,HRV,HRV_0221,2022-11-30 19:18:30
,wl-rdm,30,120238,0.0-6.22-0.22,0.0,31.0,,,,,,,[],,,,,,50.0,1.0,u,0.0,False,762.9000000059605,46.0,60.0,40.0,False,,369.89652000382966,[],"[768, 432]",ColorTask,13.0,23.0,,,HRV,HRV_0221,2022-11-30 19:18:30
,wl-rdm,31,122154,0.0-6.23-0.23,0.0,32.0,,,,,,,[],,,,,,53.2,0.0,i,1.0,False,617.6999999880791,37.0,60.0,40.0,False,,223.65287939894066,[],"[768, 432]",ColorTask,12.0,24.0,,,HRV,HRV_0221,2022-11-30 19:18:30
,wl-rdm,32,124104,0.0-6.24-0.24,0.0,33.0,,,,,,,[],,,,,,87.9,1.0,u,0.0,False,612.0000000298023,37.0,60.0,40.0,False,,256.37630731769514,[],"[768, 432]",ColorTask,11.0,25.0,,,HRV,HRV_0221,2022-11-30 19:18:30
,wl-rdm,33,126637,0.0-6.25-0.25,0.0,34.0,,,,,,,[],,,,,,62.5,0.0,i,1.0,False,1173.5999999940395,71.0,60.0,40.0,False,,279.1391448732788,[],"[768, 432]",ColorTask,10.0,26.0,,,HRV,HRV_0221,2022-11-30 19:18:30
,wl-rdm,34,130320,0.0-6.26-0.26,0.0,35.0,,,,,,,[],,,,,,50.0,1.0,u,0.0,False,2304.2000000178814,139.0,60.0,40.0,False,,301.0069942365916,[],"[768, 432]",ColorTask,9.0,27.0,,,HRV,HRV_0221,2022-11-30 19:18:30
,wl-rdm,35,132602,0.0-6.27-0.27,0.0,36.0,,,,,,,[],,,,,,73.6,0.0,u,0.0,True,913.7000000178814,55.0,60.0,40.0,False,,297.50891992624486,[],"[768, 432]",ColorTask,10.0,28.0,,,HRV,HRV_0221,2022-11-30 19:18:30
,wl-rdm,36,136419,0.0-6.28-0.28,0.0,37.0,,,,,,,[],,,,,,62.5,1.0,i,1.0,True,2340.0,141.0,60.0,40.0,False,,385.7171157907112,[],"[768, 432]",ColorTask,11.0,29.0,,,HRV,HRV_0221,2022-11-30 19:18:30
,wl-rdm,37,139268,0.0-6.29-0.29,0.0,38.0,,,,,,,[],,,,,,73.6,1.0,i,1.0,True,1433.699999988079,86.0,60.0,40.0,False,,338.8579961478982,[],"[768, 432]",ColorTask,12.0,30.0,,,HRV,HRV_0221,2022-11-30 19:18:30
,wl-rdm,38,141752,0.0-6.30-0.30,0.0,39.0,,,,,,,[],,,,,,56.4,0.0,u,0.0,True,1060.2999999821186,64.0,60.0,40.0,False,,337.9655674391504,[],"[768, 432]",ColorTask,13.0,31.0,,,HRV,HRV_0221,2022-11-30 19:18:30
,wl-rdm,39,144068,0.0-6.31-0.31,0.0,40.0,,,,,,,[],,,,,,50.0,1.0,u,0.0,False,876.0000000298023,53.0,60.0,40.0,False,,383.1617257065295,[],"[768, 432]",ColorTask,12.0,32.0,,,HRV,HRV_0221,2022-11-30 19:18:30
,wl-rdm,40,146918,0.0-6.32-0.32,0.0,41.0,,,,,,,[],,,,,,56.4,0.0,i,1.0,False,1378.699999988079,83.0,60.0,40.0,False,,387.82496322634705,[],"[768, 432]",ColorTask,11.0,33.0,,,HRV,HRV_0221,2022-11-30 19:18:30
,wl-rdm,41,149834,0.0-6.33-0.33,0.0,42.0,,,,,,,[],,,,,,62.5,0.0,u,0.0,True,1521.7000000178814,92.0,60.0,40.0,False,,304.8795090379616,[],"[768, 432]",ColorTask,12.0,34.0,,,HRV,HRV_0221,2022-11-30 19:18:30
,wl-rdm,42,152667,0.0-6.34-0.34,0.0,43.0,,,,,,,[],,,,,,62.5,1.0,i,1.0,True,1428.2000000178814,86.0,60.0,40.0,False,,334.2566029943684,[],"[768, 432]",ColorTask,13.0,35.0,,,HRV,HRV_0221,2022-11-30 19:18:30
,wl-rdm,43,155083,0.0-6.35-0.35,0.0,44.0,,,,,,,[],,,,,,56.4,1.0,i,1.0,True,1147.0999999940395,69.0,60.0,40.0,False,,216.45727385676923,[],"[768, 432]",ColorTask,14.0,36.0,,,HRV,HRV_0221,2022-11-30 19:18:30
,wl-rdm,44,157366,0.0-6.36-0.36,0.0,45.0,,,,,,,[],,,,,,87.9,1.0,i,1.0,True,904.5,55.0,60.0,40.0,False,,285.7927219352189,[],"[768, 432]",ColorTask,15.0,37.0,,,HRV,HRV_0221,2022-11-30 19:18:30
,wl-rdm,45,159566,0.0-6.37-0.37,0.0,46.0,,,,,,,[],,,,,,56.4,0.0,u,0.0,True,757.4000000059605,46.0,60.0,40.0,False,,365.85978013469264,[],"[768, 432]",ColorTask,16.0,38.0,,,HRV,HRV_0221,2022-11-30 19:18:30
,wl-rdm,46,162332,0.0-6.38-0.38,0.0,47.0,,,,,,,[],,,,,,53.2,0.0,u,0.0,True,1389.800000011921,84.0,60.0,40.0,False,,290.6434290599864,[],"[768, 432]",ColorTask,17.0,39.0,,,HRV,HRV_0221,2022-11-30 19:18:30
,wl-rdm,47,164566,0.0-6.39-0.39,0.0,48.0,,,,,,,[],,,,,,56.4,1.0,i,1.0,True,942.2000000178814,57.0,60.0,40.0,False,,225.89454224479903,[],"[768, 432]",ColorTask,18.0,40.0,,,HRV,HRV_0221,2022-11-30 19:18:30
,wl-rdm,48,166998,0.0-6.40-0.40,0.0,49.0,,,,,,,[],,,,,,53.2,1.0,u,0.0,False,1099.0999999940395,66.0,60.0,40.0,False,,250.39363905995782,[],"[768, 432]",ColorTask,17.0,41.0,,,HRV,HRV_0221,2022-11-30 19:18:30
,wl-rdm,49,170331,0.0-6.41-0.41,0.0,50.0,,,,,,,[],,,,,,73.6,0.0,u,0.0,True,1871.699999988079,113.0,60.0,40.0,False,,399.8473004708797,[],"[768, 432]",ColorTask,18.0,42.0,,,HRV,HRV_0221,2022-11-30 19:18:30
,wl-rdm,50,172698,0.0-6.42-0.42,0.0,51.0,,,,,,,[],,,,,,73.6,1.0,i,1.0,True,986.7999999821186,60.0,60.0,40.0,False,,305.37580794975423,[],"[768, 432]",ColorTask,19.0,43.0,,,HRV,HRV_0221,2022-11-30 19:18:30
,wl-rdm,51,176497,0.0-6.43-0.43,0.0,52.0,,,,,,,[],,,,,,50.0,1.0,i,1.0,True,2503.5999999940395,151.0,60.0,40.0,False,,211.7635595566938,[],"[768, 432]",ColorTask,20.0,44.0,,,HRV,HRV_0221,2022-11-30 19:18:30
,wl-rdm,52,178896,0.0-6.44-0.44,0.0,53.0,,,,,,,[],,,,,,87.9,0.0,u,0.0,True,1026.5,62.0,60.0,40.0,False,,293.45880190799016,[],"[768, 432]",ColorTask,21.0,45.0,,,HRV,HRV_0221,2022-11-30 19:18:30
,wl-rdm,53,181463,0.0-6.45-0.45,0.0,54.0,,,,,,,[],,,,,,62.5,1.0,i,1.0,True,1287.5999999940395,78.0,60.0,40.0,False,,204.37397125786472,[],"[768, 432]",ColorTask,22.0,46.0,,,HRV,HRV_0221,2022-11-30 19:18:30
,wl-rdm,54,183945,0.0-6.46-0.46,0.0,55.0,,,,,,,[],,,,,,73.6,1.0,i,1.0,True,1088.0000000298023,66.0,60.0,40.0,False,,319.2755710862107,[],"[768, 432]",ColorTask,23.0,47.0,,,HRV,HRV_0221,2022-11-30 19:18:30
,wl-rdm,55,186512,0.0-6.47-0.47,0.0,56.0,,,,,,,[],,,,,,62.5,0.0,u,0.0,True,1262.0999999940395,76.0,60.0,40.0,False,,219.09752147972262,[],"[768, 432]",ColorTask,24.0,48.0,,,HRV,HRV_0221,2022-11-30 19:18:30
,wl-rdm,56,189561,0.0-6.48-0.48,0.0,57.0,,,,,,,[],,,,,,53.2,0.0,u,0.0,True,1720.2000000178814,104.0,60.0,40.0,False,,254.56004710713154,[],"[768, 432]",ColorTask,25.0,49.0,,,HRV,HRV_0221,2022-11-30 19:18:30
,wl-rdm,57,191761,0.0-6.49-0.49,0.0,58.0,,,,,,,[],,,,,,87.9,1.0,i,1.0,True,890.1999999880791,54.0,60.0,40.0,False,,247.58470411474968,[],"[768, 432]",ColorTask,26.0,50.0,,,HRV,HRV_0221,2022-11-30 19:18:30
,wl-rdm,58,195094,0.0-6.50-0.50,0.0,59.0,,,,,,,[],,,,,,56.4,0.0,i,1.0,False,1910.199999988079,115.0,60.0,40.0,False,,351.1488740662659,[],"[768, 432]",ColorTask,25.0,51.0,,,HRV,HRV_0221,2022-11-30 19:18:30
,wl-rdm,59,197560,0.0-6.51-0.51,0.0,60.0,,,,,,,[],,,,,,53.2,1.0,i,1.0,True,1139.5,69.0,60.0,40.0,False,,256.26094800361517,[],"[768, 432]",ColorTask,26.0,52.0,,,HRV,HRV_0221,2022-11-30 19:18:30
,wl-rdm,60,199876,0.0-6.52-0.52,0.0,61.0,,,,,,,[],,,,,,50.0,0.0,u,0.0,True,1021.6999999880791,62.0,60.0,40.0,False,,216.44987555300733,[],"[768, 432]",ColorTask,27.0,53.0,,,HRV,HRV_0221,2022-11-30 19:18:30
,wl-rdm,61,202726,0.0-6.53-0.53,0.0,62.0,,,,,,,[],,,,,,73.6,0.0,u,0.0,True,1459.5,88.0,60.0,40.0,False,,300.90485510092896,[],"[768, 432]",ColorTask,28.0,54.0,,,HRV,HRV_0221,2022-11-30 19:18:30
,wl-rdm,62,204976,0.0-6.54-0.54,0.0,63.0,,,,,,,[],,,,,,87.9,0.0,u,0.0,True,854.0,52.0,60.0,40.0,False,,301.7843821034965,[],"[768, 432]",ColorTask,29.0,55.0,,,HRV,HRV_0221,2022-11-30 19:18:30
,wl-rdm,63,207275,0.0-6.55-0.55,0.0,64.0,,,,,,,[],,,,,,50.0,0.0,i,1.0,False,867.0999999940395,52.0,60.0,40.0,False,,353.39881883474686,[],"[768, 432]",ColorTask,28.0,56.0,,,HRV,HRV_0221,2022-11-30 19:18:30
,wl-rdm,64,210242,0.0-6.56-0.56,0.0,65.0,,,,,,,[],,,,,,62.5,0.0,u,0.0,True,1641.7999999821186,99.0,60.0,40.0,False,,243.66666173384428,[],"[768, 432]",ColorTask,29.0,57.0,,,HRV,HRV_0221,2022-11-30 19:18:30
,wl-rdm,65,212575,0.0-6.57-0.57,0.0,66.0,,,,,,,[],,,,,,87.9,0.0,u,0.0,True,939.8000000119209,57.0,60.0,40.0,False,,310.1238586771949,[],"[768, 432]",ColorTask,30.0,58.0,,,HRV,HRV_0221,2022-11-30 19:18:30
,wl-rdm,66,214924,0.0-6.58-0.58,0.0,67.0,,,,,,,[],,,,,,62.5,1.0,i,1.0,True,1038.1000000238419,63.0,60.0,40.0,False,,243.2834732784748,[],"[768, 432]",ColorTask,31.0,59.0,,,HRV,HRV_0221,2022-11-30 19:18:30
,wl-rdm,67,217824,0.0-6.59-0.59,0.0,68.0,,,,,,,[],,,,,,50.0,0.0,u,0.0,True,1616.7000000178814,98.0,60.0,40.0,False,,207.68143248404974,[],"[768, 432]",ColorTask,32.0,60.0,,,HRV,HRV_0221,2022-11-30 19:18:30
,wl-rdm,68,220224,0.0-6.60-0.60,0.0,69.0,,,,,,,[],,,,,,50.0,0.0,i,1.0,False,1092.199999988079,66.0,60.0,40.0,False,,245.47692972741757,[],"[768, 432]",ColorTask,31.0,61.0,,,HRV,HRV_0221,2022-11-30 19:18:30
,wl-rdm,69,222694,0.0-6.61-0.61,0.0,70.0,,,,,,,[],,,,,,73.6,0.0,u,0.0,True,1103.699999988079,67.0,60.0,40.0,False,,283.3082221438404,[],"[768, 432]",ColorTask,32.0,62.0,,,HRV,HRV_0221,2022-11-30 19:18:30
,wl-rdm,70,225108,0.0-6.62-0.62,0.0,71.0,,,,,,,[],,,,,,87.9,1.0,i,1.0,True,961.1000000238419,58.0,60.0,40.0,False,,368.494691277872,[],"[768, 432]",ColorTask,33.0,63.0,,,HRV,HRV_0221,2022-11-30 19:18:30
,wl-rdm,71,227290,0.0-6.63-0.63,0.0,72.0,,,,,,,[],,,,,,73.6,1.0,i,1.0,True,894.1999999880791,54.0,60.0,40.0,False,,230.49196097916638,[],"[768, 432]",ColorTask,34.0,64.0,,,HRV,HRV_0221,2022-11-30 19:18:30
,wl-rdm,72,229240,0.0-6.64-0.64,0.0,73.0,,,,,,,[],,,,,,87.9,0.0,u,0.0,True,619.7999999821186,37.0,60.0,40.0,False,,254.71823704644868,[],"[768, 432]",ColorTask,35.0,65.0,,,HRV,HRV_0221,2022-11-30 19:18:30
,wl-rdm,73,231539,0.0-6.65-0.65,0.0,74.0,,,,,,,[],,,,,,50.0,1.0,i,1.0,True,1010.7000000178814,61.0,60.0,40.0,False,,228.02060983164074,[],"[768, 432]",ColorTask,36.0,66.0,,,HRV,HRV_0221,2022-11-30 19:18:30
,wl-rdm,74,233822,0.0-6.66-0.66,0.0,75.0,,,,,,,[],,,,,,73.6,1.0,i,1.0,True,925.1999999880791,56.0,60.0,40.0,False,,273.60307045554583,[],"[768, 432]",ColorTask,37.0,67.0,,,HRV,HRV_0221,2022-11-30 19:18:30
,wl-rdm,75,235955,0.0-6.67-0.67,0.0,76.0,,,,,,,[],,,,,,87.9,1.0,i,1.0,True,809.2000000178814,49.0,60.0,40.0,False,,255.8950641980457,[],"[768, 432]",ColorTask,38.0,68.0,,,HRV,HRV_0221,2022-11-30 19:18:30
,wl-rdm,76,238188,0.0-6.68-0.68,0.0,77.0,,,,,,,[],,,,,,53.2,1.0,i,1.0,True,896.5,54.0,60.0,40.0,False,,264.480550121182,[],"[768, 432]",ColorTask,39.0,69.0,,,HRV,HRV_0221,2022-11-30 19:18:30
,wl-rdm,77,240555,0.0-6.69-0.69,0.0,78.0,,,,,,,[],,,,,,56.4,1.0,i,1.0,True,1037.4000000357628,63.0,60.0,40.0,False,,259.0504969233433,[],"[768, 432]",ColorTask,40.0,70.0,,,HRV,HRV_0221,2022-11-30 19:18:30
,wl-rdm,78,242821,0.0-6.70-0.70,0.0,79.0,,,,,,,[],,,,,,87.9,1.0,i,1.0,True,910.0999999940395,55.0,60.0,40.0,False,,275.29048077365906,[],"[768, 432]",ColorTask,41.0,71.0,,,HRV,HRV_0221,2022-11-30 19:18:30
,wl-rdm,79,245721,0.0-6.71-0.71,0.0,80.0,,,,,,,[],,,,,,53.2,1.0,u,0.0,False,1544.199999988079,93.0,60.0,40.0,False,,271.3095990046994,[],"[768, 432]",ColorTask,40.0,72.0,,,HRV,HRV_0221,2022-11-30 19:18:30
,wl-rdm,80,248254,0.0-6.72-0.72,0.0,81.0,,,,,,,[],,,,,,73.6,1.0,i,1.0,True,1079.699999988079,65.0,60.0,40.0,False,,369.17264243718705,[],"[768, 432]",ColorTask,41.0,73.0,,,HRV,HRV_0221,2022-11-30 19:18:30
,wl-rdm,81,251470,0.0-6.73-0.73,0.0,82.0,,,,,,,[],,,,,,50.0,1.0,i,1.0,True,1737.300000011921,105.0,60.0,40.0,False,,396.5844066903244,[],"[768, 432]",ColorTask,42.0,74.0,,,HRV,HRV_0221,2022-11-30 19:18:30
,wl-rdm,82,253687,0.0-6.74-0.74,0.0,83.0,,,,,,,[],,,,,,62.5,0.0,u,0.0,True,926.5999999940395,56.0,60.0,40.0,False,,211.45751302197039,[],"[768, 432]",ColorTask,43.0,75.0,,,HRV,HRV_0221,2022-11-30 19:18:30
,wl-rdm,83,256036,0.0-6.75-0.75,0.0,84.0,,,,,,,[],,,,,,62.5,1.0,i,1.0,True,938.5999999940395,57.0,60.0,40.0,False,,332.91382120952505,[],"[768, 432]",ColorTask,44.0,76.0,,,HRV,HRV_0221,2022-11-30 19:18:30
,wl-rdm,84,258186,0.0-6.76-0.76,0.0,85.0,,,,,,,[],,,,,,73.6,0.0,u,0.0,True,803.8000000119209,49.0,60.0,40.0,False,,262.7814564233144,[],"[768, 432]",ColorTask,45.0,77.0,,,HRV,HRV_0221,2022-11-30 19:18:30
,wl-rdm,85,261085,0.0-6.77-0.77,0.0,86.0,,,,,,,[],,,,,,62.5,1.0,i,1.0,True,1523.2999999821186,92.0,60.0,40.0,False,,293.8781333384486,[],"[768, 432]",ColorTask,46.0,78.0,,,HRV,HRV_0221,2022-11-30 19:18:30
,wl-rdm,86,263535,0.0-6.78-0.78,0.0,87.0,,,,,,,[],,,,,,87.9,0.0,u,0.0,True,1164.1000000238419,70.0,60.0,40.0,False,,205.2528363580889,[],"[768, 432]",ColorTask,47.0,79.0,,,HRV,HRV_0221,2022-11-30 19:18:30
,wl-rdm,87,265685,0.0-6.79-0.79,0.0,88.0,,,,,,,[],,,,,,87.9,1.0,i,1.0,True,820.0999999642372,50.0,60.0,40.0,False,,235.96315136800695,[],"[768, 432]",ColorTask,48.0,80.0,,,HRV,HRV_0221,2022-11-30 19:18:30
,wl-rdm,88,268268,0.0-6.80-0.80,0.0,89.0,,,,,,,[],,,,,,62.5,0.0,u,0.0,True,1238.3999999761581,75.0,60.0,40.0,False,,250.05342822143075,[],"[768, 432]",ColorTask,49.0,81.0,,,HRV,HRV_0221,2022-11-30 19:18:30
,wl-rdm,89,270688,0.0-6.81-0.81,0.0,90.0,,,,,,,[],,,,,,56.4,0.0,u,0.0,True,1005.6999999880791,61.0,60.0,40.0,False,,332.0603547854673,[],"[768, 432]",ColorTask,50.0,82.0,,,HRV,HRV_0221,2022-11-30 19:18:30
,wl-rdm,90,273601,0.0-6.82-0.82,0.0,91.0,,,,,,,[],,,,,,50.0,0.0,u,0.0,True,1508.7999999821186,91.0,60.0,40.0,False,,343.63188315599916,[],"[768, 432]",ColorTask,51.0,83.0,,,HRV,HRV_0221,2022-11-30 19:18:30
,wl-rdm,91,275917,0.0-6.83-0.83,0.0,92.0,,,,,,,[],,,,,,50.0,0.0,i,1.0,False,904.1999999880791,55.0,60.0,40.0,False,,317.90703995525143,[],"[768, 432]",ColorTask,50.0,84.0,,,HRV,HRV_0221,2022-11-30 19:18:30
,wl-rdm,92,277916,0.0-6.84-0.84,0.0,93.0,,,,,,,[],,,,,,53.2,0.0,u,0.0,True,662.5,40.0,60.0,40.0,False,,257.7949855675079,[],"[768, 432]",ColorTask,51.0,85.0,,,HRV,HRV_0221,2022-11-30 19:18:30
,wl-rdm,93,279968,0.0-6.85-0.85,0.0,94.0,,,,,,,[],,,,,,73.6,0.0,u,0.0,True,764.3000000119209,46.0,60.0,40.0,False,,232.55996352650462,[],"[768, 432]",ColorTask,52.0,86.0,,,HRV,HRV_0221,2022-11-30 19:18:30
,wl-rdm,94,282050,0.0-6.86-0.86,0.0,95.0,,,,,,,[],,,,,,87.9,0.0,u,0.0,True,736.6999999880791,44.0,60.0,40.0,False,,271.6036583783987,[],"[768, 432]",ColorTask,53.0,87.0,,,HRV,HRV_0221,2022-11-30 19:18:30
,wl-rdm,95,284182,0.0-6.87-0.87,0.0,96.0,,,,,,,[],,,,,,87.9,0.0,u,0.0,True,770.0,47.0,60.0,40.0,False,,266.95790793515084,[],"[768, 432]",ColorTask,54.0,88.0,,,HRV,HRV_0221,2022-11-30 19:18:30
,wl-rdm,96,286682,0.0-6.88-0.88,0.0,97.0,,,,,,,[],,,,,,73.6,0.0,u,0.0,True,1070.5,65.0,60.0,40.0,False,,359.13324173746344,[],"[768, 432]",ColorTask,55.0,89.0,,,HRV,HRV_0221,2022-11-30 19:18:30
,wl-rdm,97,289298,0.0-6.89-0.89,0.0,98.0,,,,,,,[],,,,,,56.4,0.0,i,1.0,False,1274.699999988079,77.0,60.0,40.0,False,,264.6399425891479,[],"[768, 432]",ColorTask,54.0,90.0,,,HRV,HRV_0221,2022-11-30 19:18:30
,wl-rdm,98,291698,0.0-6.90-0.90,0.0,99.0,,,,,,,[],,,,,,87.9,1.0,i,1.0,True,1037.800000011921,63.0,60.0,40.0,False,,274.5578933898083,[],"[768, 432]",ColorTask,55.0,91.0,,,HRV,HRV_0221,2022-11-30 19:18:30
,wl-rdm,99,294664,0.0-6.91-0.91,0.0,100.0,,,,,,,[],,,,,,73.6,0.0,u,0.0,True,1621.300000011921,98.0,60.0,40.0,False,,252.71210054325982,[],"[768, 432]",ColorTask,56.0,92.0,,,HRV,HRV_0221,2022-11-30 19:18:30
,wl-rdm,100,297747,0.0-6.92-0.92,0.0,101.0,,,,,,,[],,,,,,53.2,1.0,i,1.0,True,1697.3000000417233,102.0,60.0,40.0,False,,322.0101941147135,[],"[768, 432]",ColorTask,57.0,93.0,,,HRV,HRV_0221,2022-11-30 19:18:30
,wl-rdm,101,300097,0.0-6.93-0.93,0.0,102.0,,,,,,,[],,,,,,62.5,1.0,i,1.0,True,1027.9000000059605,62.0,60.0,40.0,False,,256.96506728471985,[],"[768, 432]",ColorTask,58.0,94.0,,,HRV,HRV_0221,2022-11-30 19:18:30
,wl-rdm,102,302780,0.0-6.94-0.94,0.0,103.0,,,,,,,[],,,,,,53.2,0.0,u,0.0,True,1223.199999988079,75.0,60.0,40.0,False,,366.73108073832907,[],"[768, 432]",ColorTask,59.0,95.0,,,HRV,HRV_0221,2022-11-30 19:18:30
,wl-rdm,103,305346,0.0-6.95-0.95,0.0,104.0,,,,,,,[],,,,,,56.4,1.0,i,1.0,True,1220.199999988079,74.0,60.0,40.0,False,,261.57640303952695,[],"[768, 432]",ColorTask,60.0,96.0,,,HRV,HRV_0221,2022-11-30 19:18:30
,wl-rdm,104,307696,0.0-6.96-0.96,0.0,105.0,,,,,,,[],,,,,,62.5,1.0,i,1.0,True,1068.4000000059605,64.0,60.0,40.0,False,,212.1382949192505,[],"[768, 432]",ColorTask,61.0,97.0,,,HRV,HRV_0221,2022-11-30 19:18:30
,wl-rdm,105,310379,0.0-6.97-0.97,0.0,106.0,,,,,,,[],,,,,,56.4,1.0,i,1.0,True,1265.4000000059605,76.0,60.0,40.0,False,,363.53868104356883,[],"[768, 432]",ColorTask,62.0,98.0,,,HRV,HRV_0221,2022-11-30 19:18:30
,wl-rdm,106,312962,0.0-6.98-0.98,0.0,107.0,,,,,,,[],,,,,,53.2,1.0,u,0.0,False,1143.4000000059605,69.0,60.0,40.0,False,,353.99116206744554,[],"[768, 432]",ColorTask,61.0,99.0,,,HRV,HRV_0221,2022-11-30 19:18:30
,wl-rdm,107,315545,0.0-6.99-0.99,0.0,108.0,,,,,,,[],,,,,,50.0,0.0,i,1.0,False,1204.3999999761581,73.0,60.0,40.0,False,,300.3420660978736,[],"[768, 432]",ColorTask,60.0,100.0,,,HRV,HRV_0221,2022-11-30 19:18:30
,wl-rdm,108,317829,0.0-6.100-0.100,0.0,109.0,,,,,,,[],,,,,,53.2,0.0,u,0.0,True,955.5000000298023,58.0,60.0,40.0,False,,244.89267721150097,[],"[768, 432]",ColorTask,61.0,101.0,,,HRV,HRV_0221,2022-11-30 19:18:30
,wl-rdm,109,320162,0.0-6.101-0.101,0.0,110.0,,,,,,,[],,,,,,50.0,0.0,i,1.0,False,976.2000000178814,59.0,60.0,40.0,False,,269.8853508763473,[],"[768, 432]",ColorTask,60.0,102.0,,,HRV,HRV_0221,2022-11-30 19:18:30
,wl-rdm,110,322578,0.0-6.102-0.102,0.0,111.0,,,,,,,[],,,,,,56.4,0.0,u,0.0,True,1007.3999999761581,61.0,60.0,40.0,False,,320.62140200726617,[],"[768, 432]",ColorTask,61.0,103.0,,,HRV,HRV_0221,2022-11-30 19:18:30
,wl-rdm,111,325411,0.0-6.103-0.103,0.0,112.0,,,,,,,[],,,,,,50.0,1.0,u,0.0,False,1404.2000000178814,85.0,60.0,40.0,False,,348.3366465465755,[],"[768, 432]",ColorTask,60.0,104.0,,,HRV,HRV_0221,2022-11-30 19:18:30
,wl-rdm,112,327694,0.0-6.104-0.104,0.0,113.0,,,,,,,[],,,,,,87.9,0.0,u,0.0,True,840.6999999880791,51.0,60.0,40.0,False,,364.19037084785043,[],"[768, 432]",ColorTask,61.0,105.0,,,HRV,HRV_0221,2022-11-30 19:18:30
,wl-rdm,113,330560,0.0-6.105-0.105,0.0,114.0,,,,,,,[],,,,,,56.4,1.0,i,1.0,True,1509.9000000357628,91.0,60.0,40.0,False,,268.40370778301065,[],"[768, 432]",ColorTask,62.0,106.0,,,HRV,HRV_0221,2022-11-30 19:18:30
,wl-rdm,114,332726,0.0-6.106-0.106,0.0,115.0,,,,,,,[],,,,,,87.9,0.0,u,0.0,True,820.6000000238419,50.0,60.0,40.0,False,,263.4381906768275,[],"[768, 432]",ColorTask,63.0,107.0,,,HRV,HRV_0221,2022-11-30 19:18:30
,wl-rdm,115,334976,0.0-6.107-0.107,0.0,116.0,,,,,,,[],,,,,,73.6,1.0,i,1.0,True,975.2999999821186,59.0,60.0,40.0,False,,210.49117980535684,[],"[768, 432]",ColorTask,64.0,108.0,,,HRV,HRV_0221,2022-11-30 19:18:30
,wl-html-keyboard-response,116,342426,0.0-7.0-0.0,1.0,117.0,,,,,,,,5436.4000000059605,1.0,0,,,,,,,,,,,,,,,,,,,,,,HRV,HRV_0221,2022-11-30 19:18:30
,wl-rdm,117,344808,0.0-8.0-0.0,1.0,118.0,,,,,,,[],,,,,,53.2,0.0,i,1.0,False,1043.800000011921,63.0,60.0,40.0,False,,279.5227110341305,[],"[768, 432]",ColorTask,63.0,1.0,,,HRV,HRV_0221,2022-11-30 19:18:30
,wl-rdm,118,347041,0.0-8.1-0.1,1.0,119.0,,,,,,,[],,,,,,53.2,0.0,u,0.0,True,846.1999999880791,51.0,60.0,40.0,False,,304.97074864779694,[],"[768, 432]",ColorTask,64.0,2.0,,,HRV,HRV_0221,2022-11-30 19:18:30
,wl-rdm,119,349674,0.0-8.2-0.2,1.0,120.0,,,,,,,[],,,,,,50.0,1.0,u,0.0,False,1339.2999999821186,81.0,60.0,40.0,False,,218.86871287328566,[],"[768, 432]",ColorTask,63.0,3.0,,,HRV,HRV_0221,2022-11-30 19:18:30
,wl-rdm,120,352024,0.0-8.3-0.3,1.0,121.0,,,,,,,[],,,,,,53.2,1.0,i,1.0,True,1011.0,61.0,60.0,40.0,False,,269.87560051609455,[],"[768, 432]",ColorTask,64.0,4.0,,,HRV,HRV_0221,2022-11-30 19:18:30
,wl-rdm,121,354607,0.0-8.4-0.4,1.0,122.0,,,,,,,[],,,,,,50.0,0.0,u,0.0,True,1121.0,68.0,60.0,40.0,False,,371.9066813038427,[],"[768, 432]",ColorTask,65.0,5.0,,,HRV,HRV_0221,2022-11-30 19:18:30
,wl-rdm,122,356756,0.0-8.5-0.5,1.0,123.0,,,,,,,[],,,,,,73.6,0.0,u,0.0,True,823.2000000178814,50.0,60.0,40.0,False,,243.92764423084947,[],"[768, 432]",ColorTask,66.0,6.0,,,HRV,HRV_0221,2022-11-30 19:18:30
,wl-rdm,123,359271,0.0-8.6-0.6,1.0,124.0,,,,,,,[],,,,,,87.9,1.0,i,1.0,True,1223.0999999940395,74.0,60.0,40.0,False,,213.7210951370333,[],"[768, 432]",ColorTask,67.0,7.0,,,HRV,HRV_0221,2022-11-30 19:18:30
,wl-rdm,124,362339,0.0-8.7-0.7,1.0,125.0,,,,,,,[],,,,,,53.2,0.0,u,0.0,True,1760.0999999940395,106.0,60.0,40.0,False,,219.3101421111749,[],"[768, 432]",ColorTask,68.0,8.0,,,HRV,HRV_0221,2022-11-30 19:18:30
,wl-rdm,125,365155,0.0-8.8-0.8,1.0,126.0,,,,,,,[],,,,,,50.0,0.0,i,1.0,False,1358.2000000178814,82.0,60.0,40.0,False,,374.81725354261846,[],"[768, 432]",ColorTask,67.0,9.0,,,HRV,HRV_0221,2022-11-30 19:18:30
,wl-rdm,126,367622,0.0-8.9-0.9,1.0,127.0,,,,,,,[],,,,,,73.6,1.0,i,1.0,True,1164.800000011921,70.0,60.0,40.0,False,,231.36607628628698,[],"[768, 432]",ColorTask,68.0,10.0,,,HRV,HRV_0221,2022-11-30 19:18:30
,wl-rdm,127,370455,0.0-8.10-0.10,1.0,128.0,,,,,,,[],,,,,,53.2,1.0,i,1.0,True,1353.5,82.0,60.0,40.0,False,,399.8879370361126,[],"[768, 432]",ColorTask,69.0,11.0,,,HRV,HRV_0221,2022-11-30 19:18:30
,wl-rdm,128,372904,0.0-8.11-0.11,1.0,129.0,,,,,,,[],,,,,,50.0,0.0,i,1.0,False,1109.2000000178814,67.0,60.0,40.0,False,,252.5269967335292,[],"[768, 432]",ColorTask,68.0,12.0,,,HRV,HRV_0221,2022-11-30 19:18:30
,wl-rdm,129,375437,0.0-8.12-0.12,1.0,130.0,,,,,,,[],,,,,,56.4,0.0,u,0.0,True,1256.5000000298023,76.0,60.0,40.0,False,,212.63105867535452,[],"[768, 432]",ColorTask,69.0,13.0,,,HRV,HRV_0221,2022-11-30 19:18:30
,wl-rdm,130,378370,0.0-8.13-0.13,1.0,131.0,,,,,,,[],,,,,,53.2,1.0,u,0.0,False,1623.199999988079,98.0,60.0,40.0,False,,227.98336071789828,[],"[768, 432]",ColorTask,68.0,14.0,,,HRV,HRV_0221,2022-11-30 19:18:30
,wl-rdm,131,381403,0.0-8.14-0.14,1.0,132.0,,,,,,,[],,,,,,56.4,0.0,i,1.0,False,1708.0999999940395,103.0,60.0,40.0,False,,242.39067798957217,[],"[768, 432]",ColorTask,67.0,15.0,,,HRV,HRV_0221,2022-11-30 19:18:30
,wl-rdm,132,383819,0.0-8.15-0.15,1.0,133.0,,,,,,,[],,,,,,87.9,0.0,u,0.0,True,989.3000000119209,60.0,60.0,40.0,False,,343.63637132834134,[],"[768, 432]",ColorTask,68.0,16.0,,,HRV,HRV_0221,2022-11-30 19:18:30
,wl-rdm,133,387102,0.0-8.16-0.16,1.0,134.0,,,,,,,[],,,,,,56.4,0.0,u,0.0,True,1836.2999999821186,111.0,60.0,40.0,False,,353.0789988785466,[],"[768, 432]",ColorTask,69.0,17.0,,,HRV,HRV_0221,2022-11-30 19:18:30
,wl-rdm,134,390018,0.0-8.17-0.17,1.0,135.0,,,,,,,[],,,,,,53.2,1.0,u,0.0,False,1626.2000000178814,98.0,60.0,40.0,False,,205.00645213851703,[],"[768, 432]",ColorTask,68.0,18.0,,,HRV,HRV_0221,2022-11-30 19:18:30
,wl-rdm,135,393235,0.0-8.18-0.18,1.0,136.0,,,,,,,[],,,,,,62.5,0.0,u,0.0,True,1871.2000000178814,113.0,60.0,40.0,False,,257.58850366932575,[],"[768, 432]",ColorTask,69.0,19.0,,,HRV,HRV_0221,2022-11-30 19:18:30
,wl-rdm,136,395534,0.0-8.19-0.19,1.0,137.0,,,,,,,[],,,,,,73.6,1.0,i,1.0,True,999.5000000298023,60.0,60.0,40.0,False,,228.5595490017691,[],"[768, 432]",ColorTask,70.0,20.0,,,HRV,HRV_0221,2022-11-30 19:18:30
,wl-rdm,137,398517,0.0-8.20-0.20,1.0,138.0,,,,,,,[],,,,,,50.0,1.0,u,0.0,False,1654.0999999940395,100.0,60.0,40.0,False,,239.77244904145886,[],"[768, 432]",ColorTask,69.0,21.0,,,HRV,HRV_0221,2022-11-30 19:18:30
,wl-rdm,138,401634,0.0-8.21-0.21,1.0,139.0,,,,,,,[],,,,,,50.0,0.0,u,0.0,True,1804.9000000059605,109.0,60.0,40.0,False,,227.84064966974395,[],"[768, 432]",ColorTask,70.0,22.0,,,HRV,HRV_0221,2022-11-30 19:18:30
,wl-rdm,139,404250,0.0-8.22-0.22,1.0,140.0,,,,,,,[],,,,,,56.4,0.0,u,0.0,True,1246.7999999821186,75.0,60.0,40.0,False,,289.2444207979621,[],"[768, 432]",ColorTask,71.0,23.0,,,HRV,HRV_0221,2022-11-30 19:18:30
,wl-rdm,140,407985,0.0-8.23-0.23,1.0,141.0,,,,,,,[],,,,,,56.4,0.0,u,0.0,True,2263.199999988079,136.0,60.0,40.0,False,,388.3627599059721,[],"[768, 432]",ColorTask,72.0,24.0,,,HRV,HRV_0221,2022-11-30 19:18:30
,wl-rdm,141,411467,0.0-8.24-0.24,1.0,142.0,,,,,,,[],,,,,,56.4,1.0,i,1.0,True,2140.9000000059605,129.0,60.0,40.0,False,,264.13399193191043,[],"[768, 432]",ColorTask,73.0,25.0,,,HRV,HRV_0221,2022-11-30 19:18:30
,wl-rdm,142,414700,0.0-8.25-0.25,1.0,143.0,,,,,,,[],,,,,,53.2,0.0,u,0.0,True,1934.4000000059605,117.0,60.0,40.0,False,,221.81616678017787,[],"[768, 432]",ColorTask,74.0,26.0,,,HRV,HRV_0221,2022-11-30 19:18:30
,wl-rdm,143,417584,0.0-8.26-0.26,1.0,144.0,,,,,,,[],,,,,,87.9,1.0,i,1.0,True,1552.0999999940395,94.0,60.0,40.0,False,,241.68767200108948,[],"[768, 432]",ColorTask,75.0,27.0,,,HRV,HRV_0221,2022-11-30 19:18:30
,wl-rdm,144,421217,0.0-8.27-0.27,1.0,145.0,,,,,,,[],,,,,,56.4,1.0,i,1.0,True,2242.5999999940395,135.0,60.0,40.0,False,,325.8121912194219,[],"[768, 432]",ColorTask,76.0,28.0,,,HRV,HRV_0221,2022-11-30 19:18:30
,wl-rdm,145,424066,0.0-8.28-0.28,1.0,146.0,,,,,,,[],,,,,,50.0,1.0,u,0.0,False,1552.9000000059605,94.0,60.0,40.0,False,,213.52501660299515,[],"[768, 432]",ColorTask,75.0,29.0,,,HRV,HRV_0221,2022-11-30 19:18:30
,wl-rdm,146,427465,0.0-8.29-0.29,1.0,147.0,,,,,,,[],,,,,,50.0,1.0,i,1.0,True,1956.199999988079,118.0,60.0,40.0,False,,358.3145740688225,[],"[768, 432]",ColorTask,76.0,30.0,,,HRV,HRV_0221,2022-11-30 19:18:30
,wl-rdm,147,430331,0.0-8.30-0.30,1.0,148.0,,,,,,,[],,,,,,62.5,1.0,i,1.0,True,1421.0,86.0,60.0,40.0,False,,358.4193546584265,[],"[768, 432]",ColorTask,77.0,31.0,,,HRV,HRV_0221,2022-11-30 19:18:30
,wl-rdm,148,433298,0.0-8.31-0.31,1.0,149.0,,,,,,,[],,,,,,53.2,1.0,i,1.0,True,1586.300000011921,96.0,60.0,40.0,False,,293.49294973473945,[],"[768, 432]",ColorTask,78.0,32.0,,,HRV,HRV_0221,2022-11-30 19:18:30
,wl-rdm,149,436231,0.0-8.32-0.32,1.0,150.0,,,,,,,[],,,,,,53.2,1.0,u,0.0,False,1521.699999988079,92.0,60.0,40.0,False,,317.9214097279421,[],"[768, 432]",ColorTask,77.0,33.0,,,HRV,HRV_0221,2022-11-30 19:18:30
,wl-rdm,150,438916,0.0-8.33-0.33,1.0,151.0,,,,,,,[],,,,,,73.6,0.0,u,0.0,True,1220.5999999940395,74.0,60.0,40.0,False,,374.2808933310428,[],"[768, 432]",ColorTask,78.0,34.0,,,HRV,HRV_0221,2022-11-30 19:18:30
,wl-rdm,151,441630,0.0-8.34-0.34,1.0,152.0,,,,,,,[],,,,,,56.4,0.0,u,0.0,True,1419.2999999821186,86.0,60.0,40.0,False,,221.01327150223727,[],"[768, 432]",ColorTask,79.0,35.0,,,HRV,HRV_0221,2022-11-30 19:18:30
,wl-rdm,152,444264,0.0-8.35-0.35,1.0,153.0,,,,,,,[],,,,,,62.5,1.0,i,1.0,True,1343.5,81.0,60.0,40.0,False,,201.32779130219546,[],"[768, 432]",ColorTask,80.0,36.0,,,HRV,HRV_0221,2022-11-30 19:18:30
,wl-rdm,153,447546,0.0-8.36-0.36,1.0,154.0,,,,,,,[],,,,,,87.9,1.0,i,1.0,True,1968.9000000059605,119.0,60.0,40.0,False,,245.77645983033926,[],"[768, 432]",ColorTask,81.0,37.0,,,HRV,HRV_0221,2022-11-30 19:18:30
,wl-rdm,154,450163,0.0-8.37-0.37,1.0,155.0,,,,,,,[],,,,,,62.5,1.0,i,1.0,True,1335.0,81.0,60.0,40.0,False,,204.2704981339957,[],"[768, 432]",ColorTask,82.0,38.0,,,HRV,HRV_0221,2022-11-30 19:18:30
,wl-rdm,155,453127,0.0-8.38-0.38,1.0,156.0,,,,,,,[],,,,,,87.9,0.0,u,0.0,True,1668.800000011921,100.0,60.0,40.0,False,,216.01895326680383,[],"[768, 432]",ColorTask,83.0,39.0,,,HRV,HRV_0221,2022-11-30 19:18:30
,wl-rdm,156,455744,0.0-8.39-0.39,1.0,157.0,,,,,,,[],,,,,,87.9,1.0,u,0.0,False,1154.5999999940395,70.0,60.0,40.0,False,,373.25368693412014,[],"[768, 432]",ColorTask,82.0,40.0,,,HRV,HRV_0221,2022-11-30 19:18:30
,wl-rdm,157,458659,0.0-8.40-0.40,1.0,158.0,,,,,,,[],,,,,,56.4,1.0,i,1.0,True,1438.6000000238419,87.0,60.0,40.0,False,,395.02574124958386,[],"[768, 432]",ColorTask,83.0,41.0,,,HRV,HRV_0221,2022-11-30 19:18:30
,wl-rdm,158,461109,0.0-8.41-0.41,1.0,159.0,,,,,,,[],,,,,,73.6,0.0,u,0.0,True,1088.199999988079,66.0,60.0,40.0,False,,272.16969150866237,[],"[768, 432]",ColorTask,84.0,42.0,,,HRV,HRV_0221,2022-11-30 19:18:30
,wl-rdm,159,463675,0.0-8.42-0.42,1.0,160.0,,,,,,,[],,,,,,56.4,0.0,u,0.0,True,1219.9000000059605,74.0,60.0,40.0,False,,265.04028655618197,[],"[768, 432]",ColorTask,85.0,43.0,,,HRV,HRV_0221,2022-11-30 19:18:30
,wl-rdm,160,465858,0.0-8.43-0.43,1.0,161.0,,,,,,,[],,,,,,56.4,0.0,i,1.0,False,708.5,43.0,60.0,40.0,False,,391.6491258058996,[],"[768, 432]",ColorTask,84.0,44.0,,,HRV,HRV_0221,2022-11-30 19:18:30
,wl-rdm,161,468675,0.0-8.44-0.44,1.0,162.0,,,,,,,[],,,,,,62.5,1.0,u,0.0,False,1339.0000000298023,81.0,60.0,40.0,False,,388.6256854926528,[],"[768, 432]",ColorTask,83.0,45.0,,,HRV,HRV_0221,2022-11-30 19:18:30
,wl-rdm,162,470858,0.0-8.45-0.45,1.0,163.0,,,,,,,[],,,,,,50.0,0.0,u,0.0,True,872.5999999940395,53.0,60.0,40.0,False,,225.9807025975513,[],"[768, 432]",ColorTask,84.0,46.0,,,HRV,HRV_0221,2022-11-30 19:18:30
,wl-rdm,163,472841,0.0-8.46-0.46,1.0,164.0,,,,,,,[],,,,,,87.9,1.0,i,1.0,True,705.8000000119209,43.0,60.0,40.0,False,,208.74731319504778,[],"[768, 432]",ColorTask,85.0,47.0,,,HRV,HRV_0221,2022-11-30 19:18:30
,wl-rdm,164,475324,0.0-8.47-0.47,1.0,165.0,,,,,,,[],,,,,,87.9,0.0,u,0.0,True,1028.2999999821186,62.0,60.0,40.0,False,,390.7241797293398,[],"[768, 432]",ColorTask,86.0,48.0,,,HRV,HRV_0221,2022-11-30 19:18:30
,wl-rdm,165,477557,0.0-8.48-0.48,1.0,166.0,,,,,,,[],,,,,,87.9,0.0,u,0.0,True,871.2000000178814,53.0,60.0,40.0,False,,280.7757096241698,[],"[768, 432]",ColorTask,87.0,49.0,,,HRV,HRV_0221,2022-11-30 19:18:30
,wl-rdm,166,479940,0.0-8.49-0.49,1.0,167.0,,,,,,,[],,,,,,62.5,1.0,i,1.0,True,995.1999999880791,60.0,60.0,40.0,False,,317.28347214627473,[],"[768, 432]",ColorTask,88.0,50.0,,,HRV,HRV_0221,2022-11-30 19:18:30
,wl-rdm,167,482474,0.0-8.50-0.50,1.0,168.0,,,,,,,[],,,,,,73.6,1.0,i,1.0,True,1145.699999988079,69.0,60.0,40.0,False,,320.50058258274237,[],"[768, 432]",ColorTask,89.0,51.0,,,HRV,HRV_0221,2022-11-30 19:18:30
,wl-rdm,168,484790,0.0-8.51-0.51,1.0,169.0,,,,,,,[],,,,,,73.6,0.0,u,0.0,True,987.5,60.0,60.0,40.0,False,,262.8227094678832,[],"[768, 432]",ColorTask,90.0,52.0,,,HRV,HRV_0221,2022-11-30 19:18:30
,wl-rdm,169,486906,0.0-8.52-0.52,1.0,170.0,,,,,,,[],,,,,,87.9,0.0,u,0.0,True,841.9999999701977,51.0,60.0,40.0,False,,214.13967113537586,[],"[768, 432]",ColorTask,91.0,53.0,,,HRV,HRV_0221,2022-11-30 19:18:30
,wl-rdm,170,489223,0.0-8.53-0.53,1.0,171.0,,,,,,,[],,,,,,87.9,0.0,u,0.0,True,977.2999999821186,59.0,60.0,40.0,False,,257.3884768528944,[],"[768, 432]",ColorTask,92.0,54.0,,,HRV,HRV_0221,2022-11-30 19:18:30
,wl-rdm,171,491723,0.0-8.54-0.54,1.0,172.0,,,,,,,[],,,,,,50.0,1.0,i,1.0,True,1154.7000000178814,70.0,60.0,40.0,False,,282.5264460227051,[],"[768, 432]",ColorTask,93.0,55.0,,,HRV,HRV_0221,2022-11-30 19:18:30
,wl-rdm,172,494255,0.0-8.55-0.55,1.0,173.0,,,,,,,[],,,,,,73.6,1.0,u,0.0,False,1212.5,73.0,60.0,40.0,False,,246.334865954142,[],"[768, 432]",ColorTask,92.0,56.0,,,HRV,HRV_0221,2022-11-30 19:18:30
,wl-rdm,173,496855,0.0-8.56-0.56,1.0,174.0,,,,,,,[],,,,,,56.4,1.0,i,1.0,True,1143.199999988079,69.0,60.0,40.0,False,,373.826381879133,[],"[768, 432]",ColorTask,93.0,57.0,,,HRV,HRV_0221,2022-11-30 19:18:30
,wl-rdm,174,499355,0.0-8.57-0.57,1.0,175.0,,,,,,,[],,,,,,56.4,1.0,u,0.0,False,1104.300000011921,67.0,60.0,40.0,False,,328.49992753927074,[],"[768, 432]",ColorTask,92.0,58.0,,,HRV,HRV_0221,2022-11-30 19:18:30
,wl-rdm,175,501554,0.0-8.58-0.58,1.0,176.0,,,,,,,[],,,,,,87.9,0.0,u,0.0,True,920.3999999761581,56.0,60.0,40.0,False,,207.4409426323402,[],"[768, 432]",ColorTask,93.0,59.0,,,HRV,HRV_0221,2022-11-30 19:18:30
,wl-rdm,176,504171,0.0-8.59-0.59,1.0,177.0,,,,,,,[],,,,,,56.4,1.0,i,1.0,True,1138.1999999582767,69.0,60.0,40.0,False,,384.67644657198844,[],"[768, 432]",ColorTask,94.0,60.0,,,HRV,HRV_0221,2022-11-30 19:18:30
,wl-rdm,177,506504,0.0-8.60-0.60,1.0,178.0,,,,,,,[],,,,,,87.9,0.0,u,0.0,True,894.5,54.0,60.0,40.0,False,,371.69268876622647,[],"[768, 432]",ColorTask,95.0,61.0,,,HRV,HRV_0221,2022-11-30 19:18:30
,wl-rdm,178,508820,0.0-8.61-0.61,1.0,179.0,,,,,,,[],,,,,,73.6,1.0,u,0.0,False,846.3000000119209,51.0,60.0,40.0,False,,385.2010973478425,[],"[768, 432]",ColorTask,94.0,62.0,,,HRV,HRV_0221,2022-11-30 19:18:30
,wl-rdm,179,511253,0.0-8.62-0.62,1.0,180.0,,,,,,,[],,,,,,62.5,1.0,u,0.0,False,1138.9999999701977,69.0,60.0,40.0,False,,232.01018456510283,[],"[768, 432]",ColorTask,93.0,63.0,,,HRV,HRV_0221,2022-11-30 19:18:30
,wl-rdm,180,513386,0.0-8.63-0.63,1.0,181.0,,,,,,,[],,,,,,87.9,1.0,i,1.0,True,698.1999999880791,42.0,60.0,40.0,False,,375.0732492849838,[],"[768, 432]",ColorTask,94.0,64.0,,,HRV,HRV_0221,2022-11-30 19:18:30
,wl-rdm,181,515953,0.0-8.64-0.64,1.0,182.0,,,,,,,[],,,,,,62.5,1.0,i,1.0,True,1255.199999988079,76.0,60.0,40.0,False,,244.23042131624152,[],"[768, 432]",ColorTask,95.0,65.0,,,HRV,HRV_0221,2022-11-30 19:18:30
,wl-rdm,182,518335,0.0-8.65-0.65,1.0,183.0,,,,,,,[],,,,,,73.6,1.0,i,1.0,True,1063.2999999821186,64.0,60.0,40.0,False,,240.30068971952005,[],"[768, 432]",ColorTask,96.0,66.0,,,HRV,HRV_0221,2022-11-30 19:18:30
,wl-rdm,183,520568,0.0-8.66-0.66,1.0,184.0,,,,,,,[],,,,,,73.6,0.0,u,0.0,True,805.4000000059605,49.0,60.0,40.0,False,,351.13636424265223,[],"[768, 432]",ColorTask,97.0,67.0,,,HRV,HRV_0221,2022-11-30 19:18:30
,wl-rdm,184,523068,0.0-8.67-0.67,1.0,185.0,,,,,,,[],,,,,,62.5,0.0,i,1.0,False,1037.5,63.0,60.0,40.0,False,,395.58598469055534,[],"[768, 432]",ColorTask,96.0,68.0,,,HRV,HRV_0221,2022-11-30 19:18:30
,wl-rdm,185,525534,0.0-8.68-0.68,1.0,186.0,,,,,,,[],,,,,,50.0,1.0,i,1.0,True,1171.199999988079,71.0,60.0,40.0,False,,209.6980987557864,[],"[768, 432]",ColorTask,97.0,69.0,,,HRV,HRV_0221,2022-11-30 19:18:30
,wl-rdm,186,528069,0.0-8.69-0.69,1.0,187.0,,,,,,,[],,,,,,73.6,0.0,u,0.0,True,1194.1000000238419,72.0,60.0,40.0,False,,259.0070548534937,[],"[768, 432]",ColorTask,98.0,70.0,,,HRV,HRV_0221,2022-11-30 19:18:30
,wl-rdm,187,530686,0.0-8.70-0.70,1.0,188.0,,,,,,,[],,,,,,62.5,0.0,u,0.0,True,1274.0,77.0,60.0,40.0,False,,280.68405911914044,[],"[768, 432]",ColorTask,99.0,71.0,,,HRV,HRV_0221,2022-11-30 19:18:30
,wl-rdm,188,533552,0.0-8.71-0.71,1.0,189.0,,,,,,,[],,,,,,62.5,0.0,u,0.0,True,1433.6000000238419,86.0,60.0,40.0,False,,355.9942307361737,[],"[768, 432]",ColorTask,100.0,72.0,,,HRV,HRV_0221,2022-11-30 19:18:30
,wl-rdm,189,536451,0.0-8.72-0.72,1.0,190.0,,,,,,,[],,,,,,53.2,0.0,u,0.0,True,1475.9000000059605,89.0,60.0,40.0,False,,343.5261468721484,[],"[768, 432]",ColorTask,101.0,73.0,,,HRV,HRV_0221,2022-11-30 19:18:30
,wl-rdm,190,539417,0.0-8.73-0.73,1.0,191.0,,,,,,,[],,,,,,73.6,1.0,i,1.0,True,1672.300000011921,101.0,60.0,40.0,False,,212.26646591400922,[],"[768, 432]",ColorTask,102.0,74.0,,,HRV,HRV_0221,2022-11-30 19:18:30
,wl-rdm,191,542550,0.0-8.74-0.74,1.0,192.0,,,,,,,[],,,,,,53.2,1.0,u,0.0,False,1769.0999999940395,107.0,60.0,40.0,False,,288.7662480974701,[],"[768, 432]",ColorTask,101.0,75.0,,,HRV,HRV_0221,2022-11-30 19:18:30
,wl-rdm,192,544933,0.0-8.75-0.75,1.0,193.0,,,,,,,[],,,,,,73.6,1.0,i,1.0,True,1076.0999999940395,65.0,60.0,40.0,False,,222.74822525645763,[],"[768, 432]",ColorTask,102.0,76.0,,,HRV,HRV_0221,2022-11-30 19:18:30
,wl-rdm,193,548549,0.0-8.76-0.76,1.0,194.0,,,,,,,[],,,,,,62.5,0.0,u,0.0,True,2226.399999976158,134.0,60.0,40.0,False,,300.97989602407205,[],"[768, 432]",ColorTask,103.0,77.0,,,HRV,HRV_0221,2022-11-30 19:18:30
,wl-rdm,194,551216,0.0-8.77-0.77,1.0,195.0,,,,,,,[],,,,,,87.9,1.0,i,1.0,True,1210.0,73.0,60.0,40.0,False,,399.29387262319756,[],"[768, 432]",ColorTask,104.0,78.0,,,HRV,HRV_0221,2022-11-30 19:18:30
,wl-rdm,195,553982,0.0-8.78-0.78,1.0,196.0,,,,,,,[],,,,,,56.4,1.0,u,0.0,False,1388.2999999821186,84.0,60.0,40.0,False,,311.3603413405348,[],"[768, 432]",ColorTask,103.0,79.0,,,HRV,HRV_0221,2022-11-30 19:18:30
,wl-rdm,196,556198,0.0-8.79-0.79,1.0,197.0,,,,,,,[],,,,,,87.9,1.0,i,1.0,True,739.3999999761581,45.0,60.0,40.0,False,,393.2538413372463,[],"[768, 432]",ColorTask,104.0,80.0,,,HRV,HRV_0221,2022-11-30 19:18:30
,wl-rdm,197,558814,0.0-8.80-0.80,1.0,198.0,,,,,,,[],,,,,,50.0,0.0,u,0.0,True,1252.0999999940395,76.0,60.0,40.0,False,,265.90956009185265,[],"[768, 432]",ColorTask,105.0,81.0,,,HRV,HRV_0221,2022-11-30 19:18:30
,wl-rdm,198,561297,0.0-8.81-0.81,1.0,199.0,,,,,,,[],,,,,,62.5,0.0,i,1.0,False,1002.5999999940395,61.0,60.0,40.0,False,,386.41764082663093,[],"[768, 432]",ColorTask,104.0,82.0,,,HRV,HRV_0221,2022-11-30 19:18:30
,wl-rdm,199,563664,0.0-8.82-0.82,1.0,200.0,,,,,,,[],,,,,,73.6,0.0,u,0.0,True,1053.699999988079,64.0,60.0,40.0,False,,239.92119183335976,[],"[768, 432]",ColorTask,105.0,83.0,,,HRV,HRV_0221,2022-11-30 19:18:30
,wl-rdm,200,566564,0.0-8.83-0.83,1.0,201.0,,,,,,,[],,,,,,87.9,0.0,u,0.0,True,1535.5999999940395,93.0,60.0,40.0,False,,280.8314682001619,[],"[768, 432]",ColorTask,106.0,84.0,,,HRV,HRV_0221,2022-11-30 19:18:30
,wl-rdm,201,569113,0.0-8.84-0.84,1.0,202.0,,,,,,,[],,,,,,73.6,0.0,u,0.0,True,1240.699999988079,75.0,60.0,40.0,False,,218.707135677624,[],"[768, 432]",ColorTask,107.0,85.0,,,HRV,HRV_0221,2022-11-30 19:18:30
,wl-rdm,202,572580,0.0-8.85-0.85,1.0,203.0,,,,,,,[],,,,,,50.0,0.0,u,0.0,True,2023.4000000059605,122.0,60.0,40.0,False,,371.18123134145685,[],"[768, 432]",ColorTask,108.0,86.0,,,HRV,HRV_0221,2022-11-30 19:18:30
,wl-rdm,203,575529,0.0-8.86-0.86,1.0,204.0,,,,,,,[],,,,,,56.4,1.0,i,1.0,True,1518.9000000357628,92.0,60.0,40.0,False,,346.6771986008427,[],"[768, 432]",ColorTask,109.0,87.0,,,HRV,HRV_0221,2022-11-30 19:18:30
,wl-rdm,204,579095,0.0-8.87-0.87,1.0,205.0,,,,,,,[],,,,,,50.0,0.0,u,0.0,True,2129.399999976158,128.0,60.0,40.0,False,,364.7001043087953,[],"[768, 432]",ColorTask,110.0,88.0,,,HRV,HRV_0221,2022-11-30 19:18:30
,wl-rdm,205,582261,0.0-8.88-0.88,1.0,206.0,,,,,,,[],,,,,,50.0,1.0,i,1.0,True,1785.9000000059605,108.0,60.0,40.0,False,,300.50306764413216,[],"[768, 432]",ColorTask,111.0,89.0,,,HRV,HRV_0221,2022-11-30 19:18:30
,wl-rdm,206,585545,0.0-8.89-0.89,1.0,207.0,,,,,,,[],,,,,,53.2,0.0,u,0.0,True,1828.699999988079,110.0,60.0,40.0,False,,369.35133650654416,[],"[768, 432]",ColorTask,112.0,90.0,,,HRV,HRV_0221,2022-11-30 19:18:30
,wl-rdm,207,587861,0.0-8.90-0.90,1.0,208.0,,,,,,,[],,,,,,62.5,1.0,i,1.0,True,1020.6000000238419,62.0,60.0,40.0,False,,212.79887008041877,[],"[768, 432]",ColorTask,113.0,91.0,,,HRV,HRV_0221,2022-11-30 19:18:30
,wl-rdm,208,590660,0.0-8.91-0.91,1.0,209.0,,,,,,,[],,,,,,50.0,1.0,u,0.0,False,1419.7999999821186,86.0,60.0,40.0,False,,308.3708494434888,[],"[768, 432]",ColorTask,112.0,92.0,,,HRV,HRV_0221,2022-11-30 19:18:30
,wl-rdm,209,592910,0.0-8.92-0.92,1.0,210.0,,,,,,,[],,,,,,62.5,0.0,i,1.0,False,800.9000000059605,48.0,60.0,40.0,False,,374.59415985601663,[],"[768, 432]",ColorTask,111.0,93.0,,,HRV,HRV_0221,2022-11-30 19:18:30
,wl-rdm,210,595010,0.0-8.93-0.93,1.0,211.0,,,,,,,[],,,,,,53.2,0.0,i,1.0,False,719.5999999940395,44.0,60.0,40.0,False,,306.5266682911406,[],"[768, 432]",ColorTask,110.0,94.0,,,HRV,HRV_0221,2022-11-30 19:18:30
,wl-rdm,211,597293,0.0-8.94-0.94,1.0,212.0,,,,,,,[],,,,,,53.2,1.0,u,0.0,False,880.6999999880791,53.0,60.0,40.0,False,,336.1600777551811,[],"[768, 432]",ColorTask,109.0,95.0,,,HRV,HRV_0221,2022-11-30 19:18:30
,wl-rdm,212,599510,0.0-8.95-0.95,1.0,213.0,,,,,,,[],,,,,,62.5,1.0,i,1.0,True,851.6999999880791,52.0,60.0,40.0,False,,280.29163637062874,[],"[768, 432]",ColorTask,110.0,96.0,,,HRV,HRV_0221,2022-11-30 19:18:30
,wl-rdm,213,602007,0.0-8.96-0.96,1.0,214.0,,,,,,,[],,,,,,53.2,1.0,u,0.0,False,1125.8999999761581,67.0,60.0,40.0,False,,291.5446371027199,[],"[768, 432]",ColorTask,109.0,97.0,,,HRV,HRV_0221,2022-11-30 19:18:30
,wl-rdm,214,604323,0.0-8.97-0.97,1.0,215.0,,,,,,,[],,,,,,73.6,1.0,i,1.0,True,939.0999999940395,57.0,60.0,40.0,False,,301.10859435590237,[],"[768, 432]",ColorTask,110.0,98.0,,,HRV,HRV_0221,2022-11-30 19:18:30
,wl-rdm,215,607273,0.0-8.98-0.98,1.0,216.0,,,,,,,[],,,,,,53.2,0.0,i,1.0,False,1504.1000000238419,91.0,60.0,40.0,False,,379.42233578096244,[],"[768, 432]",ColorTask,109.0,99.0,,,HRV,HRV_0221,2022-11-30 19:18:30
,wl-rdm,216,609606,0.0-8.99-0.99,1.0,217.0,,,,,,,[],,,,,,50.0,1.0,u,0.0,False,920.1999999880791,56.0,60.0,40.0,False,,341.9096882147089,[],"[768, 432]",ColorTask,108.0,100.0,,,HRV,HRV_0221,2022-11-30 19:18:30
,wl-rdm,217,612256,0.0-8.100-0.100,1.0,218.0,,,,,,,[],,,,,,62.5,0.0,u,0.0,True,1347.0999999940395,81.0,60.0,40.0,False,,238.5732577164784,[],"[768, 432]",ColorTask,109.0,101.0,,,HRV,HRV_0221,2022-11-30 19:18:30
,wl-rdm,218,615472,0.0-8.101-0.101,1.0,219.0,,,,,,,[],,,,,,53.2,0.0,u,0.0,True,1929.5999999940395,116.0,60.0,40.0,False,,201.13384872457735,[],"[768, 432]",ColorTask,110.0,102.0,,,HRV,HRV_0221,2022-11-30 19:18:30
,wl-rdm,219,618689,0.0-8.102-0.102,1.0,220.0,,,,,,,[],,,,,,56.4,0.0,u,0.0,True,1803.199999988079,109.0,60.0,40.0,False,,336.098080137156,[],"[768, 432]",ColorTask,111.0,103.0,,,HRV,HRV_0221,2022-11-30 19:18:30
,wl-rdm,220,621189,0.0-8.103-0.103,1.0,221.0,,,,,,,[],,,,,,73.6,0.0,u,0.0,True,1160.800000011921,70.0,60.0,40.0,False,,272.8246368853217,[],"[768, 432]",ColorTask,112.0,104.0,,,HRV,HRV_0221,2022-11-30 19:18:30
,wl-rdm,221,624438,0.0-8.104-0.104,1.0,222.0,,,,,,,[],,,,,,62.5,0.0,u,0.0,True,1942.3999999761581,117.0,60.0,40.0,False,,223.01994010621746,[],"[768, 432]",ColorTask,113.0,105.0,,,HRV,HRV_0221,2022-11-30 19:18:30
,wl-rdm,222,627688,0.0-8.105-0.105,1.0,223.0,,,,,,,[],,,,,,50.0,0.0,u,0.0,True,1926.199999988079,116.0,60.0,40.0,False,,240.01801229546186,[],"[768, 432]",ColorTask,114.0,106.0,,,HRV,HRV_0221,2022-11-30 19:18:30
,wl-rdm,223,631087,0.0-8.106-0.106,1.0,224.0,,,,,,,[],,,,,,56.4,1.0,i,1.0,True,1922.0999999940395,116.0,60.0,40.0,False,,390.68243533325494,[],"[768, 432]",ColorTask,115.0,107.0,,,HRV,HRV_0221,2022-11-30 19:18:30
,wl-rdm,224,634153,0.0-8.107-0.107,1.0,225.0,,,,,,,[],,,,,,87.9,1.0,i,1.0,True,1702.3000000417233,103.0,60.0,40.0,False,,290.50492463789055,[],"[768, 432]",ColorTask,116.0,108.0,,,HRV,HRV_0221,2022-11-30 19:18:30
,wl-html-button-response,225,636245,0.0-9.0-0.0,,,,,,,,,,2085.7999999821186,,0,,,,,,,,,,,,,,,,,,,,<h3>End of this session. Thank you!</h3><br>,['Close window'],HRV,HRV_0221,2022-11-30 19:18:30
