trialN,stimuli,question,trialStartTime,trialStartTime_UNIX,stimulus1,rt,receivedResponse,rating,trialEndTime,trialDuration,stimulus1Loaded,exp,subjectId,date
0,"[{'imgObject': {}, 'id': 'sushi w_condiments', 'src': '/static/foodstim60/sushi w_condiments.jpg', 'key': 'NaN', 'origWidth': 410, 'origHeight': 410, 'width': 410, 'height': 410, 'widthPercent': 0.8, 'rescaleHeight': True, 'trialN': 0, 'loaded': True, 'loadedTime': 4053, 'positionName': 'CENTER', 'positionCoords': [435, 155]}]",Rate how much you want to eat this food from 0 (least) to 10 (most).,9388,1669829903251,sushi w_condiments,1631,True,6.37,11019,1631,True,HRV,HRV_0047,2022-11-30 17:38:45
1,"[{'imgObject': {}, 'id': 'avocado', 'src': '/static/foodstim60/avocado.jpg', 'key': 'NaN', 'origWidth': 409, 'origHeight': 409, 'width': 409, 'height': 409, 'widthPercent': 0.8, 'rescaleHeight': True, 'trialN': 1, 'loaded': True, 'loadedTime': 4006, 'positionName': 'CENTER', 'positionCoords': [435.5, 155.5]}]",Rate how much you want to eat this food from 0 (least) to 10 (most).,11023,1669829904886,avocado,316,True,7.4,11339,316,True,HRV,HRV_0047,2022-11-30 17:38:45
2,"[{'imgObject': {}, 'id': 'seaweed', 'src': '/static/foodstim60/seaweed.jpg', 'key': 'NaN', 'origWidth': 410, 'origHeight': 410, 'width': 410, 'height': 410, 'widthPercent': 0.8, 'rescaleHeight': True, 'trialN': 2, 'loaded': True, 'loadedTime': 4792, 'positionName': 'CENTER', 'positionCoords': [435, 155]}]",Rate how much you want to eat this food from 0 (least) to 10 (most).,11341,1669829905204,seaweed,267,True,7.42,11608,267,True,HRV,HRV_0047,2022-11-30 17:38:45
3,"[{'imgObject': {}, 'id': 'popsicles', 'src': '/static/foodstim60/popsicles.jpg', 'key': 'NaN', 'origWidth': 410, 'origHeight': 410, 'width': 410, 'height': 410, 'widthPercent': 0.8, 'rescaleHeight': True, 'trialN': 3, 'loaded': True, 'loadedTime': 4897, 'positionName': 'CENTER', 'positionCoords': [435, 155]}]",Rate how much you want to eat this food from 0 (least) to 10 (most).,11610,1669829905473,popsicles,311,True,5.9,11921,311,True,HRV,HRV_0047,2022-11-30 17:38:45
4,"[{'imgObject': {}, 'id': 'hotdog w must', 'src': '/static/foodstim60/hotdog w must.jpg', 'key': 'NaN', 'origWidth': 409, 'origHeight': 409, 'width': 409, 'height': 409, 'widthPercent': 0.8, 'rescaleHeight': True, 'trialN': 4, 'loaded': True, 'loadedTime': 5261, 'positionName': 'CENTER', 'positionCoords': [435.5, 155.5]}]",Rate how much you want to eat this food from 0 (least) to 10 (most).,11922,1669829905785,hotdog w must,231,True,5.18,12153,231,True,HRV,HRV_0047,2022-11-30 17:38:45
5,"[{'imgObject': {}, 'id': 'edamame', 'src': '/static/foodstim60/edamame.jpg', 'key': 'NaN', 'origWidth': 409, 'origHeight': 410, 'width': 409, 'height': 410, 'widthPercent': 0.8, 'rescaleHeight': True, 'trialN': 5, 'loaded': True, 'loadedTime': 5309, 'positionName': 'CENTER', 'positionCoords': [435.5, 155]}]",Rate how much you want to eat this food from 0 (least) to 10 (most).,12155,1669829906018,edamame,234,True,4.62,12389,234,True,HRV,HRV_0047,2022-11-30 17:38:45
6,"[{'imgObject': {}, 'id': 'turkeysandwich', 'src': '/static/foodstim60/turkeysandwich.jpg', 'key': 'NaN', 'origWidth': 409, 'origHeight': 409, 'width': 409, 'height': 409, 'widthPercent': 0.8, 'rescaleHeight': True, 'trialN': 6, 'loaded': True, 'loadedTime': 5557, 'positionName': 'CENTER', 'positionCoords': [435.5, 155.5]}]",Rate how much you want to eat this food from 0 (least) to 10 (most).,12553,1669829906416,turkeysandwich,177,True,3.79,12730,177,True,HRV,HRV_0047,2022-11-30 17:38:45
7,"[{'imgObject': {}, 'id': 'banana', 'src': '/static/foodstim60/banana.jpg', 'key': 'NaN', 'origWidth': 410, 'origHeight': 410, 'width': 410, 'height': 410, 'widthPercent': 0.8, 'rescaleHeight': True, 'trialN': 7, 'loaded': True, 'loadedTime': 5144, 'positionName': 'CENTER', 'positionCoords': [435, 155]}]",Rate how much you want to eat this food from 0 (least) to 10 (most).,12738,1669829906601,banana,249,True,5.15,12987,249,True,HRV,HRV_0047,2022-11-30 17:38:45
8,"[{'imgObject': {}, 'id': 'salmon', 'src': '/static/foodstim60/salmon.jpg', 'key': 'NaN', 'origWidth': 410, 'origHeight': 409, 'width': 410, 'height': 409, 'widthPercent': 0.8, 'rescaleHeight': True, 'trialN': 8, 'loaded': True, 'loadedTime': 5378, 'positionName': 'CENTER', 'positionCoords': [435, 155.5]}]",Rate how much you want to eat this food from 0 (least) to 10 (most).,12991,1669829906854,salmon,220,True,5.73,13211,220,True,HRV,HRV_0047,2022-11-30 17:38:45
9,"[{'imgObject': {}, 'id': 'salad w chicken', 'src': '/static/foodstim60/salad w chicken.jpg', 'key': 'NaN', 'origWidth': 411, 'origHeight': 411, 'width': 411, 'height': 411, 'widthPercent': 0.8, 'rescaleHeight': True, 'trialN': 9, 'loaded': True, 'loadedTime': 6082, 'positionName': 'CENTER', 'positionCoords': [434.5, 154.5]}]",Rate how much you want to eat this food from 0 (least) to 10 (most).,13216,1669829907079,salad w chicken,198,True,6.43,13414,198,True,HRV,HRV_0047,2022-11-30 17:38:45
10,"[{'imgObject': {}, 'id': 'corn cob', 'src': '/static/foodstim60/corn cob.jpg', 'key': 'NaN', 'origWidth': 411, 'origHeight': 411, 'width': 411, 'height': 411, 'widthPercent': 0.8, 'rescaleHeight': True, 'trialN': 10, 'loaded': True, 'loadedTime': 5519, 'positionName': 'CENTER', 'positionCoords': [434.5, 154.5]}]",Rate how much you want to eat this food from 0 (least) to 10 (most).,13418,1669829907281,corn cob,455,True,7.9,13873,455,True,HRV,HRV_0047,2022-11-30 17:38:45
11,"[{'imgObject': {}, 'id': 'rigatoni', 'src': '/static/foodstim60/rigatoni.jpg', 'key': 'NaN', 'origWidth': 411, 'origHeight': 411, 'width': 411, 'height': 411, 'widthPercent': 0.8, 'rescaleHeight': True, 'trialN': 11, 'loaded': True, 'loadedTime': 5976, 'positionName': 'CENTER', 'positionCoords': [434.5, 154.5]}]",Rate how much you want to eat this food from 0 (least) to 10 (most).,13875,1669829907738,rigatoni,247,True,8.25,14122,247,True,HRV,HRV_0047,2022-11-30 17:38:45
12,"[{'imgObject': {}, 'id': 'roastedpotatoes', 'src': '/static/foodstim60/roastedpotatoes.jpg', 'key': 'NaN', 'origWidth': 409, 'origHeight': 410, 'width': 409, 'height': 410, 'widthPercent': 0.8, 'rescaleHeight': True, 'trialN': 12, 'loaded': True, 'loadedTime': 5939, 'positionName': 'CENTER', 'positionCoords': [435.5, 155]}]",Rate how much you want to eat this food from 0 (least) to 10 (most).,14125,1669829907988,roastedpotatoes,236,True,8.53,14361,236,True,HRV,HRV_0047,2022-11-30 17:38:45
13,"[{'imgObject': {}, 'id': 'luckycharms', 'src': '/static/foodstim60/luckycharms.jpg', 'key': 'NaN', 'origWidth': 410, 'origHeight': 409, 'width': 410, 'height': 409, 'widthPercent': 0.8, 'rescaleHeight': True, 'trialN': 13, 'loaded': True, 'loadedTime': 5797, 'positionName': 'CENTER', 'positionCoords': [435, 155.5]}]",Rate how much you want to eat this food from 0 (least) to 10 (most).,14366,1669829908229,luckycharms,291,True,7.18,14657,291,True,HRV,HRV_0047,2022-11-30 17:38:45
14,"[{'imgObject': {}, 'id': 'bagel plain', 'src': '/static/foodstim60/bagel plain.jpg', 'key': 'NaN', 'origWidth': 410, 'origHeight': 410, 'width': 410, 'height': 410, 'widthPercent': 0.8, 'rescaleHeight': True, 'trialN': 14, 'loaded': True, 'loadedTime': 6138, 'positionName': 'CENTER', 'positionCoords': [435, 155]}]",Rate how much you want to eat this food from 0 (least) to 10 (most).,14658,1669829908521,bagel plain,242,True,6.17,14900,242,True,HRV,HRV_0047,2022-11-30 17:38:45
15,"[{'imgObject': {}, 'id': 'apple slices', 'src': '/static/foodstim60/apple slices.jpg', 'key': 'NaN', 'origWidth': 409, 'origHeight': 410, 'width': 409, 'height': 410, 'widthPercent': 0.8, 'rescaleHeight': True, 'trialN': 15, 'loaded': True, 'loadedTime': 5925, 'positionName': 'CENTER', 'positionCoords': [435.5, 155]}]",Rate how much you want to eat this food from 0 (least) to 10 (most).,14903,1669829908766,apple slices,236,True,5.5600000000000005,15139,236,True,HRV,HRV_0047,2022-11-30 17:38:45
16,"[{'imgObject': {}, 'id': 'veggieswithdip', 'src': '/static/foodstim60/veggieswithdip.jpg', 'key': 'NaN', 'origWidth': 409, 'origHeight': 409, 'width': 409, 'height': 409, 'widthPercent': 0.8, 'rescaleHeight': True, 'trialN': 16, 'loaded': True, 'loadedTime': 6185, 'positionName': 'CENTER', 'positionCoords': [435.5, 155.5]}]",Rate how much you want to eat this food from 0 (least) to 10 (most).,15141,1669829909004,veggieswithdip,387,True,4.8100000000000005,15528,387,True,HRV,HRV_0047,2022-11-30 17:38:45
17,"[{'imgObject': {}, 'id': 'turkey sandwich', 'src': '/static/foodstim60/turkey sandwich.jpg', 'key': 'NaN', 'origWidth': 409, 'origHeight': 409, 'width': 409, 'height': 409, 'widthPercent': 0.8, 'rescaleHeight': True, 'trialN': 17, 'loaded': True, 'loadedTime': 6257, 'positionName': 'CENTER', 'positionCoords': [435.5, 155.5]}]",Rate how much you want to eat this food from 0 (least) to 10 (most).,15531,1669829909394,turkey sandwich,237,True,4.28,15768,237,True,HRV,HRV_0047,2022-11-30 17:38:45
18,"[{'imgObject': {}, 'id': 'mashed potato', 'src': '/static/foodstim60/mashed potato.jpg', 'key': 'NaN', 'origWidth': 409, 'origHeight': 409, 'width': 409, 'height': 409, 'widthPercent': 0.8, 'rescaleHeight': True, 'trialN': 18, 'loaded': True, 'loadedTime': 6481, 'positionName': 'CENTER', 'positionCoords': [435.5, 155.5]}]",Rate how much you want to eat this food from 0 (least) to 10 (most).,15769,1669829909632,mashed potato,240,True,4.21,16009,240,True,HRV,HRV_0047,2022-11-30 17:38:45
19,"[{'imgObject': {}, 'id': 'Grapes', 'src': '/static/foodstim60/Grapes.jpg', 'key': 'NaN', 'origWidth': 411, 'origHeight': 411, 'width': 411, 'height': 411, 'widthPercent': 0.8, 'rescaleHeight': True, 'trialN': 19, 'loaded': True, 'loadedTime': 6561, 'positionName': 'CENTER', 'positionCoords': [434.5, 154.5]}]",Rate how much you want to eat this food from 0 (least) to 10 (most).,16015,1669829909878,Grapes,257,True,5.14,16272,257,True,HRV,HRV_0047,2022-11-30 17:38:45
20,"[{'imgObject': {}, 'id': 'froot loops w milk', 'src': '/static/foodstim60/froot loops w milk.jpg', 'key': 'NaN', 'origWidth': 410, 'origHeight': 410, 'width': 410, 'height': 410, 'widthPercent': 0.8, 'rescaleHeight': True, 'trialN': 20, 'loaded': True, 'loadedTime': 6735, 'positionName': 'CENTER', 'positionCoords': [435, 155]}]",Rate how much you want to eat this food from 0 (least) to 10 (most).,16274,1669829910137,froot loops w milk,192,True,5.48,16466,192,True,HRV,HRV_0047,2022-11-30 17:38:45
21,"[{'imgObject': {}, 'id': 'blackbeanswithrice', 'src': '/static/foodstim60/blackbeanswithrice.jpg', 'key': 'NaN', 'origWidth': 410, 'origHeight': 410, 'width': 410, 'height': 410, 'widthPercent': 0.8, 'rescaleHeight': True, 'trialN': 21, 'loaded': True, 'loadedTime': 6757, 'positionName': 'CENTER', 'positionCoords': [435, 155]}]",Rate how much you want to eat this food from 0 (least) to 10 (most).,16468,1669829910331,blackbeanswithrice,221,True,5.96,16689,221,True,HRV,HRV_0047,2022-11-30 17:38:45
22,"[{'imgObject': {}, 'id': 'steak', 'src': '/static/foodstim60/steak.jpg', 'key': 'NaN', 'origWidth': 410, 'origHeight': 410, 'width': 410, 'height': 410, 'widthPercent': 0.8, 'rescaleHeight': True, 'trialN': 22, 'loaded': True, 'loadedTime': 6576, 'positionName': 'CENTER', 'positionCoords': [435, 155]}]",Rate how much you want to eat this food from 0 (least) to 10 (most).,16691,1669829910554,steak,182,True,6.68,16873,182,True,HRV,HRV_0047,2022-11-30 17:38:45
23,"[{'imgObject': {}, 'id': 'ice cream sundae 002', 'src': '/static/foodstim60/ice cream sundae 002.jpg', 'key': 'NaN', 'origWidth': 409, 'origHeight': 409, 'width': 409, 'height': 409, 'widthPercent': 0.8, 'rescaleHeight': True, 'trialN': 23, 'loaded': True, 'loadedTime': 6601, 'positionName': 'CENTER', 'positionCoords': [435.5, 155.5]}]",Rate how much you want to eat this food from 0 (least) to 10 (most).,16874,1669829910737,ice cream sundae 002,365,True,8.120000000000001,17239,365,True,HRV,HRV_0047,2022-11-30 17:38:45
24,"[{'imgObject': {}, 'id': 'cocktailshrimp', 'src': '/static/foodstim60/cocktailshrimp.jpg', 'key': 'NaN', 'origWidth': 410, 'origHeight': 410, 'width': 410, 'height': 410, 'widthPercent': 0.8, 'rescaleHeight': True, 'trialN': 24, 'loaded': True, 'loadedTime': 6989, 'positionName': 'CENTER', 'positionCoords': [435, 155]}]",Rate how much you want to eat this food from 0 (least) to 10 (most).,17242,1669829911105,cocktailshrimp,237,True,8.56,17479,237,True,HRV,HRV_0047,2022-11-30 17:38:45
25,"[{'imgObject': {}, 'id': 'lox', 'src': '/static/foodstim60/lox.jpg', 'key': 'NaN', 'origWidth': 410, 'origHeight': 411, 'width': 410, 'height': 411, 'widthPercent': 0.8, 'rescaleHeight': True, 'trialN': 25, 'loaded': True, 'loadedTime': 7043, 'positionName': 'CENTER', 'positionCoords': [435, 154.5]}]",Rate how much you want to eat this food from 0 (least) to 10 (most).,17482,1669829911345,lox,176,True,8.23,17658,176,True,HRV,HRV_0047,2022-11-30 17:38:45
26,"[{'imgObject': {}, 'id': 'Tribe humus pita', 'src': '/static/foodstim60/Tribe humus pita.jpg', 'key': 'NaN', 'origWidth': 411, 'origHeight': 411, 'width': 411, 'height': 411, 'widthPercent': 0.8, 'rescaleHeight': True, 'trialN': 26, 'loaded': True, 'loadedTime': 7146, 'positionName': 'CENTER', 'positionCoords': [434.5, 154.5]}]",Rate how much you want to eat this food from 0 (least) to 10 (most).,17662,1669829911525,Tribe humus pita,564,True,5.0,18226,564,True,HRV,HRV_0047,2022-11-30 17:38:45
27,"[{'imgObject': {}, 'id': 'chickenfingers', 'src': '/static/foodstim60/chickenfingers.jpg', 'key': 'NaN', 'origWidth': 410, 'origHeight': 410, 'width': 410, 'height': 410, 'widthPercent': 0.8, 'rescaleHeight': True, 'trialN': 27, 'loaded': True, 'loadedTime': 7031, 'positionName': 'CENTER', 'positionCoords': [435, 155]}]",Rate how much you want to eat this food from 0 (least) to 10 (most).,18228,1669829912091,chickenfingers,217,True,4.48,18445,217,True,HRV,HRV_0047,2022-11-30 17:38:45
28,"[{'imgObject': {}, 'id': 'tacos', 'src': '/static/foodstim60/tacos.jpg', 'key': 'NaN', 'origWidth': 411, 'origHeight': 411, 'width': 411, 'height': 411, 'widthPercent': 0.8, 'rescaleHeight': True, 'trialN': 28, 'loaded': True, 'loadedTime': 7413, 'positionName': 'CENTER', 'positionCoords': [434.5, 154.5]}]",Rate how much you want to eat this food from 0 (least) to 10 (most).,18446,1669829912309,tacos,205,True,3.5300000000000002,18651,205,True,HRV,HRV_0047,2022-11-30 17:38:45
29,"[{'imgObject': {}, 'id': 'granola w milk', 'src': '/static/foodstim60/granola w milk.jpg', 'key': 'NaN', 'origWidth': 410, 'origHeight': 410, 'width': 410, 'height': 410, 'widthPercent': 0.8, 'rescaleHeight': True, 'trialN': 29, 'loaded': True, 'loadedTime': 7247, 'positionName': 'CENTER', 'positionCoords': [435, 155]}]",Rate how much you want to eat this food from 0 (least) to 10 (most).,18659,1669829912522,granola w milk,236,True,4.3100000000000005,18895,236,True,HRV,HRV_0047,2022-11-30 17:38:45
30,"[{'imgObject': {}, 'id': 'eggs', 'src': '/static/foodstim60/eggs.jpg', 'key': 'NaN', 'origWidth': 409, 'origHeight': 409, 'width': 409, 'height': 409, 'widthPercent': 0.8, 'rescaleHeight': True, 'trialN': 30, 'loaded': True, 'loadedTime': 7351, 'positionName': 'CENTER', 'positionCoords': [435.5, 155.5]}]",Rate how much you want to eat this food from 0 (least) to 10 (most).,18897,1669829912760,eggs,153,True,4.84,19050,153,True,HRV,HRV_0047,2022-11-30 17:38:45
31,"[{'imgObject': {}, 'id': 'shreddedwheatwithmilk', 'src': '/static/foodstim60/shreddedwheatwithmilk.jpg', 'key': 'NaN', 'origWidth': 410, 'origHeight': 410, 'width': 410, 'height': 410, 'widthPercent': 0.8, 'rescaleHeight': True, 'trialN': 31, 'loaded': True, 'loadedTime': 7399, 'positionName': 'CENTER', 'positionCoords': [435, 155]}]",Rate how much you want to eat this food from 0 (least) to 10 (most).,19052,1669829912915,shreddedwheatwithmilk,223,True,5.71,19275,223,True,HRV,HRV_0047,2022-11-30 17:38:45
32,"[{'imgObject': {}, 'id': 'strawberries', 'src': '/static/foodstim60/strawberries.jpg', 'key': 'NaN', 'origWidth': 410, 'origHeight': 410, 'width': 410, 'height': 410, 'widthPercent': 0.8, 'rescaleHeight': True, 'trialN': 32, 'loaded': True, 'loadedTime': 7368, 'positionName': 'CENTER', 'positionCoords': [435, 155]}]",Rate how much you want to eat this food from 0 (least) to 10 (most).,19277,1669829913140,strawberries,176,True,6.29,19453,176,True,HRV,HRV_0047,2022-11-30 17:38:45
33,"[{'imgObject': {}, 'id': 'sweetpotato', 'src': '/static/foodstim60/sweetpotato.jpg', 'key': 'NaN', 'origWidth': 410, 'origHeight': 410, 'width': 410, 'height': 410, 'widthPercent': 0.8, 'rescaleHeight': True, 'trialN': 33, 'loaded': True, 'loadedTime': 7517, 'positionName': 'CENTER', 'positionCoords': [435, 155]}]",Rate how much you want to eat this food from 0 (least) to 10 (most).,19454,1669829913317,sweetpotato,197,True,6.65,19651,197,True,HRV,HRV_0047,2022-11-30 17:38:45
34,"[{'imgObject': {}, 'id': 'olives', 'src': '/static/foodstim60/olives.jpg', 'key': 'NaN', 'origWidth': 410, 'origHeight': 410, 'width': 410, 'height': 410, 'widthPercent': 0.8, 'rescaleHeight': True, 'trialN': 34, 'loaded': True, 'loadedTime': 7674, 'positionName': 'CENTER', 'positionCoords': [435, 155]}]",Rate how much you want to eat this food from 0 (least) to 10 (most).,19654,1669829913517,olives,205,True,7.37,19859,205,True,HRV,HRV_0047,2022-11-30 17:38:45
35,"[{'imgObject': {}, 'id': 'mac & cheese', 'src': '/static/foodstim60/mac & cheese.jpg', 'key': 'NaN', 'origWidth': 410, 'origHeight': 410, 'width': 410, 'height': 410, 'widthPercent': 0.8, 'rescaleHeight': True, 'trialN': 35, 'loaded': True, 'loadedTime': 8065, 'positionName': 'CENTER', 'positionCoords': [435, 155]}]",Rate how much you want to eat this food from 0 (least) to 10 (most).,19860,1669829913723,mac & cheese,192,True,7.7,20052,192,True,HRV,HRV_0047,2022-11-30 17:38:45
36,"[{'imgObject': {}, 'id': 'fried eggs', 'src': '/static/foodstim60/fried eggs.jpg', 'key': 'NaN', 'origWidth': 410, 'origHeight': 410, 'width': 410, 'height': 410, 'widthPercent': 0.8, 'rescaleHeight': True, 'trialN': 36, 'loaded': True, 'loadedTime': 7703, 'positionName': 'CENTER', 'positionCoords': [435, 155]}]",Rate how much you want to eat this food from 0 (least) to 10 (most).,20055,1669829913918,fried eggs,178,True,8.0,20233,178,True,HRV,HRV_0047,2022-11-30 17:38:45
37,"[{'imgObject': {}, 'id': 'eggsalad', 'src': '/static/foodstim60/eggsalad.jpg', 'key': 'NaN', 'origWidth': 410, 'origHeight': 409, 'width': 410, 'height': 409, 'widthPercent': 0.8, 'rescaleHeight': True, 'trialN': 37, 'loaded': True, 'loadedTime': 7720, 'positionName': 'CENTER', 'positionCoords': [435, 155.5]}]",Rate how much you want to eat this food from 0 (least) to 10 (most).,20236,1669829914099,eggsalad,194,True,8.43,20430,194,True,HRV,HRV_0047,2022-11-30 17:38:45
38,"[{'imgObject': {}, 'id': 'yogurt no spoon', 'src': '/static/foodstim60/yogurt no spoon.jpg', 'key': 'NaN', 'origWidth': 411, 'origHeight': 410, 'width': 411, 'height': 410, 'widthPercent': 0.8, 'rescaleHeight': True, 'trialN': 38, 'loaded': True, 'loadedTime': 8140, 'positionName': 'CENTER', 'positionCoords': [434.5, 155]}]",Rate how much you want to eat this food from 0 (least) to 10 (most).,20432,1669829914295,yogurt no spoon,280,True,7.8100000000000005,20712,280,True,HRV,HRV_0047,2022-11-30 17:38:45
39,"[{'imgObject': {}, 'id': 'bagel and cc', 'src': '/static/foodstim60/bagel and cc.jpg', 'key': 'NaN', 'origWidth': 410, 'origHeight': 410, 'width': 410, 'height': 410, 'widthPercent': 0.8, 'rescaleHeight': True, 'trialN': 39, 'loaded': True, 'loadedTime': 8150, 'positionName': 'CENTER', 'positionCoords': [435, 155]}]",Rate how much you want to eat this food from 0 (least) to 10 (most).,20713,1669829914576,bagel and cc,495,True,6.75,21208,495,True,HRV,HRV_0047,2022-11-30 17:38:45
40,"[{'imgObject': {}, 'id': 'fruitsalad', 'src': '/static/foodstim60/fruitsalad.jpg', 'key': 'NaN', 'origWidth': 410, 'origHeight': 410, 'width': 410, 'height': 410, 'widthPercent': 0.8, 'rescaleHeight': True, 'trialN': 40, 'loaded': True, 'loadedTime': 8196, 'positionName': 'CENTER', 'positionCoords': [435, 155]}]",Rate how much you want to eat this food from 0 (least) to 10 (most).,21209,1669829915072,fruitsalad,1391,True,4.04,22600,1391,True,HRV,HRV_0047,2022-11-30 17:38:45
41,"[{'imgObject': {}, 'id': 'chicken nuggets2', 'src': '/static/foodstim60/chicken nuggets2.jpg', 'key': 'NaN', 'origWidth': 410, 'origHeight': 409, 'width': 410, 'height': 409, 'widthPercent': 0.8, 'rescaleHeight': True, 'trialN': 41, 'loaded': True, 'loadedTime': 8172, 'positionName': 'CENTER', 'positionCoords': [435, 155.5]}]",Rate how much you want to eat this food from 0 (least) to 10 (most).,22602,1669829916465,chicken nuggets2,192,True,4.48,22794,192,True,HRV,HRV_0047,2022-11-30 17:38:45
42,"[{'imgObject': {}, 'id': 'mango', 'src': '/static/foodstim60/mango.jpg', 'key': 'NaN', 'origWidth': 411, 'origHeight': 411, 'width': 411, 'height': 411, 'widthPercent': 0.8, 'rescaleHeight': True, 'trialN': 42, 'loaded': True, 'loadedTime': 8161, 'positionName': 'CENTER', 'positionCoords': [434.5, 154.5]}]",Rate how much you want to eat this food from 0 (least) to 10 (most).,22795,1669829916658,mango,870,True,6.67,23665,870,True,HRV,HRV_0047,2022-11-30 17:38:45
43,"[{'imgObject': {}, 'id': 'omelette', 'src': '/static/foodstim60/omelette.jpg', 'key': 'NaN', 'origWidth': 410, 'origHeight': 409, 'width': 410, 'height': 409, 'widthPercent': 0.8, 'rescaleHeight': True, 'trialN': 43, 'loaded': True, 'loadedTime': 8487, 'positionName': 'CENTER', 'positionCoords': [435, 155.5]}]",Rate how much you want to eat this food from 0 (least) to 10 (most).,23668,1669829917531,omelette,233,True,7.25,23901,233,True,HRV,HRV_0047,2022-11-30 17:38:45
44,"[{'imgObject': {}, 'id': 'cantaloupe', 'src': '/static/foodstim60/cantaloupe.jpg', 'key': 'NaN', 'origWidth': 409, 'origHeight': 409, 'width': 409, 'height': 409, 'widthPercent': 0.8, 'rescaleHeight': True, 'trialN': 44, 'loaded': True, 'loadedTime': 8546, 'positionName': 'CENTER', 'positionCoords': [435.5, 155.5]}]",Rate how much you want to eat this food from 0 (least) to 10 (most).,23903,1669829917766,cantaloupe,219,True,7.78,24122,219,True,HRV,HRV_0047,2022-11-30 17:38:45
45,"[{'imgObject': {}, 'id': 'rigatoni and sauce', 'src': '/static/foodstim60/rigatoni and sauce.jpg', 'key': 'NaN', 'origWidth': 410, 'origHeight': 411, 'width': 410, 'height': 411, 'widthPercent': 0.8, 'rescaleHeight': True, 'trialN': 45, 'loaded': True, 'loadedTime': 8563, 'positionName': 'CENTER', 'positionCoords': [435, 154.5]}]",Rate how much you want to eat this food from 0 (least) to 10 (most).,24126,1669829917989,rigatoni and sauce,227,True,7.79,24353,227,True,HRV,HRV_0047,2022-11-30 17:38:45
46,"[{'imgObject': {}, 'id': 'cherries', 'src': '/static/foodstim60/cherries.jpg', 'key': 'NaN', 'origWidth': 410, 'origHeight': 411, 'width': 410, 'height': 411, 'widthPercent': 0.8, 'rescaleHeight': True, 'trialN': 46, 'loaded': True, 'loadedTime': 8554, 'positionName': 'CENTER', 'positionCoords': [435, 154.5]}]",Rate how much you want to eat this food from 0 (least) to 10 (most).,24356,1669829918219,cherries,269,True,7.5600000000000005,24625,269,True,HRV,HRV_0047,2022-11-30 17:38:45
47,"[{'imgObject': {}, 'id': 'baked potato', 'src': '/static/foodstim60/baked potato.jpg', 'key': 'NaN', 'origWidth': 409, 'origHeight': 410, 'width': 409, 'height': 410, 'widthPercent': 0.8, 'rescaleHeight': True, 'trialN': 47, 'loaded': True, 'loadedTime': 8619, 'positionName': 'CENTER', 'positionCoords': [435.5, 155]}]",Rate how much you want to eat this food from 0 (least) to 10 (most).,24628,1669829918491,baked potato,236,True,6.3100000000000005,24864,236,True,HRV,HRV_0047,2022-11-30 17:38:45
48,"[{'imgObject': {}, 'id': 'orange slices', 'src': '/static/foodstim60/orange slices.jpg', 'key': 'NaN', 'origWidth': 409, 'origHeight': 410, 'width': 409, 'height': 410, 'widthPercent': 0.8, 'rescaleHeight': True, 'trialN': 48, 'loaded': True, 'loadedTime': 8526, 'positionName': 'CENTER', 'positionCoords': [435.5, 155]}]",Rate how much you want to eat this food from 0 (least) to 10 (most).,24867,1669829918730,orange slices,222,True,5.62,25089,222,True,HRV,HRV_0047,2022-11-30 17:38:45
49,"[{'imgObject': {}, 'id': 'burger', 'src': '/static/foodstim60/burger.jpg', 'key': 'NaN', 'origWidth': 409, 'origHeight': 409, 'width': 409, 'height': 409, 'widthPercent': 0.8, 'rescaleHeight': True, 'trialN': 49, 'loaded': True, 'loadedTime': 8888, 'positionName': 'CENTER', 'positionCoords': [435.5, 155.5]}]",Rate how much you want to eat this food from 0 (least) to 10 (most).,25090,1669829918953,burger,216,True,4.43,25306,216,True,HRV,HRV_0047,2022-11-30 17:38:45
50,"[{'imgObject': {}, 'id': 'kiwi', 'src': '/static/foodstim60/kiwi.jpg', 'key': 'NaN', 'origWidth': 410, 'origHeight': 410, 'width': 410, 'height': 410, 'widthPercent': 0.8, 'rescaleHeight': True, 'trialN': 50, 'loaded': True, 'loadedTime': 8907, 'positionName': 'CENTER', 'positionCoords': [435, 155]}]",Rate how much you want to eat this food from 0 (least) to 10 (most).,25308,1669829919171,kiwi,220,True,3.3200000000000003,25528,220,True,HRV,HRV_0047,2022-11-30 17:38:45
51,"[{'imgObject': {}, 'id': 'cherry tomato', 'src': '/static/foodstim60/cherry tomato.jpg', 'key': 'NaN', 'origWidth': 410, 'origHeight': 410, 'width': 410, 'height': 410, 'widthPercent': 0.8, 'rescaleHeight': True, 'trialN': 51, 'loaded': True, 'loadedTime': 8974, 'positionName': 'CENTER', 'positionCoords': [435, 155]}]",Rate how much you want to eat this food from 0 (least) to 10 (most).,25531,1669829919394,cherry tomato,230,True,3.2600000000000002,25761,230,True,HRV,HRV_0047,2022-11-30 17:38:45
52,"[{'imgObject': {}, 'id': 'cheerios', 'src': '/static/foodstim60/cheerios.jpg', 'key': 'NaN', 'origWidth': 409, 'origHeight': 410, 'width': 409, 'height': 410, 'widthPercent': 0.8, 'rescaleHeight': True, 'trialN': 52, 'loaded': True, 'loadedTime': 8939, 'positionName': 'CENTER', 'positionCoords': [435.5, 155]}]",Rate how much you want to eat this food from 0 (least) to 10 (most).,25764,1669829919627,cheerios,247,True,5.0600000000000005,26011,247,True,HRV,HRV_0047,2022-11-30 17:38:45
53,"[{'imgObject': {}, 'id': 'pear', 'src': '/static/foodstim60/pear.jpg', 'key': 'NaN', 'origWidth': 411, 'origHeight': 410, 'width': 411, 'height': 410, 'widthPercent': 0.8, 'rescaleHeight': True, 'trialN': 53, 'loaded': True, 'loadedTime': 9110, 'positionName': 'CENTER', 'positionCoords': [434.5, 155]}]",Rate how much you want to eat this food from 0 (least) to 10 (most).,26014,1669829919877,pear,329,True,6.07,26343,329,True,HRV,HRV_0047,2022-11-30 17:38:45
54,"[{'imgObject': {}, 'id': 'raspberries', 'src': '/static/foodstim60/raspberries.jpg', 'key': 'NaN', 'origWidth': 411, 'origHeight': 411, 'width': 411, 'height': 411, 'widthPercent': 0.8, 'rescaleHeight': True, 'trialN': 54, 'loaded': True, 'loadedTime': 8985, 'positionName': 'CENTER', 'positionCoords': [434.5, 154.5]}]",Rate how much you want to eat this food from 0 (least) to 10 (most).,26344,1669829920207,raspberries,161,True,6.84,26505,161,True,HRV,HRV_0047,2022-11-30 17:38:45
55,"[{'imgObject': {}, 'id': 'raisin bran w milk', 'src': '/static/foodstim60/raisin bran w milk.jpg', 'key': 'NaN', 'origWidth': 411, 'origHeight': 411, 'width': 411, 'height': 411, 'widthPercent': 0.8, 'rescaleHeight': True, 'trialN': 55, 'loaded': True, 'loadedTime': 9296, 'positionName': 'CENTER', 'positionCoords': [434.5, 154.5]}]",Rate how much you want to eat this food from 0 (least) to 10 (most).,26507,1669829920370,raisin bran w milk,199,True,7.8100000000000005,26706,199,True,HRV,HRV_0047,2022-11-30 17:38:45
56,"[{'imgObject': {}, 'id': 'burrito', 'src': '/static/foodstim60/burrito.jpg', 'key': 'NaN', 'origWidth': 410, 'origHeight': 410, 'width': 410, 'height': 410, 'widthPercent': 0.8, 'rescaleHeight': True, 'trialN': 56, 'loaded': True, 'loadedTime': 9346, 'positionName': 'CENTER', 'positionCoords': [435, 155]}]",Rate how much you want to eat this food from 0 (least) to 10 (most).,26709,1669829920572,burrito,1751,True,5.03,28460,1751,True,HRV,HRV_0047,2022-11-30 17:38:45
57,"[{'imgObject': {}, 'id': 'hashbrowns', 'src': '/static/foodstim60/hashbrowns.jpg', 'key': 'NaN', 'origWidth': 411, 'origHeight': 410, 'width': 411, 'height': 410, 'widthPercent': 0.8, 'rescaleHeight': True, 'trialN': 57, 'loaded': True, 'loadedTime': 9331, 'positionName': 'CENTER', 'positionCoords': [434.5, 155]}]",Rate how much you want to eat this food from 0 (least) to 10 (most).,28468,1669829922331,hashbrowns,230,True,4.62,28698,230,True,HRV,HRV_0047,2022-11-30 17:38:45
58,"[{'imgObject': {}, 'id': 'blueberries', 'src': '/static/foodstim60/blueberries.jpg', 'key': 'NaN', 'origWidth': 411, 'origHeight': 411, 'width': 411, 'height': 411, 'widthPercent': 0.8, 'rescaleHeight': True, 'trialN': 58, 'loaded': True, 'loadedTime': 9368, 'positionName': 'CENTER', 'positionCoords': [434.5, 154.5]}]",Rate how much you want to eat this food from 0 (least) to 10 (most).,28701,1669829922564,blueberries,221,True,3.46,28922,221,True,HRV,HRV_0047,2022-11-30 17:38:45
59,"[{'imgObject': {}, 'id': 'grilled chicken strips', 'src': '/static/foodstim60/grilled chicken strips.jpg', 'key': 'NaN', 'origWidth': 410, 'origHeight': 411, 'width': 410, 'height': 411, 'widthPercent': 0.8, 'rescaleHeight': True, 'trialN': 59, 'loaded': True, 'loadedTime': 9380, 'positionName': 'CENTER', 'positionCoords': [435, 154.5]}]",Rate how much you want to eat this food from 0 (least) to 10 (most).,28926,1669829922789,grilled chicken strips,197,True,3.54,29123,197,True,HRV,HRV_0047,2022-11-30 17:38:45
