success,trial_type,trial_index,time_elapsed,internal_node_id,Block,TrialNumber,TrialTime,trialTimeDiff,FPS_avg,FPS_med,FPS_mode,TrialDur,winResizeTime,rt,block,button_pressed,MotCoh,MotDir,ColCoh,Color,ChoiceKey,Choice,Accuracy,RT,nFrames,FPS,PPD,missTrial,missTrialMsg,onsetDelay,fullScreenExitTime,canvCenter,TrialType,Score,BlockTrial,stimulus,button_labels,exp,subjectId,date
True,fullscreen,0,1943,0.0-0.0,0.0,1.0,,,,,,,,,,,,,,,,,,,,,,,,,,,,,,,,HRV,HRV_0047,2022-11-30 18:51:12
,wl-check-fps,1,7973,0.0-1.0,0.0,2.0,"[3042, 3059, 3084, 3104, 3112, 3123, 3141, 3152, 3167, 3183, 3203, 3223, 3236, 3253, 3266, 3285, 3299, 3319, 3332, 3352, 3367, 3382, 3402, 3420, 3520, 3585, 3595, 3605, 3616, 3636, 3676, 3716, 3738, 3760, 3773, 3799, 3825, 3845, 3861, 3883, 3965, 3995, 4007, 4024, 4035, 4049, 4067, 4085, 4100, 4119, 4132, 4152, 4166, 4185, 4199, 4220, 4233, 4250, 4267, 4281, 4300, 4316, 4333, 4359, 4375, 4383, 4402, 4416, 4435, 4450, 4467, 4481, 4499, 4516, 4533, 4550, 4566, 4587, 4599, 4623, 4634, 4652, 4668, 4685, 4701, 4717, 4733, 4749, 4765, 4786, 4799, 4819, 4836, 4848, 4869, 4881, 4905, 4929, 4945, 5018, 5110, 5152, 5179, 5209, 5243, 5293, 5316, 5351, 5395, 5437, 5457, 5531, 5566, 5590, 5611, 5628, 5649, 5667, 5684, 5713, 5725, 5736, 5749, 5771, 5783, 5799, 5820, 5835, 5854, 5866, 5883, 5898, 5917, 5932, 5950, 5966, 5982, 5998, 6015, 6040, 6052, 6068, 6081, 6100, 6117, 6137, 6149, 6168, 6181, 6199, 6215, 6232, 6254, 6266, 6306, 6321, 6332, 6349, 6366, 6382, 6398, 6415, 6437, 6455, 6481, 6491, 6504, 6515, 6534, 6548, 6565, 6582, 6599, 6616, 6632, 6652, 6666, 6689, 6704, 6720, 6732, 6751, 6766, 6781, 6801, 6818, 6831, 6850, 6873, 6882, 6903, 6916, 6935, 6950, 6968, 6983, 7002, 7016, 7036, 7061, 7074, 7091, 7103, 7131, 7164, 7398, 7408, 7427, 7435, 7449, 7465, 7518, 7529, 7538, 7552, 7565, 7582, 7599, 7616, 7634, 7653, 7678, 7692, 7704, 7715, 7735, 7749, 7769, 7781, 7800, 7816, 7834, 7849, 7865, 7882, 7898, 7915, 7932, 7952, 7966, 7986, 7999, 8019, 8032, 8052, 8067, 8089, 8100, 8115, 8148, 8163, 8179, 8189, 8207, 8216, 8238, 8249, 8266, 8285, 8302, 8316, 8335, 8349, 8366, 8387, 8399, 8421, 8431, 8451, 8465, 8483, 8499, 8515, 8532, 8549, 8573, 8586, 8606, 8622, 8645, 8698, 8714, 8738, 8760, 8781, 8795, 8810, 8825, 8841, 8861, 8875, 8895, 8907, 8925, 8937, 8949, 8965, 8981, 8999, 9016]","[32, 17, 25, 20, 8, 11, 18, 11, 15, 16, 20, 20, 13, 17, 13, 19, 14, 20, 13, 20, 15, 15, 20, 18, 100, 65, 10, 10, 11, 20, 40, 40, 22, 22, 13, 26, 26, 20, 16, 22, 82, 30, 12, 17, 11, 14, 18, 18, 15, 19, 13, 20, 14, 19, 14, 21, 13, 17, 17, 14, 19, 16, 17, 26, 16, 8, 19, 14, 19, 15, 17, 14, 18, 17, 17, 17, 16, 21, 12, 24, 11, 18, 16, 17, 16, 16, 16, 16, 16, 21, 13, 20, 17, 12, 21, 12, 24, 24, 16, 73, 92, 42, 27, 30, 34, 50, 23, 35, 44, 42, 20, 74, 35, 24, 21, 17, 21, 18, 17, 29, 12, 11, 13, 22, 12, 16, 21, 15, 19, 12, 17, 15, 19, 15, 18, 16, 16, 16, 17, 25, 12, 16, 13, 19, 17, 20, 12, 19, 13, 18, 16, 17, 22, 12, 40, 15, 11, 17, 17, 16, 16, 17, 22, 18, 26, 10, 13, 11, 19, 14, 17, 17, 17, 17, 16, 20, 14, 23, 15, 16, 12, 19, 15, 15, 20, 17, 13, 19, 23, 9, 21, 13, 19, 15, 18, 15, 19, 14, 20, 25, 13, 17, 12, 28, 33, 234, 10, 19, 8, 14, 16, 53, 11, 9, 14, 13, 17, 17, 17, 18, 19, 25, 14, 12, 11, 20, 14, 20, 12, 19, 16, 18, 15, 16, 17, 16, 17, 17, 20, 14, 20, 13, 20, 13, 20, 15, 22, 11, 15, 33, 15, 16, 10, 18, 9, 22, 11, 17, 19, 17, 14, 19, 14, 17, 21, 12, 22, 10, 20, 14, 18, 16, 16, 17, 17, 24, 13, 20, 16, 23, 53, 16, 24, 22, 21, 14, 15, 15, 16, 20, 14, 20, 12, 18, 12, 12, 16, 16, 18, 17]",50.0,59.0,59.0,6025.0,[],,,,,,,,,,,,,,,,,,,,,,,,,HRV,HRV_0047,2022-11-30 18:51:12
,wl-html-keyboard-response,2,16253,0.0-2.0-0.0,0.0,3.0,,,,,,,,6275.0,0.0,0,,,,,,,,,,,,,,,,,,,,,,HRV,HRV_0047,2022-11-30 18:51:12
,wl-rdm,3,28541,0.0-3.0-0.0,0.0,4.0,,,,,,,[],,,,0.0,0.0,87.9,0.0,u,0.0,True,788.0,37.0,59.0,40.0,False,too_early too_early ,3000.0,[],"[683, 384]",ColorTask_Demo,,,,,HRV,HRV_0047,2022-11-30 18:51:12
,wl-rdm,4,33486,0.0-3.0-1.0,0.0,5.0,,,,,,,[],,,,0.0,0.0,87.9,1.0,i,1.0,True,888.0,44.0,59.0,40.0,False,,2000.0,[],"[683, 384]",ColorTask_Demo,,,,,HRV,HRV_0047,2022-11-30 18:51:12
,wl-html-keyboard-response,5,40398,0.0-3.0-2.0,0.0,6.0,,,,,,,,4903.0,0.0,1,,,,,,,,,,,,,,,,,,,,,,HRV,HRV_0047,2022-11-30 18:51:12
,wl-html-keyboard-response,6,50206,0.0-4.0-0.0,0.0,7.0,,,,,,,,7797.0,0.0,0,,,,,,,,,,,,,,,,,,,,,,HRV,HRV_0047,2022-11-30 18:51:12
,wl-html-keyboard-response,7,61293,0.0-5.0-0.0,0.0,8.0,,,,,,,,9078.0,0.0,0,,,,,,,,,,,,,,,,,,,,,,HRV,HRV_0047,2022-11-30 18:51:12
,wl-rdm,8,63726,0.0-6.0-0.0,0.0,9.0,,,,,,,[],,,,,,53.2,0.0,u,0.0,True,1068.0,42.0,59.0,40.0,False,,268.11475316353955,[],"[683, 384]",ColorTask,1.0,1.0,,,HRV,HRV_0047,2022-11-30 18:51:12
,wl-rdm,9,66084,0.0-6.1-0.1,0.0,10.0,,,,,,,[],,,,,,87.9,0.0,u,0.0,True,1063.0,58.0,59.0,40.0,False,,230.39153118482008,[],"[683, 384]",ColorTask,2.0,2.0,,,HRV,HRV_0047,2022-11-30 18:51:12
,wl-rdm,10,68514,0.0-6.2-0.2,0.0,11.0,,,,,,,[],,,,,,62.5,0.0,i,1.0,False,1088.0,52.0,59.0,40.0,False,,209.10096551349415,[],"[683, 384]",ColorTask,1.0,3.0,,,HRV,HRV_0047,2022-11-30 18:51:12
,wl-rdm,11,71366,0.0-6.3-0.3,0.0,12.0,,,,,,,[],,,,,,62.5,1.0,i,1.0,True,1375.0,69.0,59.0,40.0,False,,294.42825509737827,[],"[683, 384]",ColorTask,2.0,4.0,,,HRV,HRV_0047,2022-11-30 18:51:12
,wl-rdm,12,74115,0.0-6.4-0.4,0.0,13.0,,,,,,,[],,,,,,87.9,1.0,i,1.0,True,1366.0,68.0,59.0,40.0,False,,223.10883104334096,[],"[683, 384]",ColorTask,3.0,5.0,,,HRV,HRV_0047,2022-11-30 18:51:12
,wl-rdm,13,76805,0.0-6.5-0.5,0.0,14.0,,,,,,,[],,,,,,87.9,0.0,u,0.0,True,1309.0,69.0,59.0,40.0,False,,246.45574786476595,[],"[683, 384]",ColorTask,4.0,6.0,,,HRV,HRV_0047,2022-11-30 18:51:12
,wl-rdm,14,79516,0.0-6.6-0.6,0.0,15.0,,,,,,,[],,,,,,56.4,1.0,u,0.0,False,1265.0,64.0,59.0,40.0,False,,320.2227871081853,[],"[683, 384]",ColorTask,3.0,7.0,,,HRV,HRV_0047,2022-11-30 18:51:12
,wl-rdm,15,81864,0.0-6.7-0.7,0.0,16.0,,,,,,,[],,,,,,50.0,0.0,u,0.0,True,1032.0,48.0,59.0,40.0,False,,232.552184181376,[],"[683, 384]",ColorTask,4.0,8.0,,,HRV,HRV_0047,2022-11-30 18:51:12
,wl-rdm,16,84463,0.0-6.8-0.8,0.0,17.0,,,,,,,[],,,,,,73.6,1.0,i,1.0,True,1287.0,66.0,59.0,40.0,False,,229.5487387868406,[],"[683, 384]",ColorTask,5.0,9.0,,,HRV,HRV_0047,2022-11-30 18:51:12
,wl-rdm,17,86930,0.0-6.9-0.9,0.0,18.0,,,,,,,[],,,,,,56.4,1.0,u,0.0,False,1086.0,46.0,59.0,40.0,False,,310.6617874454741,[],"[683, 384]",ColorTask,4.0,10.0,,,HRV,HRV_0047,2022-11-30 18:51:12
,wl-rdm,18,89476,0.0-6.10-0.10,0.0,19.0,,,,,,,[],,,,,,87.9,1.0,i,1.0,True,1050.0,57.0,59.0,40.0,False,,239.91276286484867,[],"[683, 384]",ColorTask,5.0,11.0,,,HRV,HRV_0047,2022-11-30 18:51:12
,wl-rdm,19,92680,0.0-6.11-0.11,0.0,20.0,,,,,,,[],,,,,,73.6,0.0,u,0.0,True,1790.0,69.0,59.0,40.0,False,,330.9625386332606,[],"[683, 384]",ColorTask,6.0,12.0,,,HRV,HRV_0047,2022-11-30 18:51:12
,wl-rdm,20,95947,0.0-6.12-0.12,0.0,21.0,,,,,,,[],,,,,,56.4,0.0,i,1.0,False,1880.0,102.0,59.0,40.0,False,,300.0686139042499,[],"[683, 384]",ColorTask,5.0,13.0,,,HRV,HRV_0047,2022-11-30 18:51:12
,wl-rdm,21,98620,0.0-6.13-0.13,0.0,22.0,,,,,,,[],,,,,,56.4,0.0,u,0.0,True,1355.0,74.0,59.0,40.0,False,,211.96194410900043,[],"[683, 384]",ColorTask,6.0,14.0,,,HRV,HRV_0047,2022-11-30 18:51:12
,wl-rdm,22,101632,0.0-6.14-0.14,0.0,23.0,,,,,,,[],,,,,,56.4,0.0,i,1.0,False,1637.0,82.0,59.0,40.0,False,,205.96086926332399,[],"[683, 384]",ColorTask,5.0,15.0,,,HRV,HRV_0047,2022-11-30 18:51:12
,wl-rdm,23,105041,0.0-6.15-0.15,0.0,24.0,,,,,,,[],,,,,,53.2,1.0,u,0.0,False,1943.0,106.0,59.0,40.0,False,,261.6787145183048,[],"[683, 384]",ColorTask,4.0,16.0,,,HRV,HRV_0047,2022-11-30 18:51:12
,wl-rdm,24,107530,0.0-6.16-0.16,0.0,25.0,,,,,,,[],,,,,,73.6,0.0,i,1.0,False,1197.0,63.0,59.0,40.0,False,,210.32489140629832,[],"[683, 384]",ColorTask,3.0,17.0,,,HRV,HRV_0047,2022-11-30 18:51:12
,wl-rdm,25,110383,0.0-6.17-0.17,0.0,26.0,,,,,,,[],,,,,,50.0,1.0,u,0.0,False,1529.0,70.0,59.0,40.0,False,,230.4187374563512,[],"[683, 384]",ColorTask,2.0,18.0,,,HRV,HRV_0047,2022-11-30 18:51:12
,wl-rdm,26,112544,0.0-6.18-0.18,0.0,27.0,,,,,,,[],,,,,,87.9,0.0,u,0.0,True,850.0,49.0,59.0,40.0,False,,238.94434755125434,[],"[683, 384]",ColorTask,3.0,19.0,,,HRV,HRV_0047,2022-11-30 18:51:12
,wl-rdm,27,115183,0.0-6.19-0.19,0.0,28.0,,,,,,,[],,,,,,50.0,0.0,i,1.0,False,1264.0,64.0,59.0,40.0,False,,307.9283697346878,[],"[683, 384]",ColorTask,2.0,20.0,,,HRV,HRV_0047,2022-11-30 18:51:12
,wl-rdm,28,119001,0.0-6.20-0.20,0.0,29.0,,,,,,,[],,,,,,53.2,0.0,u,0.0,True,2479.0,110.0,59.0,40.0,False,,253.27341257162396,[],"[683, 384]",ColorTask,3.0,21.0,,,HRV,HRV_0047,2022-11-30 18:51:12
,wl-rdm,29,122681,0.0-6.21-0.21,0.0,30.0,,,,,,,[],,,,,,73.6,0.0,u,0.0,True,2323.0,119.0,59.0,40.0,False,,270.76408653528466,[],"[683, 384]",ColorTask,4.0,22.0,,,HRV,HRV_0047,2022-11-30 18:51:12
,wl-rdm,30,125562,0.0-6.22-0.22,0.0,31.0,,,,,,,[],,,,,,73.6,0.0,i,1.0,False,1572.0,68.0,59.0,40.0,False,,246.03686368817102,[],"[683, 384]",ColorTask,3.0,23.0,,,HRV,HRV_0047,2022-11-30 18:51:12
,wl-rdm,31,126727,0.0-6.23-0.23,0.0,31.0,,,,,,,[],,,,,,56.4,1.0,i,,,589.0,0.0,59.0,40.0,True,too_early ,267.5864015064558,[],"[683, 384]",ColorTask,2.0,24.0,,,HRV,HRV_0047,2022-11-30 18:51:12
,wl-rdm,32,129510,0.0-6.24-0.24,0.0,32.0,,,,,,,[],,,,,,50.0,1.0,u,0.0,False,1416.0,74.0,59.0,40.0,False,,221.83428407426177,[],"[683, 384]",ColorTask,1.0,25.0,,,HRV,HRV_0047,2022-11-30 18:51:12
,wl-rdm,33,134011,0.0-6.25-0.25,0.0,32.0,,,,,,,[],,,,,,62.5,1.0,,,,,150.0,59.0,40.0,True,RT_timeout ,373.1920383780353,[],"[683, 384]",ColorTask,0.0,26.0,,,HRV,HRV_0047,2022-11-30 18:51:12
,wl-rdm,34,135412,0.0-6.26-0.26,0.0,32.0,,,,,,,[],,,,,,50.0,1.0,i,,,857.0,0.0,59.0,40.0,True,too_early ,323.6996308800306,[],"[683, 384]",ColorTask,-1.0,27.0,,,HRV,HRV_0047,2022-11-30 18:51:12
,wl-rdm,35,137644,0.0-6.27-0.27,0.0,33.0,,,,,,,[],,,,,,73.6,0.0,u,0.0,True,909.0,45.0,59.0,40.0,False,,238.81271686282184,[],"[683, 384]",ColorTask,0.0,28.0,,,HRV,HRV_0047,2022-11-30 18:51:12
,wl-rdm,36,140820,0.0-6.28-0.28,0.0,34.0,,,,,,,[],,,,,,50.0,1.0,i,1.0,True,1750.0,96.0,59.0,40.0,False,,296.1886516090484,[],"[683, 384]",ColorTask,1.0,29.0,,,HRV,HRV_0047,2022-11-30 18:51:12
,wl-rdm,37,143515,0.0-6.29-0.29,0.0,35.0,,,,,,,[],,,,,,56.4,0.0,i,1.0,False,1323.0,59.0,59.0,40.0,False,,309.5646918168229,[],"[683, 384]",ColorTask,0.0,30.0,,,HRV,HRV_0047,2022-11-30 18:51:12
,wl-rdm,38,147849,0.0-6.30-0.30,0.0,35.0,,,,,,,[],,,,,,73.6,1.0,u,,,3421.0,139.0,59.0,40.0,True,RT_timeout ,203.73970767332048,[],"[683, 384]",ColorTask,-1.0,31.0,,,HRV,HRV_0047,2022-11-30 18:51:12
,wl-rdm,39,151736,0.0-6.31-0.31,0.0,36.0,,,,,,,[],,,,,,53.2,1.0,i,1.0,True,2403.0,115.0,59.0,40.0,False,,390.7940169593943,[],"[683, 384]",ColorTask,0.0,32.0,,,HRV,HRV_0047,2022-11-30 18:51:12
,wl-rdm,40,155408,0.0-6.32-0.32,0.0,37.0,,,,,,,[],,,,,,62.5,1.0,u,0.0,False,2298.0,115.0,59.0,40.0,False,,267.84951336840027,[],"[683, 384]",ColorTask,-1.0,33.0,,,HRV,HRV_0047,2022-11-30 18:51:12
,wl-rdm,41,157858,0.0-6.33-0.33,0.0,38.0,,,,,,,[],,,,,,50.0,0.0,i,1.0,False,1062.0,48.0,59.0,40.0,False,,309.0107949315983,[],"[683, 384]",ColorTask,-2.0,34.0,,,HRV,HRV_0047,2022-11-30 18:51:12
,wl-rdm,42,160094,0.0-6.34-0.34,0.0,39.0,,,,,,,[],,,,,,73.6,1.0,u,0.0,False,591.0,30.0,59.0,40.0,False,,353.2520425895915,[],"[683, 384]",ColorTask,-3.0,35.0,,,HRV,HRV_0047,2022-11-30 18:51:12
,wl-rdm,43,161981,0.0-6.35-0.35,0.0,40.0,,,,,,,[],,,,,,53.2,1.0,u,0.0,False,578.0,29.0,59.0,40.0,False,,236.19507878042216,[],"[683, 384]",ColorTask,-4.0,36.0,,,HRV,HRV_0047,2022-11-30 18:51:12
,wl-rdm,44,164576,0.0-6.36-0.36,0.0,41.0,,,,,,,[],,,,,,73.6,0.0,i,1.0,False,1182.0,47.0,59.0,40.0,False,,213.76264266697282,[],"[683, 384]",ColorTask,-5.0,37.0,,,HRV,HRV_0047,2022-11-30 18:51:12
,wl-rdm,45,166911,0.0-6.37-0.37,0.0,42.0,,,,,,,[],,,,,,87.9,1.0,i,1.0,True,927.0,46.0,59.0,40.0,False,,219.4212698791077,[],"[683, 384]",ColorTask,-4.0,38.0,,,HRV,HRV_0047,2022-11-30 18:51:12
,wl-rdm,46,169561,0.0-6.38-0.38,0.0,43.0,,,,,,,[],,,,,,62.5,1.0,i,1.0,True,1295.0,69.0,59.0,40.0,False,,315.38151688457236,[],"[683, 384]",ColorTask,-3.0,39.0,,,HRV,HRV_0047,2022-11-30 18:51:12
,wl-rdm,47,172244,0.0-6.39-0.39,0.0,44.0,,,,,,,[],,,,,,50.0,1.0,u,0.0,False,1372.0,53.0,59.0,40.0,False,,237.33201629473638,[],"[683, 384]",ColorTask,-4.0,40.0,,,HRV,HRV_0047,2022-11-30 18:51:12
,wl-rdm,48,174794,0.0-6.40-0.40,0.0,45.0,,,,,,,[],,,,,,50.0,0.0,i,1.0,False,1041.0,52.0,59.0,40.0,False,,353.27026750476233,[],"[683, 384]",ColorTask,-5.0,41.0,,,HRV,HRV_0047,2022-11-30 18:51:12
,wl-rdm,49,177063,0.0-6.41-0.41,0.0,46.0,,,,,,,[],,,,,,50.0,0.0,u,0.0,True,989.0,39.0,59.0,40.0,False,,208.5944420327043,[],"[683, 384]",ColorTask,-4.0,42.0,,,HRV,HRV_0047,2022-11-30 18:51:12
,wl-rdm,50,179705,0.0-6.42-0.42,0.0,47.0,,,,,,,[],,,,,,62.5,0.0,i,1.0,False,1327.0,58.0,59.0,40.0,False,,246.81329470627134,[],"[683, 384]",ColorTask,-5.0,43.0,,,HRV,HRV_0047,2022-11-30 18:51:12
,wl-rdm,51,182627,0.0-6.43-0.43,0.0,48.0,,,,,,,[],,,,,,56.4,1.0,u,0.0,False,1548.0,78.0,59.0,40.0,False,,307.7141323315597,[],"[683, 384]",ColorTask,-6.0,44.0,,,HRV,HRV_0047,2022-11-30 18:51:12
,wl-rdm,52,185143,0.0-6.44-0.44,0.0,49.0,,,,,,,[],,,,,,53.2,0.0,i,1.0,False,1247.0,55.0,59.0,40.0,False,,201.5042179997516,[],"[683, 384]",ColorTask,-7.0,45.0,,,HRV,HRV_0047,2022-11-30 18:51:12
,wl-rdm,53,187836,0.0-6.45-0.45,0.0,50.0,,,,,,,[],,,,,,56.4,0.0,u,0.0,True,1352.0,55.0,59.0,40.0,False,,223.77313462255796,[],"[683, 384]",ColorTask,-6.0,46.0,,,HRV,HRV_0047,2022-11-30 18:51:12
,wl-rdm,54,190778,0.0-6.46-0.46,0.0,51.0,,,,,,,[],,,,,,53.2,1.0,i,1.0,True,1644.0,74.0,59.0,40.0,False,,248.9738169468996,[],"[683, 384]",ColorTask,-5.0,47.0,,,HRV,HRV_0047,2022-11-30 18:51:12
,wl-rdm,55,193577,0.0-6.47-0.47,0.0,52.0,,,,,,,[],,,,,,62.5,1.0,i,1.0,True,1470.0,48.0,59.0,40.0,False,,251.11861998220303,[],"[683, 384]",ColorTask,-4.0,48.0,,,HRV,HRV_0047,2022-11-30 18:51:12
,wl-rdm,56,196194,0.0-6.48-0.48,0.0,53.0,,,,,,,[],,,,,,50.0,1.0,i,1.0,True,1311.0,61.0,59.0,40.0,False,,233.22602474958322,[],"[683, 384]",ColorTask,-3.0,49.0,,,HRV,HRV_0047,2022-11-30 18:51:12
,wl-rdm,57,199043,0.0-6.49-0.49,0.0,54.0,,,,,,,[],,,,,,62.5,0.0,u,0.0,True,1525.0,60.0,59.0,40.0,False,,203.97770577638232,[],"[683, 384]",ColorTask,-2.0,50.0,,,HRV,HRV_0047,2022-11-30 18:51:12
,wl-rdm,58,201746,0.0-6.50-0.50,0.0,55.0,,,,,,,[],,,,,,50.0,0.0,i,1.0,False,1423.0,67.0,59.0,40.0,False,,215.20752767317333,[],"[683, 384]",ColorTask,-3.0,51.0,,,HRV,HRV_0047,2022-11-30 18:51:12
,wl-rdm,59,204313,0.0-6.51-0.51,0.0,56.0,,,,,,,[],,,,,,53.2,0.0,u,0.0,True,1250.0,62.0,59.0,40.0,False,,232.0160378858452,[],"[683, 384]",ColorTask,-2.0,52.0,,,HRV,HRV_0047,2022-11-30 18:51:12
,wl-rdm,60,207198,0.0-6.52-0.52,0.0,57.0,,,,,,,[],,,,,,56.4,0.0,u,0.0,True,1496.0,75.0,59.0,40.0,False,,306.46800366473747,[],"[683, 384]",ColorTask,-1.0,53.0,,,HRV,HRV_0047,2022-11-30 18:51:12
,wl-rdm,61,210376,0.0-6.53-0.53,0.0,58.0,,,,,,,[],,,,,,53.2,1.0,i,1.0,True,1810.0,85.0,59.0,40.0,False,,209.4651797085341,[],"[683, 384]",ColorTask,0.0,54.0,,,HRV,HRV_0047,2022-11-30 18:51:12
,wl-rdm,62,213227,0.0-6.54-0.54,0.0,59.0,,,,,,,[],,,,,,62.5,0.0,i,1.0,False,1525.0,78.0,59.0,40.0,False,,249.94910394026599,[],"[683, 384]",ColorTask,-1.0,55.0,,,HRV,HRV_0047,2022-11-30 18:51:12
,wl-rdm,63,215903,0.0-6.55-0.55,0.0,60.0,,,,,,,[],,,,,,53.2,1.0,u,0.0,False,1373.0,69.0,59.0,40.0,False,,233.7227554038982,[],"[683, 384]",ColorTask,-2.0,56.0,,,HRV,HRV_0047,2022-11-30 18:51:12
,wl-rdm,64,220063,0.0-6.56-0.56,0.0,61.0,,,,,,,[],,,,,,50.0,1.0,i,1.0,True,2803.0,138.0,59.0,40.0,False,,282.3419893256031,[],"[683, 384]",ColorTask,-1.0,57.0,,,HRV,HRV_0047,2022-11-30 18:51:12
,wl-rdm,65,222351,0.0-6.57-0.57,0.0,62.0,,,,,,,[],,,,,,87.9,0.0,i,1.0,False,981.0,43.0,59.0,40.0,False,,226.69020815527068,[],"[683, 384]",ColorTask,-2.0,58.0,,,HRV,HRV_0047,2022-11-30 18:51:12
,wl-rdm,66,225403,0.0-6.58-0.58,0.0,63.0,,,,,,,[],,,,,,73.6,0.0,u,0.0,True,1780.0,73.0,59.0,40.0,False,,208.9023462121162,[],"[683, 384]",ColorTask,-1.0,59.0,,,HRV,HRV_0047,2022-11-30 18:51:12
,wl-rdm,67,227881,0.0-6.59-0.59,0.0,64.0,,,,,,,[],,,,,,87.9,1.0,i,1.0,True,1172.0,53.0,59.0,40.0,False,,236.99062073770375,[],"[683, 384]",ColorTask,0.0,60.0,,,HRV,HRV_0047,2022-11-30 18:51:12
,wl-rdm,68,230383,0.0-6.60-0.60,0.0,65.0,,,,,,,[],,,,,,87.9,0.0,u,0.0,True,1069.0,55.0,59.0,40.0,False,,363.81573358776245,[],"[683, 384]",ColorTask,1.0,61.0,,,HRV,HRV_0047,2022-11-30 18:51:12
,wl-rdm,69,232867,0.0-6.61-0.61,0.0,66.0,,,,,,,[],,,,,,87.9,0.0,i,1.0,False,1039.0,48.0,59.0,40.0,False,,226.52013581120096,[],"[683, 384]",ColorTask,0.0,62.0,,,HRV,HRV_0047,2022-11-30 18:51:12
,wl-rdm,70,235279,0.0-6.62-0.62,0.0,67.0,,,,,,,[],,,,,,56.4,1.0,u,0.0,False,1078.0,61.0,59.0,40.0,False,,259.5903675773825,[],"[683, 384]",ColorTask,-1.0,63.0,,,HRV,HRV_0047,2022-11-30 18:51:12
,wl-rdm,71,237727,0.0-6.63-0.63,0.0,68.0,,,,,,,[],,,,,,56.4,1.0,i,1.0,True,1089.0,60.0,59.0,40.0,False,,306.80632451152536,[],"[683, 384]",ColorTask,0.0,64.0,,,HRV,HRV_0047,2022-11-30 18:51:12
,wl-rdm,72,240656,0.0-6.64-0.64,0.0,69.0,,,,,,,[],,,,,,62.5,1.0,i,1.0,True,1601.0,71.0,59.0,40.0,False,,268.9192637295536,[],"[683, 384]",ColorTask,1.0,65.0,,,HRV,HRV_0047,2022-11-30 18:51:12
,wl-rdm,73,245178,0.0-6.65-0.65,0.0,69.0,,,,,,,[],,,,,,56.4,1.0,u,,,3458.0,167.0,59.0,40.0,True,RT_timeout ,381.0753936078635,[],"[683, 384]",ColorTask,0.0,66.0,,,HRV,HRV_0047,2022-11-30 18:51:12
,wl-rdm,74,247491,0.0-6.66-0.66,0.0,70.0,,,,,,,[],,,,,,62.5,1.0,u,0.0,False,958.0,35.0,59.0,40.0,False,,213.1282999648638,[],"[683, 384]",ColorTask,-1.0,67.0,,,HRV,HRV_0047,2022-11-30 18:51:12
,wl-rdm,75,248561,0.0-6.67-0.67,0.0,70.0,,,,,,,[],,,,,,53.2,0.0,i,,,392.0,0.0,59.0,40.0,True,too_early ,341.76863505119684,[],"[683, 384]",ColorTask,-2.0,68.0,,,HRV,HRV_0047,2022-11-30 18:51:12
,wl-rdm,76,250757,0.0-6.68-0.68,0.0,71.0,,,,,,,[],,,,,,73.6,1.0,u,0.0,False,812.0,46.0,59.0,40.0,False,,213.13751618899235,[],"[683, 384]",ColorTask,-3.0,69.0,,,HRV,HRV_0047,2022-11-30 18:51:12
,wl-rdm,77,253326,0.0-6.69-0.69,0.0,72.0,,,,,,,[],,,,,,56.4,0.0,i,1.0,False,1286.0,59.0,59.0,40.0,False,,224.0568740486558,[],"[683, 384]",ColorTask,-4.0,70.0,,,HRV,HRV_0047,2022-11-30 18:51:12
,wl-rdm,78,256078,0.0-6.70-0.70,0.0,73.0,,,,,,,[],,,,,,53.2,0.0,u,0.0,True,1363.0,52.0,59.0,40.0,False,,314.2366886296,[],"[683, 384]",ColorTask,-3.0,71.0,,,HRV,HRV_0047,2022-11-30 18:51:12
,wl-rdm,79,259679,0.0-6.71-0.71,0.0,74.0,,,,,,,[],,,,,,50.0,1.0,i,1.0,True,2161.0,104.0,59.0,40.0,False,,371.3620631895791,[],"[683, 384]",ColorTask,-2.0,72.0,,,HRV,HRV_0047,2022-11-30 18:51:12
,wl-rdm,80,262397,0.0-6.72-0.72,0.0,75.0,,,,,,,[],,,,,,56.4,1.0,u,0.0,False,1240.0,62.0,59.0,40.0,False,,327.9034037159365,[],"[683, 384]",ColorTask,-3.0,73.0,,,HRV,HRV_0047,2022-11-30 18:51:12
,wl-rdm,81,264808,0.0-6.73-0.73,0.0,76.0,,,,,,,[],,,,,,50.0,0.0,i,1.0,False,1100.0,59.0,59.0,40.0,False,,241.46106180342332,[],"[683, 384]",ColorTask,-4.0,74.0,,,HRV,HRV_0047,2022-11-30 18:51:12
,wl-rdm,82,267176,0.0-6.74-0.74,0.0,77.0,,,,,,,[],,,,,,62.5,0.0,u,0.0,True,1029.0,48.0,59.0,40.0,False,,279.4383492772199,[],"[683, 384]",ColorTask,-3.0,75.0,,,HRV,HRV_0047,2022-11-30 18:51:12
,wl-rdm,83,269658,0.0-6.75-0.75,0.0,78.0,,,,,,,[],,,,,,56.4,1.0,i,1.0,True,1094.0,46.0,59.0,40.0,False,,311.58631392154905,[],"[683, 384]",ColorTask,-2.0,76.0,,,HRV,HRV_0047,2022-11-30 18:51:12
,wl-rdm,84,272419,0.0-6.76-0.76,0.0,79.0,,,,,,,[],,,,,,50.0,1.0,u,0.0,False,1246.0,46.0,59.0,40.0,False,,318.50350645785375,[],"[683, 384]",ColorTask,-3.0,77.0,,,HRV,HRV_0047,2022-11-30 18:51:12
,wl-rdm,85,275351,0.0-6.77-0.77,0.0,80.0,,,,,,,[],,,,,,73.6,1.0,i,1.0,True,1602.0,86.0,59.0,40.0,False,,205.91293530878033,[],"[683, 384]",ColorTask,-2.0,78.0,,,HRV,HRV_0047,2022-11-30 18:51:12
,wl-rdm,86,278041,0.0-6.78-0.78,0.0,81.0,,,,,,,[],,,,,,73.6,1.0,i,1.0,True,1343.0,64.0,59.0,40.0,False,,273.1207422936597,[],"[683, 384]",ColorTask,-1.0,79.0,,,HRV,HRV_0047,2022-11-30 18:51:12
,wl-rdm,87,281295,0.0-6.79-0.79,0.0,82.0,,,,,,,[],,,,,,50.0,0.0,i,1.0,False,1748.0,76.0,59.0,40.0,False,,387.9691517072971,[],"[683, 384]",ColorTask,-2.0,80.0,,,HRV,HRV_0047,2022-11-30 18:51:12
,wl-rdm,88,284081,0.0-6.80-0.80,0.0,83.0,,,,,,,[],,,,,,62.5,1.0,i,1.0,True,1453.0,79.0,59.0,40.0,False,,251.22049164997838,[],"[683, 384]",ColorTask,-1.0,81.0,,,HRV,HRV_0047,2022-11-30 18:51:12
,wl-rdm,89,287607,0.0-6.81-0.81,0.0,84.0,,,,,,,[],,,,,,73.6,1.0,i,1.0,True,2159.0,82.0,59.0,40.0,False,,299.7771052599714,[],"[683, 384]",ColorTask,0.0,82.0,,,HRV,HRV_0047,2022-11-30 18:51:12
,wl-rdm,90,290906,0.0-6.82-0.82,0.0,85.0,,,,,,,[],,,,,,62.5,0.0,u,0.0,True,1947.0,94.0,59.0,40.0,False,,278.2523006861456,[],"[683, 384]",ColorTask,1.0,83.0,,,HRV,HRV_0047,2022-11-30 18:51:12
,wl-rdm,91,294028,0.0-6.83-0.83,0.0,86.0,,,,,,,[],,,,,,73.6,0.0,i,1.0,False,1763.0,76.0,59.0,40.0,False,,268.2963051521973,[],"[683, 384]",ColorTask,0.0,84.0,,,HRV,HRV_0047,2022-11-30 18:51:12
,wl-rdm,92,296939,0.0-6.84-0.84,0.0,87.0,,,,,,,[],,,,,,56.4,0.0,u,0.0,True,1522.0,67.0,59.0,40.0,False,,332.75987102302963,[],"[683, 384]",ColorTask,1.0,85.0,,,HRV,HRV_0047,2022-11-30 18:51:12
,wl-rdm,93,301353,0.0-6.85-0.85,0.0,88.0,,,,,,,[],,,,,,53.2,0.0,i,1.0,False,2927.0,112.0,59.0,40.0,False,,323.0737094525548,[],"[683, 384]",ColorTask,0.0,86.0,,,HRV,HRV_0047,2022-11-30 18:51:12
,wl-rdm,94,304202,0.0-6.86-0.86,0.0,89.0,,,,,,,[],,,,,,53.2,1.0,i,1.0,True,1456.0,67.0,59.0,40.0,False,,275.4846813302277,[],"[683, 384]",ColorTask,1.0,87.0,,,HRV,HRV_0047,2022-11-30 18:51:12
,wl-rdm,95,306842,0.0-6.87-0.87,0.0,90.0,,,,,,,[],,,,,,62.5,0.0,u,0.0,True,1329.0,38.0,59.0,40.0,False,,230.93811016067767,[],"[683, 384]",ColorTask,2.0,88.0,,,HRV,HRV_0047,2022-11-30 18:51:12
,wl-rdm,96,309396,0.0-6.88-0.88,0.0,91.0,,,,,,,[],,,,,,62.5,1.0,i,1.0,True,1212.0,55.0,59.0,40.0,False,,295.225730822844,[],"[683, 384]",ColorTask,3.0,89.0,,,HRV,HRV_0047,2022-11-30 18:51:12
,wl-rdm,97,311450,0.0-6.89-0.89,0.0,92.0,,,,,,,[],,,,,,62.5,0.0,u,0.0,True,725.0,38.0,59.0,40.0,False,,251.05281746010428,[],"[683, 384]",ColorTask,4.0,90.0,,,HRV,HRV_0047,2022-11-30 18:51:12
,wl-rdm,98,314597,0.0-6.90-0.90,0.0,93.0,,,,,,,[],,,,,,53.2,0.0,i,1.0,False,1867.0,85.0,59.0,40.0,False,,219.15842055368418,[],"[683, 384]",ColorTask,3.0,91.0,,,HRV,HRV_0047,2022-11-30 18:51:12
,wl-rdm,99,318811,0.0-6.91-0.91,0.0,94.0,,,,,,,[],,,,,,87.9,0.0,u,0.0,True,2844.0,131.0,59.0,40.0,False,,202.82361645116742,[],"[683, 384]",ColorTask,4.0,92.0,,,HRV,HRV_0047,2022-11-30 18:51:12
,wl-rdm,100,321738,0.0-6.92-0.92,0.0,95.0,,,,,,,[],,,,,,87.9,1.0,i,1.0,True,1539.0,66.0,59.0,40.0,False,,296.17960539535466,[],"[683, 384]",ColorTask,5.0,93.0,,,HRV,HRV_0047,2022-11-30 18:51:12
,wl-rdm,101,324404,0.0-6.93-0.93,0.0,96.0,,,,,,,[],,,,,,56.4,1.0,u,0.0,False,1375.0,63.0,59.0,40.0,False,,236.19491169296128,[],"[683, 384]",ColorTask,4.0,94.0,,,HRV,HRV_0047,2022-11-30 18:51:12
,wl-rdm,102,327166,0.0-6.94-0.94,0.0,97.0,,,,,,,[],,,,,,73.6,0.0,i,1.0,False,1460.0,57.0,59.0,40.0,False,,204.16069065310148,[],"[683, 384]",ColorTask,3.0,95.0,,,HRV,HRV_0047,2022-11-30 18:51:12
,wl-rdm,103,329704,0.0-6.95-0.95,0.0,98.0,,,,,,,[],,,,,,62.5,0.0,u,0.0,True,1251.0,70.0,59.0,40.0,False,,214.18465443432413,[],"[683, 384]",ColorTask,4.0,96.0,,,HRV,HRV_0047,2022-11-30 18:51:12
,wl-rdm,104,333440,0.0-6.96-0.96,0.0,99.0,,,,,,,[],,,,,,53.2,1.0,i,1.0,True,2372.0,112.0,59.0,40.0,False,,258.5022257546799,[],"[683, 384]",ColorTask,5.0,97.0,,,HRV,HRV_0047,2022-11-30 18:51:12
,wl-rdm,105,336621,0.0-6.97-0.97,0.0,100.0,,,,,,,[],,,,,,56.4,0.0,u,0.0,True,1739.0,97.0,59.0,40.0,False,,367.58754960904866,[],"[683, 384]",ColorTask,6.0,98.0,,,HRV,HRV_0047,2022-11-30 18:51:12
,wl-rdm,106,340771,0.0-6.98-0.98,0.0,101.0,,,,,,,[],,,,,,50.0,1.0,u,0.0,False,2634.0,116.0,59.0,40.0,False,,317.5468950564017,[],"[683, 384]",ColorTask,5.0,99.0,,,HRV,HRV_0047,2022-11-30 18:51:12
,wl-rdm,107,343604,0.0-6.99-0.99,0.0,102.0,,,,,,,[],,,,,,87.9,0.0,i,1.0,False,1429.0,66.0,59.0,40.0,False,,316.1341063890567,[],"[683, 384]",ColorTask,4.0,100.0,,,HRV,HRV_0047,2022-11-30 18:51:12
,wl-rdm,108,346420,0.0-6.100-0.100,0.0,103.0,,,,,,,[],,,,,,87.9,1.0,u,0.0,False,1366.0,47.0,59.0,40.0,False,,366.9937989900007,[],"[683, 384]",ColorTask,3.0,101.0,,,HRV,HRV_0047,2022-11-30 18:51:12
,wl-rdm,109,348804,0.0-6.101-0.101,0.0,104.0,,,,,,,[],,,,,,73.6,1.0,i,1.0,True,1088.0,59.0,59.0,40.0,False,,245.5809913922728,[],"[683, 384]",ColorTask,4.0,102.0,,,HRV,HRV_0047,2022-11-30 18:51:12
,wl-rdm,110,351879,0.0-6.102-0.102,0.0,105.0,,,,,,,[],,,,,,53.2,0.0,u,0.0,True,1758.0,94.0,59.0,40.0,False,,239.43801725432823,[],"[683, 384]",ColorTask,5.0,103.0,,,HRV,HRV_0047,2022-11-30 18:51:12
,wl-rdm,111,355096,0.0-6.103-0.103,0.0,106.0,,,,,,,[],,,,,,73.6,1.0,i,1.0,True,1934.0,76.0,59.0,40.0,False,,210.50443408153703,[],"[683, 384]",ColorTask,6.0,104.0,,,HRV,HRV_0047,2022-11-30 18:51:12
,wl-rdm,112,358156,0.0-6.104-0.104,0.0,107.0,,,,,,,[],,,,,,56.4,1.0,u,0.0,False,1719.0,83.0,59.0,40.0,False,,274.211096504602,[],"[683, 384]",ColorTask,5.0,105.0,,,HRV,HRV_0047,2022-11-30 18:51:12
,wl-rdm,113,361357,0.0-6.105-0.105,0.0,108.0,,,,,,,[],,,,,,87.9,0.0,u,0.0,True,1756.0,92.0,59.0,40.0,False,,316.50313859849325,[],"[683, 384]",ColorTask,6.0,106.0,,,HRV,HRV_0047,2022-11-30 18:51:12
,wl-rdm,114,364302,0.0-6.106-0.106,0.0,109.0,,,,,,,[],,,,,,73.6,1.0,i,1.0,True,1518.0,60.0,59.0,40.0,False,,361.1416347890524,[],"[683, 384]",ColorTask,7.0,107.0,,,HRV,HRV_0047,2022-11-30 18:51:12
,wl-rdm,115,367338,0.0-6.107-0.107,0.0,110.0,,,,,,,[],,,,,,87.9,1.0,i,1.0,True,1696.0,94.0,59.0,40.0,False,,250.92664778558145,[],"[683, 384]",ColorTask,8.0,108.0,,,HRV,HRV_0047,2022-11-30 18:51:12
,wl-rdm,116,370506,0.0-6.108-0.108,0.0,111.0,,,,,,,[],,,,,,62.5,1.0,u,0.0,False,1828.0,95.0,59.0,40.0,False,,245.84755339005073,[],"[683, 384]",ColorTask,7.0,109.0,,,HRV,HRV_0047,2022-11-30 18:51:12
,wl-rdm,117,373819,0.0-6.109-0.109,0.0,112.0,,,,,,,[],,,,,,50.0,0.0,i,1.0,False,1990.0,93.0,59.0,40.0,False,,270.27245734174716,[],"[683, 384]",ColorTask,6.0,110.0,,,HRV,HRV_0047,2022-11-30 18:51:12
,wl-rdm,118,377074,0.0-6.110-0.110,0.0,113.0,,,,,,,[],,,,,,53.2,1.0,u,0.0,False,1791.0,94.0,59.0,40.0,False,,383.0235768143998,[],"[683, 384]",ColorTask,5.0,111.0,,,HRV,HRV_0047,2022-11-30 18:51:12
,wl-rdm,119,380100,0.0-6.111-0.111,0.0,114.0,,,,,,,[],,,,,,87.9,1.0,i,1.0,True,1695.0,62.0,59.0,40.0,False,,206.92951977960132,[],"[683, 384]",ColorTask,6.0,112.0,,,HRV,HRV_0047,2022-11-30 18:51:12
,wl-rdm,120,382474,0.0-6.112-0.112,0.0,115.0,,,,,,,[],,,,,,87.9,1.0,i,1.0,True,1092.0,56.0,59.0,40.0,False,,207.2047743736291,[],"[683, 384]",ColorTask,7.0,113.0,,,HRV,HRV_0047,2022-11-30 18:51:12
,wl-rdm,121,385091,0.0-6.113-0.113,0.0,116.0,,,,,,,[],,,,,,53.2,0.0,u,0.0,True,1131.0,54.0,59.0,40.0,False,,397.7201708612138,[],"[683, 384]",ColorTask,8.0,114.0,,,HRV,HRV_0047,2022-11-30 18:51:12
,wl-html-keyboard-response,122,393151,0.0-7.0-0.0,1.0,117.0,,,,,,,,6050.0,1.0,0,,,,,,,,,,,,,,,,,,,,,,HRV,HRV_0047,2022-11-30 18:51:12
,wl-rdm,123,395528,0.0-8.0-0.0,1.0,118.0,,,,,,,[],,,,,,62.5,1.0,i,1.0,True,1051.0,49.0,59.0,40.0,False,,252.82262139570463,[],"[683, 384]",ColorTask,9.0,1.0,,,HRV,HRV_0047,2022-11-30 18:51:12
,wl-rdm,124,399090,0.0-8.1-0.1,1.0,119.0,,,,,,,[],,,,,,53.2,1.0,i,1.0,True,2120.0,111.0,59.0,40.0,False,,368.3155207214817,[],"[683, 384]",ColorTask,10.0,2.0,,,HRV,HRV_0047,2022-11-30 18:51:12
,wl-rdm,125,402254,0.0-8.2-0.2,1.0,120.0,,,,,,,[],,,,,,50.0,0.0,u,0.0,True,1851.0,97.0,59.0,40.0,False,,236.81459676588406,[],"[683, 384]",ColorTask,11.0,3.0,,,HRV,HRV_0047,2022-11-30 18:51:12
,wl-rdm,126,405140,0.0-8.3-0.3,1.0,121.0,,,,,,,[],,,,,,53.2,1.0,i,1.0,True,1422.0,60.0,59.0,40.0,False,,388.8635557553555,[],"[683, 384]",ColorTask,12.0,4.0,,,HRV,HRV_0047,2022-11-30 18:51:12
,wl-rdm,127,409271,0.0-8.4-0.4,1.0,122.0,,,,,,,[],,,,,,87.9,0.0,u,0.0,True,2762.0,115.0,59.0,40.0,False,,304.2029247396005,[],"[683, 384]",ColorTask,13.0,5.0,,,HRV,HRV_0047,2022-11-30 18:51:12
,wl-rdm,128,411935,0.0-8.5-0.5,1.0,123.0,,,,,,,[],,,,,,73.6,1.0,i,1.0,True,1354.0,61.0,59.0,40.0,False,,244.85838136176443,[],"[683, 384]",ColorTask,14.0,6.0,,,HRV,HRV_0047,2022-11-30 18:51:12
,wl-rdm,129,414376,0.0-8.6-0.6,1.0,124.0,,,,,,,[],,,,,,87.9,0.0,u,0.0,True,1031.0,44.0,59.0,40.0,False,,333.84225375240555,[],"[683, 384]",ColorTask,15.0,7.0,,,HRV,HRV_0047,2022-11-30 18:51:12
,wl-rdm,130,417089,0.0-8.7-0.7,1.0,125.0,,,,,,,[],,,,,,73.6,0.0,u,0.0,True,1363.0,47.0,59.0,40.0,False,,277.97924724280233,[],"[683, 384]",ColorTask,16.0,8.0,,,HRV,HRV_0047,2022-11-30 18:51:12
,wl-rdm,131,420217,0.0-8.8-0.8,1.0,126.0,,,,,,,[],,,,,,62.5,0.0,u,0.0,True,1823.0,99.0,59.0,40.0,False,,223.02619522733363,[],"[683, 384]",ColorTask,17.0,9.0,,,HRV,HRV_0047,2022-11-30 18:51:12
,wl-rdm,132,423460,0.0-8.9-0.9,1.0,127.0,,,,,,,[],,,,,,53.2,1.0,i,1.0,True,1925.0,93.0,59.0,40.0,False,,232.63807615508827,[],"[683, 384]",ColorTask,18.0,10.0,,,HRV,HRV_0047,2022-11-30 18:51:12
,wl-rdm,133,427908,0.0-8.10-0.10,1.0,127.0,,,,,,,[],,,,,,73.6,1.0,,,,,152.0,59.0,40.0,True,RT_timeout ,332.5756514673251,[],"[683, 384]",ColorTask,17.0,11.0,,,HRV,HRV_0047,2022-11-30 18:51:12
,wl-rdm,134,430613,0.0-8.11-0.11,1.0,128.0,,,,,,,[],,,,,,87.9,1.0,i,1.0,True,1232.0,63.0,59.0,40.0,False,,287.458364976191,[],"[683, 384]",ColorTask,18.0,12.0,,,HRV,HRV_0047,2022-11-30 18:51:12
,wl-rdm,135,431684,0.0-8.12-0.12,1.0,128.0,,,,,,,[],,,,,,87.9,0.0,u,,,466.0,0.0,59.0,40.0,True,too_early ,236.40123475852155,[],"[683, 384]",ColorTask,17.0,13.0,,,HRV,HRV_0047,2022-11-30 18:51:12
,wl-rdm,136,435654,0.0-8.13-0.13,1.0,129.0,,,,,,,[],,,,,,62.5,1.0,i,1.0,True,2663.0,141.0,59.0,40.0,False,,211.15845597269742,[],"[683, 384]",ColorTask,18.0,14.0,,,HRV,HRV_0047,2022-11-30 18:51:12
,wl-rdm,137,437817,0.0-8.14-0.14,1.0,130.0,,,,,,,[],,,,,,53.2,0.0,u,0.0,True,794.0,33.0,59.0,40.0,False,,313.3164685717582,[],"[683, 384]",ColorTask,19.0,15.0,,,HRV,HRV_0047,2022-11-30 18:51:12
,wl-rdm,138,440331,0.0-8.15-0.15,1.0,131.0,,,,,,,[],,,,,,50.0,0.0,u,0.0,True,1180.0,51.0,59.0,40.0,False,,242.48891472947463,[],"[683, 384]",ColorTask,20.0,16.0,,,HRV,HRV_0047,2022-11-30 18:51:12
,wl-rdm,139,443401,0.0-8.16-0.16,1.0,132.0,,,,,,,[],,,,,,62.5,0.0,i,1.0,False,1656.0,78.0,59.0,40.0,False,,336.4289418283354,[],"[683, 384]",ColorTask,19.0,17.0,,,HRV,HRV_0047,2022-11-30 18:51:12
,wl-rdm,140,445907,0.0-8.17-0.17,1.0,133.0,,,,,,,[],,,,,,56.4,0.0,u,0.0,True,1128.0,51.0,59.0,40.0,False,,296.0736151070109,[],"[683, 384]",ColorTask,20.0,18.0,,,HRV,HRV_0047,2022-11-30 18:51:12
,wl-rdm,141,449017,0.0-8.18-0.18,1.0,134.0,,,,,,,[],,,,,,62.5,0.0,i,1.0,False,1726.0,83.0,59.0,40.0,False,,329.2553714607213,[],"[683, 384]",ColorTask,19.0,19.0,,,HRV,HRV_0047,2022-11-30 18:51:12
,wl-rdm,142,451136,0.0-8.19-0.19,1.0,135.0,,,,,,,[],,,,,,56.4,1.0,u,0.0,False,810.0,44.0,59.0,40.0,False,,221.95359732611647,[],"[683, 384]",ColorTask,18.0,20.0,,,HRV,HRV_0047,2022-11-30 18:51:12
,wl-rdm,143,453638,0.0-8.20-0.20,1.0,136.0,,,,,,,[],,,,,,62.5,1.0,u,0.0,False,1149.0,59.0,59.0,40.0,False,,282.473552969937,[],"[683, 384]",ColorTask,17.0,21.0,,,HRV,HRV_0047,2022-11-30 18:51:12
,wl-rdm,144,455583,0.0-8.21-0.21,1.0,137.0,,,,,,,[],,,,,,62.5,1.0,u,0.0,False,626.0,31.0,59.0,40.0,False,,245.35030034833713,[],"[683, 384]",ColorTask,16.0,22.0,,,HRV,HRV_0047,2022-11-30 18:51:12
,wl-rdm,145,457033,0.0-8.22-0.22,1.0,137.0,,,,,,,[],,,,,,50.0,1.0,i,,,911.0,0.0,59.0,40.0,True,too_early ,341.71481900572223,[],"[683, 384]",ColorTask,15.0,23.0,,,HRV,HRV_0047,2022-11-30 18:51:12
,wl-rdm,146,459117,0.0-8.23-0.23,1.0,138.0,,,,,,,[],,,,,,87.9,0.0,u,0.0,True,754.0,44.0,59.0,40.0,False,,226.3891138833606,[],"[683, 384]",ColorTask,16.0,24.0,,,HRV,HRV_0047,2022-11-30 18:51:12
,wl-rdm,147,461985,0.0-8.24-0.24,1.0,139.0,,,,,,,[],,,,,,56.4,0.0,i,1.0,False,1510.0,54.0,59.0,40.0,False,,238.39381762645934,[],"[683, 384]",ColorTask,15.0,25.0,,,HRV,HRV_0047,2022-11-30 18:51:12
,wl-rdm,148,464967,0.0-8.25-0.25,1.0,140.0,,,,,,,[],,,,,,87.9,0.0,u,0.0,True,1568.0,69.0,59.0,40.0,False,,334.8002361805334,[],"[683, 384]",ColorTask,16.0,26.0,,,HRV,HRV_0047,2022-11-30 18:51:12
,wl-rdm,149,469316,0.0-8.26-0.26,1.0,140.0,,,,,,,[],,,,,,53.2,0.0,i,,,3143.0,146.0,59.0,40.0,True,RT_timeout ,225.64518146673473,[],"[683, 384]",ColorTask,15.0,27.0,,,HRV,HRV_0047,2022-11-30 18:51:12
,wl-rdm,150,472311,0.0-8.27-0.27,1.0,141.0,,,,,,,[],,,,,,73.6,0.0,u,0.0,True,1680.0,81.0,59.0,40.0,False,,222.68519485129966,[],"[683, 384]",ColorTask,16.0,28.0,,,HRV,HRV_0047,2022-11-30 18:51:12
,wl-rdm,151,475465,0.0-8.28-0.28,1.0,142.0,,,,,,,[],,,,,,87.9,1.0,i,1.0,True,1843.0,95.0,59.0,40.0,False,,258.0468637011258,[],"[683, 384]",ColorTask,17.0,29.0,,,HRV,HRV_0047,2022-11-30 18:51:12
,wl-rdm,152,478216,0.0-8.29-0.29,1.0,143.0,,,,,,,[],,,,,,87.9,0.0,i,1.0,False,1300.0,60.0,59.0,40.0,False,,385.65048578859523,[],"[683, 384]",ColorTask,16.0,30.0,,,HRV,HRV_0047,2022-11-30 18:51:12
,wl-rdm,153,481483,0.0-8.30-0.30,1.0,144.0,,,,,,,[],,,,,,87.9,0.0,u,0.0,True,1790.0,79.0,59.0,40.0,False,,389.44635075864585,[],"[683, 384]",ColorTask,17.0,31.0,,,HRV,HRV_0047,2022-11-30 18:51:12
,wl-rdm,154,485158,0.0-8.31-0.31,1.0,145.0,,,,,,,[],,,,,,53.2,1.0,u,0.0,False,2119.0,98.0,59.0,40.0,False,,390.5547097135261,[],"[683, 384]",ColorTask,16.0,32.0,,,HRV,HRV_0047,2022-11-30 18:51:12
,wl-rdm,155,487543,0.0-8.32-0.32,1.0,146.0,,,,,,,[],,,,,,56.4,1.0,i,1.0,True,855.0,31.0,59.0,40.0,False,,380.60127414778543,[],"[683, 384]",ColorTask,17.0,33.0,,,HRV,HRV_0047,2022-11-30 18:51:12
,wl-rdm,156,490110,0.0-8.33-0.33,1.0,147.0,,,,,,,[],,,,,,50.0,0.0,u,0.0,True,1248.0,61.0,59.0,40.0,False,,214.05086806380135,[],"[683, 384]",ColorTask,18.0,34.0,,,HRV,HRV_0047,2022-11-30 18:51:12
,wl-rdm,157,491998,0.0-8.34-0.34,1.0,148.0,,,,,,,[],,,,,,53.2,0.0,i,1.0,False,520.0,23.0,59.0,40.0,False,,317.1374776395062,[],"[683, 384]",ColorTask,17.0,35.0,,,HRV,HRV_0047,2022-11-30 18:51:12
,wl-rdm,158,494599,0.0-8.35-0.35,1.0,149.0,,,,,,,[],,,,,,87.9,1.0,i,1.0,True,1327.0,69.0,59.0,40.0,False,,207.00752784992085,[],"[683, 384]",ColorTask,18.0,36.0,,,HRV,HRV_0047,2022-11-30 18:51:12
,wl-rdm,159,496831,0.0-8.36-0.36,1.0,150.0,,,,,,,[],,,,,,53.2,1.0,u,0.0,False,796.0,27.0,59.0,40.0,False,,340.5751984264808,[],"[683, 384]",ColorTask,17.0,37.0,,,HRV,HRV_0047,2022-11-30 18:51:12
,wl-rdm,160,498996,0.0-8.37-0.37,1.0,151.0,,,,,,,[],,,,,,50.0,0.0,i,1.0,False,718.0,38.0,59.0,40.0,False,,360.2117430237825,[],"[683, 384]",ColorTask,16.0,38.0,,,HRV,HRV_0047,2022-11-30 18:51:12
,wl-rdm,161,501519,0.0-8.38-0.38,1.0,152.0,,,,,,,[],,,,,,56.4,0.0,u,0.0,True,1098.0,56.0,59.0,40.0,False,,330.09697116297673,[],"[683, 384]",ColorTask,17.0,39.0,,,HRV,HRV_0047,2022-11-30 18:51:12
,wl-rdm,162,504909,0.0-8.39-0.39,1.0,153.0,,,,,,,[],,,,,,62.5,0.0,i,1.0,False,1951.0,96.0,59.0,40.0,False,,371.6512494775146,[],"[683, 384]",ColorTask,16.0,40.0,,,HRV,HRV_0047,2022-11-30 18:51:12
,wl-rdm,163,508147,0.0-8.40-0.40,1.0,154.0,,,,,,,[],,,,,,87.9,0.0,u,0.0,True,1921.0,103.0,59.0,40.0,False,,203.82805739532643,[],"[683, 384]",ColorTask,17.0,41.0,,,HRV,HRV_0047,2022-11-30 18:51:12
,wl-rdm,164,510774,0.0-8.41-0.41,1.0,155.0,,,,,,,[],,,,,,50.0,0.0,i,1.0,False,1309.0,55.0,59.0,40.0,False,,246.7290514703472,[],"[683, 384]",ColorTask,16.0,42.0,,,HRV,HRV_0047,2022-11-30 18:51:12
,wl-rdm,165,514018,0.0-8.42-0.42,1.0,156.0,,,,,,,[],,,,,,87.9,0.0,u,0.0,True,1816.0,84.0,59.0,40.0,False,,345.7411784364057,[],"[683, 384]",ColorTask,17.0,43.0,,,HRV,HRV_0047,2022-11-30 18:51:12
,wl-rdm,166,517214,0.0-8.43-0.43,1.0,157.0,,,,,,,[],,,,,,53.2,0.0,i,1.0,False,1802.0,80.0,59.0,40.0,False,,316.16990180164174,[],"[683, 384]",ColorTask,16.0,44.0,,,HRV,HRV_0047,2022-11-30 18:51:12
,wl-rdm,167,521864,0.0-8.44-0.44,1.0,157.0,,,,,,,[],,,,,,50.0,0.0,u,,,3432.0,160.0,59.0,40.0,True,RT_timeout ,256.96116848793713,[],"[683, 384]",ColorTask,15.0,45.0,,,HRV,HRV_0047,2022-11-30 18:51:12
,wl-rdm,168,523786,0.0-8.45-0.45,1.0,158.0,,,,,,,[],,,,,,87.9,1.0,u,0.0,False,492.0,17.0,59.0,40.0,False,,333.76737347943754,[],"[683, 384]",ColorTask,14.0,46.0,,,HRV,HRV_0047,2022-11-30 18:51:12
,wl-rdm,169,526347,0.0-8.46-0.46,1.0,159.0,,,,,,,[],,,,,,53.2,0.0,i,1.0,False,1282.0,70.0,59.0,40.0,False,,227.61466924613686,[],"[683, 384]",ColorTask,13.0,47.0,,,HRV,HRV_0047,2022-11-30 18:51:12
,wl-rdm,170,528814,0.0-8.47-0.47,1.0,160.0,,,,,,,[],,,,,,56.4,1.0,u,0.0,False,1102.0,52.0,59.0,40.0,False,,289.6938865070635,[],"[683, 384]",ColorTask,12.0,48.0,,,HRV,HRV_0047,2022-11-30 18:51:12
,wl-rdm,171,532553,0.0-8.48-0.48,1.0,161.0,,,,,,,[],,,,,,87.9,1.0,u,0.0,False,2457.0,96.0,59.0,40.0,False,,215.35372236987936,[],"[683, 384]",ColorTask,11.0,49.0,,,HRV,HRV_0047,2022-11-30 18:51:12
,wl-rdm,172,535263,0.0-8.49-0.49,1.0,162.0,,,,,,,[],,,,,,53.2,1.0,i,1.0,True,1400.0,79.0,59.0,40.0,False,,241.90200131483877,[],"[683, 384]",ColorTask,12.0,50.0,,,HRV,HRV_0047,2022-11-30 18:51:12
,wl-rdm,173,538239,0.0-8.50-0.50,1.0,163.0,,,,,,,[],,,,,,62.5,1.0,u,0.0,False,1442.0,70.0,59.0,40.0,False,,376.18673888755256,[],"[683, 384]",ColorTask,11.0,51.0,,,HRV,HRV_0047,2022-11-30 18:51:12
,wl-rdm,174,541205,0.0-8.51-0.51,1.0,164.0,,,,,,,[],,,,,,87.9,1.0,i,1.0,True,1630.0,84.0,59.0,40.0,False,,248.39180242974805,[],"[683, 384]",ColorTask,12.0,52.0,,,HRV,HRV_0047,2022-11-30 18:51:12
,wl-rdm,175,545435,0.0-8.52-0.52,1.0,165.0,,,,,,,[],,,,,,50.0,1.0,u,0.0,False,2854.0,148.0,59.0,40.0,False,,239.73772835357772,[],"[683, 384]",ColorTask,11.0,53.0,,,HRV,HRV_0047,2022-11-30 18:51:12
,wl-rdm,176,549723,0.0-8.53-0.53,1.0,166.0,,,,,,,[],,,,,,62.5,0.0,i,1.0,False,2860.0,141.0,59.0,40.0,False,,337.8806339946261,[],"[683, 384]",ColorTask,10.0,54.0,,,HRV,HRV_0047,2022-11-30 18:51:12
,wl-rdm,177,552446,0.0-8.54-0.54,1.0,167.0,,,,,,,[],,,,,,87.9,1.0,u,0.0,False,1336.0,68.0,59.0,40.0,False,,317.89486636555176,[],"[683, 384]",ColorTask,9.0,55.0,,,HRV,HRV_0047,2022-11-30 18:51:12
,wl-rdm,178,555818,0.0-8.55-0.55,1.0,168.0,,,,,,,[],,,,,,53.2,0.0,i,1.0,False,2038.0,92.0,59.0,40.0,False,,232.0265098173872,[],"[683, 384]",ColorTask,8.0,56.0,,,HRV,HRV_0047,2022-11-30 18:51:12
,wl-rdm,179,558464,0.0-8.56-0.56,1.0,169.0,,,,,,,[],,,,,,56.4,1.0,u,0.0,False,1242.0,64.0,59.0,40.0,False,,343.0653949883521,[],"[683, 384]",ColorTask,7.0,57.0,,,HRV,HRV_0047,2022-11-30 18:51:12
,wl-rdm,180,559546,0.0-8.57-0.57,1.0,169.0,,,,,,,[],,,,,,56.4,1.0,u,,,278.0,0.0,59.0,40.0,True,too_early ,367.2464799629455,[],"[683, 384]",ColorTask,6.0,58.0,,,HRV,HRV_0047,2022-11-30 18:51:12
,wl-rdm,181,562136,0.0-8.58-0.58,1.0,170.0,,,,,,,[],,,,,,53.2,1.0,i,1.0,True,1048.0,63.0,59.0,40.0,False,,202.6971986193426,[],"[683, 384]",ColorTask,7.0,59.0,,,HRV,HRV_0047,2022-11-30 18:51:12
,wl-rdm,182,564763,0.0-8.59-0.59,1.0,171.0,,,,,,,[],,,,,,87.9,1.0,u,0.0,False,1187.0,66.0,59.0,40.0,False,,286.39869503946124,[],"[683, 384]",ColorTask,6.0,60.0,,,HRV,HRV_0047,2022-11-30 18:51:12
,wl-rdm,183,567529,0.0-8.60-0.60,1.0,172.0,,,,,,,[],,,,,,73.6,1.0,i,1.0,True,1392.0,77.0,59.0,40.0,False,,305.9657384442804,[],"[683, 384]",ColorTask,7.0,61.0,,,HRV,HRV_0047,2022-11-30 18:51:12
,wl-rdm,184,570368,0.0-8.61-0.61,1.0,173.0,,,,,,,[],,,,,,50.0,1.0,u,0.0,False,1527.0,86.0,59.0,40.0,False,,205.67843664871293,[],"[683, 384]",ColorTask,6.0,62.0,,,HRV,HRV_0047,2022-11-30 18:51:12
,wl-rdm,185,573281,0.0-8.62-0.62,1.0,174.0,,,,,,,[],,,,,,73.6,1.0,i,1.0,True,1582.0,79.0,59.0,40.0,False,,250.88677803627283,[],"[683, 384]",ColorTask,7.0,63.0,,,HRV,HRV_0047,2022-11-30 18:51:12
,wl-rdm,186,576185,0.0-8.63-0.63,1.0,175.0,,,,,,,[],,,,,,56.4,1.0,i,1.0,True,1528.0,92.0,59.0,40.0,False,,303.3350587388463,[],"[683, 384]",ColorTask,8.0,64.0,,,HRV,HRV_0047,2022-11-30 18:51:12
,wl-rdm,187,579362,0.0-8.64-0.64,1.0,176.0,,,,,,,[],,,,,,50.0,1.0,i,1.0,True,1865.0,94.0,59.0,40.0,False,,245.99098927998415,[],"[683, 384]",ColorTask,9.0,65.0,,,HRV,HRV_0047,2022-11-30 18:51:12
,wl-rdm,188,582879,0.0-8.65-0.65,1.0,177.0,,,,,,,[],,,,,,50.0,0.0,i,1.0,False,1901.0,95.0,59.0,40.0,False,,256.4053133871718,[],"[683, 384]",ColorTask,8.0,66.0,,,HRV,HRV_0047,2022-11-30 18:51:12
,wl-rdm,189,586431,0.0-8.66-0.66,1.0,178.0,,,,,,,[],,,,,,50.0,1.0,i,1.0,True,2246.0,103.0,59.0,40.0,False,,214.2552304389072,[],"[683, 384]",ColorTask,9.0,67.0,,,HRV,HRV_0047,2022-11-30 18:51:12
,wl-rdm,190,589345,0.0-8.67-0.67,1.0,179.0,,,,,,,[],,,,,,56.4,0.0,u,0.0,True,1568.0,77.0,59.0,40.0,False,,273.2523538845052,[],"[683, 384]",ColorTask,10.0,68.0,,,HRV,HRV_0047,2022-11-30 18:51:12
,wl-rdm,191,592380,0.0-8.68-0.68,1.0,180.0,,,,,,,[],,,,,,56.4,1.0,u,0.0,False,1587.0,78.0,59.0,40.0,False,,371.42076127554463,[],"[683, 384]",ColorTask,9.0,69.0,,,HRV,HRV_0047,2022-11-30 18:51:12
,wl-rdm,192,595616,0.0-8.69-0.69,1.0,181.0,,,,,,,[],,,,,,50.0,1.0,u,0.0,False,1833.0,69.0,59.0,40.0,False,,327.3301681975692,[],"[683, 384]",ColorTask,8.0,70.0,,,HRV,HRV_0047,2022-11-30 18:51:12
,wl-rdm,193,598875,0.0-8.70-0.70,1.0,182.0,,,,,,,[],,,,,,73.6,1.0,i,1.0,True,1895.0,96.0,59.0,40.0,False,,272.81792757907436,[],"[683, 384]",ColorTask,9.0,71.0,,,HRV,HRV_0047,2022-11-30 18:51:12
,wl-rdm,194,602057,0.0-8.71-0.71,1.0,183.0,,,,,,,[],,,,,,53.2,0.0,u,0.0,True,1762.0,80.0,59.0,40.0,False,,267.7066348662711,[],"[683, 384]",ColorTask,10.0,72.0,,,HRV,HRV_0047,2022-11-30 18:51:12
,wl-rdm,195,605078,0.0-8.72-0.72,1.0,184.0,,,,,,,[],,,,,,56.4,1.0,u,0.0,False,1665.0,92.0,59.0,40.0,False,,307.42003949642424,[],"[683, 384]",ColorTask,9.0,73.0,,,HRV,HRV_0047,2022-11-30 18:51:12
,wl-rdm,196,608195,0.0-8.73-0.73,1.0,185.0,,,,,,,[],,,,,,73.6,1.0,i,1.0,True,1679.0,89.0,59.0,40.0,False,,361.4432102872212,[],"[683, 384]",ColorTask,10.0,74.0,,,HRV,HRV_0047,2022-11-30 18:51:12
,wl-rdm,197,611361,0.0-8.74-0.74,1.0,186.0,,,,,,,[],,,,,,53.2,0.0,u,0.0,True,1827.0,84.0,59.0,40.0,False,,217.24615263109024,[],"[683, 384]",ColorTask,11.0,75.0,,,HRV,HRV_0047,2022-11-30 18:51:12
,wl-rdm,198,615252,0.0-8.75-0.75,1.0,187.0,,,,,,,[],,,,,,50.0,1.0,u,0.0,False,2625.0,116.0,59.0,40.0,False,,201.90552426282645,[],"[683, 384]",ColorTask,10.0,76.0,,,HRV,HRV_0047,2022-11-30 18:51:12
,wl-rdm,199,619149,0.0-8.76-0.76,1.0,188.0,,,,,,,[],,,,,,73.6,0.0,u,0.0,True,2338.0,113.0,59.0,40.0,False,,393.5842227176727,[],"[683, 384]",ColorTask,11.0,77.0,,,HRV,HRV_0047,2022-11-30 18:51:12
,wl-rdm,200,622436,0.0-8.77-0.77,1.0,189.0,,,,,,,[],,,,,,73.6,1.0,i,1.0,True,1852.0,89.0,59.0,40.0,False,,365.39222602889487,[],"[683, 384]",ColorTask,12.0,78.0,,,HRV,HRV_0047,2022-11-30 18:51:12
,wl-rdm,201,625247,0.0-8.78-0.78,1.0,190.0,,,,,,,[],,,,,,73.6,0.0,u,0.0,True,1445.0,55.0,59.0,40.0,False,,292.6951171193967,[],"[683, 384]",ColorTask,13.0,79.0,,,HRV,HRV_0047,2022-11-30 18:51:12
,wl-rdm,202,628846,0.0-8.79-0.79,1.0,191.0,,,,,,,[],,,,,,73.6,0.0,u,0.0,True,2271.0,95.0,59.0,40.0,False,,262.67390119360783,[],"[683, 384]",ColorTask,14.0,80.0,,,HRV,HRV_0047,2022-11-30 18:51:12
,wl-rdm,203,631757,0.0-8.80-0.80,1.0,192.0,,,,,,,[],,,,,,62.5,0.0,u,0.0,True,1546.0,76.0,59.0,40.0,False,,289.5591054598583,[],"[683, 384]",ColorTask,15.0,81.0,,,HRV,HRV_0047,2022-11-30 18:51:12
,wl-rdm,204,634593,0.0-8.81-0.81,1.0,193.0,,,,,,,[],,,,,,62.5,1.0,u,0.0,False,1530.0,81.0,59.0,40.0,False,,265.62679378791194,[],"[683, 384]",ColorTask,14.0,82.0,,,HRV,HRV_0047,2022-11-30 18:51:12
,wl-rdm,205,637415,0.0-8.82-0.82,1.0,194.0,,,,,,,[],,,,,,53.2,0.0,i,1.0,False,1347.0,73.0,59.0,40.0,False,,390.89056459948745,[],"[683, 384]",ColorTask,13.0,83.0,,,HRV,HRV_0047,2022-11-30 18:51:12
,wl-rdm,206,640037,0.0-8.83-0.83,1.0,195.0,,,,,,,[],,,,,,62.5,1.0,u,0.0,False,1179.0,57.0,59.0,40.0,False,,378.99572543645115,[],"[683, 384]",ColorTask,12.0,84.0,,,HRV,HRV_0047,2022-11-30 18:51:12
,wl-rdm,207,642482,0.0-8.84-0.84,1.0,196.0,,,,,,,[],,,,,,62.5,0.0,i,1.0,False,1116.0,63.0,59.0,40.0,False,,251.6549720313867,[],"[683, 384]",ColorTask,11.0,85.0,,,HRV,HRV_0047,2022-11-30 18:51:12
,wl-rdm,208,644692,0.0-8.85-0.85,1.0,197.0,,,,,,,[],,,,,,73.6,0.0,u,0.0,True,847.0,42.0,59.0,40.0,False,,297.60492318993875,[],"[683, 384]",ColorTask,12.0,86.0,,,HRV,HRV_0047,2022-11-30 18:51:12
,wl-rdm,209,649238,0.0-8.86-0.86,1.0,197.0,,,,,,,[],,,,,,62.5,1.0,,,,,169.0,59.0,40.0,True,RT_timeout ,228.4220394834426,[],"[683, 384]",ColorTask,11.0,87.0,,,HRV,HRV_0047,2022-11-30 18:51:12
,wl-rdm,210,650326,0.0-8.87-0.87,1.0,197.0,,,,,,,[],,,,,,56.4,0.0,u,,,242.0,0.0,59.0,40.0,True,too_early ,259.84351738596786,[],"[683, 384]",ColorTask,10.0,88.0,,,HRV,HRV_0047,2022-11-30 18:51:12
,wl-rdm,211,654676,0.0-8.88-0.88,1.0,197.0,,,,,,,[],,,,,,50.0,1.0,,,,,152.0,59.0,40.0,True,RT_timeout ,254.12993496707946,[],"[683, 384]",ColorTask,9.0,89.0,,,HRV,HRV_0047,2022-11-30 18:51:12
,wl-rdm,212,655808,0.0-8.89-0.89,1.0,197.0,,,,,,,[],,,,,,73.6,0.0,u,,,241.0,0.0,59.0,40.0,True,too_early ,303.0628410987151,[],"[683, 384]",ColorTask,8.0,90.0,,,HRV,HRV_0047,2022-11-30 18:51:12
,wl-rdm,213,657601,0.0-8.90-0.90,1.0,198.0,,,,,,,[],,,,,,73.6,1.0,i,1.0,True,444.0,27.0,59.0,40.0,False,,241.77144598664705,[],"[683, 384]",ColorTask,9.0,91.0,,,HRV,HRV_0047,2022-11-30 18:51:12
,wl-rdm,214,660391,0.0-8.91-0.91,1.0,199.0,,,,,,,[],,,,,,62.5,0.0,u,0.0,True,1525.0,85.0,59.0,40.0,False,,221.14539683466404,[],"[683, 384]",ColorTask,10.0,92.0,,,HRV,HRV_0047,2022-11-30 18:51:12
,wl-rdm,215,663873,0.0-8.92-0.92,1.0,200.0,,,,,,,[],,,,,,73.6,1.0,i,1.0,True,2123.0,81.0,59.0,40.0,False,,268.9405083078505,[],"[683, 384]",ColorTask,11.0,93.0,,,HRV,HRV_0047,2022-11-30 18:51:12
,wl-rdm,216,667892,0.0-8.93-0.93,1.0,201.0,,,,,,,[],,,,,,53.2,1.0,i,1.0,True,2616.0,151.0,59.0,40.0,False,,355.09087388879084,[],"[683, 384]",ColorTask,12.0,94.0,,,HRV,HRV_0047,2022-11-30 18:51:12
,wl-rdm,217,671749,0.0-8.94-0.94,1.0,202.0,,,,,,,[],,,,,,56.4,0.0,u,0.0,True,2422.0,105.0,59.0,40.0,False,,361.6506505714616,[],"[683, 384]",ColorTask,13.0,95.0,,,HRV,HRV_0047,2022-11-30 18:51:12
,wl-rdm,218,674609,0.0-8.95-0.95,1.0,203.0,,,,,,,[],,,,,,56.4,1.0,i,1.0,True,1490.0,64.0,59.0,40.0,False,,305.02829932631823,[],"[683, 384]",ColorTask,14.0,96.0,,,HRV,HRV_0047,2022-11-30 18:51:12
,wl-rdm,219,678541,0.0-8.96-0.96,1.0,204.0,,,,,,,[],,,,,,50.0,1.0,u,0.0,False,2641.0,118.0,59.0,40.0,False,,217.53772968010384,[],"[683, 384]",ColorTask,13.0,97.0,,,HRV,HRV_0047,2022-11-30 18:51:12
,wl-rdm,220,681530,0.0-8.97-0.97,1.0,205.0,,,,,,,[],,,,,,56.4,0.0,i,1.0,False,1650.0,87.0,59.0,40.0,False,,262.9104107623735,[],"[683, 384]",ColorTask,12.0,98.0,,,HRV,HRV_0047,2022-11-30 18:51:12
,wl-rdm,221,685924,0.0-8.98-0.98,1.0,205.0,,,,,,,[],,,,,,73.6,0.0,,,,,153.0,59.0,40.0,True,RT_timeout ,291.284302633336,[],"[683, 384]",ColorTask,11.0,99.0,,,HRV,HRV_0047,2022-11-30 18:51:12
,wl-rdm,222,687108,0.0-8.99-0.99,1.0,205.0,,,,,,,[],,,,,,62.5,1.0,u,,,116.0,0.0,59.0,40.0,True,too_early ,233.93103381189877,[],"[683, 384]",ColorTask,10.0,100.0,,,HRV,HRV_0047,2022-11-30 18:51:12
,wl-rdm,223,688190,0.0-8.100-0.100,1.0,205.0,,,,,,,[],,,,,,53.2,1.0,i,,,360.0,0.0,59.0,40.0,True,too_early ,254.82037414065485,[],"[683, 384]",ColorTask,9.0,101.0,,,HRV,HRV_0047,2022-11-30 18:51:12
,wl-rdm,224,690711,0.0-8.101-0.101,1.0,206.0,,,,,,,[],,,,,,50.0,0.0,i,1.0,False,1205.0,70.0,59.0,40.0,False,,250.76218651756238,[],"[683, 384]",ColorTask,8.0,102.0,,,HRV,HRV_0047,2022-11-30 18:51:12
,wl-rdm,225,693556,0.0-8.102-0.102,1.0,207.0,,,,,,,[],,,,,,56.4,0.0,u,0.0,True,1473.0,66.0,59.0,40.0,False,,308.12881496264254,[],"[683, 384]",ColorTask,9.0,103.0,,,HRV,HRV_0047,2022-11-30 18:51:12
,wl-rdm,226,696207,0.0-8.103-0.103,1.0,208.0,,,,,,,[],,,,,,62.5,1.0,i,1.0,True,1254.0,67.0,59.0,40.0,False,,344.3120239492932,[],"[683, 384]",ColorTask,10.0,104.0,,,HRV,HRV_0047,2022-11-30 18:51:12
,wl-rdm,227,698986,0.0-8.104-0.104,1.0,209.0,,,,,,,[],,,,,,73.6,0.0,i,1.0,False,1447.0,65.0,59.0,40.0,False,,241.14691796147332,[],"[683, 384]",ColorTask,9.0,105.0,,,HRV,HRV_0047,2022-11-30 18:51:12
,wl-rdm,228,702129,0.0-8.105-0.105,1.0,210.0,,,,,,,[],,,,,,56.4,1.0,i,1.0,True,1751.0,82.0,59.0,40.0,False,,263.90446188943343,[],"[683, 384]",ColorTask,10.0,106.0,,,HRV,HRV_0047,2022-11-30 18:51:12
,wl-rdm,229,704906,0.0-8.106-0.106,1.0,211.0,,,,,,,[],,,,,,50.0,1.0,u,0.0,False,1445.0,75.0,59.0,40.0,False,,269.7657035129896,[],"[683, 384]",ColorTask,9.0,107.0,,,HRV,HRV_0047,2022-11-30 18:51:12
,wl-rdm,230,707846,0.0-8.107-0.107,1.0,212.0,,,,,,,[],,,,,,73.6,1.0,i,1.0,True,1667.0,54.0,59.0,40.0,False,,215.87064697291385,[],"[683, 384]",ColorTask,10.0,108.0,,,HRV,HRV_0047,2022-11-30 18:51:12
,wl-rdm,231,711048,0.0-8.108-0.108,1.0,213.0,,,,,,,[],,,,,,62.5,1.0,i,1.0,True,1904.0,89.0,59.0,40.0,False,,230.269312521813,[],"[683, 384]",ColorTask,11.0,109.0,,,HRV,HRV_0047,2022-11-30 18:51:12
,wl-rdm,232,713943,0.0-8.109-0.109,1.0,214.0,,,,,,,[],,,,,,73.6,0.0,u,0.0,True,1623.0,85.0,59.0,40.0,False,,214.94286280806028,[],"[683, 384]",ColorTask,12.0,110.0,,,HRV,HRV_0047,2022-11-30 18:51:12
,wl-rdm,233,716911,0.0-8.110-0.110,1.0,215.0,,,,,,,[],,,,,,73.6,0.0,u,0.0,True,1624.0,82.0,59.0,40.0,False,,249.31951343113516,[],"[683, 384]",ColorTask,13.0,111.0,,,HRV,HRV_0047,2022-11-30 18:51:12
,wl-rdm,234,719540,0.0-8.111-0.111,1.0,216.0,,,,,,,[],,,,,,87.9,0.0,u,0.0,True,1289.0,74.0,59.0,40.0,False,,289.3113184854976,[],"[683, 384]",ColorTask,14.0,112.0,,,HRV,HRV_0047,2022-11-30 18:51:12
,wl-rdm,235,722545,0.0-8.112-0.112,1.0,217.0,,,,,,,[],,,,,,56.4,0.0,u,0.0,True,1549.0,59.0,59.0,40.0,False,,245.13381049907449,[],"[683, 384]",ColorTask,15.0,113.0,,,HRV,HRV_0047,2022-11-30 18:51:12
,wl-rdm,236,725739,0.0-8.113-0.113,1.0,218.0,,,,,,,[],,,,,,53.2,1.0,u,0.0,False,1760.0,97.0,59.0,40.0,False,,300.2692886793871,[],"[683, 384]",ColorTask,14.0,114.0,,,HRV,HRV_0047,2022-11-30 18:51:12
,wl-rdm,237,728790,0.0-8.114-0.114,1.0,219.0,,,,,,,[],,,,,,53.2,0.0,i,1.0,False,1737.0,79.0,59.0,40.0,False,,247.07975896892037,[],"[683, 384]",ColorTask,13.0,115.0,,,HRV,HRV_0047,2022-11-30 18:51:12
,wl-rdm,238,732465,0.0-8.115-0.115,1.0,220.0,,,,,,,[],,,,,,50.0,0.0,u,0.0,True,2311.0,110.0,59.0,40.0,False,,266.690140913046,[],"[683, 384]",ColorTask,14.0,116.0,,,HRV,HRV_0047,2022-11-30 18:51:12
,wl-rdm,239,735472,0.0-8.116-0.116,1.0,221.0,,,,,,,[],,,,,,50.0,1.0,u,0.0,False,1673.0,91.0,59.0,40.0,False,,261.06085636082116,[],"[683, 384]",ColorTask,13.0,117.0,,,HRV,HRV_0047,2022-11-30 18:51:12
,wl-rdm,240,737760,0.0-8.117-0.117,1.0,222.0,,,,,,,[],,,,,,56.4,0.0,i,1.0,False,991.0,59.0,59.0,40.0,False,,200.25649280160238,[],"[683, 384]",ColorTask,12.0,118.0,,,HRV,HRV_0047,2022-11-30 18:51:12
,wl-rdm,241,740742,0.0-8.118-0.118,1.0,223.0,,,,,,,[],,,,,,62.5,0.0,u,0.0,True,1628.0,81.0,59.0,40.0,False,,260.9180591036778,[],"[683, 384]",ColorTask,13.0,119.0,,,HRV,HRV_0047,2022-11-30 18:51:12
,wl-rdm,242,744339,0.0-8.119-0.119,1.0,224.0,,,,,,,[],,,,,,87.9,1.0,i,1.0,True,2293.0,101.0,59.0,40.0,False,,221.10773550333028,[],"[683, 384]",ColorTask,14.0,120.0,,,HRV,HRV_0047,2022-11-30 18:51:12
,wl-rdm,243,747270,0.0-8.120-0.120,1.0,225.0,,,,,,,[],,,,,,50.0,0.0,u,0.0,True,1560.0,58.0,59.0,40.0,False,,259.14606266999607,[],"[683, 384]",ColorTask,15.0,121.0,,,HRV,HRV_0047,2022-11-30 18:51:12
,wl-html-button-response,244,750687,0.0-9.0-0.0,,,,,,,,,,3411.0,,0,,,,,,,,,,,,,,,,,,,,<h3>End of this session. Thank you!</h3><br>,['Close window'],HRV,HRV_0047,2022-11-30 18:51:12
